*RAS_DATA_START
*RAS_HEADER_START
*DISP_FMT_X "%.2f"
*DISP_FMT_Y "%.0f"
*DISP_FULLSCALE "16050.0000000000"
*DISP_LINE_COLOR "255.0000000000"
*DISP_LINE_STYLE "0.0000000000"
*DISP_LINE_WIDTH "0.2500000000"
*DISP_NOTE "測定データ-9"
*DISP_OFFSET_Y "0.0000000000"
*DISP_PEAKSEARCH_UNIT_Y "cps"
*DISP_RANGE_BOTTOM "0.0000000000"
*DISP_RANGE_LEFT "20.0000000000"
*DISP_RANGE_LOGCUTOFF "0.0100000000"
*DISP_RANGE_RIGHT "70.0000000000"
*DISP_RANGE_TOP "16050.0000000000"
*DISP_SCALE_MODE_Y "0.0000000000"
*DISP_TAB_NAME "2θ/θ"
*DISP_TITLE_Y "強度"
*DISP_UNIT_Y "cps"
*DISP_WINDOW_NAME "MSG_MACROENGINE"
*FILE_COMMENT " "
*FILE_MD5 ""
*FILE_MEMO " "
*FILE_OPERATOR "Administrator"
*FILE_SAMPLE " "
*FILE_TYPE "RAS_RAW"
*FILE_USERGROUP "システムマネージャ"
*FILE_VERSION "1.0000000000"
*HW_ATTACHMENT_ID "ATT0025"
*HW_ATTACHMENT_NAME "標準|Standard"
*HW_COUNTER_ID-0 "CUT0025"
*HW_COUNTER_ID-1 "CUT0020"
*HW_COUNTER_ID-2 "CUT0020"
*HW_COUNTER_ID-3 "CSL0021"
*HW_COUNTER_ID-4 "CMC0021"
*HW_COUNTER_NAME-0 "D/teX Ultra|D/teX Ultra"
*HW_COUNTER_NAME-1 "None|None"
*HW_COUNTER_NAME-2 "None|None"
*HW_COUNTER_NAME-3 "BBM|BBM"
*HW_COUNTER_NAME-4 "検出器モノクロメータ|Detector monochromator"
*HW_COUNTER_SELECT_NAME "D/teX Ultra|D/teX Ultra"
*HW_GONIOMETER_ID "GON0023"
*HW_GONIOMETER_NAME "SmartLab|SmartLab"
*HW_GONIOMETER_RADIUS-0 "90.0"
*HW_GONIOMETER_RADIUS-1 "114.0"
*HW_GONIOMETER_RADIUS-2 "190.0"
*HW_GONIOMETER_RADIUS-3 "300.0"
*HW_GONIOMETER_RADIUS-4 "187.0"
*HW_GONIOMETER_RADIUS-5 "300.0"
*HW_GONIOMETER_RADIUS-6 "113.0"
*HW_GONIOMETER_RADIUS-7 "331.0"
*HW_I_OPT_ID-0 "CBO0021"
*HW_I_OPT_ID-1 "ICR0023"
*HW_I_OPT_ID-2 "ISL0021"
*HW_I_OPT_ID-3 "ISO0021"
*HW_I_OPT_ID-4 "IAD0021"
*HW_I_OPT_ID-5 "IPR0001"
*HW_I_OPT_NAME-0 "CBOユニット|CBO unit"
*HW_I_OPT_NAME-1 "標準入射光学ユニット|Standard incident optical unit"
*HW_I_OPT_NAME-2 "標準入射スリットボックス|Standard incident slit box"
*HW_I_OPT_NAME-3 "入射平行スリット|Incident parallel slit"
*HW_I_OPT_NAME-4 "長手制限スリット|Length limiting slit"
*HW_I_OPT_NAME-5 "None|None"
*HW_R_ATTENUATER_AUTOMODE "0"
*HW_R_OPT_ID-0 "RSS0021"
*HW_R_OPT_ID-1 "RCR0023"
*HW_R_OPT_ID-2 "RSO0021"
*HW_R_OPT_ID-3 "RRS0021"
*HW_R_OPT_ID-4 "ATN0021"
*HW_R_OPT_ID-5 "RFL0021"
*HW_R_OPT_ID-6 "RAD0021"
*HW_R_OPT_NAME-0 "標準受光スリットボックス1|Standard receiving slit box # 1"
*HW_R_OPT_NAME-1 "標準受光光学ユニット1|Standard receiving unit # 1"
*HW_R_OPT_NAME-2 "標準受光光学ユニット2|Standard receiving optical unit # 2"
*HW_R_OPT_NAME-3 "標準受光スリットボックス2|Standard receiving slit box # 2"
*HW_R_OPT_NAME-4 "標準アッテネータ|Standard Attenuator"
*HW_R_OPT_NAME-5 "Cu Kβ|Cu K-beta"
*HW_R_OPT_NAME-6 "調整用受光スリット|Alignment receiving slit"
*HW_SAMPLE_HOLDER_ID "SMP0023"
*HW_SAMPLE_HOLDER_NAME "標準Zステージ|Standard Z stage"
*HW_XG_CURRENT_MAX "50"
*HW_XG_CURRENT_MIN "2"
*HW_XG_CURRENT_RESOLUTION "1"
*HW_XG_CURRENT_UNIT "mA"
*HW_XG_FOCUS "1mm x 10mm"
*HW_XG_FOCUS_TYPE "Normal"
*HW_XG_ID ""
*HW_XG_NAME "3kW 封入管(ID:1200)|3kW Sealed tube(ID:1200)"
*HW_XG_TARGET_ATOMIC_NUMBER "29.0000000000"
*HW_XG_TARGET_NAME "Cu"
*HW_XG_TYPE "Hermetic"
*HW_XG_VOLTAGE_MAX "60"
*HW_XG_VOLTAGE_MIN "20"
*HW_XG_VOLTAGE_RESOLUTION "1"
*HW_XG_VOLTAGE_UNIT "kV"
*HW_XG_WATT_MAX "1.500"
*HW_XG_WATT_UNIT "kW"
*HW_XG_WAVE_LENGTH_ALPHA1 "1.540593"
*HW_XG_WAVE_LENGTH_ALPHA2 "1.544414"
*HW_XG_WAVE_LENGTH_BETA "1.392250"
*MEAS_COND_AXIS_NAME-0 "2θ/θ"
*MEAS_COND_AXIS_NAME-1 "2θ"
*MEAS_COND_AXIS_NAME-2 "ω"
*MEAS_COND_AXIS_NAME-3 "Z"
*MEAS_COND_AXIS_NAME-4 "2θ/ω"
*MEAS_COND_AXIS_NAME-5 "θs"
*MEAS_COND_AXIS_NAME-6 "θd"
*MEAS_COND_AXIS_NAME-7 "Ts"
*MEAS_COND_AXIS_NAME-8 "CBO選択スリット"
*MEAS_COND_AXIS_NAME-9 "M"
*MEAS_COND_AXIS_NAME-10 "入射平行スリット"
*MEAS_COND_AXIS_NAME-11 "入射スリット"
*MEAS_COND_AXIS_NAME-12 ""
*MEAS_COND_AXIS_NAME-13 "Zs"
*MEAS_COND_AXIS_NAME-14 "入射光学素子"
*MEAS_COND_AXIS_NAME-15 "長手制限スリット"
*MEAS_COND_AXIS_NAME-16 "センタースリット"
*MEAS_COND_AXIS_NAME-17 "フィルター"
*MEAS_COND_AXIS_NAME-18 "受光スリット1"
*MEAS_COND_AXIS_NAME-19 "受光スリット2"
*MEAS_COND_AXIS_NAME-20 "受光光学素子"
*MEAS_COND_AXIS_NAME-21 "受光平行スリット"
*MEAS_COND_AXIS_NAME-22 "調整用受光スリット"
*MEAS_COND_AXIS_NAME-23 ""
*MEAS_COND_AXIS_NAME-24 ""
*MEAS_COND_AXIS_NAME-25 "Zd"
*MEAS_COND_AXIS_NAME-26 "アッテネータ"
*MEAS_COND_AXIS_NAME-27 "検出器モノクロメータ"
*MEAS_COND_AXIS_NAME-28 "モノクロメータスリット"
*MEAS_COND_AXIS_NAME-29 "プライマリビーム"
*MEAS_COND_AXIS_NAME-30 "PHA"
*MEAS_COND_AXIS_NAME_INTERNAL-0 "TwoThetaTheta"
*MEAS_COND_AXIS_NAME_INTERNAL-1 "TwoTheta"
*MEAS_COND_AXIS_NAME_INTERNAL-2 "Omega"
*MEAS_COND_AXIS_NAME_INTERNAL-3 "Z"
*MEAS_COND_AXIS_NAME_INTERNAL-4 "TwoThetaOmega"
*MEAS_COND_AXIS_NAME_INTERNAL-5 "ThetaS"
*MEAS_COND_AXIS_NAME_INTERNAL-6 "ThetaD"
*MEAS_COND_AXIS_NAME_INTERNAL-7 "Ts"
*MEAS_COND_AXIS_NAME_INTERNAL-8 "CBO"
*MEAS_COND_AXIS_NAME_INTERNAL-9 "CBO-M"
*MEAS_COND_AXIS_NAME_INTERNAL-10 "IncidentSollerSlit"
*MEAS_COND_AXIS_NAME_INTERNAL-11 "IncidentSlitBox"
*MEAS_COND_AXIS_NAME_INTERNAL-12 "IncidentSlitBox-_Axis"
*MEAS_COND_AXIS_NAME_INTERNAL-13 "Zs"
*MEAS_COND_AXIS_NAME_INTERNAL-14 "IncidentMonochromator"
*MEAS_COND_AXIS_NAME_INTERNAL-15 "IncidentAxdSlit"
*MEAS_COND_AXIS_NAME_INTERNAL-16 "CenterSlit"
*MEAS_COND_AXIS_NAME_INTERNAL-17 "Filter"
*MEAS_COND_AXIS_NAME_INTERNAL-18 "ReceivingSlitBox1"
*MEAS_COND_AXIS_NAME_INTERNAL-19 "ReceivingSlitBox2"
*MEAS_COND_AXIS_NAME_INTERNAL-20 "ReceivingOptics"
*MEAS_COND_AXIS_NAME_INTERNAL-21 "ReceivingSollerSlit"
*MEAS_COND_AXIS_NAME_INTERNAL-22 "ReceivingAxdSlit"
*MEAS_COND_AXIS_NAME_INTERNAL-23 "ReceivingSlitBox1-_Axis"
*MEAS_COND_AXIS_NAME_INTERNAL-24 "ReceivingSlitBox2-_Axis"
*MEAS_COND_AXIS_NAME_INTERNAL-25 "ReceivingSlitBox2-Zd"
*MEAS_COND_AXIS_NAME_INTERNAL-26 "Attenuator"
*MEAS_COND_AXIS_NAME_INTERNAL-27 "CounterMonochromator"
*MEAS_COND_AXIS_NAME_INTERNAL-28 "CounterSlit"
*MEAS_COND_AXIS_NAME_INTERNAL-29 "IncidentPrimary"
*MEAS_COND_AXIS_NAME_INTERNAL-30 "PHA"
*MEAS_COND_AXIS_NAME_MAGICNO-0 "83951616.0000000000"
*MEAS_COND_AXIS_NAME_MAGICNO-1 "268632064.0000000000"
*MEAS_COND_AXIS_NAME_MAGICNO-2 "268500992.0000000000"
*MEAS_COND_AXIS_NAME_MAGICNO-3 "285278208.0000000000"
*MEAS_COND_AXIS_NAME_MAGICNO-4 "83951616.0000000000"
*MEAS_COND_AXIS_NAME_MAGICNO-5 "131072.0000000000"
*MEAS_COND_AXIS_NAME_MAGICNO-6 "131072.0000000000"
*MEAS_COND_AXIS_NAME_MAGICNO-7 "318898176.0000000000"
*MEAS_COND_AXIS_NAME_MAGICNO-8 "20971521.0000000000"
*MEAS_COND_AXIS_NAME_MAGICNO-9 "285343744.0000000000"
*MEAS_COND_AXIS_NAME_MAGICNO-10 "20971521.0000000000"
*MEAS_COND_AXIS_NAME_MAGICNO-11 "22020097.0000000000"
*MEAS_COND_AXIS_NAME_MAGICNO-12 "25165824.0000000000"
*MEAS_COND_AXIS_NAME_MAGICNO-13 "318898176.0000000000"
*MEAS_COND_AXIS_NAME_MAGICNO-14 "1.0000000000"
*MEAS_COND_AXIS_NAME_MAGICNO-15 "20971521.0000000000"
*MEAS_COND_AXIS_NAME_MAGICNO-16 "20971521.0000000000"
*MEAS_COND_AXIS_NAME_MAGICNO-17 "20971521.0000000000"
*MEAS_COND_AXIS_NAME_MAGICNO-18 "23068673.0000000000"
*MEAS_COND_AXIS_NAME_MAGICNO-19 "23068673.0000000000"
*MEAS_COND_AXIS_NAME_MAGICNO-20 "20971521.0000000000"
*MEAS_COND_AXIS_NAME_MAGICNO-21 "20971521.0000000000"
*MEAS_COND_AXIS_NAME_MAGICNO-22 "20971521.0000000000"
*MEAS_COND_AXIS_NAME_MAGICNO-23 "25165824.0000000000"
*MEAS_COND_AXIS_NAME_MAGICNO-24 "25165824.0000000000"
*MEAS_COND_AXIS_NAME_MAGICNO-25 "285343744.0000000000"
*MEAS_COND_AXIS_NAME_MAGICNO-26 "17301505.0000000000"
*MEAS_COND_AXIS_NAME_MAGICNO-27 "20971521.0000000000"
*MEAS_COND_AXIS_NAME_MAGICNO-28 "20971521.0000000000"
*MEAS_COND_AXIS_NAME_MAGICNO-29 "20971521.0000000000"
*MEAS_COND_AXIS_NAME_MAGICNO-30 "0.0000000000"
*MEAS_COND_AXIS_OFFSET-0 "-"
*MEAS_COND_AXIS_OFFSET-1 "-0.0310000000"
*MEAS_COND_AXIS_OFFSET-2 "0.3957000000"
*MEAS_COND_AXIS_OFFSET-3 "-"
*MEAS_COND_AXIS_OFFSET-4 "-"
*MEAS_COND_AXIS_OFFSET-5 "0.3957000000"
*MEAS_COND_AXIS_OFFSET-6 "-0.4267000000"
*MEAS_COND_AXIS_OFFSET-7 "-"
*MEAS_COND_AXIS_OFFSET-8 "-"
*MEAS_COND_AXIS_OFFSET-9 "-"
*MEAS_COND_AXIS_OFFSET-10 "-"
*MEAS_COND_AXIS_OFFSET-11 "-"
*MEAS_COND_AXIS_OFFSET-12 "-"
*MEAS_COND_AXIS_OFFSET-13 "-"
*MEAS_COND_AXIS_OFFSET-14 "-"
*MEAS_COND_AXIS_OFFSET-15 "-"
*MEAS_COND_AXIS_OFFSET-16 "-"
*MEAS_COND_AXIS_OFFSET-17 "-"
*MEAS_COND_AXIS_OFFSET-18 "-"
*MEAS_COND_AXIS_OFFSET-19 "-"
*MEAS_COND_AXIS_OFFSET-20 "-"
*MEAS_COND_AXIS_OFFSET-21 "-"
*MEAS_COND_AXIS_OFFSET-22 "-"
*MEAS_COND_AXIS_OFFSET-23 "-"
*MEAS_COND_AXIS_OFFSET-24 "-"
*MEAS_COND_AXIS_OFFSET-25 "-"
*MEAS_COND_AXIS_OFFSET-26 "-"
*MEAS_COND_AXIS_OFFSET-27 "-"
*MEAS_COND_AXIS_OFFSET-28 "-"
*MEAS_COND_AXIS_OFFSET-29 "-"
*MEAS_COND_AXIS_OFFSET-30 "-"
*MEAS_COND_AXIS_POSITION-0 "0.0000000000"
*MEAS_COND_AXIS_POSITION-1 "0.0000000000"
*MEAS_COND_AXIS_POSITION-2 "0.0000000000"
*MEAS_COND_AXIS_POSITION-3 "-2.9037400000"
*MEAS_COND_AXIS_POSITION-4 "0.0000000000"
*MEAS_COND_AXIS_POSITION-5 "0.0000000000"
*MEAS_COND_AXIS_POSITION-6 "0.0000000000"
*MEAS_COND_AXIS_POSITION-7 "-0.7498700000"
*MEAS_COND_AXIS_POSITION-8 "BB"
*MEAS_COND_AXIS_POSITION-9 "0.0000000000"
*MEAS_COND_AXIS_POSITION-10 "Soller_slit_5.0deg"
*MEAS_COND_AXIS_POSITION-11 "2/3deg"
*MEAS_COND_AXIS_POSITION-12 "2.2088000000"
*MEAS_COND_AXIS_POSITION-13 "-0.6412500000"
*MEAS_COND_AXIS_POSITION-14 "0.0000000000"
*MEAS_COND_AXIS_POSITION-15 "10.0mm"
*MEAS_COND_AXIS_POSITION-16 "None"
*MEAS_COND_AXIS_POSITION-17 "Cu_K-beta"
*MEAS_COND_AXIS_POSITION-18 "13.000mm"
*MEAS_COND_AXIS_POSITION-19 "13.000mm"
*MEAS_COND_AXIS_POSITION-20 "No_unit"
*MEAS_COND_AXIS_POSITION-21 "Soller_slit_5.0deg"
*MEAS_COND_AXIS_POSITION-22 "None"
*MEAS_COND_AXIS_POSITION-23 "13.0000000000"
*MEAS_COND_AXIS_POSITION-24 "13.0000000000"
*MEAS_COND_AXIS_POSITION-25 "0.0281300000"
*MEAS_COND_AXIS_POSITION-26 "Open"
*MEAS_COND_AXIS_POSITION-27 "None"
*MEAS_COND_AXIS_POSITION-28 "None"
*MEAS_COND_AXIS_POSITION-29 "None"
*MEAS_COND_AXIS_POSITION-30 "38.0000000000"
*MEAS_COND_AXIS_UNIT-0 "deg"
*MEAS_COND_AXIS_UNIT-1 "deg"
*MEAS_COND_AXIS_UNIT-2 "deg"
*MEAS_COND_AXIS_UNIT-3 "mm"
*MEAS_COND_AXIS_UNIT-4 "deg"
*MEAS_COND_AXIS_UNIT-5 "deg"
*MEAS_COND_AXIS_UNIT-6 "deg"
*MEAS_COND_AXIS_UNIT-7 "mm"
*MEAS_COND_AXIS_UNIT-8 ""
*MEAS_COND_AXIS_UNIT-9 "pulse"
*MEAS_COND_AXIS_UNIT-10 ""
*MEAS_COND_AXIS_UNIT-11 ""
*MEAS_COND_AXIS_UNIT-12 "mm"
*MEAS_COND_AXIS_UNIT-13 "mm"
*MEAS_COND_AXIS_UNIT-14 ""
*MEAS_COND_AXIS_UNIT-15 ""
*MEAS_COND_AXIS_UNIT-16 ""
*MEAS_COND_AXIS_UNIT-17 ""
*MEAS_COND_AXIS_UNIT-18 ""
*MEAS_COND_AXIS_UNIT-19 ""
*MEAS_COND_AXIS_UNIT-20 ""
*MEAS_COND_AXIS_UNIT-21 ""
*MEAS_COND_AXIS_UNIT-22 ""
*MEAS_COND_AXIS_UNIT-23 "mm"
*MEAS_COND_AXIS_UNIT-24 "mm"
*MEAS_COND_AXIS_UNIT-25 "mm"
*MEAS_COND_AXIS_UNIT-26 ""
*MEAS_COND_AXIS_UNIT-27 ""
*MEAS_COND_AXIS_UNIT-28 ""
*MEAS_COND_AXIS_UNIT-29 ""
*MEAS_COND_AXIS_UNIT-30 "div"
*MEAS_COND_COUNTER_CNTLOSS_CORR "0.0000000000"
*MEAS_COND_COUNTER_PHABASE "38.0000000000"
*MEAS_COND_COUNTER_PHAWINDOW "16.0000000000"
*MEAS_COND_COUNTER_PHA_UNIT "div"
*MEAS_COND_COUNTER_TAUDIFF "30.0000000000"
*MEAS_COND_COUNTER_TAUINT "0.0000000000"
*MEAS_COND_IRRADIATION_MODE "OFF"
*MEAS_COND_IRRADIATION_WIDTH ""
*MEAS_COND_OPT_ATTR "集中法"
*MEAS_COND_OPT_NAME "@集中法"
*MEAS_COND_UNSYMMETRIC_MODE "OFF"
*MEAS_COND_XG_CURRENT "30.0000000000"
*MEAS_COND_XG_VOLTAGE "40.0000000000"
*MEAS_COND_XG_WAVE_TYPE "Ka"
*MEAS_DATA_COUNT "5001.0000000000"
*MEAS_SCAN_AXIS_X "2θ/θ"
*MEAS_SCAN_AXIS_X_INTERNAL "TwoThetaTheta"
*MEAS_SCAN_END_TIME "02/15/24 20:00:17"
*MEAS_SCAN_MODE "CONTINUOUS"
*MEAS_SCAN_MONITOR "0"
*MEAS_SCAN_RESOLUTION_X "0.0002"
*MEAS_SCAN_SPEED "2.5"
*MEAS_SCAN_SPEED_UNIT "deg/min"
*MEAS_SCAN_START "20.0000000000"
*MEAS_SCAN_START_TIME "02/15/24 19:38:53"
*MEAS_SCAN_STEP "0.0100000000"
*MEAS_SCAN_STOP "70.0000000000"
*MEAS_SCAN_UNIT_X "deg"
*MEAS_SCAN_UNIT_Y "counts"
*RAS_HEADER_END
*RAS_INT_START
20.0000 884.0000 1.0000
20.0100 887.0000 1.0000
20.0200 833.0000 1.0000
20.0300 860.0000 1.0000
20.0400 869.0000 1.0000
20.0500 890.0000 1.0000
20.0600 904.0000 1.0000
20.0700 910.0000 1.0000
20.0800 844.0000 1.0000
20.0900 865.0000 1.0000
20.1000 913.0000 1.0000
20.1100 912.0000 1.0000
20.1200 891.0000 1.0000
20.1300 902.0000 1.0000
20.1400 895.0000 1.0000
20.1500 908.0000 1.0000
20.1600 886.0000 1.0000
20.1700 897.0000 1.0000
20.1800 903.0000 1.0000
20.1900 930.0000 1.0000
20.2000 898.0000 1.0000
20.2100 889.0000 1.0000
20.2200 884.0000 1.0000
20.2300 847.0000 1.0000
20.2400 873.0000 1.0000
20.2500 895.0000 1.0000
20.2600 859.0000 1.0000
20.2700 856.0000 1.0000
20.2800 850.0000 1.0000
20.2900 842.0000 1.0000
20.3000 918.0000 1.0000
20.3100 889.0000 1.0000
20.3200 953.0000 1.0000
20.3300 948.0000 1.0000
20.3400 884.0000 1.0000
20.3500 888.0000 1.0000
20.3600 854.0000 1.0000
20.3700 848.0000 1.0000
20.3800 899.0000 1.0000
20.3900 869.0000 1.0000
20.4000 830.0000 1.0000
20.4100 835.0000 1.0000
20.4200 837.0000 1.0000
20.4300 857.0000 1.0000
20.4400 866.0000 1.0000
20.4500 848.0000 1.0000
20.4600 818.0000 1.0000
20.4700 862.0000 1.0000
20.4800 878.0000 1.0000
20.4900 900.0000 1.0000
20.5000 863.0000 1.0000
20.5100 863.0000 1.0000
20.5200 915.0000 1.0000
20.5300 847.0000 1.0000
20.5400 847.0000 1.0000
20.5500 870.0000 1.0000
20.5600 861.0000 1.0000
20.5700 841.0000 1.0000
20.5800 835.0000 1.0000
20.5900 824.0000 1.0000
20.6000 904.0000 1.0000
20.6100 881.0000 1.0000
20.6200 840.0000 1.0000
20.6300 878.0000 1.0000
20.6400 861.0000 1.0000
20.6500 873.0000 1.0000
20.6600 824.0000 1.0000
20.6700 849.0000 1.0000
20.6800 855.0000 1.0000
20.6900 833.0000 1.0000
20.7000 898.0000 1.0000
20.7100 837.0000 1.0000
20.7200 850.0000 1.0000
20.7300 820.0000 1.0000
20.7400 877.0000 1.0000
20.7500 834.0000 1.0000
20.7600 850.0000 1.0000
20.7700 869.0000 1.0000
20.7800 896.0000 1.0000
20.7900 862.0000 1.0000
20.8000 922.0000 1.0000
20.8100 873.0000 1.0000
20.8200 850.0000 1.0000
20.8300 901.0000 1.0000
20.8400 862.0000 1.0000
20.8500 832.0000 1.0000
20.8600 845.0000 1.0000
20.8700 825.0000 1.0000
20.8800 859.0000 1.0000
20.8900 876.0000 1.0000
20.9000 820.0000 1.0000
20.9100 821.0000 1.0000
20.9200 851.0000 1.0000
20.9300 848.0000 1.0000
20.9400 850.0000 1.0000
20.9500 856.0000 1.0000
20.9600 826.0000 1.0000
20.9700 812.0000 1.0000
20.9800 858.0000 1.0000
20.9900 839.0000 1.0000
21.0000 819.0000 1.0000
21.0100 831.0000 1.0000
21.0200 800.0000 1.0000
21.0300 824.0000 1.0000
21.0400 881.0000 1.0000
21.0500 856.0000 1.0000
21.0600 890.0000 1.0000
21.0700 865.0000 1.0000
21.0800 839.0000 1.0000
21.0900 815.0000 1.0000
21.1000 828.0000 1.0000
21.1100 820.0000 1.0000
21.1200 833.0000 1.0000
21.1300 822.0000 1.0000
21.1400 866.0000 1.0000
21.1500 825.0000 1.0000
21.1600 793.0000 1.0000
21.1700 803.0000 1.0000
21.1800 853.0000 1.0000
21.1900 823.0000 1.0000
21.2000 828.0000 1.0000
21.2100 865.0000 1.0000
21.2200 825.0000 1.0000
21.2300 861.0000 1.0000
21.2400 907.0000 1.0000
21.2500 851.0000 1.0000
21.2600 893.0000 1.0000
21.2700 846.0000 1.0000
21.2800 789.0000 1.0000
21.2900 807.0000 1.0000
21.3000 833.0000 1.0000
21.3100 866.0000 1.0000
21.3200 886.0000 1.0000
21.3300 865.0000 1.0000
21.3400 891.0000 1.0000
21.3500 876.0000 1.0000
21.3600 868.0000 1.0000
21.3700 864.0000 1.0000
21.3800 835.0000 1.0000
21.3900 812.0000 1.0000
21.4000 871.0000 1.0000
21.4100 852.0000 1.0000
21.4200 843.0000 1.0000
21.4300 805.0000 1.0000
21.4400 814.0000 1.0000
21.4500 871.0000 1.0000
21.4600 846.0000 1.0000
21.4700 864.0000 1.0000
21.4800 885.0000 1.0000
21.4900 835.0000 1.0000
21.5000 879.0000 1.0000
21.5100 878.0000 1.0000
21.5200 830.0000 1.0000
21.5300 910.0000 1.0000
21.5400 860.0000 1.0000
21.5500 857.0000 1.0000
21.5600 887.0000 1.0000
21.5700 862.0000 1.0000
21.5800 841.0000 1.0000
21.5900 888.0000 1.0000
21.6000 913.0000 1.0000
21.6100 843.0000 1.0000
21.6200 849.0000 1.0000
21.6300 845.0000 1.0000
21.6400 841.0000 1.0000
21.6500 850.0000 1.0000
21.6600 863.0000 1.0000
21.6700 867.0000 1.0000
21.6800 921.0000 1.0000
21.6900 854.0000 1.0000
21.7000 852.0000 1.0000
21.7100 811.0000 1.0000
21.7200 804.0000 1.0000
21.7300 818.0000 1.0000
21.7400 850.0000 1.0000
21.7500 844.0000 1.0000
21.7600 855.0000 1.0000
21.7700 843.0000 1.0000
21.7800 873.0000 1.0000
21.7900 855.0000 1.0000
21.8000 839.0000 1.0000
21.8100 846.0000 1.0000
21.8200 821.0000 1.0000
21.8300 880.0000 1.0000
21.8400 772.0000 1.0000
21.8500 844.0000 1.0000
21.8600 798.0000 1.0000
21.8700 875.0000 1.0000
21.8800 855.0000 1.0000
21.8900 854.0000 1.0000
21.9000 812.0000 1.0000
21.9100 831.0000 1.0000
21.9200 837.0000 1.0000
21.9300 869.0000 1.0000
21.9400 871.0000 1.0000
21.9500 813.0000 1.0000
21.9600 829.0000 1.0000
21.9700 839.0000 1.0000
21.9800 868.0000 1.0000
21.9900 828.0000 1.0000
22.0000 833.0000 1.0000
22.0100 822.0000 1.0000
22.0200 866.0000 1.0000
22.0300 840.0000 1.0000
22.0400 850.0000 1.0000
22.0500 835.0000 1.0000
22.0600 860.0000 1.0000
22.0700 811.0000 1.0000
22.0800 860.0000 1.0000
22.0900 865.0000 1.0000
22.1000 869.0000 1.0000
22.1100 865.0000 1.0000
22.1200 840.0000 1.0000
22.1300 855.0000 1.0000
22.1400 847.0000 1.0000
22.1500 794.0000 1.0000
22.1600 816.0000 1.0000
22.1700 854.0000 1.0000
22.1800 833.0000 1.0000
22.1900 844.0000 1.0000
22.2000 823.0000 1.0000
22.2100 823.0000 1.0000
22.2200 890.0000 1.0000
22.2300 852.0000 1.0000
22.2400 826.0000 1.0000
22.2500 859.0000 1.0000
22.2600 836.0000 1.0000
22.2700 841.0000 1.0000
22.2800 840.0000 1.0000
22.2900 873.0000 1.0000
22.3000 854.0000 1.0000
22.3100 819.0000 1.0000
22.3200 779.0000 1.0000
22.3300 837.0000 1.0000
22.3400 835.0000 1.0000
22.3500 859.0000 1.0000
22.3600 814.0000 1.0000
22.3700 780.0000 1.0000
22.3800 845.0000 1.0000
22.3900 835.0000 1.0000
22.4000 868.0000 1.0000
22.4100 876.0000 1.0000
22.4200 848.0000 1.0000
22.4300 863.0000 1.0000
22.4400 866.0000 1.0000
22.4500 850.0000 1.0000
22.4600 825.0000 1.0000
22.4700 888.0000 1.0000
22.4800 856.0000 1.0000
22.4900 840.0000 1.0000
22.5000 835.0000 1.0000
22.5100 833.0000 1.0000
22.5200 843.0000 1.0000
22.5300 834.0000 1.0000
22.5400 857.0000 1.0000
22.5500 810.0000 1.0000
22.5600 830.0000 1.0000
22.5700 829.0000 1.0000
22.5800 835.0000 1.0000
22.5900 862.0000 1.0000
22.6000 817.0000 1.0000
22.6100 834.0000 1.0000
22.6200 838.0000 1.0000
22.6300 808.0000 1.0000
22.6400 851.0000 1.0000
22.6500 813.0000 1.0000
22.6600 828.0000 1.0000
22.6700 788.0000 1.0000
22.6800 791.0000 1.0000
22.6900 781.0000 1.0000
22.7000 763.0000 1.0000
22.7100 872.0000 1.0000
22.7200 785.0000 1.0000
22.7300 859.0000 1.0000
22.7400 841.0000 1.0000
22.7500 831.0000 1.0000
22.7600 854.0000 1.0000
22.7700 836.0000 1.0000
22.7800 829.0000 1.0000
22.7900 831.0000 1.0000
22.8000 837.0000 1.0000
22.8100 779.0000 1.0000
22.8200 808.0000 1.0000
22.8300 842.0000 1.0000
22.8400 822.0000 1.0000
22.8500 832.0000 1.0000
22.8600 801.0000 1.0000
22.8700 768.0000 1.0000
22.8800 822.0000 1.0000
22.8900 794.0000 1.0000
22.9000 840.0000 1.0000
22.9100 810.0000 1.0000
22.9200 803.0000 1.0000
22.9300 829.0000 1.0000
22.9400 858.0000 1.0000
22.9500 833.0000 1.0000
22.9600 831.0000 1.0000
22.9700 831.0000 1.0000
22.9800 779.0000 1.0000
22.9900 831.0000 1.0000
23.0000 793.0000 1.0000
23.0100 779.0000 1.0000
23.0200 829.0000 1.0000
23.0300 819.0000 1.0000
23.0400 854.0000 1.0000
23.0500 816.0000 1.0000
23.0600 779.0000 1.0000
23.0700 825.0000 1.0000
23.0800 790.0000 1.0000
23.0900 799.0000 1.0000
23.1000 857.0000 1.0000
23.1100 804.0000 1.0000
23.1200 789.0000 1.0000
23.1300 817.0000 1.0000
23.1400 816.0000 1.0000
23.1500 818.0000 1.0000
23.1600 807.0000 1.0000
23.1700 848.0000 1.0000
23.1800 837.0000 1.0000
23.1900 803.0000 1.0000
23.2000 784.0000 1.0000
23.2100 809.0000 1.0000
23.2200 791.0000 1.0000
23.2300 818.0000 1.0000
23.2400 804.0000 1.0000
23.2500 762.0000 1.0000
23.2600 852.0000 1.0000
23.2700 824.0000 1.0000
23.2800 833.0000 1.0000
23.2900 820.0000 1.0000
23.3000 833.0000 1.0000
23.3100 850.0000 1.0000
23.3200 800.0000 1.0000
23.3300 827.0000 1.0000
23.3400 823.0000 1.0000
23.3500 821.0000 1.0000
23.3600 835.0000 1.0000
23.3700 807.0000 1.0000
23.3800 759.0000 1.0000
23.3900 803.0000 1.0000
23.4000 816.0000 1.0000
23.4100 809.0000 1.0000
23.4200 781.0000 1.0000
23.4300 772.0000 1.0000
23.4400 822.0000 1.0000
23.4500 826.0000 1.0000
23.4600 840.0000 1.0000
23.4700 808.0000 1.0000
23.4800 843.0000 1.0000
23.4900 796.0000 1.0000
23.5000 796.0000 1.0000
23.5100 804.0000 1.0000
23.5200 778.0000 1.0000
23.5300 801.0000 1.0000
23.5400 787.0000 1.0000
23.5500 839.0000 1.0000
23.5600 813.0000 1.0000
23.5700 825.0000 1.0000
23.5800 810.0000 1.0000
23.5900 784.0000 1.0000
23.6000 801.0000 1.0000
23.6100 864.0000 1.0000
23.6200 849.0000 1.0000
23.6300 838.0000 1.0000
23.6400 803.0000 1.0000
23.6500 804.0000 1.0000
23.6600 833.0000 1.0000
23.6700 784.0000 1.0000
23.6800 847.0000 1.0000
23.6900 782.0000 1.0000
23.7000 807.0000 1.0000
23.7100 775.0000 1.0000
23.7200 828.0000 1.0000
23.7300 772.0000 1.0000
23.7400 821.0000 1.0000
23.7500 796.0000 1.0000
23.7600 758.0000 1.0000
23.7700 801.0000 1.0000
23.7800 844.0000 1.0000
23.7900 798.0000 1.0000
23.8000 758.0000 1.0000
23.8100 788.0000 1.0000
23.8200 785.0000 1.0000
23.8300 790.0000 1.0000
23.8400 809.0000 1.0000
23.8500 811.0000 1.0000
23.8600 788.0000 1.0000
23.8700 767.0000 1.0000
23.8800 840.0000 1.0000
23.8900 820.0000 1.0000
23.9000 798.0000 1.0000
23.9100 821.0000 1.0000
23.9200 848.0000 1.0000
23.9300 861.0000 1.0000
23.9400 846.0000 1.0000
23.9500 896.0000 1.0000
23.9600 876.0000 1.0000
23.9700 828.0000 1.0000
23.9800 868.0000 1.0000
23.9900 881.0000 1.0000
24.0000 868.0000 1.0000
24.0100 880.0000 1.0000
24.0200 903.0000 1.0000
24.0300 895.0000 1.0000
24.0400 932.0000 1.0000
24.0500 854.0000 1.0000
24.0600 933.0000 1.0000
24.0700 944.0000 1.0000
24.0800 948.0000 1.0000
24.0900 967.0000 1.0000
24.1000 899.0000 1.0000
24.1100 930.0000 1.0000
24.1200 916.0000 1.0000
24.1300 880.0000 1.0000
24.1400 948.0000 1.0000
24.1500 936.0000 1.0000
24.1600 896.0000 1.0000
24.1700 884.0000 1.0000
24.1800 904.0000 1.0000
24.1900 896.0000 1.0000
24.2000 867.0000 1.0000
24.2100 906.0000 1.0000
24.2200 900.0000 1.0000
24.2300 862.0000 1.0000
24.2400 853.0000 1.0000
24.2500 814.0000 1.0000
24.2600 931.0000 1.0000
24.2700 814.0000 1.0000
24.2800 838.0000 1.0000
24.2900 831.0000 1.0000
24.3000 781.0000 1.0000
24.3100 807.0000 1.0000
24.3200 766.0000 1.0000
24.3300 796.0000 1.0000
24.3400 803.0000 1.0000
24.3500 820.0000 1.0000
24.3600 813.0000 1.0000
24.3700 807.0000 1.0000
24.3800 820.0000 1.0000
24.3900 844.0000 1.0000
24.4000 805.0000 1.0000
24.4100 807.0000 1.0000
24.4200 806.0000 1.0000
24.4300 782.0000 1.0000
24.4400 852.0000 1.0000
24.4500 819.0000 1.0000
24.4600 797.0000 1.0000
24.4700 826.0000 1.0000
24.4800 861.0000 1.0000
24.4900 785.0000 1.0000
24.5000 784.0000 1.0000
24.5100 841.0000 1.0000
24.5200 797.0000 1.0000
24.5300 784.0000 1.0000
24.5400 852.0000 1.0000
24.5500 782.0000 1.0000
24.5600 778.0000 1.0000
24.5700 756.0000 1.0000
24.5800 784.0000 1.0000
24.5900 774.0000 1.0000
24.6000 798.0000 1.0000
24.6100 746.0000 1.0000
24.6200 802.0000 1.0000
24.6300 815.0000 1.0000
24.6400 778.0000 1.0000
24.6500 798.0000 1.0000
24.6600 773.0000 1.0000
24.6700 803.0000 1.0000
24.6800 838.0000 1.0000
24.6900 789.0000 1.0000
24.7000 816.0000 1.0000
24.7100 746.0000 1.0000
24.7200 771.0000 1.0000
24.7300 759.0000 1.0000
24.7400 808.0000 1.0000
24.7500 800.0000 1.0000
24.7600 766.0000 1.0000
24.7700 769.0000 1.0000
24.7800 765.0000 1.0000
24.7900 794.0000 1.0000
24.8000 763.0000 1.0000
24.8100 781.0000 1.0000
24.8200 775.0000 1.0000
24.8300 778.0000 1.0000
24.8400 772.0000 1.0000
24.8500 785.0000 1.0000
24.8600 774.0000 1.0000
24.8700 785.0000 1.0000
24.8800 759.0000 1.0000
24.8900 819.0000 1.0000
24.9000 769.0000 1.0000
24.9100 769.0000 1.0000
24.9200 802.0000 1.0000
24.9300 800.0000 1.0000
24.9400 764.0000 1.0000
24.9500 782.0000 1.0000
24.9600 762.0000 1.0000
24.9700 791.0000 1.0000
24.9800 808.0000 1.0000
24.9900 789.0000 1.0000
25.0000 815.0000 1.0000
25.0100 790.0000 1.0000
25.0200 760.0000 1.0000
25.0300 761.0000 1.0000
25.0400 757.0000 1.0000
25.0500 774.0000 1.0000
25.0600 779.0000 1.0000
25.0700 766.0000 1.0000
25.0800 729.0000 1.0000
25.0900 778.0000 1.0000
25.1000 791.0000 1.0000
25.1100 781.0000 1.0000
25.1200 788.0000 1.0000
25.1300 751.0000 1.0000
25.1400 746.0000 1.0000
25.1500 735.0000 1.0000
25.1600 790.0000 1.0000
25.1700 777.0000 1.0000
25.1800 773.0000 1.0000
25.1900 781.0000 1.0000
25.2000 746.0000 1.0000
25.2100 794.0000 1.0000
25.2200 797.0000 1.0000
25.2300 766.0000 1.0000
25.2400 771.0000 1.0000
25.2500 783.0000 1.0000
25.2600 761.0000 1.0000
25.2700 827.0000 1.0000
25.2800 784.0000 1.0000
25.2900 809.0000 1.0000
25.3000 760.0000 1.0000
25.3100 778.0000 1.0000
25.3200 775.0000 1.0000
25.3300 780.0000 1.0000
25.3400 739.0000 1.0000
25.3500 828.0000 1.0000
25.3600 789.0000 1.0000
25.3700 796.0000 1.0000
25.3800 777.0000 1.0000
25.3900 763.0000 1.0000
25.4000 786.0000 1.0000
25.4100 749.0000 1.0000
25.4200 796.0000 1.0000
25.4300 736.0000 1.0000
25.4400 811.0000 1.0000
25.4500 788.0000 1.0000
25.4600 797.0000 1.0000
25.4700 828.0000 1.0000
25.4800 772.0000 1.0000
25.4900 750.0000 1.0000
25.5000 755.0000 1.0000
25.5100 805.0000 1.0000
25.5200 802.0000 1.0000
25.5300 759.0000 1.0000
25.5400 783.0000 1.0000
25.5500 787.0000 1.0000
25.5600 820.0000 1.0000
25.5700 775.0000 1.0000
25.5800 768.0000 1.0000
25.5900 820.0000 1.0000
25.6000 816.0000 1.0000
25.6100 779.0000 1.0000
25.6200 777.0000 1.0000
25.6300 799.0000 1.0000
25.6400 829.0000 1.0000
25.6500 803.0000 1.0000
25.6600 812.0000 1.0000
25.6700 772.0000 1.0000
25.6800 775.0000 1.0000
25.6900 789.0000 1.0000
25.7000 796.0000 1.0000
25.7100 826.0000 1.0000
25.7200 791.0000 1.0000
25.7300 784.0000 1.0000
25.7400 763.0000 1.0000
25.7500 774.0000 1.0000
25.7600 795.0000 1.0000
25.7700 788.0000 1.0000
25.7800 774.0000 1.0000
25.7900 837.0000 1.0000
25.8000 786.0000 1.0000
25.8100 771.0000 1.0000
25.8200 778.0000 1.0000
25.8300 747.0000 1.0000
25.8400 811.0000 1.0000
25.8500 823.0000 1.0000
25.8600 800.0000 1.0000
25.8700 800.0000 1.0000
25.8800 842.0000 1.0000
25.8900 809.0000 1.0000
25.9000 812.0000 1.0000
25.9100 795.0000 1.0000
25.9200 845.0000 1.0000
25.9300 814.0000 1.0000
25.9400 807.0000 1.0000
25.9500 835.0000 1.0000
25.9600 819.0000 1.0000
25.9700 833.0000 1.0000
25.9800 814.0000 1.0000
25.9900 828.0000 1.0000
26.0000 850.0000 1.0000
26.0100 816.0000 1.0000
26.0200 915.0000 1.0000
26.0300 864.0000 1.0000
26.0400 810.0000 1.0000
26.0500 870.0000 1.0000
26.0600 853.0000 1.0000
26.0700 829.0000 1.0000
26.0800 825.0000 1.0000
26.0900 832.0000 1.0000
26.1000 865.0000 1.0000
26.1100 900.0000 1.0000
26.1200 891.0000 1.0000
26.1300 913.0000 1.0000
26.1400 867.0000 1.0000
26.1500 894.0000 1.0000
26.1600 941.0000 1.0000
26.1700 952.0000 1.0000
26.1800 932.0000 1.0000
26.1900 933.0000 1.0000
26.2000 999.0000 1.0000
26.2100 928.0000 1.0000
26.2200 961.0000 1.0000
26.2300 985.0000 1.0000
26.2400 983.0000 1.0000
26.2500 972.0000 1.0000
26.2600 1023.0000 1.0000
26.2700 1066.0000 1.0000
26.2800 1036.0000 1.0000
26.2900 1048.0000 1.0000
26.3000 1144.0000 1.0000
26.3100 1148.0000 1.0000
26.3200 1169.0000 1.0000
26.3300 1254.0000 1.0000
26.3400 1242.0000 1.0000
26.3500 1267.0000 1.0000
26.3600 1373.0000 1.0000
26.3700 1383.0000 1.0000
26.3800 1380.0000 1.0000
26.3900 1365.0000 1.0000
26.4000 1377.0000 1.0000
26.4100 1439.0000 1.0000
26.4200 1522.0000 1.0000
26.4300 1483.0000 1.0000
26.4400 1471.0000 1.0000
26.4500 1474.0000 1.0000
26.4600 1512.0000 1.0000
26.4700 1454.0000 1.0000
26.4800 1482.0000 1.0000
26.4900 1453.0000 1.0000
26.5000 1408.0000 1.0000
26.5100 1434.0000 1.0000
26.5200 1438.0000 1.0000
26.5300 1368.0000 1.0000
26.5400 1257.0000 1.0000
26.5500 1328.0000 1.0000
26.5600 1245.0000 1.0000
26.5700 1207.0000 1.0000
26.5800 1223.0000 1.0000
26.5900 1150.0000 1.0000
26.6000 1165.0000 1.0000
26.6100 1112.0000 1.0000
26.6200 1086.0000 1.0000
26.6300 1093.0000 1.0000
26.6400 1026.0000 1.0000
26.6500 1055.0000 1.0000
26.6600 988.0000 1.0000
26.6700 990.0000 1.0000
26.6800 974.0000 1.0000
26.6900 935.0000 1.0000
26.7000 940.0000 1.0000
26.7100 929.0000 1.0000
26.7200 933.0000 1.0000
26.7300 908.0000 1.0000
26.7400 870.0000 1.0000
26.7500 835.0000 1.0000
26.7600 867.0000 1.0000
26.7700 819.0000 1.0000
26.7800 848.0000 1.0000
26.7900 880.0000 1.0000
26.8000 797.0000 1.0000
26.8100 784.0000 1.0000
26.8200 813.0000 1.0000
26.8300 840.0000 1.0000
26.8400 827.0000 1.0000
26.8500 866.0000 1.0000
26.8600 837.0000 1.0000
26.8700 850.0000 1.0000
26.8800 762.0000 1.0000
26.8900 790.0000 1.0000
26.9000 810.0000 1.0000
26.9100 822.0000 1.0000
26.9200 792.0000 1.0000
26.9300 821.0000 1.0000
26.9400 773.0000 1.0000
26.9500 779.0000 1.0000
26.9600 779.0000 1.0000
26.9700 801.0000 1.0000
26.9800 813.0000 1.0000
26.9900 789.0000 1.0000
27.0000 739.0000 1.0000
27.0100 752.0000 1.0000
27.0200 789.0000 1.0000
27.0300 716.0000 1.0000
27.0400 744.0000 1.0000
27.0500 731.0000 1.0000
27.0600 773.0000 1.0000
27.0700 793.0000 1.0000
27.0800 826.0000 1.0000
27.0900 732.0000 1.0000
27.1000 730.0000 1.0000
27.1100 765.0000 1.0000
27.1200 770.0000 1.0000
27.1300 784.0000 1.0000
27.1400 757.0000 1.0000
27.1500 790.0000 1.0000
27.1600 710.0000 1.0000
27.1700 725.0000 1.0000
27.1800 756.0000 1.0000
27.1900 738.0000 1.0000
27.2000 676.0000 1.0000
27.2100 735.0000 1.0000
27.2200 767.0000 1.0000
27.2300 761.0000 1.0000
27.2400 761.0000 1.0000
27.2500 783.0000 1.0000
27.2600 768.0000 1.0000
27.2700 767.0000 1.0000
27.2800 721.0000 1.0000
27.2900 772.0000 1.0000
27.3000 757.0000 1.0000
27.3100 735.0000 1.0000
27.3200 746.0000 1.0000
27.3300 746.0000 1.0000
27.3400 755.0000 1.0000
27.3500 779.0000 1.0000
27.3600 678.0000 1.0000
27.3700 725.0000 1.0000
27.3800 717.0000 1.0000
27.3900 719.0000 1.0000
27.4000 741.0000 1.0000
27.4100 738.0000 1.0000
27.4200 722.0000 1.0000
27.4300 767.0000 1.0000
27.4400 744.0000 1.0000
27.4500 755.0000 1.0000
27.4600 715.0000 1.0000
27.4700 759.0000 1.0000
27.4800 748.0000 1.0000
27.4900 736.0000 1.0000
27.5000 762.0000 1.0000
27.5100 761.0000 1.0000
27.5200 756.0000 1.0000
27.5300 734.0000 1.0000
27.5400 739.0000 1.0000
27.5500 702.0000 1.0000
27.5600 760.0000 1.0000
27.5700 736.0000 1.0000
27.5800 685.0000 1.0000
27.5900 685.0000 1.0000
27.6000 686.0000 1.0000
27.6100 703.0000 1.0000
27.6200 713.0000 1.0000
27.6300 661.0000 1.0000
27.6400 667.0000 1.0000
27.6500 719.0000 1.0000
27.6600 762.0000 1.0000
27.6700 696.0000 1.0000
27.6800 709.0000 1.0000
27.6900 715.0000 1.0000
27.7000 702.0000 1.0000
27.7100 683.0000 1.0000
27.7200 725.0000 1.0000
27.7300 678.0000 1.0000
27.7400 683.0000 1.0000
27.7500 726.0000 1.0000
27.7600 734.0000 1.0000
27.7700 672.0000 1.0000
27.7800 703.0000 1.0000
27.7900 682.0000 1.0000
27.8000 699.0000 1.0000
27.8100 738.0000 1.0000
27.8200 696.0000 1.0000
27.8300 692.0000 1.0000
27.8400 731.0000 1.0000
27.8500 697.0000 1.0000
27.8600 713.0000 1.0000
27.8700 693.0000 1.0000
27.8800 689.0000 1.0000
27.8900 678.0000 1.0000
27.9000 690.0000 1.0000
27.9100 665.0000 1.0000
27.9200 699.0000 1.0000
27.9300 682.0000 1.0000
27.9400 680.0000 1.0000
27.9500 740.0000 1.0000
27.9600 689.0000 1.0000
27.9700 680.0000 1.0000
27.9800 703.0000 1.0000
27.9900 732.0000 1.0000
28.0000 710.0000 1.0000
28.0100 701.0000 1.0000
28.0200 672.0000 1.0000
28.0300 709.0000 1.0000
28.0400 655.0000 1.0000
28.0500 665.0000 1.0000
28.0600 723.0000 1.0000
28.0700 677.0000 1.0000
28.0800 686.0000 1.0000
28.0900 716.0000 1.0000
28.1000 680.0000 1.0000
28.1100 682.0000 1.0000
28.1200 699.0000 1.0000
28.1300 681.0000 1.0000
28.1400 713.0000 1.0000
28.1500 714.0000 1.0000
28.1600 709.0000 1.0000
28.1700 711.0000 1.0000
28.1800 649.0000 1.0000
28.1900 691.0000 1.0000
28.2000 690.0000 1.0000
28.2100 696.0000 1.0000
28.2200 658.0000 1.0000
28.2300 676.0000 1.0000
28.2400 710.0000 1.0000
28.2500 653.0000 1.0000
28.2600 623.0000 1.0000
28.2700 694.0000 1.0000
28.2800 710.0000 1.0000
28.2900 653.0000 1.0000
28.3000 650.0000 1.0000
28.3100 683.0000 1.0000
28.3200 715.0000 1.0000
28.3300 648.0000 1.0000
28.3400 684.0000 1.0000
28.3500 702.0000 1.0000
28.3600 676.0000 1.0000
28.3700 704.0000 1.0000
28.3800 640.0000 1.0000
28.3900 707.0000 1.0000
28.4000 685.0000 1.0000
28.4100 669.0000 1.0000
28.4200 693.0000 1.0000
28.4300 680.0000 1.0000
28.4400 675.0000 1.0000
28.4500 694.0000 1.0000
28.4600 669.0000 1.0000
28.4700 657.0000 1.0000
28.4800 667.0000 1.0000
28.4900 684.0000 1.0000
28.5000 675.0000 1.0000
28.5100 699.0000 1.0000
28.5200 699.0000 1.0000
28.5300 670.0000 1.0000
28.5400 690.0000 1.0000
28.5500 626.0000 1.0000
28.5600 659.0000 1.0000
28.5700 664.0000 1.0000
28.5800 681.0000 1.0000
28.5900 674.0000 1.0000
28.6000 667.0000 1.0000
28.6100 684.0000 1.0000
28.6200 699.0000 1.0000
28.6300 661.0000 1.0000
28.6400 700.0000 1.0000
28.6500 671.0000 1.0000
28.6600 658.0000 1.0000
28.6700 695.0000 1.0000
28.6800 694.0000 1.0000
28.6900 675.0000 1.0000
28.7000 686.0000 1.0000
28.7100 701.0000 1.0000
28.7200 706.0000 1.0000
28.7300 694.0000 1.0000
28.7400 686.0000 1.0000
28.7500 698.0000 1.0000
28.7600 666.0000 1.0000
28.7700 665.0000 1.0000
28.7800 633.0000 1.0000
28.7900 675.0000 1.0000
28.8000 631.0000 1.0000
28.8100 716.0000 1.0000
28.8200 648.0000 1.0000
28.8300 664.0000 1.0000
28.8400 655.0000 1.0000
28.8500 677.0000 1.0000
28.8600 693.0000 1.0000
28.8700 680.0000 1.0000
28.8800 681.0000 1.0000
28.8900 710.0000 1.0000
28.9000 661.0000 1.0000
28.9100 706.0000 1.0000
28.9200 645.0000 1.0000
28.9300 661.0000 1.0000
28.9400 671.0000 1.0000
28.9500 686.0000 1.0000
28.9600 658.0000 1.0000
28.9700 645.0000 1.0000
28.9800 656.0000 1.0000
28.9900 640.0000 1.0000
29.0000 638.0000 1.0000
29.0100 681.0000 1.0000
29.0200 645.0000 1.0000
29.0300 644.0000 1.0000
29.0400 663.0000 1.0000
29.0500 659.0000 1.0000
29.0600 641.0000 1.0000
29.0700 635.0000 1.0000
29.0800 655.0000 1.0000
29.0900 687.0000 1.0000
29.1000 631.0000 1.0000
29.1100 663.0000 1.0000
29.1200 710.0000 1.0000
29.1300 656.0000 1.0000
29.1400 636.0000 1.0000
29.1500 688.0000 1.0000
29.1600 631.0000 1.0000
29.1700 626.0000 1.0000
29.1800 631.0000 1.0000
29.1900 628.0000 1.0000
29.2000 644.0000 1.0000
29.2100 671.0000 1.0000
29.2200 652.0000 1.0000
29.2300 635.0000 1.0000
29.2400 657.0000 1.0000
29.2500 700.0000 1.0000
29.2600 627.0000 1.0000
29.2700 640.0000 1.0000
29.2800 653.0000 1.0000
29.2900 679.0000 1.0000
29.3000 668.0000 1.0000
29.3100 618.0000 1.0000
29.3200 660.0000 1.0000
29.3300 643.0000 1.0000
29.3400 602.0000 1.0000
29.3500 638.0000 1.0000
29.3600 651.0000 1.0000
29.3700 652.0000 1.0000
29.3800 623.0000 1.0000
29.3900 617.0000 1.0000
29.4000 637.0000 1.0000
29.4100 617.0000 1.0000
29.4200 657.0000 1.0000
29.4300 659.0000 1.0000
29.4400 666.0000 1.0000
29.4500 654.0000 1.0000
29.4600 675.0000 1.0000
29.4700 662.0000 1.0000
29.4800 638.0000 1.0000
29.4900 660.0000 1.0000
29.5000 651.0000 1.0000
29.5100 620.0000 1.0000
29.5200 626.0000 1.0000
29.5300 625.0000 1.0000
29.5400 592.0000 1.0000
29.5500 634.0000 1.0000
29.5600 679.0000 1.0000
29.5700 633.0000 1.0000
29.5800 663.0000 1.0000
29.5900 644.0000 1.0000
29.6000 658.0000 1.0000
29.6100 660.0000 1.0000
29.6200 629.0000 1.0000
29.6300 663.0000 1.0000
29.6400 643.0000 1.0000
29.6500 646.0000 1.0000
29.6600 609.0000 1.0000
29.6700 660.0000 1.0000
29.6800 638.0000 1.0000
29.6900 630.0000 1.0000
29.7000 630.0000 1.0000
29.7100 635.0000 1.0000
29.7200 621.0000 1.0000
29.7300 598.0000 1.0000
29.7400 619.0000 1.0000
29.7500 595.0000 1.0000
29.7600 645.0000 1.0000
29.7700 672.0000 1.0000
29.7800 636.0000 1.0000
29.7900 637.0000 1.0000
29.8000 636.0000 1.0000
29.8100 630.0000 1.0000
29.8200 657.0000 1.0000
29.8300 642.0000 1.0000
29.8400 633.0000 1.0000
29.8500 607.0000 1.0000
29.8600 673.0000 1.0000
29.8700 653.0000 1.0000
29.8800 624.0000 1.0000
29.8900 631.0000 1.0000
29.9000 625.0000 1.0000
29.9100 638.0000 1.0000
29.9200 625.0000 1.0000
29.9300 624.0000 1.0000
29.9400 645.0000 1.0000
29.9500 622.0000 1.0000
29.9600 609.0000 1.0000
29.9700 625.0000 1.0000
29.9800 674.0000 1.0000
29.9900 670.0000 1.0000
30.0000 640.0000 1.0000
30.0100 620.0000 1.0000
30.0200 621.0000 1.0000
30.0300 607.0000 1.0000
30.0400 653.0000 1.0000
30.0500 640.0000 1.0000
30.0600 627.0000 1.0000
30.0700 642.0000 1.0000
30.0800 606.0000 1.0000
30.0900 612.0000 1.0000
30.1000 616.0000 1.0000
30.1100 616.0000 1.0000
30.1200 617.0000 1.0000
30.1300 629.0000 1.0000
30.1400 633.0000 1.0000
30.1500 616.0000 1.0000
30.1600 619.0000 1.0000
30.1700 594.0000 1.0000
30.1800 599.0000 1.0000
30.1900 596.0000 1.0000
30.2000 644.0000 1.0000
30.2100 634.0000 1.0000
30.2200 695.0000 1.0000
30.2300 625.0000 1.0000
30.2400 640.0000 1.0000
30.2500 609.0000 1.0000
30.2600 624.0000 1.0000
30.2700 627.0000 1.0000
30.2800 591.0000 1.0000
30.2900 643.0000 1.0000
30.3000 598.0000 1.0000
30.3100 604.0000 1.0000
30.3200 613.0000 1.0000
30.3300 626.0000 1.0000
30.3400 618.0000 1.0000
30.3500 624.0000 1.0000
30.3600 627.0000 1.0000
30.3700 608.0000 1.0000
30.3800 624.0000 1.0000
30.3900 612.0000 1.0000
30.4000 588.0000 1.0000
30.4100 619.0000 1.0000
30.4200 672.0000 1.0000
30.4300 583.0000 1.0000
30.4400 602.0000 1.0000
30.4500 594.0000 1.0000
30.4600 613.0000 1.0000
30.4700 549.0000 1.0000
30.4800 586.0000 1.0000
30.4900 637.0000 1.0000
30.5000 604.0000 1.0000
30.5100 594.0000 1.0000
30.5200 610.0000 1.0000
30.5300 643.0000 1.0000
30.5400 582.0000 1.0000
30.5500 596.0000 1.0000
30.5600 602.0000 1.0000
30.5700 603.0000 1.0000
30.5800 605.0000 1.0000
30.5900 613.0000 1.0000
30.6000 590.0000 1.0000
30.6100 603.0000 1.0000
30.6200 593.0000 1.0000
30.6300 636.0000 1.0000
30.6400 603.0000 1.0000
30.6500 577.0000 1.0000
30.6600 621.0000 1.0000
30.6700 625.0000 1.0000
30.6800 605.0000 1.0000
30.6900 579.0000 1.0000
30.7000 604.0000 1.0000
30.7100 639.0000 1.0000
30.7200 585.0000 1.0000
30.7300 632.0000 1.0000
30.7400 656.0000 1.0000
30.7500 612.0000 1.0000
30.7600 613.0000 1.0000
30.7700 614.0000 1.0000
30.7800 633.0000 1.0000
30.7900 613.0000 1.0000
30.8000 634.0000 1.0000
30.8100 624.0000 1.0000
30.8200 610.0000 1.0000
30.8300 591.0000 1.0000
30.8400 634.0000 1.0000
30.8500 628.0000 1.0000
30.8600 629.0000 1.0000
30.8700 636.0000 1.0000
30.8800 652.0000 1.0000
30.8900 607.0000 1.0000
30.9000 627.0000 1.0000
30.9100 571.0000 1.0000
30.9200 642.0000 1.0000
30.9300 682.0000 1.0000
30.9400 640.0000 1.0000
30.9500 618.0000 1.0000
30.9600 604.0000 1.0000
30.9700 605.0000 1.0000
30.9800 638.0000 1.0000
30.9900 603.0000 1.0000
31.0000 625.0000 1.0000
31.0100 607.0000 1.0000
31.0200 610.0000 1.0000
31.0300 652.0000 1.0000
31.0400 621.0000 1.0000
31.0500 613.0000 1.0000
31.0600 643.0000 1.0000
31.0700 609.0000 1.0000
31.0800 651.0000 1.0000
31.0900 648.0000 1.0000
31.1000 636.0000 1.0000
31.1100 600.0000 1.0000
31.1200 620.0000 1.0000
31.1300 637.0000 1.0000
31.1400 626.0000 1.0000
31.1500 666.0000 1.0000
31.1600 613.0000 1.0000
31.1700 610.0000 1.0000
31.1800 670.0000 1.0000
31.1900 617.0000 1.0000
31.2000 651.0000 1.0000
31.2100 595.0000 1.0000
31.2200 607.0000 1.0000
31.2300 647.0000 1.0000
31.2400 591.0000 1.0000
31.2500 616.0000 1.0000
31.2600 578.0000 1.0000
31.2700 590.0000 1.0000
31.2800 593.0000 1.0000
31.2900 556.0000 1.0000
31.3000 602.0000 1.0000
31.3100 602.0000 1.0000
31.3200 609.0000 1.0000
31.3300 612.0000 1.0000
31.3400 592.0000 1.0000
31.3500 594.0000 1.0000
31.3600 653.0000 1.0000
31.3700 636.0000 1.0000
31.3800 588.0000 1.0000
31.3900 562.0000 1.0000
31.4000 597.0000 1.0000
31.4100 587.0000 1.0000
31.4200 626.0000 1.0000
31.4300 609.0000 1.0000
31.4400 561.0000 1.0000
31.4500 623.0000 1.0000
31.4600 568.0000 1.0000
31.4700 610.0000 1.0000
31.4800 609.0000 1.0000
31.4900 588.0000 1.0000
31.5000 615.0000 1.0000
31.5100 578.0000 1.0000
31.5200 620.0000 1.0000
31.5300 608.0000 1.0000
31.5400 606.0000 1.0000
31.5500 611.0000 1.0000
31.5600 643.0000 1.0000
31.5700 607.0000 1.0000
31.5800 608.0000 1.0000
31.5900 624.0000 1.0000
31.6000 612.0000 1.0000
31.6100 581.0000 1.0000
31.6200 632.0000 1.0000
31.6300 593.0000 1.0000
31.6400 620.0000 1.0000
31.6500 621.0000 1.0000
31.6600 587.0000 1.0000
31.6700 580.0000 1.0000
31.6800 585.0000 1.0000
31.6900 572.0000 1.0000
31.7000 586.0000 1.0000
31.7100 603.0000 1.0000
31.7200 601.0000 1.0000
31.7300 575.0000 1.0000
31.7400 582.0000 1.0000
31.7500 614.0000 1.0000
31.7600 575.0000 1.0000
31.7700 588.0000 1.0000
31.7800 618.0000 1.0000
31.7900 575.0000 1.0000
31.8000 589.0000 1.0000
31.8100 586.0000 1.0000
31.8200 599.0000 1.0000
31.8300 619.0000 1.0000
31.8400 594.0000 1.0000
31.8500 564.0000 1.0000
31.8600 557.0000 1.0000
31.8700 602.0000 1.0000
31.8800 582.0000 1.0000
31.8900 590.0000 1.0000
31.9000 552.0000 1.0000
31.9100 560.0000 1.0000
31.9200 573.0000 1.0000
31.9300 592.0000 1.0000
31.9400 607.0000 1.0000
31.9500 576.0000 1.0000
31.9600 611.0000 1.0000
31.9700 583.0000 1.0000
31.9800 583.0000 1.0000
31.9900 592.0000 1.0000
32.0000 545.0000 1.0000
32.0100 562.0000 1.0000
32.0200 597.0000 1.0000
32.0300 586.0000 1.0000
32.0400 612.0000 1.0000
32.0500 585.0000 1.0000
32.0600 609.0000 1.0000
32.0700 598.0000 1.0000
32.0800 586.0000 1.0000
32.0900 584.0000 1.0000
32.1000 549.0000 1.0000
32.1100 608.0000 1.0000
32.1200 633.0000 1.0000
32.1300 582.0000 1.0000
32.1400 615.0000 1.0000
32.1500 605.0000 1.0000
32.1600 578.0000 1.0000
32.1700 571.0000 1.0000
32.1800 578.0000 1.0000
32.1900 603.0000 1.0000
32.2000 576.0000 1.0000
32.2100 568.0000 1.0000
32.2200 577.0000 1.0000
32.2300 585.0000 1.0000
32.2400 614.0000 1.0000
32.2500 564.0000 1.0000
32.2600 582.0000 1.0000
32.2700 582.0000 1.0000
32.2800 563.0000 1.0000
32.2900 566.0000 1.0000
32.3000 560.0000 1.0000
32.3100 582.0000 1.0000
32.3200 581.0000 1.0000
32.3300 570.0000 1.0000
32.3400 569.0000 1.0000
32.3500 593.0000 1.0000
32.3600 598.0000 1.0000
32.3700 570.0000 1.0000
32.3800 571.0000 1.0000
32.3900 601.0000 1.0000
32.4000 599.0000 1.0000
32.4100 572.0000 1.0000
32.4200 578.0000 1.0000
32.4300 585.0000 1.0000
32.4400 574.0000 1.0000
32.4500 550.0000 1.0000
32.4600 598.0000 1.0000
32.4700 557.0000 1.0000
32.4800 583.0000 1.0000
32.4900 565.0000 1.0000
32.5000 553.0000 1.0000
32.5100 548.0000 1.0000
32.5200 579.0000 1.0000
32.5300 596.0000 1.0000
32.5400 588.0000 1.0000
32.5500 579.0000 1.0000
32.5600 591.0000 1.0000
32.5700 564.0000 1.0000
32.5800 584.0000 1.0000
32.5900 547.0000 1.0000
32.6000 597.0000 1.0000
32.6100 560.0000 1.0000
32.6200 571.0000 1.0000
32.6300 578.0000 1.0000
32.6400 587.0000 1.0000
32.6500 570.0000 1.0000
32.6600 566.0000 1.0000
32.6700 570.0000 1.0000
32.6800 597.0000 1.0000
32.6900 597.0000 1.0000
32.7000 570.0000 1.0000
32.7100 600.0000 1.0000
32.7200 566.0000 1.0000
32.7300 623.0000 1.0000
32.7400 586.0000 1.0000
32.7500 606.0000 1.0000
32.7600 604.0000 1.0000
32.7700 552.0000 1.0000
32.7800 570.0000 1.0000
32.7900 583.0000 1.0000
32.8000 577.0000 1.0000
32.8100 513.0000 1.0000
32.8200 591.0000 1.0000
32.8300 630.0000 1.0000
32.8400 588.0000 1.0000
32.8500 582.0000 1.0000
32.8600 548.0000 1.0000
32.8700 561.0000 1.0000
32.8800 538.0000 1.0000
32.8900 626.0000 1.0000
32.9000 574.0000 1.0000
32.9100 580.0000 1.0000
32.9200 603.0000 1.0000
32.9300 668.0000 1.0000
32.9400 607.0000 1.0000
32.9500 623.0000 1.0000
32.9600 557.0000 1.0000
32.9700 634.0000 1.0000
32.9800 655.0000 1.0000
32.9900 652.0000 1.0000
33.0000 679.0000 1.0000
33.0100 687.0000 1.0000
33.0200 712.0000 1.0000
33.0300 686.0000 1.0000
33.0400 695.0000 1.0000
33.0500 691.0000 1.0000
33.0600 747.0000 1.0000
33.0700 778.0000 1.0000
33.0800 799.0000 1.0000
33.0900 741.0000 1.0000
33.1000 765.0000 1.0000
33.1100 793.0000 1.0000
33.1200 768.0000 1.0000
33.1300 759.0000 1.0000
33.1400 790.0000 1.0000
33.1500 785.0000 1.0000
33.1600 710.0000 1.0000
33.1700 725.0000 1.0000
33.1800 699.0000 1.0000
33.1900 689.0000 1.0000
33.2000 726.0000 1.0000
33.2100 674.0000 1.0000
33.2200 664.0000 1.0000
33.2300 653.0000 1.0000
33.2400 647.0000 1.0000
33.2500 634.0000 1.0000
33.2600 613.0000 1.0000
33.2700 639.0000 1.0000
33.2800 645.0000 1.0000
33.2900 634.0000 1.0000
33.3000 635.0000 1.0000
33.3100 596.0000 1.0000
33.3200 625.0000 1.0000
33.3300 593.0000 1.0000
33.3400 632.0000 1.0000
33.3500 621.0000 1.0000
33.3600 605.0000 1.0000
33.3700 591.0000 1.0000
33.3800 591.0000 1.0000
33.3900 600.0000 1.0000
33.4000 635.0000 1.0000
33.4100 662.0000 1.0000
33.4200 628.0000 1.0000
33.4300 625.0000 1.0000
33.4400 623.0000 1.0000
33.4500 634.0000 1.0000
33.4600 633.0000 1.0000
33.4700 637.0000 1.0000
33.4800 604.0000 1.0000
33.4900 666.0000 1.0000
33.5000 637.0000 1.0000
33.5100 646.0000 1.0000
33.5200 677.0000 1.0000
33.5300 709.0000 1.0000
33.5400 709.0000 1.0000
33.5500 654.0000 1.0000
33.5600 693.0000 1.0000
33.5700 678.0000 1.0000
33.5800 685.0000 1.0000
33.5900 682.0000 1.0000
33.6000 704.0000 1.0000
33.6100 749.0000 1.0000
33.6200 700.0000 1.0000
33.6300 746.0000 1.0000
33.6400 687.0000 1.0000
33.6500 702.0000 1.0000
33.6600 738.0000 1.0000
33.6700 744.0000 1.0000
33.6800 731.0000 1.0000
33.6900 733.0000 1.0000
33.7000 652.0000 1.0000
33.7100 684.0000 1.0000
33.7200 721.0000 1.0000
33.7300 703.0000 1.0000
33.7400 673.0000 1.0000
33.7500 727.0000 1.0000
33.7600 732.0000 1.0000
33.7700 715.0000 1.0000
33.7800 679.0000 1.0000
33.7900 705.0000 1.0000
33.8000 676.0000 1.0000
33.8100 657.0000 1.0000
33.8200 690.0000 1.0000
33.8300 686.0000 1.0000
33.8400 644.0000 1.0000
33.8500 655.0000 1.0000
33.8600 630.0000 1.0000
33.8700 641.0000 1.0000
33.8800 699.0000 1.0000
33.8900 577.0000 1.0000
33.9000 585.0000 1.0000
33.9100 657.0000 1.0000
33.9200 630.0000 1.0000
33.9300 646.0000 1.0000
33.9400 647.0000 1.0000
33.9500 632.0000 1.0000
33.9600 625.0000 1.0000
33.9700 620.0000 1.0000
33.9800 561.0000 1.0000
33.9900 610.0000 1.0000
34.0000 588.0000 1.0000
34.0100 590.0000 1.0000
34.0200 609.0000 1.0000
34.0300 613.0000 1.0000
34.0400 605.0000 1.0000
34.0500 594.0000 1.0000
34.0600 577.0000 1.0000
34.0700 590.0000 1.0000
34.0800 587.0000 1.0000
34.0900 542.0000 1.0000
34.1000 558.0000 1.0000
34.1100 517.0000 1.0000
34.1200 547.0000 1.0000
34.1300 542.0000 1.0000
34.1400 521.0000 1.0000
34.1500 561.0000 1.0000
34.1600 537.0000 1.0000
34.1700 562.0000 1.0000
34.1800 573.0000 1.0000
34.1900 532.0000 1.0000
34.2000 510.0000 1.0000
34.2100 523.0000 1.0000
34.2200 537.0000 1.0000
34.2300 550.0000 1.0000
34.2400 527.0000 1.0000
34.2500 538.0000 1.0000
34.2600 516.0000 1.0000
34.2700 545.0000 1.0000
34.2800 528.0000 1.0000
34.2900 497.0000 1.0000
34.3000 533.0000 1.0000
34.3100 555.0000 1.0000
34.3200 539.0000 1.0000
34.3300 548.0000 1.0000
34.3400 531.0000 1.0000
34.3500 539.0000 1.0000
34.3600 562.0000 1.0000
34.3700 565.0000 1.0000
34.3800 504.0000 1.0000
34.3900 501.0000 1.0000
34.4000 528.0000 1.0000
34.4100 492.0000 1.0000
34.4200 535.0000 1.0000
34.4300 543.0000 1.0000
34.4400 529.0000 1.0000
34.4500 536.0000 1.0000
34.4600 522.0000 1.0000
34.4700 512.0000 1.0000
34.4800 538.0000 1.0000
34.4900 510.0000 1.0000
34.5000 521.0000 1.0000
34.5100 506.0000 1.0000
34.5200 530.0000 1.0000
34.5300 525.0000 1.0000
34.5400 559.0000 1.0000
34.5500 523.0000 1.0000
34.5600 500.0000 1.0000
34.5700 529.0000 1.0000
34.5800 531.0000 1.0000
34.5900 516.0000 1.0000
34.6000 495.0000 1.0000
34.6100 510.0000 1.0000
34.6200 560.0000 1.0000
34.6300 536.0000 1.0000
34.6400 540.0000 1.0000
34.6500 507.0000 1.0000
34.6600 562.0000 1.0000
34.6700 530.0000 1.0000
34.6800 508.0000 1.0000
34.6900 515.0000 1.0000
34.7000 514.0000 1.0000
34.7100 500.0000 1.0000
34.7200 506.0000 1.0000
34.7300 534.0000 1.0000
34.7400 507.0000 1.0000
34.7500 498.0000 1.0000
34.7600 511.0000 1.0000
34.7700 527.0000 1.0000
34.7800 528.0000 1.0000
34.7900 502.0000 1.0000
34.8000 489.0000 1.0000
34.8100 530.0000 1.0000
34.8200 524.0000 1.0000
34.8300 521.0000 1.0000
34.8400 505.0000 1.0000
34.8500 490.0000 1.0000
34.8600 516.0000 1.0000
34.8700 549.0000 1.0000
34.8800 525.0000 1.0000
34.8900 488.0000 1.0000
34.9000 506.0000 1.0000
34.9100 496.0000 1.0000
34.9200 517.0000 1.0000
34.9300 481.0000 1.0000
34.9400 499.0000 1.0000
34.9500 468.0000 1.0000
34.9600 503.0000 1.0000
34.9700 517.0000 1.0000
34.9800 578.0000 1.0000
34.9900 529.0000 1.0000
35.0000 519.0000 1.0000
35.0100 497.0000 1.0000
35.0200 486.0000 1.0000
35.0300 550.0000 1.0000
35.0400 505.0000 1.0000
35.0500 490.0000 1.0000
35.0600 527.0000 1.0000
35.0700 516.0000 1.0000
35.0800 503.0000 1.0000
35.0900 495.0000 1.0000
35.1000 534.0000 1.0000
35.1100 545.0000 1.0000
35.1200 535.0000 1.0000
35.1300 528.0000 1.0000
35.1400 485.0000 1.0000
35.1500 504.0000 1.0000
35.1600 516.0000 1.0000
35.1700 532.0000 1.0000
35.1800 520.0000 1.0000
35.1900 494.0000 1.0000
35.2000 531.0000 1.0000
35.2100 503.0000 1.0000
35.2200 520.0000 1.0000
35.2300 587.0000 1.0000
35.2400 538.0000 1.0000
35.2500 525.0000 1.0000
35.2600 566.0000 1.0000
35.2700 569.0000 1.0000
35.2800 578.0000 1.0000
35.2900 557.0000 1.0000
35.3000 567.0000 1.0000
35.3100 568.0000 1.0000
35.3200 624.0000 1.0000
35.3300 598.0000 1.0000
35.3400 611.0000 1.0000
35.3500 613.0000 1.0000
35.3600 637.0000 1.0000
35.3700 641.0000 1.0000
35.3800 692.0000 1.0000
35.3900 668.0000 1.0000
35.4000 670.0000 1.0000
35.4100 733.0000 1.0000
35.4200 754.0000 1.0000
35.4300 779.0000 1.0000
35.4400 791.0000 1.0000
35.4500 797.0000 1.0000
35.4600 880.0000 1.0000
35.4700 908.0000 1.0000
35.4800 949.0000 1.0000
35.4900 1012.0000 1.0000
35.5000 1033.0000 1.0000
35.5100 1053.0000 1.0000
35.5200 1173.0000 1.0000
35.5300 1240.0000 1.0000
35.5400 1275.0000 1.0000
35.5500 1337.0000 1.0000
35.5600 1322.0000 1.0000
35.5700 1378.0000 1.0000
35.5800 1384.0000 1.0000
35.5900 1377.0000 1.0000
35.6000 1386.0000 1.0000
35.6100 1343.0000 1.0000
35.6200 1326.0000 1.0000
35.6300 1316.0000 1.0000
35.6400 1274.0000 1.0000
35.6500 1189.0000 1.0000
35.6600 1194.0000 1.0000
35.6700 1178.0000 1.0000
35.6800 1126.0000 1.0000
35.6900 1024.0000 1.0000
35.7000 1036.0000 1.0000
35.7100 969.0000 1.0000
35.7200 926.0000 1.0000
35.7300 866.0000 1.0000
35.7400 847.0000 1.0000
35.7500 777.0000 1.0000
35.7600 764.0000 1.0000
35.7700 711.0000 1.0000
35.7800 666.0000 1.0000
35.7900 637.0000 1.0000
35.8000 649.0000 1.0000
35.8100 625.0000 1.0000
35.8200 595.0000 1.0000
35.8300 599.0000 1.0000
35.8400 553.0000 1.0000
35.8500 518.0000 1.0000
35.8600 556.0000 1.0000
35.8700 559.0000 1.0000
35.8800 533.0000 1.0000
35.8900 518.0000 1.0000
35.9000 522.0000 1.0000
35.9100 529.0000 1.0000
35.9200 537.0000 1.0000
35.9300 497.0000 1.0000
35.9400 494.0000 1.0000
35.9500 505.0000 1.0000
35.9600 511.0000 1.0000
35.9700 513.0000 1.0000
35.9800 521.0000 1.0000
35.9900 524.0000 1.0000
36.0000 525.0000 1.0000
36.0100 498.0000 1.0000
36.0200 497.0000 1.0000
36.0300 486.0000 1.0000
36.0400 444.0000 1.0000
36.0500 466.0000 1.0000
36.0600 488.0000 1.0000
36.0700 484.0000 1.0000
36.0800 500.0000 1.0000
36.0900 525.0000 1.0000
36.1000 463.0000 1.0000
36.1100 501.0000 1.0000
36.1200 511.0000 1.0000
36.1300 464.0000 1.0000
36.1400 481.0000 1.0000
36.1500 470.0000 1.0000
36.1600 496.0000 1.0000
36.1700 477.0000 1.0000
36.1800 485.0000 1.0000
36.1900 461.0000 1.0000
36.2000 504.0000 1.0000
36.2100 499.0000 1.0000
36.2200 461.0000 1.0000
36.2300 477.0000 1.0000
36.2400 446.0000 1.0000
36.2500 457.0000 1.0000
36.2600 440.0000 1.0000
36.2700 472.0000 1.0000
36.2800 482.0000 1.0000
36.2900 507.0000 1.0000
36.3000 482.0000 1.0000
36.3100 475.0000 1.0000
36.3200 517.0000 1.0000
36.3300 466.0000 1.0000
36.3400 457.0000 1.0000
36.3500 474.0000 1.0000
36.3600 484.0000 1.0000
36.3700 484.0000 1.0000
36.3800 470.0000 1.0000
36.3900 426.0000 1.0000
36.4000 467.0000 1.0000
36.4100 489.0000 1.0000
36.4200 494.0000 1.0000
36.4300 488.0000 1.0000
36.4400 497.0000 1.0000
36.4500 488.0000 1.0000
36.4600 440.0000 1.0000
36.4700 480.0000 1.0000
36.4800 508.0000 1.0000
36.4900 504.0000 1.0000
36.5000 489.0000 1.0000
36.5100 527.0000 1.0000
36.5200 513.0000 1.0000
36.5300 479.0000 1.0000
36.5400 473.0000 1.0000
36.5500 468.0000 1.0000
36.5600 478.0000 1.0000
36.5700 513.0000 1.0000
36.5800 485.0000 1.0000
36.5900 501.0000 1.0000
36.6000 473.0000 1.0000
36.6100 494.0000 1.0000
36.6200 495.0000 1.0000
36.6300 454.0000 1.0000
36.6400 476.0000 1.0000
36.6500 498.0000 1.0000
36.6600 471.0000 1.0000
36.6700 481.0000 1.0000
36.6800 476.0000 1.0000
36.6900 448.0000 1.0000
36.7000 493.0000 1.0000
36.7100 473.0000 1.0000
36.7200 497.0000 1.0000
36.7300 499.0000 1.0000
36.7400 486.0000 1.0000
36.7500 451.0000 1.0000
36.7600 487.0000 1.0000
36.7700 513.0000 1.0000
36.7800 471.0000 1.0000
36.7900 491.0000 1.0000
36.8000 501.0000 1.0000
36.8100 488.0000 1.0000
36.8200 464.0000 1.0000
36.8300 494.0000 1.0000
36.8400 472.0000 1.0000
36.8500 440.0000 1.0000
36.8600 486.0000 1.0000
36.8700 468.0000 1.0000
36.8800 472.0000 1.0000
36.8900 496.0000 1.0000
36.9000 480.0000 1.0000
36.9100 508.0000 1.0000
36.9200 470.0000 1.0000
36.9300 465.0000 1.0000
36.9400 490.0000 1.0000
36.9500 503.0000 1.0000
36.9600 494.0000 1.0000
36.9700 499.0000 1.0000
36.9800 509.0000 1.0000
36.9900 516.0000 1.0000
37.0000 501.0000 1.0000
37.0100 499.0000 1.0000
37.0200 486.0000 1.0000
37.0300 479.0000 1.0000
37.0400 512.0000 1.0000
37.0500 512.0000 1.0000
37.0600 484.0000 1.0000
37.0700 508.0000 1.0000
37.0800 494.0000 1.0000
37.0900 495.0000 1.0000
37.1000 487.0000 1.0000
37.1100 500.0000 1.0000
37.1200 527.0000 1.0000
37.1300 549.0000 1.0000
37.1400 529.0000 1.0000
37.1500 488.0000 1.0000
37.1600 496.0000 1.0000
37.1700 522.0000 1.0000
37.1800 540.0000 1.0000
37.1900 495.0000 1.0000
37.2000 529.0000 1.0000
37.2100 503.0000 1.0000
37.2200 554.0000 1.0000
37.2300 514.0000 1.0000
37.2400 527.0000 1.0000
37.2500 546.0000 1.0000
37.2600 525.0000 1.0000
37.2700 524.0000 1.0000
37.2800 585.0000 1.0000
37.2900 598.0000 1.0000
37.3000 595.0000 1.0000
37.3100 583.0000 1.0000
37.3200 605.0000 1.0000
37.3300 638.0000 1.0000
37.3400 624.0000 1.0000
37.3500 609.0000 1.0000
37.3600 647.0000 1.0000
37.3700 623.0000 1.0000
37.3800 731.0000 1.0000
37.3900 679.0000 1.0000
37.4000 725.0000 1.0000
37.4100 708.0000 1.0000
37.4200 745.0000 1.0000
37.4300 761.0000 1.0000
37.4400 786.0000 1.0000
37.4500 814.0000 1.0000
37.4600 841.0000 1.0000
37.4700 889.0000 1.0000
37.4800 949.0000 1.0000
37.4900 946.0000 1.0000
37.5000 1027.0000 1.0000
37.5100 1061.0000 1.0000
37.5200 1141.0000 1.0000
37.5300 1159.0000 1.0000
37.5400 1201.0000 1.0000
37.5500 1309.0000 1.0000
37.5600 1322.0000 1.0000
37.5700 1364.0000 1.0000
37.5800 1501.0000 1.0000
37.5900 1554.0000 1.0000
37.6000 1693.0000 1.0000
37.6100 1756.0000 1.0000
37.6200 1838.0000 1.0000
37.6300 2015.0000 1.0000
37.6400 2206.0000 1.0000
37.6500 2362.0000 1.0000
37.6600 2416.0000 1.0000
37.6700 2531.0000 1.0000
37.6800 2744.0000 1.0000
37.6900 2821.0000 1.0000
37.7000 2896.0000 1.0000
37.7100 3042.0000 1.0000
37.7200 3100.0000 1.0000
37.7300 3070.0000 1.0000
37.7400 3210.0000 1.0000
37.7500 3021.0000 1.0000
37.7600 3100.0000 1.0000
37.7700 3126.0000 1.0000
37.7800 2992.0000 1.0000
37.7900 2948.0000 1.0000
37.8000 2850.0000 1.0000
37.8100 2680.0000 1.0000
37.8200 2635.0000 1.0000
37.8300 2521.0000 1.0000
37.8400 2407.0000 1.0000
37.8500 2302.0000 1.0000
37.8600 2210.0000 1.0000
37.8700 2027.0000 1.0000
37.8800 1917.0000 1.0000
37.8900 1785.0000 1.0000
37.9000 1742.0000 1.0000
37.9100 1543.0000 1.0000
37.9200 1496.0000 1.0000
37.9300 1436.0000 1.0000
37.9400 1335.0000 1.0000
37.9500 1291.0000 1.0000
37.9600 1131.0000 1.0000
37.9700 1109.0000 1.0000
37.9800 1054.0000 1.0000
37.9900 958.0000 1.0000
38.0000 915.0000 1.0000
38.0100 896.0000 1.0000
38.0200 893.0000 1.0000
38.0300 876.0000 1.0000
38.0400 821.0000 1.0000
38.0500 799.0000 1.0000
38.0600 731.0000 1.0000
38.0700 689.0000 1.0000
38.0800 709.0000 1.0000
38.0900 683.0000 1.0000
38.1000 661.0000 1.0000
38.1100 652.0000 1.0000
38.1200 598.0000 1.0000
38.1300 596.0000 1.0000
38.1400 574.0000 1.0000
38.1500 548.0000 1.0000
38.1600 564.0000 1.0000
38.1700 555.0000 1.0000
38.1800 549.0000 1.0000
38.1900 551.0000 1.0000
38.2000 519.0000 1.0000
38.2100 507.0000 1.0000
38.2200 546.0000 1.0000
38.2300 532.0000 1.0000
38.2400 498.0000 1.0000
38.2500 549.0000 1.0000
38.2600 516.0000 1.0000
38.2700 523.0000 1.0000
38.2800 486.0000 1.0000
38.2900 499.0000 1.0000
38.3000 488.0000 1.0000
38.3100 484.0000 1.0000
38.3200 492.0000 1.0000
38.3300 500.0000 1.0000
38.3400 514.0000 1.0000
38.3500 496.0000 1.0000
38.3600 464.0000 1.0000
38.3700 483.0000 1.0000
38.3800 482.0000 1.0000
38.3900 511.0000 1.0000
38.4000 479.0000 1.0000
38.4100 473.0000 1.0000
38.4200 450.0000 1.0000
38.4300 456.0000 1.0000
38.4400 500.0000 1.0000
38.4500 461.0000 1.0000
38.4600 446.0000 1.0000
38.4700 450.0000 1.0000
38.4800 436.0000 1.0000
38.4900 462.0000 1.0000
38.5000 443.0000 1.0000
38.5100 463.0000 1.0000
38.5200 458.0000 1.0000
38.5300 463.0000 1.0000
38.5400 428.0000 1.0000
38.5500 457.0000 1.0000
38.5600 462.0000 1.0000
38.5700 449.0000 1.0000
38.5800 439.0000 1.0000
38.5900 455.0000 1.0000
38.6000 429.0000 1.0000
38.6100 411.0000 1.0000
38.6200 449.0000 1.0000
38.6300 449.0000 1.0000
38.6400 425.0000 1.0000
38.6500 419.0000 1.0000
38.6600 422.0000 1.0000
38.6700 426.0000 1.0000
38.6800 439.0000 1.0000
38.6900 442.0000 1.0000
38.7000 420.0000 1.0000
38.7100 423.0000 1.0000
38.7200 460.0000 1.0000
38.7300 454.0000 1.0000
38.7400 436.0000 1.0000
38.7500 423.0000 1.0000
38.7600 427.0000 1.0000
38.7700 429.0000 1.0000
38.7800 459.0000 1.0000
38.7900 476.0000 1.0000
38.8000 408.0000 1.0000
38.8100 424.0000 1.0000
38.8200 421.0000 1.0000
38.8300 410.0000 1.0000
38.8400 414.0000 1.0000
38.8500 454.0000 1.0000
38.8600 437.0000 1.0000
38.8700 450.0000 1.0000
38.8800 437.0000 1.0000
38.8900 430.0000 1.0000
38.9000 436.0000 1.0000
38.9100 438.0000 1.0000
38.9200 422.0000 1.0000
38.9300 400.0000 1.0000
38.9400 377.0000 1.0000
38.9500 420.0000 1.0000
38.9600 414.0000 1.0000
38.9700 415.0000 1.0000
38.9800 434.0000 1.0000
38.9900 432.0000 1.0000
39.0000 415.0000 1.0000
39.0100 400.0000 1.0000
39.0200 459.0000 1.0000
39.0300 427.0000 1.0000
39.0400 400.0000 1.0000
39.0500 413.0000 1.0000
39.0600 413.0000 1.0000
39.0700 396.0000 1.0000
39.0800 413.0000 1.0000
39.0900 437.0000 1.0000
39.1000 415.0000 1.0000
39.1100 401.0000 1.0000
39.1200 415.0000 1.0000
39.1300 401.0000 1.0000
39.1400 430.0000 1.0000
39.1500 426.0000 1.0000
39.1600 409.0000 1.0000
39.1700 416.0000 1.0000
39.1800 411.0000 1.0000
39.1900 408.0000 1.0000
39.2000 443.0000 1.0000
39.2100 386.0000 1.0000
39.2200 414.0000 1.0000
39.2300 412.0000 1.0000
39.2400 412.0000 1.0000
39.2500 410.0000 1.0000
39.2600 400.0000 1.0000
39.2700 383.0000 1.0000
39.2800 402.0000 1.0000
39.2900 398.0000 1.0000
39.3000 404.0000 1.0000
39.3100 437.0000 1.0000
39.3200 400.0000 1.0000
39.3300 406.0000 1.0000
39.3400 401.0000 1.0000
39.3500 430.0000 1.0000
39.3600 418.0000 1.0000
39.3700 408.0000 1.0000
39.3800 445.0000 1.0000
39.3900 402.0000 1.0000
39.4000 429.0000 1.0000
39.4100 425.0000 1.0000
39.4200 432.0000 1.0000
39.4300 436.0000 1.0000
39.4400 391.0000 1.0000
39.4500 443.0000 1.0000
39.4600 438.0000 1.0000
39.4700 426.0000 1.0000
39.4800 421.0000 1.0000
39.4900 406.0000 1.0000
39.5000 444.0000 1.0000
39.5100 382.0000 1.0000
39.5200 398.0000 1.0000
39.5300 394.0000 1.0000
39.5400 420.0000 1.0000
39.5500 421.0000 1.0000
39.5600 440.0000 1.0000
39.5700 421.0000 1.0000
39.5800 397.0000 1.0000
39.5900 377.0000 1.0000
39.6000 394.0000 1.0000
39.6100 429.0000 1.0000
39.6200 419.0000 1.0000
39.6300 410.0000 1.0000
39.6400 379.0000 1.0000
39.6500 387.0000 1.0000
39.6600 416.0000 1.0000
39.6700 377.0000 1.0000
39.6800 395.0000 1.0000
39.6900 410.0000 1.0000
39.7000 391.0000 1.0000
39.7100 384.0000 1.0000
39.7200 408.0000 1.0000
39.7300 394.0000 1.0000
39.7400 414.0000 1.0000
39.7500 378.0000 1.0000
39.7600 381.0000 1.0000
39.7700 383.0000 1.0000
39.7800 417.0000 1.0000
39.7900 413.0000 1.0000
39.8000 388.0000 1.0000
39.8100 377.0000 1.0000
39.8200 409.0000 1.0000
39.8300 402.0000 1.0000
39.8400 411.0000 1.0000
39.8500 410.0000 1.0000
39.8600 378.0000 1.0000
39.8700 391.0000 1.0000
39.8800 366.0000 1.0000
39.8900 362.0000 1.0000
39.9000 393.0000 1.0000
39.9100 390.0000 1.0000
39.9200 405.0000 1.0000
39.9300 406.0000 1.0000
39.9400 390.0000 1.0000
39.9500 377.0000 1.0000
39.9600 415.0000 1.0000
39.9700 374.0000 1.0000
39.9800 365.0000 1.0000
39.9900 396.0000 1.0000
40.0000 370.0000 1.0000
40.0100 405.0000 1.0000
40.0200 395.0000 1.0000
40.0300 398.0000 1.0000
40.0400 420.0000 1.0000
40.0500 394.0000 1.0000
40.0600 370.0000 1.0000
40.0700 371.0000 1.0000
40.0800 375.0000 1.0000
40.0900 370.0000 1.0000
40.1000 402.0000 1.0000
40.1100 395.0000 1.0000
40.1200 415.0000 1.0000
40.1300 386.0000 1.0000
40.1400 413.0000 1.0000
40.1500 413.0000 1.0000
40.1600 380.0000 1.0000
40.1700 396.0000 1.0000
40.1800 393.0000 1.0000
40.1900 405.0000 1.0000
40.2000 376.0000 1.0000
40.2100 369.0000 1.0000
40.2200 411.0000 1.0000
40.2300 410.0000 1.0000
40.2400 393.0000 1.0000
40.2500 377.0000 1.0000
40.2600 374.0000 1.0000
40.2700 359.0000 1.0000
40.2800 419.0000 1.0000
40.2900 400.0000 1.0000
40.3000 364.0000 1.0000
40.3100 366.0000 1.0000
40.3200 398.0000 1.0000
40.3300 432.0000 1.0000
40.3400 403.0000 1.0000
40.3500 417.0000 1.0000
40.3600 419.0000 1.0000
40.3700 378.0000 1.0000
40.3800 394.0000 1.0000
40.3900 400.0000 1.0000
40.4000 393.0000 1.0000
40.4100 390.0000 1.0000
40.4200 379.0000 1.0000
40.4300 382.0000 1.0000
40.4400 393.0000 1.0000
40.4500 411.0000 1.0000
40.4600 394.0000 1.0000
40.4700 365.0000 1.0000
40.4800 400.0000 1.0000
40.4900 393.0000 1.0000
40.5000 411.0000 1.0000
40.5100 386.0000 1.0000
40.5200 390.0000 1.0000
40.5300 405.0000 1.0000
40.5400 436.0000 1.0000
40.5500 405.0000 1.0000
40.5600 391.0000 1.0000
40.5700 421.0000 1.0000
40.5800 410.0000 1.0000
40.5900 420.0000 1.0000
40.6000 402.0000 1.0000
40.6100 408.0000 1.0000
40.6200 403.0000 1.0000
40.6300 425.0000 1.0000
40.6400 396.0000 1.0000
40.6500 407.0000 1.0000
40.6600 372.0000 1.0000
40.6700 400.0000 1.0000
40.6800 374.0000 1.0000
40.6900 387.0000 1.0000
40.7000 413.0000 1.0000
40.7100 414.0000 1.0000
40.7200 391.0000 1.0000
40.7300 410.0000 1.0000
40.7400 417.0000 1.0000
40.7500 453.0000 1.0000
40.7600 452.0000 1.0000
40.7700 415.0000 1.0000
40.7800 432.0000 1.0000
40.7900 419.0000 1.0000
40.8000 435.0000 1.0000
40.8100 438.0000 1.0000
40.8200 441.0000 1.0000
40.8300 455.0000 1.0000
40.8400 460.0000 1.0000
40.8500 461.0000 1.0000
40.8600 448.0000 1.0000
40.8700 440.0000 1.0000
40.8800 430.0000 1.0000
40.8900 420.0000 1.0000
40.9000 377.0000 1.0000
40.9100 441.0000 1.0000
40.9200 464.0000 1.0000
40.9300 403.0000 1.0000
40.9400 394.0000 1.0000
40.9500 403.0000 1.0000
40.9600 417.0000 1.0000
40.9700 397.0000 1.0000
40.9800 417.0000 1.0000
40.9900 410.0000 1.0000
41.0000 399.0000 1.0000
41.0100 399.0000 1.0000
41.0200 396.0000 1.0000
41.0300 414.0000 1.0000
41.0400 374.0000 1.0000
41.0500 369.0000 1.0000
41.0600 385.0000 1.0000
41.0700 403.0000 1.0000
41.0800 363.0000 1.0000
41.0900 398.0000 1.0000
41.1000 388.0000 1.0000
41.1100 379.0000 1.0000
41.1200 394.0000 1.0000
41.1300 392.0000 1.0000
41.1400 393.0000 1.0000
41.1500 396.0000 1.0000
41.1600 395.0000 1.0000
41.1700 368.0000 1.0000
41.1800 397.0000 1.0000
41.1900 361.0000 1.0000
41.2000 397.0000 1.0000
41.2100 379.0000 1.0000
41.2200 364.0000 1.0000
41.2300 398.0000 1.0000
41.2400 366.0000 1.0000
41.2500 364.0000 1.0000
41.2600 380.0000 1.0000
41.2700 399.0000 1.0000
41.2800 367.0000 1.0000
41.2900 392.0000 1.0000
41.3000 368.0000 1.0000
41.3100 374.0000 1.0000
41.3200 352.0000 1.0000
41.3300 369.0000 1.0000
41.3400 379.0000 1.0000
41.3500 388.0000 1.0000
41.3600 389.0000 1.0000
41.3700 386.0000 1.0000
41.3800 393.0000 1.0000
41.3900 371.0000 1.0000
41.4000 371.0000 1.0000
41.4100 411.0000 1.0000
41.4200 394.0000 1.0000
41.4300 387.0000 1.0000
41.4400 385.0000 1.0000
41.4500 369.0000 1.0000
41.4600 375.0000 1.0000
41.4700 395.0000 1.0000
41.4800 372.0000 1.0000
41.4900 393.0000 1.0000
41.5000 392.0000 1.0000
41.5100 363.0000 1.0000
41.5200 367.0000 1.0000
41.5300 378.0000 1.0000
41.5400 373.0000 1.0000
41.5500 381.0000 1.0000
41.5600 409.0000 1.0000
41.5700 369.0000 1.0000
41.5800 350.0000 1.0000
41.5900 363.0000 1.0000
41.6000 363.0000 1.0000
41.6100 372.0000 1.0000
41.6200 380.0000 1.0000
41.6300 401.0000 1.0000
41.6400 369.0000 1.0000
41.6500 374.0000 1.0000
41.6600 351.0000 1.0000
41.6700 374.0000 1.0000
41.6800 374.0000 1.0000
41.6900 367.0000 1.0000
41.7000 360.0000 1.0000
41.7100 385.0000 1.0000
41.7200 399.0000 1.0000
41.7300 380.0000 1.0000
41.7400 391.0000 1.0000
41.7500 407.0000 1.0000
41.7600 373.0000 1.0000
41.7700 400.0000 1.0000
41.7800 390.0000 1.0000
41.7900 402.0000 1.0000
41.8000 353.0000 1.0000
41.8100 381.0000 1.0000
41.8200 377.0000 1.0000
41.8300 394.0000 1.0000
41.8400 373.0000 1.0000
41.8500 394.0000 1.0000
41.8600 382.0000 1.0000
41.8700 423.0000 1.0000
41.8800 387.0000 1.0000
41.8900 398.0000 1.0000
41.9000 356.0000 1.0000
41.9100 378.0000 1.0000
41.9200 393.0000 1.0000
41.9300 398.0000 1.0000
41.9400 383.0000 1.0000
41.9500 387.0000 1.0000
41.9600 374.0000 1.0000
41.9700 380.0000 1.0000
41.9800 388.0000 1.0000
41.9900 389.0000 1.0000
42.0000 357.0000 1.0000
42.0100 369.0000 1.0000
42.0200 383.0000 1.0000
42.0300 365.0000 1.0000
42.0400 389.0000 1.0000
42.0500 371.0000 1.0000
42.0600 380.0000 1.0000
42.0700 364.0000 1.0000
42.0800 356.0000 1.0000
42.0900 394.0000 1.0000
42.1000 399.0000 1.0000
42.1100 380.0000 1.0000
42.1200 386.0000 1.0000
42.1300 345.0000 1.0000
42.1400 357.0000 1.0000
42.1500 378.0000 1.0000
42.1600 362.0000 1.0000
42.1700 393.0000 1.0000
42.1800 384.0000 1.0000
42.1900 386.0000 1.0000
42.2000 370.0000 1.0000
42.2100 404.0000 1.0000
42.2200 382.0000 1.0000
42.2300 362.0000 1.0000
42.2400 390.0000 1.0000
42.2500 349.0000 1.0000
42.2600 367.0000 1.0000
42.2700 407.0000 1.0000
42.2800 424.0000 1.0000
42.2900 381.0000 1.0000
42.3000 397.0000 1.0000
42.3100 386.0000 1.0000
42.3200 426.0000 1.0000
42.3300 412.0000 1.0000
42.3400 397.0000 1.0000
42.3500 393.0000 1.0000
42.3600 391.0000 1.0000
42.3700 398.0000 1.0000
42.3800 382.0000 1.0000
42.3900 406.0000 1.0000
42.4000 405.0000 1.0000
42.4100 377.0000 1.0000
42.4200 397.0000 1.0000
42.4300 402.0000 1.0000
42.4400 414.0000 1.0000
42.4500 422.0000 1.0000
42.4600 391.0000 1.0000
42.4700 392.0000 1.0000
42.4800 397.0000 1.0000
42.4900 412.0000 1.0000
42.5000 406.0000 1.0000
42.5100 388.0000 1.0000
42.5200 374.0000 1.0000
42.5300 387.0000 1.0000
42.5400 392.0000 1.0000
42.5500 391.0000 1.0000
42.5600 393.0000 1.0000
42.5700 406.0000 1.0000
42.5800 396.0000 1.0000
42.5900 358.0000 1.0000
42.6000 377.0000 1.0000
42.6100 402.0000 1.0000
42.6200 404.0000 1.0000
42.6300 349.0000 1.0000
42.6400 390.0000 1.0000
42.6500 376.0000 1.0000
42.6600 389.0000 1.0000
42.6700 408.0000 1.0000
42.6800 391.0000 1.0000
42.6900 346.0000 1.0000
42.7000 361.0000 1.0000
42.7100 381.0000 1.0000
42.7200 351.0000 1.0000
42.7300 352.0000 1.0000
42.7400 382.0000 1.0000
42.7500 363.0000 1.0000
42.7600 386.0000 1.0000
42.7700 389.0000 1.0000
42.7800 376.0000 1.0000
42.7900 371.0000 1.0000
42.8000 348.0000 1.0000
42.8100 391.0000 1.0000
42.8200 371.0000 1.0000
42.8300 377.0000 1.0000
42.8400 337.0000 1.0000
42.8500 353.0000 1.0000
42.8600 365.0000 1.0000
42.8700 354.0000 1.0000
42.8800 383.0000 1.0000
42.8900 393.0000 1.0000
42.9000 359.0000 1.0000
42.9100 340.0000 1.0000
42.9200 343.0000 1.0000
42.9300 372.0000 1.0000
42.9400 361.0000 1.0000
42.9500 370.0000 1.0000
42.9600 356.0000 1.0000
42.9700 383.0000 1.0000
42.9800 371.0000 1.0000
42.9900 370.0000 1.0000
43.0000 397.0000 1.0000
43.0100 361.0000 1.0000
43.0200 419.0000 1.0000
43.0300 369.0000 1.0000
43.0400 352.0000 1.0000
43.0500 394.0000 1.0000
43.0600 392.0000 1.0000
43.0700 374.0000 1.0000
43.0800 384.0000 1.0000
43.0900 356.0000 1.0000
43.1000 334.0000 1.0000
43.1100 375.0000 1.0000
43.1200 362.0000 1.0000
43.1300 351.0000 1.0000
43.1400 403.0000 1.0000
43.1500 350.0000 1.0000
43.1600 351.0000 1.0000
43.1700 402.0000 1.0000
43.1800 355.0000 1.0000
43.1900 361.0000 1.0000
43.2000 404.0000 1.0000
43.2100 356.0000 1.0000
43.2200 371.0000 1.0000
43.2300 369.0000 1.0000
43.2400 389.0000 1.0000
43.2500 390.0000 1.0000
43.2600 364.0000 1.0000
43.2700 350.0000 1.0000
43.2800 351.0000 1.0000
43.2900 393.0000 1.0000
43.3000 372.0000 1.0000
43.3100 358.0000 1.0000
43.3200 335.0000 1.0000
43.3300 369.0000 1.0000
43.3400 357.0000 1.0000
43.3500 352.0000 1.0000
43.3600 360.0000 1.0000
43.3700 380.0000 1.0000
43.3800 360.0000 1.0000
43.3900 390.0000 1.0000
43.4000 381.0000 1.0000
43.4100 371.0000 1.0000
43.4200 364.0000 1.0000
43.4300 364.0000 1.0000
43.4400 375.0000 1.0000
43.4500 386.0000 1.0000
43.4600 348.0000 1.0000
43.4700 372.0000 1.0000
43.4800 357.0000 1.0000
43.4900 350.0000 1.0000
43.5000 368.0000 1.0000
43.5100 367.0000 1.0000
43.5200 374.0000 1.0000
43.5300 373.0000 1.0000
43.5400 340.0000 1.0000
43.5500 390.0000 1.0000
43.5600 378.0000 1.0000
43.5700 373.0000 1.0000
43.5800 387.0000 1.0000
43.5900 403.0000 1.0000
43.6000 401.0000 1.0000
43.6100 390.0000 1.0000
43.6200 376.0000 1.0000
43.6300 342.0000 1.0000
43.6400 335.0000 1.0000
43.6500 352.0000 1.0000
43.6600 376.0000 1.0000
43.6700 369.0000 1.0000
43.6800 373.0000 1.0000
43.6900 368.0000 1.0000
43.7000 348.0000 1.0000
43.7100 387.0000 1.0000
43.7200 378.0000 1.0000
43.7300 381.0000 1.0000
43.7400 337.0000 1.0000
43.7500 361.0000 1.0000
43.7600 365.0000 1.0000
43.7700 383.0000 1.0000
43.7800 382.0000 1.0000
43.7900 385.0000 1.0000
43.8000 372.0000 1.0000
43.8100 384.0000 1.0000
43.8200 345.0000 1.0000
43.8300 366.0000 1.0000
43.8400 376.0000 1.0000
43.8500 374.0000 1.0000
43.8600 348.0000 1.0000
43.8700 338.0000 1.0000
43.8800 358.0000 1.0000
43.8900 365.0000 1.0000
43.9000 321.0000 1.0000
43.9100 327.0000 1.0000
43.9200 362.0000 1.0000
43.9300 337.0000 1.0000
43.9400 367.0000 1.0000
43.9500 350.0000 1.0000
43.9600 384.0000 1.0000
43.9700 382.0000 1.0000
43.9800 352.0000 1.0000
43.9900 366.0000 1.0000
44.0000 367.0000 1.0000
44.0100 358.0000 1.0000
44.0200 374.0000 1.0000
44.0300 360.0000 1.0000
44.0400 371.0000 1.0000
44.0500 382.0000 1.0000
44.0600 328.0000 1.0000
44.0700 344.0000 1.0000
44.0800 354.0000 1.0000
44.0900 362.0000 1.0000
44.1000 366.0000 1.0000
44.1100 356.0000 1.0000
44.1200 391.0000 1.0000
44.1300 339.0000 1.0000
44.1400 346.0000 1.0000
44.1500 355.0000 1.0000
44.1600 327.0000 1.0000
44.1700 348.0000 1.0000
44.1800 363.0000 1.0000
44.1900 381.0000 1.0000
44.2000 332.0000 1.0000
44.2100 361.0000 1.0000
44.2200 359.0000 1.0000
44.2300 358.0000 1.0000
44.2400 360.0000 1.0000
44.2500 359.0000 1.0000
44.2600 378.0000 1.0000
44.2700 360.0000 1.0000
44.2800 360.0000 1.0000
44.2900 381.0000 1.0000
44.3000 369.0000 1.0000
44.3100 372.0000 1.0000
44.3200 369.0000 1.0000
44.3300 359.0000 1.0000
44.3400 383.0000 1.0000
44.3500 363.0000 1.0000
44.3600 353.0000 1.0000
44.3700 378.0000 1.0000
44.3800 365.0000 1.0000
44.3900 356.0000 1.0000
44.4000 362.0000 1.0000
44.4100 360.0000 1.0000
44.4200 367.0000 1.0000
44.4300 372.0000 1.0000
44.4400 348.0000 1.0000
44.4500 364.0000 1.0000
44.4600 371.0000 1.0000
44.4700 367.0000 1.0000
44.4800 368.0000 1.0000
44.4900 371.0000 1.0000
44.5000 352.0000 1.0000
44.5100 352.0000 1.0000
44.5200 353.0000 1.0000
44.5300 336.0000 1.0000
44.5400 344.0000 1.0000
44.5500 345.0000 1.0000
44.5600 345.0000 1.0000
44.5700 331.0000 1.0000
44.5800 335.0000 1.0000
44.5900 358.0000 1.0000
44.6000 347.0000 1.0000
44.6100 379.0000 1.0000
44.6200 363.0000 1.0000
44.6300 348.0000 1.0000
44.6400 359.0000 1.0000
44.6500 349.0000 1.0000
44.6600 359.0000 1.0000
44.6700 350.0000 1.0000
44.6800 350.0000 1.0000
44.6900 358.0000 1.0000
44.7000 344.0000 1.0000
44.7100 367.0000 1.0000
44.7200 367.0000 1.0000
44.7300 336.0000 1.0000
44.7400 352.0000 1.0000
44.7500 356.0000 1.0000
44.7600 359.0000 1.0000
44.7700 375.0000 1.0000
44.7800 359.0000 1.0000
44.7900 360.0000 1.0000
44.8000 350.0000 1.0000
44.8100 321.0000 1.0000
44.8200 349.0000 1.0000
44.8300 351.0000 1.0000
44.8400 361.0000 1.0000
44.8500 344.0000 1.0000
44.8600 332.0000 1.0000
44.8700 341.0000 1.0000
44.8800 356.0000 1.0000
44.8900 381.0000 1.0000
44.9000 333.0000 1.0000
44.9100 332.0000 1.0000
44.9200 370.0000 1.0000
44.9300 345.0000 1.0000
44.9400 344.0000 1.0000
44.9500 331.0000 1.0000
44.9600 344.0000 1.0000
44.9700 357.0000 1.0000
44.9800 341.0000 1.0000
44.9900 321.0000 1.0000
45.0000 360.0000 1.0000
45.0100 383.0000 1.0000
45.0200 344.0000 1.0000
45.0300 376.0000 1.0000
45.0400 341.0000 1.0000
45.0500 361.0000 1.0000
45.0600 364.0000 1.0000
45.0700 327.0000 1.0000
45.0800 331.0000 1.0000
45.0900 336.0000 1.0000
45.1000 349.0000 1.0000
45.1100 354.0000 1.0000
45.1200 318.0000 1.0000
45.1300 330.0000 1.0000
45.1400 340.0000 1.0000
45.1500 334.0000 1.0000
45.1600 306.0000 1.0000
45.1700 349.0000 1.0000
45.1800 354.0000 1.0000
45.1900 337.0000 1.0000
45.2000 347.0000 1.0000
45.2100 333.0000 1.0000
45.2200 328.0000 1.0000
45.2300 309.0000 1.0000
45.2400 342.0000 1.0000
45.2500 357.0000 1.0000
45.2600 369.0000 1.0000
45.2700 314.0000 1.0000
45.2800 350.0000 1.0000
45.2900 362.0000 1.0000
45.3000 350.0000 1.0000
45.3100 352.0000 1.0000
45.3200 338.0000 1.0000
45.3300 331.0000 1.0000
45.3400 329.0000 1.0000
45.3500 335.0000 1.0000
45.3600 346.0000 1.0000
45.3700 341.0000 1.0000
45.3800 347.0000 1.0000
45.3900 343.0000 1.0000
45.4000 330.0000 1.0000
45.4100 342.0000 1.0000
45.4200 371.0000 1.0000
45.4300 346.0000 1.0000
45.4400 358.0000 1.0000
45.4500 337.0000 1.0000
45.4600 353.0000 1.0000
45.4700 339.0000 1.0000
45.4800 340.0000 1.0000
45.4900 333.0000 1.0000
45.5000 339.0000 1.0000
45.5100 339.0000 1.0000
45.5200 360.0000 1.0000
45.5300 371.0000 1.0000
45.5400 336.0000 1.0000
45.5500 357.0000 1.0000
45.5600 370.0000 1.0000
45.5700 346.0000 1.0000
45.5800 342.0000 1.0000
45.5900 347.0000 1.0000
45.6000 330.0000 1.0000
45.6100 347.0000 1.0000
45.6200 354.0000 1.0000
45.6300 364.0000 1.0000
45.6400 336.0000 1.0000
45.6500 311.0000 1.0000
45.6600 358.0000 1.0000
45.6700 364.0000 1.0000
45.6800 340.0000 1.0000
45.6900 326.0000 1.0000
45.7000 342.0000 1.0000
45.7100 356.0000 1.0000
45.7200 328.0000 1.0000
45.7300 336.0000 1.0000
45.7400 327.0000 1.0000
45.7500 362.0000 1.0000
45.7600 349.0000 1.0000
45.7700 331.0000 1.0000
45.7800 316.0000 1.0000
45.7900 322.0000 1.0000
45.8000 318.0000 1.0000
45.8100 326.0000 1.0000
45.8200 344.0000 1.0000
45.8300 347.0000 1.0000
45.8400 344.0000 1.0000
45.8500 351.0000 1.0000
45.8600 351.0000 1.0000
45.8700 321.0000 1.0000
45.8800 320.0000 1.0000
45.8900 334.0000 1.0000
45.9000 337.0000 1.0000
45.9100 320.0000 1.0000
45.9200 320.0000 1.0000
45.9300 318.0000 1.0000
45.9400 339.0000 1.0000
45.9500 358.0000 1.0000
45.9600 363.0000 1.0000
45.9700 356.0000 1.0000
45.9800 328.0000 1.0000
45.9900 337.0000 1.0000
46.0000 317.0000 1.0000
46.0100 331.0000 1.0000
46.0200 358.0000 1.0000
46.0300 331.0000 1.0000
46.0400 333.0000 1.0000
46.0500 367.0000 1.0000
46.0600 350.0000 1.0000
46.0700 344.0000 1.0000
46.0800 325.0000 1.0000
46.0900 342.0000 1.0000
46.1000 320.0000 1.0000
46.1100 343.0000 1.0000
46.1200 322.0000 1.0000
46.1300 312.0000 1.0000
46.1400 369.0000 1.0000
46.1500 352.0000 1.0000
46.1600 315.0000 1.0000
46.1700 342.0000 1.0000
46.1800 322.0000 1.0000
46.1900 345.0000 1.0000
46.2000 328.0000 1.0000
46.2100 357.0000 1.0000
46.2200 366.0000 1.0000
46.2300 334.0000 1.0000
46.2400 343.0000 1.0000
46.2500 352.0000 1.0000
46.2600 327.0000 1.0000
46.2700 333.0000 1.0000
46.2800 336.0000 1.0000
46.2900 350.0000 1.0000
46.3000 354.0000 1.0000
46.3100 356.0000 1.0000
46.3200 332.0000 1.0000
46.3300 326.0000 1.0000
46.3400 330.0000 1.0000
46.3500 320.0000 1.0000
46.3600 320.0000 1.0000
46.3700 349.0000 1.0000
46.3800 335.0000 1.0000
46.3900 345.0000 1.0000
46.4000 357.0000 1.0000
46.4100 340.0000 1.0000
46.4200 329.0000 1.0000
46.4300 350.0000 1.0000
46.4400 358.0000 1.0000
46.4500 340.0000 1.0000
46.4600 364.0000 1.0000
46.4700 362.0000 1.0000
46.4800 352.0000 1.0000
46.4900 356.0000 1.0000
46.5000 357.0000 1.0000
46.5100 372.0000 1.0000
46.5200 365.0000 1.0000
46.5300 348.0000 1.0000
46.5400 346.0000 1.0000
46.5500 345.0000 1.0000
46.5600 324.0000 1.0000
46.5700 339.0000 1.0000
46.5800 305.0000 1.0000
46.5900 340.0000 1.0000
46.6000 342.0000 1.0000
46.6100 321.0000 1.0000
46.6200 329.0000 1.0000
46.6300 359.0000 1.0000
46.6400 343.0000 1.0000
46.6500 368.0000 1.0000
46.6600 312.0000 1.0000
46.6700 357.0000 1.0000
46.6800 350.0000 1.0000
46.6900 360.0000 1.0000
46.7000 324.0000 1.0000
46.7100 351.0000 1.0000
46.7200 352.0000 1.0000
46.7300 326.0000 1.0000
46.7400 315.0000 1.0000
46.7500 347.0000 1.0000
46.7600 331.0000 1.0000
46.7700 338.0000 1.0000
46.7800 322.0000 1.0000
46.7900 332.0000 1.0000
46.8000 330.0000 1.0000
46.8100 351.0000 1.0000
46.8200 353.0000 1.0000
46.8300 323.0000 1.0000
46.8400 308.0000 1.0000
46.8500 330.0000 1.0000
46.8600 317.0000 1.0000
46.8700 335.0000 1.0000
46.8800 321.0000 1.0000
46.8900 349.0000 1.0000
46.9000 337.0000 1.0000
46.9100 315.0000 1.0000
46.9200 341.0000 1.0000
46.9300 322.0000 1.0000
46.9400 343.0000 1.0000
46.9500 354.0000 1.0000
46.9600 349.0000 1.0000
46.9700 346.0000 1.0000
46.9800 294.0000 1.0000
46.9900 327.0000 1.0000
47.0000 344.0000 1.0000
47.0100 304.0000 1.0000
47.0200 327.0000 1.0000
47.0300 313.0000 1.0000
47.0400 343.0000 1.0000
47.0500 339.0000 1.0000
47.0600 355.0000 1.0000
47.0700 349.0000 1.0000
47.0800 319.0000 1.0000
47.0900 352.0000 1.0000
47.1000 365.0000 1.0000
47.1100 348.0000 1.0000
47.1200 358.0000 1.0000
47.1300 350.0000 1.0000
47.1400 320.0000 1.0000
47.1500 328.0000 1.0000
47.1600 324.0000 1.0000
47.1700 306.0000 1.0000
47.1800 331.0000 1.0000
47.1900 311.0000 1.0000
47.2000 344.0000 1.0000
47.2100 322.0000 1.0000
47.2200 333.0000 1.0000
47.2300 331.0000 1.0000
47.2400 313.0000 1.0000
47.2500 338.0000 1.0000
47.2600 310.0000 1.0000
47.2700 334.0000 1.0000
47.2800 341.0000 1.0000
47.2900 304.0000 1.0000
47.3000 327.0000 1.0000
47.3100 316.0000 1.0000
47.3200 335.0000 1.0000
47.3300 300.0000 1.0000
47.3400 324.0000 1.0000
47.3500 328.0000 1.0000
47.3600 324.0000 1.0000
47.3700 337.0000 1.0000
47.3800 347.0000 1.0000
47.3900 349.0000 1.0000
47.4000 310.0000 1.0000
47.4100 315.0000 1.0000
47.4200 355.0000 1.0000
47.4300 351.0000 1.0000
47.4400 335.0000 1.0000
47.4500 365.0000 1.0000
47.4600 322.0000 1.0000
47.4700 334.0000 1.0000
47.4800 303.0000 1.0000
47.4900 339.0000 1.0000
47.5000 315.0000 1.0000
47.5100 312.0000 1.0000
47.5200 305.0000 1.0000
47.5300 324.0000 1.0000
47.5400 325.0000 1.0000
47.5500 309.0000 1.0000
47.5600 325.0000 1.0000
47.5700 300.0000 1.0000
47.5800 319.0000 1.0000
47.5900 326.0000 1.0000
47.6000 318.0000 1.0000
47.6100 332.0000 1.0000
47.6200 294.0000 1.0000
47.6300 329.0000 1.0000
47.6400 332.0000 1.0000
47.6500 309.0000 1.0000
47.6600 321.0000 1.0000
47.6700 325.0000 1.0000
47.6800 337.0000 1.0000
47.6900 347.0000 1.0000
47.7000 351.0000 1.0000
47.7100 330.0000 1.0000
47.7200 333.0000 1.0000
47.7300 326.0000 1.0000
47.7400 362.0000 1.0000
47.7500 323.0000 1.0000
47.7600 319.0000 1.0000
47.7700 357.0000 1.0000
47.7800 310.0000 1.0000
47.7900 310.0000 1.0000
47.8000 344.0000 1.0000
47.8100 335.0000 1.0000
47.8200 329.0000 1.0000
47.8300 317.0000 1.0000
47.8400 318.0000 1.0000
47.8500 321.0000 1.0000
47.8600 344.0000 1.0000
47.8700 343.0000 1.0000
47.8800 336.0000 1.0000
47.8900 347.0000 1.0000
47.9000 340.0000 1.0000
47.9100 328.0000 1.0000
47.9200 323.0000 1.0000
47.9300 334.0000 1.0000
47.9400 345.0000 1.0000
47.9500 310.0000 1.0000
47.9600 328.0000 1.0000
47.9700 332.0000 1.0000
47.9800 312.0000 1.0000
47.9900 341.0000 1.0000
48.0000 290.0000 1.0000
48.0100 312.0000 1.0000
48.0200 307.0000 1.0000
48.0300 317.0000 1.0000
48.0400 358.0000 1.0000
48.0500 307.0000 1.0000
48.0600 303.0000 1.0000
48.0700 325.0000 1.0000
48.0800 343.0000 1.0000
48.0900 309.0000 1.0000
48.1000 304.0000 1.0000
48.1100 295.0000 1.0000
48.1200 317.0000 1.0000
48.1300 360.0000 1.0000
48.1400 328.0000 1.0000
48.1500 326.0000 1.0000
48.1600 319.0000 1.0000
48.1700 319.0000 1.0000
48.1800 316.0000 1.0000
48.1900 344.0000 1.0000
48.2000 317.0000 1.0000
48.2100 322.0000 1.0000
48.2200 325.0000 1.0000
48.2300 349.0000 1.0000
48.2400 331.0000 1.0000
48.2500 320.0000 1.0000
48.2600 327.0000 1.0000
48.2700 304.0000 1.0000
48.2800 328.0000 1.0000
48.2900 328.0000 1.0000
48.3000 316.0000 1.0000
48.3100 308.0000 1.0000
48.3200 325.0000 1.0000
48.3300 270.0000 1.0000
48.3400 321.0000 1.0000
48.3500 332.0000 1.0000
48.3600 310.0000 1.0000
48.3700 296.0000 1.0000
48.3800 320.0000 1.0000
48.3900 330.0000 1.0000
48.4000 297.0000 1.0000
48.4100 331.0000 1.0000
48.4200 323.0000 1.0000
48.4300 307.0000 1.0000
48.4400 283.0000 1.0000
48.4500 291.0000 1.0000
48.4600 331.0000 1.0000
48.4700 313.0000 1.0000
48.4800 312.0000 1.0000
48.4900 290.0000 1.0000
48.5000 340.0000 1.0000
48.5100 309.0000 1.0000
48.5200 348.0000 1.0000
48.5300 302.0000 1.0000
48.5400 306.0000 1.0000
48.5500 299.0000 1.0000
48.5600 339.0000 1.0000
48.5700 343.0000 1.0000
48.5800 314.0000 1.0000
48.5900 315.0000 1.0000
48.6000 334.0000 1.0000
48.6100 305.0000 1.0000
48.6200 337.0000 1.0000
48.6300 320.0000 1.0000
48.6400 309.0000 1.0000
48.6500 288.0000 1.0000
48.6600 297.0000 1.0000
48.6700 306.0000 1.0000
48.6800 301.0000 1.0000
48.6900 294.0000 1.0000
48.7000 328.0000 1.0000
48.7100 315.0000 1.0000
48.7200 311.0000 1.0000
48.7300 321.0000 1.0000
48.7400 301.0000 1.0000
48.7500 305.0000 1.0000
48.7600 305.0000 1.0000
48.7700 312.0000 1.0000
48.7800 312.0000 1.0000
48.7900 339.0000 1.0000
48.8000 314.0000 1.0000
48.8100 304.0000 1.0000
48.8200 318.0000 1.0000
48.8300 348.0000 1.0000
48.8400 339.0000 1.0000
48.8500 325.0000 1.0000
48.8600 317.0000 1.0000
48.8700 335.0000 1.0000
48.8800 311.0000 1.0000
48.8900 310.0000 1.0000
48.9000 345.0000 1.0000
48.9100 334.0000 1.0000
48.9200 296.0000 1.0000
48.9300 301.0000 1.0000
48.9400 333.0000 1.0000
48.9500 332.0000 1.0000
48.9600 320.0000 1.0000
48.9700 302.0000 1.0000
48.9800 358.0000 1.0000
48.9900 308.0000 1.0000
49.0000 309.0000 1.0000
49.0100 319.0000 1.0000
49.0200 315.0000 1.0000
49.0300 318.0000 1.0000
49.0400 298.0000 1.0000
49.0500 333.0000 1.0000
49.0600 302.0000 1.0000
49.0700 332.0000 1.0000
49.0800 310.0000 1.0000
49.0900 324.0000 1.0000
49.1000 336.0000 1.0000
49.1100 323.0000 1.0000
49.1200 324.0000 1.0000
49.1300 315.0000 1.0000
49.1400 332.0000 1.0000
49.1500 296.0000 1.0000
49.1600 339.0000 1.0000
49.1700 313.0000 1.0000
49.1800 328.0000 1.0000
49.1900 336.0000 1.0000
49.2000 316.0000 1.0000
49.2100 325.0000 1.0000
49.2200 337.0000 1.0000
49.2300 342.0000 1.0000
49.2400 339.0000 1.0000
49.2500 343.0000 1.0000
49.2600 336.0000 1.0000
49.2700 367.0000 1.0000
49.2800 349.0000 1.0000
49.2900 353.0000 1.0000
49.3000 353.0000 1.0000
49.3100 360.0000 1.0000
49.3200 349.0000 1.0000
49.3300 368.0000 1.0000
49.3400 383.0000 1.0000
49.3500 389.0000 1.0000
49.3600 363.0000 1.0000
49.3700 376.0000 1.0000
49.3800 368.0000 1.0000
49.3900 368.0000 1.0000
49.4000 409.0000 1.0000
49.4100 379.0000 1.0000
49.4200 400.0000 1.0000
49.4300 385.0000 1.0000
49.4400 393.0000 1.0000
49.4500 380.0000 1.0000
49.4600 402.0000 1.0000
49.4700 420.0000 1.0000
49.4800 396.0000 1.0000
49.4900 388.0000 1.0000
49.5000 380.0000 1.0000
49.5100 391.0000 1.0000
49.5200 359.0000 1.0000
49.5300 351.0000 1.0000
49.5400 342.0000 1.0000
49.5500 373.0000 1.0000
49.5600 357.0000 1.0000
49.5700 362.0000 1.0000
49.5800 354.0000 1.0000
49.5900 378.0000 1.0000
49.6000 356.0000 1.0000
49.6100 351.0000 1.0000
49.6200 337.0000 1.0000
49.6300 337.0000 1.0000
49.6400 332.0000 1.0000
49.6500 305.0000 1.0000
49.6600 334.0000 1.0000
49.6700 357.0000 1.0000
49.6800 337.0000 1.0000
49.6900 333.0000 1.0000
49.7000 313.0000 1.0000
49.7100 324.0000 1.0000
49.7200 334.0000 1.0000
49.7300 333.0000 1.0000
49.7400 324.0000 1.0000
49.7500 301.0000 1.0000
49.7600 316.0000 1.0000
49.7700 360.0000 1.0000
49.7800 325.0000 1.0000
49.7900 304.0000 1.0000
49.8000 326.0000 1.0000
49.8100 293.0000 1.0000
49.8200 292.0000 1.0000
49.8300 335.0000 1.0000
49.8400 320.0000 1.0000
49.8500 339.0000 1.0000
49.8600 345.0000 1.0000
49.8700 342.0000 1.0000
49.8800 342.0000 1.0000
49.8900 300.0000 1.0000
49.9000 312.0000 1.0000
49.9100 321.0000 1.0000
49.9200 299.0000 1.0000
49.9300 349.0000 1.0000
49.9400 322.0000 1.0000
49.9500 344.0000 1.0000
49.9600 322.0000 1.0000
49.9700 311.0000 1.0000
49.9800 287.0000 1.0000
49.9900 327.0000 1.0000
50.0000 331.0000 1.0000
50.0100 317.0000 1.0000
50.0200 336.0000 1.0000
50.0300 316.0000 1.0000
50.0400 334.0000 1.0000
50.0500 294.0000 1.0000
50.0600 322.0000 1.0000
50.0700 308.0000 1.0000
50.0800 297.0000 1.0000
50.0900 356.0000 1.0000
50.1000 314.0000 1.0000
50.1100 327.0000 1.0000
50.1200 344.0000 1.0000
50.1300 303.0000 1.0000
50.1400 302.0000 1.0000
50.1500 299.0000 1.0000
50.1600 300.0000 1.0000
50.1700 284.0000 1.0000
50.1800 296.0000 1.0000
50.1900 334.0000 1.0000
50.2000 327.0000 1.0000
50.2100 319.0000 1.0000
50.2200 325.0000 1.0000
50.2300 313.0000 1.0000
50.2400 328.0000 1.0000
50.2500 321.0000 1.0000
50.2600 291.0000 1.0000
50.2700 317.0000 1.0000
50.2800 301.0000 1.0000
50.2900 333.0000 1.0000
50.3000 319.0000 1.0000
50.3100 328.0000 1.0000
50.3200 312.0000 1.0000
50.3300 303.0000 1.0000
50.3400 331.0000 1.0000
50.3500 345.0000 1.0000
50.3600 287.0000 1.0000
50.3700 297.0000 1.0000
50.3800 327.0000 1.0000
50.3900 326.0000 1.0000
50.4000 311.0000 1.0000
50.4100 327.0000 1.0000
50.4200 306.0000 1.0000
50.4300 317.0000 1.0000
50.4400 342.0000 1.0000
50.4500 315.0000 1.0000
50.4600 299.0000 1.0000
50.4700 305.0000 1.0000
50.4800 312.0000 1.0000
50.4900 275.0000 1.0000
50.5000 277.0000 1.0000
50.5100 281.0000 1.0000
50.5200 295.0000 1.0000
50.5300 352.0000 1.0000
50.5400 320.0000 1.0000
50.5500 341.0000 1.0000
50.5600 321.0000 1.0000
50.5700 327.0000 1.0000
50.5800 309.0000 1.0000
50.5900 271.0000 1.0000
50.6000 317.0000 1.0000
50.6100 341.0000 1.0000
50.6200 327.0000 1.0000
50.6300 331.0000 1.0000
50.6400 325.0000 1.0000
50.6500 328.0000 1.0000
50.6600 299.0000 1.0000
50.6700 329.0000 1.0000
50.6800 326.0000 1.0000
50.6900 318.0000 1.0000
50.7000 319.0000 1.0000
50.7100 332.0000 1.0000
50.7200 329.0000 1.0000
50.7300 299.0000 1.0000
50.7400 319.0000 1.0000
50.7500 344.0000 1.0000
50.7600 333.0000 1.0000
50.7700 336.0000 1.0000
50.7800 336.0000 1.0000
50.7900 318.0000 1.0000
50.8000 318.0000 1.0000
50.8100 311.0000 1.0000
50.8200 310.0000 1.0000
50.8300 317.0000 1.0000
50.8400 321.0000 1.0000
50.8500 346.0000 1.0000
50.8600 344.0000 1.0000
50.8700 337.0000 1.0000
50.8800 341.0000 1.0000
50.8900 315.0000 1.0000
50.9000 335.0000 1.0000
50.9100 341.0000 1.0000
50.9200 329.0000 1.0000
50.9300 322.0000 1.0000
50.9400 347.0000 1.0000
50.9500 349.0000 1.0000
50.9600 323.0000 1.0000
50.9700 330.0000 1.0000
50.9800 325.0000 1.0000
50.9900 333.0000 1.0000
51.0000 314.0000 1.0000
51.0100 327.0000 1.0000
51.0200 331.0000 1.0000
51.0300 309.0000 1.0000
51.0400 320.0000 1.0000
51.0500 354.0000 1.0000
51.0600 350.0000 1.0000
51.0700 361.0000 1.0000
51.0800 398.0000 1.0000
51.0900 394.0000 1.0000
51.1000 342.0000 1.0000
51.1100 360.0000 1.0000
51.1200 350.0000 1.0000
51.1300 361.0000 1.0000
51.1400 360.0000 1.0000
51.1500 333.0000 1.0000
51.1600 338.0000 1.0000
51.1700 358.0000 1.0000
51.1800 371.0000 1.0000
51.1900 366.0000 1.0000
51.2000 427.0000 1.0000
51.2100 381.0000 1.0000
51.2200 410.0000 1.0000
51.2300 426.0000 1.0000
51.2400 439.0000 1.0000
51.2500 437.0000 1.0000
51.2600 437.0000 1.0000
51.2700 408.0000 1.0000
51.2800 475.0000 1.0000
51.2900 486.0000 1.0000
51.3000 466.0000 1.0000
51.3100 520.0000 1.0000
51.3200 538.0000 1.0000
51.3300 516.0000 1.0000
51.3400 566.0000 1.0000
51.3500 606.0000 1.0000
51.3600 652.0000 1.0000
51.3700 622.0000 1.0000
51.3800 666.0000 1.0000
51.3900 721.0000 1.0000
51.4000 722.0000 1.0000
51.4100 758.0000 1.0000
51.4200 842.0000 1.0000
51.4300 836.0000 1.0000
51.4400 851.0000 1.0000
51.4500 895.0000 1.0000
51.4600 936.0000 1.0000
51.4700 899.0000 1.0000
51.4800 957.0000 1.0000
51.4900 943.0000 1.0000
51.5000 883.0000 1.0000
51.5100 859.0000 1.0000
51.5200 879.0000 1.0000
51.5300 886.0000 1.0000
51.5400 886.0000 1.0000
51.5500 860.0000 1.0000
51.5600 855.0000 1.0000
51.5700 829.0000 1.0000
51.5800 847.0000 1.0000
51.5900 804.0000 1.0000
51.6000 746.0000 1.0000
51.6100 720.0000 1.0000
51.6200 743.0000 1.0000
51.6300 723.0000 1.0000
51.6400 677.0000 1.0000
51.6500 699.0000 1.0000
51.6600 640.0000 1.0000
51.6700 612.0000 1.0000
51.6800 591.0000 1.0000
51.6900 561.0000 1.0000
51.7000 541.0000 1.0000
51.7100 574.0000 1.0000
51.7200 566.0000 1.0000
51.7300 523.0000 1.0000
51.7400 456.0000 1.0000
51.7500 504.0000 1.0000
51.7600 474.0000 1.0000
51.7700 430.0000 1.0000
51.7800 464.0000 1.0000
51.7900 444.0000 1.0000
51.8000 402.0000 1.0000
51.8100 396.0000 1.0000
51.8200 422.0000 1.0000
51.8300 402.0000 1.0000
51.8400 410.0000 1.0000
51.8500 412.0000 1.0000
51.8600 403.0000 1.0000
51.8700 379.0000 1.0000
51.8800 405.0000 1.0000
51.8900 371.0000 1.0000
51.9000 373.0000 1.0000
51.9100 388.0000 1.0000
51.9200 362.0000 1.0000
51.9300 365.0000 1.0000
51.9400 365.0000 1.0000
51.9500 370.0000 1.0000
51.9600 345.0000 1.0000
51.9700 330.0000 1.0000
51.9800 332.0000 1.0000
51.9900 357.0000 1.0000
52.0000 324.0000 1.0000
52.0100 351.0000 1.0000
52.0200 354.0000 1.0000
52.0300 337.0000 1.0000
52.0400 315.0000 1.0000
52.0500 363.0000 1.0000
52.0600 311.0000 1.0000
52.0700 323.0000 1.0000
52.0800 343.0000 1.0000
52.0900 321.0000 1.0000
52.1000 334.0000 1.0000
52.1100 337.0000 1.0000
52.1200 297.0000 1.0000
52.1300 330.0000 1.0000
52.1400 294.0000 1.0000
52.1500 305.0000 1.0000
52.1600 315.0000 1.0000
52.1700 341.0000 1.0000
52.1800 333.0000 1.0000
52.1900 343.0000 1.0000
52.2000 333.0000 1.0000
52.2100 328.0000 1.0000
52.2200 308.0000 1.0000
52.2300 301.0000 1.0000
52.2400 291.0000 1.0000
52.2500 315.0000 1.0000
52.2600 347.0000 1.0000
52.2700 311.0000 1.0000
52.2800 298.0000 1.0000
52.2900 323.0000 1.0000
52.3000 301.0000 1.0000
52.3100 301.0000 1.0000
52.3200 316.0000 1.0000
52.3300 315.0000 1.0000
52.3400 319.0000 1.0000
52.3500 339.0000 1.0000
52.3600 302.0000 1.0000
52.3700 286.0000 1.0000
52.3800 330.0000 1.0000
52.3900 354.0000 1.0000
52.4000 305.0000 1.0000
52.4100 327.0000 1.0000
52.4200 297.0000 1.0000
52.4300 315.0000 1.0000
52.4400 326.0000 1.0000
52.4500 316.0000 1.0000
52.4600 341.0000 1.0000
52.4700 331.0000 1.0000
52.4800 299.0000 1.0000
52.4900 313.0000 1.0000
52.5000 289.0000 1.0000
52.5100 306.0000 1.0000
52.5200 310.0000 1.0000
52.5300 328.0000 1.0000
52.5400 304.0000 1.0000
52.5500 295.0000 1.0000
52.5600 319.0000 1.0000
52.5700 336.0000 1.0000
52.5800 299.0000 1.0000
52.5900 320.0000 1.0000
52.6000 338.0000 1.0000
52.6100 309.0000 1.0000
52.6200 286.0000 1.0000
52.6300 326.0000 1.0000
52.6400 320.0000 1.0000
52.6500 298.0000 1.0000
52.6600 290.0000 1.0000
52.6700 311.0000 1.0000
52.6800 297.0000 1.0000
52.6900 305.0000 1.0000
52.7000 320.0000 1.0000
52.7100 282.0000 1.0000
52.7200 316.0000 1.0000
52.7300 317.0000 1.0000
52.7400 300.0000 1.0000
52.7500 327.0000 1.0000
52.7600 302.0000 1.0000
52.7700 292.0000 1.0000
52.7800 301.0000 1.0000
52.7900 316.0000 1.0000
52.8000 317.0000 1.0000
52.8100 303.0000 1.0000
52.8200 304.0000 1.0000
52.8300 298.0000 1.0000
52.8400 294.0000 1.0000
52.8500 287.0000 1.0000
52.8600 293.0000 1.0000
52.8700 323.0000 1.0000
52.8800 295.0000 1.0000
52.8900 300.0000 1.0000
52.9000 303.0000 1.0000
52.9100 331.0000 1.0000
52.9200 306.0000 1.0000
52.9300 298.0000 1.0000
52.9400 278.0000 1.0000
52.9500 295.0000 1.0000
52.9600 288.0000 1.0000
52.9700 324.0000 1.0000
52.9800 311.0000 1.0000
52.9900 307.0000 1.0000
53.0000 322.0000 1.0000
53.0100 305.0000 1.0000
53.0200 316.0000 1.0000
53.0300 314.0000 1.0000
53.0400 279.0000 1.0000
53.0500 294.0000 1.0000
53.0600 298.0000 1.0000
53.0700 313.0000 1.0000
53.0800 271.0000 1.0000
53.0900 294.0000 1.0000
53.1000 292.0000 1.0000
53.1100 315.0000 1.0000
53.1200 320.0000 1.0000
53.1300 289.0000 1.0000
53.1400 318.0000 1.0000
53.1500 310.0000 1.0000
53.1600 298.0000 1.0000
53.1700 339.0000 1.0000
53.1800 294.0000 1.0000
53.1900 287.0000 1.0000
53.2000 306.0000 1.0000
53.2100 320.0000 1.0000
53.2200 317.0000 1.0000
53.2300 300.0000 1.0000
53.2400 294.0000 1.0000
53.2500 289.0000 1.0000
53.2600 300.0000 1.0000
53.2700 286.0000 1.0000
53.2800 319.0000 1.0000
53.2900 308.0000 1.0000
53.3000 305.0000 1.0000
53.3100 316.0000 1.0000
53.3200 316.0000 1.0000
53.3300 318.0000 1.0000
53.3400 304.0000 1.0000
53.3500 312.0000 1.0000
53.3600 292.0000 1.0000
53.3700 284.0000 1.0000
53.3800 295.0000 1.0000
53.3900 292.0000 1.0000
53.4000 323.0000 1.0000
53.4100 318.0000 1.0000
53.4200 311.0000 1.0000
53.4300 298.0000 1.0000
53.4400 292.0000 1.0000
53.4500 305.0000 1.0000
53.4600 311.0000 1.0000
53.4700 300.0000 1.0000
53.4800 286.0000 1.0000
53.4900 271.0000 1.0000
53.5000 290.0000 1.0000
53.5100 317.0000 1.0000
53.5200 316.0000 1.0000
53.5300 315.0000 1.0000
53.5400 313.0000 1.0000
53.5500 316.0000 1.0000
53.5600 338.0000 1.0000
53.5700 289.0000 1.0000
53.5800 305.0000 1.0000
53.5900 310.0000 1.0000
53.6000 315.0000 1.0000
53.6100 311.0000 1.0000
53.6200 319.0000 1.0000
53.6300 318.0000 1.0000
53.6400 320.0000 1.0000
53.6500 281.0000 1.0000
53.6600 311.0000 1.0000
53.6700 279.0000 1.0000
53.6800 326.0000 1.0000
53.6900 304.0000 1.0000
53.7000 334.0000 1.0000
53.7100 294.0000 1.0000
53.7200 330.0000 1.0000
53.7300 314.0000 1.0000
53.7400 310.0000 1.0000
53.7500 309.0000 1.0000
53.7600 327.0000 1.0000
53.7700 305.0000 1.0000
53.7800 308.0000 1.0000
53.7900 300.0000 1.0000
53.8000 337.0000 1.0000
53.8100 302.0000 1.0000
53.8200 307.0000 1.0000
53.8300 313.0000 1.0000
53.8400 321.0000 1.0000
53.8500 311.0000 1.0000
53.8600 311.0000 1.0000
53.8700 317.0000 1.0000
53.8800 326.0000 1.0000
53.8900 301.0000 1.0000
53.9000 315.0000 1.0000
53.9100 346.0000 1.0000
53.9200 338.0000 1.0000
53.9300 348.0000 1.0000
53.9400 353.0000 1.0000
53.9500 354.0000 1.0000
53.9600 366.0000 1.0000
53.9700 364.0000 1.0000
53.9800 338.0000 1.0000
53.9900 342.0000 1.0000
54.0000 371.0000 1.0000
54.0100 356.0000 1.0000
54.0200 349.0000 1.0000
54.0300 349.0000 1.0000
54.0400 377.0000 1.0000
54.0500 343.0000 1.0000
54.0600 331.0000 1.0000
54.0700 367.0000 1.0000
54.0800 373.0000 1.0000
54.0900 348.0000 1.0000
54.1000 349.0000 1.0000
54.1100 361.0000 1.0000
54.1200 324.0000 1.0000
54.1300 355.0000 1.0000
54.1400 342.0000 1.0000
54.1500 357.0000 1.0000
54.1600 341.0000 1.0000
54.1700 364.0000 1.0000
54.1800 329.0000 1.0000
54.1900 364.0000 1.0000
54.2000 370.0000 1.0000
54.2100 335.0000 1.0000
54.2200 334.0000 1.0000
54.2300 340.0000 1.0000
54.2400 337.0000 1.0000
54.2500 329.0000 1.0000
54.2600 368.0000 1.0000
54.2700 359.0000 1.0000
54.2800 331.0000 1.0000
54.2900 370.0000 1.0000
54.3000 344.0000 1.0000
54.3100 320.0000 1.0000
54.3200 342.0000 1.0000
54.3300 343.0000 1.0000
54.3400 323.0000 1.0000
54.3500 328.0000 1.0000
54.3600 359.0000 1.0000
54.3700 362.0000 1.0000
54.3800 329.0000 1.0000
54.3900 372.0000 1.0000
54.4000 364.0000 1.0000
54.4100 378.0000 1.0000
54.4200 392.0000 1.0000
54.4300 399.0000 1.0000
54.4400 344.0000 1.0000
54.4500 322.0000 1.0000
54.4600 353.0000 1.0000
54.4700 363.0000 1.0000
54.4800 375.0000 1.0000
54.4900 356.0000 1.0000
54.5000 351.0000 1.0000
54.5100 340.0000 1.0000
54.5200 346.0000 1.0000
54.5300 375.0000 1.0000
54.5400 375.0000 1.0000
54.5500 347.0000 1.0000
54.5600 370.0000 1.0000
54.5700 367.0000 1.0000
54.5800 337.0000 1.0000
54.5900 364.0000 1.0000
54.6000 377.0000 1.0000
54.6100 367.0000 1.0000
54.6200 360.0000 1.0000
54.6300 336.0000 1.0000
54.6400 344.0000 1.0000
54.6500 345.0000 1.0000
54.6600 335.0000 1.0000
54.6700 305.0000 1.0000
54.6800 352.0000 1.0000
54.6900 344.0000 1.0000
54.7000 316.0000 1.0000
54.7100 356.0000 1.0000
54.7200 355.0000 1.0000
54.7300 338.0000 1.0000
54.7400 329.0000 1.0000
54.7500 333.0000 1.0000
54.7600 340.0000 1.0000
54.7700 328.0000 1.0000
54.7800 299.0000 1.0000
54.7900 306.0000 1.0000
54.8000 342.0000 1.0000
54.8100 325.0000 1.0000
54.8200 315.0000 1.0000
54.8300 313.0000 1.0000
54.8400 350.0000 1.0000
54.8500 335.0000 1.0000
54.8600 341.0000 1.0000
54.8700 289.0000 1.0000
54.8800 299.0000 1.0000
54.8900 314.0000 1.0000
54.9000 326.0000 1.0000
54.9100 318.0000 1.0000
54.9200 302.0000 1.0000
54.9300 295.0000 1.0000
54.9400 304.0000 1.0000
54.9500 298.0000 1.0000
54.9600 314.0000 1.0000
54.9700 304.0000 1.0000
54.9800 301.0000 1.0000
54.9900 299.0000 1.0000
55.0000 303.0000 1.0000
55.0100 285.0000 1.0000
55.0200 286.0000 1.0000
55.0300 303.0000 1.0000
55.0400 282.0000 1.0000
55.0500 271.0000 1.0000
55.0600 303.0000 1.0000
55.0700 299.0000 1.0000
55.0800 279.0000 1.0000
55.0900 305.0000 1.0000
55.1000 291.0000 1.0000
55.1100 307.0000 1.0000
55.1200 308.0000 1.0000
55.1300 272.0000 1.0000
55.1400 290.0000 1.0000
55.1500 296.0000 1.0000
55.1600 321.0000 1.0000
55.1700 314.0000 1.0000
55.1800 285.0000 1.0000
55.1900 300.0000 1.0000
55.2000 287.0000 1.0000
55.2100 279.0000 1.0000
55.2200 287.0000 1.0000
55.2300 291.0000 1.0000
55.2400 297.0000 1.0000
55.2500 289.0000 1.0000
55.2600 297.0000 1.0000
55.2700 302.0000 1.0000
55.2800 297.0000 1.0000
55.2900 270.0000 1.0000
55.3000 280.0000 1.0000
55.3100 302.0000 1.0000
55.3200 313.0000 1.0000
55.3300 308.0000 1.0000
55.3400 277.0000 1.0000
55.3500 292.0000 1.0000
55.3600 290.0000 1.0000
55.3700 300.0000 1.0000
55.3800 284.0000 1.0000
55.3900 290.0000 1.0000
55.4000 324.0000 1.0000
55.4100 269.0000 1.0000
55.4200 265.0000 1.0000
55.4300 285.0000 1.0000
55.4400 297.0000 1.0000
55.4500 291.0000 1.0000
55.4600 279.0000 1.0000
55.4700 288.0000 1.0000
55.4800 277.0000 1.0000
55.4900 286.0000 1.0000
55.5000 295.0000 1.0000
55.5100 301.0000 1.0000
55.5200 287.0000 1.0000
55.5300 264.0000 1.0000
55.5400 269.0000 1.0000
55.5500 277.0000 1.0000
55.5600 267.0000 1.0000
55.5700 300.0000 1.0000
55.5800 294.0000 1.0000
55.5900 285.0000 1.0000
55.6000 270.0000 1.0000
55.6100 279.0000 1.0000
55.6200 284.0000 1.0000
55.6300 271.0000 1.0000
55.6400 284.0000 1.0000
55.6500 303.0000 1.0000
55.6600 313.0000 1.0000
55.6700 323.0000 1.0000
55.6800 303.0000 1.0000
55.6900 288.0000 1.0000
55.7000 295.0000 1.0000
55.7100 311.0000 1.0000
55.7200 283.0000 1.0000
55.7300 302.0000 1.0000
55.7400 297.0000 1.0000
55.7500 313.0000 1.0000
55.7600 296.0000 1.0000
55.7700 292.0000 1.0000
55.7800 308.0000 1.0000
55.7900 308.0000 1.0000
55.8000 281.0000 1.0000
55.8100 285.0000 1.0000
55.8200 291.0000 1.0000
55.8300 310.0000 1.0000
55.8400 315.0000 1.0000
55.8500 314.0000 1.0000
55.8600 274.0000 1.0000
55.8700 281.0000 1.0000
55.8800 289.0000 1.0000
55.8900 257.0000 1.0000
55.9000 332.0000 1.0000
55.9100 294.0000 1.0000
55.9200 287.0000 1.0000
55.9300 298.0000 1.0000
55.9400 280.0000 1.0000
55.9500 283.0000 1.0000
55.9600 297.0000 1.0000
55.9700 294.0000 1.0000
55.9800 297.0000 1.0000
55.9900 285.0000 1.0000
56.0000 303.0000 1.0000
56.0100 296.0000 1.0000
56.0200 302.0000 1.0000
56.0300 276.0000 1.0000
56.0400 313.0000 1.0000
56.0500 275.0000 1.0000
56.0600 289.0000 1.0000
56.0700 287.0000 1.0000
56.0800 279.0000 1.0000
56.0900 287.0000 1.0000
56.1000 257.0000 1.0000
56.1100 293.0000 1.0000
56.1200 317.0000 1.0000
56.1300 281.0000 1.0000
56.1400 308.0000 1.0000
56.1500 299.0000 1.0000
56.1600 308.0000 1.0000
56.1700 311.0000 1.0000
56.1800 291.0000 1.0000
56.1900 316.0000 1.0000
56.2000 308.0000 1.0000
56.2100 301.0000 1.0000
56.2200 301.0000 1.0000
56.2300 300.0000 1.0000
56.2400 288.0000 1.0000
56.2500 296.0000 1.0000
56.2600 281.0000 1.0000
56.2700 273.0000 1.0000
56.2800 286.0000 1.0000
56.2900 304.0000 1.0000
56.3000 283.0000 1.0000
56.3100 285.0000 1.0000
56.3200 298.0000 1.0000
56.3300 301.0000 1.0000
56.3400 274.0000 1.0000
56.3500 278.0000 1.0000
56.3600 303.0000 1.0000
56.3700 312.0000 1.0000
56.3800 290.0000 1.0000
56.3900 323.0000 1.0000
56.4000 285.0000 1.0000
56.4100 314.0000 1.0000
56.4200 303.0000 1.0000
56.4300 336.0000 1.0000
56.4400 282.0000 1.0000
56.4500 298.0000 1.0000
56.4600 285.0000 1.0000
56.4700 302.0000 1.0000
56.4800 311.0000 1.0000
56.4900 304.0000 1.0000
56.5000 294.0000 1.0000
56.5100 298.0000 1.0000
56.5200 290.0000 1.0000
56.5300 318.0000 1.0000
56.5400 295.0000 1.0000
56.5500 280.0000 1.0000
56.5600 295.0000 1.0000
56.5700 299.0000 1.0000
56.5800 283.0000 1.0000
56.5900 292.0000 1.0000
56.6000 301.0000 1.0000
56.6100 260.0000 1.0000
56.6200 291.0000 1.0000
56.6300 283.0000 1.0000
56.6400 297.0000 1.0000
56.6500 304.0000 1.0000
56.6600 301.0000 1.0000
56.6700 301.0000 1.0000
56.6800 269.0000 1.0000
56.6900 294.0000 1.0000
56.7000 310.0000 1.0000
56.7100 283.0000 1.0000
56.7200 275.0000 1.0000
56.7300 293.0000 1.0000
56.7400 316.0000 1.0000
56.7500 273.0000 1.0000
56.7600 300.0000 1.0000
56.7700 315.0000 1.0000
56.7800 301.0000 1.0000
56.7900 286.0000 1.0000
56.8000 304.0000 1.0000
56.8100 286.0000 1.0000
56.8200 263.0000 1.0000
56.8300 269.0000 1.0000
56.8400 283.0000 1.0000
56.8500 301.0000 1.0000
56.8600 284.0000 1.0000
56.8700 276.0000 1.0000
56.8800 285.0000 1.0000
56.8900 292.0000 1.0000
56.9000 271.0000 1.0000
56.9100 273.0000 1.0000
56.9200 307.0000 1.0000
56.9300 283.0000 1.0000
56.9400 282.0000 1.0000
56.9500 302.0000 1.0000
56.9600 306.0000 1.0000
56.9700 315.0000 1.0000
56.9800 307.0000 1.0000
56.9900 279.0000 1.0000
57.0000 307.0000 1.0000
57.0100 284.0000 1.0000
57.0200 257.0000 1.0000
57.0300 283.0000 1.0000
57.0400 276.0000 1.0000
57.0500 283.0000 1.0000
57.0600 284.0000 1.0000
57.0700 280.0000 1.0000
57.0800 280.0000 1.0000
57.0900 265.0000 1.0000
57.1000 317.0000 1.0000
57.1100 310.0000 1.0000
57.1200 273.0000 1.0000
57.1300 294.0000 1.0000
57.1400 277.0000 1.0000
57.1500 302.0000 1.0000
57.1600 297.0000 1.0000
57.1700 259.0000 1.0000
57.1800 287.0000 1.0000
57.1900 281.0000 1.0000
57.2000 263.0000 1.0000
57.2100 306.0000 1.0000
57.2200 304.0000 1.0000
57.2300 290.0000 1.0000
57.2400 276.0000 1.0000
57.2500 287.0000 1.0000
57.2600 303.0000 1.0000
57.2700 292.0000 1.0000
57.2800 289.0000 1.0000
57.2900 264.0000 1.0000
57.3000 293.0000 1.0000
57.3100 305.0000 1.0000
57.3200 268.0000 1.0000
57.3300 319.0000 1.0000
57.3400 298.0000 1.0000
57.3500 314.0000 1.0000
57.3600 287.0000 1.0000
57.3700 293.0000 1.0000
57.3800 299.0000 1.0000
57.3900 301.0000 1.0000
57.4000 286.0000 1.0000
57.4100 296.0000 1.0000
57.4200 300.0000 1.0000
57.4300 308.0000 1.0000
57.4400 327.0000 1.0000
57.4500 285.0000 1.0000
57.4600 292.0000 1.0000
57.4700 316.0000 1.0000
57.4800 290.0000 1.0000
57.4900 284.0000 1.0000
57.5000 312.0000 1.0000
57.5100 331.0000 1.0000
57.5200 319.0000 1.0000
57.5300 284.0000 1.0000
57.5400 327.0000 1.0000
57.5500 278.0000 1.0000
57.5600 275.0000 1.0000
57.5700 301.0000 1.0000
57.5800 304.0000 1.0000
57.5900 302.0000 1.0000
57.6000 325.0000 1.0000
57.6100 320.0000 1.0000
57.6200 302.0000 1.0000
57.6300 307.0000 1.0000
57.6400 267.0000 1.0000
57.6500 297.0000 1.0000
57.6600 307.0000 1.0000
57.6700 287.0000 1.0000
57.6800 294.0000 1.0000
57.6900 288.0000 1.0000
57.7000 309.0000 1.0000
57.7100 313.0000 1.0000
57.7200 309.0000 1.0000
57.7300 278.0000 1.0000
57.7400 306.0000 1.0000
57.7500 277.0000 1.0000
57.7600 306.0000 1.0000
57.7700 281.0000 1.0000
57.7800 279.0000 1.0000
57.7900 309.0000 1.0000
57.8000 313.0000 1.0000
57.8100 278.0000 1.0000
57.8200 306.0000 1.0000
57.8300 293.0000 1.0000
57.8400 300.0000 1.0000
57.8500 270.0000 1.0000
57.8600 296.0000 1.0000
57.8700 277.0000 1.0000
57.8800 293.0000 1.0000
57.8900 302.0000 1.0000
57.9000 293.0000 1.0000
57.9100 270.0000 1.0000
57.9200 271.0000 1.0000
57.9300 294.0000 1.0000
57.9400 273.0000 1.0000
57.9500 276.0000 1.0000
57.9600 297.0000 1.0000
57.9700 267.0000 1.0000
57.9800 295.0000 1.0000
57.9900 290.0000 1.0000
58.0000 272.0000 1.0000
58.0100 281.0000 1.0000
58.0200 287.0000 1.0000
58.0300 299.0000 1.0000
58.0400 279.0000 1.0000
58.0500 283.0000 1.0000
58.0600 267.0000 1.0000
58.0700 304.0000 1.0000
58.0800 287.0000 1.0000
58.0900 268.0000 1.0000
58.1000 293.0000 1.0000
58.1100 292.0000 1.0000
58.1200 299.0000 1.0000
58.1300 263.0000 1.0000
58.1400 289.0000 1.0000
58.1500 245.0000 1.0000
58.1600 273.0000 1.0000
58.1700 289.0000 1.0000
58.1800 273.0000 1.0000
58.1900 301.0000 1.0000
58.2000 314.0000 1.0000
58.2100 286.0000 1.0000
58.2200 278.0000 1.0000
58.2300 266.0000 1.0000
58.2400 270.0000 1.0000
58.2500 306.0000 1.0000
58.2600 311.0000 1.0000
58.2700 261.0000 1.0000
58.2800 306.0000 1.0000
58.2900 295.0000 1.0000
58.3000 268.0000 1.0000
58.3100 273.0000 1.0000
58.3200 309.0000 1.0000
58.3300 292.0000 1.0000
58.3400 302.0000 1.0000
58.3500 281.0000 1.0000
58.3600 289.0000 1.0000
58.3700 287.0000 1.0000
58.3800 292.0000 1.0000
58.3900 312.0000 1.0000
58.4000 294.0000 1.0000
58.4100 290.0000 1.0000
58.4200 289.0000 1.0000
58.4300 291.0000 1.0000
58.4400 302.0000 1.0000
58.4500 287.0000 1.0000
58.4600 267.0000 1.0000
58.4700 298.0000 1.0000
58.4800 290.0000 1.0000
58.4900 270.0000 1.0000
58.5000 315.0000 1.0000
58.5100 323.0000 1.0000
58.5200 286.0000 1.0000
58.5300 305.0000 1.0000
58.5400 300.0000 1.0000
58.5500 308.0000 1.0000
58.5600 302.0000 1.0000
58.5700 269.0000 1.0000
58.5800 282.0000 1.0000
58.5900 284.0000 1.0000
58.6000 287.0000 1.0000
58.6100 302.0000 1.0000
58.6200 278.0000 1.0000
58.6300 279.0000 1.0000
58.6400 277.0000 1.0000
58.6500 300.0000 1.0000
58.6600 296.0000 1.0000
58.6700 307.0000 1.0000
58.6800 323.0000 1.0000
58.6900 292.0000 1.0000
58.7000 309.0000 1.0000
58.7100 288.0000 1.0000
58.7200 269.0000 1.0000
58.7300 293.0000 1.0000
58.7400 297.0000 1.0000
58.7500 274.0000 1.0000
58.7600 284.0000 1.0000
58.7700 284.0000 1.0000
58.7800 305.0000 1.0000
58.7900 276.0000 1.0000
58.8000 286.0000 1.0000
58.8100 265.0000 1.0000
58.8200 293.0000 1.0000
58.8300 286.0000 1.0000
58.8400 327.0000 1.0000
58.8500 301.0000 1.0000
58.8600 297.0000 1.0000
58.8700 292.0000 1.0000
58.8800 316.0000 1.0000
58.8900 285.0000 1.0000
58.9000 297.0000 1.0000
58.9100 316.0000 1.0000
58.9200 287.0000 1.0000
58.9300 288.0000 1.0000
58.9400 300.0000 1.0000
58.9500 286.0000 1.0000
58.9600 266.0000 1.0000
58.9700 257.0000 1.0000
58.9800 294.0000 1.0000
58.9900 272.0000 1.0000
59.0000 282.0000 1.0000
59.0100 287.0000 1.0000
59.0200 294.0000 1.0000
59.0300 301.0000 1.0000
59.0400 267.0000 1.0000
59.0500 273.0000 1.0000
59.0600 283.0000 1.0000
59.0700 259.0000 1.0000
59.0800 295.0000 1.0000
59.0900 277.0000 1.0000
59.1000 299.0000 1.0000
59.1100 274.0000 1.0000
59.1200 282.0000 1.0000
59.1300 282.0000 1.0000
59.1400 291.0000 1.0000
59.1500 277.0000 1.0000
59.1600 311.0000 1.0000
59.1700 290.0000 1.0000
59.1800 266.0000 1.0000
59.1900 277.0000 1.0000
59.2000 299.0000 1.0000
59.2100 288.0000 1.0000
59.2200 260.0000 1.0000
59.2300 309.0000 1.0000
59.2400 299.0000 1.0000
59.2500 289.0000 1.0000
59.2600 272.0000 1.0000
59.2700 283.0000 1.0000
59.2800 275.0000 1.0000
59.2900 281.0000 1.0000
59.3000 291.0000 1.0000
59.3100 294.0000 1.0000
59.3200 283.0000 1.0000
59.3300 261.0000 1.0000
59.3400 309.0000 1.0000
59.3500 322.0000 1.0000
59.3600 298.0000 1.0000
59.3700 308.0000 1.0000
59.3800 277.0000 1.0000
59.3900 315.0000 1.0000
59.4000 277.0000 1.0000
59.4100 268.0000 1.0000
59.4200 285.0000 1.0000
59.4300 283.0000 1.0000
59.4400 302.0000 1.0000
59.4500 321.0000 1.0000
59.4600 287.0000 1.0000
59.4700 280.0000 1.0000
59.4800 281.0000 1.0000
59.4900 287.0000 1.0000
59.5000 255.0000 1.0000
59.5100 280.0000 1.0000
59.5200 278.0000 1.0000
59.5300 282.0000 1.0000
59.5400 311.0000 1.0000
59.5500 326.0000 1.0000
59.5600 296.0000 1.0000
59.5700 294.0000 1.0000
59.5800 248.0000 1.0000
59.5900 279.0000 1.0000
59.6000 283.0000 1.0000
59.6100 311.0000 1.0000
59.6200 274.0000 1.0000
59.6300 291.0000 1.0000
59.6400 294.0000 1.0000
59.6500 286.0000 1.0000
59.6600 300.0000 1.0000
59.6700 311.0000 1.0000
59.6800 269.0000 1.0000
59.6900 267.0000 1.0000
59.7000 286.0000 1.0000
59.7100 279.0000 1.0000
59.7200 287.0000 1.0000
59.7300 291.0000 1.0000
59.7400 270.0000 1.0000
59.7500 303.0000 1.0000
59.7600 283.0000 1.0000
59.7700 294.0000 1.0000
59.7800 301.0000 1.0000
59.7900 300.0000 1.0000
59.8000 292.0000 1.0000
59.8100 283.0000 1.0000
59.8200 275.0000 1.0000
59.8300 262.0000 1.0000
59.8400 275.0000 1.0000
59.8500 310.0000 1.0000
59.8600 305.0000 1.0000
59.8700 297.0000 1.0000
59.8800 291.0000 1.0000
59.8900 281.0000 1.0000
59.9000 282.0000 1.0000
59.9100 261.0000 1.0000
59.9200 288.0000 1.0000
59.9300 291.0000 1.0000
59.9400 271.0000 1.0000
59.9500 263.0000 1.0000
59.9600 286.0000 1.0000
59.9700 296.0000 1.0000
59.9800 266.0000 1.0000
59.9900 275.0000 1.0000
60.0000 296.0000 1.0000
60.0100 275.0000 1.0000
60.0200 287.0000 1.0000
60.0300 285.0000 1.0000
60.0400 276.0000 1.0000
60.0500 284.0000 1.0000
60.0600 266.0000 1.0000
60.0700 282.0000 1.0000
60.0800 297.0000 1.0000
60.0900 303.0000 1.0000
60.1000 279.0000 1.0000
60.1100 286.0000 1.0000
60.1200 296.0000 1.0000
60.1300 288.0000 1.0000
60.1400 286.0000 1.0000
60.1500 314.0000 1.0000
60.1600 310.0000 1.0000
60.1700 254.0000 1.0000
60.1800 286.0000 1.0000
60.1900 276.0000 1.0000
60.2000 283.0000 1.0000
60.2100 309.0000 1.0000
60.2200 291.0000 1.0000
60.2300 305.0000 1.0000
60.2400 294.0000 1.0000
60.2500 288.0000 1.0000
60.2600 289.0000 1.0000
60.2700 291.0000 1.0000
60.2800 269.0000 1.0000
60.2900 267.0000 1.0000
60.3000 315.0000 1.0000
60.3100 302.0000 1.0000
60.3200 274.0000 1.0000
60.3300 280.0000 1.0000
60.3400 287.0000 1.0000
60.3500 264.0000 1.0000
60.3600 290.0000 1.0000
60.3700 293.0000 1.0000
60.3800 290.0000 1.0000
60.3900 272.0000 1.0000
60.4000 288.0000 1.0000
60.4100 286.0000 1.0000
60.4200 296.0000 1.0000
60.4300 308.0000 1.0000
60.4400 305.0000 1.0000
60.4500 303.0000 1.0000
60.4600 283.0000 1.0000
60.4700 286.0000 1.0000
60.4800 286.0000 1.0000
60.4900 305.0000 1.0000
60.5000 301.0000 1.0000
60.5100 309.0000 1.0000
60.5200 286.0000 1.0000
60.5300 297.0000 1.0000
60.5400 317.0000 1.0000
60.5500 309.0000 1.0000
60.5600 304.0000 1.0000
60.5700 316.0000 1.0000
60.5800 306.0000 1.0000
60.5900 295.0000 1.0000
60.6000 296.0000 1.0000
60.6100 282.0000 1.0000
60.6200 298.0000 1.0000
60.6300 281.0000 1.0000
60.6400 299.0000 1.0000
60.6500 302.0000 1.0000
60.6600 297.0000 1.0000
60.6700 275.0000 1.0000
60.6800 295.0000 1.0000
60.6900 277.0000 1.0000
60.7000 282.0000 1.0000
60.7100 293.0000 1.0000
60.7200 297.0000 1.0000
60.7300 282.0000 1.0000
60.7400 291.0000 1.0000
60.7500 287.0000 1.0000
60.7600 310.0000 1.0000
60.7700 301.0000 1.0000
60.7800 311.0000 1.0000
60.7900 337.0000 1.0000
60.8000 259.0000 1.0000
60.8100 303.0000 1.0000
60.8200 292.0000 1.0000
60.8300 310.0000 1.0000
60.8400 297.0000 1.0000
60.8500 308.0000 1.0000
60.8600 281.0000 1.0000
60.8700 304.0000 1.0000
60.8800 304.0000 1.0000
60.8900 298.0000 1.0000
60.9000 308.0000 1.0000
60.9100 291.0000 1.0000
60.9200 304.0000 1.0000
60.9300 312.0000 1.0000
60.9400 282.0000 1.0000
60.9500 310.0000 1.0000
60.9600 314.0000 1.0000
60.9700 301.0000 1.0000
60.9800 306.0000 1.0000
60.9900 296.0000 1.0000
61.0000 310.0000 1.0000
61.0100 305.0000 1.0000
61.0200 305.0000 1.0000
61.0300 328.0000 1.0000
61.0400 317.0000 1.0000
61.0500 325.0000 1.0000
61.0600 334.0000 1.0000
61.0700 334.0000 1.0000
61.0800 315.0000 1.0000
61.0900 337.0000 1.0000
61.1000 312.0000 1.0000
61.1100 328.0000 1.0000
61.1200 337.0000 1.0000
61.1300 299.0000 1.0000
61.1400 328.0000 1.0000
61.1500 309.0000 1.0000
61.1600 323.0000 1.0000
61.1700 341.0000 1.0000
61.1800 339.0000 1.0000
61.1900 312.0000 1.0000
61.2000 329.0000 1.0000
61.2100 352.0000 1.0000
61.2200 385.0000 1.0000
61.2300 328.0000 1.0000
61.2400 339.0000 1.0000
61.2500 367.0000 1.0000
61.2600 355.0000 1.0000
61.2700 391.0000 1.0000
61.2800 375.0000 1.0000
61.2900 350.0000 1.0000
61.3000 391.0000 1.0000
61.3100 371.0000 1.0000
61.3200 413.0000 1.0000
61.3300 417.0000 1.0000
61.3400 415.0000 1.0000
61.3500 421.0000 1.0000
61.3600 431.0000 1.0000
61.3700 406.0000 1.0000
61.3800 416.0000 1.0000
61.3900 418.0000 1.0000
61.4000 454.0000 1.0000
61.4100 494.0000 1.0000
61.4200 506.0000 1.0000
61.4300 448.0000 1.0000
61.4400 478.0000 1.0000
61.4500 495.0000 1.0000
61.4600 490.0000 1.0000
61.4700 529.0000 1.0000
61.4800 554.0000 1.0000
61.4900 566.0000 1.0000
61.5000 544.0000 1.0000
61.5100 561.0000 1.0000
61.5200 567.0000 1.0000
61.5300 535.0000 1.0000
61.5400 542.0000 1.0000
61.5500 578.0000 1.0000
61.5600 580.0000 1.0000
61.5700 554.0000 1.0000
61.5800 601.0000 1.0000
61.5900 595.0000 1.0000
61.6000 568.0000 1.0000
61.6100 557.0000 1.0000
61.6200 611.0000 1.0000
61.6300 623.0000 1.0000
61.6400 577.0000 1.0000
61.6500 554.0000 1.0000
61.6600 545.0000 1.0000
61.6700 549.0000 1.0000
61.6800 535.0000 1.0000
61.6900 539.0000 1.0000
61.7000 557.0000 1.0000
61.7100 594.0000 1.0000
61.7200 558.0000 1.0000
61.7300 522.0000 1.0000
61.7400 532.0000 1.0000
61.7500 516.0000 1.0000
61.7600 530.0000 1.0000
61.7700 528.0000 1.0000
61.7800 505.0000 1.0000
61.7900 483.0000 1.0000
61.8000 477.0000 1.0000
61.8100 501.0000 1.0000
61.8200 474.0000 1.0000
61.8300 440.0000 1.0000
61.8400 469.0000 1.0000
61.8500 479.0000 1.0000
61.8600 458.0000 1.0000
61.8700 436.0000 1.0000
61.8800 457.0000 1.0000
61.8900 437.0000 1.0000
61.9000 413.0000 1.0000
61.9100 451.0000 1.0000
61.9200 415.0000 1.0000
61.9300 419.0000 1.0000
61.9400 382.0000 1.0000
61.9500 425.0000 1.0000
61.9600 402.0000 1.0000
61.9700 378.0000 1.0000
61.9800 373.0000 1.0000
61.9900 379.0000 1.0000
62.0000 369.0000 1.0000
62.0100 375.0000 1.0000
62.0200 383.0000 1.0000
62.0300 356.0000 1.0000
62.0400 346.0000 1.0000
62.0500 353.0000 1.0000
62.0600 352.0000 1.0000
62.0700 352.0000 1.0000
62.0800 333.0000 1.0000
62.0900 357.0000 1.0000
62.1000 367.0000 1.0000
62.1100 343.0000 1.0000
62.1200 334.0000 1.0000
62.1300 341.0000 1.0000
62.1400 332.0000 1.0000
62.1500 338.0000 1.0000
62.1600 330.0000 1.0000
62.1700 365.0000 1.0000
62.1800 381.0000 1.0000
62.1900 359.0000 1.0000
62.2000 316.0000 1.0000
62.2100 336.0000 1.0000
62.2200 330.0000 1.0000
62.2300 330.0000 1.0000
62.2400 347.0000 1.0000
62.2500 364.0000 1.0000
62.2600 326.0000 1.0000
62.2700 334.0000 1.0000
62.2800 333.0000 1.0000
62.2900 327.0000 1.0000
62.3000 355.0000 1.0000
62.3100 347.0000 1.0000
62.3200 339.0000 1.0000
62.3300 370.0000 1.0000
62.3400 331.0000 1.0000
62.3500 350.0000 1.0000
62.3600 367.0000 1.0000
62.3700 345.0000 1.0000
62.3800 365.0000 1.0000
62.3900 359.0000 1.0000
62.4000 323.0000 1.0000
62.4100 353.0000 1.0000
62.4200 350.0000 1.0000
62.4300 345.0000 1.0000
62.4400 360.0000 1.0000
62.4500 368.0000 1.0000
62.4600 358.0000 1.0000
62.4700 312.0000 1.0000
62.4800 332.0000 1.0000
62.4900 333.0000 1.0000
62.5000 345.0000 1.0000
62.5100 334.0000 1.0000
62.5200 335.0000 1.0000
62.5300 342.0000 1.0000
62.5400 347.0000 1.0000
62.5500 324.0000 1.0000
62.5600 334.0000 1.0000
62.5700 331.0000 1.0000
62.5800 337.0000 1.0000
62.5900 327.0000 1.0000
62.6000 305.0000 1.0000
62.6100 300.0000 1.0000
62.6200 325.0000 1.0000
62.6300 325.0000 1.0000
62.6400 333.0000 1.0000
62.6500 309.0000 1.0000
62.6600 327.0000 1.0000
62.6700 340.0000 1.0000
62.6800 306.0000 1.0000
62.6900 307.0000 1.0000
62.7000 305.0000 1.0000
62.7100 291.0000 1.0000
62.7200 327.0000 1.0000
62.7300 315.0000 1.0000
62.7400 322.0000 1.0000
62.7500 315.0000 1.0000
62.7600 303.0000 1.0000
62.7700 319.0000 1.0000
62.7800 282.0000 1.0000
62.7900 284.0000 1.0000
62.8000 334.0000 1.0000
62.8100 281.0000 1.0000
62.8200 284.0000 1.0000
62.8300 280.0000 1.0000
62.8400 303.0000 1.0000
62.8500 272.0000 1.0000
62.8600 309.0000 1.0000
62.8700 282.0000 1.0000
62.8800 291.0000 1.0000
62.8900 287.0000 1.0000
62.9000 287.0000 1.0000
62.9100 300.0000 1.0000
62.9200 300.0000 1.0000
62.9300 281.0000 1.0000
62.9400 286.0000 1.0000
62.9500 299.0000 1.0000
62.9600 285.0000 1.0000
62.9700 278.0000 1.0000
62.9800 293.0000 1.0000
62.9900 263.0000 1.0000
63.0000 271.0000 1.0000
63.0100 298.0000 1.0000
63.0200 296.0000 1.0000
63.0300 303.0000 1.0000
63.0400 283.0000 1.0000
63.0500 304.0000 1.0000
63.0600 290.0000 1.0000
63.0700 274.0000 1.0000
63.0800 295.0000 1.0000
63.0900 294.0000 1.0000
63.1000 264.0000 1.0000
63.1100 260.0000 1.0000
63.1200 268.0000 1.0000
63.1300 259.0000 1.0000
63.1400 288.0000 1.0000
63.1500 286.0000 1.0000
63.1600 297.0000 1.0000
63.1700 289.0000 1.0000
63.1800 285.0000 1.0000
63.1900 281.0000 1.0000
63.2000 295.0000 1.0000
63.2100 312.0000 1.0000
63.2200 290.0000 1.0000
63.2300 287.0000 1.0000
63.2400 322.0000 1.0000
63.2500 291.0000 1.0000
63.2600 273.0000 1.0000
63.2700 274.0000 1.0000
63.2800 272.0000 1.0000
63.2900 307.0000 1.0000
63.3000 314.0000 1.0000
63.3100 318.0000 1.0000
63.3200 290.0000 1.0000
63.3300 300.0000 1.0000
63.3400 292.0000 1.0000
63.3500 298.0000 1.0000
63.3600 296.0000 1.0000
63.3700 312.0000 1.0000
63.3800 312.0000 1.0000
63.3900 290.0000 1.0000
63.4000 289.0000 1.0000
63.4100 281.0000 1.0000
63.4200 281.0000 1.0000
63.4300 299.0000 1.0000
63.4400 282.0000 1.0000
63.4500 292.0000 1.0000
63.4600 269.0000 1.0000
63.4700 271.0000 1.0000
63.4800 312.0000 1.0000
63.4900 298.0000 1.0000
63.5000 306.0000 1.0000
63.5100 247.0000 1.0000
63.5200 303.0000 1.0000
63.5300 272.0000 1.0000
63.5400 296.0000 1.0000
63.5500 296.0000 1.0000
63.5600 276.0000 1.0000
63.5700 313.0000 1.0000
63.5800 299.0000 1.0000
63.5900 287.0000 1.0000
63.6000 269.0000 1.0000
63.6100 277.0000 1.0000
63.6200 292.0000 1.0000
63.6300 291.0000 1.0000
63.6400 312.0000 1.0000
63.6500 315.0000 1.0000
63.6600 299.0000 1.0000
63.6700 286.0000 1.0000
63.6800 319.0000 1.0000
63.6900 345.0000 1.0000
63.7000 271.0000 1.0000
63.7100 307.0000 1.0000
63.7200 300.0000 1.0000
63.7300 313.0000 1.0000
63.7400 319.0000 1.0000
63.7500 312.0000 1.0000
63.7600 280.0000 1.0000
63.7700 318.0000 1.0000
63.7800 293.0000 1.0000
63.7900 298.0000 1.0000
63.8000 319.0000 1.0000
63.8100 295.0000 1.0000
63.8200 347.0000 1.0000
63.8300 317.0000 1.0000
63.8400 308.0000 1.0000
63.8500 337.0000 1.0000
63.8600 370.0000 1.0000
63.8700 374.0000 1.0000
63.8800 362.0000 1.0000
63.8900 347.0000 1.0000
63.9000 402.0000 1.0000
63.9100 383.0000 1.0000
63.9200 378.0000 1.0000
63.9300 368.0000 1.0000
63.9400 372.0000 1.0000
63.9500 381.0000 1.0000
63.9600 405.0000 1.0000
63.9700 409.0000 1.0000
63.9800 399.0000 1.0000
63.9900 398.0000 1.0000
64.0000 415.0000 1.0000
64.0100 402.0000 1.0000
64.0200 401.0000 1.0000
64.0300 373.0000 1.0000
64.0400 367.0000 1.0000
64.0500 365.0000 1.0000
64.0600 381.0000 1.0000
64.0700 343.0000 1.0000
64.0800 372.0000 1.0000
64.0900 360.0000 1.0000
64.1000 342.0000 1.0000
64.1100 362.0000 1.0000
64.1200 363.0000 1.0000
64.1300 345.0000 1.0000
64.1400 367.0000 1.0000
64.1500 357.0000 1.0000
64.1600 373.0000 1.0000
64.1700 354.0000 1.0000
64.1800 345.0000 1.0000
64.1900 358.0000 1.0000
64.2000 302.0000 1.0000
64.2100 348.0000 1.0000
64.2200 328.0000 1.0000
64.2300 313.0000 1.0000
64.2400 333.0000 1.0000
64.2500 326.0000 1.0000
64.2600 315.0000 1.0000
64.2700 337.0000 1.0000
64.2800 325.0000 1.0000
64.2900 310.0000 1.0000
64.3000 299.0000 1.0000
64.3100 275.0000 1.0000
64.3200 302.0000 1.0000
64.3300 299.0000 1.0000
64.3400 320.0000 1.0000
64.3500 326.0000 1.0000
64.3600 323.0000 1.0000
64.3700 320.0000 1.0000
64.3800 309.0000 1.0000
64.3900 284.0000 1.0000
64.4000 277.0000 1.0000
64.4100 294.0000 1.0000
64.4200 301.0000 1.0000
64.4300 280.0000 1.0000
64.4400 287.0000 1.0000
64.4500 312.0000 1.0000
64.4600 296.0000 1.0000
64.4700 302.0000 1.0000
64.4800 288.0000 1.0000
64.4900 289.0000 1.0000
64.5000 291.0000 1.0000
64.5100 280.0000 1.0000
64.5200 293.0000 1.0000
64.5300 274.0000 1.0000
64.5400 273.0000 1.0000
64.5500 319.0000 1.0000
64.5600 302.0000 1.0000
64.5700 295.0000 1.0000
64.5800 306.0000 1.0000
64.5900 312.0000 1.0000
64.6000 305.0000 1.0000
64.6100 293.0000 1.0000
64.6200 270.0000 1.0000
64.6300 310.0000 1.0000
64.6400 284.0000 1.0000
64.6500 308.0000 1.0000
64.6600 309.0000 1.0000
64.6700 282.0000 1.0000
64.6800 297.0000 1.0000
64.6900 304.0000 1.0000
64.7000 281.0000 1.0000
64.7100 311.0000 1.0000
64.7200 290.0000 1.0000
64.7300 287.0000 1.0000
64.7400 291.0000 1.0000
64.7500 290.0000 1.0000
64.7600 320.0000 1.0000
64.7700 308.0000 1.0000
64.7800 287.0000 1.0000
64.7900 311.0000 1.0000
64.8000 320.0000 1.0000
64.8100 288.0000 1.0000
64.8200 299.0000 1.0000
64.8300 316.0000 1.0000
64.8400 317.0000 1.0000
64.8500 300.0000 1.0000
64.8600 307.0000 1.0000
64.8700 311.0000 1.0000
64.8800 298.0000 1.0000
64.8900 302.0000 1.0000
64.9000 320.0000 1.0000
64.9100 295.0000 1.0000
64.9200 299.0000 1.0000
64.9300 335.0000 1.0000
64.9400 311.0000 1.0000
64.9500 303.0000 1.0000
64.9600 326.0000 1.0000
64.9700 322.0000 1.0000
64.9800 320.0000 1.0000
64.9900 325.0000 1.0000
65.0000 303.0000 1.0000
65.0100 316.0000 1.0000
65.0200 302.0000 1.0000
65.0300 321.0000 1.0000
65.0400 335.0000 1.0000
65.0500 318.0000 1.0000
65.0600 338.0000 1.0000
65.0700 354.0000 1.0000
65.0800 334.0000 1.0000
65.0900 319.0000 1.0000
65.1000 340.0000 1.0000
65.1100 345.0000 1.0000
65.1200 347.0000 1.0000
65.1300 352.0000 1.0000
65.1400 349.0000 1.0000
65.1500 347.0000 1.0000
65.1600 375.0000 1.0000
65.1700 351.0000 1.0000
65.1800 346.0000 1.0000
65.1900 368.0000 1.0000
65.2000 378.0000 1.0000
65.2100 386.0000 1.0000
65.2200 404.0000 1.0000
65.2300 418.0000 1.0000
65.2400 420.0000 1.0000
65.2500 405.0000 1.0000
65.2600 436.0000 1.0000
65.2700 396.0000 1.0000
65.2800 433.0000 1.0000
65.2900 443.0000 1.0000
65.3000 443.0000 1.0000
65.3100 440.0000 1.0000
65.3200 458.0000 1.0000
65.3300 487.0000 1.0000
65.3400 502.0000 1.0000
65.3500 543.0000 1.0000
65.3600 534.0000 1.0000
65.3700 526.0000 1.0000
65.3800 549.0000 1.0000
65.3900 548.0000 1.0000
65.4000 562.0000 1.0000
65.4100 687.0000 1.0000
65.4200 650.0000 1.0000
65.4300 694.0000 1.0000
65.4400 703.0000 1.0000
65.4500 717.0000 1.0000
65.4600 710.0000 1.0000
65.4700 766.0000 1.0000
65.4800 768.0000 1.0000
65.4900 793.0000 1.0000
65.5000 797.0000 1.0000
65.5100 837.0000 1.0000
65.5200 793.0000 1.0000
65.5300 795.0000 1.0000
65.5400 796.0000 1.0000
65.5500 833.0000 1.0000
65.5600 827.0000 1.0000
65.5700 799.0000 1.0000
65.5800 766.0000 1.0000
65.5900 742.0000 1.0000
65.6000 673.0000 1.0000
65.6100 690.0000 1.0000
65.6200 760.0000 1.0000
65.6300 734.0000 1.0000
65.6400 735.0000 1.0000
65.6500 692.0000 1.0000
65.6600 715.0000 1.0000
65.6700 676.0000 1.0000
65.6800 666.0000 1.0000
65.6900 623.0000 1.0000
65.7000 644.0000 1.0000
65.7100 658.0000 1.0000
65.7200 668.0000 1.0000
65.7300 589.0000 1.0000
65.7400 595.0000 1.0000
65.7500 583.0000 1.0000
65.7600 577.0000 1.0000
65.7700 536.0000 1.0000
65.7800 498.0000 1.0000
65.7900 526.0000 1.0000
65.8000 522.0000 1.0000
65.8100 523.0000 1.0000
65.8200 491.0000 1.0000
65.8300 465.0000 1.0000
65.8400 434.0000 1.0000
65.8500 427.0000 1.0000
65.8600 416.0000 1.0000
65.8700 424.0000 1.0000
65.8800 398.0000 1.0000
65.8900 380.0000 1.0000
65.9000 387.0000 1.0000
65.9100 365.0000 1.0000
65.9200 369.0000 1.0000
65.9300 314.0000 1.0000
65.9400 363.0000 1.0000
65.9500 387.0000 1.0000
65.9600 358.0000 1.0000
65.9700 374.0000 1.0000
65.9800 355.0000 1.0000
65.9900 341.0000 1.0000
66.0000 345.0000 1.0000
66.0100 312.0000 1.0000
66.0200 337.0000 1.0000
66.0300 335.0000 1.0000
66.0400 340.0000 1.0000
66.0500 312.0000 1.0000
66.0600 321.0000 1.0000
66.0700 325.0000 1.0000
66.0800 300.0000 1.0000
66.0900 315.0000 1.0000
66.1000 323.0000 1.0000
66.1100 293.0000 1.0000
66.1200 323.0000 1.0000
66.1300 278.0000 1.0000
66.1400 310.0000 1.0000
66.1500 305.0000 1.0000
66.1600 298.0000 1.0000
66.1700 293.0000 1.0000
66.1800 296.0000 1.0000
66.1900 291.0000 1.0000
66.2000 304.0000 1.0000
66.2100 300.0000 1.0000
66.2200 329.0000 1.0000
66.2300 298.0000 1.0000
66.2400 311.0000 1.0000
66.2500 278.0000 1.0000
66.2600 302.0000 1.0000
66.2700 271.0000 1.0000
66.2800 277.0000 1.0000
66.2900 292.0000 1.0000
66.3000 290.0000 1.0000
66.3100 293.0000 1.0000
66.3200 272.0000 1.0000
66.3300 297.0000 1.0000
66.3400 312.0000 1.0000
66.3500 302.0000 1.0000
66.3600 307.0000 1.0000
66.3700 287.0000 1.0000
66.3800 258.0000 1.0000
66.3900 281.0000 1.0000
66.4000 286.0000 1.0000
66.4100 293.0000 1.0000
66.4200 296.0000 1.0000
66.4300 279.0000 1.0000
66.4400 297.0000 1.0000
66.4500 285.0000 1.0000
66.4600 251.0000 1.0000
66.4700 280.0000 1.0000
66.4800 269.0000 1.0000
66.4900 282.0000 1.0000
66.5000 273.0000 1.0000
66.5100 293.0000 1.0000
66.5200 295.0000 1.0000
66.5300 282.0000 1.0000
66.5400 252.0000 1.0000
66.5500 273.0000 1.0000
66.5600 268.0000 1.0000
66.5700 255.0000 1.0000
66.5800 267.0000 1.0000
66.5900 275.0000 1.0000
66.6000 270.0000 1.0000
66.6100 284.0000 1.0000
66.6200 282.0000 1.0000
66.6300 267.0000 1.0000
66.6400 280.0000 1.0000
66.6500 270.0000 1.0000
66.6600 266.0000 1.0000
66.6700 277.0000 1.0000
66.6800 291.0000 1.0000
66.6900 272.0000 1.0000
66.7000 277.0000 1.0000
66.7100 279.0000 1.0000
66.7200 298.0000 1.0000
66.7300 276.0000 1.0000
66.7400 270.0000 1.0000
66.7500 270.0000 1.0000
66.7600 272.0000 1.0000
66.7700 261.0000 1.0000
66.7800 253.0000 1.0000
66.7900 268.0000 1.0000
66.8000 258.0000 1.0000
66.8100 252.0000 1.0000
66.8200 262.0000 1.0000
66.8300 291.0000 1.0000
66.8400 258.0000 1.0000
66.8500 261.0000 1.0000
66.8600 292.0000 1.0000
66.8700 283.0000 1.0000
66.8800 280.0000 1.0000
66.8900 273.0000 1.0000
66.9000 268.0000 1.0000
66.9100 265.0000 1.0000
66.9200 250.0000 1.0000
66.9300 274.0000 1.0000
66.9400 240.0000 1.0000
66.9500 270.0000 1.0000
66.9600 265.0000 1.0000
66.9700 268.0000 1.0000
66.9800 263.0000 1.0000
66.9900 273.0000 1.0000
67.0000 296.0000 1.0000
67.0100 294.0000 1.0000
67.0200 249.0000 1.0000
67.0300 286.0000 1.0000
67.0400 292.0000 1.0000
67.0500 256.0000 1.0000
67.0600 300.0000 1.0000
67.0700 282.0000 1.0000
67.0800 264.0000 1.0000
67.0900 271.0000 1.0000
67.1000 285.0000 1.0000
67.1100 242.0000 1.0000
67.1200 235.0000 1.0000
67.1300 261.0000 1.0000
67.1400 264.0000 1.0000
67.1500 269.0000 1.0000
67.1600 259.0000 1.0000
67.1700 280.0000 1.0000
67.1800 243.0000 1.0000
67.1900 257.0000 1.0000
67.2000 275.0000 1.0000
67.2100 275.0000 1.0000
67.2200 267.0000 1.0000
67.2300 281.0000 1.0000
67.2400 264.0000 1.0000
67.2500 260.0000 1.0000
67.2600 269.0000 1.0000
67.2700 312.0000 1.0000
67.2800 249.0000 1.0000
67.2900 254.0000 1.0000
67.3000 264.0000 1.0000
67.3100 258.0000 1.0000
67.3200 275.0000 1.0000
67.3300 251.0000 1.0000
67.3400 294.0000 1.0000
67.3500 248.0000 1.0000
67.3600 270.0000 1.0000
67.3700 245.0000 1.0000
67.3800 276.0000 1.0000
67.3900 273.0000 1.0000
67.4000 291.0000 1.0000
67.4100 254.0000 1.0000
67.4200 259.0000 1.0000
67.4300 275.0000 1.0000
67.4400 286.0000 1.0000
67.4500 239.0000 1.0000
67.4600 257.0000 1.0000
67.4700 258.0000 1.0000
67.4800 258.0000 1.0000
67.4900 264.0000 1.0000
67.5000 258.0000 1.0000
67.5100 275.0000 1.0000
67.5200 266.0000 1.0000
67.5300 258.0000 1.0000
67.5400 235.0000 1.0000
67.5500 251.0000 1.0000
67.5600 267.0000 1.0000
67.5700 253.0000 1.0000
67.5800 254.0000 1.0000
67.5900 266.0000 1.0000
67.6000 259.0000 1.0000
67.6100 246.0000 1.0000
67.6200 267.0000 1.0000
67.6300 253.0000 1.0000
67.6400 258.0000 1.0000
67.6500 277.0000 1.0000
67.6600 241.0000 1.0000
67.6700 251.0000 1.0000
67.6800 248.0000 1.0000
67.6900 269.0000 1.0000
67.7000 253.0000 1.0000
67.7100 237.0000 1.0000
67.7200 243.0000 1.0000
67.7300 267.0000 1.0000
67.7400 254.0000 1.0000
67.7500 254.0000 1.0000
67.7600 246.0000 1.0000
67.7700 244.0000 1.0000
67.7800 241.0000 1.0000
67.7900 269.0000 1.0000
67.8000 270.0000 1.0000
67.8100 303.0000 1.0000
67.8200 251.0000 1.0000
67.8300 258.0000 1.0000
67.8400 276.0000 1.0000
67.8500 232.0000 1.0000
67.8600 247.0000 1.0000
67.8700 265.0000 1.0000
67.8800 259.0000 1.0000
67.8900 242.0000 1.0000
67.9000 247.0000 1.0000
67.9100 282.0000 1.0000
67.9200 276.0000 1.0000
67.9300 264.0000 1.0000
67.9400 254.0000 1.0000
67.9500 243.0000 1.0000
67.9600 243.0000 1.0000
67.9700 241.0000 1.0000
67.9800 277.0000 1.0000
67.9900 262.0000 1.0000
68.0000 249.0000 1.0000
68.0100 274.0000 1.0000
68.0200 266.0000 1.0000
68.0300 252.0000 1.0000
68.0400 249.0000 1.0000
68.0500 239.0000 1.0000
68.0600 234.0000 1.0000
68.0700 258.0000 1.0000
68.0800 255.0000 1.0000
68.0900 262.0000 1.0000
68.1000 266.0000 1.0000
68.1100 248.0000 1.0000
68.1200 278.0000 1.0000
68.1300 262.0000 1.0000
68.1400 258.0000 1.0000
68.1500 261.0000 1.0000
68.1600 267.0000 1.0000
68.1700 276.0000 1.0000
68.1800 249.0000 1.0000
68.1900 259.0000 1.0000
68.2000 263.0000 1.0000
68.2100 261.0000 1.0000
68.2200 242.0000 1.0000
68.2300 249.0000 1.0000
68.2400 271.0000 1.0000
68.2500 274.0000 1.0000
68.2600 268.0000 1.0000
68.2700 273.0000 1.0000
68.2800 267.0000 1.0000
68.2900 251.0000 1.0000
68.3000 258.0000 1.0000
68.3100 258.0000 1.0000
68.3200 271.0000 1.0000
68.3300 252.0000 1.0000
68.3400 251.0000 1.0000
68.3500 257.0000 1.0000
68.3600 262.0000 1.0000
68.3700 265.0000 1.0000
68.3800 273.0000 1.0000
68.3900 257.0000 1.0000
68.4000 259.0000 1.0000
68.4100 243.0000 1.0000
68.4200 267.0000 1.0000
68.4300 261.0000 1.0000
68.4400 241.0000 1.0000
68.4500 224.0000 1.0000
68.4600 280.0000 1.0000
68.4700 250.0000 1.0000
68.4800 265.0000 1.0000
68.4900 235.0000 1.0000
68.5000 232.0000 1.0000
68.5100 255.0000 1.0000
68.5200 222.0000 1.0000
68.5300 268.0000 1.0000
68.5400 241.0000 1.0000
68.5500 234.0000 1.0000
68.5600 237.0000 1.0000
68.5700 243.0000 1.0000
68.5800 245.0000 1.0000
68.5900 237.0000 1.0000
68.6000 249.0000 1.0000
68.6100 250.0000 1.0000
68.6200 263.0000 1.0000
68.6300 264.0000 1.0000
68.6400 277.0000 1.0000
68.6500 280.0000 1.0000
68.6600 247.0000 1.0000
68.6700 241.0000 1.0000
68.6800 249.0000 1.0000
68.6900 237.0000 1.0000
68.7000 266.0000 1.0000
68.7100 266.0000 1.0000
68.7200 260.0000 1.0000
68.7300 246.0000 1.0000
68.7400 262.0000 1.0000
68.7500 243.0000 1.0000
68.7600 273.0000 1.0000
68.7700 271.0000 1.0000
68.7800 261.0000 1.0000
68.7900 256.0000 1.0000
68.8000 254.0000 1.0000
68.8100 241.0000 1.0000
68.8200 248.0000 1.0000
68.8300 246.0000 1.0000
68.8400 252.0000 1.0000
68.8500 263.0000 1.0000
68.8600 267.0000 1.0000
68.8700 246.0000 1.0000
68.8800 252.0000 1.0000
68.8900 252.0000 1.0000
68.9000 264.0000 1.0000
68.9100 277.0000 1.0000
68.9200 272.0000 1.0000
68.9300 240.0000 1.0000
68.9400 247.0000 1.0000
68.9500 250.0000 1.0000
68.9600 271.0000 1.0000
68.9700 265.0000 1.0000
68.9800 279.0000 1.0000
68.9900 259.0000 1.0000
69.0000 249.0000 1.0000
69.0100 252.0000 1.0000
69.0200 246.0000 1.0000
69.0300 274.0000 1.0000
69.0400 261.0000 1.0000
69.0500 266.0000 1.0000
69.0600 249.0000 1.0000
69.0700 254.0000 1.0000
69.0800 270.0000 1.0000
69.0900 266.0000 1.0000
69.1000 265.0000 1.0000
69.1100 279.0000 1.0000
69.1200 236.0000 1.0000
69.1300 262.0000 1.0000
69.1400 240.0000 1.0000
69.1500 270.0000 1.0000
69.1600 243.0000 1.0000
69.1700 246.0000 1.0000
69.1800 246.0000 1.0000
69.1900 237.0000 1.0000
69.2000 269.0000 1.0000
69.2100 255.0000 1.0000
69.2200 238.0000 1.0000
69.2300 251.0000 1.0000
69.2400 233.0000 1.0000
69.2500 247.0000 1.0000
69.2600 240.0000 1.0000
69.2700 257.0000 1.0000
69.2800 265.0000 1.0000
69.2900 254.0000 1.0000
69.3000 249.0000 1.0000
69.3100 252.0000 1.0000
69.3200 244.0000 1.0000
69.3300 243.0000 1.0000
69.3400 239.0000 1.0000
69.3500 254.0000 1.0000
69.3600 228.0000 1.0000
69.3700 243.0000 1.0000
69.3800 236.0000 1.0000
69.3900 246.0000 1.0000
69.4000 255.0000 1.0000
69.4100 257.0000 1.0000
69.4200 242.0000 1.0000
69.4300 245.0000 1.0000
69.4400 266.0000 1.0000
69.4500 267.0000 1.0000
69.4600 240.0000 1.0000
69.4700 263.0000 1.0000
69.4800 267.0000 1.0000
69.4900 238.0000 1.0000
69.5000 235.0000 1.0000
69.5100 241.0000 1.0000
69.5200 249.0000 1.0000
69.5300 260.0000 1.0000
69.5400 245.0000 1.0000
69.5500 251.0000 1.0000
69.5600 253.0000 1.0000
69.5700 247.0000 1.0000
69.5800 245.0000 1.0000
69.5900 247.0000 1.0000
69.6000 267.0000 1.0000
69.6100 266.0000 1.0000
69.6200 274.0000 1.0000
69.6300 261.0000 1.0000
69.6400 266.0000 1.0000
69.6500 251.0000 1.0000
69.6600 240.0000 1.0000
69.6700 257.0000 1.0000
69.6800 253.0000 1.0000
69.6900 233.0000 1.0000
69.7000 250.0000 1.0000
69.7100 265.0000 1.0000
69.7200 258.0000 1.0000
69.7300 227.0000 1.0000
69.7400 232.0000 1.0000
69.7500 230.0000 1.0000
69.7600 246.0000 1.0000
69.7700 252.0000 1.0000
69.7800 244.0000 1.0000
69.7900 288.0000 1.0000
69.8000 246.0000 1.0000
69.8100 235.0000 1.0000
69.8200 245.0000 1.0000
69.8300 235.0000 1.0000
69.8400 266.0000 1.0000
69.8500 238.0000 1.0000
69.8600 250.0000 1.0000
69.8700 246.0000 1.0000
69.8800 227.0000 1.0000
69.8900 225.0000 1.0000
69.9000 256.0000 1.0000
69.9100 245.0000 1.0000
69.9200 252.0000 1.0000
69.9300 251.0000 1.0000
69.9400 215.0000 1.0000
69.9500 258.0000 1.0000
69.9600 246.0000 1.0000
69.9700 235.0000 1.0000
69.9800 222.0000 1.0000
69.9900 246.0000 1.0000
70.0000 254.0000 1.0000
*RAS_INT_END
*RAS_TEMPERATURE_START
*RAS_TEMPERATURE_END
*RAS_DATA_END
