*RAS_DATA_START
*RAS_HEADER_START
*DISP_FMT_X "%.2f"
*DISP_FMT_Y "%.0f"
*DISP_FULLSCALE "13005.0000000000"
*DISP_LINE_COLOR "255.0000000000"
*DISP_LINE_STYLE "0.0000000000"
*DISP_LINE_WIDTH "0.2500000000"
*DISP_NOTE "測定データ-9"
*DISP_OFFSET_Y "0.0000000000"
*DISP_PEAKSEARCH_UNIT_Y "cps"
*DISP_RANGE_BOTTOM "0.0000000000"
*DISP_RANGE_LEFT "20.0000000000"
*DISP_RANGE_LOGCUTOFF "0.0100000000"
*DISP_RANGE_RIGHT "70.0000000000"
*DISP_RANGE_TOP "13005.0000000000"
*DISP_SCALE_MODE_Y "0.0000000000"
*DISP_TAB_NAME "2θ/θ"
*DISP_TITLE_Y "強度"
*DISP_UNIT_Y "cps"
*DISP_WINDOW_NAME "MSG_MACROENGINE"
*FILE_COMMENT " "
*FILE_MD5 ""
*FILE_MEMO " "
*FILE_OPERATOR "Administrator"
*FILE_SAMPLE " "
*FILE_TYPE "RAS_RAW"
*FILE_USERGROUP "システムマネージャ"
*FILE_VERSION "1.0000000000"
*HW_ATTACHMENT_ID "ATT0025"
*HW_ATTACHMENT_NAME "標準|Standard"
*HW_COUNTER_ID-0 "CUT0025"
*HW_COUNTER_ID-1 "CUT0020"
*HW_COUNTER_ID-2 "CUT0020"
*HW_COUNTER_ID-3 "CSL0021"
*HW_COUNTER_ID-4 "CMC0021"
*HW_COUNTER_NAME-0 "D/teX Ultra|D/teX Ultra"
*HW_COUNTER_NAME-1 "None|None"
*HW_COUNTER_NAME-2 "None|None"
*HW_COUNTER_NAME-3 "BBM|BBM"
*HW_COUNTER_NAME-4 "検出器モノクロメータ|Detector monochromator"
*HW_COUNTER_SELECT_NAME "D/teX Ultra|D/teX Ultra"
*HW_GONIOMETER_ID "GON0023"
*HW_GONIOMETER_NAME "SmartLab|SmartLab"
*HW_GONIOMETER_RADIUS-0 "90.0"
*HW_GONIOMETER_RADIUS-1 "114.0"
*HW_GONIOMETER_RADIUS-2 "190.0"
*HW_GONIOMETER_RADIUS-3 "300.0"
*HW_GONIOMETER_RADIUS-4 "187.0"
*HW_GONIOMETER_RADIUS-5 "300.0"
*HW_GONIOMETER_RADIUS-6 "113.0"
*HW_GONIOMETER_RADIUS-7 "331.0"
*HW_I_OPT_ID-0 "CBO0021"
*HW_I_OPT_ID-1 "ICR0023"
*HW_I_OPT_ID-2 "ISL0021"
*HW_I_OPT_ID-3 "ISO0021"
*HW_I_OPT_ID-4 "IAD0021"
*HW_I_OPT_ID-5 "IPR0001"
*HW_I_OPT_NAME-0 "CBOユニット|CBO unit"
*HW_I_OPT_NAME-1 "標準入射光学ユニット|Standard incident optical unit"
*HW_I_OPT_NAME-2 "標準入射スリットボックス|Standard incident slit box"
*HW_I_OPT_NAME-3 "入射平行スリット|Incident parallel slit"
*HW_I_OPT_NAME-4 "長手制限スリット|Length limiting slit"
*HW_I_OPT_NAME-5 "None|None"
*HW_R_ATTENUATER_AUTOMODE "0"
*HW_R_OPT_ID-0 "RSS0021"
*HW_R_OPT_ID-1 "RCR0023"
*HW_R_OPT_ID-2 "RSO0021"
*HW_R_OPT_ID-3 "RRS0021"
*HW_R_OPT_ID-4 "ATN0021"
*HW_R_OPT_ID-5 "RFL0021"
*HW_R_OPT_ID-6 "RAD0021"
*HW_R_OPT_NAME-0 "標準受光スリットボックス1|Standard receiving slit box # 1"
*HW_R_OPT_NAME-1 "標準受光光学ユニット1|Standard receiving unit # 1"
*HW_R_OPT_NAME-2 "標準受光光学ユニット2|Standard receiving optical unit # 2"
*HW_R_OPT_NAME-3 "標準受光スリットボックス2|Standard receiving slit box # 2"
*HW_R_OPT_NAME-4 "標準アッテネータ|Standard Attenuator"
*HW_R_OPT_NAME-5 "Cu Kβ|Cu K-beta"
*HW_R_OPT_NAME-6 "調整用受光スリット|Alignment receiving slit"
*HW_SAMPLE_HOLDER_ID "SMP0023"
*HW_SAMPLE_HOLDER_NAME "標準Zステージ|Standard Z stage"
*HW_XG_CURRENT_MAX "50"
*HW_XG_CURRENT_MIN "2"
*HW_XG_CURRENT_RESOLUTION "1"
*HW_XG_CURRENT_UNIT "mA"
*HW_XG_FOCUS "1mm x 10mm"
*HW_XG_FOCUS_TYPE "Normal"
*HW_XG_ID ""
*HW_XG_NAME "3kW 封入管(ID:1200)|3kW Sealed tube(ID:1200)"
*HW_XG_TARGET_ATOMIC_NUMBER "29.0000000000"
*HW_XG_TARGET_NAME "Cu"
*HW_XG_TYPE "Hermetic"
*HW_XG_VOLTAGE_MAX "60"
*HW_XG_VOLTAGE_MIN "20"
*HW_XG_VOLTAGE_RESOLUTION "1"
*HW_XG_VOLTAGE_UNIT "kV"
*HW_XG_WATT_MAX "1.500"
*HW_XG_WATT_UNIT "kW"
*HW_XG_WAVE_LENGTH_ALPHA1 "1.540593"
*HW_XG_WAVE_LENGTH_ALPHA2 "1.544414"
*HW_XG_WAVE_LENGTH_BETA "1.392250"
*MEAS_COND_AXIS_NAME-0 "2θ/θ"
*MEAS_COND_AXIS_NAME-1 "2θ"
*MEAS_COND_AXIS_NAME-2 "ω"
*MEAS_COND_AXIS_NAME-3 "Z"
*MEAS_COND_AXIS_NAME-4 "2θ/ω"
*MEAS_COND_AXIS_NAME-5 "θs"
*MEAS_COND_AXIS_NAME-6 "θd"
*MEAS_COND_AXIS_NAME-7 "Ts"
*MEAS_COND_AXIS_NAME-8 "CBO選択スリット"
*MEAS_COND_AXIS_NAME-9 "M"
*MEAS_COND_AXIS_NAME-10 "入射平行スリット"
*MEAS_COND_AXIS_NAME-11 "入射スリット"
*MEAS_COND_AXIS_NAME-12 ""
*MEAS_COND_AXIS_NAME-13 "Zs"
*MEAS_COND_AXIS_NAME-14 "入射光学素子"
*MEAS_COND_AXIS_NAME-15 "長手制限スリット"
*MEAS_COND_AXIS_NAME-16 "センタースリット"
*MEAS_COND_AXIS_NAME-17 "フィルター"
*MEAS_COND_AXIS_NAME-18 "受光スリット1"
*MEAS_COND_AXIS_NAME-19 "受光スリット2"
*MEAS_COND_AXIS_NAME-20 "受光光学素子"
*MEAS_COND_AXIS_NAME-21 "受光平行スリット"
*MEAS_COND_AXIS_NAME-22 "調整用受光スリット"
*MEAS_COND_AXIS_NAME-23 ""
*MEAS_COND_AXIS_NAME-24 ""
*MEAS_COND_AXIS_NAME-25 "Zd"
*MEAS_COND_AXIS_NAME-26 "アッテネータ"
*MEAS_COND_AXIS_NAME-27 "検出器モノクロメータ"
*MEAS_COND_AXIS_NAME-28 "モノクロメータスリット"
*MEAS_COND_AXIS_NAME-29 "プライマリビーム"
*MEAS_COND_AXIS_NAME-30 "PHA"
*MEAS_COND_AXIS_NAME_INTERNAL-0 "TwoThetaTheta"
*MEAS_COND_AXIS_NAME_INTERNAL-1 "TwoTheta"
*MEAS_COND_AXIS_NAME_INTERNAL-2 "Omega"
*MEAS_COND_AXIS_NAME_INTERNAL-3 "Z"
*MEAS_COND_AXIS_NAME_INTERNAL-4 "TwoThetaOmega"
*MEAS_COND_AXIS_NAME_INTERNAL-5 "ThetaS"
*MEAS_COND_AXIS_NAME_INTERNAL-6 "ThetaD"
*MEAS_COND_AXIS_NAME_INTERNAL-7 "Ts"
*MEAS_COND_AXIS_NAME_INTERNAL-8 "CBO"
*MEAS_COND_AXIS_NAME_INTERNAL-9 "CBO-M"
*MEAS_COND_AXIS_NAME_INTERNAL-10 "IncidentSollerSlit"
*MEAS_COND_AXIS_NAME_INTERNAL-11 "IncidentSlitBox"
*MEAS_COND_AXIS_NAME_INTERNAL-12 "IncidentSlitBox-_Axis"
*MEAS_COND_AXIS_NAME_INTERNAL-13 "Zs"
*MEAS_COND_AXIS_NAME_INTERNAL-14 "IncidentMonochromator"
*MEAS_COND_AXIS_NAME_INTERNAL-15 "IncidentAxdSlit"
*MEAS_COND_AXIS_NAME_INTERNAL-16 "CenterSlit"
*MEAS_COND_AXIS_NAME_INTERNAL-17 "Filter"
*MEAS_COND_AXIS_NAME_INTERNAL-18 "ReceivingSlitBox1"
*MEAS_COND_AXIS_NAME_INTERNAL-19 "ReceivingSlitBox2"
*MEAS_COND_AXIS_NAME_INTERNAL-20 "ReceivingOptics"
*MEAS_COND_AXIS_NAME_INTERNAL-21 "ReceivingSollerSlit"
*MEAS_COND_AXIS_NAME_INTERNAL-22 "ReceivingAxdSlit"
*MEAS_COND_AXIS_NAME_INTERNAL-23 "ReceivingSlitBox1-_Axis"
*MEAS_COND_AXIS_NAME_INTERNAL-24 "ReceivingSlitBox2-_Axis"
*MEAS_COND_AXIS_NAME_INTERNAL-25 "ReceivingSlitBox2-Zd"
*MEAS_COND_AXIS_NAME_INTERNAL-26 "Attenuator"
*MEAS_COND_AXIS_NAME_INTERNAL-27 "CounterMonochromator"
*MEAS_COND_AXIS_NAME_INTERNAL-28 "CounterSlit"
*MEAS_COND_AXIS_NAME_INTERNAL-29 "IncidentPrimary"
*MEAS_COND_AXIS_NAME_INTERNAL-30 "PHA"
*MEAS_COND_AXIS_NAME_MAGICNO-0 "83951616.0000000000"
*MEAS_COND_AXIS_NAME_MAGICNO-1 "268632064.0000000000"
*MEAS_COND_AXIS_NAME_MAGICNO-2 "268500992.0000000000"
*MEAS_COND_AXIS_NAME_MAGICNO-3 "285278208.0000000000"
*MEAS_COND_AXIS_NAME_MAGICNO-4 "83951616.0000000000"
*MEAS_COND_AXIS_NAME_MAGICNO-5 "131072.0000000000"
*MEAS_COND_AXIS_NAME_MAGICNO-6 "131072.0000000000"
*MEAS_COND_AXIS_NAME_MAGICNO-7 "318898176.0000000000"
*MEAS_COND_AXIS_NAME_MAGICNO-8 "20971521.0000000000"
*MEAS_COND_AXIS_NAME_MAGICNO-9 "285343744.0000000000"
*MEAS_COND_AXIS_NAME_MAGICNO-10 "20971521.0000000000"
*MEAS_COND_AXIS_NAME_MAGICNO-11 "22020097.0000000000"
*MEAS_COND_AXIS_NAME_MAGICNO-12 "25165824.0000000000"
*MEAS_COND_AXIS_NAME_MAGICNO-13 "318898176.0000000000"
*MEAS_COND_AXIS_NAME_MAGICNO-14 "1.0000000000"
*MEAS_COND_AXIS_NAME_MAGICNO-15 "20971521.0000000000"
*MEAS_COND_AXIS_NAME_MAGICNO-16 "20971521.0000000000"
*MEAS_COND_AXIS_NAME_MAGICNO-17 "20971521.0000000000"
*MEAS_COND_AXIS_NAME_MAGICNO-18 "23068673.0000000000"
*MEAS_COND_AXIS_NAME_MAGICNO-19 "23068673.0000000000"
*MEAS_COND_AXIS_NAME_MAGICNO-20 "20971521.0000000000"
*MEAS_COND_AXIS_NAME_MAGICNO-21 "20971521.0000000000"
*MEAS_COND_AXIS_NAME_MAGICNO-22 "20971521.0000000000"
*MEAS_COND_AXIS_NAME_MAGICNO-23 "25165824.0000000000"
*MEAS_COND_AXIS_NAME_MAGICNO-24 "25165824.0000000000"
*MEAS_COND_AXIS_NAME_MAGICNO-25 "285343744.0000000000"
*MEAS_COND_AXIS_NAME_MAGICNO-26 "17301505.0000000000"
*MEAS_COND_AXIS_NAME_MAGICNO-27 "20971521.0000000000"
*MEAS_COND_AXIS_NAME_MAGICNO-28 "20971521.0000000000"
*MEAS_COND_AXIS_NAME_MAGICNO-29 "20971521.0000000000"
*MEAS_COND_AXIS_NAME_MAGICNO-30 "0.0000000000"
*MEAS_COND_AXIS_OFFSET-0 "-"
*MEAS_COND_AXIS_OFFSET-1 "-0.0310000000"
*MEAS_COND_AXIS_OFFSET-2 "0.4064000000"
*MEAS_COND_AXIS_OFFSET-3 "-"
*MEAS_COND_AXIS_OFFSET-4 "-"
*MEAS_COND_AXIS_OFFSET-5 "0.4064000000"
*MEAS_COND_AXIS_OFFSET-6 "-0.4374000000"
*MEAS_COND_AXIS_OFFSET-7 "-"
*MEAS_COND_AXIS_OFFSET-8 "-"
*MEAS_COND_AXIS_OFFSET-9 "-"
*MEAS_COND_AXIS_OFFSET-10 "-"
*MEAS_COND_AXIS_OFFSET-11 "-"
*MEAS_COND_AXIS_OFFSET-12 "-"
*MEAS_COND_AXIS_OFFSET-13 "-"
*MEAS_COND_AXIS_OFFSET-14 "-"
*MEAS_COND_AXIS_OFFSET-15 "-"
*MEAS_COND_AXIS_OFFSET-16 "-"
*MEAS_COND_AXIS_OFFSET-17 "-"
*MEAS_COND_AXIS_OFFSET-18 "-"
*MEAS_COND_AXIS_OFFSET-19 "-"
*MEAS_COND_AXIS_OFFSET-20 "-"
*MEAS_COND_AXIS_OFFSET-21 "-"
*MEAS_COND_AXIS_OFFSET-22 "-"
*MEAS_COND_AXIS_OFFSET-23 "-"
*MEAS_COND_AXIS_OFFSET-24 "-"
*MEAS_COND_AXIS_OFFSET-25 "-"
*MEAS_COND_AXIS_OFFSET-26 "-"
*MEAS_COND_AXIS_OFFSET-27 "-"
*MEAS_COND_AXIS_OFFSET-28 "-"
*MEAS_COND_AXIS_OFFSET-29 "-"
*MEAS_COND_AXIS_OFFSET-30 "-"
*MEAS_COND_AXIS_POSITION-0 "0.0000000000"
*MEAS_COND_AXIS_POSITION-1 "0.0000000000"
*MEAS_COND_AXIS_POSITION-2 "0.0000000000"
*MEAS_COND_AXIS_POSITION-3 "-2.8286000000"
*MEAS_COND_AXIS_POSITION-4 "0.0000000000"
*MEAS_COND_AXIS_POSITION-5 "0.0000000000"
*MEAS_COND_AXIS_POSITION-6 "0.0000000000"
*MEAS_COND_AXIS_POSITION-7 "-0.7498700000"
*MEAS_COND_AXIS_POSITION-8 "BB"
*MEAS_COND_AXIS_POSITION-9 "0.0000000000"
*MEAS_COND_AXIS_POSITION-10 "Soller_slit_5.0deg"
*MEAS_COND_AXIS_POSITION-11 "2/3deg"
*MEAS_COND_AXIS_POSITION-12 "2.2088000000"
*MEAS_COND_AXIS_POSITION-13 "-0.6412500000"
*MEAS_COND_AXIS_POSITION-14 "0.0000000000"
*MEAS_COND_AXIS_POSITION-15 "10.0mm"
*MEAS_COND_AXIS_POSITION-16 "None"
*MEAS_COND_AXIS_POSITION-17 "Cu_K-beta"
*MEAS_COND_AXIS_POSITION-18 "13.000mm"
*MEAS_COND_AXIS_POSITION-19 "13.000mm"
*MEAS_COND_AXIS_POSITION-20 "No_unit"
*MEAS_COND_AXIS_POSITION-21 "Soller_slit_5.0deg"
*MEAS_COND_AXIS_POSITION-22 "None"
*MEAS_COND_AXIS_POSITION-23 "13.0000000000"
*MEAS_COND_AXIS_POSITION-24 "13.0000000000"
*MEAS_COND_AXIS_POSITION-25 "0.0281300000"
*MEAS_COND_AXIS_POSITION-26 "Open"
*MEAS_COND_AXIS_POSITION-27 "None"
*MEAS_COND_AXIS_POSITION-28 "None"
*MEAS_COND_AXIS_POSITION-29 "None"
*MEAS_COND_AXIS_POSITION-30 "38.0000000000"
*MEAS_COND_AXIS_UNIT-0 "deg"
*MEAS_COND_AXIS_UNIT-1 "deg"
*MEAS_COND_AXIS_UNIT-2 "deg"
*MEAS_COND_AXIS_UNIT-3 "mm"
*MEAS_COND_AXIS_UNIT-4 "deg"
*MEAS_COND_AXIS_UNIT-5 "deg"
*MEAS_COND_AXIS_UNIT-6 "deg"
*MEAS_COND_AXIS_UNIT-7 "mm"
*MEAS_COND_AXIS_UNIT-8 ""
*MEAS_COND_AXIS_UNIT-9 "pulse"
*MEAS_COND_AXIS_UNIT-10 ""
*MEAS_COND_AXIS_UNIT-11 ""
*MEAS_COND_AXIS_UNIT-12 "mm"
*MEAS_COND_AXIS_UNIT-13 "mm"
*MEAS_COND_AXIS_UNIT-14 ""
*MEAS_COND_AXIS_UNIT-15 ""
*MEAS_COND_AXIS_UNIT-16 ""
*MEAS_COND_AXIS_UNIT-17 ""
*MEAS_COND_AXIS_UNIT-18 ""
*MEAS_COND_AXIS_UNIT-19 ""
*MEAS_COND_AXIS_UNIT-20 ""
*MEAS_COND_AXIS_UNIT-21 ""
*MEAS_COND_AXIS_UNIT-22 ""
*MEAS_COND_AXIS_UNIT-23 "mm"
*MEAS_COND_AXIS_UNIT-24 "mm"
*MEAS_COND_AXIS_UNIT-25 "mm"
*MEAS_COND_AXIS_UNIT-26 ""
*MEAS_COND_AXIS_UNIT-27 ""
*MEAS_COND_AXIS_UNIT-28 ""
*MEAS_COND_AXIS_UNIT-29 ""
*MEAS_COND_AXIS_UNIT-30 "div"
*MEAS_COND_COUNTER_CNTLOSS_CORR "0.0000000000"
*MEAS_COND_COUNTER_PHABASE "38.0000000000"
*MEAS_COND_COUNTER_PHAWINDOW "16.0000000000"
*MEAS_COND_COUNTER_PHA_UNIT "div"
*MEAS_COND_COUNTER_TAUDIFF "30.0000000000"
*MEAS_COND_COUNTER_TAUINT "0.0000000000"
*MEAS_COND_IRRADIATION_MODE "OFF"
*MEAS_COND_IRRADIATION_WIDTH ""
*MEAS_COND_OPT_ATTR "集中法"
*MEAS_COND_OPT_NAME "@集中法"
*MEAS_COND_UNSYMMETRIC_MODE "OFF"
*MEAS_COND_XG_CURRENT "30.0000000000"
*MEAS_COND_XG_VOLTAGE "40.0000000000"
*MEAS_COND_XG_WAVE_TYPE "Ka"
*MEAS_DATA_COUNT "5001.0000000000"
*MEAS_SCAN_AXIS_X "2θ/θ"
*MEAS_SCAN_AXIS_X_INTERNAL "TwoThetaTheta"
*MEAS_SCAN_END_TIME "08/01/23 17:43:33"
*MEAS_SCAN_MODE "CONTINUOUS"
*MEAS_SCAN_MONITOR "0"
*MEAS_SCAN_RESOLUTION_X "0.0002"
*MEAS_SCAN_SPEED "2.5"
*MEAS_SCAN_SPEED_UNIT "deg/min"
*MEAS_SCAN_START "20.0000000000"
*MEAS_SCAN_START_TIME "08/01/23 17:22:08"
*MEAS_SCAN_STEP "0.0100000000"
*MEAS_SCAN_STOP "70.0000000000"
*MEAS_SCAN_UNIT_X "deg"
*MEAS_SCAN_UNIT_Y "counts"
*RAS_HEADER_END
*RAS_INT_START
20.0000 954.0000 1.0000
20.0100 935.0000 1.0000
20.0200 862.0000 1.0000
20.0300 939.0000 1.0000
20.0400 957.0000 1.0000
20.0500 911.0000 1.0000
20.0600 894.0000 1.0000
20.0700 906.0000 1.0000
20.0800 913.0000 1.0000
20.0900 953.0000 1.0000
20.1000 881.0000 1.0000
20.1100 921.0000 1.0000
20.1200 917.0000 1.0000
20.1300 926.0000 1.0000
20.1400 871.0000 1.0000
20.1500 897.0000 1.0000
20.1600 934.0000 1.0000
20.1700 949.0000 1.0000
20.1800 936.0000 1.0000
20.1900 903.0000 1.0000
20.2000 933.0000 1.0000
20.2100 901.0000 1.0000
20.2200 912.0000 1.0000
20.2300 898.0000 1.0000
20.2400 887.0000 1.0000
20.2500 916.0000 1.0000
20.2600 886.0000 1.0000
20.2700 930.0000 1.0000
20.2800 915.0000 1.0000
20.2900 877.0000 1.0000
20.3000 937.0000 1.0000
20.3100 874.0000 1.0000
20.3200 908.0000 1.0000
20.3300 925.0000 1.0000
20.3400 907.0000 1.0000
20.3500 886.0000 1.0000
20.3600 898.0000 1.0000
20.3700 901.0000 1.0000
20.3800 883.0000 1.0000
20.3900 904.0000 1.0000
20.4000 950.0000 1.0000
20.4100 947.0000 1.0000
20.4200 937.0000 1.0000
20.4300 912.0000 1.0000
20.4400 900.0000 1.0000
20.4500 924.0000 1.0000
20.4600 927.0000 1.0000
20.4700 886.0000 1.0000
20.4800 879.0000 1.0000
20.4900 864.0000 1.0000
20.5000 884.0000 1.0000
20.5100 913.0000 1.0000
20.5200 884.0000 1.0000
20.5300 901.0000 1.0000
20.5400 877.0000 1.0000
20.5500 866.0000 1.0000
20.5600 903.0000 1.0000
20.5700 891.0000 1.0000
20.5800 877.0000 1.0000
20.5900 902.0000 1.0000
20.6000 900.0000 1.0000
20.6100 908.0000 1.0000
20.6200 908.0000 1.0000
20.6300 902.0000 1.0000
20.6400 926.0000 1.0000
20.6500 879.0000 1.0000
20.6600 918.0000 1.0000
20.6700 895.0000 1.0000
20.6800 927.0000 1.0000
20.6900 884.0000 1.0000
20.7000 894.0000 1.0000
20.7100 883.0000 1.0000
20.7200 914.0000 1.0000
20.7300 910.0000 1.0000
20.7400 871.0000 1.0000
20.7500 864.0000 1.0000
20.7600 930.0000 1.0000
20.7700 864.0000 1.0000
20.7800 864.0000 1.0000
20.7900 868.0000 1.0000
20.8000 896.0000 1.0000
20.8100 873.0000 1.0000
20.8200 905.0000 1.0000
20.8300 942.0000 1.0000
20.8400 901.0000 1.0000
20.8500 905.0000 1.0000
20.8600 936.0000 1.0000
20.8700 881.0000 1.0000
20.8800 906.0000 1.0000
20.8900 899.0000 1.0000
20.9000 889.0000 1.0000
20.9100 920.0000 1.0000
20.9200 845.0000 1.0000
20.9300 883.0000 1.0000
20.9400 913.0000 1.0000
20.9500 861.0000 1.0000
20.9600 932.0000 1.0000
20.9700 931.0000 1.0000
20.9800 945.0000 1.0000
20.9900 975.0000 1.0000
21.0000 920.0000 1.0000
21.0100 874.0000 1.0000
21.0200 900.0000 1.0000
21.0300 841.0000 1.0000
21.0400 938.0000 1.0000
21.0500 854.0000 1.0000
21.0600 862.0000 1.0000
21.0700 871.0000 1.0000
21.0800 916.0000 1.0000
21.0900 889.0000 1.0000
21.1000 907.0000 1.0000
21.1100 904.0000 1.0000
21.1200 907.0000 1.0000
21.1300 897.0000 1.0000
21.1400 914.0000 1.0000
21.1500 898.0000 1.0000
21.1600 923.0000 1.0000
21.1700 907.0000 1.0000
21.1800 898.0000 1.0000
21.1900 921.0000 1.0000
21.2000 898.0000 1.0000
21.2100 849.0000 1.0000
21.2200 887.0000 1.0000
21.2300 966.0000 1.0000
21.2400 921.0000 1.0000
21.2500 924.0000 1.0000
21.2600 867.0000 1.0000
21.2700 877.0000 1.0000
21.2800 872.0000 1.0000
21.2900 919.0000 1.0000
21.3000 908.0000 1.0000
21.3100 890.0000 1.0000
21.3200 888.0000 1.0000
21.3300 917.0000 1.0000
21.3400 906.0000 1.0000
21.3500 893.0000 1.0000
21.3600 886.0000 1.0000
21.3700 898.0000 1.0000
21.3800 918.0000 1.0000
21.3900 905.0000 1.0000
21.4000 957.0000 1.0000
21.4100 958.0000 1.0000
21.4200 924.0000 1.0000
21.4300 952.0000 1.0000
21.4400 888.0000 1.0000
21.4500 883.0000 1.0000
21.4600 877.0000 1.0000
21.4700 878.0000 1.0000
21.4800 886.0000 1.0000
21.4900 879.0000 1.0000
21.5000 901.0000 1.0000
21.5100 901.0000 1.0000
21.5200 904.0000 1.0000
21.5300 880.0000 1.0000
21.5400 897.0000 1.0000
21.5500 905.0000 1.0000
21.5600 923.0000 1.0000
21.5700 960.0000 1.0000
21.5800 877.0000 1.0000
21.5900 907.0000 1.0000
21.6000 893.0000 1.0000
21.6100 883.0000 1.0000
21.6200 907.0000 1.0000
21.6300 965.0000 1.0000
21.6400 903.0000 1.0000
21.6500 872.0000 1.0000
21.6600 912.0000 1.0000
21.6700 906.0000 1.0000
21.6800 891.0000 1.0000
21.6900 877.0000 1.0000
21.7000 897.0000 1.0000
21.7100 861.0000 1.0000
21.7200 930.0000 1.0000
21.7300 883.0000 1.0000
21.7400 890.0000 1.0000
21.7500 921.0000 1.0000
21.7600 843.0000 1.0000
21.7700 879.0000 1.0000
21.7800 888.0000 1.0000
21.7900 926.0000 1.0000
21.8000 928.0000 1.0000
21.8100 878.0000 1.0000
21.8200 866.0000 1.0000
21.8300 935.0000 1.0000
21.8400 923.0000 1.0000
21.8500 889.0000 1.0000
21.8600 853.0000 1.0000
21.8700 908.0000 1.0000
21.8800 881.0000 1.0000
21.8900 900.0000 1.0000
21.9000 909.0000 1.0000
21.9100 909.0000 1.0000
21.9200 898.0000 1.0000
21.9300 858.0000 1.0000
21.9400 899.0000 1.0000
21.9500 916.0000 1.0000
21.9600 882.0000 1.0000
21.9700 853.0000 1.0000
21.9800 873.0000 1.0000
21.9900 942.0000 1.0000
22.0000 931.0000 1.0000
22.0100 863.0000 1.0000
22.0200 857.0000 1.0000
22.0300 851.0000 1.0000
22.0400 930.0000 1.0000
22.0500 867.0000 1.0000
22.0600 876.0000 1.0000
22.0700 881.0000 1.0000
22.0800 801.0000 1.0000
22.0900 842.0000 1.0000
22.1000 879.0000 1.0000
22.1100 896.0000 1.0000
22.1200 855.0000 1.0000
22.1300 892.0000 1.0000
22.1400 872.0000 1.0000
22.1500 898.0000 1.0000
22.1600 942.0000 1.0000
22.1700 884.0000 1.0000
22.1800 894.0000 1.0000
22.1900 855.0000 1.0000
22.2000 883.0000 1.0000
22.2100 877.0000 1.0000
22.2200 909.0000 1.0000
22.2300 857.0000 1.0000
22.2400 895.0000 1.0000
22.2500 924.0000 1.0000
22.2600 903.0000 1.0000
22.2700 896.0000 1.0000
22.2800 884.0000 1.0000
22.2900 850.0000 1.0000
22.3000 853.0000 1.0000
22.3100 887.0000 1.0000
22.3200 828.0000 1.0000
22.3300 826.0000 1.0000
22.3400 900.0000 1.0000
22.3500 894.0000 1.0000
22.3600 857.0000 1.0000
22.3700 885.0000 1.0000
22.3800 908.0000 1.0000
22.3900 853.0000 1.0000
22.4000 877.0000 1.0000
22.4100 878.0000 1.0000
22.4200 863.0000 1.0000
22.4300 872.0000 1.0000
22.4400 953.0000 1.0000
22.4500 864.0000 1.0000
22.4600 880.0000 1.0000
22.4700 892.0000 1.0000
22.4800 879.0000 1.0000
22.4900 861.0000 1.0000
22.5000 875.0000 1.0000
22.5100 918.0000 1.0000
22.5200 909.0000 1.0000
22.5300 895.0000 1.0000
22.5400 871.0000 1.0000
22.5500 864.0000 1.0000
22.5600 889.0000 1.0000
22.5700 850.0000 1.0000
22.5800 865.0000 1.0000
22.5900 895.0000 1.0000
22.6000 867.0000 1.0000
22.6100 868.0000 1.0000
22.6200 911.0000 1.0000
22.6300 902.0000 1.0000
22.6400 882.0000 1.0000
22.6500 912.0000 1.0000
22.6600 878.0000 1.0000
22.6700 836.0000 1.0000
22.6800 866.0000 1.0000
22.6900 861.0000 1.0000
22.7000 855.0000 1.0000
22.7100 849.0000 1.0000
22.7200 895.0000 1.0000
22.7300 898.0000 1.0000
22.7400 888.0000 1.0000
22.7500 860.0000 1.0000
22.7600 864.0000 1.0000
22.7700 886.0000 1.0000
22.7800 869.0000 1.0000
22.7900 912.0000 1.0000
22.8000 868.0000 1.0000
22.8100 842.0000 1.0000
22.8200 877.0000 1.0000
22.8300 882.0000 1.0000
22.8400 857.0000 1.0000
22.8500 857.0000 1.0000
22.8600 878.0000 1.0000
22.8700 908.0000 1.0000
22.8800 869.0000 1.0000
22.8900 838.0000 1.0000
22.9000 894.0000 1.0000
22.9100 900.0000 1.0000
22.9200 849.0000 1.0000
22.9300 860.0000 1.0000
22.9400 836.0000 1.0000
22.9500 875.0000 1.0000
22.9600 853.0000 1.0000
22.9700 854.0000 1.0000
22.9800 863.0000 1.0000
22.9900 856.0000 1.0000
23.0000 861.0000 1.0000
23.0100 876.0000 1.0000
23.0200 908.0000 1.0000
23.0300 884.0000 1.0000
23.0400 883.0000 1.0000
23.0500 866.0000 1.0000
23.0600 836.0000 1.0000
23.0700 843.0000 1.0000
23.0800 864.0000 1.0000
23.0900 876.0000 1.0000
23.1000 853.0000 1.0000
23.1100 843.0000 1.0000
23.1200 875.0000 1.0000
23.1300 861.0000 1.0000
23.1400 881.0000 1.0000
23.1500 849.0000 1.0000
23.1600 875.0000 1.0000
23.1700 869.0000 1.0000
23.1800 903.0000 1.0000
23.1900 840.0000 1.0000
23.2000 908.0000 1.0000
23.2100 866.0000 1.0000
23.2200 893.0000 1.0000
23.2300 840.0000 1.0000
23.2400 863.0000 1.0000
23.2500 926.0000 1.0000
23.2600 881.0000 1.0000
23.2700 829.0000 1.0000
23.2800 841.0000 1.0000
23.2900 862.0000 1.0000
23.3000 851.0000 1.0000
23.3100 894.0000 1.0000
23.3200 902.0000 1.0000
23.3300 908.0000 1.0000
23.3400 821.0000 1.0000
23.3500 863.0000 1.0000
23.3600 900.0000 1.0000
23.3700 881.0000 1.0000
23.3800 862.0000 1.0000
23.3900 899.0000 1.0000
23.4000 867.0000 1.0000
23.4100 904.0000 1.0000
23.4200 848.0000 1.0000
23.4300 909.0000 1.0000
23.4400 891.0000 1.0000
23.4500 874.0000 1.0000
23.4600 885.0000 1.0000
23.4700 873.0000 1.0000
23.4800 880.0000 1.0000
23.4900 855.0000 1.0000
23.5000 832.0000 1.0000
23.5100 869.0000 1.0000
23.5200 899.0000 1.0000
23.5300 881.0000 1.0000
23.5400 886.0000 1.0000
23.5500 877.0000 1.0000
23.5600 884.0000 1.0000
23.5700 844.0000 1.0000
23.5800 860.0000 1.0000
23.5900 815.0000 1.0000
23.6000 836.0000 1.0000
23.6100 877.0000 1.0000
23.6200 850.0000 1.0000
23.6300 889.0000 1.0000
23.6400 752.0000 1.0000
23.6500 838.0000 1.0000
23.6600 883.0000 1.0000
23.6700 863.0000 1.0000
23.6800 823.0000 1.0000
23.6900 877.0000 1.0000
23.7000 880.0000 1.0000
23.7100 928.0000 1.0000
23.7200 880.0000 1.0000
23.7300 858.0000 1.0000
23.7400 861.0000 1.0000
23.7500 901.0000 1.0000
23.7600 881.0000 1.0000
23.7700 893.0000 1.0000
23.7800 865.0000 1.0000
23.7900 893.0000 1.0000
23.8000 901.0000 1.0000
23.8100 838.0000 1.0000
23.8200 923.0000 1.0000
23.8300 890.0000 1.0000
23.8400 877.0000 1.0000
23.8500 858.0000 1.0000
23.8600 846.0000 1.0000
23.8700 914.0000 1.0000
23.8800 918.0000 1.0000
23.8900 881.0000 1.0000
23.9000 888.0000 1.0000
23.9100 961.0000 1.0000
23.9200 876.0000 1.0000
23.9300 905.0000 1.0000
23.9400 932.0000 1.0000
23.9500 914.0000 1.0000
23.9600 936.0000 1.0000
23.9700 984.0000 1.0000
23.9800 934.0000 1.0000
23.9900 908.0000 1.0000
24.0000 973.0000 1.0000
24.0100 987.0000 1.0000
24.0200 961.0000 1.0000
24.0300 1010.0000 1.0000
24.0400 991.0000 1.0000
24.0500 1029.0000 1.0000
24.0600 1026.0000 1.0000
24.0700 1012.0000 1.0000
24.0800 1047.0000 1.0000
24.0900 1058.0000 1.0000
24.1000 1050.0000 1.0000
24.1100 1008.0000 1.0000
24.1200 1008.0000 1.0000
24.1300 980.0000 1.0000
24.1400 1012.0000 1.0000
24.1500 991.0000 1.0000
24.1600 1000.0000 1.0000
24.1700 966.0000 1.0000
24.1800 900.0000 1.0000
24.1900 893.0000 1.0000
24.2000 904.0000 1.0000
24.2100 923.0000 1.0000
24.2200 873.0000 1.0000
24.2300 954.0000 1.0000
24.2400 915.0000 1.0000
24.2500 915.0000 1.0000
24.2600 905.0000 1.0000
24.2700 872.0000 1.0000
24.2800 860.0000 1.0000
24.2900 898.0000 1.0000
24.3000 928.0000 1.0000
24.3100 881.0000 1.0000
24.3200 871.0000 1.0000
24.3300 888.0000 1.0000
24.3400 909.0000 1.0000
24.3500 869.0000 1.0000
24.3600 874.0000 1.0000
24.3700 836.0000 1.0000
24.3800 904.0000 1.0000
24.3900 861.0000 1.0000
24.4000 886.0000 1.0000
24.4100 842.0000 1.0000
24.4200 886.0000 1.0000
24.4300 848.0000 1.0000
24.4400 850.0000 1.0000
24.4500 863.0000 1.0000
24.4600 854.0000 1.0000
24.4700 898.0000 1.0000
24.4800 843.0000 1.0000
24.4900 878.0000 1.0000
24.5000 829.0000 1.0000
24.5100 864.0000 1.0000
24.5200 846.0000 1.0000
24.5300 884.0000 1.0000
24.5400 845.0000 1.0000
24.5500 849.0000 1.0000
24.5600 853.0000 1.0000
24.5700 863.0000 1.0000
24.5800 872.0000 1.0000
24.5900 869.0000 1.0000
24.6000 831.0000 1.0000
24.6100 807.0000 1.0000
24.6200 836.0000 1.0000
24.6300 845.0000 1.0000
24.6400 866.0000 1.0000
24.6500 850.0000 1.0000
24.6600 854.0000 1.0000
24.6700 785.0000 1.0000
24.6800 843.0000 1.0000
24.6900 845.0000 1.0000
24.7000 873.0000 1.0000
24.7100 861.0000 1.0000
24.7200 865.0000 1.0000
24.7300 838.0000 1.0000
24.7400 869.0000 1.0000
24.7500 807.0000 1.0000
24.7600 835.0000 1.0000
24.7700 847.0000 1.0000
24.7800 869.0000 1.0000
24.7900 870.0000 1.0000
24.8000 838.0000 1.0000
24.8100 830.0000 1.0000
24.8200 848.0000 1.0000
24.8300 852.0000 1.0000
24.8400 843.0000 1.0000
24.8500 842.0000 1.0000
24.8600 831.0000 1.0000
24.8700 856.0000 1.0000
24.8800 852.0000 1.0000
24.8900 807.0000 1.0000
24.9000 824.0000 1.0000
24.9100 812.0000 1.0000
24.9200 827.0000 1.0000
24.9300 838.0000 1.0000
24.9400 853.0000 1.0000
24.9500 834.0000 1.0000
24.9600 837.0000 1.0000
24.9700 900.0000 1.0000
24.9800 834.0000 1.0000
24.9900 849.0000 1.0000
25.0000 813.0000 1.0000
25.0100 815.0000 1.0000
25.0200 856.0000 1.0000
25.0300 877.0000 1.0000
25.0400 799.0000 1.0000
25.0500 866.0000 1.0000
25.0600 866.0000 1.0000
25.0700 822.0000 1.0000
25.0800 868.0000 1.0000
25.0900 873.0000 1.0000
25.1000 787.0000 1.0000
25.1100 832.0000 1.0000
25.1200 801.0000 1.0000
25.1300 822.0000 1.0000
25.1400 825.0000 1.0000
25.1500 890.0000 1.0000
25.1600 824.0000 1.0000
25.1700 799.0000 1.0000
25.1800 767.0000 1.0000
25.1900 874.0000 1.0000
25.2000 858.0000 1.0000
25.2100 829.0000 1.0000
25.2200 860.0000 1.0000
25.2300 858.0000 1.0000
25.2400 841.0000 1.0000
25.2500 842.0000 1.0000
25.2600 828.0000 1.0000
25.2700 831.0000 1.0000
25.2800 824.0000 1.0000
25.2900 842.0000 1.0000
25.3000 810.0000 1.0000
25.3100 810.0000 1.0000
25.3200 851.0000 1.0000
25.3300 830.0000 1.0000
25.3400 862.0000 1.0000
25.3500 825.0000 1.0000
25.3600 857.0000 1.0000
25.3700 810.0000 1.0000
25.3800 806.0000 1.0000
25.3900 856.0000 1.0000
25.4000 869.0000 1.0000
25.4100 786.0000 1.0000
25.4200 822.0000 1.0000
25.4300 850.0000 1.0000
25.4400 834.0000 1.0000
25.4500 835.0000 1.0000
25.4600 803.0000 1.0000
25.4700 806.0000 1.0000
25.4800 856.0000 1.0000
25.4900 884.0000 1.0000
25.5000 879.0000 1.0000
25.5100 842.0000 1.0000
25.5200 810.0000 1.0000
25.5300 877.0000 1.0000
25.5400 864.0000 1.0000
25.5500 822.0000 1.0000
25.5600 836.0000 1.0000
25.5700 844.0000 1.0000
25.5800 845.0000 1.0000
25.5900 840.0000 1.0000
25.6000 847.0000 1.0000
25.6100 843.0000 1.0000
25.6200 879.0000 1.0000
25.6300 874.0000 1.0000
25.6400 863.0000 1.0000
25.6500 866.0000 1.0000
25.6600 822.0000 1.0000
25.6700 829.0000 1.0000
25.6800 837.0000 1.0000
25.6900 856.0000 1.0000
25.7000 836.0000 1.0000
25.7100 869.0000 1.0000
25.7200 873.0000 1.0000
25.7300 847.0000 1.0000
25.7400 835.0000 1.0000
25.7500 826.0000 1.0000
25.7600 851.0000 1.0000
25.7700 846.0000 1.0000
25.7800 876.0000 1.0000
25.7900 842.0000 1.0000
25.8000 831.0000 1.0000
25.8100 837.0000 1.0000
25.8200 855.0000 1.0000
25.8300 816.0000 1.0000
25.8400 861.0000 1.0000
25.8500 892.0000 1.0000
25.8600 881.0000 1.0000
25.8700 848.0000 1.0000
25.8800 908.0000 1.0000
25.8900 890.0000 1.0000
25.9000 910.0000 1.0000
25.9100 850.0000 1.0000
25.9200 846.0000 1.0000
25.9300 889.0000 1.0000
25.9400 900.0000 1.0000
25.9500 907.0000 1.0000
25.9600 907.0000 1.0000
25.9700 867.0000 1.0000
25.9800 887.0000 1.0000
25.9900 873.0000 1.0000
26.0000 913.0000 1.0000
26.0100 890.0000 1.0000
26.0200 867.0000 1.0000
26.0300 907.0000 1.0000
26.0400 906.0000 1.0000
26.0500 905.0000 1.0000
26.0600 928.0000 1.0000
26.0700 868.0000 1.0000
26.0800 897.0000 1.0000
26.0900 958.0000 1.0000
26.1000 994.0000 1.0000
26.1100 988.0000 1.0000
26.1200 999.0000 1.0000
26.1300 1001.0000 1.0000
26.1400 1014.0000 1.0000
26.1500 999.0000 1.0000
26.1600 1035.0000 1.0000
26.1700 1018.0000 1.0000
26.1800 1050.0000 1.0000
26.1900 1087.0000 1.0000
26.2000 1154.0000 1.0000
26.2100 1129.0000 1.0000
26.2200 1137.0000 1.0000
26.2300 1218.0000 1.0000
26.2400 1275.0000 1.0000
26.2500 1257.0000 1.0000
26.2600 1276.0000 1.0000
26.2700 1331.0000 1.0000
26.2800 1388.0000 1.0000
26.2900 1427.0000 1.0000
26.3000 1425.0000 1.0000
26.3100 1543.0000 1.0000
26.3200 1634.0000 1.0000
26.3300 1707.0000 1.0000
26.3400 1789.0000 1.0000
26.3500 1921.0000 1.0000
26.3600 1962.0000 1.0000
26.3700 2080.0000 1.0000
26.3800 2250.0000 1.0000
26.3900 2327.0000 1.0000
26.4000 2414.0000 1.0000
26.4100 2468.0000 1.0000
26.4200 2539.0000 1.0000
26.4300 2580.0000 1.0000
26.4400 2601.0000 1.0000
26.4500 2528.0000 1.0000
26.4600 2470.0000 1.0000
26.4700 2430.0000 1.0000
26.4800 2391.0000 1.0000
26.4900 2402.0000 1.0000
26.5000 2316.0000 1.0000
26.5100 2144.0000 1.0000
26.5200 2035.0000 1.0000
26.5300 1934.0000 1.0000
26.5400 1856.0000 1.0000
26.5500 1801.0000 1.0000
26.5600 1625.0000 1.0000
26.5700 1595.0000 1.0000
26.5800 1514.0000 1.0000
26.5900 1456.0000 1.0000
26.6000 1471.0000 1.0000
26.6100 1364.0000 1.0000
26.6200 1256.0000 1.0000
26.6300 1272.0000 1.0000
26.6400 1229.0000 1.0000
26.6500 1199.0000 1.0000
26.6600 1147.0000 1.0000
26.6700 1128.0000 1.0000
26.6800 1052.0000 1.0000
26.6900 1070.0000 1.0000
26.7000 1056.0000 1.0000
26.7100 1018.0000 1.0000
26.7200 977.0000 1.0000
26.7300 1004.0000 1.0000
26.7400 1035.0000 1.0000
26.7500 983.0000 1.0000
26.7600 969.0000 1.0000
26.7700 1001.0000 1.0000
26.7800 949.0000 1.0000
26.7900 986.0000 1.0000
26.8000 935.0000 1.0000
26.8100 943.0000 1.0000
26.8200 923.0000 1.0000
26.8300 923.0000 1.0000
26.8400 914.0000 1.0000
26.8500 906.0000 1.0000
26.8600 870.0000 1.0000
26.8700 859.0000 1.0000
26.8800 888.0000 1.0000
26.8900 897.0000 1.0000
26.9000 888.0000 1.0000
26.9100 866.0000 1.0000
26.9200 818.0000 1.0000
26.9300 852.0000 1.0000
26.9400 899.0000 1.0000
26.9500 858.0000 1.0000
26.9600 859.0000 1.0000
26.9700 906.0000 1.0000
26.9800 844.0000 1.0000
26.9900 840.0000 1.0000
27.0000 875.0000 1.0000
27.0100 831.0000 1.0000
27.0200 831.0000 1.0000
27.0300 813.0000 1.0000
27.0400 831.0000 1.0000
27.0500 863.0000 1.0000
27.0600 823.0000 1.0000
27.0700 856.0000 1.0000
27.0800 878.0000 1.0000
27.0900 803.0000 1.0000
27.1000 785.0000 1.0000
27.1100 763.0000 1.0000
27.1200 772.0000 1.0000
27.1300 807.0000 1.0000
27.1400 796.0000 1.0000
27.1500 823.0000 1.0000
27.1600 869.0000 1.0000
27.1700 773.0000 1.0000
27.1800 753.0000 1.0000
27.1900 778.0000 1.0000
27.2000 832.0000 1.0000
27.2100 821.0000 1.0000
27.2200 838.0000 1.0000
27.2300 784.0000 1.0000
27.2400 800.0000 1.0000
27.2500 792.0000 1.0000
27.2600 786.0000 1.0000
27.2700 840.0000 1.0000
27.2800 831.0000 1.0000
27.2900 803.0000 1.0000
27.3000 823.0000 1.0000
27.3100 801.0000 1.0000
27.3200 806.0000 1.0000
27.3300 809.0000 1.0000
27.3400 810.0000 1.0000
27.3500 769.0000 1.0000
27.3600 817.0000 1.0000
27.3700 836.0000 1.0000
27.3800 775.0000 1.0000
27.3900 744.0000 1.0000
27.4000 753.0000 1.0000
27.4100 774.0000 1.0000
27.4200 741.0000 1.0000
27.4300 756.0000 1.0000
27.4400 780.0000 1.0000
27.4500 730.0000 1.0000
27.4600 779.0000 1.0000
27.4700 757.0000 1.0000
27.4800 794.0000 1.0000
27.4900 777.0000 1.0000
27.5000 766.0000 1.0000
27.5100 795.0000 1.0000
27.5200 758.0000 1.0000
27.5300 771.0000 1.0000
27.5400 750.0000 1.0000
27.5500 737.0000 1.0000
27.5600 769.0000 1.0000
27.5700 787.0000 1.0000
27.5800 766.0000 1.0000
27.5900 775.0000 1.0000
27.6000 769.0000 1.0000
27.6100 777.0000 1.0000
27.6200 731.0000 1.0000
27.6300 754.0000 1.0000
27.6400 748.0000 1.0000
27.6500 746.0000 1.0000
27.6600 746.0000 1.0000
27.6700 773.0000 1.0000
27.6800 808.0000 1.0000
27.6900 817.0000 1.0000
27.7000 767.0000 1.0000
27.7100 747.0000 1.0000
27.7200 771.0000 1.0000
27.7300 739.0000 1.0000
27.7400 735.0000 1.0000
27.7500 778.0000 1.0000
27.7600 747.0000 1.0000
27.7700 755.0000 1.0000
27.7800 771.0000 1.0000
27.7900 756.0000 1.0000
27.8000 765.0000 1.0000
27.8100 776.0000 1.0000
27.8200 722.0000 1.0000
27.8300 753.0000 1.0000
27.8400 767.0000 1.0000
27.8500 740.0000 1.0000
27.8600 755.0000 1.0000
27.8700 746.0000 1.0000
27.8800 767.0000 1.0000
27.8900 745.0000 1.0000
27.9000 784.0000 1.0000
27.9100 781.0000 1.0000
27.9200 756.0000 1.0000
27.9300 747.0000 1.0000
27.9400 717.0000 1.0000
27.9500 750.0000 1.0000
27.9600 706.0000 1.0000
27.9700 758.0000 1.0000
27.9800 743.0000 1.0000
27.9900 761.0000 1.0000
28.0000 727.0000 1.0000
28.0100 777.0000 1.0000
28.0200 746.0000 1.0000
28.0300 743.0000 1.0000
28.0400 752.0000 1.0000
28.0500 737.0000 1.0000
28.0600 716.0000 1.0000
28.0700 738.0000 1.0000
28.0800 738.0000 1.0000
28.0900 714.0000 1.0000
28.1000 750.0000 1.0000
28.1100 809.0000 1.0000
28.1200 738.0000 1.0000
28.1300 722.0000 1.0000
28.1400 757.0000 1.0000
28.1500 752.0000 1.0000
28.1600 762.0000 1.0000
28.1700 793.0000 1.0000
28.1800 767.0000 1.0000
28.1900 752.0000 1.0000
28.2000 759.0000 1.0000
28.2100 738.0000 1.0000
28.2200 768.0000 1.0000
28.2300 782.0000 1.0000
28.2400 806.0000 1.0000
28.2500 804.0000 1.0000
28.2600 725.0000 1.0000
28.2700 741.0000 1.0000
28.2800 787.0000 1.0000
28.2900 765.0000 1.0000
28.3000 766.0000 1.0000
28.3100 794.0000 1.0000
28.3200 736.0000 1.0000
28.3300 761.0000 1.0000
28.3400 777.0000 1.0000
28.3500 783.0000 1.0000
28.3600 789.0000 1.0000
28.3700 741.0000 1.0000
28.3800 762.0000 1.0000
28.3900 768.0000 1.0000
28.4000 735.0000 1.0000
28.4100 705.0000 1.0000
28.4200 689.0000 1.0000
28.4300 719.0000 1.0000
28.4400 732.0000 1.0000
28.4500 699.0000 1.0000
28.4600 726.0000 1.0000
28.4700 750.0000 1.0000
28.4800 733.0000 1.0000
28.4900 743.0000 1.0000
28.5000 739.0000 1.0000
28.5100 742.0000 1.0000
28.5200 709.0000 1.0000
28.5300 730.0000 1.0000
28.5400 739.0000 1.0000
28.5500 737.0000 1.0000
28.5600 791.0000 1.0000
28.5700 724.0000 1.0000
28.5800 768.0000 1.0000
28.5900 750.0000 1.0000
28.6000 750.0000 1.0000
28.6100 794.0000 1.0000
28.6200 764.0000 1.0000
28.6300 730.0000 1.0000
28.6400 711.0000 1.0000
28.6500 701.0000 1.0000
28.6600 712.0000 1.0000
28.6700 710.0000 1.0000
28.6800 708.0000 1.0000
28.6900 727.0000 1.0000
28.7000 739.0000 1.0000
28.7100 766.0000 1.0000
28.7200 723.0000 1.0000
28.7300 717.0000 1.0000
28.7400 745.0000 1.0000
28.7500 748.0000 1.0000
28.7600 711.0000 1.0000
28.7700 720.0000 1.0000
28.7800 634.0000 1.0000
28.7900 714.0000 1.0000
28.8000 731.0000 1.0000
28.8100 766.0000 1.0000
28.8200 708.0000 1.0000
28.8300 746.0000 1.0000
28.8400 719.0000 1.0000
28.8500 758.0000 1.0000
28.8600 753.0000 1.0000
28.8700 716.0000 1.0000
28.8800 716.0000 1.0000
28.8900 738.0000 1.0000
28.9000 751.0000 1.0000
28.9100 777.0000 1.0000
28.9200 759.0000 1.0000
28.9300 692.0000 1.0000
28.9400 711.0000 1.0000
28.9500 726.0000 1.0000
28.9600 773.0000 1.0000
28.9700 741.0000 1.0000
28.9800 715.0000 1.0000
28.9900 679.0000 1.0000
29.0000 726.0000 1.0000
29.0100 738.0000 1.0000
29.0200 707.0000 1.0000
29.0300 698.0000 1.0000
29.0400 692.0000 1.0000
29.0500 694.0000 1.0000
29.0600 713.0000 1.0000
29.0700 691.0000 1.0000
29.0800 689.0000 1.0000
29.0900 710.0000 1.0000
29.1000 728.0000 1.0000
29.1100 705.0000 1.0000
29.1200 740.0000 1.0000
29.1300 727.0000 1.0000
29.1400 703.0000 1.0000
29.1500 707.0000 1.0000
29.1600 726.0000 1.0000
29.1700 705.0000 1.0000
29.1800 697.0000 1.0000
29.1900 733.0000 1.0000
29.2000 687.0000 1.0000
29.2100 694.0000 1.0000
29.2200 726.0000 1.0000
29.2300 747.0000 1.0000
29.2400 678.0000 1.0000
29.2500 726.0000 1.0000
29.2600 750.0000 1.0000
29.2700 700.0000 1.0000
29.2800 722.0000 1.0000
29.2900 688.0000 1.0000
29.3000 699.0000 1.0000
29.3100 713.0000 1.0000
29.3200 715.0000 1.0000
29.3300 742.0000 1.0000
29.3400 681.0000 1.0000
29.3500 683.0000 1.0000
29.3600 689.0000 1.0000
29.3700 685.0000 1.0000
29.3800 709.0000 1.0000
29.3900 679.0000 1.0000
29.4000 694.0000 1.0000
29.4100 711.0000 1.0000
29.4200 680.0000 1.0000
29.4300 705.0000 1.0000
29.4400 741.0000 1.0000
29.4500 712.0000 1.0000
29.4600 681.0000 1.0000
29.4700 749.0000 1.0000
29.4800 662.0000 1.0000
29.4900 695.0000 1.0000
29.5000 719.0000 1.0000
29.5100 698.0000 1.0000
29.5200 716.0000 1.0000
29.5300 677.0000 1.0000
29.5400 713.0000 1.0000
29.5500 664.0000 1.0000
29.5600 703.0000 1.0000
29.5700 711.0000 1.0000
29.5800 700.0000 1.0000
29.5900 695.0000 1.0000
29.6000 716.0000 1.0000
29.6100 684.0000 1.0000
29.6200 693.0000 1.0000
29.6300 708.0000 1.0000
29.6400 726.0000 1.0000
29.6500 719.0000 1.0000
29.6600 684.0000 1.0000
29.6700 709.0000 1.0000
29.6800 704.0000 1.0000
29.6900 737.0000 1.0000
29.7000 734.0000 1.0000
29.7100 678.0000 1.0000
29.7200 696.0000 1.0000
29.7300 713.0000 1.0000
29.7400 699.0000 1.0000
29.7500 719.0000 1.0000
29.7600 713.0000 1.0000
29.7700 676.0000 1.0000
29.7800 726.0000 1.0000
29.7900 681.0000 1.0000
29.8000 732.0000 1.0000
29.8100 686.0000 1.0000
29.8200 700.0000 1.0000
29.8300 681.0000 1.0000
29.8400 666.0000 1.0000
29.8500 646.0000 1.0000
29.8600 666.0000 1.0000
29.8700 705.0000 1.0000
29.8800 719.0000 1.0000
29.8900 750.0000 1.0000
29.9000 733.0000 1.0000
29.9100 670.0000 1.0000
29.9200 687.0000 1.0000
29.9300 705.0000 1.0000
29.9400 701.0000 1.0000
29.9500 708.0000 1.0000
29.9600 712.0000 1.0000
29.9700 694.0000 1.0000
29.9800 742.0000 1.0000
29.9900 714.0000 1.0000
30.0000 659.0000 1.0000
30.0100 668.0000 1.0000
30.0200 680.0000 1.0000
30.0300 690.0000 1.0000
30.0400 698.0000 1.0000
30.0500 702.0000 1.0000
30.0600 717.0000 1.0000
30.0700 717.0000 1.0000
30.0800 698.0000 1.0000
30.0900 699.0000 1.0000
30.1000 697.0000 1.0000
30.1100 689.0000 1.0000
30.1200 710.0000 1.0000
30.1300 691.0000 1.0000
30.1400 674.0000 1.0000
30.1500 709.0000 1.0000
30.1600 659.0000 1.0000
30.1700 709.0000 1.0000
30.1800 684.0000 1.0000
30.1900 698.0000 1.0000
30.2000 677.0000 1.0000
30.2100 721.0000 1.0000
30.2200 708.0000 1.0000
30.2300 697.0000 1.0000
30.2400 682.0000 1.0000
30.2500 711.0000 1.0000
30.2600 680.0000 1.0000
30.2700 699.0000 1.0000
30.2800 680.0000 1.0000
30.2900 719.0000 1.0000
30.3000 701.0000 1.0000
30.3100 711.0000 1.0000
30.3200 688.0000 1.0000
30.3300 665.0000 1.0000
30.3400 679.0000 1.0000
30.3500 683.0000 1.0000
30.3600 659.0000 1.0000
30.3700 662.0000 1.0000
30.3800 674.0000 1.0000
30.3900 710.0000 1.0000
30.4000 676.0000 1.0000
30.4100 714.0000 1.0000
30.4200 722.0000 1.0000
30.4300 693.0000 1.0000
30.4400 690.0000 1.0000
30.4500 694.0000 1.0000
30.4600 688.0000 1.0000
30.4700 678.0000 1.0000
30.4800 693.0000 1.0000
30.4900 702.0000 1.0000
30.5000 705.0000 1.0000
30.5100 677.0000 1.0000
30.5200 677.0000 1.0000
30.5300 660.0000 1.0000
30.5400 665.0000 1.0000
30.5500 651.0000 1.0000
30.5600 673.0000 1.0000
30.5700 623.0000 1.0000
30.5800 648.0000 1.0000
30.5900 717.0000 1.0000
30.6000 702.0000 1.0000
30.6100 674.0000 1.0000
30.6200 654.0000 1.0000
30.6300 696.0000 1.0000
30.6400 679.0000 1.0000
30.6500 679.0000 1.0000
30.6600 686.0000 1.0000
30.6700 690.0000 1.0000
30.6800 679.0000 1.0000
30.6900 690.0000 1.0000
30.7000 695.0000 1.0000
30.7100 674.0000 1.0000
30.7200 673.0000 1.0000
30.7300 660.0000 1.0000
30.7400 649.0000 1.0000
30.7500 640.0000 1.0000
30.7600 657.0000 1.0000
30.7700 662.0000 1.0000
30.7800 647.0000 1.0000
30.7900 661.0000 1.0000
30.8000 663.0000 1.0000
30.8100 651.0000 1.0000
30.8200 630.0000 1.0000
30.8300 671.0000 1.0000
30.8400 603.0000 1.0000
30.8500 645.0000 1.0000
30.8600 642.0000 1.0000
30.8700 685.0000 1.0000
30.8800 621.0000 1.0000
30.8900 639.0000 1.0000
30.9000 712.0000 1.0000
30.9100 645.0000 1.0000
30.9200 664.0000 1.0000
30.9300 637.0000 1.0000
30.9400 666.0000 1.0000
30.9500 684.0000 1.0000
30.9600 695.0000 1.0000
30.9700 651.0000 1.0000
30.9800 642.0000 1.0000
30.9900 628.0000 1.0000
31.0000 686.0000 1.0000
31.0100 645.0000 1.0000
31.0200 644.0000 1.0000
31.0300 652.0000 1.0000
31.0400 663.0000 1.0000
31.0500 655.0000 1.0000
31.0600 684.0000 1.0000
31.0700 673.0000 1.0000
31.0800 686.0000 1.0000
31.0900 644.0000 1.0000
31.1000 693.0000 1.0000
31.1100 687.0000 1.0000
31.1200 697.0000 1.0000
31.1300 674.0000 1.0000
31.1400 695.0000 1.0000
31.1500 638.0000 1.0000
31.1600 685.0000 1.0000
31.1700 645.0000 1.0000
31.1800 622.0000 1.0000
31.1900 673.0000 1.0000
31.2000 685.0000 1.0000
31.2100 670.0000 1.0000
31.2200 729.0000 1.0000
31.2300 650.0000 1.0000
31.2400 702.0000 1.0000
31.2500 636.0000 1.0000
31.2600 665.0000 1.0000
31.2700 621.0000 1.0000
31.2800 633.0000 1.0000
31.2900 662.0000 1.0000
31.3000 636.0000 1.0000
31.3100 626.0000 1.0000
31.3200 629.0000 1.0000
31.3300 620.0000 1.0000
31.3400 652.0000 1.0000
31.3500 678.0000 1.0000
31.3600 691.0000 1.0000
31.3700 650.0000 1.0000
31.3800 633.0000 1.0000
31.3900 632.0000 1.0000
31.4000 688.0000 1.0000
31.4100 660.0000 1.0000
31.4200 645.0000 1.0000
31.4300 638.0000 1.0000
31.4400 620.0000 1.0000
31.4500 611.0000 1.0000
31.4600 652.0000 1.0000
31.4700 657.0000 1.0000
31.4800 700.0000 1.0000
31.4900 674.0000 1.0000
31.5000 646.0000 1.0000
31.5100 659.0000 1.0000
31.5200 631.0000 1.0000
31.5300 641.0000 1.0000
31.5400 625.0000 1.0000
31.5500 630.0000 1.0000
31.5600 596.0000 1.0000
31.5700 642.0000 1.0000
31.5800 620.0000 1.0000
31.5900 655.0000 1.0000
31.6000 693.0000 1.0000
31.6100 658.0000 1.0000
31.6200 648.0000 1.0000
31.6300 620.0000 1.0000
31.6400 616.0000 1.0000
31.6500 684.0000 1.0000
31.6600 620.0000 1.0000
31.6700 626.0000 1.0000
31.6800 650.0000 1.0000
31.6900 610.0000 1.0000
31.7000 626.0000 1.0000
31.7100 670.0000 1.0000
31.7200 604.0000 1.0000
31.7300 662.0000 1.0000
31.7400 647.0000 1.0000
31.7500 617.0000 1.0000
31.7600 625.0000 1.0000
31.7700 668.0000 1.0000
31.7800 622.0000 1.0000
31.7900 636.0000 1.0000
31.8000 667.0000 1.0000
31.8100 617.0000 1.0000
31.8200 620.0000 1.0000
31.8300 627.0000 1.0000
31.8400 625.0000 1.0000
31.8500 660.0000 1.0000
31.8600 645.0000 1.0000
31.8700 608.0000 1.0000
31.8800 654.0000 1.0000
31.8900 653.0000 1.0000
31.9000 634.0000 1.0000
31.9100 626.0000 1.0000
31.9200 623.0000 1.0000
31.9300 627.0000 1.0000
31.9400 636.0000 1.0000
31.9500 673.0000 1.0000
31.9600 663.0000 1.0000
31.9700 645.0000 1.0000
31.9800 628.0000 1.0000
31.9900 618.0000 1.0000
32.0000 600.0000 1.0000
32.0100 633.0000 1.0000
32.0200 665.0000 1.0000
32.0300 623.0000 1.0000
32.0400 662.0000 1.0000
32.0500 639.0000 1.0000
32.0600 687.0000 1.0000
32.0700 630.0000 1.0000
32.0800 654.0000 1.0000
32.0900 608.0000 1.0000
32.1000 674.0000 1.0000
32.1100 612.0000 1.0000
32.1200 655.0000 1.0000
32.1300 635.0000 1.0000
32.1400 618.0000 1.0000
32.1500 606.0000 1.0000
32.1600 652.0000 1.0000
32.1700 613.0000 1.0000
32.1800 627.0000 1.0000
32.1900 604.0000 1.0000
32.2000 671.0000 1.0000
32.2100 601.0000 1.0000
32.2200 634.0000 1.0000
32.2300 622.0000 1.0000
32.2400 615.0000 1.0000
32.2500 630.0000 1.0000
32.2600 619.0000 1.0000
32.2700 630.0000 1.0000
32.2800 624.0000 1.0000
32.2900 650.0000 1.0000
32.3000 629.0000 1.0000
32.3100 618.0000 1.0000
32.3200 619.0000 1.0000
32.3300 618.0000 1.0000
32.3400 647.0000 1.0000
32.3500 618.0000 1.0000
32.3600 607.0000 1.0000
32.3700 635.0000 1.0000
32.3800 612.0000 1.0000
32.3900 622.0000 1.0000
32.4000 606.0000 1.0000
32.4100 666.0000 1.0000
32.4200 652.0000 1.0000
32.4300 625.0000 1.0000
32.4400 611.0000 1.0000
32.4500 639.0000 1.0000
32.4600 584.0000 1.0000
32.4700 630.0000 1.0000
32.4800 646.0000 1.0000
32.4900 616.0000 1.0000
32.5000 627.0000 1.0000
32.5100 634.0000 1.0000
32.5200 618.0000 1.0000
32.5300 616.0000 1.0000
32.5400 635.0000 1.0000
32.5500 628.0000 1.0000
32.5600 641.0000 1.0000
32.5700 640.0000 1.0000
32.5800 610.0000 1.0000
32.5900 649.0000 1.0000
32.6000 634.0000 1.0000
32.6100 615.0000 1.0000
32.6200 646.0000 1.0000
32.6300 652.0000 1.0000
32.6400 606.0000 1.0000
32.6500 636.0000 1.0000
32.6600 615.0000 1.0000
32.6700 624.0000 1.0000
32.6800 627.0000 1.0000
32.6900 641.0000 1.0000
32.7000 637.0000 1.0000
32.7100 656.0000 1.0000
32.7200 615.0000 1.0000
32.7300 661.0000 1.0000
32.7400 619.0000 1.0000
32.7500 663.0000 1.0000
32.7600 607.0000 1.0000
32.7700 650.0000 1.0000
32.7800 620.0000 1.0000
32.7900 667.0000 1.0000
32.8000 628.0000 1.0000
32.8100 635.0000 1.0000
32.8200 656.0000 1.0000
32.8300 631.0000 1.0000
32.8400 627.0000 1.0000
32.8500 674.0000 1.0000
32.8600 697.0000 1.0000
32.8700 649.0000 1.0000
32.8800 636.0000 1.0000
32.8900 621.0000 1.0000
32.9000 657.0000 1.0000
32.9100 614.0000 1.0000
32.9200 645.0000 1.0000
32.9300 653.0000 1.0000
32.9400 701.0000 1.0000
32.9500 673.0000 1.0000
32.9600 708.0000 1.0000
32.9700 719.0000 1.0000
32.9800 716.0000 1.0000
32.9900 716.0000 1.0000
33.0000 738.0000 1.0000
33.0100 769.0000 1.0000
33.0200 757.0000 1.0000
33.0300 806.0000 1.0000
33.0400 800.0000 1.0000
33.0500 845.0000 1.0000
33.0600 889.0000 1.0000
33.0700 863.0000 1.0000
33.0800 879.0000 1.0000
33.0900 846.0000 1.0000
33.1000 884.0000 1.0000
33.1100 936.0000 1.0000
33.1200 904.0000 1.0000
33.1300 857.0000 1.0000
33.1400 811.0000 1.0000
33.1500 818.0000 1.0000
33.1600 833.0000 1.0000
33.1700 855.0000 1.0000
33.1800 767.0000 1.0000
33.1900 735.0000 1.0000
33.2000 752.0000 1.0000
33.2100 783.0000 1.0000
33.2200 737.0000 1.0000
33.2300 713.0000 1.0000
33.2400 750.0000 1.0000
33.2500 689.0000 1.0000
33.2600 684.0000 1.0000
33.2700 661.0000 1.0000
33.2800 699.0000 1.0000
33.2900 735.0000 1.0000
33.3000 695.0000 1.0000
33.3100 631.0000 1.0000
33.3200 707.0000 1.0000
33.3300 698.0000 1.0000
33.3400 694.0000 1.0000
33.3500 682.0000 1.0000
33.3600 623.0000 1.0000
33.3700 684.0000 1.0000
33.3800 723.0000 1.0000
33.3900 729.0000 1.0000
33.4000 751.0000 1.0000
33.4100 756.0000 1.0000
33.4200 751.0000 1.0000
33.4300 789.0000 1.0000
33.4400 803.0000 1.0000
33.4500 822.0000 1.0000
33.4600 818.0000 1.0000
33.4700 829.0000 1.0000
33.4800 798.0000 1.0000
33.4900 860.0000 1.0000
33.5000 899.0000 1.0000
33.5100 886.0000 1.0000
33.5200 890.0000 1.0000
33.5300 948.0000 1.0000
33.5400 979.0000 1.0000
33.5500 1053.0000 1.0000
33.5600 1078.0000 1.0000
33.5700 1148.0000 1.0000
33.5800 1163.0000 1.0000
33.5900 1211.0000 1.0000
33.6000 1282.0000 1.0000
33.6100 1269.0000 1.0000
33.6200 1330.0000 1.0000
33.6300 1365.0000 1.0000
33.6400 1366.0000 1.0000
33.6500 1334.0000 1.0000
33.6600 1341.0000 1.0000
33.6700 1353.0000 1.0000
33.6800 1318.0000 1.0000
33.6900 1325.0000 1.0000
33.7000 1258.0000 1.0000
33.7100 1230.0000 1.0000
33.7200 1239.0000 1.0000
33.7300 1124.0000 1.0000
33.7400 1046.0000 1.0000
33.7500 1065.0000 1.0000
33.7600 1045.0000 1.0000
33.7700 1015.0000 1.0000
33.7800 959.0000 1.0000
33.7900 894.0000 1.0000
33.8000 911.0000 1.0000
33.8100 865.0000 1.0000
33.8200 812.0000 1.0000
33.8300 845.0000 1.0000
33.8400 839.0000 1.0000
33.8500 802.0000 1.0000
33.8600 780.0000 1.0000
33.8700 734.0000 1.0000
33.8800 772.0000 1.0000
33.8900 797.0000 1.0000
33.9000 744.0000 1.0000
33.9100 748.0000 1.0000
33.9200 698.0000 1.0000
33.9300 700.0000 1.0000
33.9400 711.0000 1.0000
33.9500 706.0000 1.0000
33.9600 670.0000 1.0000
33.9700 639.0000 1.0000
33.9800 656.0000 1.0000
33.9900 638.0000 1.0000
34.0000 662.0000 1.0000
34.0100 658.0000 1.0000
34.0200 680.0000 1.0000
34.0300 621.0000 1.0000
34.0400 623.0000 1.0000
34.0500 623.0000 1.0000
34.0600 650.0000 1.0000
34.0700 635.0000 1.0000
34.0800 625.0000 1.0000
34.0900 648.0000 1.0000
34.1000 574.0000 1.0000
34.1100 573.0000 1.0000
34.1200 645.0000 1.0000
34.1300 581.0000 1.0000
34.1400 594.0000 1.0000
34.1500 594.0000 1.0000
34.1600 594.0000 1.0000
34.1700 633.0000 1.0000
34.1800 635.0000 1.0000
34.1900 609.0000 1.0000
34.2000 619.0000 1.0000
34.2100 615.0000 1.0000
34.2200 628.0000 1.0000
34.2300 610.0000 1.0000
34.2400 580.0000 1.0000
34.2500 593.0000 1.0000
34.2600 647.0000 1.0000
34.2700 594.0000 1.0000
34.2800 599.0000 1.0000
34.2900 567.0000 1.0000
34.3000 579.0000 1.0000
34.3100 615.0000 1.0000
34.3200 577.0000 1.0000
34.3300 583.0000 1.0000
34.3400 575.0000 1.0000
34.3500 601.0000 1.0000
34.3600 597.0000 1.0000
34.3700 550.0000 1.0000
34.3800 595.0000 1.0000
34.3900 594.0000 1.0000
34.4000 556.0000 1.0000
34.4100 574.0000 1.0000
34.4200 573.0000 1.0000
34.4300 547.0000 1.0000
34.4400 562.0000 1.0000
34.4500 601.0000 1.0000
34.4600 582.0000 1.0000
34.4700 564.0000 1.0000
34.4800 585.0000 1.0000
34.4900 594.0000 1.0000
34.5000 531.0000 1.0000
34.5100 577.0000 1.0000
34.5200 560.0000 1.0000
34.5300 561.0000 1.0000
34.5400 572.0000 1.0000
34.5500 598.0000 1.0000
34.5600 569.0000 1.0000
34.5700 576.0000 1.0000
34.5800 555.0000 1.0000
34.5900 551.0000 1.0000
34.6000 544.0000 1.0000
34.6100 551.0000 1.0000
34.6200 546.0000 1.0000
34.6300 565.0000 1.0000
34.6400 541.0000 1.0000
34.6500 582.0000 1.0000
34.6600 564.0000 1.0000
34.6700 538.0000 1.0000
34.6800 589.0000 1.0000
34.6900 550.0000 1.0000
34.7000 540.0000 1.0000
34.7100 576.0000 1.0000
34.7200 534.0000 1.0000
34.7300 546.0000 1.0000
34.7400 537.0000 1.0000
34.7500 552.0000 1.0000
34.7600 589.0000 1.0000
34.7700 581.0000 1.0000
34.7800 554.0000 1.0000
34.7900 562.0000 1.0000
34.8000 549.0000 1.0000
34.8100 541.0000 1.0000
34.8200 573.0000 1.0000
34.8300 564.0000 1.0000
34.8400 586.0000 1.0000
34.8500 528.0000 1.0000
34.8600 573.0000 1.0000
34.8700 565.0000 1.0000
34.8800 584.0000 1.0000
34.8900 565.0000 1.0000
34.9000 539.0000 1.0000
34.9100 534.0000 1.0000
34.9200 561.0000 1.0000
34.9300 557.0000 1.0000
34.9400 592.0000 1.0000
34.9500 567.0000 1.0000
34.9600 536.0000 1.0000
34.9700 568.0000 1.0000
34.9800 559.0000 1.0000
34.9900 574.0000 1.0000
35.0000 527.0000 1.0000
35.0100 510.0000 1.0000
35.0200 583.0000 1.0000
35.0300 542.0000 1.0000
35.0400 544.0000 1.0000
35.0500 588.0000 1.0000
35.0600 542.0000 1.0000
35.0700 568.0000 1.0000
35.0800 540.0000 1.0000
35.0900 532.0000 1.0000
35.1000 609.0000 1.0000
35.1100 585.0000 1.0000
35.1200 554.0000 1.0000
35.1300 556.0000 1.0000
35.1400 548.0000 1.0000
35.1500 538.0000 1.0000
35.1600 547.0000 1.0000
35.1700 593.0000 1.0000
35.1800 600.0000 1.0000
35.1900 539.0000 1.0000
35.2000 534.0000 1.0000
35.2100 559.0000 1.0000
35.2200 565.0000 1.0000
35.2300 584.0000 1.0000
35.2400 573.0000 1.0000
35.2500 603.0000 1.0000
35.2600 585.0000 1.0000
35.2700 584.0000 1.0000
35.2800 588.0000 1.0000
35.2900 592.0000 1.0000
35.3000 589.0000 1.0000
35.3100 615.0000 1.0000
35.3200 579.0000 1.0000
35.3300 599.0000 1.0000
35.3400 618.0000 1.0000
35.3500 638.0000 1.0000
35.3600 619.0000 1.0000
35.3700 633.0000 1.0000
35.3800 702.0000 1.0000
35.3900 687.0000 1.0000
35.4000 672.0000 1.0000
35.4100 754.0000 1.0000
35.4200 775.0000 1.0000
35.4300 764.0000 1.0000
35.4400 789.0000 1.0000
35.4500 859.0000 1.0000
35.4600 808.0000 1.0000
35.4700 842.0000 1.0000
35.4800 963.0000 1.0000
35.4900 1077.0000 1.0000
35.5000 1096.0000 1.0000
35.5100 1160.0000 1.0000
35.5200 1213.0000 1.0000
35.5300 1288.0000 1.0000
35.5400 1264.0000 1.0000
35.5500 1384.0000 1.0000
35.5600 1439.0000 1.0000
35.5700 1331.0000 1.0000
35.5800 1357.0000 1.0000
35.5900 1291.0000 1.0000
35.6000 1304.0000 1.0000
35.6100 1256.0000 1.0000
35.6200 1193.0000 1.0000
35.6300 1216.0000 1.0000
35.6400 1187.0000 1.0000
35.6500 1102.0000 1.0000
35.6600 1089.0000 1.0000
35.6700 1033.0000 1.0000
35.6800 985.0000 1.0000
35.6900 927.0000 1.0000
35.7000 866.0000 1.0000
35.7100 811.0000 1.0000
35.7200 788.0000 1.0000
35.7300 689.0000 1.0000
35.7400 759.0000 1.0000
35.7500 659.0000 1.0000
35.7600 669.0000 1.0000
35.7700 637.0000 1.0000
35.7800 631.0000 1.0000
35.7900 619.0000 1.0000
35.8000 559.0000 1.0000
35.8100 604.0000 1.0000
35.8200 599.0000 1.0000
35.8300 571.0000 1.0000
35.8400 557.0000 1.0000
35.8500 598.0000 1.0000
35.8600 588.0000 1.0000
35.8700 585.0000 1.0000
35.8800 566.0000 1.0000
35.8900 540.0000 1.0000
35.9000 508.0000 1.0000
35.9100 499.0000 1.0000
35.9200 573.0000 1.0000
35.9300 533.0000 1.0000
35.9400 542.0000 1.0000
35.9500 528.0000 1.0000
35.9600 498.0000 1.0000
35.9700 531.0000 1.0000
35.9800 562.0000 1.0000
35.9900 509.0000 1.0000
36.0000 525.0000 1.0000
36.0100 558.0000 1.0000
36.0200 507.0000 1.0000
36.0300 465.0000 1.0000
36.0400 536.0000 1.0000
36.0500 521.0000 1.0000
36.0600 527.0000 1.0000
36.0700 536.0000 1.0000
36.0800 511.0000 1.0000
36.0900 543.0000 1.0000
36.1000 531.0000 1.0000
36.1100 521.0000 1.0000
36.1200 495.0000 1.0000
36.1300 500.0000 1.0000
36.1400 561.0000 1.0000
36.1500 558.0000 1.0000
36.1600 557.0000 1.0000
36.1700 508.0000 1.0000
36.1800 463.0000 1.0000
36.1900 475.0000 1.0000
36.2000 477.0000 1.0000
36.2100 493.0000 1.0000
36.2200 540.0000 1.0000
36.2300 532.0000 1.0000
36.2400 550.0000 1.0000
36.2500 505.0000 1.0000
36.2600 542.0000 1.0000
36.2700 512.0000 1.0000
36.2800 500.0000 1.0000
36.2900 546.0000 1.0000
36.3000 524.0000 1.0000
36.3100 514.0000 1.0000
36.3200 551.0000 1.0000
36.3300 552.0000 1.0000
36.3400 520.0000 1.0000
36.3500 514.0000 1.0000
36.3600 538.0000 1.0000
36.3700 537.0000 1.0000
36.3800 522.0000 1.0000
36.3900 532.0000 1.0000
36.4000 520.0000 1.0000
36.4100 509.0000 1.0000
36.4200 520.0000 1.0000
36.4300 511.0000 1.0000
36.4400 521.0000 1.0000
36.4500 498.0000 1.0000
36.4600 493.0000 1.0000
36.4700 519.0000 1.0000
36.4800 508.0000 1.0000
36.4900 519.0000 1.0000
36.5000 522.0000 1.0000
36.5100 543.0000 1.0000
36.5200 529.0000 1.0000
36.5300 520.0000 1.0000
36.5400 496.0000 1.0000
36.5500 504.0000 1.0000
36.5600 512.0000 1.0000
36.5700 499.0000 1.0000
36.5800 508.0000 1.0000
36.5900 497.0000 1.0000
36.6000 514.0000 1.0000
36.6100 520.0000 1.0000
36.6200 485.0000 1.0000
36.6300 512.0000 1.0000
36.6400 528.0000 1.0000
36.6500 491.0000 1.0000
36.6600 521.0000 1.0000
36.6700 516.0000 1.0000
36.6800 520.0000 1.0000
36.6900 528.0000 1.0000
36.7000 520.0000 1.0000
36.7100 541.0000 1.0000
36.7200 534.0000 1.0000
36.7300 500.0000 1.0000
36.7400 508.0000 1.0000
36.7500 504.0000 1.0000
36.7600 488.0000 1.0000
36.7700 484.0000 1.0000
36.7800 519.0000 1.0000
36.7900 515.0000 1.0000
36.8000 498.0000 1.0000
36.8100 499.0000 1.0000
36.8200 486.0000 1.0000
36.8300 525.0000 1.0000
36.8400 489.0000 1.0000
36.8500 519.0000 1.0000
36.8600 521.0000 1.0000
36.8700 498.0000 1.0000
36.8800 536.0000 1.0000
36.8900 535.0000 1.0000
36.9000 491.0000 1.0000
36.9100 518.0000 1.0000
36.9200 511.0000 1.0000
36.9300 513.0000 1.0000
36.9400 531.0000 1.0000
36.9500 518.0000 1.0000
36.9600 495.0000 1.0000
36.9700 512.0000 1.0000
36.9800 518.0000 1.0000
36.9900 512.0000 1.0000
37.0000 486.0000 1.0000
37.0100 519.0000 1.0000
37.0200 491.0000 1.0000
37.0300 513.0000 1.0000
37.0400 519.0000 1.0000
37.0500 504.0000 1.0000
37.0600 511.0000 1.0000
37.0700 510.0000 1.0000
37.0800 525.0000 1.0000
37.0900 515.0000 1.0000
37.1000 475.0000 1.0000
37.1100 522.0000 1.0000
37.1200 498.0000 1.0000
37.1300 508.0000 1.0000
37.1400 512.0000 1.0000
37.1500 520.0000 1.0000
37.1600 546.0000 1.0000
37.1700 495.0000 1.0000
37.1800 509.0000 1.0000
37.1900 524.0000 1.0000
37.2000 530.0000 1.0000
37.2100 499.0000 1.0000
37.2200 542.0000 1.0000
37.2300 526.0000 1.0000
37.2400 535.0000 1.0000
37.2500 551.0000 1.0000
37.2600 531.0000 1.0000
37.2700 582.0000 1.0000
37.2800 514.0000 1.0000
37.2900 572.0000 1.0000
37.3000 587.0000 1.0000
37.3100 584.0000 1.0000
37.3200 587.0000 1.0000
37.3300 603.0000 1.0000
37.3400 611.0000 1.0000
37.3500 609.0000 1.0000
37.3600 609.0000 1.0000
37.3700 656.0000 1.0000
37.3800 617.0000 1.0000
37.3900 641.0000 1.0000
37.4000 642.0000 1.0000
37.4100 676.0000 1.0000
37.4200 705.0000 1.0000
37.4300 709.0000 1.0000
37.4400 695.0000 1.0000
37.4500 694.0000 1.0000
37.4600 730.0000 1.0000
37.4700 741.0000 1.0000
37.4800 795.0000 1.0000
37.4900 854.0000 1.0000
37.5000 882.0000 1.0000
37.5100 895.0000 1.0000
37.5200 886.0000 1.0000
37.5300 942.0000 1.0000
37.5400 1014.0000 1.0000
37.5500 1055.0000 1.0000
37.5600 1136.0000 1.0000
37.5700 1180.0000 1.0000
37.5800 1284.0000 1.0000
37.5900 1312.0000 1.0000
37.6000 1401.0000 1.0000
37.6100 1548.0000 1.0000
37.6200 1571.0000 1.0000
37.6300 1603.0000 1.0000
37.6400 1718.0000 1.0000
37.6500 1767.0000 1.0000
37.6600 1791.0000 1.0000
37.6700 1956.0000 1.0000
37.6800 1924.0000 1.0000
37.6900 2030.0000 1.0000
37.7000 1974.0000 1.0000
37.7100 2023.0000 1.0000
37.7200 2023.0000 1.0000
37.7300 1993.0000 1.0000
37.7400 2000.0000 1.0000
37.7500 1923.0000 1.0000
37.7600 1869.0000 1.0000
37.7700 1818.0000 1.0000
37.7800 1673.0000 1.0000
37.7900 1669.0000 1.0000
37.8000 1634.0000 1.0000
37.8100 1508.0000 1.0000
37.8200 1538.0000 1.0000
37.8300 1401.0000 1.0000
37.8400 1276.0000 1.0000
37.8500 1230.0000 1.0000
37.8600 1183.0000 1.0000
37.8700 1136.0000 1.0000
37.8800 1093.0000 1.0000
37.8900 1043.0000 1.0000
37.9000 986.0000 1.0000
37.9100 908.0000 1.0000
37.9200 852.0000 1.0000
37.9300 811.0000 1.0000
37.9400 830.0000 1.0000
37.9500 766.0000 1.0000
37.9600 760.0000 1.0000
37.9700 778.0000 1.0000
37.9800 728.0000 1.0000
37.9900 677.0000 1.0000
38.0000 640.0000 1.0000
38.0100 641.0000 1.0000
38.0200 621.0000 1.0000
38.0300 609.0000 1.0000
38.0400 600.0000 1.0000
38.0500 615.0000 1.0000
38.0600 598.0000 1.0000
38.0700 622.0000 1.0000
38.0800 546.0000 1.0000
38.0900 525.0000 1.0000
38.1000 549.0000 1.0000
38.1100 507.0000 1.0000
38.1200 547.0000 1.0000
38.1300 518.0000 1.0000
38.1400 539.0000 1.0000
38.1500 523.0000 1.0000
38.1600 540.0000 1.0000
38.1700 516.0000 1.0000
38.1800 520.0000 1.0000
38.1900 513.0000 1.0000
38.2000 490.0000 1.0000
38.2100 495.0000 1.0000
38.2200 498.0000 1.0000
38.2300 532.0000 1.0000
38.2400 498.0000 1.0000
38.2500 499.0000 1.0000
38.2600 490.0000 1.0000
38.2700 519.0000 1.0000
38.2800 501.0000 1.0000
38.2900 491.0000 1.0000
38.3000 522.0000 1.0000
38.3100 479.0000 1.0000
38.3200 481.0000 1.0000
38.3300 497.0000 1.0000
38.3400 484.0000 1.0000
38.3500 460.0000 1.0000
38.3600 471.0000 1.0000
38.3700 484.0000 1.0000
38.3800 477.0000 1.0000
38.3900 465.0000 1.0000
38.4000 475.0000 1.0000
38.4100 467.0000 1.0000
38.4200 455.0000 1.0000
38.4300 461.0000 1.0000
38.4400 459.0000 1.0000
38.4500 459.0000 1.0000
38.4600 450.0000 1.0000
38.4700 451.0000 1.0000
38.4800 452.0000 1.0000
38.4900 470.0000 1.0000
38.5000 469.0000 1.0000
38.5100 491.0000 1.0000
38.5200 458.0000 1.0000
38.5300 436.0000 1.0000
38.5400 500.0000 1.0000
38.5500 457.0000 1.0000
38.5600 495.0000 1.0000
38.5700 480.0000 1.0000
38.5800 490.0000 1.0000
38.5900 460.0000 1.0000
38.6000 477.0000 1.0000
38.6100 471.0000 1.0000
38.6200 490.0000 1.0000
38.6300 479.0000 1.0000
38.6400 502.0000 1.0000
38.6500 482.0000 1.0000
38.6600 506.0000 1.0000
38.6700 512.0000 1.0000
38.6800 501.0000 1.0000
38.6900 467.0000 1.0000
38.7000 529.0000 1.0000
38.7100 523.0000 1.0000
38.7200 487.0000 1.0000
38.7300 467.0000 1.0000
38.7400 475.0000 1.0000
38.7500 482.0000 1.0000
38.7600 482.0000 1.0000
38.7700 506.0000 1.0000
38.7800 474.0000 1.0000
38.7900 470.0000 1.0000
38.8000 454.0000 1.0000
38.8100 473.0000 1.0000
38.8200 463.0000 1.0000
38.8300 461.0000 1.0000
38.8400 509.0000 1.0000
38.8500 498.0000 1.0000
38.8600 473.0000 1.0000
38.8700 473.0000 1.0000
38.8800 475.0000 1.0000
38.8900 483.0000 1.0000
38.9000 492.0000 1.0000
38.9100 477.0000 1.0000
38.9200 440.0000 1.0000
38.9300 483.0000 1.0000
38.9400 514.0000 1.0000
38.9500 484.0000 1.0000
38.9600 438.0000 1.0000
38.9700 503.0000 1.0000
38.9800 483.0000 1.0000
38.9900 476.0000 1.0000
39.0000 480.0000 1.0000
39.0100 486.0000 1.0000
39.0200 502.0000 1.0000
39.0300 482.0000 1.0000
39.0400 457.0000 1.0000
39.0500 480.0000 1.0000
39.0600 476.0000 1.0000
39.0700 449.0000 1.0000
39.0800 443.0000 1.0000
39.0900 462.0000 1.0000
39.1000 486.0000 1.0000
39.1100 438.0000 1.0000
39.1200 466.0000 1.0000
39.1300 489.0000 1.0000
39.1400 476.0000 1.0000
39.1500 467.0000 1.0000
39.1600 493.0000 1.0000
39.1700 478.0000 1.0000
39.1800 479.0000 1.0000
39.1900 458.0000 1.0000
39.2000 450.0000 1.0000
39.2100 438.0000 1.0000
39.2200 469.0000 1.0000
39.2300 490.0000 1.0000
39.2400 447.0000 1.0000
39.2500 459.0000 1.0000
39.2600 467.0000 1.0000
39.2700 483.0000 1.0000
39.2800 444.0000 1.0000
39.2900 466.0000 1.0000
39.3000 434.0000 1.0000
39.3100 407.0000 1.0000
39.3200 447.0000 1.0000
39.3300 399.0000 1.0000
39.3400 426.0000 1.0000
39.3500 462.0000 1.0000
39.3600 450.0000 1.0000
39.3700 462.0000 1.0000
39.3800 462.0000 1.0000
39.3900 470.0000 1.0000
39.4000 451.0000 1.0000
39.4100 431.0000 1.0000
39.4200 475.0000 1.0000
39.4300 451.0000 1.0000
39.4400 430.0000 1.0000
39.4500 435.0000 1.0000
39.4600 468.0000 1.0000
39.4700 456.0000 1.0000
39.4800 418.0000 1.0000
39.4900 435.0000 1.0000
39.5000 454.0000 1.0000
39.5100 428.0000 1.0000
39.5200 437.0000 1.0000
39.5300 441.0000 1.0000
39.5400 436.0000 1.0000
39.5500 414.0000 1.0000
39.5600 422.0000 1.0000
39.5700 423.0000 1.0000
39.5800 411.0000 1.0000
39.5900 451.0000 1.0000
39.6000 450.0000 1.0000
39.6100 433.0000 1.0000
39.6200 455.0000 1.0000
39.6300 449.0000 1.0000
39.6400 448.0000 1.0000
39.6500 454.0000 1.0000
39.6600 448.0000 1.0000
39.6700 483.0000 1.0000
39.6800 429.0000 1.0000
39.6900 488.0000 1.0000
39.7000 487.0000 1.0000
39.7100 447.0000 1.0000
39.7200 425.0000 1.0000
39.7300 418.0000 1.0000
39.7400 453.0000 1.0000
39.7500 436.0000 1.0000
39.7600 446.0000 1.0000
39.7700 418.0000 1.0000
39.7800 424.0000 1.0000
39.7900 470.0000 1.0000
39.8000 438.0000 1.0000
39.8100 424.0000 1.0000
39.8200 466.0000 1.0000
39.8300 453.0000 1.0000
39.8400 430.0000 1.0000
39.8500 468.0000 1.0000
39.8600 440.0000 1.0000
39.8700 419.0000 1.0000
39.8800 404.0000 1.0000
39.8900 415.0000 1.0000
39.9000 439.0000 1.0000
39.9100 418.0000 1.0000
39.9200 448.0000 1.0000
39.9300 440.0000 1.0000
39.9400 449.0000 1.0000
39.9500 414.0000 1.0000
39.9600 451.0000 1.0000
39.9700 441.0000 1.0000
39.9800 427.0000 1.0000
39.9900 431.0000 1.0000
40.0000 451.0000 1.0000
40.0100 460.0000 1.0000
40.0200 456.0000 1.0000
40.0300 439.0000 1.0000
40.0400 435.0000 1.0000
40.0500 432.0000 1.0000
40.0600 438.0000 1.0000
40.0700 417.0000 1.0000
40.0800 435.0000 1.0000
40.0900 421.0000 1.0000
40.1000 438.0000 1.0000
40.1100 415.0000 1.0000
40.1200 389.0000 1.0000
40.1300 437.0000 1.0000
40.1400 421.0000 1.0000
40.1500 427.0000 1.0000
40.1600 453.0000 1.0000
40.1700 432.0000 1.0000
40.1800 402.0000 1.0000
40.1900 431.0000 1.0000
40.2000 437.0000 1.0000
40.2100 444.0000 1.0000
40.2200 424.0000 1.0000
40.2300 475.0000 1.0000
40.2400 429.0000 1.0000
40.2500 470.0000 1.0000
40.2600 473.0000 1.0000
40.2700 467.0000 1.0000
40.2800 437.0000 1.0000
40.2900 426.0000 1.0000
40.3000 422.0000 1.0000
40.3100 438.0000 1.0000
40.3200 472.0000 1.0000
40.3300 438.0000 1.0000
40.3400 463.0000 1.0000
40.3500 434.0000 1.0000
40.3600 447.0000 1.0000
40.3700 476.0000 1.0000
40.3800 473.0000 1.0000
40.3900 432.0000 1.0000
40.4000 478.0000 1.0000
40.4100 464.0000 1.0000
40.4200 457.0000 1.0000
40.4300 473.0000 1.0000
40.4400 457.0000 1.0000
40.4500 467.0000 1.0000
40.4600 465.0000 1.0000
40.4700 472.0000 1.0000
40.4800 488.0000 1.0000
40.4900 470.0000 1.0000
40.5000 472.0000 1.0000
40.5100 507.0000 1.0000
40.5200 463.0000 1.0000
40.5300 492.0000 1.0000
40.5400 499.0000 1.0000
40.5500 476.0000 1.0000
40.5600 472.0000 1.0000
40.5700 508.0000 1.0000
40.5800 481.0000 1.0000
40.5900 496.0000 1.0000
40.6000 463.0000 1.0000
40.6100 460.0000 1.0000
40.6200 438.0000 1.0000
40.6300 445.0000 1.0000
40.6400 455.0000 1.0000
40.6500 465.0000 1.0000
40.6600 442.0000 1.0000
40.6700 425.0000 1.0000
40.6800 475.0000 1.0000
40.6900 475.0000 1.0000
40.7000 460.0000 1.0000
40.7100 468.0000 1.0000
40.7200 463.0000 1.0000
40.7300 483.0000 1.0000
40.7400 484.0000 1.0000
40.7500 481.0000 1.0000
40.7600 515.0000 1.0000
40.7700 479.0000 1.0000
40.7800 523.0000 1.0000
40.7900 495.0000 1.0000
40.8000 499.0000 1.0000
40.8100 498.0000 1.0000
40.8200 503.0000 1.0000
40.8300 524.0000 1.0000
40.8400 513.0000 1.0000
40.8500 486.0000 1.0000
40.8600 477.0000 1.0000
40.8700 426.0000 1.0000
40.8800 467.0000 1.0000
40.8900 473.0000 1.0000
40.9000 475.0000 1.0000
40.9100 469.0000 1.0000
40.9200 478.0000 1.0000
40.9300 499.0000 1.0000
40.9400 430.0000 1.0000
40.9500 476.0000 1.0000
40.9600 450.0000 1.0000
40.9700 457.0000 1.0000
40.9800 444.0000 1.0000
40.9900 437.0000 1.0000
41.0000 443.0000 1.0000
41.0100 480.0000 1.0000
41.0200 447.0000 1.0000
41.0300 418.0000 1.0000
41.0400 412.0000 1.0000
41.0500 417.0000 1.0000
41.0600 457.0000 1.0000
41.0700 432.0000 1.0000
41.0800 422.0000 1.0000
41.0900 420.0000 1.0000
41.1000 446.0000 1.0000
41.1100 413.0000 1.0000
41.1200 441.0000 1.0000
41.1300 426.0000 1.0000
41.1400 431.0000 1.0000
41.1500 464.0000 1.0000
41.1600 432.0000 1.0000
41.1700 412.0000 1.0000
41.1800 431.0000 1.0000
41.1900 434.0000 1.0000
41.2000 426.0000 1.0000
41.2100 408.0000 1.0000
41.2200 459.0000 1.0000
41.2300 450.0000 1.0000
41.2400 399.0000 1.0000
41.2500 394.0000 1.0000
41.2600 419.0000 1.0000
41.2700 411.0000 1.0000
41.2800 414.0000 1.0000
41.2900 429.0000 1.0000
41.3000 433.0000 1.0000
41.3100 401.0000 1.0000
41.3200 444.0000 1.0000
41.3300 437.0000 1.0000
41.3400 430.0000 1.0000
41.3500 421.0000 1.0000
41.3600 442.0000 1.0000
41.3700 431.0000 1.0000
41.3800 408.0000 1.0000
41.3900 403.0000 1.0000
41.4000 416.0000 1.0000
41.4100 402.0000 1.0000
41.4200 420.0000 1.0000
41.4300 391.0000 1.0000
41.4400 422.0000 1.0000
41.4500 434.0000 1.0000
41.4600 422.0000 1.0000
41.4700 447.0000 1.0000
41.4800 434.0000 1.0000
41.4900 428.0000 1.0000
41.5000 408.0000 1.0000
41.5100 409.0000 1.0000
41.5200 461.0000 1.0000
41.5300 445.0000 1.0000
41.5400 483.0000 1.0000
41.5500 451.0000 1.0000
41.5600 368.0000 1.0000
41.5700 410.0000 1.0000
41.5800 398.0000 1.0000
41.5900 418.0000 1.0000
41.6000 447.0000 1.0000
41.6100 428.0000 1.0000
41.6200 406.0000 1.0000
41.6300 444.0000 1.0000
41.6400 427.0000 1.0000
41.6500 406.0000 1.0000
41.6600 419.0000 1.0000
41.6700 426.0000 1.0000
41.6800 443.0000 1.0000
41.6900 424.0000 1.0000
41.7000 434.0000 1.0000
41.7100 431.0000 1.0000
41.7200 434.0000 1.0000
41.7300 434.0000 1.0000
41.7400 411.0000 1.0000
41.7500 414.0000 1.0000
41.7600 422.0000 1.0000
41.7700 452.0000 1.0000
41.7800 420.0000 1.0000
41.7900 434.0000 1.0000
41.8000 409.0000 1.0000
41.8100 420.0000 1.0000
41.8200 435.0000 1.0000
41.8300 438.0000 1.0000
41.8400 428.0000 1.0000
41.8500 430.0000 1.0000
41.8600 414.0000 1.0000
41.8700 407.0000 1.0000
41.8800 429.0000 1.0000
41.8900 422.0000 1.0000
41.9000 413.0000 1.0000
41.9100 423.0000 1.0000
41.9200 439.0000 1.0000
41.9300 397.0000 1.0000
41.9400 395.0000 1.0000
41.9500 414.0000 1.0000
41.9600 443.0000 1.0000
41.9700 430.0000 1.0000
41.9800 429.0000 1.0000
41.9900 396.0000 1.0000
42.0000 412.0000 1.0000
42.0100 438.0000 1.0000
42.0200 400.0000 1.0000
42.0300 384.0000 1.0000
42.0400 402.0000 1.0000
42.0500 391.0000 1.0000
42.0600 392.0000 1.0000
42.0700 409.0000 1.0000
42.0800 437.0000 1.0000
42.0900 392.0000 1.0000
42.1000 420.0000 1.0000
42.1100 398.0000 1.0000
42.1200 424.0000 1.0000
42.1300 392.0000 1.0000
42.1400 455.0000 1.0000
42.1500 460.0000 1.0000
42.1600 406.0000 1.0000
42.1700 425.0000 1.0000
42.1800 430.0000 1.0000
42.1900 407.0000 1.0000
42.2000 434.0000 1.0000
42.2100 469.0000 1.0000
42.2200 437.0000 1.0000
42.2300 408.0000 1.0000
42.2400 438.0000 1.0000
42.2500 429.0000 1.0000
42.2600 434.0000 1.0000
42.2700 443.0000 1.0000
42.2800 431.0000 1.0000
42.2900 425.0000 1.0000
42.3000 438.0000 1.0000
42.3100 473.0000 1.0000
42.3200 447.0000 1.0000
42.3300 445.0000 1.0000
42.3400 443.0000 1.0000
42.3500 427.0000 1.0000
42.3600 462.0000 1.0000
42.3700 451.0000 1.0000
42.3800 432.0000 1.0000
42.3900 446.0000 1.0000
42.4000 463.0000 1.0000
42.4100 450.0000 1.0000
42.4200 464.0000 1.0000
42.4300 417.0000 1.0000
42.4400 436.0000 1.0000
42.4500 459.0000 1.0000
42.4600 461.0000 1.0000
42.4700 433.0000 1.0000
42.4800 455.0000 1.0000
42.4900 459.0000 1.0000
42.5000 462.0000 1.0000
42.5100 441.0000 1.0000
42.5200 456.0000 1.0000
42.5300 423.0000 1.0000
42.5400 433.0000 1.0000
42.5500 429.0000 1.0000
42.5600 423.0000 1.0000
42.5700 406.0000 1.0000
42.5800 458.0000 1.0000
42.5900 409.0000 1.0000
42.6000 458.0000 1.0000
42.6100 429.0000 1.0000
42.6200 451.0000 1.0000
42.6300 414.0000 1.0000
42.6400 439.0000 1.0000
42.6500 393.0000 1.0000
42.6600 410.0000 1.0000
42.6700 404.0000 1.0000
42.6800 405.0000 1.0000
42.6900 400.0000 1.0000
42.7000 396.0000 1.0000
42.7100 392.0000 1.0000
42.7200 447.0000 1.0000
42.7300 424.0000 1.0000
42.7400 416.0000 1.0000
42.7500 414.0000 1.0000
42.7600 409.0000 1.0000
42.7700 409.0000 1.0000
42.7800 429.0000 1.0000
42.7900 394.0000 1.0000
42.8000 421.0000 1.0000
42.8100 415.0000 1.0000
42.8200 380.0000 1.0000
42.8300 425.0000 1.0000
42.8400 434.0000 1.0000
42.8500 440.0000 1.0000
42.8600 436.0000 1.0000
42.8700 382.0000 1.0000
42.8800 413.0000 1.0000
42.8900 396.0000 1.0000
42.9000 393.0000 1.0000
42.9100 425.0000 1.0000
42.9200 417.0000 1.0000
42.9300 414.0000 1.0000
42.9400 420.0000 1.0000
42.9500 428.0000 1.0000
42.9600 384.0000 1.0000
42.9700 383.0000 1.0000
42.9800 400.0000 1.0000
42.9900 408.0000 1.0000
43.0000 421.0000 1.0000
43.0100 438.0000 1.0000
43.0200 437.0000 1.0000
43.0300 387.0000 1.0000
43.0400 380.0000 1.0000
43.0500 421.0000 1.0000
43.0600 407.0000 1.0000
43.0700 412.0000 1.0000
43.0800 434.0000 1.0000
43.0900 391.0000 1.0000
43.1000 412.0000 1.0000
43.1100 402.0000 1.0000
43.1200 442.0000 1.0000
43.1300 423.0000 1.0000
43.1400 399.0000 1.0000
43.1500 424.0000 1.0000
43.1600 421.0000 1.0000
43.1700 425.0000 1.0000
43.1800 373.0000 1.0000
43.1900 410.0000 1.0000
43.2000 400.0000 1.0000
43.2100 450.0000 1.0000
43.2200 376.0000 1.0000
43.2300 419.0000 1.0000
43.2400 404.0000 1.0000
43.2500 399.0000 1.0000
43.2600 379.0000 1.0000
43.2700 380.0000 1.0000
43.2800 437.0000 1.0000
43.2900 415.0000 1.0000
43.3000 400.0000 1.0000
43.3100 417.0000 1.0000
43.3200 403.0000 1.0000
43.3300 406.0000 1.0000
43.3400 457.0000 1.0000
43.3500 431.0000 1.0000
43.3600 411.0000 1.0000
43.3700 412.0000 1.0000
43.3800 407.0000 1.0000
43.3900 398.0000 1.0000
43.4000 410.0000 1.0000
43.4100 440.0000 1.0000
43.4200 408.0000 1.0000
43.4300 443.0000 1.0000
43.4400 433.0000 1.0000
43.4500 417.0000 1.0000
43.4600 432.0000 1.0000
43.4700 420.0000 1.0000
43.4800 410.0000 1.0000
43.4900 450.0000 1.0000
43.5000 423.0000 1.0000
43.5100 412.0000 1.0000
43.5200 451.0000 1.0000
43.5300 405.0000 1.0000
43.5400 446.0000 1.0000
43.5500 482.0000 1.0000
43.5600 400.0000 1.0000
43.5700 423.0000 1.0000
43.5800 415.0000 1.0000
43.5900 404.0000 1.0000
43.6000 445.0000 1.0000
43.6100 420.0000 1.0000
43.6200 424.0000 1.0000
43.6300 412.0000 1.0000
43.6400 409.0000 1.0000
43.6500 415.0000 1.0000
43.6600 420.0000 1.0000
43.6700 426.0000 1.0000
43.6800 402.0000 1.0000
43.6900 433.0000 1.0000
43.7000 400.0000 1.0000
43.7100 383.0000 1.0000
43.7200 417.0000 1.0000
43.7300 397.0000 1.0000
43.7400 438.0000 1.0000
43.7500 424.0000 1.0000
43.7600 391.0000 1.0000
43.7700 397.0000 1.0000
43.7800 397.0000 1.0000
43.7900 420.0000 1.0000
43.8000 423.0000 1.0000
43.8100 406.0000 1.0000
43.8200 413.0000 1.0000
43.8300 395.0000 1.0000
43.8400 375.0000 1.0000
43.8500 383.0000 1.0000
43.8600 384.0000 1.0000
43.8700 404.0000 1.0000
43.8800 428.0000 1.0000
43.8900 395.0000 1.0000
43.9000 405.0000 1.0000
43.9100 396.0000 1.0000
43.9200 412.0000 1.0000
43.9300 400.0000 1.0000
43.9400 379.0000 1.0000
43.9500 403.0000 1.0000
43.9600 396.0000 1.0000
43.9700 420.0000 1.0000
43.9800 394.0000 1.0000
43.9900 405.0000 1.0000
44.0000 375.0000 1.0000
44.0100 404.0000 1.0000
44.0200 415.0000 1.0000
44.0300 409.0000 1.0000
44.0400 434.0000 1.0000
44.0500 401.0000 1.0000
44.0600 401.0000 1.0000
44.0700 409.0000 1.0000
44.0800 410.0000 1.0000
44.0900 399.0000 1.0000
44.1000 376.0000 1.0000
44.1100 410.0000 1.0000
44.1200 406.0000 1.0000
44.1300 397.0000 1.0000
44.1400 395.0000 1.0000
44.1500 386.0000 1.0000
44.1600 414.0000 1.0000
44.1700 385.0000 1.0000
44.1800 413.0000 1.0000
44.1900 390.0000 1.0000
44.2000 354.0000 1.0000
44.2100 407.0000 1.0000
44.2200 412.0000 1.0000
44.2300 389.0000 1.0000
44.2400 396.0000 1.0000
44.2500 405.0000 1.0000
44.2600 369.0000 1.0000
44.2700 402.0000 1.0000
44.2800 416.0000 1.0000
44.2900 390.0000 1.0000
44.3000 413.0000 1.0000
44.3100 388.0000 1.0000
44.3200 413.0000 1.0000
44.3300 390.0000 1.0000
44.3400 376.0000 1.0000
44.3500 389.0000 1.0000
44.3600 398.0000 1.0000
44.3700 413.0000 1.0000
44.3800 381.0000 1.0000
44.3900 410.0000 1.0000
44.4000 397.0000 1.0000
44.4100 402.0000 1.0000
44.4200 395.0000 1.0000
44.4300 411.0000 1.0000
44.4400 400.0000 1.0000
44.4500 410.0000 1.0000
44.4600 400.0000 1.0000
44.4700 382.0000 1.0000
44.4800 416.0000 1.0000
44.4900 396.0000 1.0000
44.5000 387.0000 1.0000
44.5100 389.0000 1.0000
44.5200 412.0000 1.0000
44.5300 400.0000 1.0000
44.5400 362.0000 1.0000
44.5500 360.0000 1.0000
44.5600 368.0000 1.0000
44.5700 383.0000 1.0000
44.5800 399.0000 1.0000
44.5900 397.0000 1.0000
44.6000 393.0000 1.0000
44.6100 421.0000 1.0000
44.6200 404.0000 1.0000
44.6300 394.0000 1.0000
44.6400 410.0000 1.0000
44.6500 378.0000 1.0000
44.6600 398.0000 1.0000
44.6700 387.0000 1.0000
44.6800 396.0000 1.0000
44.6900 401.0000 1.0000
44.7000 408.0000 1.0000
44.7100 378.0000 1.0000
44.7200 385.0000 1.0000
44.7300 423.0000 1.0000
44.7400 388.0000 1.0000
44.7500 401.0000 1.0000
44.7600 405.0000 1.0000
44.7700 358.0000 1.0000
44.7800 370.0000 1.0000
44.7900 360.0000 1.0000
44.8000 357.0000 1.0000
44.8100 410.0000 1.0000
44.8200 392.0000 1.0000
44.8300 364.0000 1.0000
44.8400 408.0000 1.0000
44.8500 399.0000 1.0000
44.8600 407.0000 1.0000
44.8700 392.0000 1.0000
44.8800 401.0000 1.0000
44.8900 387.0000 1.0000
44.9000 360.0000 1.0000
44.9100 390.0000 1.0000
44.9200 397.0000 1.0000
44.9300 382.0000 1.0000
44.9400 415.0000 1.0000
44.9500 386.0000 1.0000
44.9600 377.0000 1.0000
44.9700 383.0000 1.0000
44.9800 387.0000 1.0000
44.9900 402.0000 1.0000
45.0000 395.0000 1.0000
45.0100 417.0000 1.0000
45.0200 385.0000 1.0000
45.0300 367.0000 1.0000
45.0400 371.0000 1.0000
45.0500 369.0000 1.0000
45.0600 392.0000 1.0000
45.0700 379.0000 1.0000
45.0800 364.0000 1.0000
45.0900 380.0000 1.0000
45.1000 384.0000 1.0000
45.1100 368.0000 1.0000
45.1200 378.0000 1.0000
45.1300 391.0000 1.0000
45.1400 398.0000 1.0000
45.1500 377.0000 1.0000
45.1600 391.0000 1.0000
45.1700 398.0000 1.0000
45.1800 371.0000 1.0000
45.1900 348.0000 1.0000
45.2000 354.0000 1.0000
45.2100 382.0000 1.0000
45.2200 398.0000 1.0000
45.2300 374.0000 1.0000
45.2400 380.0000 1.0000
45.2500 386.0000 1.0000
45.2600 377.0000 1.0000
45.2700 401.0000 1.0000
45.2800 386.0000 1.0000
45.2900 412.0000 1.0000
45.3000 431.0000 1.0000
45.3100 399.0000 1.0000
45.3200 397.0000 1.0000
45.3300 374.0000 1.0000
45.3400 388.0000 1.0000
45.3500 399.0000 1.0000
45.3600 393.0000 1.0000
45.3700 385.0000 1.0000
45.3800 442.0000 1.0000
45.3900 393.0000 1.0000
45.4000 412.0000 1.0000
45.4100 373.0000 1.0000
45.4200 364.0000 1.0000
45.4300 369.0000 1.0000
45.4400 381.0000 1.0000
45.4500 381.0000 1.0000
45.4600 360.0000 1.0000
45.4700 377.0000 1.0000
45.4800 357.0000 1.0000
45.4900 364.0000 1.0000
45.5000 404.0000 1.0000
45.5100 401.0000 1.0000
45.5200 387.0000 1.0000
45.5300 367.0000 1.0000
45.5400 365.0000 1.0000
45.5500 356.0000 1.0000
45.5600 409.0000 1.0000
45.5700 406.0000 1.0000
45.5800 377.0000 1.0000
45.5900 377.0000 1.0000
45.6000 391.0000 1.0000
45.6100 395.0000 1.0000
45.6200 380.0000 1.0000
45.6300 392.0000 1.0000
45.6400 382.0000 1.0000
45.6500 386.0000 1.0000
45.6600 352.0000 1.0000
45.6700 362.0000 1.0000
45.6800 375.0000 1.0000
45.6900 383.0000 1.0000
45.7000 374.0000 1.0000
45.7100 360.0000 1.0000
45.7200 428.0000 1.0000
45.7300 391.0000 1.0000
45.7400 362.0000 1.0000
45.7500 411.0000 1.0000
45.7600 375.0000 1.0000
45.7700 361.0000 1.0000
45.7800 394.0000 1.0000
45.7900 434.0000 1.0000
45.8000 424.0000 1.0000
45.8100 356.0000 1.0000
45.8200 399.0000 1.0000
45.8300 366.0000 1.0000
45.8400 380.0000 1.0000
45.8500 365.0000 1.0000
45.8600 357.0000 1.0000
45.8700 378.0000 1.0000
45.8800 358.0000 1.0000
45.8900 404.0000 1.0000
45.9000 399.0000 1.0000
45.9100 389.0000 1.0000
45.9200 374.0000 1.0000
45.9300 380.0000 1.0000
45.9400 383.0000 1.0000
45.9500 410.0000 1.0000
45.9600 387.0000 1.0000
45.9700 405.0000 1.0000
45.9800 407.0000 1.0000
45.9900 367.0000 1.0000
46.0000 398.0000 1.0000
46.0100 387.0000 1.0000
46.0200 408.0000 1.0000
46.0300 376.0000 1.0000
46.0400 348.0000 1.0000
46.0500 375.0000 1.0000
46.0600 372.0000 1.0000
46.0700 366.0000 1.0000
46.0800 377.0000 1.0000
46.0900 404.0000 1.0000
46.1000 400.0000 1.0000
46.1100 389.0000 1.0000
46.1200 375.0000 1.0000
46.1300 394.0000 1.0000
46.1400 410.0000 1.0000
46.1500 387.0000 1.0000
46.1600 383.0000 1.0000
46.1700 395.0000 1.0000
46.1800 378.0000 1.0000
46.1900 380.0000 1.0000
46.2000 387.0000 1.0000
46.2100 387.0000 1.0000
46.2200 374.0000 1.0000
46.2300 385.0000 1.0000
46.2400 381.0000 1.0000
46.2500 400.0000 1.0000
46.2600 408.0000 1.0000
46.2700 370.0000 1.0000
46.2800 370.0000 1.0000
46.2900 395.0000 1.0000
46.3000 403.0000 1.0000
46.3100 382.0000 1.0000
46.3200 387.0000 1.0000
46.3300 393.0000 1.0000
46.3400 372.0000 1.0000
46.3500 408.0000 1.0000
46.3600 390.0000 1.0000
46.3700 379.0000 1.0000
46.3800 368.0000 1.0000
46.3900 352.0000 1.0000
46.4000 395.0000 1.0000
46.4100 376.0000 1.0000
46.4200 368.0000 1.0000
46.4300 352.0000 1.0000
46.4400 352.0000 1.0000
46.4500 405.0000 1.0000
46.4600 395.0000 1.0000
46.4700 397.0000 1.0000
46.4800 353.0000 1.0000
46.4900 390.0000 1.0000
46.5000 348.0000 1.0000
46.5100 376.0000 1.0000
46.5200 360.0000 1.0000
46.5300 346.0000 1.0000
46.5400 393.0000 1.0000
46.5500 374.0000 1.0000
46.5600 365.0000 1.0000
46.5700 391.0000 1.0000
46.5800 374.0000 1.0000
46.5900 363.0000 1.0000
46.6000 382.0000 1.0000
46.6100 363.0000 1.0000
46.6200 361.0000 1.0000
46.6300 363.0000 1.0000
46.6400 374.0000 1.0000
46.6500 373.0000 1.0000
46.6600 406.0000 1.0000
46.6700 366.0000 1.0000
46.6800 372.0000 1.0000
46.6900 381.0000 1.0000
46.7000 354.0000 1.0000
46.7100 365.0000 1.0000
46.7200 365.0000 1.0000
46.7300 382.0000 1.0000
46.7400 416.0000 1.0000
46.7500 392.0000 1.0000
46.7600 369.0000 1.0000
46.7700 350.0000 1.0000
46.7800 365.0000 1.0000
46.7900 364.0000 1.0000
46.8000 376.0000 1.0000
46.8100 356.0000 1.0000
46.8200 364.0000 1.0000
46.8300 360.0000 1.0000
46.8400 386.0000 1.0000
46.8500 374.0000 1.0000
46.8600 373.0000 1.0000
46.8700 368.0000 1.0000
46.8800 371.0000 1.0000
46.8900 360.0000 1.0000
46.9000 384.0000 1.0000
46.9100 398.0000 1.0000
46.9200 394.0000 1.0000
46.9300 353.0000 1.0000
46.9400 369.0000 1.0000
46.9500 377.0000 1.0000
46.9600 375.0000 1.0000
46.9700 374.0000 1.0000
46.9800 357.0000 1.0000
46.9900 349.0000 1.0000
47.0000 357.0000 1.0000
47.0100 383.0000 1.0000
47.0200 377.0000 1.0000
47.0300 375.0000 1.0000
47.0400 339.0000 1.0000
47.0500 346.0000 1.0000
47.0600 400.0000 1.0000
47.0700 369.0000 1.0000
47.0800 371.0000 1.0000
47.0900 392.0000 1.0000
47.1000 360.0000 1.0000
47.1100 363.0000 1.0000
47.1200 394.0000 1.0000
47.1300 338.0000 1.0000
47.1400 377.0000 1.0000
47.1500 372.0000 1.0000
47.1600 378.0000 1.0000
47.1700 366.0000 1.0000
47.1800 369.0000 1.0000
47.1900 368.0000 1.0000
47.2000 378.0000 1.0000
47.2100 367.0000 1.0000
47.2200 389.0000 1.0000
47.2300 385.0000 1.0000
47.2400 374.0000 1.0000
47.2500 384.0000 1.0000
47.2600 375.0000 1.0000
47.2700 365.0000 1.0000
47.2800 393.0000 1.0000
47.2900 340.0000 1.0000
47.3000 370.0000 1.0000
47.3100 365.0000 1.0000
47.3200 386.0000 1.0000
47.3300 349.0000 1.0000
47.3400 375.0000 1.0000
47.3500 374.0000 1.0000
47.3600 368.0000 1.0000
47.3700 375.0000 1.0000
47.3800 364.0000 1.0000
47.3900 368.0000 1.0000
47.4000 371.0000 1.0000
47.4100 362.0000 1.0000
47.4200 350.0000 1.0000
47.4300 363.0000 1.0000
47.4400 341.0000 1.0000
47.4500 369.0000 1.0000
47.4600 353.0000 1.0000
47.4700 381.0000 1.0000
47.4800 338.0000 1.0000
47.4900 361.0000 1.0000
47.5000 365.0000 1.0000
47.5100 348.0000 1.0000
47.5200 362.0000 1.0000
47.5300 372.0000 1.0000
47.5400 369.0000 1.0000
47.5500 361.0000 1.0000
47.5600 375.0000 1.0000
47.5700 381.0000 1.0000
47.5800 359.0000 1.0000
47.5900 366.0000 1.0000
47.6000 370.0000 1.0000
47.6100 354.0000 1.0000
47.6200 358.0000 1.0000
47.6300 347.0000 1.0000
47.6400 372.0000 1.0000
47.6500 376.0000 1.0000
47.6600 391.0000 1.0000
47.6700 353.0000 1.0000
47.6800 373.0000 1.0000
47.6900 359.0000 1.0000
47.7000 384.0000 1.0000
47.7100 357.0000 1.0000
47.7200 370.0000 1.0000
47.7300 359.0000 1.0000
47.7400 349.0000 1.0000
47.7500 364.0000 1.0000
47.7600 380.0000 1.0000
47.7700 346.0000 1.0000
47.7800 356.0000 1.0000
47.7900 376.0000 1.0000
47.8000 341.0000 1.0000
47.8100 360.0000 1.0000
47.8200 354.0000 1.0000
47.8300 351.0000 1.0000
47.8400 361.0000 1.0000
47.8500 348.0000 1.0000
47.8600 372.0000 1.0000
47.8700 353.0000 1.0000
47.8800 373.0000 1.0000
47.8900 343.0000 1.0000
47.9000 374.0000 1.0000
47.9100 376.0000 1.0000
47.9200 382.0000 1.0000
47.9300 369.0000 1.0000
47.9400 383.0000 1.0000
47.9500 359.0000 1.0000
47.9600 371.0000 1.0000
47.9700 381.0000 1.0000
47.9800 373.0000 1.0000
47.9900 368.0000 1.0000
48.0000 341.0000 1.0000
48.0100 339.0000 1.0000
48.0200 365.0000 1.0000
48.0300 375.0000 1.0000
48.0400 354.0000 1.0000
48.0500 354.0000 1.0000
48.0600 373.0000 1.0000
48.0700 343.0000 1.0000
48.0800 353.0000 1.0000
48.0900 358.0000 1.0000
48.1000 347.0000 1.0000
48.1100 349.0000 1.0000
48.1200 375.0000 1.0000
48.1300 335.0000 1.0000
48.1400 350.0000 1.0000
48.1500 366.0000 1.0000
48.1600 338.0000 1.0000
48.1700 354.0000 1.0000
48.1800 356.0000 1.0000
48.1900 384.0000 1.0000
48.2000 381.0000 1.0000
48.2100 375.0000 1.0000
48.2200 369.0000 1.0000
48.2300 373.0000 1.0000
48.2400 362.0000 1.0000
48.2500 369.0000 1.0000
48.2600 372.0000 1.0000
48.2700 353.0000 1.0000
48.2800 353.0000 1.0000
48.2900 354.0000 1.0000
48.3000 391.0000 1.0000
48.3100 357.0000 1.0000
48.3200 372.0000 1.0000
48.3300 365.0000 1.0000
48.3400 401.0000 1.0000
48.3500 387.0000 1.0000
48.3600 390.0000 1.0000
48.3700 343.0000 1.0000
48.3800 339.0000 1.0000
48.3900 388.0000 1.0000
48.4000 369.0000 1.0000
48.4100 366.0000 1.0000
48.4200 371.0000 1.0000
48.4300 346.0000 1.0000
48.4400 365.0000 1.0000
48.4500 392.0000 1.0000
48.4600 344.0000 1.0000
48.4700 353.0000 1.0000
48.4800 364.0000 1.0000
48.4900 380.0000 1.0000
48.5000 375.0000 1.0000
48.5100 369.0000 1.0000
48.5200 330.0000 1.0000
48.5300 359.0000 1.0000
48.5400 327.0000 1.0000
48.5500 345.0000 1.0000
48.5600 352.0000 1.0000
48.5700 356.0000 1.0000
48.5800 359.0000 1.0000
48.5900 324.0000 1.0000
48.6000 371.0000 1.0000
48.6100 365.0000 1.0000
48.6200 351.0000 1.0000
48.6300 341.0000 1.0000
48.6400 363.0000 1.0000
48.6500 332.0000 1.0000
48.6600 346.0000 1.0000
48.6700 340.0000 1.0000
48.6800 331.0000 1.0000
48.6900 383.0000 1.0000
48.7000 329.0000 1.0000
48.7100 347.0000 1.0000
48.7200 367.0000 1.0000
48.7300 366.0000 1.0000
48.7400 357.0000 1.0000
48.7500 356.0000 1.0000
48.7600 362.0000 1.0000
48.7700 335.0000 1.0000
48.7800 351.0000 1.0000
48.7900 354.0000 1.0000
48.8000 355.0000 1.0000
48.8100 335.0000 1.0000
48.8200 370.0000 1.0000
48.8300 358.0000 1.0000
48.8400 338.0000 1.0000
48.8500 337.0000 1.0000
48.8600 358.0000 1.0000
48.8700 351.0000 1.0000
48.8800 361.0000 1.0000
48.8900 334.0000 1.0000
48.9000 383.0000 1.0000
48.9100 362.0000 1.0000
48.9200 345.0000 1.0000
48.9300 388.0000 1.0000
48.9400 369.0000 1.0000
48.9500 366.0000 1.0000
48.9600 375.0000 1.0000
48.9700 352.0000 1.0000
48.9800 368.0000 1.0000
48.9900 365.0000 1.0000
49.0000 377.0000 1.0000
49.0100 346.0000 1.0000
49.0200 340.0000 1.0000
49.0300 364.0000 1.0000
49.0400 324.0000 1.0000
49.0500 371.0000 1.0000
49.0600 373.0000 1.0000
49.0700 359.0000 1.0000
49.0800 351.0000 1.0000
49.0900 372.0000 1.0000
49.1000 383.0000 1.0000
49.1100 350.0000 1.0000
49.1200 378.0000 1.0000
49.1300 354.0000 1.0000
49.1400 396.0000 1.0000
49.1500 383.0000 1.0000
49.1600 356.0000 1.0000
49.1700 364.0000 1.0000
49.1800 370.0000 1.0000
49.1900 393.0000 1.0000
49.2000 368.0000 1.0000
49.2100 405.0000 1.0000
49.2200 380.0000 1.0000
49.2300 374.0000 1.0000
49.2400 392.0000 1.0000
49.2500 379.0000 1.0000
49.2600 381.0000 1.0000
49.2700 372.0000 1.0000
49.2800 363.0000 1.0000
49.2900 387.0000 1.0000
49.3000 420.0000 1.0000
49.3100 380.0000 1.0000
49.3200 415.0000 1.0000
49.3300 413.0000 1.0000
49.3400 425.0000 1.0000
49.3500 412.0000 1.0000
49.3600 440.0000 1.0000
49.3700 437.0000 1.0000
49.3800 457.0000 1.0000
49.3900 436.0000 1.0000
49.4000 454.0000 1.0000
49.4100 463.0000 1.0000
49.4200 431.0000 1.0000
49.4300 444.0000 1.0000
49.4400 443.0000 1.0000
49.4500 450.0000 1.0000
49.4600 452.0000 1.0000
49.4700 424.0000 1.0000
49.4800 439.0000 1.0000
49.4900 432.0000 1.0000
49.5000 413.0000 1.0000
49.5100 420.0000 1.0000
49.5200 438.0000 1.0000
49.5300 438.0000 1.0000
49.5400 440.0000 1.0000
49.5500 386.0000 1.0000
49.5600 402.0000 1.0000
49.5700 413.0000 1.0000
49.5800 390.0000 1.0000
49.5900 387.0000 1.0000
49.6000 391.0000 1.0000
49.6100 389.0000 1.0000
49.6200 395.0000 1.0000
49.6300 395.0000 1.0000
49.6400 378.0000 1.0000
49.6500 366.0000 1.0000
49.6600 383.0000 1.0000
49.6700 381.0000 1.0000
49.6800 370.0000 1.0000
49.6900 355.0000 1.0000
49.7000 351.0000 1.0000
49.7100 357.0000 1.0000
49.7200 372.0000 1.0000
49.7300 366.0000 1.0000
49.7400 373.0000 1.0000
49.7500 372.0000 1.0000
49.7600 372.0000 1.0000
49.7700 349.0000 1.0000
49.7800 349.0000 1.0000
49.7900 370.0000 1.0000
49.8000 363.0000 1.0000
49.8100 348.0000 1.0000
49.8200 361.0000 1.0000
49.8300 357.0000 1.0000
49.8400 385.0000 1.0000
49.8500 359.0000 1.0000
49.8600 368.0000 1.0000
49.8700 366.0000 1.0000
49.8800 389.0000 1.0000
49.8900 379.0000 1.0000
49.9000 367.0000 1.0000
49.9100 353.0000 1.0000
49.9200 354.0000 1.0000
49.9300 348.0000 1.0000
49.9400 367.0000 1.0000
49.9500 354.0000 1.0000
49.9600 366.0000 1.0000
49.9700 393.0000 1.0000
49.9800 335.0000 1.0000
49.9900 345.0000 1.0000
50.0000 359.0000 1.0000
50.0100 370.0000 1.0000
50.0200 343.0000 1.0000
50.0300 336.0000 1.0000
50.0400 363.0000 1.0000
50.0500 368.0000 1.0000
50.0600 373.0000 1.0000
50.0700 377.0000 1.0000
50.0800 406.0000 1.0000
50.0900 375.0000 1.0000
50.1000 355.0000 1.0000
50.1100 362.0000 1.0000
50.1200 355.0000 1.0000
50.1300 336.0000 1.0000
50.1400 354.0000 1.0000
50.1500 406.0000 1.0000
50.1600 367.0000 1.0000
50.1700 362.0000 1.0000
50.1800 349.0000 1.0000
50.1900 360.0000 1.0000
50.2000 369.0000 1.0000
50.2100 337.0000 1.0000
50.2200 346.0000 1.0000
50.2300 362.0000 1.0000
50.2400 354.0000 1.0000
50.2500 338.0000 1.0000
50.2600 341.0000 1.0000
50.2700 334.0000 1.0000
50.2800 335.0000 1.0000
50.2900 344.0000 1.0000
50.3000 350.0000 1.0000
50.3100 356.0000 1.0000
50.3200 368.0000 1.0000
50.3300 345.0000 1.0000
50.3400 353.0000 1.0000
50.3500 387.0000 1.0000
50.3600 371.0000 1.0000
50.3700 381.0000 1.0000
50.3800 375.0000 1.0000
50.3900 351.0000 1.0000
50.4000 372.0000 1.0000
50.4100 336.0000 1.0000
50.4200 403.0000 1.0000
50.4300 363.0000 1.0000
50.4400 348.0000 1.0000
50.4500 369.0000 1.0000
50.4600 355.0000 1.0000
50.4700 347.0000 1.0000
50.4800 359.0000 1.0000
50.4900 363.0000 1.0000
50.5000 367.0000 1.0000
50.5100 337.0000 1.0000
50.5200 397.0000 1.0000
50.5300 367.0000 1.0000
50.5400 352.0000 1.0000
50.5500 384.0000 1.0000
50.5600 372.0000 1.0000
50.5700 382.0000 1.0000
50.5800 356.0000 1.0000
50.5900 382.0000 1.0000
50.6000 361.0000 1.0000
50.6100 376.0000 1.0000
50.6200 363.0000 1.0000
50.6300 373.0000 1.0000
50.6400 338.0000 1.0000
50.6500 392.0000 1.0000
50.6600 380.0000 1.0000
50.6700 386.0000 1.0000
50.6800 402.0000 1.0000
50.6900 352.0000 1.0000
50.7000 371.0000 1.0000
50.7100 364.0000 1.0000
50.7200 354.0000 1.0000
50.7300 350.0000 1.0000
50.7400 359.0000 1.0000
50.7500 366.0000 1.0000
50.7600 350.0000 1.0000
50.7700 363.0000 1.0000
50.7800 393.0000 1.0000
50.7900 385.0000 1.0000
50.8000 347.0000 1.0000
50.8100 363.0000 1.0000
50.8200 356.0000 1.0000
50.8300 396.0000 1.0000
50.8400 351.0000 1.0000
50.8500 379.0000 1.0000
50.8600 360.0000 1.0000
50.8700 370.0000 1.0000
50.8800 375.0000 1.0000
50.8900 384.0000 1.0000
50.9000 391.0000 1.0000
50.9100 377.0000 1.0000
50.9200 408.0000 1.0000
50.9300 397.0000 1.0000
50.9400 379.0000 1.0000
50.9500 359.0000 1.0000
50.9600 358.0000 1.0000
50.9700 372.0000 1.0000
50.9800 371.0000 1.0000
50.9900 372.0000 1.0000
51.0000 387.0000 1.0000
51.0100 377.0000 1.0000
51.0200 392.0000 1.0000
51.0300 380.0000 1.0000
51.0400 381.0000 1.0000
51.0500 423.0000 1.0000
51.0600 430.0000 1.0000
51.0700 357.0000 1.0000
51.0800 388.0000 1.0000
51.0900 407.0000 1.0000
51.1000 444.0000 1.0000
51.1100 426.0000 1.0000
51.1200 383.0000 1.0000
51.1300 435.0000 1.0000
51.1400 451.0000 1.0000
51.1500 417.0000 1.0000
51.1600 463.0000 1.0000
51.1700 484.0000 1.0000
51.1800 480.0000 1.0000
51.1900 513.0000 1.0000
51.2000 502.0000 1.0000
51.2100 492.0000 1.0000
51.2200 553.0000 1.0000
51.2300 541.0000 1.0000
51.2400 594.0000 1.0000
51.2500 568.0000 1.0000
51.2600 602.0000 1.0000
51.2700 611.0000 1.0000
51.2800 646.0000 1.0000
51.2900 692.0000 1.0000
51.3000 724.0000 1.0000
51.3100 752.0000 1.0000
51.3200 851.0000 1.0000
51.3300 856.0000 1.0000
51.3400 951.0000 1.0000
51.3500 972.0000 1.0000
51.3600 1090.0000 1.0000
51.3700 1118.0000 1.0000
51.3800 1222.0000 1.0000
51.3900 1340.0000 1.0000
51.4000 1410.0000 1.0000
51.4100 1449.0000 1.0000
51.4200 1567.0000 1.0000
51.4300 1623.0000 1.0000
51.4400 1704.0000 1.0000
51.4500 1790.0000 1.0000
51.4600 1845.0000 1.0000
51.4700 1912.0000 1.0000
51.4800 1931.0000 1.0000
51.4900 1966.0000 1.0000
51.5000 1898.0000 1.0000
51.5100 1859.0000 1.0000
51.5200 1871.0000 1.0000
51.5300 1911.0000 1.0000
51.5400 1721.0000 1.0000
51.5500 1698.0000 1.0000
51.5600 1620.0000 1.0000
51.5700 1564.0000 1.0000
51.5800 1512.0000 1.0000
51.5900 1500.0000 1.0000
51.6000 1442.0000 1.0000
51.6100 1457.0000 1.0000
51.6200 1366.0000 1.0000
51.6300 1325.0000 1.0000
51.6400 1260.0000 1.0000
51.6500 1212.0000 1.0000
51.6600 1106.0000 1.0000
51.6700 1050.0000 1.0000
51.6800 1008.0000 1.0000
51.6900 961.0000 1.0000
51.7000 904.0000 1.0000
51.7100 783.0000 1.0000
51.7200 757.0000 1.0000
51.7300 706.0000 1.0000
51.7400 686.0000 1.0000
51.7500 656.0000 1.0000
51.7600 633.0000 1.0000
51.7700 640.0000 1.0000
51.7800 630.0000 1.0000
51.7900 585.0000 1.0000
51.8000 511.0000 1.0000
51.8100 555.0000 1.0000
51.8200 513.0000 1.0000
51.8300 516.0000 1.0000
51.8400 512.0000 1.0000
51.8500 511.0000 1.0000
51.8600 510.0000 1.0000
51.8700 450.0000 1.0000
51.8800 446.0000 1.0000
51.8900 443.0000 1.0000
51.9000 480.0000 1.0000
51.9100 443.0000 1.0000
51.9200 403.0000 1.0000
51.9300 421.0000 1.0000
51.9400 446.0000 1.0000
51.9500 427.0000 1.0000
51.9600 388.0000 1.0000
51.9700 423.0000 1.0000
51.9800 395.0000 1.0000
51.9900 416.0000 1.0000
52.0000 384.0000 1.0000
52.0100 395.0000 1.0000
52.0200 405.0000 1.0000
52.0300 379.0000 1.0000
52.0400 388.0000 1.0000
52.0500 372.0000 1.0000
52.0600 386.0000 1.0000
52.0700 386.0000 1.0000
52.0800 384.0000 1.0000
52.0900 392.0000 1.0000
52.1000 365.0000 1.0000
52.1100 368.0000 1.0000
52.1200 380.0000 1.0000
52.1300 376.0000 1.0000
52.1400 400.0000 1.0000
52.1500 369.0000 1.0000
52.1600 353.0000 1.0000
52.1700 363.0000 1.0000
52.1800 349.0000 1.0000
52.1900 431.0000 1.0000
52.2000 390.0000 1.0000
52.2100 384.0000 1.0000
52.2200 374.0000 1.0000
52.2300 383.0000 1.0000
52.2400 369.0000 1.0000
52.2500 343.0000 1.0000
52.2600 339.0000 1.0000
52.2700 391.0000 1.0000
52.2800 403.0000 1.0000
52.2900 354.0000 1.0000
52.3000 353.0000 1.0000
52.3100 354.0000 1.0000
52.3200 355.0000 1.0000
52.3300 358.0000 1.0000
52.3400 361.0000 1.0000
52.3500 370.0000 1.0000
52.3600 348.0000 1.0000
52.3700 359.0000 1.0000
52.3800 346.0000 1.0000
52.3900 365.0000 1.0000
52.4000 361.0000 1.0000
52.4100 373.0000 1.0000
52.4200 371.0000 1.0000
52.4300 338.0000 1.0000
52.4400 367.0000 1.0000
52.4500 362.0000 1.0000
52.4600 346.0000 1.0000
52.4700 332.0000 1.0000
52.4800 359.0000 1.0000
52.4900 361.0000 1.0000
52.5000 365.0000 1.0000
52.5100 386.0000 1.0000
52.5200 327.0000 1.0000
52.5300 381.0000 1.0000
52.5400 356.0000 1.0000
52.5500 341.0000 1.0000
52.5600 333.0000 1.0000
52.5700 343.0000 1.0000
52.5800 374.0000 1.0000
52.5900 356.0000 1.0000
52.6000 342.0000 1.0000
52.6100 334.0000 1.0000
52.6200 352.0000 1.0000
52.6300 335.0000 1.0000
52.6400 351.0000 1.0000
52.6500 364.0000 1.0000
52.6600 319.0000 1.0000
52.6700 354.0000 1.0000
52.6800 342.0000 1.0000
52.6900 354.0000 1.0000
52.7000 323.0000 1.0000
52.7100 336.0000 1.0000
52.7200 341.0000 1.0000
52.7300 332.0000 1.0000
52.7400 343.0000 1.0000
52.7500 350.0000 1.0000
52.7600 340.0000 1.0000
52.7700 361.0000 1.0000
52.7800 341.0000 1.0000
52.7900 375.0000 1.0000
52.8000 350.0000 1.0000
52.8100 386.0000 1.0000
52.8200 359.0000 1.0000
52.8300 358.0000 1.0000
52.8400 345.0000 1.0000
52.8500 338.0000 1.0000
52.8600 384.0000 1.0000
52.8700 347.0000 1.0000
52.8800 351.0000 1.0000
52.8900 333.0000 1.0000
52.9000 353.0000 1.0000
52.9100 342.0000 1.0000
52.9200 332.0000 1.0000
52.9300 341.0000 1.0000
52.9400 350.0000 1.0000
52.9500 326.0000 1.0000
52.9600 353.0000 1.0000
52.9700 335.0000 1.0000
52.9800 357.0000 1.0000
52.9900 344.0000 1.0000
53.0000 336.0000 1.0000
53.0100 340.0000 1.0000
53.0200 347.0000 1.0000
53.0300 327.0000 1.0000
53.0400 317.0000 1.0000
53.0500 325.0000 1.0000
53.0600 327.0000 1.0000
53.0700 322.0000 1.0000
53.0800 342.0000 1.0000
53.0900 346.0000 1.0000
53.1000 357.0000 1.0000
53.1100 360.0000 1.0000
53.1200 332.0000 1.0000
53.1300 333.0000 1.0000
53.1400 338.0000 1.0000
53.1500 364.0000 1.0000
53.1600 326.0000 1.0000
53.1700 345.0000 1.0000
53.1800 323.0000 1.0000
53.1900 334.0000 1.0000
53.2000 366.0000 1.0000
53.2100 348.0000 1.0000
53.2200 351.0000 1.0000
53.2300 348.0000 1.0000
53.2400 355.0000 1.0000
53.2500 369.0000 1.0000
53.2600 361.0000 1.0000
53.2700 343.0000 1.0000
53.2800 333.0000 1.0000
53.2900 376.0000 1.0000
53.3000 378.0000 1.0000
53.3100 340.0000 1.0000
53.3200 358.0000 1.0000
53.3300 342.0000 1.0000
53.3400 331.0000 1.0000
53.3500 350.0000 1.0000
53.3600 346.0000 1.0000
53.3700 333.0000 1.0000
53.3800 345.0000 1.0000
53.3900 353.0000 1.0000
53.4000 378.0000 1.0000
53.4100 379.0000 1.0000
53.4200 346.0000 1.0000
53.4300 356.0000 1.0000
53.4400 339.0000 1.0000
53.4500 349.0000 1.0000
53.4600 326.0000 1.0000
53.4700 338.0000 1.0000
53.4800 324.0000 1.0000
53.4900 349.0000 1.0000
53.5000 342.0000 1.0000
53.5100 362.0000 1.0000
53.5200 330.0000 1.0000
53.5300 352.0000 1.0000
53.5400 350.0000 1.0000
53.5500 309.0000 1.0000
53.5600 326.0000 1.0000
53.5700 351.0000 1.0000
53.5800 376.0000 1.0000
53.5900 344.0000 1.0000
53.6000 355.0000 1.0000
53.6100 344.0000 1.0000
53.6200 356.0000 1.0000
53.6300 343.0000 1.0000
53.6400 331.0000 1.0000
53.6500 335.0000 1.0000
53.6600 356.0000 1.0000
53.6700 316.0000 1.0000
53.6800 341.0000 1.0000
53.6900 348.0000 1.0000
53.7000 359.0000 1.0000
53.7100 350.0000 1.0000
53.7200 360.0000 1.0000
53.7300 379.0000 1.0000
53.7400 368.0000 1.0000
53.7500 345.0000 1.0000
53.7600 359.0000 1.0000
53.7700 356.0000 1.0000
53.7800 345.0000 1.0000
53.7900 346.0000 1.0000
53.8000 334.0000 1.0000
53.8100 355.0000 1.0000
53.8200 363.0000 1.0000
53.8300 347.0000 1.0000
53.8400 359.0000 1.0000
53.8500 337.0000 1.0000
53.8600 331.0000 1.0000
53.8700 385.0000 1.0000
53.8800 355.0000 1.0000
53.8900 361.0000 1.0000
53.9000 383.0000 1.0000
53.9100 340.0000 1.0000
53.9200 394.0000 1.0000
53.9300 392.0000 1.0000
53.9400 384.0000 1.0000
53.9500 371.0000 1.0000
53.9600 365.0000 1.0000
53.9700 378.0000 1.0000
53.9800 430.0000 1.0000
53.9900 402.0000 1.0000
54.0000 411.0000 1.0000
54.0100 405.0000 1.0000
54.0200 379.0000 1.0000
54.0300 382.0000 1.0000
54.0400 397.0000 1.0000
54.0500 373.0000 1.0000
54.0600 407.0000 1.0000
54.0700 424.0000 1.0000
54.0800 398.0000 1.0000
54.0900 391.0000 1.0000
54.1000 384.0000 1.0000
54.1100 384.0000 1.0000
54.1200 399.0000 1.0000
54.1300 418.0000 1.0000
54.1400 380.0000 1.0000
54.1500 382.0000 1.0000
54.1600 406.0000 1.0000
54.1700 396.0000 1.0000
54.1800 408.0000 1.0000
54.1900 349.0000 1.0000
54.2000 376.0000 1.0000
54.2100 367.0000 1.0000
54.2200 386.0000 1.0000
54.2300 388.0000 1.0000
54.2400 372.0000 1.0000
54.2500 394.0000 1.0000
54.2600 393.0000 1.0000
54.2700 371.0000 1.0000
54.2800 360.0000 1.0000
54.2900 392.0000 1.0000
54.3000 369.0000 1.0000
54.3100 378.0000 1.0000
54.3200 417.0000 1.0000
54.3300 412.0000 1.0000
54.3400 364.0000 1.0000
54.3500 375.0000 1.0000
54.3600 409.0000 1.0000
54.3700 423.0000 1.0000
54.3800 431.0000 1.0000
54.3900 422.0000 1.0000
54.4000 414.0000 1.0000
54.4100 437.0000 1.0000
54.4200 433.0000 1.0000
54.4300 449.0000 1.0000
54.4400 435.0000 1.0000
54.4500 459.0000 1.0000
54.4600 442.0000 1.0000
54.4700 431.0000 1.0000
54.4800 465.0000 1.0000
54.4900 492.0000 1.0000
54.5000 491.0000 1.0000
54.5100 476.0000 1.0000
54.5200 477.0000 1.0000
54.5300 472.0000 1.0000
54.5400 463.0000 1.0000
54.5500 458.0000 1.0000
54.5600 461.0000 1.0000
54.5700 452.0000 1.0000
54.5800 483.0000 1.0000
54.5900 447.0000 1.0000
54.6000 460.0000 1.0000
54.6100 433.0000 1.0000
54.6200 468.0000 1.0000
54.6300 437.0000 1.0000
54.6400 441.0000 1.0000
54.6500 456.0000 1.0000
54.6600 411.0000 1.0000
54.6700 399.0000 1.0000
54.6800 414.0000 1.0000
54.6900 419.0000 1.0000
54.7000 393.0000 1.0000
54.7100 417.0000 1.0000
54.7200 484.0000 1.0000
54.7300 392.0000 1.0000
54.7400 372.0000 1.0000
54.7500 389.0000 1.0000
54.7600 370.0000 1.0000
54.7700 405.0000 1.0000
54.7800 391.0000 1.0000
54.7900 358.0000 1.0000
54.8000 365.0000 1.0000
54.8100 360.0000 1.0000
54.8200 377.0000 1.0000
54.8300 391.0000 1.0000
54.8400 379.0000 1.0000
54.8500 370.0000 1.0000
54.8600 356.0000 1.0000
54.8700 360.0000 1.0000
54.8800 365.0000 1.0000
54.8900 349.0000 1.0000
54.9000 347.0000 1.0000
54.9100 360.0000 1.0000
54.9200 345.0000 1.0000
54.9300 366.0000 1.0000
54.9400 390.0000 1.0000
54.9500 355.0000 1.0000
54.9600 306.0000 1.0000
54.9700 330.0000 1.0000
54.9800 360.0000 1.0000
54.9900 344.0000 1.0000
55.0000 337.0000 1.0000
55.0100 349.0000 1.0000
55.0200 361.0000 1.0000
55.0300 355.0000 1.0000
55.0400 356.0000 1.0000
55.0500 347.0000 1.0000
55.0600 324.0000 1.0000
55.0700 351.0000 1.0000
55.0800 349.0000 1.0000
55.0900 344.0000 1.0000
55.1000 344.0000 1.0000
55.1100 338.0000 1.0000
55.1200 341.0000 1.0000
55.1300 311.0000 1.0000
55.1400 334.0000 1.0000
55.1500 378.0000 1.0000
55.1600 309.0000 1.0000
55.1700 332.0000 1.0000
55.1800 344.0000 1.0000
55.1900 379.0000 1.0000
55.2000 336.0000 1.0000
55.2100 336.0000 1.0000
55.2200 313.0000 1.0000
55.2300 347.0000 1.0000
55.2400 356.0000 1.0000
55.2500 333.0000 1.0000
55.2600 292.0000 1.0000
55.2700 314.0000 1.0000
55.2800 357.0000 1.0000
55.2900 340.0000 1.0000
55.3000 302.0000 1.0000
55.3100 322.0000 1.0000
55.3200 359.0000 1.0000
55.3300 349.0000 1.0000
55.3400 324.0000 1.0000
55.3500 335.0000 1.0000
55.3600 334.0000 1.0000
55.3700 349.0000 1.0000
55.3800 319.0000 1.0000
55.3900 335.0000 1.0000
55.4000 302.0000 1.0000
55.4100 329.0000 1.0000
55.4200 337.0000 1.0000
55.4300 320.0000 1.0000
55.4400 314.0000 1.0000
55.4500 338.0000 1.0000
55.4600 311.0000 1.0000
55.4700 320.0000 1.0000
55.4800 317.0000 1.0000
55.4900 326.0000 1.0000
55.5000 347.0000 1.0000
55.5100 301.0000 1.0000
55.5200 341.0000 1.0000
55.5300 316.0000 1.0000
55.5400 338.0000 1.0000
55.5500 353.0000 1.0000
55.5600 325.0000 1.0000
55.5700 327.0000 1.0000
55.5800 336.0000 1.0000
55.5900 320.0000 1.0000
55.6000 333.0000 1.0000
55.6100 343.0000 1.0000
55.6200 317.0000 1.0000
55.6300 329.0000 1.0000
55.6400 321.0000 1.0000
55.6500 327.0000 1.0000
55.6600 347.0000 1.0000
55.6700 335.0000 1.0000
55.6800 339.0000 1.0000
55.6900 344.0000 1.0000
55.7000 342.0000 1.0000
55.7100 377.0000 1.0000
55.7200 338.0000 1.0000
55.7300 319.0000 1.0000
55.7400 342.0000 1.0000
55.7500 324.0000 1.0000
55.7600 324.0000 1.0000
55.7700 337.0000 1.0000
55.7800 319.0000 1.0000
55.7900 318.0000 1.0000
55.8000 310.0000 1.0000
55.8100 316.0000 1.0000
55.8200 323.0000 1.0000
55.8300 323.0000 1.0000
55.8400 310.0000 1.0000
55.8500 325.0000 1.0000
55.8600 322.0000 1.0000
55.8700 336.0000 1.0000
55.8800 305.0000 1.0000
55.8900 296.0000 1.0000
55.9000 323.0000 1.0000
55.9100 339.0000 1.0000
55.9200 306.0000 1.0000
55.9300 338.0000 1.0000
55.9400 323.0000 1.0000
55.9500 310.0000 1.0000
55.9600 327.0000 1.0000
55.9700 330.0000 1.0000
55.9800 323.0000 1.0000
55.9900 302.0000 1.0000
56.0000 347.0000 1.0000
56.0100 346.0000 1.0000
56.0200 342.0000 1.0000
56.0300 331.0000 1.0000
56.0400 336.0000 1.0000
56.0500 326.0000 1.0000
56.0600 338.0000 1.0000
56.0700 314.0000 1.0000
56.0800 332.0000 1.0000
56.0900 344.0000 1.0000
56.1000 324.0000 1.0000
56.1100 320.0000 1.0000
56.1200 337.0000 1.0000
56.1300 339.0000 1.0000
56.1400 313.0000 1.0000
56.1500 349.0000 1.0000
56.1600 317.0000 1.0000
56.1700 321.0000 1.0000
56.1800 333.0000 1.0000
56.1900 334.0000 1.0000
56.2000 331.0000 1.0000
56.2100 321.0000 1.0000
56.2200 312.0000 1.0000
56.2300 321.0000 1.0000
56.2400 336.0000 1.0000
56.2500 329.0000 1.0000
56.2600 315.0000 1.0000
56.2700 340.0000 1.0000
56.2800 331.0000 1.0000
56.2900 324.0000 1.0000
56.3000 328.0000 1.0000
56.3100 312.0000 1.0000
56.3200 326.0000 1.0000
56.3300 311.0000 1.0000
56.3400 328.0000 1.0000
56.3500 322.0000 1.0000
56.3600 318.0000 1.0000
56.3700 352.0000 1.0000
56.3800 342.0000 1.0000
56.3900 319.0000 1.0000
56.4000 331.0000 1.0000
56.4100 301.0000 1.0000
56.4200 330.0000 1.0000
56.4300 337.0000 1.0000
56.4400 342.0000 1.0000
56.4500 346.0000 1.0000
56.4600 364.0000 1.0000
56.4700 324.0000 1.0000
56.4800 297.0000 1.0000
56.4900 329.0000 1.0000
56.5000 341.0000 1.0000
56.5100 319.0000 1.0000
56.5200 338.0000 1.0000
56.5300 335.0000 1.0000
56.5400 315.0000 1.0000
56.5500 308.0000 1.0000
56.5600 326.0000 1.0000
56.5700 324.0000 1.0000
56.5800 313.0000 1.0000
56.5900 322.0000 1.0000
56.6000 316.0000 1.0000
56.6100 319.0000 1.0000
56.6200 326.0000 1.0000
56.6300 337.0000 1.0000
56.6400 336.0000 1.0000
56.6500 336.0000 1.0000
56.6600 329.0000 1.0000
56.6700 334.0000 1.0000
56.6800 337.0000 1.0000
56.6900 344.0000 1.0000
56.7000 334.0000 1.0000
56.7100 345.0000 1.0000
56.7200 314.0000 1.0000
56.7300 334.0000 1.0000
56.7400 325.0000 1.0000
56.7500 302.0000 1.0000
56.7600 340.0000 1.0000
56.7700 307.0000 1.0000
56.7800 322.0000 1.0000
56.7900 310.0000 1.0000
56.8000 313.0000 1.0000
56.8100 307.0000 1.0000
56.8200 342.0000 1.0000
56.8300 325.0000 1.0000
56.8400 306.0000 1.0000
56.8500 318.0000 1.0000
56.8600 327.0000 1.0000
56.8700 329.0000 1.0000
56.8800 348.0000 1.0000
56.8900 309.0000 1.0000
56.9000 323.0000 1.0000
56.9100 328.0000 1.0000
56.9200 324.0000 1.0000
56.9300 314.0000 1.0000
56.9400 336.0000 1.0000
56.9500 317.0000 1.0000
56.9600 351.0000 1.0000
56.9700 334.0000 1.0000
56.9800 310.0000 1.0000
56.9900 329.0000 1.0000
57.0000 354.0000 1.0000
57.0100 321.0000 1.0000
57.0200 332.0000 1.0000
57.0300 336.0000 1.0000
57.0400 307.0000 1.0000
57.0500 319.0000 1.0000
57.0600 320.0000 1.0000
57.0700 309.0000 1.0000
57.0800 354.0000 1.0000
57.0900 347.0000 1.0000
57.1000 344.0000 1.0000
57.1100 354.0000 1.0000
57.1200 312.0000 1.0000
57.1300 315.0000 1.0000
57.1400 338.0000 1.0000
57.1500 353.0000 1.0000
57.1600 324.0000 1.0000
57.1700 347.0000 1.0000
57.1800 306.0000 1.0000
57.1900 381.0000 1.0000
57.2000 334.0000 1.0000
57.2100 330.0000 1.0000
57.2200 315.0000 1.0000
57.2300 340.0000 1.0000
57.2400 349.0000 1.0000
57.2500 325.0000 1.0000
57.2600 342.0000 1.0000
57.2700 327.0000 1.0000
57.2800 326.0000 1.0000
57.2900 333.0000 1.0000
57.3000 310.0000 1.0000
57.3100 336.0000 1.0000
57.3200 364.0000 1.0000
57.3300 369.0000 1.0000
57.3400 329.0000 1.0000
57.3500 327.0000 1.0000
57.3600 333.0000 1.0000
57.3700 333.0000 1.0000
57.3800 326.0000 1.0000
57.3900 349.0000 1.0000
57.4000 357.0000 1.0000
57.4100 335.0000 1.0000
57.4200 330.0000 1.0000
57.4300 336.0000 1.0000
57.4400 337.0000 1.0000
57.4500 364.0000 1.0000
57.4600 357.0000 1.0000
57.4700 346.0000 1.0000
57.4800 341.0000 1.0000
57.4900 346.0000 1.0000
57.5000 341.0000 1.0000
57.5100 379.0000 1.0000
57.5200 376.0000 1.0000
57.5300 373.0000 1.0000
57.5400 365.0000 1.0000
57.5500 356.0000 1.0000
57.5600 354.0000 1.0000
57.5700 341.0000 1.0000
57.5800 341.0000 1.0000
57.5900 329.0000 1.0000
57.6000 336.0000 1.0000
57.6100 344.0000 1.0000
57.6200 348.0000 1.0000
57.6300 340.0000 1.0000
57.6400 335.0000 1.0000
57.6500 347.0000 1.0000
57.6600 351.0000 1.0000
57.6700 337.0000 1.0000
57.6800 339.0000 1.0000
57.6900 343.0000 1.0000
57.7000 330.0000 1.0000
57.7100 330.0000 1.0000
57.7200 343.0000 1.0000
57.7300 365.0000 1.0000
57.7400 332.0000 1.0000
57.7500 342.0000 1.0000
57.7600 365.0000 1.0000
57.7700 327.0000 1.0000
57.7800 324.0000 1.0000
57.7900 322.0000 1.0000
57.8000 347.0000 1.0000
57.8100 342.0000 1.0000
57.8200 312.0000 1.0000
57.8300 337.0000 1.0000
57.8400 335.0000 1.0000
57.8500 322.0000 1.0000
57.8600 314.0000 1.0000
57.8700 349.0000 1.0000
57.8800 338.0000 1.0000
57.8900 328.0000 1.0000
57.9000 335.0000 1.0000
57.9100 325.0000 1.0000
57.9200 335.0000 1.0000
57.9300 325.0000 1.0000
57.9400 336.0000 1.0000
57.9500 297.0000 1.0000
57.9600 329.0000 1.0000
57.9700 313.0000 1.0000
57.9800 291.0000 1.0000
57.9900 302.0000 1.0000
58.0000 291.0000 1.0000
58.0100 279.0000 1.0000
58.0200 330.0000 1.0000
58.0300 308.0000 1.0000
58.0400 322.0000 1.0000
58.0500 305.0000 1.0000
58.0600 326.0000 1.0000
58.0700 329.0000 1.0000
58.0800 328.0000 1.0000
58.0900 341.0000 1.0000
58.1000 320.0000 1.0000
58.1100 338.0000 1.0000
58.1200 334.0000 1.0000
58.1300 326.0000 1.0000
58.1400 326.0000 1.0000
58.1500 299.0000 1.0000
58.1600 326.0000 1.0000
58.1700 332.0000 1.0000
58.1800 305.0000 1.0000
58.1900 330.0000 1.0000
58.2000 336.0000 1.0000
58.2100 318.0000 1.0000
58.2200 317.0000 1.0000
58.2300 316.0000 1.0000
58.2400 326.0000 1.0000
58.2500 312.0000 1.0000
58.2600 315.0000 1.0000
58.2700 329.0000 1.0000
58.2800 286.0000 1.0000
58.2900 310.0000 1.0000
58.3000 313.0000 1.0000
58.3100 293.0000 1.0000
58.3200 311.0000 1.0000
58.3300 319.0000 1.0000
58.3400 315.0000 1.0000
58.3500 323.0000 1.0000
58.3600 303.0000 1.0000
58.3700 313.0000 1.0000
58.3800 333.0000 1.0000
58.3900 334.0000 1.0000
58.4000 319.0000 1.0000
58.4100 298.0000 1.0000
58.4200 331.0000 1.0000
58.4300 323.0000 1.0000
58.4400 320.0000 1.0000
58.4500 332.0000 1.0000
58.4600 327.0000 1.0000
58.4700 319.0000 1.0000
58.4800 310.0000 1.0000
58.4900 335.0000 1.0000
58.5000 332.0000 1.0000
58.5100 315.0000 1.0000
58.5200 306.0000 1.0000
58.5300 362.0000 1.0000
58.5400 328.0000 1.0000
58.5500 311.0000 1.0000
58.5600 294.0000 1.0000
58.5700 320.0000 1.0000
58.5800 341.0000 1.0000
58.5900 301.0000 1.0000
58.6000 343.0000 1.0000
58.6100 332.0000 1.0000
58.6200 325.0000 1.0000
58.6300 348.0000 1.0000
58.6400 307.0000 1.0000
58.6500 326.0000 1.0000
58.6600 351.0000 1.0000
58.6700 328.0000 1.0000
58.6800 327.0000 1.0000
58.6900 333.0000 1.0000
58.7000 306.0000 1.0000
58.7100 324.0000 1.0000
58.7200 340.0000 1.0000
58.7300 324.0000 1.0000
58.7400 333.0000 1.0000
58.7500 358.0000 1.0000
58.7600 333.0000 1.0000
58.7700 301.0000 1.0000
58.7800 314.0000 1.0000
58.7900 327.0000 1.0000
58.8000 322.0000 1.0000
58.8100 310.0000 1.0000
58.8200 327.0000 1.0000
58.8300 316.0000 1.0000
58.8400 312.0000 1.0000
58.8500 321.0000 1.0000
58.8600 292.0000 1.0000
58.8700 314.0000 1.0000
58.8800 337.0000 1.0000
58.8900 297.0000 1.0000
58.9000 317.0000 1.0000
58.9100 333.0000 1.0000
58.9200 316.0000 1.0000
58.9300 364.0000 1.0000
58.9400 339.0000 1.0000
58.9500 316.0000 1.0000
58.9600 319.0000 1.0000
58.9700 296.0000 1.0000
58.9800 313.0000 1.0000
58.9900 332.0000 1.0000
59.0000 328.0000 1.0000
59.0100 340.0000 1.0000
59.0200 325.0000 1.0000
59.0300 313.0000 1.0000
59.0400 315.0000 1.0000
59.0500 322.0000 1.0000
59.0600 306.0000 1.0000
59.0700 311.0000 1.0000
59.0800 298.0000 1.0000
59.0900 305.0000 1.0000
59.1000 305.0000 1.0000
59.1100 307.0000 1.0000
59.1200 324.0000 1.0000
59.1300 292.0000 1.0000
59.1400 322.0000 1.0000
59.1500 343.0000 1.0000
59.1600 336.0000 1.0000
59.1700 279.0000 1.0000
59.1800 297.0000 1.0000
59.1900 307.0000 1.0000
59.2000 338.0000 1.0000
59.2100 305.0000 1.0000
59.2200 302.0000 1.0000
59.2300 310.0000 1.0000
59.2400 324.0000 1.0000
59.2500 292.0000 1.0000
59.2600 329.0000 1.0000
59.2700 330.0000 1.0000
59.2800 329.0000 1.0000
59.2900 315.0000 1.0000
59.3000 355.0000 1.0000
59.3100 355.0000 1.0000
59.3200 355.0000 1.0000
59.3300 306.0000 1.0000
59.3400 320.0000 1.0000
59.3500 323.0000 1.0000
59.3600 332.0000 1.0000
59.3700 332.0000 1.0000
59.3800 329.0000 1.0000
59.3900 312.0000 1.0000
59.4000 346.0000 1.0000
59.4100 306.0000 1.0000
59.4200 319.0000 1.0000
59.4300 327.0000 1.0000
59.4400 316.0000 1.0000
59.4500 297.0000 1.0000
59.4600 327.0000 1.0000
59.4700 306.0000 1.0000
59.4800 280.0000 1.0000
59.4900 317.0000 1.0000
59.5000 323.0000 1.0000
59.5100 327.0000 1.0000
59.5200 304.0000 1.0000
59.5300 304.0000 1.0000
59.5400 292.0000 1.0000
59.5500 299.0000 1.0000
59.5600 312.0000 1.0000
59.5700 342.0000 1.0000
59.5800 315.0000 1.0000
59.5900 333.0000 1.0000
59.6000 331.0000 1.0000
59.6100 331.0000 1.0000
59.6200 298.0000 1.0000
59.6300 320.0000 1.0000
59.6400 329.0000 1.0000
59.6500 316.0000 1.0000
59.6600 310.0000 1.0000
59.6700 330.0000 1.0000
59.6800 320.0000 1.0000
59.6900 326.0000 1.0000
59.7000 304.0000 1.0000
59.7100 313.0000 1.0000
59.7200 295.0000 1.0000
59.7300 313.0000 1.0000
59.7400 350.0000 1.0000
59.7500 298.0000 1.0000
59.7600 310.0000 1.0000
59.7700 315.0000 1.0000
59.7800 321.0000 1.0000
59.7900 304.0000 1.0000
59.8000 300.0000 1.0000
59.8100 326.0000 1.0000
59.8200 312.0000 1.0000
59.8300 327.0000 1.0000
59.8400 308.0000 1.0000
59.8500 335.0000 1.0000
59.8600 301.0000 1.0000
59.8700 308.0000 1.0000
59.8800 302.0000 1.0000
59.8900 310.0000 1.0000
59.9000 313.0000 1.0000
59.9100 320.0000 1.0000
59.9200 341.0000 1.0000
59.9300 332.0000 1.0000
59.9400 302.0000 1.0000
59.9500 324.0000 1.0000
59.9600 348.0000 1.0000
59.9700 315.0000 1.0000
59.9800 298.0000 1.0000
59.9900 326.0000 1.0000
60.0000 327.0000 1.0000
60.0100 320.0000 1.0000
60.0200 346.0000 1.0000
60.0300 342.0000 1.0000
60.0400 289.0000 1.0000
60.0500 319.0000 1.0000
60.0600 322.0000 1.0000
60.0700 322.0000 1.0000
60.0800 307.0000 1.0000
60.0900 342.0000 1.0000
60.1000 318.0000 1.0000
60.1100 291.0000 1.0000
60.1200 339.0000 1.0000
60.1300 291.0000 1.0000
60.1400 303.0000 1.0000
60.1500 337.0000 1.0000
60.1600 337.0000 1.0000
60.1700 304.0000 1.0000
60.1800 306.0000 1.0000
60.1900 326.0000 1.0000
60.2000 299.0000 1.0000
60.2100 322.0000 1.0000
60.2200 334.0000 1.0000
60.2300 315.0000 1.0000
60.2400 327.0000 1.0000
60.2500 330.0000 1.0000
60.2600 357.0000 1.0000
60.2700 317.0000 1.0000
60.2800 312.0000 1.0000
60.2900 328.0000 1.0000
60.3000 291.0000 1.0000
60.3100 318.0000 1.0000
60.3200 333.0000 1.0000
60.3300 305.0000 1.0000
60.3400 306.0000 1.0000
60.3500 315.0000 1.0000
60.3600 304.0000 1.0000
60.3700 290.0000 1.0000
60.3800 303.0000 1.0000
60.3900 316.0000 1.0000
60.4000 339.0000 1.0000
60.4100 331.0000 1.0000
60.4200 324.0000 1.0000
60.4300 317.0000 1.0000
60.4400 331.0000 1.0000
60.4500 358.0000 1.0000
60.4600 361.0000 1.0000
60.4700 328.0000 1.0000
60.4800 327.0000 1.0000
60.4900 329.0000 1.0000
60.5000 321.0000 1.0000
60.5100 295.0000 1.0000
60.5200 295.0000 1.0000
60.5300 313.0000 1.0000
60.5400 319.0000 1.0000
60.5500 299.0000 1.0000
60.5600 334.0000 1.0000
60.5700 333.0000 1.0000
60.5800 349.0000 1.0000
60.5900 282.0000 1.0000
60.6000 313.0000 1.0000
60.6100 292.0000 1.0000
60.6200 317.0000 1.0000
60.6300 325.0000 1.0000
60.6400 307.0000 1.0000
60.6500 327.0000 1.0000
60.6600 334.0000 1.0000
60.6700 316.0000 1.0000
60.6800 337.0000 1.0000
60.6900 329.0000 1.0000
60.7000 287.0000 1.0000
60.7100 342.0000 1.0000
60.7200 360.0000 1.0000
60.7300 344.0000 1.0000
60.7400 326.0000 1.0000
60.7500 308.0000 1.0000
60.7600 303.0000 1.0000
60.7700 293.0000 1.0000
60.7800 297.0000 1.0000
60.7900 337.0000 1.0000
60.8000 313.0000 1.0000
60.8100 286.0000 1.0000
60.8200 302.0000 1.0000
60.8300 309.0000 1.0000
60.8400 318.0000 1.0000
60.8500 320.0000 1.0000
60.8600 322.0000 1.0000
60.8700 324.0000 1.0000
60.8800 325.0000 1.0000
60.8900 319.0000 1.0000
60.9000 330.0000 1.0000
60.9100 327.0000 1.0000
60.9200 266.0000 1.0000
60.9300 319.0000 1.0000
60.9400 291.0000 1.0000
60.9500 327.0000 1.0000
60.9600 312.0000 1.0000
60.9700 333.0000 1.0000
60.9800 356.0000 1.0000
60.9900 326.0000 1.0000
61.0000 329.0000 1.0000
61.0100 328.0000 1.0000
61.0200 312.0000 1.0000
61.0300 340.0000 1.0000
61.0400 358.0000 1.0000
61.0500 320.0000 1.0000
61.0600 339.0000 1.0000
61.0700 335.0000 1.0000
61.0800 368.0000 1.0000
61.0900 399.0000 1.0000
61.1000 348.0000 1.0000
61.1100 332.0000 1.0000
61.1200 336.0000 1.0000
61.1300 334.0000 1.0000
61.1400 365.0000 1.0000
61.1500 355.0000 1.0000
61.1600 362.0000 1.0000
61.1700 379.0000 1.0000
61.1800 348.0000 1.0000
61.1900 350.0000 1.0000
61.2000 405.0000 1.0000
61.2100 365.0000 1.0000
61.2200 381.0000 1.0000
61.2300 379.0000 1.0000
61.2400 374.0000 1.0000
61.2500 389.0000 1.0000
61.2600 365.0000 1.0000
61.2700 383.0000 1.0000
61.2800 407.0000 1.0000
61.2900 426.0000 1.0000
61.3000 399.0000 1.0000
61.3100 386.0000 1.0000
61.3200 387.0000 1.0000
61.3300 448.0000 1.0000
61.3400 419.0000 1.0000
61.3500 416.0000 1.0000
61.3600 438.0000 1.0000
61.3700 443.0000 1.0000
61.3800 506.0000 1.0000
61.3900 513.0000 1.0000
61.4000 521.0000 1.0000
61.4100 485.0000 1.0000
61.4200 481.0000 1.0000
61.4300 519.0000 1.0000
61.4400 523.0000 1.0000
61.4500 535.0000 1.0000
61.4600 539.0000 1.0000
61.4700 541.0000 1.0000
61.4800 544.0000 1.0000
61.4900 571.0000 1.0000
61.5000 603.0000 1.0000
61.5100 585.0000 1.0000
61.5200 582.0000 1.0000
61.5300 601.0000 1.0000
61.5400 582.0000 1.0000
61.5500 619.0000 1.0000
61.5600 611.0000 1.0000
61.5700 573.0000 1.0000
61.5800 581.0000 1.0000
61.5900 571.0000 1.0000
61.6000 582.0000 1.0000
61.6100 542.0000 1.0000
61.6200 566.0000 1.0000
61.6300 593.0000 1.0000
61.6400 598.0000 1.0000
61.6500 518.0000 1.0000
61.6600 551.0000 1.0000
61.6700 536.0000 1.0000
61.6800 536.0000 1.0000
61.6900 528.0000 1.0000
61.7000 536.0000 1.0000
61.7100 521.0000 1.0000
61.7200 533.0000 1.0000
61.7300 506.0000 1.0000
61.7400 502.0000 1.0000
61.7500 549.0000 1.0000
61.7600 489.0000 1.0000
61.7700 484.0000 1.0000
61.7800 488.0000 1.0000
61.7900 459.0000 1.0000
61.8000 433.0000 1.0000
61.8100 427.0000 1.0000
61.8200 444.0000 1.0000
61.8300 455.0000 1.0000
61.8400 434.0000 1.0000
61.8500 412.0000 1.0000
61.8600 406.0000 1.0000
61.8700 426.0000 1.0000
61.8800 383.0000 1.0000
61.8900 386.0000 1.0000
61.9000 386.0000 1.0000
61.9100 393.0000 1.0000
61.9200 402.0000 1.0000
61.9300 382.0000 1.0000
61.9400 400.0000 1.0000
61.9500 381.0000 1.0000
61.9600 362.0000 1.0000
61.9700 391.0000 1.0000
61.9800 351.0000 1.0000
61.9900 385.0000 1.0000
62.0000 374.0000 1.0000
62.0100 361.0000 1.0000
62.0200 377.0000 1.0000
62.0300 366.0000 1.0000
62.0400 362.0000 1.0000
62.0500 351.0000 1.0000
62.0600 372.0000 1.0000
62.0700 374.0000 1.0000
62.0800 326.0000 1.0000
62.0900 351.0000 1.0000
62.1000 369.0000 1.0000
62.1100 374.0000 1.0000
62.1200 360.0000 1.0000
62.1300 350.0000 1.0000
62.1400 376.0000 1.0000
62.1500 350.0000 1.0000
62.1600 323.0000 1.0000
62.1700 367.0000 1.0000
62.1800 337.0000 1.0000
62.1900 318.0000 1.0000
62.2000 338.0000 1.0000
62.2100 320.0000 1.0000
62.2200 335.0000 1.0000
62.2300 356.0000 1.0000
62.2400 372.0000 1.0000
62.2500 349.0000 1.0000
62.2600 359.0000 1.0000
62.2700 365.0000 1.0000
62.2800 370.0000 1.0000
62.2900 351.0000 1.0000
62.3000 386.0000 1.0000
62.3100 344.0000 1.0000
62.3200 347.0000 1.0000
62.3300 380.0000 1.0000
62.3400 403.0000 1.0000
62.3500 395.0000 1.0000
62.3600 404.0000 1.0000
62.3700 400.0000 1.0000
62.3800 370.0000 1.0000
62.3900 400.0000 1.0000
62.4000 354.0000 1.0000
62.4100 346.0000 1.0000
62.4200 381.0000 1.0000
62.4300 375.0000 1.0000
62.4400 364.0000 1.0000
62.4500 377.0000 1.0000
62.4600 360.0000 1.0000
62.4700 384.0000 1.0000
62.4800 350.0000 1.0000
62.4900 375.0000 1.0000
62.5000 359.0000 1.0000
62.5100 375.0000 1.0000
62.5200 363.0000 1.0000
62.5300 330.0000 1.0000
62.5400 356.0000 1.0000
62.5500 339.0000 1.0000
62.5600 379.0000 1.0000
62.5700 349.0000 1.0000
62.5800 358.0000 1.0000
62.5900 370.0000 1.0000
62.6000 358.0000 1.0000
62.6100 357.0000 1.0000
62.6200 361.0000 1.0000
62.6300 359.0000 1.0000
62.6400 343.0000 1.0000
62.6500 322.0000 1.0000
62.6600 348.0000 1.0000
62.6700 348.0000 1.0000
62.6800 323.0000 1.0000
62.6900 335.0000 1.0000
62.7000 296.0000 1.0000
62.7100 314.0000 1.0000
62.7200 313.0000 1.0000
62.7300 329.0000 1.0000
62.7400 329.0000 1.0000
62.7500 302.0000 1.0000
62.7600 325.0000 1.0000
62.7700 302.0000 1.0000
62.7800 327.0000 1.0000
62.7900 332.0000 1.0000
62.8000 339.0000 1.0000
62.8100 304.0000 1.0000
62.8200 318.0000 1.0000
62.8300 317.0000 1.0000
62.8400 321.0000 1.0000
62.8500 300.0000 1.0000
62.8600 302.0000 1.0000
62.8700 294.0000 1.0000
62.8800 315.0000 1.0000
62.8900 314.0000 1.0000
62.9000 328.0000 1.0000
62.9100 332.0000 1.0000
62.9200 276.0000 1.0000
62.9300 322.0000 1.0000
62.9400 338.0000 1.0000
62.9500 311.0000 1.0000
62.9600 321.0000 1.0000
62.9700 336.0000 1.0000
62.9800 331.0000 1.0000
62.9900 303.0000 1.0000
63.0000 347.0000 1.0000
63.0100 335.0000 1.0000
63.0200 321.0000 1.0000
63.0300 317.0000 1.0000
63.0400 322.0000 1.0000
63.0500 308.0000 1.0000
63.0600 324.0000 1.0000
63.0700 326.0000 1.0000
63.0800 332.0000 1.0000
63.0900 336.0000 1.0000
63.1000 332.0000 1.0000
63.1100 291.0000 1.0000
63.1200 323.0000 1.0000
63.1300 339.0000 1.0000
63.1400 293.0000 1.0000
63.1500 328.0000 1.0000
63.1600 315.0000 1.0000
63.1700 312.0000 1.0000
63.1800 342.0000 1.0000
63.1900 329.0000 1.0000
63.2000 343.0000 1.0000
63.2100 320.0000 1.0000
63.2200 290.0000 1.0000
63.2300 314.0000 1.0000
63.2400 307.0000 1.0000
63.2500 330.0000 1.0000
63.2600 332.0000 1.0000
63.2700 330.0000 1.0000
63.2800 328.0000 1.0000
63.2900 347.0000 1.0000
63.3000 347.0000 1.0000
63.3100 306.0000 1.0000
63.3200 299.0000 1.0000
63.3300 336.0000 1.0000
63.3400 304.0000 1.0000
63.3500 289.0000 1.0000
63.3600 299.0000 1.0000
63.3700 329.0000 1.0000
63.3800 331.0000 1.0000
63.3900 352.0000 1.0000
63.4000 324.0000 1.0000
63.4100 339.0000 1.0000
63.4200 325.0000 1.0000
63.4300 332.0000 1.0000
63.4400 282.0000 1.0000
63.4500 307.0000 1.0000
63.4600 337.0000 1.0000
63.4700 320.0000 1.0000
63.4800 344.0000 1.0000
63.4900 322.0000 1.0000
63.5000 316.0000 1.0000
63.5100 308.0000 1.0000
63.5200 312.0000 1.0000
63.5300 347.0000 1.0000
63.5400 339.0000 1.0000
63.5500 307.0000 1.0000
63.5600 344.0000 1.0000
63.5700 340.0000 1.0000
63.5800 346.0000 1.0000
63.5900 325.0000 1.0000
63.6000 345.0000 1.0000
63.6100 288.0000 1.0000
63.6200 343.0000 1.0000
63.6300 326.0000 1.0000
63.6400 331.0000 1.0000
63.6500 338.0000 1.0000
63.6600 327.0000 1.0000
63.6700 316.0000 1.0000
63.6800 335.0000 1.0000
63.6900 347.0000 1.0000
63.7000 373.0000 1.0000
63.7100 357.0000 1.0000
63.7200 377.0000 1.0000
63.7300 366.0000 1.0000
63.7400 343.0000 1.0000
63.7500 379.0000 1.0000
63.7600 384.0000 1.0000
63.7700 387.0000 1.0000
63.7800 359.0000 1.0000
63.7900 397.0000 1.0000
63.8000 377.0000 1.0000
63.8100 445.0000 1.0000
63.8200 446.0000 1.0000
63.8300 451.0000 1.0000
63.8400 459.0000 1.0000
63.8500 476.0000 1.0000
63.8600 489.0000 1.0000
63.8700 498.0000 1.0000
63.8800 509.0000 1.0000
63.8900 544.0000 1.0000
63.9000 588.0000 1.0000
63.9100 583.0000 1.0000
63.9200 567.0000 1.0000
63.9300 576.0000 1.0000
63.9400 564.0000 1.0000
63.9500 598.0000 1.0000
63.9600 560.0000 1.0000
63.9700 599.0000 1.0000
63.9800 553.0000 1.0000
63.9900 571.0000 1.0000
64.0000 559.0000 1.0000
64.0100 491.0000 1.0000
64.0200 519.0000 1.0000
64.0300 506.0000 1.0000
64.0400 470.0000 1.0000
64.0500 475.0000 1.0000
64.0600 476.0000 1.0000
64.0700 494.0000 1.0000
64.0800 478.0000 1.0000
64.0900 507.0000 1.0000
64.1000 515.0000 1.0000
64.1100 510.0000 1.0000
64.1200 548.0000 1.0000
64.1300 498.0000 1.0000
64.1400 462.0000 1.0000
64.1500 424.0000 1.0000
64.1600 464.0000 1.0000
64.1700 434.0000 1.0000
64.1800 449.0000 1.0000
64.1900 409.0000 1.0000
64.2000 454.0000 1.0000
64.2100 386.0000 1.0000
64.2200 343.0000 1.0000
64.2300 378.0000 1.0000
64.2400 383.0000 1.0000
64.2500 362.0000 1.0000
64.2600 380.0000 1.0000
64.2700 330.0000 1.0000
64.2800 353.0000 1.0000
64.2900 351.0000 1.0000
64.3000 372.0000 1.0000
64.3100 341.0000 1.0000
64.3200 335.0000 1.0000
64.3300 357.0000 1.0000
64.3400 352.0000 1.0000
64.3500 339.0000 1.0000
64.3600 376.0000 1.0000
64.3700 348.0000 1.0000
64.3800 337.0000 1.0000
64.3900 317.0000 1.0000
64.4000 333.0000 1.0000
64.4100 313.0000 1.0000
64.4200 326.0000 1.0000
64.4300 331.0000 1.0000
64.4400 321.0000 1.0000
64.4500 340.0000 1.0000
64.4600 335.0000 1.0000
64.4700 336.0000 1.0000
64.4800 335.0000 1.0000
64.4900 326.0000 1.0000
64.5000 344.0000 1.0000
64.5100 309.0000 1.0000
64.5200 319.0000 1.0000
64.5300 321.0000 1.0000
64.5400 343.0000 1.0000
64.5500 315.0000 1.0000
64.5600 342.0000 1.0000
64.5700 323.0000 1.0000
64.5800 311.0000 1.0000
64.5900 309.0000 1.0000
64.6000 325.0000 1.0000
64.6100 319.0000 1.0000
64.6200 304.0000 1.0000
64.6300 331.0000 1.0000
64.6400 311.0000 1.0000
64.6500 321.0000 1.0000
64.6600 327.0000 1.0000
64.6700 344.0000 1.0000
64.6800 302.0000 1.0000
64.6900 337.0000 1.0000
64.7000 330.0000 1.0000
64.7100 314.0000 1.0000
64.7200 319.0000 1.0000
64.7300 330.0000 1.0000
64.7400 328.0000 1.0000
64.7500 336.0000 1.0000
64.7600 327.0000 1.0000
64.7700 317.0000 1.0000
64.7800 308.0000 1.0000
64.7900 308.0000 1.0000
64.8000 339.0000 1.0000
64.8100 278.0000 1.0000
64.8200 317.0000 1.0000
64.8300 333.0000 1.0000
64.8400 289.0000 1.0000
64.8500 303.0000 1.0000
64.8600 329.0000 1.0000
64.8700 317.0000 1.0000
64.8800 322.0000 1.0000
64.8900 365.0000 1.0000
64.9000 347.0000 1.0000
64.9100 333.0000 1.0000
64.9200 327.0000 1.0000
64.9300 340.0000 1.0000
64.9400 338.0000 1.0000
64.9500 337.0000 1.0000
64.9600 335.0000 1.0000
64.9700 321.0000 1.0000
64.9800 327.0000 1.0000
64.9900 332.0000 1.0000
65.0000 319.0000 1.0000
65.0100 330.0000 1.0000
65.0200 336.0000 1.0000
65.0300 332.0000 1.0000
65.0400 338.0000 1.0000
65.0500 331.0000 1.0000
65.0600 352.0000 1.0000
65.0700 345.0000 1.0000
65.0800 347.0000 1.0000
65.0900 339.0000 1.0000
65.1000 347.0000 1.0000
65.1100 337.0000 1.0000
65.1200 363.0000 1.0000
65.1300 352.0000 1.0000
65.1400 376.0000 1.0000
65.1500 380.0000 1.0000
65.1600 401.0000 1.0000
65.1700 341.0000 1.0000
65.1800 364.0000 1.0000
65.1900 371.0000 1.0000
65.2000 378.0000 1.0000
65.2100 394.0000 1.0000
65.2200 430.0000 1.0000
65.2300 414.0000 1.0000
65.2400 396.0000 1.0000
65.2500 455.0000 1.0000
65.2600 425.0000 1.0000
65.2700 437.0000 1.0000
65.2800 467.0000 1.0000
65.2900 493.0000 1.0000
65.3000 479.0000 1.0000
65.3100 509.0000 1.0000
65.3200 534.0000 1.0000
65.3300 542.0000 1.0000
65.3400 511.0000 1.0000
65.3500 522.0000 1.0000
65.3600 569.0000 1.0000
65.3700 549.0000 1.0000
65.3800 586.0000 1.0000
65.3900 612.0000 1.0000
65.4000 601.0000 1.0000
65.4100 628.0000 1.0000
65.4200 692.0000 1.0000
65.4300 728.0000 1.0000
65.4400 727.0000 1.0000
65.4500 772.0000 1.0000
65.4600 785.0000 1.0000
65.4700 874.0000 1.0000
65.4800 885.0000 1.0000
65.4900 938.0000 1.0000
65.5000 967.0000 1.0000
65.5100 919.0000 1.0000
65.5200 988.0000 1.0000
65.5300 974.0000 1.0000
65.5400 1004.0000 1.0000
65.5500 1028.0000 1.0000
65.5600 1011.0000 1.0000
65.5700 973.0000 1.0000
65.5800 993.0000 1.0000
65.5900 987.0000 1.0000
65.6000 940.0000 1.0000
65.6100 950.0000 1.0000
65.6200 863.0000 1.0000
65.6300 815.0000 1.0000
65.6400 878.0000 1.0000
65.6500 881.0000 1.0000
65.6600 849.0000 1.0000
65.6700 823.0000 1.0000
65.6800 783.0000 1.0000
65.6900 753.0000 1.0000
65.7000 770.0000 1.0000
65.7100 756.0000 1.0000
65.7200 746.0000 1.0000
65.7300 770.0000 1.0000
65.7400 731.0000 1.0000
65.7500 729.0000 1.0000
65.7600 714.0000 1.0000
65.7700 686.0000 1.0000
65.7800 635.0000 1.0000
65.7900 608.0000 1.0000
65.8000 608.0000 1.0000
65.8100 553.0000 1.0000
65.8200 544.0000 1.0000
65.8300 527.0000 1.0000
65.8400 527.0000 1.0000
65.8500 517.0000 1.0000
65.8600 458.0000 1.0000
65.8700 464.0000 1.0000
65.8800 469.0000 1.0000
65.8900 451.0000 1.0000
65.9000 478.0000 1.0000
65.9100 428.0000 1.0000
65.9200 414.0000 1.0000
65.9300 408.0000 1.0000
65.9400 413.0000 1.0000
65.9500 404.0000 1.0000
65.9600 424.0000 1.0000
65.9700 416.0000 1.0000
65.9800 390.0000 1.0000
65.9900 391.0000 1.0000
66.0000 367.0000 1.0000
66.0100 356.0000 1.0000
66.0200 337.0000 1.0000
66.0300 365.0000 1.0000
66.0400 381.0000 1.0000
66.0500 371.0000 1.0000
66.0600 363.0000 1.0000
66.0700 359.0000 1.0000
66.0800 365.0000 1.0000
66.0900 349.0000 1.0000
66.1000 360.0000 1.0000
66.1100 350.0000 1.0000
66.1200 347.0000 1.0000
66.1300 339.0000 1.0000
66.1400 313.0000 1.0000
66.1500 326.0000 1.0000
66.1600 301.0000 1.0000
66.1700 323.0000 1.0000
66.1800 345.0000 1.0000
66.1900 336.0000 1.0000
66.2000 304.0000 1.0000
66.2100 336.0000 1.0000
66.2200 337.0000 1.0000
66.2300 325.0000 1.0000
66.2400 329.0000 1.0000
66.2500 322.0000 1.0000
66.2600 324.0000 1.0000
66.2700 313.0000 1.0000
66.2800 333.0000 1.0000
66.2900 359.0000 1.0000
66.3000 322.0000 1.0000
66.3100 319.0000 1.0000
66.3200 324.0000 1.0000
66.3300 327.0000 1.0000
66.3400 315.0000 1.0000
66.3500 300.0000 1.0000
66.3600 307.0000 1.0000
66.3700 322.0000 1.0000
66.3800 306.0000 1.0000
66.3900 333.0000 1.0000
66.4000 308.0000 1.0000
66.4100 313.0000 1.0000
66.4200 308.0000 1.0000
66.4300 322.0000 1.0000
66.4400 309.0000 1.0000
66.4500 309.0000 1.0000
66.4600 305.0000 1.0000
66.4700 292.0000 1.0000
66.4800 296.0000 1.0000
66.4900 302.0000 1.0000
66.5000 289.0000 1.0000
66.5100 272.0000 1.0000
66.5200 303.0000 1.0000
66.5300 292.0000 1.0000
66.5400 303.0000 1.0000
66.5500 289.0000 1.0000
66.5600 293.0000 1.0000
66.5700 301.0000 1.0000
66.5800 266.0000 1.0000
66.5900 299.0000 1.0000
66.6000 317.0000 1.0000
66.6100 309.0000 1.0000
66.6200 293.0000 1.0000
66.6300 295.0000 1.0000
66.6400 296.0000 1.0000
66.6500 309.0000 1.0000
66.6600 289.0000 1.0000
66.6700 324.0000 1.0000
66.6800 301.0000 1.0000
66.6900 287.0000 1.0000
66.7000 296.0000 1.0000
66.7100 286.0000 1.0000
66.7200 271.0000 1.0000
66.7300 299.0000 1.0000
66.7400 265.0000 1.0000
66.7500 295.0000 1.0000
66.7600 303.0000 1.0000
66.7700 311.0000 1.0000
66.7800 290.0000 1.0000
66.7900 292.0000 1.0000
66.8000 303.0000 1.0000
66.8100 303.0000 1.0000
66.8200 278.0000 1.0000
66.8300 316.0000 1.0000
66.8400 294.0000 1.0000
66.8500 305.0000 1.0000
66.8600 317.0000 1.0000
66.8700 323.0000 1.0000
66.8800 307.0000 1.0000
66.8900 280.0000 1.0000
66.9000 309.0000 1.0000
66.9100 306.0000 1.0000
66.9200 267.0000 1.0000
66.9300 278.0000 1.0000
66.9400 253.0000 1.0000
66.9500 300.0000 1.0000
66.9600 326.0000 1.0000
66.9700 324.0000 1.0000
66.9800 303.0000 1.0000
66.9900 264.0000 1.0000
67.0000 266.0000 1.0000
67.0100 291.0000 1.0000
67.0200 288.0000 1.0000
67.0300 280.0000 1.0000
67.0400 283.0000 1.0000
67.0500 295.0000 1.0000
67.0600 299.0000 1.0000
67.0700 295.0000 1.0000
67.0800 309.0000 1.0000
67.0900 300.0000 1.0000
67.1000 330.0000 1.0000
67.1100 307.0000 1.0000
67.1200 306.0000 1.0000
67.1300 300.0000 1.0000
67.1400 280.0000 1.0000
67.1500 309.0000 1.0000
67.1600 280.0000 1.0000
67.1700 282.0000 1.0000
67.1800 273.0000 1.0000
67.1900 285.0000 1.0000
67.2000 294.0000 1.0000
67.2100 287.0000 1.0000
67.2200 302.0000 1.0000
67.2300 309.0000 1.0000
67.2400 286.0000 1.0000
67.2500 327.0000 1.0000
67.2600 297.0000 1.0000
67.2700 289.0000 1.0000
67.2800 281.0000 1.0000
67.2900 286.0000 1.0000
67.3000 285.0000 1.0000
67.3100 300.0000 1.0000
67.3200 305.0000 1.0000
67.3300 320.0000 1.0000
67.3400 284.0000 1.0000
67.3500 266.0000 1.0000
67.3600 277.0000 1.0000
67.3700 278.0000 1.0000
67.3800 297.0000 1.0000
67.3900 297.0000 1.0000
67.4000 294.0000 1.0000
67.4100 315.0000 1.0000
67.4200 301.0000 1.0000
67.4300 307.0000 1.0000
67.4400 325.0000 1.0000
67.4500 308.0000 1.0000
67.4600 299.0000 1.0000
67.4700 280.0000 1.0000
67.4800 288.0000 1.0000
67.4900 283.0000 1.0000
67.5000 290.0000 1.0000
67.5100 329.0000 1.0000
67.5200 297.0000 1.0000
67.5300 300.0000 1.0000
67.5400 287.0000 1.0000
67.5500 321.0000 1.0000
67.5600 287.0000 1.0000
67.5700 271.0000 1.0000
67.5800 321.0000 1.0000
67.5900 308.0000 1.0000
67.6000 268.0000 1.0000
67.6100 297.0000 1.0000
67.6200 281.0000 1.0000
67.6300 284.0000 1.0000
67.6400 271.0000 1.0000
67.6500 255.0000 1.0000
67.6600 270.0000 1.0000
67.6700 270.0000 1.0000
67.6800 304.0000 1.0000
67.6900 292.0000 1.0000
67.7000 286.0000 1.0000
67.7100 277.0000 1.0000
67.7200 289.0000 1.0000
67.7300 279.0000 1.0000
67.7400 286.0000 1.0000
67.7500 288.0000 1.0000
67.7600 299.0000 1.0000
67.7700 305.0000 1.0000
67.7800 321.0000 1.0000
67.7900 312.0000 1.0000
67.8000 291.0000 1.0000
67.8100 290.0000 1.0000
67.8200 297.0000 1.0000
67.8300 306.0000 1.0000
67.8400 290.0000 1.0000
67.8500 302.0000 1.0000
67.8600 273.0000 1.0000
67.8700 285.0000 1.0000
67.8800 270.0000 1.0000
67.8900 277.0000 1.0000
67.9000 301.0000 1.0000
67.9100 270.0000 1.0000
67.9200 299.0000 1.0000
67.9300 280.0000 1.0000
67.9400 277.0000 1.0000
67.9500 259.0000 1.0000
67.9600 302.0000 1.0000
67.9700 296.0000 1.0000
67.9800 299.0000 1.0000
67.9900 317.0000 1.0000
68.0000 299.0000 1.0000
68.0100 290.0000 1.0000
68.0200 315.0000 1.0000
68.0300 293.0000 1.0000
68.0400 316.0000 1.0000
68.0500 303.0000 1.0000
68.0600 294.0000 1.0000
68.0700 276.0000 1.0000
68.0800 293.0000 1.0000
68.0900 310.0000 1.0000
68.1000 279.0000 1.0000
68.1100 307.0000 1.0000
68.1200 296.0000 1.0000
68.1300 285.0000 1.0000
68.1400 279.0000 1.0000
68.1500 293.0000 1.0000
68.1600 284.0000 1.0000
68.1700 278.0000 1.0000
68.1800 285.0000 1.0000
68.1900 279.0000 1.0000
68.2000 305.0000 1.0000
68.2100 295.0000 1.0000
68.2200 322.0000 1.0000
68.2300 264.0000 1.0000
68.2400 264.0000 1.0000
68.2500 266.0000 1.0000
68.2600 277.0000 1.0000
68.2700 285.0000 1.0000
68.2800 279.0000 1.0000
68.2900 273.0000 1.0000
68.3000 299.0000 1.0000
68.3100 274.0000 1.0000
68.3200 283.0000 1.0000
68.3300 288.0000 1.0000
68.3400 302.0000 1.0000
68.3500 272.0000 1.0000
68.3600 314.0000 1.0000
68.3700 303.0000 1.0000
68.3800 297.0000 1.0000
68.3900 305.0000 1.0000
68.4000 290.0000 1.0000
68.4100 284.0000 1.0000
68.4200 261.0000 1.0000
68.4300 293.0000 1.0000
68.4400 307.0000 1.0000
68.4500 280.0000 1.0000
68.4600 288.0000 1.0000
68.4700 292.0000 1.0000
68.4800 279.0000 1.0000
68.4900 277.0000 1.0000
68.5000 261.0000 1.0000
68.5100 311.0000 1.0000
68.5200 297.0000 1.0000
68.5300 293.0000 1.0000
68.5400 276.0000 1.0000
68.5500 287.0000 1.0000
68.5600 293.0000 1.0000
68.5700 295.0000 1.0000
68.5800 287.0000 1.0000
68.5900 282.0000 1.0000
68.6000 255.0000 1.0000
68.6100 270.0000 1.0000
68.6200 267.0000 1.0000
68.6300 270.0000 1.0000
68.6400 285.0000 1.0000
68.6500 294.0000 1.0000
68.6600 261.0000 1.0000
68.6700 266.0000 1.0000
68.6800 287.0000 1.0000
68.6900 259.0000 1.0000
68.7000 282.0000 1.0000
68.7100 270.0000 1.0000
68.7200 304.0000 1.0000
68.7300 288.0000 1.0000
68.7400 296.0000 1.0000
68.7500 290.0000 1.0000
68.7600 281.0000 1.0000
68.7700 270.0000 1.0000
68.7800 278.0000 1.0000
68.7900 295.0000 1.0000
68.8000 302.0000 1.0000
68.8100 281.0000 1.0000
68.8200 289.0000 1.0000
68.8300 300.0000 1.0000
68.8400 273.0000 1.0000
68.8500 293.0000 1.0000
68.8600 276.0000 1.0000
68.8700 278.0000 1.0000
68.8800 286.0000 1.0000
68.8900 284.0000 1.0000
68.9000 287.0000 1.0000
68.9100 285.0000 1.0000
68.9200 313.0000 1.0000
68.9300 319.0000 1.0000
68.9400 285.0000 1.0000
68.9500 281.0000 1.0000
68.9600 304.0000 1.0000
68.9700 293.0000 1.0000
68.9800 294.0000 1.0000
68.9900 278.0000 1.0000
69.0000 277.0000 1.0000
69.0100 260.0000 1.0000
69.0200 288.0000 1.0000
69.0300 279.0000 1.0000
69.0400 290.0000 1.0000
69.0500 262.0000 1.0000
69.0600 259.0000 1.0000
69.0700 263.0000 1.0000
69.0800 292.0000 1.0000
69.0900 265.0000 1.0000
69.1000 312.0000 1.0000
69.1100 285.0000 1.0000
69.1200 273.0000 1.0000
69.1300 283.0000 1.0000
69.1400 253.0000 1.0000
69.1500 278.0000 1.0000
69.1600 291.0000 1.0000
69.1700 293.0000 1.0000
69.1800 293.0000 1.0000
69.1900 315.0000 1.0000
69.2000 291.0000 1.0000
69.2100 259.0000 1.0000
69.2200 267.0000 1.0000
69.2300 270.0000 1.0000
69.2400 270.0000 1.0000
69.2500 307.0000 1.0000
69.2600 294.0000 1.0000
69.2700 296.0000 1.0000
69.2800 282.0000 1.0000
69.2900 284.0000 1.0000
69.3000 273.0000 1.0000
69.3100 274.0000 1.0000
69.3200 273.0000 1.0000
69.3300 286.0000 1.0000
69.3400 274.0000 1.0000
69.3500 260.0000 1.0000
69.3600 290.0000 1.0000
69.3700 300.0000 1.0000
69.3800 270.0000 1.0000
69.3900 257.0000 1.0000
69.4000 279.0000 1.0000
69.4100 290.0000 1.0000
69.4200 284.0000 1.0000
69.4300 272.0000 1.0000
69.4400 289.0000 1.0000
69.4500 292.0000 1.0000
69.4600 287.0000 1.0000
69.4700 280.0000 1.0000
69.4800 279.0000 1.0000
69.4900 282.0000 1.0000
69.5000 298.0000 1.0000
69.5100 292.0000 1.0000
69.5200 272.0000 1.0000
69.5300 304.0000 1.0000
69.5400 276.0000 1.0000
69.5500 280.0000 1.0000
69.5600 262.0000 1.0000
69.5700 292.0000 1.0000
69.5800 287.0000 1.0000
69.5900 280.0000 1.0000
69.6000 278.0000 1.0000
69.6100 283.0000 1.0000
69.6200 263.0000 1.0000
69.6300 275.0000 1.0000
69.6400 251.0000 1.0000
69.6500 272.0000 1.0000
69.6600 279.0000 1.0000
69.6700 292.0000 1.0000
69.6800 286.0000 1.0000
69.6900 276.0000 1.0000
69.7000 284.0000 1.0000
69.7100 272.0000 1.0000
69.7200 293.0000 1.0000
69.7300 294.0000 1.0000
69.7400 301.0000 1.0000
69.7500 301.0000 1.0000
69.7600 298.0000 1.0000
69.7700 265.0000 1.0000
69.7800 294.0000 1.0000
69.7900 267.0000 1.0000
69.8000 281.0000 1.0000
69.8100 273.0000 1.0000
69.8200 285.0000 1.0000
69.8300 254.0000 1.0000
69.8400 273.0000 1.0000
69.8500 290.0000 1.0000
69.8600 276.0000 1.0000
69.8700 252.0000 1.0000
69.8800 244.0000 1.0000
69.8900 280.0000 1.0000
69.9000 253.0000 1.0000
69.9100 300.0000 1.0000
69.9200 269.0000 1.0000
69.9300 253.0000 1.0000
69.9400 261.0000 1.0000
69.9500 314.0000 1.0000
69.9600 258.0000 1.0000
69.9700 277.0000 1.0000
69.9800 288.0000 1.0000
69.9900 253.0000 1.0000
70.0000 281.0000 1.0000
*RAS_INT_END
*RAS_TEMPERATURE_START
*RAS_TEMPERATURE_END
*RAS_DATA_END
