*RAS_DATA_START
*RAS_HEADER_START
*DISP_FMT_X "%.2f"
*DISP_FMT_Y "%.0f"
*DISP_FULLSCALE "13485.0000000000"
*DISP_LINE_COLOR "255.0000000000"
*DISP_LINE_STYLE "0.0000000000"
*DISP_LINE_WIDTH "0.2500000000"
*DISP_NOTE "測定データ-7"
*DISP_OFFSET_Y "0.0000000000"
*DISP_PEAKSEARCH_UNIT_Y "cps"
*DISP_RANGE_BOTTOM "0.0000000000"
*DISP_RANGE_LEFT "20.0000000000"
*DISP_RANGE_LOGCUTOFF "0.0100000000"
*DISP_RANGE_RIGHT "70.0000000000"
*DISP_RANGE_TOP "13485.0000000000"
*DISP_SCALE_MODE_Y "0.0000000000"
*DISP_TAB_NAME "2θ/θ"
*DISP_TITLE_Y "強度"
*DISP_UNIT_Y "cps"
*DISP_WINDOW_NAME "MSG_MACROENGINE"
*FILE_COMMENT " "
*FILE_MD5 ""
*FILE_MEMO " "
*FILE_OPERATOR "Administrator"
*FILE_SAMPLE " "
*FILE_TYPE "RAS_RAW"
*FILE_USERGROUP "システムマネージャ"
*FILE_VERSION "1.0000000000"
*HW_ATTACHMENT_ID "ATT0025"
*HW_ATTACHMENT_NAME "標準|Standard"
*HW_COUNTER_ID-0 "CUT0025"
*HW_COUNTER_ID-1 "CUT0020"
*HW_COUNTER_ID-2 "CUT0020"
*HW_COUNTER_ID-3 "CSL0021"
*HW_COUNTER_ID-4 "CMC0021"
*HW_COUNTER_NAME-0 "D/teX Ultra|D/teX Ultra"
*HW_COUNTER_NAME-1 "None|None"
*HW_COUNTER_NAME-2 "None|None"
*HW_COUNTER_NAME-3 "BBM|BBM"
*HW_COUNTER_NAME-4 "検出器モノクロメータ|Detector monochromator"
*HW_COUNTER_SELECT_NAME "D/teX Ultra|D/teX Ultra"
*HW_GONIOMETER_ID "GON0023"
*HW_GONIOMETER_NAME "SmartLab|SmartLab"
*HW_GONIOMETER_RADIUS-0 "90.0"
*HW_GONIOMETER_RADIUS-1 "114.0"
*HW_GONIOMETER_RADIUS-2 "190.0"
*HW_GONIOMETER_RADIUS-3 "300.0"
*HW_GONIOMETER_RADIUS-4 "187.0"
*HW_GONIOMETER_RADIUS-5 "300.0"
*HW_GONIOMETER_RADIUS-6 "113.0"
*HW_GONIOMETER_RADIUS-7 "331.0"
*HW_I_OPT_ID-0 "CBO0021"
*HW_I_OPT_ID-1 "ICR0023"
*HW_I_OPT_ID-2 "ISL0021"
*HW_I_OPT_ID-3 "ISO0021"
*HW_I_OPT_ID-4 "IAD0021"
*HW_I_OPT_ID-5 "IPR0001"
*HW_I_OPT_NAME-0 "CBOユニット|CBO unit"
*HW_I_OPT_NAME-1 "標準入射光学ユニット|Standard incident optical unit"
*HW_I_OPT_NAME-2 "標準入射スリットボックス|Standard incident slit box"
*HW_I_OPT_NAME-3 "入射平行スリット|Incident parallel slit"
*HW_I_OPT_NAME-4 "長手制限スリット|Length limiting slit"
*HW_I_OPT_NAME-5 "None|None"
*HW_R_ATTENUATER_AUTOMODE "0"
*HW_R_OPT_ID-0 "RSS0021"
*HW_R_OPT_ID-1 "RCR0023"
*HW_R_OPT_ID-2 "RSO0021"
*HW_R_OPT_ID-3 "RRS0021"
*HW_R_OPT_ID-4 "ATN0021"
*HW_R_OPT_ID-5 "RFL0021"
*HW_R_OPT_ID-6 "RAD0021"
*HW_R_OPT_NAME-0 "標準受光スリットボックス1|Standard receiving slit box # 1"
*HW_R_OPT_NAME-1 "標準受光光学ユニット1|Standard receiving unit # 1"
*HW_R_OPT_NAME-2 "標準受光光学ユニット2|Standard receiving optical unit # 2"
*HW_R_OPT_NAME-3 "標準受光スリットボックス2|Standard receiving slit box # 2"
*HW_R_OPT_NAME-4 "標準アッテネータ|Standard Attenuator"
*HW_R_OPT_NAME-5 "Cu Kβ|Cu K-beta"
*HW_R_OPT_NAME-6 "調整用受光スリット|Alignment receiving slit"
*HW_SAMPLE_HOLDER_ID "SMP0023"
*HW_SAMPLE_HOLDER_NAME "標準Zステージ|Standard Z stage"
*HW_XG_CURRENT_MAX "50"
*HW_XG_CURRENT_MIN "2"
*HW_XG_CURRENT_RESOLUTION "1"
*HW_XG_CURRENT_UNIT "mA"
*HW_XG_FOCUS "1mm x 10mm"
*HW_XG_FOCUS_TYPE "Normal"
*HW_XG_ID ""
*HW_XG_NAME "3kW 封入管(ID:1200)|3kW Sealed tube(ID:1200)"
*HW_XG_TARGET_ATOMIC_NUMBER "29.0000000000"
*HW_XG_TARGET_NAME "Cu"
*HW_XG_TYPE "Hermetic"
*HW_XG_VOLTAGE_MAX "60"
*HW_XG_VOLTAGE_MIN "20"
*HW_XG_VOLTAGE_RESOLUTION "1"
*HW_XG_VOLTAGE_UNIT "kV"
*HW_XG_WATT_MAX "1.500"
*HW_XG_WATT_UNIT "kW"
*HW_XG_WAVE_LENGTH_ALPHA1 "1.540593"
*HW_XG_WAVE_LENGTH_ALPHA2 "1.544414"
*HW_XG_WAVE_LENGTH_BETA "1.392250"
*MEAS_COND_AXIS_NAME-0 "2θ/θ"
*MEAS_COND_AXIS_NAME-1 "2θ"
*MEAS_COND_AXIS_NAME-2 "ω"
*MEAS_COND_AXIS_NAME-3 "Z"
*MEAS_COND_AXIS_NAME-4 "2θ/ω"
*MEAS_COND_AXIS_NAME-5 "θs"
*MEAS_COND_AXIS_NAME-6 "θd"
*MEAS_COND_AXIS_NAME-7 "Ts"
*MEAS_COND_AXIS_NAME-8 "CBO選択スリット"
*MEAS_COND_AXIS_NAME-9 "M"
*MEAS_COND_AXIS_NAME-10 "入射平行スリット"
*MEAS_COND_AXIS_NAME-11 "入射スリット"
*MEAS_COND_AXIS_NAME-12 ""
*MEAS_COND_AXIS_NAME-13 "Zs"
*MEAS_COND_AXIS_NAME-14 "入射光学素子"
*MEAS_COND_AXIS_NAME-15 "長手制限スリット"
*MEAS_COND_AXIS_NAME-16 "センタースリット"
*MEAS_COND_AXIS_NAME-17 "フィルター"
*MEAS_COND_AXIS_NAME-18 "受光スリット1"
*MEAS_COND_AXIS_NAME-19 "受光スリット2"
*MEAS_COND_AXIS_NAME-20 "受光光学素子"
*MEAS_COND_AXIS_NAME-21 "受光平行スリット"
*MEAS_COND_AXIS_NAME-22 "調整用受光スリット"
*MEAS_COND_AXIS_NAME-23 ""
*MEAS_COND_AXIS_NAME-24 ""
*MEAS_COND_AXIS_NAME-25 "Zd"
*MEAS_COND_AXIS_NAME-26 "アッテネータ"
*MEAS_COND_AXIS_NAME-27 "検出器モノクロメータ"
*MEAS_COND_AXIS_NAME-28 "モノクロメータスリット"
*MEAS_COND_AXIS_NAME-29 "プライマリビーム"
*MEAS_COND_AXIS_NAME-30 "PHA"
*MEAS_COND_AXIS_NAME_INTERNAL-0 "TwoThetaTheta"
*MEAS_COND_AXIS_NAME_INTERNAL-1 "TwoTheta"
*MEAS_COND_AXIS_NAME_INTERNAL-2 "Omega"
*MEAS_COND_AXIS_NAME_INTERNAL-3 "Z"
*MEAS_COND_AXIS_NAME_INTERNAL-4 "TwoThetaOmega"
*MEAS_COND_AXIS_NAME_INTERNAL-5 "ThetaS"
*MEAS_COND_AXIS_NAME_INTERNAL-6 "ThetaD"
*MEAS_COND_AXIS_NAME_INTERNAL-7 "Ts"
*MEAS_COND_AXIS_NAME_INTERNAL-8 "CBO"
*MEAS_COND_AXIS_NAME_INTERNAL-9 "CBO-M"
*MEAS_COND_AXIS_NAME_INTERNAL-10 "IncidentSollerSlit"
*MEAS_COND_AXIS_NAME_INTERNAL-11 "IncidentSlitBox"
*MEAS_COND_AXIS_NAME_INTERNAL-12 "IncidentSlitBox-_Axis"
*MEAS_COND_AXIS_NAME_INTERNAL-13 "Zs"
*MEAS_COND_AXIS_NAME_INTERNAL-14 "IncidentMonochromator"
*MEAS_COND_AXIS_NAME_INTERNAL-15 "IncidentAxdSlit"
*MEAS_COND_AXIS_NAME_INTERNAL-16 "CenterSlit"
*MEAS_COND_AXIS_NAME_INTERNAL-17 "Filter"
*MEAS_COND_AXIS_NAME_INTERNAL-18 "ReceivingSlitBox1"
*MEAS_COND_AXIS_NAME_INTERNAL-19 "ReceivingSlitBox2"
*MEAS_COND_AXIS_NAME_INTERNAL-20 "ReceivingOptics"
*MEAS_COND_AXIS_NAME_INTERNAL-21 "ReceivingSollerSlit"
*MEAS_COND_AXIS_NAME_INTERNAL-22 "ReceivingAxdSlit"
*MEAS_COND_AXIS_NAME_INTERNAL-23 "ReceivingSlitBox1-_Axis"
*MEAS_COND_AXIS_NAME_INTERNAL-24 "ReceivingSlitBox2-_Axis"
*MEAS_COND_AXIS_NAME_INTERNAL-25 "ReceivingSlitBox2-Zd"
*MEAS_COND_AXIS_NAME_INTERNAL-26 "Attenuator"
*MEAS_COND_AXIS_NAME_INTERNAL-27 "CounterMonochromator"
*MEAS_COND_AXIS_NAME_INTERNAL-28 "CounterSlit"
*MEAS_COND_AXIS_NAME_INTERNAL-29 "IncidentPrimary"
*MEAS_COND_AXIS_NAME_INTERNAL-30 "PHA"
*MEAS_COND_AXIS_NAME_MAGICNO-0 "83951616.0000000000"
*MEAS_COND_AXIS_NAME_MAGICNO-1 "268632064.0000000000"
*MEAS_COND_AXIS_NAME_MAGICNO-2 "268500992.0000000000"
*MEAS_COND_AXIS_NAME_MAGICNO-3 "285278208.0000000000"
*MEAS_COND_AXIS_NAME_MAGICNO-4 "83951616.0000000000"
*MEAS_COND_AXIS_NAME_MAGICNO-5 "131072.0000000000"
*MEAS_COND_AXIS_NAME_MAGICNO-6 "131072.0000000000"
*MEAS_COND_AXIS_NAME_MAGICNO-7 "318898176.0000000000"
*MEAS_COND_AXIS_NAME_MAGICNO-8 "20971521.0000000000"
*MEAS_COND_AXIS_NAME_MAGICNO-9 "285343744.0000000000"
*MEAS_COND_AXIS_NAME_MAGICNO-10 "20971521.0000000000"
*MEAS_COND_AXIS_NAME_MAGICNO-11 "22020097.0000000000"
*MEAS_COND_AXIS_NAME_MAGICNO-12 "25165824.0000000000"
*MEAS_COND_AXIS_NAME_MAGICNO-13 "318898176.0000000000"
*MEAS_COND_AXIS_NAME_MAGICNO-14 "1.0000000000"
*MEAS_COND_AXIS_NAME_MAGICNO-15 "20971521.0000000000"
*MEAS_COND_AXIS_NAME_MAGICNO-16 "20971521.0000000000"
*MEAS_COND_AXIS_NAME_MAGICNO-17 "20971521.0000000000"
*MEAS_COND_AXIS_NAME_MAGICNO-18 "23068673.0000000000"
*MEAS_COND_AXIS_NAME_MAGICNO-19 "23068673.0000000000"
*MEAS_COND_AXIS_NAME_MAGICNO-20 "20971521.0000000000"
*MEAS_COND_AXIS_NAME_MAGICNO-21 "20971521.0000000000"
*MEAS_COND_AXIS_NAME_MAGICNO-22 "20971521.0000000000"
*MEAS_COND_AXIS_NAME_MAGICNO-23 "25165824.0000000000"
*MEAS_COND_AXIS_NAME_MAGICNO-24 "25165824.0000000000"
*MEAS_COND_AXIS_NAME_MAGICNO-25 "285343744.0000000000"
*MEAS_COND_AXIS_NAME_MAGICNO-26 "17301505.0000000000"
*MEAS_COND_AXIS_NAME_MAGICNO-27 "20971521.0000000000"
*MEAS_COND_AXIS_NAME_MAGICNO-28 "20971521.0000000000"
*MEAS_COND_AXIS_NAME_MAGICNO-29 "20971521.0000000000"
*MEAS_COND_AXIS_NAME_MAGICNO-30 "0.0000000000"
*MEAS_COND_AXIS_OFFSET-0 "-"
*MEAS_COND_AXIS_OFFSET-1 "-0.0310000000"
*MEAS_COND_AXIS_OFFSET-2 "0.5056000000"
*MEAS_COND_AXIS_OFFSET-3 "-"
*MEAS_COND_AXIS_OFFSET-4 "-"
*MEAS_COND_AXIS_OFFSET-5 "0.5056000000"
*MEAS_COND_AXIS_OFFSET-6 "-0.5366000000"
*MEAS_COND_AXIS_OFFSET-7 "-"
*MEAS_COND_AXIS_OFFSET-8 "-"
*MEAS_COND_AXIS_OFFSET-9 "-"
*MEAS_COND_AXIS_OFFSET-10 "-"
*MEAS_COND_AXIS_OFFSET-11 "-"
*MEAS_COND_AXIS_OFFSET-12 "-"
*MEAS_COND_AXIS_OFFSET-13 "-"
*MEAS_COND_AXIS_OFFSET-14 "-"
*MEAS_COND_AXIS_OFFSET-15 "-"
*MEAS_COND_AXIS_OFFSET-16 "-"
*MEAS_COND_AXIS_OFFSET-17 "-"
*MEAS_COND_AXIS_OFFSET-18 "-"
*MEAS_COND_AXIS_OFFSET-19 "-"
*MEAS_COND_AXIS_OFFSET-20 "-"
*MEAS_COND_AXIS_OFFSET-21 "-"
*MEAS_COND_AXIS_OFFSET-22 "-"
*MEAS_COND_AXIS_OFFSET-23 "-"
*MEAS_COND_AXIS_OFFSET-24 "-"
*MEAS_COND_AXIS_OFFSET-25 "-"
*MEAS_COND_AXIS_OFFSET-26 "-"
*MEAS_COND_AXIS_OFFSET-27 "-"
*MEAS_COND_AXIS_OFFSET-28 "-"
*MEAS_COND_AXIS_OFFSET-29 "-"
*MEAS_COND_AXIS_OFFSET-30 "-"
*MEAS_COND_AXIS_POSITION-0 "0.0000000000"
*MEAS_COND_AXIS_POSITION-1 "0.0000000000"
*MEAS_COND_AXIS_POSITION-2 "0.0000000000"
*MEAS_COND_AXIS_POSITION-3 "-2.9031400000"
*MEAS_COND_AXIS_POSITION-4 "0.0000000000"
*MEAS_COND_AXIS_POSITION-5 "0.0000000000"
*MEAS_COND_AXIS_POSITION-6 "0.0000000000"
*MEAS_COND_AXIS_POSITION-7 "-0.7498700000"
*MEAS_COND_AXIS_POSITION-8 "BB"
*MEAS_COND_AXIS_POSITION-9 "0.0000000000"
*MEAS_COND_AXIS_POSITION-10 "Soller_slit_5.0deg"
*MEAS_COND_AXIS_POSITION-11 "2/3deg"
*MEAS_COND_AXIS_POSITION-12 "2.2088000000"
*MEAS_COND_AXIS_POSITION-13 "-0.6412500000"
*MEAS_COND_AXIS_POSITION-14 "0.0000000000"
*MEAS_COND_AXIS_POSITION-15 "10.0mm"
*MEAS_COND_AXIS_POSITION-16 "None"
*MEAS_COND_AXIS_POSITION-17 "Cu_K-beta"
*MEAS_COND_AXIS_POSITION-18 "13.000mm"
*MEAS_COND_AXIS_POSITION-19 "13.000mm"
*MEAS_COND_AXIS_POSITION-20 "No_unit"
*MEAS_COND_AXIS_POSITION-21 "Soller_slit_5.0deg"
*MEAS_COND_AXIS_POSITION-22 "None"
*MEAS_COND_AXIS_POSITION-23 "13.0000000000"
*MEAS_COND_AXIS_POSITION-24 "13.0000000000"
*MEAS_COND_AXIS_POSITION-25 "0.0281300000"
*MEAS_COND_AXIS_POSITION-26 "Open"
*MEAS_COND_AXIS_POSITION-27 "None"
*MEAS_COND_AXIS_POSITION-28 "None"
*MEAS_COND_AXIS_POSITION-29 "None"
*MEAS_COND_AXIS_POSITION-30 "38.0000000000"
*MEAS_COND_AXIS_UNIT-0 "deg"
*MEAS_COND_AXIS_UNIT-1 "deg"
*MEAS_COND_AXIS_UNIT-2 "deg"
*MEAS_COND_AXIS_UNIT-3 "mm"
*MEAS_COND_AXIS_UNIT-4 "deg"
*MEAS_COND_AXIS_UNIT-5 "deg"
*MEAS_COND_AXIS_UNIT-6 "deg"
*MEAS_COND_AXIS_UNIT-7 "mm"
*MEAS_COND_AXIS_UNIT-8 ""
*MEAS_COND_AXIS_UNIT-9 "pulse"
*MEAS_COND_AXIS_UNIT-10 ""
*MEAS_COND_AXIS_UNIT-11 ""
*MEAS_COND_AXIS_UNIT-12 "mm"
*MEAS_COND_AXIS_UNIT-13 "mm"
*MEAS_COND_AXIS_UNIT-14 ""
*MEAS_COND_AXIS_UNIT-15 ""
*MEAS_COND_AXIS_UNIT-16 ""
*MEAS_COND_AXIS_UNIT-17 ""
*MEAS_COND_AXIS_UNIT-18 ""
*MEAS_COND_AXIS_UNIT-19 ""
*MEAS_COND_AXIS_UNIT-20 ""
*MEAS_COND_AXIS_UNIT-21 ""
*MEAS_COND_AXIS_UNIT-22 ""
*MEAS_COND_AXIS_UNIT-23 "mm"
*MEAS_COND_AXIS_UNIT-24 "mm"
*MEAS_COND_AXIS_UNIT-25 "mm"
*MEAS_COND_AXIS_UNIT-26 ""
*MEAS_COND_AXIS_UNIT-27 ""
*MEAS_COND_AXIS_UNIT-28 ""
*MEAS_COND_AXIS_UNIT-29 ""
*MEAS_COND_AXIS_UNIT-30 "div"
*MEAS_COND_COUNTER_CNTLOSS_CORR "0.0000000000"
*MEAS_COND_COUNTER_PHABASE "38.0000000000"
*MEAS_COND_COUNTER_PHAWINDOW "16.0000000000"
*MEAS_COND_COUNTER_PHA_UNIT "div"
*MEAS_COND_COUNTER_TAUDIFF "30.0000000000"
*MEAS_COND_COUNTER_TAUINT "0.0000000000"
*MEAS_COND_IRRADIATION_MODE "OFF"
*MEAS_COND_IRRADIATION_WIDTH ""
*MEAS_COND_OPT_ATTR "集中法"
*MEAS_COND_OPT_NAME "@集中法"
*MEAS_COND_UNSYMMETRIC_MODE "OFF"
*MEAS_COND_XG_CURRENT "30.0000000000"
*MEAS_COND_XG_VOLTAGE "40.0000000000"
*MEAS_COND_XG_WAVE_TYPE "Ka"
*MEAS_DATA_COUNT "5001.0000000000"
*MEAS_SCAN_AXIS_X "2θ/θ"
*MEAS_SCAN_AXIS_X_INTERNAL "TwoThetaTheta"
*MEAS_SCAN_END_TIME "07/27/23 21:58:36"
*MEAS_SCAN_MODE "CONTINUOUS"
*MEAS_SCAN_MONITOR "0"
*MEAS_SCAN_RESOLUTION_X "0.0002"
*MEAS_SCAN_SPEED "2.5"
*MEAS_SCAN_SPEED_UNIT "deg/min"
*MEAS_SCAN_START "20.0000000000"
*MEAS_SCAN_START_TIME "07/27/23 21:37:13"
*MEAS_SCAN_STEP "0.0100000000"
*MEAS_SCAN_STOP "70.0000000000"
*MEAS_SCAN_UNIT_X "deg"
*MEAS_SCAN_UNIT_Y "counts"
*RAS_HEADER_END
*RAS_INT_START
20.0000 998.0000 1.0000
20.0100 990.0000 1.0000
20.0200 1016.0000 1.0000
20.0300 1004.0000 1.0000
20.0400 968.0000 1.0000
20.0500 977.0000 1.0000
20.0600 892.0000 1.0000
20.0700 1004.0000 1.0000
20.0800 988.0000 1.0000
20.0900 942.0000 1.0000
20.1000 963.0000 1.0000
20.1100 961.0000 1.0000
20.1200 972.0000 1.0000
20.1300 959.0000 1.0000
20.1400 1004.0000 1.0000
20.1500 1005.0000 1.0000
20.1600 1019.0000 1.0000
20.1700 943.0000 1.0000
20.1800 1026.0000 1.0000
20.1900 988.0000 1.0000
20.2000 1009.0000 1.0000
20.2100 1042.0000 1.0000
20.2200 983.0000 1.0000
20.2300 952.0000 1.0000
20.2400 956.0000 1.0000
20.2500 947.0000 1.0000
20.2600 955.0000 1.0000
20.2700 975.0000 1.0000
20.2800 995.0000 1.0000
20.2900 983.0000 1.0000
20.3000 978.0000 1.0000
20.3100 1003.0000 1.0000
20.3200 1007.0000 1.0000
20.3300 969.0000 1.0000
20.3400 963.0000 1.0000
20.3500 984.0000 1.0000
20.3600 941.0000 1.0000
20.3700 971.0000 1.0000
20.3800 951.0000 1.0000
20.3900 929.0000 1.0000
20.4000 982.0000 1.0000
20.4100 990.0000 1.0000
20.4200 1018.0000 1.0000
20.4300 995.0000 1.0000
20.4400 1045.0000 1.0000
20.4500 929.0000 1.0000
20.4600 932.0000 1.0000
20.4700 987.0000 1.0000
20.4800 953.0000 1.0000
20.4900 974.0000 1.0000
20.5000 956.0000 1.0000
20.5100 978.0000 1.0000
20.5200 971.0000 1.0000
20.5300 937.0000 1.0000
20.5400 978.0000 1.0000
20.5500 1025.0000 1.0000
20.5600 942.0000 1.0000
20.5700 1001.0000 1.0000
20.5800 971.0000 1.0000
20.5900 931.0000 1.0000
20.6000 984.0000 1.0000
20.6100 1009.0000 1.0000
20.6200 1006.0000 1.0000
20.6300 1022.0000 1.0000
20.6400 966.0000 1.0000
20.6500 972.0000 1.0000
20.6600 972.0000 1.0000
20.6700 965.0000 1.0000
20.6800 963.0000 1.0000
20.6900 964.0000 1.0000
20.7000 969.0000 1.0000
20.7100 962.0000 1.0000
20.7200 975.0000 1.0000
20.7300 963.0000 1.0000
20.7400 966.0000 1.0000
20.7500 970.0000 1.0000
20.7600 969.0000 1.0000
20.7700 951.0000 1.0000
20.7800 968.0000 1.0000
20.7900 960.0000 1.0000
20.8000 935.0000 1.0000
20.8100 954.0000 1.0000
20.8200 979.0000 1.0000
20.8300 938.0000 1.0000
20.8400 966.0000 1.0000
20.8500 988.0000 1.0000
20.8600 998.0000 1.0000
20.8700 994.0000 1.0000
20.8800 942.0000 1.0000
20.8900 959.0000 1.0000
20.9000 944.0000 1.0000
20.9100 961.0000 1.0000
20.9200 991.0000 1.0000
20.9300 1002.0000 1.0000
20.9400 953.0000 1.0000
20.9500 952.0000 1.0000
20.9600 920.0000 1.0000
20.9700 1020.0000 1.0000
20.9800 1005.0000 1.0000
20.9900 940.0000 1.0000
21.0000 1004.0000 1.0000
21.0100 1013.0000 1.0000
21.0200 998.0000 1.0000
21.0300 1002.0000 1.0000
21.0400 984.0000 1.0000
21.0500 991.0000 1.0000
21.0600 1001.0000 1.0000
21.0700 944.0000 1.0000
21.0800 929.0000 1.0000
21.0900 917.0000 1.0000
21.1000 988.0000 1.0000
21.1100 933.0000 1.0000
21.1200 938.0000 1.0000
21.1300 957.0000 1.0000
21.1400 959.0000 1.0000
21.1500 992.0000 1.0000
21.1600 927.0000 1.0000
21.1700 987.0000 1.0000
21.1800 953.0000 1.0000
21.1900 929.0000 1.0000
21.2000 937.0000 1.0000
21.2100 930.0000 1.0000
21.2200 899.0000 1.0000
21.2300 959.0000 1.0000
21.2400 923.0000 1.0000
21.2500 959.0000 1.0000
21.2600 963.0000 1.0000
21.2700 922.0000 1.0000
21.2800 927.0000 1.0000
21.2900 939.0000 1.0000
21.3000 969.0000 1.0000
21.3100 988.0000 1.0000
21.3200 985.0000 1.0000
21.3300 914.0000 1.0000
21.3400 938.0000 1.0000
21.3500 894.0000 1.0000
21.3600 934.0000 1.0000
21.3700 962.0000 1.0000
21.3800 952.0000 1.0000
21.3900 910.0000 1.0000
21.4000 928.0000 1.0000
21.4100 965.0000 1.0000
21.4200 973.0000 1.0000
21.4300 958.0000 1.0000
21.4400 932.0000 1.0000
21.4500 948.0000 1.0000
21.4600 935.0000 1.0000
21.4700 970.0000 1.0000
21.4800 915.0000 1.0000
21.4900 937.0000 1.0000
21.5000 931.0000 1.0000
21.5100 915.0000 1.0000
21.5200 959.0000 1.0000
21.5300 924.0000 1.0000
21.5400 926.0000 1.0000
21.5500 957.0000 1.0000
21.5600 946.0000 1.0000
21.5700 965.0000 1.0000
21.5800 904.0000 1.0000
21.5900 963.0000 1.0000
21.6000 962.0000 1.0000
21.6100 946.0000 1.0000
21.6200 952.0000 1.0000
21.6300 963.0000 1.0000
21.6400 978.0000 1.0000
21.6500 945.0000 1.0000
21.6600 939.0000 1.0000
21.6700 933.0000 1.0000
21.6800 947.0000 1.0000
21.6900 946.0000 1.0000
21.7000 972.0000 1.0000
21.7100 942.0000 1.0000
21.7200 921.0000 1.0000
21.7300 936.0000 1.0000
21.7400 932.0000 1.0000
21.7500 954.0000 1.0000
21.7600 965.0000 1.0000
21.7700 938.0000 1.0000
21.7800 927.0000 1.0000
21.7900 970.0000 1.0000
21.8000 1002.0000 1.0000
21.8100 949.0000 1.0000
21.8200 980.0000 1.0000
21.8300 999.0000 1.0000
21.8400 952.0000 1.0000
21.8500 996.0000 1.0000
21.8600 936.0000 1.0000
21.8700 955.0000 1.0000
21.8800 940.0000 1.0000
21.8900 951.0000 1.0000
21.9000 922.0000 1.0000
21.9100 910.0000 1.0000
21.9200 977.0000 1.0000
21.9300 950.0000 1.0000
21.9400 959.0000 1.0000
21.9500 944.0000 1.0000
21.9600 919.0000 1.0000
21.9700 977.0000 1.0000
21.9800 927.0000 1.0000
21.9900 964.0000 1.0000
22.0000 941.0000 1.0000
22.0100 947.0000 1.0000
22.0200 948.0000 1.0000
22.0300 982.0000 1.0000
22.0400 899.0000 1.0000
22.0500 923.0000 1.0000
22.0600 920.0000 1.0000
22.0700 931.0000 1.0000
22.0800 923.0000 1.0000
22.0900 933.0000 1.0000
22.1000 929.0000 1.0000
22.1100 905.0000 1.0000
22.1200 985.0000 1.0000
22.1300 931.0000 1.0000
22.1400 966.0000 1.0000
22.1500 910.0000 1.0000
22.1600 927.0000 1.0000
22.1700 989.0000 1.0000
22.1800 928.0000 1.0000
22.1900 930.0000 1.0000
22.2000 958.0000 1.0000
22.2100 969.0000 1.0000
22.2200 920.0000 1.0000
22.2300 1016.0000 1.0000
22.2400 888.0000 1.0000
22.2500 925.0000 1.0000
22.2600 958.0000 1.0000
22.2700 905.0000 1.0000
22.2800 941.0000 1.0000
22.2900 944.0000 1.0000
22.3000 925.0000 1.0000
22.3100 943.0000 1.0000
22.3200 923.0000 1.0000
22.3300 949.0000 1.0000
22.3400 923.0000 1.0000
22.3500 945.0000 1.0000
22.3600 956.0000 1.0000
22.3700 942.0000 1.0000
22.3800 897.0000 1.0000
22.3900 932.0000 1.0000
22.4000 977.0000 1.0000
22.4100 946.0000 1.0000
22.4200 917.0000 1.0000
22.4300 980.0000 1.0000
22.4400 967.0000 1.0000
22.4500 919.0000 1.0000
22.4600 917.0000 1.0000
22.4700 901.0000 1.0000
22.4800 965.0000 1.0000
22.4900 897.0000 1.0000
22.5000 888.0000 1.0000
22.5100 892.0000 1.0000
22.5200 888.0000 1.0000
22.5300 903.0000 1.0000
22.5400 951.0000 1.0000
22.5500 939.0000 1.0000
22.5600 947.0000 1.0000
22.5700 948.0000 1.0000
22.5800 952.0000 1.0000
22.5900 871.0000 1.0000
22.6000 945.0000 1.0000
22.6100 915.0000 1.0000
22.6200 928.0000 1.0000
22.6300 877.0000 1.0000
22.6400 921.0000 1.0000
22.6500 926.0000 1.0000
22.6600 929.0000 1.0000
22.6700 956.0000 1.0000
22.6800 957.0000 1.0000
22.6900 924.0000 1.0000
22.7000 930.0000 1.0000
22.7100 882.0000 1.0000
22.7200 888.0000 1.0000
22.7300 965.0000 1.0000
22.7400 957.0000 1.0000
22.7500 943.0000 1.0000
22.7600 956.0000 1.0000
22.7700 915.0000 1.0000
22.7800 982.0000 1.0000
22.7900 932.0000 1.0000
22.8000 922.0000 1.0000
22.8100 953.0000 1.0000
22.8200 912.0000 1.0000
22.8300 959.0000 1.0000
22.8400 952.0000 1.0000
22.8500 943.0000 1.0000
22.8600 954.0000 1.0000
22.8700 957.0000 1.0000
22.8800 911.0000 1.0000
22.8900 909.0000 1.0000
22.9000 886.0000 1.0000
22.9100 960.0000 1.0000
22.9200 919.0000 1.0000
22.9300 910.0000 1.0000
22.9400 922.0000 1.0000
22.9500 954.0000 1.0000
22.9600 948.0000 1.0000
22.9700 844.0000 1.0000
22.9800 889.0000 1.0000
22.9900 947.0000 1.0000
23.0000 873.0000 1.0000
23.0100 908.0000 1.0000
23.0200 927.0000 1.0000
23.0300 954.0000 1.0000
23.0400 948.0000 1.0000
23.0500 944.0000 1.0000
23.0600 931.0000 1.0000
23.0700 933.0000 1.0000
23.0800 948.0000 1.0000
23.0900 888.0000 1.0000
23.1000 908.0000 1.0000
23.1100 917.0000 1.0000
23.1200 928.0000 1.0000
23.1300 953.0000 1.0000
23.1400 942.0000 1.0000
23.1500 917.0000 1.0000
23.1600 950.0000 1.0000
23.1700 1028.0000 1.0000
23.1800 927.0000 1.0000
23.1900 932.0000 1.0000
23.2000 912.0000 1.0000
23.2100 928.0000 1.0000
23.2200 927.0000 1.0000
23.2300 946.0000 1.0000
23.2400 932.0000 1.0000
23.2500 905.0000 1.0000
23.2600 923.0000 1.0000
23.2700 933.0000 1.0000
23.2800 929.0000 1.0000
23.2900 910.0000 1.0000
23.3000 924.0000 1.0000
23.3100 974.0000 1.0000
23.3200 945.0000 1.0000
23.3300 919.0000 1.0000
23.3400 959.0000 1.0000
23.3500 918.0000 1.0000
23.3600 925.0000 1.0000
23.3700 902.0000 1.0000
23.3800 950.0000 1.0000
23.3900 944.0000 1.0000
23.4000 895.0000 1.0000
23.4100 945.0000 1.0000
23.4200 921.0000 1.0000
23.4300 884.0000 1.0000
23.4400 896.0000 1.0000
23.4500 916.0000 1.0000
23.4600 913.0000 1.0000
23.4700 923.0000 1.0000
23.4800 950.0000 1.0000
23.4900 949.0000 1.0000
23.5000 885.0000 1.0000
23.5100 934.0000 1.0000
23.5200 930.0000 1.0000
23.5300 915.0000 1.0000
23.5400 922.0000 1.0000
23.5500 954.0000 1.0000
23.5600 955.0000 1.0000
23.5700 916.0000 1.0000
23.5800 884.0000 1.0000
23.5900 890.0000 1.0000
23.6000 923.0000 1.0000
23.6100 905.0000 1.0000
23.6200 1014.0000 1.0000
23.6300 915.0000 1.0000
23.6400 926.0000 1.0000
23.6500 893.0000 1.0000
23.6600 938.0000 1.0000
23.6700 951.0000 1.0000
23.6800 946.0000 1.0000
23.6900 963.0000 1.0000
23.7000 949.0000 1.0000
23.7100 980.0000 1.0000
23.7200 895.0000 1.0000
23.7300 879.0000 1.0000
23.7400 951.0000 1.0000
23.7500 970.0000 1.0000
23.7600 973.0000 1.0000
23.7700 914.0000 1.0000
23.7800 945.0000 1.0000
23.7900 930.0000 1.0000
23.8000 896.0000 1.0000
23.8100 977.0000 1.0000
23.8200 986.0000 1.0000
23.8300 928.0000 1.0000
23.8400 943.0000 1.0000
23.8500 929.0000 1.0000
23.8600 867.0000 1.0000
23.8700 944.0000 1.0000
23.8800 955.0000 1.0000
23.8900 957.0000 1.0000
23.9000 944.0000 1.0000
23.9100 943.0000 1.0000
23.9200 961.0000 1.0000
23.9300 976.0000 1.0000
23.9400 918.0000 1.0000
23.9500 1006.0000 1.0000
23.9600 1013.0000 1.0000
23.9700 942.0000 1.0000
23.9800 972.0000 1.0000
23.9900 957.0000 1.0000
24.0000 995.0000 1.0000
24.0100 1059.0000 1.0000
24.0200 1070.0000 1.0000
24.0300 1004.0000 1.0000
24.0400 1050.0000 1.0000
24.0500 1085.0000 1.0000
24.0600 1042.0000 1.0000
24.0700 1030.0000 1.0000
24.0800 1018.0000 1.0000
24.0900 1032.0000 1.0000
24.1000 1058.0000 1.0000
24.1100 1055.0000 1.0000
24.1200 1042.0000 1.0000
24.1300 1049.0000 1.0000
24.1400 996.0000 1.0000
24.1500 987.0000 1.0000
24.1600 979.0000 1.0000
24.1700 978.0000 1.0000
24.1800 929.0000 1.0000
24.1900 982.0000 1.0000
24.2000 969.0000 1.0000
24.2100 928.0000 1.0000
24.2200 965.0000 1.0000
24.2300 907.0000 1.0000
24.2400 920.0000 1.0000
24.2500 941.0000 1.0000
24.2600 916.0000 1.0000
24.2700 909.0000 1.0000
24.2800 930.0000 1.0000
24.2900 924.0000 1.0000
24.3000 872.0000 1.0000
24.3100 946.0000 1.0000
24.3200 894.0000 1.0000
24.3300 901.0000 1.0000
24.3400 936.0000 1.0000
24.3500 901.0000 1.0000
24.3600 953.0000 1.0000
24.3700 934.0000 1.0000
24.3800 855.0000 1.0000
24.3900 904.0000 1.0000
24.4000 904.0000 1.0000
24.4100 925.0000 1.0000
24.4200 891.0000 1.0000
24.4300 930.0000 1.0000
24.4400 917.0000 1.0000
24.4500 952.0000 1.0000
24.4600 913.0000 1.0000
24.4700 939.0000 1.0000
24.4800 899.0000 1.0000
24.4900 947.0000 1.0000
24.5000 942.0000 1.0000
24.5100 881.0000 1.0000
24.5200 904.0000 1.0000
24.5300 906.0000 1.0000
24.5400 935.0000 1.0000
24.5500 876.0000 1.0000
24.5600 892.0000 1.0000
24.5700 907.0000 1.0000
24.5800 924.0000 1.0000
24.5900 929.0000 1.0000
24.6000 898.0000 1.0000
24.6100 907.0000 1.0000
24.6200 875.0000 1.0000
24.6300 895.0000 1.0000
24.6400 915.0000 1.0000
24.6500 916.0000 1.0000
24.6600 957.0000 1.0000
24.6700 910.0000 1.0000
24.6800 897.0000 1.0000
24.6900 880.0000 1.0000
24.7000 902.0000 1.0000
24.7100 886.0000 1.0000
24.7200 952.0000 1.0000
24.7300 939.0000 1.0000
24.7400 919.0000 1.0000
24.7500 887.0000 1.0000
24.7600 915.0000 1.0000
24.7700 905.0000 1.0000
24.7800 908.0000 1.0000
24.7900 910.0000 1.0000
24.8000 941.0000 1.0000
24.8100 889.0000 1.0000
24.8200 884.0000 1.0000
24.8300 902.0000 1.0000
24.8400 903.0000 1.0000
24.8500 935.0000 1.0000
24.8600 909.0000 1.0000
24.8700 900.0000 1.0000
24.8800 900.0000 1.0000
24.8900 863.0000 1.0000
24.9000 880.0000 1.0000
24.9100 914.0000 1.0000
24.9200 899.0000 1.0000
24.9300 867.0000 1.0000
24.9400 898.0000 1.0000
24.9500 893.0000 1.0000
24.9600 843.0000 1.0000
24.9700 891.0000 1.0000
24.9800 908.0000 1.0000
24.9900 836.0000 1.0000
25.0000 898.0000 1.0000
25.0100 931.0000 1.0000
25.0200 908.0000 1.0000
25.0300 898.0000 1.0000
25.0400 867.0000 1.0000
25.0500 909.0000 1.0000
25.0600 861.0000 1.0000
25.0700 903.0000 1.0000
25.0800 882.0000 1.0000
25.0900 898.0000 1.0000
25.1000 900.0000 1.0000
25.1100 865.0000 1.0000
25.1200 901.0000 1.0000
25.1300 932.0000 1.0000
25.1400 871.0000 1.0000
25.1500 884.0000 1.0000
25.1600 887.0000 1.0000
25.1700 898.0000 1.0000
25.1800 862.0000 1.0000
25.1900 887.0000 1.0000
25.2000 874.0000 1.0000
25.2100 922.0000 1.0000
25.2200 932.0000 1.0000
25.2300 889.0000 1.0000
25.2400 903.0000 1.0000
25.2500 896.0000 1.0000
25.2600 875.0000 1.0000
25.2700 903.0000 1.0000
25.2800 846.0000 1.0000
25.2900 906.0000 1.0000
25.3000 913.0000 1.0000
25.3100 904.0000 1.0000
25.3200 868.0000 1.0000
25.3300 908.0000 1.0000
25.3400 884.0000 1.0000
25.3500 926.0000 1.0000
25.3600 875.0000 1.0000
25.3700 865.0000 1.0000
25.3800 866.0000 1.0000
25.3900 900.0000 1.0000
25.4000 942.0000 1.0000
25.4100 918.0000 1.0000
25.4200 931.0000 1.0000
25.4300 898.0000 1.0000
25.4400 888.0000 1.0000
25.4500 891.0000 1.0000
25.4600 877.0000 1.0000
25.4700 893.0000 1.0000
25.4800 847.0000 1.0000
25.4900 905.0000 1.0000
25.5000 849.0000 1.0000
25.5100 873.0000 1.0000
25.5200 922.0000 1.0000
25.5300 896.0000 1.0000
25.5400 847.0000 1.0000
25.5500 873.0000 1.0000
25.5600 886.0000 1.0000
25.5700 904.0000 1.0000
25.5800 894.0000 1.0000
25.5900 896.0000 1.0000
25.6000 917.0000 1.0000
25.6100 878.0000 1.0000
25.6200 878.0000 1.0000
25.6300 882.0000 1.0000
25.6400 895.0000 1.0000
25.6500 910.0000 1.0000
25.6600 892.0000 1.0000
25.6700 903.0000 1.0000
25.6800 944.0000 1.0000
25.6900 903.0000 1.0000
25.7000 944.0000 1.0000
25.7100 900.0000 1.0000
25.7200 890.0000 1.0000
25.7300 904.0000 1.0000
25.7400 843.0000 1.0000
25.7500 880.0000 1.0000
25.7600 943.0000 1.0000
25.7700 931.0000 1.0000
25.7800 962.0000 1.0000
25.7900 894.0000 1.0000
25.8000 919.0000 1.0000
25.8100 885.0000 1.0000
25.8200 916.0000 1.0000
25.8300 940.0000 1.0000
25.8400 930.0000 1.0000
25.8500 899.0000 1.0000
25.8600 993.0000 1.0000
25.8700 930.0000 1.0000
25.8800 914.0000 1.0000
25.8900 920.0000 1.0000
25.9000 919.0000 1.0000
25.9100 927.0000 1.0000
25.9200 938.0000 1.0000
25.9300 929.0000 1.0000
25.9400 966.0000 1.0000
25.9500 927.0000 1.0000
25.9600 930.0000 1.0000
25.9700 941.0000 1.0000
25.9800 924.0000 1.0000
25.9900 955.0000 1.0000
26.0000 974.0000 1.0000
26.0100 1015.0000 1.0000
26.0200 950.0000 1.0000
26.0300 974.0000 1.0000
26.0400 1014.0000 1.0000
26.0500 991.0000 1.0000
26.0600 945.0000 1.0000
26.0700 971.0000 1.0000
26.0800 983.0000 1.0000
26.0900 1055.0000 1.0000
26.1000 996.0000 1.0000
26.1100 1071.0000 1.0000
26.1200 1048.0000 1.0000
26.1300 1043.0000 1.0000
26.1400 1058.0000 1.0000
26.1500 1138.0000 1.0000
26.1600 1103.0000 1.0000
26.1700 1122.0000 1.0000
26.1800 1138.0000 1.0000
26.1900 1194.0000 1.0000
26.2000 1126.0000 1.0000
26.2100 1228.0000 1.0000
26.2200 1316.0000 1.0000
26.2300 1344.0000 1.0000
26.2400 1361.0000 1.0000
26.2500 1429.0000 1.0000
26.2600 1484.0000 1.0000
26.2700 1463.0000 1.0000
26.2800 1451.0000 1.0000
26.2900 1608.0000 1.0000
26.3000 1619.0000 1.0000
26.3100 1726.0000 1.0000
26.3200 1800.0000 1.0000
26.3300 1901.0000 1.0000
26.3400 2003.0000 1.0000
26.3500 2074.0000 1.0000
26.3600 2204.0000 1.0000
26.3700 2270.0000 1.0000
26.3800 2421.0000 1.0000
26.3900 2498.0000 1.0000
26.4000 2645.0000 1.0000
26.4100 2697.0000 1.0000
26.4200 2691.0000 1.0000
26.4300 2658.0000 1.0000
26.4400 2678.0000 1.0000
26.4500 2626.0000 1.0000
26.4600 2537.0000 1.0000
26.4700 2495.0000 1.0000
26.4800 2461.0000 1.0000
26.4900 2387.0000 1.0000
26.5000 2291.0000 1.0000
26.5100 2152.0000 1.0000
26.5200 2046.0000 1.0000
26.5300 1914.0000 1.0000
26.5400 1844.0000 1.0000
26.5500 1752.0000 1.0000
26.5600 1641.0000 1.0000
26.5700 1608.0000 1.0000
26.5800 1560.0000 1.0000
26.5900 1449.0000 1.0000
26.6000 1455.0000 1.0000
26.6100 1343.0000 1.0000
26.6200 1334.0000 1.0000
26.6300 1298.0000 1.0000
26.6400 1212.0000 1.0000
26.6500 1222.0000 1.0000
26.6600 1130.0000 1.0000
26.6700 1164.0000 1.0000
26.6800 1123.0000 1.0000
26.6900 1135.0000 1.0000
26.7000 1134.0000 1.0000
26.7100 1124.0000 1.0000
26.7200 1082.0000 1.0000
26.7300 1070.0000 1.0000
26.7400 1041.0000 1.0000
26.7500 1083.0000 1.0000
26.7600 973.0000 1.0000
26.7700 979.0000 1.0000
26.7800 972.0000 1.0000
26.7900 977.0000 1.0000
26.8000 982.0000 1.0000
26.8100 903.0000 1.0000
26.8200 985.0000 1.0000
26.8300 937.0000 1.0000
26.8400 932.0000 1.0000
26.8500 991.0000 1.0000
26.8600 936.0000 1.0000
26.8700 934.0000 1.0000
26.8800 909.0000 1.0000
26.8900 892.0000 1.0000
26.9000 877.0000 1.0000
26.9100 896.0000 1.0000
26.9200 916.0000 1.0000
26.9300 893.0000 1.0000
26.9400 881.0000 1.0000
26.9500 877.0000 1.0000
26.9600 889.0000 1.0000
26.9700 877.0000 1.0000
26.9800 891.0000 1.0000
26.9900 907.0000 1.0000
27.0000 875.0000 1.0000
27.0100 870.0000 1.0000
27.0200 848.0000 1.0000
27.0300 825.0000 1.0000
27.0400 880.0000 1.0000
27.0500 845.0000 1.0000
27.0600 857.0000 1.0000
27.0700 893.0000 1.0000
27.0800 881.0000 1.0000
27.0900 858.0000 1.0000
27.1000 963.0000 1.0000
27.1100 852.0000 1.0000
27.1200 858.0000 1.0000
27.1300 837.0000 1.0000
27.1400 885.0000 1.0000
27.1500 841.0000 1.0000
27.1600 870.0000 1.0000
27.1700 864.0000 1.0000
27.1800 856.0000 1.0000
27.1900 838.0000 1.0000
27.2000 834.0000 1.0000
27.2100 843.0000 1.0000
27.2200 836.0000 1.0000
27.2300 837.0000 1.0000
27.2400 804.0000 1.0000
27.2500 829.0000 1.0000
27.2600 851.0000 1.0000
27.2700 829.0000 1.0000
27.2800 858.0000 1.0000
27.2900 879.0000 1.0000
27.3000 845.0000 1.0000
27.3100 833.0000 1.0000
27.3200 829.0000 1.0000
27.3300 840.0000 1.0000
27.3400 868.0000 1.0000
27.3500 785.0000 1.0000
27.3600 835.0000 1.0000
27.3700 828.0000 1.0000
27.3800 827.0000 1.0000
27.3900 858.0000 1.0000
27.4000 866.0000 1.0000
27.4100 820.0000 1.0000
27.4200 861.0000 1.0000
27.4300 814.0000 1.0000
27.4400 809.0000 1.0000
27.4500 861.0000 1.0000
27.4600 841.0000 1.0000
27.4700 823.0000 1.0000
27.4800 850.0000 1.0000
27.4900 786.0000 1.0000
27.5000 885.0000 1.0000
27.5100 835.0000 1.0000
27.5200 803.0000 1.0000
27.5300 858.0000 1.0000
27.5400 813.0000 1.0000
27.5500 818.0000 1.0000
27.5600 794.0000 1.0000
27.5700 803.0000 1.0000
27.5800 816.0000 1.0000
27.5900 839.0000 1.0000
27.6000 836.0000 1.0000
27.6100 794.0000 1.0000
27.6200 808.0000 1.0000
27.6300 845.0000 1.0000
27.6400 835.0000 1.0000
27.6500 843.0000 1.0000
27.6600 820.0000 1.0000
27.6700 789.0000 1.0000
27.6800 800.0000 1.0000
27.6900 837.0000 1.0000
27.7000 790.0000 1.0000
27.7100 825.0000 1.0000
27.7200 810.0000 1.0000
27.7300 812.0000 1.0000
27.7400 844.0000 1.0000
27.7500 841.0000 1.0000
27.7600 793.0000 1.0000
27.7700 808.0000 1.0000
27.7800 777.0000 1.0000
27.7900 801.0000 1.0000
27.8000 850.0000 1.0000
27.8100 797.0000 1.0000
27.8200 770.0000 1.0000
27.8300 805.0000 1.0000
27.8400 822.0000 1.0000
27.8500 788.0000 1.0000
27.8600 834.0000 1.0000
27.8700 791.0000 1.0000
27.8800 813.0000 1.0000
27.8900 836.0000 1.0000
27.9000 782.0000 1.0000
27.9100 806.0000 1.0000
27.9200 806.0000 1.0000
27.9300 781.0000 1.0000
27.9400 812.0000 1.0000
27.9500 789.0000 1.0000
27.9600 742.0000 1.0000
27.9700 788.0000 1.0000
27.9800 756.0000 1.0000
27.9900 785.0000 1.0000
28.0000 774.0000 1.0000
28.0100 817.0000 1.0000
28.0200 815.0000 1.0000
28.0300 814.0000 1.0000
28.0400 780.0000 1.0000
28.0500 815.0000 1.0000
28.0600 763.0000 1.0000
28.0700 838.0000 1.0000
28.0800 802.0000 1.0000
28.0900 819.0000 1.0000
28.1000 765.0000 1.0000
28.1100 737.0000 1.0000
28.1200 807.0000 1.0000
28.1300 776.0000 1.0000
28.1400 813.0000 1.0000
28.1500 823.0000 1.0000
28.1600 823.0000 1.0000
28.1700 834.0000 1.0000
28.1800 828.0000 1.0000
28.1900 792.0000 1.0000
28.2000 771.0000 1.0000
28.2100 805.0000 1.0000
28.2200 804.0000 1.0000
28.2300 803.0000 1.0000
28.2400 821.0000 1.0000
28.2500 829.0000 1.0000
28.2600 763.0000 1.0000
28.2700 792.0000 1.0000
28.2800 794.0000 1.0000
28.2900 841.0000 1.0000
28.3000 782.0000 1.0000
28.3100 796.0000 1.0000
28.3200 812.0000 1.0000
28.3300 787.0000 1.0000
28.3400 819.0000 1.0000
28.3500 795.0000 1.0000
28.3600 817.0000 1.0000
28.3700 818.0000 1.0000
28.3800 790.0000 1.0000
28.3900 766.0000 1.0000
28.4000 792.0000 1.0000
28.4100 851.0000 1.0000
28.4200 819.0000 1.0000
28.4300 832.0000 1.0000
28.4400 821.0000 1.0000
28.4500 782.0000 1.0000
28.4600 785.0000 1.0000
28.4700 787.0000 1.0000
28.4800 805.0000 1.0000
28.4900 807.0000 1.0000
28.5000 752.0000 1.0000
28.5100 789.0000 1.0000
28.5200 778.0000 1.0000
28.5300 749.0000 1.0000
28.5400 818.0000 1.0000
28.5500 817.0000 1.0000
28.5600 779.0000 1.0000
28.5700 807.0000 1.0000
28.5800 800.0000 1.0000
28.5900 797.0000 1.0000
28.6000 746.0000 1.0000
28.6100 757.0000 1.0000
28.6200 779.0000 1.0000
28.6300 753.0000 1.0000
28.6400 769.0000 1.0000
28.6500 741.0000 1.0000
28.6600 728.0000 1.0000
28.6700 730.0000 1.0000
28.6800 719.0000 1.0000
28.6900 797.0000 1.0000
28.7000 807.0000 1.0000
28.7100 833.0000 1.0000
28.7200 760.0000 1.0000
28.7300 764.0000 1.0000
28.7400 758.0000 1.0000
28.7500 750.0000 1.0000
28.7600 736.0000 1.0000
28.7700 804.0000 1.0000
28.7800 790.0000 1.0000
28.7900 822.0000 1.0000
28.8000 806.0000 1.0000
28.8100 777.0000 1.0000
28.8200 792.0000 1.0000
28.8300 791.0000 1.0000
28.8400 819.0000 1.0000
28.8500 814.0000 1.0000
28.8600 779.0000 1.0000
28.8700 721.0000 1.0000
28.8800 772.0000 1.0000
28.8900 742.0000 1.0000
28.9000 816.0000 1.0000
28.9100 752.0000 1.0000
28.9200 812.0000 1.0000
28.9300 748.0000 1.0000
28.9400 799.0000 1.0000
28.9500 790.0000 1.0000
28.9600 809.0000 1.0000
28.9700 779.0000 1.0000
28.9800 748.0000 1.0000
28.9900 761.0000 1.0000
29.0000 788.0000 1.0000
29.0100 714.0000 1.0000
29.0200 713.0000 1.0000
29.0300 737.0000 1.0000
29.0400 719.0000 1.0000
29.0500 749.0000 1.0000
29.0600 800.0000 1.0000
29.0700 751.0000 1.0000
29.0800 742.0000 1.0000
29.0900 734.0000 1.0000
29.1000 695.0000 1.0000
29.1100 717.0000 1.0000
29.1200 764.0000 1.0000
29.1300 757.0000 1.0000
29.1400 780.0000 1.0000
29.1500 768.0000 1.0000
29.1600 764.0000 1.0000
29.1700 761.0000 1.0000
29.1800 737.0000 1.0000
29.1900 740.0000 1.0000
29.2000 754.0000 1.0000
29.2100 764.0000 1.0000
29.2200 750.0000 1.0000
29.2300 756.0000 1.0000
29.2400 751.0000 1.0000
29.2500 732.0000 1.0000
29.2600 773.0000 1.0000
29.2700 767.0000 1.0000
29.2800 763.0000 1.0000
29.2900 761.0000 1.0000
29.3000 750.0000 1.0000
29.3100 737.0000 1.0000
29.3200 733.0000 1.0000
29.3300 768.0000 1.0000
29.3400 745.0000 1.0000
29.3500 718.0000 1.0000
29.3600 820.0000 1.0000
29.3700 751.0000 1.0000
29.3800 781.0000 1.0000
29.3900 773.0000 1.0000
29.4000 763.0000 1.0000
29.4100 723.0000 1.0000
29.4200 789.0000 1.0000
29.4300 760.0000 1.0000
29.4400 696.0000 1.0000
29.4500 751.0000 1.0000
29.4600 765.0000 1.0000
29.4700 775.0000 1.0000
29.4800 762.0000 1.0000
29.4900 806.0000 1.0000
29.5000 774.0000 1.0000
29.5100 764.0000 1.0000
29.5200 771.0000 1.0000
29.5300 761.0000 1.0000
29.5400 711.0000 1.0000
29.5500 748.0000 1.0000
29.5600 730.0000 1.0000
29.5700 743.0000 1.0000
29.5800 767.0000 1.0000
29.5900 744.0000 1.0000
29.6000 698.0000 1.0000
29.6100 728.0000 1.0000
29.6200 736.0000 1.0000
29.6300 797.0000 1.0000
29.6400 738.0000 1.0000
29.6500 709.0000 1.0000
29.6600 724.0000 1.0000
29.6700 729.0000 1.0000
29.6800 717.0000 1.0000
29.6900 712.0000 1.0000
29.7000 751.0000 1.0000
29.7100 734.0000 1.0000
29.7200 729.0000 1.0000
29.7300 732.0000 1.0000
29.7400 737.0000 1.0000
29.7500 709.0000 1.0000
29.7600 743.0000 1.0000
29.7700 739.0000 1.0000
29.7800 743.0000 1.0000
29.7900 745.0000 1.0000
29.8000 705.0000 1.0000
29.8100 731.0000 1.0000
29.8200 722.0000 1.0000
29.8300 750.0000 1.0000
29.8400 739.0000 1.0000
29.8500 745.0000 1.0000
29.8600 745.0000 1.0000
29.8700 746.0000 1.0000
29.8800 739.0000 1.0000
29.8900 713.0000 1.0000
29.9000 720.0000 1.0000
29.9100 753.0000 1.0000
29.9200 706.0000 1.0000
29.9300 720.0000 1.0000
29.9400 716.0000 1.0000
29.9500 754.0000 1.0000
29.9600 772.0000 1.0000
29.9700 715.0000 1.0000
29.9800 764.0000 1.0000
29.9900 763.0000 1.0000
30.0000 737.0000 1.0000
30.0100 720.0000 1.0000
30.0200 667.0000 1.0000
30.0300 753.0000 1.0000
30.0400 758.0000 1.0000
30.0500 687.0000 1.0000
30.0600 693.0000 1.0000
30.0700 752.0000 1.0000
30.0800 747.0000 1.0000
30.0900 743.0000 1.0000
30.1000 735.0000 1.0000
30.1100 728.0000 1.0000
30.1200 727.0000 1.0000
30.1300 763.0000 1.0000
30.1400 765.0000 1.0000
30.1500 696.0000 1.0000
30.1600 780.0000 1.0000
30.1700 737.0000 1.0000
30.1800 739.0000 1.0000
30.1900 686.0000 1.0000
30.2000 716.0000 1.0000
30.2100 747.0000 1.0000
30.2200 677.0000 1.0000
30.2300 712.0000 1.0000
30.2400 692.0000 1.0000
30.2500 749.0000 1.0000
30.2600 739.0000 1.0000
30.2700 681.0000 1.0000
30.2800 747.0000 1.0000
30.2900 763.0000 1.0000
30.3000 742.0000 1.0000
30.3100 746.0000 1.0000
30.3200 716.0000 1.0000
30.3300 714.0000 1.0000
30.3400 741.0000 1.0000
30.3500 703.0000 1.0000
30.3600 746.0000 1.0000
30.3700 747.0000 1.0000
30.3800 698.0000 1.0000
30.3900 713.0000 1.0000
30.4000 749.0000 1.0000
30.4100 674.0000 1.0000
30.4200 728.0000 1.0000
30.4300 697.0000 1.0000
30.4400 729.0000 1.0000
30.4500 717.0000 1.0000
30.4600 732.0000 1.0000
30.4700 751.0000 1.0000
30.4800 740.0000 1.0000
30.4900 718.0000 1.0000
30.5000 741.0000 1.0000
30.5100 712.0000 1.0000
30.5200 732.0000 1.0000
30.5300 714.0000 1.0000
30.5400 714.0000 1.0000
30.5500 692.0000 1.0000
30.5600 727.0000 1.0000
30.5700 729.0000 1.0000
30.5800 681.0000 1.0000
30.5900 688.0000 1.0000
30.6000 701.0000 1.0000
30.6100 717.0000 1.0000
30.6200 760.0000 1.0000
30.6300 712.0000 1.0000
30.6400 723.0000 1.0000
30.6500 709.0000 1.0000
30.6600 713.0000 1.0000
30.6700 720.0000 1.0000
30.6800 723.0000 1.0000
30.6900 726.0000 1.0000
30.7000 724.0000 1.0000
30.7100 723.0000 1.0000
30.7200 725.0000 1.0000
30.7300 701.0000 1.0000
30.7400 667.0000 1.0000
30.7500 690.0000 1.0000
30.7600 710.0000 1.0000
30.7700 740.0000 1.0000
30.7800 730.0000 1.0000
30.7900 684.0000 1.0000
30.8000 690.0000 1.0000
30.8100 758.0000 1.0000
30.8200 702.0000 1.0000
30.8300 676.0000 1.0000
30.8400 674.0000 1.0000
30.8500 730.0000 1.0000
30.8600 709.0000 1.0000
30.8700 708.0000 1.0000
30.8800 727.0000 1.0000
30.8900 709.0000 1.0000
30.9000 668.0000 1.0000
30.9100 703.0000 1.0000
30.9200 733.0000 1.0000
30.9300 724.0000 1.0000
30.9400 690.0000 1.0000
30.9500 686.0000 1.0000
30.9600 701.0000 1.0000
30.9700 719.0000 1.0000
30.9800 694.0000 1.0000
30.9900 698.0000 1.0000
31.0000 678.0000 1.0000
31.0100 670.0000 1.0000
31.0200 729.0000 1.0000
31.0300 752.0000 1.0000
31.0400 762.0000 1.0000
31.0500 709.0000 1.0000
31.0600 711.0000 1.0000
31.0700 669.0000 1.0000
31.0800 678.0000 1.0000
31.0900 700.0000 1.0000
31.1000 774.0000 1.0000
31.1100 755.0000 1.0000
31.1200 692.0000 1.0000
31.1300 729.0000 1.0000
31.1400 712.0000 1.0000
31.1500 696.0000 1.0000
31.1600 760.0000 1.0000
31.1700 768.0000 1.0000
31.1800 701.0000 1.0000
31.1900 658.0000 1.0000
31.2000 666.0000 1.0000
31.2100 678.0000 1.0000
31.2200 685.0000 1.0000
31.2300 723.0000 1.0000
31.2400 762.0000 1.0000
31.2500 725.0000 1.0000
31.2600 676.0000 1.0000
31.2700 689.0000 1.0000
31.2800 685.0000 1.0000
31.2900 698.0000 1.0000
31.3000 702.0000 1.0000
31.3100 707.0000 1.0000
31.3200 678.0000 1.0000
31.3300 703.0000 1.0000
31.3400 689.0000 1.0000
31.3500 740.0000 1.0000
31.3600 702.0000 1.0000
31.3700 715.0000 1.0000
31.3800 685.0000 1.0000
31.3900 698.0000 1.0000
31.4000 703.0000 1.0000
31.4100 693.0000 1.0000
31.4200 702.0000 1.0000
31.4300 728.0000 1.0000
31.4400 699.0000 1.0000
31.4500 688.0000 1.0000
31.4600 682.0000 1.0000
31.4700 712.0000 1.0000
31.4800 691.0000 1.0000
31.4900 685.0000 1.0000
31.5000 666.0000 1.0000
31.5100 740.0000 1.0000
31.5200 718.0000 1.0000
31.5300 697.0000 1.0000
31.5400 704.0000 1.0000
31.5500 722.0000 1.0000
31.5600 674.0000 1.0000
31.5700 695.0000 1.0000
31.5800 676.0000 1.0000
31.5900 686.0000 1.0000
31.6000 679.0000 1.0000
31.6100 710.0000 1.0000
31.6200 727.0000 1.0000
31.6300 654.0000 1.0000
31.6400 659.0000 1.0000
31.6500 677.0000 1.0000
31.6600 685.0000 1.0000
31.6700 663.0000 1.0000
31.6800 652.0000 1.0000
31.6900 658.0000 1.0000
31.7000 691.0000 1.0000
31.7100 697.0000 1.0000
31.7200 677.0000 1.0000
31.7300 661.0000 1.0000
31.7400 675.0000 1.0000
31.7500 699.0000 1.0000
31.7600 677.0000 1.0000
31.7700 694.0000 1.0000
31.7800 668.0000 1.0000
31.7900 674.0000 1.0000
31.8000 660.0000 1.0000
31.8100 678.0000 1.0000
31.8200 686.0000 1.0000
31.8300 639.0000 1.0000
31.8400 669.0000 1.0000
31.8500 662.0000 1.0000
31.8600 715.0000 1.0000
31.8700 686.0000 1.0000
31.8800 682.0000 1.0000
31.8900 670.0000 1.0000
31.9000 669.0000 1.0000
31.9100 681.0000 1.0000
31.9200 737.0000 1.0000
31.9300 700.0000 1.0000
31.9400 723.0000 1.0000
31.9500 679.0000 1.0000
31.9600 689.0000 1.0000
31.9700 708.0000 1.0000
31.9800 695.0000 1.0000
31.9900 670.0000 1.0000
32.0000 697.0000 1.0000
32.0100 713.0000 1.0000
32.0200 669.0000 1.0000
32.0300 679.0000 1.0000
32.0400 656.0000 1.0000
32.0500 680.0000 1.0000
32.0600 688.0000 1.0000
32.0700 725.0000 1.0000
32.0800 672.0000 1.0000
32.0900 683.0000 1.0000
32.1000 687.0000 1.0000
32.1100 687.0000 1.0000
32.1200 652.0000 1.0000
32.1300 668.0000 1.0000
32.1400 693.0000 1.0000
32.1500 672.0000 1.0000
32.1600 630.0000 1.0000
32.1700 658.0000 1.0000
32.1800 683.0000 1.0000
32.1900 699.0000 1.0000
32.2000 693.0000 1.0000
32.2100 701.0000 1.0000
32.2200 649.0000 1.0000
32.2300 672.0000 1.0000
32.2400 689.0000 1.0000
32.2500 672.0000 1.0000
32.2600 657.0000 1.0000
32.2700 638.0000 1.0000
32.2800 668.0000 1.0000
32.2900 656.0000 1.0000
32.3000 668.0000 1.0000
32.3100 685.0000 1.0000
32.3200 639.0000 1.0000
32.3300 686.0000 1.0000
32.3400 670.0000 1.0000
32.3500 650.0000 1.0000
32.3600 619.0000 1.0000
32.3700 649.0000 1.0000
32.3800 673.0000 1.0000
32.3900 649.0000 1.0000
32.4000 676.0000 1.0000
32.4100 657.0000 1.0000
32.4200 684.0000 1.0000
32.4300 657.0000 1.0000
32.4400 676.0000 1.0000
32.4500 621.0000 1.0000
32.4600 693.0000 1.0000
32.4700 649.0000 1.0000
32.4800 654.0000 1.0000
32.4900 702.0000 1.0000
32.5000 676.0000 1.0000
32.5100 673.0000 1.0000
32.5200 652.0000 1.0000
32.5300 680.0000 1.0000
32.5400 680.0000 1.0000
32.5500 627.0000 1.0000
32.5600 653.0000 1.0000
32.5700 677.0000 1.0000
32.5800 634.0000 1.0000
32.5900 640.0000 1.0000
32.6000 663.0000 1.0000
32.6100 672.0000 1.0000
32.6200 627.0000 1.0000
32.6300 669.0000 1.0000
32.6400 681.0000 1.0000
32.6500 657.0000 1.0000
32.6600 679.0000 1.0000
32.6700 649.0000 1.0000
32.6800 676.0000 1.0000
32.6900 675.0000 1.0000
32.7000 655.0000 1.0000
32.7100 637.0000 1.0000
32.7200 682.0000 1.0000
32.7300 680.0000 1.0000
32.7400 657.0000 1.0000
32.7500 683.0000 1.0000
32.7600 657.0000 1.0000
32.7700 674.0000 1.0000
32.7800 653.0000 1.0000
32.7900 691.0000 1.0000
32.8000 654.0000 1.0000
32.8100 671.0000 1.0000
32.8200 625.0000 1.0000
32.8300 667.0000 1.0000
32.8400 694.0000 1.0000
32.8500 684.0000 1.0000
32.8600 673.0000 1.0000
32.8700 756.0000 1.0000
32.8800 663.0000 1.0000
32.8900 722.0000 1.0000
32.9000 670.0000 1.0000
32.9100 715.0000 1.0000
32.9200 679.0000 1.0000
32.9300 720.0000 1.0000
32.9400 699.0000 1.0000
32.9500 705.0000 1.0000
32.9600 725.0000 1.0000
32.9700 688.0000 1.0000
32.9800 737.0000 1.0000
32.9900 712.0000 1.0000
33.0000 766.0000 1.0000
33.0100 799.0000 1.0000
33.0200 759.0000 1.0000
33.0300 789.0000 1.0000
33.0400 785.0000 1.0000
33.0500 791.0000 1.0000
33.0600 856.0000 1.0000
33.0700 848.0000 1.0000
33.0800 834.0000 1.0000
33.0900 837.0000 1.0000
33.1000 798.0000 1.0000
33.1100 839.0000 1.0000
33.1200 768.0000 1.0000
33.1300 822.0000 1.0000
33.1400 783.0000 1.0000
33.1500 760.0000 1.0000
33.1600 758.0000 1.0000
33.1700 765.0000 1.0000
33.1800 763.0000 1.0000
33.1900 732.0000 1.0000
33.2000 766.0000 1.0000
33.2100 767.0000 1.0000
33.2200 756.0000 1.0000
33.2300 703.0000 1.0000
33.2400 759.0000 1.0000
33.2500 730.0000 1.0000
33.2600 727.0000 1.0000
33.2700 712.0000 1.0000
33.2800 740.0000 1.0000
33.2900 723.0000 1.0000
33.3000 742.0000 1.0000
33.3100 724.0000 1.0000
33.3200 723.0000 1.0000
33.3300 750.0000 1.0000
33.3400 755.0000 1.0000
33.3500 761.0000 1.0000
33.3600 765.0000 1.0000
33.3700 749.0000 1.0000
33.3800 763.0000 1.0000
33.3900 821.0000 1.0000
33.4000 881.0000 1.0000
33.4100 849.0000 1.0000
33.4200 802.0000 1.0000
33.4300 796.0000 1.0000
33.4400 799.0000 1.0000
33.4500 903.0000 1.0000
33.4600 907.0000 1.0000
33.4700 918.0000 1.0000
33.4800 862.0000 1.0000
33.4900 976.0000 1.0000
33.5000 1073.0000 1.0000
33.5100 1002.0000 1.0000
33.5200 1014.0000 1.0000
33.5300 1102.0000 1.0000
33.5400 1139.0000 1.0000
33.5500 1124.0000 1.0000
33.5600 1154.0000 1.0000
33.5700 1222.0000 1.0000
33.5800 1261.0000 1.0000
33.5900 1290.0000 1.0000
33.6000 1371.0000 1.0000
33.6100 1396.0000 1.0000
33.6200 1440.0000 1.0000
33.6300 1471.0000 1.0000
33.6400 1477.0000 1.0000
33.6500 1420.0000 1.0000
33.6600 1393.0000 1.0000
33.6700 1438.0000 1.0000
33.6800 1415.0000 1.0000
33.6900 1422.0000 1.0000
33.7000 1345.0000 1.0000
33.7100 1310.0000 1.0000
33.7200 1255.0000 1.0000
33.7300 1204.0000 1.0000
33.7400 1128.0000 1.0000
33.7500 1120.0000 1.0000
33.7600 1100.0000 1.0000
33.7700 1075.0000 1.0000
33.7800 1027.0000 1.0000
33.7900 964.0000 1.0000
33.8000 951.0000 1.0000
33.8100 883.0000 1.0000
33.8200 880.0000 1.0000
33.8300 862.0000 1.0000
33.8400 880.0000 1.0000
33.8500 881.0000 1.0000
33.8600 838.0000 1.0000
33.8700 800.0000 1.0000
33.8800 806.0000 1.0000
33.8900 761.0000 1.0000
33.9000 765.0000 1.0000
33.9100 748.0000 1.0000
33.9200 743.0000 1.0000
33.9300 709.0000 1.0000
33.9400 756.0000 1.0000
33.9500 742.0000 1.0000
33.9600 723.0000 1.0000
33.9700 742.0000 1.0000
33.9800 718.0000 1.0000
33.9900 707.0000 1.0000
34.0000 731.0000 1.0000
34.0100 683.0000 1.0000
34.0200 722.0000 1.0000
34.0300 680.0000 1.0000
34.0400 704.0000 1.0000
34.0500 680.0000 1.0000
34.0600 665.0000 1.0000
34.0700 668.0000 1.0000
34.0800 627.0000 1.0000
34.0900 664.0000 1.0000
34.1000 653.0000 1.0000
34.1100 650.0000 1.0000
34.1200 634.0000 1.0000
34.1300 653.0000 1.0000
34.1400 677.0000 1.0000
34.1500 655.0000 1.0000
34.1600 652.0000 1.0000
34.1700 641.0000 1.0000
34.1800 632.0000 1.0000
34.1900 596.0000 1.0000
34.2000 619.0000 1.0000
34.2100 624.0000 1.0000
34.2200 642.0000 1.0000
34.2300 603.0000 1.0000
34.2400 632.0000 1.0000
34.2500 625.0000 1.0000
34.2600 619.0000 1.0000
34.2700 671.0000 1.0000
34.2800 681.0000 1.0000
34.2900 611.0000 1.0000
34.3000 623.0000 1.0000
34.3100 634.0000 1.0000
34.3200 624.0000 1.0000
34.3300 615.0000 1.0000
34.3400 629.0000 1.0000
34.3500 613.0000 1.0000
34.3600 605.0000 1.0000
34.3700 624.0000 1.0000
34.3800 606.0000 1.0000
34.3900 621.0000 1.0000
34.4000 609.0000 1.0000
34.4100 586.0000 1.0000
34.4200 622.0000 1.0000
34.4300 553.0000 1.0000
34.4400 612.0000 1.0000
34.4500 585.0000 1.0000
34.4600 597.0000 1.0000
34.4700 632.0000 1.0000
34.4800 615.0000 1.0000
34.4900 619.0000 1.0000
34.5000 593.0000 1.0000
34.5100 614.0000 1.0000
34.5200 612.0000 1.0000
34.5300 595.0000 1.0000
34.5400 611.0000 1.0000
34.5500 593.0000 1.0000
34.5600 633.0000 1.0000
34.5700 618.0000 1.0000
34.5800 593.0000 1.0000
34.5900 617.0000 1.0000
34.6000 608.0000 1.0000
34.6100 639.0000 1.0000
34.6200 651.0000 1.0000
34.6300 608.0000 1.0000
34.6400 607.0000 1.0000
34.6500 617.0000 1.0000
34.6600 581.0000 1.0000
34.6700 616.0000 1.0000
34.6800 578.0000 1.0000
34.6900 579.0000 1.0000
34.7000 583.0000 1.0000
34.7100 606.0000 1.0000
34.7200 625.0000 1.0000
34.7300 596.0000 1.0000
34.7400 636.0000 1.0000
34.7500 601.0000 1.0000
34.7600 611.0000 1.0000
34.7700 599.0000 1.0000
34.7800 618.0000 1.0000
34.7900 647.0000 1.0000
34.8000 585.0000 1.0000
34.8100 562.0000 1.0000
34.8200 556.0000 1.0000
34.8300 575.0000 1.0000
34.8400 616.0000 1.0000
34.8500 600.0000 1.0000
34.8600 573.0000 1.0000
34.8700 603.0000 1.0000
34.8800 571.0000 1.0000
34.8900 573.0000 1.0000
34.9000 579.0000 1.0000
34.9100 628.0000 1.0000
34.9200 603.0000 1.0000
34.9300 602.0000 1.0000
34.9400 591.0000 1.0000
34.9500 559.0000 1.0000
34.9600 599.0000 1.0000
34.9700 580.0000 1.0000
34.9800 568.0000 1.0000
34.9900 556.0000 1.0000
35.0000 553.0000 1.0000
35.0100 615.0000 1.0000
35.0200 595.0000 1.0000
35.0300 586.0000 1.0000
35.0400 584.0000 1.0000
35.0500 611.0000 1.0000
35.0600 595.0000 1.0000
35.0700 579.0000 1.0000
35.0800 588.0000 1.0000
35.0900 598.0000 1.0000
35.1000 565.0000 1.0000
35.1100 546.0000 1.0000
35.1200 580.0000 1.0000
35.1300 575.0000 1.0000
35.1400 591.0000 1.0000
35.1500 628.0000 1.0000
35.1600 585.0000 1.0000
35.1700 542.0000 1.0000
35.1800 602.0000 1.0000
35.1900 624.0000 1.0000
35.2000 599.0000 1.0000
35.2100 636.0000 1.0000
35.2200 631.0000 1.0000
35.2300 613.0000 1.0000
35.2400 598.0000 1.0000
35.2500 605.0000 1.0000
35.2600 644.0000 1.0000
35.2700 604.0000 1.0000
35.2800 620.0000 1.0000
35.2900 654.0000 1.0000
35.3000 679.0000 1.0000
35.3100 608.0000 1.0000
35.3200 649.0000 1.0000
35.3300 648.0000 1.0000
35.3400 681.0000 1.0000
35.3500 709.0000 1.0000
35.3600 664.0000 1.0000
35.3700 691.0000 1.0000
35.3800 715.0000 1.0000
35.3900 735.0000 1.0000
35.4000 738.0000 1.0000
35.4100 822.0000 1.0000
35.4200 813.0000 1.0000
35.4300 796.0000 1.0000
35.4400 869.0000 1.0000
35.4500 905.0000 1.0000
35.4600 950.0000 1.0000
35.4700 959.0000 1.0000
35.4800 1108.0000 1.0000
35.4900 1120.0000 1.0000
35.5000 1257.0000 1.0000
35.5100 1290.0000 1.0000
35.5200 1398.0000 1.0000
35.5300 1408.0000 1.0000
35.5400 1462.0000 1.0000
35.5500 1480.0000 1.0000
35.5600 1462.0000 1.0000
35.5700 1433.0000 1.0000
35.5800 1439.0000 1.0000
35.5900 1360.0000 1.0000
35.6000 1349.0000 1.0000
35.6100 1280.0000 1.0000
35.6200 1243.0000 1.0000
35.6300 1286.0000 1.0000
35.6400 1225.0000 1.0000
35.6500 1129.0000 1.0000
35.6600 995.0000 1.0000
35.6700 1018.0000 1.0000
35.6800 982.0000 1.0000
35.6900 933.0000 1.0000
35.7000 858.0000 1.0000
35.7100 846.0000 1.0000
35.7200 812.0000 1.0000
35.7300 768.0000 1.0000
35.7400 695.0000 1.0000
35.7500 682.0000 1.0000
35.7600 677.0000 1.0000
35.7700 664.0000 1.0000
35.7800 643.0000 1.0000
35.7900 650.0000 1.0000
35.8000 609.0000 1.0000
35.8100 613.0000 1.0000
35.8200 641.0000 1.0000
35.8300 619.0000 1.0000
35.8400 607.0000 1.0000
35.8500 594.0000 1.0000
35.8600 591.0000 1.0000
35.8700 553.0000 1.0000
35.8800 569.0000 1.0000
35.8900 593.0000 1.0000
35.9000 564.0000 1.0000
35.9100 541.0000 1.0000
35.9200 567.0000 1.0000
35.9300 566.0000 1.0000
35.9400 560.0000 1.0000
35.9500 567.0000 1.0000
35.9600 577.0000 1.0000
35.9700 532.0000 1.0000
35.9800 523.0000 1.0000
35.9900 566.0000 1.0000
36.0000 558.0000 1.0000
36.0100 577.0000 1.0000
36.0200 519.0000 1.0000
36.0300 539.0000 1.0000
36.0400 557.0000 1.0000
36.0500 553.0000 1.0000
36.0600 581.0000 1.0000
36.0700 568.0000 1.0000
36.0800 571.0000 1.0000
36.0900 604.0000 1.0000
36.1000 532.0000 1.0000
36.1100 561.0000 1.0000
36.1200 579.0000 1.0000
36.1300 547.0000 1.0000
36.1400 550.0000 1.0000
36.1500 560.0000 1.0000
36.1600 518.0000 1.0000
36.1700 569.0000 1.0000
36.1800 520.0000 1.0000
36.1900 556.0000 1.0000
36.2000 561.0000 1.0000
36.2100 548.0000 1.0000
36.2200 577.0000 1.0000
36.2300 541.0000 1.0000
36.2400 542.0000 1.0000
36.2500 571.0000 1.0000
36.2600 531.0000 1.0000
36.2700 567.0000 1.0000
36.2800 570.0000 1.0000
36.2900 560.0000 1.0000
36.3000 551.0000 1.0000
36.3100 548.0000 1.0000
36.3200 521.0000 1.0000
36.3300 557.0000 1.0000
36.3400 539.0000 1.0000
36.3500 598.0000 1.0000
36.3600 592.0000 1.0000
36.3700 542.0000 1.0000
36.3800 535.0000 1.0000
36.3900 542.0000 1.0000
36.4000 549.0000 1.0000
36.4100 590.0000 1.0000
36.4200 531.0000 1.0000
36.4300 522.0000 1.0000
36.4400 506.0000 1.0000
36.4500 522.0000 1.0000
36.4600 548.0000 1.0000
36.4700 557.0000 1.0000
36.4800 559.0000 1.0000
36.4900 566.0000 1.0000
36.5000 544.0000 1.0000
36.5100 560.0000 1.0000
36.5200 547.0000 1.0000
36.5300 567.0000 1.0000
36.5400 557.0000 1.0000
36.5500 563.0000 1.0000
36.5600 550.0000 1.0000
36.5700 525.0000 1.0000
36.5800 567.0000 1.0000
36.5900 528.0000 1.0000
36.6000 518.0000 1.0000
36.6100 531.0000 1.0000
36.6200 523.0000 1.0000
36.6300 555.0000 1.0000
36.6400 520.0000 1.0000
36.6500 559.0000 1.0000
36.6600 554.0000 1.0000
36.6700 543.0000 1.0000
36.6800 589.0000 1.0000
36.6900 561.0000 1.0000
36.7000 533.0000 1.0000
36.7100 559.0000 1.0000
36.7200 536.0000 1.0000
36.7300 568.0000 1.0000
36.7400 525.0000 1.0000
36.7500 558.0000 1.0000
36.7600 572.0000 1.0000
36.7700 569.0000 1.0000
36.7800 551.0000 1.0000
36.7900 538.0000 1.0000
36.8000 569.0000 1.0000
36.8100 572.0000 1.0000
36.8200 589.0000 1.0000
36.8300 519.0000 1.0000
36.8400 540.0000 1.0000
36.8500 569.0000 1.0000
36.8600 557.0000 1.0000
36.8700 534.0000 1.0000
36.8800 551.0000 1.0000
36.8900 576.0000 1.0000
36.9000 539.0000 1.0000
36.9100 559.0000 1.0000
36.9200 557.0000 1.0000
36.9300 554.0000 1.0000
36.9400 567.0000 1.0000
36.9500 530.0000 1.0000
36.9600 529.0000 1.0000
36.9700 552.0000 1.0000
36.9800 516.0000 1.0000
36.9900 534.0000 1.0000
37.0000 580.0000 1.0000
37.0100 535.0000 1.0000
37.0200 542.0000 1.0000
37.0300 582.0000 1.0000
37.0400 547.0000 1.0000
37.0500 540.0000 1.0000
37.0600 579.0000 1.0000
37.0700 560.0000 1.0000
37.0800 541.0000 1.0000
37.0900 544.0000 1.0000
37.1000 571.0000 1.0000
37.1100 534.0000 1.0000
37.1200 521.0000 1.0000
37.1300 581.0000 1.0000
37.1400 546.0000 1.0000
37.1500 545.0000 1.0000
37.1600 617.0000 1.0000
37.1700 578.0000 1.0000
37.1800 544.0000 1.0000
37.1900 543.0000 1.0000
37.2000 578.0000 1.0000
37.2100 583.0000 1.0000
37.2200 584.0000 1.0000
37.2300 584.0000 1.0000
37.2400 577.0000 1.0000
37.2500 588.0000 1.0000
37.2600 594.0000 1.0000
37.2700 591.0000 1.0000
37.2800 588.0000 1.0000
37.2900 590.0000 1.0000
37.3000 590.0000 1.0000
37.3100 587.0000 1.0000
37.3200 562.0000 1.0000
37.3300 599.0000 1.0000
37.3400 636.0000 1.0000
37.3500 633.0000 1.0000
37.3600 662.0000 1.0000
37.3700 611.0000 1.0000
37.3800 647.0000 1.0000
37.3900 683.0000 1.0000
37.4000 681.0000 1.0000
37.4100 714.0000 1.0000
37.4200 731.0000 1.0000
37.4300 724.0000 1.0000
37.4400 773.0000 1.0000
37.4500 796.0000 1.0000
37.4600 803.0000 1.0000
37.4700 856.0000 1.0000
37.4800 911.0000 1.0000
37.4900 891.0000 1.0000
37.5000 927.0000 1.0000
37.5100 921.0000 1.0000
37.5200 1000.0000 1.0000
37.5300 1022.0000 1.0000
37.5400 1105.0000 1.0000
37.5500 1204.0000 1.0000
37.5600 1277.0000 1.0000
37.5700 1330.0000 1.0000
37.5800 1382.0000 1.0000
37.5900 1529.0000 1.0000
37.6000 1606.0000 1.0000
37.6100 1695.0000 1.0000
37.6200 1767.0000 1.0000
37.6300 1826.0000 1.0000
37.6400 1855.0000 1.0000
37.6500 1874.0000 1.0000
37.6600 1912.0000 1.0000
37.6700 2105.0000 1.0000
37.6800 2137.0000 1.0000
37.6900 2170.0000 1.0000
37.7000 2016.0000 1.0000
37.7100 2060.0000 1.0000
37.7200 2105.0000 1.0000
37.7300 2058.0000 1.0000
37.7400 2000.0000 1.0000
37.7500 1978.0000 1.0000
37.7600 1967.0000 1.0000
37.7700 1849.0000 1.0000
37.7800 1751.0000 1.0000
37.7900 1712.0000 1.0000
37.8000 1641.0000 1.0000
37.8100 1553.0000 1.0000
37.8200 1475.0000 1.0000
37.8300 1412.0000 1.0000
37.8400 1371.0000 1.0000
37.8500 1267.0000 1.0000
37.8600 1228.0000 1.0000
37.8700 1146.0000 1.0000
37.8800 1060.0000 1.0000
37.8900 1040.0000 1.0000
37.9000 1021.0000 1.0000
37.9100 955.0000 1.0000
37.9200 895.0000 1.0000
37.9300 850.0000 1.0000
37.9400 810.0000 1.0000
37.9500 835.0000 1.0000
37.9600 773.0000 1.0000
37.9700 739.0000 1.0000
37.9800 748.0000 1.0000
37.9900 751.0000 1.0000
38.0000 692.0000 1.0000
38.0100 668.0000 1.0000
38.0200 672.0000 1.0000
38.0300 647.0000 1.0000
38.0400 596.0000 1.0000
38.0500 594.0000 1.0000
38.0600 601.0000 1.0000
38.0700 615.0000 1.0000
38.0800 608.0000 1.0000
38.0900 561.0000 1.0000
38.1000 593.0000 1.0000
38.1100 574.0000 1.0000
38.1200 573.0000 1.0000
38.1300 579.0000 1.0000
38.1400 560.0000 1.0000
38.1500 586.0000 1.0000
38.1600 525.0000 1.0000
38.1700 524.0000 1.0000
38.1800 541.0000 1.0000
38.1900 547.0000 1.0000
38.2000 546.0000 1.0000
38.2100 564.0000 1.0000
38.2200 530.0000 1.0000
38.2300 542.0000 1.0000
38.2400 549.0000 1.0000
38.2500 537.0000 1.0000
38.2600 542.0000 1.0000
38.2700 568.0000 1.0000
38.2800 547.0000 1.0000
38.2900 538.0000 1.0000
38.3000 515.0000 1.0000
38.3100 498.0000 1.0000
38.3200 532.0000 1.0000
38.3300 543.0000 1.0000
38.3400 526.0000 1.0000
38.3500 510.0000 1.0000
38.3600 534.0000 1.0000
38.3700 508.0000 1.0000
38.3800 508.0000 1.0000
38.3900 497.0000 1.0000
38.4000 482.0000 1.0000
38.4100 474.0000 1.0000
38.4200 505.0000 1.0000
38.4300 534.0000 1.0000
38.4400 503.0000 1.0000
38.4500 526.0000 1.0000
38.4600 520.0000 1.0000
38.4700 479.0000 1.0000
38.4800 444.0000 1.0000
38.4900 515.0000 1.0000
38.5000 502.0000 1.0000
38.5100 523.0000 1.0000
38.5200 525.0000 1.0000
38.5300 513.0000 1.0000
38.5400 521.0000 1.0000
38.5500 503.0000 1.0000
38.5600 516.0000 1.0000
38.5700 534.0000 1.0000
38.5800 476.0000 1.0000
38.5900 493.0000 1.0000
38.6000 520.0000 1.0000
38.6100 490.0000 1.0000
38.6200 538.0000 1.0000
38.6300 514.0000 1.0000
38.6400 546.0000 1.0000
38.6500 520.0000 1.0000
38.6600 486.0000 1.0000
38.6700 501.0000 1.0000
38.6800 508.0000 1.0000
38.6900 524.0000 1.0000
38.7000 546.0000 1.0000
38.7100 517.0000 1.0000
38.7200 501.0000 1.0000
38.7300 531.0000 1.0000
38.7400 505.0000 1.0000
38.7500 506.0000 1.0000
38.7600 508.0000 1.0000
38.7700 576.0000 1.0000
38.7800 509.0000 1.0000
38.7900 490.0000 1.0000
38.8000 512.0000 1.0000
38.8100 515.0000 1.0000
38.8200 517.0000 1.0000
38.8300 532.0000 1.0000
38.8400 514.0000 1.0000
38.8500 485.0000 1.0000
38.8600 469.0000 1.0000
38.8700 480.0000 1.0000
38.8800 494.0000 1.0000
38.8900 515.0000 1.0000
38.9000 496.0000 1.0000
38.9100 496.0000 1.0000
38.9200 513.0000 1.0000
38.9300 527.0000 1.0000
38.9400 489.0000 1.0000
38.9500 513.0000 1.0000
38.9600 509.0000 1.0000
38.9700 502.0000 1.0000
38.9800 512.0000 1.0000
38.9900 537.0000 1.0000
39.0000 484.0000 1.0000
39.0100 496.0000 1.0000
39.0200 498.0000 1.0000
39.0300 492.0000 1.0000
39.0400 487.0000 1.0000
39.0500 494.0000 1.0000
39.0600 498.0000 1.0000
39.0700 484.0000 1.0000
39.0800 508.0000 1.0000
39.0900 468.0000 1.0000
39.1000 504.0000 1.0000
39.1100 458.0000 1.0000
39.1200 469.0000 1.0000
39.1300 494.0000 1.0000
39.1400 518.0000 1.0000
39.1500 527.0000 1.0000
39.1600 511.0000 1.0000
39.1700 461.0000 1.0000
39.1800 463.0000 1.0000
39.1900 492.0000 1.0000
39.2000 479.0000 1.0000
39.2100 476.0000 1.0000
39.2200 476.0000 1.0000
39.2300 475.0000 1.0000
39.2400 469.0000 1.0000
39.2500 474.0000 1.0000
39.2600 482.0000 1.0000
39.2700 490.0000 1.0000
39.2800 496.0000 1.0000
39.2900 462.0000 1.0000
39.3000 454.0000 1.0000
39.3100 464.0000 1.0000
39.3200 513.0000 1.0000
39.3300 468.0000 1.0000
39.3400 474.0000 1.0000
39.3500 486.0000 1.0000
39.3600 491.0000 1.0000
39.3700 481.0000 1.0000
39.3800 471.0000 1.0000
39.3900 461.0000 1.0000
39.4000 463.0000 1.0000
39.4100 507.0000 1.0000
39.4200 482.0000 1.0000
39.4300 476.0000 1.0000
39.4400 475.0000 1.0000
39.4500 488.0000 1.0000
39.4600 489.0000 1.0000
39.4700 461.0000 1.0000
39.4800 490.0000 1.0000
39.4900 484.0000 1.0000
39.5000 481.0000 1.0000
39.5100 487.0000 1.0000
39.5200 488.0000 1.0000
39.5300 490.0000 1.0000
39.5400 472.0000 1.0000
39.5500 486.0000 1.0000
39.5600 491.0000 1.0000
39.5700 478.0000 1.0000
39.5800 466.0000 1.0000
39.5900 475.0000 1.0000
39.6000 468.0000 1.0000
39.6100 502.0000 1.0000
39.6200 482.0000 1.0000
39.6300 465.0000 1.0000
39.6400 464.0000 1.0000
39.6500 461.0000 1.0000
39.6600 478.0000 1.0000
39.6700 465.0000 1.0000
39.6800 469.0000 1.0000
39.6900 464.0000 1.0000
39.7000 454.0000 1.0000
39.7100 484.0000 1.0000
39.7200 449.0000 1.0000
39.7300 461.0000 1.0000
39.7400 474.0000 1.0000
39.7500 470.0000 1.0000
39.7600 474.0000 1.0000
39.7700 466.0000 1.0000
39.7800 472.0000 1.0000
39.7900 439.0000 1.0000
39.8000 502.0000 1.0000
39.8100 477.0000 1.0000
39.8200 459.0000 1.0000
39.8300 498.0000 1.0000
39.8400 468.0000 1.0000
39.8500 424.0000 1.0000
39.8600 450.0000 1.0000
39.8700 480.0000 1.0000
39.8800 486.0000 1.0000
39.8900 479.0000 1.0000
39.9000 435.0000 1.0000
39.9100 457.0000 1.0000
39.9200 492.0000 1.0000
39.9300 446.0000 1.0000
39.9400 483.0000 1.0000
39.9500 461.0000 1.0000
39.9600 455.0000 1.0000
39.9700 444.0000 1.0000
39.9800 467.0000 1.0000
39.9900 440.0000 1.0000
40.0000 463.0000 1.0000
40.0100 454.0000 1.0000
40.0200 481.0000 1.0000
40.0300 516.0000 1.0000
40.0400 461.0000 1.0000
40.0500 471.0000 1.0000
40.0600 451.0000 1.0000
40.0700 467.0000 1.0000
40.0800 465.0000 1.0000
40.0900 457.0000 1.0000
40.1000 489.0000 1.0000
40.1100 453.0000 1.0000
40.1200 485.0000 1.0000
40.1300 478.0000 1.0000
40.1400 479.0000 1.0000
40.1500 439.0000 1.0000
40.1600 435.0000 1.0000
40.1700 448.0000 1.0000
40.1800 482.0000 1.0000
40.1900 464.0000 1.0000
40.2000 455.0000 1.0000
40.2100 491.0000 1.0000
40.2200 468.0000 1.0000
40.2300 435.0000 1.0000
40.2400 426.0000 1.0000
40.2500 439.0000 1.0000
40.2600 432.0000 1.0000
40.2700 414.0000 1.0000
40.2800 442.0000 1.0000
40.2900 461.0000 1.0000
40.3000 460.0000 1.0000
40.3100 479.0000 1.0000
40.3200 457.0000 1.0000
40.3300 463.0000 1.0000
40.3400 455.0000 1.0000
40.3500 475.0000 1.0000
40.3600 476.0000 1.0000
40.3700 497.0000 1.0000
40.3800 458.0000 1.0000
40.3900 479.0000 1.0000
40.4000 487.0000 1.0000
40.4100 491.0000 1.0000
40.4200 476.0000 1.0000
40.4300 505.0000 1.0000
40.4400 503.0000 1.0000
40.4500 495.0000 1.0000
40.4600 458.0000 1.0000
40.4700 453.0000 1.0000
40.4800 487.0000 1.0000
40.4900 480.0000 1.0000
40.5000 466.0000 1.0000
40.5100 463.0000 1.0000
40.5200 486.0000 1.0000
40.5300 498.0000 1.0000
40.5400 499.0000 1.0000
40.5500 445.0000 1.0000
40.5600 484.0000 1.0000
40.5700 478.0000 1.0000
40.5800 419.0000 1.0000
40.5900 463.0000 1.0000
40.6000 434.0000 1.0000
40.6100 447.0000 1.0000
40.6200 484.0000 1.0000
40.6300 530.0000 1.0000
40.6400 493.0000 1.0000
40.6500 473.0000 1.0000
40.6600 426.0000 1.0000
40.6700 461.0000 1.0000
40.6800 456.0000 1.0000
40.6900 498.0000 1.0000
40.7000 483.0000 1.0000
40.7100 502.0000 1.0000
40.7200 473.0000 1.0000
40.7300 499.0000 1.0000
40.7400 473.0000 1.0000
40.7500 493.0000 1.0000
40.7600 475.0000 1.0000
40.7700 519.0000 1.0000
40.7800 491.0000 1.0000
40.7900 480.0000 1.0000
40.8000 504.0000 1.0000
40.8100 511.0000 1.0000
40.8200 485.0000 1.0000
40.8300 500.0000 1.0000
40.8400 486.0000 1.0000
40.8500 513.0000 1.0000
40.8600 484.0000 1.0000
40.8700 505.0000 1.0000
40.8800 479.0000 1.0000
40.8900 527.0000 1.0000
40.9000 530.0000 1.0000
40.9100 495.0000 1.0000
40.9200 464.0000 1.0000
40.9300 447.0000 1.0000
40.9400 494.0000 1.0000
40.9500 474.0000 1.0000
40.9600 466.0000 1.0000
40.9700 506.0000 1.0000
40.9800 476.0000 1.0000
40.9900 433.0000 1.0000
41.0000 438.0000 1.0000
41.0100 502.0000 1.0000
41.0200 461.0000 1.0000
41.0300 448.0000 1.0000
41.0400 481.0000 1.0000
41.0500 480.0000 1.0000
41.0600 494.0000 1.0000
41.0700 463.0000 1.0000
41.0800 460.0000 1.0000
41.0900 441.0000 1.0000
41.1000 457.0000 1.0000
41.1100 476.0000 1.0000
41.1200 439.0000 1.0000
41.1300 433.0000 1.0000
41.1400 459.0000 1.0000
41.1500 485.0000 1.0000
41.1600 432.0000 1.0000
41.1700 467.0000 1.0000
41.1800 457.0000 1.0000
41.1900 452.0000 1.0000
41.2000 449.0000 1.0000
41.2100 432.0000 1.0000
41.2200 463.0000 1.0000
41.2300 471.0000 1.0000
41.2400 451.0000 1.0000
41.2500 461.0000 1.0000
41.2600 450.0000 1.0000
41.2700 465.0000 1.0000
41.2800 463.0000 1.0000
41.2900 447.0000 1.0000
41.3000 424.0000 1.0000
41.3100 464.0000 1.0000
41.3200 445.0000 1.0000
41.3300 446.0000 1.0000
41.3400 442.0000 1.0000
41.3500 437.0000 1.0000
41.3600 448.0000 1.0000
41.3700 417.0000 1.0000
41.3800 434.0000 1.0000
41.3900 433.0000 1.0000
41.4000 455.0000 1.0000
41.4100 426.0000 1.0000
41.4200 466.0000 1.0000
41.4300 419.0000 1.0000
41.4400 428.0000 1.0000
41.4500 443.0000 1.0000
41.4600 463.0000 1.0000
41.4700 450.0000 1.0000
41.4800 471.0000 1.0000
41.4900 422.0000 1.0000
41.5000 425.0000 1.0000
41.5100 472.0000 1.0000
41.5200 463.0000 1.0000
41.5300 475.0000 1.0000
41.5400 434.0000 1.0000
41.5500 401.0000 1.0000
41.5600 449.0000 1.0000
41.5700 439.0000 1.0000
41.5800 445.0000 1.0000
41.5900 441.0000 1.0000
41.6000 432.0000 1.0000
41.6100 442.0000 1.0000
41.6200 449.0000 1.0000
41.6300 441.0000 1.0000
41.6400 438.0000 1.0000
41.6500 465.0000 1.0000
41.6600 456.0000 1.0000
41.6700 450.0000 1.0000
41.6800 444.0000 1.0000
41.6900 432.0000 1.0000
41.7000 451.0000 1.0000
41.7100 428.0000 1.0000
41.7200 459.0000 1.0000
41.7300 440.0000 1.0000
41.7400 435.0000 1.0000
41.7500 422.0000 1.0000
41.7600 466.0000 1.0000
41.7700 450.0000 1.0000
41.7800 474.0000 1.0000
41.7900 450.0000 1.0000
41.8000 421.0000 1.0000
41.8100 461.0000 1.0000
41.8200 438.0000 1.0000
41.8300 437.0000 1.0000
41.8400 449.0000 1.0000
41.8500 441.0000 1.0000
41.8600 446.0000 1.0000
41.8700 475.0000 1.0000
41.8800 450.0000 1.0000
41.8900 443.0000 1.0000
41.9000 446.0000 1.0000
41.9100 436.0000 1.0000
41.9200 440.0000 1.0000
41.9300 404.0000 1.0000
41.9400 437.0000 1.0000
41.9500 457.0000 1.0000
41.9600 429.0000 1.0000
41.9700 427.0000 1.0000
41.9800 443.0000 1.0000
41.9900 477.0000 1.0000
42.0000 434.0000 1.0000
42.0100 438.0000 1.0000
42.0200 429.0000 1.0000
42.0300 463.0000 1.0000
42.0400 442.0000 1.0000
42.0500 449.0000 1.0000
42.0600 472.0000 1.0000
42.0700 455.0000 1.0000
42.0800 475.0000 1.0000
42.0900 437.0000 1.0000
42.1000 459.0000 1.0000
42.1100 455.0000 1.0000
42.1200 437.0000 1.0000
42.1300 433.0000 1.0000
42.1400 469.0000 1.0000
42.1500 465.0000 1.0000
42.1600 460.0000 1.0000
42.1700 461.0000 1.0000
42.1800 465.0000 1.0000
42.1900 465.0000 1.0000
42.2000 432.0000 1.0000
42.2100 463.0000 1.0000
42.2200 447.0000 1.0000
42.2300 433.0000 1.0000
42.2400 473.0000 1.0000
42.2500 461.0000 1.0000
42.2600 454.0000 1.0000
42.2700 472.0000 1.0000
42.2800 446.0000 1.0000
42.2900 441.0000 1.0000
42.3000 490.0000 1.0000
42.3100 462.0000 1.0000
42.3200 461.0000 1.0000
42.3300 471.0000 1.0000
42.3400 456.0000 1.0000
42.3500 469.0000 1.0000
42.3600 493.0000 1.0000
42.3700 455.0000 1.0000
42.3800 443.0000 1.0000
42.3900 464.0000 1.0000
42.4000 492.0000 1.0000
42.4100 465.0000 1.0000
42.4200 517.0000 1.0000
42.4300 494.0000 1.0000
42.4400 459.0000 1.0000
42.4500 451.0000 1.0000
42.4600 480.0000 1.0000
42.4700 476.0000 1.0000
42.4800 464.0000 1.0000
42.4900 444.0000 1.0000
42.5000 475.0000 1.0000
42.5100 443.0000 1.0000
42.5200 489.0000 1.0000
42.5300 474.0000 1.0000
42.5400 463.0000 1.0000
42.5500 454.0000 1.0000
42.5600 434.0000 1.0000
42.5700 458.0000 1.0000
42.5800 459.0000 1.0000
42.5900 460.0000 1.0000
42.6000 447.0000 1.0000
42.6100 427.0000 1.0000
42.6200 432.0000 1.0000
42.6300 451.0000 1.0000
42.6400 459.0000 1.0000
42.6500 440.0000 1.0000
42.6600 432.0000 1.0000
42.6700 464.0000 1.0000
42.6800 483.0000 1.0000
42.6900 441.0000 1.0000
42.7000 455.0000 1.0000
42.7100 437.0000 1.0000
42.7200 478.0000 1.0000
42.7300 452.0000 1.0000
42.7400 459.0000 1.0000
42.7500 433.0000 1.0000
42.7600 427.0000 1.0000
42.7700 423.0000 1.0000
42.7800 424.0000 1.0000
42.7900 445.0000 1.0000
42.8000 438.0000 1.0000
42.8100 437.0000 1.0000
42.8200 433.0000 1.0000
42.8300 433.0000 1.0000
42.8400 451.0000 1.0000
42.8500 444.0000 1.0000
42.8600 450.0000 1.0000
42.8700 435.0000 1.0000
42.8800 412.0000 1.0000
42.8900 465.0000 1.0000
42.9000 434.0000 1.0000
42.9100 419.0000 1.0000
42.9200 422.0000 1.0000
42.9300 419.0000 1.0000
42.9400 446.0000 1.0000
42.9500 428.0000 1.0000
42.9600 450.0000 1.0000
42.9700 431.0000 1.0000
42.9800 420.0000 1.0000
42.9900 445.0000 1.0000
43.0000 418.0000 1.0000
43.0100 439.0000 1.0000
43.0200 440.0000 1.0000
43.0300 418.0000 1.0000
43.0400 481.0000 1.0000
43.0500 460.0000 1.0000
43.0600 428.0000 1.0000
43.0700 439.0000 1.0000
43.0800 444.0000 1.0000
43.0900 441.0000 1.0000
43.1000 449.0000 1.0000
43.1100 428.0000 1.0000
43.1200 435.0000 1.0000
43.1300 437.0000 1.0000
43.1400 429.0000 1.0000
43.1500 422.0000 1.0000
43.1600 449.0000 1.0000
43.1700 454.0000 1.0000
43.1800 446.0000 1.0000
43.1900 418.0000 1.0000
43.2000 432.0000 1.0000
43.2100 433.0000 1.0000
43.2200 433.0000 1.0000
43.2300 436.0000 1.0000
43.2400 460.0000 1.0000
43.2500 450.0000 1.0000
43.2600 455.0000 1.0000
43.2700 420.0000 1.0000
43.2800 456.0000 1.0000
43.2900 432.0000 1.0000
43.3000 438.0000 1.0000
43.3100 448.0000 1.0000
43.3200 419.0000 1.0000
43.3300 430.0000 1.0000
43.3400 420.0000 1.0000
43.3500 453.0000 1.0000
43.3600 461.0000 1.0000
43.3700 462.0000 1.0000
43.3800 435.0000 1.0000
43.3900 508.0000 1.0000
43.4000 469.0000 1.0000
43.4100 471.0000 1.0000
43.4200 459.0000 1.0000
43.4300 440.0000 1.0000
43.4400 428.0000 1.0000
43.4500 458.0000 1.0000
43.4600 464.0000 1.0000
43.4700 440.0000 1.0000
43.4800 444.0000 1.0000
43.4900 445.0000 1.0000
43.5000 457.0000 1.0000
43.5100 468.0000 1.0000
43.5200 421.0000 1.0000
43.5300 427.0000 1.0000
43.5400 461.0000 1.0000
43.5500 469.0000 1.0000
43.5600 464.0000 1.0000
43.5700 478.0000 1.0000
43.5800 449.0000 1.0000
43.5900 443.0000 1.0000
43.6000 428.0000 1.0000
43.6100 442.0000 1.0000
43.6200 435.0000 1.0000
43.6300 426.0000 1.0000
43.6400 438.0000 1.0000
43.6500 418.0000 1.0000
43.6600 445.0000 1.0000
43.6700 445.0000 1.0000
43.6800 434.0000 1.0000
43.6900 403.0000 1.0000
43.7000 438.0000 1.0000
43.7100 427.0000 1.0000
43.7200 422.0000 1.0000
43.7300 450.0000 1.0000
43.7400 425.0000 1.0000
43.7500 424.0000 1.0000
43.7600 374.0000 1.0000
43.7700 430.0000 1.0000
43.7800 424.0000 1.0000
43.7900 437.0000 1.0000
43.8000 392.0000 1.0000
43.8100 469.0000 1.0000
43.8200 419.0000 1.0000
43.8300 448.0000 1.0000
43.8400 491.0000 1.0000
43.8500 455.0000 1.0000
43.8600 399.0000 1.0000
43.8700 440.0000 1.0000
43.8800 423.0000 1.0000
43.8900 406.0000 1.0000
43.9000 434.0000 1.0000
43.9100 422.0000 1.0000
43.9200 405.0000 1.0000
43.9300 407.0000 1.0000
43.9400 415.0000 1.0000
43.9500 393.0000 1.0000
43.9600 396.0000 1.0000
43.9700 423.0000 1.0000
43.9800 414.0000 1.0000
43.9900 426.0000 1.0000
44.0000 398.0000 1.0000
44.0100 407.0000 1.0000
44.0200 458.0000 1.0000
44.0300 420.0000 1.0000
44.0400 408.0000 1.0000
44.0500 404.0000 1.0000
44.0600 430.0000 1.0000
44.0700 419.0000 1.0000
44.0800 414.0000 1.0000
44.0900 413.0000 1.0000
44.1000 418.0000 1.0000
44.1100 422.0000 1.0000
44.1200 401.0000 1.0000
44.1300 424.0000 1.0000
44.1400 417.0000 1.0000
44.1500 459.0000 1.0000
44.1600 418.0000 1.0000
44.1700 386.0000 1.0000
44.1800 429.0000 1.0000
44.1900 429.0000 1.0000
44.2000 435.0000 1.0000
44.2100 396.0000 1.0000
44.2200 404.0000 1.0000
44.2300 395.0000 1.0000
44.2400 414.0000 1.0000
44.2500 437.0000 1.0000
44.2600 410.0000 1.0000
44.2700 407.0000 1.0000
44.2800 413.0000 1.0000
44.2900 439.0000 1.0000
44.3000 427.0000 1.0000
44.3100 415.0000 1.0000
44.3200 408.0000 1.0000
44.3300 428.0000 1.0000
44.3400 405.0000 1.0000
44.3500 409.0000 1.0000
44.3600 429.0000 1.0000
44.3700 448.0000 1.0000
44.3800 419.0000 1.0000
44.3900 444.0000 1.0000
44.4000 402.0000 1.0000
44.4100 406.0000 1.0000
44.4200 415.0000 1.0000
44.4300 403.0000 1.0000
44.4400 396.0000 1.0000
44.4500 414.0000 1.0000
44.4600 408.0000 1.0000
44.4700 396.0000 1.0000
44.4800 409.0000 1.0000
44.4900 405.0000 1.0000
44.5000 437.0000 1.0000
44.5100 433.0000 1.0000
44.5200 433.0000 1.0000
44.5300 447.0000 1.0000
44.5400 432.0000 1.0000
44.5500 406.0000 1.0000
44.5600 418.0000 1.0000
44.5700 431.0000 1.0000
44.5800 461.0000 1.0000
44.5900 426.0000 1.0000
44.6000 422.0000 1.0000
44.6100 411.0000 1.0000
44.6200 412.0000 1.0000
44.6300 455.0000 1.0000
44.6400 452.0000 1.0000
44.6500 382.0000 1.0000
44.6600 403.0000 1.0000
44.6700 416.0000 1.0000
44.6800 417.0000 1.0000
44.6900 411.0000 1.0000
44.7000 423.0000 1.0000
44.7100 436.0000 1.0000
44.7200 422.0000 1.0000
44.7300 419.0000 1.0000
44.7400 457.0000 1.0000
44.7500 423.0000 1.0000
44.7600 404.0000 1.0000
44.7700 465.0000 1.0000
44.7800 450.0000 1.0000
44.7900 406.0000 1.0000
44.8000 390.0000 1.0000
44.8100 405.0000 1.0000
44.8200 405.0000 1.0000
44.8300 381.0000 1.0000
44.8400 400.0000 1.0000
44.8500 395.0000 1.0000
44.8600 408.0000 1.0000
44.8700 396.0000 1.0000
44.8800 428.0000 1.0000
44.8900 397.0000 1.0000
44.9000 425.0000 1.0000
44.9100 356.0000 1.0000
44.9200 404.0000 1.0000
44.9300 414.0000 1.0000
44.9400 425.0000 1.0000
44.9500 417.0000 1.0000
44.9600 426.0000 1.0000
44.9700 442.0000 1.0000
44.9800 437.0000 1.0000
44.9900 384.0000 1.0000
45.0000 395.0000 1.0000
45.0100 378.0000 1.0000
45.0200 417.0000 1.0000
45.0300 432.0000 1.0000
45.0400 405.0000 1.0000
45.0500 396.0000 1.0000
45.0600 379.0000 1.0000
45.0700 426.0000 1.0000
45.0800 420.0000 1.0000
45.0900 440.0000 1.0000
45.1000 408.0000 1.0000
45.1100 404.0000 1.0000
45.1200 407.0000 1.0000
45.1300 396.0000 1.0000
45.1400 415.0000 1.0000
45.1500 402.0000 1.0000
45.1600 413.0000 1.0000
45.1700 409.0000 1.0000
45.1800 402.0000 1.0000
45.1900 386.0000 1.0000
45.2000 414.0000 1.0000
45.2100 399.0000 1.0000
45.2200 414.0000 1.0000
45.2300 408.0000 1.0000
45.2400 454.0000 1.0000
45.2500 395.0000 1.0000
45.2600 418.0000 1.0000
45.2700 419.0000 1.0000
45.2800 432.0000 1.0000
45.2900 394.0000 1.0000
45.3000 406.0000 1.0000
45.3100 383.0000 1.0000
45.3200 438.0000 1.0000
45.3300 370.0000 1.0000
45.3400 387.0000 1.0000
45.3500 438.0000 1.0000
45.3600 432.0000 1.0000
45.3700 401.0000 1.0000
45.3800 407.0000 1.0000
45.3900 392.0000 1.0000
45.4000 398.0000 1.0000
45.4100 408.0000 1.0000
45.4200 405.0000 1.0000
45.4300 418.0000 1.0000
45.4400 411.0000 1.0000
45.4500 401.0000 1.0000
45.4600 388.0000 1.0000
45.4700 419.0000 1.0000
45.4800 417.0000 1.0000
45.4900 430.0000 1.0000
45.5000 420.0000 1.0000
45.5100 395.0000 1.0000
45.5200 394.0000 1.0000
45.5300 426.0000 1.0000
45.5400 415.0000 1.0000
45.5500 427.0000 1.0000
45.5600 400.0000 1.0000
45.5700 364.0000 1.0000
45.5800 409.0000 1.0000
45.5900 423.0000 1.0000
45.6000 377.0000 1.0000
45.6100 385.0000 1.0000
45.6200 396.0000 1.0000
45.6300 407.0000 1.0000
45.6400 416.0000 1.0000
45.6500 392.0000 1.0000
45.6600 383.0000 1.0000
45.6700 395.0000 1.0000
45.6800 413.0000 1.0000
45.6900 392.0000 1.0000
45.7000 423.0000 1.0000
45.7100 417.0000 1.0000
45.7200 423.0000 1.0000
45.7300 398.0000 1.0000
45.7400 389.0000 1.0000
45.7500 434.0000 1.0000
45.7600 428.0000 1.0000
45.7700 409.0000 1.0000
45.7800 415.0000 1.0000
45.7900 409.0000 1.0000
45.8000 408.0000 1.0000
45.8100 376.0000 1.0000
45.8200 396.0000 1.0000
45.8300 411.0000 1.0000
45.8400 378.0000 1.0000
45.8500 431.0000 1.0000
45.8600 449.0000 1.0000
45.8700 407.0000 1.0000
45.8800 408.0000 1.0000
45.8900 417.0000 1.0000
45.9000 402.0000 1.0000
45.9100 406.0000 1.0000
45.9200 407.0000 1.0000
45.9300 394.0000 1.0000
45.9400 395.0000 1.0000
45.9500 392.0000 1.0000
45.9600 411.0000 1.0000
45.9700 410.0000 1.0000
45.9800 409.0000 1.0000
45.9900 388.0000 1.0000
46.0000 398.0000 1.0000
46.0100 388.0000 1.0000
46.0200 451.0000 1.0000
46.0300 395.0000 1.0000
46.0400 389.0000 1.0000
46.0500 410.0000 1.0000
46.0600 409.0000 1.0000
46.0700 403.0000 1.0000
46.0800 397.0000 1.0000
46.0900 415.0000 1.0000
46.1000 398.0000 1.0000
46.1100 407.0000 1.0000
46.1200 405.0000 1.0000
46.1300 429.0000 1.0000
46.1400 416.0000 1.0000
46.1500 400.0000 1.0000
46.1600 434.0000 1.0000
46.1700 403.0000 1.0000
46.1800 415.0000 1.0000
46.1900 428.0000 1.0000
46.2000 416.0000 1.0000
46.2100 408.0000 1.0000
46.2200 389.0000 1.0000
46.2300 400.0000 1.0000
46.2400 407.0000 1.0000
46.2500 396.0000 1.0000
46.2600 411.0000 1.0000
46.2700 414.0000 1.0000
46.2800 416.0000 1.0000
46.2900 387.0000 1.0000
46.3000 397.0000 1.0000
46.3100 381.0000 1.0000
46.3200 385.0000 1.0000
46.3300 412.0000 1.0000
46.3400 402.0000 1.0000
46.3500 384.0000 1.0000
46.3600 413.0000 1.0000
46.3700 391.0000 1.0000
46.3800 383.0000 1.0000
46.3900 410.0000 1.0000
46.4000 380.0000 1.0000
46.4100 400.0000 1.0000
46.4200 369.0000 1.0000
46.4300 404.0000 1.0000
46.4400 387.0000 1.0000
46.4500 378.0000 1.0000
46.4600 386.0000 1.0000
46.4700 390.0000 1.0000
46.4800 412.0000 1.0000
46.4900 386.0000 1.0000
46.5000 388.0000 1.0000
46.5100 440.0000 1.0000
46.5200 415.0000 1.0000
46.5300 406.0000 1.0000
46.5400 396.0000 1.0000
46.5500 403.0000 1.0000
46.5600 398.0000 1.0000
46.5700 424.0000 1.0000
46.5800 399.0000 1.0000
46.5900 384.0000 1.0000
46.6000 397.0000 1.0000
46.6100 372.0000 1.0000
46.6200 400.0000 1.0000
46.6300 401.0000 1.0000
46.6400 390.0000 1.0000
46.6500 393.0000 1.0000
46.6600 399.0000 1.0000
46.6700 401.0000 1.0000
46.6800 383.0000 1.0000
46.6900 397.0000 1.0000
46.7000 389.0000 1.0000
46.7100 379.0000 1.0000
46.7200 363.0000 1.0000
46.7300 413.0000 1.0000
46.7400 400.0000 1.0000
46.7500 386.0000 1.0000
46.7600 388.0000 1.0000
46.7700 380.0000 1.0000
46.7800 389.0000 1.0000
46.7900 386.0000 1.0000
46.8000 410.0000 1.0000
46.8100 375.0000 1.0000
46.8200 381.0000 1.0000
46.8300 399.0000 1.0000
46.8400 414.0000 1.0000
46.8500 393.0000 1.0000
46.8600 364.0000 1.0000
46.8700 397.0000 1.0000
46.8800 397.0000 1.0000
46.8900 407.0000 1.0000
46.9000 388.0000 1.0000
46.9100 405.0000 1.0000
46.9200 381.0000 1.0000
46.9300 381.0000 1.0000
46.9400 383.0000 1.0000
46.9500 394.0000 1.0000
46.9600 393.0000 1.0000
46.9700 384.0000 1.0000
46.9800 400.0000 1.0000
46.9900 372.0000 1.0000
47.0000 382.0000 1.0000
47.0100 418.0000 1.0000
47.0200 421.0000 1.0000
47.0300 409.0000 1.0000
47.0400 396.0000 1.0000
47.0500 366.0000 1.0000
47.0600 368.0000 1.0000
47.0700 414.0000 1.0000
47.0800 407.0000 1.0000
47.0900 394.0000 1.0000
47.1000 400.0000 1.0000
47.1100 387.0000 1.0000
47.1200 358.0000 1.0000
47.1300 383.0000 1.0000
47.1400 400.0000 1.0000
47.1500 409.0000 1.0000
47.1600 396.0000 1.0000
47.1700 394.0000 1.0000
47.1800 401.0000 1.0000
47.1900 394.0000 1.0000
47.2000 394.0000 1.0000
47.2100 402.0000 1.0000
47.2200 408.0000 1.0000
47.2300 421.0000 1.0000
47.2400 400.0000 1.0000
47.2500 406.0000 1.0000
47.2600 397.0000 1.0000
47.2700 397.0000 1.0000
47.2800 398.0000 1.0000
47.2900 386.0000 1.0000
47.3000 378.0000 1.0000
47.3100 404.0000 1.0000
47.3200 380.0000 1.0000
47.3300 384.0000 1.0000
47.3400 395.0000 1.0000
47.3500 405.0000 1.0000
47.3600 378.0000 1.0000
47.3700 370.0000 1.0000
47.3800 406.0000 1.0000
47.3900 393.0000 1.0000
47.4000 400.0000 1.0000
47.4100 382.0000 1.0000
47.4200 408.0000 1.0000
47.4300 403.0000 1.0000
47.4400 417.0000 1.0000
47.4500 384.0000 1.0000
47.4600 365.0000 1.0000
47.4700 419.0000 1.0000
47.4800 413.0000 1.0000
47.4900 392.0000 1.0000
47.5000 402.0000 1.0000
47.5100 385.0000 1.0000
47.5200 380.0000 1.0000
47.5300 390.0000 1.0000
47.5400 404.0000 1.0000
47.5500 395.0000 1.0000
47.5600 384.0000 1.0000
47.5700 369.0000 1.0000
47.5800 358.0000 1.0000
47.5900 403.0000 1.0000
47.6000 373.0000 1.0000
47.6100 409.0000 1.0000
47.6200 385.0000 1.0000
47.6300 415.0000 1.0000
47.6400 382.0000 1.0000
47.6500 370.0000 1.0000
47.6600 349.0000 1.0000
47.6700 382.0000 1.0000
47.6800 386.0000 1.0000
47.6900 405.0000 1.0000
47.7000 381.0000 1.0000
47.7100 382.0000 1.0000
47.7200 389.0000 1.0000
47.7300 404.0000 1.0000
47.7400 372.0000 1.0000
47.7500 401.0000 1.0000
47.7600 398.0000 1.0000
47.7700 379.0000 1.0000
47.7800 359.0000 1.0000
47.7900 379.0000 1.0000
47.8000 405.0000 1.0000
47.8100 376.0000 1.0000
47.8200 399.0000 1.0000
47.8300 391.0000 1.0000
47.8400 389.0000 1.0000
47.8500 377.0000 1.0000
47.8600 399.0000 1.0000
47.8700 388.0000 1.0000
47.8800 385.0000 1.0000
47.8900 425.0000 1.0000
47.9000 373.0000 1.0000
47.9100 380.0000 1.0000
47.9200 395.0000 1.0000
47.9300 365.0000 1.0000
47.9400 373.0000 1.0000
47.9500 349.0000 1.0000
47.9600 376.0000 1.0000
47.9700 388.0000 1.0000
47.9800 357.0000 1.0000
47.9900 358.0000 1.0000
48.0000 356.0000 1.0000
48.0100 336.0000 1.0000
48.0200 355.0000 1.0000
48.0300 389.0000 1.0000
48.0400 377.0000 1.0000
48.0500 392.0000 1.0000
48.0600 384.0000 1.0000
48.0700 363.0000 1.0000
48.0800 373.0000 1.0000
48.0900 374.0000 1.0000
48.1000 365.0000 1.0000
48.1100 378.0000 1.0000
48.1200 360.0000 1.0000
48.1300 379.0000 1.0000
48.1400 369.0000 1.0000
48.1500 380.0000 1.0000
48.1600 379.0000 1.0000
48.1700 383.0000 1.0000
48.1800 365.0000 1.0000
48.1900 407.0000 1.0000
48.2000 364.0000 1.0000
48.2100 361.0000 1.0000
48.2200 367.0000 1.0000
48.2300 377.0000 1.0000
48.2400 403.0000 1.0000
48.2500 398.0000 1.0000
48.2600 390.0000 1.0000
48.2700 414.0000 1.0000
48.2800 402.0000 1.0000
48.2900 401.0000 1.0000
48.3000 392.0000 1.0000
48.3100 392.0000 1.0000
48.3200 360.0000 1.0000
48.3300 356.0000 1.0000
48.3400 367.0000 1.0000
48.3500 388.0000 1.0000
48.3600 380.0000 1.0000
48.3700 359.0000 1.0000
48.3800 384.0000 1.0000
48.3900 361.0000 1.0000
48.4000 357.0000 1.0000
48.4100 377.0000 1.0000
48.4200 374.0000 1.0000
48.4300 404.0000 1.0000
48.4400 410.0000 1.0000
48.4500 359.0000 1.0000
48.4600 341.0000 1.0000
48.4700 361.0000 1.0000
48.4800 362.0000 1.0000
48.4900 370.0000 1.0000
48.5000 406.0000 1.0000
48.5100 403.0000 1.0000
48.5200 350.0000 1.0000
48.5300 348.0000 1.0000
48.5400 372.0000 1.0000
48.5500 383.0000 1.0000
48.5600 406.0000 1.0000
48.5700 408.0000 1.0000
48.5800 374.0000 1.0000
48.5900 382.0000 1.0000
48.6000 375.0000 1.0000
48.6100 379.0000 1.0000
48.6200 376.0000 1.0000
48.6300 412.0000 1.0000
48.6400 377.0000 1.0000
48.6500 385.0000 1.0000
48.6600 395.0000 1.0000
48.6700 369.0000 1.0000
48.6800 411.0000 1.0000
48.6900 392.0000 1.0000
48.7000 346.0000 1.0000
48.7100 403.0000 1.0000
48.7200 389.0000 1.0000
48.7300 384.0000 1.0000
48.7400 368.0000 1.0000
48.7500 375.0000 1.0000
48.7600 400.0000 1.0000
48.7700 385.0000 1.0000
48.7800 403.0000 1.0000
48.7900 371.0000 1.0000
48.8000 389.0000 1.0000
48.8100 365.0000 1.0000
48.8200 342.0000 1.0000
48.8300 373.0000 1.0000
48.8400 391.0000 1.0000
48.8500 377.0000 1.0000
48.8600 394.0000 1.0000
48.8700 395.0000 1.0000
48.8800 385.0000 1.0000
48.8900 355.0000 1.0000
48.9000 357.0000 1.0000
48.9100 377.0000 1.0000
48.9200 368.0000 1.0000
48.9300 378.0000 1.0000
48.9400 407.0000 1.0000
48.9500 387.0000 1.0000
48.9600 372.0000 1.0000
48.9700 392.0000 1.0000
48.9800 382.0000 1.0000
48.9900 391.0000 1.0000
49.0000 351.0000 1.0000
49.0100 384.0000 1.0000
49.0200 392.0000 1.0000
49.0300 370.0000 1.0000
49.0400 408.0000 1.0000
49.0500 410.0000 1.0000
49.0600 388.0000 1.0000
49.0700 397.0000 1.0000
49.0800 368.0000 1.0000
49.0900 387.0000 1.0000
49.1000 398.0000 1.0000
49.1100 387.0000 1.0000
49.1200 338.0000 1.0000
49.1300 379.0000 1.0000
49.1400 388.0000 1.0000
49.1500 388.0000 1.0000
49.1600 391.0000 1.0000
49.1700 360.0000 1.0000
49.1800 393.0000 1.0000
49.1900 375.0000 1.0000
49.2000 406.0000 1.0000
49.2100 380.0000 1.0000
49.2200 404.0000 1.0000
49.2300 429.0000 1.0000
49.2400 390.0000 1.0000
49.2500 389.0000 1.0000
49.2600 407.0000 1.0000
49.2700 389.0000 1.0000
49.2800 424.0000 1.0000
49.2900 402.0000 1.0000
49.3000 414.0000 1.0000
49.3100 420.0000 1.0000
49.3200 434.0000 1.0000
49.3300 425.0000 1.0000
49.3400 437.0000 1.0000
49.3500 450.0000 1.0000
49.3600 431.0000 1.0000
49.3700 429.0000 1.0000
49.3800 455.0000 1.0000
49.3900 431.0000 1.0000
49.4000 454.0000 1.0000
49.4100 467.0000 1.0000
49.4200 444.0000 1.0000
49.4300 436.0000 1.0000
49.4400 456.0000 1.0000
49.4500 465.0000 1.0000
49.4600 477.0000 1.0000
49.4700 425.0000 1.0000
49.4800 427.0000 1.0000
49.4900 412.0000 1.0000
49.5000 429.0000 1.0000
49.5100 437.0000 1.0000
49.5200 423.0000 1.0000
49.5300 418.0000 1.0000
49.5400 444.0000 1.0000
49.5500 404.0000 1.0000
49.5600 416.0000 1.0000
49.5700 410.0000 1.0000
49.5800 428.0000 1.0000
49.5900 403.0000 1.0000
49.6000 380.0000 1.0000
49.6100 402.0000 1.0000
49.6200 407.0000 1.0000
49.6300 416.0000 1.0000
49.6400 360.0000 1.0000
49.6500 382.0000 1.0000
49.6600 372.0000 1.0000
49.6700 367.0000 1.0000
49.6800 358.0000 1.0000
49.6900 403.0000 1.0000
49.7000 394.0000 1.0000
49.7100 390.0000 1.0000
49.7200 409.0000 1.0000
49.7300 422.0000 1.0000
49.7400 405.0000 1.0000
49.7500 381.0000 1.0000
49.7600 413.0000 1.0000
49.7700 393.0000 1.0000
49.7800 398.0000 1.0000
49.7900 374.0000 1.0000
49.8000 387.0000 1.0000
49.8100 372.0000 1.0000
49.8200 402.0000 1.0000
49.8300 408.0000 1.0000
49.8400 392.0000 1.0000
49.8500 394.0000 1.0000
49.8600 375.0000 1.0000
49.8700 379.0000 1.0000
49.8800 382.0000 1.0000
49.8900 389.0000 1.0000
49.9000 389.0000 1.0000
49.9100 386.0000 1.0000
49.9200 367.0000 1.0000
49.9300 322.0000 1.0000
49.9400 380.0000 1.0000
49.9500 399.0000 1.0000
49.9600 399.0000 1.0000
49.9700 385.0000 1.0000
49.9800 385.0000 1.0000
49.9900 372.0000 1.0000
50.0000 404.0000 1.0000
50.0100 358.0000 1.0000
50.0200 405.0000 1.0000
50.0300 343.0000 1.0000
50.0400 378.0000 1.0000
50.0500 363.0000 1.0000
50.0600 366.0000 1.0000
50.0700 348.0000 1.0000
50.0800 393.0000 1.0000
50.0900 388.0000 1.0000
50.1000 359.0000 1.0000
50.1100 399.0000 1.0000
50.1200 370.0000 1.0000
50.1300 376.0000 1.0000
50.1400 346.0000 1.0000
50.1500 349.0000 1.0000
50.1600 410.0000 1.0000
50.1700 373.0000 1.0000
50.1800 417.0000 1.0000
50.1900 397.0000 1.0000
50.2000 356.0000 1.0000
50.2100 355.0000 1.0000
50.2200 369.0000 1.0000
50.2300 397.0000 1.0000
50.2400 373.0000 1.0000
50.2500 368.0000 1.0000
50.2600 370.0000 1.0000
50.2700 379.0000 1.0000
50.2800 369.0000 1.0000
50.2900 389.0000 1.0000
50.3000 403.0000 1.0000
50.3100 377.0000 1.0000
50.3200 390.0000 1.0000
50.3300 388.0000 1.0000
50.3400 379.0000 1.0000
50.3500 366.0000 1.0000
50.3600 381.0000 1.0000
50.3700 389.0000 1.0000
50.3800 360.0000 1.0000
50.3900 387.0000 1.0000
50.4000 383.0000 1.0000
50.4100 381.0000 1.0000
50.4200 355.0000 1.0000
50.4300 338.0000 1.0000
50.4400 367.0000 1.0000
50.4500 408.0000 1.0000
50.4600 386.0000 1.0000
50.4700 381.0000 1.0000
50.4800 373.0000 1.0000
50.4900 383.0000 1.0000
50.5000 383.0000 1.0000
50.5100 372.0000 1.0000
50.5200 387.0000 1.0000
50.5300 363.0000 1.0000
50.5400 390.0000 1.0000
50.5500 420.0000 1.0000
50.5600 374.0000 1.0000
50.5700 353.0000 1.0000
50.5800 340.0000 1.0000
50.5900 386.0000 1.0000
50.6000 385.0000 1.0000
50.6100 414.0000 1.0000
50.6200 396.0000 1.0000
50.6300 342.0000 1.0000
50.6400 362.0000 1.0000
50.6500 377.0000 1.0000
50.6600 410.0000 1.0000
50.6700 392.0000 1.0000
50.6800 383.0000 1.0000
50.6900 391.0000 1.0000
50.7000 372.0000 1.0000
50.7100 371.0000 1.0000
50.7200 363.0000 1.0000
50.7300 381.0000 1.0000
50.7400 396.0000 1.0000
50.7500 374.0000 1.0000
50.7600 370.0000 1.0000
50.7700 383.0000 1.0000
50.7800 399.0000 1.0000
50.7900 392.0000 1.0000
50.8000 346.0000 1.0000
50.8100 375.0000 1.0000
50.8200 368.0000 1.0000
50.8300 391.0000 1.0000
50.8400 402.0000 1.0000
50.8500 415.0000 1.0000
50.8600 400.0000 1.0000
50.8700 431.0000 1.0000
50.8800 409.0000 1.0000
50.8900 386.0000 1.0000
50.9000 409.0000 1.0000
50.9100 403.0000 1.0000
50.9200 396.0000 1.0000
50.9300 429.0000 1.0000
50.9400 375.0000 1.0000
50.9500 381.0000 1.0000
50.9600 416.0000 1.0000
50.9700 404.0000 1.0000
50.9800 409.0000 1.0000
50.9900 400.0000 1.0000
51.0000 401.0000 1.0000
51.0100 406.0000 1.0000
51.0200 432.0000 1.0000
51.0300 406.0000 1.0000
51.0400 410.0000 1.0000
51.0500 406.0000 1.0000
51.0600 432.0000 1.0000
51.0700 432.0000 1.0000
51.0800 431.0000 1.0000
51.0900 449.0000 1.0000
51.1000 469.0000 1.0000
51.1100 440.0000 1.0000
51.1200 466.0000 1.0000
51.1300 452.0000 1.0000
51.1400 464.0000 1.0000
51.1500 493.0000 1.0000
51.1600 458.0000 1.0000
51.1700 529.0000 1.0000
51.1800 514.0000 1.0000
51.1900 529.0000 1.0000
51.2000 561.0000 1.0000
51.2100 566.0000 1.0000
51.2200 566.0000 1.0000
51.2300 579.0000 1.0000
51.2400 532.0000 1.0000
51.2500 612.0000 1.0000
51.2600 693.0000 1.0000
51.2700 723.0000 1.0000
51.2800 719.0000 1.0000
51.2900 765.0000 1.0000
51.3000 780.0000 1.0000
51.3100 841.0000 1.0000
51.3200 868.0000 1.0000
51.3300 940.0000 1.0000
51.3400 945.0000 1.0000
51.3500 1075.0000 1.0000
51.3600 1117.0000 1.0000
51.3700 1260.0000 1.0000
51.3800 1383.0000 1.0000
51.3900 1430.0000 1.0000
51.4000 1508.0000 1.0000
51.4100 1550.0000 1.0000
51.4200 1664.0000 1.0000
51.4300 1755.0000 1.0000
51.4400 1940.0000 1.0000
51.4500 1957.0000 1.0000
51.4600 1970.0000 1.0000
51.4700 2000.0000 1.0000
51.4800 2029.0000 1.0000
51.4900 2002.0000 1.0000
51.5000 1999.0000 1.0000
51.5100 2015.0000 1.0000
51.5200 1950.0000 1.0000
51.5300 1832.0000 1.0000
51.5400 1758.0000 1.0000
51.5500 1644.0000 1.0000
51.5600 1697.0000 1.0000
51.5700 1579.0000 1.0000
51.5800 1604.0000 1.0000
51.5900 1515.0000 1.0000
51.6000 1477.0000 1.0000
51.6100 1461.0000 1.0000
51.6200 1355.0000 1.0000
51.6300 1354.0000 1.0000
51.6400 1352.0000 1.0000
51.6500 1277.0000 1.0000
51.6600 1135.0000 1.0000
51.6700 1087.0000 1.0000
51.6800 1024.0000 1.0000
51.6900 982.0000 1.0000
51.7000 883.0000 1.0000
51.7100 832.0000 1.0000
51.7200 772.0000 1.0000
51.7300 804.0000 1.0000
51.7400 691.0000 1.0000
51.7500 648.0000 1.0000
51.7600 648.0000 1.0000
51.7700 630.0000 1.0000
51.7800 641.0000 1.0000
51.7900 610.0000 1.0000
51.8000 543.0000 1.0000
51.8100 553.0000 1.0000
51.8200 578.0000 1.0000
51.8300 452.0000 1.0000
51.8400 511.0000 1.0000
51.8500 495.0000 1.0000
51.8600 487.0000 1.0000
51.8700 507.0000 1.0000
51.8800 510.0000 1.0000
51.8900 477.0000 1.0000
51.9000 471.0000 1.0000
51.9100 439.0000 1.0000
51.9200 433.0000 1.0000
51.9300 442.0000 1.0000
51.9400 431.0000 1.0000
51.9500 456.0000 1.0000
51.9600 428.0000 1.0000
51.9700 419.0000 1.0000
51.9800 455.0000 1.0000
51.9900 406.0000 1.0000
52.0000 426.0000 1.0000
52.0100 441.0000 1.0000
52.0200 432.0000 1.0000
52.0300 406.0000 1.0000
52.0400 410.0000 1.0000
52.0500 427.0000 1.0000
52.0600 409.0000 1.0000
52.0700 387.0000 1.0000
52.0800 421.0000 1.0000
52.0900 404.0000 1.0000
52.1000 387.0000 1.0000
52.1100 393.0000 1.0000
52.1200 373.0000 1.0000
52.1300 386.0000 1.0000
52.1400 401.0000 1.0000
52.1500 405.0000 1.0000
52.1600 425.0000 1.0000
52.1700 407.0000 1.0000
52.1800 381.0000 1.0000
52.1900 353.0000 1.0000
52.2000 392.0000 1.0000
52.2100 376.0000 1.0000
52.2200 371.0000 1.0000
52.2300 393.0000 1.0000
52.2400 382.0000 1.0000
52.2500 378.0000 1.0000
52.2600 401.0000 1.0000
52.2700 417.0000 1.0000
52.2800 412.0000 1.0000
52.2900 413.0000 1.0000
52.3000 385.0000 1.0000
52.3100 387.0000 1.0000
52.3200 364.0000 1.0000
52.3300 377.0000 1.0000
52.3400 387.0000 1.0000
52.3500 390.0000 1.0000
52.3600 396.0000 1.0000
52.3700 387.0000 1.0000
52.3800 364.0000 1.0000
52.3900 386.0000 1.0000
52.4000 384.0000 1.0000
52.4100 348.0000 1.0000
52.4200 361.0000 1.0000
52.4300 364.0000 1.0000
52.4400 407.0000 1.0000
52.4500 423.0000 1.0000
52.4600 379.0000 1.0000
52.4700 380.0000 1.0000
52.4800 374.0000 1.0000
52.4900 400.0000 1.0000
52.5000 373.0000 1.0000
52.5100 375.0000 1.0000
52.5200 406.0000 1.0000
52.5300 361.0000 1.0000
52.5400 369.0000 1.0000
52.5500 370.0000 1.0000
52.5600 356.0000 1.0000
52.5700 387.0000 1.0000
52.5800 383.0000 1.0000
52.5900 364.0000 1.0000
52.6000 387.0000 1.0000
52.6100 339.0000 1.0000
52.6200 326.0000 1.0000
52.6300 340.0000 1.0000
52.6400 357.0000 1.0000
52.6500 368.0000 1.0000
52.6600 396.0000 1.0000
52.6700 362.0000 1.0000
52.6800 362.0000 1.0000
52.6900 368.0000 1.0000
52.7000 360.0000 1.0000
52.7100 355.0000 1.0000
52.7200 343.0000 1.0000
52.7300 385.0000 1.0000
52.7400 393.0000 1.0000
52.7500 356.0000 1.0000
52.7600 357.0000 1.0000
52.7700 382.0000 1.0000
52.7800 371.0000 1.0000
52.7900 365.0000 1.0000
52.8000 368.0000 1.0000
52.8100 361.0000 1.0000
52.8200 349.0000 1.0000
52.8300 364.0000 1.0000
52.8400 362.0000 1.0000
52.8500 388.0000 1.0000
52.8600 358.0000 1.0000
52.8700 372.0000 1.0000
52.8800 372.0000 1.0000
52.8900 366.0000 1.0000
52.9000 368.0000 1.0000
52.9100 352.0000 1.0000
52.9200 362.0000 1.0000
52.9300 399.0000 1.0000
52.9400 372.0000 1.0000
52.9500 359.0000 1.0000
52.9600 353.0000 1.0000
52.9700 369.0000 1.0000
52.9800 372.0000 1.0000
52.9900 401.0000 1.0000
53.0000 385.0000 1.0000
53.0100 371.0000 1.0000
53.0200 384.0000 1.0000
53.0300 378.0000 1.0000
53.0400 356.0000 1.0000
53.0500 365.0000 1.0000
53.0600 334.0000 1.0000
53.0700 330.0000 1.0000
53.0800 356.0000 1.0000
53.0900 357.0000 1.0000
53.1000 375.0000 1.0000
53.1100 398.0000 1.0000
53.1200 340.0000 1.0000
53.1300 386.0000 1.0000
53.1400 376.0000 1.0000
53.1500 372.0000 1.0000
53.1600 357.0000 1.0000
53.1700 367.0000 1.0000
53.1800 337.0000 1.0000
53.1900 379.0000 1.0000
53.2000 379.0000 1.0000
53.2100 357.0000 1.0000
53.2200 359.0000 1.0000
53.2300 353.0000 1.0000
53.2400 337.0000 1.0000
53.2500 353.0000 1.0000
53.2600 344.0000 1.0000
53.2700 359.0000 1.0000
53.2800 375.0000 1.0000
53.2900 361.0000 1.0000
53.3000 366.0000 1.0000
53.3100 372.0000 1.0000
53.3200 338.0000 1.0000
53.3300 365.0000 1.0000
53.3400 340.0000 1.0000
53.3500 348.0000 1.0000
53.3600 366.0000 1.0000
53.3700 350.0000 1.0000
53.3800 363.0000 1.0000
53.3900 341.0000 1.0000
53.4000 356.0000 1.0000
53.4100 365.0000 1.0000
53.4200 368.0000 1.0000
53.4300 388.0000 1.0000
53.4400 378.0000 1.0000
53.4500 371.0000 1.0000
53.4600 368.0000 1.0000
53.4700 394.0000 1.0000
53.4800 368.0000 1.0000
53.4900 367.0000 1.0000
53.5000 401.0000 1.0000
53.5100 346.0000 1.0000
53.5200 350.0000 1.0000
53.5300 350.0000 1.0000
53.5400 360.0000 1.0000
53.5500 372.0000 1.0000
53.5600 369.0000 1.0000
53.5700 352.0000 1.0000
53.5800 350.0000 1.0000
53.5900 357.0000 1.0000
53.6000 372.0000 1.0000
53.6100 333.0000 1.0000
53.6200 359.0000 1.0000
53.6300 347.0000 1.0000
53.6400 348.0000 1.0000
53.6500 349.0000 1.0000
53.6600 389.0000 1.0000
53.6700 374.0000 1.0000
53.6800 367.0000 1.0000
53.6900 372.0000 1.0000
53.7000 361.0000 1.0000
53.7100 370.0000 1.0000
53.7200 372.0000 1.0000
53.7300 369.0000 1.0000
53.7400 348.0000 1.0000
53.7500 353.0000 1.0000
53.7600 363.0000 1.0000
53.7700 358.0000 1.0000
53.7800 349.0000 1.0000
53.7900 360.0000 1.0000
53.8000 370.0000 1.0000
53.8100 356.0000 1.0000
53.8200 360.0000 1.0000
53.8300 351.0000 1.0000
53.8400 351.0000 1.0000
53.8500 360.0000 1.0000
53.8600 367.0000 1.0000
53.8700 341.0000 1.0000
53.8800 369.0000 1.0000
53.8900 405.0000 1.0000
53.9000 410.0000 1.0000
53.9100 390.0000 1.0000
53.9200 394.0000 1.0000
53.9300 422.0000 1.0000
53.9400 389.0000 1.0000
53.9500 378.0000 1.0000
53.9600 385.0000 1.0000
53.9700 379.0000 1.0000
53.9800 427.0000 1.0000
53.9900 430.0000 1.0000
54.0000 420.0000 1.0000
54.0100 411.0000 1.0000
54.0200 418.0000 1.0000
54.0300 408.0000 1.0000
54.0400 380.0000 1.0000
54.0500 371.0000 1.0000
54.0600 378.0000 1.0000
54.0700 426.0000 1.0000
54.0800 357.0000 1.0000
54.0900 380.0000 1.0000
54.1000 409.0000 1.0000
54.1100 400.0000 1.0000
54.1200 408.0000 1.0000
54.1300 409.0000 1.0000
54.1400 404.0000 1.0000
54.1500 401.0000 1.0000
54.1600 387.0000 1.0000
54.1700 406.0000 1.0000
54.1800 364.0000 1.0000
54.1900 385.0000 1.0000
54.2000 408.0000 1.0000
54.2100 398.0000 1.0000
54.2200 396.0000 1.0000
54.2300 395.0000 1.0000
54.2400 379.0000 1.0000
54.2500 358.0000 1.0000
54.2600 383.0000 1.0000
54.2700 428.0000 1.0000
54.2800 405.0000 1.0000
54.2900 388.0000 1.0000
54.3000 398.0000 1.0000
54.3100 401.0000 1.0000
54.3200 391.0000 1.0000
54.3300 402.0000 1.0000
54.3400 400.0000 1.0000
54.3500 377.0000 1.0000
54.3600 394.0000 1.0000
54.3700 456.0000 1.0000
54.3800 451.0000 1.0000
54.3900 430.0000 1.0000
54.4000 455.0000 1.0000
54.4100 476.0000 1.0000
54.4200 467.0000 1.0000
54.4300 476.0000 1.0000
54.4400 494.0000 1.0000
54.4500 490.0000 1.0000
54.4600 488.0000 1.0000
54.4700 481.0000 1.0000
54.4800 480.0000 1.0000
54.4900 504.0000 1.0000
54.5000 505.0000 1.0000
54.5100 515.0000 1.0000
54.5200 505.0000 1.0000
54.5300 500.0000 1.0000
54.5400 491.0000 1.0000
54.5500 515.0000 1.0000
54.5600 499.0000 1.0000
54.5700 458.0000 1.0000
54.5800 477.0000 1.0000
54.5900 493.0000 1.0000
54.6000 477.0000 1.0000
54.6100 475.0000 1.0000
54.6200 472.0000 1.0000
54.6300 473.0000 1.0000
54.6400 493.0000 1.0000
54.6500 479.0000 1.0000
54.6600 449.0000 1.0000
54.6700 432.0000 1.0000
54.6800 448.0000 1.0000
54.6900 459.0000 1.0000
54.7000 424.0000 1.0000
54.7100 410.0000 1.0000
54.7200 408.0000 1.0000
54.7300 414.0000 1.0000
54.7400 405.0000 1.0000
54.7500 424.0000 1.0000
54.7600 397.0000 1.0000
54.7700 433.0000 1.0000
54.7800 425.0000 1.0000
54.7900 391.0000 1.0000
54.8000 369.0000 1.0000
54.8100 393.0000 1.0000
54.8200 373.0000 1.0000
54.8300 397.0000 1.0000
54.8400 362.0000 1.0000
54.8500 379.0000 1.0000
54.8600 355.0000 1.0000
54.8700 341.0000 1.0000
54.8800 381.0000 1.0000
54.8900 358.0000 1.0000
54.9000 379.0000 1.0000
54.9100 345.0000 1.0000
54.9200 389.0000 1.0000
54.9300 372.0000 1.0000
54.9400 368.0000 1.0000
54.9500 356.0000 1.0000
54.9600 349.0000 1.0000
54.9700 368.0000 1.0000
54.9800 368.0000 1.0000
54.9900 334.0000 1.0000
55.0000 376.0000 1.0000
55.0100 345.0000 1.0000
55.0200 347.0000 1.0000
55.0300 383.0000 1.0000
55.0400 343.0000 1.0000
55.0500 335.0000 1.0000
55.0600 349.0000 1.0000
55.0700 369.0000 1.0000
55.0800 344.0000 1.0000
55.0900 360.0000 1.0000
55.1000 367.0000 1.0000
55.1100 368.0000 1.0000
55.1200 371.0000 1.0000
55.1300 354.0000 1.0000
55.1400 354.0000 1.0000
55.1500 373.0000 1.0000
55.1600 359.0000 1.0000
55.1700 354.0000 1.0000
55.1800 365.0000 1.0000
55.1900 354.0000 1.0000
55.2000 374.0000 1.0000
55.2100 390.0000 1.0000
55.2200 376.0000 1.0000
55.2300 381.0000 1.0000
55.2400 359.0000 1.0000
55.2500 355.0000 1.0000
55.2600 355.0000 1.0000
55.2700 348.0000 1.0000
55.2800 341.0000 1.0000
55.2900 345.0000 1.0000
55.3000 355.0000 1.0000
55.3100 360.0000 1.0000
55.3200 337.0000 1.0000
55.3300 337.0000 1.0000
55.3400 329.0000 1.0000
55.3500 364.0000 1.0000
55.3600 327.0000 1.0000
55.3700 392.0000 1.0000
55.3800 346.0000 1.0000
55.3900 314.0000 1.0000
55.4000 353.0000 1.0000
55.4100 364.0000 1.0000
55.4200 326.0000 1.0000
55.4300 326.0000 1.0000
55.4400 353.0000 1.0000
55.4500 334.0000 1.0000
55.4600 364.0000 1.0000
55.4700 327.0000 1.0000
55.4800 359.0000 1.0000
55.4900 379.0000 1.0000
55.5000 385.0000 1.0000
55.5100 358.0000 1.0000
55.5200 353.0000 1.0000
55.5300 363.0000 1.0000
55.5400 341.0000 1.0000
55.5500 313.0000 1.0000
55.5600 331.0000 1.0000
55.5700 346.0000 1.0000
55.5800 348.0000 1.0000
55.5900 358.0000 1.0000
55.6000 339.0000 1.0000
55.6100 339.0000 1.0000
55.6200 338.0000 1.0000
55.6300 339.0000 1.0000
55.6400 337.0000 1.0000
55.6500 344.0000 1.0000
55.6600 336.0000 1.0000
55.6700 328.0000 1.0000
55.6800 328.0000 1.0000
55.6900 356.0000 1.0000
55.7000 355.0000 1.0000
55.7100 337.0000 1.0000
55.7200 362.0000 1.0000
55.7300 359.0000 1.0000
55.7400 346.0000 1.0000
55.7500 337.0000 1.0000
55.7600 343.0000 1.0000
55.7700 345.0000 1.0000
55.7800 341.0000 1.0000
55.7900 366.0000 1.0000
55.8000 339.0000 1.0000
55.8100 361.0000 1.0000
55.8200 338.0000 1.0000
55.8300 360.0000 1.0000
55.8400 369.0000 1.0000
55.8500 356.0000 1.0000
55.8600 355.0000 1.0000
55.8700 344.0000 1.0000
55.8800 359.0000 1.0000
55.8900 353.0000 1.0000
55.9000 355.0000 1.0000
55.9100 358.0000 1.0000
55.9200 354.0000 1.0000
55.9300 361.0000 1.0000
55.9400 354.0000 1.0000
55.9500 326.0000 1.0000
55.9600 342.0000 1.0000
55.9700 355.0000 1.0000
55.9800 348.0000 1.0000
55.9900 302.0000 1.0000
56.0000 323.0000 1.0000
56.0100 342.0000 1.0000
56.0200 351.0000 1.0000
56.0300 319.0000 1.0000
56.0400 340.0000 1.0000
56.0500 360.0000 1.0000
56.0600 351.0000 1.0000
56.0700 332.0000 1.0000
56.0800 348.0000 1.0000
56.0900 360.0000 1.0000
56.1000 337.0000 1.0000
56.1100 316.0000 1.0000
56.1200 346.0000 1.0000
56.1300 344.0000 1.0000
56.1400 350.0000 1.0000
56.1500 377.0000 1.0000
56.1600 332.0000 1.0000
56.1700 338.0000 1.0000
56.1800 359.0000 1.0000
56.1900 338.0000 1.0000
56.2000 378.0000 1.0000
56.2100 350.0000 1.0000
56.2200 343.0000 1.0000
56.2300 364.0000 1.0000
56.2400 347.0000 1.0000
56.2500 353.0000 1.0000
56.2600 343.0000 1.0000
56.2700 333.0000 1.0000
56.2800 321.0000 1.0000
56.2900 361.0000 1.0000
56.3000 337.0000 1.0000
56.3100 339.0000 1.0000
56.3200 338.0000 1.0000
56.3300 315.0000 1.0000
56.3400 334.0000 1.0000
56.3500 319.0000 1.0000
56.3600 329.0000 1.0000
56.3700 323.0000 1.0000
56.3800 321.0000 1.0000
56.3900 361.0000 1.0000
56.4000 364.0000 1.0000
56.4100 358.0000 1.0000
56.4200 353.0000 1.0000
56.4300 353.0000 1.0000
56.4400 355.0000 1.0000
56.4500 326.0000 1.0000
56.4600 357.0000 1.0000
56.4700 333.0000 1.0000
56.4800 349.0000 1.0000
56.4900 351.0000 1.0000
56.5000 330.0000 1.0000
56.5100 331.0000 1.0000
56.5200 351.0000 1.0000
56.5300 342.0000 1.0000
56.5400 359.0000 1.0000
56.5500 375.0000 1.0000
56.5600 359.0000 1.0000
56.5700 335.0000 1.0000
56.5800 351.0000 1.0000
56.5900 338.0000 1.0000
56.6000 329.0000 1.0000
56.6100 370.0000 1.0000
56.6200 362.0000 1.0000
56.6300 352.0000 1.0000
56.6400 351.0000 1.0000
56.6500 324.0000 1.0000
56.6600 376.0000 1.0000
56.6700 353.0000 1.0000
56.6800 351.0000 1.0000
56.6900 339.0000 1.0000
56.7000 338.0000 1.0000
56.7100 342.0000 1.0000
56.7200 331.0000 1.0000
56.7300 373.0000 1.0000
56.7400 327.0000 1.0000
56.7500 324.0000 1.0000
56.7600 373.0000 1.0000
56.7700 374.0000 1.0000
56.7800 352.0000 1.0000
56.7900 375.0000 1.0000
56.8000 344.0000 1.0000
56.8100 328.0000 1.0000
56.8200 375.0000 1.0000
56.8300 374.0000 1.0000
56.8400 343.0000 1.0000
56.8500 360.0000 1.0000
56.8600 355.0000 1.0000
56.8700 320.0000 1.0000
56.8800 330.0000 1.0000
56.8900 365.0000 1.0000
56.9000 344.0000 1.0000
56.9100 338.0000 1.0000
56.9200 328.0000 1.0000
56.9300 349.0000 1.0000
56.9400 305.0000 1.0000
56.9500 321.0000 1.0000
56.9600 348.0000 1.0000
56.9700 373.0000 1.0000
56.9800 332.0000 1.0000
56.9900 353.0000 1.0000
57.0000 319.0000 1.0000
57.0100 336.0000 1.0000
57.0200 354.0000 1.0000
57.0300 338.0000 1.0000
57.0400 346.0000 1.0000
57.0500 339.0000 1.0000
57.0600 328.0000 1.0000
57.0700 345.0000 1.0000
57.0800 330.0000 1.0000
57.0900 340.0000 1.0000
57.1000 344.0000 1.0000
57.1100 345.0000 1.0000
57.1200 342.0000 1.0000
57.1300 363.0000 1.0000
57.1400 331.0000 1.0000
57.1500 332.0000 1.0000
57.1600 353.0000 1.0000
57.1700 322.0000 1.0000
57.1800 333.0000 1.0000
57.1900 338.0000 1.0000
57.2000 341.0000 1.0000
57.2100 326.0000 1.0000
57.2200 343.0000 1.0000
57.2300 362.0000 1.0000
57.2400 362.0000 1.0000
57.2500 348.0000 1.0000
57.2600 371.0000 1.0000
57.2700 376.0000 1.0000
57.2800 344.0000 1.0000
57.2900 356.0000 1.0000
57.3000 361.0000 1.0000
57.3100 369.0000 1.0000
57.3200 349.0000 1.0000
57.3300 363.0000 1.0000
57.3400 349.0000 1.0000
57.3500 371.0000 1.0000
57.3600 334.0000 1.0000
57.3700 340.0000 1.0000
57.3800 331.0000 1.0000
57.3900 339.0000 1.0000
57.4000 371.0000 1.0000
57.4100 350.0000 1.0000
57.4200 340.0000 1.0000
57.4300 353.0000 1.0000
57.4400 356.0000 1.0000
57.4500 366.0000 1.0000
57.4600 357.0000 1.0000
57.4700 342.0000 1.0000
57.4800 342.0000 1.0000
57.4900 376.0000 1.0000
57.5000 363.0000 1.0000
57.5100 358.0000 1.0000
57.5200 389.0000 1.0000
57.5300 351.0000 1.0000
57.5400 383.0000 1.0000
57.5500 349.0000 1.0000
57.5600 355.0000 1.0000
57.5700 356.0000 1.0000
57.5800 348.0000 1.0000
57.5900 333.0000 1.0000
57.6000 331.0000 1.0000
57.6100 352.0000 1.0000
57.6200 366.0000 1.0000
57.6300 354.0000 1.0000
57.6400 361.0000 1.0000
57.6500 345.0000 1.0000
57.6600 407.0000 1.0000
57.6700 342.0000 1.0000
57.6800 385.0000 1.0000
57.6900 354.0000 1.0000
57.7000 365.0000 1.0000
57.7100 344.0000 1.0000
57.7200 357.0000 1.0000
57.7300 340.0000 1.0000
57.7400 362.0000 1.0000
57.7500 372.0000 1.0000
57.7600 339.0000 1.0000
57.7700 361.0000 1.0000
57.7800 320.0000 1.0000
57.7900 327.0000 1.0000
57.8000 330.0000 1.0000
57.8100 385.0000 1.0000
57.8200 351.0000 1.0000
57.8300 350.0000 1.0000
57.8400 331.0000 1.0000
57.8500 351.0000 1.0000
57.8600 354.0000 1.0000
57.8700 348.0000 1.0000
57.8800 348.0000 1.0000
57.8900 332.0000 1.0000
57.9000 329.0000 1.0000
57.9100 352.0000 1.0000
57.9200 332.0000 1.0000
57.9300 305.0000 1.0000
57.9400 320.0000 1.0000
57.9500 343.0000 1.0000
57.9600 301.0000 1.0000
57.9700 337.0000 1.0000
57.9800 321.0000 1.0000
57.9900 329.0000 1.0000
58.0000 350.0000 1.0000
58.0100 358.0000 1.0000
58.0200 351.0000 1.0000
58.0300 324.0000 1.0000
58.0400 337.0000 1.0000
58.0500 322.0000 1.0000
58.0600 346.0000 1.0000
58.0700 307.0000 1.0000
58.0800 299.0000 1.0000
58.0900 328.0000 1.0000
58.1000 320.0000 1.0000
58.1100 336.0000 1.0000
58.1200 348.0000 1.0000
58.1300 329.0000 1.0000
58.1400 312.0000 1.0000
58.1500 355.0000 1.0000
58.1600 336.0000 1.0000
58.1700 343.0000 1.0000
58.1800 342.0000 1.0000
58.1900 384.0000 1.0000
58.2000 350.0000 1.0000
58.2100 374.0000 1.0000
58.2200 364.0000 1.0000
58.2300 355.0000 1.0000
58.2400 306.0000 1.0000
58.2500 338.0000 1.0000
58.2600 343.0000 1.0000
58.2700 342.0000 1.0000
58.2800 331.0000 1.0000
58.2900 315.0000 1.0000
58.3000 321.0000 1.0000
58.3100 354.0000 1.0000
58.3200 346.0000 1.0000
58.3300 353.0000 1.0000
58.3400 358.0000 1.0000
58.3500 341.0000 1.0000
58.3600 334.0000 1.0000
58.3700 360.0000 1.0000
58.3800 307.0000 1.0000
58.3900 330.0000 1.0000
58.4000 317.0000 1.0000
58.4100 310.0000 1.0000
58.4200 343.0000 1.0000
58.4300 354.0000 1.0000
58.4400 356.0000 1.0000
58.4500 351.0000 1.0000
58.4600 314.0000 1.0000
58.4700 345.0000 1.0000
58.4800 324.0000 1.0000
58.4900 328.0000 1.0000
58.5000 354.0000 1.0000
58.5100 352.0000 1.0000
58.5200 325.0000 1.0000
58.5300 352.0000 1.0000
58.5400 337.0000 1.0000
58.5500 339.0000 1.0000
58.5600 349.0000 1.0000
58.5700 332.0000 1.0000
58.5800 352.0000 1.0000
58.5900 333.0000 1.0000
58.6000 334.0000 1.0000
58.6100 319.0000 1.0000
58.6200 341.0000 1.0000
58.6300 367.0000 1.0000
58.6400 353.0000 1.0000
58.6500 340.0000 1.0000
58.6600 339.0000 1.0000
58.6700 326.0000 1.0000
58.6800 341.0000 1.0000
58.6900 332.0000 1.0000
58.7000 351.0000 1.0000
58.7100 347.0000 1.0000
58.7200 345.0000 1.0000
58.7300 363.0000 1.0000
58.7400 340.0000 1.0000
58.7500 374.0000 1.0000
58.7600 331.0000 1.0000
58.7700 355.0000 1.0000
58.7800 340.0000 1.0000
58.7900 306.0000 1.0000
58.8000 322.0000 1.0000
58.8100 350.0000 1.0000
58.8200 355.0000 1.0000
58.8300 361.0000 1.0000
58.8400 363.0000 1.0000
58.8500 337.0000 1.0000
58.8600 333.0000 1.0000
58.8700 355.0000 1.0000
58.8800 355.0000 1.0000
58.8900 338.0000 1.0000
58.9000 327.0000 1.0000
58.9100 313.0000 1.0000
58.9200 340.0000 1.0000
58.9300 327.0000 1.0000
58.9400 351.0000 1.0000
58.9500 329.0000 1.0000
58.9600 326.0000 1.0000
58.9700 336.0000 1.0000
58.9800 338.0000 1.0000
58.9900 338.0000 1.0000
59.0000 340.0000 1.0000
59.0100 324.0000 1.0000
59.0200 323.0000 1.0000
59.0300 332.0000 1.0000
59.0400 354.0000 1.0000
59.0500 360.0000 1.0000
59.0600 330.0000 1.0000
59.0700 336.0000 1.0000
59.0800 344.0000 1.0000
59.0900 349.0000 1.0000
59.1000 355.0000 1.0000
59.1100 343.0000 1.0000
59.1200 345.0000 1.0000
59.1300 359.0000 1.0000
59.1400 346.0000 1.0000
59.1500 364.0000 1.0000
59.1600 338.0000 1.0000
59.1700 341.0000 1.0000
59.1800 336.0000 1.0000
59.1900 352.0000 1.0000
59.2000 323.0000 1.0000
59.2100 344.0000 1.0000
59.2200 349.0000 1.0000
59.2300 330.0000 1.0000
59.2400 371.0000 1.0000
59.2500 384.0000 1.0000
59.2600 315.0000 1.0000
59.2700 346.0000 1.0000
59.2800 354.0000 1.0000
59.2900 339.0000 1.0000
59.3000 326.0000 1.0000
59.3100 335.0000 1.0000
59.3200 360.0000 1.0000
59.3300 352.0000 1.0000
59.3400 330.0000 1.0000
59.3500 367.0000 1.0000
59.3600 358.0000 1.0000
59.3700 330.0000 1.0000
59.3800 355.0000 1.0000
59.3900 333.0000 1.0000
59.4000 312.0000 1.0000
59.4100 308.0000 1.0000
59.4200 346.0000 1.0000
59.4300 333.0000 1.0000
59.4400 353.0000 1.0000
59.4500 331.0000 1.0000
59.4600 322.0000 1.0000
59.4700 339.0000 1.0000
59.4800 345.0000 1.0000
59.4900 326.0000 1.0000
59.5000 332.0000 1.0000
59.5100 324.0000 1.0000
59.5200 339.0000 1.0000
59.5300 324.0000 1.0000
59.5400 349.0000 1.0000
59.5500 324.0000 1.0000
59.5600 342.0000 1.0000
59.5700 320.0000 1.0000
59.5800 354.0000 1.0000
59.5900 363.0000 1.0000
59.6000 342.0000 1.0000
59.6100 335.0000 1.0000
59.6200 339.0000 1.0000
59.6300 330.0000 1.0000
59.6400 340.0000 1.0000
59.6500 335.0000 1.0000
59.6600 328.0000 1.0000
59.6700 293.0000 1.0000
59.6800 327.0000 1.0000
59.6900 337.0000 1.0000
59.7000 327.0000 1.0000
59.7100 349.0000 1.0000
59.7200 317.0000 1.0000
59.7300 324.0000 1.0000
59.7400 341.0000 1.0000
59.7500 358.0000 1.0000
59.7600 327.0000 1.0000
59.7700 318.0000 1.0000
59.7800 330.0000 1.0000
59.7900 329.0000 1.0000
59.8000 347.0000 1.0000
59.8100 334.0000 1.0000
59.8200 340.0000 1.0000
59.8300 356.0000 1.0000
59.8400 337.0000 1.0000
59.8500 356.0000 1.0000
59.8600 345.0000 1.0000
59.8700 347.0000 1.0000
59.8800 360.0000 1.0000
59.8900 329.0000 1.0000
59.9000 306.0000 1.0000
59.9100 333.0000 1.0000
59.9200 345.0000 1.0000
59.9300 323.0000 1.0000
59.9400 341.0000 1.0000
59.9500 336.0000 1.0000
59.9600 336.0000 1.0000
59.9700 316.0000 1.0000
59.9800 325.0000 1.0000
59.9900 310.0000 1.0000
60.0000 328.0000 1.0000
60.0100 338.0000 1.0000
60.0200 312.0000 1.0000
60.0300 314.0000 1.0000
60.0400 331.0000 1.0000
60.0500 320.0000 1.0000
60.0600 326.0000 1.0000
60.0700 344.0000 1.0000
60.0800 302.0000 1.0000
60.0900 335.0000 1.0000
60.1000 337.0000 1.0000
60.1100 331.0000 1.0000
60.1200 324.0000 1.0000
60.1300 351.0000 1.0000
60.1400 333.0000 1.0000
60.1500 346.0000 1.0000
60.1600 319.0000 1.0000
60.1700 331.0000 1.0000
60.1800 340.0000 1.0000
60.1900 335.0000 1.0000
60.2000 329.0000 1.0000
60.2100 340.0000 1.0000
60.2200 332.0000 1.0000
60.2300 341.0000 1.0000
60.2400 339.0000 1.0000
60.2500 330.0000 1.0000
60.2600 337.0000 1.0000
60.2700 354.0000 1.0000
60.2800 346.0000 1.0000
60.2900 345.0000 1.0000
60.3000 324.0000 1.0000
60.3100 343.0000 1.0000
60.3200 334.0000 1.0000
60.3300 350.0000 1.0000
60.3400 325.0000 1.0000
60.3500 330.0000 1.0000
60.3600 327.0000 1.0000
60.3700 310.0000 1.0000
60.3800 297.0000 1.0000
60.3900 339.0000 1.0000
60.4000 355.0000 1.0000
60.4100 353.0000 1.0000
60.4200 346.0000 1.0000
60.4300 340.0000 1.0000
60.4400 351.0000 1.0000
60.4500 352.0000 1.0000
60.4600 329.0000 1.0000
60.4700 321.0000 1.0000
60.4800 338.0000 1.0000
60.4900 335.0000 1.0000
60.5000 332.0000 1.0000
60.5100 370.0000 1.0000
60.5200 320.0000 1.0000
60.5300 351.0000 1.0000
60.5400 350.0000 1.0000
60.5500 300.0000 1.0000
60.5600 320.0000 1.0000
60.5700 333.0000 1.0000
60.5800 345.0000 1.0000
60.5900 319.0000 1.0000
60.6000 338.0000 1.0000
60.6100 318.0000 1.0000
60.6200 371.0000 1.0000
60.6300 339.0000 1.0000
60.6400 319.0000 1.0000
60.6500 341.0000 1.0000
60.6600 347.0000 1.0000
60.6700 344.0000 1.0000
60.6800 363.0000 1.0000
60.6900 317.0000 1.0000
60.7000 340.0000 1.0000
60.7100 333.0000 1.0000
60.7200 341.0000 1.0000
60.7300 331.0000 1.0000
60.7400 333.0000 1.0000
60.7500 342.0000 1.0000
60.7600 328.0000 1.0000
60.7700 349.0000 1.0000
60.7800 345.0000 1.0000
60.7900 334.0000 1.0000
60.8000 319.0000 1.0000
60.8100 327.0000 1.0000
60.8200 294.0000 1.0000
60.8300 337.0000 1.0000
60.8400 324.0000 1.0000
60.8500 343.0000 1.0000
60.8600 322.0000 1.0000
60.8700 324.0000 1.0000
60.8800 330.0000 1.0000
60.8900 334.0000 1.0000
60.9000 346.0000 1.0000
60.9100 342.0000 1.0000
60.9200 355.0000 1.0000
60.9300 337.0000 1.0000
60.9400 363.0000 1.0000
60.9500 370.0000 1.0000
60.9600 389.0000 1.0000
60.9700 346.0000 1.0000
60.9800 337.0000 1.0000
60.9900 363.0000 1.0000
61.0000 358.0000 1.0000
61.0100 342.0000 1.0000
61.0200 358.0000 1.0000
61.0300 320.0000 1.0000
61.0400 334.0000 1.0000
61.0500 359.0000 1.0000
61.0600 366.0000 1.0000
61.0700 356.0000 1.0000
61.0800 329.0000 1.0000
61.0900 361.0000 1.0000
61.1000 369.0000 1.0000
61.1100 323.0000 1.0000
61.1200 336.0000 1.0000
61.1300 359.0000 1.0000
61.1400 357.0000 1.0000
61.1500 392.0000 1.0000
61.1600 362.0000 1.0000
61.1700 358.0000 1.0000
61.1800 382.0000 1.0000
61.1900 406.0000 1.0000
61.2000 362.0000 1.0000
61.2100 390.0000 1.0000
61.2200 376.0000 1.0000
61.2300 419.0000 1.0000
61.2400 396.0000 1.0000
61.2500 405.0000 1.0000
61.2600 400.0000 1.0000
61.2700 403.0000 1.0000
61.2800 380.0000 1.0000
61.2900 403.0000 1.0000
61.3000 388.0000 1.0000
61.3100 449.0000 1.0000
61.3200 431.0000 1.0000
61.3300 492.0000 1.0000
61.3400 473.0000 1.0000
61.3500 480.0000 1.0000
61.3600 488.0000 1.0000
61.3700 484.0000 1.0000
61.3800 523.0000 1.0000
61.3900 520.0000 1.0000
61.4000 502.0000 1.0000
61.4100 557.0000 1.0000
61.4200 546.0000 1.0000
61.4300 559.0000 1.0000
61.4400 577.0000 1.0000
61.4500 603.0000 1.0000
61.4600 556.0000 1.0000
61.4700 604.0000 1.0000
61.4800 574.0000 1.0000
61.4900 582.0000 1.0000
61.5000 617.0000 1.0000
61.5100 621.0000 1.0000
61.5200 589.0000 1.0000
61.5300 621.0000 1.0000
61.5400 599.0000 1.0000
61.5500 613.0000 1.0000
61.5600 629.0000 1.0000
61.5700 624.0000 1.0000
61.5800 627.0000 1.0000
61.5900 614.0000 1.0000
61.6000 583.0000 1.0000
61.6100 595.0000 1.0000
61.6200 586.0000 1.0000
61.6300 606.0000 1.0000
61.6400 625.0000 1.0000
61.6500 555.0000 1.0000
61.6600 607.0000 1.0000
61.6700 549.0000 1.0000
61.6800 582.0000 1.0000
61.6900 548.0000 1.0000
61.7000 541.0000 1.0000
61.7100 521.0000 1.0000
61.7200 563.0000 1.0000
61.7300 549.0000 1.0000
61.7400 549.0000 1.0000
61.7500 521.0000 1.0000
61.7600 494.0000 1.0000
61.7700 501.0000 1.0000
61.7800 460.0000 1.0000
61.7900 482.0000 1.0000
61.8000 474.0000 1.0000
61.8100 450.0000 1.0000
61.8200 477.0000 1.0000
61.8300 481.0000 1.0000
61.8400 486.0000 1.0000
61.8500 472.0000 1.0000
61.8600 426.0000 1.0000
61.8700 446.0000 1.0000
61.8800 369.0000 1.0000
61.8900 397.0000 1.0000
61.9000 399.0000 1.0000
61.9100 389.0000 1.0000
61.9200 369.0000 1.0000
61.9300 377.0000 1.0000
61.9400 420.0000 1.0000
61.9500 401.0000 1.0000
61.9600 397.0000 1.0000
61.9700 388.0000 1.0000
61.9800 359.0000 1.0000
61.9900 372.0000 1.0000
62.0000 358.0000 1.0000
62.0100 402.0000 1.0000
62.0200 383.0000 1.0000
62.0300 351.0000 1.0000
62.0400 369.0000 1.0000
62.0500 400.0000 1.0000
62.0600 370.0000 1.0000
62.0700 364.0000 1.0000
62.0800 384.0000 1.0000
62.0900 366.0000 1.0000
62.1000 341.0000 1.0000
62.1100 359.0000 1.0000
62.1200 356.0000 1.0000
62.1300 355.0000 1.0000
62.1400 343.0000 1.0000
62.1500 357.0000 1.0000
62.1600 365.0000 1.0000
62.1700 379.0000 1.0000
62.1800 352.0000 1.0000
62.1900 367.0000 1.0000
62.2000 367.0000 1.0000
62.2100 369.0000 1.0000
62.2200 380.0000 1.0000
62.2300 329.0000 1.0000
62.2400 341.0000 1.0000
62.2500 418.0000 1.0000
62.2600 380.0000 1.0000
62.2700 404.0000 1.0000
62.2800 371.0000 1.0000
62.2900 374.0000 1.0000
62.3000 377.0000 1.0000
62.3100 373.0000 1.0000
62.3200 373.0000 1.0000
62.3300 391.0000 1.0000
62.3400 365.0000 1.0000
62.3500 392.0000 1.0000
62.3600 396.0000 1.0000
62.3700 383.0000 1.0000
62.3800 374.0000 1.0000
62.3900 396.0000 1.0000
62.4000 390.0000 1.0000
62.4100 385.0000 1.0000
62.4200 386.0000 1.0000
62.4300 387.0000 1.0000
62.4400 413.0000 1.0000
62.4500 361.0000 1.0000
62.4600 396.0000 1.0000
62.4700 400.0000 1.0000
62.4800 368.0000 1.0000
62.4900 403.0000 1.0000
62.5000 396.0000 1.0000
62.5100 393.0000 1.0000
62.5200 365.0000 1.0000
62.5300 349.0000 1.0000
62.5400 414.0000 1.0000
62.5500 379.0000 1.0000
62.5600 350.0000 1.0000
62.5700 359.0000 1.0000
62.5800 365.0000 1.0000
62.5900 364.0000 1.0000
62.6000 334.0000 1.0000
62.6100 375.0000 1.0000
62.6200 344.0000 1.0000
62.6300 354.0000 1.0000
62.6400 356.0000 1.0000
62.6500 338.0000 1.0000
62.6600 356.0000 1.0000
62.6700 358.0000 1.0000
62.6800 361.0000 1.0000
62.6900 379.0000 1.0000
62.7000 322.0000 1.0000
62.7100 336.0000 1.0000
62.7200 344.0000 1.0000
62.7300 344.0000 1.0000
62.7400 361.0000 1.0000
62.7500 305.0000 1.0000
62.7600 316.0000 1.0000
62.7700 345.0000 1.0000
62.7800 319.0000 1.0000
62.7900 334.0000 1.0000
62.8000 333.0000 1.0000
62.8100 348.0000 1.0000
62.8200 325.0000 1.0000
62.8300 280.0000 1.0000
62.8400 333.0000 1.0000
62.8500 308.0000 1.0000
62.8600 322.0000 1.0000
62.8700 349.0000 1.0000
62.8800 310.0000 1.0000
62.8900 342.0000 1.0000
62.9000 354.0000 1.0000
62.9100 352.0000 1.0000
62.9200 328.0000 1.0000
62.9300 361.0000 1.0000
62.9400 340.0000 1.0000
62.9500 360.0000 1.0000
62.9600 364.0000 1.0000
62.9700 349.0000 1.0000
62.9800 331.0000 1.0000
62.9900 346.0000 1.0000
63.0000 344.0000 1.0000
63.0100 378.0000 1.0000
63.0200 346.0000 1.0000
63.0300 350.0000 1.0000
63.0400 332.0000 1.0000
63.0500 352.0000 1.0000
63.0600 361.0000 1.0000
63.0700 330.0000 1.0000
63.0800 354.0000 1.0000
63.0900 326.0000 1.0000
63.1000 350.0000 1.0000
63.1100 347.0000 1.0000
63.1200 345.0000 1.0000
63.1300 343.0000 1.0000
63.1400 314.0000 1.0000
63.1500 318.0000 1.0000
63.1600 304.0000 1.0000
63.1700 309.0000 1.0000
63.1800 352.0000 1.0000
63.1900 335.0000 1.0000
63.2000 325.0000 1.0000
63.2100 352.0000 1.0000
63.2200 337.0000 1.0000
63.2300 321.0000 1.0000
63.2400 338.0000 1.0000
63.2500 328.0000 1.0000
63.2600 304.0000 1.0000
63.2700 325.0000 1.0000
63.2800 331.0000 1.0000
63.2900 333.0000 1.0000
63.3000 367.0000 1.0000
63.3100 359.0000 1.0000
63.3200 330.0000 1.0000
63.3300 357.0000 1.0000
63.3400 346.0000 1.0000
63.3500 322.0000 1.0000
63.3600 342.0000 1.0000
63.3700 335.0000 1.0000
63.3800 320.0000 1.0000
63.3900 314.0000 1.0000
63.4000 351.0000 1.0000
63.4100 341.0000 1.0000
63.4200 363.0000 1.0000
63.4300 345.0000 1.0000
63.4400 330.0000 1.0000
63.4500 332.0000 1.0000
63.4600 376.0000 1.0000
63.4700 335.0000 1.0000
63.4800 342.0000 1.0000
63.4900 330.0000 1.0000
63.5000 350.0000 1.0000
63.5100 365.0000 1.0000
63.5200 372.0000 1.0000
63.5300 344.0000 1.0000
63.5400 361.0000 1.0000
63.5500 342.0000 1.0000
63.5600 355.0000 1.0000
63.5700 350.0000 1.0000
63.5800 365.0000 1.0000
63.5900 394.0000 1.0000
63.6000 392.0000 1.0000
63.6100 372.0000 1.0000
63.6200 364.0000 1.0000
63.6300 373.0000 1.0000
63.6400 397.0000 1.0000
63.6500 366.0000 1.0000
63.6600 364.0000 1.0000
63.6700 354.0000 1.0000
63.6800 365.0000 1.0000
63.6900 397.0000 1.0000
63.7000 412.0000 1.0000
63.7100 389.0000 1.0000
63.7200 397.0000 1.0000
63.7300 387.0000 1.0000
63.7400 416.0000 1.0000
63.7500 419.0000 1.0000
63.7600 399.0000 1.0000
63.7700 462.0000 1.0000
63.7800 489.0000 1.0000
63.7900 466.0000 1.0000
63.8000 481.0000 1.0000
63.8100 512.0000 1.0000
63.8200 509.0000 1.0000
63.8300 540.0000 1.0000
63.8400 556.0000 1.0000
63.8500 575.0000 1.0000
63.8600 586.0000 1.0000
63.8700 614.0000 1.0000
63.8800 705.0000 1.0000
63.8900 689.0000 1.0000
63.9000 704.0000 1.0000
63.9100 689.0000 1.0000
63.9200 704.0000 1.0000
63.9300 689.0000 1.0000
63.9400 742.0000 1.0000
63.9500 687.0000 1.0000
63.9600 708.0000 1.0000
63.9700 685.0000 1.0000
63.9800 626.0000 1.0000
63.9900 636.0000 1.0000
64.0000 641.0000 1.0000
64.0100 617.0000 1.0000
64.0200 613.0000 1.0000
64.0300 604.0000 1.0000
64.0400 614.0000 1.0000
64.0500 569.0000 1.0000
64.0600 566.0000 1.0000
64.0700 581.0000 1.0000
64.0800 536.0000 1.0000
64.0900 562.0000 1.0000
64.1000 622.0000 1.0000
64.1100 593.0000 1.0000
64.1200 569.0000 1.0000
64.1300 547.0000 1.0000
64.1400 548.0000 1.0000
64.1500 511.0000 1.0000
64.1600 504.0000 1.0000
64.1700 445.0000 1.0000
64.1800 463.0000 1.0000
64.1900 433.0000 1.0000
64.2000 451.0000 1.0000
64.2100 463.0000 1.0000
64.2200 417.0000 1.0000
64.2300 417.0000 1.0000
64.2400 409.0000 1.0000
64.2500 398.0000 1.0000
64.2600 414.0000 1.0000
64.2700 389.0000 1.0000
64.2800 371.0000 1.0000
64.2900 387.0000 1.0000
64.3000 434.0000 1.0000
64.3100 381.0000 1.0000
64.3200 405.0000 1.0000
64.3300 376.0000 1.0000
64.3400 363.0000 1.0000
64.3500 383.0000 1.0000
64.3600 367.0000 1.0000
64.3700 378.0000 1.0000
64.3800 333.0000 1.0000
64.3900 389.0000 1.0000
64.4000 373.0000 1.0000
64.4100 363.0000 1.0000
64.4200 362.0000 1.0000
64.4300 386.0000 1.0000
64.4400 375.0000 1.0000
64.4500 313.0000 1.0000
64.4600 335.0000 1.0000
64.4700 342.0000 1.0000
64.4800 346.0000 1.0000
64.4900 369.0000 1.0000
64.5000 325.0000 1.0000
64.5100 366.0000 1.0000
64.5200 368.0000 1.0000
64.5300 326.0000 1.0000
64.5400 330.0000 1.0000
64.5500 365.0000 1.0000
64.5600 359.0000 1.0000
64.5700 357.0000 1.0000
64.5800 346.0000 1.0000
64.5900 371.0000 1.0000
64.6000 348.0000 1.0000
64.6100 374.0000 1.0000
64.6200 377.0000 1.0000
64.6300 385.0000 1.0000
64.6400 337.0000 1.0000
64.6500 318.0000 1.0000
64.6600 327.0000 1.0000
64.6700 334.0000 1.0000
64.6800 335.0000 1.0000
64.6900 323.0000 1.0000
64.7000 345.0000 1.0000
64.7100 313.0000 1.0000
64.7200 318.0000 1.0000
64.7300 346.0000 1.0000
64.7400 335.0000 1.0000
64.7500 342.0000 1.0000
64.7600 346.0000 1.0000
64.7700 323.0000 1.0000
64.7800 355.0000 1.0000
64.7900 337.0000 1.0000
64.8000 319.0000 1.0000
64.8100 356.0000 1.0000
64.8200 352.0000 1.0000
64.8300 332.0000 1.0000
64.8400 326.0000 1.0000
64.8500 345.0000 1.0000
64.8600 332.0000 1.0000
64.8700 355.0000 1.0000
64.8800 355.0000 1.0000
64.8900 322.0000 1.0000
64.9000 328.0000 1.0000
64.9100 357.0000 1.0000
64.9200 366.0000 1.0000
64.9300 378.0000 1.0000
64.9400 346.0000 1.0000
64.9500 349.0000 1.0000
64.9600 363.0000 1.0000
64.9700 367.0000 1.0000
64.9800 361.0000 1.0000
64.9900 352.0000 1.0000
65.0000 357.0000 1.0000
65.0100 356.0000 1.0000
65.0200 363.0000 1.0000
65.0300 364.0000 1.0000
65.0400 365.0000 1.0000
65.0500 332.0000 1.0000
65.0600 391.0000 1.0000
65.0700 368.0000 1.0000
65.0800 382.0000 1.0000
65.0900 365.0000 1.0000
65.1000 379.0000 1.0000
65.1100 385.0000 1.0000
65.1200 387.0000 1.0000
65.1300 358.0000 1.0000
65.1400 353.0000 1.0000
65.1500 369.0000 1.0000
65.1600 404.0000 1.0000
65.1700 396.0000 1.0000
65.1800 397.0000 1.0000
65.1900 411.0000 1.0000
65.2000 388.0000 1.0000
65.2100 386.0000 1.0000
65.2200 407.0000 1.0000
65.2300 452.0000 1.0000
65.2400 441.0000 1.0000
65.2500 440.0000 1.0000
65.2600 443.0000 1.0000
65.2700 463.0000 1.0000
65.2800 487.0000 1.0000
65.2900 461.0000 1.0000
65.3000 528.0000 1.0000
65.3100 520.0000 1.0000
65.3200 524.0000 1.0000
65.3300 509.0000 1.0000
65.3400 570.0000 1.0000
65.3500 569.0000 1.0000
65.3600 604.0000 1.0000
65.3700 621.0000 1.0000
65.3800 625.0000 1.0000
65.3900 680.0000 1.0000
65.4000 740.0000 1.0000
65.4100 725.0000 1.0000
65.4200 772.0000 1.0000
65.4300 780.0000 1.0000
65.4400 819.0000 1.0000
65.4500 841.0000 1.0000
65.4600 899.0000 1.0000
65.4700 870.0000 1.0000
65.4800 917.0000 1.0000
65.4900 927.0000 1.0000
65.5000 918.0000 1.0000
65.5100 986.0000 1.0000
65.5200 1018.0000 1.0000
65.5300 1044.0000 1.0000
65.5400 1021.0000 1.0000
65.5500 1046.0000 1.0000
65.5600 1009.0000 1.0000
65.5700 1019.0000 1.0000
65.5800 974.0000 1.0000
65.5900 939.0000 1.0000
65.6000 944.0000 1.0000
65.6100 929.0000 1.0000
65.6200 915.0000 1.0000
65.6300 930.0000 1.0000
65.6400 878.0000 1.0000
65.6500 897.0000 1.0000
65.6600 843.0000 1.0000
65.6700 881.0000 1.0000
65.6800 861.0000 1.0000
65.6900 802.0000 1.0000
65.7000 830.0000 1.0000
65.7100 816.0000 1.0000
65.7200 785.0000 1.0000
65.7300 756.0000 1.0000
65.7400 822.0000 1.0000
65.7500 770.0000 1.0000
65.7600 728.0000 1.0000
65.7700 654.0000 1.0000
65.7800 638.0000 1.0000
65.7900 616.0000 1.0000
65.8000 572.0000 1.0000
65.8100 583.0000 1.0000
65.8200 538.0000 1.0000
65.8300 569.0000 1.0000
65.8400 557.0000 1.0000
65.8500 541.0000 1.0000
65.8600 542.0000 1.0000
65.8700 466.0000 1.0000
65.8800 484.0000 1.0000
65.8900 469.0000 1.0000
65.9000 466.0000 1.0000
65.9100 434.0000 1.0000
65.9200 448.0000 1.0000
65.9300 464.0000 1.0000
65.9400 439.0000 1.0000
65.9500 407.0000 1.0000
65.9600 420.0000 1.0000
65.9700 395.0000 1.0000
65.9800 402.0000 1.0000
65.9900 410.0000 1.0000
66.0000 390.0000 1.0000
66.0100 378.0000 1.0000
66.0200 406.0000 1.0000
66.0300 381.0000 1.0000
66.0400 353.0000 1.0000
66.0500 361.0000 1.0000
66.0600 380.0000 1.0000
66.0700 381.0000 1.0000
66.0800 366.0000 1.0000
66.0900 375.0000 1.0000
66.1000 359.0000 1.0000
66.1100 384.0000 1.0000
66.1200 364.0000 1.0000
66.1300 349.0000 1.0000
66.1400 349.0000 1.0000
66.1500 363.0000 1.0000
66.1600 359.0000 1.0000
66.1700 351.0000 1.0000
66.1800 364.0000 1.0000
66.1900 354.0000 1.0000
66.2000 354.0000 1.0000
66.2100 369.0000 1.0000
66.2200 345.0000 1.0000
66.2300 302.0000 1.0000
66.2400 318.0000 1.0000
66.2500 334.0000 1.0000
66.2600 335.0000 1.0000
66.2700 334.0000 1.0000
66.2800 339.0000 1.0000
66.2900 325.0000 1.0000
66.3000 310.0000 1.0000
66.3100 319.0000 1.0000
66.3200 321.0000 1.0000
66.3300 343.0000 1.0000
66.3400 331.0000 1.0000
66.3500 309.0000 1.0000
66.3600 347.0000 1.0000
66.3700 338.0000 1.0000
66.3800 311.0000 1.0000
66.3900 329.0000 1.0000
66.4000 325.0000 1.0000
66.4100 345.0000 1.0000
66.4200 323.0000 1.0000
66.4300 307.0000 1.0000
66.4400 342.0000 1.0000
66.4500 347.0000 1.0000
66.4600 332.0000 1.0000
66.4700 341.0000 1.0000
66.4800 309.0000 1.0000
66.4900 321.0000 1.0000
66.5000 334.0000 1.0000
66.5100 333.0000 1.0000
66.5200 344.0000 1.0000
66.5300 311.0000 1.0000
66.5400 326.0000 1.0000
66.5500 311.0000 1.0000
66.5600 320.0000 1.0000
66.5700 312.0000 1.0000
66.5800 314.0000 1.0000
66.5900 324.0000 1.0000
66.6000 311.0000 1.0000
66.6100 319.0000 1.0000
66.6200 315.0000 1.0000
66.6300 307.0000 1.0000
66.6400 322.0000 1.0000
66.6500 344.0000 1.0000
66.6600 344.0000 1.0000
66.6700 338.0000 1.0000
66.6800 285.0000 1.0000
66.6900 315.0000 1.0000
66.7000 324.0000 1.0000
66.7100 317.0000 1.0000
66.7200 290.0000 1.0000
66.7300 310.0000 1.0000
66.7400 317.0000 1.0000
66.7500 318.0000 1.0000
66.7600 302.0000 1.0000
66.7700 274.0000 1.0000
66.7800 275.0000 1.0000
66.7900 319.0000 1.0000
66.8000 309.0000 1.0000
66.8100 315.0000 1.0000
66.8200 294.0000 1.0000
66.8300 334.0000 1.0000
66.8400 317.0000 1.0000
66.8500 313.0000 1.0000
66.8600 302.0000 1.0000
66.8700 316.0000 1.0000
66.8800 310.0000 1.0000
66.8900 321.0000 1.0000
66.9000 317.0000 1.0000
66.9100 322.0000 1.0000
66.9200 288.0000 1.0000
66.9300 304.0000 1.0000
66.9400 304.0000 1.0000
66.9500 321.0000 1.0000
66.9600 330.0000 1.0000
66.9700 288.0000 1.0000
66.9800 317.0000 1.0000
66.9900 303.0000 1.0000
67.0000 313.0000 1.0000
67.0100 313.0000 1.0000
67.0200 335.0000 1.0000
67.0300 300.0000 1.0000
67.0400 308.0000 1.0000
67.0500 329.0000 1.0000
67.0600 313.0000 1.0000
67.0700 293.0000 1.0000
67.0800 325.0000 1.0000
67.0900 315.0000 1.0000
67.1000 311.0000 1.0000
67.1100 309.0000 1.0000
67.1200 301.0000 1.0000
67.1300 291.0000 1.0000
67.1400 326.0000 1.0000
67.1500 302.0000 1.0000
67.1600 327.0000 1.0000
67.1700 315.0000 1.0000
67.1800 314.0000 1.0000
67.1900 287.0000 1.0000
67.2000 307.0000 1.0000
67.2100 314.0000 1.0000
67.2200 327.0000 1.0000
67.2300 279.0000 1.0000
67.2400 289.0000 1.0000
67.2500 321.0000 1.0000
67.2600 313.0000 1.0000
67.2700 295.0000 1.0000
67.2800 300.0000 1.0000
67.2900 319.0000 1.0000
67.3000 314.0000 1.0000
67.3100 284.0000 1.0000
67.3200 303.0000 1.0000
67.3300 304.0000 1.0000
67.3400 294.0000 1.0000
67.3500 320.0000 1.0000
67.3600 303.0000 1.0000
67.3700 313.0000 1.0000
67.3800 306.0000 1.0000
67.3900 310.0000 1.0000
67.4000 293.0000 1.0000
67.4100 287.0000 1.0000
67.4200 307.0000 1.0000
67.4300 342.0000 1.0000
67.4400 309.0000 1.0000
67.4500 326.0000 1.0000
67.4600 294.0000 1.0000
67.4700 283.0000 1.0000
67.4800 297.0000 1.0000
67.4900 288.0000 1.0000
67.5000 273.0000 1.0000
67.5100 299.0000 1.0000
67.5200 309.0000 1.0000
67.5300 287.0000 1.0000
67.5400 292.0000 1.0000
67.5500 304.0000 1.0000
67.5600 290.0000 1.0000
67.5700 309.0000 1.0000
67.5800 316.0000 1.0000
67.5900 298.0000 1.0000
67.6000 289.0000 1.0000
67.6100 294.0000 1.0000
67.6200 322.0000 1.0000
67.6300 299.0000 1.0000
67.6400 283.0000 1.0000
67.6500 305.0000 1.0000
67.6600 286.0000 1.0000
67.6700 303.0000 1.0000
67.6800 304.0000 1.0000
67.6900 285.0000 1.0000
67.7000 315.0000 1.0000
67.7100 293.0000 1.0000
67.7200 306.0000 1.0000
67.7300 330.0000 1.0000
67.7400 321.0000 1.0000
67.7500 308.0000 1.0000
67.7600 338.0000 1.0000
67.7700 343.0000 1.0000
67.7800 327.0000 1.0000
67.7900 332.0000 1.0000
67.8000 305.0000 1.0000
67.8100 306.0000 1.0000
67.8200 313.0000 1.0000
67.8300 301.0000 1.0000
67.8400 285.0000 1.0000
67.8500 321.0000 1.0000
67.8600 324.0000 1.0000
67.8700 286.0000 1.0000
67.8800 294.0000 1.0000
67.8900 287.0000 1.0000
67.9000 307.0000 1.0000
67.9100 284.0000 1.0000
67.9200 302.0000 1.0000
67.9300 283.0000 1.0000
67.9400 304.0000 1.0000
67.9500 324.0000 1.0000
67.9600 327.0000 1.0000
67.9700 327.0000 1.0000
67.9800 297.0000 1.0000
67.9900 320.0000 1.0000
68.0000 295.0000 1.0000
68.0100 321.0000 1.0000
68.0200 289.0000 1.0000
68.0300 286.0000 1.0000
68.0400 313.0000 1.0000
68.0500 298.0000 1.0000
68.0600 295.0000 1.0000
68.0700 276.0000 1.0000
68.0800 286.0000 1.0000
68.0900 280.0000 1.0000
68.1000 318.0000 1.0000
68.1100 304.0000 1.0000
68.1200 280.0000 1.0000
68.1300 280.0000 1.0000
68.1400 289.0000 1.0000
68.1500 322.0000 1.0000
68.1600 319.0000 1.0000
68.1700 289.0000 1.0000
68.1800 278.0000 1.0000
68.1900 270.0000 1.0000
68.2000 298.0000 1.0000
68.2100 317.0000 1.0000
68.2200 281.0000 1.0000
68.2300 284.0000 1.0000
68.2400 308.0000 1.0000
68.2500 328.0000 1.0000
68.2600 301.0000 1.0000
68.2700 306.0000 1.0000
68.2800 272.0000 1.0000
68.2900 324.0000 1.0000
68.3000 304.0000 1.0000
68.3100 315.0000 1.0000
68.3200 299.0000 1.0000
68.3300 302.0000 1.0000
68.3400 309.0000 1.0000
68.3500 297.0000 1.0000
68.3600 289.0000 1.0000
68.3700 323.0000 1.0000
68.3800 335.0000 1.0000
68.3900 274.0000 1.0000
68.4000 285.0000 1.0000
68.4100 295.0000 1.0000
68.4200 299.0000 1.0000
68.4300 320.0000 1.0000
68.4400 298.0000 1.0000
68.4500 282.0000 1.0000
68.4600 282.0000 1.0000
68.4700 282.0000 1.0000
68.4800 315.0000 1.0000
68.4900 304.0000 1.0000
68.5000 303.0000 1.0000
68.5100 301.0000 1.0000
68.5200 312.0000 1.0000
68.5300 283.0000 1.0000
68.5400 294.0000 1.0000
68.5500 302.0000 1.0000
68.5600 293.0000 1.0000
68.5700 296.0000 1.0000
68.5800 329.0000 1.0000
68.5900 287.0000 1.0000
68.6000 298.0000 1.0000
68.6100 301.0000 1.0000
68.6200 301.0000 1.0000
68.6300 272.0000 1.0000
68.6400 300.0000 1.0000
68.6500 296.0000 1.0000
68.6600 285.0000 1.0000
68.6700 302.0000 1.0000
68.6800 307.0000 1.0000
68.6900 303.0000 1.0000
68.7000 319.0000 1.0000
68.7100 323.0000 1.0000
68.7200 313.0000 1.0000
68.7300 284.0000 1.0000
68.7400 307.0000 1.0000
68.7500 331.0000 1.0000
68.7600 294.0000 1.0000
68.7700 305.0000 1.0000
68.7800 306.0000 1.0000
68.7900 294.0000 1.0000
68.8000 267.0000 1.0000
68.8100 317.0000 1.0000
68.8200 306.0000 1.0000
68.8300 281.0000 1.0000
68.8400 294.0000 1.0000
68.8500 303.0000 1.0000
68.8600 290.0000 1.0000
68.8700 291.0000 1.0000
68.8800 291.0000 1.0000
68.8900 323.0000 1.0000
68.9000 294.0000 1.0000
68.9100 315.0000 1.0000
68.9200 308.0000 1.0000
68.9300 300.0000 1.0000
68.9400 308.0000 1.0000
68.9500 307.0000 1.0000
68.9600 329.0000 1.0000
68.9700 310.0000 1.0000
68.9800 275.0000 1.0000
68.9900 319.0000 1.0000
69.0000 331.0000 1.0000
69.0100 304.0000 1.0000
69.0200 306.0000 1.0000
69.0300 282.0000 1.0000
69.0400 298.0000 1.0000
69.0500 313.0000 1.0000
69.0600 317.0000 1.0000
69.0700 318.0000 1.0000
69.0800 297.0000 1.0000
69.0900 309.0000 1.0000
69.1000 312.0000 1.0000
69.1100 298.0000 1.0000
69.1200 313.0000 1.0000
69.1300 278.0000 1.0000
69.1400 279.0000 1.0000
69.1500 289.0000 1.0000
69.1600 293.0000 1.0000
69.1700 291.0000 1.0000
69.1800 309.0000 1.0000
69.1900 304.0000 1.0000
69.2000 305.0000 1.0000
69.2100 298.0000 1.0000
69.2200 286.0000 1.0000
69.2300 315.0000 1.0000
69.2400 278.0000 1.0000
69.2500 302.0000 1.0000
69.2600 294.0000 1.0000
69.2700 296.0000 1.0000
69.2800 288.0000 1.0000
69.2900 294.0000 1.0000
69.3000 275.0000 1.0000
69.3100 272.0000 1.0000
69.3200 285.0000 1.0000
69.3300 302.0000 1.0000
69.3400 271.0000 1.0000
69.3500 279.0000 1.0000
69.3600 294.0000 1.0000
69.3700 300.0000 1.0000
69.3800 294.0000 1.0000
69.3900 313.0000 1.0000
69.4000 320.0000 1.0000
69.4100 286.0000 1.0000
69.4200 292.0000 1.0000
69.4300 288.0000 1.0000
69.4400 308.0000 1.0000
69.4500 280.0000 1.0000
69.4600 301.0000 1.0000
69.4700 287.0000 1.0000
69.4800 328.0000 1.0000
69.4900 332.0000 1.0000
69.5000 306.0000 1.0000
69.5100 278.0000 1.0000
69.5200 317.0000 1.0000
69.5300 293.0000 1.0000
69.5400 285.0000 1.0000
69.5500 283.0000 1.0000
69.5600 280.0000 1.0000
69.5700 304.0000 1.0000
69.5800 305.0000 1.0000
69.5900 314.0000 1.0000
69.6000 312.0000 1.0000
69.6100 303.0000 1.0000
69.6200 283.0000 1.0000
69.6300 301.0000 1.0000
69.6400 308.0000 1.0000
69.6500 317.0000 1.0000
69.6600 294.0000 1.0000
69.6700 308.0000 1.0000
69.6800 282.0000 1.0000
69.6900 272.0000 1.0000
69.7000 307.0000 1.0000
69.7100 301.0000 1.0000
69.7200 296.0000 1.0000
69.7300 281.0000 1.0000
69.7400 271.0000 1.0000
69.7500 276.0000 1.0000
69.7600 299.0000 1.0000
69.7700 262.0000 1.0000
69.7800 270.0000 1.0000
69.7900 285.0000 1.0000
69.8000 301.0000 1.0000
69.8100 273.0000 1.0000
69.8200 294.0000 1.0000
69.8300 288.0000 1.0000
69.8400 282.0000 1.0000
69.8500 273.0000 1.0000
69.8600 287.0000 1.0000
69.8700 324.0000 1.0000
69.8800 319.0000 1.0000
69.8900 308.0000 1.0000
69.9000 286.0000 1.0000
69.9100 287.0000 1.0000
69.9200 309.0000 1.0000
69.9300 299.0000 1.0000
69.9400 280.0000 1.0000
69.9500 289.0000 1.0000
69.9600 296.0000 1.0000
69.9700 316.0000 1.0000
69.9800 315.0000 1.0000
69.9900 294.0000 1.0000
70.0000 272.0000 1.0000
*RAS_INT_END
*RAS_TEMPERATURE_START
*RAS_TEMPERATURE_END
*RAS_DATA_END
