*RAS_DATA_START
*RAS_HEADER_START
*DISP_FMT_X "%.2f"
*DISP_FMT_Y "%.0f"
*DISP_FULLSCALE "13350.0000000000"
*DISP_LINE_COLOR "255.0000000000"
*DISP_LINE_STYLE "0.0000000000"
*DISP_LINE_WIDTH "0.2500000000"
*DISP_NOTE "測定データ-10"
*DISP_OFFSET_Y "0.0000000000"
*DISP_PEAKSEARCH_UNIT_Y "cps"
*DISP_RANGE_BOTTOM "0.0000000000"
*DISP_RANGE_LEFT "20.0000000000"
*DISP_RANGE_LOGCUTOFF "0.0100000000"
*DISP_RANGE_RIGHT "70.0000000000"
*DISP_RANGE_TOP "13350.0000000000"
*DISP_SCALE_MODE_Y "0.0000000000"
*DISP_TAB_NAME "2θ/θ"
*DISP_TITLE_Y "強度"
*DISP_UNIT_Y "cps"
*DISP_WINDOW_NAME "MSG_MACROENGINE"
*FILE_COMMENT " "
*FILE_MD5 ""
*FILE_MEMO " "
*FILE_OPERATOR "Administrator"
*FILE_SAMPLE " "
*FILE_TYPE "RAS_RAW"
*FILE_USERGROUP "システムマネージャ"
*FILE_VERSION "1.0000000000"
*HW_ATTACHMENT_ID "ATT0025"
*HW_ATTACHMENT_NAME "標準|Standard"
*HW_COUNTER_ID-0 "CUT0025"
*HW_COUNTER_ID-1 "CUT0020"
*HW_COUNTER_ID-2 "CUT0020"
*HW_COUNTER_ID-3 "CSL0021"
*HW_COUNTER_ID-4 "CMC0021"
*HW_COUNTER_NAME-0 "D/teX Ultra|D/teX Ultra"
*HW_COUNTER_NAME-1 "None|None"
*HW_COUNTER_NAME-2 "None|None"
*HW_COUNTER_NAME-3 "BBM|BBM"
*HW_COUNTER_NAME-4 "検出器モノクロメータ|Detector monochromator"
*HW_COUNTER_SELECT_NAME "D/teX Ultra|D/teX Ultra"
*HW_GONIOMETER_ID "GON0023"
*HW_GONIOMETER_NAME "SmartLab|SmartLab"
*HW_GONIOMETER_RADIUS-0 "90.0"
*HW_GONIOMETER_RADIUS-1 "114.0"
*HW_GONIOMETER_RADIUS-2 "190.0"
*HW_GONIOMETER_RADIUS-3 "300.0"
*HW_GONIOMETER_RADIUS-4 "187.0"
*HW_GONIOMETER_RADIUS-5 "300.0"
*HW_GONIOMETER_RADIUS-6 "113.0"
*HW_GONIOMETER_RADIUS-7 "331.0"
*HW_I_OPT_ID-0 "CBO0021"
*HW_I_OPT_ID-1 "ICR0023"
*HW_I_OPT_ID-2 "ISL0021"
*HW_I_OPT_ID-3 "ISO0021"
*HW_I_OPT_ID-4 "IAD0021"
*HW_I_OPT_ID-5 "IPR0001"
*HW_I_OPT_NAME-0 "CBOユニット|CBO unit"
*HW_I_OPT_NAME-1 "標準入射光学ユニット|Standard incident optical unit"
*HW_I_OPT_NAME-2 "標準入射スリットボックス|Standard incident slit box"
*HW_I_OPT_NAME-3 "入射平行スリット|Incident parallel slit"
*HW_I_OPT_NAME-4 "長手制限スリット|Length limiting slit"
*HW_I_OPT_NAME-5 "None|None"
*HW_R_ATTENUATER_AUTOMODE "0"
*HW_R_OPT_ID-0 "RSS0021"
*HW_R_OPT_ID-1 "RCR0023"
*HW_R_OPT_ID-2 "RSO0021"
*HW_R_OPT_ID-3 "RRS0021"
*HW_R_OPT_ID-4 "ATN0021"
*HW_R_OPT_ID-5 "RFL0021"
*HW_R_OPT_ID-6 "RAD0021"
*HW_R_OPT_NAME-0 "標準受光スリットボックス1|Standard receiving slit box # 1"
*HW_R_OPT_NAME-1 "標準受光光学ユニット1|Standard receiving unit # 1"
*HW_R_OPT_NAME-2 "標準受光光学ユニット2|Standard receiving optical unit # 2"
*HW_R_OPT_NAME-3 "標準受光スリットボックス2|Standard receiving slit box # 2"
*HW_R_OPT_NAME-4 "標準アッテネータ|Standard Attenuator"
*HW_R_OPT_NAME-5 "Cu Kβ|Cu K-beta"
*HW_R_OPT_NAME-6 "調整用受光スリット|Alignment receiving slit"
*HW_SAMPLE_HOLDER_ID "SMP0023"
*HW_SAMPLE_HOLDER_NAME "標準Zステージ|Standard Z stage"
*HW_XG_CURRENT_MAX "50"
*HW_XG_CURRENT_MIN "2"
*HW_XG_CURRENT_RESOLUTION "1"
*HW_XG_CURRENT_UNIT "mA"
*HW_XG_FOCUS "1mm x 10mm"
*HW_XG_FOCUS_TYPE "Normal"
*HW_XG_ID ""
*HW_XG_NAME "3kW 封入管(ID:1200)|3kW Sealed tube(ID:1200)"
*HW_XG_TARGET_ATOMIC_NUMBER "29.0000000000"
*HW_XG_TARGET_NAME "Cu"
*HW_XG_TYPE "Hermetic"
*HW_XG_VOLTAGE_MAX "60"
*HW_XG_VOLTAGE_MIN "20"
*HW_XG_VOLTAGE_RESOLUTION "1"
*HW_XG_VOLTAGE_UNIT "kV"
*HW_XG_WATT_MAX "1.500"
*HW_XG_WATT_UNIT "kW"
*HW_XG_WAVE_LENGTH_ALPHA1 "1.540593"
*HW_XG_WAVE_LENGTH_ALPHA2 "1.544414"
*HW_XG_WAVE_LENGTH_BETA "1.392250"
*MEAS_COND_AXIS_NAME-0 "2θ/θ"
*MEAS_COND_AXIS_NAME-1 "2θ"
*MEAS_COND_AXIS_NAME-2 "ω"
*MEAS_COND_AXIS_NAME-3 "Z"
*MEAS_COND_AXIS_NAME-4 "2θ/ω"
*MEAS_COND_AXIS_NAME-5 "θs"
*MEAS_COND_AXIS_NAME-6 "θd"
*MEAS_COND_AXIS_NAME-7 "Ts"
*MEAS_COND_AXIS_NAME-8 "CBO選択スリット"
*MEAS_COND_AXIS_NAME-9 "M"
*MEAS_COND_AXIS_NAME-10 "入射平行スリット"
*MEAS_COND_AXIS_NAME-11 "入射スリット"
*MEAS_COND_AXIS_NAME-12 ""
*MEAS_COND_AXIS_NAME-13 "Zs"
*MEAS_COND_AXIS_NAME-14 "入射光学素子"
*MEAS_COND_AXIS_NAME-15 "長手制限スリット"
*MEAS_COND_AXIS_NAME-16 "センタースリット"
*MEAS_COND_AXIS_NAME-17 "フィルター"
*MEAS_COND_AXIS_NAME-18 "受光スリット1"
*MEAS_COND_AXIS_NAME-19 "受光スリット2"
*MEAS_COND_AXIS_NAME-20 "受光光学素子"
*MEAS_COND_AXIS_NAME-21 "受光平行スリット"
*MEAS_COND_AXIS_NAME-22 "調整用受光スリット"
*MEAS_COND_AXIS_NAME-23 ""
*MEAS_COND_AXIS_NAME-24 ""
*MEAS_COND_AXIS_NAME-25 "Zd"
*MEAS_COND_AXIS_NAME-26 "アッテネータ"
*MEAS_COND_AXIS_NAME-27 "検出器モノクロメータ"
*MEAS_COND_AXIS_NAME-28 "モノクロメータスリット"
*MEAS_COND_AXIS_NAME-29 "プライマリビーム"
*MEAS_COND_AXIS_NAME-30 "PHA"
*MEAS_COND_AXIS_NAME_INTERNAL-0 "TwoThetaTheta"
*MEAS_COND_AXIS_NAME_INTERNAL-1 "TwoTheta"
*MEAS_COND_AXIS_NAME_INTERNAL-2 "Omega"
*MEAS_COND_AXIS_NAME_INTERNAL-3 "Z"
*MEAS_COND_AXIS_NAME_INTERNAL-4 "TwoThetaOmega"
*MEAS_COND_AXIS_NAME_INTERNAL-5 "ThetaS"
*MEAS_COND_AXIS_NAME_INTERNAL-6 "ThetaD"
*MEAS_COND_AXIS_NAME_INTERNAL-7 "Ts"
*MEAS_COND_AXIS_NAME_INTERNAL-8 "CBO"
*MEAS_COND_AXIS_NAME_INTERNAL-9 "CBO-M"
*MEAS_COND_AXIS_NAME_INTERNAL-10 "IncidentSollerSlit"
*MEAS_COND_AXIS_NAME_INTERNAL-11 "IncidentSlitBox"
*MEAS_COND_AXIS_NAME_INTERNAL-12 "IncidentSlitBox-_Axis"
*MEAS_COND_AXIS_NAME_INTERNAL-13 "Zs"
*MEAS_COND_AXIS_NAME_INTERNAL-14 "IncidentMonochromator"
*MEAS_COND_AXIS_NAME_INTERNAL-15 "IncidentAxdSlit"
*MEAS_COND_AXIS_NAME_INTERNAL-16 "CenterSlit"
*MEAS_COND_AXIS_NAME_INTERNAL-17 "Filter"
*MEAS_COND_AXIS_NAME_INTERNAL-18 "ReceivingSlitBox1"
*MEAS_COND_AXIS_NAME_INTERNAL-19 "ReceivingSlitBox2"
*MEAS_COND_AXIS_NAME_INTERNAL-20 "ReceivingOptics"
*MEAS_COND_AXIS_NAME_INTERNAL-21 "ReceivingSollerSlit"
*MEAS_COND_AXIS_NAME_INTERNAL-22 "ReceivingAxdSlit"
*MEAS_COND_AXIS_NAME_INTERNAL-23 "ReceivingSlitBox1-_Axis"
*MEAS_COND_AXIS_NAME_INTERNAL-24 "ReceivingSlitBox2-_Axis"
*MEAS_COND_AXIS_NAME_INTERNAL-25 "ReceivingSlitBox2-Zd"
*MEAS_COND_AXIS_NAME_INTERNAL-26 "Attenuator"
*MEAS_COND_AXIS_NAME_INTERNAL-27 "CounterMonochromator"
*MEAS_COND_AXIS_NAME_INTERNAL-28 "CounterSlit"
*MEAS_COND_AXIS_NAME_INTERNAL-29 "IncidentPrimary"
*MEAS_COND_AXIS_NAME_INTERNAL-30 "PHA"
*MEAS_COND_AXIS_NAME_MAGICNO-0 "83951616.0000000000"
*MEAS_COND_AXIS_NAME_MAGICNO-1 "268632064.0000000000"
*MEAS_COND_AXIS_NAME_MAGICNO-2 "268500992.0000000000"
*MEAS_COND_AXIS_NAME_MAGICNO-3 "285278208.0000000000"
*MEAS_COND_AXIS_NAME_MAGICNO-4 "83951616.0000000000"
*MEAS_COND_AXIS_NAME_MAGICNO-5 "131072.0000000000"
*MEAS_COND_AXIS_NAME_MAGICNO-6 "131072.0000000000"
*MEAS_COND_AXIS_NAME_MAGICNO-7 "318898176.0000000000"
*MEAS_COND_AXIS_NAME_MAGICNO-8 "20971521.0000000000"
*MEAS_COND_AXIS_NAME_MAGICNO-9 "285343744.0000000000"
*MEAS_COND_AXIS_NAME_MAGICNO-10 "20971521.0000000000"
*MEAS_COND_AXIS_NAME_MAGICNO-11 "22020097.0000000000"
*MEAS_COND_AXIS_NAME_MAGICNO-12 "25165824.0000000000"
*MEAS_COND_AXIS_NAME_MAGICNO-13 "318898176.0000000000"
*MEAS_COND_AXIS_NAME_MAGICNO-14 "1.0000000000"
*MEAS_COND_AXIS_NAME_MAGICNO-15 "20971521.0000000000"
*MEAS_COND_AXIS_NAME_MAGICNO-16 "20971521.0000000000"
*MEAS_COND_AXIS_NAME_MAGICNO-17 "20971521.0000000000"
*MEAS_COND_AXIS_NAME_MAGICNO-18 "23068673.0000000000"
*MEAS_COND_AXIS_NAME_MAGICNO-19 "23068673.0000000000"
*MEAS_COND_AXIS_NAME_MAGICNO-20 "20971521.0000000000"
*MEAS_COND_AXIS_NAME_MAGICNO-21 "20971521.0000000000"
*MEAS_COND_AXIS_NAME_MAGICNO-22 "20971521.0000000000"
*MEAS_COND_AXIS_NAME_MAGICNO-23 "25165824.0000000000"
*MEAS_COND_AXIS_NAME_MAGICNO-24 "25165824.0000000000"
*MEAS_COND_AXIS_NAME_MAGICNO-25 "285343744.0000000000"
*MEAS_COND_AXIS_NAME_MAGICNO-26 "17301505.0000000000"
*MEAS_COND_AXIS_NAME_MAGICNO-27 "20971521.0000000000"
*MEAS_COND_AXIS_NAME_MAGICNO-28 "20971521.0000000000"
*MEAS_COND_AXIS_NAME_MAGICNO-29 "20971521.0000000000"
*MEAS_COND_AXIS_NAME_MAGICNO-30 "0.0000000000"
*MEAS_COND_AXIS_OFFSET-0 "-"
*MEAS_COND_AXIS_OFFSET-1 "-0.0310000000"
*MEAS_COND_AXIS_OFFSET-2 "0.4064000000"
*MEAS_COND_AXIS_OFFSET-3 "-"
*MEAS_COND_AXIS_OFFSET-4 "-"
*MEAS_COND_AXIS_OFFSET-5 "0.4064000000"
*MEAS_COND_AXIS_OFFSET-6 "-0.4374000000"
*MEAS_COND_AXIS_OFFSET-7 "-"
*MEAS_COND_AXIS_OFFSET-8 "-"
*MEAS_COND_AXIS_OFFSET-9 "-"
*MEAS_COND_AXIS_OFFSET-10 "-"
*MEAS_COND_AXIS_OFFSET-11 "-"
*MEAS_COND_AXIS_OFFSET-12 "-"
*MEAS_COND_AXIS_OFFSET-13 "-"
*MEAS_COND_AXIS_OFFSET-14 "-"
*MEAS_COND_AXIS_OFFSET-15 "-"
*MEAS_COND_AXIS_OFFSET-16 "-"
*MEAS_COND_AXIS_OFFSET-17 "-"
*MEAS_COND_AXIS_OFFSET-18 "-"
*MEAS_COND_AXIS_OFFSET-19 "-"
*MEAS_COND_AXIS_OFFSET-20 "-"
*MEAS_COND_AXIS_OFFSET-21 "-"
*MEAS_COND_AXIS_OFFSET-22 "-"
*MEAS_COND_AXIS_OFFSET-23 "-"
*MEAS_COND_AXIS_OFFSET-24 "-"
*MEAS_COND_AXIS_OFFSET-25 "-"
*MEAS_COND_AXIS_OFFSET-26 "-"
*MEAS_COND_AXIS_OFFSET-27 "-"
*MEAS_COND_AXIS_OFFSET-28 "-"
*MEAS_COND_AXIS_OFFSET-29 "-"
*MEAS_COND_AXIS_OFFSET-30 "-"
*MEAS_COND_AXIS_POSITION-0 "0.0000000000"
*MEAS_COND_AXIS_POSITION-1 "0.0000000000"
*MEAS_COND_AXIS_POSITION-2 "0.0000000000"
*MEAS_COND_AXIS_POSITION-3 "-2.8286000000"
*MEAS_COND_AXIS_POSITION-4 "0.0000000000"
*MEAS_COND_AXIS_POSITION-5 "0.0000000000"
*MEAS_COND_AXIS_POSITION-6 "0.0000000000"
*MEAS_COND_AXIS_POSITION-7 "-0.7498700000"
*MEAS_COND_AXIS_POSITION-8 "BB"
*MEAS_COND_AXIS_POSITION-9 "0.0000000000"
*MEAS_COND_AXIS_POSITION-10 "Soller_slit_5.0deg"
*MEAS_COND_AXIS_POSITION-11 "2/3deg"
*MEAS_COND_AXIS_POSITION-12 "2.2088000000"
*MEAS_COND_AXIS_POSITION-13 "-0.6412500000"
*MEAS_COND_AXIS_POSITION-14 "0.0000000000"
*MEAS_COND_AXIS_POSITION-15 "10.0mm"
*MEAS_COND_AXIS_POSITION-16 "None"
*MEAS_COND_AXIS_POSITION-17 "Cu_K-beta"
*MEAS_COND_AXIS_POSITION-18 "13.000mm"
*MEAS_COND_AXIS_POSITION-19 "13.000mm"
*MEAS_COND_AXIS_POSITION-20 "No_unit"
*MEAS_COND_AXIS_POSITION-21 "Soller_slit_5.0deg"
*MEAS_COND_AXIS_POSITION-22 "None"
*MEAS_COND_AXIS_POSITION-23 "13.0000000000"
*MEAS_COND_AXIS_POSITION-24 "13.0000000000"
*MEAS_COND_AXIS_POSITION-25 "0.0281300000"
*MEAS_COND_AXIS_POSITION-26 "Open"
*MEAS_COND_AXIS_POSITION-27 "None"
*MEAS_COND_AXIS_POSITION-28 "None"
*MEAS_COND_AXIS_POSITION-29 "None"
*MEAS_COND_AXIS_POSITION-30 "38.0000000000"
*MEAS_COND_AXIS_UNIT-0 "deg"
*MEAS_COND_AXIS_UNIT-1 "deg"
*MEAS_COND_AXIS_UNIT-2 "deg"
*MEAS_COND_AXIS_UNIT-3 "mm"
*MEAS_COND_AXIS_UNIT-4 "deg"
*MEAS_COND_AXIS_UNIT-5 "deg"
*MEAS_COND_AXIS_UNIT-6 "deg"
*MEAS_COND_AXIS_UNIT-7 "mm"
*MEAS_COND_AXIS_UNIT-8 ""
*MEAS_COND_AXIS_UNIT-9 "pulse"
*MEAS_COND_AXIS_UNIT-10 ""
*MEAS_COND_AXIS_UNIT-11 ""
*MEAS_COND_AXIS_UNIT-12 "mm"
*MEAS_COND_AXIS_UNIT-13 "mm"
*MEAS_COND_AXIS_UNIT-14 ""
*MEAS_COND_AXIS_UNIT-15 ""
*MEAS_COND_AXIS_UNIT-16 ""
*MEAS_COND_AXIS_UNIT-17 ""
*MEAS_COND_AXIS_UNIT-18 ""
*MEAS_COND_AXIS_UNIT-19 ""
*MEAS_COND_AXIS_UNIT-20 ""
*MEAS_COND_AXIS_UNIT-21 ""
*MEAS_COND_AXIS_UNIT-22 ""
*MEAS_COND_AXIS_UNIT-23 "mm"
*MEAS_COND_AXIS_UNIT-24 "mm"
*MEAS_COND_AXIS_UNIT-25 "mm"
*MEAS_COND_AXIS_UNIT-26 ""
*MEAS_COND_AXIS_UNIT-27 ""
*MEAS_COND_AXIS_UNIT-28 ""
*MEAS_COND_AXIS_UNIT-29 ""
*MEAS_COND_AXIS_UNIT-30 "div"
*MEAS_COND_COUNTER_CNTLOSS_CORR "0.0000000000"
*MEAS_COND_COUNTER_PHABASE "38.0000000000"
*MEAS_COND_COUNTER_PHAWINDOW "16.0000000000"
*MEAS_COND_COUNTER_PHA_UNIT "div"
*MEAS_COND_COUNTER_TAUDIFF "30.0000000000"
*MEAS_COND_COUNTER_TAUINT "0.0000000000"
*MEAS_COND_IRRADIATION_MODE "OFF"
*MEAS_COND_IRRADIATION_WIDTH ""
*MEAS_COND_OPT_ATTR "集中法"
*MEAS_COND_OPT_NAME "@集中法"
*MEAS_COND_UNSYMMETRIC_MODE "OFF"
*MEAS_COND_XG_CURRENT "30.0000000000"
*MEAS_COND_XG_VOLTAGE "40.0000000000"
*MEAS_COND_XG_WAVE_TYPE "Ka"
*MEAS_DATA_COUNT "5001.0000000000"
*MEAS_SCAN_AXIS_X "2θ/θ"
*MEAS_SCAN_AXIS_X_INTERNAL "TwoThetaTheta"
*MEAS_SCAN_END_TIME "08/01/23 18:32:15"
*MEAS_SCAN_MODE "CONTINUOUS"
*MEAS_SCAN_MONITOR "0"
*MEAS_SCAN_RESOLUTION_X "0.0002"
*MEAS_SCAN_SPEED "2.5"
*MEAS_SCAN_SPEED_UNIT "deg/min"
*MEAS_SCAN_START "20.0000000000"
*MEAS_SCAN_START_TIME "08/01/23 18:10:51"
*MEAS_SCAN_STEP "0.0100000000"
*MEAS_SCAN_STOP "70.0000000000"
*MEAS_SCAN_UNIT_X "deg"
*MEAS_SCAN_UNIT_Y "counts"
*RAS_HEADER_END
*RAS_INT_START
20.0000 933.0000 1.0000
20.0100 940.0000 1.0000
20.0200 916.0000 1.0000
20.0300 878.0000 1.0000
20.0400 894.0000 1.0000
20.0500 922.0000 1.0000
20.0600 909.0000 1.0000
20.0700 871.0000 1.0000
20.0800 933.0000 1.0000
20.0900 920.0000 1.0000
20.1000 893.0000 1.0000
20.1100 905.0000 1.0000
20.1200 899.0000 1.0000
20.1300 933.0000 1.0000
20.1400 901.0000 1.0000
20.1500 864.0000 1.0000
20.1600 882.0000 1.0000
20.1700 896.0000 1.0000
20.1800 859.0000 1.0000
20.1900 896.0000 1.0000
20.2000 879.0000 1.0000
20.2100 909.0000 1.0000
20.2200 900.0000 1.0000
20.2300 856.0000 1.0000
20.2400 874.0000 1.0000
20.2500 902.0000 1.0000
20.2600 955.0000 1.0000
20.2700 934.0000 1.0000
20.2800 898.0000 1.0000
20.2900 862.0000 1.0000
20.3000 926.0000 1.0000
20.3100 923.0000 1.0000
20.3200 936.0000 1.0000
20.3300 929.0000 1.0000
20.3400 884.0000 1.0000
20.3500 914.0000 1.0000
20.3600 889.0000 1.0000
20.3700 926.0000 1.0000
20.3800 893.0000 1.0000
20.3900 867.0000 1.0000
20.4000 927.0000 1.0000
20.4100 935.0000 1.0000
20.4200 910.0000 1.0000
20.4300 866.0000 1.0000
20.4400 872.0000 1.0000
20.4500 881.0000 1.0000
20.4600 898.0000 1.0000
20.4700 858.0000 1.0000
20.4800 879.0000 1.0000
20.4900 887.0000 1.0000
20.5000 899.0000 1.0000
20.5100 876.0000 1.0000
20.5200 897.0000 1.0000
20.5300 926.0000 1.0000
20.5400 890.0000 1.0000
20.5500 869.0000 1.0000
20.5600 906.0000 1.0000
20.5700 827.0000 1.0000
20.5800 902.0000 1.0000
20.5900 895.0000 1.0000
20.6000 928.0000 1.0000
20.6100 907.0000 1.0000
20.6200 895.0000 1.0000
20.6300 863.0000 1.0000
20.6400 895.0000 1.0000
20.6500 923.0000 1.0000
20.6600 899.0000 1.0000
20.6700 887.0000 1.0000
20.6800 891.0000 1.0000
20.6900 832.0000 1.0000
20.7000 845.0000 1.0000
20.7100 931.0000 1.0000
20.7200 887.0000 1.0000
20.7300 881.0000 1.0000
20.7400 912.0000 1.0000
20.7500 877.0000 1.0000
20.7600 894.0000 1.0000
20.7700 948.0000 1.0000
20.7800 880.0000 1.0000
20.7900 901.0000 1.0000
20.8000 824.0000 1.0000
20.8100 917.0000 1.0000
20.8200 937.0000 1.0000
20.8300 910.0000 1.0000
20.8400 919.0000 1.0000
20.8500 887.0000 1.0000
20.8600 866.0000 1.0000
20.8700 857.0000 1.0000
20.8800 868.0000 1.0000
20.8900 861.0000 1.0000
20.9000 840.0000 1.0000
20.9100 871.0000 1.0000
20.9200 887.0000 1.0000
20.9300 905.0000 1.0000
20.9400 828.0000 1.0000
20.9500 916.0000 1.0000
20.9600 811.0000 1.0000
20.9700 851.0000 1.0000
20.9800 891.0000 1.0000
20.9900 916.0000 1.0000
21.0000 926.0000 1.0000
21.0100 863.0000 1.0000
21.0200 874.0000 1.0000
21.0300 914.0000 1.0000
21.0400 876.0000 1.0000
21.0500 857.0000 1.0000
21.0600 848.0000 1.0000
21.0700 904.0000 1.0000
21.0800 894.0000 1.0000
21.0900 856.0000 1.0000
21.1000 867.0000 1.0000
21.1100 885.0000 1.0000
21.1200 886.0000 1.0000
21.1300 845.0000 1.0000
21.1400 870.0000 1.0000
21.1500 914.0000 1.0000
21.1600 831.0000 1.0000
21.1700 881.0000 1.0000
21.1800 866.0000 1.0000
21.1900 857.0000 1.0000
21.2000 867.0000 1.0000
21.2100 928.0000 1.0000
21.2200 868.0000 1.0000
21.2300 876.0000 1.0000
21.2400 888.0000 1.0000
21.2500 847.0000 1.0000
21.2600 919.0000 1.0000
21.2700 906.0000 1.0000
21.2800 911.0000 1.0000
21.2900 903.0000 1.0000
21.3000 905.0000 1.0000
21.3100 856.0000 1.0000
21.3200 875.0000 1.0000
21.3300 890.0000 1.0000
21.3400 863.0000 1.0000
21.3500 905.0000 1.0000
21.3600 920.0000 1.0000
21.3700 867.0000 1.0000
21.3800 923.0000 1.0000
21.3900 888.0000 1.0000
21.4000 850.0000 1.0000
21.4100 840.0000 1.0000
21.4200 860.0000 1.0000
21.4300 888.0000 1.0000
21.4400 806.0000 1.0000
21.4500 847.0000 1.0000
21.4600 930.0000 1.0000
21.4700 867.0000 1.0000
21.4800 882.0000 1.0000
21.4900 856.0000 1.0000
21.5000 863.0000 1.0000
21.5100 904.0000 1.0000
21.5200 893.0000 1.0000
21.5300 863.0000 1.0000
21.5400 862.0000 1.0000
21.5500 890.0000 1.0000
21.5600 827.0000 1.0000
21.5700 919.0000 1.0000
21.5800 880.0000 1.0000
21.5900 874.0000 1.0000
21.6000 917.0000 1.0000
21.6100 912.0000 1.0000
21.6200 870.0000 1.0000
21.6300 865.0000 1.0000
21.6400 868.0000 1.0000
21.6500 838.0000 1.0000
21.6600 904.0000 1.0000
21.6700 904.0000 1.0000
21.6800 893.0000 1.0000
21.6900 920.0000 1.0000
21.7000 911.0000 1.0000
21.7100 834.0000 1.0000
21.7200 849.0000 1.0000
21.7300 897.0000 1.0000
21.7400 895.0000 1.0000
21.7500 836.0000 1.0000
21.7600 919.0000 1.0000
21.7700 894.0000 1.0000
21.7800 915.0000 1.0000
21.7900 852.0000 1.0000
21.8000 904.0000 1.0000
21.8100 855.0000 1.0000
21.8200 909.0000 1.0000
21.8300 881.0000 1.0000
21.8400 881.0000 1.0000
21.8500 858.0000 1.0000
21.8600 842.0000 1.0000
21.8700 844.0000 1.0000
21.8800 850.0000 1.0000
21.8900 861.0000 1.0000
21.9000 864.0000 1.0000
21.9100 863.0000 1.0000
21.9200 880.0000 1.0000
21.9300 875.0000 1.0000
21.9400 831.0000 1.0000
21.9500 887.0000 1.0000
21.9600 856.0000 1.0000
21.9700 935.0000 1.0000
21.9800 884.0000 1.0000
21.9900 865.0000 1.0000
22.0000 901.0000 1.0000
22.0100 851.0000 1.0000
22.0200 818.0000 1.0000
22.0300 868.0000 1.0000
22.0400 853.0000 1.0000
22.0500 834.0000 1.0000
22.0600 901.0000 1.0000
22.0700 882.0000 1.0000
22.0800 891.0000 1.0000
22.0900 859.0000 1.0000
22.1000 849.0000 1.0000
22.1100 842.0000 1.0000
22.1200 951.0000 1.0000
22.1300 906.0000 1.0000
22.1400 888.0000 1.0000
22.1500 888.0000 1.0000
22.1600 870.0000 1.0000
22.1700 913.0000 1.0000
22.1800 892.0000 1.0000
22.1900 879.0000 1.0000
22.2000 850.0000 1.0000
22.2100 872.0000 1.0000
22.2200 912.0000 1.0000
22.2300 873.0000 1.0000
22.2400 862.0000 1.0000
22.2500 817.0000 1.0000
22.2600 833.0000 1.0000
22.2700 894.0000 1.0000
22.2800 924.0000 1.0000
22.2900 848.0000 1.0000
22.3000 854.0000 1.0000
22.3100 838.0000 1.0000
22.3200 894.0000 1.0000
22.3300 818.0000 1.0000
22.3400 866.0000 1.0000
22.3500 847.0000 1.0000
22.3600 870.0000 1.0000
22.3700 894.0000 1.0000
22.3800 881.0000 1.0000
22.3900 857.0000 1.0000
22.4000 898.0000 1.0000
22.4100 862.0000 1.0000
22.4200 857.0000 1.0000
22.4300 908.0000 1.0000
22.4400 852.0000 1.0000
22.4500 903.0000 1.0000
22.4600 860.0000 1.0000
22.4700 855.0000 1.0000
22.4800 873.0000 1.0000
22.4900 863.0000 1.0000
22.5000 876.0000 1.0000
22.5100 831.0000 1.0000
22.5200 831.0000 1.0000
22.5300 819.0000 1.0000
22.5400 834.0000 1.0000
22.5500 830.0000 1.0000
22.5600 878.0000 1.0000
22.5700 859.0000 1.0000
22.5800 825.0000 1.0000
22.5900 851.0000 1.0000
22.6000 885.0000 1.0000
22.6100 885.0000 1.0000
22.6200 879.0000 1.0000
22.6300 851.0000 1.0000
22.6400 830.0000 1.0000
22.6500 835.0000 1.0000
22.6600 865.0000 1.0000
22.6700 837.0000 1.0000
22.6800 868.0000 1.0000
22.6900 868.0000 1.0000
22.7000 855.0000 1.0000
22.7100 819.0000 1.0000
22.7200 834.0000 1.0000
22.7300 871.0000 1.0000
22.7400 889.0000 1.0000
22.7500 907.0000 1.0000
22.7600 857.0000 1.0000
22.7700 867.0000 1.0000
22.7800 869.0000 1.0000
22.7900 898.0000 1.0000
22.8000 869.0000 1.0000
22.8100 873.0000 1.0000
22.8200 837.0000 1.0000
22.8300 845.0000 1.0000
22.8400 885.0000 1.0000
22.8500 799.0000 1.0000
22.8600 848.0000 1.0000
22.8700 883.0000 1.0000
22.8800 838.0000 1.0000
22.8900 846.0000 1.0000
22.9000 846.0000 1.0000
22.9100 826.0000 1.0000
22.9200 839.0000 1.0000
22.9300 878.0000 1.0000
22.9400 894.0000 1.0000
22.9500 822.0000 1.0000
22.9600 843.0000 1.0000
22.9700 891.0000 1.0000
22.9800 812.0000 1.0000
22.9900 828.0000 1.0000
23.0000 818.0000 1.0000
23.0100 873.0000 1.0000
23.0200 848.0000 1.0000
23.0300 895.0000 1.0000
23.0400 879.0000 1.0000
23.0500 844.0000 1.0000
23.0600 871.0000 1.0000
23.0700 880.0000 1.0000
23.0800 871.0000 1.0000
23.0900 854.0000 1.0000
23.1000 827.0000 1.0000
23.1100 844.0000 1.0000
23.1200 846.0000 1.0000
23.1300 825.0000 1.0000
23.1400 834.0000 1.0000
23.1500 822.0000 1.0000
23.1600 886.0000 1.0000
23.1700 869.0000 1.0000
23.1800 848.0000 1.0000
23.1900 851.0000 1.0000
23.2000 884.0000 1.0000
23.2100 865.0000 1.0000
23.2200 868.0000 1.0000
23.2300 862.0000 1.0000
23.2400 848.0000 1.0000
23.2500 834.0000 1.0000
23.2600 805.0000 1.0000
23.2700 856.0000 1.0000
23.2800 842.0000 1.0000
23.2900 839.0000 1.0000
23.3000 921.0000 1.0000
23.3100 851.0000 1.0000
23.3200 871.0000 1.0000
23.3300 857.0000 1.0000
23.3400 864.0000 1.0000
23.3500 847.0000 1.0000
23.3600 808.0000 1.0000
23.3700 867.0000 1.0000
23.3800 861.0000 1.0000
23.3900 874.0000 1.0000
23.4000 821.0000 1.0000
23.4100 803.0000 1.0000
23.4200 861.0000 1.0000
23.4300 845.0000 1.0000
23.4400 869.0000 1.0000
23.4500 879.0000 1.0000
23.4600 860.0000 1.0000
23.4700 858.0000 1.0000
23.4800 822.0000 1.0000
23.4900 840.0000 1.0000
23.5000 852.0000 1.0000
23.5100 831.0000 1.0000
23.5200 840.0000 1.0000
23.5300 836.0000 1.0000
23.5400 891.0000 1.0000
23.5500 852.0000 1.0000
23.5600 864.0000 1.0000
23.5700 887.0000 1.0000
23.5800 916.0000 1.0000
23.5900 863.0000 1.0000
23.6000 883.0000 1.0000
23.6100 857.0000 1.0000
23.6200 870.0000 1.0000
23.6300 881.0000 1.0000
23.6400 834.0000 1.0000
23.6500 863.0000 1.0000
23.6600 858.0000 1.0000
23.6700 868.0000 1.0000
23.6800 847.0000 1.0000
23.6900 863.0000 1.0000
23.7000 889.0000 1.0000
23.7100 887.0000 1.0000
23.7200 869.0000 1.0000
23.7300 900.0000 1.0000
23.7400 872.0000 1.0000
23.7500 839.0000 1.0000
23.7600 867.0000 1.0000
23.7700 839.0000 1.0000
23.7800 819.0000 1.0000
23.7900 843.0000 1.0000
23.8000 853.0000 1.0000
23.8100 844.0000 1.0000
23.8200 887.0000 1.0000
23.8300 949.0000 1.0000
23.8400 890.0000 1.0000
23.8500 896.0000 1.0000
23.8600 852.0000 1.0000
23.8700 892.0000 1.0000
23.8800 900.0000 1.0000
23.8900 914.0000 1.0000
23.9000 904.0000 1.0000
23.9100 871.0000 1.0000
23.9200 919.0000 1.0000
23.9300 875.0000 1.0000
23.9400 876.0000 1.0000
23.9500 903.0000 1.0000
23.9600 950.0000 1.0000
23.9700 893.0000 1.0000
23.9800 949.0000 1.0000
23.9900 963.0000 1.0000
24.0000 940.0000 1.0000
24.0100 927.0000 1.0000
24.0200 906.0000 1.0000
24.0300 905.0000 1.0000
24.0400 936.0000 1.0000
24.0500 978.0000 1.0000
24.0600 963.0000 1.0000
24.0700 985.0000 1.0000
24.0800 981.0000 1.0000
24.0900 1052.0000 1.0000
24.1000 1021.0000 1.0000
24.1100 976.0000 1.0000
24.1200 1027.0000 1.0000
24.1300 970.0000 1.0000
24.1400 948.0000 1.0000
24.1500 980.0000 1.0000
24.1600 957.0000 1.0000
24.1700 927.0000 1.0000
24.1800 905.0000 1.0000
24.1900 929.0000 1.0000
24.2000 865.0000 1.0000
24.2100 898.0000 1.0000
24.2200 869.0000 1.0000
24.2300 864.0000 1.0000
24.2400 870.0000 1.0000
24.2500 879.0000 1.0000
24.2600 914.0000 1.0000
24.2700 870.0000 1.0000
24.2800 892.0000 1.0000
24.2900 890.0000 1.0000
24.3000 848.0000 1.0000
24.3100 858.0000 1.0000
24.3200 845.0000 1.0000
24.3300 860.0000 1.0000
24.3400 877.0000 1.0000
24.3500 856.0000 1.0000
24.3600 857.0000 1.0000
24.3700 874.0000 1.0000
24.3800 924.0000 1.0000
24.3900 869.0000 1.0000
24.4000 851.0000 1.0000
24.4100 859.0000 1.0000
24.4200 831.0000 1.0000
24.4300 856.0000 1.0000
24.4400 804.0000 1.0000
24.4500 873.0000 1.0000
24.4600 864.0000 1.0000
24.4700 817.0000 1.0000
24.4800 822.0000 1.0000
24.4900 827.0000 1.0000
24.5000 843.0000 1.0000
24.5100 897.0000 1.0000
24.5200 868.0000 1.0000
24.5300 821.0000 1.0000
24.5400 794.0000 1.0000
24.5500 821.0000 1.0000
24.5600 819.0000 1.0000
24.5700 856.0000 1.0000
24.5800 850.0000 1.0000
24.5900 872.0000 1.0000
24.6000 845.0000 1.0000
24.6100 823.0000 1.0000
24.6200 852.0000 1.0000
24.6300 849.0000 1.0000
24.6400 839.0000 1.0000
24.6500 801.0000 1.0000
24.6600 805.0000 1.0000
24.6700 859.0000 1.0000
24.6800 853.0000 1.0000
24.6900 850.0000 1.0000
24.7000 845.0000 1.0000
24.7100 811.0000 1.0000
24.7200 808.0000 1.0000
24.7300 813.0000 1.0000
24.7400 844.0000 1.0000
24.7500 837.0000 1.0000
24.7600 807.0000 1.0000
24.7700 788.0000 1.0000
24.7800 813.0000 1.0000
24.7900 847.0000 1.0000
24.8000 850.0000 1.0000
24.8100 810.0000 1.0000
24.8200 843.0000 1.0000
24.8300 901.0000 1.0000
24.8400 871.0000 1.0000
24.8500 823.0000 1.0000
24.8600 793.0000 1.0000
24.8700 829.0000 1.0000
24.8800 856.0000 1.0000
24.8900 839.0000 1.0000
24.9000 827.0000 1.0000
24.9100 826.0000 1.0000
24.9200 853.0000 1.0000
24.9300 865.0000 1.0000
24.9400 822.0000 1.0000
24.9500 824.0000 1.0000
24.9600 816.0000 1.0000
24.9700 800.0000 1.0000
24.9800 804.0000 1.0000
24.9900 876.0000 1.0000
25.0000 849.0000 1.0000
25.0100 880.0000 1.0000
25.0200 821.0000 1.0000
25.0300 833.0000 1.0000
25.0400 832.0000 1.0000
25.0500 846.0000 1.0000
25.0600 815.0000 1.0000
25.0700 876.0000 1.0000
25.0800 874.0000 1.0000
25.0900 842.0000 1.0000
25.1000 858.0000 1.0000
25.1100 817.0000 1.0000
25.1200 843.0000 1.0000
25.1300 806.0000 1.0000
25.1400 846.0000 1.0000
25.1500 879.0000 1.0000
25.1600 827.0000 1.0000
25.1700 840.0000 1.0000
25.1800 831.0000 1.0000
25.1900 845.0000 1.0000
25.2000 821.0000 1.0000
25.2100 835.0000 1.0000
25.2200 833.0000 1.0000
25.2300 834.0000 1.0000
25.2400 818.0000 1.0000
25.2500 844.0000 1.0000
25.2600 836.0000 1.0000
25.2700 814.0000 1.0000
25.2800 808.0000 1.0000
25.2900 777.0000 1.0000
25.3000 805.0000 1.0000
25.3100 852.0000 1.0000
25.3200 872.0000 1.0000
25.3300 801.0000 1.0000
25.3400 831.0000 1.0000
25.3500 790.0000 1.0000
25.3600 806.0000 1.0000
25.3700 794.0000 1.0000
25.3800 807.0000 1.0000
25.3900 857.0000 1.0000
25.4000 851.0000 1.0000
25.4100 807.0000 1.0000
25.4200 801.0000 1.0000
25.4300 809.0000 1.0000
25.4400 791.0000 1.0000
25.4500 807.0000 1.0000
25.4600 816.0000 1.0000
25.4700 828.0000 1.0000
25.4800 849.0000 1.0000
25.4900 849.0000 1.0000
25.5000 843.0000 1.0000
25.5100 888.0000 1.0000
25.5200 871.0000 1.0000
25.5300 836.0000 1.0000
25.5400 838.0000 1.0000
25.5500 827.0000 1.0000
25.5600 836.0000 1.0000
25.5700 848.0000 1.0000
25.5800 889.0000 1.0000
25.5900 838.0000 1.0000
25.6000 861.0000 1.0000
25.6100 820.0000 1.0000
25.6200 868.0000 1.0000
25.6300 902.0000 1.0000
25.6400 852.0000 1.0000
25.6500 895.0000 1.0000
25.6600 853.0000 1.0000
25.6700 801.0000 1.0000
25.6800 882.0000 1.0000
25.6900 825.0000 1.0000
25.7000 805.0000 1.0000
25.7100 806.0000 1.0000
25.7200 822.0000 1.0000
25.7300 827.0000 1.0000
25.7400 821.0000 1.0000
25.7500 852.0000 1.0000
25.7600 870.0000 1.0000
25.7700 855.0000 1.0000
25.7800 867.0000 1.0000
25.7900 870.0000 1.0000
25.8000 895.0000 1.0000
25.8100 861.0000 1.0000
25.8200 860.0000 1.0000
25.8300 875.0000 1.0000
25.8400 874.0000 1.0000
25.8500 852.0000 1.0000
25.8600 910.0000 1.0000
25.8700 837.0000 1.0000
25.8800 795.0000 1.0000
25.8900 864.0000 1.0000
25.9000 900.0000 1.0000
25.9100 862.0000 1.0000
25.9200 875.0000 1.0000
25.9300 921.0000 1.0000
25.9400 885.0000 1.0000
25.9500 868.0000 1.0000
25.9600 860.0000 1.0000
25.9700 869.0000 1.0000
25.9800 896.0000 1.0000
25.9900 856.0000 1.0000
26.0000 867.0000 1.0000
26.0100 889.0000 1.0000
26.0200 872.0000 1.0000
26.0300 861.0000 1.0000
26.0400 908.0000 1.0000
26.0500 902.0000 1.0000
26.0600 916.0000 1.0000
26.0700 944.0000 1.0000
26.0800 947.0000 1.0000
26.0900 879.0000 1.0000
26.1000 969.0000 1.0000
26.1100 988.0000 1.0000
26.1200 954.0000 1.0000
26.1300 969.0000 1.0000
26.1400 1005.0000 1.0000
26.1500 1008.0000 1.0000
26.1600 1021.0000 1.0000
26.1700 1024.0000 1.0000
26.1800 1047.0000 1.0000
26.1900 1107.0000 1.0000
26.2000 1096.0000 1.0000
26.2100 1144.0000 1.0000
26.2200 1146.0000 1.0000
26.2300 1152.0000 1.0000
26.2400 1190.0000 1.0000
26.2500 1177.0000 1.0000
26.2600 1241.0000 1.0000
26.2700 1300.0000 1.0000
26.2800 1319.0000 1.0000
26.2900 1285.0000 1.0000
26.3000 1406.0000 1.0000
26.3100 1453.0000 1.0000
26.3200 1607.0000 1.0000
26.3300 1548.0000 1.0000
26.3400 1708.0000 1.0000
26.3500 1714.0000 1.0000
26.3600 1871.0000 1.0000
26.3700 1921.0000 1.0000
26.3800 2065.0000 1.0000
26.3900 2169.0000 1.0000
26.4000 2255.0000 1.0000
26.4100 2356.0000 1.0000
26.4200 2457.0000 1.0000
26.4300 2422.0000 1.0000
26.4400 2547.0000 1.0000
26.4500 2579.0000 1.0000
26.4600 2635.0000 1.0000
26.4700 2670.0000 1.0000
26.4800 2548.0000 1.0000
26.4900 2472.0000 1.0000
26.5000 2347.0000 1.0000
26.5100 2330.0000 1.0000
26.5200 2251.0000 1.0000
26.5300 2106.0000 1.0000
26.5400 1985.0000 1.0000
26.5500 1921.0000 1.0000
26.5600 1811.0000 1.0000
26.5700 1745.0000 1.0000
26.5800 1570.0000 1.0000
26.5900 1533.0000 1.0000
26.6000 1458.0000 1.0000
26.6100 1392.0000 1.0000
26.6200 1319.0000 1.0000
26.6300 1339.0000 1.0000
26.6400 1301.0000 1.0000
26.6500 1249.0000 1.0000
26.6600 1227.0000 1.0000
26.6700 1197.0000 1.0000
26.6800 1169.0000 1.0000
26.6900 1100.0000 1.0000
26.7000 1081.0000 1.0000
26.7100 1045.0000 1.0000
26.7200 1067.0000 1.0000
26.7300 1003.0000 1.0000
26.7400 985.0000 1.0000
26.7500 928.0000 1.0000
26.7600 944.0000 1.0000
26.7700 1011.0000 1.0000
26.7800 927.0000 1.0000
26.7900 951.0000 1.0000
26.8000 903.0000 1.0000
26.8100 937.0000 1.0000
26.8200 911.0000 1.0000
26.8300 890.0000 1.0000
26.8400 951.0000 1.0000
26.8500 932.0000 1.0000
26.8600 924.0000 1.0000
26.8700 898.0000 1.0000
26.8800 907.0000 1.0000
26.8900 851.0000 1.0000
26.9000 887.0000 1.0000
26.9100 826.0000 1.0000
26.9200 852.0000 1.0000
26.9300 817.0000 1.0000
26.9400 847.0000 1.0000
26.9500 897.0000 1.0000
26.9600 864.0000 1.0000
26.9700 858.0000 1.0000
26.9800 800.0000 1.0000
26.9900 811.0000 1.0000
27.0000 780.0000 1.0000
27.0100 775.0000 1.0000
27.0200 822.0000 1.0000
27.0300 851.0000 1.0000
27.0400 835.0000 1.0000
27.0500 771.0000 1.0000
27.0600 828.0000 1.0000
27.0700 814.0000 1.0000
27.0800 830.0000 1.0000
27.0900 805.0000 1.0000
27.1000 793.0000 1.0000
27.1100 792.0000 1.0000
27.1200 799.0000 1.0000
27.1300 789.0000 1.0000
27.1400 810.0000 1.0000
27.1500 794.0000 1.0000
27.1600 874.0000 1.0000
27.1700 763.0000 1.0000
27.1800 812.0000 1.0000
27.1900 778.0000 1.0000
27.2000 825.0000 1.0000
27.2100 770.0000 1.0000
27.2200 797.0000 1.0000
27.2300 821.0000 1.0000
27.2400 804.0000 1.0000
27.2500 766.0000 1.0000
27.2600 788.0000 1.0000
27.2700 809.0000 1.0000
27.2800 779.0000 1.0000
27.2900 772.0000 1.0000
27.3000 838.0000 1.0000
27.3100 794.0000 1.0000
27.3200 757.0000 1.0000
27.3300 794.0000 1.0000
27.3400 828.0000 1.0000
27.3500 759.0000 1.0000
27.3600 765.0000 1.0000
27.3700 806.0000 1.0000
27.3800 795.0000 1.0000
27.3900 814.0000 1.0000
27.4000 793.0000 1.0000
27.4100 781.0000 1.0000
27.4200 788.0000 1.0000
27.4300 789.0000 1.0000
27.4400 814.0000 1.0000
27.4500 767.0000 1.0000
27.4600 785.0000 1.0000
27.4700 758.0000 1.0000
27.4800 768.0000 1.0000
27.4900 795.0000 1.0000
27.5000 813.0000 1.0000
27.5100 778.0000 1.0000
27.5200 778.0000 1.0000
27.5300 731.0000 1.0000
27.5400 789.0000 1.0000
27.5500 772.0000 1.0000
27.5600 755.0000 1.0000
27.5700 777.0000 1.0000
27.5800 760.0000 1.0000
27.5900 753.0000 1.0000
27.6000 795.0000 1.0000
27.6100 780.0000 1.0000
27.6200 802.0000 1.0000
27.6300 726.0000 1.0000
27.6400 753.0000 1.0000
27.6500 750.0000 1.0000
27.6600 784.0000 1.0000
27.6700 835.0000 1.0000
27.6800 772.0000 1.0000
27.6900 748.0000 1.0000
27.7000 753.0000 1.0000
27.7100 764.0000 1.0000
27.7200 767.0000 1.0000
27.7300 766.0000 1.0000
27.7400 758.0000 1.0000
27.7500 815.0000 1.0000
27.7600 737.0000 1.0000
27.7700 762.0000 1.0000
27.7800 800.0000 1.0000
27.7900 803.0000 1.0000
27.8000 778.0000 1.0000
27.8100 814.0000 1.0000
27.8200 800.0000 1.0000
27.8300 741.0000 1.0000
27.8400 757.0000 1.0000
27.8500 746.0000 1.0000
27.8600 764.0000 1.0000
27.8700 757.0000 1.0000
27.8800 763.0000 1.0000
27.8900 772.0000 1.0000
27.9000 765.0000 1.0000
27.9100 742.0000 1.0000
27.9200 753.0000 1.0000
27.9300 721.0000 1.0000
27.9400 736.0000 1.0000
27.9500 775.0000 1.0000
27.9600 722.0000 1.0000
27.9700 734.0000 1.0000
27.9800 720.0000 1.0000
27.9900 726.0000 1.0000
28.0000 748.0000 1.0000
28.0100 766.0000 1.0000
28.0200 762.0000 1.0000
28.0300 768.0000 1.0000
28.0400 708.0000 1.0000
28.0500 746.0000 1.0000
28.0600 748.0000 1.0000
28.0700 762.0000 1.0000
28.0800 778.0000 1.0000
28.0900 781.0000 1.0000
28.1000 725.0000 1.0000
28.1100 744.0000 1.0000
28.1200 741.0000 1.0000
28.1300 729.0000 1.0000
28.1400 748.0000 1.0000
28.1500 749.0000 1.0000
28.1600 771.0000 1.0000
28.1700 727.0000 1.0000
28.1800 719.0000 1.0000
28.1900 727.0000 1.0000
28.2000 749.0000 1.0000
28.2100 742.0000 1.0000
28.2200 728.0000 1.0000
28.2300 750.0000 1.0000
28.2400 755.0000 1.0000
28.2500 783.0000 1.0000
28.2600 767.0000 1.0000
28.2700 748.0000 1.0000
28.2800 743.0000 1.0000
28.2900 736.0000 1.0000
28.3000 760.0000 1.0000
28.3100 724.0000 1.0000
28.3200 754.0000 1.0000
28.3300 714.0000 1.0000
28.3400 764.0000 1.0000
28.3500 711.0000 1.0000
28.3600 704.0000 1.0000
28.3700 740.0000 1.0000
28.3800 691.0000 1.0000
28.3900 729.0000 1.0000
28.4000 738.0000 1.0000
28.4100 695.0000 1.0000
28.4200 695.0000 1.0000
28.4300 728.0000 1.0000
28.4400 744.0000 1.0000
28.4500 762.0000 1.0000
28.4600 704.0000 1.0000
28.4700 710.0000 1.0000
28.4800 739.0000 1.0000
28.4900 717.0000 1.0000
28.5000 705.0000 1.0000
28.5100 736.0000 1.0000
28.5200 727.0000 1.0000
28.5300 733.0000 1.0000
28.5400 740.0000 1.0000
28.5500 756.0000 1.0000
28.5600 750.0000 1.0000
28.5700 745.0000 1.0000
28.5800 696.0000 1.0000
28.5900 718.0000 1.0000
28.6000 707.0000 1.0000
28.6100 705.0000 1.0000
28.6200 717.0000 1.0000
28.6300 791.0000 1.0000
28.6400 695.0000 1.0000
28.6500 699.0000 1.0000
28.6600 710.0000 1.0000
28.6700 753.0000 1.0000
28.6800 751.0000 1.0000
28.6900 731.0000 1.0000
28.7000 730.0000 1.0000
28.7100 737.0000 1.0000
28.7200 726.0000 1.0000
28.7300 719.0000 1.0000
28.7400 660.0000 1.0000
28.7500 675.0000 1.0000
28.7600 744.0000 1.0000
28.7700 732.0000 1.0000
28.7800 687.0000 1.0000
28.7900 687.0000 1.0000
28.8000 706.0000 1.0000
28.8100 686.0000 1.0000
28.8200 752.0000 1.0000
28.8300 733.0000 1.0000
28.8400 708.0000 1.0000
28.8500 719.0000 1.0000
28.8600 730.0000 1.0000
28.8700 780.0000 1.0000
28.8800 772.0000 1.0000
28.8900 753.0000 1.0000
28.9000 714.0000 1.0000
28.9100 721.0000 1.0000
28.9200 689.0000 1.0000
28.9300 715.0000 1.0000
28.9400 719.0000 1.0000
28.9500 727.0000 1.0000
28.9600 747.0000 1.0000
28.9700 706.0000 1.0000
28.9800 691.0000 1.0000
28.9900 707.0000 1.0000
29.0000 758.0000 1.0000
29.0100 725.0000 1.0000
29.0200 749.0000 1.0000
29.0300 733.0000 1.0000
29.0400 685.0000 1.0000
29.0500 711.0000 1.0000
29.0600 697.0000 1.0000
29.0700 697.0000 1.0000
29.0800 641.0000 1.0000
29.0900 693.0000 1.0000
29.1000 722.0000 1.0000
29.1100 742.0000 1.0000
29.1200 716.0000 1.0000
29.1300 717.0000 1.0000
29.1400 784.0000 1.0000
29.1500 721.0000 1.0000
29.1600 705.0000 1.0000
29.1700 747.0000 1.0000
29.1800 705.0000 1.0000
29.1900 722.0000 1.0000
29.2000 718.0000 1.0000
29.2100 726.0000 1.0000
29.2200 718.0000 1.0000
29.2300 737.0000 1.0000
29.2400 709.0000 1.0000
29.2500 710.0000 1.0000
29.2600 673.0000 1.0000
29.2700 738.0000 1.0000
29.2800 700.0000 1.0000
29.2900 653.0000 1.0000
29.3000 673.0000 1.0000
29.3100 682.0000 1.0000
29.3200 668.0000 1.0000
29.3300 735.0000 1.0000
29.3400 697.0000 1.0000
29.3500 690.0000 1.0000
29.3600 744.0000 1.0000
29.3700 719.0000 1.0000
29.3800 725.0000 1.0000
29.3900 699.0000 1.0000
29.4000 712.0000 1.0000
29.4100 683.0000 1.0000
29.4200 699.0000 1.0000
29.4300 694.0000 1.0000
29.4400 723.0000 1.0000
29.4500 704.0000 1.0000
29.4600 711.0000 1.0000
29.4700 702.0000 1.0000
29.4800 660.0000 1.0000
29.4900 662.0000 1.0000
29.5000 717.0000 1.0000
29.5100 711.0000 1.0000
29.5200 706.0000 1.0000
29.5300 713.0000 1.0000
29.5400 709.0000 1.0000
29.5500 695.0000 1.0000
29.5600 674.0000 1.0000
29.5700 663.0000 1.0000
29.5800 735.0000 1.0000
29.5900 691.0000 1.0000
29.6000 709.0000 1.0000
29.6100 674.0000 1.0000
29.6200 696.0000 1.0000
29.6300 731.0000 1.0000
29.6400 704.0000 1.0000
29.6500 660.0000 1.0000
29.6600 658.0000 1.0000
29.6700 708.0000 1.0000
29.6800 717.0000 1.0000
29.6900 690.0000 1.0000
29.7000 719.0000 1.0000
29.7100 678.0000 1.0000
29.7200 698.0000 1.0000
29.7300 713.0000 1.0000
29.7400 722.0000 1.0000
29.7500 669.0000 1.0000
29.7600 693.0000 1.0000
29.7700 719.0000 1.0000
29.7800 688.0000 1.0000
29.7900 657.0000 1.0000
29.8000 676.0000 1.0000
29.8100 679.0000 1.0000
29.8200 722.0000 1.0000
29.8300 700.0000 1.0000
29.8400 710.0000 1.0000
29.8500 719.0000 1.0000
29.8600 716.0000 1.0000
29.8700 713.0000 1.0000
29.8800 730.0000 1.0000
29.8900 679.0000 1.0000
29.9000 712.0000 1.0000
29.9100 641.0000 1.0000
29.9200 688.0000 1.0000
29.9300 693.0000 1.0000
29.9400 709.0000 1.0000
29.9500 689.0000 1.0000
29.9600 671.0000 1.0000
29.9700 659.0000 1.0000
29.9800 670.0000 1.0000
29.9900 694.0000 1.0000
30.0000 682.0000 1.0000
30.0100 675.0000 1.0000
30.0200 742.0000 1.0000
30.0300 668.0000 1.0000
30.0400 666.0000 1.0000
30.0500 667.0000 1.0000
30.0600 683.0000 1.0000
30.0700 685.0000 1.0000
30.0800 688.0000 1.0000
30.0900 685.0000 1.0000
30.1000 673.0000 1.0000
30.1100 672.0000 1.0000
30.1200 679.0000 1.0000
30.1300 691.0000 1.0000
30.1400 708.0000 1.0000
30.1500 713.0000 1.0000
30.1600 689.0000 1.0000
30.1700 674.0000 1.0000
30.1800 655.0000 1.0000
30.1900 673.0000 1.0000
30.2000 703.0000 1.0000
30.2100 674.0000 1.0000
30.2200 662.0000 1.0000
30.2300 662.0000 1.0000
30.2400 650.0000 1.0000
30.2500 689.0000 1.0000
30.2600 650.0000 1.0000
30.2700 685.0000 1.0000
30.2800 690.0000 1.0000
30.2900 691.0000 1.0000
30.3000 655.0000 1.0000
30.3100 691.0000 1.0000
30.3200 679.0000 1.0000
30.3300 693.0000 1.0000
30.3400 718.0000 1.0000
30.3500 750.0000 1.0000
30.3600 639.0000 1.0000
30.3700 691.0000 1.0000
30.3800 682.0000 1.0000
30.3900 678.0000 1.0000
30.4000 630.0000 1.0000
30.4100 663.0000 1.0000
30.4200 668.0000 1.0000
30.4300 673.0000 1.0000
30.4400 690.0000 1.0000
30.4500 659.0000 1.0000
30.4600 666.0000 1.0000
30.4700 666.0000 1.0000
30.4800 702.0000 1.0000
30.4900 660.0000 1.0000
30.5000 661.0000 1.0000
30.5100 638.0000 1.0000
30.5200 686.0000 1.0000
30.5300 675.0000 1.0000
30.5400 717.0000 1.0000
30.5500 684.0000 1.0000
30.5600 671.0000 1.0000
30.5700 690.0000 1.0000
30.5800 706.0000 1.0000
30.5900 656.0000 1.0000
30.6000 655.0000 1.0000
30.6100 672.0000 1.0000
30.6200 654.0000 1.0000
30.6300 666.0000 1.0000
30.6400 660.0000 1.0000
30.6500 665.0000 1.0000
30.6600 648.0000 1.0000
30.6700 711.0000 1.0000
30.6800 713.0000 1.0000
30.6900 663.0000 1.0000
30.7000 668.0000 1.0000
30.7100 667.0000 1.0000
30.7200 675.0000 1.0000
30.7300 655.0000 1.0000
30.7400 697.0000 1.0000
30.7500 674.0000 1.0000
30.7600 623.0000 1.0000
30.7700 628.0000 1.0000
30.7800 686.0000 1.0000
30.7900 627.0000 1.0000
30.8000 703.0000 1.0000
30.8100 683.0000 1.0000
30.8200 650.0000 1.0000
30.8300 688.0000 1.0000
30.8400 677.0000 1.0000
30.8500 692.0000 1.0000
30.8600 651.0000 1.0000
30.8700 661.0000 1.0000
30.8800 699.0000 1.0000
30.8900 670.0000 1.0000
30.9000 659.0000 1.0000
30.9100 650.0000 1.0000
30.9200 664.0000 1.0000
30.9300 643.0000 1.0000
30.9400 685.0000 1.0000
30.9500 695.0000 1.0000
30.9600 644.0000 1.0000
30.9700 685.0000 1.0000
30.9800 702.0000 1.0000
30.9900 666.0000 1.0000
31.0000 690.0000 1.0000
31.0100 658.0000 1.0000
31.0200 658.0000 1.0000
31.0300 671.0000 1.0000
31.0400 638.0000 1.0000
31.0500 639.0000 1.0000
31.0600 647.0000 1.0000
31.0700 663.0000 1.0000
31.0800 651.0000 1.0000
31.0900 665.0000 1.0000
31.1000 674.0000 1.0000
31.1100 684.0000 1.0000
31.1200 637.0000 1.0000
31.1300 689.0000 1.0000
31.1400 709.0000 1.0000
31.1500 697.0000 1.0000
31.1600 678.0000 1.0000
31.1700 699.0000 1.0000
31.1800 679.0000 1.0000
31.1900 718.0000 1.0000
31.2000 690.0000 1.0000
31.2100 653.0000 1.0000
31.2200 658.0000 1.0000
31.2300 638.0000 1.0000
31.2400 705.0000 1.0000
31.2500 656.0000 1.0000
31.2600 652.0000 1.0000
31.2700 650.0000 1.0000
31.2800 656.0000 1.0000
31.2900 646.0000 1.0000
31.3000 668.0000 1.0000
31.3100 656.0000 1.0000
31.3200 690.0000 1.0000
31.3300 624.0000 1.0000
31.3400 693.0000 1.0000
31.3500 658.0000 1.0000
31.3600 655.0000 1.0000
31.3700 675.0000 1.0000
31.3800 664.0000 1.0000
31.3900 658.0000 1.0000
31.4000 669.0000 1.0000
31.4100 665.0000 1.0000
31.4200 664.0000 1.0000
31.4300 647.0000 1.0000
31.4400 670.0000 1.0000
31.4500 618.0000 1.0000
31.4600 617.0000 1.0000
31.4700 655.0000 1.0000
31.4800 669.0000 1.0000
31.4900 647.0000 1.0000
31.5000 640.0000 1.0000
31.5100 648.0000 1.0000
31.5200 677.0000 1.0000
31.5300 626.0000 1.0000
31.5400 647.0000 1.0000
31.5500 679.0000 1.0000
31.5600 631.0000 1.0000
31.5700 651.0000 1.0000
31.5800 637.0000 1.0000
31.5900 653.0000 1.0000
31.6000 662.0000 1.0000
31.6100 591.0000 1.0000
31.6200 645.0000 1.0000
31.6300 636.0000 1.0000
31.6400 645.0000 1.0000
31.6500 627.0000 1.0000
31.6600 656.0000 1.0000
31.6700 650.0000 1.0000
31.6800 662.0000 1.0000
31.6900 617.0000 1.0000
31.7000 641.0000 1.0000
31.7100 653.0000 1.0000
31.7200 655.0000 1.0000
31.7300 625.0000 1.0000
31.7400 641.0000 1.0000
31.7500 624.0000 1.0000
31.7600 674.0000 1.0000
31.7700 641.0000 1.0000
31.7800 668.0000 1.0000
31.7900 648.0000 1.0000
31.8000 639.0000 1.0000
31.8100 674.0000 1.0000
31.8200 614.0000 1.0000
31.8300 621.0000 1.0000
31.8400 651.0000 1.0000
31.8500 641.0000 1.0000
31.8600 639.0000 1.0000
31.8700 609.0000 1.0000
31.8800 615.0000 1.0000
31.8900 622.0000 1.0000
31.9000 605.0000 1.0000
31.9100 636.0000 1.0000
31.9200 651.0000 1.0000
31.9300 656.0000 1.0000
31.9400 620.0000 1.0000
31.9500 647.0000 1.0000
31.9600 660.0000 1.0000
31.9700 671.0000 1.0000
31.9800 642.0000 1.0000
31.9900 630.0000 1.0000
32.0000 657.0000 1.0000
32.0100 681.0000 1.0000
32.0200 655.0000 1.0000
32.0300 645.0000 1.0000
32.0400 682.0000 1.0000
32.0500 650.0000 1.0000
32.0600 645.0000 1.0000
32.0700 638.0000 1.0000
32.0800 645.0000 1.0000
32.0900 666.0000 1.0000
32.1000 662.0000 1.0000
32.1100 634.0000 1.0000
32.1200 589.0000 1.0000
32.1300 632.0000 1.0000
32.1400 606.0000 1.0000
32.1500 624.0000 1.0000
32.1600 638.0000 1.0000
32.1700 631.0000 1.0000
32.1800 640.0000 1.0000
32.1900 649.0000 1.0000
32.2000 605.0000 1.0000
32.2100 629.0000 1.0000
32.2200 600.0000 1.0000
32.2300 605.0000 1.0000
32.2400 623.0000 1.0000
32.2500 612.0000 1.0000
32.2600 655.0000 1.0000
32.2700 633.0000 1.0000
32.2800 603.0000 1.0000
32.2900 610.0000 1.0000
32.3000 631.0000 1.0000
32.3100 588.0000 1.0000
32.3200 601.0000 1.0000
32.3300 624.0000 1.0000
32.3400 656.0000 1.0000
32.3500 635.0000 1.0000
32.3600 637.0000 1.0000
32.3700 659.0000 1.0000
32.3800 624.0000 1.0000
32.3900 638.0000 1.0000
32.4000 610.0000 1.0000
32.4100 644.0000 1.0000
32.4200 639.0000 1.0000
32.4300 616.0000 1.0000
32.4400 636.0000 1.0000
32.4500 631.0000 1.0000
32.4600 644.0000 1.0000
32.4700 641.0000 1.0000
32.4800 673.0000 1.0000
32.4900 663.0000 1.0000
32.5000 687.0000 1.0000
32.5100 581.0000 1.0000
32.5200 602.0000 1.0000
32.5300 606.0000 1.0000
32.5400 617.0000 1.0000
32.5500 608.0000 1.0000
32.5600 654.0000 1.0000
32.5700 629.0000 1.0000
32.5800 662.0000 1.0000
32.5900 653.0000 1.0000
32.6000 632.0000 1.0000
32.6100 625.0000 1.0000
32.6200 660.0000 1.0000
32.6300 653.0000 1.0000
32.6400 651.0000 1.0000
32.6500 604.0000 1.0000
32.6600 631.0000 1.0000
32.6700 618.0000 1.0000
32.6800 633.0000 1.0000
32.6900 648.0000 1.0000
32.7000 641.0000 1.0000
32.7100 621.0000 1.0000
32.7200 620.0000 1.0000
32.7300 658.0000 1.0000
32.7400 663.0000 1.0000
32.7500 639.0000 1.0000
32.7600 679.0000 1.0000
32.7700 623.0000 1.0000
32.7800 615.0000 1.0000
32.7900 632.0000 1.0000
32.8000 655.0000 1.0000
32.8100 680.0000 1.0000
32.8200 649.0000 1.0000
32.8300 579.0000 1.0000
32.8400 628.0000 1.0000
32.8500 646.0000 1.0000
32.8600 689.0000 1.0000
32.8700 667.0000 1.0000
32.8800 664.0000 1.0000
32.8900 665.0000 1.0000
32.9000 638.0000 1.0000
32.9100 654.0000 1.0000
32.9200 632.0000 1.0000
32.9300 704.0000 1.0000
32.9400 662.0000 1.0000
32.9500 681.0000 1.0000
32.9600 644.0000 1.0000
32.9700 687.0000 1.0000
32.9800 677.0000 1.0000
32.9900 691.0000 1.0000
33.0000 697.0000 1.0000
33.0100 697.0000 1.0000
33.0200 727.0000 1.0000
33.0300 715.0000 1.0000
33.0400 677.0000 1.0000
33.0500 688.0000 1.0000
33.0600 765.0000 1.0000
33.0700 771.0000 1.0000
33.0800 777.0000 1.0000
33.0900 767.0000 1.0000
33.1000 749.0000 1.0000
33.1100 828.0000 1.0000
33.1200 782.0000 1.0000
33.1300 800.0000 1.0000
33.1400 807.0000 1.0000
33.1500 777.0000 1.0000
33.1600 750.0000 1.0000
33.1700 763.0000 1.0000
33.1800 766.0000 1.0000
33.1900 750.0000 1.0000
33.2000 715.0000 1.0000
33.2100 708.0000 1.0000
33.2200 761.0000 1.0000
33.2300 753.0000 1.0000
33.2400 662.0000 1.0000
33.2500 667.0000 1.0000
33.2600 719.0000 1.0000
33.2700 703.0000 1.0000
33.2800 670.0000 1.0000
33.2900 681.0000 1.0000
33.3000 687.0000 1.0000
33.3100 720.0000 1.0000
33.3200 709.0000 1.0000
33.3300 680.0000 1.0000
33.3400 695.0000 1.0000
33.3500 727.0000 1.0000
33.3600 718.0000 1.0000
33.3700 709.0000 1.0000
33.3800 726.0000 1.0000
33.3900 688.0000 1.0000
33.4000 676.0000 1.0000
33.4100 705.0000 1.0000
33.4200 717.0000 1.0000
33.4300 735.0000 1.0000
33.4400 733.0000 1.0000
33.4500 768.0000 1.0000
33.4600 817.0000 1.0000
33.4700 816.0000 1.0000
33.4800 843.0000 1.0000
33.4900 787.0000 1.0000
33.5000 856.0000 1.0000
33.5100 894.0000 1.0000
33.5200 885.0000 1.0000
33.5300 911.0000 1.0000
33.5400 888.0000 1.0000
33.5500 988.0000 1.0000
33.5600 993.0000 1.0000
33.5700 1036.0000 1.0000
33.5800 1122.0000 1.0000
33.5900 1164.0000 1.0000
33.6000 1177.0000 1.0000
33.6100 1223.0000 1.0000
33.6200 1266.0000 1.0000
33.6300 1342.0000 1.0000
33.6400 1312.0000 1.0000
33.6500 1414.0000 1.0000
33.6600 1386.0000 1.0000
33.6700 1413.0000 1.0000
33.6800 1368.0000 1.0000
33.6900 1371.0000 1.0000
33.7000 1339.0000 1.0000
33.7100 1324.0000 1.0000
33.7200 1250.0000 1.0000
33.7300 1250.0000 1.0000
33.7400 1244.0000 1.0000
33.7500 1174.0000 1.0000
33.7600 1096.0000 1.0000
33.7700 1081.0000 1.0000
33.7800 1040.0000 1.0000
33.7900 1030.0000 1.0000
33.8000 1009.0000 1.0000
33.8100 981.0000 1.0000
33.8200 913.0000 1.0000
33.8300 882.0000 1.0000
33.8400 849.0000 1.0000
33.8500 855.0000 1.0000
33.8600 807.0000 1.0000
33.8700 818.0000 1.0000
33.8800 838.0000 1.0000
33.8900 774.0000 1.0000
33.9000 773.0000 1.0000
33.9100 755.0000 1.0000
33.9200 712.0000 1.0000
33.9300 717.0000 1.0000
33.9400 731.0000 1.0000
33.9500 685.0000 1.0000
33.9600 663.0000 1.0000
33.9700 634.0000 1.0000
33.9800 681.0000 1.0000
33.9900 704.0000 1.0000
34.0000 653.0000 1.0000
34.0100 662.0000 1.0000
34.0200 646.0000 1.0000
34.0300 649.0000 1.0000
34.0400 645.0000 1.0000
34.0500 637.0000 1.0000
34.0600 610.0000 1.0000
34.0700 641.0000 1.0000
34.0800 619.0000 1.0000
34.0900 595.0000 1.0000
34.1000 599.0000 1.0000
34.1100 633.0000 1.0000
34.1200 577.0000 1.0000
34.1300 614.0000 1.0000
34.1400 600.0000 1.0000
34.1500 625.0000 1.0000
34.1600 599.0000 1.0000
34.1700 587.0000 1.0000
34.1800 600.0000 1.0000
34.1900 626.0000 1.0000
34.2000 605.0000 1.0000
34.2100 591.0000 1.0000
34.2200 598.0000 1.0000
34.2300 567.0000 1.0000
34.2400 598.0000 1.0000
34.2500 581.0000 1.0000
34.2600 601.0000 1.0000
34.2700 587.0000 1.0000
34.2800 601.0000 1.0000
34.2900 585.0000 1.0000
34.3000 598.0000 1.0000
34.3100 589.0000 1.0000
34.3200 573.0000 1.0000
34.3300 592.0000 1.0000
34.3400 595.0000 1.0000
34.3500 574.0000 1.0000
34.3600 559.0000 1.0000
34.3700 580.0000 1.0000
34.3800 591.0000 1.0000
34.3900 578.0000 1.0000
34.4000 587.0000 1.0000
34.4100 570.0000 1.0000
34.4200 545.0000 1.0000
34.4300 592.0000 1.0000
34.4400 578.0000 1.0000
34.4500 580.0000 1.0000
34.4600 573.0000 1.0000
34.4700 590.0000 1.0000
34.4800 541.0000 1.0000
34.4900 581.0000 1.0000
34.5000 605.0000 1.0000
34.5100 592.0000 1.0000
34.5200 604.0000 1.0000
34.5300 596.0000 1.0000
34.5400 572.0000 1.0000
34.5500 537.0000 1.0000
34.5600 530.0000 1.0000
34.5700 611.0000 1.0000
34.5800 581.0000 1.0000
34.5900 538.0000 1.0000
34.6000 595.0000 1.0000
34.6100 562.0000 1.0000
34.6200 574.0000 1.0000
34.6300 558.0000 1.0000
34.6400 550.0000 1.0000
34.6500 571.0000 1.0000
34.6600 547.0000 1.0000
34.6700 564.0000 1.0000
34.6800 550.0000 1.0000
34.6900 539.0000 1.0000
34.7000 562.0000 1.0000
34.7100 566.0000 1.0000
34.7200 534.0000 1.0000
34.7300 531.0000 1.0000
34.7400 567.0000 1.0000
34.7500 584.0000 1.0000
34.7600 531.0000 1.0000
34.7700 548.0000 1.0000
34.7800 551.0000 1.0000
34.7900 547.0000 1.0000
34.8000 572.0000 1.0000
34.8100 540.0000 1.0000
34.8200 573.0000 1.0000
34.8300 575.0000 1.0000
34.8400 565.0000 1.0000
34.8500 586.0000 1.0000
34.8600 547.0000 1.0000
34.8700 586.0000 1.0000
34.8800 562.0000 1.0000
34.8900 530.0000 1.0000
34.9000 512.0000 1.0000
34.9100 564.0000 1.0000
34.9200 561.0000 1.0000
34.9300 575.0000 1.0000
34.9400 577.0000 1.0000
34.9500 530.0000 1.0000
34.9600 561.0000 1.0000
34.9700 624.0000 1.0000
34.9800 533.0000 1.0000
34.9900 536.0000 1.0000
35.0000 523.0000 1.0000
35.0100 556.0000 1.0000
35.0200 578.0000 1.0000
35.0300 587.0000 1.0000
35.0400 568.0000 1.0000
35.0500 542.0000 1.0000
35.0600 516.0000 1.0000
35.0700 600.0000 1.0000
35.0800 606.0000 1.0000
35.0900 539.0000 1.0000
35.1000 539.0000 1.0000
35.1100 543.0000 1.0000
35.1200 559.0000 1.0000
35.1300 541.0000 1.0000
35.1400 563.0000 1.0000
35.1500 541.0000 1.0000
35.1600 550.0000 1.0000
35.1700 588.0000 1.0000
35.1800 612.0000 1.0000
35.1900 592.0000 1.0000
35.2000 584.0000 1.0000
35.2100 554.0000 1.0000
35.2200 542.0000 1.0000
35.2300 570.0000 1.0000
35.2400 565.0000 1.0000
35.2500 557.0000 1.0000
35.2600 593.0000 1.0000
35.2700 576.0000 1.0000
35.2800 564.0000 1.0000
35.2900 570.0000 1.0000
35.3000 545.0000 1.0000
35.3100 653.0000 1.0000
35.3200 600.0000 1.0000
35.3300 626.0000 1.0000
35.3400 609.0000 1.0000
35.3500 623.0000 1.0000
35.3600 628.0000 1.0000
35.3700 649.0000 1.0000
35.3800 700.0000 1.0000
35.3900 626.0000 1.0000
35.4000 669.0000 1.0000
35.4100 674.0000 1.0000
35.4200 706.0000 1.0000
35.4300 747.0000 1.0000
35.4400 765.0000 1.0000
35.4500 830.0000 1.0000
35.4600 841.0000 1.0000
35.4700 859.0000 1.0000
35.4800 892.0000 1.0000
35.4900 992.0000 1.0000
35.5000 1003.0000 1.0000
35.5100 1055.0000 1.0000
35.5200 1123.0000 1.0000
35.5300 1171.0000 1.0000
35.5400 1200.0000 1.0000
35.5500 1368.0000 1.0000
35.5600 1337.0000 1.0000
35.5700 1392.0000 1.0000
35.5800 1371.0000 1.0000
35.5900 1350.0000 1.0000
35.6000 1359.0000 1.0000
35.6100 1321.0000 1.0000
35.6200 1255.0000 1.0000
35.6300 1220.0000 1.0000
35.6400 1183.0000 1.0000
35.6500 1185.0000 1.0000
35.6600 1145.0000 1.0000
35.6700 1117.0000 1.0000
35.6800 1046.0000 1.0000
35.6900 982.0000 1.0000
35.7000 895.0000 1.0000
35.7100 853.0000 1.0000
35.7200 858.0000 1.0000
35.7300 741.0000 1.0000
35.7400 803.0000 1.0000
35.7500 727.0000 1.0000
35.7600 748.0000 1.0000
35.7700 664.0000 1.0000
35.7800 660.0000 1.0000
35.7900 693.0000 1.0000
35.8000 609.0000 1.0000
35.8100 613.0000 1.0000
35.8200 600.0000 1.0000
35.8300 580.0000 1.0000
35.8400 568.0000 1.0000
35.8500 556.0000 1.0000
35.8600 591.0000 1.0000
35.8700 574.0000 1.0000
35.8800 562.0000 1.0000
35.8900 553.0000 1.0000
35.9000 560.0000 1.0000
35.9100 528.0000 1.0000
35.9200 564.0000 1.0000
35.9300 531.0000 1.0000
35.9400 551.0000 1.0000
35.9500 583.0000 1.0000
35.9600 544.0000 1.0000
35.9700 549.0000 1.0000
35.9800 528.0000 1.0000
35.9900 520.0000 1.0000
36.0000 531.0000 1.0000
36.0100 516.0000 1.0000
36.0200 504.0000 1.0000
36.0300 562.0000 1.0000
36.0400 547.0000 1.0000
36.0500 523.0000 1.0000
36.0600 538.0000 1.0000
36.0700 503.0000 1.0000
36.0800 504.0000 1.0000
36.0900 542.0000 1.0000
36.1000 546.0000 1.0000
36.1100 561.0000 1.0000
36.1200 528.0000 1.0000
36.1300 506.0000 1.0000
36.1400 525.0000 1.0000
36.1500 523.0000 1.0000
36.1600 534.0000 1.0000
36.1700 521.0000 1.0000
36.1800 515.0000 1.0000
36.1900 516.0000 1.0000
36.2000 544.0000 1.0000
36.2100 510.0000 1.0000
36.2200 517.0000 1.0000
36.2300 496.0000 1.0000
36.2400 511.0000 1.0000
36.2500 515.0000 1.0000
36.2600 487.0000 1.0000
36.2700 495.0000 1.0000
36.2800 536.0000 1.0000
36.2900 566.0000 1.0000
36.3000 558.0000 1.0000
36.3100 520.0000 1.0000
36.3200 495.0000 1.0000
36.3300 507.0000 1.0000
36.3400 483.0000 1.0000
36.3500 545.0000 1.0000
36.3600 561.0000 1.0000
36.3700 537.0000 1.0000
36.3800 527.0000 1.0000
36.3900 526.0000 1.0000
36.4000 505.0000 1.0000
36.4100 514.0000 1.0000
36.4200 494.0000 1.0000
36.4300 511.0000 1.0000
36.4400 529.0000 1.0000
36.4500 511.0000 1.0000
36.4600 538.0000 1.0000
36.4700 512.0000 1.0000
36.4800 488.0000 1.0000
36.4900 523.0000 1.0000
36.5000 488.0000 1.0000
36.5100 537.0000 1.0000
36.5200 524.0000 1.0000
36.5300 525.0000 1.0000
36.5400 490.0000 1.0000
36.5500 491.0000 1.0000
36.5600 540.0000 1.0000
36.5700 483.0000 1.0000
36.5800 541.0000 1.0000
36.5900 514.0000 1.0000
36.6000 560.0000 1.0000
36.6100 532.0000 1.0000
36.6200 513.0000 1.0000
36.6300 500.0000 1.0000
36.6400 490.0000 1.0000
36.6500 487.0000 1.0000
36.6600 535.0000 1.0000
36.6700 516.0000 1.0000
36.6800 503.0000 1.0000
36.6900 515.0000 1.0000
36.7000 519.0000 1.0000
36.7100 523.0000 1.0000
36.7200 505.0000 1.0000
36.7300 507.0000 1.0000
36.7400 532.0000 1.0000
36.7500 510.0000 1.0000
36.7600 490.0000 1.0000
36.7700 492.0000 1.0000
36.7800 533.0000 1.0000
36.7900 507.0000 1.0000
36.8000 491.0000 1.0000
36.8100 496.0000 1.0000
36.8200 510.0000 1.0000
36.8300 524.0000 1.0000
36.8400 515.0000 1.0000
36.8500 517.0000 1.0000
36.8600 508.0000 1.0000
36.8700 483.0000 1.0000
36.8800 522.0000 1.0000
36.8900 511.0000 1.0000
36.9000 497.0000 1.0000
36.9100 513.0000 1.0000
36.9200 509.0000 1.0000
36.9300 546.0000 1.0000
36.9400 492.0000 1.0000
36.9500 499.0000 1.0000
36.9600 517.0000 1.0000
36.9700 519.0000 1.0000
36.9800 479.0000 1.0000
36.9900 495.0000 1.0000
37.0000 508.0000 1.0000
37.0100 552.0000 1.0000
37.0200 518.0000 1.0000
37.0300 458.0000 1.0000
37.0400 521.0000 1.0000
37.0500 507.0000 1.0000
37.0600 528.0000 1.0000
37.0700 492.0000 1.0000
37.0800 542.0000 1.0000
37.0900 538.0000 1.0000
37.1000 513.0000 1.0000
37.1100 513.0000 1.0000
37.1200 551.0000 1.0000
37.1300 504.0000 1.0000
37.1400 516.0000 1.0000
37.1500 501.0000 1.0000
37.1600 503.0000 1.0000
37.1700 521.0000 1.0000
37.1800 535.0000 1.0000
37.1900 480.0000 1.0000
37.2000 516.0000 1.0000
37.2100 544.0000 1.0000
37.2200 523.0000 1.0000
37.2300 530.0000 1.0000
37.2400 523.0000 1.0000
37.2500 508.0000 1.0000
37.2600 501.0000 1.0000
37.2700 506.0000 1.0000
37.2800 559.0000 1.0000
37.2900 554.0000 1.0000
37.3000 548.0000 1.0000
37.3100 580.0000 1.0000
37.3200 571.0000 1.0000
37.3300 538.0000 1.0000
37.3400 563.0000 1.0000
37.3500 593.0000 1.0000
37.3600 616.0000 1.0000
37.3700 590.0000 1.0000
37.3800 585.0000 1.0000
37.3900 586.0000 1.0000
37.4000 651.0000 1.0000
37.4100 642.0000 1.0000
37.4200 664.0000 1.0000
37.4300 646.0000 1.0000
37.4400 663.0000 1.0000
37.4500 717.0000 1.0000
37.4600 718.0000 1.0000
37.4700 714.0000 1.0000
37.4800 799.0000 1.0000
37.4900 781.0000 1.0000
37.5000 803.0000 1.0000
37.5100 849.0000 1.0000
37.5200 852.0000 1.0000
37.5300 879.0000 1.0000
37.5400 889.0000 1.0000
37.5500 973.0000 1.0000
37.5600 1037.0000 1.0000
37.5700 1126.0000 1.0000
37.5800 1131.0000 1.0000
37.5900 1179.0000 1.0000
37.6000 1288.0000 1.0000
37.6100 1383.0000 1.0000
37.6200 1428.0000 1.0000
37.6300 1590.0000 1.0000
37.6400 1632.0000 1.0000
37.6500 1782.0000 1.0000
37.6600 1797.0000 1.0000
37.6700 1882.0000 1.0000
37.6800 1886.0000 1.0000
37.6900 1951.0000 1.0000
37.7000 1983.0000 1.0000
37.7100 2022.0000 1.0000
37.7200 2051.0000 1.0000
37.7300 1971.0000 1.0000
37.7400 2010.0000 1.0000
37.7500 1987.0000 1.0000
37.7600 1982.0000 1.0000
37.7700 1943.0000 1.0000
37.7800 1855.0000 1.0000
37.7900 1770.0000 1.0000
37.8000 1757.0000 1.0000
37.8100 1694.0000 1.0000
37.8200 1629.0000 1.0000
37.8300 1560.0000 1.0000
37.8400 1441.0000 1.0000
37.8500 1438.0000 1.0000
37.8600 1275.0000 1.0000
37.8700 1192.0000 1.0000
37.8800 1166.0000 1.0000
37.8900 1075.0000 1.0000
37.9000 1041.0000 1.0000
37.9100 1037.0000 1.0000
37.9200 977.0000 1.0000
37.9300 892.0000 1.0000
37.9400 879.0000 1.0000
37.9500 847.0000 1.0000
37.9600 779.0000 1.0000
37.9700 775.0000 1.0000
37.9800 757.0000 1.0000
37.9900 750.0000 1.0000
38.0000 708.0000 1.0000
38.0100 653.0000 1.0000
38.0200 653.0000 1.0000
38.0300 640.0000 1.0000
38.0400 643.0000 1.0000
38.0500 607.0000 1.0000
38.0600 628.0000 1.0000
38.0700 633.0000 1.0000
38.0800 566.0000 1.0000
38.0900 605.0000 1.0000
38.1000 586.0000 1.0000
38.1100 506.0000 1.0000
38.1200 564.0000 1.0000
38.1300 551.0000 1.0000
38.1400 555.0000 1.0000
38.1500 557.0000 1.0000
38.1600 539.0000 1.0000
38.1700 548.0000 1.0000
38.1800 531.0000 1.0000
38.1900 538.0000 1.0000
38.2000 529.0000 1.0000
38.2100 482.0000 1.0000
38.2200 535.0000 1.0000
38.2300 520.0000 1.0000
38.2400 541.0000 1.0000
38.2500 537.0000 1.0000
38.2600 494.0000 1.0000
38.2700 565.0000 1.0000
38.2800 485.0000 1.0000
38.2900 499.0000 1.0000
38.3000 477.0000 1.0000
38.3100 472.0000 1.0000
38.3200 469.0000 1.0000
38.3300 491.0000 1.0000
38.3400 537.0000 1.0000
38.3500 500.0000 1.0000
38.3600 496.0000 1.0000
38.3700 477.0000 1.0000
38.3800 498.0000 1.0000
38.3900 493.0000 1.0000
38.4000 487.0000 1.0000
38.4100 490.0000 1.0000
38.4200 516.0000 1.0000
38.4300 484.0000 1.0000
38.4400 534.0000 1.0000
38.4500 481.0000 1.0000
38.4600 526.0000 1.0000
38.4700 495.0000 1.0000
38.4800 478.0000 1.0000
38.4900 465.0000 1.0000
38.5000 454.0000 1.0000
38.5100 475.0000 1.0000
38.5200 492.0000 1.0000
38.5300 464.0000 1.0000
38.5400 469.0000 1.0000
38.5500 463.0000 1.0000
38.5600 478.0000 1.0000
38.5700 516.0000 1.0000
38.5800 458.0000 1.0000
38.5900 517.0000 1.0000
38.6000 554.0000 1.0000
38.6100 494.0000 1.0000
38.6200 451.0000 1.0000
38.6300 486.0000 1.0000
38.6400 442.0000 1.0000
38.6500 451.0000 1.0000
38.6600 497.0000 1.0000
38.6700 462.0000 1.0000
38.6800 489.0000 1.0000
38.6900 503.0000 1.0000
38.7000 487.0000 1.0000
38.7100 489.0000 1.0000
38.7200 486.0000 1.0000
38.7300 499.0000 1.0000
38.7400 493.0000 1.0000
38.7500 493.0000 1.0000
38.7600 467.0000 1.0000
38.7700 503.0000 1.0000
38.7800 462.0000 1.0000
38.7900 502.0000 1.0000
38.8000 501.0000 1.0000
38.8100 514.0000 1.0000
38.8200 481.0000 1.0000
38.8300 472.0000 1.0000
38.8400 490.0000 1.0000
38.8500 492.0000 1.0000
38.8600 517.0000 1.0000
38.8700 453.0000 1.0000
38.8800 482.0000 1.0000
38.8900 482.0000 1.0000
38.9000 488.0000 1.0000
38.9100 483.0000 1.0000
38.9200 460.0000 1.0000
38.9300 450.0000 1.0000
38.9400 453.0000 1.0000
38.9500 468.0000 1.0000
38.9600 477.0000 1.0000
38.9700 468.0000 1.0000
38.9800 472.0000 1.0000
38.9900 473.0000 1.0000
39.0000 483.0000 1.0000
39.0100 503.0000 1.0000
39.0200 449.0000 1.0000
39.0300 450.0000 1.0000
39.0400 443.0000 1.0000
39.0500 486.0000 1.0000
39.0600 456.0000 1.0000
39.0700 450.0000 1.0000
39.0800 479.0000 1.0000
39.0900 480.0000 1.0000
39.1000 426.0000 1.0000
39.1100 431.0000 1.0000
39.1200 465.0000 1.0000
39.1300 452.0000 1.0000
39.1400 468.0000 1.0000
39.1500 453.0000 1.0000
39.1600 428.0000 1.0000
39.1700 462.0000 1.0000
39.1800 423.0000 1.0000
39.1900 438.0000 1.0000
39.2000 454.0000 1.0000
39.2100 454.0000 1.0000
39.2200 469.0000 1.0000
39.2300 456.0000 1.0000
39.2400 466.0000 1.0000
39.2500 449.0000 1.0000
39.2600 473.0000 1.0000
39.2700 443.0000 1.0000
39.2800 448.0000 1.0000
39.2900 420.0000 1.0000
39.3000 449.0000 1.0000
39.3100 473.0000 1.0000
39.3200 445.0000 1.0000
39.3300 459.0000 1.0000
39.3400 417.0000 1.0000
39.3500 434.0000 1.0000
39.3600 479.0000 1.0000
39.3700 446.0000 1.0000
39.3800 455.0000 1.0000
39.3900 446.0000 1.0000
39.4000 463.0000 1.0000
39.4100 437.0000 1.0000
39.4200 444.0000 1.0000
39.4300 458.0000 1.0000
39.4400 436.0000 1.0000
39.4500 445.0000 1.0000
39.4600 410.0000 1.0000
39.4700 465.0000 1.0000
39.4800 435.0000 1.0000
39.4900 438.0000 1.0000
39.5000 456.0000 1.0000
39.5100 451.0000 1.0000
39.5200 423.0000 1.0000
39.5300 422.0000 1.0000
39.5400 428.0000 1.0000
39.5500 454.0000 1.0000
39.5600 436.0000 1.0000
39.5700 432.0000 1.0000
39.5800 425.0000 1.0000
39.5900 446.0000 1.0000
39.6000 460.0000 1.0000
39.6100 413.0000 1.0000
39.6200 453.0000 1.0000
39.6300 489.0000 1.0000
39.6400 449.0000 1.0000
39.6500 435.0000 1.0000
39.6600 452.0000 1.0000
39.6700 436.0000 1.0000
39.6800 417.0000 1.0000
39.6900 419.0000 1.0000
39.7000 428.0000 1.0000
39.7100 411.0000 1.0000
39.7200 437.0000 1.0000
39.7300 468.0000 1.0000
39.7400 440.0000 1.0000
39.7500 434.0000 1.0000
39.7600 429.0000 1.0000
39.7700 422.0000 1.0000
39.7800 465.0000 1.0000
39.7900 475.0000 1.0000
39.8000 449.0000 1.0000
39.8100 442.0000 1.0000
39.8200 428.0000 1.0000
39.8300 424.0000 1.0000
39.8400 458.0000 1.0000
39.8500 431.0000 1.0000
39.8600 406.0000 1.0000
39.8700 433.0000 1.0000
39.8800 430.0000 1.0000
39.8900 413.0000 1.0000
39.9000 425.0000 1.0000
39.9100 452.0000 1.0000
39.9200 464.0000 1.0000
39.9300 443.0000 1.0000
39.9400 423.0000 1.0000
39.9500 455.0000 1.0000
39.9600 473.0000 1.0000
39.9700 417.0000 1.0000
39.9800 434.0000 1.0000
39.9900 462.0000 1.0000
40.0000 460.0000 1.0000
40.0100 475.0000 1.0000
40.0200 435.0000 1.0000
40.0300 461.0000 1.0000
40.0400 432.0000 1.0000
40.0500 418.0000 1.0000
40.0600 436.0000 1.0000
40.0700 439.0000 1.0000
40.0800 448.0000 1.0000
40.0900 468.0000 1.0000
40.1000 469.0000 1.0000
40.1100 458.0000 1.0000
40.1200 449.0000 1.0000
40.1300 434.0000 1.0000
40.1400 441.0000 1.0000
40.1500 417.0000 1.0000
40.1600 407.0000 1.0000
40.1700 409.0000 1.0000
40.1800 407.0000 1.0000
40.1900 421.0000 1.0000
40.2000 415.0000 1.0000
40.2100 489.0000 1.0000
40.2200 423.0000 1.0000
40.2300 428.0000 1.0000
40.2400 421.0000 1.0000
40.2500 428.0000 1.0000
40.2600 404.0000 1.0000
40.2700 388.0000 1.0000
40.2800 434.0000 1.0000
40.2900 436.0000 1.0000
40.3000 437.0000 1.0000
40.3100 440.0000 1.0000
40.3200 424.0000 1.0000
40.3300 413.0000 1.0000
40.3400 431.0000 1.0000
40.3500 432.0000 1.0000
40.3600 430.0000 1.0000
40.3700 418.0000 1.0000
40.3800 413.0000 1.0000
40.3900 418.0000 1.0000
40.4000 416.0000 1.0000
40.4100 446.0000 1.0000
40.4200 412.0000 1.0000
40.4300 426.0000 1.0000
40.4400 444.0000 1.0000
40.4500 436.0000 1.0000
40.4600 409.0000 1.0000
40.4700 418.0000 1.0000
40.4800 441.0000 1.0000
40.4900 440.0000 1.0000
40.5000 395.0000 1.0000
40.5100 399.0000 1.0000
40.5200 457.0000 1.0000
40.5300 445.0000 1.0000
40.5400 407.0000 1.0000
40.5500 415.0000 1.0000
40.5600 429.0000 1.0000
40.5700 487.0000 1.0000
40.5800 452.0000 1.0000
40.5900 418.0000 1.0000
40.6000 475.0000 1.0000
40.6100 443.0000 1.0000
40.6200 448.0000 1.0000
40.6300 426.0000 1.0000
40.6400 443.0000 1.0000
40.6500 442.0000 1.0000
40.6600 448.0000 1.0000
40.6700 449.0000 1.0000
40.6800 419.0000 1.0000
40.6900 436.0000 1.0000
40.7000 445.0000 1.0000
40.7100 463.0000 1.0000
40.7200 483.0000 1.0000
40.7300 460.0000 1.0000
40.7400 449.0000 1.0000
40.7500 480.0000 1.0000
40.7600 458.0000 1.0000
40.7700 514.0000 1.0000
40.7800 502.0000 1.0000
40.7900 486.0000 1.0000
40.8000 489.0000 1.0000
40.8100 477.0000 1.0000
40.8200 439.0000 1.0000
40.8300 480.0000 1.0000
40.8400 478.0000 1.0000
40.8500 456.0000 1.0000
40.8600 467.0000 1.0000
40.8700 482.0000 1.0000
40.8800 462.0000 1.0000
40.8900 471.0000 1.0000
40.9000 454.0000 1.0000
40.9100 471.0000 1.0000
40.9200 460.0000 1.0000
40.9300 438.0000 1.0000
40.9400 410.0000 1.0000
40.9500 444.0000 1.0000
40.9600 433.0000 1.0000
40.9700 467.0000 1.0000
40.9800 435.0000 1.0000
40.9900 466.0000 1.0000
41.0000 449.0000 1.0000
41.0100 429.0000 1.0000
41.0200 443.0000 1.0000
41.0300 415.0000 1.0000
41.0400 430.0000 1.0000
41.0500 449.0000 1.0000
41.0600 438.0000 1.0000
41.0700 391.0000 1.0000
41.0800 433.0000 1.0000
41.0900 440.0000 1.0000
41.1000 413.0000 1.0000
41.1100 437.0000 1.0000
41.1200 437.0000 1.0000
41.1300 438.0000 1.0000
41.1400 416.0000 1.0000
41.1500 409.0000 1.0000
41.1600 461.0000 1.0000
41.1700 416.0000 1.0000
41.1800 404.0000 1.0000
41.1900 439.0000 1.0000
41.2000 432.0000 1.0000
41.2100 431.0000 1.0000
41.2200 414.0000 1.0000
41.2300 437.0000 1.0000
41.2400 445.0000 1.0000
41.2500 432.0000 1.0000
41.2600 386.0000 1.0000
41.2700 401.0000 1.0000
41.2800 399.0000 1.0000
41.2900 426.0000 1.0000
41.3000 418.0000 1.0000
41.3100 424.0000 1.0000
41.3200 428.0000 1.0000
41.3300 398.0000 1.0000
41.3400 421.0000 1.0000
41.3500 401.0000 1.0000
41.3600 407.0000 1.0000
41.3700 407.0000 1.0000
41.3800 391.0000 1.0000
41.3900 415.0000 1.0000
41.4000 408.0000 1.0000
41.4100 408.0000 1.0000
41.4200 420.0000 1.0000
41.4300 401.0000 1.0000
41.4400 408.0000 1.0000
41.4500 417.0000 1.0000
41.4600 393.0000 1.0000
41.4700 423.0000 1.0000
41.4800 411.0000 1.0000
41.4900 412.0000 1.0000
41.5000 436.0000 1.0000
41.5100 404.0000 1.0000
41.5200 414.0000 1.0000
41.5300 407.0000 1.0000
41.5400 448.0000 1.0000
41.5500 416.0000 1.0000
41.5600 403.0000 1.0000
41.5700 422.0000 1.0000
41.5800 430.0000 1.0000
41.5900 432.0000 1.0000
41.6000 429.0000 1.0000
41.6100 396.0000 1.0000
41.6200 435.0000 1.0000
41.6300 446.0000 1.0000
41.6400 436.0000 1.0000
41.6500 404.0000 1.0000
41.6600 398.0000 1.0000
41.6700 436.0000 1.0000
41.6800 409.0000 1.0000
41.6900 417.0000 1.0000
41.7000 423.0000 1.0000
41.7100 434.0000 1.0000
41.7200 439.0000 1.0000
41.7300 439.0000 1.0000
41.7400 435.0000 1.0000
41.7500 420.0000 1.0000
41.7600 407.0000 1.0000
41.7700 382.0000 1.0000
41.7800 375.0000 1.0000
41.7900 415.0000 1.0000
41.8000 414.0000 1.0000
41.8100 416.0000 1.0000
41.8200 415.0000 1.0000
41.8300 407.0000 1.0000
41.8400 439.0000 1.0000
41.8500 445.0000 1.0000
41.8600 425.0000 1.0000
41.8700 417.0000 1.0000
41.8800 423.0000 1.0000
41.8900 457.0000 1.0000
41.9000 436.0000 1.0000
41.9100 408.0000 1.0000
41.9200 409.0000 1.0000
41.9300 415.0000 1.0000
41.9400 421.0000 1.0000
41.9500 419.0000 1.0000
41.9600 390.0000 1.0000
41.9700 410.0000 1.0000
41.9800 423.0000 1.0000
41.9900 425.0000 1.0000
42.0000 420.0000 1.0000
42.0100 457.0000 1.0000
42.0200 407.0000 1.0000
42.0300 421.0000 1.0000
42.0400 420.0000 1.0000
42.0500 418.0000 1.0000
42.0600 406.0000 1.0000
42.0700 420.0000 1.0000
42.0800 383.0000 1.0000
42.0900 425.0000 1.0000
42.1000 436.0000 1.0000
42.1100 422.0000 1.0000
42.1200 434.0000 1.0000
42.1300 455.0000 1.0000
42.1400 413.0000 1.0000
42.1500 411.0000 1.0000
42.1600 436.0000 1.0000
42.1700 416.0000 1.0000
42.1800 433.0000 1.0000
42.1900 422.0000 1.0000
42.2000 430.0000 1.0000
42.2100 423.0000 1.0000
42.2200 414.0000 1.0000
42.2300 418.0000 1.0000
42.2400 424.0000 1.0000
42.2500 431.0000 1.0000
42.2600 441.0000 1.0000
42.2700 403.0000 1.0000
42.2800 453.0000 1.0000
42.2900 418.0000 1.0000
42.3000 437.0000 1.0000
42.3100 439.0000 1.0000
42.3200 446.0000 1.0000
42.3300 400.0000 1.0000
42.3400 424.0000 1.0000
42.3500 485.0000 1.0000
42.3600 453.0000 1.0000
42.3700 460.0000 1.0000
42.3800 435.0000 1.0000
42.3900 422.0000 1.0000
42.4000 440.0000 1.0000
42.4100 466.0000 1.0000
42.4200 424.0000 1.0000
42.4300 458.0000 1.0000
42.4400 468.0000 1.0000
42.4500 463.0000 1.0000
42.4600 427.0000 1.0000
42.4700 413.0000 1.0000
42.4800 433.0000 1.0000
42.4900 441.0000 1.0000
42.5000 412.0000 1.0000
42.5100 470.0000 1.0000
42.5200 394.0000 1.0000
42.5300 444.0000 1.0000
42.5400 469.0000 1.0000
42.5500 430.0000 1.0000
42.5600 434.0000 1.0000
42.5700 403.0000 1.0000
42.5800 423.0000 1.0000
42.5900 401.0000 1.0000
42.6000 399.0000 1.0000
42.6100 408.0000 1.0000
42.6200 421.0000 1.0000
42.6300 412.0000 1.0000
42.6400 412.0000 1.0000
42.6500 441.0000 1.0000
42.6600 431.0000 1.0000
42.6700 402.0000 1.0000
42.6800 378.0000 1.0000
42.6900 421.0000 1.0000
42.7000 407.0000 1.0000
42.7100 417.0000 1.0000
42.7200 393.0000 1.0000
42.7300 437.0000 1.0000
42.7400 424.0000 1.0000
42.7500 428.0000 1.0000
42.7600 413.0000 1.0000
42.7700 387.0000 1.0000
42.7800 401.0000 1.0000
42.7900 419.0000 1.0000
42.8000 430.0000 1.0000
42.8100 411.0000 1.0000
42.8200 423.0000 1.0000
42.8300 407.0000 1.0000
42.8400 399.0000 1.0000
42.8500 389.0000 1.0000
42.8600 387.0000 1.0000
42.8700 391.0000 1.0000
42.8800 421.0000 1.0000
42.8900 397.0000 1.0000
42.9000 400.0000 1.0000
42.9100 453.0000 1.0000
42.9200 401.0000 1.0000
42.9300 425.0000 1.0000
42.9400 381.0000 1.0000
42.9500 394.0000 1.0000
42.9600 411.0000 1.0000
42.9700 379.0000 1.0000
42.9800 402.0000 1.0000
42.9900 420.0000 1.0000
43.0000 421.0000 1.0000
43.0100 406.0000 1.0000
43.0200 415.0000 1.0000
43.0300 403.0000 1.0000
43.0400 389.0000 1.0000
43.0500 404.0000 1.0000
43.0600 409.0000 1.0000
43.0700 425.0000 1.0000
43.0800 387.0000 1.0000
43.0900 425.0000 1.0000
43.1000 433.0000 1.0000
43.1100 406.0000 1.0000
43.1200 413.0000 1.0000
43.1300 401.0000 1.0000
43.1400 386.0000 1.0000
43.1500 415.0000 1.0000
43.1600 407.0000 1.0000
43.1700 415.0000 1.0000
43.1800 399.0000 1.0000
43.1900 404.0000 1.0000
43.2000 414.0000 1.0000
43.2100 393.0000 1.0000
43.2200 413.0000 1.0000
43.2300 398.0000 1.0000
43.2400 389.0000 1.0000
43.2500 388.0000 1.0000
43.2600 402.0000 1.0000
43.2700 413.0000 1.0000
43.2800 408.0000 1.0000
43.2900 427.0000 1.0000
43.3000 433.0000 1.0000
43.3100 408.0000 1.0000
43.3200 424.0000 1.0000
43.3300 408.0000 1.0000
43.3400 390.0000 1.0000
43.3500 418.0000 1.0000
43.3600 396.0000 1.0000
43.3700 419.0000 1.0000
43.3800 397.0000 1.0000
43.3900 390.0000 1.0000
43.4000 393.0000 1.0000
43.4100 409.0000 1.0000
43.4200 395.0000 1.0000
43.4300 461.0000 1.0000
43.4400 440.0000 1.0000
43.4500 423.0000 1.0000
43.4600 445.0000 1.0000
43.4700 452.0000 1.0000
43.4800 432.0000 1.0000
43.4900 458.0000 1.0000
43.5000 411.0000 1.0000
43.5100 413.0000 1.0000
43.5200 411.0000 1.0000
43.5300 437.0000 1.0000
43.5400 381.0000 1.0000
43.5500 414.0000 1.0000
43.5600 423.0000 1.0000
43.5700 460.0000 1.0000
43.5800 428.0000 1.0000
43.5900 376.0000 1.0000
43.6000 408.0000 1.0000
43.6100 430.0000 1.0000
43.6200 381.0000 1.0000
43.6300 420.0000 1.0000
43.6400 427.0000 1.0000
43.6500 402.0000 1.0000
43.6600 389.0000 1.0000
43.6700 465.0000 1.0000
43.6800 430.0000 1.0000
43.6900 383.0000 1.0000
43.7000 425.0000 1.0000
43.7100 417.0000 1.0000
43.7200 399.0000 1.0000
43.7300 399.0000 1.0000
43.7400 389.0000 1.0000
43.7500 390.0000 1.0000
43.7600 433.0000 1.0000
43.7700 423.0000 1.0000
43.7800 410.0000 1.0000
43.7900 418.0000 1.0000
43.8000 414.0000 1.0000
43.8100 397.0000 1.0000
43.8200 394.0000 1.0000
43.8300 408.0000 1.0000
43.8400 373.0000 1.0000
43.8500 384.0000 1.0000
43.8600 373.0000 1.0000
43.8700 374.0000 1.0000
43.8800 381.0000 1.0000
43.8900 393.0000 1.0000
43.9000 398.0000 1.0000
43.9100 369.0000 1.0000
43.9200 388.0000 1.0000
43.9300 382.0000 1.0000
43.9400 431.0000 1.0000
43.9500 387.0000 1.0000
43.9600 406.0000 1.0000
43.9700 395.0000 1.0000
43.9800 390.0000 1.0000
43.9900 393.0000 1.0000
44.0000 397.0000 1.0000
44.0100 420.0000 1.0000
44.0200 377.0000 1.0000
44.0300 364.0000 1.0000
44.0400 386.0000 1.0000
44.0500 377.0000 1.0000
44.0600 389.0000 1.0000
44.0700 383.0000 1.0000
44.0800 397.0000 1.0000
44.0900 383.0000 1.0000
44.1000 388.0000 1.0000
44.1100 390.0000 1.0000
44.1200 383.0000 1.0000
44.1300 399.0000 1.0000
44.1400 389.0000 1.0000
44.1500 416.0000 1.0000
44.1600 409.0000 1.0000
44.1700 378.0000 1.0000
44.1800 378.0000 1.0000
44.1900 414.0000 1.0000
44.2000 424.0000 1.0000
44.2100 403.0000 1.0000
44.2200 398.0000 1.0000
44.2300 367.0000 1.0000
44.2400 410.0000 1.0000
44.2500 385.0000 1.0000
44.2600 361.0000 1.0000
44.2700 394.0000 1.0000
44.2800 391.0000 1.0000
44.2900 412.0000 1.0000
44.3000 407.0000 1.0000
44.3100 405.0000 1.0000
44.3200 392.0000 1.0000
44.3300 386.0000 1.0000
44.3400 376.0000 1.0000
44.3500 411.0000 1.0000
44.3600 384.0000 1.0000
44.3700 393.0000 1.0000
44.3800 405.0000 1.0000
44.3900 386.0000 1.0000
44.4000 390.0000 1.0000
44.4100 359.0000 1.0000
44.4200 399.0000 1.0000
44.4300 388.0000 1.0000
44.4400 391.0000 1.0000
44.4500 391.0000 1.0000
44.4600 400.0000 1.0000
44.4700 360.0000 1.0000
44.4800 432.0000 1.0000
44.4900 369.0000 1.0000
44.5000 389.0000 1.0000
44.5100 402.0000 1.0000
44.5200 395.0000 1.0000
44.5300 403.0000 1.0000
44.5400 415.0000 1.0000
44.5500 376.0000 1.0000
44.5600 399.0000 1.0000
44.5700 403.0000 1.0000
44.5800 386.0000 1.0000
44.5900 374.0000 1.0000
44.6000 415.0000 1.0000
44.6100 379.0000 1.0000
44.6200 363.0000 1.0000
44.6300 367.0000 1.0000
44.6400 410.0000 1.0000
44.6500 389.0000 1.0000
44.6600 398.0000 1.0000
44.6700 386.0000 1.0000
44.6800 391.0000 1.0000
44.6900 405.0000 1.0000
44.7000 392.0000 1.0000
44.7100 384.0000 1.0000
44.7200 399.0000 1.0000
44.7300 392.0000 1.0000
44.7400 400.0000 1.0000
44.7500 390.0000 1.0000
44.7600 385.0000 1.0000
44.7700 378.0000 1.0000
44.7800 392.0000 1.0000
44.7900 372.0000 1.0000
44.8000 385.0000 1.0000
44.8100 375.0000 1.0000
44.8200 384.0000 1.0000
44.8300 393.0000 1.0000
44.8400 398.0000 1.0000
44.8500 404.0000 1.0000
44.8600 394.0000 1.0000
44.8700 388.0000 1.0000
44.8800 405.0000 1.0000
44.8900 405.0000 1.0000
44.9000 373.0000 1.0000
44.9100 360.0000 1.0000
44.9200 409.0000 1.0000
44.9300 381.0000 1.0000
44.9400 357.0000 1.0000
44.9500 386.0000 1.0000
44.9600 381.0000 1.0000
44.9700 347.0000 1.0000
44.9800 391.0000 1.0000
44.9900 378.0000 1.0000
45.0000 357.0000 1.0000
45.0100 388.0000 1.0000
45.0200 382.0000 1.0000
45.0300 408.0000 1.0000
45.0400 390.0000 1.0000
45.0500 391.0000 1.0000
45.0600 392.0000 1.0000
45.0700 387.0000 1.0000
45.0800 383.0000 1.0000
45.0900 371.0000 1.0000
45.1000 379.0000 1.0000
45.1100 379.0000 1.0000
45.1200 383.0000 1.0000
45.1300 400.0000 1.0000
45.1400 417.0000 1.0000
45.1500 399.0000 1.0000
45.1600 418.0000 1.0000
45.1700 401.0000 1.0000
45.1800 398.0000 1.0000
45.1900 400.0000 1.0000
45.2000 398.0000 1.0000
45.2100 408.0000 1.0000
45.2200 386.0000 1.0000
45.2300 360.0000 1.0000
45.2400 383.0000 1.0000
45.2500 358.0000 1.0000
45.2600 417.0000 1.0000
45.2700 385.0000 1.0000
45.2800 393.0000 1.0000
45.2900 378.0000 1.0000
45.3000 402.0000 1.0000
45.3100 396.0000 1.0000
45.3200 382.0000 1.0000
45.3300 392.0000 1.0000
45.3400 407.0000 1.0000
45.3500 351.0000 1.0000
45.3600 382.0000 1.0000
45.3700 380.0000 1.0000
45.3800 379.0000 1.0000
45.3900 357.0000 1.0000
45.4000 349.0000 1.0000
45.4100 371.0000 1.0000
45.4200 386.0000 1.0000
45.4300 376.0000 1.0000
45.4400 414.0000 1.0000
45.4500 412.0000 1.0000
45.4600 394.0000 1.0000
45.4700 406.0000 1.0000
45.4800 376.0000 1.0000
45.4900 396.0000 1.0000
45.5000 395.0000 1.0000
45.5100 414.0000 1.0000
45.5200 396.0000 1.0000
45.5300 376.0000 1.0000
45.5400 392.0000 1.0000
45.5500 394.0000 1.0000
45.5600 374.0000 1.0000
45.5700 376.0000 1.0000
45.5800 361.0000 1.0000
45.5900 381.0000 1.0000
45.6000 398.0000 1.0000
45.6100 369.0000 1.0000
45.6200 394.0000 1.0000
45.6300 368.0000 1.0000
45.6400 381.0000 1.0000
45.6500 394.0000 1.0000
45.6600 395.0000 1.0000
45.6700 387.0000 1.0000
45.6800 378.0000 1.0000
45.6900 407.0000 1.0000
45.7000 410.0000 1.0000
45.7100 355.0000 1.0000
45.7200 356.0000 1.0000
45.7300 354.0000 1.0000
45.7400 374.0000 1.0000
45.7500 372.0000 1.0000
45.7600 403.0000 1.0000
45.7700 378.0000 1.0000
45.7800 360.0000 1.0000
45.7900 414.0000 1.0000
45.8000 398.0000 1.0000
45.8100 396.0000 1.0000
45.8200 402.0000 1.0000
45.8300 353.0000 1.0000
45.8400 371.0000 1.0000
45.8500 415.0000 1.0000
45.8600 380.0000 1.0000
45.8700 391.0000 1.0000
45.8800 354.0000 1.0000
45.8900 382.0000 1.0000
45.9000 374.0000 1.0000
45.9100 362.0000 1.0000
45.9200 410.0000 1.0000
45.9300 373.0000 1.0000
45.9400 369.0000 1.0000
45.9500 372.0000 1.0000
45.9600 384.0000 1.0000
45.9700 375.0000 1.0000
45.9800 389.0000 1.0000
45.9900 375.0000 1.0000
46.0000 365.0000 1.0000
46.0100 379.0000 1.0000
46.0200 354.0000 1.0000
46.0300 389.0000 1.0000
46.0400 363.0000 1.0000
46.0500 331.0000 1.0000
46.0600 389.0000 1.0000
46.0700 403.0000 1.0000
46.0800 354.0000 1.0000
46.0900 387.0000 1.0000
46.1000 385.0000 1.0000
46.1100 380.0000 1.0000
46.1200 374.0000 1.0000
46.1300 383.0000 1.0000
46.1400 402.0000 1.0000
46.1500 445.0000 1.0000
46.1600 402.0000 1.0000
46.1700 430.0000 1.0000
46.1800 380.0000 1.0000
46.1900 379.0000 1.0000
46.2000 404.0000 1.0000
46.2100 362.0000 1.0000
46.2200 399.0000 1.0000
46.2300 428.0000 1.0000
46.2400 398.0000 1.0000
46.2500 356.0000 1.0000
46.2600 407.0000 1.0000
46.2700 389.0000 1.0000
46.2800 386.0000 1.0000
46.2900 370.0000 1.0000
46.3000 403.0000 1.0000
46.3100 364.0000 1.0000
46.3200 392.0000 1.0000
46.3300 376.0000 1.0000
46.3400 381.0000 1.0000
46.3500 388.0000 1.0000
46.3600 389.0000 1.0000
46.3700 399.0000 1.0000
46.3800 369.0000 1.0000
46.3900 356.0000 1.0000
46.4000 384.0000 1.0000
46.4100 354.0000 1.0000
46.4200 356.0000 1.0000
46.4300 375.0000 1.0000
46.4400 383.0000 1.0000
46.4500 409.0000 1.0000
46.4600 386.0000 1.0000
46.4700 387.0000 1.0000
46.4800 393.0000 1.0000
46.4900 383.0000 1.0000
46.5000 383.0000 1.0000
46.5100 350.0000 1.0000
46.5200 369.0000 1.0000
46.5300 370.0000 1.0000
46.5400 382.0000 1.0000
46.5500 366.0000 1.0000
46.5600 362.0000 1.0000
46.5700 372.0000 1.0000
46.5800 388.0000 1.0000
46.5900 367.0000 1.0000
46.6000 360.0000 1.0000
46.6100 379.0000 1.0000
46.6200 382.0000 1.0000
46.6300 375.0000 1.0000
46.6400 369.0000 1.0000
46.6500 361.0000 1.0000
46.6600 392.0000 1.0000
46.6700 365.0000 1.0000
46.6800 385.0000 1.0000
46.6900 381.0000 1.0000
46.7000 365.0000 1.0000
46.7100 367.0000 1.0000
46.7200 399.0000 1.0000
46.7300 382.0000 1.0000
46.7400 359.0000 1.0000
46.7500 370.0000 1.0000
46.7600 361.0000 1.0000
46.7700 351.0000 1.0000
46.7800 345.0000 1.0000
46.7900 370.0000 1.0000
46.8000 362.0000 1.0000
46.8100 364.0000 1.0000
46.8200 371.0000 1.0000
46.8300 380.0000 1.0000
46.8400 369.0000 1.0000
46.8500 365.0000 1.0000
46.8600 343.0000 1.0000
46.8700 356.0000 1.0000
46.8800 377.0000 1.0000
46.8900 380.0000 1.0000
46.9000 356.0000 1.0000
46.9100 371.0000 1.0000
46.9200 387.0000 1.0000
46.9300 367.0000 1.0000
46.9400 361.0000 1.0000
46.9500 361.0000 1.0000
46.9600 371.0000 1.0000
46.9700 372.0000 1.0000
46.9800 360.0000 1.0000
46.9900 361.0000 1.0000
47.0000 365.0000 1.0000
47.0100 388.0000 1.0000
47.0200 366.0000 1.0000
47.0300 383.0000 1.0000
47.0400 363.0000 1.0000
47.0500 373.0000 1.0000
47.0600 362.0000 1.0000
47.0700 384.0000 1.0000
47.0800 382.0000 1.0000
47.0900 382.0000 1.0000
47.1000 389.0000 1.0000
47.1100 370.0000 1.0000
47.1200 364.0000 1.0000
47.1300 372.0000 1.0000
47.1400 364.0000 1.0000
47.1500 376.0000 1.0000
47.1600 372.0000 1.0000
47.1700 340.0000 1.0000
47.1800 389.0000 1.0000
47.1900 376.0000 1.0000
47.2000 370.0000 1.0000
47.2100 350.0000 1.0000
47.2200 355.0000 1.0000
47.2300 371.0000 1.0000
47.2400 375.0000 1.0000
47.2500 359.0000 1.0000
47.2600 392.0000 1.0000
47.2700 351.0000 1.0000
47.2800 362.0000 1.0000
47.2900 354.0000 1.0000
47.3000 346.0000 1.0000
47.3100 365.0000 1.0000
47.3200 393.0000 1.0000
47.3300 354.0000 1.0000
47.3400 374.0000 1.0000
47.3500 356.0000 1.0000
47.3600 357.0000 1.0000
47.3700 379.0000 1.0000
47.3800 368.0000 1.0000
47.3900 341.0000 1.0000
47.4000 365.0000 1.0000
47.4100 361.0000 1.0000
47.4200 388.0000 1.0000
47.4300 367.0000 1.0000
47.4400 373.0000 1.0000
47.4500 347.0000 1.0000
47.4600 352.0000 1.0000
47.4700 381.0000 1.0000
47.4800 369.0000 1.0000
47.4900 376.0000 1.0000
47.5000 377.0000 1.0000
47.5100 384.0000 1.0000
47.5200 370.0000 1.0000
47.5300 375.0000 1.0000
47.5400 384.0000 1.0000
47.5500 364.0000 1.0000
47.5600 366.0000 1.0000
47.5700 384.0000 1.0000
47.5800 366.0000 1.0000
47.5900 358.0000 1.0000
47.6000 355.0000 1.0000
47.6100 382.0000 1.0000
47.6200 363.0000 1.0000
47.6300 357.0000 1.0000
47.6400 387.0000 1.0000
47.6500 350.0000 1.0000
47.6600 369.0000 1.0000
47.6700 346.0000 1.0000
47.6800 341.0000 1.0000
47.6900 352.0000 1.0000
47.7000 375.0000 1.0000
47.7100 343.0000 1.0000
47.7200 337.0000 1.0000
47.7300 360.0000 1.0000
47.7400 341.0000 1.0000
47.7500 329.0000 1.0000
47.7600 358.0000 1.0000
47.7700 359.0000 1.0000
47.7800 359.0000 1.0000
47.7900 339.0000 1.0000
47.8000 377.0000 1.0000
47.8100 350.0000 1.0000
47.8200 339.0000 1.0000
47.8300 360.0000 1.0000
47.8400 346.0000 1.0000
47.8500 355.0000 1.0000
47.8600 350.0000 1.0000
47.8700 385.0000 1.0000
47.8800 351.0000 1.0000
47.8900 342.0000 1.0000
47.9000 366.0000 1.0000
47.9100 369.0000 1.0000
47.9200 372.0000 1.0000
47.9300 370.0000 1.0000
47.9400 381.0000 1.0000
47.9500 374.0000 1.0000
47.9600 367.0000 1.0000
47.9700 364.0000 1.0000
47.9800 349.0000 1.0000
47.9900 335.0000 1.0000
48.0000 349.0000 1.0000
48.0100 381.0000 1.0000
48.0200 377.0000 1.0000
48.0300 377.0000 1.0000
48.0400 365.0000 1.0000
48.0500 377.0000 1.0000
48.0600 355.0000 1.0000
48.0700 380.0000 1.0000
48.0800 321.0000 1.0000
48.0900 354.0000 1.0000
48.1000 348.0000 1.0000
48.1100 336.0000 1.0000
48.1200 349.0000 1.0000
48.1300 336.0000 1.0000
48.1400 346.0000 1.0000
48.1500 366.0000 1.0000
48.1600 358.0000 1.0000
48.1700 350.0000 1.0000
48.1800 368.0000 1.0000
48.1900 371.0000 1.0000
48.2000 340.0000 1.0000
48.2100 358.0000 1.0000
48.2200 339.0000 1.0000
48.2300 357.0000 1.0000
48.2400 372.0000 1.0000
48.2500 358.0000 1.0000
48.2600 367.0000 1.0000
48.2700 368.0000 1.0000
48.2800 349.0000 1.0000
48.2900 372.0000 1.0000
48.3000 349.0000 1.0000
48.3100 348.0000 1.0000
48.3200 351.0000 1.0000
48.3300 350.0000 1.0000
48.3400 356.0000 1.0000
48.3500 366.0000 1.0000
48.3600 332.0000 1.0000
48.3700 308.0000 1.0000
48.3800 360.0000 1.0000
48.3900 379.0000 1.0000
48.4000 365.0000 1.0000
48.4100 326.0000 1.0000
48.4200 379.0000 1.0000
48.4300 351.0000 1.0000
48.4400 351.0000 1.0000
48.4500 338.0000 1.0000
48.4600 323.0000 1.0000
48.4700 344.0000 1.0000
48.4800 347.0000 1.0000
48.4900 371.0000 1.0000
48.5000 351.0000 1.0000
48.5100 356.0000 1.0000
48.5200 366.0000 1.0000
48.5300 327.0000 1.0000
48.5400 356.0000 1.0000
48.5500 346.0000 1.0000
48.5600 372.0000 1.0000
48.5700 388.0000 1.0000
48.5800 342.0000 1.0000
48.5900 347.0000 1.0000
48.6000 393.0000 1.0000
48.6100 344.0000 1.0000
48.6200 366.0000 1.0000
48.6300 344.0000 1.0000
48.6400 373.0000 1.0000
48.6500 326.0000 1.0000
48.6600 319.0000 1.0000
48.6700 349.0000 1.0000
48.6800 359.0000 1.0000
48.6900 372.0000 1.0000
48.7000 362.0000 1.0000
48.7100 367.0000 1.0000
48.7200 369.0000 1.0000
48.7300 383.0000 1.0000
48.7400 355.0000 1.0000
48.7500 350.0000 1.0000
48.7600 366.0000 1.0000
48.7700 370.0000 1.0000
48.7800 355.0000 1.0000
48.7900 374.0000 1.0000
48.8000 378.0000 1.0000
48.8100 358.0000 1.0000
48.8200 341.0000 1.0000
48.8300 356.0000 1.0000
48.8400 365.0000 1.0000
48.8500 350.0000 1.0000
48.8600 349.0000 1.0000
48.8700 371.0000 1.0000
48.8800 366.0000 1.0000
48.8900 387.0000 1.0000
48.9000 344.0000 1.0000
48.9100 352.0000 1.0000
48.9200 396.0000 1.0000
48.9300 348.0000 1.0000
48.9400 321.0000 1.0000
48.9500 376.0000 1.0000
48.9600 364.0000 1.0000
48.9700 347.0000 1.0000
48.9800 374.0000 1.0000
48.9900 334.0000 1.0000
49.0000 344.0000 1.0000
49.0100 350.0000 1.0000
49.0200 341.0000 1.0000
49.0300 342.0000 1.0000
49.0400 352.0000 1.0000
49.0500 362.0000 1.0000
49.0600 350.0000 1.0000
49.0700 354.0000 1.0000
49.0800 341.0000 1.0000
49.0900 338.0000 1.0000
49.1000 349.0000 1.0000
49.1100 357.0000 1.0000
49.1200 364.0000 1.0000
49.1300 377.0000 1.0000
49.1400 353.0000 1.0000
49.1500 341.0000 1.0000
49.1600 358.0000 1.0000
49.1700 367.0000 1.0000
49.1800 358.0000 1.0000
49.1900 365.0000 1.0000
49.2000 380.0000 1.0000
49.2100 336.0000 1.0000
49.2200 337.0000 1.0000
49.2300 327.0000 1.0000
49.2400 378.0000 1.0000
49.2500 364.0000 1.0000
49.2600 337.0000 1.0000
49.2700 388.0000 1.0000
49.2800 418.0000 1.0000
49.2900 398.0000 1.0000
49.3000 399.0000 1.0000
49.3100 385.0000 1.0000
49.3200 416.0000 1.0000
49.3300 385.0000 1.0000
49.3400 378.0000 1.0000
49.3500 407.0000 1.0000
49.3600 395.0000 1.0000
49.3700 457.0000 1.0000
49.3800 408.0000 1.0000
49.3900 422.0000 1.0000
49.4000 435.0000 1.0000
49.4100 418.0000 1.0000
49.4200 411.0000 1.0000
49.4300 396.0000 1.0000
49.4400 448.0000 1.0000
49.4500 447.0000 1.0000
49.4600 422.0000 1.0000
49.4700 430.0000 1.0000
49.4800 426.0000 1.0000
49.4900 433.0000 1.0000
49.5000 398.0000 1.0000
49.5100 422.0000 1.0000
49.5200 446.0000 1.0000
49.5300 409.0000 1.0000
49.5400 415.0000 1.0000
49.5500 405.0000 1.0000
49.5600 392.0000 1.0000
49.5700 360.0000 1.0000
49.5800 401.0000 1.0000
49.5900 391.0000 1.0000
49.6000 402.0000 1.0000
49.6100 388.0000 1.0000
49.6200 373.0000 1.0000
49.6300 368.0000 1.0000
49.6400 371.0000 1.0000
49.6500 350.0000 1.0000
49.6600 366.0000 1.0000
49.6700 368.0000 1.0000
49.6800 344.0000 1.0000
49.6900 373.0000 1.0000
49.7000 344.0000 1.0000
49.7100 337.0000 1.0000
49.7200 400.0000 1.0000
49.7300 368.0000 1.0000
49.7400 360.0000 1.0000
49.7500 387.0000 1.0000
49.7600 324.0000 1.0000
49.7700 365.0000 1.0000
49.7800 342.0000 1.0000
49.7900 331.0000 1.0000
49.8000 355.0000 1.0000
49.8100 374.0000 1.0000
49.8200 338.0000 1.0000
49.8300 369.0000 1.0000
49.8400 361.0000 1.0000
49.8500 330.0000 1.0000
49.8600 373.0000 1.0000
49.8700 366.0000 1.0000
49.8800 337.0000 1.0000
49.8900 346.0000 1.0000
49.9000 366.0000 1.0000
49.9100 372.0000 1.0000
49.9200 386.0000 1.0000
49.9300 358.0000 1.0000
49.9400 355.0000 1.0000
49.9500 363.0000 1.0000
49.9600 370.0000 1.0000
49.9700 352.0000 1.0000
49.9800 392.0000 1.0000
49.9900 348.0000 1.0000
50.0000 345.0000 1.0000
50.0100 361.0000 1.0000
50.0200 369.0000 1.0000
50.0300 359.0000 1.0000
50.0400 355.0000 1.0000
50.0500 350.0000 1.0000
50.0600 374.0000 1.0000
50.0700 364.0000 1.0000
50.0800 332.0000 1.0000
50.0900 356.0000 1.0000
50.1000 356.0000 1.0000
50.1100 384.0000 1.0000
50.1200 365.0000 1.0000
50.1300 374.0000 1.0000
50.1400 361.0000 1.0000
50.1500 346.0000 1.0000
50.1600 339.0000 1.0000
50.1700 324.0000 1.0000
50.1800 373.0000 1.0000
50.1900 343.0000 1.0000
50.2000 373.0000 1.0000
50.2100 359.0000 1.0000
50.2200 371.0000 1.0000
50.2300 355.0000 1.0000
50.2400 342.0000 1.0000
50.2500 373.0000 1.0000
50.2600 367.0000 1.0000
50.2700 349.0000 1.0000
50.2800 377.0000 1.0000
50.2900 363.0000 1.0000
50.3000 387.0000 1.0000
50.3100 360.0000 1.0000
50.3200 344.0000 1.0000
50.3300 340.0000 1.0000
50.3400 347.0000 1.0000
50.3500 348.0000 1.0000
50.3600 353.0000 1.0000
50.3700 318.0000 1.0000
50.3800 349.0000 1.0000
50.3900 356.0000 1.0000
50.4000 356.0000 1.0000
50.4100 349.0000 1.0000
50.4200 345.0000 1.0000
50.4300 383.0000 1.0000
50.4400 333.0000 1.0000
50.4500 313.0000 1.0000
50.4600 343.0000 1.0000
50.4700 366.0000 1.0000
50.4800 345.0000 1.0000
50.4900 370.0000 1.0000
50.5000 352.0000 1.0000
50.5100 391.0000 1.0000
50.5200 361.0000 1.0000
50.5300 356.0000 1.0000
50.5400 376.0000 1.0000
50.5500 357.0000 1.0000
50.5600 344.0000 1.0000
50.5700 372.0000 1.0000
50.5800 339.0000 1.0000
50.5900 344.0000 1.0000
50.6000 340.0000 1.0000
50.6100 350.0000 1.0000
50.6200 326.0000 1.0000
50.6300 375.0000 1.0000
50.6400 352.0000 1.0000
50.6500 358.0000 1.0000
50.6600 358.0000 1.0000
50.6700 365.0000 1.0000
50.6800 392.0000 1.0000
50.6900 393.0000 1.0000
50.7000 368.0000 1.0000
50.7100 324.0000 1.0000
50.7200 360.0000 1.0000
50.7300 361.0000 1.0000
50.7400 378.0000 1.0000
50.7500 366.0000 1.0000
50.7600 338.0000 1.0000
50.7700 356.0000 1.0000
50.7800 372.0000 1.0000
50.7900 349.0000 1.0000
50.8000 354.0000 1.0000
50.8100 365.0000 1.0000
50.8200 370.0000 1.0000
50.8300 369.0000 1.0000
50.8400 363.0000 1.0000
50.8500 362.0000 1.0000
50.8600 355.0000 1.0000
50.8700 356.0000 1.0000
50.8800 374.0000 1.0000
50.8900 358.0000 1.0000
50.9000 366.0000 1.0000
50.9100 377.0000 1.0000
50.9200 380.0000 1.0000
50.9300 385.0000 1.0000
50.9400 411.0000 1.0000
50.9500 387.0000 1.0000
50.9600 353.0000 1.0000
50.9700 359.0000 1.0000
50.9800 369.0000 1.0000
50.9900 400.0000 1.0000
51.0000 386.0000 1.0000
51.0100 384.0000 1.0000
51.0200 397.0000 1.0000
51.0300 380.0000 1.0000
51.0400 390.0000 1.0000
51.0500 407.0000 1.0000
51.0600 374.0000 1.0000
51.0700 366.0000 1.0000
51.0800 379.0000 1.0000
51.0900 419.0000 1.0000
51.1000 388.0000 1.0000
51.1100 411.0000 1.0000
51.1200 440.0000 1.0000
51.1300 443.0000 1.0000
51.1400 419.0000 1.0000
51.1500 425.0000 1.0000
51.1600 487.0000 1.0000
51.1700 425.0000 1.0000
51.1800 457.0000 1.0000
51.1900 500.0000 1.0000
51.2000 504.0000 1.0000
51.2100 476.0000 1.0000
51.2200 511.0000 1.0000
51.2300 517.0000 1.0000
51.2400 534.0000 1.0000
51.2500 568.0000 1.0000
51.2600 596.0000 1.0000
51.2700 578.0000 1.0000
51.2800 617.0000 1.0000
51.2900 632.0000 1.0000
51.3000 658.0000 1.0000
51.3100 689.0000 1.0000
51.3200 734.0000 1.0000
51.3300 756.0000 1.0000
51.3400 797.0000 1.0000
51.3500 881.0000 1.0000
51.3600 902.0000 1.0000
51.3700 965.0000 1.0000
51.3800 1075.0000 1.0000
51.3900 1169.0000 1.0000
51.4000 1238.0000 1.0000
51.4100 1318.0000 1.0000
51.4200 1387.0000 1.0000
51.4300 1490.0000 1.0000
51.4400 1602.0000 1.0000
51.4500 1764.0000 1.0000
51.4600 1793.0000 1.0000
51.4700 1813.0000 1.0000
51.4800 1898.0000 1.0000
51.4900 1872.0000 1.0000
51.5000 1905.0000 1.0000
51.5100 1922.0000 1.0000
51.5200 1882.0000 1.0000
51.5300 1868.0000 1.0000
51.5400 1868.0000 1.0000
51.5500 1841.0000 1.0000
51.5600 1726.0000 1.0000
51.5700 1662.0000 1.0000
51.5800 1578.0000 1.0000
51.5900 1551.0000 1.0000
51.6000 1563.0000 1.0000
51.6100 1567.0000 1.0000
51.6200 1479.0000 1.0000
51.6300 1427.0000 1.0000
51.6400 1329.0000 1.0000
51.6500 1294.0000 1.0000
51.6600 1279.0000 1.0000
51.6700 1251.0000 1.0000
51.6800 1165.0000 1.0000
51.6900 1038.0000 1.0000
51.7000 1012.0000 1.0000
51.7100 922.0000 1.0000
51.7200 896.0000 1.0000
51.7300 858.0000 1.0000
51.7400 705.0000 1.0000
51.7500 722.0000 1.0000
51.7600 688.0000 1.0000
51.7700 613.0000 1.0000
51.7800 618.0000 1.0000
51.7900 612.0000 1.0000
51.8000 545.0000 1.0000
51.8100 540.0000 1.0000
51.8200 528.0000 1.0000
51.8300 558.0000 1.0000
51.8400 495.0000 1.0000
51.8500 493.0000 1.0000
51.8600 474.0000 1.0000
51.8700 481.0000 1.0000
51.8800 489.0000 1.0000
51.8900 449.0000 1.0000
51.9000 461.0000 1.0000
51.9100 448.0000 1.0000
51.9200 398.0000 1.0000
51.9300 407.0000 1.0000
51.9400 423.0000 1.0000
51.9500 410.0000 1.0000
51.9600 404.0000 1.0000
51.9700 449.0000 1.0000
51.9800 412.0000 1.0000
51.9900 417.0000 1.0000
52.0000 406.0000 1.0000
52.0100 406.0000 1.0000
52.0200 388.0000 1.0000
52.0300 412.0000 1.0000
52.0400 372.0000 1.0000
52.0500 415.0000 1.0000
52.0600 387.0000 1.0000
52.0700 375.0000 1.0000
52.0800 377.0000 1.0000
52.0900 349.0000 1.0000
52.1000 376.0000 1.0000
52.1100 411.0000 1.0000
52.1200 412.0000 1.0000
52.1300 366.0000 1.0000
52.1400 391.0000 1.0000
52.1500 382.0000 1.0000
52.1600 352.0000 1.0000
52.1700 378.0000 1.0000
52.1800 340.0000 1.0000
52.1900 365.0000 1.0000
52.2000 372.0000 1.0000
52.2100 357.0000 1.0000
52.2200 368.0000 1.0000
52.2300 363.0000 1.0000
52.2400 390.0000 1.0000
52.2500 380.0000 1.0000
52.2600 352.0000 1.0000
52.2700 348.0000 1.0000
52.2800 350.0000 1.0000
52.2900 371.0000 1.0000
52.3000 343.0000 1.0000
52.3100 370.0000 1.0000
52.3200 342.0000 1.0000
52.3300 352.0000 1.0000
52.3400 343.0000 1.0000
52.3500 375.0000 1.0000
52.3600 380.0000 1.0000
52.3700 369.0000 1.0000
52.3800 329.0000 1.0000
52.3900 358.0000 1.0000
52.4000 356.0000 1.0000
52.4100 347.0000 1.0000
52.4200 348.0000 1.0000
52.4300 346.0000 1.0000
52.4400 363.0000 1.0000
52.4500 337.0000 1.0000
52.4600 331.0000 1.0000
52.4700 345.0000 1.0000
52.4800 331.0000 1.0000
52.4900 326.0000 1.0000
52.5000 333.0000 1.0000
52.5100 342.0000 1.0000
52.5200 324.0000 1.0000
52.5300 358.0000 1.0000
52.5400 350.0000 1.0000
52.5500 329.0000 1.0000
52.5600 350.0000 1.0000
52.5700 344.0000 1.0000
52.5800 337.0000 1.0000
52.5900 339.0000 1.0000
52.6000 363.0000 1.0000
52.6100 352.0000 1.0000
52.6200 372.0000 1.0000
52.6300 349.0000 1.0000
52.6400 340.0000 1.0000
52.6500 355.0000 1.0000
52.6600 342.0000 1.0000
52.6700 347.0000 1.0000
52.6800 321.0000 1.0000
52.6900 365.0000 1.0000
52.7000 364.0000 1.0000
52.7100 336.0000 1.0000
52.7200 349.0000 1.0000
52.7300 345.0000 1.0000
52.7400 346.0000 1.0000
52.7500 357.0000 1.0000
52.7600 358.0000 1.0000
52.7700 332.0000 1.0000
52.7800 333.0000 1.0000
52.7900 309.0000 1.0000
52.8000 360.0000 1.0000
52.8100 368.0000 1.0000
52.8200 392.0000 1.0000
52.8300 332.0000 1.0000
52.8400 340.0000 1.0000
52.8500 352.0000 1.0000
52.8600 318.0000 1.0000
52.8700 328.0000 1.0000
52.8800 355.0000 1.0000
52.8900 325.0000 1.0000
52.9000 334.0000 1.0000
52.9100 349.0000 1.0000
52.9200 319.0000 1.0000
52.9300 350.0000 1.0000
52.9400 361.0000 1.0000
52.9500 350.0000 1.0000
52.9600 358.0000 1.0000
52.9700 330.0000 1.0000
52.9800 327.0000 1.0000
52.9900 344.0000 1.0000
53.0000 347.0000 1.0000
53.0100 368.0000 1.0000
53.0200 353.0000 1.0000
53.0300 326.0000 1.0000
53.0400 323.0000 1.0000
53.0500 323.0000 1.0000
53.0600 362.0000 1.0000
53.0700 348.0000 1.0000
53.0800 354.0000 1.0000
53.0900 356.0000 1.0000
53.1000 349.0000 1.0000
53.1100 334.0000 1.0000
53.1200 330.0000 1.0000
53.1300 353.0000 1.0000
53.1400 321.0000 1.0000
53.1500 333.0000 1.0000
53.1600 332.0000 1.0000
53.1700 338.0000 1.0000
53.1800 317.0000 1.0000
53.1900 341.0000 1.0000
53.2000 350.0000 1.0000
53.2100 342.0000 1.0000
53.2200 364.0000 1.0000
53.2300 356.0000 1.0000
53.2400 351.0000 1.0000
53.2500 334.0000 1.0000
53.2600 323.0000 1.0000
53.2700 337.0000 1.0000
53.2800 347.0000 1.0000
53.2900 353.0000 1.0000
53.3000 318.0000 1.0000
53.3100 342.0000 1.0000
53.3200 339.0000 1.0000
53.3300 299.0000 1.0000
53.3400 358.0000 1.0000
53.3500 344.0000 1.0000
53.3600 381.0000 1.0000
53.3700 341.0000 1.0000
53.3800 321.0000 1.0000
53.3900 325.0000 1.0000
53.4000 353.0000 1.0000
53.4100 337.0000 1.0000
53.4200 363.0000 1.0000
53.4300 338.0000 1.0000
53.4400 348.0000 1.0000
53.4500 351.0000 1.0000
53.4600 336.0000 1.0000
53.4700 316.0000 1.0000
53.4800 338.0000 1.0000
53.4900 326.0000 1.0000
53.5000 390.0000 1.0000
53.5100 335.0000 1.0000
53.5200 356.0000 1.0000
53.5300 323.0000 1.0000
53.5400 359.0000 1.0000
53.5500 327.0000 1.0000
53.5600 347.0000 1.0000
53.5700 363.0000 1.0000
53.5800 334.0000 1.0000
53.5900 332.0000 1.0000
53.6000 352.0000 1.0000
53.6100 333.0000 1.0000
53.6200 323.0000 1.0000
53.6300 327.0000 1.0000
53.6400 342.0000 1.0000
53.6500 319.0000 1.0000
53.6600 334.0000 1.0000
53.6700 348.0000 1.0000
53.6800 342.0000 1.0000
53.6900 309.0000 1.0000
53.7000 342.0000 1.0000
53.7100 338.0000 1.0000
53.7200 340.0000 1.0000
53.7300 328.0000 1.0000
53.7400 349.0000 1.0000
53.7500 330.0000 1.0000
53.7600 339.0000 1.0000
53.7700 338.0000 1.0000
53.7800 380.0000 1.0000
53.7900 335.0000 1.0000
53.8000 362.0000 1.0000
53.8100 340.0000 1.0000
53.8200 341.0000 1.0000
53.8300 343.0000 1.0000
53.8400 352.0000 1.0000
53.8500 376.0000 1.0000
53.8600 368.0000 1.0000
53.8700 357.0000 1.0000
53.8800 366.0000 1.0000
53.8900 343.0000 1.0000
53.9000 380.0000 1.0000
53.9100 360.0000 1.0000
53.9200 324.0000 1.0000
53.9300 354.0000 1.0000
53.9400 365.0000 1.0000
53.9500 358.0000 1.0000
53.9600 382.0000 1.0000
53.9700 399.0000 1.0000
53.9800 357.0000 1.0000
53.9900 392.0000 1.0000
54.0000 381.0000 1.0000
54.0100 379.0000 1.0000
54.0200 380.0000 1.0000
54.0300 378.0000 1.0000
54.0400 385.0000 1.0000
54.0500 367.0000 1.0000
54.0600 375.0000 1.0000
54.0700 380.0000 1.0000
54.0800 386.0000 1.0000
54.0900 366.0000 1.0000
54.1000 340.0000 1.0000
54.1100 367.0000 1.0000
54.1200 383.0000 1.0000
54.1300 389.0000 1.0000
54.1400 377.0000 1.0000
54.1500 418.0000 1.0000
54.1600 400.0000 1.0000
54.1700 410.0000 1.0000
54.1800 393.0000 1.0000
54.1900 367.0000 1.0000
54.2000 392.0000 1.0000
54.2100 372.0000 1.0000
54.2200 354.0000 1.0000
54.2300 353.0000 1.0000
54.2400 397.0000 1.0000
54.2500 391.0000 1.0000
54.2600 404.0000 1.0000
54.2700 370.0000 1.0000
54.2800 402.0000 1.0000
54.2900 377.0000 1.0000
54.3000 376.0000 1.0000
54.3100 352.0000 1.0000
54.3200 395.0000 1.0000
54.3300 386.0000 1.0000
54.3400 365.0000 1.0000
54.3500 368.0000 1.0000
54.3600 393.0000 1.0000
54.3700 374.0000 1.0000
54.3800 417.0000 1.0000
54.3900 398.0000 1.0000
54.4000 414.0000 1.0000
54.4100 392.0000 1.0000
54.4200 461.0000 1.0000
54.4300 433.0000 1.0000
54.4400 430.0000 1.0000
54.4500 431.0000 1.0000
54.4600 448.0000 1.0000
54.4700 467.0000 1.0000
54.4800 451.0000 1.0000
54.4900 437.0000 1.0000
54.5000 453.0000 1.0000
54.5100 452.0000 1.0000
54.5200 454.0000 1.0000
54.5300 471.0000 1.0000
54.5400 474.0000 1.0000
54.5500 458.0000 1.0000
54.5600 477.0000 1.0000
54.5700 481.0000 1.0000
54.5800 443.0000 1.0000
54.5900 485.0000 1.0000
54.6000 455.0000 1.0000
54.6100 468.0000 1.0000
54.6200 448.0000 1.0000
54.6300 457.0000 1.0000
54.6400 421.0000 1.0000
54.6500 452.0000 1.0000
54.6600 435.0000 1.0000
54.6700 414.0000 1.0000
54.6800 414.0000 1.0000
54.6900 450.0000 1.0000
54.7000 443.0000 1.0000
54.7100 441.0000 1.0000
54.7200 384.0000 1.0000
54.7300 408.0000 1.0000
54.7400 424.0000 1.0000
54.7500 431.0000 1.0000
54.7600 379.0000 1.0000
54.7700 375.0000 1.0000
54.7800 399.0000 1.0000
54.7900 404.0000 1.0000
54.8000 399.0000 1.0000
54.8100 373.0000 1.0000
54.8200 370.0000 1.0000
54.8300 372.0000 1.0000
54.8400 351.0000 1.0000
54.8500 357.0000 1.0000
54.8600 376.0000 1.0000
54.8700 386.0000 1.0000
54.8800 349.0000 1.0000
54.8900 339.0000 1.0000
54.9000 382.0000 1.0000
54.9100 349.0000 1.0000
54.9200 318.0000 1.0000
54.9300 353.0000 1.0000
54.9400 346.0000 1.0000
54.9500 365.0000 1.0000
54.9600 374.0000 1.0000
54.9700 319.0000 1.0000
54.9800 356.0000 1.0000
54.9900 323.0000 1.0000
55.0000 328.0000 1.0000
55.0100 350.0000 1.0000
55.0200 357.0000 1.0000
55.0300 344.0000 1.0000
55.0400 320.0000 1.0000
55.0500 338.0000 1.0000
55.0600 334.0000 1.0000
55.0700 322.0000 1.0000
55.0800 313.0000 1.0000
55.0900 346.0000 1.0000
55.1000 314.0000 1.0000
55.1100 323.0000 1.0000
55.1200 344.0000 1.0000
55.1300 331.0000 1.0000
55.1400 342.0000 1.0000
55.1500 339.0000 1.0000
55.1600 358.0000 1.0000
55.1700 355.0000 1.0000
55.1800 335.0000 1.0000
55.1900 330.0000 1.0000
55.2000 339.0000 1.0000
55.2100 338.0000 1.0000
55.2200 330.0000 1.0000
55.2300 330.0000 1.0000
55.2400 331.0000 1.0000
55.2500 362.0000 1.0000
55.2600 332.0000 1.0000
55.2700 332.0000 1.0000
55.2800 345.0000 1.0000
55.2900 366.0000 1.0000
55.3000 320.0000 1.0000
55.3100 328.0000 1.0000
55.3200 316.0000 1.0000
55.3300 322.0000 1.0000
55.3400 315.0000 1.0000
55.3500 323.0000 1.0000
55.3600 362.0000 1.0000
55.3700 340.0000 1.0000
55.3800 297.0000 1.0000
55.3900 339.0000 1.0000
55.4000 341.0000 1.0000
55.4100 307.0000 1.0000
55.4200 330.0000 1.0000
55.4300 351.0000 1.0000
55.4400 325.0000 1.0000
55.4500 360.0000 1.0000
55.4600 325.0000 1.0000
55.4700 298.0000 1.0000
55.4800 312.0000 1.0000
55.4900 319.0000 1.0000
55.5000 306.0000 1.0000
55.5100 315.0000 1.0000
55.5200 336.0000 1.0000
55.5300 335.0000 1.0000
55.5400 339.0000 1.0000
55.5500 332.0000 1.0000
55.5600 348.0000 1.0000
55.5700 296.0000 1.0000
55.5800 306.0000 1.0000
55.5900 325.0000 1.0000
55.6000 329.0000 1.0000
55.6100 313.0000 1.0000
55.6200 328.0000 1.0000
55.6300 340.0000 1.0000
55.6400 328.0000 1.0000
55.6500 337.0000 1.0000
55.6600 318.0000 1.0000
55.6700 311.0000 1.0000
55.6800 336.0000 1.0000
55.6900 339.0000 1.0000
55.7000 335.0000 1.0000
55.7100 318.0000 1.0000
55.7200 323.0000 1.0000
55.7300 364.0000 1.0000
55.7400 324.0000 1.0000
55.7500 348.0000 1.0000
55.7600 306.0000 1.0000
55.7700 311.0000 1.0000
55.7800 313.0000 1.0000
55.7900 337.0000 1.0000
55.8000 329.0000 1.0000
55.8100 303.0000 1.0000
55.8200 338.0000 1.0000
55.8300 347.0000 1.0000
55.8400 343.0000 1.0000
55.8500 327.0000 1.0000
55.8600 319.0000 1.0000
55.8700 312.0000 1.0000
55.8800 308.0000 1.0000
55.8900 326.0000 1.0000
55.9000 340.0000 1.0000
55.9100 334.0000 1.0000
55.9200 305.0000 1.0000
55.9300 326.0000 1.0000
55.9400 336.0000 1.0000
55.9500 349.0000 1.0000
55.9600 312.0000 1.0000
55.9700 307.0000 1.0000
55.9800 337.0000 1.0000
55.9900 325.0000 1.0000
56.0000 318.0000 1.0000
56.0100 344.0000 1.0000
56.0200 326.0000 1.0000
56.0300 315.0000 1.0000
56.0400 322.0000 1.0000
56.0500 327.0000 1.0000
56.0600 341.0000 1.0000
56.0700 339.0000 1.0000
56.0800 336.0000 1.0000
56.0900 330.0000 1.0000
56.1000 325.0000 1.0000
56.1100 339.0000 1.0000
56.1200 332.0000 1.0000
56.1300 330.0000 1.0000
56.1400 314.0000 1.0000
56.1500 350.0000 1.0000
56.1600 334.0000 1.0000
56.1700 349.0000 1.0000
56.1800 335.0000 1.0000
56.1900 340.0000 1.0000
56.2000 356.0000 1.0000
56.2100 342.0000 1.0000
56.2200 299.0000 1.0000
56.2300 327.0000 1.0000
56.2400 305.0000 1.0000
56.2500 308.0000 1.0000
56.2600 332.0000 1.0000
56.2700 367.0000 1.0000
56.2800 314.0000 1.0000
56.2900 337.0000 1.0000
56.3000 317.0000 1.0000
56.3100 337.0000 1.0000
56.3200 312.0000 1.0000
56.3300 326.0000 1.0000
56.3400 310.0000 1.0000
56.3500 302.0000 1.0000
56.3600 359.0000 1.0000
56.3700 305.0000 1.0000
56.3800 333.0000 1.0000
56.3900 331.0000 1.0000
56.4000 313.0000 1.0000
56.4100 338.0000 1.0000
56.4200 320.0000 1.0000
56.4300 323.0000 1.0000
56.4400 301.0000 1.0000
56.4500 312.0000 1.0000
56.4600 362.0000 1.0000
56.4700 368.0000 1.0000
56.4800 309.0000 1.0000
56.4900 319.0000 1.0000
56.5000 343.0000 1.0000
56.5100 324.0000 1.0000
56.5200 328.0000 1.0000
56.5300 333.0000 1.0000
56.5400 347.0000 1.0000
56.5500 331.0000 1.0000
56.5600 358.0000 1.0000
56.5700 316.0000 1.0000
56.5800 316.0000 1.0000
56.5900 326.0000 1.0000
56.6000 317.0000 1.0000
56.6100 323.0000 1.0000
56.6200 330.0000 1.0000
56.6300 335.0000 1.0000
56.6400 314.0000 1.0000
56.6500 342.0000 1.0000
56.6600 312.0000 1.0000
56.6700 316.0000 1.0000
56.6800 329.0000 1.0000
56.6900 322.0000 1.0000
56.7000 306.0000 1.0000
56.7100 312.0000 1.0000
56.7200 339.0000 1.0000
56.7300 326.0000 1.0000
56.7400 325.0000 1.0000
56.7500 308.0000 1.0000
56.7600 336.0000 1.0000
56.7700 327.0000 1.0000
56.7800 326.0000 1.0000
56.7900 326.0000 1.0000
56.8000 323.0000 1.0000
56.8100 286.0000 1.0000
56.8200 308.0000 1.0000
56.8300 300.0000 1.0000
56.8400 311.0000 1.0000
56.8500 312.0000 1.0000
56.8600 325.0000 1.0000
56.8700 302.0000 1.0000
56.8800 318.0000 1.0000
56.8900 314.0000 1.0000
56.9000 308.0000 1.0000
56.9100 328.0000 1.0000
56.9200 313.0000 1.0000
56.9300 343.0000 1.0000
56.9400 328.0000 1.0000
56.9500 305.0000 1.0000
56.9600 316.0000 1.0000
56.9700 334.0000 1.0000
56.9800 300.0000 1.0000
56.9900 331.0000 1.0000
57.0000 331.0000 1.0000
57.0100 315.0000 1.0000
57.0200 316.0000 1.0000
57.0300 330.0000 1.0000
57.0400 346.0000 1.0000
57.0500 317.0000 1.0000
57.0600 351.0000 1.0000
57.0700 312.0000 1.0000
57.0800 332.0000 1.0000
57.0900 335.0000 1.0000
57.1000 329.0000 1.0000
57.1100 319.0000 1.0000
57.1200 323.0000 1.0000
57.1300 306.0000 1.0000
57.1400 348.0000 1.0000
57.1500 310.0000 1.0000
57.1600 338.0000 1.0000
57.1700 329.0000 1.0000
57.1800 348.0000 1.0000
57.1900 347.0000 1.0000
57.2000 342.0000 1.0000
57.2100 342.0000 1.0000
57.2200 311.0000 1.0000
57.2300 336.0000 1.0000
57.2400 333.0000 1.0000
57.2500 349.0000 1.0000
57.2600 352.0000 1.0000
57.2700 321.0000 1.0000
57.2800 316.0000 1.0000
57.2900 325.0000 1.0000
57.3000 349.0000 1.0000
57.3100 331.0000 1.0000
57.3200 297.0000 1.0000
57.3300 289.0000 1.0000
57.3400 335.0000 1.0000
57.3500 354.0000 1.0000
57.3600 361.0000 1.0000
57.3700 333.0000 1.0000
57.3800 368.0000 1.0000
57.3900 335.0000 1.0000
57.4000 335.0000 1.0000
57.4100 326.0000 1.0000
57.4200 355.0000 1.0000
57.4300 341.0000 1.0000
57.4400 324.0000 1.0000
57.4500 314.0000 1.0000
57.4600 320.0000 1.0000
57.4700 329.0000 1.0000
57.4800 319.0000 1.0000
57.4900 341.0000 1.0000
57.5000 334.0000 1.0000
57.5100 361.0000 1.0000
57.5200 351.0000 1.0000
57.5300 323.0000 1.0000
57.5400 341.0000 1.0000
57.5500 362.0000 1.0000
57.5600 360.0000 1.0000
57.5700 337.0000 1.0000
57.5800 349.0000 1.0000
57.5900 348.0000 1.0000
57.6000 323.0000 1.0000
57.6100 319.0000 1.0000
57.6200 330.0000 1.0000
57.6300 345.0000 1.0000
57.6400 354.0000 1.0000
57.6500 321.0000 1.0000
57.6600 337.0000 1.0000
57.6700 316.0000 1.0000
57.6800 339.0000 1.0000
57.6900 330.0000 1.0000
57.7000 335.0000 1.0000
57.7100 316.0000 1.0000
57.7200 313.0000 1.0000
57.7300 340.0000 1.0000
57.7400 308.0000 1.0000
57.7500 315.0000 1.0000
57.7600 341.0000 1.0000
57.7700 321.0000 1.0000
57.7800 313.0000 1.0000
57.7900 338.0000 1.0000
57.8000 308.0000 1.0000
57.8100 329.0000 1.0000
57.8200 299.0000 1.0000
57.8300 297.0000 1.0000
57.8400 324.0000 1.0000
57.8500 324.0000 1.0000
57.8600 332.0000 1.0000
57.8700 325.0000 1.0000
57.8800 337.0000 1.0000
57.8900 302.0000 1.0000
57.9000 303.0000 1.0000
57.9100 322.0000 1.0000
57.9200 310.0000 1.0000
57.9300 338.0000 1.0000
57.9400 349.0000 1.0000
57.9500 316.0000 1.0000
57.9600 329.0000 1.0000
57.9700 315.0000 1.0000
57.9800 307.0000 1.0000
57.9900 307.0000 1.0000
58.0000 304.0000 1.0000
58.0100 312.0000 1.0000
58.0200 290.0000 1.0000
58.0300 315.0000 1.0000
58.0400 362.0000 1.0000
58.0500 314.0000 1.0000
58.0600 330.0000 1.0000
58.0700 319.0000 1.0000
58.0800 325.0000 1.0000
58.0900 303.0000 1.0000
58.1000 314.0000 1.0000
58.1100 320.0000 1.0000
58.1200 324.0000 1.0000
58.1300 316.0000 1.0000
58.1400 339.0000 1.0000
58.1500 325.0000 1.0000
58.1600 339.0000 1.0000
58.1700 320.0000 1.0000
58.1800 302.0000 1.0000
58.1900 314.0000 1.0000
58.2000 330.0000 1.0000
58.2100 332.0000 1.0000
58.2200 314.0000 1.0000
58.2300 317.0000 1.0000
58.2400 306.0000 1.0000
58.2500 328.0000 1.0000
58.2600 341.0000 1.0000
58.2700 331.0000 1.0000
58.2800 318.0000 1.0000
58.2900 325.0000 1.0000
58.3000 348.0000 1.0000
58.3100 314.0000 1.0000
58.3200 301.0000 1.0000
58.3300 299.0000 1.0000
58.3400 308.0000 1.0000
58.3500 321.0000 1.0000
58.3600 292.0000 1.0000
58.3700 323.0000 1.0000
58.3800 334.0000 1.0000
58.3900 310.0000 1.0000
58.4000 299.0000 1.0000
58.4100 296.0000 1.0000
58.4200 307.0000 1.0000
58.4300 319.0000 1.0000
58.4400 319.0000 1.0000
58.4500 307.0000 1.0000
58.4600 313.0000 1.0000
58.4700 309.0000 1.0000
58.4800 312.0000 1.0000
58.4900 315.0000 1.0000
58.5000 345.0000 1.0000
58.5100 331.0000 1.0000
58.5200 318.0000 1.0000
58.5300 340.0000 1.0000
58.5400 296.0000 1.0000
58.5500 322.0000 1.0000
58.5600 311.0000 1.0000
58.5700 350.0000 1.0000
58.5800 344.0000 1.0000
58.5900 338.0000 1.0000
58.6000 333.0000 1.0000
58.6100 302.0000 1.0000
58.6200 339.0000 1.0000
58.6300 329.0000 1.0000
58.6400 316.0000 1.0000
58.6500 305.0000 1.0000
58.6600 337.0000 1.0000
58.6700 305.0000 1.0000
58.6800 326.0000 1.0000
58.6900 310.0000 1.0000
58.7000 332.0000 1.0000
58.7100 340.0000 1.0000
58.7200 311.0000 1.0000
58.7300 318.0000 1.0000
58.7400 334.0000 1.0000
58.7500 310.0000 1.0000
58.7600 314.0000 1.0000
58.7700 330.0000 1.0000
58.7800 308.0000 1.0000
58.7900 330.0000 1.0000
58.8000 330.0000 1.0000
58.8100 315.0000 1.0000
58.8200 311.0000 1.0000
58.8300 309.0000 1.0000
58.8400 324.0000 1.0000
58.8500 336.0000 1.0000
58.8600 320.0000 1.0000
58.8700 329.0000 1.0000
58.8800 326.0000 1.0000
58.8900 319.0000 1.0000
58.9000 314.0000 1.0000
58.9100 319.0000 1.0000
58.9200 324.0000 1.0000
58.9300 349.0000 1.0000
58.9400 295.0000 1.0000
58.9500 304.0000 1.0000
58.9600 322.0000 1.0000
58.9700 320.0000 1.0000
58.9800 309.0000 1.0000
58.9900 330.0000 1.0000
59.0000 301.0000 1.0000
59.0100 314.0000 1.0000
59.0200 322.0000 1.0000
59.0300 314.0000 1.0000
59.0400 312.0000 1.0000
59.0500 311.0000 1.0000
59.0600 329.0000 1.0000
59.0700 294.0000 1.0000
59.0800 319.0000 1.0000
59.0900 301.0000 1.0000
59.1000 319.0000 1.0000
59.1100 314.0000 1.0000
59.1200 326.0000 1.0000
59.1300 327.0000 1.0000
59.1400 321.0000 1.0000
59.1500 308.0000 1.0000
59.1600 300.0000 1.0000
59.1700 306.0000 1.0000
59.1800 303.0000 1.0000
59.1900 339.0000 1.0000
59.2000 330.0000 1.0000
59.2100 302.0000 1.0000
59.2200 311.0000 1.0000
59.2300 327.0000 1.0000
59.2400 364.0000 1.0000
59.2500 326.0000 1.0000
59.2600 300.0000 1.0000
59.2700 315.0000 1.0000
59.2800 293.0000 1.0000
59.2900 335.0000 1.0000
59.3000 317.0000 1.0000
59.3100 314.0000 1.0000
59.3200 311.0000 1.0000
59.3300 309.0000 1.0000
59.3400 310.0000 1.0000
59.3500 317.0000 1.0000
59.3600 331.0000 1.0000
59.3700 334.0000 1.0000
59.3800 327.0000 1.0000
59.3900 300.0000 1.0000
59.4000 333.0000 1.0000
59.4100 337.0000 1.0000
59.4200 324.0000 1.0000
59.4300 311.0000 1.0000
59.4400 315.0000 1.0000
59.4500 332.0000 1.0000
59.4600 319.0000 1.0000
59.4700 320.0000 1.0000
59.4800 316.0000 1.0000
59.4900 302.0000 1.0000
59.5000 311.0000 1.0000
59.5100 317.0000 1.0000
59.5200 294.0000 1.0000
59.5300 307.0000 1.0000
59.5400 304.0000 1.0000
59.5500 279.0000 1.0000
59.5600 308.0000 1.0000
59.5700 318.0000 1.0000
59.5800 297.0000 1.0000
59.5900 298.0000 1.0000
59.6000 315.0000 1.0000
59.6100 302.0000 1.0000
59.6200 332.0000 1.0000
59.6300 334.0000 1.0000
59.6400 336.0000 1.0000
59.6500 320.0000 1.0000
59.6600 318.0000 1.0000
59.6700 304.0000 1.0000
59.6800 282.0000 1.0000
59.6900 278.0000 1.0000
59.7000 308.0000 1.0000
59.7100 328.0000 1.0000
59.7200 312.0000 1.0000
59.7300 297.0000 1.0000
59.7400 327.0000 1.0000
59.7500 337.0000 1.0000
59.7600 311.0000 1.0000
59.7700 301.0000 1.0000
59.7800 291.0000 1.0000
59.7900 298.0000 1.0000
59.8000 285.0000 1.0000
59.8100 295.0000 1.0000
59.8200 314.0000 1.0000
59.8300 301.0000 1.0000
59.8400 322.0000 1.0000
59.8500 307.0000 1.0000
59.8600 308.0000 1.0000
59.8700 318.0000 1.0000
59.8800 329.0000 1.0000
59.8900 343.0000 1.0000
59.9000 330.0000 1.0000
59.9100 318.0000 1.0000
59.9200 325.0000 1.0000
59.9300 327.0000 1.0000
59.9400 300.0000 1.0000
59.9500 308.0000 1.0000
59.9600 328.0000 1.0000
59.9700 324.0000 1.0000
59.9800 319.0000 1.0000
59.9900 316.0000 1.0000
60.0000 311.0000 1.0000
60.0100 338.0000 1.0000
60.0200 308.0000 1.0000
60.0300 324.0000 1.0000
60.0400 344.0000 1.0000
60.0500 312.0000 1.0000
60.0600 313.0000 1.0000
60.0700 314.0000 1.0000
60.0800 345.0000 1.0000
60.0900 322.0000 1.0000
60.1000 308.0000 1.0000
60.1100 328.0000 1.0000
60.1200 326.0000 1.0000
60.1300 337.0000 1.0000
60.1400 334.0000 1.0000
60.1500 323.0000 1.0000
60.1600 325.0000 1.0000
60.1700 319.0000 1.0000
60.1800 334.0000 1.0000
60.1900 311.0000 1.0000
60.2000 300.0000 1.0000
60.2100 304.0000 1.0000
60.2200 308.0000 1.0000
60.2300 297.0000 1.0000
60.2400 330.0000 1.0000
60.2500 311.0000 1.0000
60.2600 315.0000 1.0000
60.2700 307.0000 1.0000
60.2800 313.0000 1.0000
60.2900 314.0000 1.0000
60.3000 332.0000 1.0000
60.3100 340.0000 1.0000
60.3200 321.0000 1.0000
60.3300 332.0000 1.0000
60.3400 337.0000 1.0000
60.3500 329.0000 1.0000
60.3600 360.0000 1.0000
60.3700 327.0000 1.0000
60.3800 321.0000 1.0000
60.3900 314.0000 1.0000
60.4000 300.0000 1.0000
60.4100 327.0000 1.0000
60.4200 326.0000 1.0000
60.4300 312.0000 1.0000
60.4400 328.0000 1.0000
60.4500 319.0000 1.0000
60.4600 333.0000 1.0000
60.4700 335.0000 1.0000
60.4800 307.0000 1.0000
60.4900 282.0000 1.0000
60.5000 302.0000 1.0000
60.5100 326.0000 1.0000
60.5200 322.0000 1.0000
60.5300 320.0000 1.0000
60.5400 318.0000 1.0000
60.5500 316.0000 1.0000
60.5600 351.0000 1.0000
60.5700 342.0000 1.0000
60.5800 313.0000 1.0000
60.5900 292.0000 1.0000
60.6000 332.0000 1.0000
60.6100 314.0000 1.0000
60.6200 318.0000 1.0000
60.6300 314.0000 1.0000
60.6400 329.0000 1.0000
60.6500 329.0000 1.0000
60.6600 327.0000 1.0000
60.6700 310.0000 1.0000
60.6800 298.0000 1.0000
60.6900 331.0000 1.0000
60.7000 309.0000 1.0000
60.7100 290.0000 1.0000
60.7200 316.0000 1.0000
60.7300 314.0000 1.0000
60.7400 293.0000 1.0000
60.7500 321.0000 1.0000
60.7600 327.0000 1.0000
60.7700 334.0000 1.0000
60.7800 321.0000 1.0000
60.7900 323.0000 1.0000
60.8000 315.0000 1.0000
60.8100 326.0000 1.0000
60.8200 330.0000 1.0000
60.8300 318.0000 1.0000
60.8400 303.0000 1.0000
60.8500 303.0000 1.0000
60.8600 333.0000 1.0000
60.8700 321.0000 1.0000
60.8800 301.0000 1.0000
60.8900 315.0000 1.0000
60.9000 337.0000 1.0000
60.9100 306.0000 1.0000
60.9200 302.0000 1.0000
60.9300 317.0000 1.0000
60.9400 323.0000 1.0000
60.9500 329.0000 1.0000
60.9600 321.0000 1.0000
60.9700 337.0000 1.0000
60.9800 329.0000 1.0000
60.9900 301.0000 1.0000
61.0000 316.0000 1.0000
61.0100 332.0000 1.0000
61.0200 304.0000 1.0000
61.0300 309.0000 1.0000
61.0400 320.0000 1.0000
61.0500 348.0000 1.0000
61.0600 311.0000 1.0000
61.0700 364.0000 1.0000
61.0800 354.0000 1.0000
61.0900 333.0000 1.0000
61.1000 353.0000 1.0000
61.1100 339.0000 1.0000
61.1200 341.0000 1.0000
61.1300 331.0000 1.0000
61.1400 342.0000 1.0000
61.1500 317.0000 1.0000
61.1600 343.0000 1.0000
61.1700 367.0000 1.0000
61.1800 366.0000 1.0000
61.1900 347.0000 1.0000
61.2000 386.0000 1.0000
61.2100 383.0000 1.0000
61.2200 402.0000 1.0000
61.2300 398.0000 1.0000
61.2400 352.0000 1.0000
61.2500 372.0000 1.0000
61.2600 396.0000 1.0000
61.2700 385.0000 1.0000
61.2800 367.0000 1.0000
61.2900 371.0000 1.0000
61.3000 369.0000 1.0000
61.3100 397.0000 1.0000
61.3200 417.0000 1.0000
61.3300 406.0000 1.0000
61.3400 434.0000 1.0000
61.3500 414.0000 1.0000
61.3600 444.0000 1.0000
61.3700 427.0000 1.0000
61.3800 426.0000 1.0000
61.3900 461.0000 1.0000
61.4000 440.0000 1.0000
61.4100 482.0000 1.0000
61.4200 484.0000 1.0000
61.4300 480.0000 1.0000
61.4400 495.0000 1.0000
61.4500 519.0000 1.0000
61.4600 505.0000 1.0000
61.4700 517.0000 1.0000
61.4800 535.0000 1.0000
61.4900 538.0000 1.0000
61.5000 540.0000 1.0000
61.5100 568.0000 1.0000
61.5200 560.0000 1.0000
61.5300 598.0000 1.0000
61.5400 569.0000 1.0000
61.5500 581.0000 1.0000
61.5600 599.0000 1.0000
61.5700 584.0000 1.0000
61.5800 605.0000 1.0000
61.5900 608.0000 1.0000
61.6000 612.0000 1.0000
61.6100 590.0000 1.0000
61.6200 603.0000 1.0000
61.6300 592.0000 1.0000
61.6400 552.0000 1.0000
61.6500 586.0000 1.0000
61.6600 555.0000 1.0000
61.6700 560.0000 1.0000
61.6800 549.0000 1.0000
61.6900 577.0000 1.0000
61.7000 583.0000 1.0000
61.7100 550.0000 1.0000
61.7200 535.0000 1.0000
61.7300 504.0000 1.0000
61.7400 525.0000 1.0000
61.7500 530.0000 1.0000
61.7600 477.0000 1.0000
61.7700 500.0000 1.0000
61.7800 442.0000 1.0000
61.7900 474.0000 1.0000
61.8000 482.0000 1.0000
61.8100 450.0000 1.0000
61.8200 460.0000 1.0000
61.8300 450.0000 1.0000
61.8400 461.0000 1.0000
61.8500 437.0000 1.0000
61.8600 429.0000 1.0000
61.8700 425.0000 1.0000
61.8800 417.0000 1.0000
61.8900 399.0000 1.0000
61.9000 372.0000 1.0000
61.9100 361.0000 1.0000
61.9200 354.0000 1.0000
61.9300 389.0000 1.0000
61.9400 403.0000 1.0000
61.9500 406.0000 1.0000
61.9600 391.0000 1.0000
61.9700 395.0000 1.0000
61.9800 377.0000 1.0000
61.9900 372.0000 1.0000
62.0000 385.0000 1.0000
62.0100 352.0000 1.0000
62.0200 356.0000 1.0000
62.0300 375.0000 1.0000
62.0400 356.0000 1.0000
62.0500 386.0000 1.0000
62.0600 359.0000 1.0000
62.0700 379.0000 1.0000
62.0800 333.0000 1.0000
62.0900 339.0000 1.0000
62.1000 338.0000 1.0000
62.1100 339.0000 1.0000
62.1200 343.0000 1.0000
62.1300 355.0000 1.0000
62.1400 342.0000 1.0000
62.1500 348.0000 1.0000
62.1600 355.0000 1.0000
62.1700 345.0000 1.0000
62.1800 361.0000 1.0000
62.1900 373.0000 1.0000
62.2000 337.0000 1.0000
62.2100 344.0000 1.0000
62.2200 321.0000 1.0000
62.2300 345.0000 1.0000
62.2400 395.0000 1.0000
62.2500 343.0000 1.0000
62.2600 328.0000 1.0000
62.2700 356.0000 1.0000
62.2800 357.0000 1.0000
62.2900 325.0000 1.0000
62.3000 366.0000 1.0000
62.3100 374.0000 1.0000
62.3200 347.0000 1.0000
62.3300 361.0000 1.0000
62.3400 372.0000 1.0000
62.3500 363.0000 1.0000
62.3600 385.0000 1.0000
62.3700 391.0000 1.0000
62.3800 351.0000 1.0000
62.3900 364.0000 1.0000
62.4000 371.0000 1.0000
62.4100 412.0000 1.0000
62.4200 365.0000 1.0000
62.4300 343.0000 1.0000
62.4400 340.0000 1.0000
62.4500 332.0000 1.0000
62.4600 352.0000 1.0000
62.4700 380.0000 1.0000
62.4800 346.0000 1.0000
62.4900 346.0000 1.0000
62.5000 353.0000 1.0000
62.5100 386.0000 1.0000
62.5200 393.0000 1.0000
62.5300 332.0000 1.0000
62.5400 338.0000 1.0000
62.5500 386.0000 1.0000
62.5600 363.0000 1.0000
62.5700 365.0000 1.0000
62.5800 325.0000 1.0000
62.5900 355.0000 1.0000
62.6000 325.0000 1.0000
62.6100 346.0000 1.0000
62.6200 341.0000 1.0000
62.6300 359.0000 1.0000
62.6400 346.0000 1.0000
62.6500 342.0000 1.0000
62.6600 345.0000 1.0000
62.6700 310.0000 1.0000
62.6800 328.0000 1.0000
62.6900 347.0000 1.0000
62.7000 313.0000 1.0000
62.7100 310.0000 1.0000
62.7200 301.0000 1.0000
62.7300 324.0000 1.0000
62.7400 326.0000 1.0000
62.7500 341.0000 1.0000
62.7600 316.0000 1.0000
62.7700 350.0000 1.0000
62.7800 337.0000 1.0000
62.7900 299.0000 1.0000
62.8000 302.0000 1.0000
62.8100 330.0000 1.0000
62.8200 333.0000 1.0000
62.8300 331.0000 1.0000
62.8400 343.0000 1.0000
62.8500 301.0000 1.0000
62.8600 328.0000 1.0000
62.8700 324.0000 1.0000
62.8800 303.0000 1.0000
62.8900 307.0000 1.0000
62.9000 308.0000 1.0000
62.9100 341.0000 1.0000
62.9200 332.0000 1.0000
62.9300 333.0000 1.0000
62.9400 315.0000 1.0000
62.9500 328.0000 1.0000
62.9600 311.0000 1.0000
62.9700 304.0000 1.0000
62.9800 302.0000 1.0000
62.9900 286.0000 1.0000
63.0000 317.0000 1.0000
63.0100 320.0000 1.0000
63.0200 332.0000 1.0000
63.0300 334.0000 1.0000
63.0400 309.0000 1.0000
63.0500 296.0000 1.0000
63.0600 293.0000 1.0000
63.0700 304.0000 1.0000
63.0800 304.0000 1.0000
63.0900 295.0000 1.0000
63.1000 303.0000 1.0000
63.1100 328.0000 1.0000
63.1200 310.0000 1.0000
63.1300 324.0000 1.0000
63.1400 322.0000 1.0000
63.1500 306.0000 1.0000
63.1600 324.0000 1.0000
63.1700 315.0000 1.0000
63.1800 326.0000 1.0000
63.1900 321.0000 1.0000
63.2000 346.0000 1.0000
63.2100 338.0000 1.0000
63.2200 298.0000 1.0000
63.2300 346.0000 1.0000
63.2400 317.0000 1.0000
63.2500 340.0000 1.0000
63.2600 319.0000 1.0000
63.2700 327.0000 1.0000
63.2800 308.0000 1.0000
63.2900 319.0000 1.0000
63.3000 303.0000 1.0000
63.3100 306.0000 1.0000
63.3200 315.0000 1.0000
63.3300 307.0000 1.0000
63.3400 298.0000 1.0000
63.3500 318.0000 1.0000
63.3600 309.0000 1.0000
63.3700 320.0000 1.0000
63.3800 322.0000 1.0000
63.3900 311.0000 1.0000
63.4000 318.0000 1.0000
63.4100 324.0000 1.0000
63.4200 338.0000 1.0000
63.4300 328.0000 1.0000
63.4400 308.0000 1.0000
63.4500 317.0000 1.0000
63.4600 338.0000 1.0000
63.4700 336.0000 1.0000
63.4800 317.0000 1.0000
63.4900 319.0000 1.0000
63.5000 344.0000 1.0000
63.5100 306.0000 1.0000
63.5200 306.0000 1.0000
63.5300 286.0000 1.0000
63.5400 320.0000 1.0000
63.5500 338.0000 1.0000
63.5600 336.0000 1.0000
63.5700 363.0000 1.0000
63.5800 336.0000 1.0000
63.5900 321.0000 1.0000
63.6000 332.0000 1.0000
63.6100 344.0000 1.0000
63.6200 329.0000 1.0000
63.6300 330.0000 1.0000
63.6400 338.0000 1.0000
63.6500 378.0000 1.0000
63.6600 362.0000 1.0000
63.6700 369.0000 1.0000
63.6800 383.0000 1.0000
63.6900 357.0000 1.0000
63.7000 357.0000 1.0000
63.7100 348.0000 1.0000
63.7200 380.0000 1.0000
63.7300 357.0000 1.0000
63.7400 359.0000 1.0000
63.7500 383.0000 1.0000
63.7600 370.0000 1.0000
63.7700 382.0000 1.0000
63.7800 366.0000 1.0000
63.7900 356.0000 1.0000
63.8000 375.0000 1.0000
63.8100 422.0000 1.0000
63.8200 439.0000 1.0000
63.8300 428.0000 1.0000
63.8400 412.0000 1.0000
63.8500 422.0000 1.0000
63.8600 460.0000 1.0000
63.8700 528.0000 1.0000
63.8800 458.0000 1.0000
63.8900 521.0000 1.0000
63.9000 524.0000 1.0000
63.9100 573.0000 1.0000
63.9200 547.0000 1.0000
63.9300 555.0000 1.0000
63.9400 576.0000 1.0000
63.9500 647.0000 1.0000
63.9600 584.0000 1.0000
63.9700 616.0000 1.0000
63.9800 598.0000 1.0000
63.9900 606.0000 1.0000
64.0000 556.0000 1.0000
64.0100 597.0000 1.0000
64.0200 544.0000 1.0000
64.0300 538.0000 1.0000
64.0400 523.0000 1.0000
64.0500 507.0000 1.0000
64.0600 527.0000 1.0000
64.0700 530.0000 1.0000
64.0800 484.0000 1.0000
64.0900 508.0000 1.0000
64.1000 514.0000 1.0000
64.1100 527.0000 1.0000
64.1200 496.0000 1.0000
64.1300 543.0000 1.0000
64.1400 492.0000 1.0000
64.1500 508.0000 1.0000
64.1600 521.0000 1.0000
64.1700 469.0000 1.0000
64.1800 507.0000 1.0000
64.1900 446.0000 1.0000
64.2000 430.0000 1.0000
64.2100 430.0000 1.0000
64.2200 411.0000 1.0000
64.2300 408.0000 1.0000
64.2400 384.0000 1.0000
64.2500 365.0000 1.0000
64.2600 382.0000 1.0000
64.2700 354.0000 1.0000
64.2800 379.0000 1.0000
64.2900 387.0000 1.0000
64.3000 357.0000 1.0000
64.3100 350.0000 1.0000
64.3200 354.0000 1.0000
64.3300 354.0000 1.0000
64.3400 351.0000 1.0000
64.3500 326.0000 1.0000
64.3600 342.0000 1.0000
64.3700 351.0000 1.0000
64.3800 351.0000 1.0000
64.3900 337.0000 1.0000
64.4000 306.0000 1.0000
64.4100 314.0000 1.0000
64.4200 343.0000 1.0000
64.4300 340.0000 1.0000
64.4400 336.0000 1.0000
64.4500 330.0000 1.0000
64.4600 330.0000 1.0000
64.4700 324.0000 1.0000
64.4800 325.0000 1.0000
64.4900 344.0000 1.0000
64.5000 317.0000 1.0000
64.5100 294.0000 1.0000
64.5200 313.0000 1.0000
64.5300 308.0000 1.0000
64.5400 340.0000 1.0000
64.5500 352.0000 1.0000
64.5600 343.0000 1.0000
64.5700 315.0000 1.0000
64.5800 334.0000 1.0000
64.5900 333.0000 1.0000
64.6000 343.0000 1.0000
64.6100 339.0000 1.0000
64.6200 304.0000 1.0000
64.6300 311.0000 1.0000
64.6400 323.0000 1.0000
64.6500 308.0000 1.0000
64.6600 332.0000 1.0000
64.6700 330.0000 1.0000
64.6800 313.0000 1.0000
64.6900 351.0000 1.0000
64.7000 328.0000 1.0000
64.7100 336.0000 1.0000
64.7200 310.0000 1.0000
64.7300 326.0000 1.0000
64.7400 352.0000 1.0000
64.7500 299.0000 1.0000
64.7600 314.0000 1.0000
64.7700 322.0000 1.0000
64.7800 324.0000 1.0000
64.7900 354.0000 1.0000
64.8000 309.0000 1.0000
64.8100 311.0000 1.0000
64.8200 333.0000 1.0000
64.8300 353.0000 1.0000
64.8400 314.0000 1.0000
64.8500 280.0000 1.0000
64.8600 301.0000 1.0000
64.8700 289.0000 1.0000
64.8800 296.0000 1.0000
64.8900 337.0000 1.0000
64.9000 328.0000 1.0000
64.9100 307.0000 1.0000
64.9200 345.0000 1.0000
64.9300 369.0000 1.0000
64.9400 331.0000 1.0000
64.9500 307.0000 1.0000
64.9600 293.0000 1.0000
64.9700 296.0000 1.0000
64.9800 324.0000 1.0000
64.9900 332.0000 1.0000
65.0000 362.0000 1.0000
65.0100 325.0000 1.0000
65.0200 330.0000 1.0000
65.0300 345.0000 1.0000
65.0400 327.0000 1.0000
65.0500 335.0000 1.0000
65.0600 343.0000 1.0000
65.0700 342.0000 1.0000
65.0800 354.0000 1.0000
65.0900 332.0000 1.0000
65.1000 359.0000 1.0000
65.1100 361.0000 1.0000
65.1200 349.0000 1.0000
65.1300 377.0000 1.0000
65.1400 361.0000 1.0000
65.1500 350.0000 1.0000
65.1600 372.0000 1.0000
65.1700 350.0000 1.0000
65.1800 357.0000 1.0000
65.1900 354.0000 1.0000
65.2000 362.0000 1.0000
65.2100 369.0000 1.0000
65.2200 382.0000 1.0000
65.2300 387.0000 1.0000
65.2400 382.0000 1.0000
65.2500 431.0000 1.0000
65.2600 439.0000 1.0000
65.2700 416.0000 1.0000
65.2800 436.0000 1.0000
65.2900 452.0000 1.0000
65.3000 427.0000 1.0000
65.3100 474.0000 1.0000
65.3200 463.0000 1.0000
65.3300 484.0000 1.0000
65.3400 509.0000 1.0000
65.3500 507.0000 1.0000
65.3600 528.0000 1.0000
65.3700 587.0000 1.0000
65.3800 549.0000 1.0000
65.3900 605.0000 1.0000
65.4000 598.0000 1.0000
65.4100 669.0000 1.0000
65.4200 717.0000 1.0000
65.4300 666.0000 1.0000
65.4400 695.0000 1.0000
65.4500 726.0000 1.0000
65.4600 777.0000 1.0000
65.4700 828.0000 1.0000
65.4800 834.0000 1.0000
65.4900 845.0000 1.0000
65.5000 903.0000 1.0000
65.5100 911.0000 1.0000
65.5200 988.0000 1.0000
65.5300 906.0000 1.0000
65.5400 940.0000 1.0000
65.5500 984.0000 1.0000
65.5600 1015.0000 1.0000
65.5700 948.0000 1.0000
65.5800 1000.0000 1.0000
65.5900 987.0000 1.0000
65.6000 993.0000 1.0000
65.6100 920.0000 1.0000
65.6200 919.0000 1.0000
65.6300 958.0000 1.0000
65.6400 891.0000 1.0000
65.6500 837.0000 1.0000
65.6600 841.0000 1.0000
65.6700 878.0000 1.0000
65.6800 785.0000 1.0000
65.6900 777.0000 1.0000
65.7000 834.0000 1.0000
65.7100 811.0000 1.0000
65.7200 800.0000 1.0000
65.7300 779.0000 1.0000
65.7400 775.0000 1.0000
65.7500 775.0000 1.0000
65.7600 729.0000 1.0000
65.7700 677.0000 1.0000
65.7800 681.0000 1.0000
65.7900 634.0000 1.0000
65.8000 623.0000 1.0000
65.8100 620.0000 1.0000
65.8200 600.0000 1.0000
65.8300 573.0000 1.0000
65.8400 538.0000 1.0000
65.8500 523.0000 1.0000
65.8600 522.0000 1.0000
65.8700 533.0000 1.0000
65.8800 467.0000 1.0000
65.8900 496.0000 1.0000
65.9000 484.0000 1.0000
65.9100 472.0000 1.0000
65.9200 430.0000 1.0000
65.9300 440.0000 1.0000
65.9400 447.0000 1.0000
65.9500 453.0000 1.0000
65.9600 417.0000 1.0000
65.9700 375.0000 1.0000
65.9800 383.0000 1.0000
65.9900 398.0000 1.0000
66.0000 366.0000 1.0000
66.0100 358.0000 1.0000
66.0200 357.0000 1.0000
66.0300 378.0000 1.0000
66.0400 400.0000 1.0000
66.0500 378.0000 1.0000
66.0600 363.0000 1.0000
66.0700 358.0000 1.0000
66.0800 362.0000 1.0000
66.0900 358.0000 1.0000
66.1000 322.0000 1.0000
66.1100 340.0000 1.0000
66.1200 329.0000 1.0000
66.1300 351.0000 1.0000
66.1400 317.0000 1.0000
66.1500 342.0000 1.0000
66.1600 351.0000 1.0000
66.1700 336.0000 1.0000
66.1800 355.0000 1.0000
66.1900 356.0000 1.0000
66.2000 352.0000 1.0000
66.2100 304.0000 1.0000
66.2200 338.0000 1.0000
66.2300 349.0000 1.0000
66.2400 338.0000 1.0000
66.2500 325.0000 1.0000
66.2600 326.0000 1.0000
66.2700 312.0000 1.0000
66.2800 306.0000 1.0000
66.2900 308.0000 1.0000
66.3000 312.0000 1.0000
66.3100 281.0000 1.0000
66.3200 284.0000 1.0000
66.3300 315.0000 1.0000
66.3400 312.0000 1.0000
66.3500 308.0000 1.0000
66.3600 340.0000 1.0000
66.3700 337.0000 1.0000
66.3800 302.0000 1.0000
66.3900 324.0000 1.0000
66.4000 302.0000 1.0000
66.4100 291.0000 1.0000
66.4200 267.0000 1.0000
66.4300 303.0000 1.0000
66.4400 306.0000 1.0000
66.4500 300.0000 1.0000
66.4600 296.0000 1.0000
66.4700 308.0000 1.0000
66.4800 329.0000 1.0000
66.4900 302.0000 1.0000
66.5000 295.0000 1.0000
66.5100 315.0000 1.0000
66.5200 312.0000 1.0000
66.5300 301.0000 1.0000
66.5400 292.0000 1.0000
66.5500 307.0000 1.0000
66.5600 304.0000 1.0000
66.5700 310.0000 1.0000
66.5800 297.0000 1.0000
66.5900 319.0000 1.0000
66.6000 304.0000 1.0000
66.6100 295.0000 1.0000
66.6200 291.0000 1.0000
66.6300 288.0000 1.0000
66.6400 301.0000 1.0000
66.6500 306.0000 1.0000
66.6600 287.0000 1.0000
66.6700 288.0000 1.0000
66.6800 318.0000 1.0000
66.6900 329.0000 1.0000
66.7000 307.0000 1.0000
66.7100 288.0000 1.0000
66.7200 286.0000 1.0000
66.7300 284.0000 1.0000
66.7400 307.0000 1.0000
66.7500 269.0000 1.0000
66.7600 309.0000 1.0000
66.7700 311.0000 1.0000
66.7800 285.0000 1.0000
66.7900 306.0000 1.0000
66.8000 287.0000 1.0000
66.8100 310.0000 1.0000
66.8200 295.0000 1.0000
66.8300 303.0000 1.0000
66.8400 300.0000 1.0000
66.8500 297.0000 1.0000
66.8600 308.0000 1.0000
66.8700 288.0000 1.0000
66.8800 278.0000 1.0000
66.8900 303.0000 1.0000
66.9000 282.0000 1.0000
66.9100 295.0000 1.0000
66.9200 302.0000 1.0000
66.9300 290.0000 1.0000
66.9400 302.0000 1.0000
66.9500 279.0000 1.0000
66.9600 289.0000 1.0000
66.9700 305.0000 1.0000
66.9800 305.0000 1.0000
66.9900 314.0000 1.0000
67.0000 298.0000 1.0000
67.0100 309.0000 1.0000
67.0200 313.0000 1.0000
67.0300 277.0000 1.0000
67.0400 302.0000 1.0000
67.0500 303.0000 1.0000
67.0600 281.0000 1.0000
67.0700 293.0000 1.0000
67.0800 302.0000 1.0000
67.0900 277.0000 1.0000
67.1000 290.0000 1.0000
67.1100 305.0000 1.0000
67.1200 277.0000 1.0000
67.1300 303.0000 1.0000
67.1400 318.0000 1.0000
67.1500 301.0000 1.0000
67.1600 298.0000 1.0000
67.1700 307.0000 1.0000
67.1800 321.0000 1.0000
67.1900 318.0000 1.0000
67.2000 280.0000 1.0000
67.2100 296.0000 1.0000
67.2200 283.0000 1.0000
67.2300 285.0000 1.0000
67.2400 275.0000 1.0000
67.2500 285.0000 1.0000
67.2600 303.0000 1.0000
67.2700 292.0000 1.0000
67.2800 310.0000 1.0000
67.2900 305.0000 1.0000
67.3000 294.0000 1.0000
67.3100 292.0000 1.0000
67.3200 323.0000 1.0000
67.3300 313.0000 1.0000
67.3400 292.0000 1.0000
67.3500 272.0000 1.0000
67.3600 286.0000 1.0000
67.3700 297.0000 1.0000
67.3800 274.0000 1.0000
67.3900 284.0000 1.0000
67.4000 304.0000 1.0000
67.4100 314.0000 1.0000
67.4200 300.0000 1.0000
67.4300 287.0000 1.0000
67.4400 300.0000 1.0000
67.4500 278.0000 1.0000
67.4600 243.0000 1.0000
67.4700 281.0000 1.0000
67.4800 313.0000 1.0000
67.4900 297.0000 1.0000
67.5000 316.0000 1.0000
67.5100 271.0000 1.0000
67.5200 296.0000 1.0000
67.5300 314.0000 1.0000
67.5400 289.0000 1.0000
67.5500 280.0000 1.0000
67.5600 295.0000 1.0000
67.5700 289.0000 1.0000
67.5800 277.0000 1.0000
67.5900 275.0000 1.0000
67.6000 262.0000 1.0000
67.6100 281.0000 1.0000
67.6200 295.0000 1.0000
67.6300 283.0000 1.0000
67.6400 297.0000 1.0000
67.6500 291.0000 1.0000
67.6600 280.0000 1.0000
67.6700 279.0000 1.0000
67.6800 252.0000 1.0000
67.6900 272.0000 1.0000
67.7000 286.0000 1.0000
67.7100 294.0000 1.0000
67.7200 285.0000 1.0000
67.7300 286.0000 1.0000
67.7400 284.0000 1.0000
67.7500 285.0000 1.0000
67.7600 269.0000 1.0000
67.7700 270.0000 1.0000
67.7800 288.0000 1.0000
67.7900 293.0000 1.0000
67.8000 284.0000 1.0000
67.8100 268.0000 1.0000
67.8200 270.0000 1.0000
67.8300 302.0000 1.0000
67.8400 294.0000 1.0000
67.8500 284.0000 1.0000
67.8600 268.0000 1.0000
67.8700 295.0000 1.0000
67.8800 314.0000 1.0000
67.8900 317.0000 1.0000
67.9000 290.0000 1.0000
67.9100 293.0000 1.0000
67.9200 282.0000 1.0000
67.9300 287.0000 1.0000
67.9400 278.0000 1.0000
67.9500 303.0000 1.0000
67.9600 285.0000 1.0000
67.9700 289.0000 1.0000
67.9800 286.0000 1.0000
67.9900 290.0000 1.0000
68.0000 273.0000 1.0000
68.0100 285.0000 1.0000
68.0200 272.0000 1.0000
68.0300 285.0000 1.0000
68.0400 293.0000 1.0000
68.0500 310.0000 1.0000
68.0600 294.0000 1.0000
68.0700 306.0000 1.0000
68.0800 285.0000 1.0000
68.0900 279.0000 1.0000
68.1000 297.0000 1.0000
68.1100 301.0000 1.0000
68.1200 300.0000 1.0000
68.1300 271.0000 1.0000
68.1400 271.0000 1.0000
68.1500 292.0000 1.0000
68.1600 295.0000 1.0000
68.1700 280.0000 1.0000
68.1800 286.0000 1.0000
68.1900 265.0000 1.0000
68.2000 277.0000 1.0000
68.2100 293.0000 1.0000
68.2200 309.0000 1.0000
68.2300 313.0000 1.0000
68.2400 272.0000 1.0000
68.2500 262.0000 1.0000
68.2600 293.0000 1.0000
68.2700 262.0000 1.0000
68.2800 268.0000 1.0000
68.2900 273.0000 1.0000
68.3000 275.0000 1.0000
68.3100 281.0000 1.0000
68.3200 275.0000 1.0000
68.3300 284.0000 1.0000
68.3400 310.0000 1.0000
68.3500 285.0000 1.0000
68.3600 258.0000 1.0000
68.3700 276.0000 1.0000
68.3800 298.0000 1.0000
68.3900 261.0000 1.0000
68.4000 284.0000 1.0000
68.4100 296.0000 1.0000
68.4200 301.0000 1.0000
68.4300 287.0000 1.0000
68.4400 289.0000 1.0000
68.4500 282.0000 1.0000
68.4600 279.0000 1.0000
68.4700 296.0000 1.0000
68.4800 270.0000 1.0000
68.4900 311.0000 1.0000
68.5000 279.0000 1.0000
68.5100 275.0000 1.0000
68.5200 289.0000 1.0000
68.5300 280.0000 1.0000
68.5400 289.0000 1.0000
68.5500 279.0000 1.0000
68.5600 281.0000 1.0000
68.5700 281.0000 1.0000
68.5800 293.0000 1.0000
68.5900 294.0000 1.0000
68.6000 299.0000 1.0000
68.6100 283.0000 1.0000
68.6200 288.0000 1.0000
68.6300 274.0000 1.0000
68.6400 257.0000 1.0000
68.6500 260.0000 1.0000
68.6600 273.0000 1.0000
68.6700 279.0000 1.0000
68.6800 275.0000 1.0000
68.6900 281.0000 1.0000
68.7000 278.0000 1.0000
68.7100 295.0000 1.0000
68.7200 281.0000 1.0000
68.7300 271.0000 1.0000
68.7400 278.0000 1.0000
68.7500 296.0000 1.0000
68.7600 287.0000 1.0000
68.7700 271.0000 1.0000
68.7800 292.0000 1.0000
68.7900 283.0000 1.0000
68.8000 276.0000 1.0000
68.8100 298.0000 1.0000
68.8200 266.0000 1.0000
68.8300 278.0000 1.0000
68.8400 314.0000 1.0000
68.8500 275.0000 1.0000
68.8600 263.0000 1.0000
68.8700 289.0000 1.0000
68.8800 278.0000 1.0000
68.8900 299.0000 1.0000
68.9000 275.0000 1.0000
68.9100 268.0000 1.0000
68.9200 292.0000 1.0000
68.9300 279.0000 1.0000
68.9400 274.0000 1.0000
68.9500 296.0000 1.0000
68.9600 302.0000 1.0000
68.9700 278.0000 1.0000
68.9800 291.0000 1.0000
68.9900 294.0000 1.0000
69.0000 308.0000 1.0000
69.0100 304.0000 1.0000
69.0200 267.0000 1.0000
69.0300 271.0000 1.0000
69.0400 262.0000 1.0000
69.0500 282.0000 1.0000
69.0600 278.0000 1.0000
69.0700 284.0000 1.0000
69.0800 287.0000 1.0000
69.0900 303.0000 1.0000
69.1000 272.0000 1.0000
69.1100 292.0000 1.0000
69.1200 288.0000 1.0000
69.1300 308.0000 1.0000
69.1400 277.0000 1.0000
69.1500 263.0000 1.0000
69.1600 287.0000 1.0000
69.1700 286.0000 1.0000
69.1800 307.0000 1.0000
69.1900 298.0000 1.0000
69.2000 278.0000 1.0000
69.2100 278.0000 1.0000
69.2200 262.0000 1.0000
69.2300 294.0000 1.0000
69.2400 293.0000 1.0000
69.2500 275.0000 1.0000
69.2600 278.0000 1.0000
69.2700 291.0000 1.0000
69.2800 296.0000 1.0000
69.2900 280.0000 1.0000
69.3000 268.0000 1.0000
69.3100 305.0000 1.0000
69.3200 280.0000 1.0000
69.3300 277.0000 1.0000
69.3400 273.0000 1.0000
69.3500 271.0000 1.0000
69.3600 283.0000 1.0000
69.3700 259.0000 1.0000
69.3800 305.0000 1.0000
69.3900 276.0000 1.0000
69.4000 276.0000 1.0000
69.4100 276.0000 1.0000
69.4200 265.0000 1.0000
69.4300 281.0000 1.0000
69.4400 283.0000 1.0000
69.4500 292.0000 1.0000
69.4600 266.0000 1.0000
69.4700 263.0000 1.0000
69.4800 276.0000 1.0000
69.4900 292.0000 1.0000
69.5000 273.0000 1.0000
69.5100 258.0000 1.0000
69.5200 273.0000 1.0000
69.5300 289.0000 1.0000
69.5400 278.0000 1.0000
69.5500 280.0000 1.0000
69.5600 280.0000 1.0000
69.5700 243.0000 1.0000
69.5800 268.0000 1.0000
69.5900 261.0000 1.0000
69.6000 260.0000 1.0000
69.6100 288.0000 1.0000
69.6200 281.0000 1.0000
69.6300 297.0000 1.0000
69.6400 266.0000 1.0000
69.6500 267.0000 1.0000
69.6600 262.0000 1.0000
69.6700 297.0000 1.0000
69.6800 280.0000 1.0000
69.6900 284.0000 1.0000
69.7000 284.0000 1.0000
69.7100 280.0000 1.0000
69.7200 259.0000 1.0000
69.7300 270.0000 1.0000
69.7400 267.0000 1.0000
69.7500 263.0000 1.0000
69.7600 270.0000 1.0000
69.7700 261.0000 1.0000
69.7800 277.0000 1.0000
69.7900 288.0000 1.0000
69.8000 263.0000 1.0000
69.8100 255.0000 1.0000
69.8200 271.0000 1.0000
69.8300 266.0000 1.0000
69.8400 265.0000 1.0000
69.8500 288.0000 1.0000
69.8600 294.0000 1.0000
69.8700 270.0000 1.0000
69.8800 284.0000 1.0000
69.8900 277.0000 1.0000
69.9000 282.0000 1.0000
69.9100 299.0000 1.0000
69.9200 263.0000 1.0000
69.9300 284.0000 1.0000
69.9400 264.0000 1.0000
69.9500 281.0000 1.0000
69.9600 272.0000 1.0000
69.9700 275.0000 1.0000
69.9800 287.0000 1.0000
69.9900 276.0000 1.0000
70.0000 269.0000 1.0000
*RAS_INT_END
*RAS_TEMPERATURE_START
*RAS_TEMPERATURE_END
*RAS_DATA_END
