*RAS_DATA_START
*RAS_HEADER_START
*DISP_FMT_X "%.2f"
*DISP_FMT_Y "%.0f"
*DISP_FULLSCALE "14200.0000000000"
*DISP_LINE_COLOR "255.0000000000"
*DISP_LINE_STYLE "0.0000000000"
*DISP_LINE_WIDTH "0.2500000000"
*DISP_NOTE "測定データ-4"
*DISP_OFFSET_Y "0.0000000000"
*DISP_PEAKSEARCH_UNIT_Y "cps"
*DISP_RANGE_BOTTOM "0.0000000000"
*DISP_RANGE_LEFT "20.0000000000"
*DISP_RANGE_LOGCUTOFF "0.0100000000"
*DISP_RANGE_RIGHT "70.0000000000"
*DISP_RANGE_TOP "14200.0000000000"
*DISP_SCALE_MODE_Y "0.0000000000"
*DISP_TAB_NAME "2θ/θ"
*DISP_TITLE_Y "強度"
*DISP_UNIT_Y "cps"
*DISP_WINDOW_NAME "MSG_MACROENGINE"
*FILE_COMMENT " "
*FILE_MD5 ""
*FILE_MEMO " "
*FILE_OPERATOR "Administrator"
*FILE_SAMPLE " "
*FILE_TYPE "RAS_RAW"
*FILE_USERGROUP "システムマネージャ"
*FILE_VERSION "1.0000000000"
*HW_ATTACHMENT_ID "ATT0025"
*HW_ATTACHMENT_NAME "標準|Standard"
*HW_COUNTER_ID-0 "CUT0025"
*HW_COUNTER_ID-1 "CUT0020"
*HW_COUNTER_ID-2 "CUT0020"
*HW_COUNTER_ID-3 "CSL0021"
*HW_COUNTER_ID-4 "CMC0021"
*HW_COUNTER_NAME-0 "D/teX Ultra|D/teX Ultra"
*HW_COUNTER_NAME-1 "None|None"
*HW_COUNTER_NAME-2 "None|None"
*HW_COUNTER_NAME-3 "BBM|BBM"
*HW_COUNTER_NAME-4 "検出器モノクロメータ|Detector monochromator"
*HW_COUNTER_SELECT_NAME "D/teX Ultra|D/teX Ultra"
*HW_GONIOMETER_ID "GON0023"
*HW_GONIOMETER_NAME "SmartLab|SmartLab"
*HW_GONIOMETER_RADIUS-0 "90.0"
*HW_GONIOMETER_RADIUS-1 "114.0"
*HW_GONIOMETER_RADIUS-2 "190.0"
*HW_GONIOMETER_RADIUS-3 "300.0"
*HW_GONIOMETER_RADIUS-4 "187.0"
*HW_GONIOMETER_RADIUS-5 "300.0"
*HW_GONIOMETER_RADIUS-6 "113.0"
*HW_GONIOMETER_RADIUS-7 "331.0"
*HW_I_OPT_ID-0 "CBO0021"
*HW_I_OPT_ID-1 "ICR0023"
*HW_I_OPT_ID-2 "ISL0021"
*HW_I_OPT_ID-3 "ISO0021"
*HW_I_OPT_ID-4 "IAD0021"
*HW_I_OPT_ID-5 "IPR0001"
*HW_I_OPT_NAME-0 "CBOユニット|CBO unit"
*HW_I_OPT_NAME-1 "標準入射光学ユニット|Standard incident optical unit"
*HW_I_OPT_NAME-2 "標準入射スリットボックス|Standard incident slit box"
*HW_I_OPT_NAME-3 "入射平行スリット|Incident parallel slit"
*HW_I_OPT_NAME-4 "長手制限スリット|Length limiting slit"
*HW_I_OPT_NAME-5 "None|None"
*HW_R_ATTENUATER_AUTOMODE "0"
*HW_R_OPT_ID-0 "RSS0021"
*HW_R_OPT_ID-1 "RCR0023"
*HW_R_OPT_ID-2 "RSO0021"
*HW_R_OPT_ID-3 "RRS0021"
*HW_R_OPT_ID-4 "ATN0021"
*HW_R_OPT_ID-5 "RFL0021"
*HW_R_OPT_ID-6 "RAD0021"
*HW_R_OPT_NAME-0 "標準受光スリットボックス1|Standard receiving slit box # 1"
*HW_R_OPT_NAME-1 "標準受光光学ユニット1|Standard receiving unit # 1"
*HW_R_OPT_NAME-2 "標準受光光学ユニット2|Standard receiving optical unit # 2"
*HW_R_OPT_NAME-3 "標準受光スリットボックス2|Standard receiving slit box # 2"
*HW_R_OPT_NAME-4 "標準アッテネータ|Standard Attenuator"
*HW_R_OPT_NAME-5 "Cu Kβ|Cu K-beta"
*HW_R_OPT_NAME-6 "調整用受光スリット|Alignment receiving slit"
*HW_SAMPLE_HOLDER_ID "SMP0023"
*HW_SAMPLE_HOLDER_NAME "標準Zステージ|Standard Z stage"
*HW_XG_CURRENT_MAX "50"
*HW_XG_CURRENT_MIN "2"
*HW_XG_CURRENT_RESOLUTION "1"
*HW_XG_CURRENT_UNIT "mA"
*HW_XG_FOCUS "1mm x 10mm"
*HW_XG_FOCUS_TYPE "Normal"
*HW_XG_ID ""
*HW_XG_NAME "3kW 封入管(ID:1200)|3kW Sealed tube(ID:1200)"
*HW_XG_TARGET_ATOMIC_NUMBER "29.0000000000"
*HW_XG_TARGET_NAME "Cu"
*HW_XG_TYPE "Hermetic"
*HW_XG_VOLTAGE_MAX "60"
*HW_XG_VOLTAGE_MIN "20"
*HW_XG_VOLTAGE_RESOLUTION "1"
*HW_XG_VOLTAGE_UNIT "kV"
*HW_XG_WATT_MAX "1.500"
*HW_XG_WATT_UNIT "kW"
*HW_XG_WAVE_LENGTH_ALPHA1 "1.540593"
*HW_XG_WAVE_LENGTH_ALPHA2 "1.544414"
*HW_XG_WAVE_LENGTH_BETA "1.392250"
*MEAS_COND_AXIS_NAME-0 "2θ/θ"
*MEAS_COND_AXIS_NAME-1 "2θ"
*MEAS_COND_AXIS_NAME-2 "ω"
*MEAS_COND_AXIS_NAME-3 "Z"
*MEAS_COND_AXIS_NAME-4 "2θ/ω"
*MEAS_COND_AXIS_NAME-5 "θs"
*MEAS_COND_AXIS_NAME-6 "θd"
*MEAS_COND_AXIS_NAME-7 "Ts"
*MEAS_COND_AXIS_NAME-8 "CBO選択スリット"
*MEAS_COND_AXIS_NAME-9 "M"
*MEAS_COND_AXIS_NAME-10 "入射平行スリット"
*MEAS_COND_AXIS_NAME-11 "入射スリット"
*MEAS_COND_AXIS_NAME-12 ""
*MEAS_COND_AXIS_NAME-13 "Zs"
*MEAS_COND_AXIS_NAME-14 "入射光学素子"
*MEAS_COND_AXIS_NAME-15 "長手制限スリット"
*MEAS_COND_AXIS_NAME-16 "センタースリット"
*MEAS_COND_AXIS_NAME-17 "フィルター"
*MEAS_COND_AXIS_NAME-18 "受光スリット1"
*MEAS_COND_AXIS_NAME-19 "受光スリット2"
*MEAS_COND_AXIS_NAME-20 "受光光学素子"
*MEAS_COND_AXIS_NAME-21 "受光平行スリット"
*MEAS_COND_AXIS_NAME-22 "調整用受光スリット"
*MEAS_COND_AXIS_NAME-23 ""
*MEAS_COND_AXIS_NAME-24 ""
*MEAS_COND_AXIS_NAME-25 "Zd"
*MEAS_COND_AXIS_NAME-26 "アッテネータ"
*MEAS_COND_AXIS_NAME-27 "検出器モノクロメータ"
*MEAS_COND_AXIS_NAME-28 "モノクロメータスリット"
*MEAS_COND_AXIS_NAME-29 "プライマリビーム"
*MEAS_COND_AXIS_NAME-30 "PHA"
*MEAS_COND_AXIS_NAME_INTERNAL-0 "TwoThetaTheta"
*MEAS_COND_AXIS_NAME_INTERNAL-1 "TwoTheta"
*MEAS_COND_AXIS_NAME_INTERNAL-2 "Omega"
*MEAS_COND_AXIS_NAME_INTERNAL-3 "Z"
*MEAS_COND_AXIS_NAME_INTERNAL-4 "TwoThetaOmega"
*MEAS_COND_AXIS_NAME_INTERNAL-5 "ThetaS"
*MEAS_COND_AXIS_NAME_INTERNAL-6 "ThetaD"
*MEAS_COND_AXIS_NAME_INTERNAL-7 "Ts"
*MEAS_COND_AXIS_NAME_INTERNAL-8 "CBO"
*MEAS_COND_AXIS_NAME_INTERNAL-9 "CBO-M"
*MEAS_COND_AXIS_NAME_INTERNAL-10 "IncidentSollerSlit"
*MEAS_COND_AXIS_NAME_INTERNAL-11 "IncidentSlitBox"
*MEAS_COND_AXIS_NAME_INTERNAL-12 "IncidentSlitBox-_Axis"
*MEAS_COND_AXIS_NAME_INTERNAL-13 "Zs"
*MEAS_COND_AXIS_NAME_INTERNAL-14 "IncidentMonochromator"
*MEAS_COND_AXIS_NAME_INTERNAL-15 "IncidentAxdSlit"
*MEAS_COND_AXIS_NAME_INTERNAL-16 "CenterSlit"
*MEAS_COND_AXIS_NAME_INTERNAL-17 "Filter"
*MEAS_COND_AXIS_NAME_INTERNAL-18 "ReceivingSlitBox1"
*MEAS_COND_AXIS_NAME_INTERNAL-19 "ReceivingSlitBox2"
*MEAS_COND_AXIS_NAME_INTERNAL-20 "ReceivingOptics"
*MEAS_COND_AXIS_NAME_INTERNAL-21 "ReceivingSollerSlit"
*MEAS_COND_AXIS_NAME_INTERNAL-22 "ReceivingAxdSlit"
*MEAS_COND_AXIS_NAME_INTERNAL-23 "ReceivingSlitBox1-_Axis"
*MEAS_COND_AXIS_NAME_INTERNAL-24 "ReceivingSlitBox2-_Axis"
*MEAS_COND_AXIS_NAME_INTERNAL-25 "ReceivingSlitBox2-Zd"
*MEAS_COND_AXIS_NAME_INTERNAL-26 "Attenuator"
*MEAS_COND_AXIS_NAME_INTERNAL-27 "CounterMonochromator"
*MEAS_COND_AXIS_NAME_INTERNAL-28 "CounterSlit"
*MEAS_COND_AXIS_NAME_INTERNAL-29 "IncidentPrimary"
*MEAS_COND_AXIS_NAME_INTERNAL-30 "PHA"
*MEAS_COND_AXIS_NAME_MAGICNO-0 "83951616.0000000000"
*MEAS_COND_AXIS_NAME_MAGICNO-1 "268632064.0000000000"
*MEAS_COND_AXIS_NAME_MAGICNO-2 "268500992.0000000000"
*MEAS_COND_AXIS_NAME_MAGICNO-3 "285278208.0000000000"
*MEAS_COND_AXIS_NAME_MAGICNO-4 "83951616.0000000000"
*MEAS_COND_AXIS_NAME_MAGICNO-5 "131072.0000000000"
*MEAS_COND_AXIS_NAME_MAGICNO-6 "131072.0000000000"
*MEAS_COND_AXIS_NAME_MAGICNO-7 "318898176.0000000000"
*MEAS_COND_AXIS_NAME_MAGICNO-8 "20971521.0000000000"
*MEAS_COND_AXIS_NAME_MAGICNO-9 "285343744.0000000000"
*MEAS_COND_AXIS_NAME_MAGICNO-10 "20971521.0000000000"
*MEAS_COND_AXIS_NAME_MAGICNO-11 "22020097.0000000000"
*MEAS_COND_AXIS_NAME_MAGICNO-12 "25165824.0000000000"
*MEAS_COND_AXIS_NAME_MAGICNO-13 "318898176.0000000000"
*MEAS_COND_AXIS_NAME_MAGICNO-14 "1.0000000000"
*MEAS_COND_AXIS_NAME_MAGICNO-15 "20971521.0000000000"
*MEAS_COND_AXIS_NAME_MAGICNO-16 "20971521.0000000000"
*MEAS_COND_AXIS_NAME_MAGICNO-17 "20971521.0000000000"
*MEAS_COND_AXIS_NAME_MAGICNO-18 "23068673.0000000000"
*MEAS_COND_AXIS_NAME_MAGICNO-19 "23068673.0000000000"
*MEAS_COND_AXIS_NAME_MAGICNO-20 "20971521.0000000000"
*MEAS_COND_AXIS_NAME_MAGICNO-21 "20971521.0000000000"
*MEAS_COND_AXIS_NAME_MAGICNO-22 "20971521.0000000000"
*MEAS_COND_AXIS_NAME_MAGICNO-23 "25165824.0000000000"
*MEAS_COND_AXIS_NAME_MAGICNO-24 "25165824.0000000000"
*MEAS_COND_AXIS_NAME_MAGICNO-25 "285343744.0000000000"
*MEAS_COND_AXIS_NAME_MAGICNO-26 "17301505.0000000000"
*MEAS_COND_AXIS_NAME_MAGICNO-27 "20971521.0000000000"
*MEAS_COND_AXIS_NAME_MAGICNO-28 "20971521.0000000000"
*MEAS_COND_AXIS_NAME_MAGICNO-29 "20971521.0000000000"
*MEAS_COND_AXIS_NAME_MAGICNO-30 "0.0000000000"
*MEAS_COND_AXIS_OFFSET-0 "-"
*MEAS_COND_AXIS_OFFSET-1 "-0.0310000000"
*MEAS_COND_AXIS_OFFSET-2 "0.5056000000"
*MEAS_COND_AXIS_OFFSET-3 "-"
*MEAS_COND_AXIS_OFFSET-4 "-"
*MEAS_COND_AXIS_OFFSET-5 "0.5056000000"
*MEAS_COND_AXIS_OFFSET-6 "-0.5366000000"
*MEAS_COND_AXIS_OFFSET-7 "-"
*MEAS_COND_AXIS_OFFSET-8 "-"
*MEAS_COND_AXIS_OFFSET-9 "-"
*MEAS_COND_AXIS_OFFSET-10 "-"
*MEAS_COND_AXIS_OFFSET-11 "-"
*MEAS_COND_AXIS_OFFSET-12 "-"
*MEAS_COND_AXIS_OFFSET-13 "-"
*MEAS_COND_AXIS_OFFSET-14 "-"
*MEAS_COND_AXIS_OFFSET-15 "-"
*MEAS_COND_AXIS_OFFSET-16 "-"
*MEAS_COND_AXIS_OFFSET-17 "-"
*MEAS_COND_AXIS_OFFSET-18 "-"
*MEAS_COND_AXIS_OFFSET-19 "-"
*MEAS_COND_AXIS_OFFSET-20 "-"
*MEAS_COND_AXIS_OFFSET-21 "-"
*MEAS_COND_AXIS_OFFSET-22 "-"
*MEAS_COND_AXIS_OFFSET-23 "-"
*MEAS_COND_AXIS_OFFSET-24 "-"
*MEAS_COND_AXIS_OFFSET-25 "-"
*MEAS_COND_AXIS_OFFSET-26 "-"
*MEAS_COND_AXIS_OFFSET-27 "-"
*MEAS_COND_AXIS_OFFSET-28 "-"
*MEAS_COND_AXIS_OFFSET-29 "-"
*MEAS_COND_AXIS_OFFSET-30 "-"
*MEAS_COND_AXIS_POSITION-0 "0.0000000000"
*MEAS_COND_AXIS_POSITION-1 "0.0000000000"
*MEAS_COND_AXIS_POSITION-2 "0.0000000000"
*MEAS_COND_AXIS_POSITION-3 "-2.9031400000"
*MEAS_COND_AXIS_POSITION-4 "0.0000000000"
*MEAS_COND_AXIS_POSITION-5 "0.0000000000"
*MEAS_COND_AXIS_POSITION-6 "0.0000000000"
*MEAS_COND_AXIS_POSITION-7 "-0.7498700000"
*MEAS_COND_AXIS_POSITION-8 "BB"
*MEAS_COND_AXIS_POSITION-9 "0.0000000000"
*MEAS_COND_AXIS_POSITION-10 "Soller_slit_5.0deg"
*MEAS_COND_AXIS_POSITION-11 "2/3deg"
*MEAS_COND_AXIS_POSITION-12 "2.2088000000"
*MEAS_COND_AXIS_POSITION-13 "-0.6412500000"
*MEAS_COND_AXIS_POSITION-14 "0.0000000000"
*MEAS_COND_AXIS_POSITION-15 "10.0mm"
*MEAS_COND_AXIS_POSITION-16 "None"
*MEAS_COND_AXIS_POSITION-17 "Cu_K-beta"
*MEAS_COND_AXIS_POSITION-18 "13.000mm"
*MEAS_COND_AXIS_POSITION-19 "13.000mm"
*MEAS_COND_AXIS_POSITION-20 "No_unit"
*MEAS_COND_AXIS_POSITION-21 "Soller_slit_5.0deg"
*MEAS_COND_AXIS_POSITION-22 "None"
*MEAS_COND_AXIS_POSITION-23 "13.0000000000"
*MEAS_COND_AXIS_POSITION-24 "13.0000000000"
*MEAS_COND_AXIS_POSITION-25 "0.0281300000"
*MEAS_COND_AXIS_POSITION-26 "Open"
*MEAS_COND_AXIS_POSITION-27 "None"
*MEAS_COND_AXIS_POSITION-28 "None"
*MEAS_COND_AXIS_POSITION-29 "None"
*MEAS_COND_AXIS_POSITION-30 "38.0000000000"
*MEAS_COND_AXIS_UNIT-0 "deg"
*MEAS_COND_AXIS_UNIT-1 "deg"
*MEAS_COND_AXIS_UNIT-2 "deg"
*MEAS_COND_AXIS_UNIT-3 "mm"
*MEAS_COND_AXIS_UNIT-4 "deg"
*MEAS_COND_AXIS_UNIT-5 "deg"
*MEAS_COND_AXIS_UNIT-6 "deg"
*MEAS_COND_AXIS_UNIT-7 "mm"
*MEAS_COND_AXIS_UNIT-8 ""
*MEAS_COND_AXIS_UNIT-9 "pulse"
*MEAS_COND_AXIS_UNIT-10 ""
*MEAS_COND_AXIS_UNIT-11 ""
*MEAS_COND_AXIS_UNIT-12 "mm"
*MEAS_COND_AXIS_UNIT-13 "mm"
*MEAS_COND_AXIS_UNIT-14 ""
*MEAS_COND_AXIS_UNIT-15 ""
*MEAS_COND_AXIS_UNIT-16 ""
*MEAS_COND_AXIS_UNIT-17 ""
*MEAS_COND_AXIS_UNIT-18 ""
*MEAS_COND_AXIS_UNIT-19 ""
*MEAS_COND_AXIS_UNIT-20 ""
*MEAS_COND_AXIS_UNIT-21 ""
*MEAS_COND_AXIS_UNIT-22 ""
*MEAS_COND_AXIS_UNIT-23 "mm"
*MEAS_COND_AXIS_UNIT-24 "mm"
*MEAS_COND_AXIS_UNIT-25 "mm"
*MEAS_COND_AXIS_UNIT-26 ""
*MEAS_COND_AXIS_UNIT-27 ""
*MEAS_COND_AXIS_UNIT-28 ""
*MEAS_COND_AXIS_UNIT-29 ""
*MEAS_COND_AXIS_UNIT-30 "div"
*MEAS_COND_COUNTER_CNTLOSS_CORR "0.0000000000"
*MEAS_COND_COUNTER_PHABASE "38.0000000000"
*MEAS_COND_COUNTER_PHAWINDOW "16.0000000000"
*MEAS_COND_COUNTER_PHA_UNIT "div"
*MEAS_COND_COUNTER_TAUDIFF "30.0000000000"
*MEAS_COND_COUNTER_TAUINT "0.0000000000"
*MEAS_COND_IRRADIATION_MODE "OFF"
*MEAS_COND_IRRADIATION_WIDTH ""
*MEAS_COND_OPT_ATTR "集中法"
*MEAS_COND_OPT_NAME "@集中法"
*MEAS_COND_UNSYMMETRIC_MODE "OFF"
*MEAS_COND_XG_CURRENT "30.0000000000"
*MEAS_COND_XG_VOLTAGE "40.0000000000"
*MEAS_COND_XG_WAVE_TYPE "Ka"
*MEAS_DATA_COUNT "5001.0000000000"
*MEAS_SCAN_AXIS_X "2θ/θ"
*MEAS_SCAN_AXIS_X_INTERNAL "TwoThetaTheta"
*MEAS_SCAN_END_TIME "07/27/23 20:50:29"
*MEAS_SCAN_MODE "CONTINUOUS"
*MEAS_SCAN_MONITOR "0"
*MEAS_SCAN_RESOLUTION_X "0.0002"
*MEAS_SCAN_SPEED "2.5"
*MEAS_SCAN_SPEED_UNIT "deg/min"
*MEAS_SCAN_START "20.0000000000"
*MEAS_SCAN_START_TIME "07/27/23 20:29:05"
*MEAS_SCAN_STEP "0.0100000000"
*MEAS_SCAN_STOP "70.0000000000"
*MEAS_SCAN_UNIT_X "deg"
*MEAS_SCAN_UNIT_Y "counts"
*RAS_HEADER_END
*RAS_INT_START
20.0000 833.0000 1.0000
20.0100 851.0000 1.0000
20.0200 887.0000 1.0000
20.0300 913.0000 1.0000
20.0400 848.0000 1.0000
20.0500 850.0000 1.0000
20.0600 869.0000 1.0000
20.0700 845.0000 1.0000
20.0800 879.0000 1.0000
20.0900 897.0000 1.0000
20.1000 858.0000 1.0000
20.1100 846.0000 1.0000
20.1200 821.0000 1.0000
20.1300 857.0000 1.0000
20.1400 823.0000 1.0000
20.1500 800.0000 1.0000
20.1600 882.0000 1.0000
20.1700 878.0000 1.0000
20.1800 787.0000 1.0000
20.1900 843.0000 1.0000
20.2000 814.0000 1.0000
20.2100 835.0000 1.0000
20.2200 864.0000 1.0000
20.2300 794.0000 1.0000
20.2400 852.0000 1.0000
20.2500 855.0000 1.0000
20.2600 883.0000 1.0000
20.2700 878.0000 1.0000
20.2800 873.0000 1.0000
20.2900 930.0000 1.0000
20.3000 837.0000 1.0000
20.3100 843.0000 1.0000
20.3200 862.0000 1.0000
20.3300 882.0000 1.0000
20.3400 865.0000 1.0000
20.3500 862.0000 1.0000
20.3600 877.0000 1.0000
20.3700 886.0000 1.0000
20.3800 904.0000 1.0000
20.3900 905.0000 1.0000
20.4000 867.0000 1.0000
20.4100 846.0000 1.0000
20.4200 858.0000 1.0000
20.4300 853.0000 1.0000
20.4400 844.0000 1.0000
20.4500 892.0000 1.0000
20.4600 864.0000 1.0000
20.4700 853.0000 1.0000
20.4800 890.0000 1.0000
20.4900 846.0000 1.0000
20.5000 829.0000 1.0000
20.5100 879.0000 1.0000
20.5200 868.0000 1.0000
20.5300 861.0000 1.0000
20.5400 848.0000 1.0000
20.5500 838.0000 1.0000
20.5600 842.0000 1.0000
20.5700 848.0000 1.0000
20.5800 825.0000 1.0000
20.5900 902.0000 1.0000
20.6000 872.0000 1.0000
20.6100 867.0000 1.0000
20.6200 838.0000 1.0000
20.6300 839.0000 1.0000
20.6400 901.0000 1.0000
20.6500 858.0000 1.0000
20.6600 918.0000 1.0000
20.6700 878.0000 1.0000
20.6800 870.0000 1.0000
20.6900 901.0000 1.0000
20.7000 862.0000 1.0000
20.7100 887.0000 1.0000
20.7200 841.0000 1.0000
20.7300 849.0000 1.0000
20.7400 861.0000 1.0000
20.7500 889.0000 1.0000
20.7600 866.0000 1.0000
20.7700 879.0000 1.0000
20.7800 889.0000 1.0000
20.7900 868.0000 1.0000
20.8000 862.0000 1.0000
20.8100 866.0000 1.0000
20.8200 883.0000 1.0000
20.8300 868.0000 1.0000
20.8400 825.0000 1.0000
20.8500 890.0000 1.0000
20.8600 928.0000 1.0000
20.8700 886.0000 1.0000
20.8800 925.0000 1.0000
20.8900 887.0000 1.0000
20.9000 832.0000 1.0000
20.9100 859.0000 1.0000
20.9200 798.0000 1.0000
20.9300 858.0000 1.0000
20.9400 935.0000 1.0000
20.9500 852.0000 1.0000
20.9600 875.0000 1.0000
20.9700 825.0000 1.0000
20.9800 909.0000 1.0000
20.9900 872.0000 1.0000
21.0000 840.0000 1.0000
21.0100 848.0000 1.0000
21.0200 839.0000 1.0000
21.0300 886.0000 1.0000
21.0400 886.0000 1.0000
21.0500 870.0000 1.0000
21.0600 844.0000 1.0000
21.0700 875.0000 1.0000
21.0800 853.0000 1.0000
21.0900 889.0000 1.0000
21.1000 914.0000 1.0000
21.1100 845.0000 1.0000
21.1200 847.0000 1.0000
21.1300 832.0000 1.0000
21.1400 871.0000 1.0000
21.1500 852.0000 1.0000
21.1600 863.0000 1.0000
21.1700 863.0000 1.0000
21.1800 859.0000 1.0000
21.1900 829.0000 1.0000
21.2000 850.0000 1.0000
21.2100 867.0000 1.0000
21.2200 860.0000 1.0000
21.2300 899.0000 1.0000
21.2400 863.0000 1.0000
21.2500 882.0000 1.0000
21.2600 877.0000 1.0000
21.2700 825.0000 1.0000
21.2800 821.0000 1.0000
21.2900 792.0000 1.0000
21.3000 859.0000 1.0000
21.3100 875.0000 1.0000
21.3200 845.0000 1.0000
21.3300 832.0000 1.0000
21.3400 865.0000 1.0000
21.3500 918.0000 1.0000
21.3600 839.0000 1.0000
21.3700 874.0000 1.0000
21.3800 819.0000 1.0000
21.3900 860.0000 1.0000
21.4000 851.0000 1.0000
21.4100 873.0000 1.0000
21.4200 874.0000 1.0000
21.4300 849.0000 1.0000
21.4400 816.0000 1.0000
21.4500 831.0000 1.0000
21.4600 872.0000 1.0000
21.4700 841.0000 1.0000
21.4800 862.0000 1.0000
21.4900 885.0000 1.0000
21.5000 857.0000 1.0000
21.5100 839.0000 1.0000
21.5200 848.0000 1.0000
21.5300 840.0000 1.0000
21.5400 859.0000 1.0000
21.5500 889.0000 1.0000
21.5600 816.0000 1.0000
21.5700 822.0000 1.0000
21.5800 854.0000 1.0000
21.5900 838.0000 1.0000
21.6000 879.0000 1.0000
21.6100 890.0000 1.0000
21.6200 860.0000 1.0000
21.6300 869.0000 1.0000
21.6400 880.0000 1.0000
21.6500 851.0000 1.0000
21.6600 835.0000 1.0000
21.6700 814.0000 1.0000
21.6800 848.0000 1.0000
21.6900 838.0000 1.0000
21.7000 837.0000 1.0000
21.7100 827.0000 1.0000
21.7200 828.0000 1.0000
21.7300 857.0000 1.0000
21.7400 871.0000 1.0000
21.7500 882.0000 1.0000
21.7600 875.0000 1.0000
21.7700 834.0000 1.0000
21.7800 817.0000 1.0000
21.7900 833.0000 1.0000
21.8000 870.0000 1.0000
21.8100 850.0000 1.0000
21.8200 827.0000 1.0000
21.8300 860.0000 1.0000
21.8400 860.0000 1.0000
21.8500 846.0000 1.0000
21.8600 853.0000 1.0000
21.8700 839.0000 1.0000
21.8800 836.0000 1.0000
21.8900 853.0000 1.0000
21.9000 841.0000 1.0000
21.9100 831.0000 1.0000
21.9200 828.0000 1.0000
21.9300 862.0000 1.0000
21.9400 803.0000 1.0000
21.9500 797.0000 1.0000
21.9600 875.0000 1.0000
21.9700 879.0000 1.0000
21.9800 860.0000 1.0000
21.9900 842.0000 1.0000
22.0000 881.0000 1.0000
22.0100 824.0000 1.0000
22.0200 854.0000 1.0000
22.0300 856.0000 1.0000
22.0400 799.0000 1.0000
22.0500 821.0000 1.0000
22.0600 833.0000 1.0000
22.0700 862.0000 1.0000
22.0800 850.0000 1.0000
22.0900 799.0000 1.0000
22.1000 868.0000 1.0000
22.1100 845.0000 1.0000
22.1200 861.0000 1.0000
22.1300 844.0000 1.0000
22.1400 809.0000 1.0000
22.1500 849.0000 1.0000
22.1600 846.0000 1.0000
22.1700 827.0000 1.0000
22.1800 854.0000 1.0000
22.1900 826.0000 1.0000
22.2000 832.0000 1.0000
22.2100 852.0000 1.0000
22.2200 842.0000 1.0000
22.2300 810.0000 1.0000
22.2400 873.0000 1.0000
22.2500 857.0000 1.0000
22.2600 888.0000 1.0000
22.2700 852.0000 1.0000
22.2800 867.0000 1.0000
22.2900 785.0000 1.0000
22.3000 766.0000 1.0000
22.3100 828.0000 1.0000
22.3200 848.0000 1.0000
22.3300 853.0000 1.0000
22.3400 823.0000 1.0000
22.3500 851.0000 1.0000
22.3600 845.0000 1.0000
22.3700 824.0000 1.0000
22.3800 843.0000 1.0000
22.3900 853.0000 1.0000
22.4000 847.0000 1.0000
22.4100 838.0000 1.0000
22.4200 851.0000 1.0000
22.4300 821.0000 1.0000
22.4400 810.0000 1.0000
22.4500 839.0000 1.0000
22.4600 840.0000 1.0000
22.4700 811.0000 1.0000
22.4800 804.0000 1.0000
22.4900 865.0000 1.0000
22.5000 840.0000 1.0000
22.5100 843.0000 1.0000
22.5200 824.0000 1.0000
22.5300 836.0000 1.0000
22.5400 924.0000 1.0000
22.5500 840.0000 1.0000
22.5600 850.0000 1.0000
22.5700 829.0000 1.0000
22.5800 824.0000 1.0000
22.5900 848.0000 1.0000
22.6000 866.0000 1.0000
22.6100 847.0000 1.0000
22.6200 823.0000 1.0000
22.6300 851.0000 1.0000
22.6400 845.0000 1.0000
22.6500 870.0000 1.0000
22.6600 893.0000 1.0000
22.6700 881.0000 1.0000
22.6800 843.0000 1.0000
22.6900 821.0000 1.0000
22.7000 847.0000 1.0000
22.7100 851.0000 1.0000
22.7200 833.0000 1.0000
22.7300 844.0000 1.0000
22.7400 860.0000 1.0000
22.7500 811.0000 1.0000
22.7600 823.0000 1.0000
22.7700 805.0000 1.0000
22.7800 810.0000 1.0000
22.7900 867.0000 1.0000
22.8000 833.0000 1.0000
22.8100 803.0000 1.0000
22.8200 861.0000 1.0000
22.8300 901.0000 1.0000
22.8400 810.0000 1.0000
22.8500 838.0000 1.0000
22.8600 837.0000 1.0000
22.8700 818.0000 1.0000
22.8800 819.0000 1.0000
22.8900 807.0000 1.0000
22.9000 817.0000 1.0000
22.9100 845.0000 1.0000
22.9200 824.0000 1.0000
22.9300 846.0000 1.0000
22.9400 823.0000 1.0000
22.9500 855.0000 1.0000
22.9600 807.0000 1.0000
22.9700 797.0000 1.0000
22.9800 869.0000 1.0000
22.9900 880.0000 1.0000
23.0000 797.0000 1.0000
23.0100 829.0000 1.0000
23.0200 780.0000 1.0000
23.0300 819.0000 1.0000
23.0400 832.0000 1.0000
23.0500 859.0000 1.0000
23.0600 844.0000 1.0000
23.0700 833.0000 1.0000
23.0800 868.0000 1.0000
23.0900 885.0000 1.0000
23.1000 829.0000 1.0000
23.1100 797.0000 1.0000
23.1200 800.0000 1.0000
23.1300 779.0000 1.0000
23.1400 807.0000 1.0000
23.1500 850.0000 1.0000
23.1600 845.0000 1.0000
23.1700 843.0000 1.0000
23.1800 825.0000 1.0000
23.1900 788.0000 1.0000
23.2000 784.0000 1.0000
23.2100 802.0000 1.0000
23.2200 842.0000 1.0000
23.2300 827.0000 1.0000
23.2400 857.0000 1.0000
23.2500 811.0000 1.0000
23.2600 795.0000 1.0000
23.2700 796.0000 1.0000
23.2800 850.0000 1.0000
23.2900 837.0000 1.0000
23.3000 824.0000 1.0000
23.3100 840.0000 1.0000
23.3200 841.0000 1.0000
23.3300 826.0000 1.0000
23.3400 838.0000 1.0000
23.3500 833.0000 1.0000
23.3600 836.0000 1.0000
23.3700 820.0000 1.0000
23.3800 834.0000 1.0000
23.3900 823.0000 1.0000
23.4000 762.0000 1.0000
23.4100 832.0000 1.0000
23.4200 840.0000 1.0000
23.4300 816.0000 1.0000
23.4400 834.0000 1.0000
23.4500 826.0000 1.0000
23.4600 818.0000 1.0000
23.4700 795.0000 1.0000
23.4800 836.0000 1.0000
23.4900 850.0000 1.0000
23.5000 824.0000 1.0000
23.5100 765.0000 1.0000
23.5200 809.0000 1.0000
23.5300 845.0000 1.0000
23.5400 794.0000 1.0000
23.5500 795.0000 1.0000
23.5600 797.0000 1.0000
23.5700 791.0000 1.0000
23.5800 805.0000 1.0000
23.5900 853.0000 1.0000
23.6000 815.0000 1.0000
23.6100 820.0000 1.0000
23.6200 835.0000 1.0000
23.6300 857.0000 1.0000
23.6400 807.0000 1.0000
23.6500 831.0000 1.0000
23.6600 834.0000 1.0000
23.6700 816.0000 1.0000
23.6800 801.0000 1.0000
23.6900 774.0000 1.0000
23.7000 853.0000 1.0000
23.7100 829.0000 1.0000
23.7200 847.0000 1.0000
23.7300 802.0000 1.0000
23.7400 834.0000 1.0000
23.7500 846.0000 1.0000
23.7600 846.0000 1.0000
23.7700 844.0000 1.0000
23.7800 821.0000 1.0000
23.7900 874.0000 1.0000
23.8000 862.0000 1.0000
23.8100 843.0000 1.0000
23.8200 833.0000 1.0000
23.8300 850.0000 1.0000
23.8400 869.0000 1.0000
23.8500 857.0000 1.0000
23.8600 805.0000 1.0000
23.8700 841.0000 1.0000
23.8800 818.0000 1.0000
23.8900 886.0000 1.0000
23.9000 858.0000 1.0000
23.9100 889.0000 1.0000
23.9200 892.0000 1.0000
23.9300 922.0000 1.0000
23.9400 870.0000 1.0000
23.9500 902.0000 1.0000
23.9600 865.0000 1.0000
23.9700 841.0000 1.0000
23.9800 894.0000 1.0000
23.9900 859.0000 1.0000
24.0000 843.0000 1.0000
24.0100 880.0000 1.0000
24.0200 916.0000 1.0000
24.0300 888.0000 1.0000
24.0400 907.0000 1.0000
24.0500 969.0000 1.0000
24.0600 946.0000 1.0000
24.0700 976.0000 1.0000
24.0800 953.0000 1.0000
24.0900 951.0000 1.0000
24.1000 913.0000 1.0000
24.1100 938.0000 1.0000
24.1200 924.0000 1.0000
24.1300 963.0000 1.0000
24.1400 931.0000 1.0000
24.1500 858.0000 1.0000
24.1600 891.0000 1.0000
24.1700 882.0000 1.0000
24.1800 879.0000 1.0000
24.1900 850.0000 1.0000
24.2000 891.0000 1.0000
24.2100 812.0000 1.0000
24.2200 877.0000 1.0000
24.2300 860.0000 1.0000
24.2400 870.0000 1.0000
24.2500 819.0000 1.0000
24.2600 860.0000 1.0000
24.2700 868.0000 1.0000
24.2800 835.0000 1.0000
24.2900 827.0000 1.0000
24.3000 846.0000 1.0000
24.3100 889.0000 1.0000
24.3200 842.0000 1.0000
24.3300 800.0000 1.0000
24.3400 841.0000 1.0000
24.3500 857.0000 1.0000
24.3600 824.0000 1.0000
24.3700 799.0000 1.0000
24.3800 819.0000 1.0000
24.3900 832.0000 1.0000
24.4000 804.0000 1.0000
24.4100 816.0000 1.0000
24.4200 794.0000 1.0000
24.4300 821.0000 1.0000
24.4400 838.0000 1.0000
24.4500 826.0000 1.0000
24.4600 768.0000 1.0000
24.4700 814.0000 1.0000
24.4800 799.0000 1.0000
24.4900 827.0000 1.0000
24.5000 806.0000 1.0000
24.5100 844.0000 1.0000
24.5200 837.0000 1.0000
24.5300 803.0000 1.0000
24.5400 787.0000 1.0000
24.5500 840.0000 1.0000
24.5600 825.0000 1.0000
24.5700 764.0000 1.0000
24.5800 797.0000 1.0000
24.5900 826.0000 1.0000
24.6000 830.0000 1.0000
24.6100 810.0000 1.0000
24.6200 773.0000 1.0000
24.6300 832.0000 1.0000
24.6400 776.0000 1.0000
24.6500 800.0000 1.0000
24.6600 817.0000 1.0000
24.6700 831.0000 1.0000
24.6800 808.0000 1.0000
24.6900 818.0000 1.0000
24.7000 783.0000 1.0000
24.7100 841.0000 1.0000
24.7200 794.0000 1.0000
24.7300 781.0000 1.0000
24.7400 788.0000 1.0000
24.7500 817.0000 1.0000
24.7600 887.0000 1.0000
24.7700 830.0000 1.0000
24.7800 827.0000 1.0000
24.7900 800.0000 1.0000
24.8000 832.0000 1.0000
24.8100 878.0000 1.0000
24.8200 851.0000 1.0000
24.8300 776.0000 1.0000
24.8400 789.0000 1.0000
24.8500 867.0000 1.0000
24.8600 790.0000 1.0000
24.8700 811.0000 1.0000
24.8800 790.0000 1.0000
24.8900 837.0000 1.0000
24.9000 761.0000 1.0000
24.9100 781.0000 1.0000
24.9200 826.0000 1.0000
24.9300 786.0000 1.0000
24.9400 813.0000 1.0000
24.9500 780.0000 1.0000
24.9600 828.0000 1.0000
24.9700 789.0000 1.0000
24.9800 794.0000 1.0000
24.9900 792.0000 1.0000
25.0000 765.0000 1.0000
25.0100 814.0000 1.0000
25.0200 774.0000 1.0000
25.0300 801.0000 1.0000
25.0400 779.0000 1.0000
25.0500 813.0000 1.0000
25.0600 772.0000 1.0000
25.0700 739.0000 1.0000
25.0800 785.0000 1.0000
25.0900 790.0000 1.0000
25.1000 792.0000 1.0000
25.1100 798.0000 1.0000
25.1200 811.0000 1.0000
25.1300 777.0000 1.0000
25.1400 822.0000 1.0000
25.1500 794.0000 1.0000
25.1600 754.0000 1.0000
25.1700 782.0000 1.0000
25.1800 774.0000 1.0000
25.1900 815.0000 1.0000
25.2000 786.0000 1.0000
25.2100 822.0000 1.0000
25.2200 778.0000 1.0000
25.2300 796.0000 1.0000
25.2400 772.0000 1.0000
25.2500 781.0000 1.0000
25.2600 781.0000 1.0000
25.2700 774.0000 1.0000
25.2800 790.0000 1.0000
25.2900 787.0000 1.0000
25.3000 842.0000 1.0000
25.3100 820.0000 1.0000
25.3200 811.0000 1.0000
25.3300 813.0000 1.0000
25.3400 830.0000 1.0000
25.3500 793.0000 1.0000
25.3600 837.0000 1.0000
25.3700 787.0000 1.0000
25.3800 814.0000 1.0000
25.3900 815.0000 1.0000
25.4000 790.0000 1.0000
25.4100 801.0000 1.0000
25.4200 814.0000 1.0000
25.4300 831.0000 1.0000
25.4400 819.0000 1.0000
25.4500 819.0000 1.0000
25.4600 805.0000 1.0000
25.4700 821.0000 1.0000
25.4800 805.0000 1.0000
25.4900 734.0000 1.0000
25.5000 752.0000 1.0000
25.5100 766.0000 1.0000
25.5200 827.0000 1.0000
25.5300 802.0000 1.0000
25.5400 836.0000 1.0000
25.5500 800.0000 1.0000
25.5600 791.0000 1.0000
25.5700 812.0000 1.0000
25.5800 812.0000 1.0000
25.5900 817.0000 1.0000
25.6000 843.0000 1.0000
25.6100 850.0000 1.0000
25.6200 823.0000 1.0000
25.6300 838.0000 1.0000
25.6400 798.0000 1.0000
25.6500 804.0000 1.0000
25.6600 831.0000 1.0000
25.6700 809.0000 1.0000
25.6800 786.0000 1.0000
25.6900 824.0000 1.0000
25.7000 833.0000 1.0000
25.7100 836.0000 1.0000
25.7200 841.0000 1.0000
25.7300 801.0000 1.0000
25.7400 826.0000 1.0000
25.7500 808.0000 1.0000
25.7600 792.0000 1.0000
25.7700 807.0000 1.0000
25.7800 839.0000 1.0000
25.7900 786.0000 1.0000
25.8000 792.0000 1.0000
25.8100 834.0000 1.0000
25.8200 836.0000 1.0000
25.8300 820.0000 1.0000
25.8400 872.0000 1.0000
25.8500 855.0000 1.0000
25.8600 828.0000 1.0000
25.8700 863.0000 1.0000
25.8800 844.0000 1.0000
25.8900 852.0000 1.0000
25.9000 795.0000 1.0000
25.9100 872.0000 1.0000
25.9200 826.0000 1.0000
25.9300 832.0000 1.0000
25.9400 893.0000 1.0000
25.9500 870.0000 1.0000
25.9600 825.0000 1.0000
25.9700 894.0000 1.0000
25.9800 858.0000 1.0000
25.9900 866.0000 1.0000
26.0000 874.0000 1.0000
26.0100 894.0000 1.0000
26.0200 911.0000 1.0000
26.0300 877.0000 1.0000
26.0400 908.0000 1.0000
26.0500 869.0000 1.0000
26.0600 908.0000 1.0000
26.0700 947.0000 1.0000
26.0800 956.0000 1.0000
26.0900 918.0000 1.0000
26.1000 988.0000 1.0000
26.1100 978.0000 1.0000
26.1200 975.0000 1.0000
26.1300 973.0000 1.0000
26.1400 1013.0000 1.0000
26.1500 1042.0000 1.0000
26.1600 1089.0000 1.0000
26.1700 1062.0000 1.0000
26.1800 1073.0000 1.0000
26.1900 1102.0000 1.0000
26.2000 1173.0000 1.0000
26.2100 1162.0000 1.0000
26.2200 1153.0000 1.0000
26.2300 1182.0000 1.0000
26.2400 1261.0000 1.0000
26.2500 1351.0000 1.0000
26.2600 1408.0000 1.0000
26.2700 1445.0000 1.0000
26.2800 1512.0000 1.0000
26.2900 1505.0000 1.0000
26.3000 1606.0000 1.0000
26.3100 1630.0000 1.0000
26.3200 1760.0000 1.0000
26.3300 1779.0000 1.0000
26.3400 1959.0000 1.0000
26.3500 2113.0000 1.0000
26.3600 2204.0000 1.0000
26.3700 2369.0000 1.0000
26.3800 2417.0000 1.0000
26.3900 2584.0000 1.0000
26.4000 2656.0000 1.0000
26.4100 2736.0000 1.0000
26.4200 2744.0000 1.0000
26.4300 2834.0000 1.0000
26.4400 2840.0000 1.0000
26.4500 2738.0000 1.0000
26.4600 2701.0000 1.0000
26.4700 2620.0000 1.0000
26.4800 2478.0000 1.0000
26.4900 2365.0000 1.0000
26.5000 2243.0000 1.0000
26.5100 2131.0000 1.0000
26.5200 1988.0000 1.0000
26.5300 1963.0000 1.0000
26.5400 1811.0000 1.0000
26.5500 1743.0000 1.0000
26.5600 1687.0000 1.0000
26.5700 1551.0000 1.0000
26.5800 1500.0000 1.0000
26.5900 1465.0000 1.0000
26.6000 1399.0000 1.0000
26.6100 1311.0000 1.0000
26.6200 1331.0000 1.0000
26.6300 1230.0000 1.0000
26.6400 1234.0000 1.0000
26.6500 1213.0000 1.0000
26.6600 1100.0000 1.0000
26.6700 1127.0000 1.0000
26.6800 1075.0000 1.0000
26.6900 1065.0000 1.0000
26.7000 991.0000 1.0000
26.7100 1003.0000 1.0000
26.7200 1017.0000 1.0000
26.7300 956.0000 1.0000
26.7400 954.0000 1.0000
26.7500 982.0000 1.0000
26.7600 936.0000 1.0000
26.7700 945.0000 1.0000
26.7800 909.0000 1.0000
26.7900 909.0000 1.0000
26.8000 873.0000 1.0000
26.8100 857.0000 1.0000
26.8200 909.0000 1.0000
26.8300 853.0000 1.0000
26.8400 863.0000 1.0000
26.8500 875.0000 1.0000
26.8600 881.0000 1.0000
26.8700 829.0000 1.0000
26.8800 844.0000 1.0000
26.8900 864.0000 1.0000
26.9000 883.0000 1.0000
26.9100 802.0000 1.0000
26.9200 845.0000 1.0000
26.9300 809.0000 1.0000
26.9400 849.0000 1.0000
26.9500 855.0000 1.0000
26.9600 812.0000 1.0000
26.9700 784.0000 1.0000
26.9800 764.0000 1.0000
26.9900 787.0000 1.0000
27.0000 824.0000 1.0000
27.0100 825.0000 1.0000
27.0200 834.0000 1.0000
27.0300 785.0000 1.0000
27.0400 781.0000 1.0000
27.0500 763.0000 1.0000
27.0600 785.0000 1.0000
27.0700 775.0000 1.0000
27.0800 754.0000 1.0000
27.0900 759.0000 1.0000
27.1000 732.0000 1.0000
27.1100 788.0000 1.0000
27.1200 759.0000 1.0000
27.1300 781.0000 1.0000
27.1400 782.0000 1.0000
27.1500 766.0000 1.0000
27.1600 799.0000 1.0000
27.1700 758.0000 1.0000
27.1800 796.0000 1.0000
27.1900 781.0000 1.0000
27.2000 767.0000 1.0000
27.2100 785.0000 1.0000
27.2200 780.0000 1.0000
27.2300 761.0000 1.0000
27.2400 796.0000 1.0000
27.2500 752.0000 1.0000
27.2600 735.0000 1.0000
27.2700 769.0000 1.0000
27.2800 766.0000 1.0000
27.2900 736.0000 1.0000
27.3000 737.0000 1.0000
27.3100 731.0000 1.0000
27.3200 746.0000 1.0000
27.3300 749.0000 1.0000
27.3400 739.0000 1.0000
27.3500 739.0000 1.0000
27.3600 762.0000 1.0000
27.3700 746.0000 1.0000
27.3800 729.0000 1.0000
27.3900 715.0000 1.0000
27.4000 752.0000 1.0000
27.4100 748.0000 1.0000
27.4200 728.0000 1.0000
27.4300 783.0000 1.0000
27.4400 706.0000 1.0000
27.4500 745.0000 1.0000
27.4600 778.0000 1.0000
27.4700 724.0000 1.0000
27.4800 722.0000 1.0000
27.4900 727.0000 1.0000
27.5000 735.0000 1.0000
27.5100 727.0000 1.0000
27.5200 702.0000 1.0000
27.5300 735.0000 1.0000
27.5400 713.0000 1.0000
27.5500 761.0000 1.0000
27.5600 741.0000 1.0000
27.5700 724.0000 1.0000
27.5800 705.0000 1.0000
27.5900 778.0000 1.0000
27.6000 741.0000 1.0000
27.6100 738.0000 1.0000
27.6200 700.0000 1.0000
27.6300 693.0000 1.0000
27.6400 701.0000 1.0000
27.6500 714.0000 1.0000
27.6600 755.0000 1.0000
27.6700 731.0000 1.0000
27.6800 718.0000 1.0000
27.6900 706.0000 1.0000
27.7000 697.0000 1.0000
27.7100 722.0000 1.0000
27.7200 729.0000 1.0000
27.7300 745.0000 1.0000
27.7400 668.0000 1.0000
27.7500 709.0000 1.0000
27.7600 698.0000 1.0000
27.7700 733.0000 1.0000
27.7800 710.0000 1.0000
27.7900 702.0000 1.0000
27.8000 716.0000 1.0000
27.8100 722.0000 1.0000
27.8200 722.0000 1.0000
27.8300 727.0000 1.0000
27.8400 730.0000 1.0000
27.8500 729.0000 1.0000
27.8600 700.0000 1.0000
27.8700 708.0000 1.0000
27.8800 694.0000 1.0000
27.8900 712.0000 1.0000
27.9000 687.0000 1.0000
27.9100 713.0000 1.0000
27.9200 710.0000 1.0000
27.9300 725.0000 1.0000
27.9400 788.0000 1.0000
27.9500 739.0000 1.0000
27.9600 720.0000 1.0000
27.9700 715.0000 1.0000
27.9800 742.0000 1.0000
27.9900 708.0000 1.0000
28.0000 733.0000 1.0000
28.0100 688.0000 1.0000
28.0200 690.0000 1.0000
28.0300 715.0000 1.0000
28.0400 723.0000 1.0000
28.0500 683.0000 1.0000
28.0600 677.0000 1.0000
28.0700 704.0000 1.0000
28.0800 682.0000 1.0000
28.0900 685.0000 1.0000
28.1000 720.0000 1.0000
28.1100 701.0000 1.0000
28.1200 738.0000 1.0000
28.1300 734.0000 1.0000
28.1400 699.0000 1.0000
28.1500 661.0000 1.0000
28.1600 667.0000 1.0000
28.1700 678.0000 1.0000
28.1800 714.0000 1.0000
28.1900 722.0000 1.0000
28.2000 671.0000 1.0000
28.2100 701.0000 1.0000
28.2200 742.0000 1.0000
28.2300 704.0000 1.0000
28.2400 705.0000 1.0000
28.2500 697.0000 1.0000
28.2600 703.0000 1.0000
28.2700 739.0000 1.0000
28.2800 689.0000 1.0000
28.2900 728.0000 1.0000
28.3000 674.0000 1.0000
28.3100 713.0000 1.0000
28.3200 717.0000 1.0000
28.3300 699.0000 1.0000
28.3400 666.0000 1.0000
28.3500 704.0000 1.0000
28.3600 684.0000 1.0000
28.3700 730.0000 1.0000
28.3800 690.0000 1.0000
28.3900 716.0000 1.0000
28.4000 710.0000 1.0000
28.4100 747.0000 1.0000
28.4200 677.0000 1.0000
28.4300 693.0000 1.0000
28.4400 707.0000 1.0000
28.4500 712.0000 1.0000
28.4600 732.0000 1.0000
28.4700 681.0000 1.0000
28.4800 697.0000 1.0000
28.4900 684.0000 1.0000
28.5000 683.0000 1.0000
28.5100 684.0000 1.0000
28.5200 687.0000 1.0000
28.5300 690.0000 1.0000
28.5400 673.0000 1.0000
28.5500 662.0000 1.0000
28.5600 670.0000 1.0000
28.5700 655.0000 1.0000
28.5800 691.0000 1.0000
28.5900 738.0000 1.0000
28.6000 689.0000 1.0000
28.6100 724.0000 1.0000
28.6200 706.0000 1.0000
28.6300 697.0000 1.0000
28.6400 699.0000 1.0000
28.6500 730.0000 1.0000
28.6600 703.0000 1.0000
28.6700 660.0000 1.0000
28.6800 670.0000 1.0000
28.6900 702.0000 1.0000
28.7000 705.0000 1.0000
28.7100 712.0000 1.0000
28.7200 699.0000 1.0000
28.7300 702.0000 1.0000
28.7400 702.0000 1.0000
28.7500 684.0000 1.0000
28.7600 711.0000 1.0000
28.7700 696.0000 1.0000
28.7800 694.0000 1.0000
28.7900 676.0000 1.0000
28.8000 686.0000 1.0000
28.8100 704.0000 1.0000
28.8200 678.0000 1.0000
28.8300 733.0000 1.0000
28.8400 658.0000 1.0000
28.8500 649.0000 1.0000
28.8600 713.0000 1.0000
28.8700 663.0000 1.0000
28.8800 678.0000 1.0000
28.8900 634.0000 1.0000
28.9000 652.0000 1.0000
28.9100 688.0000 1.0000
28.9200 656.0000 1.0000
28.9300 686.0000 1.0000
28.9400 673.0000 1.0000
28.9500 697.0000 1.0000
28.9600 675.0000 1.0000
28.9700 664.0000 1.0000
28.9800 651.0000 1.0000
28.9900 708.0000 1.0000
29.0000 655.0000 1.0000
29.0100 654.0000 1.0000
29.0200 672.0000 1.0000
29.0300 643.0000 1.0000
29.0400 674.0000 1.0000
29.0500 694.0000 1.0000
29.0600 690.0000 1.0000
29.0700 637.0000 1.0000
29.0800 651.0000 1.0000
29.0900 655.0000 1.0000
29.1000 673.0000 1.0000
29.1100 672.0000 1.0000
29.1200 698.0000 1.0000
29.1300 664.0000 1.0000
29.1400 676.0000 1.0000
29.1500 710.0000 1.0000
29.1600 699.0000 1.0000
29.1700 649.0000 1.0000
29.1800 703.0000 1.0000
29.1900 657.0000 1.0000
29.2000 697.0000 1.0000
29.2100 678.0000 1.0000
29.2200 644.0000 1.0000
29.2300 639.0000 1.0000
29.2400 660.0000 1.0000
29.2500 670.0000 1.0000
29.2600 692.0000 1.0000
29.2700 683.0000 1.0000
29.2800 653.0000 1.0000
29.2900 685.0000 1.0000
29.3000 648.0000 1.0000
29.3100 681.0000 1.0000
29.3200 636.0000 1.0000
29.3300 625.0000 1.0000
29.3400 607.0000 1.0000
29.3500 658.0000 1.0000
29.3600 651.0000 1.0000
29.3700 645.0000 1.0000
29.3800 627.0000 1.0000
29.3900 621.0000 1.0000
29.4000 666.0000 1.0000
29.4100 687.0000 1.0000
29.4200 690.0000 1.0000
29.4300 683.0000 1.0000
29.4400 663.0000 1.0000
29.4500 659.0000 1.0000
29.4600 644.0000 1.0000
29.4700 633.0000 1.0000
29.4800 661.0000 1.0000
29.4900 639.0000 1.0000
29.5000 652.0000 1.0000
29.5100 690.0000 1.0000
29.5200 611.0000 1.0000
29.5300 605.0000 1.0000
29.5400 666.0000 1.0000
29.5500 631.0000 1.0000
29.5600 653.0000 1.0000
29.5700 656.0000 1.0000
29.5800 649.0000 1.0000
29.5900 670.0000 1.0000
29.6000 665.0000 1.0000
29.6100 643.0000 1.0000
29.6200 671.0000 1.0000
29.6300 669.0000 1.0000
29.6400 639.0000 1.0000
29.6500 623.0000 1.0000
29.6600 645.0000 1.0000
29.6700 627.0000 1.0000
29.6800 644.0000 1.0000
29.6900 661.0000 1.0000
29.7000 651.0000 1.0000
29.7100 611.0000 1.0000
29.7200 674.0000 1.0000
29.7300 656.0000 1.0000
29.7400 648.0000 1.0000
29.7500 671.0000 1.0000
29.7600 639.0000 1.0000
29.7700 658.0000 1.0000
29.7800 666.0000 1.0000
29.7900 665.0000 1.0000
29.8000 644.0000 1.0000
29.8100 669.0000 1.0000
29.8200 670.0000 1.0000
29.8300 618.0000 1.0000
29.8400 640.0000 1.0000
29.8500 602.0000 1.0000
29.8600 653.0000 1.0000
29.8700 669.0000 1.0000
29.8800 616.0000 1.0000
29.8900 632.0000 1.0000
29.9000 646.0000 1.0000
29.9100 665.0000 1.0000
29.9200 660.0000 1.0000
29.9300 637.0000 1.0000
29.9400 652.0000 1.0000
29.9500 661.0000 1.0000
29.9600 668.0000 1.0000
29.9700 639.0000 1.0000
29.9800 645.0000 1.0000
29.9900 650.0000 1.0000
30.0000 637.0000 1.0000
30.0100 674.0000 1.0000
30.0200 686.0000 1.0000
30.0300 603.0000 1.0000
30.0400 662.0000 1.0000
30.0500 675.0000 1.0000
30.0600 678.0000 1.0000
30.0700 650.0000 1.0000
30.0800 632.0000 1.0000
30.0900 611.0000 1.0000
30.1000 662.0000 1.0000
30.1100 643.0000 1.0000
30.1200 694.0000 1.0000
30.1300 629.0000 1.0000
30.1400 620.0000 1.0000
30.1500 632.0000 1.0000
30.1600 635.0000 1.0000
30.1700 665.0000 1.0000
30.1800 705.0000 1.0000
30.1900 626.0000 1.0000
30.2000 638.0000 1.0000
30.2100 614.0000 1.0000
30.2200 612.0000 1.0000
30.2300 661.0000 1.0000
30.2400 662.0000 1.0000
30.2500 653.0000 1.0000
30.2600 653.0000 1.0000
30.2700 599.0000 1.0000
30.2800 611.0000 1.0000
30.2900 624.0000 1.0000
30.3000 628.0000 1.0000
30.3100 652.0000 1.0000
30.3200 686.0000 1.0000
30.3300 621.0000 1.0000
30.3400 664.0000 1.0000
30.3500 634.0000 1.0000
30.3600 661.0000 1.0000
30.3700 642.0000 1.0000
30.3800 649.0000 1.0000
30.3900 615.0000 1.0000
30.4000 592.0000 1.0000
30.4100 681.0000 1.0000
30.4200 648.0000 1.0000
30.4300 616.0000 1.0000
30.4400 626.0000 1.0000
30.4500 638.0000 1.0000
30.4600 655.0000 1.0000
30.4700 620.0000 1.0000
30.4800 629.0000 1.0000
30.4900 615.0000 1.0000
30.5000 663.0000 1.0000
30.5100 635.0000 1.0000
30.5200 664.0000 1.0000
30.5300 620.0000 1.0000
30.5400 648.0000 1.0000
30.5500 635.0000 1.0000
30.5600 624.0000 1.0000
30.5700 641.0000 1.0000
30.5800 601.0000 1.0000
30.5900 662.0000 1.0000
30.6000 647.0000 1.0000
30.6100 632.0000 1.0000
30.6200 613.0000 1.0000
30.6300 631.0000 1.0000
30.6400 648.0000 1.0000
30.6500 609.0000 1.0000
30.6600 626.0000 1.0000
30.6700 650.0000 1.0000
30.6800 632.0000 1.0000
30.6900 657.0000 1.0000
30.7000 593.0000 1.0000
30.7100 616.0000 1.0000
30.7200 608.0000 1.0000
30.7300 601.0000 1.0000
30.7400 634.0000 1.0000
30.7500 627.0000 1.0000
30.7600 621.0000 1.0000
30.7700 638.0000 1.0000
30.7800 607.0000 1.0000
30.7900 594.0000 1.0000
30.8000 625.0000 1.0000
30.8100 640.0000 1.0000
30.8200 608.0000 1.0000
30.8300 611.0000 1.0000
30.8400 637.0000 1.0000
30.8500 653.0000 1.0000
30.8600 640.0000 1.0000
30.8700 592.0000 1.0000
30.8800 610.0000 1.0000
30.8900 649.0000 1.0000
30.9000 645.0000 1.0000
30.9100 635.0000 1.0000
30.9200 590.0000 1.0000
30.9300 597.0000 1.0000
30.9400 588.0000 1.0000
30.9500 640.0000 1.0000
30.9600 624.0000 1.0000
30.9700 624.0000 1.0000
30.9800 618.0000 1.0000
30.9900 611.0000 1.0000
31.0000 631.0000 1.0000
31.0100 627.0000 1.0000
31.0200 613.0000 1.0000
31.0300 615.0000 1.0000
31.0400 610.0000 1.0000
31.0500 595.0000 1.0000
31.0600 620.0000 1.0000
31.0700 587.0000 1.0000
31.0800 571.0000 1.0000
31.0900 637.0000 1.0000
31.1000 630.0000 1.0000
31.1100 636.0000 1.0000
31.1200 653.0000 1.0000
31.1300 656.0000 1.0000
31.1400 618.0000 1.0000
31.1500 630.0000 1.0000
31.1600 663.0000 1.0000
31.1700 649.0000 1.0000
31.1800 643.0000 1.0000
31.1900 655.0000 1.0000
31.2000 616.0000 1.0000
31.2100 669.0000 1.0000
31.2200 636.0000 1.0000
31.2300 611.0000 1.0000
31.2400 640.0000 1.0000
31.2500 621.0000 1.0000
31.2600 621.0000 1.0000
31.2700 648.0000 1.0000
31.2800 632.0000 1.0000
31.2900 641.0000 1.0000
31.3000 623.0000 1.0000
31.3100 599.0000 1.0000
31.3200 607.0000 1.0000
31.3300 622.0000 1.0000
31.3400 599.0000 1.0000
31.3500 602.0000 1.0000
31.3600 613.0000 1.0000
31.3700 627.0000 1.0000
31.3800 595.0000 1.0000
31.3900 603.0000 1.0000
31.4000 604.0000 1.0000
31.4100 608.0000 1.0000
31.4200 572.0000 1.0000
31.4300 633.0000 1.0000
31.4400 630.0000 1.0000
31.4500 595.0000 1.0000
31.4600 622.0000 1.0000
31.4700 586.0000 1.0000
31.4800 609.0000 1.0000
31.4900 591.0000 1.0000
31.5000 589.0000 1.0000
31.5100 541.0000 1.0000
31.5200 559.0000 1.0000
31.5300 592.0000 1.0000
31.5400 620.0000 1.0000
31.5500 613.0000 1.0000
31.5600 587.0000 1.0000
31.5700 603.0000 1.0000
31.5800 606.0000 1.0000
31.5900 597.0000 1.0000
31.6000 604.0000 1.0000
31.6100 634.0000 1.0000
31.6200 601.0000 1.0000
31.6300 602.0000 1.0000
31.6400 608.0000 1.0000
31.6500 585.0000 1.0000
31.6600 585.0000 1.0000
31.6700 608.0000 1.0000
31.6800 575.0000 1.0000
31.6900 653.0000 1.0000
31.7000 616.0000 1.0000
31.7100 603.0000 1.0000
31.7200 578.0000 1.0000
31.7300 586.0000 1.0000
31.7400 591.0000 1.0000
31.7500 588.0000 1.0000
31.7600 622.0000 1.0000
31.7700 621.0000 1.0000
31.7800 592.0000 1.0000
31.7900 601.0000 1.0000
31.8000 623.0000 1.0000
31.8100 580.0000 1.0000
31.8200 600.0000 1.0000
31.8300 598.0000 1.0000
31.8400 571.0000 1.0000
31.8500 613.0000 1.0000
31.8600 596.0000 1.0000
31.8700 521.0000 1.0000
31.8800 561.0000 1.0000
31.8900 617.0000 1.0000
31.9000 592.0000 1.0000
31.9100 589.0000 1.0000
31.9200 562.0000 1.0000
31.9300 617.0000 1.0000
31.9400 582.0000 1.0000
31.9500 571.0000 1.0000
31.9600 581.0000 1.0000
31.9700 612.0000 1.0000
31.9800 610.0000 1.0000
31.9900 601.0000 1.0000
32.0000 615.0000 1.0000
32.0100 602.0000 1.0000
32.0200 585.0000 1.0000
32.0300 580.0000 1.0000
32.0400 608.0000 1.0000
32.0500 595.0000 1.0000
32.0600 601.0000 1.0000
32.0700 545.0000 1.0000
32.0800 573.0000 1.0000
32.0900 572.0000 1.0000
32.1000 549.0000 1.0000
32.1100 577.0000 1.0000
32.1200 571.0000 1.0000
32.1300 588.0000 1.0000
32.1400 588.0000 1.0000
32.1500 608.0000 1.0000
32.1600 596.0000 1.0000
32.1700 608.0000 1.0000
32.1800 604.0000 1.0000
32.1900 593.0000 1.0000
32.2000 578.0000 1.0000
32.2100 556.0000 1.0000
32.2200 594.0000 1.0000
32.2300 604.0000 1.0000
32.2400 589.0000 1.0000
32.2500 562.0000 1.0000
32.2600 580.0000 1.0000
32.2700 588.0000 1.0000
32.2800 601.0000 1.0000
32.2900 563.0000 1.0000
32.3000 606.0000 1.0000
32.3100 568.0000 1.0000
32.3200 577.0000 1.0000
32.3300 547.0000 1.0000
32.3400 572.0000 1.0000
32.3500 557.0000 1.0000
32.3600 538.0000 1.0000
32.3700 564.0000 1.0000
32.3800 597.0000 1.0000
32.3900 593.0000 1.0000
32.4000 579.0000 1.0000
32.4100 569.0000 1.0000
32.4200 582.0000 1.0000
32.4300 591.0000 1.0000
32.4400 634.0000 1.0000
32.4500 592.0000 1.0000
32.4600 612.0000 1.0000
32.4700 576.0000 1.0000
32.4800 585.0000 1.0000
32.4900 594.0000 1.0000
32.5000 572.0000 1.0000
32.5100 621.0000 1.0000
32.5200 577.0000 1.0000
32.5300 590.0000 1.0000
32.5400 602.0000 1.0000
32.5500 574.0000 1.0000
32.5600 589.0000 1.0000
32.5700 600.0000 1.0000
32.5800 585.0000 1.0000
32.5900 555.0000 1.0000
32.6000 552.0000 1.0000
32.6100 572.0000 1.0000
32.6200 570.0000 1.0000
32.6300 587.0000 1.0000
32.6400 562.0000 1.0000
32.6500 582.0000 1.0000
32.6600 568.0000 1.0000
32.6700 564.0000 1.0000
32.6800 573.0000 1.0000
32.6900 600.0000 1.0000
32.7000 598.0000 1.0000
32.7100 567.0000 1.0000
32.7200 589.0000 1.0000
32.7300 634.0000 1.0000
32.7400 614.0000 1.0000
32.7500 617.0000 1.0000
32.7600 598.0000 1.0000
32.7700 608.0000 1.0000
32.7800 615.0000 1.0000
32.7900 585.0000 1.0000
32.8000 585.0000 1.0000
32.8100 619.0000 1.0000
32.8200 621.0000 1.0000
32.8300 549.0000 1.0000
32.8400 588.0000 1.0000
32.8500 596.0000 1.0000
32.8600 556.0000 1.0000
32.8700 564.0000 1.0000
32.8800 645.0000 1.0000
32.8900 640.0000 1.0000
32.9000 624.0000 1.0000
32.9100 615.0000 1.0000
32.9200 589.0000 1.0000
32.9300 659.0000 1.0000
32.9400 630.0000 1.0000
32.9500 607.0000 1.0000
32.9600 664.0000 1.0000
32.9700 632.0000 1.0000
32.9800 653.0000 1.0000
32.9900 670.0000 1.0000
33.0000 705.0000 1.0000
33.0100 687.0000 1.0000
33.0200 683.0000 1.0000
33.0300 730.0000 1.0000
33.0400 749.0000 1.0000
33.0500 751.0000 1.0000
33.0600 768.0000 1.0000
33.0700 748.0000 1.0000
33.0800 708.0000 1.0000
33.0900 761.0000 1.0000
33.1000 759.0000 1.0000
33.1100 757.0000 1.0000
33.1200 744.0000 1.0000
33.1300 755.0000 1.0000
33.1400 736.0000 1.0000
33.1500 686.0000 1.0000
33.1600 735.0000 1.0000
33.1700 685.0000 1.0000
33.1800 733.0000 1.0000
33.1900 706.0000 1.0000
33.2000 690.0000 1.0000
33.2100 723.0000 1.0000
33.2200 647.0000 1.0000
33.2300 686.0000 1.0000
33.2400 642.0000 1.0000
33.2500 677.0000 1.0000
33.2600 699.0000 1.0000
33.2700 661.0000 1.0000
33.2800 663.0000 1.0000
33.2900 656.0000 1.0000
33.3000 688.0000 1.0000
33.3100 640.0000 1.0000
33.3200 707.0000 1.0000
33.3300 644.0000 1.0000
33.3400 707.0000 1.0000
33.3500 647.0000 1.0000
33.3600 714.0000 1.0000
33.3700 719.0000 1.0000
33.3800 647.0000 1.0000
33.3900 742.0000 1.0000
33.4000 676.0000 1.0000
33.4100 699.0000 1.0000
33.4200 722.0000 1.0000
33.4300 669.0000 1.0000
33.4400 730.0000 1.0000
33.4500 802.0000 1.0000
33.4600 816.0000 1.0000
33.4700 848.0000 1.0000
33.4800 854.0000 1.0000
33.4900 859.0000 1.0000
33.5000 917.0000 1.0000
33.5100 891.0000 1.0000
33.5200 952.0000 1.0000
33.5300 987.0000 1.0000
33.5400 970.0000 1.0000
33.5500 1044.0000 1.0000
33.5600 1156.0000 1.0000
33.5700 1214.0000 1.0000
33.5800 1174.0000 1.0000
33.5900 1239.0000 1.0000
33.6000 1321.0000 1.0000
33.6100 1335.0000 1.0000
33.6200 1375.0000 1.0000
33.6300 1404.0000 1.0000
33.6400 1494.0000 1.0000
33.6500 1457.0000 1.0000
33.6600 1349.0000 1.0000
33.6700 1354.0000 1.0000
33.6800 1323.0000 1.0000
33.6900 1287.0000 1.0000
33.7000 1231.0000 1.0000
33.7100 1291.0000 1.0000
33.7200 1220.0000 1.0000
33.7300 1155.0000 1.0000
33.7400 1148.0000 1.0000
33.7500 1110.0000 1.0000
33.7600 1044.0000 1.0000
33.7700 962.0000 1.0000
33.7800 914.0000 1.0000
33.7900 909.0000 1.0000
33.8000 911.0000 1.0000
33.8100 789.0000 1.0000
33.8200 776.0000 1.0000
33.8300 781.0000 1.0000
33.8400 777.0000 1.0000
33.8500 848.0000 1.0000
33.8600 757.0000 1.0000
33.8700 720.0000 1.0000
33.8800 710.0000 1.0000
33.8900 692.0000 1.0000
33.9000 691.0000 1.0000
33.9100 675.0000 1.0000
33.9200 673.0000 1.0000
33.9300 696.0000 1.0000
33.9400 689.0000 1.0000
33.9500 668.0000 1.0000
33.9600 673.0000 1.0000
33.9700 621.0000 1.0000
33.9800 635.0000 1.0000
33.9900 668.0000 1.0000
34.0000 636.0000 1.0000
34.0100 591.0000 1.0000
34.0200 587.0000 1.0000
34.0300 600.0000 1.0000
34.0400 636.0000 1.0000
34.0500 608.0000 1.0000
34.0600 555.0000 1.0000
34.0700 608.0000 1.0000
34.0800 585.0000 1.0000
34.0900 576.0000 1.0000
34.1000 586.0000 1.0000
34.1100 606.0000 1.0000
34.1200 591.0000 1.0000
34.1300 580.0000 1.0000
34.1400 586.0000 1.0000
34.1500 572.0000 1.0000
34.1600 580.0000 1.0000
34.1700 561.0000 1.0000
34.1800 529.0000 1.0000
34.1900 551.0000 1.0000
34.2000 530.0000 1.0000
34.2100 604.0000 1.0000
34.2200 558.0000 1.0000
34.2300 565.0000 1.0000
34.2400 599.0000 1.0000
34.2500 554.0000 1.0000
34.2600 574.0000 1.0000
34.2700 577.0000 1.0000
34.2800 550.0000 1.0000
34.2900 537.0000 1.0000
34.3000 555.0000 1.0000
34.3100 548.0000 1.0000
34.3200 576.0000 1.0000
34.3300 600.0000 1.0000
34.3400 545.0000 1.0000
34.3500 538.0000 1.0000
34.3600 599.0000 1.0000
34.3700 536.0000 1.0000
34.3800 550.0000 1.0000
34.3900 550.0000 1.0000
34.4000 544.0000 1.0000
34.4100 537.0000 1.0000
34.4200 536.0000 1.0000
34.4300 530.0000 1.0000
34.4400 556.0000 1.0000
34.4500 561.0000 1.0000
34.4600 531.0000 1.0000
34.4700 540.0000 1.0000
34.4800 519.0000 1.0000
34.4900 524.0000 1.0000
34.5000 539.0000 1.0000
34.5100 547.0000 1.0000
34.5200 546.0000 1.0000
34.5300 538.0000 1.0000
34.5400 530.0000 1.0000
34.5500 525.0000 1.0000
34.5600 532.0000 1.0000
34.5700 544.0000 1.0000
34.5800 562.0000 1.0000
34.5900 528.0000 1.0000
34.6000 551.0000 1.0000
34.6100 543.0000 1.0000
34.6200 509.0000 1.0000
34.6300 551.0000 1.0000
34.6400 531.0000 1.0000
34.6500 495.0000 1.0000
34.6600 520.0000 1.0000
34.6700 513.0000 1.0000
34.6800 546.0000 1.0000
34.6900 471.0000 1.0000
34.7000 513.0000 1.0000
34.7100 512.0000 1.0000
34.7200 478.0000 1.0000
34.7300 544.0000 1.0000
34.7400 498.0000 1.0000
34.7500 505.0000 1.0000
34.7600 533.0000 1.0000
34.7700 500.0000 1.0000
34.7800 521.0000 1.0000
34.7900 550.0000 1.0000
34.8000 520.0000 1.0000
34.8100 506.0000 1.0000
34.8200 507.0000 1.0000
34.8300 493.0000 1.0000
34.8400 486.0000 1.0000
34.8500 493.0000 1.0000
34.8600 543.0000 1.0000
34.8700 502.0000 1.0000
34.8800 464.0000 1.0000
34.8900 503.0000 1.0000
34.9000 522.0000 1.0000
34.9100 538.0000 1.0000
34.9200 527.0000 1.0000
34.9300 537.0000 1.0000
34.9400 514.0000 1.0000
34.9500 511.0000 1.0000
34.9600 500.0000 1.0000
34.9700 506.0000 1.0000
34.9800 524.0000 1.0000
34.9900 469.0000 1.0000
35.0000 474.0000 1.0000
35.0100 529.0000 1.0000
35.0200 481.0000 1.0000
35.0300 511.0000 1.0000
35.0400 516.0000 1.0000
35.0500 524.0000 1.0000
35.0600 539.0000 1.0000
35.0700 516.0000 1.0000
35.0800 479.0000 1.0000
35.0900 509.0000 1.0000
35.1000 537.0000 1.0000
35.1100 535.0000 1.0000
35.1200 491.0000 1.0000
35.1300 506.0000 1.0000
35.1400 474.0000 1.0000
35.1500 498.0000 1.0000
35.1600 499.0000 1.0000
35.1700 536.0000 1.0000
35.1800 517.0000 1.0000
35.1900 516.0000 1.0000
35.2000 499.0000 1.0000
35.2100 506.0000 1.0000
35.2200 518.0000 1.0000
35.2300 515.0000 1.0000
35.2400 537.0000 1.0000
35.2500 521.0000 1.0000
35.2600 496.0000 1.0000
35.2700 517.0000 1.0000
35.2800 536.0000 1.0000
35.2900 519.0000 1.0000
35.3000 524.0000 1.0000
35.3100 529.0000 1.0000
35.3200 541.0000 1.0000
35.3300 585.0000 1.0000
35.3400 550.0000 1.0000
35.3500 580.0000 1.0000
35.3600 609.0000 1.0000
35.3700 597.0000 1.0000
35.3800 623.0000 1.0000
35.3900 630.0000 1.0000
35.4000 667.0000 1.0000
35.4100 651.0000 1.0000
35.4200 630.0000 1.0000
35.4300 669.0000 1.0000
35.4400 678.0000 1.0000
35.4500 729.0000 1.0000
35.4600 759.0000 1.0000
35.4700 792.0000 1.0000
35.4800 794.0000 1.0000
35.4900 840.0000 1.0000
35.5000 875.0000 1.0000
35.5100 894.0000 1.0000
35.5200 978.0000 1.0000
35.5300 948.0000 1.0000
35.5400 986.0000 1.0000
35.5500 1036.0000 1.0000
35.5600 1048.0000 1.0000
35.5700 1030.0000 1.0000
35.5800 1032.0000 1.0000
35.5900 997.0000 1.0000
35.6000 972.0000 1.0000
35.6100 955.0000 1.0000
35.6200 886.0000 1.0000
35.6300 878.0000 1.0000
35.6400 863.0000 1.0000
35.6500 827.0000 1.0000
35.6600 793.0000 1.0000
35.6700 779.0000 1.0000
35.6800 779.0000 1.0000
35.6900 768.0000 1.0000
35.7000 701.0000 1.0000
35.7100 654.0000 1.0000
35.7200 621.0000 1.0000
35.7300 633.0000 1.0000
35.7400 574.0000 1.0000
35.7500 568.0000 1.0000
35.7600 601.0000 1.0000
35.7700 568.0000 1.0000
35.7800 495.0000 1.0000
35.7900 533.0000 1.0000
35.8000 542.0000 1.0000
35.8100 513.0000 1.0000
35.8200 482.0000 1.0000
35.8300 541.0000 1.0000
35.8400 525.0000 1.0000
35.8500 506.0000 1.0000
35.8600 499.0000 1.0000
35.8700 506.0000 1.0000
35.8800 515.0000 1.0000
35.8900 499.0000 1.0000
35.9000 491.0000 1.0000
35.9100 503.0000 1.0000
35.9200 514.0000 1.0000
35.9300 496.0000 1.0000
35.9400 503.0000 1.0000
35.9500 464.0000 1.0000
35.9600 496.0000 1.0000
35.9700 477.0000 1.0000
35.9800 497.0000 1.0000
35.9900 482.0000 1.0000
36.0000 488.0000 1.0000
36.0100 490.0000 1.0000
36.0200 452.0000 1.0000
36.0300 474.0000 1.0000
36.0400 470.0000 1.0000
36.0500 505.0000 1.0000
36.0600 506.0000 1.0000
36.0700 468.0000 1.0000
36.0800 476.0000 1.0000
36.0900 475.0000 1.0000
36.1000 475.0000 1.0000
36.1100 511.0000 1.0000
36.1200 463.0000 1.0000
36.1300 477.0000 1.0000
36.1400 470.0000 1.0000
36.1500 488.0000 1.0000
36.1600 481.0000 1.0000
36.1700 455.0000 1.0000
36.1800 488.0000 1.0000
36.1900 482.0000 1.0000
36.2000 500.0000 1.0000
36.2100 450.0000 1.0000
36.2200 466.0000 1.0000
36.2300 463.0000 1.0000
36.2400 479.0000 1.0000
36.2500 486.0000 1.0000
36.2600 437.0000 1.0000
36.2700 466.0000 1.0000
36.2800 462.0000 1.0000
36.2900 474.0000 1.0000
36.3000 458.0000 1.0000
36.3100 417.0000 1.0000
36.3200 456.0000 1.0000
36.3300 459.0000 1.0000
36.3400 489.0000 1.0000
36.3500 473.0000 1.0000
36.3600 493.0000 1.0000
36.3700 502.0000 1.0000
36.3800 464.0000 1.0000
36.3900 498.0000 1.0000
36.4000 469.0000 1.0000
36.4100 462.0000 1.0000
36.4200 495.0000 1.0000
36.4300 489.0000 1.0000
36.4400 482.0000 1.0000
36.4500 491.0000 1.0000
36.4600 470.0000 1.0000
36.4700 476.0000 1.0000
36.4800 451.0000 1.0000
36.4900 485.0000 1.0000
36.5000 472.0000 1.0000
36.5100 444.0000 1.0000
36.5200 442.0000 1.0000
36.5300 465.0000 1.0000
36.5400 469.0000 1.0000
36.5500 484.0000 1.0000
36.5600 486.0000 1.0000
36.5700 447.0000 1.0000
36.5800 485.0000 1.0000
36.5900 484.0000 1.0000
36.6000 484.0000 1.0000
36.6100 446.0000 1.0000
36.6200 459.0000 1.0000
36.6300 487.0000 1.0000
36.6400 481.0000 1.0000
36.6500 416.0000 1.0000
36.6600 490.0000 1.0000
36.6700 492.0000 1.0000
36.6800 487.0000 1.0000
36.6900 483.0000 1.0000
36.7000 489.0000 1.0000
36.7100 476.0000 1.0000
36.7200 456.0000 1.0000
36.7300 491.0000 1.0000
36.7400 462.0000 1.0000
36.7500 439.0000 1.0000
36.7600 483.0000 1.0000
36.7700 472.0000 1.0000
36.7800 466.0000 1.0000
36.7900 494.0000 1.0000
36.8000 465.0000 1.0000
36.8100 439.0000 1.0000
36.8200 481.0000 1.0000
36.8300 459.0000 1.0000
36.8400 438.0000 1.0000
36.8500 439.0000 1.0000
36.8600 490.0000 1.0000
36.8700 488.0000 1.0000
36.8800 444.0000 1.0000
36.8900 507.0000 1.0000
36.9000 471.0000 1.0000
36.9100 479.0000 1.0000
36.9200 482.0000 1.0000
36.9300 496.0000 1.0000
36.9400 453.0000 1.0000
36.9500 460.0000 1.0000
36.9600 481.0000 1.0000
36.9700 438.0000 1.0000
36.9800 448.0000 1.0000
36.9900 463.0000 1.0000
37.0000 488.0000 1.0000
37.0100 474.0000 1.0000
37.0200 470.0000 1.0000
37.0300 481.0000 1.0000
37.0400 480.0000 1.0000
37.0500 466.0000 1.0000
37.0600 482.0000 1.0000
37.0700 453.0000 1.0000
37.0800 460.0000 1.0000
37.0900 483.0000 1.0000
37.1000 467.0000 1.0000
37.1100 501.0000 1.0000
37.1200 509.0000 1.0000
37.1300 485.0000 1.0000
37.1400 455.0000 1.0000
37.1500 469.0000 1.0000
37.1600 486.0000 1.0000
37.1700 497.0000 1.0000
37.1800 511.0000 1.0000
37.1900 489.0000 1.0000
37.2000 497.0000 1.0000
37.2100 483.0000 1.0000
37.2200 473.0000 1.0000
37.2300 468.0000 1.0000
37.2400 456.0000 1.0000
37.2500 519.0000 1.0000
37.2600 484.0000 1.0000
37.2700 500.0000 1.0000
37.2800 509.0000 1.0000
37.2900 511.0000 1.0000
37.3000 541.0000 1.0000
37.3100 549.0000 1.0000
37.3200 557.0000 1.0000
37.3300 557.0000 1.0000
37.3400 572.0000 1.0000
37.3500 548.0000 1.0000
37.3600 560.0000 1.0000
37.3700 579.0000 1.0000
37.3800 565.0000 1.0000
37.3900 587.0000 1.0000
37.4000 608.0000 1.0000
37.4100 642.0000 1.0000
37.4200 631.0000 1.0000
37.4300 675.0000 1.0000
37.4400 710.0000 1.0000
37.4500 723.0000 1.0000
37.4600 740.0000 1.0000
37.4700 757.0000 1.0000
37.4800 814.0000 1.0000
37.4900 823.0000 1.0000
37.5000 886.0000 1.0000
37.5100 897.0000 1.0000
37.5200 968.0000 1.0000
37.5300 979.0000 1.0000
37.5400 1038.0000 1.0000
37.5500 1159.0000 1.0000
37.5600 1241.0000 1.0000
37.5700 1293.0000 1.0000
37.5800 1436.0000 1.0000
37.5900 1426.0000 1.0000
37.6000 1519.0000 1.0000
37.6100 1627.0000 1.0000
37.6200 1739.0000 1.0000
37.6300 1831.0000 1.0000
37.6400 1909.0000 1.0000
37.6500 1936.0000 1.0000
37.6600 2041.0000 1.0000
37.6700 1984.0000 1.0000
37.6800 2082.0000 1.0000
37.6900 2104.0000 1.0000
37.7000 2162.0000 1.0000
37.7100 2096.0000 1.0000
37.7200 2105.0000 1.0000
37.7300 2119.0000 1.0000
37.7400 2056.0000 1.0000
37.7500 1958.0000 1.0000
37.7600 1905.0000 1.0000
37.7700 1827.0000 1.0000
37.7800 1770.0000 1.0000
37.7900 1673.0000 1.0000
37.8000 1625.0000 1.0000
37.8100 1551.0000 1.0000
37.8200 1483.0000 1.0000
37.8300 1360.0000 1.0000
37.8400 1341.0000 1.0000
37.8500 1276.0000 1.0000
37.8600 1237.0000 1.0000
37.8700 1117.0000 1.0000
37.8800 1076.0000 1.0000
37.8900 958.0000 1.0000
37.9000 921.0000 1.0000
37.9100 905.0000 1.0000
37.9200 855.0000 1.0000
37.9300 761.0000 1.0000
37.9400 771.0000 1.0000
37.9500 748.0000 1.0000
37.9600 734.0000 1.0000
37.9700 684.0000 1.0000
37.9800 655.0000 1.0000
37.9900 648.0000 1.0000
38.0000 633.0000 1.0000
38.0100 616.0000 1.0000
38.0200 611.0000 1.0000
38.0300 606.0000 1.0000
38.0400 571.0000 1.0000
38.0500 535.0000 1.0000
38.0600 520.0000 1.0000
38.0700 527.0000 1.0000
38.0800 496.0000 1.0000
38.0900 571.0000 1.0000
38.1000 508.0000 1.0000
38.1100 506.0000 1.0000
38.1200 498.0000 1.0000
38.1300 496.0000 1.0000
38.1400 484.0000 1.0000
38.1500 500.0000 1.0000
38.1600 499.0000 1.0000
38.1700 475.0000 1.0000
38.1800 481.0000 1.0000
38.1900 477.0000 1.0000
38.2000 469.0000 1.0000
38.2100 494.0000 1.0000
38.2200 485.0000 1.0000
38.2300 474.0000 1.0000
38.2400 491.0000 1.0000
38.2500 495.0000 1.0000
38.2600 453.0000 1.0000
38.2700 432.0000 1.0000
38.2800 442.0000 1.0000
38.2900 447.0000 1.0000
38.3000 480.0000 1.0000
38.3100 445.0000 1.0000
38.3200 440.0000 1.0000
38.3300 426.0000 1.0000
38.3400 442.0000 1.0000
38.3500 439.0000 1.0000
38.3600 434.0000 1.0000
38.3700 454.0000 1.0000
38.3800 430.0000 1.0000
38.3900 432.0000 1.0000
38.4000 447.0000 1.0000
38.4100 431.0000 1.0000
38.4200 444.0000 1.0000
38.4300 422.0000 1.0000
38.4400 498.0000 1.0000
38.4500 441.0000 1.0000
38.4600 439.0000 1.0000
38.4700 409.0000 1.0000
38.4800 421.0000 1.0000
38.4900 460.0000 1.0000
38.5000 453.0000 1.0000
38.5100 445.0000 1.0000
38.5200 436.0000 1.0000
38.5300 449.0000 1.0000
38.5400 451.0000 1.0000
38.5500 433.0000 1.0000
38.5600 432.0000 1.0000
38.5700 459.0000 1.0000
38.5800 446.0000 1.0000
38.5900 434.0000 1.0000
38.6000 460.0000 1.0000
38.6100 461.0000 1.0000
38.6200 450.0000 1.0000
38.6300 449.0000 1.0000
38.6400 458.0000 1.0000
38.6500 484.0000 1.0000
38.6600 441.0000 1.0000
38.6700 446.0000 1.0000
38.6800 463.0000 1.0000
38.6900 459.0000 1.0000
38.7000 427.0000 1.0000
38.7100 436.0000 1.0000
38.7200 465.0000 1.0000
38.7300 486.0000 1.0000
38.7400 452.0000 1.0000
38.7500 432.0000 1.0000
38.7600 433.0000 1.0000
38.7700 450.0000 1.0000
38.7800 434.0000 1.0000
38.7900 467.0000 1.0000
38.8000 463.0000 1.0000
38.8100 468.0000 1.0000
38.8200 415.0000 1.0000
38.8300 427.0000 1.0000
38.8400 433.0000 1.0000
38.8500 457.0000 1.0000
38.8600 449.0000 1.0000
38.8700 412.0000 1.0000
38.8800 405.0000 1.0000
38.8900 444.0000 1.0000
38.9000 417.0000 1.0000
38.9100 466.0000 1.0000
38.9200 495.0000 1.0000
38.9300 437.0000 1.0000
38.9400 416.0000 1.0000
38.9500 388.0000 1.0000
38.9600 409.0000 1.0000
38.9700 428.0000 1.0000
38.9800 440.0000 1.0000
38.9900 416.0000 1.0000
39.0000 410.0000 1.0000
39.0100 389.0000 1.0000
39.0200 395.0000 1.0000
39.0300 387.0000 1.0000
39.0400 403.0000 1.0000
39.0500 420.0000 1.0000
39.0600 425.0000 1.0000
39.0700 412.0000 1.0000
39.0800 391.0000 1.0000
39.0900 436.0000 1.0000
39.1000 411.0000 1.0000
39.1100 407.0000 1.0000
39.1200 445.0000 1.0000
39.1300 403.0000 1.0000
39.1400 434.0000 1.0000
39.1500 424.0000 1.0000
39.1600 396.0000 1.0000
39.1700 411.0000 1.0000
39.1800 416.0000 1.0000
39.1900 378.0000 1.0000
39.2000 391.0000 1.0000
39.2100 412.0000 1.0000
39.2200 406.0000 1.0000
39.2300 427.0000 1.0000
39.2400 401.0000 1.0000
39.2500 407.0000 1.0000
39.2600 422.0000 1.0000
39.2700 395.0000 1.0000
39.2800 394.0000 1.0000
39.2900 393.0000 1.0000
39.3000 401.0000 1.0000
39.3100 390.0000 1.0000
39.3200 376.0000 1.0000
39.3300 410.0000 1.0000
39.3400 407.0000 1.0000
39.3500 415.0000 1.0000
39.3600 433.0000 1.0000
39.3700 463.0000 1.0000
39.3800 402.0000 1.0000
39.3900 398.0000 1.0000
39.4000 392.0000 1.0000
39.4100 369.0000 1.0000
39.4200 425.0000 1.0000
39.4300 380.0000 1.0000
39.4400 392.0000 1.0000
39.4500 392.0000 1.0000
39.4600 381.0000 1.0000
39.4700 427.0000 1.0000
39.4800 359.0000 1.0000
39.4900 418.0000 1.0000
39.5000 412.0000 1.0000
39.5100 393.0000 1.0000
39.5200 409.0000 1.0000
39.5300 406.0000 1.0000
39.5400 385.0000 1.0000
39.5500 408.0000 1.0000
39.5600 398.0000 1.0000
39.5700 389.0000 1.0000
39.5800 368.0000 1.0000
39.5900 373.0000 1.0000
39.6000 413.0000 1.0000
39.6100 380.0000 1.0000
39.6200 390.0000 1.0000
39.6300 409.0000 1.0000
39.6400 371.0000 1.0000
39.6500 377.0000 1.0000
39.6600 401.0000 1.0000
39.6700 372.0000 1.0000
39.6800 381.0000 1.0000
39.6900 378.0000 1.0000
39.7000 395.0000 1.0000
39.7100 369.0000 1.0000
39.7200 389.0000 1.0000
39.7300 401.0000 1.0000
39.7400 385.0000 1.0000
39.7500 394.0000 1.0000
39.7600 410.0000 1.0000
39.7700 417.0000 1.0000
39.7800 406.0000 1.0000
39.7900 459.0000 1.0000
39.8000 395.0000 1.0000
39.8100 375.0000 1.0000
39.8200 421.0000 1.0000
39.8300 407.0000 1.0000
39.8400 372.0000 1.0000
39.8500 373.0000 1.0000
39.8600 411.0000 1.0000
39.8700 387.0000 1.0000
39.8800 407.0000 1.0000
39.8900 401.0000 1.0000
39.9000 407.0000 1.0000
39.9100 381.0000 1.0000
39.9200 384.0000 1.0000
39.9300 353.0000 1.0000
39.9400 412.0000 1.0000
39.9500 372.0000 1.0000
39.9600 382.0000 1.0000
39.9700 407.0000 1.0000
39.9800 384.0000 1.0000
39.9900 413.0000 1.0000
40.0000 441.0000 1.0000
40.0100 423.0000 1.0000
40.0200 403.0000 1.0000
40.0300 365.0000 1.0000
40.0400 404.0000 1.0000
40.0500 377.0000 1.0000
40.0600 402.0000 1.0000
40.0700 405.0000 1.0000
40.0800 428.0000 1.0000
40.0900 400.0000 1.0000
40.1000 374.0000 1.0000
40.1100 399.0000 1.0000
40.1200 366.0000 1.0000
40.1300 371.0000 1.0000
40.1400 389.0000 1.0000
40.1500 414.0000 1.0000
40.1600 388.0000 1.0000
40.1700 397.0000 1.0000
40.1800 384.0000 1.0000
40.1900 379.0000 1.0000
40.2000 353.0000 1.0000
40.2100 369.0000 1.0000
40.2200 395.0000 1.0000
40.2300 385.0000 1.0000
40.2400 371.0000 1.0000
40.2500 384.0000 1.0000
40.2600 375.0000 1.0000
40.2700 391.0000 1.0000
40.2800 382.0000 1.0000
40.2900 376.0000 1.0000
40.3000 402.0000 1.0000
40.3100 394.0000 1.0000
40.3200 384.0000 1.0000
40.3300 401.0000 1.0000
40.3400 402.0000 1.0000
40.3500 382.0000 1.0000
40.3600 402.0000 1.0000
40.3700 389.0000 1.0000
40.3800 372.0000 1.0000
40.3900 372.0000 1.0000
40.4000 370.0000 1.0000
40.4100 403.0000 1.0000
40.4200 406.0000 1.0000
40.4300 379.0000 1.0000
40.4400 360.0000 1.0000
40.4500 359.0000 1.0000
40.4600 405.0000 1.0000
40.4700 399.0000 1.0000
40.4800 374.0000 1.0000
40.4900 385.0000 1.0000
40.5000 412.0000 1.0000
40.5100 358.0000 1.0000
40.5200 368.0000 1.0000
40.5300 390.0000 1.0000
40.5400 393.0000 1.0000
40.5500 374.0000 1.0000
40.5600 346.0000 1.0000
40.5700 390.0000 1.0000
40.5800 364.0000 1.0000
40.5900 388.0000 1.0000
40.6000 421.0000 1.0000
40.6100 411.0000 1.0000
40.6200 395.0000 1.0000
40.6300 437.0000 1.0000
40.6400 399.0000 1.0000
40.6500 387.0000 1.0000
40.6600 380.0000 1.0000
40.6700 427.0000 1.0000
40.6800 395.0000 1.0000
40.6900 394.0000 1.0000
40.7000 420.0000 1.0000
40.7100 421.0000 1.0000
40.7200 411.0000 1.0000
40.7300 435.0000 1.0000
40.7400 399.0000 1.0000
40.7500 428.0000 1.0000
40.7600 399.0000 1.0000
40.7700 438.0000 1.0000
40.7800 453.0000 1.0000
40.7900 424.0000 1.0000
40.8000 439.0000 1.0000
40.8100 416.0000 1.0000
40.8200 382.0000 1.0000
40.8300 417.0000 1.0000
40.8400 420.0000 1.0000
40.8500 411.0000 1.0000
40.8600 425.0000 1.0000
40.8700 440.0000 1.0000
40.8800 434.0000 1.0000
40.8900 420.0000 1.0000
40.9000 447.0000 1.0000
40.9100 432.0000 1.0000
40.9200 412.0000 1.0000
40.9300 402.0000 1.0000
40.9400 427.0000 1.0000
40.9500 411.0000 1.0000
40.9600 407.0000 1.0000
40.9700 405.0000 1.0000
40.9800 407.0000 1.0000
40.9900 392.0000 1.0000
41.0000 390.0000 1.0000
41.0100 434.0000 1.0000
41.0200 421.0000 1.0000
41.0300 383.0000 1.0000
41.0400 393.0000 1.0000
41.0500 388.0000 1.0000
41.0600 382.0000 1.0000
41.0700 399.0000 1.0000
41.0800 363.0000 1.0000
41.0900 365.0000 1.0000
41.1000 403.0000 1.0000
41.1100 388.0000 1.0000
41.1200 394.0000 1.0000
41.1300 388.0000 1.0000
41.1400 379.0000 1.0000
41.1500 391.0000 1.0000
41.1600 353.0000 1.0000
41.1700 395.0000 1.0000
41.1800 397.0000 1.0000
41.1900 369.0000 1.0000
41.2000 404.0000 1.0000
41.2100 401.0000 1.0000
41.2200 388.0000 1.0000
41.2300 390.0000 1.0000
41.2400 385.0000 1.0000
41.2500 373.0000 1.0000
41.2600 380.0000 1.0000
41.2700 391.0000 1.0000
41.2800 350.0000 1.0000
41.2900 407.0000 1.0000
41.3000 410.0000 1.0000
41.3100 365.0000 1.0000
41.3200 369.0000 1.0000
41.3300 377.0000 1.0000
41.3400 404.0000 1.0000
41.3500 401.0000 1.0000
41.3600 374.0000 1.0000
41.3700 374.0000 1.0000
41.3800 389.0000 1.0000
41.3900 388.0000 1.0000
41.4000 387.0000 1.0000
41.4100 383.0000 1.0000
41.4200 363.0000 1.0000
41.4300 375.0000 1.0000
41.4400 364.0000 1.0000
41.4500 392.0000 1.0000
41.4600 385.0000 1.0000
41.4700 373.0000 1.0000
41.4800 378.0000 1.0000
41.4900 393.0000 1.0000
41.5000 375.0000 1.0000
41.5100 362.0000 1.0000
41.5200 387.0000 1.0000
41.5300 405.0000 1.0000
41.5400 413.0000 1.0000
41.5500 369.0000 1.0000
41.5600 354.0000 1.0000
41.5700 338.0000 1.0000
41.5800 415.0000 1.0000
41.5900 392.0000 1.0000
41.6000 381.0000 1.0000
41.6100 351.0000 1.0000
41.6200 380.0000 1.0000
41.6300 405.0000 1.0000
41.6400 381.0000 1.0000
41.6500 374.0000 1.0000
41.6600 380.0000 1.0000
41.6700 395.0000 1.0000
41.6800 404.0000 1.0000
41.6900 371.0000 1.0000
41.7000 385.0000 1.0000
41.7100 406.0000 1.0000
41.7200 382.0000 1.0000
41.7300 379.0000 1.0000
41.7400 358.0000 1.0000
41.7500 396.0000 1.0000
41.7600 367.0000 1.0000
41.7700 370.0000 1.0000
41.7800 381.0000 1.0000
41.7900 426.0000 1.0000
41.8000 385.0000 1.0000
41.8100 383.0000 1.0000
41.8200 380.0000 1.0000
41.8300 351.0000 1.0000
41.8400 365.0000 1.0000
41.8500 383.0000 1.0000
41.8600 406.0000 1.0000
41.8700 397.0000 1.0000
41.8800 384.0000 1.0000
41.8900 354.0000 1.0000
41.9000 383.0000 1.0000
41.9100 361.0000 1.0000
41.9200 391.0000 1.0000
41.9300 400.0000 1.0000
41.9400 383.0000 1.0000
41.9500 390.0000 1.0000
41.9600 357.0000 1.0000
41.9700 383.0000 1.0000
41.9800 381.0000 1.0000
41.9900 397.0000 1.0000
42.0000 367.0000 1.0000
42.0100 374.0000 1.0000
42.0200 359.0000 1.0000
42.0300 373.0000 1.0000
42.0400 395.0000 1.0000
42.0500 400.0000 1.0000
42.0600 379.0000 1.0000
42.0700 345.0000 1.0000
42.0800 379.0000 1.0000
42.0900 405.0000 1.0000
42.1000 393.0000 1.0000
42.1100 380.0000 1.0000
42.1200 381.0000 1.0000
42.1300 366.0000 1.0000
42.1400 358.0000 1.0000
42.1500 396.0000 1.0000
42.1600 384.0000 1.0000
42.1700 373.0000 1.0000
42.1800 378.0000 1.0000
42.1900 382.0000 1.0000
42.2000 372.0000 1.0000
42.2100 375.0000 1.0000
42.2200 397.0000 1.0000
42.2300 375.0000 1.0000
42.2400 398.0000 1.0000
42.2500 375.0000 1.0000
42.2600 380.0000 1.0000
42.2700 420.0000 1.0000
42.2800 421.0000 1.0000
42.2900 377.0000 1.0000
42.3000 373.0000 1.0000
42.3100 407.0000 1.0000
42.3200 411.0000 1.0000
42.3300 412.0000 1.0000
42.3400 402.0000 1.0000
42.3500 410.0000 1.0000
42.3600 417.0000 1.0000
42.3700 391.0000 1.0000
42.3800 402.0000 1.0000
42.3900 417.0000 1.0000
42.4000 427.0000 1.0000
42.4100 420.0000 1.0000
42.4200 417.0000 1.0000
42.4300 409.0000 1.0000
42.4400 404.0000 1.0000
42.4500 401.0000 1.0000
42.4600 445.0000 1.0000
42.4700 427.0000 1.0000
42.4800 433.0000 1.0000
42.4900 401.0000 1.0000
42.5000 402.0000 1.0000
42.5100 444.0000 1.0000
42.5200 418.0000 1.0000
42.5300 421.0000 1.0000
42.5400 411.0000 1.0000
42.5500 388.0000 1.0000
42.5600 381.0000 1.0000
42.5700 395.0000 1.0000
42.5800 410.0000 1.0000
42.5900 386.0000 1.0000
42.6000 361.0000 1.0000
42.6100 381.0000 1.0000
42.6200 406.0000 1.0000
42.6300 415.0000 1.0000
42.6400 367.0000 1.0000
42.6500 388.0000 1.0000
42.6600 379.0000 1.0000
42.6700 364.0000 1.0000
42.6800 394.0000 1.0000
42.6900 375.0000 1.0000
42.7000 360.0000 1.0000
42.7100 386.0000 1.0000
42.7200 365.0000 1.0000
42.7300 386.0000 1.0000
42.7400 406.0000 1.0000
42.7500 360.0000 1.0000
42.7600 374.0000 1.0000
42.7700 370.0000 1.0000
42.7800 374.0000 1.0000
42.7900 383.0000 1.0000
42.8000 389.0000 1.0000
42.8100 352.0000 1.0000
42.8200 363.0000 1.0000
42.8300 402.0000 1.0000
42.8400 367.0000 1.0000
42.8500 353.0000 1.0000
42.8600 402.0000 1.0000
42.8700 390.0000 1.0000
42.8800 396.0000 1.0000
42.8900 397.0000 1.0000
42.9000 410.0000 1.0000
42.9100 375.0000 1.0000
42.9200 364.0000 1.0000
42.9300 384.0000 1.0000
42.9400 384.0000 1.0000
42.9500 357.0000 1.0000
42.9600 386.0000 1.0000
42.9700 380.0000 1.0000
42.9800 400.0000 1.0000
42.9900 354.0000 1.0000
43.0000 373.0000 1.0000
43.0100 372.0000 1.0000
43.0200 389.0000 1.0000
43.0300 397.0000 1.0000
43.0400 363.0000 1.0000
43.0500 351.0000 1.0000
43.0600 378.0000 1.0000
43.0700 344.0000 1.0000
43.0800 383.0000 1.0000
43.0900 340.0000 1.0000
43.1000 396.0000 1.0000
43.1100 359.0000 1.0000
43.1200 367.0000 1.0000
43.1300 382.0000 1.0000
43.1400 356.0000 1.0000
43.1500 361.0000 1.0000
43.1600 363.0000 1.0000
43.1700 350.0000 1.0000
43.1800 396.0000 1.0000
43.1900 382.0000 1.0000
43.2000 368.0000 1.0000
43.2100 397.0000 1.0000
43.2200 388.0000 1.0000
43.2300 334.0000 1.0000
43.2400 357.0000 1.0000
43.2500 354.0000 1.0000
43.2600 371.0000 1.0000
43.2700 386.0000 1.0000
43.2800 371.0000 1.0000
43.2900 379.0000 1.0000
43.3000 376.0000 1.0000
43.3100 333.0000 1.0000
43.3200 361.0000 1.0000
43.3300 362.0000 1.0000
43.3400 394.0000 1.0000
43.3500 365.0000 1.0000
43.3600 357.0000 1.0000
43.3700 356.0000 1.0000
43.3800 390.0000 1.0000
43.3900 389.0000 1.0000
43.4000 372.0000 1.0000
43.4100 387.0000 1.0000
43.4200 396.0000 1.0000
43.4300 368.0000 1.0000
43.4400 360.0000 1.0000
43.4500 358.0000 1.0000
43.4600 353.0000 1.0000
43.4700 393.0000 1.0000
43.4800 370.0000 1.0000
43.4900 405.0000 1.0000
43.5000 361.0000 1.0000
43.5100 352.0000 1.0000
43.5200 387.0000 1.0000
43.5300 355.0000 1.0000
43.5400 382.0000 1.0000
43.5500 371.0000 1.0000
43.5600 356.0000 1.0000
43.5700 390.0000 1.0000
43.5800 350.0000 1.0000
43.5900 363.0000 1.0000
43.6000 385.0000 1.0000
43.6100 352.0000 1.0000
43.6200 372.0000 1.0000
43.6300 395.0000 1.0000
43.6400 371.0000 1.0000
43.6500 381.0000 1.0000
43.6600 358.0000 1.0000
43.6700 371.0000 1.0000
43.6800 357.0000 1.0000
43.6900 368.0000 1.0000
43.7000 353.0000 1.0000
43.7100 361.0000 1.0000
43.7200 357.0000 1.0000
43.7300 360.0000 1.0000
43.7400 345.0000 1.0000
43.7500 356.0000 1.0000
43.7600 374.0000 1.0000
43.7700 328.0000 1.0000
43.7800 382.0000 1.0000
43.7900 364.0000 1.0000
43.8000 359.0000 1.0000
43.8100 344.0000 1.0000
43.8200 372.0000 1.0000
43.8300 360.0000 1.0000
43.8400 353.0000 1.0000
43.8500 368.0000 1.0000
43.8600 321.0000 1.0000
43.8700 359.0000 1.0000
43.8800 354.0000 1.0000
43.8900 358.0000 1.0000
43.9000 389.0000 1.0000
43.9100 399.0000 1.0000
43.9200 369.0000 1.0000
43.9300 351.0000 1.0000
43.9400 376.0000 1.0000
43.9500 326.0000 1.0000
43.9600 340.0000 1.0000
43.9700 331.0000 1.0000
43.9800 332.0000 1.0000
43.9900 336.0000 1.0000
44.0000 359.0000 1.0000
44.0100 347.0000 1.0000
44.0200 335.0000 1.0000
44.0300 323.0000 1.0000
44.0400 378.0000 1.0000
44.0500 358.0000 1.0000
44.0600 363.0000 1.0000
44.0700 348.0000 1.0000
44.0800 360.0000 1.0000
44.0900 368.0000 1.0000
44.1000 347.0000 1.0000
44.1100 346.0000 1.0000
44.1200 358.0000 1.0000
44.1300 384.0000 1.0000
44.1400 339.0000 1.0000
44.1500 391.0000 1.0000
44.1600 336.0000 1.0000
44.1700 363.0000 1.0000
44.1800 343.0000 1.0000
44.1900 358.0000 1.0000
44.2000 369.0000 1.0000
44.2100 350.0000 1.0000
44.2200 372.0000 1.0000
44.2300 357.0000 1.0000
44.2400 339.0000 1.0000
44.2500 368.0000 1.0000
44.2600 362.0000 1.0000
44.2700 366.0000 1.0000
44.2800 358.0000 1.0000
44.2900 347.0000 1.0000
44.3000 366.0000 1.0000
44.3100 361.0000 1.0000
44.3200 335.0000 1.0000
44.3300 369.0000 1.0000
44.3400 377.0000 1.0000
44.3500 347.0000 1.0000
44.3600 350.0000 1.0000
44.3700 341.0000 1.0000
44.3800 372.0000 1.0000
44.3900 358.0000 1.0000
44.4000 356.0000 1.0000
44.4100 365.0000 1.0000
44.4200 341.0000 1.0000
44.4300 359.0000 1.0000
44.4400 353.0000 1.0000
44.4500 368.0000 1.0000
44.4600 381.0000 1.0000
44.4700 320.0000 1.0000
44.4800 350.0000 1.0000
44.4900 355.0000 1.0000
44.5000 371.0000 1.0000
44.5100 353.0000 1.0000
44.5200 348.0000 1.0000
44.5300 330.0000 1.0000
44.5400 334.0000 1.0000
44.5500 352.0000 1.0000
44.5600 351.0000 1.0000
44.5700 354.0000 1.0000
44.5800 385.0000 1.0000
44.5900 352.0000 1.0000
44.6000 353.0000 1.0000
44.6100 356.0000 1.0000
44.6200 355.0000 1.0000
44.6300 343.0000 1.0000
44.6400 378.0000 1.0000
44.6500 371.0000 1.0000
44.6600 346.0000 1.0000
44.6700 340.0000 1.0000
44.6800 341.0000 1.0000
44.6900 343.0000 1.0000
44.7000 333.0000 1.0000
44.7100 338.0000 1.0000
44.7200 365.0000 1.0000
44.7300 364.0000 1.0000
44.7400 353.0000 1.0000
44.7500 375.0000 1.0000
44.7600 364.0000 1.0000
44.7700 356.0000 1.0000
44.7800 346.0000 1.0000
44.7900 359.0000 1.0000
44.8000 376.0000 1.0000
44.8100 363.0000 1.0000
44.8200 346.0000 1.0000
44.8300 371.0000 1.0000
44.8400 376.0000 1.0000
44.8500 335.0000 1.0000
44.8600 374.0000 1.0000
44.8700 358.0000 1.0000
44.8800 328.0000 1.0000
44.8900 334.0000 1.0000
44.9000 358.0000 1.0000
44.9100 309.0000 1.0000
44.9200 341.0000 1.0000
44.9300 330.0000 1.0000
44.9400 316.0000 1.0000
44.9500 329.0000 1.0000
44.9600 325.0000 1.0000
44.9700 339.0000 1.0000
44.9800 348.0000 1.0000
44.9900 348.0000 1.0000
45.0000 370.0000 1.0000
45.0100 376.0000 1.0000
45.0200 355.0000 1.0000
45.0300 372.0000 1.0000
45.0400 362.0000 1.0000
45.0500 337.0000 1.0000
45.0600 346.0000 1.0000
45.0700 371.0000 1.0000
45.0800 354.0000 1.0000
45.0900 362.0000 1.0000
45.1000 388.0000 1.0000
45.1100 373.0000 1.0000
45.1200 338.0000 1.0000
45.1300 358.0000 1.0000
45.1400 372.0000 1.0000
45.1500 362.0000 1.0000
45.1600 339.0000 1.0000
45.1700 362.0000 1.0000
45.1800 319.0000 1.0000
45.1900 363.0000 1.0000
45.2000 350.0000 1.0000
45.2100 337.0000 1.0000
45.2200 319.0000 1.0000
45.2300 337.0000 1.0000
45.2400 374.0000 1.0000
45.2500 349.0000 1.0000
45.2600 338.0000 1.0000
45.2700 335.0000 1.0000
45.2800 372.0000 1.0000
45.2900 375.0000 1.0000
45.3000 365.0000 1.0000
45.3100 349.0000 1.0000
45.3200 329.0000 1.0000
45.3300 375.0000 1.0000
45.3400 341.0000 1.0000
45.3500 338.0000 1.0000
45.3600 367.0000 1.0000
45.3700 345.0000 1.0000
45.3800 357.0000 1.0000
45.3900 348.0000 1.0000
45.4000 364.0000 1.0000
45.4100 343.0000 1.0000
45.4200 337.0000 1.0000
45.4300 340.0000 1.0000
45.4400 339.0000 1.0000
45.4500 359.0000 1.0000
45.4600 331.0000 1.0000
45.4700 358.0000 1.0000
45.4800 347.0000 1.0000
45.4900 354.0000 1.0000
45.5000 338.0000 1.0000
45.5100 345.0000 1.0000
45.5200 332.0000 1.0000
45.5300 305.0000 1.0000
45.5400 349.0000 1.0000
45.5500 335.0000 1.0000
45.5600 350.0000 1.0000
45.5700 363.0000 1.0000
45.5800 356.0000 1.0000
45.5900 316.0000 1.0000
45.6000 344.0000 1.0000
45.6100 337.0000 1.0000
45.6200 336.0000 1.0000
45.6300 360.0000 1.0000
45.6400 340.0000 1.0000
45.6500 343.0000 1.0000
45.6600 347.0000 1.0000
45.6700 347.0000 1.0000
45.6800 355.0000 1.0000
45.6900 342.0000 1.0000
45.7000 320.0000 1.0000
45.7100 340.0000 1.0000
45.7200 356.0000 1.0000
45.7300 322.0000 1.0000
45.7400 351.0000 1.0000
45.7500 354.0000 1.0000
45.7600 352.0000 1.0000
45.7700 343.0000 1.0000
45.7800 344.0000 1.0000
45.7900 332.0000 1.0000
45.8000 327.0000 1.0000
45.8100 341.0000 1.0000
45.8200 324.0000 1.0000
45.8300 332.0000 1.0000
45.8400 341.0000 1.0000
45.8500 331.0000 1.0000
45.8600 302.0000 1.0000
45.8700 321.0000 1.0000
45.8800 345.0000 1.0000
45.8900 330.0000 1.0000
45.9000 344.0000 1.0000
45.9100 326.0000 1.0000
45.9200 350.0000 1.0000
45.9300 350.0000 1.0000
45.9400 304.0000 1.0000
45.9500 354.0000 1.0000
45.9600 359.0000 1.0000
45.9700 321.0000 1.0000
45.9800 346.0000 1.0000
45.9900 326.0000 1.0000
46.0000 336.0000 1.0000
46.0100 352.0000 1.0000
46.0200 348.0000 1.0000
46.0300 373.0000 1.0000
46.0400 329.0000 1.0000
46.0500 335.0000 1.0000
46.0600 378.0000 1.0000
46.0700 339.0000 1.0000
46.0800 338.0000 1.0000
46.0900 345.0000 1.0000
46.1000 359.0000 1.0000
46.1100 360.0000 1.0000
46.1200 340.0000 1.0000
46.1300 350.0000 1.0000
46.1400 344.0000 1.0000
46.1500 361.0000 1.0000
46.1600 344.0000 1.0000
46.1700 368.0000 1.0000
46.1800 368.0000 1.0000
46.1900 356.0000 1.0000
46.2000 338.0000 1.0000
46.2100 323.0000 1.0000
46.2200 361.0000 1.0000
46.2300 380.0000 1.0000
46.2400 335.0000 1.0000
46.2500 345.0000 1.0000
46.2600 344.0000 1.0000
46.2700 364.0000 1.0000
46.2800 363.0000 1.0000
46.2900 353.0000 1.0000
46.3000 336.0000 1.0000
46.3100 328.0000 1.0000
46.3200 324.0000 1.0000
46.3300 356.0000 1.0000
46.3400 335.0000 1.0000
46.3500 329.0000 1.0000
46.3600 333.0000 1.0000
46.3700 326.0000 1.0000
46.3800 324.0000 1.0000
46.3900 346.0000 1.0000
46.4000 345.0000 1.0000
46.4100 301.0000 1.0000
46.4200 341.0000 1.0000
46.4300 344.0000 1.0000
46.4400 346.0000 1.0000
46.4500 340.0000 1.0000
46.4600 324.0000 1.0000
46.4700 334.0000 1.0000
46.4800 350.0000 1.0000
46.4900 358.0000 1.0000
46.5000 340.0000 1.0000
46.5100 323.0000 1.0000
46.5200 312.0000 1.0000
46.5300 357.0000 1.0000
46.5400 357.0000 1.0000
46.5500 340.0000 1.0000
46.5600 320.0000 1.0000
46.5700 325.0000 1.0000
46.5800 326.0000 1.0000
46.5900 328.0000 1.0000
46.6000 293.0000 1.0000
46.6100 374.0000 1.0000
46.6200 340.0000 1.0000
46.6300 312.0000 1.0000
46.6400 337.0000 1.0000
46.6500 382.0000 1.0000
46.6600 367.0000 1.0000
46.6700 356.0000 1.0000
46.6800 352.0000 1.0000
46.6900 355.0000 1.0000
46.7000 365.0000 1.0000
46.7100 340.0000 1.0000
46.7200 315.0000 1.0000
46.7300 338.0000 1.0000
46.7400 344.0000 1.0000
46.7500 339.0000 1.0000
46.7600 362.0000 1.0000
46.7700 367.0000 1.0000
46.7800 342.0000 1.0000
46.7900 324.0000 1.0000
46.8000 320.0000 1.0000
46.8100 334.0000 1.0000
46.8200 304.0000 1.0000
46.8300 356.0000 1.0000
46.8400 348.0000 1.0000
46.8500 354.0000 1.0000
46.8600 342.0000 1.0000
46.8700 338.0000 1.0000
46.8800 327.0000 1.0000
46.8900 330.0000 1.0000
46.9000 349.0000 1.0000
46.9100 320.0000 1.0000
46.9200 324.0000 1.0000
46.9300 317.0000 1.0000
46.9400 329.0000 1.0000
46.9500 321.0000 1.0000
46.9600 346.0000 1.0000
46.9700 343.0000 1.0000
46.9800 350.0000 1.0000
46.9900 317.0000 1.0000
47.0000 339.0000 1.0000
47.0100 343.0000 1.0000
47.0200 367.0000 1.0000
47.0300 332.0000 1.0000
47.0400 334.0000 1.0000
47.0500 338.0000 1.0000
47.0600 332.0000 1.0000
47.0700 338.0000 1.0000
47.0800 334.0000 1.0000
47.0900 332.0000 1.0000
47.1000 346.0000 1.0000
47.1100 354.0000 1.0000
47.1200 343.0000 1.0000
47.1300 325.0000 1.0000
47.1400 346.0000 1.0000
47.1500 317.0000 1.0000
47.1600 335.0000 1.0000
47.1700 310.0000 1.0000
47.1800 308.0000 1.0000
47.1900 304.0000 1.0000
47.2000 308.0000 1.0000
47.2100 320.0000 1.0000
47.2200 329.0000 1.0000
47.2300 329.0000 1.0000
47.2400 333.0000 1.0000
47.2500 347.0000 1.0000
47.2600 331.0000 1.0000
47.2700 329.0000 1.0000
47.2800 326.0000 1.0000
47.2900 361.0000 1.0000
47.3000 343.0000 1.0000
47.3100 337.0000 1.0000
47.3200 365.0000 1.0000
47.3300 329.0000 1.0000
47.3400 319.0000 1.0000
47.3500 318.0000 1.0000
47.3600 315.0000 1.0000
47.3700 321.0000 1.0000
47.3800 334.0000 1.0000
47.3900 353.0000 1.0000
47.4000 330.0000 1.0000
47.4100 330.0000 1.0000
47.4200 314.0000 1.0000
47.4300 321.0000 1.0000
47.4400 317.0000 1.0000
47.4500 314.0000 1.0000
47.4600 321.0000 1.0000
47.4700 300.0000 1.0000
47.4800 335.0000 1.0000
47.4900 319.0000 1.0000
47.5000 330.0000 1.0000
47.5100 354.0000 1.0000
47.5200 330.0000 1.0000
47.5300 320.0000 1.0000
47.5400 316.0000 1.0000
47.5500 360.0000 1.0000
47.5600 340.0000 1.0000
47.5700 325.0000 1.0000
47.5800 316.0000 1.0000
47.5900 296.0000 1.0000
47.6000 316.0000 1.0000
47.6100 321.0000 1.0000
47.6200 327.0000 1.0000
47.6300 341.0000 1.0000
47.6400 345.0000 1.0000
47.6500 330.0000 1.0000
47.6600 300.0000 1.0000
47.6700 324.0000 1.0000
47.6800 321.0000 1.0000
47.6900 328.0000 1.0000
47.7000 333.0000 1.0000
47.7100 308.0000 1.0000
47.7200 322.0000 1.0000
47.7300 340.0000 1.0000
47.7400 340.0000 1.0000
47.7500 331.0000 1.0000
47.7600 354.0000 1.0000
47.7700 324.0000 1.0000
47.7800 341.0000 1.0000
47.7900 346.0000 1.0000
47.8000 310.0000 1.0000
47.8100 331.0000 1.0000
47.8200 329.0000 1.0000
47.8300 336.0000 1.0000
47.8400 338.0000 1.0000
47.8500 308.0000 1.0000
47.8600 331.0000 1.0000
47.8700 299.0000 1.0000
47.8800 326.0000 1.0000
47.8900 333.0000 1.0000
47.9000 329.0000 1.0000
47.9100 337.0000 1.0000
47.9200 317.0000 1.0000
47.9300 296.0000 1.0000
47.9400 318.0000 1.0000
47.9500 318.0000 1.0000
47.9600 328.0000 1.0000
47.9700 350.0000 1.0000
47.9800 323.0000 1.0000
47.9900 313.0000 1.0000
48.0000 312.0000 1.0000
48.0100 318.0000 1.0000
48.0200 321.0000 1.0000
48.0300 302.0000 1.0000
48.0400 346.0000 1.0000
48.0500 344.0000 1.0000
48.0600 324.0000 1.0000
48.0700 336.0000 1.0000
48.0800 342.0000 1.0000
48.0900 302.0000 1.0000
48.1000 340.0000 1.0000
48.1100 359.0000 1.0000
48.1200 318.0000 1.0000
48.1300 337.0000 1.0000
48.1400 326.0000 1.0000
48.1500 325.0000 1.0000
48.1600 335.0000 1.0000
48.1700 340.0000 1.0000
48.1800 328.0000 1.0000
48.1900 334.0000 1.0000
48.2000 321.0000 1.0000
48.2100 333.0000 1.0000
48.2200 311.0000 1.0000
48.2300 322.0000 1.0000
48.2400 315.0000 1.0000
48.2500 311.0000 1.0000
48.2600 333.0000 1.0000
48.2700 300.0000 1.0000
48.2800 323.0000 1.0000
48.2900 311.0000 1.0000
48.3000 310.0000 1.0000
48.3100 331.0000 1.0000
48.3200 343.0000 1.0000
48.3300 319.0000 1.0000
48.3400 315.0000 1.0000
48.3500 314.0000 1.0000
48.3600 314.0000 1.0000
48.3700 338.0000 1.0000
48.3800 329.0000 1.0000
48.3900 312.0000 1.0000
48.4000 318.0000 1.0000
48.4100 315.0000 1.0000
48.4200 317.0000 1.0000
48.4300 330.0000 1.0000
48.4400 301.0000 1.0000
48.4500 311.0000 1.0000
48.4600 300.0000 1.0000
48.4700 328.0000 1.0000
48.4800 336.0000 1.0000
48.4900 330.0000 1.0000
48.5000 360.0000 1.0000
48.5100 327.0000 1.0000
48.5200 296.0000 1.0000
48.5300 321.0000 1.0000
48.5400 352.0000 1.0000
48.5500 311.0000 1.0000
48.5600 341.0000 1.0000
48.5700 329.0000 1.0000
48.5800 328.0000 1.0000
48.5900 282.0000 1.0000
48.6000 305.0000 1.0000
48.6100 335.0000 1.0000
48.6200 366.0000 1.0000
48.6300 319.0000 1.0000
48.6400 333.0000 1.0000
48.6500 315.0000 1.0000
48.6600 340.0000 1.0000
48.6700 321.0000 1.0000
48.6800 330.0000 1.0000
48.6900 309.0000 1.0000
48.7000 307.0000 1.0000
48.7100 290.0000 1.0000
48.7200 342.0000 1.0000
48.7300 325.0000 1.0000
48.7400 319.0000 1.0000
48.7500 303.0000 1.0000
48.7600 337.0000 1.0000
48.7700 312.0000 1.0000
48.7800 291.0000 1.0000
48.7900 324.0000 1.0000
48.8000 340.0000 1.0000
48.8100 316.0000 1.0000
48.8200 281.0000 1.0000
48.8300 319.0000 1.0000
48.8400 352.0000 1.0000
48.8500 349.0000 1.0000
48.8600 320.0000 1.0000
48.8700 326.0000 1.0000
48.8800 310.0000 1.0000
48.8900 353.0000 1.0000
48.9000 298.0000 1.0000
48.9100 344.0000 1.0000
48.9200 310.0000 1.0000
48.9300 308.0000 1.0000
48.9400 299.0000 1.0000
48.9500 293.0000 1.0000
48.9600 309.0000 1.0000
48.9700 330.0000 1.0000
48.9800 299.0000 1.0000
48.9900 294.0000 1.0000
49.0000 334.0000 1.0000
49.0100 338.0000 1.0000
49.0200 316.0000 1.0000
49.0300 314.0000 1.0000
49.0400 310.0000 1.0000
49.0500 322.0000 1.0000
49.0600 302.0000 1.0000
49.0700 318.0000 1.0000
49.0800 333.0000 1.0000
49.0900 321.0000 1.0000
49.1000 333.0000 1.0000
49.1100 327.0000 1.0000
49.1200 309.0000 1.0000
49.1300 306.0000 1.0000
49.1400 316.0000 1.0000
49.1500 327.0000 1.0000
49.1600 316.0000 1.0000
49.1700 334.0000 1.0000
49.1800 306.0000 1.0000
49.1900 358.0000 1.0000
49.2000 327.0000 1.0000
49.2100 337.0000 1.0000
49.2200 371.0000 1.0000
49.2300 350.0000 1.0000
49.2400 327.0000 1.0000
49.2500 343.0000 1.0000
49.2600 335.0000 1.0000
49.2700 367.0000 1.0000
49.2800 349.0000 1.0000
49.2900 344.0000 1.0000
49.3000 370.0000 1.0000
49.3100 354.0000 1.0000
49.3200 384.0000 1.0000
49.3300 356.0000 1.0000
49.3400 358.0000 1.0000
49.3500 377.0000 1.0000
49.3600 361.0000 1.0000
49.3700 382.0000 1.0000
49.3800 375.0000 1.0000
49.3900 356.0000 1.0000
49.4000 363.0000 1.0000
49.4100 390.0000 1.0000
49.4200 380.0000 1.0000
49.4300 378.0000 1.0000
49.4400 391.0000 1.0000
49.4500 389.0000 1.0000
49.4600 363.0000 1.0000
49.4700 358.0000 1.0000
49.4800 403.0000 1.0000
49.4900 379.0000 1.0000
49.5000 389.0000 1.0000
49.5100 379.0000 1.0000
49.5200 368.0000 1.0000
49.5300 352.0000 1.0000
49.5400 344.0000 1.0000
49.5500 332.0000 1.0000
49.5600 358.0000 1.0000
49.5700 359.0000 1.0000
49.5800 356.0000 1.0000
49.5900 372.0000 1.0000
49.6000 369.0000 1.0000
49.6100 322.0000 1.0000
49.6200 338.0000 1.0000
49.6300 369.0000 1.0000
49.6400 344.0000 1.0000
49.6500 352.0000 1.0000
49.6600 326.0000 1.0000
49.6700 354.0000 1.0000
49.6800 316.0000 1.0000
49.6900 335.0000 1.0000
49.7000 340.0000 1.0000
49.7100 337.0000 1.0000
49.7200 321.0000 1.0000
49.7300 332.0000 1.0000
49.7400 331.0000 1.0000
49.7500 331.0000 1.0000
49.7600 333.0000 1.0000
49.7700 319.0000 1.0000
49.7800 305.0000 1.0000
49.7900 327.0000 1.0000
49.8000 333.0000 1.0000
49.8100 325.0000 1.0000
49.8200 325.0000 1.0000
49.8300 327.0000 1.0000
49.8400 344.0000 1.0000
49.8500 346.0000 1.0000
49.8600 325.0000 1.0000
49.8700 333.0000 1.0000
49.8800 352.0000 1.0000
49.8900 322.0000 1.0000
49.9000 351.0000 1.0000
49.9100 320.0000 1.0000
49.9200 315.0000 1.0000
49.9300 345.0000 1.0000
49.9400 317.0000 1.0000
49.9500 330.0000 1.0000
49.9600 318.0000 1.0000
49.9700 293.0000 1.0000
49.9800 296.0000 1.0000
49.9900 358.0000 1.0000
50.0000 330.0000 1.0000
50.0100 313.0000 1.0000
50.0200 323.0000 1.0000
50.0300 312.0000 1.0000
50.0400 320.0000 1.0000
50.0500 304.0000 1.0000
50.0600 303.0000 1.0000
50.0700 335.0000 1.0000
50.0800 316.0000 1.0000
50.0900 327.0000 1.0000
50.1000 339.0000 1.0000
50.1100 306.0000 1.0000
50.1200 301.0000 1.0000
50.1300 314.0000 1.0000
50.1400 327.0000 1.0000
50.1500 330.0000 1.0000
50.1600 324.0000 1.0000
50.1700 306.0000 1.0000
50.1800 329.0000 1.0000
50.1900 326.0000 1.0000
50.2000 306.0000 1.0000
50.2100 334.0000 1.0000
50.2200 336.0000 1.0000
50.2300 323.0000 1.0000
50.2400 334.0000 1.0000
50.2500 336.0000 1.0000
50.2600 310.0000 1.0000
50.2700 307.0000 1.0000
50.2800 331.0000 1.0000
50.2900 359.0000 1.0000
50.3000 336.0000 1.0000
50.3100 332.0000 1.0000
50.3200 320.0000 1.0000
50.3300 352.0000 1.0000
50.3400 296.0000 1.0000
50.3500 342.0000 1.0000
50.3600 348.0000 1.0000
50.3700 314.0000 1.0000
50.3800 311.0000 1.0000
50.3900 339.0000 1.0000
50.4000 328.0000 1.0000
50.4100 328.0000 1.0000
50.4200 333.0000 1.0000
50.4300 332.0000 1.0000
50.4400 312.0000 1.0000
50.4500 329.0000 1.0000
50.4600 288.0000 1.0000
50.4700 314.0000 1.0000
50.4800 314.0000 1.0000
50.4900 369.0000 1.0000
50.5000 345.0000 1.0000
50.5100 322.0000 1.0000
50.5200 310.0000 1.0000
50.5300 292.0000 1.0000
50.5400 305.0000 1.0000
50.5500 316.0000 1.0000
50.5600 320.0000 1.0000
50.5700 314.0000 1.0000
50.5800 308.0000 1.0000
50.5900 354.0000 1.0000
50.6000 328.0000 1.0000
50.6100 334.0000 1.0000
50.6200 310.0000 1.0000
50.6300 347.0000 1.0000
50.6400 338.0000 1.0000
50.6500 320.0000 1.0000
50.6600 344.0000 1.0000
50.6700 320.0000 1.0000
50.6800 317.0000 1.0000
50.6900 330.0000 1.0000
50.7000 314.0000 1.0000
50.7100 301.0000 1.0000
50.7200 321.0000 1.0000
50.7300 325.0000 1.0000
50.7400 322.0000 1.0000
50.7500 323.0000 1.0000
50.7600 326.0000 1.0000
50.7700 295.0000 1.0000
50.7800 345.0000 1.0000
50.7900 333.0000 1.0000
50.8000 322.0000 1.0000
50.8100 350.0000 1.0000
50.8200 343.0000 1.0000
50.8300 329.0000 1.0000
50.8400 320.0000 1.0000
50.8500 336.0000 1.0000
50.8600 314.0000 1.0000
50.8700 324.0000 1.0000
50.8800 338.0000 1.0000
50.8900 324.0000 1.0000
50.9000 340.0000 1.0000
50.9100 352.0000 1.0000
50.9200 327.0000 1.0000
50.9300 347.0000 1.0000
50.9400 345.0000 1.0000
50.9500 344.0000 1.0000
50.9600 311.0000 1.0000
50.9700 344.0000 1.0000
50.9800 364.0000 1.0000
50.9900 347.0000 1.0000
51.0000 327.0000 1.0000
51.0100 367.0000 1.0000
51.0200 385.0000 1.0000
51.0300 371.0000 1.0000
51.0400 391.0000 1.0000
51.0500 379.0000 1.0000
51.0600 389.0000 1.0000
51.0700 379.0000 1.0000
51.0800 405.0000 1.0000
51.0900 407.0000 1.0000
51.1000 414.0000 1.0000
51.1100 398.0000 1.0000
51.1200 420.0000 1.0000
51.1300 427.0000 1.0000
51.1400 418.0000 1.0000
51.1500 427.0000 1.0000
51.1600 427.0000 1.0000
51.1700 458.0000 1.0000
51.1800 491.0000 1.0000
51.1900 461.0000 1.0000
51.2000 492.0000 1.0000
51.2100 516.0000 1.0000
51.2200 563.0000 1.0000
51.2300 539.0000 1.0000
51.2400 559.0000 1.0000
51.2500 619.0000 1.0000
51.2600 648.0000 1.0000
51.2700 633.0000 1.0000
51.2800 682.0000 1.0000
51.2900 683.0000 1.0000
51.3000 759.0000 1.0000
51.3100 793.0000 1.0000
51.3200 834.0000 1.0000
51.3300 943.0000 1.0000
51.3400 979.0000 1.0000
51.3500 1049.0000 1.0000
51.3600 1135.0000 1.0000
51.3700 1207.0000 1.0000
51.3800 1294.0000 1.0000
51.3900 1405.0000 1.0000
51.4000 1469.0000 1.0000
51.4100 1613.0000 1.0000
51.4200 1696.0000 1.0000
51.4300 1684.0000 1.0000
51.4400 1857.0000 1.0000
51.4500 1903.0000 1.0000
51.4600 2016.0000 1.0000
51.4700 2071.0000 1.0000
51.4800 2069.0000 1.0000
51.4900 2118.0000 1.0000
51.5000 1999.0000 1.0000
51.5100 1933.0000 1.0000
51.5200 1966.0000 1.0000
51.5300 1879.0000 1.0000
51.5400 1785.0000 1.0000
51.5500 1691.0000 1.0000
51.5600 1689.0000 1.0000
51.5700 1585.0000 1.0000
51.5800 1628.0000 1.0000
51.5900 1525.0000 1.0000
51.6000 1523.0000 1.0000
51.6100 1452.0000 1.0000
51.6200 1415.0000 1.0000
51.6300 1345.0000 1.0000
51.6400 1220.0000 1.0000
51.6500 1172.0000 1.0000
51.6600 1128.0000 1.0000
51.6700 1082.0000 1.0000
51.6800 995.0000 1.0000
51.6900 899.0000 1.0000
51.7000 852.0000 1.0000
51.7100 787.0000 1.0000
51.7200 749.0000 1.0000
51.7300 711.0000 1.0000
51.7400 639.0000 1.0000
51.7500 652.0000 1.0000
51.7600 582.0000 1.0000
51.7700 598.0000 1.0000
51.7800 556.0000 1.0000
51.7900 555.0000 1.0000
51.8000 537.0000 1.0000
51.8100 528.0000 1.0000
51.8200 512.0000 1.0000
51.8300 443.0000 1.0000
51.8400 452.0000 1.0000
51.8500 463.0000 1.0000
51.8600 434.0000 1.0000
51.8700 411.0000 1.0000
51.8800 434.0000 1.0000
51.8900 413.0000 1.0000
51.9000 397.0000 1.0000
51.9100 419.0000 1.0000
51.9200 405.0000 1.0000
51.9300 372.0000 1.0000
51.9400 381.0000 1.0000
51.9500 399.0000 1.0000
51.9600 379.0000 1.0000
51.9700 384.0000 1.0000
51.9800 359.0000 1.0000
51.9900 385.0000 1.0000
52.0000 366.0000 1.0000
52.0100 346.0000 1.0000
52.0200 355.0000 1.0000
52.0300 366.0000 1.0000
52.0400 381.0000 1.0000
52.0500 364.0000 1.0000
52.0600 347.0000 1.0000
52.0700 341.0000 1.0000
52.0800 360.0000 1.0000
52.0900 357.0000 1.0000
52.1000 365.0000 1.0000
52.1100 369.0000 1.0000
52.1200 323.0000 1.0000
52.1300 327.0000 1.0000
52.1400 327.0000 1.0000
52.1500 340.0000 1.0000
52.1600 325.0000 1.0000
52.1700 320.0000 1.0000
52.1800 332.0000 1.0000
52.1900 337.0000 1.0000
52.2000 320.0000 1.0000
52.2100 334.0000 1.0000
52.2200 349.0000 1.0000
52.2300 357.0000 1.0000
52.2400 338.0000 1.0000
52.2500 314.0000 1.0000
52.2600 350.0000 1.0000
52.2700 350.0000 1.0000
52.2800 334.0000 1.0000
52.2900 302.0000 1.0000
52.3000 353.0000 1.0000
52.3100 291.0000 1.0000
52.3200 320.0000 1.0000
52.3300 321.0000 1.0000
52.3400 298.0000 1.0000
52.3500 300.0000 1.0000
52.3600 337.0000 1.0000
52.3700 332.0000 1.0000
52.3800 347.0000 1.0000
52.3900 324.0000 1.0000
52.4000 318.0000 1.0000
52.4100 319.0000 1.0000
52.4200 324.0000 1.0000
52.4300 308.0000 1.0000
52.4400 301.0000 1.0000
52.4500 329.0000 1.0000
52.4600 308.0000 1.0000
52.4700 343.0000 1.0000
52.4800 322.0000 1.0000
52.4900 326.0000 1.0000
52.5000 317.0000 1.0000
52.5100 323.0000 1.0000
52.5200 341.0000 1.0000
52.5300 326.0000 1.0000
52.5400 308.0000 1.0000
52.5500 323.0000 1.0000
52.5600 337.0000 1.0000
52.5700 300.0000 1.0000
52.5800 297.0000 1.0000
52.5900 327.0000 1.0000
52.6000 331.0000 1.0000
52.6100 353.0000 1.0000
52.6200 319.0000 1.0000
52.6300 300.0000 1.0000
52.6400 285.0000 1.0000
52.6500 295.0000 1.0000
52.6600 318.0000 1.0000
52.6700 321.0000 1.0000
52.6800 337.0000 1.0000
52.6900 313.0000 1.0000
52.7000 303.0000 1.0000
52.7100 314.0000 1.0000
52.7200 315.0000 1.0000
52.7300 327.0000 1.0000
52.7400 311.0000 1.0000
52.7500 305.0000 1.0000
52.7600 308.0000 1.0000
52.7700 309.0000 1.0000
52.7800 308.0000 1.0000
52.7900 308.0000 1.0000
52.8000 293.0000 1.0000
52.8100 321.0000 1.0000
52.8200 331.0000 1.0000
52.8300 314.0000 1.0000
52.8400 301.0000 1.0000
52.8500 315.0000 1.0000
52.8600 301.0000 1.0000
52.8700 317.0000 1.0000
52.8800 295.0000 1.0000
52.8900 299.0000 1.0000
52.9000 313.0000 1.0000
52.9100 334.0000 1.0000
52.9200 288.0000 1.0000
52.9300 316.0000 1.0000
52.9400 301.0000 1.0000
52.9500 325.0000 1.0000
52.9600 346.0000 1.0000
52.9700 313.0000 1.0000
52.9800 291.0000 1.0000
52.9900 320.0000 1.0000
53.0000 294.0000 1.0000
53.0100 295.0000 1.0000
53.0200 317.0000 1.0000
53.0300 319.0000 1.0000
53.0400 272.0000 1.0000
53.0500 287.0000 1.0000
53.0600 297.0000 1.0000
53.0700 288.0000 1.0000
53.0800 310.0000 1.0000
53.0900 318.0000 1.0000
53.1000 315.0000 1.0000
53.1100 324.0000 1.0000
53.1200 313.0000 1.0000
53.1300 326.0000 1.0000
53.1400 318.0000 1.0000
53.1500 329.0000 1.0000
53.1600 317.0000 1.0000
53.1700 306.0000 1.0000
53.1800 278.0000 1.0000
53.1900 309.0000 1.0000
53.2000 349.0000 1.0000
53.2100 321.0000 1.0000
53.2200 314.0000 1.0000
53.2300 309.0000 1.0000
53.2400 344.0000 1.0000
53.2500 295.0000 1.0000
53.2600 346.0000 1.0000
53.2700 306.0000 1.0000
53.2800 324.0000 1.0000
53.2900 286.0000 1.0000
53.3000 307.0000 1.0000
53.3100 318.0000 1.0000
53.3200 323.0000 1.0000
53.3300 322.0000 1.0000
53.3400 296.0000 1.0000
53.3500 307.0000 1.0000
53.3600 315.0000 1.0000
53.3700 320.0000 1.0000
53.3800 311.0000 1.0000
53.3900 307.0000 1.0000
53.4000 313.0000 1.0000
53.4100 308.0000 1.0000
53.4200 312.0000 1.0000
53.4300 302.0000 1.0000
53.4400 314.0000 1.0000
53.4500 296.0000 1.0000
53.4600 299.0000 1.0000
53.4700 320.0000 1.0000
53.4800 287.0000 1.0000
53.4900 299.0000 1.0000
53.5000 299.0000 1.0000
53.5100 285.0000 1.0000
53.5200 315.0000 1.0000
53.5300 278.0000 1.0000
53.5400 305.0000 1.0000
53.5500 308.0000 1.0000
53.5600 323.0000 1.0000
53.5700 309.0000 1.0000
53.5800 312.0000 1.0000
53.5900 300.0000 1.0000
53.6000 324.0000 1.0000
53.6100 308.0000 1.0000
53.6200 312.0000 1.0000
53.6300 318.0000 1.0000
53.6400 310.0000 1.0000
53.6500 315.0000 1.0000
53.6600 310.0000 1.0000
53.6700 318.0000 1.0000
53.6800 298.0000 1.0000
53.6900 297.0000 1.0000
53.7000 322.0000 1.0000
53.7100 318.0000 1.0000
53.7200 324.0000 1.0000
53.7300 316.0000 1.0000
53.7400 305.0000 1.0000
53.7500 305.0000 1.0000
53.7600 311.0000 1.0000
53.7700 346.0000 1.0000
53.7800 308.0000 1.0000
53.7900 324.0000 1.0000
53.8000 347.0000 1.0000
53.8100 318.0000 1.0000
53.8200 342.0000 1.0000
53.8300 345.0000 1.0000
53.8400 309.0000 1.0000
53.8500 337.0000 1.0000
53.8600 316.0000 1.0000
53.8700 352.0000 1.0000
53.8800 334.0000 1.0000
53.8900 316.0000 1.0000
53.9000 348.0000 1.0000
53.9100 334.0000 1.0000
53.9200 358.0000 1.0000
53.9300 343.0000 1.0000
53.9400 335.0000 1.0000
53.9500 343.0000 1.0000
53.9600 311.0000 1.0000
53.9700 341.0000 1.0000
53.9800 342.0000 1.0000
53.9900 340.0000 1.0000
54.0000 366.0000 1.0000
54.0100 358.0000 1.0000
54.0200 364.0000 1.0000
54.0300 357.0000 1.0000
54.0400 341.0000 1.0000
54.0500 350.0000 1.0000
54.0600 335.0000 1.0000
54.0700 360.0000 1.0000
54.0800 355.0000 1.0000
54.0900 357.0000 1.0000
54.1000 347.0000 1.0000
54.1100 386.0000 1.0000
54.1200 343.0000 1.0000
54.1300 318.0000 1.0000
54.1400 335.0000 1.0000
54.1500 335.0000 1.0000
54.1600 365.0000 1.0000
54.1700 339.0000 1.0000
54.1800 359.0000 1.0000
54.1900 302.0000 1.0000
54.2000 364.0000 1.0000
54.2100 332.0000 1.0000
54.2200 328.0000 1.0000
54.2300 322.0000 1.0000
54.2400 341.0000 1.0000
54.2500 356.0000 1.0000
54.2600 344.0000 1.0000
54.2700 350.0000 1.0000
54.2800 355.0000 1.0000
54.2900 363.0000 1.0000
54.3000 369.0000 1.0000
54.3100 368.0000 1.0000
54.3200 345.0000 1.0000
54.3300 373.0000 1.0000
54.3400 377.0000 1.0000
54.3500 412.0000 1.0000
54.3600 384.0000 1.0000
54.3700 385.0000 1.0000
54.3800 372.0000 1.0000
54.3900 372.0000 1.0000
54.4000 412.0000 1.0000
54.4100 388.0000 1.0000
54.4200 444.0000 1.0000
54.4300 429.0000 1.0000
54.4400 456.0000 1.0000
54.4500 405.0000 1.0000
54.4600 437.0000 1.0000
54.4700 452.0000 1.0000
54.4800 460.0000 1.0000
54.4900 457.0000 1.0000
54.5000 439.0000 1.0000
54.5100 445.0000 1.0000
54.5200 452.0000 1.0000
54.5300 460.0000 1.0000
54.5400 453.0000 1.0000
54.5500 434.0000 1.0000
54.5600 420.0000 1.0000
54.5700 412.0000 1.0000
54.5800 459.0000 1.0000
54.5900 443.0000 1.0000
54.6000 420.0000 1.0000
54.6100 415.0000 1.0000
54.6200 437.0000 1.0000
54.6300 430.0000 1.0000
54.6400 434.0000 1.0000
54.6500 413.0000 1.0000
54.6600 384.0000 1.0000
54.6700 423.0000 1.0000
54.6800 414.0000 1.0000
54.6900 401.0000 1.0000
54.7000 394.0000 1.0000
54.7100 382.0000 1.0000
54.7200 381.0000 1.0000
54.7300 386.0000 1.0000
54.7400 354.0000 1.0000
54.7500 347.0000 1.0000
54.7600 373.0000 1.0000
54.7700 337.0000 1.0000
54.7800 337.0000 1.0000
54.7900 329.0000 1.0000
54.8000 349.0000 1.0000
54.8100 346.0000 1.0000
54.8200 336.0000 1.0000
54.8300 350.0000 1.0000
54.8400 350.0000 1.0000
54.8500 353.0000 1.0000
54.8600 337.0000 1.0000
54.8700 345.0000 1.0000
54.8800 333.0000 1.0000
54.8900 306.0000 1.0000
54.9000 324.0000 1.0000
54.9100 324.0000 1.0000
54.9200 320.0000 1.0000
54.9300 343.0000 1.0000
54.9400 318.0000 1.0000
54.9500 292.0000 1.0000
54.9600 329.0000 1.0000
54.9700 325.0000 1.0000
54.9800 320.0000 1.0000
54.9900 304.0000 1.0000
55.0000 271.0000 1.0000
55.0100 308.0000 1.0000
55.0200 313.0000 1.0000
55.0300 298.0000 1.0000
55.0400 318.0000 1.0000
55.0500 318.0000 1.0000
55.0600 307.0000 1.0000
55.0700 313.0000 1.0000
55.0800 303.0000 1.0000
55.0900 313.0000 1.0000
55.1000 313.0000 1.0000
55.1100 315.0000 1.0000
55.1200 320.0000 1.0000
55.1300 314.0000 1.0000
55.1400 292.0000 1.0000
55.1500 300.0000 1.0000
55.1600 346.0000 1.0000
55.1700 288.0000 1.0000
55.1800 275.0000 1.0000
55.1900 321.0000 1.0000
55.2000 318.0000 1.0000
55.2100 315.0000 1.0000
55.2200 295.0000 1.0000
55.2300 293.0000 1.0000
55.2400 289.0000 1.0000
55.2500 288.0000 1.0000
55.2600 307.0000 1.0000
55.2700 289.0000 1.0000
55.2800 296.0000 1.0000
55.2900 291.0000 1.0000
55.3000 308.0000 1.0000
55.3100 294.0000 1.0000
55.3200 305.0000 1.0000
55.3300 295.0000 1.0000
55.3400 320.0000 1.0000
55.3500 293.0000 1.0000
55.3600 305.0000 1.0000
55.3700 307.0000 1.0000
55.3800 289.0000 1.0000
55.3900 293.0000 1.0000
55.4000 290.0000 1.0000
55.4100 302.0000 1.0000
55.4200 338.0000 1.0000
55.4300 299.0000 1.0000
55.4400 292.0000 1.0000
55.4500 299.0000 1.0000
55.4600 305.0000 1.0000
55.4700 295.0000 1.0000
55.4800 321.0000 1.0000
55.4900 287.0000 1.0000
55.5000 300.0000 1.0000
55.5100 304.0000 1.0000
55.5200 272.0000 1.0000
55.5300 290.0000 1.0000
55.5400 313.0000 1.0000
55.5500 287.0000 1.0000
55.5600 314.0000 1.0000
55.5700 306.0000 1.0000
55.5800 297.0000 1.0000
55.5900 302.0000 1.0000
55.6000 304.0000 1.0000
55.6100 299.0000 1.0000
55.6200 273.0000 1.0000
55.6300 314.0000 1.0000
55.6400 308.0000 1.0000
55.6500 281.0000 1.0000
55.6600 274.0000 1.0000
55.6700 287.0000 1.0000
55.6800 273.0000 1.0000
55.6900 286.0000 1.0000
55.7000 280.0000 1.0000
55.7100 261.0000 1.0000
55.7200 310.0000 1.0000
55.7300 290.0000 1.0000
55.7400 287.0000 1.0000
55.7500 300.0000 1.0000
55.7600 295.0000 1.0000
55.7700 266.0000 1.0000
55.7800 288.0000 1.0000
55.7900 312.0000 1.0000
55.8000 286.0000 1.0000
55.8100 277.0000 1.0000
55.8200 307.0000 1.0000
55.8300 303.0000 1.0000
55.8400 318.0000 1.0000
55.8500 301.0000 1.0000
55.8600 300.0000 1.0000
55.8700 280.0000 1.0000
55.8800 317.0000 1.0000
55.8900 304.0000 1.0000
55.9000 303.0000 1.0000
55.9100 302.0000 1.0000
55.9200 319.0000 1.0000
55.9300 337.0000 1.0000
55.9400 309.0000 1.0000
55.9500 290.0000 1.0000
55.9600 292.0000 1.0000
55.9700 284.0000 1.0000
55.9800 299.0000 1.0000
55.9900 312.0000 1.0000
56.0000 284.0000 1.0000
56.0100 285.0000 1.0000
56.0200 285.0000 1.0000
56.0300 294.0000 1.0000
56.0400 291.0000 1.0000
56.0500 295.0000 1.0000
56.0600 322.0000 1.0000
56.0700 260.0000 1.0000
56.0800 324.0000 1.0000
56.0900 315.0000 1.0000
56.1000 295.0000 1.0000
56.1100 289.0000 1.0000
56.1200 298.0000 1.0000
56.1300 309.0000 1.0000
56.1400 282.0000 1.0000
56.1500 301.0000 1.0000
56.1600 310.0000 1.0000
56.1700 283.0000 1.0000
56.1800 290.0000 1.0000
56.1900 291.0000 1.0000
56.2000 285.0000 1.0000
56.2100 298.0000 1.0000
56.2200 290.0000 1.0000
56.2300 293.0000 1.0000
56.2400 308.0000 1.0000
56.2500 310.0000 1.0000
56.2600 297.0000 1.0000
56.2700 314.0000 1.0000
56.2800 271.0000 1.0000
56.2900 295.0000 1.0000
56.3000 304.0000 1.0000
56.3100 275.0000 1.0000
56.3200 313.0000 1.0000
56.3300 311.0000 1.0000
56.3400 287.0000 1.0000
56.3500 289.0000 1.0000
56.3600 300.0000 1.0000
56.3700 264.0000 1.0000
56.3800 293.0000 1.0000
56.3900 299.0000 1.0000
56.4000 285.0000 1.0000
56.4100 281.0000 1.0000
56.4200 294.0000 1.0000
56.4300 313.0000 1.0000
56.4400 288.0000 1.0000
56.4500 310.0000 1.0000
56.4600 324.0000 1.0000
56.4700 296.0000 1.0000
56.4800 268.0000 1.0000
56.4900 288.0000 1.0000
56.5000 286.0000 1.0000
56.5100 280.0000 1.0000
56.5200 302.0000 1.0000
56.5300 280.0000 1.0000
56.5400 280.0000 1.0000
56.5500 289.0000 1.0000
56.5600 300.0000 1.0000
56.5700 288.0000 1.0000
56.5800 266.0000 1.0000
56.5900 278.0000 1.0000
56.6000 301.0000 1.0000
56.6100 301.0000 1.0000
56.6200 311.0000 1.0000
56.6300 290.0000 1.0000
56.6400 298.0000 1.0000
56.6500 312.0000 1.0000
56.6600 295.0000 1.0000
56.6700 286.0000 1.0000
56.6800 311.0000 1.0000
56.6900 300.0000 1.0000
56.7000 312.0000 1.0000
56.7100 301.0000 1.0000
56.7200 295.0000 1.0000
56.7300 294.0000 1.0000
56.7400 293.0000 1.0000
56.7500 292.0000 1.0000
56.7600 296.0000 1.0000
56.7700 270.0000 1.0000
56.7800 315.0000 1.0000
56.7900 309.0000 1.0000
56.8000 304.0000 1.0000
56.8100 284.0000 1.0000
56.8200 283.0000 1.0000
56.8300 282.0000 1.0000
56.8400 289.0000 1.0000
56.8500 333.0000 1.0000
56.8600 308.0000 1.0000
56.8700 273.0000 1.0000
56.8800 311.0000 1.0000
56.8900 298.0000 1.0000
56.9000 292.0000 1.0000
56.9100 307.0000 1.0000
56.9200 319.0000 1.0000
56.9300 311.0000 1.0000
56.9400 302.0000 1.0000
56.9500 301.0000 1.0000
56.9600 302.0000 1.0000
56.9700 311.0000 1.0000
56.9800 282.0000 1.0000
56.9900 280.0000 1.0000
57.0000 295.0000 1.0000
57.0100 276.0000 1.0000
57.0200 305.0000 1.0000
57.0300 310.0000 1.0000
57.0400 325.0000 1.0000
57.0500 304.0000 1.0000
57.0600 292.0000 1.0000
57.0700 303.0000 1.0000
57.0800 287.0000 1.0000
57.0900 313.0000 1.0000
57.1000 327.0000 1.0000
57.1100 304.0000 1.0000
57.1200 300.0000 1.0000
57.1300 276.0000 1.0000
57.1400 293.0000 1.0000
57.1500 287.0000 1.0000
57.1600 326.0000 1.0000
57.1700 305.0000 1.0000
57.1800 294.0000 1.0000
57.1900 292.0000 1.0000
57.2000 283.0000 1.0000
57.2100 282.0000 1.0000
57.2200 318.0000 1.0000
57.2300 274.0000 1.0000
57.2400 276.0000 1.0000
57.2500 310.0000 1.0000
57.2600 280.0000 1.0000
57.2700 287.0000 1.0000
57.2800 324.0000 1.0000
57.2900 306.0000 1.0000
57.3000 287.0000 1.0000
57.3100 324.0000 1.0000
57.3200 301.0000 1.0000
57.3300 322.0000 1.0000
57.3400 282.0000 1.0000
57.3500 292.0000 1.0000
57.3600 287.0000 1.0000
57.3700 288.0000 1.0000
57.3800 304.0000 1.0000
57.3900 325.0000 1.0000
57.4000 300.0000 1.0000
57.4100 306.0000 1.0000
57.4200 289.0000 1.0000
57.4300 309.0000 1.0000
57.4400 309.0000 1.0000
57.4500 324.0000 1.0000
57.4600 342.0000 1.0000
57.4700 302.0000 1.0000
57.4800 294.0000 1.0000
57.4900 296.0000 1.0000
57.5000 275.0000 1.0000
57.5100 302.0000 1.0000
57.5200 318.0000 1.0000
57.5300 313.0000 1.0000
57.5400 314.0000 1.0000
57.5500 274.0000 1.0000
57.5600 301.0000 1.0000
57.5700 286.0000 1.0000
57.5800 289.0000 1.0000
57.5900 307.0000 1.0000
57.6000 298.0000 1.0000
57.6100 287.0000 1.0000
57.6200 314.0000 1.0000
57.6300 311.0000 1.0000
57.6400 321.0000 1.0000
57.6500 302.0000 1.0000
57.6600 319.0000 1.0000
57.6700 311.0000 1.0000
57.6800 294.0000 1.0000
57.6900 299.0000 1.0000
57.7000 291.0000 1.0000
57.7100 303.0000 1.0000
57.7200 288.0000 1.0000
57.7300 272.0000 1.0000
57.7400 325.0000 1.0000
57.7500 328.0000 1.0000
57.7600 302.0000 1.0000
57.7700 282.0000 1.0000
57.7800 280.0000 1.0000
57.7900 268.0000 1.0000
57.8000 307.0000 1.0000
57.8100 296.0000 1.0000
57.8200 272.0000 1.0000
57.8300 309.0000 1.0000
57.8400 283.0000 1.0000
57.8500 313.0000 1.0000
57.8600 306.0000 1.0000
57.8700 295.0000 1.0000
57.8800 268.0000 1.0000
57.8900 282.0000 1.0000
57.9000 286.0000 1.0000
57.9100 290.0000 1.0000
57.9200 311.0000 1.0000
57.9300 297.0000 1.0000
57.9400 308.0000 1.0000
57.9500 264.0000 1.0000
57.9600 284.0000 1.0000
57.9700 282.0000 1.0000
57.9800 289.0000 1.0000
57.9900 318.0000 1.0000
58.0000 302.0000 1.0000
58.0100 299.0000 1.0000
58.0200 303.0000 1.0000
58.0300 278.0000 1.0000
58.0400 295.0000 1.0000
58.0500 261.0000 1.0000
58.0600 285.0000 1.0000
58.0700 291.0000 1.0000
58.0800 311.0000 1.0000
58.0900 312.0000 1.0000
58.1000 293.0000 1.0000
58.1100 277.0000 1.0000
58.1200 268.0000 1.0000
58.1300 300.0000 1.0000
58.1400 330.0000 1.0000
58.1500 314.0000 1.0000
58.1600 261.0000 1.0000
58.1700 301.0000 1.0000
58.1800 283.0000 1.0000
58.1900 303.0000 1.0000
58.2000 313.0000 1.0000
58.2100 310.0000 1.0000
58.2200 287.0000 1.0000
58.2300 320.0000 1.0000
58.2400 286.0000 1.0000
58.2500 271.0000 1.0000
58.2600 278.0000 1.0000
58.2700 305.0000 1.0000
58.2800 303.0000 1.0000
58.2900 289.0000 1.0000
58.3000 298.0000 1.0000
58.3100 281.0000 1.0000
58.3200 303.0000 1.0000
58.3300 286.0000 1.0000
58.3400 297.0000 1.0000
58.3500 285.0000 1.0000
58.3600 278.0000 1.0000
58.3700 294.0000 1.0000
58.3800 273.0000 1.0000
58.3900 277.0000 1.0000
58.4000 300.0000 1.0000
58.4100 306.0000 1.0000
58.4200 263.0000 1.0000
58.4300 290.0000 1.0000
58.4400 317.0000 1.0000
58.4500 275.0000 1.0000
58.4600 299.0000 1.0000
58.4700 292.0000 1.0000
58.4800 265.0000 1.0000
58.4900 327.0000 1.0000
58.5000 282.0000 1.0000
58.5100 286.0000 1.0000
58.5200 267.0000 1.0000
58.5300 303.0000 1.0000
58.5400 299.0000 1.0000
58.5500 309.0000 1.0000
58.5600 288.0000 1.0000
58.5700 293.0000 1.0000
58.5800 282.0000 1.0000
58.5900 310.0000 1.0000
58.6000 290.0000 1.0000
58.6100 321.0000 1.0000
58.6200 316.0000 1.0000
58.6300 297.0000 1.0000
58.6400 305.0000 1.0000
58.6500 314.0000 1.0000
58.6600 310.0000 1.0000
58.6700 269.0000 1.0000
58.6800 283.0000 1.0000
58.6900 309.0000 1.0000
58.7000 264.0000 1.0000
58.7100 292.0000 1.0000
58.7200 279.0000 1.0000
58.7300 265.0000 1.0000
58.7400 277.0000 1.0000
58.7500 275.0000 1.0000
58.7600 314.0000 1.0000
58.7700 274.0000 1.0000
58.7800 286.0000 1.0000
58.7900 300.0000 1.0000
58.8000 296.0000 1.0000
58.8100 271.0000 1.0000
58.8200 303.0000 1.0000
58.8300 286.0000 1.0000
58.8400 286.0000 1.0000
58.8500 312.0000 1.0000
58.8600 314.0000 1.0000
58.8700 291.0000 1.0000
58.8800 285.0000 1.0000
58.8900 276.0000 1.0000
58.9000 269.0000 1.0000
58.9100 313.0000 1.0000
58.9200 323.0000 1.0000
58.9300 286.0000 1.0000
58.9400 306.0000 1.0000
58.9500 304.0000 1.0000
58.9600 304.0000 1.0000
58.9700 293.0000 1.0000
58.9800 276.0000 1.0000
58.9900 279.0000 1.0000
59.0000 330.0000 1.0000
59.0100 299.0000 1.0000
59.0200 282.0000 1.0000
59.0300 273.0000 1.0000
59.0400 264.0000 1.0000
59.0500 301.0000 1.0000
59.0600 298.0000 1.0000
59.0700 284.0000 1.0000
59.0800 272.0000 1.0000
59.0900 310.0000 1.0000
59.1000 300.0000 1.0000
59.1100 293.0000 1.0000
59.1200 313.0000 1.0000
59.1300 306.0000 1.0000
59.1400 301.0000 1.0000
59.1500 259.0000 1.0000
59.1600 281.0000 1.0000
59.1700 279.0000 1.0000
59.1800 298.0000 1.0000
59.1900 285.0000 1.0000
59.2000 264.0000 1.0000
59.2100 282.0000 1.0000
59.2200 295.0000 1.0000
59.2300 277.0000 1.0000
59.2400 303.0000 1.0000
59.2500 282.0000 1.0000
59.2600 295.0000 1.0000
59.2700 298.0000 1.0000
59.2800 272.0000 1.0000
59.2900 307.0000 1.0000
59.3000 304.0000 1.0000
59.3100 255.0000 1.0000
59.3200 270.0000 1.0000
59.3300 308.0000 1.0000
59.3400 285.0000 1.0000
59.3500 317.0000 1.0000
59.3600 288.0000 1.0000
59.3700 310.0000 1.0000
59.3800 290.0000 1.0000
59.3900 275.0000 1.0000
59.4000 300.0000 1.0000
59.4100 266.0000 1.0000
59.4200 307.0000 1.0000
59.4300 296.0000 1.0000
59.4400 292.0000 1.0000
59.4500 261.0000 1.0000
59.4600 280.0000 1.0000
59.4700 292.0000 1.0000
59.4800 312.0000 1.0000
59.4900 309.0000 1.0000
59.5000 321.0000 1.0000
59.5100 277.0000 1.0000
59.5200 309.0000 1.0000
59.5300 325.0000 1.0000
59.5400 304.0000 1.0000
59.5500 268.0000 1.0000
59.5600 268.0000 1.0000
59.5700 278.0000 1.0000
59.5800 276.0000 1.0000
59.5900 273.0000 1.0000
59.6000 289.0000 1.0000
59.6100 288.0000 1.0000
59.6200 286.0000 1.0000
59.6300 297.0000 1.0000
59.6400 284.0000 1.0000
59.6500 270.0000 1.0000
59.6600 301.0000 1.0000
59.6700 268.0000 1.0000
59.6800 270.0000 1.0000
59.6900 301.0000 1.0000
59.7000 303.0000 1.0000
59.7100 289.0000 1.0000
59.7200 297.0000 1.0000
59.7300 293.0000 1.0000
59.7400 315.0000 1.0000
59.7500 292.0000 1.0000
59.7600 313.0000 1.0000
59.7700 285.0000 1.0000
59.7800 305.0000 1.0000
59.7900 272.0000 1.0000
59.8000 291.0000 1.0000
59.8100 271.0000 1.0000
59.8200 289.0000 1.0000
59.8300 281.0000 1.0000
59.8400 314.0000 1.0000
59.8500 306.0000 1.0000
59.8600 304.0000 1.0000
59.8700 278.0000 1.0000
59.8800 260.0000 1.0000
59.8900 255.0000 1.0000
59.9000 278.0000 1.0000
59.9100 284.0000 1.0000
59.9200 285.0000 1.0000
59.9300 299.0000 1.0000
59.9400 307.0000 1.0000
59.9500 306.0000 1.0000
59.9600 298.0000 1.0000
59.9700 299.0000 1.0000
59.9800 301.0000 1.0000
59.9900 305.0000 1.0000
60.0000 291.0000 1.0000
60.0100 284.0000 1.0000
60.0200 284.0000 1.0000
60.0300 279.0000 1.0000
60.0400 291.0000 1.0000
60.0500 299.0000 1.0000
60.0600 280.0000 1.0000
60.0700 272.0000 1.0000
60.0800 288.0000 1.0000
60.0900 269.0000 1.0000
60.1000 290.0000 1.0000
60.1100 295.0000 1.0000
60.1200 280.0000 1.0000
60.1300 316.0000 1.0000
60.1400 299.0000 1.0000
60.1500 297.0000 1.0000
60.1600 299.0000 1.0000
60.1700 278.0000 1.0000
60.1800 309.0000 1.0000
60.1900 276.0000 1.0000
60.2000 323.0000 1.0000
60.2100 320.0000 1.0000
60.2200 285.0000 1.0000
60.2300 283.0000 1.0000
60.2400 309.0000 1.0000
60.2500 286.0000 1.0000
60.2600 291.0000 1.0000
60.2700 285.0000 1.0000
60.2800 294.0000 1.0000
60.2900 277.0000 1.0000
60.3000 272.0000 1.0000
60.3100 278.0000 1.0000
60.3200 287.0000 1.0000
60.3300 305.0000 1.0000
60.3400 287.0000 1.0000
60.3500 317.0000 1.0000
60.3600 290.0000 1.0000
60.3700 270.0000 1.0000
60.3800 288.0000 1.0000
60.3900 298.0000 1.0000
60.4000 266.0000 1.0000
60.4100 284.0000 1.0000
60.4200 294.0000 1.0000
60.4300 234.0000 1.0000
60.4400 301.0000 1.0000
60.4500 289.0000 1.0000
60.4600 314.0000 1.0000
60.4700 316.0000 1.0000
60.4800 304.0000 1.0000
60.4900 284.0000 1.0000
60.5000 300.0000 1.0000
60.5100 287.0000 1.0000
60.5200 284.0000 1.0000
60.5300 292.0000 1.0000
60.5400 304.0000 1.0000
60.5500 285.0000 1.0000
60.5600 298.0000 1.0000
60.5700 295.0000 1.0000
60.5800 295.0000 1.0000
60.5900 291.0000 1.0000
60.6000 291.0000 1.0000
60.6100 279.0000 1.0000
60.6200 288.0000 1.0000
60.6300 305.0000 1.0000
60.6400 283.0000 1.0000
60.6500 282.0000 1.0000
60.6600 280.0000 1.0000
60.6700 292.0000 1.0000
60.6800 318.0000 1.0000
60.6900 308.0000 1.0000
60.7000 298.0000 1.0000
60.7100 296.0000 1.0000
60.7200 282.0000 1.0000
60.7300 256.0000 1.0000
60.7400 286.0000 1.0000
60.7500 278.0000 1.0000
60.7600 299.0000 1.0000
60.7700 276.0000 1.0000
60.7800 283.0000 1.0000
60.7900 291.0000 1.0000
60.8000 291.0000 1.0000
60.8100 289.0000 1.0000
60.8200 305.0000 1.0000
60.8300 275.0000 1.0000
60.8400 286.0000 1.0000
60.8500 294.0000 1.0000
60.8600 291.0000 1.0000
60.8700 286.0000 1.0000
60.8800 317.0000 1.0000
60.8900 282.0000 1.0000
60.9000 295.0000 1.0000
60.9100 330.0000 1.0000
60.9200 295.0000 1.0000
60.9300 301.0000 1.0000
60.9400 302.0000 1.0000
60.9500 288.0000 1.0000
60.9600 320.0000 1.0000
60.9700 282.0000 1.0000
60.9800 310.0000 1.0000
60.9900 306.0000 1.0000
61.0000 311.0000 1.0000
61.0100 291.0000 1.0000
61.0200 290.0000 1.0000
61.0300 343.0000 1.0000
61.0400 311.0000 1.0000
61.0500 310.0000 1.0000
61.0600 312.0000 1.0000
61.0700 306.0000 1.0000
61.0800 303.0000 1.0000
61.0900 312.0000 1.0000
61.1000 327.0000 1.0000
61.1100 314.0000 1.0000
61.1200 323.0000 1.0000
61.1300 284.0000 1.0000
61.1400 302.0000 1.0000
61.1500 345.0000 1.0000
61.1600 303.0000 1.0000
61.1700 322.0000 1.0000
61.1800 322.0000 1.0000
61.1900 340.0000 1.0000
61.2000 334.0000 1.0000
61.2100 330.0000 1.0000
61.2200 370.0000 1.0000
61.2300 371.0000 1.0000
61.2400 367.0000 1.0000
61.2500 374.0000 1.0000
61.2600 367.0000 1.0000
61.2700 361.0000 1.0000
61.2800 383.0000 1.0000
61.2900 383.0000 1.0000
61.3000 404.0000 1.0000
61.3100 390.0000 1.0000
61.3200 409.0000 1.0000
61.3300 378.0000 1.0000
61.3400 392.0000 1.0000
61.3500 441.0000 1.0000
61.3600 476.0000 1.0000
61.3700 455.0000 1.0000
61.3800 456.0000 1.0000
61.3900 475.0000 1.0000
61.4000 460.0000 1.0000
61.4100 468.0000 1.0000
61.4200 497.0000 1.0000
61.4300 493.0000 1.0000
61.4400 545.0000 1.0000
61.4500 534.0000 1.0000
61.4600 565.0000 1.0000
61.4700 562.0000 1.0000
61.4800 568.0000 1.0000
61.4900 559.0000 1.0000
61.5000 588.0000 1.0000
61.5100 562.0000 1.0000
61.5200 548.0000 1.0000
61.5300 567.0000 1.0000
61.5400 564.0000 1.0000
61.5500 554.0000 1.0000
61.5600 582.0000 1.0000
61.5700 633.0000 1.0000
61.5800 587.0000 1.0000
61.5900 587.0000 1.0000
61.6000 578.0000 1.0000
61.6100 544.0000 1.0000
61.6200 559.0000 1.0000
61.6300 500.0000 1.0000
61.6400 565.0000 1.0000
61.6500 534.0000 1.0000
61.6600 547.0000 1.0000
61.6700 511.0000 1.0000
61.6800 511.0000 1.0000
61.6900 505.0000 1.0000
61.7000 485.0000 1.0000
61.7100 492.0000 1.0000
61.7200 522.0000 1.0000
61.7300 483.0000 1.0000
61.7400 463.0000 1.0000
61.7500 458.0000 1.0000
61.7600 485.0000 1.0000
61.7700 505.0000 1.0000
61.7800 456.0000 1.0000
61.7900 441.0000 1.0000
61.8000 434.0000 1.0000
61.8100 407.0000 1.0000
61.8200 370.0000 1.0000
61.8300 386.0000 1.0000
61.8400 381.0000 1.0000
61.8500 386.0000 1.0000
61.8600 375.0000 1.0000
61.8700 363.0000 1.0000
61.8800 341.0000 1.0000
61.8900 356.0000 1.0000
61.9000 393.0000 1.0000
61.9100 355.0000 1.0000
61.9200 364.0000 1.0000
61.9300 366.0000 1.0000
61.9400 347.0000 1.0000
61.9500 338.0000 1.0000
61.9600 357.0000 1.0000
61.9700 347.0000 1.0000
61.9800 339.0000 1.0000
61.9900 340.0000 1.0000
62.0000 346.0000 1.0000
62.0100 337.0000 1.0000
62.0200 311.0000 1.0000
62.0300 335.0000 1.0000
62.0400 379.0000 1.0000
62.0500 301.0000 1.0000
62.0600 307.0000 1.0000
62.0700 316.0000 1.0000
62.0800 343.0000 1.0000
62.0900 344.0000 1.0000
62.1000 317.0000 1.0000
62.1100 354.0000 1.0000
62.1200 345.0000 1.0000
62.1300 301.0000 1.0000
62.1400 328.0000 1.0000
62.1500 301.0000 1.0000
62.1600 317.0000 1.0000
62.1700 296.0000 1.0000
62.1800 295.0000 1.0000
62.1900 323.0000 1.0000
62.2000 347.0000 1.0000
62.2100 320.0000 1.0000
62.2200 322.0000 1.0000
62.2300 310.0000 1.0000
62.2400 306.0000 1.0000
62.2500 323.0000 1.0000
62.2600 325.0000 1.0000
62.2700 337.0000 1.0000
62.2800 334.0000 1.0000
62.2900 341.0000 1.0000
62.3000 282.0000 1.0000
62.3100 307.0000 1.0000
62.3200 344.0000 1.0000
62.3300 317.0000 1.0000
62.3400 331.0000 1.0000
62.3500 364.0000 1.0000
62.3600 363.0000 1.0000
62.3700 356.0000 1.0000
62.3800 321.0000 1.0000
62.3900 310.0000 1.0000
62.4000 365.0000 1.0000
62.4100 342.0000 1.0000
62.4200 323.0000 1.0000
62.4300 345.0000 1.0000
62.4400 337.0000 1.0000
62.4500 325.0000 1.0000
62.4600 340.0000 1.0000
62.4700 303.0000 1.0000
62.4800 315.0000 1.0000
62.4900 343.0000 1.0000
62.5000 335.0000 1.0000
62.5100 313.0000 1.0000
62.5200 318.0000 1.0000
62.5300 325.0000 1.0000
62.5400 324.0000 1.0000
62.5500 324.0000 1.0000
62.5600 330.0000 1.0000
62.5700 324.0000 1.0000
62.5800 335.0000 1.0000
62.5900 265.0000 1.0000
62.6000 292.0000 1.0000
62.6100 326.0000 1.0000
62.6200 306.0000 1.0000
62.6300 281.0000 1.0000
62.6400 309.0000 1.0000
62.6500 303.0000 1.0000
62.6600 290.0000 1.0000
62.6700 298.0000 1.0000
62.6800 289.0000 1.0000
62.6900 278.0000 1.0000
62.7000 283.0000 1.0000
62.7100 307.0000 1.0000
62.7200 321.0000 1.0000
62.7300 310.0000 1.0000
62.7400 295.0000 1.0000
62.7500 283.0000 1.0000
62.7600 296.0000 1.0000
62.7700 302.0000 1.0000
62.7800 289.0000 1.0000
62.7900 303.0000 1.0000
62.8000 279.0000 1.0000
62.8100 269.0000 1.0000
62.8200 283.0000 1.0000
62.8300 312.0000 1.0000
62.8400 282.0000 1.0000
62.8500 266.0000 1.0000
62.8600 283.0000 1.0000
62.8700 285.0000 1.0000
62.8800 306.0000 1.0000
62.8900 252.0000 1.0000
62.9000 302.0000 1.0000
62.9100 308.0000 1.0000
62.9200 286.0000 1.0000
62.9300 307.0000 1.0000
62.9400 296.0000 1.0000
62.9500 289.0000 1.0000
62.9600 291.0000 1.0000
62.9700 303.0000 1.0000
62.9800 269.0000 1.0000
62.9900 278.0000 1.0000
63.0000 320.0000 1.0000
63.0100 293.0000 1.0000
63.0200 292.0000 1.0000
63.0300 324.0000 1.0000
63.0400 300.0000 1.0000
63.0500 305.0000 1.0000
63.0600 307.0000 1.0000
63.0700 303.0000 1.0000
63.0800 304.0000 1.0000
63.0900 309.0000 1.0000
63.1000 283.0000 1.0000
63.1100 294.0000 1.0000
63.1200 298.0000 1.0000
63.1300 315.0000 1.0000
63.1400 280.0000 1.0000
63.1500 278.0000 1.0000
63.1600 288.0000 1.0000
63.1700 279.0000 1.0000
63.1800 253.0000 1.0000
63.1900 320.0000 1.0000
63.2000 305.0000 1.0000
63.2100 290.0000 1.0000
63.2200 291.0000 1.0000
63.2300 281.0000 1.0000
63.2400 292.0000 1.0000
63.2500 274.0000 1.0000
63.2600 310.0000 1.0000
63.2700 300.0000 1.0000
63.2800 294.0000 1.0000
63.2900 283.0000 1.0000
63.3000 285.0000 1.0000
63.3100 274.0000 1.0000
63.3200 283.0000 1.0000
63.3300 287.0000 1.0000
63.3400 280.0000 1.0000
63.3500 271.0000 1.0000
63.3600 268.0000 1.0000
63.3700 282.0000 1.0000
63.3800 284.0000 1.0000
63.3900 300.0000 1.0000
63.4000 294.0000 1.0000
63.4100 304.0000 1.0000
63.4200 266.0000 1.0000
63.4300 281.0000 1.0000
63.4400 294.0000 1.0000
63.4500 288.0000 1.0000
63.4600 281.0000 1.0000
63.4700 279.0000 1.0000
63.4800 290.0000 1.0000
63.4900 307.0000 1.0000
63.5000 294.0000 1.0000
63.5100 300.0000 1.0000
63.5200 281.0000 1.0000
63.5300 308.0000 1.0000
63.5400 295.0000 1.0000
63.5500 310.0000 1.0000
63.5600 291.0000 1.0000
63.5700 309.0000 1.0000
63.5800 287.0000 1.0000
63.5900 293.0000 1.0000
63.6000 306.0000 1.0000
63.6100 327.0000 1.0000
63.6200 331.0000 1.0000
63.6300 305.0000 1.0000
63.6400 298.0000 1.0000
63.6500 281.0000 1.0000
63.6600 317.0000 1.0000
63.6700 295.0000 1.0000
63.6800 326.0000 1.0000
63.6900 348.0000 1.0000
63.7000 310.0000 1.0000
63.7100 311.0000 1.0000
63.7200 301.0000 1.0000
63.7300 302.0000 1.0000
63.7400 326.0000 1.0000
63.7500 328.0000 1.0000
63.7600 292.0000 1.0000
63.7700 312.0000 1.0000
63.7800 328.0000 1.0000
63.7900 339.0000 1.0000
63.8000 350.0000 1.0000
63.8100 374.0000 1.0000
63.8200 370.0000 1.0000
63.8300 389.0000 1.0000
63.8400 351.0000 1.0000
63.8500 349.0000 1.0000
63.8600 393.0000 1.0000
63.8700 435.0000 1.0000
63.8800 437.0000 1.0000
63.8900 415.0000 1.0000
63.9000 410.0000 1.0000
63.9100 432.0000 1.0000
63.9200 430.0000 1.0000
63.9300 433.0000 1.0000
63.9400 465.0000 1.0000
63.9500 445.0000 1.0000
63.9600 427.0000 1.0000
63.9700 409.0000 1.0000
63.9800 442.0000 1.0000
63.9900 390.0000 1.0000
64.0000 438.0000 1.0000
64.0100 397.0000 1.0000
64.0200 402.0000 1.0000
64.0300 407.0000 1.0000
64.0400 420.0000 1.0000
64.0500 386.0000 1.0000
64.0600 373.0000 1.0000
64.0700 398.0000 1.0000
64.0800 416.0000 1.0000
64.0900 400.0000 1.0000
64.1000 400.0000 1.0000
64.1100 420.0000 1.0000
64.1200 400.0000 1.0000
64.1300 388.0000 1.0000
64.1400 358.0000 1.0000
64.1500 367.0000 1.0000
64.1600 381.0000 1.0000
64.1700 356.0000 1.0000
64.1800 349.0000 1.0000
64.1900 375.0000 1.0000
64.2000 356.0000 1.0000
64.2100 354.0000 1.0000
64.2200 326.0000 1.0000
64.2300 343.0000 1.0000
64.2400 337.0000 1.0000
64.2500 319.0000 1.0000
64.2600 314.0000 1.0000
64.2700 354.0000 1.0000
64.2800 338.0000 1.0000
64.2900 327.0000 1.0000
64.3000 300.0000 1.0000
64.3100 317.0000 1.0000
64.3200 317.0000 1.0000
64.3300 314.0000 1.0000
64.3400 328.0000 1.0000
64.3500 299.0000 1.0000
64.3600 295.0000 1.0000
64.3700 324.0000 1.0000
64.3800 302.0000 1.0000
64.3900 298.0000 1.0000
64.4000 306.0000 1.0000
64.4100 311.0000 1.0000
64.4200 324.0000 1.0000
64.4300 295.0000 1.0000
64.4400 290.0000 1.0000
64.4500 305.0000 1.0000
64.4600 286.0000 1.0000
64.4700 313.0000 1.0000
64.4800 293.0000 1.0000
64.4900 322.0000 1.0000
64.5000 315.0000 1.0000
64.5100 300.0000 1.0000
64.5200 326.0000 1.0000
64.5300 298.0000 1.0000
64.5400 295.0000 1.0000
64.5500 313.0000 1.0000
64.5600 303.0000 1.0000
64.5700 317.0000 1.0000
64.5800 326.0000 1.0000
64.5900 321.0000 1.0000
64.6000 327.0000 1.0000
64.6100 300.0000 1.0000
64.6200 291.0000 1.0000
64.6300 306.0000 1.0000
64.6400 283.0000 1.0000
64.6500 287.0000 1.0000
64.6600 292.0000 1.0000
64.6700 332.0000 1.0000
64.6800 297.0000 1.0000
64.6900 311.0000 1.0000
64.7000 309.0000 1.0000
64.7100 285.0000 1.0000
64.7200 286.0000 1.0000
64.7300 285.0000 1.0000
64.7400 285.0000 1.0000
64.7500 294.0000 1.0000
64.7600 300.0000 1.0000
64.7700 295.0000 1.0000
64.7800 289.0000 1.0000
64.7900 294.0000 1.0000
64.8000 284.0000 1.0000
64.8100 321.0000 1.0000
64.8200 300.0000 1.0000
64.8300 324.0000 1.0000
64.8400 341.0000 1.0000
64.8500 300.0000 1.0000
64.8600 307.0000 1.0000
64.8700 294.0000 1.0000
64.8800 311.0000 1.0000
64.8900 287.0000 1.0000
64.9000 293.0000 1.0000
64.9100 302.0000 1.0000
64.9200 321.0000 1.0000
64.9300 333.0000 1.0000
64.9400 315.0000 1.0000
64.9500 315.0000 1.0000
64.9600 333.0000 1.0000
64.9700 308.0000 1.0000
64.9800 306.0000 1.0000
64.9900 312.0000 1.0000
65.0000 323.0000 1.0000
65.0100 327.0000 1.0000
65.0200 309.0000 1.0000
65.0300 335.0000 1.0000
65.0400 306.0000 1.0000
65.0500 309.0000 1.0000
65.0600 309.0000 1.0000
65.0700 300.0000 1.0000
65.0800 305.0000 1.0000
65.0900 316.0000 1.0000
65.1000 349.0000 1.0000
65.1100 375.0000 1.0000
65.1200 353.0000 1.0000
65.1300 362.0000 1.0000
65.1400 338.0000 1.0000
65.1500 340.0000 1.0000
65.1600 359.0000 1.0000
65.1700 350.0000 1.0000
65.1800 344.0000 1.0000
65.1900 348.0000 1.0000
65.2000 392.0000 1.0000
65.2100 404.0000 1.0000
65.2200 412.0000 1.0000
65.2300 418.0000 1.0000
65.2400 388.0000 1.0000
65.2500 426.0000 1.0000
65.2600 429.0000 1.0000
65.2700 410.0000 1.0000
65.2800 411.0000 1.0000
65.2900 451.0000 1.0000
65.3000 476.0000 1.0000
65.3100 469.0000 1.0000
65.3200 484.0000 1.0000
65.3300 541.0000 1.0000
65.3400 555.0000 1.0000
65.3500 564.0000 1.0000
65.3600 531.0000 1.0000
65.3700 614.0000 1.0000
65.3800 614.0000 1.0000
65.3900 649.0000 1.0000
65.4000 650.0000 1.0000
65.4100 683.0000 1.0000
65.4200 698.0000 1.0000
65.4300 757.0000 1.0000
65.4400 794.0000 1.0000
65.4500 793.0000 1.0000
65.4600 849.0000 1.0000
65.4700 844.0000 1.0000
65.4800 895.0000 1.0000
65.4900 931.0000 1.0000
65.5000 986.0000 1.0000
65.5100 1007.0000 1.0000
65.5200 1019.0000 1.0000
65.5300 1068.0000 1.0000
65.5400 987.0000 1.0000
65.5500 1017.0000 1.0000
65.5600 985.0000 1.0000
65.5700 954.0000 1.0000
65.5800 971.0000 1.0000
65.5900 968.0000 1.0000
65.6000 953.0000 1.0000
65.6100 918.0000 1.0000
65.6200 882.0000 1.0000
65.6300 839.0000 1.0000
65.6400 832.0000 1.0000
65.6500 874.0000 1.0000
65.6600 861.0000 1.0000
65.6700 839.0000 1.0000
65.6800 775.0000 1.0000
65.6900 774.0000 1.0000
65.7000 824.0000 1.0000
65.7100 765.0000 1.0000
65.7200 739.0000 1.0000
65.7300 738.0000 1.0000
65.7400 713.0000 1.0000
65.7500 703.0000 1.0000
65.7600 663.0000 1.0000
65.7700 683.0000 1.0000
65.7800 617.0000 1.0000
65.7900 603.0000 1.0000
65.8000 579.0000 1.0000
65.8100 553.0000 1.0000
65.8200 587.0000 1.0000
65.8300 525.0000 1.0000
65.8400 496.0000 1.0000
65.8500 513.0000 1.0000
65.8600 481.0000 1.0000
65.8700 479.0000 1.0000
65.8800 456.0000 1.0000
65.8900 446.0000 1.0000
65.9000 396.0000 1.0000
65.9100 420.0000 1.0000
65.9200 400.0000 1.0000
65.9300 409.0000 1.0000
65.9400 378.0000 1.0000
65.9500 370.0000 1.0000
65.9600 376.0000 1.0000
65.9700 366.0000 1.0000
65.9800 353.0000 1.0000
65.9900 382.0000 1.0000
66.0000 375.0000 1.0000
66.0100 357.0000 1.0000
66.0200 362.0000 1.0000
66.0300 349.0000 1.0000
66.0400 400.0000 1.0000
66.0500 329.0000 1.0000
66.0600 360.0000 1.0000
66.0700 311.0000 1.0000
66.0800 300.0000 1.0000
66.0900 308.0000 1.0000
66.1000 329.0000 1.0000
66.1100 343.0000 1.0000
66.1200 316.0000 1.0000
66.1300 314.0000 1.0000
66.1400 305.0000 1.0000
66.1500 309.0000 1.0000
66.1600 309.0000 1.0000
66.1700 314.0000 1.0000
66.1800 303.0000 1.0000
66.1900 289.0000 1.0000
66.2000 292.0000 1.0000
66.2100 305.0000 1.0000
66.2200 277.0000 1.0000
66.2300 284.0000 1.0000
66.2400 274.0000 1.0000
66.2500 270.0000 1.0000
66.2600 282.0000 1.0000
66.2700 296.0000 1.0000
66.2800 308.0000 1.0000
66.2900 286.0000 1.0000
66.3000 289.0000 1.0000
66.3100 279.0000 1.0000
66.3200 275.0000 1.0000
66.3300 293.0000 1.0000
66.3400 301.0000 1.0000
66.3500 296.0000 1.0000
66.3600 292.0000 1.0000
66.3700 270.0000 1.0000
66.3800 270.0000 1.0000
66.3900 289.0000 1.0000
66.4000 290.0000 1.0000
66.4100 305.0000 1.0000
66.4200 297.0000 1.0000
66.4300 292.0000 1.0000
66.4400 299.0000 1.0000
66.4500 294.0000 1.0000
66.4600 274.0000 1.0000
66.4700 275.0000 1.0000
66.4800 283.0000 1.0000
66.4900 292.0000 1.0000
66.5000 289.0000 1.0000
66.5100 261.0000 1.0000
66.5200 288.0000 1.0000
66.5300 252.0000 1.0000
66.5400 262.0000 1.0000
66.5500 281.0000 1.0000
66.5600 293.0000 1.0000
66.5700 264.0000 1.0000
66.5800 302.0000 1.0000
66.5900 254.0000 1.0000
66.6000 269.0000 1.0000
66.6100 252.0000 1.0000
66.6200 264.0000 1.0000
66.6300 262.0000 1.0000
66.6400 257.0000 1.0000
66.6500 258.0000 1.0000
66.6600 273.0000 1.0000
66.6700 283.0000 1.0000
66.6800 293.0000 1.0000
66.6900 285.0000 1.0000
66.7000 264.0000 1.0000
66.7100 278.0000 1.0000
66.7200 266.0000 1.0000
66.7300 299.0000 1.0000
66.7400 293.0000 1.0000
66.7500 250.0000 1.0000
66.7600 254.0000 1.0000
66.7700 273.0000 1.0000
66.7800 256.0000 1.0000
66.7900 262.0000 1.0000
66.8000 289.0000 1.0000
66.8100 287.0000 1.0000
66.8200 264.0000 1.0000
66.8300 246.0000 1.0000
66.8400 232.0000 1.0000
66.8500 277.0000 1.0000
66.8600 251.0000 1.0000
66.8700 274.0000 1.0000
66.8800 265.0000 1.0000
66.8900 268.0000 1.0000
66.9000 243.0000 1.0000
66.9100 268.0000 1.0000
66.9200 276.0000 1.0000
66.9300 267.0000 1.0000
66.9400 294.0000 1.0000
66.9500 256.0000 1.0000
66.9600 247.0000 1.0000
66.9700 290.0000 1.0000
66.9800 264.0000 1.0000
66.9900 252.0000 1.0000
67.0000 257.0000 1.0000
67.0100 245.0000 1.0000
67.0200 257.0000 1.0000
67.0300 261.0000 1.0000
67.0400 255.0000 1.0000
67.0500 258.0000 1.0000
67.0600 270.0000 1.0000
67.0700 267.0000 1.0000
67.0800 255.0000 1.0000
67.0900 281.0000 1.0000
67.1000 276.0000 1.0000
67.1100 261.0000 1.0000
67.1200 272.0000 1.0000
67.1300 276.0000 1.0000
67.1400 282.0000 1.0000
67.1500 260.0000 1.0000
67.1600 256.0000 1.0000
67.1700 256.0000 1.0000
67.1800 255.0000 1.0000
67.1900 263.0000 1.0000
67.2000 258.0000 1.0000
67.2100 249.0000 1.0000
67.2200 231.0000 1.0000
67.2300 253.0000 1.0000
67.2400 271.0000 1.0000
67.2500 278.0000 1.0000
67.2600 287.0000 1.0000
67.2700 295.0000 1.0000
67.2800 288.0000 1.0000
67.2900 260.0000 1.0000
67.3000 256.0000 1.0000
67.3100 258.0000 1.0000
67.3200 281.0000 1.0000
67.3300 260.0000 1.0000
67.3400 278.0000 1.0000
67.3500 268.0000 1.0000
67.3600 284.0000 1.0000
67.3700 282.0000 1.0000
67.3800 290.0000 1.0000
67.3900 256.0000 1.0000
67.4000 268.0000 1.0000
67.4100 258.0000 1.0000
67.4200 272.0000 1.0000
67.4300 250.0000 1.0000
67.4400 240.0000 1.0000
67.4500 262.0000 1.0000
67.4600 249.0000 1.0000
67.4700 249.0000 1.0000
67.4800 280.0000 1.0000
67.4900 246.0000 1.0000
67.5000 250.0000 1.0000
67.5100 256.0000 1.0000
67.5200 273.0000 1.0000
67.5300 272.0000 1.0000
67.5400 261.0000 1.0000
67.5500 247.0000 1.0000
67.5600 264.0000 1.0000
67.5700 261.0000 1.0000
67.5800 270.0000 1.0000
67.5900 275.0000 1.0000
67.6000 277.0000 1.0000
67.6100 259.0000 1.0000
67.6200 251.0000 1.0000
67.6300 247.0000 1.0000
67.6400 265.0000 1.0000
67.6500 274.0000 1.0000
67.6600 264.0000 1.0000
67.6700 249.0000 1.0000
67.6800 263.0000 1.0000
67.6900 257.0000 1.0000
67.7000 260.0000 1.0000
67.7100 241.0000 1.0000
67.7200 279.0000 1.0000
67.7300 255.0000 1.0000
67.7400 240.0000 1.0000
67.7500 255.0000 1.0000
67.7600 264.0000 1.0000
67.7700 274.0000 1.0000
67.7800 257.0000 1.0000
67.7900 255.0000 1.0000
67.8000 263.0000 1.0000
67.8100 246.0000 1.0000
67.8200 244.0000 1.0000
67.8300 257.0000 1.0000
67.8400 266.0000 1.0000
67.8500 254.0000 1.0000
67.8600 278.0000 1.0000
67.8700 268.0000 1.0000
67.8800 246.0000 1.0000
67.8900 272.0000 1.0000
67.9000 254.0000 1.0000
67.9100 265.0000 1.0000
67.9200 256.0000 1.0000
67.9300 256.0000 1.0000
67.9400 255.0000 1.0000
67.9500 281.0000 1.0000
67.9600 253.0000 1.0000
67.9700 284.0000 1.0000
67.9800 244.0000 1.0000
67.9900 238.0000 1.0000
68.0000 262.0000 1.0000
68.0100 280.0000 1.0000
68.0200 272.0000 1.0000
68.0300 254.0000 1.0000
68.0400 266.0000 1.0000
68.0500 234.0000 1.0000
68.0600 244.0000 1.0000
68.0700 227.0000 1.0000
68.0800 266.0000 1.0000
68.0900 276.0000 1.0000
68.1000 255.0000 1.0000
68.1100 258.0000 1.0000
68.1200 267.0000 1.0000
68.1300 264.0000 1.0000
68.1400 254.0000 1.0000
68.1500 270.0000 1.0000
68.1600 270.0000 1.0000
68.1700 246.0000 1.0000
68.1800 259.0000 1.0000
68.1900 263.0000 1.0000
68.2000 254.0000 1.0000
68.2100 263.0000 1.0000
68.2200 255.0000 1.0000
68.2300 258.0000 1.0000
68.2400 259.0000 1.0000
68.2500 246.0000 1.0000
68.2600 264.0000 1.0000
68.2700 263.0000 1.0000
68.2800 241.0000 1.0000
68.2900 250.0000 1.0000
68.3000 276.0000 1.0000
68.3100 271.0000 1.0000
68.3200 247.0000 1.0000
68.3300 254.0000 1.0000
68.3400 266.0000 1.0000
68.3500 276.0000 1.0000
68.3600 241.0000 1.0000
68.3700 240.0000 1.0000
68.3800 268.0000 1.0000
68.3900 250.0000 1.0000
68.4000 228.0000 1.0000
68.4100 286.0000 1.0000
68.4200 254.0000 1.0000
68.4300 265.0000 1.0000
68.4400 279.0000 1.0000
68.4500 252.0000 1.0000
68.4600 246.0000 1.0000
68.4700 261.0000 1.0000
68.4800 243.0000 1.0000
68.4900 256.0000 1.0000
68.5000 238.0000 1.0000
68.5100 297.0000 1.0000
68.5200 266.0000 1.0000
68.5300 233.0000 1.0000
68.5400 229.0000 1.0000
68.5500 238.0000 1.0000
68.5600 239.0000 1.0000
68.5700 240.0000 1.0000
68.5800 286.0000 1.0000
68.5900 275.0000 1.0000
68.6000 233.0000 1.0000
68.6100 264.0000 1.0000
68.6200 261.0000 1.0000
68.6300 261.0000 1.0000
68.6400 255.0000 1.0000
68.6500 266.0000 1.0000
68.6600 260.0000 1.0000
68.6700 269.0000 1.0000
68.6800 292.0000 1.0000
68.6900 252.0000 1.0000
68.7000 265.0000 1.0000
68.7100 255.0000 1.0000
68.7200 266.0000 1.0000
68.7300 258.0000 1.0000
68.7400 257.0000 1.0000
68.7500 244.0000 1.0000
68.7600 254.0000 1.0000
68.7700 263.0000 1.0000
68.7800 266.0000 1.0000
68.7900 246.0000 1.0000
68.8000 243.0000 1.0000
68.8100 248.0000 1.0000
68.8200 257.0000 1.0000
68.8300 278.0000 1.0000
68.8400 248.0000 1.0000
68.8500 291.0000 1.0000
68.8600 273.0000 1.0000
68.8700 259.0000 1.0000
68.8800 262.0000 1.0000
68.8900 246.0000 1.0000
68.9000 258.0000 1.0000
68.9100 264.0000 1.0000
68.9200 285.0000 1.0000
68.9300 298.0000 1.0000
68.9400 235.0000 1.0000
68.9500 263.0000 1.0000
68.9600 277.0000 1.0000
68.9700 259.0000 1.0000
68.9800 261.0000 1.0000
68.9900 265.0000 1.0000
69.0000 262.0000 1.0000
69.0100 250.0000 1.0000
69.0200 257.0000 1.0000
69.0300 254.0000 1.0000
69.0400 244.0000 1.0000
69.0500 245.0000 1.0000
69.0600 262.0000 1.0000
69.0700 253.0000 1.0000
69.0800 282.0000 1.0000
69.0900 269.0000 1.0000
69.1000 245.0000 1.0000
69.1100 272.0000 1.0000
69.1200 284.0000 1.0000
69.1300 303.0000 1.0000
69.1400 230.0000 1.0000
69.1500 268.0000 1.0000
69.1600 259.0000 1.0000
69.1700 236.0000 1.0000
69.1800 253.0000 1.0000
69.1900 244.0000 1.0000
69.2000 255.0000 1.0000
69.2100 258.0000 1.0000
69.2200 261.0000 1.0000
69.2300 235.0000 1.0000
69.2400 259.0000 1.0000
69.2500 242.0000 1.0000
69.2600 249.0000 1.0000
69.2700 269.0000 1.0000
69.2800 268.0000 1.0000
69.2900 238.0000 1.0000
69.3000 267.0000 1.0000
69.3100 249.0000 1.0000
69.3200 258.0000 1.0000
69.3300 241.0000 1.0000
69.3400 246.0000 1.0000
69.3500 273.0000 1.0000
69.3600 266.0000 1.0000
69.3700 276.0000 1.0000
69.3800 285.0000 1.0000
69.3900 266.0000 1.0000
69.4000 266.0000 1.0000
69.4100 256.0000 1.0000
69.4200 252.0000 1.0000
69.4300 251.0000 1.0000
69.4400 269.0000 1.0000
69.4500 269.0000 1.0000
69.4600 266.0000 1.0000
69.4700 258.0000 1.0000
69.4800 267.0000 1.0000
69.4900 274.0000 1.0000
69.5000 239.0000 1.0000
69.5100 273.0000 1.0000
69.5200 266.0000 1.0000
69.5300 251.0000 1.0000
69.5400 246.0000 1.0000
69.5500 250.0000 1.0000
69.5600 256.0000 1.0000
69.5700 262.0000 1.0000
69.5800 237.0000 1.0000
69.5900 237.0000 1.0000
69.6000 251.0000 1.0000
69.6100 256.0000 1.0000
69.6200 254.0000 1.0000
69.6300 268.0000 1.0000
69.6400 269.0000 1.0000
69.6500 270.0000 1.0000
69.6600 256.0000 1.0000
69.6700 245.0000 1.0000
69.6800 268.0000 1.0000
69.6900 254.0000 1.0000
69.7000 241.0000 1.0000
69.7100 259.0000 1.0000
69.7200 285.0000 1.0000
69.7300 244.0000 1.0000
69.7400 237.0000 1.0000
69.7500 264.0000 1.0000
69.7600 268.0000 1.0000
69.7700 263.0000 1.0000
69.7800 248.0000 1.0000
69.7900 252.0000 1.0000
69.8000 249.0000 1.0000
69.8100 269.0000 1.0000
69.8200 238.0000 1.0000
69.8300 273.0000 1.0000
69.8400 229.0000 1.0000
69.8500 249.0000 1.0000
69.8600 249.0000 1.0000
69.8700 253.0000 1.0000
69.8800 265.0000 1.0000
69.8900 220.0000 1.0000
69.9000 232.0000 1.0000
69.9100 257.0000 1.0000
69.9200 259.0000 1.0000
69.9300 249.0000 1.0000
69.9400 255.0000 1.0000
69.9500 249.0000 1.0000
69.9600 263.0000 1.0000
69.9700 267.0000 1.0000
69.9800 231.0000 1.0000
69.9900 246.0000 1.0000
70.0000 243.0000 1.0000
*RAS_INT_END
*RAS_TEMPERATURE_START
*RAS_TEMPERATURE_END
*RAS_DATA_END
