*RAS_DATA_START
*RAS_HEADER_START
*DISP_FMT_X "%.2f"
*DISP_FMT_Y "%.0f"
*DISP_FULLSCALE "14715.0000000000"
*DISP_LINE_COLOR "255.0000000000"
*DISP_LINE_STYLE "0.0000000000"
*DISP_LINE_WIDTH "0.2500000000"
*DISP_NOTE "測定データ-1"
*DISP_OFFSET_Y "0.0000000000"
*DISP_PEAKSEARCH_UNIT_Y "cps"
*DISP_RANGE_BOTTOM "0.0000000000"
*DISP_RANGE_LEFT "20.0000000000"
*DISP_RANGE_LOGCUTOFF "0.0100000000"
*DISP_RANGE_RIGHT "70.0000000000"
*DISP_RANGE_TOP "14715.0000000000"
*DISP_SCALE_MODE_Y "0.0000000000"
*DISP_TAB_NAME "2θ/θ"
*DISP_TITLE_Y "強度"
*DISP_UNIT_Y "cps"
*DISP_WINDOW_NAME "MSG_MACROENGINE"
*FILE_COMMENT " "
*FILE_MD5 ""
*FILE_MEMO " "
*FILE_OPERATOR "Administrator"
*FILE_SAMPLE " "
*FILE_TYPE "RAS_RAW"
*FILE_USERGROUP "システムマネージャ"
*FILE_VERSION "1.0000000000"
*HW_ATTACHMENT_ID "ATT0025"
*HW_ATTACHMENT_NAME "標準|Standard"
*HW_COUNTER_ID-0 "CUT0025"
*HW_COUNTER_ID-1 "CUT0020"
*HW_COUNTER_ID-2 "CUT0020"
*HW_COUNTER_ID-3 "CSL0021"
*HW_COUNTER_ID-4 "CMC0021"
*HW_COUNTER_NAME-0 "D/teX Ultra|D/teX Ultra"
*HW_COUNTER_NAME-1 "None|None"
*HW_COUNTER_NAME-2 "None|None"
*HW_COUNTER_NAME-3 "BBM|BBM"
*HW_COUNTER_NAME-4 "検出器モノクロメータ|Detector monochromator"
*HW_COUNTER_SELECT_NAME "D/teX Ultra|D/teX Ultra"
*HW_GONIOMETER_ID "GON0023"
*HW_GONIOMETER_NAME "SmartLab|SmartLab"
*HW_GONIOMETER_RADIUS-0 "90.0"
*HW_GONIOMETER_RADIUS-1 "114.0"
*HW_GONIOMETER_RADIUS-2 "190.0"
*HW_GONIOMETER_RADIUS-3 "300.0"
*HW_GONIOMETER_RADIUS-4 "187.0"
*HW_GONIOMETER_RADIUS-5 "300.0"
*HW_GONIOMETER_RADIUS-6 "113.0"
*HW_GONIOMETER_RADIUS-7 "331.0"
*HW_I_OPT_ID-0 "CBO0021"
*HW_I_OPT_ID-1 "ICR0023"
*HW_I_OPT_ID-2 "ISL0021"
*HW_I_OPT_ID-3 "ISO0021"
*HW_I_OPT_ID-4 "IAD0021"
*HW_I_OPT_ID-5 "IPR0001"
*HW_I_OPT_NAME-0 "CBOユニット|CBO unit"
*HW_I_OPT_NAME-1 "標準入射光学ユニット|Standard incident optical unit"
*HW_I_OPT_NAME-2 "標準入射スリットボックス|Standard incident slit box"
*HW_I_OPT_NAME-3 "入射平行スリット|Incident parallel slit"
*HW_I_OPT_NAME-4 "長手制限スリット|Length limiting slit"
*HW_I_OPT_NAME-5 "None|None"
*HW_R_ATTENUATER_AUTOMODE "0"
*HW_R_OPT_ID-0 "RSS0021"
*HW_R_OPT_ID-1 "RCR0023"
*HW_R_OPT_ID-2 "RSO0021"
*HW_R_OPT_ID-3 "RRS0021"
*HW_R_OPT_ID-4 "ATN0021"
*HW_R_OPT_ID-5 "RFL0021"
*HW_R_OPT_ID-6 "RAD0021"
*HW_R_OPT_NAME-0 "標準受光スリットボックス1|Standard receiving slit box # 1"
*HW_R_OPT_NAME-1 "標準受光光学ユニット1|Standard receiving unit # 1"
*HW_R_OPT_NAME-2 "標準受光光学ユニット2|Standard receiving optical unit # 2"
*HW_R_OPT_NAME-3 "標準受光スリットボックス2|Standard receiving slit box # 2"
*HW_R_OPT_NAME-4 "標準アッテネータ|Standard Attenuator"
*HW_R_OPT_NAME-5 "Cu Kβ|Cu K-beta"
*HW_R_OPT_NAME-6 "調整用受光スリット|Alignment receiving slit"
*HW_SAMPLE_HOLDER_ID "SMP0023"
*HW_SAMPLE_HOLDER_NAME "標準Zステージ|Standard Z stage"
*HW_XG_CURRENT_MAX "50"
*HW_XG_CURRENT_MIN "2"
*HW_XG_CURRENT_RESOLUTION "1"
*HW_XG_CURRENT_UNIT "mA"
*HW_XG_FOCUS "1mm x 10mm"
*HW_XG_FOCUS_TYPE "Normal"
*HW_XG_ID ""
*HW_XG_NAME "3kW 封入管(ID:1200)|3kW Sealed tube(ID:1200)"
*HW_XG_TARGET_ATOMIC_NUMBER "29.0000000000"
*HW_XG_TARGET_NAME "Cu"
*HW_XG_TYPE "Hermetic"
*HW_XG_VOLTAGE_MAX "60"
*HW_XG_VOLTAGE_MIN "20"
*HW_XG_VOLTAGE_RESOLUTION "1"
*HW_XG_VOLTAGE_UNIT "kV"
*HW_XG_WATT_MAX "1.500"
*HW_XG_WATT_UNIT "kW"
*HW_XG_WAVE_LENGTH_ALPHA1 "1.540593"
*HW_XG_WAVE_LENGTH_ALPHA2 "1.544414"
*HW_XG_WAVE_LENGTH_BETA "1.392250"
*MEAS_COND_AXIS_NAME-0 "2θ/θ"
*MEAS_COND_AXIS_NAME-1 "2θ"
*MEAS_COND_AXIS_NAME-2 "ω"
*MEAS_COND_AXIS_NAME-3 "Z"
*MEAS_COND_AXIS_NAME-4 "2θ/ω"
*MEAS_COND_AXIS_NAME-5 "θs"
*MEAS_COND_AXIS_NAME-6 "θd"
*MEAS_COND_AXIS_NAME-7 "Ts"
*MEAS_COND_AXIS_NAME-8 "CBO選択スリット"
*MEAS_COND_AXIS_NAME-9 "M"
*MEAS_COND_AXIS_NAME-10 "入射平行スリット"
*MEAS_COND_AXIS_NAME-11 "入射スリット"
*MEAS_COND_AXIS_NAME-12 ""
*MEAS_COND_AXIS_NAME-13 "Zs"
*MEAS_COND_AXIS_NAME-14 "入射光学素子"
*MEAS_COND_AXIS_NAME-15 "長手制限スリット"
*MEAS_COND_AXIS_NAME-16 "センタースリット"
*MEAS_COND_AXIS_NAME-17 "フィルター"
*MEAS_COND_AXIS_NAME-18 "受光スリット1"
*MEAS_COND_AXIS_NAME-19 "受光スリット2"
*MEAS_COND_AXIS_NAME-20 "受光光学素子"
*MEAS_COND_AXIS_NAME-21 "受光平行スリット"
*MEAS_COND_AXIS_NAME-22 "調整用受光スリット"
*MEAS_COND_AXIS_NAME-23 ""
*MEAS_COND_AXIS_NAME-24 ""
*MEAS_COND_AXIS_NAME-25 "Zd"
*MEAS_COND_AXIS_NAME-26 "アッテネータ"
*MEAS_COND_AXIS_NAME-27 "検出器モノクロメータ"
*MEAS_COND_AXIS_NAME-28 "モノクロメータスリット"
*MEAS_COND_AXIS_NAME-29 "プライマリビーム"
*MEAS_COND_AXIS_NAME-30 "PHA"
*MEAS_COND_AXIS_NAME_INTERNAL-0 "TwoThetaTheta"
*MEAS_COND_AXIS_NAME_INTERNAL-1 "TwoTheta"
*MEAS_COND_AXIS_NAME_INTERNAL-2 "Omega"
*MEAS_COND_AXIS_NAME_INTERNAL-3 "Z"
*MEAS_COND_AXIS_NAME_INTERNAL-4 "TwoThetaOmega"
*MEAS_COND_AXIS_NAME_INTERNAL-5 "ThetaS"
*MEAS_COND_AXIS_NAME_INTERNAL-6 "ThetaD"
*MEAS_COND_AXIS_NAME_INTERNAL-7 "Ts"
*MEAS_COND_AXIS_NAME_INTERNAL-8 "CBO"
*MEAS_COND_AXIS_NAME_INTERNAL-9 "CBO-M"
*MEAS_COND_AXIS_NAME_INTERNAL-10 "IncidentSollerSlit"
*MEAS_COND_AXIS_NAME_INTERNAL-11 "IncidentSlitBox"
*MEAS_COND_AXIS_NAME_INTERNAL-12 "IncidentSlitBox-_Axis"
*MEAS_COND_AXIS_NAME_INTERNAL-13 "Zs"
*MEAS_COND_AXIS_NAME_INTERNAL-14 "IncidentMonochromator"
*MEAS_COND_AXIS_NAME_INTERNAL-15 "IncidentAxdSlit"
*MEAS_COND_AXIS_NAME_INTERNAL-16 "CenterSlit"
*MEAS_COND_AXIS_NAME_INTERNAL-17 "Filter"
*MEAS_COND_AXIS_NAME_INTERNAL-18 "ReceivingSlitBox1"
*MEAS_COND_AXIS_NAME_INTERNAL-19 "ReceivingSlitBox2"
*MEAS_COND_AXIS_NAME_INTERNAL-20 "ReceivingOptics"
*MEAS_COND_AXIS_NAME_INTERNAL-21 "ReceivingSollerSlit"
*MEAS_COND_AXIS_NAME_INTERNAL-22 "ReceivingAxdSlit"
*MEAS_COND_AXIS_NAME_INTERNAL-23 "ReceivingSlitBox1-_Axis"
*MEAS_COND_AXIS_NAME_INTERNAL-24 "ReceivingSlitBox2-_Axis"
*MEAS_COND_AXIS_NAME_INTERNAL-25 "ReceivingSlitBox2-Zd"
*MEAS_COND_AXIS_NAME_INTERNAL-26 "Attenuator"
*MEAS_COND_AXIS_NAME_INTERNAL-27 "CounterMonochromator"
*MEAS_COND_AXIS_NAME_INTERNAL-28 "CounterSlit"
*MEAS_COND_AXIS_NAME_INTERNAL-29 "IncidentPrimary"
*MEAS_COND_AXIS_NAME_INTERNAL-30 "PHA"
*MEAS_COND_AXIS_NAME_MAGICNO-0 "83951616.0000000000"
*MEAS_COND_AXIS_NAME_MAGICNO-1 "268632064.0000000000"
*MEAS_COND_AXIS_NAME_MAGICNO-2 "268500992.0000000000"
*MEAS_COND_AXIS_NAME_MAGICNO-3 "285278208.0000000000"
*MEAS_COND_AXIS_NAME_MAGICNO-4 "83951616.0000000000"
*MEAS_COND_AXIS_NAME_MAGICNO-5 "131072.0000000000"
*MEAS_COND_AXIS_NAME_MAGICNO-6 "131072.0000000000"
*MEAS_COND_AXIS_NAME_MAGICNO-7 "318898176.0000000000"
*MEAS_COND_AXIS_NAME_MAGICNO-8 "20971521.0000000000"
*MEAS_COND_AXIS_NAME_MAGICNO-9 "285343744.0000000000"
*MEAS_COND_AXIS_NAME_MAGICNO-10 "20971521.0000000000"
*MEAS_COND_AXIS_NAME_MAGICNO-11 "22020097.0000000000"
*MEAS_COND_AXIS_NAME_MAGICNO-12 "25165824.0000000000"
*MEAS_COND_AXIS_NAME_MAGICNO-13 "318898176.0000000000"
*MEAS_COND_AXIS_NAME_MAGICNO-14 "1.0000000000"
*MEAS_COND_AXIS_NAME_MAGICNO-15 "20971521.0000000000"
*MEAS_COND_AXIS_NAME_MAGICNO-16 "20971521.0000000000"
*MEAS_COND_AXIS_NAME_MAGICNO-17 "20971521.0000000000"
*MEAS_COND_AXIS_NAME_MAGICNO-18 "23068673.0000000000"
*MEAS_COND_AXIS_NAME_MAGICNO-19 "23068673.0000000000"
*MEAS_COND_AXIS_NAME_MAGICNO-20 "20971521.0000000000"
*MEAS_COND_AXIS_NAME_MAGICNO-21 "20971521.0000000000"
*MEAS_COND_AXIS_NAME_MAGICNO-22 "20971521.0000000000"
*MEAS_COND_AXIS_NAME_MAGICNO-23 "25165824.0000000000"
*MEAS_COND_AXIS_NAME_MAGICNO-24 "25165824.0000000000"
*MEAS_COND_AXIS_NAME_MAGICNO-25 "285343744.0000000000"
*MEAS_COND_AXIS_NAME_MAGICNO-26 "17301505.0000000000"
*MEAS_COND_AXIS_NAME_MAGICNO-27 "20971521.0000000000"
*MEAS_COND_AXIS_NAME_MAGICNO-28 "20971521.0000000000"
*MEAS_COND_AXIS_NAME_MAGICNO-29 "20971521.0000000000"
*MEAS_COND_AXIS_NAME_MAGICNO-30 "0.0000000000"
*MEAS_COND_AXIS_OFFSET-0 "-"
*MEAS_COND_AXIS_OFFSET-1 "-0.0310000000"
*MEAS_COND_AXIS_OFFSET-2 "0.5056000000"
*MEAS_COND_AXIS_OFFSET-3 "-"
*MEAS_COND_AXIS_OFFSET-4 "-"
*MEAS_COND_AXIS_OFFSET-5 "0.5056000000"
*MEAS_COND_AXIS_OFFSET-6 "-0.5366000000"
*MEAS_COND_AXIS_OFFSET-7 "-"
*MEAS_COND_AXIS_OFFSET-8 "-"
*MEAS_COND_AXIS_OFFSET-9 "-"
*MEAS_COND_AXIS_OFFSET-10 "-"
*MEAS_COND_AXIS_OFFSET-11 "-"
*MEAS_COND_AXIS_OFFSET-12 "-"
*MEAS_COND_AXIS_OFFSET-13 "-"
*MEAS_COND_AXIS_OFFSET-14 "-"
*MEAS_COND_AXIS_OFFSET-15 "-"
*MEAS_COND_AXIS_OFFSET-16 "-"
*MEAS_COND_AXIS_OFFSET-17 "-"
*MEAS_COND_AXIS_OFFSET-18 "-"
*MEAS_COND_AXIS_OFFSET-19 "-"
*MEAS_COND_AXIS_OFFSET-20 "-"
*MEAS_COND_AXIS_OFFSET-21 "-"
*MEAS_COND_AXIS_OFFSET-22 "-"
*MEAS_COND_AXIS_OFFSET-23 "-"
*MEAS_COND_AXIS_OFFSET-24 "-"
*MEAS_COND_AXIS_OFFSET-25 "-"
*MEAS_COND_AXIS_OFFSET-26 "-"
*MEAS_COND_AXIS_OFFSET-27 "-"
*MEAS_COND_AXIS_OFFSET-28 "-"
*MEAS_COND_AXIS_OFFSET-29 "-"
*MEAS_COND_AXIS_OFFSET-30 "-"
*MEAS_COND_AXIS_POSITION-0 "0.0000000000"
*MEAS_COND_AXIS_POSITION-1 "0.0000000000"
*MEAS_COND_AXIS_POSITION-2 "0.0000000000"
*MEAS_COND_AXIS_POSITION-3 "-2.9031400000"
*MEAS_COND_AXIS_POSITION-4 "0.0000000000"
*MEAS_COND_AXIS_POSITION-5 "0.0000000000"
*MEAS_COND_AXIS_POSITION-6 "0.0000000000"
*MEAS_COND_AXIS_POSITION-7 "-0.7498700000"
*MEAS_COND_AXIS_POSITION-8 "BB"
*MEAS_COND_AXIS_POSITION-9 "0.0000000000"
*MEAS_COND_AXIS_POSITION-10 "Soller_slit_5.0deg"
*MEAS_COND_AXIS_POSITION-11 "2/3deg"
*MEAS_COND_AXIS_POSITION-12 "2.2088000000"
*MEAS_COND_AXIS_POSITION-13 "-0.6412500000"
*MEAS_COND_AXIS_POSITION-14 "0.0000000000"
*MEAS_COND_AXIS_POSITION-15 "10.0mm"
*MEAS_COND_AXIS_POSITION-16 "None"
*MEAS_COND_AXIS_POSITION-17 "Cu_K-beta"
*MEAS_COND_AXIS_POSITION-18 "13.000mm"
*MEAS_COND_AXIS_POSITION-19 "13.000mm"
*MEAS_COND_AXIS_POSITION-20 "No_unit"
*MEAS_COND_AXIS_POSITION-21 "Soller_slit_5.0deg"
*MEAS_COND_AXIS_POSITION-22 "None"
*MEAS_COND_AXIS_POSITION-23 "13.0000000000"
*MEAS_COND_AXIS_POSITION-24 "13.0000000000"
*MEAS_COND_AXIS_POSITION-25 "0.0281300000"
*MEAS_COND_AXIS_POSITION-26 "Open"
*MEAS_COND_AXIS_POSITION-27 "None"
*MEAS_COND_AXIS_POSITION-28 "None"
*MEAS_COND_AXIS_POSITION-29 "None"
*MEAS_COND_AXIS_POSITION-30 "38.0000000000"
*MEAS_COND_AXIS_UNIT-0 "deg"
*MEAS_COND_AXIS_UNIT-1 "deg"
*MEAS_COND_AXIS_UNIT-2 "deg"
*MEAS_COND_AXIS_UNIT-3 "mm"
*MEAS_COND_AXIS_UNIT-4 "deg"
*MEAS_COND_AXIS_UNIT-5 "deg"
*MEAS_COND_AXIS_UNIT-6 "deg"
*MEAS_COND_AXIS_UNIT-7 "mm"
*MEAS_COND_AXIS_UNIT-8 ""
*MEAS_COND_AXIS_UNIT-9 "pulse"
*MEAS_COND_AXIS_UNIT-10 ""
*MEAS_COND_AXIS_UNIT-11 ""
*MEAS_COND_AXIS_UNIT-12 "mm"
*MEAS_COND_AXIS_UNIT-13 "mm"
*MEAS_COND_AXIS_UNIT-14 ""
*MEAS_COND_AXIS_UNIT-15 ""
*MEAS_COND_AXIS_UNIT-16 ""
*MEAS_COND_AXIS_UNIT-17 ""
*MEAS_COND_AXIS_UNIT-18 ""
*MEAS_COND_AXIS_UNIT-19 ""
*MEAS_COND_AXIS_UNIT-20 ""
*MEAS_COND_AXIS_UNIT-21 ""
*MEAS_COND_AXIS_UNIT-22 ""
*MEAS_COND_AXIS_UNIT-23 "mm"
*MEAS_COND_AXIS_UNIT-24 "mm"
*MEAS_COND_AXIS_UNIT-25 "mm"
*MEAS_COND_AXIS_UNIT-26 ""
*MEAS_COND_AXIS_UNIT-27 ""
*MEAS_COND_AXIS_UNIT-28 ""
*MEAS_COND_AXIS_UNIT-29 ""
*MEAS_COND_AXIS_UNIT-30 "div"
*MEAS_COND_COUNTER_CNTLOSS_CORR "0.0000000000"
*MEAS_COND_COUNTER_PHABASE "38.0000000000"
*MEAS_COND_COUNTER_PHAWINDOW "16.0000000000"
*MEAS_COND_COUNTER_PHA_UNIT "div"
*MEAS_COND_COUNTER_TAUDIFF "30.0000000000"
*MEAS_COND_COUNTER_TAUINT "0.0000000000"
*MEAS_COND_IRRADIATION_MODE "OFF"
*MEAS_COND_IRRADIATION_WIDTH ""
*MEAS_COND_OPT_ATTR "集中法"
*MEAS_COND_OPT_NAME "@集中法"
*MEAS_COND_UNSYMMETRIC_MODE "OFF"
*MEAS_COND_XG_CURRENT "30.0000000000"
*MEAS_COND_XG_VOLTAGE "40.0000000000"
*MEAS_COND_XG_WAVE_TYPE "Ka"
*MEAS_DATA_COUNT "5001.0000000000"
*MEAS_SCAN_AXIS_X "2θ/θ"
*MEAS_SCAN_AXIS_X_INTERNAL "TwoThetaTheta"
*MEAS_SCAN_END_TIME "07/27/23 19:42:44"
*MEAS_SCAN_MODE "CONTINUOUS"
*MEAS_SCAN_MONITOR "0"
*MEAS_SCAN_RESOLUTION_X "0.0002"
*MEAS_SCAN_SPEED "2.5"
*MEAS_SCAN_SPEED_UNIT "deg/min"
*MEAS_SCAN_START "20.0000000000"
*MEAS_SCAN_START_TIME "07/27/23 19:21:20"
*MEAS_SCAN_STEP "0.0100000000"
*MEAS_SCAN_STOP "70.0000000000"
*MEAS_SCAN_UNIT_X "deg"
*MEAS_SCAN_UNIT_Y "counts"
*RAS_HEADER_END
*RAS_INT_START
20.0000 1149.0000 1.0000
20.0100 1138.0000 1.0000
20.0200 1178.0000 1.0000
20.0300 1096.0000 1.0000
20.0400 1153.0000 1.0000
20.0500 1075.0000 1.0000
20.0600 1104.0000 1.0000
20.0700 1083.0000 1.0000
20.0800 1066.0000 1.0000
20.0900 1123.0000 1.0000
20.1000 1124.0000 1.0000
20.1100 1138.0000 1.0000
20.1200 1096.0000 1.0000
20.1300 1133.0000 1.0000
20.1400 1091.0000 1.0000
20.1500 1095.0000 1.0000
20.1600 1147.0000 1.0000
20.1700 1127.0000 1.0000
20.1800 1127.0000 1.0000
20.1900 1090.0000 1.0000
20.2000 1097.0000 1.0000
20.2100 1099.0000 1.0000
20.2200 1103.0000 1.0000
20.2300 1120.0000 1.0000
20.2400 1172.0000 1.0000
20.2500 1114.0000 1.0000
20.2600 1124.0000 1.0000
20.2700 1152.0000 1.0000
20.2800 1139.0000 1.0000
20.2900 1102.0000 1.0000
20.3000 1137.0000 1.0000
20.3100 1147.0000 1.0000
20.3200 1175.0000 1.0000
20.3300 1067.0000 1.0000
20.3400 1095.0000 1.0000
20.3500 1133.0000 1.0000
20.3600 1109.0000 1.0000
20.3700 1145.0000 1.0000
20.3800 1127.0000 1.0000
20.3900 1118.0000 1.0000
20.4000 1133.0000 1.0000
20.4100 1126.0000 1.0000
20.4200 1155.0000 1.0000
20.4300 1086.0000 1.0000
20.4400 1090.0000 1.0000
20.4500 1133.0000 1.0000
20.4600 1115.0000 1.0000
20.4700 1143.0000 1.0000
20.4800 1105.0000 1.0000
20.4900 1156.0000 1.0000
20.5000 1099.0000 1.0000
20.5100 1127.0000 1.0000
20.5200 1058.0000 1.0000
20.5300 1075.0000 1.0000
20.5400 1089.0000 1.0000
20.5500 1157.0000 1.0000
20.5600 1082.0000 1.0000
20.5700 1087.0000 1.0000
20.5800 1124.0000 1.0000
20.5900 1110.0000 1.0000
20.6000 1101.0000 1.0000
20.6100 1171.0000 1.0000
20.6200 1112.0000 1.0000
20.6300 1082.0000 1.0000
20.6400 1091.0000 1.0000
20.6500 1102.0000 1.0000
20.6600 1066.0000 1.0000
20.6700 1081.0000 1.0000
20.6800 1127.0000 1.0000
20.6900 1145.0000 1.0000
20.7000 1122.0000 1.0000
20.7100 1109.0000 1.0000
20.7200 1097.0000 1.0000
20.7300 1084.0000 1.0000
20.7400 1133.0000 1.0000
20.7500 1127.0000 1.0000
20.7600 1113.0000 1.0000
20.7700 1103.0000 1.0000
20.7800 1102.0000 1.0000
20.7900 1106.0000 1.0000
20.8000 1139.0000 1.0000
20.8100 1087.0000 1.0000
20.8200 1092.0000 1.0000
20.8300 1156.0000 1.0000
20.8400 1077.0000 1.0000
20.8500 1079.0000 1.0000
20.8600 1068.0000 1.0000
20.8700 1054.0000 1.0000
20.8800 1124.0000 1.0000
20.8900 1142.0000 1.0000
20.9000 1099.0000 1.0000
20.9100 1127.0000 1.0000
20.9200 1118.0000 1.0000
20.9300 1113.0000 1.0000
20.9400 1136.0000 1.0000
20.9500 1093.0000 1.0000
20.9600 1079.0000 1.0000
20.9700 1113.0000 1.0000
20.9800 1080.0000 1.0000
20.9900 1087.0000 1.0000
21.0000 1124.0000 1.0000
21.0100 1067.0000 1.0000
21.0200 1091.0000 1.0000
21.0300 1072.0000 1.0000
21.0400 1134.0000 1.0000
21.0500 1080.0000 1.0000
21.0600 1113.0000 1.0000
21.0700 1129.0000 1.0000
21.0800 1068.0000 1.0000
21.0900 1067.0000 1.0000
21.1000 1144.0000 1.0000
21.1100 1099.0000 1.0000
21.1200 1088.0000 1.0000
21.1300 1037.0000 1.0000
21.1400 1067.0000 1.0000
21.1500 1075.0000 1.0000
21.1600 1119.0000 1.0000
21.1700 1137.0000 1.0000
21.1800 1112.0000 1.0000
21.1900 1096.0000 1.0000
21.2000 1040.0000 1.0000
21.2100 1080.0000 1.0000
21.2200 1091.0000 1.0000
21.2300 1062.0000 1.0000
21.2400 1114.0000 1.0000
21.2500 1140.0000 1.0000
21.2600 1074.0000 1.0000
21.2700 1122.0000 1.0000
21.2800 1081.0000 1.0000
21.2900 1093.0000 1.0000
21.3000 1094.0000 1.0000
21.3100 1115.0000 1.0000
21.3200 1098.0000 1.0000
21.3300 1072.0000 1.0000
21.3400 1087.0000 1.0000
21.3500 1136.0000 1.0000
21.3600 1065.0000 1.0000
21.3700 1129.0000 1.0000
21.3800 1084.0000 1.0000
21.3900 1081.0000 1.0000
21.4000 1090.0000 1.0000
21.4100 1038.0000 1.0000
21.4200 1030.0000 1.0000
21.4300 1102.0000 1.0000
21.4400 1062.0000 1.0000
21.4500 1050.0000 1.0000
21.4600 1011.0000 1.0000
21.4700 1089.0000 1.0000
21.4800 1102.0000 1.0000
21.4900 1069.0000 1.0000
21.5000 1052.0000 1.0000
21.5100 1061.0000 1.0000
21.5200 1113.0000 1.0000
21.5300 1100.0000 1.0000
21.5400 1116.0000 1.0000
21.5500 1174.0000 1.0000
21.5600 1060.0000 1.0000
21.5700 1115.0000 1.0000
21.5800 1103.0000 1.0000
21.5900 1109.0000 1.0000
21.6000 1058.0000 1.0000
21.6100 1035.0000 1.0000
21.6200 1084.0000 1.0000
21.6300 1110.0000 1.0000
21.6400 1098.0000 1.0000
21.6500 1107.0000 1.0000
21.6600 1149.0000 1.0000
21.6700 1022.0000 1.0000
21.6800 1035.0000 1.0000
21.6900 1034.0000 1.0000
21.7000 1089.0000 1.0000
21.7100 1090.0000 1.0000
21.7200 1091.0000 1.0000
21.7300 1111.0000 1.0000
21.7400 1076.0000 1.0000
21.7500 1056.0000 1.0000
21.7600 1086.0000 1.0000
21.7700 1049.0000 1.0000
21.7800 1074.0000 1.0000
21.7900 1088.0000 1.0000
21.8000 1053.0000 1.0000
21.8100 1090.0000 1.0000
21.8200 1050.0000 1.0000
21.8300 1059.0000 1.0000
21.8400 1092.0000 1.0000
21.8500 1088.0000 1.0000
21.8600 1077.0000 1.0000
21.8700 1138.0000 1.0000
21.8800 1068.0000 1.0000
21.8900 1043.0000 1.0000
21.9000 1042.0000 1.0000
21.9100 1073.0000 1.0000
21.9200 1132.0000 1.0000
21.9300 1112.0000 1.0000
21.9400 1143.0000 1.0000
21.9500 1087.0000 1.0000
21.9600 1074.0000 1.0000
21.9700 1029.0000 1.0000
21.9800 1041.0000 1.0000
21.9900 1100.0000 1.0000
22.0000 1114.0000 1.0000
22.0100 1075.0000 1.0000
22.0200 1079.0000 1.0000
22.0300 1040.0000 1.0000
22.0400 1079.0000 1.0000
22.0500 1041.0000 1.0000
22.0600 1066.0000 1.0000
22.0700 1059.0000 1.0000
22.0800 1052.0000 1.0000
22.0900 1079.0000 1.0000
22.1000 1112.0000 1.0000
22.1100 1014.0000 1.0000
22.1200 1073.0000 1.0000
22.1300 1097.0000 1.0000
22.1400 1142.0000 1.0000
22.1500 1119.0000 1.0000
22.1600 1104.0000 1.0000
22.1700 1104.0000 1.0000
22.1800 1056.0000 1.0000
22.1900 1047.0000 1.0000
22.2000 1069.0000 1.0000
22.2100 1105.0000 1.0000
22.2200 1109.0000 1.0000
22.2300 1072.0000 1.0000
22.2400 1039.0000 1.0000
22.2500 1028.0000 1.0000
22.2600 1082.0000 1.0000
22.2700 1098.0000 1.0000
22.2800 1080.0000 1.0000
22.2900 1106.0000 1.0000
22.3000 1031.0000 1.0000
22.3100 1054.0000 1.0000
22.3200 1062.0000 1.0000
22.3300 1061.0000 1.0000
22.3400 1080.0000 1.0000
22.3500 1090.0000 1.0000
22.3600 1090.0000 1.0000
22.3700 1038.0000 1.0000
22.3800 1059.0000 1.0000
22.3900 1050.0000 1.0000
22.4000 1080.0000 1.0000
22.4100 1056.0000 1.0000
22.4200 1087.0000 1.0000
22.4300 1087.0000 1.0000
22.4400 1056.0000 1.0000
22.4500 1063.0000 1.0000
22.4600 1083.0000 1.0000
22.4700 1090.0000 1.0000
22.4800 1078.0000 1.0000
22.4900 1104.0000 1.0000
22.5000 1033.0000 1.0000
22.5100 1096.0000 1.0000
22.5200 1061.0000 1.0000
22.5300 1047.0000 1.0000
22.5400 1051.0000 1.0000
22.5500 1125.0000 1.0000
22.5600 1063.0000 1.0000
22.5700 1035.0000 1.0000
22.5800 1027.0000 1.0000
22.5900 1014.0000 1.0000
22.6000 1081.0000 1.0000
22.6100 1096.0000 1.0000
22.6200 1038.0000 1.0000
22.6300 1100.0000 1.0000
22.6400 1052.0000 1.0000
22.6500 1065.0000 1.0000
22.6600 1104.0000 1.0000
22.6700 1033.0000 1.0000
22.6800 1047.0000 1.0000
22.6900 1051.0000 1.0000
22.7000 1060.0000 1.0000
22.7100 1053.0000 1.0000
22.7200 1063.0000 1.0000
22.7300 1055.0000 1.0000
22.7400 1045.0000 1.0000
22.7500 1069.0000 1.0000
22.7600 1067.0000 1.0000
22.7700 1057.0000 1.0000
22.7800 1085.0000 1.0000
22.7900 1082.0000 1.0000
22.8000 1012.0000 1.0000
22.8100 1032.0000 1.0000
22.8200 1089.0000 1.0000
22.8300 1051.0000 1.0000
22.8400 1102.0000 1.0000
22.8500 1060.0000 1.0000
22.8600 1063.0000 1.0000
22.8700 1071.0000 1.0000
22.8800 1071.0000 1.0000
22.8900 1094.0000 1.0000
22.9000 1079.0000 1.0000
22.9100 1063.0000 1.0000
22.9200 1117.0000 1.0000
22.9300 1084.0000 1.0000
22.9400 1102.0000 1.0000
22.9500 1064.0000 1.0000
22.9600 1009.0000 1.0000
22.9700 1066.0000 1.0000
22.9800 1043.0000 1.0000
22.9900 1063.0000 1.0000
23.0000 1127.0000 1.0000
23.0100 1099.0000 1.0000
23.0200 1089.0000 1.0000
23.0300 1043.0000 1.0000
23.0400 1092.0000 1.0000
23.0500 1049.0000 1.0000
23.0600 1014.0000 1.0000
23.0700 1050.0000 1.0000
23.0800 997.0000 1.0000
23.0900 1077.0000 1.0000
23.1000 1066.0000 1.0000
23.1100 1054.0000 1.0000
23.1200 1027.0000 1.0000
23.1300 997.0000 1.0000
23.1400 1037.0000 1.0000
23.1500 1101.0000 1.0000
23.1600 1061.0000 1.0000
23.1700 1018.0000 1.0000
23.1800 1073.0000 1.0000
23.1900 1058.0000 1.0000
23.2000 1018.0000 1.0000
23.2100 1085.0000 1.0000
23.2200 1052.0000 1.0000
23.2300 1066.0000 1.0000
23.2400 1045.0000 1.0000
23.2500 1044.0000 1.0000
23.2600 1053.0000 1.0000
23.2700 995.0000 1.0000
23.2800 1007.0000 1.0000
23.2900 1015.0000 1.0000
23.3000 1043.0000 1.0000
23.3100 1016.0000 1.0000
23.3200 1053.0000 1.0000
23.3300 1034.0000 1.0000
23.3400 1087.0000 1.0000
23.3500 1087.0000 1.0000
23.3600 1046.0000 1.0000
23.3700 1043.0000 1.0000
23.3800 1071.0000 1.0000
23.3900 1037.0000 1.0000
23.4000 1075.0000 1.0000
23.4100 1015.0000 1.0000
23.4200 1016.0000 1.0000
23.4300 1079.0000 1.0000
23.4400 1129.0000 1.0000
23.4500 1055.0000 1.0000
23.4600 1001.0000 1.0000
23.4700 1026.0000 1.0000
23.4800 995.0000 1.0000
23.4900 998.0000 1.0000
23.5000 1031.0000 1.0000
23.5100 1056.0000 1.0000
23.5200 1074.0000 1.0000
23.5300 1062.0000 1.0000
23.5400 1066.0000 1.0000
23.5500 1092.0000 1.0000
23.5600 1030.0000 1.0000
23.5700 1006.0000 1.0000
23.5800 1030.0000 1.0000
23.5900 1042.0000 1.0000
23.6000 1021.0000 1.0000
23.6100 1019.0000 1.0000
23.6200 1028.0000 1.0000
23.6300 1023.0000 1.0000
23.6400 1046.0000 1.0000
23.6500 992.0000 1.0000
23.6600 1030.0000 1.0000
23.6700 1013.0000 1.0000
23.6800 1012.0000 1.0000
23.6900 1115.0000 1.0000
23.7000 1042.0000 1.0000
23.7100 1037.0000 1.0000
23.7200 1023.0000 1.0000
23.7300 1051.0000 1.0000
23.7400 1074.0000 1.0000
23.7500 1025.0000 1.0000
23.7600 1075.0000 1.0000
23.7700 1051.0000 1.0000
23.7800 1024.0000 1.0000
23.7900 1045.0000 1.0000
23.8000 1055.0000 1.0000
23.8100 1055.0000 1.0000
23.8200 1023.0000 1.0000
23.8300 1036.0000 1.0000
23.8400 1090.0000 1.0000
23.8500 1061.0000 1.0000
23.8600 1100.0000 1.0000
23.8700 1071.0000 1.0000
23.8800 1095.0000 1.0000
23.8900 1013.0000 1.0000
23.9000 1076.0000 1.0000
23.9100 1060.0000 1.0000
23.9200 1042.0000 1.0000
23.9300 1111.0000 1.0000
23.9400 1064.0000 1.0000
23.9500 1124.0000 1.0000
23.9600 1132.0000 1.0000
23.9700 1099.0000 1.0000
23.9800 1112.0000 1.0000
23.9900 1084.0000 1.0000
24.0000 1134.0000 1.0000
24.0100 1117.0000 1.0000
24.0200 1151.0000 1.0000
24.0300 1128.0000 1.0000
24.0400 1127.0000 1.0000
24.0500 1149.0000 1.0000
24.0600 1089.0000 1.0000
24.0700 1154.0000 1.0000
24.0800 1152.0000 1.0000
24.0900 1198.0000 1.0000
24.1000 1187.0000 1.0000
24.1100 1168.0000 1.0000
24.1200 1124.0000 1.0000
24.1300 1166.0000 1.0000
24.1400 1183.0000 1.0000
24.1500 1132.0000 1.0000
24.1600 1150.0000 1.0000
24.1700 1099.0000 1.0000
24.1800 1103.0000 1.0000
24.1900 1111.0000 1.0000
24.2000 1027.0000 1.0000
24.2100 1071.0000 1.0000
24.2200 1074.0000 1.0000
24.2300 1081.0000 1.0000
24.2400 1049.0000 1.0000
24.2500 1089.0000 1.0000
24.2600 1103.0000 1.0000
24.2700 1080.0000 1.0000
24.2800 1052.0000 1.0000
24.2900 1023.0000 1.0000
24.3000 1040.0000 1.0000
24.3100 1007.0000 1.0000
24.3200 1064.0000 1.0000
24.3300 1057.0000 1.0000
24.3400 1049.0000 1.0000
24.3500 1069.0000 1.0000
24.3600 1031.0000 1.0000
24.3700 1064.0000 1.0000
24.3800 1066.0000 1.0000
24.3900 1070.0000 1.0000
24.4000 1007.0000 1.0000
24.4100 1055.0000 1.0000
24.4200 1061.0000 1.0000
24.4300 1044.0000 1.0000
24.4400 1008.0000 1.0000
24.4500 1013.0000 1.0000
24.4600 988.0000 1.0000
24.4700 1039.0000 1.0000
24.4800 1035.0000 1.0000
24.4900 1003.0000 1.0000
24.5000 994.0000 1.0000
24.5100 1058.0000 1.0000
24.5200 1053.0000 1.0000
24.5300 1041.0000 1.0000
24.5400 1012.0000 1.0000
24.5500 983.0000 1.0000
24.5600 990.0000 1.0000
24.5700 1038.0000 1.0000
24.5800 1035.0000 1.0000
24.5900 986.0000 1.0000
24.6000 1050.0000 1.0000
24.6100 988.0000 1.0000
24.6200 1078.0000 1.0000
24.6300 1021.0000 1.0000
24.6400 1022.0000 1.0000
24.6500 1000.0000 1.0000
24.6600 993.0000 1.0000
24.6700 1016.0000 1.0000
24.6800 1011.0000 1.0000
24.6900 977.0000 1.0000
24.7000 1028.0000 1.0000
24.7100 1011.0000 1.0000
24.7200 1025.0000 1.0000
24.7300 1000.0000 1.0000
24.7400 1046.0000 1.0000
24.7500 965.0000 1.0000
24.7600 1001.0000 1.0000
24.7700 979.0000 1.0000
24.7800 1025.0000 1.0000
24.7900 1019.0000 1.0000
24.8000 979.0000 1.0000
24.8100 1037.0000 1.0000
24.8200 1003.0000 1.0000
24.8300 1029.0000 1.0000
24.8400 1008.0000 1.0000
24.8500 997.0000 1.0000
24.8600 934.0000 1.0000
24.8700 988.0000 1.0000
24.8800 990.0000 1.0000
24.8900 988.0000 1.0000
24.9000 1058.0000 1.0000
24.9100 1035.0000 1.0000
24.9200 1067.0000 1.0000
24.9300 1001.0000 1.0000
24.9400 994.0000 1.0000
24.9500 1043.0000 1.0000
24.9600 999.0000 1.0000
24.9700 988.0000 1.0000
24.9800 1039.0000 1.0000
24.9900 967.0000 1.0000
25.0000 974.0000 1.0000
25.0100 964.0000 1.0000
25.0200 983.0000 1.0000
25.0300 1035.0000 1.0000
25.0400 1039.0000 1.0000
25.0500 1039.0000 1.0000
25.0600 983.0000 1.0000
25.0700 985.0000 1.0000
25.0800 966.0000 1.0000
25.0900 967.0000 1.0000
25.1000 1009.0000 1.0000
25.1100 1027.0000 1.0000
25.1200 993.0000 1.0000
25.1300 1061.0000 1.0000
25.1400 998.0000 1.0000
25.1500 1027.0000 1.0000
25.1600 1005.0000 1.0000
25.1700 973.0000 1.0000
25.1800 998.0000 1.0000
25.1900 977.0000 1.0000
25.2000 989.0000 1.0000
25.2100 1006.0000 1.0000
25.2200 994.0000 1.0000
25.2300 1011.0000 1.0000
25.2400 997.0000 1.0000
25.2500 979.0000 1.0000
25.2600 1008.0000 1.0000
25.2700 1000.0000 1.0000
25.2800 987.0000 1.0000
25.2900 1062.0000 1.0000
25.3000 1007.0000 1.0000
25.3100 1033.0000 1.0000
25.3200 984.0000 1.0000
25.3300 1015.0000 1.0000
25.3400 1012.0000 1.0000
25.3500 963.0000 1.0000
25.3600 1019.0000 1.0000
25.3700 988.0000 1.0000
25.3800 974.0000 1.0000
25.3900 1029.0000 1.0000
25.4000 1006.0000 1.0000
25.4100 920.0000 1.0000
25.4200 974.0000 1.0000
25.4300 965.0000 1.0000
25.4400 955.0000 1.0000
25.4500 964.0000 1.0000
25.4600 984.0000 1.0000
25.4700 1015.0000 1.0000
25.4800 1056.0000 1.0000
25.4900 1039.0000 1.0000
25.5000 1028.0000 1.0000
25.5100 1025.0000 1.0000
25.5200 994.0000 1.0000
25.5300 1004.0000 1.0000
25.5400 1002.0000 1.0000
25.5500 1021.0000 1.0000
25.5600 1009.0000 1.0000
25.5700 1040.0000 1.0000
25.5800 994.0000 1.0000
25.5900 997.0000 1.0000
25.6000 992.0000 1.0000
25.6100 1000.0000 1.0000
25.6200 1052.0000 1.0000
25.6300 1008.0000 1.0000
25.6400 970.0000 1.0000
25.6500 1013.0000 1.0000
25.6600 966.0000 1.0000
25.6700 1024.0000 1.0000
25.6800 966.0000 1.0000
25.6900 1027.0000 1.0000
25.7000 1046.0000 1.0000
25.7100 1039.0000 1.0000
25.7200 1015.0000 1.0000
25.7300 994.0000 1.0000
25.7400 994.0000 1.0000
25.7500 1010.0000 1.0000
25.7600 1030.0000 1.0000
25.7700 1012.0000 1.0000
25.7800 989.0000 1.0000
25.7900 984.0000 1.0000
25.8000 950.0000 1.0000
25.8100 978.0000 1.0000
25.8200 965.0000 1.0000
25.8300 1009.0000 1.0000
25.8400 977.0000 1.0000
25.8500 996.0000 1.0000
25.8600 976.0000 1.0000
25.8700 1015.0000 1.0000
25.8800 1026.0000 1.0000
25.8900 1060.0000 1.0000
25.9000 1091.0000 1.0000
25.9100 1003.0000 1.0000
25.9200 1013.0000 1.0000
25.9300 997.0000 1.0000
25.9400 1018.0000 1.0000
25.9500 1047.0000 1.0000
25.9600 992.0000 1.0000
25.9700 1044.0000 1.0000
25.9800 1061.0000 1.0000
25.9900 1041.0000 1.0000
26.0000 1058.0000 1.0000
26.0100 1060.0000 1.0000
26.0200 1086.0000 1.0000
26.0300 1058.0000 1.0000
26.0400 1072.0000 1.0000
26.0500 1035.0000 1.0000
26.0600 1049.0000 1.0000
26.0700 1087.0000 1.0000
26.0800 1074.0000 1.0000
26.0900 1111.0000 1.0000
26.1000 1112.0000 1.0000
26.1100 1119.0000 1.0000
26.1200 1113.0000 1.0000
26.1300 1114.0000 1.0000
26.1400 1144.0000 1.0000
26.1500 1173.0000 1.0000
26.1600 1150.0000 1.0000
26.1700 1244.0000 1.0000
26.1800 1232.0000 1.0000
26.1900 1228.0000 1.0000
26.2000 1281.0000 1.0000
26.2100 1317.0000 1.0000
26.2200 1338.0000 1.0000
26.2300 1341.0000 1.0000
26.2400 1379.0000 1.0000
26.2500 1485.0000 1.0000
26.2600 1503.0000 1.0000
26.2700 1514.0000 1.0000
26.2800 1552.0000 1.0000
26.2900 1599.0000 1.0000
26.3000 1692.0000 1.0000
26.3100 1709.0000 1.0000
26.3200 1860.0000 1.0000
26.3300 1913.0000 1.0000
26.3400 1996.0000 1.0000
26.3500 2106.0000 1.0000
26.3600 2287.0000 1.0000
26.3700 2274.0000 1.0000
26.3800 2440.0000 1.0000
26.3900 2546.0000 1.0000
26.4000 2686.0000 1.0000
26.4100 2757.0000 1.0000
26.4200 2900.0000 1.0000
26.4300 2925.0000 1.0000
26.4400 2826.0000 1.0000
26.4500 2911.0000 1.0000
26.4600 2943.0000 1.0000
26.4700 2815.0000 1.0000
26.4800 2739.0000 1.0000
26.4900 2669.0000 1.0000
26.5000 2581.0000 1.0000
26.5100 2510.0000 1.0000
26.5200 2366.0000 1.0000
26.5300 2243.0000 1.0000
26.5400 2062.0000 1.0000
26.5500 2058.0000 1.0000
26.5600 1893.0000 1.0000
26.5700 1788.0000 1.0000
26.5800 1753.0000 1.0000
26.5900 1689.0000 1.0000
26.6000 1626.0000 1.0000
26.6100 1563.0000 1.0000
26.6200 1559.0000 1.0000
26.6300 1441.0000 1.0000
26.6400 1403.0000 1.0000
26.6500 1362.0000 1.0000
26.6600 1326.0000 1.0000
26.6700 1331.0000 1.0000
26.6800 1301.0000 1.0000
26.6900 1206.0000 1.0000
26.7000 1239.0000 1.0000
26.7100 1203.0000 1.0000
26.7200 1171.0000 1.0000
26.7300 1158.0000 1.0000
26.7400 1127.0000 1.0000
26.7500 1121.0000 1.0000
26.7600 1089.0000 1.0000
26.7700 1097.0000 1.0000
26.7800 1074.0000 1.0000
26.7900 1054.0000 1.0000
26.8000 1069.0000 1.0000
26.8100 1036.0000 1.0000
26.8200 1116.0000 1.0000
26.8300 1041.0000 1.0000
26.8400 1050.0000 1.0000
26.8500 1046.0000 1.0000
26.8600 1032.0000 1.0000
26.8700 960.0000 1.0000
26.8800 1016.0000 1.0000
26.8900 1032.0000 1.0000
26.9000 1027.0000 1.0000
26.9100 1032.0000 1.0000
26.9200 1005.0000 1.0000
26.9300 979.0000 1.0000
26.9400 980.0000 1.0000
26.9500 1004.0000 1.0000
26.9600 987.0000 1.0000
26.9700 994.0000 1.0000
26.9800 974.0000 1.0000
26.9900 944.0000 1.0000
27.0000 1002.0000 1.0000
27.0100 922.0000 1.0000
27.0200 944.0000 1.0000
27.0300 953.0000 1.0000
27.0400 978.0000 1.0000
27.0500 1005.0000 1.0000
27.0600 978.0000 1.0000
27.0700 941.0000 1.0000
27.0800 965.0000 1.0000
27.0900 959.0000 1.0000
27.1000 938.0000 1.0000
27.1100 965.0000 1.0000
27.1200 954.0000 1.0000
27.1300 953.0000 1.0000
27.1400 927.0000 1.0000
27.1500 960.0000 1.0000
27.1600 979.0000 1.0000
27.1700 910.0000 1.0000
27.1800 917.0000 1.0000
27.1900 907.0000 1.0000
27.2000 930.0000 1.0000
27.2100 961.0000 1.0000
27.2200 950.0000 1.0000
27.2300 934.0000 1.0000
27.2400 936.0000 1.0000
27.2500 908.0000 1.0000
27.2600 948.0000 1.0000
27.2700 920.0000 1.0000
27.2800 956.0000 1.0000
27.2900 938.0000 1.0000
27.3000 944.0000 1.0000
27.3100 930.0000 1.0000
27.3200 906.0000 1.0000
27.3300 944.0000 1.0000
27.3400 886.0000 1.0000
27.3500 906.0000 1.0000
27.3600 979.0000 1.0000
27.3700 892.0000 1.0000
27.3800 915.0000 1.0000
27.3900 878.0000 1.0000
27.4000 964.0000 1.0000
27.4100 931.0000 1.0000
27.4200 872.0000 1.0000
27.4300 880.0000 1.0000
27.4400 921.0000 1.0000
27.4500 866.0000 1.0000
27.4600 919.0000 1.0000
27.4700 900.0000 1.0000
27.4800 868.0000 1.0000
27.4900 923.0000 1.0000
27.5000 943.0000 1.0000
27.5100 877.0000 1.0000
27.5200 841.0000 1.0000
27.5300 930.0000 1.0000
27.5400 927.0000 1.0000
27.5500 923.0000 1.0000
27.5600 914.0000 1.0000
27.5700 905.0000 1.0000
27.5800 921.0000 1.0000
27.5900 911.0000 1.0000
27.6000 898.0000 1.0000
27.6100 916.0000 1.0000
27.6200 879.0000 1.0000
27.6300 886.0000 1.0000
27.6400 856.0000 1.0000
27.6500 853.0000 1.0000
27.6600 848.0000 1.0000
27.6700 886.0000 1.0000
27.6800 928.0000 1.0000
27.6900 930.0000 1.0000
27.7000 884.0000 1.0000
27.7100 901.0000 1.0000
27.7200 907.0000 1.0000
27.7300 885.0000 1.0000
27.7400 921.0000 1.0000
27.7500 843.0000 1.0000
27.7600 849.0000 1.0000
27.7700 898.0000 1.0000
27.7800 875.0000 1.0000
27.7900 887.0000 1.0000
27.8000 880.0000 1.0000
27.8100 900.0000 1.0000
27.8200 911.0000 1.0000
27.8300 907.0000 1.0000
27.8400 899.0000 1.0000
27.8500 866.0000 1.0000
27.8600 917.0000 1.0000
27.8700 920.0000 1.0000
27.8800 877.0000 1.0000
27.8900 849.0000 1.0000
27.9000 891.0000 1.0000
27.9100 895.0000 1.0000
27.9200 840.0000 1.0000
27.9300 869.0000 1.0000
27.9400 887.0000 1.0000
27.9500 889.0000 1.0000
27.9600 847.0000 1.0000
27.9700 852.0000 1.0000
27.9800 847.0000 1.0000
27.9900 908.0000 1.0000
28.0000 890.0000 1.0000
28.0100 904.0000 1.0000
28.0200 844.0000 1.0000
28.0300 874.0000 1.0000
28.0400 944.0000 1.0000
28.0500 887.0000 1.0000
28.0600 864.0000 1.0000
28.0700 861.0000 1.0000
28.0800 898.0000 1.0000
28.0900 813.0000 1.0000
28.1000 927.0000 1.0000
28.1100 890.0000 1.0000
28.1200 884.0000 1.0000
28.1300 858.0000 1.0000
28.1400 882.0000 1.0000
28.1500 881.0000 1.0000
28.1600 871.0000 1.0000
28.1700 851.0000 1.0000
28.1800 882.0000 1.0000
28.1900 907.0000 1.0000
28.2000 890.0000 1.0000
28.2100 843.0000 1.0000
28.2200 829.0000 1.0000
28.2300 875.0000 1.0000
28.2400 916.0000 1.0000
28.2500 852.0000 1.0000
28.2600 889.0000 1.0000
28.2700 879.0000 1.0000
28.2800 896.0000 1.0000
28.2900 859.0000 1.0000
28.3000 820.0000 1.0000
28.3100 880.0000 1.0000
28.3200 877.0000 1.0000
28.3300 887.0000 1.0000
28.3400 863.0000 1.0000
28.3500 885.0000 1.0000
28.3600 852.0000 1.0000
28.3700 861.0000 1.0000
28.3800 882.0000 1.0000
28.3900 830.0000 1.0000
28.4000 893.0000 1.0000
28.4100 928.0000 1.0000
28.4200 899.0000 1.0000
28.4300 881.0000 1.0000
28.4400 865.0000 1.0000
28.4500 866.0000 1.0000
28.4600 883.0000 1.0000
28.4700 900.0000 1.0000
28.4800 841.0000 1.0000
28.4900 903.0000 1.0000
28.5000 890.0000 1.0000
28.5100 890.0000 1.0000
28.5200 871.0000 1.0000
28.5300 846.0000 1.0000
28.5400 872.0000 1.0000
28.5500 898.0000 1.0000
28.5600 842.0000 1.0000
28.5700 865.0000 1.0000
28.5800 911.0000 1.0000
28.5900 864.0000 1.0000
28.6000 846.0000 1.0000
28.6100 898.0000 1.0000
28.6200 872.0000 1.0000
28.6300 890.0000 1.0000
28.6400 867.0000 1.0000
28.6500 860.0000 1.0000
28.6600 859.0000 1.0000
28.6700 862.0000 1.0000
28.6800 886.0000 1.0000
28.6900 853.0000 1.0000
28.7000 882.0000 1.0000
28.7100 825.0000 1.0000
28.7200 877.0000 1.0000
28.7300 859.0000 1.0000
28.7400 850.0000 1.0000
28.7500 863.0000 1.0000
28.7600 860.0000 1.0000
28.7700 808.0000 1.0000
28.7800 883.0000 1.0000
28.7900 878.0000 1.0000
28.8000 849.0000 1.0000
28.8100 840.0000 1.0000
28.8200 873.0000 1.0000
28.8300 849.0000 1.0000
28.8400 850.0000 1.0000
28.8500 889.0000 1.0000
28.8600 844.0000 1.0000
28.8700 839.0000 1.0000
28.8800 799.0000 1.0000
28.8900 857.0000 1.0000
28.9000 828.0000 1.0000
28.9100 892.0000 1.0000
28.9200 886.0000 1.0000
28.9300 832.0000 1.0000
28.9400 874.0000 1.0000
28.9500 839.0000 1.0000
28.9600 820.0000 1.0000
28.9700 848.0000 1.0000
28.9800 823.0000 1.0000
28.9900 825.0000 1.0000
29.0000 850.0000 1.0000
29.0100 832.0000 1.0000
29.0200 833.0000 1.0000
29.0300 837.0000 1.0000
29.0400 864.0000 1.0000
29.0500 838.0000 1.0000
29.0600 847.0000 1.0000
29.0700 850.0000 1.0000
29.0800 788.0000 1.0000
29.0900 831.0000 1.0000
29.1000 859.0000 1.0000
29.1100 831.0000 1.0000
29.1200 808.0000 1.0000
29.1300 816.0000 1.0000
29.1400 785.0000 1.0000
29.1500 809.0000 1.0000
29.1600 867.0000 1.0000
29.1700 876.0000 1.0000
29.1800 814.0000 1.0000
29.1900 837.0000 1.0000
29.2000 812.0000 1.0000
29.2100 823.0000 1.0000
29.2200 861.0000 1.0000
29.2300 828.0000 1.0000
29.2400 824.0000 1.0000
29.2500 803.0000 1.0000
29.2600 836.0000 1.0000
29.2700 818.0000 1.0000
29.2800 811.0000 1.0000
29.2900 806.0000 1.0000
29.3000 757.0000 1.0000
29.3100 803.0000 1.0000
29.3200 807.0000 1.0000
29.3300 806.0000 1.0000
29.3400 812.0000 1.0000
29.3500 829.0000 1.0000
29.3600 789.0000 1.0000
29.3700 777.0000 1.0000
29.3800 799.0000 1.0000
29.3900 819.0000 1.0000
29.4000 832.0000 1.0000
29.4100 856.0000 1.0000
29.4200 808.0000 1.0000
29.4300 805.0000 1.0000
29.4400 778.0000 1.0000
29.4500 823.0000 1.0000
29.4600 791.0000 1.0000
29.4700 832.0000 1.0000
29.4800 790.0000 1.0000
29.4900 815.0000 1.0000
29.5000 813.0000 1.0000
29.5100 796.0000 1.0000
29.5200 791.0000 1.0000
29.5300 806.0000 1.0000
29.5400 756.0000 1.0000
29.5500 769.0000 1.0000
29.5600 805.0000 1.0000
29.5700 811.0000 1.0000
29.5800 781.0000 1.0000
29.5900 823.0000 1.0000
29.6000 812.0000 1.0000
29.6100 782.0000 1.0000
29.6200 793.0000 1.0000
29.6300 801.0000 1.0000
29.6400 757.0000 1.0000
29.6500 805.0000 1.0000
29.6600 764.0000 1.0000
29.6700 774.0000 1.0000
29.6800 764.0000 1.0000
29.6900 777.0000 1.0000
29.7000 792.0000 1.0000
29.7100 768.0000 1.0000
29.7200 784.0000 1.0000
29.7300 764.0000 1.0000
29.7400 830.0000 1.0000
29.7500 771.0000 1.0000
29.7600 783.0000 1.0000
29.7700 734.0000 1.0000
29.7800 788.0000 1.0000
29.7900 747.0000 1.0000
29.8000 775.0000 1.0000
29.8100 790.0000 1.0000
29.8200 778.0000 1.0000
29.8300 753.0000 1.0000
29.8400 802.0000 1.0000
29.8500 770.0000 1.0000
29.8600 754.0000 1.0000
29.8700 756.0000 1.0000
29.8800 735.0000 1.0000
29.8900 824.0000 1.0000
29.9000 740.0000 1.0000
29.9100 724.0000 1.0000
29.9200 720.0000 1.0000
29.9300 746.0000 1.0000
29.9400 766.0000 1.0000
29.9500 750.0000 1.0000
29.9600 733.0000 1.0000
29.9700 721.0000 1.0000
29.9800 763.0000 1.0000
29.9900 727.0000 1.0000
30.0000 787.0000 1.0000
30.0100 772.0000 1.0000
30.0200 786.0000 1.0000
30.0300 757.0000 1.0000
30.0400 727.0000 1.0000
30.0500 826.0000 1.0000
30.0600 791.0000 1.0000
30.0700 776.0000 1.0000
30.0800 767.0000 1.0000
30.0900 771.0000 1.0000
30.1000 770.0000 1.0000
30.1100 802.0000 1.0000
30.1200 793.0000 1.0000
30.1300 752.0000 1.0000
30.1400 757.0000 1.0000
30.1500 772.0000 1.0000
30.1600 745.0000 1.0000
30.1700 723.0000 1.0000
30.1800 724.0000 1.0000
30.1900 749.0000 1.0000
30.2000 753.0000 1.0000
30.2100 718.0000 1.0000
30.2200 746.0000 1.0000
30.2300 759.0000 1.0000
30.2400 733.0000 1.0000
30.2500 763.0000 1.0000
30.2600 757.0000 1.0000
30.2700 786.0000 1.0000
30.2800 797.0000 1.0000
30.2900 781.0000 1.0000
30.3000 747.0000 1.0000
30.3100 777.0000 1.0000
30.3200 735.0000 1.0000
30.3300 738.0000 1.0000
30.3400 723.0000 1.0000
30.3500 730.0000 1.0000
30.3600 764.0000 1.0000
30.3700 770.0000 1.0000
30.3800 728.0000 1.0000
30.3900 736.0000 1.0000
30.4000 721.0000 1.0000
30.4100 728.0000 1.0000
30.4200 741.0000 1.0000
30.4300 765.0000 1.0000
30.4400 779.0000 1.0000
30.4500 773.0000 1.0000
30.4600 769.0000 1.0000
30.4700 726.0000 1.0000
30.4800 744.0000 1.0000
30.4900 704.0000 1.0000
30.5000 722.0000 1.0000
30.5100 712.0000 1.0000
30.5200 714.0000 1.0000
30.5300 730.0000 1.0000
30.5400 720.0000 1.0000
30.5500 686.0000 1.0000
30.5600 715.0000 1.0000
30.5700 724.0000 1.0000
30.5800 764.0000 1.0000
30.5900 731.0000 1.0000
30.6000 718.0000 1.0000
30.6100 757.0000 1.0000
30.6200 744.0000 1.0000
30.6300 756.0000 1.0000
30.6400 750.0000 1.0000
30.6500 739.0000 1.0000
30.6600 743.0000 1.0000
30.6700 734.0000 1.0000
30.6800 687.0000 1.0000
30.6900 727.0000 1.0000
30.7000 695.0000 1.0000
30.7100 693.0000 1.0000
30.7200 682.0000 1.0000
30.7300 665.0000 1.0000
30.7400 717.0000 1.0000
30.7500 721.0000 1.0000
30.7600 686.0000 1.0000
30.7700 717.0000 1.0000
30.7800 681.0000 1.0000
30.7900 725.0000 1.0000
30.8000 728.0000 1.0000
30.8100 727.0000 1.0000
30.8200 719.0000 1.0000
30.8300 703.0000 1.0000
30.8400 684.0000 1.0000
30.8500 700.0000 1.0000
30.8600 720.0000 1.0000
30.8700 725.0000 1.0000
30.8800 724.0000 1.0000
30.8900 676.0000 1.0000
30.9000 708.0000 1.0000
30.9100 686.0000 1.0000
30.9200 707.0000 1.0000
30.9300 689.0000 1.0000
30.9400 698.0000 1.0000
30.9500 727.0000 1.0000
30.9600 707.0000 1.0000
30.9700 732.0000 1.0000
30.9800 718.0000 1.0000
30.9900 683.0000 1.0000
31.0000 685.0000 1.0000
31.0100 694.0000 1.0000
31.0200 733.0000 1.0000
31.0300 694.0000 1.0000
31.0400 679.0000 1.0000
31.0500 711.0000 1.0000
31.0600 717.0000 1.0000
31.0700 669.0000 1.0000
31.0800 690.0000 1.0000
31.0900 705.0000 1.0000
31.1000 690.0000 1.0000
31.1100 710.0000 1.0000
31.1200 705.0000 1.0000
31.1300 721.0000 1.0000
31.1400 700.0000 1.0000
31.1500 699.0000 1.0000
31.1600 743.0000 1.0000
31.1700 711.0000 1.0000
31.1800 719.0000 1.0000
31.1900 717.0000 1.0000
31.2000 681.0000 1.0000
31.2100 705.0000 1.0000
31.2200 689.0000 1.0000
31.2300 662.0000 1.0000
31.2400 727.0000 1.0000
31.2500 697.0000 1.0000
31.2600 685.0000 1.0000
31.2700 663.0000 1.0000
31.2800 657.0000 1.0000
31.2900 717.0000 1.0000
31.3000 704.0000 1.0000
31.3100 666.0000 1.0000
31.3200 668.0000 1.0000
31.3300 671.0000 1.0000
31.3400 659.0000 1.0000
31.3500 667.0000 1.0000
31.3600 674.0000 1.0000
31.3700 661.0000 1.0000
31.3800 684.0000 1.0000
31.3900 672.0000 1.0000
31.4000 626.0000 1.0000
31.4100 705.0000 1.0000
31.4200 744.0000 1.0000
31.4300 716.0000 1.0000
31.4400 696.0000 1.0000
31.4500 697.0000 1.0000
31.4600 687.0000 1.0000
31.4700 680.0000 1.0000
31.4800 669.0000 1.0000
31.4900 701.0000 1.0000
31.5000 725.0000 1.0000
31.5100 684.0000 1.0000
31.5200 695.0000 1.0000
31.5300 673.0000 1.0000
31.5400 684.0000 1.0000
31.5500 670.0000 1.0000
31.5600 704.0000 1.0000
31.5700 697.0000 1.0000
31.5800 690.0000 1.0000
31.5900 687.0000 1.0000
31.6000 701.0000 1.0000
31.6100 694.0000 1.0000
31.6200 682.0000 1.0000
31.6300 642.0000 1.0000
31.6400 691.0000 1.0000
31.6500 684.0000 1.0000
31.6600 689.0000 1.0000
31.6700 639.0000 1.0000
31.6800 674.0000 1.0000
31.6900 697.0000 1.0000
31.7000 648.0000 1.0000
31.7100 660.0000 1.0000
31.7200 680.0000 1.0000
31.7300 671.0000 1.0000
31.7400 694.0000 1.0000
31.7500 633.0000 1.0000
31.7600 649.0000 1.0000
31.7700 726.0000 1.0000
31.7800 680.0000 1.0000
31.7900 673.0000 1.0000
31.8000 635.0000 1.0000
31.8100 618.0000 1.0000
31.8200 663.0000 1.0000
31.8300 682.0000 1.0000
31.8400 692.0000 1.0000
31.8500 642.0000 1.0000
31.8600 660.0000 1.0000
31.8700 675.0000 1.0000
31.8800 645.0000 1.0000
31.8900 623.0000 1.0000
31.9000 649.0000 1.0000
31.9100 671.0000 1.0000
31.9200 683.0000 1.0000
31.9300 616.0000 1.0000
31.9400 638.0000 1.0000
31.9500 674.0000 1.0000
31.9600 680.0000 1.0000
31.9700 606.0000 1.0000
31.9800 665.0000 1.0000
31.9900 647.0000 1.0000
32.0000 659.0000 1.0000
32.0100 673.0000 1.0000
32.0200 675.0000 1.0000
32.0300 680.0000 1.0000
32.0400 656.0000 1.0000
32.0500 663.0000 1.0000
32.0600 691.0000 1.0000
32.0700 677.0000 1.0000
32.0800 634.0000 1.0000
32.0900 654.0000 1.0000
32.1000 651.0000 1.0000
32.1100 651.0000 1.0000
32.1200 669.0000 1.0000
32.1300 655.0000 1.0000
32.1400 673.0000 1.0000
32.1500 647.0000 1.0000
32.1600 698.0000 1.0000
32.1700 688.0000 1.0000
32.1800 674.0000 1.0000
32.1900 658.0000 1.0000
32.2000 657.0000 1.0000
32.2100 657.0000 1.0000
32.2200 674.0000 1.0000
32.2300 686.0000 1.0000
32.2400 685.0000 1.0000
32.2500 650.0000 1.0000
32.2600 623.0000 1.0000
32.2700 657.0000 1.0000
32.2800 668.0000 1.0000
32.2900 679.0000 1.0000
32.3000 714.0000 1.0000
32.3100 643.0000 1.0000
32.3200 646.0000 1.0000
32.3300 671.0000 1.0000
32.3400 705.0000 1.0000
32.3500 642.0000 1.0000
32.3600 713.0000 1.0000
32.3700 710.0000 1.0000
32.3800 642.0000 1.0000
32.3900 668.0000 1.0000
32.4000 686.0000 1.0000
32.4100 640.0000 1.0000
32.4200 641.0000 1.0000
32.4300 705.0000 1.0000
32.4400 657.0000 1.0000
32.4500 659.0000 1.0000
32.4600 670.0000 1.0000
32.4700 684.0000 1.0000
32.4800 654.0000 1.0000
32.4900 654.0000 1.0000
32.5000 641.0000 1.0000
32.5100 642.0000 1.0000
32.5200 677.0000 1.0000
32.5300 679.0000 1.0000
32.5400 658.0000 1.0000
32.5500 714.0000 1.0000
32.5600 719.0000 1.0000
32.5700 667.0000 1.0000
32.5800 641.0000 1.0000
32.5900 683.0000 1.0000
32.6000 683.0000 1.0000
32.6100 680.0000 1.0000
32.6200 688.0000 1.0000
32.6300 654.0000 1.0000
32.6400 643.0000 1.0000
32.6500 646.0000 1.0000
32.6600 651.0000 1.0000
32.6700 684.0000 1.0000
32.6800 659.0000 1.0000
32.6900 656.0000 1.0000
32.7000 689.0000 1.0000
32.7100 637.0000 1.0000
32.7200 667.0000 1.0000
32.7300 676.0000 1.0000
32.7400 669.0000 1.0000
32.7500 650.0000 1.0000
32.7600 685.0000 1.0000
32.7700 709.0000 1.0000
32.7800 655.0000 1.0000
32.7900 672.0000 1.0000
32.8000 701.0000 1.0000
32.8100 685.0000 1.0000
32.8200 720.0000 1.0000
32.8300 693.0000 1.0000
32.8400 682.0000 1.0000
32.8500 703.0000 1.0000
32.8600 689.0000 1.0000
32.8700 704.0000 1.0000
32.8800 673.0000 1.0000
32.8900 686.0000 1.0000
32.9000 681.0000 1.0000
32.9100 713.0000 1.0000
32.9200 694.0000 1.0000
32.9300 701.0000 1.0000
32.9400 730.0000 1.0000
32.9500 699.0000 1.0000
32.9600 727.0000 1.0000
32.9700 785.0000 1.0000
32.9800 795.0000 1.0000
32.9900 750.0000 1.0000
33.0000 833.0000 1.0000
33.0100 776.0000 1.0000
33.0200 828.0000 1.0000
33.0300 812.0000 1.0000
33.0400 843.0000 1.0000
33.0500 867.0000 1.0000
33.0600 863.0000 1.0000
33.0700 915.0000 1.0000
33.0800 877.0000 1.0000
33.0900 903.0000 1.0000
33.1000 884.0000 1.0000
33.1100 895.0000 1.0000
33.1200 873.0000 1.0000
33.1300 869.0000 1.0000
33.1400 907.0000 1.0000
33.1500 877.0000 1.0000
33.1600 816.0000 1.0000
33.1700 857.0000 1.0000
33.1800 823.0000 1.0000
33.1900 807.0000 1.0000
33.2000 811.0000 1.0000
33.2100 781.0000 1.0000
33.2200 789.0000 1.0000
33.2300 766.0000 1.0000
33.2400 760.0000 1.0000
33.2500 742.0000 1.0000
33.2600 738.0000 1.0000
33.2700 746.0000 1.0000
33.2800 769.0000 1.0000
33.2900 772.0000 1.0000
33.3000 753.0000 1.0000
33.3100 766.0000 1.0000
33.3200 725.0000 1.0000
33.3300 717.0000 1.0000
33.3400 773.0000 1.0000
33.3500 776.0000 1.0000
33.3600 760.0000 1.0000
33.3700 778.0000 1.0000
33.3800 775.0000 1.0000
33.3900 767.0000 1.0000
33.4000 761.0000 1.0000
33.4100 793.0000 1.0000
33.4200 817.0000 1.0000
33.4300 781.0000 1.0000
33.4400 801.0000 1.0000
33.4500 858.0000 1.0000
33.4600 857.0000 1.0000
33.4700 869.0000 1.0000
33.4800 880.0000 1.0000
33.4900 901.0000 1.0000
33.5000 872.0000 1.0000
33.5100 963.0000 1.0000
33.5200 981.0000 1.0000
33.5300 1001.0000 1.0000
33.5400 1064.0000 1.0000
33.5500 1083.0000 1.0000
33.5600 1066.0000 1.0000
33.5700 1113.0000 1.0000
33.5800 1196.0000 1.0000
33.5900 1253.0000 1.0000
33.6000 1330.0000 1.0000
33.6100 1313.0000 1.0000
33.6200 1314.0000 1.0000
33.6300 1378.0000 1.0000
33.6400 1346.0000 1.0000
33.6500 1460.0000 1.0000
33.6600 1397.0000 1.0000
33.6700 1440.0000 1.0000
33.6800 1368.0000 1.0000
33.6900 1382.0000 1.0000
33.7000 1292.0000 1.0000
33.7100 1360.0000 1.0000
33.7200 1282.0000 1.0000
33.7300 1211.0000 1.0000
33.7400 1244.0000 1.0000
33.7500 1159.0000 1.0000
33.7600 1149.0000 1.0000
33.7700 1083.0000 1.0000
33.7800 1031.0000 1.0000
33.7900 1016.0000 1.0000
33.8000 962.0000 1.0000
33.8100 958.0000 1.0000
33.8200 882.0000 1.0000
33.8300 900.0000 1.0000
33.8400 852.0000 1.0000
33.8500 873.0000 1.0000
33.8600 897.0000 1.0000
33.8700 812.0000 1.0000
33.8800 806.0000 1.0000
33.8900 829.0000 1.0000
33.9000 793.0000 1.0000
33.9100 716.0000 1.0000
33.9200 746.0000 1.0000
33.9300 760.0000 1.0000
33.9400 709.0000 1.0000
33.9500 747.0000 1.0000
33.9600 746.0000 1.0000
33.9700 759.0000 1.0000
33.9800 757.0000 1.0000
33.9900 717.0000 1.0000
34.0000 703.0000 1.0000
34.0100 669.0000 1.0000
34.0200 721.0000 1.0000
34.0300 719.0000 1.0000
34.0400 694.0000 1.0000
34.0500 709.0000 1.0000
34.0600 695.0000 1.0000
34.0700 701.0000 1.0000
34.0800 681.0000 1.0000
34.0900 715.0000 1.0000
34.1000 684.0000 1.0000
34.1100 629.0000 1.0000
34.1200 665.0000 1.0000
34.1300 650.0000 1.0000
34.1400 611.0000 1.0000
34.1500 668.0000 1.0000
34.1600 656.0000 1.0000
34.1700 666.0000 1.0000
34.1800 662.0000 1.0000
34.1900 640.0000 1.0000
34.2000 654.0000 1.0000
34.2100 646.0000 1.0000
34.2200 633.0000 1.0000
34.2300 657.0000 1.0000
34.2400 680.0000 1.0000
34.2500 710.0000 1.0000
34.2600 650.0000 1.0000
34.2700 631.0000 1.0000
34.2800 672.0000 1.0000
34.2900 637.0000 1.0000
34.3000 642.0000 1.0000
34.3100 630.0000 1.0000
34.3200 630.0000 1.0000
34.3300 606.0000 1.0000
34.3400 603.0000 1.0000
34.3500 645.0000 1.0000
34.3600 668.0000 1.0000
34.3700 617.0000 1.0000
34.3800 622.0000 1.0000
34.3900 611.0000 1.0000
34.4000 632.0000 1.0000
34.4100 571.0000 1.0000
34.4200 615.0000 1.0000
34.4300 662.0000 1.0000
34.4400 634.0000 1.0000
34.4500 655.0000 1.0000
34.4600 603.0000 1.0000
34.4700 583.0000 1.0000
34.4800 618.0000 1.0000
34.4900 607.0000 1.0000
34.5000 603.0000 1.0000
34.5100 616.0000 1.0000
34.5200 620.0000 1.0000
34.5300 592.0000 1.0000
34.5400 580.0000 1.0000
34.5500 624.0000 1.0000
34.5600 626.0000 1.0000
34.5700 601.0000 1.0000
34.5800 634.0000 1.0000
34.5900 641.0000 1.0000
34.6000 588.0000 1.0000
34.6100 584.0000 1.0000
34.6200 607.0000 1.0000
34.6300 616.0000 1.0000
34.6400 635.0000 1.0000
34.6500 603.0000 1.0000
34.6600 594.0000 1.0000
34.6700 641.0000 1.0000
34.6800 623.0000 1.0000
34.6900 627.0000 1.0000
34.7000 616.0000 1.0000
34.7100 596.0000 1.0000
34.7200 601.0000 1.0000
34.7300 613.0000 1.0000
34.7400 624.0000 1.0000
34.7500 622.0000 1.0000
34.7600 637.0000 1.0000
34.7700 628.0000 1.0000
34.7800 616.0000 1.0000
34.7900 612.0000 1.0000
34.8000 606.0000 1.0000
34.8100 618.0000 1.0000
34.8200 601.0000 1.0000
34.8300 612.0000 1.0000
34.8400 573.0000 1.0000
34.8500 636.0000 1.0000
34.8600 630.0000 1.0000
34.8700 621.0000 1.0000
34.8800 625.0000 1.0000
34.8900 620.0000 1.0000
34.9000 569.0000 1.0000
34.9100 598.0000 1.0000
34.9200 605.0000 1.0000
34.9300 606.0000 1.0000
34.9400 603.0000 1.0000
34.9500 579.0000 1.0000
34.9600 556.0000 1.0000
34.9700 601.0000 1.0000
34.9800 616.0000 1.0000
34.9900 593.0000 1.0000
35.0000 592.0000 1.0000
35.0100 600.0000 1.0000
35.0200 594.0000 1.0000
35.0300 612.0000 1.0000
35.0400 553.0000 1.0000
35.0500 605.0000 1.0000
35.0600 608.0000 1.0000
35.0700 600.0000 1.0000
35.0800 579.0000 1.0000
35.0900 562.0000 1.0000
35.1000 583.0000 1.0000
35.1100 593.0000 1.0000
35.1200 607.0000 1.0000
35.1300 589.0000 1.0000
35.1400 579.0000 1.0000
35.1500 583.0000 1.0000
35.1600 624.0000 1.0000
35.1700 595.0000 1.0000
35.1800 616.0000 1.0000
35.1900 602.0000 1.0000
35.2000 622.0000 1.0000
35.2100 582.0000 1.0000
35.2200 591.0000 1.0000
35.2300 657.0000 1.0000
35.2400 667.0000 1.0000
35.2500 654.0000 1.0000
35.2600 645.0000 1.0000
35.2700 625.0000 1.0000
35.2800 664.0000 1.0000
35.2900 679.0000 1.0000
35.3000 621.0000 1.0000
35.3100 628.0000 1.0000
35.3200 645.0000 1.0000
35.3300 667.0000 1.0000
35.3400 710.0000 1.0000
35.3500 674.0000 1.0000
35.3600 669.0000 1.0000
35.3700 718.0000 1.0000
35.3800 733.0000 1.0000
35.3900 779.0000 1.0000
35.4000 775.0000 1.0000
35.4100 775.0000 1.0000
35.4200 790.0000 1.0000
35.4300 807.0000 1.0000
35.4400 865.0000 1.0000
35.4500 847.0000 1.0000
35.4600 928.0000 1.0000
35.4700 991.0000 1.0000
35.4800 992.0000 1.0000
35.4900 1097.0000 1.0000
35.5000 1182.0000 1.0000
35.5100 1226.0000 1.0000
35.5200 1266.0000 1.0000
35.5300 1383.0000 1.0000
35.5400 1399.0000 1.0000
35.5500 1428.0000 1.0000
35.5600 1516.0000 1.0000
35.5700 1486.0000 1.0000
35.5800 1488.0000 1.0000
35.5900 1546.0000 1.0000
35.6000 1499.0000 1.0000
35.6100 1475.0000 1.0000
35.6200 1412.0000 1.0000
35.6300 1334.0000 1.0000
35.6400 1258.0000 1.0000
35.6500 1232.0000 1.0000
35.6600 1211.0000 1.0000
35.6700 1147.0000 1.0000
35.6800 1090.0000 1.0000
35.6900 1029.0000 1.0000
35.7000 967.0000 1.0000
35.7100 938.0000 1.0000
35.7200 866.0000 1.0000
35.7300 827.0000 1.0000
35.7400 805.0000 1.0000
35.7500 782.0000 1.0000
35.7600 736.0000 1.0000
35.7700 710.0000 1.0000
35.7800 692.0000 1.0000
35.7900 668.0000 1.0000
35.8000 658.0000 1.0000
35.8100 636.0000 1.0000
35.8200 611.0000 1.0000
35.8300 602.0000 1.0000
35.8400 629.0000 1.0000
35.8500 648.0000 1.0000
35.8600 622.0000 1.0000
35.8700 605.0000 1.0000
35.8800 596.0000 1.0000
35.8900 611.0000 1.0000
35.9000 612.0000 1.0000
35.9100 605.0000 1.0000
35.9200 623.0000 1.0000
35.9300 617.0000 1.0000
35.9400 604.0000 1.0000
35.9500 582.0000 1.0000
35.9600 587.0000 1.0000
35.9700 604.0000 1.0000
35.9800 608.0000 1.0000
35.9900 625.0000 1.0000
36.0000 557.0000 1.0000
36.0100 631.0000 1.0000
36.0200 599.0000 1.0000
36.0300 576.0000 1.0000
36.0400 528.0000 1.0000
36.0500 571.0000 1.0000
36.0600 557.0000 1.0000
36.0700 556.0000 1.0000
36.0800 571.0000 1.0000
36.0900 543.0000 1.0000
36.1000 572.0000 1.0000
36.1100 575.0000 1.0000
36.1200 574.0000 1.0000
36.1300 521.0000 1.0000
36.1400 603.0000 1.0000
36.1500 555.0000 1.0000
36.1600 589.0000 1.0000
36.1700 562.0000 1.0000
36.1800 584.0000 1.0000
36.1900 595.0000 1.0000
36.2000 573.0000 1.0000
36.2100 610.0000 1.0000
36.2200 557.0000 1.0000
36.2300 576.0000 1.0000
36.2400 546.0000 1.0000
36.2500 598.0000 1.0000
36.2600 549.0000 1.0000
36.2700 542.0000 1.0000
36.2800 552.0000 1.0000
36.2900 570.0000 1.0000
36.3000 593.0000 1.0000
36.3100 565.0000 1.0000
36.3200 581.0000 1.0000
36.3300 541.0000 1.0000
36.3400 536.0000 1.0000
36.3500 548.0000 1.0000
36.3600 533.0000 1.0000
36.3700 515.0000 1.0000
36.3800 525.0000 1.0000
36.3900 553.0000 1.0000
36.4000 581.0000 1.0000
36.4100 575.0000 1.0000
36.4200 597.0000 1.0000
36.4300 572.0000 1.0000
36.4400 584.0000 1.0000
36.4500 569.0000 1.0000
36.4600 568.0000 1.0000
36.4700 521.0000 1.0000
36.4800 534.0000 1.0000
36.4900 532.0000 1.0000
36.5000 552.0000 1.0000
36.5100 559.0000 1.0000
36.5200 597.0000 1.0000
36.5300 565.0000 1.0000
36.5400 559.0000 1.0000
36.5500 543.0000 1.0000
36.5600 544.0000 1.0000
36.5700 570.0000 1.0000
36.5800 588.0000 1.0000
36.5900 531.0000 1.0000
36.6000 571.0000 1.0000
36.6100 536.0000 1.0000
36.6200 566.0000 1.0000
36.6300 557.0000 1.0000
36.6400 559.0000 1.0000
36.6500 560.0000 1.0000
36.6600 550.0000 1.0000
36.6700 550.0000 1.0000
36.6800 547.0000 1.0000
36.6900 532.0000 1.0000
36.7000 566.0000 1.0000
36.7100 585.0000 1.0000
36.7200 552.0000 1.0000
36.7300 554.0000 1.0000
36.7400 566.0000 1.0000
36.7500 550.0000 1.0000
36.7600 545.0000 1.0000
36.7700 576.0000 1.0000
36.7800 527.0000 1.0000
36.7900 535.0000 1.0000
36.8000 555.0000 1.0000
36.8100 575.0000 1.0000
36.8200 555.0000 1.0000
36.8300 581.0000 1.0000
36.8400 544.0000 1.0000
36.8500 538.0000 1.0000
36.8600 550.0000 1.0000
36.8700 553.0000 1.0000
36.8800 574.0000 1.0000
36.8900 530.0000 1.0000
36.9000 521.0000 1.0000
36.9100 544.0000 1.0000
36.9200 601.0000 1.0000
36.9300 555.0000 1.0000
36.9400 555.0000 1.0000
36.9500 576.0000 1.0000
36.9600 573.0000 1.0000
36.9700 538.0000 1.0000
36.9800 508.0000 1.0000
36.9900 543.0000 1.0000
37.0000 558.0000 1.0000
37.0100 522.0000 1.0000
37.0200 546.0000 1.0000
37.0300 546.0000 1.0000
37.0400 573.0000 1.0000
37.0500 563.0000 1.0000
37.0600 569.0000 1.0000
37.0700 572.0000 1.0000
37.0800 574.0000 1.0000
37.0900 569.0000 1.0000
37.1000 608.0000 1.0000
37.1100 590.0000 1.0000
37.1200 604.0000 1.0000
37.1300 571.0000 1.0000
37.1400 577.0000 1.0000
37.1500 588.0000 1.0000
37.1600 569.0000 1.0000
37.1700 563.0000 1.0000
37.1800 565.0000 1.0000
37.1900 555.0000 1.0000
37.2000 572.0000 1.0000
37.2100 589.0000 1.0000
37.2200 581.0000 1.0000
37.2300 551.0000 1.0000
37.2400 616.0000 1.0000
37.2500 585.0000 1.0000
37.2600 598.0000 1.0000
37.2700 585.0000 1.0000
37.2800 582.0000 1.0000
37.2900 625.0000 1.0000
37.3000 617.0000 1.0000
37.3100 652.0000 1.0000
37.3200 617.0000 1.0000
37.3300 646.0000 1.0000
37.3400 639.0000 1.0000
37.3500 604.0000 1.0000
37.3600 643.0000 1.0000
37.3700 645.0000 1.0000
37.3800 640.0000 1.0000
37.3900 667.0000 1.0000
37.4000 686.0000 1.0000
37.4100 699.0000 1.0000
37.4200 728.0000 1.0000
37.4300 711.0000 1.0000
37.4400 721.0000 1.0000
37.4500 744.0000 1.0000
37.4600 738.0000 1.0000
37.4700 811.0000 1.0000
37.4800 899.0000 1.0000
37.4900 847.0000 1.0000
37.5000 895.0000 1.0000
37.5100 963.0000 1.0000
37.5200 940.0000 1.0000
37.5300 962.0000 1.0000
37.5400 1062.0000 1.0000
37.5500 1126.0000 1.0000
37.5600 1180.0000 1.0000
37.5700 1178.0000 1.0000
37.5800 1284.0000 1.0000
37.5900 1357.0000 1.0000
37.6000 1459.0000 1.0000
37.6100 1496.0000 1.0000
37.6200 1623.0000 1.0000
37.6300 1685.0000 1.0000
37.6400 1763.0000 1.0000
37.6500 1880.0000 1.0000
37.6600 1847.0000 1.0000
37.6700 1917.0000 1.0000
37.6800 2018.0000 1.0000
37.6900 2078.0000 1.0000
37.7000 2076.0000 1.0000
37.7100 2138.0000 1.0000
37.7200 2121.0000 1.0000
37.7300 2162.0000 1.0000
37.7400 2078.0000 1.0000
37.7500 1993.0000 1.0000
37.7600 1965.0000 1.0000
37.7700 1983.0000 1.0000
37.7800 1915.0000 1.0000
37.7900 1845.0000 1.0000
37.8000 1737.0000 1.0000
37.8100 1657.0000 1.0000
37.8200 1657.0000 1.0000
37.8300 1552.0000 1.0000
37.8400 1463.0000 1.0000
37.8500 1395.0000 1.0000
37.8600 1308.0000 1.0000
37.8700 1200.0000 1.0000
37.8800 1189.0000 1.0000
37.8900 1141.0000 1.0000
37.9000 1066.0000 1.0000
37.9100 994.0000 1.0000
37.9200 974.0000 1.0000
37.9300 946.0000 1.0000
37.9400 964.0000 1.0000
37.9500 879.0000 1.0000
37.9600 823.0000 1.0000
37.9700 805.0000 1.0000
37.9800 762.0000 1.0000
37.9900 737.0000 1.0000
38.0000 714.0000 1.0000
38.0100 717.0000 1.0000
38.0200 665.0000 1.0000
38.0300 695.0000 1.0000
38.0400 657.0000 1.0000
38.0500 664.0000 1.0000
38.0600 661.0000 1.0000
38.0700 644.0000 1.0000
38.0800 600.0000 1.0000
38.0900 639.0000 1.0000
38.1000 625.0000 1.0000
38.1100 607.0000 1.0000
38.1200 574.0000 1.0000
38.1300 577.0000 1.0000
38.1400 578.0000 1.0000
38.1500 580.0000 1.0000
38.1600 609.0000 1.0000
38.1700 616.0000 1.0000
38.1800 575.0000 1.0000
38.1900 557.0000 1.0000
38.2000 544.0000 1.0000
38.2100 567.0000 1.0000
38.2200 510.0000 1.0000
38.2300 555.0000 1.0000
38.2400 553.0000 1.0000
38.2500 532.0000 1.0000
38.2600 514.0000 1.0000
38.2700 536.0000 1.0000
38.2800 543.0000 1.0000
38.2900 547.0000 1.0000
38.3000 533.0000 1.0000
38.3100 544.0000 1.0000
38.3200 542.0000 1.0000
38.3300 544.0000 1.0000
38.3400 534.0000 1.0000
38.3500 527.0000 1.0000
38.3600 548.0000 1.0000
38.3700 523.0000 1.0000
38.3800 527.0000 1.0000
38.3900 563.0000 1.0000
38.4000 526.0000 1.0000
38.4100 527.0000 1.0000
38.4200 501.0000 1.0000
38.4300 525.0000 1.0000
38.4400 516.0000 1.0000
38.4500 492.0000 1.0000
38.4600 493.0000 1.0000
38.4700 534.0000 1.0000
38.4800 543.0000 1.0000
38.4900 508.0000 1.0000
38.5000 542.0000 1.0000
38.5100 544.0000 1.0000
38.5200 519.0000 1.0000
38.5300 513.0000 1.0000
38.5400 536.0000 1.0000
38.5500 503.0000 1.0000
38.5600 501.0000 1.0000
38.5700 545.0000 1.0000
38.5800 514.0000 1.0000
38.5900 501.0000 1.0000
38.6000 519.0000 1.0000
38.6100 510.0000 1.0000
38.6200 536.0000 1.0000
38.6300 505.0000 1.0000
38.6400 497.0000 1.0000
38.6500 532.0000 1.0000
38.6600 521.0000 1.0000
38.6700 532.0000 1.0000
38.6800 532.0000 1.0000
38.6900 542.0000 1.0000
38.7000 512.0000 1.0000
38.7100 505.0000 1.0000
38.7200 532.0000 1.0000
38.7300 556.0000 1.0000
38.7400 567.0000 1.0000
38.7500 528.0000 1.0000
38.7600 527.0000 1.0000
38.7700 522.0000 1.0000
38.7800 527.0000 1.0000
38.7900 567.0000 1.0000
38.8000 518.0000 1.0000
38.8100 529.0000 1.0000
38.8200 528.0000 1.0000
38.8300 546.0000 1.0000
38.8400 531.0000 1.0000
38.8500 525.0000 1.0000
38.8600 502.0000 1.0000
38.8700 499.0000 1.0000
38.8800 512.0000 1.0000
38.8900 526.0000 1.0000
38.9000 515.0000 1.0000
38.9100 539.0000 1.0000
38.9200 513.0000 1.0000
38.9300 518.0000 1.0000
38.9400 543.0000 1.0000
38.9500 498.0000 1.0000
38.9600 521.0000 1.0000
38.9700 487.0000 1.0000
38.9800 533.0000 1.0000
38.9900 500.0000 1.0000
39.0000 526.0000 1.0000
39.0100 530.0000 1.0000
39.0200 461.0000 1.0000
39.0300 505.0000 1.0000
39.0400 503.0000 1.0000
39.0500 494.0000 1.0000
39.0600 462.0000 1.0000
39.0700 500.0000 1.0000
39.0800 487.0000 1.0000
39.0900 498.0000 1.0000
39.1000 475.0000 1.0000
39.1100 498.0000 1.0000
39.1200 516.0000 1.0000
39.1300 523.0000 1.0000
39.1400 528.0000 1.0000
39.1500 508.0000 1.0000
39.1600 484.0000 1.0000
39.1700 497.0000 1.0000
39.1800 464.0000 1.0000
39.1900 503.0000 1.0000
39.2000 493.0000 1.0000
39.2100 478.0000 1.0000
39.2200 479.0000 1.0000
39.2300 476.0000 1.0000
39.2400 508.0000 1.0000
39.2500 480.0000 1.0000
39.2600 480.0000 1.0000
39.2700 487.0000 1.0000
39.2800 518.0000 1.0000
39.2900 512.0000 1.0000
39.3000 515.0000 1.0000
39.3100 551.0000 1.0000
39.3200 537.0000 1.0000
39.3300 484.0000 1.0000
39.3400 502.0000 1.0000
39.3500 505.0000 1.0000
39.3600 503.0000 1.0000
39.3700 487.0000 1.0000
39.3800 470.0000 1.0000
39.3900 480.0000 1.0000
39.4000 485.0000 1.0000
39.4100 508.0000 1.0000
39.4200 543.0000 1.0000
39.4300 486.0000 1.0000
39.4400 499.0000 1.0000
39.4500 509.0000 1.0000
39.4600 481.0000 1.0000
39.4700 511.0000 1.0000
39.4800 513.0000 1.0000
39.4900 491.0000 1.0000
39.5000 490.0000 1.0000
39.5100 488.0000 1.0000
39.5200 472.0000 1.0000
39.5300 495.0000 1.0000
39.5400 491.0000 1.0000
39.5500 502.0000 1.0000
39.5600 543.0000 1.0000
39.5700 497.0000 1.0000
39.5800 460.0000 1.0000
39.5900 484.0000 1.0000
39.6000 494.0000 1.0000
39.6100 461.0000 1.0000
39.6200 482.0000 1.0000
39.6300 454.0000 1.0000
39.6400 482.0000 1.0000
39.6500 494.0000 1.0000
39.6600 480.0000 1.0000
39.6700 498.0000 1.0000
39.6800 492.0000 1.0000
39.6900 488.0000 1.0000
39.7000 481.0000 1.0000
39.7100 484.0000 1.0000
39.7200 459.0000 1.0000
39.7300 438.0000 1.0000
39.7400 463.0000 1.0000
39.7500 485.0000 1.0000
39.7600 452.0000 1.0000
39.7700 493.0000 1.0000
39.7800 495.0000 1.0000
39.7900 470.0000 1.0000
39.8000 485.0000 1.0000
39.8100 478.0000 1.0000
39.8200 448.0000 1.0000
39.8300 483.0000 1.0000
39.8400 506.0000 1.0000
39.8500 479.0000 1.0000
39.8600 446.0000 1.0000
39.8700 489.0000 1.0000
39.8800 512.0000 1.0000
39.8900 464.0000 1.0000
39.9000 466.0000 1.0000
39.9100 502.0000 1.0000
39.9200 465.0000 1.0000
39.9300 475.0000 1.0000
39.9400 483.0000 1.0000
39.9500 476.0000 1.0000
39.9600 455.0000 1.0000
39.9700 463.0000 1.0000
39.9800 473.0000 1.0000
39.9900 467.0000 1.0000
40.0000 480.0000 1.0000
40.0100 464.0000 1.0000
40.0200 486.0000 1.0000
40.0300 465.0000 1.0000
40.0400 507.0000 1.0000
40.0500 479.0000 1.0000
40.0600 469.0000 1.0000
40.0700 455.0000 1.0000
40.0800 466.0000 1.0000
40.0900 450.0000 1.0000
40.1000 469.0000 1.0000
40.1100 473.0000 1.0000
40.1200 464.0000 1.0000
40.1300 457.0000 1.0000
40.1400 484.0000 1.0000
40.1500 466.0000 1.0000
40.1600 502.0000 1.0000
40.1700 502.0000 1.0000
40.1800 476.0000 1.0000
40.1900 488.0000 1.0000
40.2000 503.0000 1.0000
40.2100 485.0000 1.0000
40.2200 479.0000 1.0000
40.2300 414.0000 1.0000
40.2400 492.0000 1.0000
40.2500 456.0000 1.0000
40.2600 477.0000 1.0000
40.2700 459.0000 1.0000
40.2800 480.0000 1.0000
40.2900 478.0000 1.0000
40.3000 481.0000 1.0000
40.3100 493.0000 1.0000
40.3200 517.0000 1.0000
40.3300 497.0000 1.0000
40.3400 506.0000 1.0000
40.3500 492.0000 1.0000
40.3600 473.0000 1.0000
40.3700 467.0000 1.0000
40.3800 487.0000 1.0000
40.3900 472.0000 1.0000
40.4000 442.0000 1.0000
40.4100 489.0000 1.0000
40.4200 439.0000 1.0000
40.4300 497.0000 1.0000
40.4400 500.0000 1.0000
40.4500 465.0000 1.0000
40.4600 461.0000 1.0000
40.4700 463.0000 1.0000
40.4800 486.0000 1.0000
40.4900 460.0000 1.0000
40.5000 484.0000 1.0000
40.5100 464.0000 1.0000
40.5200 486.0000 1.0000
40.5300 468.0000 1.0000
40.5400 492.0000 1.0000
40.5500 484.0000 1.0000
40.5600 470.0000 1.0000
40.5700 488.0000 1.0000
40.5800 492.0000 1.0000
40.5900 472.0000 1.0000
40.6000 474.0000 1.0000
40.6100 462.0000 1.0000
40.6200 466.0000 1.0000
40.6300 518.0000 1.0000
40.6400 518.0000 1.0000
40.6500 495.0000 1.0000
40.6600 487.0000 1.0000
40.6700 485.0000 1.0000
40.6800 451.0000 1.0000
40.6900 487.0000 1.0000
40.7000 480.0000 1.0000
40.7100 471.0000 1.0000
40.7200 463.0000 1.0000
40.7300 501.0000 1.0000
40.7400 520.0000 1.0000
40.7500 524.0000 1.0000
40.7600 532.0000 1.0000
40.7700 523.0000 1.0000
40.7800 513.0000 1.0000
40.7900 487.0000 1.0000
40.8000 513.0000 1.0000
40.8100 501.0000 1.0000
40.8200 546.0000 1.0000
40.8300 532.0000 1.0000
40.8400 530.0000 1.0000
40.8500 528.0000 1.0000
40.8600 519.0000 1.0000
40.8700 505.0000 1.0000
40.8800 522.0000 1.0000
40.8900 539.0000 1.0000
40.9000 533.0000 1.0000
40.9100 525.0000 1.0000
40.9200 477.0000 1.0000
40.9300 522.0000 1.0000
40.9400 506.0000 1.0000
40.9500 490.0000 1.0000
40.9600 470.0000 1.0000
40.9700 489.0000 1.0000
40.9800 481.0000 1.0000
40.9900 478.0000 1.0000
41.0000 468.0000 1.0000
41.0100 472.0000 1.0000
41.0200 471.0000 1.0000
41.0300 494.0000 1.0000
41.0400 465.0000 1.0000
41.0500 453.0000 1.0000
41.0600 479.0000 1.0000
41.0700 463.0000 1.0000
41.0800 481.0000 1.0000
41.0900 471.0000 1.0000
41.1000 509.0000 1.0000
41.1100 473.0000 1.0000
41.1200 443.0000 1.0000
41.1300 475.0000 1.0000
41.1400 449.0000 1.0000
41.1500 446.0000 1.0000
41.1600 464.0000 1.0000
41.1700 452.0000 1.0000
41.1800 451.0000 1.0000
41.1900 460.0000 1.0000
41.2000 427.0000 1.0000
41.2100 464.0000 1.0000
41.2200 431.0000 1.0000
41.2300 478.0000 1.0000
41.2400 477.0000 1.0000
41.2500 482.0000 1.0000
41.2600 488.0000 1.0000
41.2700 475.0000 1.0000
41.2800 482.0000 1.0000
41.2900 471.0000 1.0000
41.3000 486.0000 1.0000
41.3100 430.0000 1.0000
41.3200 475.0000 1.0000
41.3300 450.0000 1.0000
41.3400 448.0000 1.0000
41.3500 453.0000 1.0000
41.3600 466.0000 1.0000
41.3700 460.0000 1.0000
41.3800 455.0000 1.0000
41.3900 463.0000 1.0000
41.4000 440.0000 1.0000
41.4100 439.0000 1.0000
41.4200 455.0000 1.0000
41.4300 449.0000 1.0000
41.4400 481.0000 1.0000
41.4500 485.0000 1.0000
41.4600 479.0000 1.0000
41.4700 451.0000 1.0000
41.4800 486.0000 1.0000
41.4900 463.0000 1.0000
41.5000 472.0000 1.0000
41.5100 452.0000 1.0000
41.5200 470.0000 1.0000
41.5300 452.0000 1.0000
41.5400 453.0000 1.0000
41.5500 428.0000 1.0000
41.5600 431.0000 1.0000
41.5700 457.0000 1.0000
41.5800 454.0000 1.0000
41.5900 471.0000 1.0000
41.6000 442.0000 1.0000
41.6100 449.0000 1.0000
41.6200 481.0000 1.0000
41.6300 458.0000 1.0000
41.6400 470.0000 1.0000
41.6500 466.0000 1.0000
41.6600 489.0000 1.0000
41.6700 476.0000 1.0000
41.6800 477.0000 1.0000
41.6900 432.0000 1.0000
41.7000 431.0000 1.0000
41.7100 454.0000 1.0000
41.7200 443.0000 1.0000
41.7300 456.0000 1.0000
41.7400 465.0000 1.0000
41.7500 467.0000 1.0000
41.7600 452.0000 1.0000
41.7700 469.0000 1.0000
41.7800 473.0000 1.0000
41.7900 465.0000 1.0000
41.8000 446.0000 1.0000
41.8100 449.0000 1.0000
41.8200 466.0000 1.0000
41.8300 455.0000 1.0000
41.8400 458.0000 1.0000
41.8500 448.0000 1.0000
41.8600 453.0000 1.0000
41.8700 431.0000 1.0000
41.8800 476.0000 1.0000
41.8900 464.0000 1.0000
41.9000 476.0000 1.0000
41.9100 438.0000 1.0000
41.9200 449.0000 1.0000
41.9300 439.0000 1.0000
41.9400 462.0000 1.0000
41.9500 435.0000 1.0000
41.9600 480.0000 1.0000
41.9700 463.0000 1.0000
41.9800 487.0000 1.0000
41.9900 474.0000 1.0000
42.0000 473.0000 1.0000
42.0100 478.0000 1.0000
42.0200 457.0000 1.0000
42.0300 455.0000 1.0000
42.0400 423.0000 1.0000
42.0500 447.0000 1.0000
42.0600 446.0000 1.0000
42.0700 424.0000 1.0000
42.0800 477.0000 1.0000
42.0900 470.0000 1.0000
42.1000 439.0000 1.0000
42.1100 477.0000 1.0000
42.1200 449.0000 1.0000
42.1300 483.0000 1.0000
42.1400 442.0000 1.0000
42.1500 454.0000 1.0000
42.1600 447.0000 1.0000
42.1700 476.0000 1.0000
42.1800 515.0000 1.0000
42.1900 488.0000 1.0000
42.2000 442.0000 1.0000
42.2100 442.0000 1.0000
42.2200 492.0000 1.0000
42.2300 494.0000 1.0000
42.2400 465.0000 1.0000
42.2500 477.0000 1.0000
42.2600 431.0000 1.0000
42.2700 449.0000 1.0000
42.2800 478.0000 1.0000
42.2900 476.0000 1.0000
42.3000 452.0000 1.0000
42.3100 451.0000 1.0000
42.3200 462.0000 1.0000
42.3300 488.0000 1.0000
42.3400 508.0000 1.0000
42.3500 489.0000 1.0000
42.3600 464.0000 1.0000
42.3700 445.0000 1.0000
42.3800 499.0000 1.0000
42.3900 473.0000 1.0000
42.4000 474.0000 1.0000
42.4100 515.0000 1.0000
42.4200 494.0000 1.0000
42.4300 488.0000 1.0000
42.4400 472.0000 1.0000
42.4500 503.0000 1.0000
42.4600 470.0000 1.0000
42.4700 482.0000 1.0000
42.4800 487.0000 1.0000
42.4900 478.0000 1.0000
42.5000 471.0000 1.0000
42.5100 504.0000 1.0000
42.5200 499.0000 1.0000
42.5300 466.0000 1.0000
42.5400 503.0000 1.0000
42.5500 492.0000 1.0000
42.5600 458.0000 1.0000
42.5700 489.0000 1.0000
42.5800 481.0000 1.0000
42.5900 477.0000 1.0000
42.6000 487.0000 1.0000
42.6100 438.0000 1.0000
42.6200 477.0000 1.0000
42.6300 432.0000 1.0000
42.6400 461.0000 1.0000
42.6500 460.0000 1.0000
42.6600 445.0000 1.0000
42.6700 432.0000 1.0000
42.6800 430.0000 1.0000
42.6900 447.0000 1.0000
42.7000 453.0000 1.0000
42.7100 444.0000 1.0000
42.7200 471.0000 1.0000
42.7300 481.0000 1.0000
42.7400 436.0000 1.0000
42.7500 423.0000 1.0000
42.7600 447.0000 1.0000
42.7700 478.0000 1.0000
42.7800 461.0000 1.0000
42.7900 452.0000 1.0000
42.8000 455.0000 1.0000
42.8100 430.0000 1.0000
42.8200 456.0000 1.0000
42.8300 445.0000 1.0000
42.8400 450.0000 1.0000
42.8500 456.0000 1.0000
42.8600 445.0000 1.0000
42.8700 439.0000 1.0000
42.8800 462.0000 1.0000
42.8900 447.0000 1.0000
42.9000 414.0000 1.0000
42.9100 459.0000 1.0000
42.9200 486.0000 1.0000
42.9300 481.0000 1.0000
42.9400 458.0000 1.0000
42.9500 431.0000 1.0000
42.9600 453.0000 1.0000
42.9700 459.0000 1.0000
42.9800 436.0000 1.0000
42.9900 455.0000 1.0000
43.0000 408.0000 1.0000
43.0100 452.0000 1.0000
43.0200 473.0000 1.0000
43.0300 477.0000 1.0000
43.0400 447.0000 1.0000
43.0500 462.0000 1.0000
43.0600 488.0000 1.0000
43.0700 446.0000 1.0000
43.0800 484.0000 1.0000
43.0900 455.0000 1.0000
43.1000 451.0000 1.0000
43.1100 435.0000 1.0000
43.1200 450.0000 1.0000
43.1300 420.0000 1.0000
43.1400 477.0000 1.0000
43.1500 439.0000 1.0000
43.1600 437.0000 1.0000
43.1700 468.0000 1.0000
43.1800 460.0000 1.0000
43.1900 443.0000 1.0000
43.2000 394.0000 1.0000
43.2100 450.0000 1.0000
43.2200 443.0000 1.0000
43.2300 434.0000 1.0000
43.2400 416.0000 1.0000
43.2500 434.0000 1.0000
43.2600 440.0000 1.0000
43.2700 474.0000 1.0000
43.2800 451.0000 1.0000
43.2900 457.0000 1.0000
43.3000 457.0000 1.0000
43.3100 445.0000 1.0000
43.3200 450.0000 1.0000
43.3300 478.0000 1.0000
43.3400 470.0000 1.0000
43.3500 455.0000 1.0000
43.3600 450.0000 1.0000
43.3700 446.0000 1.0000
43.3800 464.0000 1.0000
43.3900 459.0000 1.0000
43.4000 455.0000 1.0000
43.4100 456.0000 1.0000
43.4200 478.0000 1.0000
43.4300 492.0000 1.0000
43.4400 470.0000 1.0000
43.4500 444.0000 1.0000
43.4600 473.0000 1.0000
43.4700 478.0000 1.0000
43.4800 451.0000 1.0000
43.4900 454.0000 1.0000
43.5000 475.0000 1.0000
43.5100 480.0000 1.0000
43.5200 454.0000 1.0000
43.5300 421.0000 1.0000
43.5400 426.0000 1.0000
43.5500 442.0000 1.0000
43.5600 483.0000 1.0000
43.5700 458.0000 1.0000
43.5800 413.0000 1.0000
43.5900 460.0000 1.0000
43.6000 486.0000 1.0000
43.6100 478.0000 1.0000
43.6200 472.0000 1.0000
43.6300 444.0000 1.0000
43.6400 457.0000 1.0000
43.6500 453.0000 1.0000
43.6600 458.0000 1.0000
43.6700 427.0000 1.0000
43.6800 413.0000 1.0000
43.6900 402.0000 1.0000
43.7000 428.0000 1.0000
43.7100 437.0000 1.0000
43.7200 440.0000 1.0000
43.7300 439.0000 1.0000
43.7400 431.0000 1.0000
43.7500 392.0000 1.0000
43.7600 415.0000 1.0000
43.7700 398.0000 1.0000
43.7800 451.0000 1.0000
43.7900 457.0000 1.0000
43.8000 442.0000 1.0000
43.8100 441.0000 1.0000
43.8200 418.0000 1.0000
43.8300 405.0000 1.0000
43.8400 432.0000 1.0000
43.8500 401.0000 1.0000
43.8600 429.0000 1.0000
43.8700 454.0000 1.0000
43.8800 457.0000 1.0000
43.8900 410.0000 1.0000
43.9000 434.0000 1.0000
43.9100 446.0000 1.0000
43.9200 411.0000 1.0000
43.9300 436.0000 1.0000
43.9400 439.0000 1.0000
43.9500 457.0000 1.0000
43.9600 489.0000 1.0000
43.9700 476.0000 1.0000
43.9800 421.0000 1.0000
43.9900 440.0000 1.0000
44.0000 437.0000 1.0000
44.0100 439.0000 1.0000
44.0200 446.0000 1.0000
44.0300 473.0000 1.0000
44.0400 410.0000 1.0000
44.0500 418.0000 1.0000
44.0600 428.0000 1.0000
44.0700 461.0000 1.0000
44.0800 448.0000 1.0000
44.0900 460.0000 1.0000
44.1000 418.0000 1.0000
44.1100 418.0000 1.0000
44.1200 428.0000 1.0000
44.1300 434.0000 1.0000
44.1400 425.0000 1.0000
44.1500 396.0000 1.0000
44.1600 417.0000 1.0000
44.1700 412.0000 1.0000
44.1800 450.0000 1.0000
44.1900 447.0000 1.0000
44.2000 445.0000 1.0000
44.2100 434.0000 1.0000
44.2200 400.0000 1.0000
44.2300 421.0000 1.0000
44.2400 416.0000 1.0000
44.2500 409.0000 1.0000
44.2600 379.0000 1.0000
44.2700 436.0000 1.0000
44.2800 429.0000 1.0000
44.2900 410.0000 1.0000
44.3000 423.0000 1.0000
44.3100 423.0000 1.0000
44.3200 428.0000 1.0000
44.3300 424.0000 1.0000
44.3400 442.0000 1.0000
44.3500 442.0000 1.0000
44.3600 431.0000 1.0000
44.3700 418.0000 1.0000
44.3800 429.0000 1.0000
44.3900 390.0000 1.0000
44.4000 425.0000 1.0000
44.4100 452.0000 1.0000
44.4200 438.0000 1.0000
44.4300 433.0000 1.0000
44.4400 417.0000 1.0000
44.4500 422.0000 1.0000
44.4600 425.0000 1.0000
44.4700 427.0000 1.0000
44.4800 422.0000 1.0000
44.4900 444.0000 1.0000
44.5000 419.0000 1.0000
44.5100 443.0000 1.0000
44.5200 411.0000 1.0000
44.5300 405.0000 1.0000
44.5400 441.0000 1.0000
44.5500 439.0000 1.0000
44.5600 427.0000 1.0000
44.5700 413.0000 1.0000
44.5800 410.0000 1.0000
44.5900 456.0000 1.0000
44.6000 457.0000 1.0000
44.6100 435.0000 1.0000
44.6200 422.0000 1.0000
44.6300 430.0000 1.0000
44.6400 422.0000 1.0000
44.6500 459.0000 1.0000
44.6600 420.0000 1.0000
44.6700 428.0000 1.0000
44.6800 416.0000 1.0000
44.6900 456.0000 1.0000
44.7000 417.0000 1.0000
44.7100 415.0000 1.0000
44.7200 450.0000 1.0000
44.7300 386.0000 1.0000
44.7400 466.0000 1.0000
44.7500 434.0000 1.0000
44.7600 421.0000 1.0000
44.7700 398.0000 1.0000
44.7800 396.0000 1.0000
44.7900 429.0000 1.0000
44.8000 435.0000 1.0000
44.8100 422.0000 1.0000
44.8200 422.0000 1.0000
44.8300 418.0000 1.0000
44.8400 418.0000 1.0000
44.8500 424.0000 1.0000
44.8600 428.0000 1.0000
44.8700 447.0000 1.0000
44.8800 417.0000 1.0000
44.8900 432.0000 1.0000
44.9000 445.0000 1.0000
44.9100 442.0000 1.0000
44.9200 450.0000 1.0000
44.9300 428.0000 1.0000
44.9400 417.0000 1.0000
44.9500 398.0000 1.0000
44.9600 419.0000 1.0000
44.9700 448.0000 1.0000
44.9800 405.0000 1.0000
44.9900 423.0000 1.0000
45.0000 452.0000 1.0000
45.0100 427.0000 1.0000
45.0200 445.0000 1.0000
45.0300 429.0000 1.0000
45.0400 410.0000 1.0000
45.0500 392.0000 1.0000
45.0600 427.0000 1.0000
45.0700 439.0000 1.0000
45.0800 444.0000 1.0000
45.0900 423.0000 1.0000
45.1000 437.0000 1.0000
45.1100 424.0000 1.0000
45.1200 420.0000 1.0000
45.1300 418.0000 1.0000
45.1400 410.0000 1.0000
45.1500 424.0000 1.0000
45.1600 434.0000 1.0000
45.1700 398.0000 1.0000
45.1800 382.0000 1.0000
45.1900 437.0000 1.0000
45.2000 419.0000 1.0000
45.2100 400.0000 1.0000
45.2200 390.0000 1.0000
45.2300 462.0000 1.0000
45.2400 408.0000 1.0000
45.2500 410.0000 1.0000
45.2600 427.0000 1.0000
45.2700 423.0000 1.0000
45.2800 430.0000 1.0000
45.2900 428.0000 1.0000
45.3000 404.0000 1.0000
45.3100 445.0000 1.0000
45.3200 449.0000 1.0000
45.3300 423.0000 1.0000
45.3400 421.0000 1.0000
45.3500 412.0000 1.0000
45.3600 411.0000 1.0000
45.3700 457.0000 1.0000
45.3800 399.0000 1.0000
45.3900 406.0000 1.0000
45.4000 421.0000 1.0000
45.4100 420.0000 1.0000
45.4200 425.0000 1.0000
45.4300 434.0000 1.0000
45.4400 434.0000 1.0000
45.4500 385.0000 1.0000
45.4600 428.0000 1.0000
45.4700 430.0000 1.0000
45.4800 397.0000 1.0000
45.4900 422.0000 1.0000
45.5000 402.0000 1.0000
45.5100 438.0000 1.0000
45.5200 413.0000 1.0000
45.5300 453.0000 1.0000
45.5400 437.0000 1.0000
45.5500 411.0000 1.0000
45.5600 393.0000 1.0000
45.5700 416.0000 1.0000
45.5800 440.0000 1.0000
45.5900 425.0000 1.0000
45.6000 444.0000 1.0000
45.6100 445.0000 1.0000
45.6200 409.0000 1.0000
45.6300 387.0000 1.0000
45.6400 411.0000 1.0000
45.6500 406.0000 1.0000
45.6600 428.0000 1.0000
45.6700 420.0000 1.0000
45.6800 444.0000 1.0000
45.6900 415.0000 1.0000
45.7000 410.0000 1.0000
45.7100 411.0000 1.0000
45.7200 428.0000 1.0000
45.7300 380.0000 1.0000
45.7400 408.0000 1.0000
45.7500 404.0000 1.0000
45.7600 433.0000 1.0000
45.7700 391.0000 1.0000
45.7800 406.0000 1.0000
45.7900 392.0000 1.0000
45.8000 429.0000 1.0000
45.8100 438.0000 1.0000
45.8200 401.0000 1.0000
45.8300 441.0000 1.0000
45.8400 430.0000 1.0000
45.8500 464.0000 1.0000
45.8600 423.0000 1.0000
45.8700 407.0000 1.0000
45.8800 428.0000 1.0000
45.8900 405.0000 1.0000
45.9000 385.0000 1.0000
45.9100 397.0000 1.0000
45.9200 437.0000 1.0000
45.9300 432.0000 1.0000
45.9400 402.0000 1.0000
45.9500 398.0000 1.0000
45.9600 390.0000 1.0000
45.9700 408.0000 1.0000
45.9800 401.0000 1.0000
45.9900 415.0000 1.0000
46.0000 381.0000 1.0000
46.0100 414.0000 1.0000
46.0200 411.0000 1.0000
46.0300 418.0000 1.0000
46.0400 438.0000 1.0000
46.0500 435.0000 1.0000
46.0600 389.0000 1.0000
46.0700 420.0000 1.0000
46.0800 418.0000 1.0000
46.0900 419.0000 1.0000
46.1000 417.0000 1.0000
46.1100 455.0000 1.0000
46.1200 442.0000 1.0000
46.1300 414.0000 1.0000
46.1400 426.0000 1.0000
46.1500 418.0000 1.0000
46.1600 415.0000 1.0000
46.1700 418.0000 1.0000
46.1800 419.0000 1.0000
46.1900 414.0000 1.0000
46.2000 433.0000 1.0000
46.2100 422.0000 1.0000
46.2200 426.0000 1.0000
46.2300 436.0000 1.0000
46.2400 425.0000 1.0000
46.2500 442.0000 1.0000
46.2600 430.0000 1.0000
46.2700 381.0000 1.0000
46.2800 430.0000 1.0000
46.2900 377.0000 1.0000
46.3000 391.0000 1.0000
46.3100 396.0000 1.0000
46.3200 438.0000 1.0000
46.3300 443.0000 1.0000
46.3400 414.0000 1.0000
46.3500 408.0000 1.0000
46.3600 371.0000 1.0000
46.3700 406.0000 1.0000
46.3800 426.0000 1.0000
46.3900 427.0000 1.0000
46.4000 426.0000 1.0000
46.4100 424.0000 1.0000
46.4200 437.0000 1.0000
46.4300 412.0000 1.0000
46.4400 396.0000 1.0000
46.4500 419.0000 1.0000
46.4600 402.0000 1.0000
46.4700 401.0000 1.0000
46.4800 417.0000 1.0000
46.4900 402.0000 1.0000
46.5000 382.0000 1.0000
46.5100 382.0000 1.0000
46.5200 430.0000 1.0000
46.5300 402.0000 1.0000
46.5400 413.0000 1.0000
46.5500 421.0000 1.0000
46.5600 393.0000 1.0000
46.5700 457.0000 1.0000
46.5800 428.0000 1.0000
46.5900 402.0000 1.0000
46.6000 387.0000 1.0000
46.6100 442.0000 1.0000
46.6200 423.0000 1.0000
46.6300 405.0000 1.0000
46.6400 413.0000 1.0000
46.6500 445.0000 1.0000
46.6600 390.0000 1.0000
46.6700 404.0000 1.0000
46.6800 413.0000 1.0000
46.6900 406.0000 1.0000
46.7000 396.0000 1.0000
46.7100 405.0000 1.0000
46.7200 437.0000 1.0000
46.7300 411.0000 1.0000
46.7400 403.0000 1.0000
46.7500 389.0000 1.0000
46.7600 387.0000 1.0000
46.7700 388.0000 1.0000
46.7800 411.0000 1.0000
46.7900 428.0000 1.0000
46.8000 431.0000 1.0000
46.8100 365.0000 1.0000
46.8200 389.0000 1.0000
46.8300 402.0000 1.0000
46.8400 428.0000 1.0000
46.8500 383.0000 1.0000
46.8600 412.0000 1.0000
46.8700 389.0000 1.0000
46.8800 399.0000 1.0000
46.8900 400.0000 1.0000
46.9000 420.0000 1.0000
46.9100 398.0000 1.0000
46.9200 379.0000 1.0000
46.9300 405.0000 1.0000
46.9400 378.0000 1.0000
46.9500 395.0000 1.0000
46.9600 388.0000 1.0000
46.9700 434.0000 1.0000
46.9800 392.0000 1.0000
46.9900 409.0000 1.0000
47.0000 400.0000 1.0000
47.0100 443.0000 1.0000
47.0200 405.0000 1.0000
47.0300 374.0000 1.0000
47.0400 388.0000 1.0000
47.0500 406.0000 1.0000
47.0600 414.0000 1.0000
47.0700 411.0000 1.0000
47.0800 404.0000 1.0000
47.0900 397.0000 1.0000
47.1000 419.0000 1.0000
47.1100 379.0000 1.0000
47.1200 390.0000 1.0000
47.1300 422.0000 1.0000
47.1400 403.0000 1.0000
47.1500 393.0000 1.0000
47.1600 403.0000 1.0000
47.1700 396.0000 1.0000
47.1800 388.0000 1.0000
47.1900 399.0000 1.0000
47.2000 394.0000 1.0000
47.2100 414.0000 1.0000
47.2200 398.0000 1.0000
47.2300 403.0000 1.0000
47.2400 397.0000 1.0000
47.2500 395.0000 1.0000
47.2600 390.0000 1.0000
47.2700 429.0000 1.0000
47.2800 399.0000 1.0000
47.2900 407.0000 1.0000
47.3000 392.0000 1.0000
47.3100 399.0000 1.0000
47.3200 366.0000 1.0000
47.3300 402.0000 1.0000
47.3400 437.0000 1.0000
47.3500 384.0000 1.0000
47.3600 359.0000 1.0000
47.3700 386.0000 1.0000
47.3800 388.0000 1.0000
47.3900 415.0000 1.0000
47.4000 385.0000 1.0000
47.4100 427.0000 1.0000
47.4200 395.0000 1.0000
47.4300 394.0000 1.0000
47.4400 413.0000 1.0000
47.4500 400.0000 1.0000
47.4600 371.0000 1.0000
47.4700 403.0000 1.0000
47.4800 443.0000 1.0000
47.4900 369.0000 1.0000
47.5000 389.0000 1.0000
47.5100 398.0000 1.0000
47.5200 389.0000 1.0000
47.5300 443.0000 1.0000
47.5400 417.0000 1.0000
47.5500 401.0000 1.0000
47.5600 394.0000 1.0000
47.5700 408.0000 1.0000
47.5800 386.0000 1.0000
47.5900 375.0000 1.0000
47.6000 411.0000 1.0000
47.6100 398.0000 1.0000
47.6200 396.0000 1.0000
47.6300 400.0000 1.0000
47.6400 420.0000 1.0000
47.6500 403.0000 1.0000
47.6600 389.0000 1.0000
47.6700 390.0000 1.0000
47.6800 406.0000 1.0000
47.6900 390.0000 1.0000
47.7000 385.0000 1.0000
47.7100 398.0000 1.0000
47.7200 401.0000 1.0000
47.7300 412.0000 1.0000
47.7400 391.0000 1.0000
47.7500 428.0000 1.0000
47.7600 413.0000 1.0000
47.7700 406.0000 1.0000
47.7800 408.0000 1.0000
47.7900 389.0000 1.0000
47.8000 365.0000 1.0000
47.8100 403.0000 1.0000
47.8200 401.0000 1.0000
47.8300 429.0000 1.0000
47.8400 425.0000 1.0000
47.8500 398.0000 1.0000
47.8600 364.0000 1.0000
47.8700 380.0000 1.0000
47.8800 395.0000 1.0000
47.8900 396.0000 1.0000
47.9000 375.0000 1.0000
47.9100 380.0000 1.0000
47.9200 366.0000 1.0000
47.9300 399.0000 1.0000
47.9400 406.0000 1.0000
47.9500 380.0000 1.0000
47.9600 407.0000 1.0000
47.9700 422.0000 1.0000
47.9800 433.0000 1.0000
47.9900 440.0000 1.0000
48.0000 403.0000 1.0000
48.0100 405.0000 1.0000
48.0200 387.0000 1.0000
48.0300 396.0000 1.0000
48.0400 385.0000 1.0000
48.0500 392.0000 1.0000
48.0600 381.0000 1.0000
48.0700 428.0000 1.0000
48.0800 376.0000 1.0000
48.0900 421.0000 1.0000
48.1000 397.0000 1.0000
48.1100 370.0000 1.0000
48.1200 385.0000 1.0000
48.1300 362.0000 1.0000
48.1400 395.0000 1.0000
48.1500 427.0000 1.0000
48.1600 390.0000 1.0000
48.1700 412.0000 1.0000
48.1800 373.0000 1.0000
48.1900 435.0000 1.0000
48.2000 404.0000 1.0000
48.2100 382.0000 1.0000
48.2200 384.0000 1.0000
48.2300 378.0000 1.0000
48.2400 413.0000 1.0000
48.2500 388.0000 1.0000
48.2600 391.0000 1.0000
48.2700 363.0000 1.0000
48.2800 386.0000 1.0000
48.2900 395.0000 1.0000
48.3000 404.0000 1.0000
48.3100 400.0000 1.0000
48.3200 434.0000 1.0000
48.3300 389.0000 1.0000
48.3400 421.0000 1.0000
48.3500 404.0000 1.0000
48.3600 408.0000 1.0000
48.3700 380.0000 1.0000
48.3800 440.0000 1.0000
48.3900 418.0000 1.0000
48.4000 416.0000 1.0000
48.4100 403.0000 1.0000
48.4200 402.0000 1.0000
48.4300 418.0000 1.0000
48.4400 395.0000 1.0000
48.4500 382.0000 1.0000
48.4600 379.0000 1.0000
48.4700 404.0000 1.0000
48.4800 411.0000 1.0000
48.4900 410.0000 1.0000
48.5000 398.0000 1.0000
48.5100 414.0000 1.0000
48.5200 418.0000 1.0000
48.5300 383.0000 1.0000
48.5400 408.0000 1.0000
48.5500 399.0000 1.0000
48.5600 404.0000 1.0000
48.5700 392.0000 1.0000
48.5800 368.0000 1.0000
48.5900 407.0000 1.0000
48.6000 388.0000 1.0000
48.6100 394.0000 1.0000
48.6200 400.0000 1.0000
48.6300 393.0000 1.0000
48.6400 401.0000 1.0000
48.6500 374.0000 1.0000
48.6600 395.0000 1.0000
48.6700 374.0000 1.0000
48.6800 391.0000 1.0000
48.6900 372.0000 1.0000
48.7000 363.0000 1.0000
48.7100 341.0000 1.0000
48.7200 394.0000 1.0000
48.7300 377.0000 1.0000
48.7400 394.0000 1.0000
48.7500 389.0000 1.0000
48.7600 365.0000 1.0000
48.7700 401.0000 1.0000
48.7800 384.0000 1.0000
48.7900 386.0000 1.0000
48.8000 364.0000 1.0000
48.8100 375.0000 1.0000
48.8200 379.0000 1.0000
48.8300 398.0000 1.0000
48.8400 389.0000 1.0000
48.8500 378.0000 1.0000
48.8600 392.0000 1.0000
48.8700 409.0000 1.0000
48.8800 414.0000 1.0000
48.8900 396.0000 1.0000
48.9000 408.0000 1.0000
48.9100 383.0000 1.0000
48.9200 400.0000 1.0000
48.9300 399.0000 1.0000
48.9400 381.0000 1.0000
48.9500 389.0000 1.0000
48.9600 400.0000 1.0000
48.9700 381.0000 1.0000
48.9800 382.0000 1.0000
48.9900 412.0000 1.0000
49.0000 409.0000 1.0000
49.0100 403.0000 1.0000
49.0200 400.0000 1.0000
49.0300 401.0000 1.0000
49.0400 406.0000 1.0000
49.0500 409.0000 1.0000
49.0600 400.0000 1.0000
49.0700 424.0000 1.0000
49.0800 430.0000 1.0000
49.0900 401.0000 1.0000
49.1000 414.0000 1.0000
49.1100 382.0000 1.0000
49.1200 380.0000 1.0000
49.1300 400.0000 1.0000
49.1400 408.0000 1.0000
49.1500 398.0000 1.0000
49.1600 373.0000 1.0000
49.1700 385.0000 1.0000
49.1800 413.0000 1.0000
49.1900 366.0000 1.0000
49.2000 392.0000 1.0000
49.2100 398.0000 1.0000
49.2200 382.0000 1.0000
49.2300 388.0000 1.0000
49.2400 399.0000 1.0000
49.2500 408.0000 1.0000
49.2600 399.0000 1.0000
49.2700 370.0000 1.0000
49.2800 408.0000 1.0000
49.2900 416.0000 1.0000
49.3000 451.0000 1.0000
49.3100 400.0000 1.0000
49.3200 394.0000 1.0000
49.3300 439.0000 1.0000
49.3400 427.0000 1.0000
49.3500 425.0000 1.0000
49.3600 446.0000 1.0000
49.3700 456.0000 1.0000
49.3800 449.0000 1.0000
49.3900 439.0000 1.0000
49.4000 429.0000 1.0000
49.4100 460.0000 1.0000
49.4200 471.0000 1.0000
49.4300 478.0000 1.0000
49.4400 460.0000 1.0000
49.4500 443.0000 1.0000
49.4600 451.0000 1.0000
49.4700 461.0000 1.0000
49.4800 456.0000 1.0000
49.4900 439.0000 1.0000
49.5000 419.0000 1.0000
49.5100 419.0000 1.0000
49.5200 457.0000 1.0000
49.5300 458.0000 1.0000
49.5400 456.0000 1.0000
49.5500 455.0000 1.0000
49.5600 426.0000 1.0000
49.5700 422.0000 1.0000
49.5800 426.0000 1.0000
49.5900 457.0000 1.0000
49.6000 436.0000 1.0000
49.6100 431.0000 1.0000
49.6200 408.0000 1.0000
49.6300 399.0000 1.0000
49.6400 375.0000 1.0000
49.6500 406.0000 1.0000
49.6600 409.0000 1.0000
49.6700 422.0000 1.0000
49.6800 422.0000 1.0000
49.6900 387.0000 1.0000
49.7000 391.0000 1.0000
49.7100 414.0000 1.0000
49.7200 385.0000 1.0000
49.7300 368.0000 1.0000
49.7400 423.0000 1.0000
49.7500 404.0000 1.0000
49.7600 381.0000 1.0000
49.7700 384.0000 1.0000
49.7800 403.0000 1.0000
49.7900 376.0000 1.0000
49.8000 374.0000 1.0000
49.8100 386.0000 1.0000
49.8200 404.0000 1.0000
49.8300 403.0000 1.0000
49.8400 366.0000 1.0000
49.8500 416.0000 1.0000
49.8600 363.0000 1.0000
49.8700 413.0000 1.0000
49.8800 388.0000 1.0000
49.8900 428.0000 1.0000
49.9000 403.0000 1.0000
49.9100 398.0000 1.0000
49.9200 410.0000 1.0000
49.9300 413.0000 1.0000
49.9400 388.0000 1.0000
49.9500 392.0000 1.0000
49.9600 415.0000 1.0000
49.9700 386.0000 1.0000
49.9800 375.0000 1.0000
49.9900 389.0000 1.0000
50.0000 396.0000 1.0000
50.0100 386.0000 1.0000
50.0200 354.0000 1.0000
50.0300 407.0000 1.0000
50.0400 397.0000 1.0000
50.0500 397.0000 1.0000
50.0600 414.0000 1.0000
50.0700 394.0000 1.0000
50.0800 407.0000 1.0000
50.0900 409.0000 1.0000
50.1000 371.0000 1.0000
50.1100 393.0000 1.0000
50.1200 392.0000 1.0000
50.1300 387.0000 1.0000
50.1400 393.0000 1.0000
50.1500 434.0000 1.0000
50.1600 388.0000 1.0000
50.1700 407.0000 1.0000
50.1800 427.0000 1.0000
50.1900 392.0000 1.0000
50.2000 368.0000 1.0000
50.2100 363.0000 1.0000
50.2200 352.0000 1.0000
50.2300 427.0000 1.0000
50.2400 398.0000 1.0000
50.2500 369.0000 1.0000
50.2600 383.0000 1.0000
50.2700 378.0000 1.0000
50.2800 373.0000 1.0000
50.2900 406.0000 1.0000
50.3000 407.0000 1.0000
50.3100 399.0000 1.0000
50.3200 398.0000 1.0000
50.3300 355.0000 1.0000
50.3400 418.0000 1.0000
50.3500 386.0000 1.0000
50.3600 370.0000 1.0000
50.3700 378.0000 1.0000
50.3800 386.0000 1.0000
50.3900 393.0000 1.0000
50.4000 410.0000 1.0000
50.4100 380.0000 1.0000
50.4200 392.0000 1.0000
50.4300 391.0000 1.0000
50.4400 383.0000 1.0000
50.4500 379.0000 1.0000
50.4600 427.0000 1.0000
50.4700 390.0000 1.0000
50.4800 397.0000 1.0000
50.4900 387.0000 1.0000
50.5000 419.0000 1.0000
50.5100 409.0000 1.0000
50.5200 383.0000 1.0000
50.5300 374.0000 1.0000
50.5400 409.0000 1.0000
50.5500 360.0000 1.0000
50.5600 362.0000 1.0000
50.5700 395.0000 1.0000
50.5800 387.0000 1.0000
50.5900 377.0000 1.0000
50.6000 385.0000 1.0000
50.6100 400.0000 1.0000
50.6200 374.0000 1.0000
50.6300 408.0000 1.0000
50.6400 408.0000 1.0000
50.6500 396.0000 1.0000
50.6600 353.0000 1.0000
50.6700 376.0000 1.0000
50.6800 388.0000 1.0000
50.6900 374.0000 1.0000
50.7000 400.0000 1.0000
50.7100 402.0000 1.0000
50.7200 404.0000 1.0000
50.7300 411.0000 1.0000
50.7400 376.0000 1.0000
50.7500 387.0000 1.0000
50.7600 429.0000 1.0000
50.7700 411.0000 1.0000
50.7800 402.0000 1.0000
50.7900 391.0000 1.0000
50.8000 382.0000 1.0000
50.8100 407.0000 1.0000
50.8200 409.0000 1.0000
50.8300 397.0000 1.0000
50.8400 387.0000 1.0000
50.8500 396.0000 1.0000
50.8600 393.0000 1.0000
50.8700 385.0000 1.0000
50.8800 415.0000 1.0000
50.8900 407.0000 1.0000
50.9000 395.0000 1.0000
50.9100 437.0000 1.0000
50.9200 394.0000 1.0000
50.9300 397.0000 1.0000
50.9400 408.0000 1.0000
50.9500 419.0000 1.0000
50.9600 393.0000 1.0000
50.9700 426.0000 1.0000
50.9800 419.0000 1.0000
50.9900 421.0000 1.0000
51.0000 399.0000 1.0000
51.0100 406.0000 1.0000
51.0200 409.0000 1.0000
51.0300 446.0000 1.0000
51.0400 449.0000 1.0000
51.0500 436.0000 1.0000
51.0600 410.0000 1.0000
51.0700 418.0000 1.0000
51.0800 421.0000 1.0000
51.0900 405.0000 1.0000
51.1000 457.0000 1.0000
51.1100 454.0000 1.0000
51.1200 447.0000 1.0000
51.1300 470.0000 1.0000
51.1400 470.0000 1.0000
51.1500 488.0000 1.0000
51.1600 509.0000 1.0000
51.1700 553.0000 1.0000
51.1800 508.0000 1.0000
51.1900 492.0000 1.0000
51.2000 517.0000 1.0000
51.2100 515.0000 1.0000
51.2200 549.0000 1.0000
51.2300 624.0000 1.0000
51.2400 586.0000 1.0000
51.2500 598.0000 1.0000
51.2600 634.0000 1.0000
51.2700 710.0000 1.0000
51.2800 682.0000 1.0000
51.2900 755.0000 1.0000
51.3000 754.0000 1.0000
51.3100 771.0000 1.0000
51.3200 809.0000 1.0000
51.3300 879.0000 1.0000
51.3400 891.0000 1.0000
51.3500 933.0000 1.0000
51.3600 1046.0000 1.0000
51.3700 1153.0000 1.0000
51.3800 1222.0000 1.0000
51.3900 1217.0000 1.0000
51.4000 1322.0000 1.0000
51.4100 1428.0000 1.0000
51.4200 1523.0000 1.0000
51.4300 1617.0000 1.0000
51.4400 1747.0000 1.0000
51.4500 1767.0000 1.0000
51.4600 1851.0000 1.0000
51.4700 1977.0000 1.0000
51.4800 1973.0000 1.0000
51.4900 1988.0000 1.0000
51.5000 1963.0000 1.0000
51.5100 2010.0000 1.0000
51.5200 1912.0000 1.0000
51.5300 1878.0000 1.0000
51.5400 1797.0000 1.0000
51.5500 1680.0000 1.0000
51.5600 1688.0000 1.0000
51.5700 1685.0000 1.0000
51.5800 1640.0000 1.0000
51.5900 1599.0000 1.0000
51.6000 1587.0000 1.0000
51.6100 1517.0000 1.0000
51.6200 1422.0000 1.0000
51.6300 1325.0000 1.0000
51.6400 1357.0000 1.0000
51.6500 1281.0000 1.0000
51.6600 1219.0000 1.0000
51.6700 1160.0000 1.0000
51.6800 1072.0000 1.0000
51.6900 1041.0000 1.0000
51.7000 941.0000 1.0000
51.7100 871.0000 1.0000
51.7200 832.0000 1.0000
51.7300 796.0000 1.0000
51.7400 732.0000 1.0000
51.7500 721.0000 1.0000
51.7600 695.0000 1.0000
51.7700 678.0000 1.0000
51.7800 670.0000 1.0000
51.7900 635.0000 1.0000
51.8000 592.0000 1.0000
51.8100 609.0000 1.0000
51.8200 556.0000 1.0000
51.8300 561.0000 1.0000
51.8400 570.0000 1.0000
51.8500 541.0000 1.0000
51.8600 531.0000 1.0000
51.8700 484.0000 1.0000
51.8800 493.0000 1.0000
51.8900 441.0000 1.0000
51.9000 480.0000 1.0000
51.9100 489.0000 1.0000
51.9200 468.0000 1.0000
51.9300 476.0000 1.0000
51.9400 444.0000 1.0000
51.9500 442.0000 1.0000
51.9600 418.0000 1.0000
51.9700 460.0000 1.0000
51.9800 412.0000 1.0000
51.9900 450.0000 1.0000
52.0000 446.0000 1.0000
52.0100 430.0000 1.0000
52.0200 400.0000 1.0000
52.0300 404.0000 1.0000
52.0400 436.0000 1.0000
52.0500 407.0000 1.0000
52.0600 424.0000 1.0000
52.0700 423.0000 1.0000
52.0800 413.0000 1.0000
52.0900 431.0000 1.0000
52.1000 403.0000 1.0000
52.1100 424.0000 1.0000
52.1200 394.0000 1.0000
52.1300 405.0000 1.0000
52.1400 394.0000 1.0000
52.1500 346.0000 1.0000
52.1600 387.0000 1.0000
52.1700 413.0000 1.0000
52.1800 424.0000 1.0000
52.1900 381.0000 1.0000
52.2000 388.0000 1.0000
52.2100 414.0000 1.0000
52.2200 413.0000 1.0000
52.2300 394.0000 1.0000
52.2400 404.0000 1.0000
52.2500 418.0000 1.0000
52.2600 378.0000 1.0000
52.2700 360.0000 1.0000
52.2800 380.0000 1.0000
52.2900 426.0000 1.0000
52.3000 384.0000 1.0000
52.3100 405.0000 1.0000
52.3200 397.0000 1.0000
52.3300 368.0000 1.0000
52.3400 384.0000 1.0000
52.3500 392.0000 1.0000
52.3600 388.0000 1.0000
52.3700 396.0000 1.0000
52.3800 402.0000 1.0000
52.3900 392.0000 1.0000
52.4000 394.0000 1.0000
52.4100 439.0000 1.0000
52.4200 379.0000 1.0000
52.4300 347.0000 1.0000
52.4400 389.0000 1.0000
52.4500 386.0000 1.0000
52.4600 385.0000 1.0000
52.4700 391.0000 1.0000
52.4800 416.0000 1.0000
52.4900 387.0000 1.0000
52.5000 398.0000 1.0000
52.5100 384.0000 1.0000
52.5200 391.0000 1.0000
52.5300 397.0000 1.0000
52.5400 384.0000 1.0000
52.5500 374.0000 1.0000
52.5600 387.0000 1.0000
52.5700 351.0000 1.0000
52.5800 368.0000 1.0000
52.5900 382.0000 1.0000
52.6000 365.0000 1.0000
52.6100 362.0000 1.0000
52.6200 352.0000 1.0000
52.6300 396.0000 1.0000
52.6400 386.0000 1.0000
52.6500 354.0000 1.0000
52.6600 360.0000 1.0000
52.6700 371.0000 1.0000
52.6800 367.0000 1.0000
52.6900 413.0000 1.0000
52.7000 392.0000 1.0000
52.7100 384.0000 1.0000
52.7200 392.0000 1.0000
52.7300 369.0000 1.0000
52.7400 362.0000 1.0000
52.7500 385.0000 1.0000
52.7600 369.0000 1.0000
52.7700 382.0000 1.0000
52.7800 404.0000 1.0000
52.7900 380.0000 1.0000
52.8000 382.0000 1.0000
52.8100 348.0000 1.0000
52.8200 409.0000 1.0000
52.8300 356.0000 1.0000
52.8400 410.0000 1.0000
52.8500 387.0000 1.0000
52.8600 364.0000 1.0000
52.8700 366.0000 1.0000
52.8800 362.0000 1.0000
52.8900 361.0000 1.0000
52.9000 354.0000 1.0000
52.9100 405.0000 1.0000
52.9200 394.0000 1.0000
52.9300 358.0000 1.0000
52.9400 374.0000 1.0000
52.9500 354.0000 1.0000
52.9600 365.0000 1.0000
52.9700 357.0000 1.0000
52.9800 356.0000 1.0000
52.9900 374.0000 1.0000
53.0000 376.0000 1.0000
53.0100 399.0000 1.0000
53.0200 374.0000 1.0000
53.0300 374.0000 1.0000
53.0400 380.0000 1.0000
53.0500 361.0000 1.0000
53.0600 371.0000 1.0000
53.0700 358.0000 1.0000
53.0800 362.0000 1.0000
53.0900 378.0000 1.0000
53.1000 352.0000 1.0000
53.1100 372.0000 1.0000
53.1200 381.0000 1.0000
53.1300 367.0000 1.0000
53.1400 368.0000 1.0000
53.1500 391.0000 1.0000
53.1600 383.0000 1.0000
53.1700 406.0000 1.0000
53.1800 388.0000 1.0000
53.1900 392.0000 1.0000
53.2000 354.0000 1.0000
53.2100 382.0000 1.0000
53.2200 396.0000 1.0000
53.2300 393.0000 1.0000
53.2400 374.0000 1.0000
53.2500 354.0000 1.0000
53.2600 354.0000 1.0000
53.2700 378.0000 1.0000
53.2800 370.0000 1.0000
53.2900 382.0000 1.0000
53.3000 355.0000 1.0000
53.3100 366.0000 1.0000
53.3200 395.0000 1.0000
53.3300 367.0000 1.0000
53.3400 361.0000 1.0000
53.3500 368.0000 1.0000
53.3600 377.0000 1.0000
53.3700 372.0000 1.0000
53.3800 369.0000 1.0000
53.3900 398.0000 1.0000
53.4000 354.0000 1.0000
53.4100 361.0000 1.0000
53.4200 397.0000 1.0000
53.4300 378.0000 1.0000
53.4400 388.0000 1.0000
53.4500 359.0000 1.0000
53.4600 353.0000 1.0000
53.4700 345.0000 1.0000
53.4800 392.0000 1.0000
53.4900 364.0000 1.0000
53.5000 374.0000 1.0000
53.5100 403.0000 1.0000
53.5200 381.0000 1.0000
53.5300 371.0000 1.0000
53.5400 367.0000 1.0000
53.5500 364.0000 1.0000
53.5600 364.0000 1.0000
53.5700 388.0000 1.0000
53.5800 380.0000 1.0000
53.5900 394.0000 1.0000
53.6000 353.0000 1.0000
53.6100 375.0000 1.0000
53.6200 372.0000 1.0000
53.6300 356.0000 1.0000
53.6400 374.0000 1.0000
53.6500 337.0000 1.0000
53.6600 341.0000 1.0000
53.6700 353.0000 1.0000
53.6800 362.0000 1.0000
53.6900 347.0000 1.0000
53.7000 363.0000 1.0000
53.7100 342.0000 1.0000
53.7200 386.0000 1.0000
53.7300 378.0000 1.0000
53.7400 372.0000 1.0000
53.7500 355.0000 1.0000
53.7600 372.0000 1.0000
53.7700 369.0000 1.0000
53.7800 403.0000 1.0000
53.7900 391.0000 1.0000
53.8000 395.0000 1.0000
53.8100 370.0000 1.0000
53.8200 355.0000 1.0000
53.8300 377.0000 1.0000
53.8400 359.0000 1.0000
53.8500 403.0000 1.0000
53.8600 369.0000 1.0000
53.8700 336.0000 1.0000
53.8800 384.0000 1.0000
53.8900 410.0000 1.0000
53.9000 410.0000 1.0000
53.9100 392.0000 1.0000
53.9200 366.0000 1.0000
53.9300 387.0000 1.0000
53.9400 395.0000 1.0000
53.9500 416.0000 1.0000
53.9600 431.0000 1.0000
53.9700 421.0000 1.0000
53.9800 404.0000 1.0000
53.9900 424.0000 1.0000
54.0000 414.0000 1.0000
54.0100 439.0000 1.0000
54.0200 455.0000 1.0000
54.0300 428.0000 1.0000
54.0400 403.0000 1.0000
54.0500 433.0000 1.0000
54.0600 432.0000 1.0000
54.0700 407.0000 1.0000
54.0800 399.0000 1.0000
54.0900 439.0000 1.0000
54.1000 410.0000 1.0000
54.1100 410.0000 1.0000
54.1200 402.0000 1.0000
54.1300 416.0000 1.0000
54.1400 400.0000 1.0000
54.1500 406.0000 1.0000
54.1600 414.0000 1.0000
54.1700 406.0000 1.0000
54.1800 413.0000 1.0000
54.1900 403.0000 1.0000
54.2000 429.0000 1.0000
54.2100 424.0000 1.0000
54.2200 409.0000 1.0000
54.2300 435.0000 1.0000
54.2400 378.0000 1.0000
54.2500 395.0000 1.0000
54.2600 380.0000 1.0000
54.2700 396.0000 1.0000
54.2800 410.0000 1.0000
54.2900 417.0000 1.0000
54.3000 403.0000 1.0000
54.3100 396.0000 1.0000
54.3200 436.0000 1.0000
54.3300 411.0000 1.0000
54.3400 463.0000 1.0000
54.3500 409.0000 1.0000
54.3600 416.0000 1.0000
54.3700 449.0000 1.0000
54.3800 460.0000 1.0000
54.3900 448.0000 1.0000
54.4000 433.0000 1.0000
54.4100 487.0000 1.0000
54.4200 454.0000 1.0000
54.4300 468.0000 1.0000
54.4400 449.0000 1.0000
54.4500 465.0000 1.0000
54.4600 508.0000 1.0000
54.4700 479.0000 1.0000
54.4800 517.0000 1.0000
54.4900 546.0000 1.0000
54.5000 535.0000 1.0000
54.5100 505.0000 1.0000
54.5200 532.0000 1.0000
54.5300 509.0000 1.0000
54.5400 499.0000 1.0000
54.5500 544.0000 1.0000
54.5600 487.0000 1.0000
54.5700 482.0000 1.0000
54.5800 498.0000 1.0000
54.5900 508.0000 1.0000
54.6000 504.0000 1.0000
54.6100 485.0000 1.0000
54.6200 453.0000 1.0000
54.6300 450.0000 1.0000
54.6400 440.0000 1.0000
54.6500 470.0000 1.0000
54.6600 479.0000 1.0000
54.6700 463.0000 1.0000
54.6800 450.0000 1.0000
54.6900 477.0000 1.0000
54.7000 473.0000 1.0000
54.7100 456.0000 1.0000
54.7200 445.0000 1.0000
54.7300 403.0000 1.0000
54.7400 414.0000 1.0000
54.7500 408.0000 1.0000
54.7600 444.0000 1.0000
54.7700 427.0000 1.0000
54.7800 409.0000 1.0000
54.7900 393.0000 1.0000
54.8000 393.0000 1.0000
54.8100 378.0000 1.0000
54.8200 398.0000 1.0000
54.8300 380.0000 1.0000
54.8400 401.0000 1.0000
54.8500 356.0000 1.0000
54.8600 358.0000 1.0000
54.8700 366.0000 1.0000
54.8800 389.0000 1.0000
54.8900 389.0000 1.0000
54.9000 367.0000 1.0000
54.9100 430.0000 1.0000
54.9200 360.0000 1.0000
54.9300 384.0000 1.0000
54.9400 382.0000 1.0000
54.9500 364.0000 1.0000
54.9600 402.0000 1.0000
54.9700 377.0000 1.0000
54.9800 358.0000 1.0000
54.9900 393.0000 1.0000
55.0000 400.0000 1.0000
55.0100 398.0000 1.0000
55.0200 382.0000 1.0000
55.0300 359.0000 1.0000
55.0400 395.0000 1.0000
55.0500 387.0000 1.0000
55.0600 379.0000 1.0000
55.0700 344.0000 1.0000
55.0800 399.0000 1.0000
55.0900 367.0000 1.0000
55.1000 323.0000 1.0000
55.1100 389.0000 1.0000
55.1200 386.0000 1.0000
55.1300 377.0000 1.0000
55.1400 357.0000 1.0000
55.1500 338.0000 1.0000
55.1600 333.0000 1.0000
55.1700 371.0000 1.0000
55.1800 379.0000 1.0000
55.1900 378.0000 1.0000
55.2000 382.0000 1.0000
55.2100 376.0000 1.0000
55.2200 349.0000 1.0000
55.2300 371.0000 1.0000
55.2400 347.0000 1.0000
55.2500 354.0000 1.0000
55.2600 346.0000 1.0000
55.2700 337.0000 1.0000
55.2800 377.0000 1.0000
55.2900 382.0000 1.0000
55.3000 386.0000 1.0000
55.3100 352.0000 1.0000
55.3200 380.0000 1.0000
55.3300 364.0000 1.0000
55.3400 370.0000 1.0000
55.3500 382.0000 1.0000
55.3600 388.0000 1.0000
55.3700 374.0000 1.0000
55.3800 366.0000 1.0000
55.3900 343.0000 1.0000
55.4000 340.0000 1.0000
55.4100 368.0000 1.0000
55.4200 396.0000 1.0000
55.4300 382.0000 1.0000
55.4400 358.0000 1.0000
55.4500 350.0000 1.0000
55.4600 334.0000 1.0000
55.4700 338.0000 1.0000
55.4800 395.0000 1.0000
55.4900 359.0000 1.0000
55.5000 346.0000 1.0000
55.5100 344.0000 1.0000
55.5200 354.0000 1.0000
55.5300 367.0000 1.0000
55.5400 391.0000 1.0000
55.5500 341.0000 1.0000
55.5600 346.0000 1.0000
55.5700 350.0000 1.0000
55.5800 329.0000 1.0000
55.5900 364.0000 1.0000
55.6000 347.0000 1.0000
55.6100 378.0000 1.0000
55.6200 357.0000 1.0000
55.6300 361.0000 1.0000
55.6400 353.0000 1.0000
55.6500 340.0000 1.0000
55.6600 359.0000 1.0000
55.6700 339.0000 1.0000
55.6800 378.0000 1.0000
55.6900 334.0000 1.0000
55.7000 364.0000 1.0000
55.7100 319.0000 1.0000
55.7200 351.0000 1.0000
55.7300 359.0000 1.0000
55.7400 372.0000 1.0000
55.7500 374.0000 1.0000
55.7600 351.0000 1.0000
55.7700 340.0000 1.0000
55.7800 359.0000 1.0000
55.7900 344.0000 1.0000
55.8000 373.0000 1.0000
55.8100 377.0000 1.0000
55.8200 349.0000 1.0000
55.8300 363.0000 1.0000
55.8400 389.0000 1.0000
55.8500 334.0000 1.0000
55.8600 346.0000 1.0000
55.8700 375.0000 1.0000
55.8800 374.0000 1.0000
55.8900 330.0000 1.0000
55.9000 345.0000 1.0000
55.9100 344.0000 1.0000
55.9200 355.0000 1.0000
55.9300 338.0000 1.0000
55.9400 356.0000 1.0000
55.9500 348.0000 1.0000
55.9600 345.0000 1.0000
55.9700 357.0000 1.0000
55.9800 370.0000 1.0000
55.9900 350.0000 1.0000
56.0000 336.0000 1.0000
56.0100 387.0000 1.0000
56.0200 384.0000 1.0000
56.0300 353.0000 1.0000
56.0400 396.0000 1.0000
56.0500 344.0000 1.0000
56.0600 347.0000 1.0000
56.0700 354.0000 1.0000
56.0800 358.0000 1.0000
56.0900 385.0000 1.0000
56.1000 373.0000 1.0000
56.1100 386.0000 1.0000
56.1200 367.0000 1.0000
56.1300 366.0000 1.0000
56.1400 340.0000 1.0000
56.1500 353.0000 1.0000
56.1600 402.0000 1.0000
56.1700 349.0000 1.0000
56.1800 339.0000 1.0000
56.1900 370.0000 1.0000
56.2000 365.0000 1.0000
56.2100 381.0000 1.0000
56.2200 373.0000 1.0000
56.2300 335.0000 1.0000
56.2400 371.0000 1.0000
56.2500 354.0000 1.0000
56.2600 385.0000 1.0000
56.2700 361.0000 1.0000
56.2800 358.0000 1.0000
56.2900 348.0000 1.0000
56.3000 344.0000 1.0000
56.3100 366.0000 1.0000
56.3200 336.0000 1.0000
56.3300 325.0000 1.0000
56.3400 335.0000 1.0000
56.3500 339.0000 1.0000
56.3600 361.0000 1.0000
56.3700 358.0000 1.0000
56.3800 366.0000 1.0000
56.3900 390.0000 1.0000
56.4000 342.0000 1.0000
56.4100 385.0000 1.0000
56.4200 346.0000 1.0000
56.4300 338.0000 1.0000
56.4400 320.0000 1.0000
56.4500 325.0000 1.0000
56.4600 370.0000 1.0000
56.4700 350.0000 1.0000
56.4800 375.0000 1.0000
56.4900 367.0000 1.0000
56.5000 336.0000 1.0000
56.5100 350.0000 1.0000
56.5200 371.0000 1.0000
56.5300 369.0000 1.0000
56.5400 356.0000 1.0000
56.5500 349.0000 1.0000
56.5600 333.0000 1.0000
56.5700 373.0000 1.0000
56.5800 350.0000 1.0000
56.5900 355.0000 1.0000
56.6000 347.0000 1.0000
56.6100 350.0000 1.0000
56.6200 340.0000 1.0000
56.6300 344.0000 1.0000
56.6400 348.0000 1.0000
56.6500 375.0000 1.0000
56.6600 382.0000 1.0000
56.6700 358.0000 1.0000
56.6800 358.0000 1.0000
56.6900 311.0000 1.0000
56.7000 350.0000 1.0000
56.7100 337.0000 1.0000
56.7200 361.0000 1.0000
56.7300 347.0000 1.0000
56.7400 334.0000 1.0000
56.7500 371.0000 1.0000
56.7600 342.0000 1.0000
56.7700 355.0000 1.0000
56.7800 344.0000 1.0000
56.7900 370.0000 1.0000
56.8000 379.0000 1.0000
56.8100 375.0000 1.0000
56.8200 329.0000 1.0000
56.8300 331.0000 1.0000
56.8400 306.0000 1.0000
56.8500 373.0000 1.0000
56.8600 373.0000 1.0000
56.8700 345.0000 1.0000
56.8800 338.0000 1.0000
56.8900 321.0000 1.0000
56.9000 378.0000 1.0000
56.9100 357.0000 1.0000
56.9200 343.0000 1.0000
56.9300 393.0000 1.0000
56.9400 327.0000 1.0000
56.9500 359.0000 1.0000
56.9600 345.0000 1.0000
56.9700 335.0000 1.0000
56.9800 349.0000 1.0000
56.9900 344.0000 1.0000
57.0000 351.0000 1.0000
57.0100 337.0000 1.0000
57.0200 345.0000 1.0000
57.0300 342.0000 1.0000
57.0400 333.0000 1.0000
57.0500 325.0000 1.0000
57.0600 341.0000 1.0000
57.0700 393.0000 1.0000
57.0800 327.0000 1.0000
57.0900 366.0000 1.0000
57.1000 355.0000 1.0000
57.1100 382.0000 1.0000
57.1200 368.0000 1.0000
57.1300 396.0000 1.0000
57.1400 358.0000 1.0000
57.1500 335.0000 1.0000
57.1600 349.0000 1.0000
57.1700 361.0000 1.0000
57.1800 387.0000 1.0000
57.1900 373.0000 1.0000
57.2000 347.0000 1.0000
57.2100 332.0000 1.0000
57.2200 353.0000 1.0000
57.2300 352.0000 1.0000
57.2400 339.0000 1.0000
57.2500 387.0000 1.0000
57.2600 354.0000 1.0000
57.2700 386.0000 1.0000
57.2800 380.0000 1.0000
57.2900 351.0000 1.0000
57.3000 353.0000 1.0000
57.3100 342.0000 1.0000
57.3200 383.0000 1.0000
57.3300 399.0000 1.0000
57.3400 356.0000 1.0000
57.3500 372.0000 1.0000
57.3600 352.0000 1.0000
57.3700 348.0000 1.0000
57.3800 360.0000 1.0000
57.3900 356.0000 1.0000
57.4000 378.0000 1.0000
57.4100 379.0000 1.0000
57.4200 387.0000 1.0000
57.4300 357.0000 1.0000
57.4400 356.0000 1.0000
57.4500 370.0000 1.0000
57.4600 367.0000 1.0000
57.4700 356.0000 1.0000
57.4800 376.0000 1.0000
57.4900 371.0000 1.0000
57.5000 392.0000 1.0000
57.5100 380.0000 1.0000
57.5200 332.0000 1.0000
57.5300 370.0000 1.0000
57.5400 388.0000 1.0000
57.5500 376.0000 1.0000
57.5600 357.0000 1.0000
57.5700 376.0000 1.0000
57.5800 370.0000 1.0000
57.5900 362.0000 1.0000
57.6000 362.0000 1.0000
57.6100 345.0000 1.0000
57.6200 345.0000 1.0000
57.6300 356.0000 1.0000
57.6400 368.0000 1.0000
57.6500 382.0000 1.0000
57.6600 384.0000 1.0000
57.6700 334.0000 1.0000
57.6800 341.0000 1.0000
57.6900 395.0000 1.0000
57.7000 392.0000 1.0000
57.7100 377.0000 1.0000
57.7200 382.0000 1.0000
57.7300 364.0000 1.0000
57.7400 338.0000 1.0000
57.7500 357.0000 1.0000
57.7600 351.0000 1.0000
57.7700 379.0000 1.0000
57.7800 350.0000 1.0000
57.7900 355.0000 1.0000
57.8000 372.0000 1.0000
57.8100 358.0000 1.0000
57.8200 360.0000 1.0000
57.8300 342.0000 1.0000
57.8400 357.0000 1.0000
57.8500 326.0000 1.0000
57.8600 348.0000 1.0000
57.8700 347.0000 1.0000
57.8800 357.0000 1.0000
57.8900 339.0000 1.0000
57.9000 362.0000 1.0000
57.9100 338.0000 1.0000
57.9200 372.0000 1.0000
57.9300 357.0000 1.0000
57.9400 348.0000 1.0000
57.9500 351.0000 1.0000
57.9600 378.0000 1.0000
57.9700 364.0000 1.0000
57.9800 373.0000 1.0000
57.9900 342.0000 1.0000
58.0000 333.0000 1.0000
58.0100 350.0000 1.0000
58.0200 321.0000 1.0000
58.0300 366.0000 1.0000
58.0400 341.0000 1.0000
58.0500 341.0000 1.0000
58.0600 383.0000 1.0000
58.0700 364.0000 1.0000
58.0800 315.0000 1.0000
58.0900 345.0000 1.0000
58.1000 315.0000 1.0000
58.1100 334.0000 1.0000
58.1200 336.0000 1.0000
58.1300 372.0000 1.0000
58.1400 369.0000 1.0000
58.1500 355.0000 1.0000
58.1600 378.0000 1.0000
58.1700 357.0000 1.0000
58.1800 377.0000 1.0000
58.1900 339.0000 1.0000
58.2000 342.0000 1.0000
58.2100 343.0000 1.0000
58.2200 348.0000 1.0000
58.2300 333.0000 1.0000
58.2400 372.0000 1.0000
58.2500 377.0000 1.0000
58.2600 377.0000 1.0000
58.2700 352.0000 1.0000
58.2800 352.0000 1.0000
58.2900 338.0000 1.0000
58.3000 359.0000 1.0000
58.3100 354.0000 1.0000
58.3200 353.0000 1.0000
58.3300 345.0000 1.0000
58.3400 325.0000 1.0000
58.3500 361.0000 1.0000
58.3600 361.0000 1.0000
58.3700 342.0000 1.0000
58.3800 354.0000 1.0000
58.3900 348.0000 1.0000
58.4000 379.0000 1.0000
58.4100 336.0000 1.0000
58.4200 352.0000 1.0000
58.4300 317.0000 1.0000
58.4400 367.0000 1.0000
58.4500 332.0000 1.0000
58.4600 325.0000 1.0000
58.4700 361.0000 1.0000
58.4800 347.0000 1.0000
58.4900 346.0000 1.0000
58.5000 335.0000 1.0000
58.5100 352.0000 1.0000
58.5200 353.0000 1.0000
58.5300 326.0000 1.0000
58.5400 341.0000 1.0000
58.5500 360.0000 1.0000
58.5600 355.0000 1.0000
58.5700 351.0000 1.0000
58.5800 349.0000 1.0000
58.5900 326.0000 1.0000
58.6000 317.0000 1.0000
58.6100 327.0000 1.0000
58.6200 345.0000 1.0000
58.6300 365.0000 1.0000
58.6400 380.0000 1.0000
58.6500 372.0000 1.0000
58.6600 339.0000 1.0000
58.6700 341.0000 1.0000
58.6800 350.0000 1.0000
58.6900 370.0000 1.0000
58.7000 379.0000 1.0000
58.7100 318.0000 1.0000
58.7200 332.0000 1.0000
58.7300 341.0000 1.0000
58.7400 369.0000 1.0000
58.7500 339.0000 1.0000
58.7600 342.0000 1.0000
58.7700 372.0000 1.0000
58.7800 357.0000 1.0000
58.7900 337.0000 1.0000
58.8000 328.0000 1.0000
58.8100 359.0000 1.0000
58.8200 341.0000 1.0000
58.8300 325.0000 1.0000
58.8400 335.0000 1.0000
58.8500 375.0000 1.0000
58.8600 358.0000 1.0000
58.8700 340.0000 1.0000
58.8800 340.0000 1.0000
58.8900 358.0000 1.0000
58.9000 346.0000 1.0000
58.9100 337.0000 1.0000
58.9200 354.0000 1.0000
58.9300 352.0000 1.0000
58.9400 356.0000 1.0000
58.9500 341.0000 1.0000
58.9600 327.0000 1.0000
58.9700 333.0000 1.0000
58.9800 334.0000 1.0000
58.9900 338.0000 1.0000
59.0000 340.0000 1.0000
59.0100 340.0000 1.0000
59.0200 336.0000 1.0000
59.0300 336.0000 1.0000
59.0400 338.0000 1.0000
59.0500 339.0000 1.0000
59.0600 337.0000 1.0000
59.0700 359.0000 1.0000
59.0800 345.0000 1.0000
59.0900 367.0000 1.0000
59.1000 372.0000 1.0000
59.1100 361.0000 1.0000
59.1200 346.0000 1.0000
59.1300 346.0000 1.0000
59.1400 354.0000 1.0000
59.1500 355.0000 1.0000
59.1600 348.0000 1.0000
59.1700 369.0000 1.0000
59.1800 331.0000 1.0000
59.1900 369.0000 1.0000
59.2000 337.0000 1.0000
59.2100 303.0000 1.0000
59.2200 359.0000 1.0000
59.2300 369.0000 1.0000
59.2400 346.0000 1.0000
59.2500 376.0000 1.0000
59.2600 351.0000 1.0000
59.2700 362.0000 1.0000
59.2800 366.0000 1.0000
59.2900 342.0000 1.0000
59.3000 360.0000 1.0000
59.3100 355.0000 1.0000
59.3200 352.0000 1.0000
59.3300 326.0000 1.0000
59.3400 340.0000 1.0000
59.3500 322.0000 1.0000
59.3600 328.0000 1.0000
59.3700 354.0000 1.0000
59.3800 362.0000 1.0000
59.3900 343.0000 1.0000
59.4000 328.0000 1.0000
59.4100 327.0000 1.0000
59.4200 386.0000 1.0000
59.4300 355.0000 1.0000
59.4400 333.0000 1.0000
59.4500 365.0000 1.0000
59.4600 352.0000 1.0000
59.4700 344.0000 1.0000
59.4800 340.0000 1.0000
59.4900 341.0000 1.0000
59.5000 333.0000 1.0000
59.5100 402.0000 1.0000
59.5200 337.0000 1.0000
59.5300 345.0000 1.0000
59.5400 336.0000 1.0000
59.5500 342.0000 1.0000
59.5600 336.0000 1.0000
59.5700 371.0000 1.0000
59.5800 362.0000 1.0000
59.5900 361.0000 1.0000
59.6000 359.0000 1.0000
59.6100 366.0000 1.0000
59.6200 383.0000 1.0000
59.6300 302.0000 1.0000
59.6400 339.0000 1.0000
59.6500 324.0000 1.0000
59.6600 340.0000 1.0000
59.6700 349.0000 1.0000
59.6800 345.0000 1.0000
59.6900 344.0000 1.0000
59.7000 335.0000 1.0000
59.7100 359.0000 1.0000
59.7200 359.0000 1.0000
59.7300 344.0000 1.0000
59.7400 318.0000 1.0000
59.7500 344.0000 1.0000
59.7600 346.0000 1.0000
59.7700 326.0000 1.0000
59.7800 327.0000 1.0000
59.7900 340.0000 1.0000
59.8000 349.0000 1.0000
59.8100 335.0000 1.0000
59.8200 352.0000 1.0000
59.8300 343.0000 1.0000
59.8400 337.0000 1.0000
59.8500 306.0000 1.0000
59.8600 344.0000 1.0000
59.8700 347.0000 1.0000
59.8800 337.0000 1.0000
59.8900 319.0000 1.0000
59.9000 318.0000 1.0000
59.9100 343.0000 1.0000
59.9200 342.0000 1.0000
59.9300 356.0000 1.0000
59.9400 364.0000 1.0000
59.9500 355.0000 1.0000
59.9600 381.0000 1.0000
59.9700 350.0000 1.0000
59.9800 328.0000 1.0000
59.9900 356.0000 1.0000
60.0000 356.0000 1.0000
60.0100 367.0000 1.0000
60.0200 348.0000 1.0000
60.0300 345.0000 1.0000
60.0400 332.0000 1.0000
60.0500 350.0000 1.0000
60.0600 328.0000 1.0000
60.0700 322.0000 1.0000
60.0800 322.0000 1.0000
60.0900 327.0000 1.0000
60.1000 307.0000 1.0000
60.1100 331.0000 1.0000
60.1200 338.0000 1.0000
60.1300 304.0000 1.0000
60.1400 359.0000 1.0000
60.1500 375.0000 1.0000
60.1600 353.0000 1.0000
60.1700 320.0000 1.0000
60.1800 341.0000 1.0000
60.1900 354.0000 1.0000
60.2000 349.0000 1.0000
60.2100 358.0000 1.0000
60.2200 326.0000 1.0000
60.2300 342.0000 1.0000
60.2400 340.0000 1.0000
60.2500 323.0000 1.0000
60.2600 312.0000 1.0000
60.2700 352.0000 1.0000
60.2800 331.0000 1.0000
60.2900 342.0000 1.0000
60.3000 361.0000 1.0000
60.3100 365.0000 1.0000
60.3200 359.0000 1.0000
60.3300 351.0000 1.0000
60.3400 339.0000 1.0000
60.3500 330.0000 1.0000
60.3600 326.0000 1.0000
60.3700 365.0000 1.0000
60.3800 346.0000 1.0000
60.3900 336.0000 1.0000
60.4000 355.0000 1.0000
60.4100 323.0000 1.0000
60.4200 365.0000 1.0000
60.4300 344.0000 1.0000
60.4400 358.0000 1.0000
60.4500 331.0000 1.0000
60.4600 356.0000 1.0000
60.4700 345.0000 1.0000
60.4800 335.0000 1.0000
60.4900 353.0000 1.0000
60.5000 387.0000 1.0000
60.5100 362.0000 1.0000
60.5200 352.0000 1.0000
60.5300 353.0000 1.0000
60.5400 392.0000 1.0000
60.5500 333.0000 1.0000
60.5600 328.0000 1.0000
60.5700 361.0000 1.0000
60.5800 316.0000 1.0000
60.5900 363.0000 1.0000
60.6000 349.0000 1.0000
60.6100 367.0000 1.0000
60.6200 386.0000 1.0000
60.6300 362.0000 1.0000
60.6400 358.0000 1.0000
60.6500 373.0000 1.0000
60.6600 357.0000 1.0000
60.6700 328.0000 1.0000
60.6800 340.0000 1.0000
60.6900 351.0000 1.0000
60.7000 357.0000 1.0000
60.7100 352.0000 1.0000
60.7200 330.0000 1.0000
60.7300 324.0000 1.0000
60.7400 338.0000 1.0000
60.7500 349.0000 1.0000
60.7600 330.0000 1.0000
60.7700 353.0000 1.0000
60.7800 359.0000 1.0000
60.7900 362.0000 1.0000
60.8000 363.0000 1.0000
60.8100 356.0000 1.0000
60.8200 364.0000 1.0000
60.8300 361.0000 1.0000
60.8400 350.0000 1.0000
60.8500 332.0000 1.0000
60.8600 310.0000 1.0000
60.8700 343.0000 1.0000
60.8800 375.0000 1.0000
60.8900 340.0000 1.0000
60.9000 363.0000 1.0000
60.9100 352.0000 1.0000
60.9200 370.0000 1.0000
60.9300 345.0000 1.0000
60.9400 352.0000 1.0000
60.9500 344.0000 1.0000
60.9600 333.0000 1.0000
60.9700 336.0000 1.0000
60.9800 335.0000 1.0000
60.9900 360.0000 1.0000
61.0000 344.0000 1.0000
61.0100 371.0000 1.0000
61.0200 357.0000 1.0000
61.0300 359.0000 1.0000
61.0400 367.0000 1.0000
61.0500 392.0000 1.0000
61.0600 347.0000 1.0000
61.0700 384.0000 1.0000
61.0800 351.0000 1.0000
61.0900 370.0000 1.0000
61.1000 363.0000 1.0000
61.1100 357.0000 1.0000
61.1200 357.0000 1.0000
61.1300 358.0000 1.0000
61.1400 368.0000 1.0000
61.1500 369.0000 1.0000
61.1600 393.0000 1.0000
61.1700 379.0000 1.0000
61.1800 372.0000 1.0000
61.1900 357.0000 1.0000
61.2000 376.0000 1.0000
61.2100 367.0000 1.0000
61.2200 413.0000 1.0000
61.2300 391.0000 1.0000
61.2400 406.0000 1.0000
61.2500 390.0000 1.0000
61.2600 393.0000 1.0000
61.2700 420.0000 1.0000
61.2800 435.0000 1.0000
61.2900 465.0000 1.0000
61.3000 419.0000 1.0000
61.3100 438.0000 1.0000
61.3200 422.0000 1.0000
61.3300 412.0000 1.0000
61.3400 455.0000 1.0000
61.3500 480.0000 1.0000
61.3600 469.0000 1.0000
61.3700 470.0000 1.0000
61.3800 547.0000 1.0000
61.3900 520.0000 1.0000
61.4000 519.0000 1.0000
61.4100 537.0000 1.0000
61.4200 558.0000 1.0000
61.4300 535.0000 1.0000
61.4400 575.0000 1.0000
61.4500 562.0000 1.0000
61.4600 573.0000 1.0000
61.4700 589.0000 1.0000
61.4800 617.0000 1.0000
61.4900 608.0000 1.0000
61.5000 618.0000 1.0000
61.5100 638.0000 1.0000
61.5200 593.0000 1.0000
61.5300 604.0000 1.0000
61.5400 592.0000 1.0000
61.5500 620.0000 1.0000
61.5600 595.0000 1.0000
61.5700 653.0000 1.0000
61.5800 655.0000 1.0000
61.5900 647.0000 1.0000
61.6000 593.0000 1.0000
61.6100 617.0000 1.0000
61.6200 601.0000 1.0000
61.6300 613.0000 1.0000
61.6400 578.0000 1.0000
61.6500 626.0000 1.0000
61.6600 581.0000 1.0000
61.6700 573.0000 1.0000
61.6800 561.0000 1.0000
61.6900 535.0000 1.0000
61.7000 532.0000 1.0000
61.7100 571.0000 1.0000
61.7200 560.0000 1.0000
61.7300 566.0000 1.0000
61.7400 559.0000 1.0000
61.7500 541.0000 1.0000
61.7600 525.0000 1.0000
61.7700 543.0000 1.0000
61.7800 486.0000 1.0000
61.7900 515.0000 1.0000
61.8000 486.0000 1.0000
61.8100 432.0000 1.0000
61.8200 471.0000 1.0000
61.8300 464.0000 1.0000
61.8400 438.0000 1.0000
61.8500 419.0000 1.0000
61.8600 456.0000 1.0000
61.8700 445.0000 1.0000
61.8800 433.0000 1.0000
61.8900 426.0000 1.0000
61.9000 415.0000 1.0000
61.9100 427.0000 1.0000
61.9200 412.0000 1.0000
61.9300 410.0000 1.0000
61.9400 375.0000 1.0000
61.9500 405.0000 1.0000
61.9600 417.0000 1.0000
61.9700 386.0000 1.0000
61.9800 436.0000 1.0000
61.9900 416.0000 1.0000
62.0000 379.0000 1.0000
62.0100 412.0000 1.0000
62.0200 382.0000 1.0000
62.0300 366.0000 1.0000
62.0400 378.0000 1.0000
62.0500 353.0000 1.0000
62.0600 372.0000 1.0000
62.0700 359.0000 1.0000
62.0800 360.0000 1.0000
62.0900 354.0000 1.0000
62.1000 356.0000 1.0000
62.1100 375.0000 1.0000
62.1200 387.0000 1.0000
62.1300 374.0000 1.0000
62.1400 349.0000 1.0000
62.1500 361.0000 1.0000
62.1600 362.0000 1.0000
62.1700 391.0000 1.0000
62.1800 365.0000 1.0000
62.1900 342.0000 1.0000
62.2000 348.0000 1.0000
62.2100 352.0000 1.0000
62.2200 360.0000 1.0000
62.2300 391.0000 1.0000
62.2400 375.0000 1.0000
62.2500 381.0000 1.0000
62.2600 407.0000 1.0000
62.2700 369.0000 1.0000
62.2800 412.0000 1.0000
62.2900 382.0000 1.0000
62.3000 398.0000 1.0000
62.3100 374.0000 1.0000
62.3200 421.0000 1.0000
62.3300 375.0000 1.0000
62.3400 404.0000 1.0000
62.3500 387.0000 1.0000
62.3600 430.0000 1.0000
62.3700 377.0000 1.0000
62.3800 419.0000 1.0000
62.3900 412.0000 1.0000
62.4000 414.0000 1.0000
62.4100 416.0000 1.0000
62.4200 396.0000 1.0000
62.4300 399.0000 1.0000
62.4400 399.0000 1.0000
62.4500 411.0000 1.0000
62.4600 397.0000 1.0000
62.4700 383.0000 1.0000
62.4800 382.0000 1.0000
62.4900 343.0000 1.0000
62.5000 371.0000 1.0000
62.5100 388.0000 1.0000
62.5200 400.0000 1.0000
62.5300 377.0000 1.0000
62.5400 382.0000 1.0000
62.5500 370.0000 1.0000
62.5600 379.0000 1.0000
62.5700 376.0000 1.0000
62.5800 369.0000 1.0000
62.5900 360.0000 1.0000
62.6000 397.0000 1.0000
62.6100 368.0000 1.0000
62.6200 373.0000 1.0000
62.6300 361.0000 1.0000
62.6400 372.0000 1.0000
62.6500 398.0000 1.0000
62.6600 357.0000 1.0000
62.6700 345.0000 1.0000
62.6800 340.0000 1.0000
62.6900 368.0000 1.0000
62.7000 336.0000 1.0000
62.7100 358.0000 1.0000
62.7200 363.0000 1.0000
62.7300 346.0000 1.0000
62.7400 372.0000 1.0000
62.7500 353.0000 1.0000
62.7600 357.0000 1.0000
62.7700 345.0000 1.0000
62.7800 348.0000 1.0000
62.7900 339.0000 1.0000
62.8000 338.0000 1.0000
62.8100 331.0000 1.0000
62.8200 354.0000 1.0000
62.8300 358.0000 1.0000
62.8400 350.0000 1.0000
62.8500 331.0000 1.0000
62.8600 356.0000 1.0000
62.8700 361.0000 1.0000
62.8800 318.0000 1.0000
62.8900 321.0000 1.0000
62.9000 344.0000 1.0000
62.9100 383.0000 1.0000
62.9200 346.0000 1.0000
62.9300 328.0000 1.0000
62.9400 354.0000 1.0000
62.9500 334.0000 1.0000
62.9600 358.0000 1.0000
62.9700 354.0000 1.0000
62.9800 356.0000 1.0000
62.9900 328.0000 1.0000
63.0000 328.0000 1.0000
63.0100 347.0000 1.0000
63.0200 346.0000 1.0000
63.0300 359.0000 1.0000
63.0400 348.0000 1.0000
63.0500 361.0000 1.0000
63.0600 336.0000 1.0000
63.0700 335.0000 1.0000
63.0800 349.0000 1.0000
63.0900 342.0000 1.0000
63.1000 339.0000 1.0000
63.1100 358.0000 1.0000
63.1200 350.0000 1.0000
63.1300 342.0000 1.0000
63.1400 310.0000 1.0000
63.1500 345.0000 1.0000
63.1600 367.0000 1.0000
63.1700 344.0000 1.0000
63.1800 391.0000 1.0000
63.1900 355.0000 1.0000
63.2000 323.0000 1.0000
63.2100 345.0000 1.0000
63.2200 343.0000 1.0000
63.2300 353.0000 1.0000
63.2400 307.0000 1.0000
63.2500 315.0000 1.0000
63.2600 332.0000 1.0000
63.2700 355.0000 1.0000
63.2800 330.0000 1.0000
63.2900 332.0000 1.0000
63.3000 375.0000 1.0000
63.3100 335.0000 1.0000
63.3200 351.0000 1.0000
63.3300 349.0000 1.0000
63.3400 333.0000 1.0000
63.3500 341.0000 1.0000
63.3600 342.0000 1.0000
63.3700 361.0000 1.0000
63.3800 329.0000 1.0000
63.3900 333.0000 1.0000
63.4000 307.0000 1.0000
63.4100 353.0000 1.0000
63.4200 346.0000 1.0000
63.4300 344.0000 1.0000
63.4400 309.0000 1.0000
63.4500 322.0000 1.0000
63.4600 361.0000 1.0000
63.4700 337.0000 1.0000
63.4800 353.0000 1.0000
63.4900 356.0000 1.0000
63.5000 359.0000 1.0000
63.5100 366.0000 1.0000
63.5200 366.0000 1.0000
63.5300 361.0000 1.0000
63.5400 344.0000 1.0000
63.5500 398.0000 1.0000
63.5600 385.0000 1.0000
63.5700 373.0000 1.0000
63.5800 356.0000 1.0000
63.5900 360.0000 1.0000
63.6000 367.0000 1.0000
63.6100 377.0000 1.0000
63.6200 378.0000 1.0000
63.6300 387.0000 1.0000
63.6400 365.0000 1.0000
63.6500 398.0000 1.0000
63.6600 378.0000 1.0000
63.6700 385.0000 1.0000
63.6800 397.0000 1.0000
63.6900 412.0000 1.0000
63.7000 432.0000 1.0000
63.7100 408.0000 1.0000
63.7200 404.0000 1.0000
63.7300 423.0000 1.0000
63.7400 398.0000 1.0000
63.7500 430.0000 1.0000
63.7600 451.0000 1.0000
63.7700 457.0000 1.0000
63.7800 455.0000 1.0000
63.7900 471.0000 1.0000
63.8000 457.0000 1.0000
63.8100 466.0000 1.0000
63.8200 522.0000 1.0000
63.8300 528.0000 1.0000
63.8400 552.0000 1.0000
63.8500 535.0000 1.0000
63.8600 583.0000 1.0000
63.8700 632.0000 1.0000
63.8800 629.0000 1.0000
63.8900 662.0000 1.0000
63.9000 648.0000 1.0000
63.9100 701.0000 1.0000
63.9200 711.0000 1.0000
63.9300 734.0000 1.0000
63.9400 730.0000 1.0000
63.9500 709.0000 1.0000
63.9600 724.0000 1.0000
63.9700 687.0000 1.0000
63.9800 692.0000 1.0000
63.9900 669.0000 1.0000
64.0000 676.0000 1.0000
64.0100 676.0000 1.0000
64.0200 607.0000 1.0000
64.0300 645.0000 1.0000
64.0400 652.0000 1.0000
64.0500 614.0000 1.0000
64.0600 623.0000 1.0000
64.0700 598.0000 1.0000
64.0800 635.0000 1.0000
64.0900 645.0000 1.0000
64.1000 604.0000 1.0000
64.1100 598.0000 1.0000
64.1200 584.0000 1.0000
64.1300 561.0000 1.0000
64.1400 587.0000 1.0000
64.1500 542.0000 1.0000
64.1600 563.0000 1.0000
64.1700 534.0000 1.0000
64.1800 490.0000 1.0000
64.1900 495.0000 1.0000
64.2000 457.0000 1.0000
64.2100 481.0000 1.0000
64.2200 507.0000 1.0000
64.2300 435.0000 1.0000
64.2400 458.0000 1.0000
64.2500 429.0000 1.0000
64.2600 418.0000 1.0000
64.2700 423.0000 1.0000
64.2800 410.0000 1.0000
64.2900 365.0000 1.0000
64.3000 410.0000 1.0000
64.3100 398.0000 1.0000
64.3200 416.0000 1.0000
64.3300 408.0000 1.0000
64.3400 375.0000 1.0000
64.3500 380.0000 1.0000
64.3600 401.0000 1.0000
64.3700 409.0000 1.0000
64.3800 336.0000 1.0000
64.3900 377.0000 1.0000
64.4000 357.0000 1.0000
64.4100 393.0000 1.0000
64.4200 390.0000 1.0000
64.4300 373.0000 1.0000
64.4400 350.0000 1.0000
64.4500 368.0000 1.0000
64.4600 361.0000 1.0000
64.4700 345.0000 1.0000
64.4800 347.0000 1.0000
64.4900 362.0000 1.0000
64.5000 375.0000 1.0000
64.5100 350.0000 1.0000
64.5200 391.0000 1.0000
64.5300 369.0000 1.0000
64.5400 350.0000 1.0000
64.5500 377.0000 1.0000
64.5600 358.0000 1.0000
64.5700 371.0000 1.0000
64.5800 358.0000 1.0000
64.5900 350.0000 1.0000
64.6000 373.0000 1.0000
64.6100 347.0000 1.0000
64.6200 362.0000 1.0000
64.6300 323.0000 1.0000
64.6400 341.0000 1.0000
64.6500 327.0000 1.0000
64.6600 376.0000 1.0000
64.6700 357.0000 1.0000
64.6800 365.0000 1.0000
64.6900 356.0000 1.0000
64.7000 352.0000 1.0000
64.7100 361.0000 1.0000
64.7200 347.0000 1.0000
64.7300 363.0000 1.0000
64.7400 330.0000 1.0000
64.7500 364.0000 1.0000
64.7600 362.0000 1.0000
64.7700 349.0000 1.0000
64.7800 360.0000 1.0000
64.7900 365.0000 1.0000
64.8000 355.0000 1.0000
64.8100 362.0000 1.0000
64.8200 319.0000 1.0000
64.8300 350.0000 1.0000
64.8400 340.0000 1.0000
64.8500 358.0000 1.0000
64.8600 327.0000 1.0000
64.8700 357.0000 1.0000
64.8800 358.0000 1.0000
64.8900 350.0000 1.0000
64.9000 350.0000 1.0000
64.9100 355.0000 1.0000
64.9200 346.0000 1.0000
64.9300 348.0000 1.0000
64.9400 326.0000 1.0000
64.9500 384.0000 1.0000
64.9600 387.0000 1.0000
64.9700 352.0000 1.0000
64.9800 366.0000 1.0000
64.9900 349.0000 1.0000
65.0000 368.0000 1.0000
65.0100 359.0000 1.0000
65.0200 365.0000 1.0000
65.0300 339.0000 1.0000
65.0400 345.0000 1.0000
65.0500 373.0000 1.0000
65.0600 392.0000 1.0000
65.0700 391.0000 1.0000
65.0800 369.0000 1.0000
65.0900 322.0000 1.0000
65.1000 395.0000 1.0000
65.1100 354.0000 1.0000
65.1200 382.0000 1.0000
65.1300 368.0000 1.0000
65.1400 398.0000 1.0000
65.1500 415.0000 1.0000
65.1600 425.0000 1.0000
65.1700 418.0000 1.0000
65.1800 383.0000 1.0000
65.1900 416.0000 1.0000
65.2000 416.0000 1.0000
65.2100 406.0000 1.0000
65.2200 429.0000 1.0000
65.2300 421.0000 1.0000
65.2400 406.0000 1.0000
65.2500 405.0000 1.0000
65.2600 453.0000 1.0000
65.2700 474.0000 1.0000
65.2800 477.0000 1.0000
65.2900 468.0000 1.0000
65.3000 460.0000 1.0000
65.3100 504.0000 1.0000
65.3200 476.0000 1.0000
65.3300 543.0000 1.0000
65.3400 574.0000 1.0000
65.3500 575.0000 1.0000
65.3600 565.0000 1.0000
65.3700 574.0000 1.0000
65.3800 600.0000 1.0000
65.3900 626.0000 1.0000
65.4000 685.0000 1.0000
65.4100 697.0000 1.0000
65.4200 718.0000 1.0000
65.4300 755.0000 1.0000
65.4400 726.0000 1.0000
65.4500 781.0000 1.0000
65.4600 840.0000 1.0000
65.4700 862.0000 1.0000
65.4800 909.0000 1.0000
65.4900 921.0000 1.0000
65.5000 914.0000 1.0000
65.5100 946.0000 1.0000
65.5200 985.0000 1.0000
65.5300 989.0000 1.0000
65.5400 1070.0000 1.0000
65.5500 986.0000 1.0000
65.5600 1028.0000 1.0000
65.5700 1053.0000 1.0000
65.5800 1001.0000 1.0000
65.5900 974.0000 1.0000
65.6000 988.0000 1.0000
65.6100 975.0000 1.0000
65.6200 959.0000 1.0000
65.6300 906.0000 1.0000
65.6400 906.0000 1.0000
65.6500 888.0000 1.0000
65.6600 897.0000 1.0000
65.6700 843.0000 1.0000
65.6800 869.0000 1.0000
65.6900 823.0000 1.0000
65.7000 826.0000 1.0000
65.7100 843.0000 1.0000
65.7200 821.0000 1.0000
65.7300 837.0000 1.0000
65.7400 746.0000 1.0000
65.7500 749.0000 1.0000
65.7600 738.0000 1.0000
65.7700 719.0000 1.0000
65.7800 697.0000 1.0000
65.7900 642.0000 1.0000
65.8000 621.0000 1.0000
65.8100 578.0000 1.0000
65.8200 593.0000 1.0000
65.8300 541.0000 1.0000
65.8400 567.0000 1.0000
65.8500 559.0000 1.0000
65.8600 528.0000 1.0000
65.8700 504.0000 1.0000
65.8800 514.0000 1.0000
65.8900 505.0000 1.0000
65.9000 482.0000 1.0000
65.9100 480.0000 1.0000
65.9200 468.0000 1.0000
65.9300 479.0000 1.0000
65.9400 448.0000 1.0000
65.9500 448.0000 1.0000
65.9600 395.0000 1.0000
65.9700 413.0000 1.0000
65.9800 396.0000 1.0000
65.9900 400.0000 1.0000
66.0000 429.0000 1.0000
66.0100 427.0000 1.0000
66.0200 401.0000 1.0000
66.0300 379.0000 1.0000
66.0400 383.0000 1.0000
66.0500 400.0000 1.0000
66.0600 361.0000 1.0000
66.0700 381.0000 1.0000
66.0800 376.0000 1.0000
66.0900 379.0000 1.0000
66.1000 383.0000 1.0000
66.1100 372.0000 1.0000
66.1200 360.0000 1.0000
66.1300 365.0000 1.0000
66.1400 354.0000 1.0000
66.1500 358.0000 1.0000
66.1600 365.0000 1.0000
66.1700 361.0000 1.0000
66.1800 370.0000 1.0000
66.1900 370.0000 1.0000
66.2000 339.0000 1.0000
66.2100 357.0000 1.0000
66.2200 330.0000 1.0000
66.2300 341.0000 1.0000
66.2400 340.0000 1.0000
66.2500 360.0000 1.0000
66.2600 353.0000 1.0000
66.2700 319.0000 1.0000
66.2800 331.0000 1.0000
66.2900 356.0000 1.0000
66.3000 344.0000 1.0000
66.3100 336.0000 1.0000
66.3200 331.0000 1.0000
66.3300 337.0000 1.0000
66.3400 356.0000 1.0000
66.3500 307.0000 1.0000
66.3600 312.0000 1.0000
66.3700 337.0000 1.0000
66.3800 320.0000 1.0000
66.3900 349.0000 1.0000
66.4000 293.0000 1.0000
66.4100 321.0000 1.0000
66.4200 325.0000 1.0000
66.4300 342.0000 1.0000
66.4400 319.0000 1.0000
66.4500 355.0000 1.0000
66.4600 317.0000 1.0000
66.4700 341.0000 1.0000
66.4800 329.0000 1.0000
66.4900 355.0000 1.0000
66.5000 333.0000 1.0000
66.5100 331.0000 1.0000
66.5200 328.0000 1.0000
66.5300 336.0000 1.0000
66.5400 317.0000 1.0000
66.5500 321.0000 1.0000
66.5600 324.0000 1.0000
66.5700 306.0000 1.0000
66.5800 336.0000 1.0000
66.5900 346.0000 1.0000
66.6000 305.0000 1.0000
66.6100 319.0000 1.0000
66.6200 300.0000 1.0000
66.6300 351.0000 1.0000
66.6400 338.0000 1.0000
66.6500 328.0000 1.0000
66.6600 326.0000 1.0000
66.6700 311.0000 1.0000
66.6800 323.0000 1.0000
66.6900 328.0000 1.0000
66.7000 329.0000 1.0000
66.7100 339.0000 1.0000
66.7200 343.0000 1.0000
66.7300 327.0000 1.0000
66.7400 317.0000 1.0000
66.7500 323.0000 1.0000
66.7600 306.0000 1.0000
66.7700 304.0000 1.0000
66.7800 306.0000 1.0000
66.7900 331.0000 1.0000
66.8000 300.0000 1.0000
66.8100 326.0000 1.0000
66.8200 304.0000 1.0000
66.8300 328.0000 1.0000
66.8400 351.0000 1.0000
66.8500 290.0000 1.0000
66.8600 288.0000 1.0000
66.8700 313.0000 1.0000
66.8800 322.0000 1.0000
66.8900 312.0000 1.0000
66.9000 298.0000 1.0000
66.9100 304.0000 1.0000
66.9200 311.0000 1.0000
66.9300 326.0000 1.0000
66.9400 313.0000 1.0000
66.9500 330.0000 1.0000
66.9600 324.0000 1.0000
66.9700 326.0000 1.0000
66.9800 335.0000 1.0000
66.9900 291.0000 1.0000
67.0000 306.0000 1.0000
67.0100 324.0000 1.0000
67.0200 310.0000 1.0000
67.0300 284.0000 1.0000
67.0400 328.0000 1.0000
67.0500 316.0000 1.0000
67.0600 338.0000 1.0000
67.0700 336.0000 1.0000
67.0800 333.0000 1.0000
67.0900 302.0000 1.0000
67.1000 320.0000 1.0000
67.1100 295.0000 1.0000
67.1200 320.0000 1.0000
67.1300 308.0000 1.0000
67.1400 318.0000 1.0000
67.1500 322.0000 1.0000
67.1600 310.0000 1.0000
67.1700 317.0000 1.0000
67.1800 295.0000 1.0000
67.1900 322.0000 1.0000
67.2000 324.0000 1.0000
67.2100 319.0000 1.0000
67.2200 306.0000 1.0000
67.2300 303.0000 1.0000
67.2400 334.0000 1.0000
67.2500 297.0000 1.0000
67.2600 306.0000 1.0000
67.2700 331.0000 1.0000
67.2800 313.0000 1.0000
67.2900 292.0000 1.0000
67.3000 325.0000 1.0000
67.3100 333.0000 1.0000
67.3200 314.0000 1.0000
67.3300 309.0000 1.0000
67.3400 334.0000 1.0000
67.3500 304.0000 1.0000
67.3600 336.0000 1.0000
67.3700 310.0000 1.0000
67.3800 326.0000 1.0000
67.3900 300.0000 1.0000
67.4000 303.0000 1.0000
67.4100 306.0000 1.0000
67.4200 315.0000 1.0000
67.4300 315.0000 1.0000
67.4400 310.0000 1.0000
67.4500 323.0000 1.0000
67.4600 352.0000 1.0000
67.4700 293.0000 1.0000
67.4800 333.0000 1.0000
67.4900 330.0000 1.0000
67.5000 315.0000 1.0000
67.5100 301.0000 1.0000
67.5200 331.0000 1.0000
67.5300 297.0000 1.0000
67.5400 308.0000 1.0000
67.5500 299.0000 1.0000
67.5600 310.0000 1.0000
67.5700 297.0000 1.0000
67.5800 308.0000 1.0000
67.5900 324.0000 1.0000
67.6000 306.0000 1.0000
67.6100 286.0000 1.0000
67.6200 311.0000 1.0000
67.6300 289.0000 1.0000
67.6400 295.0000 1.0000
67.6500 310.0000 1.0000
67.6600 284.0000 1.0000
67.6700 295.0000 1.0000
67.6800 291.0000 1.0000
67.6900 328.0000 1.0000
67.7000 328.0000 1.0000
67.7100 323.0000 1.0000
67.7200 313.0000 1.0000
67.7300 310.0000 1.0000
67.7400 306.0000 1.0000
67.7500 285.0000 1.0000
67.7600 287.0000 1.0000
67.7700 302.0000 1.0000
67.7800 318.0000 1.0000
67.7900 330.0000 1.0000
67.8000 329.0000 1.0000
67.8100 297.0000 1.0000
67.8200 284.0000 1.0000
67.8300 314.0000 1.0000
67.8400 318.0000 1.0000
67.8500 299.0000 1.0000
67.8600 311.0000 1.0000
67.8700 322.0000 1.0000
67.8800 355.0000 1.0000
67.8900 304.0000 1.0000
67.9000 321.0000 1.0000
67.9100 311.0000 1.0000
67.9200 307.0000 1.0000
67.9300 307.0000 1.0000
67.9400 299.0000 1.0000
67.9500 315.0000 1.0000
67.9600 283.0000 1.0000
67.9700 309.0000 1.0000
67.9800 331.0000 1.0000
67.9900 305.0000 1.0000
68.0000 305.0000 1.0000
68.0100 344.0000 1.0000
68.0200 309.0000 1.0000
68.0300 319.0000 1.0000
68.0400 304.0000 1.0000
68.0500 322.0000 1.0000
68.0600 310.0000 1.0000
68.0700 298.0000 1.0000
68.0800 295.0000 1.0000
68.0900 311.0000 1.0000
68.1000 306.0000 1.0000
68.1100 304.0000 1.0000
68.1200 305.0000 1.0000
68.1300 309.0000 1.0000
68.1400 310.0000 1.0000
68.1500 290.0000 1.0000
68.1600 316.0000 1.0000
68.1700 336.0000 1.0000
68.1800 313.0000 1.0000
68.1900 302.0000 1.0000
68.2000 316.0000 1.0000
68.2100 282.0000 1.0000
68.2200 310.0000 1.0000
68.2300 306.0000 1.0000
68.2400 321.0000 1.0000
68.2500 288.0000 1.0000
68.2600 291.0000 1.0000
68.2700 308.0000 1.0000
68.2800 311.0000 1.0000
68.2900 308.0000 1.0000
68.3000 275.0000 1.0000
68.3100 331.0000 1.0000
68.3200 306.0000 1.0000
68.3300 303.0000 1.0000
68.3400 304.0000 1.0000
68.3500 282.0000 1.0000
68.3600 311.0000 1.0000
68.3700 294.0000 1.0000
68.3800 287.0000 1.0000
68.3900 267.0000 1.0000
68.4000 314.0000 1.0000
68.4100 305.0000 1.0000
68.4200 312.0000 1.0000
68.4300 315.0000 1.0000
68.4400 305.0000 1.0000
68.4500 295.0000 1.0000
68.4600 324.0000 1.0000
68.4700 305.0000 1.0000
68.4800 297.0000 1.0000
68.4900 314.0000 1.0000
68.5000 350.0000 1.0000
68.5100 336.0000 1.0000
68.5200 324.0000 1.0000
68.5300 322.0000 1.0000
68.5400 345.0000 1.0000
68.5500 320.0000 1.0000
68.5600 323.0000 1.0000
68.5700 325.0000 1.0000
68.5800 305.0000 1.0000
68.5900 293.0000 1.0000
68.6000 321.0000 1.0000
68.6100 286.0000 1.0000
68.6200 309.0000 1.0000
68.6300 261.0000 1.0000
68.6400 273.0000 1.0000
68.6500 302.0000 1.0000
68.6600 329.0000 1.0000
68.6700 321.0000 1.0000
68.6800 324.0000 1.0000
68.6900 347.0000 1.0000
68.7000 290.0000 1.0000
68.7100 291.0000 1.0000
68.7200 305.0000 1.0000
68.7300 267.0000 1.0000
68.7400 306.0000 1.0000
68.7500 305.0000 1.0000
68.7600 329.0000 1.0000
68.7700 330.0000 1.0000
68.7800 312.0000 1.0000
68.7900 292.0000 1.0000
68.8000 301.0000 1.0000
68.8100 315.0000 1.0000
68.8200 319.0000 1.0000
68.8300 305.0000 1.0000
68.8400 301.0000 1.0000
68.8500 321.0000 1.0000
68.8600 324.0000 1.0000
68.8700 300.0000 1.0000
68.8800 314.0000 1.0000
68.8900 323.0000 1.0000
68.9000 304.0000 1.0000
68.9100 333.0000 1.0000
68.9200 283.0000 1.0000
68.9300 309.0000 1.0000
68.9400 322.0000 1.0000
68.9500 296.0000 1.0000
68.9600 319.0000 1.0000
68.9700 275.0000 1.0000
68.9800 282.0000 1.0000
68.9900 330.0000 1.0000
69.0000 292.0000 1.0000
69.0100 320.0000 1.0000
69.0200 293.0000 1.0000
69.0300 295.0000 1.0000
69.0400 294.0000 1.0000
69.0500 307.0000 1.0000
69.0600 287.0000 1.0000
69.0700 303.0000 1.0000
69.0800 292.0000 1.0000
69.0900 305.0000 1.0000
69.1000 318.0000 1.0000
69.1100 320.0000 1.0000
69.1200 310.0000 1.0000
69.1300 291.0000 1.0000
69.1400 292.0000 1.0000
69.1500 283.0000 1.0000
69.1600 285.0000 1.0000
69.1700 319.0000 1.0000
69.1800 311.0000 1.0000
69.1900 308.0000 1.0000
69.2000 327.0000 1.0000
69.2100 301.0000 1.0000
69.2200 319.0000 1.0000
69.2300 299.0000 1.0000
69.2400 288.0000 1.0000
69.2500 310.0000 1.0000
69.2600 301.0000 1.0000
69.2700 292.0000 1.0000
69.2800 315.0000 1.0000
69.2900 304.0000 1.0000
69.3000 306.0000 1.0000
69.3100 300.0000 1.0000
69.3200 296.0000 1.0000
69.3300 311.0000 1.0000
69.3400 291.0000 1.0000
69.3500 314.0000 1.0000
69.3600 304.0000 1.0000
69.3700 289.0000 1.0000
69.3800 280.0000 1.0000
69.3900 316.0000 1.0000
69.4000 312.0000 1.0000
69.4100 275.0000 1.0000
69.4200 282.0000 1.0000
69.4300 290.0000 1.0000
69.4400 315.0000 1.0000
69.4500 333.0000 1.0000
69.4600 308.0000 1.0000
69.4700 296.0000 1.0000
69.4800 289.0000 1.0000
69.4900 285.0000 1.0000
69.5000 345.0000 1.0000
69.5100 304.0000 1.0000
69.5200 304.0000 1.0000
69.5300 322.0000 1.0000
69.5400 320.0000 1.0000
69.5500 320.0000 1.0000
69.5600 344.0000 1.0000
69.5700 304.0000 1.0000
69.5800 281.0000 1.0000
69.5900 331.0000 1.0000
69.6000 310.0000 1.0000
69.6100 282.0000 1.0000
69.6200 288.0000 1.0000
69.6300 291.0000 1.0000
69.6400 325.0000 1.0000
69.6500 317.0000 1.0000
69.6600 317.0000 1.0000
69.6700 324.0000 1.0000
69.6800 308.0000 1.0000
69.6900 284.0000 1.0000
69.7000 322.0000 1.0000
69.7100 306.0000 1.0000
69.7200 285.0000 1.0000
69.7300 291.0000 1.0000
69.7400 304.0000 1.0000
69.7500 310.0000 1.0000
69.7600 318.0000 1.0000
69.7700 298.0000 1.0000
69.7800 306.0000 1.0000
69.7900 299.0000 1.0000
69.8000 298.0000 1.0000
69.8100 294.0000 1.0000
69.8200 279.0000 1.0000
69.8300 324.0000 1.0000
69.8400 284.0000 1.0000
69.8500 310.0000 1.0000
69.8600 320.0000 1.0000
69.8700 295.0000 1.0000
69.8800 290.0000 1.0000
69.8900 281.0000 1.0000
69.9000 307.0000 1.0000
69.9100 310.0000 1.0000
69.9200 309.0000 1.0000
69.9300 302.0000 1.0000
69.9400 302.0000 1.0000
69.9500 314.0000 1.0000
69.9600 300.0000 1.0000
69.9700 303.0000 1.0000
69.9800 275.0000 1.0000
69.9900 289.0000 1.0000
70.0000 303.0000 1.0000
*RAS_INT_END
*RAS_TEMPERATURE_START
*RAS_TEMPERATURE_END
*RAS_DATA_END
