*RAS_DATA_START
*RAS_HEADER_START
*DISP_FMT_X "%.2f"
*DISP_FMT_Y "%.0f"
*DISP_FULLSCALE "14010.0000000000"
*DISP_LINE_COLOR "255.0000000000"
*DISP_LINE_STYLE "0.0000000000"
*DISP_LINE_WIDTH "0.2500000000"
*DISP_NOTE "測定データ-5"
*DISP_OFFSET_Y "0.0000000000"
*DISP_PEAKSEARCH_UNIT_Y "cps"
*DISP_RANGE_BOTTOM "0.0000000000"
*DISP_RANGE_LEFT "20.0000000000"
*DISP_RANGE_LOGCUTOFF "0.0100000000"
*DISP_RANGE_RIGHT "70.0000000000"
*DISP_RANGE_TOP "14010.0000000000"
*DISP_SCALE_MODE_Y "0.0000000000"
*DISP_TAB_NAME "2θ/θ"
*DISP_TITLE_Y "強度"
*DISP_UNIT_Y "cps"
*DISP_WINDOW_NAME "MSG_MACROENGINE"
*FILE_COMMENT " "
*FILE_MD5 ""
*FILE_MEMO " "
*FILE_OPERATOR "Administrator"
*FILE_SAMPLE " "
*FILE_TYPE "RAS_RAW"
*FILE_USERGROUP "システムマネージャ"
*FILE_VERSION "1.0000000000"
*HW_ATTACHMENT_ID "ATT0025"
*HW_ATTACHMENT_NAME "標準|Standard"
*HW_COUNTER_ID-0 "CUT0025"
*HW_COUNTER_ID-1 "CUT0020"
*HW_COUNTER_ID-2 "CUT0020"
*HW_COUNTER_ID-3 "CSL0021"
*HW_COUNTER_ID-4 "CMC0021"
*HW_COUNTER_NAME-0 "D/teX Ultra|D/teX Ultra"
*HW_COUNTER_NAME-1 "None|None"
*HW_COUNTER_NAME-2 "None|None"
*HW_COUNTER_NAME-3 "BBM|BBM"
*HW_COUNTER_NAME-4 "検出器モノクロメータ|Detector monochromator"
*HW_COUNTER_SELECT_NAME "D/teX Ultra|D/teX Ultra"
*HW_GONIOMETER_ID "GON0023"
*HW_GONIOMETER_NAME "SmartLab|SmartLab"
*HW_GONIOMETER_RADIUS-0 "90.0"
*HW_GONIOMETER_RADIUS-1 "114.0"
*HW_GONIOMETER_RADIUS-2 "190.0"
*HW_GONIOMETER_RADIUS-3 "300.0"
*HW_GONIOMETER_RADIUS-4 "187.0"
*HW_GONIOMETER_RADIUS-5 "300.0"
*HW_GONIOMETER_RADIUS-6 "113.0"
*HW_GONIOMETER_RADIUS-7 "331.0"
*HW_I_OPT_ID-0 "CBO0021"
*HW_I_OPT_ID-1 "ICR0023"
*HW_I_OPT_ID-2 "ISL0021"
*HW_I_OPT_ID-3 "ISO0021"
*HW_I_OPT_ID-4 "IAD0021"
*HW_I_OPT_ID-5 "IPR0001"
*HW_I_OPT_NAME-0 "CBOユニット|CBO unit"
*HW_I_OPT_NAME-1 "標準入射光学ユニット|Standard incident optical unit"
*HW_I_OPT_NAME-2 "標準入射スリットボックス|Standard incident slit box"
*HW_I_OPT_NAME-3 "入射平行スリット|Incident parallel slit"
*HW_I_OPT_NAME-4 "長手制限スリット|Length limiting slit"
*HW_I_OPT_NAME-5 "None|None"
*HW_R_ATTENUATER_AUTOMODE "0"
*HW_R_OPT_ID-0 "RSS0021"
*HW_R_OPT_ID-1 "RCR0023"
*HW_R_OPT_ID-2 "RSO0021"
*HW_R_OPT_ID-3 "RRS0021"
*HW_R_OPT_ID-4 "ATN0021"
*HW_R_OPT_ID-5 "RFL0021"
*HW_R_OPT_ID-6 "RAD0021"
*HW_R_OPT_NAME-0 "標準受光スリットボックス1|Standard receiving slit box # 1"
*HW_R_OPT_NAME-1 "標準受光光学ユニット1|Standard receiving unit # 1"
*HW_R_OPT_NAME-2 "標準受光光学ユニット2|Standard receiving optical unit # 2"
*HW_R_OPT_NAME-3 "標準受光スリットボックス2|Standard receiving slit box # 2"
*HW_R_OPT_NAME-4 "標準アッテネータ|Standard Attenuator"
*HW_R_OPT_NAME-5 "Cu Kβ|Cu K-beta"
*HW_R_OPT_NAME-6 "調整用受光スリット|Alignment receiving slit"
*HW_SAMPLE_HOLDER_ID "SMP0023"
*HW_SAMPLE_HOLDER_NAME "標準Zステージ|Standard Z stage"
*HW_XG_CURRENT_MAX "50"
*HW_XG_CURRENT_MIN "2"
*HW_XG_CURRENT_RESOLUTION "1"
*HW_XG_CURRENT_UNIT "mA"
*HW_XG_FOCUS "1mm x 10mm"
*HW_XG_FOCUS_TYPE "Normal"
*HW_XG_ID ""
*HW_XG_NAME "3kW 封入管(ID:1200)|3kW Sealed tube(ID:1200)"
*HW_XG_TARGET_ATOMIC_NUMBER "29.0000000000"
*HW_XG_TARGET_NAME "Cu"
*HW_XG_TYPE "Hermetic"
*HW_XG_VOLTAGE_MAX "60"
*HW_XG_VOLTAGE_MIN "20"
*HW_XG_VOLTAGE_RESOLUTION "1"
*HW_XG_VOLTAGE_UNIT "kV"
*HW_XG_WATT_MAX "1.500"
*HW_XG_WATT_UNIT "kW"
*HW_XG_WAVE_LENGTH_ALPHA1 "1.540593"
*HW_XG_WAVE_LENGTH_ALPHA2 "1.544414"
*HW_XG_WAVE_LENGTH_BETA "1.392250"
*MEAS_COND_AXIS_NAME-0 "2θ/θ"
*MEAS_COND_AXIS_NAME-1 "2θ"
*MEAS_COND_AXIS_NAME-2 "ω"
*MEAS_COND_AXIS_NAME-3 "Z"
*MEAS_COND_AXIS_NAME-4 "2θ/ω"
*MEAS_COND_AXIS_NAME-5 "θs"
*MEAS_COND_AXIS_NAME-6 "θd"
*MEAS_COND_AXIS_NAME-7 "Ts"
*MEAS_COND_AXIS_NAME-8 "CBO選択スリット"
*MEAS_COND_AXIS_NAME-9 "M"
*MEAS_COND_AXIS_NAME-10 "入射平行スリット"
*MEAS_COND_AXIS_NAME-11 "入射スリット"
*MEAS_COND_AXIS_NAME-12 ""
*MEAS_COND_AXIS_NAME-13 "Zs"
*MEAS_COND_AXIS_NAME-14 "入射光学素子"
*MEAS_COND_AXIS_NAME-15 "長手制限スリット"
*MEAS_COND_AXIS_NAME-16 "センタースリット"
*MEAS_COND_AXIS_NAME-17 "フィルター"
*MEAS_COND_AXIS_NAME-18 "受光スリット1"
*MEAS_COND_AXIS_NAME-19 "受光スリット2"
*MEAS_COND_AXIS_NAME-20 "受光光学素子"
*MEAS_COND_AXIS_NAME-21 "受光平行スリット"
*MEAS_COND_AXIS_NAME-22 "調整用受光スリット"
*MEAS_COND_AXIS_NAME-23 ""
*MEAS_COND_AXIS_NAME-24 ""
*MEAS_COND_AXIS_NAME-25 "Zd"
*MEAS_COND_AXIS_NAME-26 "アッテネータ"
*MEAS_COND_AXIS_NAME-27 "検出器モノクロメータ"
*MEAS_COND_AXIS_NAME-28 "モノクロメータスリット"
*MEAS_COND_AXIS_NAME-29 "プライマリビーム"
*MEAS_COND_AXIS_NAME-30 "PHA"
*MEAS_COND_AXIS_NAME_INTERNAL-0 "TwoThetaTheta"
*MEAS_COND_AXIS_NAME_INTERNAL-1 "TwoTheta"
*MEAS_COND_AXIS_NAME_INTERNAL-2 "Omega"
*MEAS_COND_AXIS_NAME_INTERNAL-3 "Z"
*MEAS_COND_AXIS_NAME_INTERNAL-4 "TwoThetaOmega"
*MEAS_COND_AXIS_NAME_INTERNAL-5 "ThetaS"
*MEAS_COND_AXIS_NAME_INTERNAL-6 "ThetaD"
*MEAS_COND_AXIS_NAME_INTERNAL-7 "Ts"
*MEAS_COND_AXIS_NAME_INTERNAL-8 "CBO"
*MEAS_COND_AXIS_NAME_INTERNAL-9 "CBO-M"
*MEAS_COND_AXIS_NAME_INTERNAL-10 "IncidentSollerSlit"
*MEAS_COND_AXIS_NAME_INTERNAL-11 "IncidentSlitBox"
*MEAS_COND_AXIS_NAME_INTERNAL-12 "IncidentSlitBox-_Axis"
*MEAS_COND_AXIS_NAME_INTERNAL-13 "Zs"
*MEAS_COND_AXIS_NAME_INTERNAL-14 "IncidentMonochromator"
*MEAS_COND_AXIS_NAME_INTERNAL-15 "IncidentAxdSlit"
*MEAS_COND_AXIS_NAME_INTERNAL-16 "CenterSlit"
*MEAS_COND_AXIS_NAME_INTERNAL-17 "Filter"
*MEAS_COND_AXIS_NAME_INTERNAL-18 "ReceivingSlitBox1"
*MEAS_COND_AXIS_NAME_INTERNAL-19 "ReceivingSlitBox2"
*MEAS_COND_AXIS_NAME_INTERNAL-20 "ReceivingOptics"
*MEAS_COND_AXIS_NAME_INTERNAL-21 "ReceivingSollerSlit"
*MEAS_COND_AXIS_NAME_INTERNAL-22 "ReceivingAxdSlit"
*MEAS_COND_AXIS_NAME_INTERNAL-23 "ReceivingSlitBox1-_Axis"
*MEAS_COND_AXIS_NAME_INTERNAL-24 "ReceivingSlitBox2-_Axis"
*MEAS_COND_AXIS_NAME_INTERNAL-25 "ReceivingSlitBox2-Zd"
*MEAS_COND_AXIS_NAME_INTERNAL-26 "Attenuator"
*MEAS_COND_AXIS_NAME_INTERNAL-27 "CounterMonochromator"
*MEAS_COND_AXIS_NAME_INTERNAL-28 "CounterSlit"
*MEAS_COND_AXIS_NAME_INTERNAL-29 "IncidentPrimary"
*MEAS_COND_AXIS_NAME_INTERNAL-30 "PHA"
*MEAS_COND_AXIS_NAME_MAGICNO-0 "83951616.0000000000"
*MEAS_COND_AXIS_NAME_MAGICNO-1 "268632064.0000000000"
*MEAS_COND_AXIS_NAME_MAGICNO-2 "268500992.0000000000"
*MEAS_COND_AXIS_NAME_MAGICNO-3 "285278208.0000000000"
*MEAS_COND_AXIS_NAME_MAGICNO-4 "83951616.0000000000"
*MEAS_COND_AXIS_NAME_MAGICNO-5 "131072.0000000000"
*MEAS_COND_AXIS_NAME_MAGICNO-6 "131072.0000000000"
*MEAS_COND_AXIS_NAME_MAGICNO-7 "318898176.0000000000"
*MEAS_COND_AXIS_NAME_MAGICNO-8 "20971521.0000000000"
*MEAS_COND_AXIS_NAME_MAGICNO-9 "285343744.0000000000"
*MEAS_COND_AXIS_NAME_MAGICNO-10 "20971521.0000000000"
*MEAS_COND_AXIS_NAME_MAGICNO-11 "22020097.0000000000"
*MEAS_COND_AXIS_NAME_MAGICNO-12 "25165824.0000000000"
*MEAS_COND_AXIS_NAME_MAGICNO-13 "318898176.0000000000"
*MEAS_COND_AXIS_NAME_MAGICNO-14 "1.0000000000"
*MEAS_COND_AXIS_NAME_MAGICNO-15 "20971521.0000000000"
*MEAS_COND_AXIS_NAME_MAGICNO-16 "20971521.0000000000"
*MEAS_COND_AXIS_NAME_MAGICNO-17 "20971521.0000000000"
*MEAS_COND_AXIS_NAME_MAGICNO-18 "23068673.0000000000"
*MEAS_COND_AXIS_NAME_MAGICNO-19 "23068673.0000000000"
*MEAS_COND_AXIS_NAME_MAGICNO-20 "20971521.0000000000"
*MEAS_COND_AXIS_NAME_MAGICNO-21 "20971521.0000000000"
*MEAS_COND_AXIS_NAME_MAGICNO-22 "20971521.0000000000"
*MEAS_COND_AXIS_NAME_MAGICNO-23 "25165824.0000000000"
*MEAS_COND_AXIS_NAME_MAGICNO-24 "25165824.0000000000"
*MEAS_COND_AXIS_NAME_MAGICNO-25 "285343744.0000000000"
*MEAS_COND_AXIS_NAME_MAGICNO-26 "17301505.0000000000"
*MEAS_COND_AXIS_NAME_MAGICNO-27 "20971521.0000000000"
*MEAS_COND_AXIS_NAME_MAGICNO-28 "20971521.0000000000"
*MEAS_COND_AXIS_NAME_MAGICNO-29 "20971521.0000000000"
*MEAS_COND_AXIS_NAME_MAGICNO-30 "0.0000000000"
*MEAS_COND_AXIS_OFFSET-0 "-"
*MEAS_COND_AXIS_OFFSET-1 "-0.0310000000"
*MEAS_COND_AXIS_OFFSET-2 "0.5056000000"
*MEAS_COND_AXIS_OFFSET-3 "-"
*MEAS_COND_AXIS_OFFSET-4 "-"
*MEAS_COND_AXIS_OFFSET-5 "0.5056000000"
*MEAS_COND_AXIS_OFFSET-6 "-0.5366000000"
*MEAS_COND_AXIS_OFFSET-7 "-"
*MEAS_COND_AXIS_OFFSET-8 "-"
*MEAS_COND_AXIS_OFFSET-9 "-"
*MEAS_COND_AXIS_OFFSET-10 "-"
*MEAS_COND_AXIS_OFFSET-11 "-"
*MEAS_COND_AXIS_OFFSET-12 "-"
*MEAS_COND_AXIS_OFFSET-13 "-"
*MEAS_COND_AXIS_OFFSET-14 "-"
*MEAS_COND_AXIS_OFFSET-15 "-"
*MEAS_COND_AXIS_OFFSET-16 "-"
*MEAS_COND_AXIS_OFFSET-17 "-"
*MEAS_COND_AXIS_OFFSET-18 "-"
*MEAS_COND_AXIS_OFFSET-19 "-"
*MEAS_COND_AXIS_OFFSET-20 "-"
*MEAS_COND_AXIS_OFFSET-21 "-"
*MEAS_COND_AXIS_OFFSET-22 "-"
*MEAS_COND_AXIS_OFFSET-23 "-"
*MEAS_COND_AXIS_OFFSET-24 "-"
*MEAS_COND_AXIS_OFFSET-25 "-"
*MEAS_COND_AXIS_OFFSET-26 "-"
*MEAS_COND_AXIS_OFFSET-27 "-"
*MEAS_COND_AXIS_OFFSET-28 "-"
*MEAS_COND_AXIS_OFFSET-29 "-"
*MEAS_COND_AXIS_OFFSET-30 "-"
*MEAS_COND_AXIS_POSITION-0 "0.0000000000"
*MEAS_COND_AXIS_POSITION-1 "0.0000000000"
*MEAS_COND_AXIS_POSITION-2 "0.0000000000"
*MEAS_COND_AXIS_POSITION-3 "-2.9031400000"
*MEAS_COND_AXIS_POSITION-4 "0.0000000000"
*MEAS_COND_AXIS_POSITION-5 "0.0000000000"
*MEAS_COND_AXIS_POSITION-6 "0.0000000000"
*MEAS_COND_AXIS_POSITION-7 "-0.7498700000"
*MEAS_COND_AXIS_POSITION-8 "BB"
*MEAS_COND_AXIS_POSITION-9 "0.0000000000"
*MEAS_COND_AXIS_POSITION-10 "Soller_slit_5.0deg"
*MEAS_COND_AXIS_POSITION-11 "2/3deg"
*MEAS_COND_AXIS_POSITION-12 "2.2088000000"
*MEAS_COND_AXIS_POSITION-13 "-0.6412500000"
*MEAS_COND_AXIS_POSITION-14 "0.0000000000"
*MEAS_COND_AXIS_POSITION-15 "10.0mm"
*MEAS_COND_AXIS_POSITION-16 "None"
*MEAS_COND_AXIS_POSITION-17 "Cu_K-beta"
*MEAS_COND_AXIS_POSITION-18 "13.000mm"
*MEAS_COND_AXIS_POSITION-19 "13.000mm"
*MEAS_COND_AXIS_POSITION-20 "No_unit"
*MEAS_COND_AXIS_POSITION-21 "Soller_slit_5.0deg"
*MEAS_COND_AXIS_POSITION-22 "None"
*MEAS_COND_AXIS_POSITION-23 "13.0000000000"
*MEAS_COND_AXIS_POSITION-24 "13.0000000000"
*MEAS_COND_AXIS_POSITION-25 "0.0281300000"
*MEAS_COND_AXIS_POSITION-26 "Open"
*MEAS_COND_AXIS_POSITION-27 "None"
*MEAS_COND_AXIS_POSITION-28 "None"
*MEAS_COND_AXIS_POSITION-29 "None"
*MEAS_COND_AXIS_POSITION-30 "38.0000000000"
*MEAS_COND_AXIS_UNIT-0 "deg"
*MEAS_COND_AXIS_UNIT-1 "deg"
*MEAS_COND_AXIS_UNIT-2 "deg"
*MEAS_COND_AXIS_UNIT-3 "mm"
*MEAS_COND_AXIS_UNIT-4 "deg"
*MEAS_COND_AXIS_UNIT-5 "deg"
*MEAS_COND_AXIS_UNIT-6 "deg"
*MEAS_COND_AXIS_UNIT-7 "mm"
*MEAS_COND_AXIS_UNIT-8 ""
*MEAS_COND_AXIS_UNIT-9 "pulse"
*MEAS_COND_AXIS_UNIT-10 ""
*MEAS_COND_AXIS_UNIT-11 ""
*MEAS_COND_AXIS_UNIT-12 "mm"
*MEAS_COND_AXIS_UNIT-13 "mm"
*MEAS_COND_AXIS_UNIT-14 ""
*MEAS_COND_AXIS_UNIT-15 ""
*MEAS_COND_AXIS_UNIT-16 ""
*MEAS_COND_AXIS_UNIT-17 ""
*MEAS_COND_AXIS_UNIT-18 ""
*MEAS_COND_AXIS_UNIT-19 ""
*MEAS_COND_AXIS_UNIT-20 ""
*MEAS_COND_AXIS_UNIT-21 ""
*MEAS_COND_AXIS_UNIT-22 ""
*MEAS_COND_AXIS_UNIT-23 "mm"
*MEAS_COND_AXIS_UNIT-24 "mm"
*MEAS_COND_AXIS_UNIT-25 "mm"
*MEAS_COND_AXIS_UNIT-26 ""
*MEAS_COND_AXIS_UNIT-27 ""
*MEAS_COND_AXIS_UNIT-28 ""
*MEAS_COND_AXIS_UNIT-29 ""
*MEAS_COND_AXIS_UNIT-30 "div"
*MEAS_COND_COUNTER_CNTLOSS_CORR "0.0000000000"
*MEAS_COND_COUNTER_PHABASE "38.0000000000"
*MEAS_COND_COUNTER_PHAWINDOW "16.0000000000"
*MEAS_COND_COUNTER_PHA_UNIT "div"
*MEAS_COND_COUNTER_TAUDIFF "30.0000000000"
*MEAS_COND_COUNTER_TAUINT "0.0000000000"
*MEAS_COND_IRRADIATION_MODE "OFF"
*MEAS_COND_IRRADIATION_WIDTH ""
*MEAS_COND_OPT_ATTR "集中法"
*MEAS_COND_OPT_NAME "@集中法"
*MEAS_COND_UNSYMMETRIC_MODE "OFF"
*MEAS_COND_XG_CURRENT "30.0000000000"
*MEAS_COND_XG_VOLTAGE "40.0000000000"
*MEAS_COND_XG_WAVE_TYPE "Ka"
*MEAS_DATA_COUNT "5001.0000000000"
*MEAS_SCAN_AXIS_X "2θ/θ"
*MEAS_SCAN_AXIS_X_INTERNAL "TwoThetaTheta"
*MEAS_SCAN_END_TIME "07/27/23 21:13:38"
*MEAS_SCAN_MODE "CONTINUOUS"
*MEAS_SCAN_MONITOR "0"
*MEAS_SCAN_RESOLUTION_X "0.0002"
*MEAS_SCAN_SPEED "2.5"
*MEAS_SCAN_SPEED_UNIT "deg/min"
*MEAS_SCAN_START "20.0000000000"
*MEAS_SCAN_START_TIME "07/27/23 20:52:16"
*MEAS_SCAN_STEP "0.0100000000"
*MEAS_SCAN_STOP "70.0000000000"
*MEAS_SCAN_UNIT_X "deg"
*MEAS_SCAN_UNIT_Y "counts"
*RAS_HEADER_END
*RAS_INT_START
20.0000 893.0000 1.0000
20.0100 856.0000 1.0000
20.0200 892.0000 1.0000
20.0300 868.0000 1.0000
20.0400 850.0000 1.0000
20.0500 867.0000 1.0000
20.0600 893.0000 1.0000
20.0700 907.0000 1.0000
20.0800 900.0000 1.0000
20.0900 884.0000 1.0000
20.1000 899.0000 1.0000
20.1100 889.0000 1.0000
20.1200 877.0000 1.0000
20.1300 881.0000 1.0000
20.1400 829.0000 1.0000
20.1500 865.0000 1.0000
20.1600 853.0000 1.0000
20.1700 874.0000 1.0000
20.1800 919.0000 1.0000
20.1900 907.0000 1.0000
20.2000 887.0000 1.0000
20.2100 881.0000 1.0000
20.2200 866.0000 1.0000
20.2300 894.0000 1.0000
20.2400 880.0000 1.0000
20.2500 867.0000 1.0000
20.2600 921.0000 1.0000
20.2700 904.0000 1.0000
20.2800 901.0000 1.0000
20.2900 895.0000 1.0000
20.3000 841.0000 1.0000
20.3100 894.0000 1.0000
20.3200 889.0000 1.0000
20.3300 867.0000 1.0000
20.3400 876.0000 1.0000
20.3500 850.0000 1.0000
20.3600 865.0000 1.0000
20.3700 889.0000 1.0000
20.3800 883.0000 1.0000
20.3900 904.0000 1.0000
20.4000 905.0000 1.0000
20.4100 913.0000 1.0000
20.4200 887.0000 1.0000
20.4300 876.0000 1.0000
20.4400 882.0000 1.0000
20.4500 893.0000 1.0000
20.4600 900.0000 1.0000
20.4700 851.0000 1.0000
20.4800 888.0000 1.0000
20.4900 865.0000 1.0000
20.5000 851.0000 1.0000
20.5100 896.0000 1.0000
20.5200 891.0000 1.0000
20.5300 901.0000 1.0000
20.5400 895.0000 1.0000
20.5500 908.0000 1.0000
20.5600 849.0000 1.0000
20.5700 881.0000 1.0000
20.5800 875.0000 1.0000
20.5900 876.0000 1.0000
20.6000 852.0000 1.0000
20.6100 879.0000 1.0000
20.6200 913.0000 1.0000
20.6300 886.0000 1.0000
20.6400 865.0000 1.0000
20.6500 853.0000 1.0000
20.6600 872.0000 1.0000
20.6700 861.0000 1.0000
20.6800 871.0000 1.0000
20.6900 850.0000 1.0000
20.7000 896.0000 1.0000
20.7100 900.0000 1.0000
20.7200 869.0000 1.0000
20.7300 858.0000 1.0000
20.7400 892.0000 1.0000
20.7500 878.0000 1.0000
20.7600 887.0000 1.0000
20.7700 931.0000 1.0000
20.7800 874.0000 1.0000
20.7900 930.0000 1.0000
20.8000 916.0000 1.0000
20.8100 899.0000 1.0000
20.8200 929.0000 1.0000
20.8300 881.0000 1.0000
20.8400 847.0000 1.0000
20.8500 890.0000 1.0000
20.8600 866.0000 1.0000
20.8700 862.0000 1.0000
20.8800 881.0000 1.0000
20.8900 892.0000 1.0000
20.9000 867.0000 1.0000
20.9100 887.0000 1.0000
20.9200 872.0000 1.0000
20.9300 852.0000 1.0000
20.9400 863.0000 1.0000
20.9500 888.0000 1.0000
20.9600 859.0000 1.0000
20.9700 865.0000 1.0000
20.9800 853.0000 1.0000
20.9900 855.0000 1.0000
21.0000 875.0000 1.0000
21.0100 850.0000 1.0000
21.0200 877.0000 1.0000
21.0300 844.0000 1.0000
21.0400 903.0000 1.0000
21.0500 892.0000 1.0000
21.0600 882.0000 1.0000
21.0700 921.0000 1.0000
21.0800 898.0000 1.0000
21.0900 921.0000 1.0000
21.1000 879.0000 1.0000
21.1100 859.0000 1.0000
21.1200 878.0000 1.0000
21.1300 907.0000 1.0000
21.1400 917.0000 1.0000
21.1500 847.0000 1.0000
21.1600 884.0000 1.0000
21.1700 886.0000 1.0000
21.1800 911.0000 1.0000
21.1900 869.0000 1.0000
21.2000 890.0000 1.0000
21.2100 867.0000 1.0000
21.2200 866.0000 1.0000
21.2300 874.0000 1.0000
21.2400 838.0000 1.0000
21.2500 861.0000 1.0000
21.2600 880.0000 1.0000
21.2700 904.0000 1.0000
21.2800 883.0000 1.0000
21.2900 825.0000 1.0000
21.3000 853.0000 1.0000
21.3100 856.0000 1.0000
21.3200 845.0000 1.0000
21.3300 866.0000 1.0000
21.3400 880.0000 1.0000
21.3500 847.0000 1.0000
21.3600 884.0000 1.0000
21.3700 842.0000 1.0000
21.3800 861.0000 1.0000
21.3900 913.0000 1.0000
21.4000 894.0000 1.0000
21.4100 872.0000 1.0000
21.4200 883.0000 1.0000
21.4300 894.0000 1.0000
21.4400 870.0000 1.0000
21.4500 897.0000 1.0000
21.4600 874.0000 1.0000
21.4700 845.0000 1.0000
21.4800 804.0000 1.0000
21.4900 839.0000 1.0000
21.5000 899.0000 1.0000
21.5100 832.0000 1.0000
21.5200 883.0000 1.0000
21.5300 854.0000 1.0000
21.5400 881.0000 1.0000
21.5500 856.0000 1.0000
21.5600 879.0000 1.0000
21.5700 800.0000 1.0000
21.5800 783.0000 1.0000
21.5900 856.0000 1.0000
21.6000 869.0000 1.0000
21.6100 875.0000 1.0000
21.6200 855.0000 1.0000
21.6300 906.0000 1.0000
21.6400 865.0000 1.0000
21.6500 887.0000 1.0000
21.6600 866.0000 1.0000
21.6700 830.0000 1.0000
21.6800 897.0000 1.0000
21.6900 807.0000 1.0000
21.7000 822.0000 1.0000
21.7100 836.0000 1.0000
21.7200 866.0000 1.0000
21.7300 876.0000 1.0000
21.7400 833.0000 1.0000
21.7500 871.0000 1.0000
21.7600 889.0000 1.0000
21.7700 868.0000 1.0000
21.7800 904.0000 1.0000
21.7900 876.0000 1.0000
21.8000 866.0000 1.0000
21.8100 864.0000 1.0000
21.8200 889.0000 1.0000
21.8300 860.0000 1.0000
21.8400 845.0000 1.0000
21.8500 857.0000 1.0000
21.8600 861.0000 1.0000
21.8700 897.0000 1.0000
21.8800 819.0000 1.0000
21.8900 851.0000 1.0000
21.9000 805.0000 1.0000
21.9100 874.0000 1.0000
21.9200 867.0000 1.0000
21.9300 852.0000 1.0000
21.9400 858.0000 1.0000
21.9500 872.0000 1.0000
21.9600 849.0000 1.0000
21.9700 884.0000 1.0000
21.9800 906.0000 1.0000
21.9900 907.0000 1.0000
22.0000 893.0000 1.0000
22.0100 868.0000 1.0000
22.0200 852.0000 1.0000
22.0300 877.0000 1.0000
22.0400 833.0000 1.0000
22.0500 827.0000 1.0000
22.0600 857.0000 1.0000
22.0700 863.0000 1.0000
22.0800 886.0000 1.0000
22.0900 907.0000 1.0000
22.1000 803.0000 1.0000
22.1100 860.0000 1.0000
22.1200 853.0000 1.0000
22.1300 898.0000 1.0000
22.1400 835.0000 1.0000
22.1500 893.0000 1.0000
22.1600 902.0000 1.0000
22.1700 828.0000 1.0000
22.1800 831.0000 1.0000
22.1900 866.0000 1.0000
22.2000 841.0000 1.0000
22.2100 902.0000 1.0000
22.2200 848.0000 1.0000
22.2300 878.0000 1.0000
22.2400 872.0000 1.0000
22.2500 834.0000 1.0000
22.2600 925.0000 1.0000
22.2700 863.0000 1.0000
22.2800 804.0000 1.0000
22.2900 902.0000 1.0000
22.3000 891.0000 1.0000
22.3100 880.0000 1.0000
22.3200 851.0000 1.0000
22.3300 854.0000 1.0000
22.3400 941.0000 1.0000
22.3500 877.0000 1.0000
22.3600 825.0000 1.0000
22.3700 854.0000 1.0000
22.3800 856.0000 1.0000
22.3900 848.0000 1.0000
22.4000 860.0000 1.0000
22.4100 871.0000 1.0000
22.4200 869.0000 1.0000
22.4300 899.0000 1.0000
22.4400 819.0000 1.0000
22.4500 873.0000 1.0000
22.4600 913.0000 1.0000
22.4700 901.0000 1.0000
22.4800 893.0000 1.0000
22.4900 869.0000 1.0000
22.5000 843.0000 1.0000
22.5100 851.0000 1.0000
22.5200 864.0000 1.0000
22.5300 836.0000 1.0000
22.5400 801.0000 1.0000
22.5500 884.0000 1.0000
22.5600 920.0000 1.0000
22.5700 865.0000 1.0000
22.5800 885.0000 1.0000
22.5900 849.0000 1.0000
22.6000 807.0000 1.0000
22.6100 868.0000 1.0000
22.6200 873.0000 1.0000
22.6300 874.0000 1.0000
22.6400 842.0000 1.0000
22.6500 836.0000 1.0000
22.6600 867.0000 1.0000
22.6700 827.0000 1.0000
22.6800 865.0000 1.0000
22.6900 878.0000 1.0000
22.7000 842.0000 1.0000
22.7100 892.0000 1.0000
22.7200 883.0000 1.0000
22.7300 826.0000 1.0000
22.7400 850.0000 1.0000
22.7500 841.0000 1.0000
22.7600 857.0000 1.0000
22.7700 842.0000 1.0000
22.7800 868.0000 1.0000
22.7900 864.0000 1.0000
22.8000 910.0000 1.0000
22.8100 840.0000 1.0000
22.8200 838.0000 1.0000
22.8300 846.0000 1.0000
22.8400 832.0000 1.0000
22.8500 862.0000 1.0000
22.8600 864.0000 1.0000
22.8700 823.0000 1.0000
22.8800 833.0000 1.0000
22.8900 880.0000 1.0000
22.9000 849.0000 1.0000
22.9100 879.0000 1.0000
22.9200 864.0000 1.0000
22.9300 870.0000 1.0000
22.9400 842.0000 1.0000
22.9500 868.0000 1.0000
22.9600 845.0000 1.0000
22.9700 855.0000 1.0000
22.9800 886.0000 1.0000
22.9900 847.0000 1.0000
23.0000 820.0000 1.0000
23.0100 854.0000 1.0000
23.0200 852.0000 1.0000
23.0300 840.0000 1.0000
23.0400 883.0000 1.0000
23.0500 896.0000 1.0000
23.0600 836.0000 1.0000
23.0700 789.0000 1.0000
23.0800 840.0000 1.0000
23.0900 864.0000 1.0000
23.1000 843.0000 1.0000
23.1100 837.0000 1.0000
23.1200 847.0000 1.0000
23.1300 849.0000 1.0000
23.1400 843.0000 1.0000
23.1500 800.0000 1.0000
23.1600 853.0000 1.0000
23.1700 869.0000 1.0000
23.1800 864.0000 1.0000
23.1900 870.0000 1.0000
23.2000 810.0000 1.0000
23.2100 843.0000 1.0000
23.2200 846.0000 1.0000
23.2300 863.0000 1.0000
23.2400 834.0000 1.0000
23.2500 865.0000 1.0000
23.2600 856.0000 1.0000
23.2700 861.0000 1.0000
23.2800 835.0000 1.0000
23.2900 807.0000 1.0000
23.3000 851.0000 1.0000
23.3100 850.0000 1.0000
23.3200 890.0000 1.0000
23.3300 847.0000 1.0000
23.3400 854.0000 1.0000
23.3500 848.0000 1.0000
23.3600 842.0000 1.0000
23.3700 860.0000 1.0000
23.3800 818.0000 1.0000
23.3900 883.0000 1.0000
23.4000 857.0000 1.0000
23.4100 825.0000 1.0000
23.4200 871.0000 1.0000
23.4300 821.0000 1.0000
23.4400 839.0000 1.0000
23.4500 867.0000 1.0000
23.4600 848.0000 1.0000
23.4700 855.0000 1.0000
23.4800 848.0000 1.0000
23.4900 883.0000 1.0000
23.5000 830.0000 1.0000
23.5100 860.0000 1.0000
23.5200 830.0000 1.0000
23.5300 804.0000 1.0000
23.5400 863.0000 1.0000
23.5500 858.0000 1.0000
23.5600 845.0000 1.0000
23.5700 815.0000 1.0000
23.5800 855.0000 1.0000
23.5900 838.0000 1.0000
23.6000 858.0000 1.0000
23.6100 851.0000 1.0000
23.6200 830.0000 1.0000
23.6300 863.0000 1.0000
23.6400 812.0000 1.0000
23.6500 816.0000 1.0000
23.6600 844.0000 1.0000
23.6700 846.0000 1.0000
23.6800 851.0000 1.0000
23.6900 862.0000 1.0000
23.7000 863.0000 1.0000
23.7100 844.0000 1.0000
23.7200 832.0000 1.0000
23.7300 869.0000 1.0000
23.7400 823.0000 1.0000
23.7500 871.0000 1.0000
23.7600 834.0000 1.0000
23.7700 857.0000 1.0000
23.7800 893.0000 1.0000
23.7900 909.0000 1.0000
23.8000 877.0000 1.0000
23.8100 841.0000 1.0000
23.8200 806.0000 1.0000
23.8300 861.0000 1.0000
23.8400 884.0000 1.0000
23.8500 895.0000 1.0000
23.8600 866.0000 1.0000
23.8700 886.0000 1.0000
23.8800 853.0000 1.0000
23.8900 877.0000 1.0000
23.9000 935.0000 1.0000
23.9100 919.0000 1.0000
23.9200 860.0000 1.0000
23.9300 928.0000 1.0000
23.9400 871.0000 1.0000
23.9500 865.0000 1.0000
23.9600 870.0000 1.0000
23.9700 905.0000 1.0000
23.9800 946.0000 1.0000
23.9900 900.0000 1.0000
24.0000 910.0000 1.0000
24.0100 913.0000 1.0000
24.0200 938.0000 1.0000
24.0300 968.0000 1.0000
24.0400 971.0000 1.0000
24.0500 989.0000 1.0000
24.0600 977.0000 1.0000
24.0700 970.0000 1.0000
24.0800 971.0000 1.0000
24.0900 993.0000 1.0000
24.1000 1017.0000 1.0000
24.1100 983.0000 1.0000
24.1200 970.0000 1.0000
24.1300 981.0000 1.0000
24.1400 972.0000 1.0000
24.1500 970.0000 1.0000
24.1600 910.0000 1.0000
24.1700 927.0000 1.0000
24.1800 936.0000 1.0000
24.1900 926.0000 1.0000
24.2000 880.0000 1.0000
24.2100 865.0000 1.0000
24.2200 843.0000 1.0000
24.2300 841.0000 1.0000
24.2400 855.0000 1.0000
24.2500 886.0000 1.0000
24.2600 885.0000 1.0000
24.2700 835.0000 1.0000
24.2800 846.0000 1.0000
24.2900 853.0000 1.0000
24.3000 852.0000 1.0000
24.3100 850.0000 1.0000
24.3200 851.0000 1.0000
24.3300 829.0000 1.0000
24.3400 848.0000 1.0000
24.3500 871.0000 1.0000
24.3600 872.0000 1.0000
24.3700 825.0000 1.0000
24.3800 822.0000 1.0000
24.3900 877.0000 1.0000
24.4000 822.0000 1.0000
24.4100 835.0000 1.0000
24.4200 861.0000 1.0000
24.4300 799.0000 1.0000
24.4400 872.0000 1.0000
24.4500 834.0000 1.0000
24.4600 881.0000 1.0000
24.4700 840.0000 1.0000
24.4800 828.0000 1.0000
24.4900 821.0000 1.0000
24.5000 796.0000 1.0000
24.5100 808.0000 1.0000
24.5200 815.0000 1.0000
24.5300 809.0000 1.0000
24.5400 853.0000 1.0000
24.5500 846.0000 1.0000
24.5600 804.0000 1.0000
24.5700 842.0000 1.0000
24.5800 826.0000 1.0000
24.5900 843.0000 1.0000
24.6000 851.0000 1.0000
24.6100 847.0000 1.0000
24.6200 835.0000 1.0000
24.6300 792.0000 1.0000
24.6400 817.0000 1.0000
24.6500 814.0000 1.0000
24.6600 789.0000 1.0000
24.6700 809.0000 1.0000
24.6800 837.0000 1.0000
24.6900 813.0000 1.0000
24.7000 813.0000 1.0000
24.7100 803.0000 1.0000
24.7200 884.0000 1.0000
24.7300 826.0000 1.0000
24.7400 817.0000 1.0000
24.7500 820.0000 1.0000
24.7600 777.0000 1.0000
24.7700 828.0000 1.0000
24.7800 769.0000 1.0000
24.7900 834.0000 1.0000
24.8000 816.0000 1.0000
24.8100 793.0000 1.0000
24.8200 776.0000 1.0000
24.8300 790.0000 1.0000
24.8400 817.0000 1.0000
24.8500 808.0000 1.0000
24.8600 843.0000 1.0000
24.8700 840.0000 1.0000
24.8800 813.0000 1.0000
24.8900 838.0000 1.0000
24.9000 812.0000 1.0000
24.9100 836.0000 1.0000
24.9200 821.0000 1.0000
24.9300 806.0000 1.0000
24.9400 810.0000 1.0000
24.9500 870.0000 1.0000
24.9600 817.0000 1.0000
24.9700 821.0000 1.0000
24.9800 844.0000 1.0000
24.9900 803.0000 1.0000
25.0000 799.0000 1.0000
25.0100 788.0000 1.0000
25.0200 809.0000 1.0000
25.0300 827.0000 1.0000
25.0400 828.0000 1.0000
25.0500 822.0000 1.0000
25.0600 808.0000 1.0000
25.0700 852.0000 1.0000
25.0800 825.0000 1.0000
25.0900 777.0000 1.0000
25.1000 839.0000 1.0000
25.1100 884.0000 1.0000
25.1200 806.0000 1.0000
25.1300 799.0000 1.0000
25.1400 832.0000 1.0000
25.1500 831.0000 1.0000
25.1600 841.0000 1.0000
25.1700 822.0000 1.0000
25.1800 795.0000 1.0000
25.1900 793.0000 1.0000
25.2000 855.0000 1.0000
25.2100 821.0000 1.0000
25.2200 817.0000 1.0000
25.2300 820.0000 1.0000
25.2400 826.0000 1.0000
25.2500 835.0000 1.0000
25.2600 792.0000 1.0000
25.2700 854.0000 1.0000
25.2800 815.0000 1.0000
25.2900 782.0000 1.0000
25.3000 836.0000 1.0000
25.3100 832.0000 1.0000
25.3200 840.0000 1.0000
25.3300 816.0000 1.0000
25.3400 824.0000 1.0000
25.3500 857.0000 1.0000
25.3600 832.0000 1.0000
25.3700 816.0000 1.0000
25.3800 832.0000 1.0000
25.3900 824.0000 1.0000
25.4000 844.0000 1.0000
25.4100 818.0000 1.0000
25.4200 825.0000 1.0000
25.4300 790.0000 1.0000
25.4400 819.0000 1.0000
25.4500 817.0000 1.0000
25.4600 833.0000 1.0000
25.4700 825.0000 1.0000
25.4800 845.0000 1.0000
25.4900 843.0000 1.0000
25.5000 857.0000 1.0000
25.5100 836.0000 1.0000
25.5200 880.0000 1.0000
25.5300 827.0000 1.0000
25.5400 838.0000 1.0000
25.5500 805.0000 1.0000
25.5600 852.0000 1.0000
25.5700 854.0000 1.0000
25.5800 819.0000 1.0000
25.5900 817.0000 1.0000
25.6000 846.0000 1.0000
25.6100 844.0000 1.0000
25.6200 827.0000 1.0000
25.6300 843.0000 1.0000
25.6400 816.0000 1.0000
25.6500 845.0000 1.0000
25.6600 808.0000 1.0000
25.6700 825.0000 1.0000
25.6800 819.0000 1.0000
25.6900 835.0000 1.0000
25.7000 834.0000 1.0000
25.7100 858.0000 1.0000
25.7200 819.0000 1.0000
25.7300 830.0000 1.0000
25.7400 840.0000 1.0000
25.7500 834.0000 1.0000
25.7600 840.0000 1.0000
25.7700 837.0000 1.0000
25.7800 861.0000 1.0000
25.7900 857.0000 1.0000
25.8000 857.0000 1.0000
25.8100 863.0000 1.0000
25.8200 826.0000 1.0000
25.8300 882.0000 1.0000
25.8400 839.0000 1.0000
25.8500 882.0000 1.0000
25.8600 847.0000 1.0000
25.8700 859.0000 1.0000
25.8800 886.0000 1.0000
25.8900 849.0000 1.0000
25.9000 877.0000 1.0000
25.9100 871.0000 1.0000
25.9200 849.0000 1.0000
25.9300 862.0000 1.0000
25.9400 874.0000 1.0000
25.9500 837.0000 1.0000
25.9600 906.0000 1.0000
25.9700 886.0000 1.0000
25.9800 870.0000 1.0000
25.9900 930.0000 1.0000
26.0000 915.0000 1.0000
26.0100 903.0000 1.0000
26.0200 842.0000 1.0000
26.0300 883.0000 1.0000
26.0400 898.0000 1.0000
26.0500 929.0000 1.0000
26.0600 923.0000 1.0000
26.0700 937.0000 1.0000
26.0800 893.0000 1.0000
26.0900 996.0000 1.0000
26.1000 975.0000 1.0000
26.1100 1015.0000 1.0000
26.1200 1028.0000 1.0000
26.1300 1007.0000 1.0000
26.1400 1038.0000 1.0000
26.1500 1051.0000 1.0000
26.1600 1084.0000 1.0000
26.1700 1143.0000 1.0000
26.1800 1083.0000 1.0000
26.1900 1111.0000 1.0000
26.2000 1173.0000 1.0000
26.2100 1200.0000 1.0000
26.2200 1268.0000 1.0000
26.2300 1260.0000 1.0000
26.2400 1315.0000 1.0000
26.2500 1395.0000 1.0000
26.2600 1398.0000 1.0000
26.2700 1487.0000 1.0000
26.2800 1492.0000 1.0000
26.2900 1588.0000 1.0000
26.3000 1627.0000 1.0000
26.3100 1675.0000 1.0000
26.3200 1746.0000 1.0000
26.3300 1895.0000 1.0000
26.3400 1974.0000 1.0000
26.3500 2092.0000 1.0000
26.3600 2257.0000 1.0000
26.3700 2409.0000 1.0000
26.3800 2497.0000 1.0000
26.3900 2530.0000 1.0000
26.4000 2579.0000 1.0000
26.4100 2717.0000 1.0000
26.4200 2800.0000 1.0000
26.4300 2802.0000 1.0000
26.4400 2706.0000 1.0000
26.4500 2752.0000 1.0000
26.4600 2765.0000 1.0000
26.4700 2633.0000 1.0000
26.4800 2544.0000 1.0000
26.4900 2500.0000 1.0000
26.5000 2337.0000 1.0000
26.5100 2234.0000 1.0000
26.5200 2106.0000 1.0000
26.5300 2019.0000 1.0000
26.5400 2022.0000 1.0000
26.5500 1896.0000 1.0000
26.5600 1734.0000 1.0000
26.5700 1662.0000 1.0000
26.5800 1597.0000 1.0000
26.5900 1523.0000 1.0000
26.6000 1413.0000 1.0000
26.6100 1433.0000 1.0000
26.6200 1329.0000 1.0000
26.6300 1332.0000 1.0000
26.6400 1292.0000 1.0000
26.6500 1227.0000 1.0000
26.6600 1158.0000 1.0000
26.6700 1114.0000 1.0000
26.6800 1121.0000 1.0000
26.6900 1083.0000 1.0000
26.7000 1073.0000 1.0000
26.7100 1003.0000 1.0000
26.7200 1014.0000 1.0000
26.7300 1005.0000 1.0000
26.7400 979.0000 1.0000
26.7500 1001.0000 1.0000
26.7600 940.0000 1.0000
26.7700 956.0000 1.0000
26.7800 958.0000 1.0000
26.7900 910.0000 1.0000
26.8000 899.0000 1.0000
26.8100 896.0000 1.0000
26.8200 913.0000 1.0000
26.8300 926.0000 1.0000
26.8400 837.0000 1.0000
26.8500 839.0000 1.0000
26.8600 887.0000 1.0000
26.8700 872.0000 1.0000
26.8800 843.0000 1.0000
26.8900 794.0000 1.0000
26.9000 831.0000 1.0000
26.9100 870.0000 1.0000
26.9200 888.0000 1.0000
26.9300 829.0000 1.0000
26.9400 866.0000 1.0000
26.9500 825.0000 1.0000
26.9600 895.0000 1.0000
26.9700 822.0000 1.0000
26.9800 812.0000 1.0000
26.9900 884.0000 1.0000
27.0000 832.0000 1.0000
27.0100 866.0000 1.0000
27.0200 844.0000 1.0000
27.0300 844.0000 1.0000
27.0400 870.0000 1.0000
27.0500 819.0000 1.0000
27.0600 832.0000 1.0000
27.0700 800.0000 1.0000
27.0800 800.0000 1.0000
27.0900 819.0000 1.0000
27.1000 755.0000 1.0000
27.1100 799.0000 1.0000
27.1200 827.0000 1.0000
27.1300 777.0000 1.0000
27.1400 786.0000 1.0000
27.1500 753.0000 1.0000
27.1600 751.0000 1.0000
27.1700 786.0000 1.0000
27.1800 752.0000 1.0000
27.1900 780.0000 1.0000
27.2000 758.0000 1.0000
27.2100 761.0000 1.0000
27.2200 773.0000 1.0000
27.2300 783.0000 1.0000
27.2400 809.0000 1.0000
27.2500 802.0000 1.0000
27.2600 777.0000 1.0000
27.2700 792.0000 1.0000
27.2800 791.0000 1.0000
27.2900 721.0000 1.0000
27.3000 773.0000 1.0000
27.3100 787.0000 1.0000
27.3200 789.0000 1.0000
27.3300 748.0000 1.0000
27.3400 788.0000 1.0000
27.3500 752.0000 1.0000
27.3600 733.0000 1.0000
27.3700 748.0000 1.0000
27.3800 756.0000 1.0000
27.3900 760.0000 1.0000
27.4000 757.0000 1.0000
27.4100 735.0000 1.0000
27.4200 763.0000 1.0000
27.4300 736.0000 1.0000
27.4400 763.0000 1.0000
27.4500 758.0000 1.0000
27.4600 745.0000 1.0000
27.4700 750.0000 1.0000
27.4800 749.0000 1.0000
27.4900 776.0000 1.0000
27.5000 751.0000 1.0000
27.5100 786.0000 1.0000
27.5200 777.0000 1.0000
27.5300 782.0000 1.0000
27.5400 745.0000 1.0000
27.5500 780.0000 1.0000
27.5600 749.0000 1.0000
27.5700 745.0000 1.0000
27.5800 711.0000 1.0000
27.5900 760.0000 1.0000
27.6000 758.0000 1.0000
27.6100 730.0000 1.0000
27.6200 756.0000 1.0000
27.6300 725.0000 1.0000
27.6400 746.0000 1.0000
27.6500 740.0000 1.0000
27.6600 724.0000 1.0000
27.6700 751.0000 1.0000
27.6800 730.0000 1.0000
27.6900 734.0000 1.0000
27.7000 735.0000 1.0000
27.7100 734.0000 1.0000
27.7200 715.0000 1.0000
27.7300 757.0000 1.0000
27.7400 745.0000 1.0000
27.7500 733.0000 1.0000
27.7600 757.0000 1.0000
27.7700 785.0000 1.0000
27.7800 733.0000 1.0000
27.7900 738.0000 1.0000
27.8000 735.0000 1.0000
27.8100 750.0000 1.0000
27.8200 776.0000 1.0000
27.8300 729.0000 1.0000
27.8400 767.0000 1.0000
27.8500 730.0000 1.0000
27.8600 745.0000 1.0000
27.8700 756.0000 1.0000
27.8800 728.0000 1.0000
27.8900 714.0000 1.0000
27.9000 713.0000 1.0000
27.9100 698.0000 1.0000
27.9200 714.0000 1.0000
27.9300 701.0000 1.0000
27.9400 711.0000 1.0000
27.9500 702.0000 1.0000
27.9600 740.0000 1.0000
27.9700 744.0000 1.0000
27.9800 755.0000 1.0000
27.9900 760.0000 1.0000
28.0000 739.0000 1.0000
28.0100 698.0000 1.0000
28.0200 751.0000 1.0000
28.0300 730.0000 1.0000
28.0400 756.0000 1.0000
28.0500 719.0000 1.0000
28.0600 754.0000 1.0000
28.0700 731.0000 1.0000
28.0800 703.0000 1.0000
28.0900 763.0000 1.0000
28.1000 727.0000 1.0000
28.1100 731.0000 1.0000
28.1200 718.0000 1.0000
28.1300 750.0000 1.0000
28.1400 740.0000 1.0000
28.1500 711.0000 1.0000
28.1600 758.0000 1.0000
28.1700 755.0000 1.0000
28.1800 732.0000 1.0000
28.1900 765.0000 1.0000
28.2000 736.0000 1.0000
28.2100 759.0000 1.0000
28.2200 717.0000 1.0000
28.2300 771.0000 1.0000
28.2400 751.0000 1.0000
28.2500 750.0000 1.0000
28.2600 760.0000 1.0000
28.2700 711.0000 1.0000
28.2800 740.0000 1.0000
28.2900 700.0000 1.0000
28.3000 713.0000 1.0000
28.3100 716.0000 1.0000
28.3200 739.0000 1.0000
28.3300 754.0000 1.0000
28.3400 738.0000 1.0000
28.3500 700.0000 1.0000
28.3600 727.0000 1.0000
28.3700 681.0000 1.0000
28.3800 736.0000 1.0000
28.3900 746.0000 1.0000
28.4000 734.0000 1.0000
28.4100 730.0000 1.0000
28.4200 727.0000 1.0000
28.4300 718.0000 1.0000
28.4400 724.0000 1.0000
28.4500 731.0000 1.0000
28.4600 725.0000 1.0000
28.4700 709.0000 1.0000
28.4800 694.0000 1.0000
28.4900 710.0000 1.0000
28.5000 725.0000 1.0000
28.5100 722.0000 1.0000
28.5200 706.0000 1.0000
28.5300 743.0000 1.0000
28.5400 713.0000 1.0000
28.5500 740.0000 1.0000
28.5600 660.0000 1.0000
28.5700 712.0000 1.0000
28.5800 717.0000 1.0000
28.5900 743.0000 1.0000
28.6000 694.0000 1.0000
28.6100 735.0000 1.0000
28.6200 712.0000 1.0000
28.6300 712.0000 1.0000
28.6400 722.0000 1.0000
28.6500 698.0000 1.0000
28.6600 708.0000 1.0000
28.6700 678.0000 1.0000
28.6800 681.0000 1.0000
28.6900 689.0000 1.0000
28.7000 663.0000 1.0000
28.7100 726.0000 1.0000
28.7200 675.0000 1.0000
28.7300 659.0000 1.0000
28.7400 705.0000 1.0000
28.7500 726.0000 1.0000
28.7600 686.0000 1.0000
28.7700 684.0000 1.0000
28.7800 686.0000 1.0000
28.7900 678.0000 1.0000
28.8000 660.0000 1.0000
28.8100 677.0000 1.0000
28.8200 730.0000 1.0000
28.8300 695.0000 1.0000
28.8400 710.0000 1.0000
28.8500 683.0000 1.0000
28.8600 673.0000 1.0000
28.8700 692.0000 1.0000
28.8800 697.0000 1.0000
28.8900 669.0000 1.0000
28.9000 726.0000 1.0000
28.9100 727.0000 1.0000
28.9200 690.0000 1.0000
28.9300 686.0000 1.0000
28.9400 731.0000 1.0000
28.9500 674.0000 1.0000
28.9600 701.0000 1.0000
28.9700 705.0000 1.0000
28.9800 707.0000 1.0000
28.9900 689.0000 1.0000
29.0000 697.0000 1.0000
29.0100 721.0000 1.0000
29.0200 720.0000 1.0000
29.0300 707.0000 1.0000
29.0400 702.0000 1.0000
29.0500 706.0000 1.0000
29.0600 725.0000 1.0000
29.0700 696.0000 1.0000
29.0800 726.0000 1.0000
29.0900 680.0000 1.0000
29.1000 730.0000 1.0000
29.1100 684.0000 1.0000
29.1200 679.0000 1.0000
29.1300 689.0000 1.0000
29.1400 720.0000 1.0000
29.1500 688.0000 1.0000
29.1600 731.0000 1.0000
29.1700 691.0000 1.0000
29.1800 712.0000 1.0000
29.1900 626.0000 1.0000
29.2000 694.0000 1.0000
29.2100 658.0000 1.0000
29.2200 716.0000 1.0000
29.2300 668.0000 1.0000
29.2400 673.0000 1.0000
29.2500 676.0000 1.0000
29.2600 697.0000 1.0000
29.2700 707.0000 1.0000
29.2800 671.0000 1.0000
29.2900 689.0000 1.0000
29.3000 723.0000 1.0000
29.3100 689.0000 1.0000
29.3200 677.0000 1.0000
29.3300 701.0000 1.0000
29.3400 709.0000 1.0000
29.3500 676.0000 1.0000
29.3600 735.0000 1.0000
29.3700 703.0000 1.0000
29.3800 706.0000 1.0000
29.3900 663.0000 1.0000
29.4000 669.0000 1.0000
29.4100 665.0000 1.0000
29.4200 677.0000 1.0000
29.4300 678.0000 1.0000
29.4400 641.0000 1.0000
29.4500 656.0000 1.0000
29.4600 668.0000 1.0000
29.4700 680.0000 1.0000
29.4800 656.0000 1.0000
29.4900 660.0000 1.0000
29.5000 716.0000 1.0000
29.5100 673.0000 1.0000
29.5200 675.0000 1.0000
29.5300 664.0000 1.0000
29.5400 653.0000 1.0000
29.5500 700.0000 1.0000
29.5600 664.0000 1.0000
29.5700 711.0000 1.0000
29.5800 697.0000 1.0000
29.5900 668.0000 1.0000
29.6000 690.0000 1.0000
29.6100 685.0000 1.0000
29.6200 669.0000 1.0000
29.6300 723.0000 1.0000
29.6400 698.0000 1.0000
29.6500 661.0000 1.0000
29.6600 653.0000 1.0000
29.6700 676.0000 1.0000
29.6800 707.0000 1.0000
29.6900 678.0000 1.0000
29.7000 631.0000 1.0000
29.7100 626.0000 1.0000
29.7200 678.0000 1.0000
29.7300 704.0000 1.0000
29.7400 666.0000 1.0000
29.7500 663.0000 1.0000
29.7600 651.0000 1.0000
29.7700 658.0000 1.0000
29.7800 648.0000 1.0000
29.7900 665.0000 1.0000
29.8000 676.0000 1.0000
29.8100 651.0000 1.0000
29.8200 681.0000 1.0000
29.8300 692.0000 1.0000
29.8400 666.0000 1.0000
29.8500 691.0000 1.0000
29.8600 683.0000 1.0000
29.8700 693.0000 1.0000
29.8800 672.0000 1.0000
29.8900 639.0000 1.0000
29.9000 690.0000 1.0000
29.9100 648.0000 1.0000
29.9200 655.0000 1.0000
29.9300 632.0000 1.0000
29.9400 646.0000 1.0000
29.9500 668.0000 1.0000
29.9600 663.0000 1.0000
29.9700 661.0000 1.0000
29.9800 659.0000 1.0000
29.9900 658.0000 1.0000
30.0000 664.0000 1.0000
30.0100 652.0000 1.0000
30.0200 686.0000 1.0000
30.0300 670.0000 1.0000
30.0400 671.0000 1.0000
30.0500 654.0000 1.0000
30.0600 647.0000 1.0000
30.0700 634.0000 1.0000
30.0800 644.0000 1.0000
30.0900 676.0000 1.0000
30.1000 698.0000 1.0000
30.1100 707.0000 1.0000
30.1200 641.0000 1.0000
30.1300 645.0000 1.0000
30.1400 653.0000 1.0000
30.1500 662.0000 1.0000
30.1600 680.0000 1.0000
30.1700 682.0000 1.0000
30.1800 685.0000 1.0000
30.1900 663.0000 1.0000
30.2000 658.0000 1.0000
30.2100 652.0000 1.0000
30.2200 703.0000 1.0000
30.2300 631.0000 1.0000
30.2400 621.0000 1.0000
30.2500 653.0000 1.0000
30.2600 643.0000 1.0000
30.2700 661.0000 1.0000
30.2800 660.0000 1.0000
30.2900 689.0000 1.0000
30.3000 634.0000 1.0000
30.3100 688.0000 1.0000
30.3200 659.0000 1.0000
30.3300 698.0000 1.0000
30.3400 634.0000 1.0000
30.3500 635.0000 1.0000
30.3600 641.0000 1.0000
30.3700 639.0000 1.0000
30.3800 634.0000 1.0000
30.3900 664.0000 1.0000
30.4000 620.0000 1.0000
30.4100 651.0000 1.0000
30.4200 652.0000 1.0000
30.4300 629.0000 1.0000
30.4400 691.0000 1.0000
30.4500 658.0000 1.0000
30.4600 661.0000 1.0000
30.4700 663.0000 1.0000
30.4800 649.0000 1.0000
30.4900 653.0000 1.0000
30.5000 665.0000 1.0000
30.5100 663.0000 1.0000
30.5200 646.0000 1.0000
30.5300 653.0000 1.0000
30.5400 638.0000 1.0000
30.5500 651.0000 1.0000
30.5600 645.0000 1.0000
30.5700 666.0000 1.0000
30.5800 674.0000 1.0000
30.5900 643.0000 1.0000
30.6000 664.0000 1.0000
30.6100 719.0000 1.0000
30.6200 660.0000 1.0000
30.6300 689.0000 1.0000
30.6400 646.0000 1.0000
30.6500 642.0000 1.0000
30.6600 621.0000 1.0000
30.6700 638.0000 1.0000
30.6800 618.0000 1.0000
30.6900 638.0000 1.0000
30.7000 648.0000 1.0000
30.7100 696.0000 1.0000
30.7200 690.0000 1.0000
30.7300 690.0000 1.0000
30.7400 647.0000 1.0000
30.7500 663.0000 1.0000
30.7600 669.0000 1.0000
30.7700 660.0000 1.0000
30.7800 654.0000 1.0000
30.7900 668.0000 1.0000
30.8000 668.0000 1.0000
30.8100 658.0000 1.0000
30.8200 654.0000 1.0000
30.8300 638.0000 1.0000
30.8400 609.0000 1.0000
30.8500 676.0000 1.0000
30.8600 704.0000 1.0000
30.8700 641.0000 1.0000
30.8800 655.0000 1.0000
30.8900 652.0000 1.0000
30.9000 656.0000 1.0000
30.9100 668.0000 1.0000
30.9200 669.0000 1.0000
30.9300 643.0000 1.0000
30.9400 644.0000 1.0000
30.9500 663.0000 1.0000
30.9600 622.0000 1.0000
30.9700 658.0000 1.0000
30.9800 660.0000 1.0000
30.9900 665.0000 1.0000
31.0000 640.0000 1.0000
31.0100 639.0000 1.0000
31.0200 681.0000 1.0000
31.0300 665.0000 1.0000
31.0400 648.0000 1.0000
31.0500 644.0000 1.0000
31.0600 640.0000 1.0000
31.0700 676.0000 1.0000
31.0800 662.0000 1.0000
31.0900 637.0000 1.0000
31.1000 646.0000 1.0000
31.1100 604.0000 1.0000
31.1200 647.0000 1.0000
31.1300 664.0000 1.0000
31.1400 651.0000 1.0000
31.1500 656.0000 1.0000
31.1600 695.0000 1.0000
31.1700 662.0000 1.0000
31.1800 659.0000 1.0000
31.1900 639.0000 1.0000
31.2000 636.0000 1.0000
31.2100 646.0000 1.0000
31.2200 639.0000 1.0000
31.2300 684.0000 1.0000
31.2400 680.0000 1.0000
31.2500 673.0000 1.0000
31.2600 668.0000 1.0000
31.2700 628.0000 1.0000
31.2800 639.0000 1.0000
31.2900 614.0000 1.0000
31.3000 615.0000 1.0000
31.3100 599.0000 1.0000
31.3200 609.0000 1.0000
31.3300 678.0000 1.0000
31.3400 652.0000 1.0000
31.3500 606.0000 1.0000
31.3600 643.0000 1.0000
31.3700 632.0000 1.0000
31.3800 631.0000 1.0000
31.3900 620.0000 1.0000
31.4000 637.0000 1.0000
31.4100 634.0000 1.0000
31.4200 632.0000 1.0000
31.4300 619.0000 1.0000
31.4400 601.0000 1.0000
31.4500 608.0000 1.0000
31.4600 596.0000 1.0000
31.4700 653.0000 1.0000
31.4800 631.0000 1.0000
31.4900 593.0000 1.0000
31.5000 595.0000 1.0000
31.5100 648.0000 1.0000
31.5200 636.0000 1.0000
31.5300 669.0000 1.0000
31.5400 677.0000 1.0000
31.5500 625.0000 1.0000
31.5600 644.0000 1.0000
31.5700 660.0000 1.0000
31.5800 671.0000 1.0000
31.5900 655.0000 1.0000
31.6000 669.0000 1.0000
31.6100 681.0000 1.0000
31.6200 682.0000 1.0000
31.6300 720.0000 1.0000
31.6400 648.0000 1.0000
31.6500 652.0000 1.0000
31.6600 599.0000 1.0000
31.6700 629.0000 1.0000
31.6800 664.0000 1.0000
31.6900 644.0000 1.0000
31.7000 614.0000 1.0000
31.7100 642.0000 1.0000
31.7200 606.0000 1.0000
31.7300 669.0000 1.0000
31.7400 668.0000 1.0000
31.7500 621.0000 1.0000
31.7600 621.0000 1.0000
31.7700 618.0000 1.0000
31.7800 588.0000 1.0000
31.7900 618.0000 1.0000
31.8000 630.0000 1.0000
31.8100 601.0000 1.0000
31.8200 624.0000 1.0000
31.8300 580.0000 1.0000
31.8400 626.0000 1.0000
31.8500 606.0000 1.0000
31.8600 596.0000 1.0000
31.8700 617.0000 1.0000
31.8800 597.0000 1.0000
31.8900 577.0000 1.0000
31.9000 565.0000 1.0000
31.9100 606.0000 1.0000
31.9200 614.0000 1.0000
31.9300 606.0000 1.0000
31.9400 588.0000 1.0000
31.9500 619.0000 1.0000
31.9600 641.0000 1.0000
31.9700 609.0000 1.0000
31.9800 591.0000 1.0000
31.9900 654.0000 1.0000
32.0000 621.0000 1.0000
32.0100 590.0000 1.0000
32.0200 621.0000 1.0000
32.0300 633.0000 1.0000
32.0400 606.0000 1.0000
32.0500 641.0000 1.0000
32.0600 629.0000 1.0000
32.0700 634.0000 1.0000
32.0800 625.0000 1.0000
32.0900 644.0000 1.0000
32.1000 582.0000 1.0000
32.1100 596.0000 1.0000
32.1200 602.0000 1.0000
32.1300 634.0000 1.0000
32.1400 627.0000 1.0000
32.1500 619.0000 1.0000
32.1600 612.0000 1.0000
32.1700 597.0000 1.0000
32.1800 613.0000 1.0000
32.1900 637.0000 1.0000
32.2000 611.0000 1.0000
32.2100 599.0000 1.0000
32.2200 590.0000 1.0000
32.2300 618.0000 1.0000
32.2400 623.0000 1.0000
32.2500 604.0000 1.0000
32.2600 621.0000 1.0000
32.2700 585.0000 1.0000
32.2800 583.0000 1.0000
32.2900 610.0000 1.0000
32.3000 625.0000 1.0000
32.3100 608.0000 1.0000
32.3200 596.0000 1.0000
32.3300 578.0000 1.0000
32.3400 606.0000 1.0000
32.3500 576.0000 1.0000
32.3600 581.0000 1.0000
32.3700 598.0000 1.0000
32.3800 648.0000 1.0000
32.3900 591.0000 1.0000
32.4000 635.0000 1.0000
32.4100 614.0000 1.0000
32.4200 581.0000 1.0000
32.4300 605.0000 1.0000
32.4400 589.0000 1.0000
32.4500 580.0000 1.0000
32.4600 604.0000 1.0000
32.4700 622.0000 1.0000
32.4800 577.0000 1.0000
32.4900 605.0000 1.0000
32.5000 611.0000 1.0000
32.5100 646.0000 1.0000
32.5200 630.0000 1.0000
32.5300 600.0000 1.0000
32.5400 614.0000 1.0000
32.5500 603.0000 1.0000
32.5600 590.0000 1.0000
32.5700 616.0000 1.0000
32.5800 607.0000 1.0000
32.5900 583.0000 1.0000
32.6000 604.0000 1.0000
32.6100 608.0000 1.0000
32.6200 596.0000 1.0000
32.6300 619.0000 1.0000
32.6400 595.0000 1.0000
32.6500 587.0000 1.0000
32.6600 592.0000 1.0000
32.6700 614.0000 1.0000
32.6800 610.0000 1.0000
32.6900 602.0000 1.0000
32.7000 624.0000 1.0000
32.7100 602.0000 1.0000
32.7200 597.0000 1.0000
32.7300 608.0000 1.0000
32.7400 614.0000 1.0000
32.7500 619.0000 1.0000
32.7600 635.0000 1.0000
32.7700 589.0000 1.0000
32.7800 627.0000 1.0000
32.7900 619.0000 1.0000
32.8000 592.0000 1.0000
32.8100 616.0000 1.0000
32.8200 612.0000 1.0000
32.8300 606.0000 1.0000
32.8400 624.0000 1.0000
32.8500 606.0000 1.0000
32.8600 652.0000 1.0000
32.8700 617.0000 1.0000
32.8800 641.0000 1.0000
32.8900 612.0000 1.0000
32.9000 631.0000 1.0000
32.9100 638.0000 1.0000
32.9200 677.0000 1.0000
32.9300 706.0000 1.0000
32.9400 649.0000 1.0000
32.9500 637.0000 1.0000
32.9600 656.0000 1.0000
32.9700 698.0000 1.0000
32.9800 698.0000 1.0000
32.9900 699.0000 1.0000
33.0000 748.0000 1.0000
33.0100 759.0000 1.0000
33.0200 786.0000 1.0000
33.0300 784.0000 1.0000
33.0400 794.0000 1.0000
33.0500 779.0000 1.0000
33.0600 807.0000 1.0000
33.0700 854.0000 1.0000
33.0800 844.0000 1.0000
33.0900 836.0000 1.0000
33.1000 864.0000 1.0000
33.1100 892.0000 1.0000
33.1200 820.0000 1.0000
33.1300 799.0000 1.0000
33.1400 827.0000 1.0000
33.1500 780.0000 1.0000
33.1600 830.0000 1.0000
33.1700 778.0000 1.0000
33.1800 756.0000 1.0000
33.1900 762.0000 1.0000
33.2000 737.0000 1.0000
33.2100 730.0000 1.0000
33.2200 735.0000 1.0000
33.2300 701.0000 1.0000
33.2400 706.0000 1.0000
33.2500 695.0000 1.0000
33.2600 716.0000 1.0000
33.2700 673.0000 1.0000
33.2800 650.0000 1.0000
33.2900 682.0000 1.0000
33.3000 663.0000 1.0000
33.3100 668.0000 1.0000
33.3200 670.0000 1.0000
33.3300 626.0000 1.0000
33.3400 694.0000 1.0000
33.3500 703.0000 1.0000
33.3600 683.0000 1.0000
33.3700 734.0000 1.0000
33.3800 760.0000 1.0000
33.3900 726.0000 1.0000
33.4000 696.0000 1.0000
33.4100 740.0000 1.0000
33.4200 716.0000 1.0000
33.4300 796.0000 1.0000
33.4400 804.0000 1.0000
33.4500 796.0000 1.0000
33.4600 801.0000 1.0000
33.4700 787.0000 1.0000
33.4800 821.0000 1.0000
33.4900 905.0000 1.0000
33.5000 902.0000 1.0000
33.5100 978.0000 1.0000
33.5200 960.0000 1.0000
33.5300 987.0000 1.0000
33.5400 1089.0000 1.0000
33.5500 1053.0000 1.0000
33.5600 1133.0000 1.0000
33.5700 1210.0000 1.0000
33.5800 1304.0000 1.0000
33.5900 1315.0000 1.0000
33.6000 1409.0000 1.0000
33.6100 1422.0000 1.0000
33.6200 1378.0000 1.0000
33.6300 1447.0000 1.0000
33.6400 1474.0000 1.0000
33.6500 1482.0000 1.0000
33.6600 1443.0000 1.0000
33.6700 1410.0000 1.0000
33.6800 1410.0000 1.0000
33.6900 1356.0000 1.0000
33.7000 1324.0000 1.0000
33.7100 1347.0000 1.0000
33.7200 1270.0000 1.0000
33.7300 1197.0000 1.0000
33.7400 1134.0000 1.0000
33.7500 1084.0000 1.0000
33.7600 1058.0000 1.0000
33.7700 1025.0000 1.0000
33.7800 1025.0000 1.0000
33.7900 980.0000 1.0000
33.8000 986.0000 1.0000
33.8100 914.0000 1.0000
33.8200 823.0000 1.0000
33.8300 844.0000 1.0000
33.8400 829.0000 1.0000
33.8500 758.0000 1.0000
33.8600 770.0000 1.0000
33.8700 745.0000 1.0000
33.8800 748.0000 1.0000
33.8900 742.0000 1.0000
33.9000 722.0000 1.0000
33.9100 719.0000 1.0000
33.9200 681.0000 1.0000
33.9300 695.0000 1.0000
33.9400 654.0000 1.0000
33.9500 684.0000 1.0000
33.9600 701.0000 1.0000
33.9700 643.0000 1.0000
33.9800 685.0000 1.0000
33.9900 664.0000 1.0000
34.0000 621.0000 1.0000
34.0100 677.0000 1.0000
34.0200 612.0000 1.0000
34.0300 628.0000 1.0000
34.0400 604.0000 1.0000
34.0500 595.0000 1.0000
34.0600 615.0000 1.0000
34.0700 617.0000 1.0000
34.0800 603.0000 1.0000
34.0900 623.0000 1.0000
34.1000 592.0000 1.0000
34.1100 576.0000 1.0000
34.1200 603.0000 1.0000
34.1300 581.0000 1.0000
34.1400 583.0000 1.0000
34.1500 569.0000 1.0000
34.1600 554.0000 1.0000
34.1700 566.0000 1.0000
34.1800 587.0000 1.0000
34.1900 554.0000 1.0000
34.2000 568.0000 1.0000
34.2100 545.0000 1.0000
34.2200 556.0000 1.0000
34.2300 591.0000 1.0000
34.2400 582.0000 1.0000
34.2500 544.0000 1.0000
34.2600 565.0000 1.0000
34.2700 573.0000 1.0000
34.2800 568.0000 1.0000
34.2900 544.0000 1.0000
34.3000 566.0000 1.0000
34.3100 586.0000 1.0000
34.3200 589.0000 1.0000
34.3300 557.0000 1.0000
34.3400 576.0000 1.0000
34.3500 576.0000 1.0000
34.3600 565.0000 1.0000
34.3700 574.0000 1.0000
34.3800 531.0000 1.0000
34.3900 553.0000 1.0000
34.4000 550.0000 1.0000
34.4100 562.0000 1.0000
34.4200 527.0000 1.0000
34.4300 578.0000 1.0000
34.4400 536.0000 1.0000
34.4500 569.0000 1.0000
34.4600 545.0000 1.0000
34.4700 564.0000 1.0000
34.4800 580.0000 1.0000
34.4900 574.0000 1.0000
34.5000 560.0000 1.0000
34.5100 536.0000 1.0000
34.5200 556.0000 1.0000
34.5300 540.0000 1.0000
34.5400 549.0000 1.0000
34.5500 560.0000 1.0000
34.5600 534.0000 1.0000
34.5700 553.0000 1.0000
34.5800 518.0000 1.0000
34.5900 515.0000 1.0000
34.6000 521.0000 1.0000
34.6100 569.0000 1.0000
34.6200 535.0000 1.0000
34.6300 543.0000 1.0000
34.6400 557.0000 1.0000
34.6500 549.0000 1.0000
34.6600 485.0000 1.0000
34.6700 514.0000 1.0000
34.6800 526.0000 1.0000
34.6900 518.0000 1.0000
34.7000 522.0000 1.0000
34.7100 508.0000 1.0000
34.7200 550.0000 1.0000
34.7300 505.0000 1.0000
34.7400 513.0000 1.0000
34.7500 524.0000 1.0000
34.7600 523.0000 1.0000
34.7700 533.0000 1.0000
34.7800 571.0000 1.0000
34.7900 562.0000 1.0000
34.8000 588.0000 1.0000
34.8100 550.0000 1.0000
34.8200 520.0000 1.0000
34.8300 562.0000 1.0000
34.8400 545.0000 1.0000
34.8500 546.0000 1.0000
34.8600 536.0000 1.0000
34.8700 569.0000 1.0000
34.8800 506.0000 1.0000
34.8900 489.0000 1.0000
34.9000 537.0000 1.0000
34.9100 511.0000 1.0000
34.9200 493.0000 1.0000
34.9300 519.0000 1.0000
34.9400 506.0000 1.0000
34.9500 552.0000 1.0000
34.9600 557.0000 1.0000
34.9700 544.0000 1.0000
34.9800 557.0000 1.0000
34.9900 559.0000 1.0000
35.0000 515.0000 1.0000
35.0100 520.0000 1.0000
35.0200 525.0000 1.0000
35.0300 532.0000 1.0000
35.0400 525.0000 1.0000
35.0500 529.0000 1.0000
35.0600 488.0000 1.0000
35.0700 540.0000 1.0000
35.0800 514.0000 1.0000
35.0900 491.0000 1.0000
35.1000 529.0000 1.0000
35.1100 523.0000 1.0000
35.1200 508.0000 1.0000
35.1300 498.0000 1.0000
35.1400 518.0000 1.0000
35.1500 543.0000 1.0000
35.1600 538.0000 1.0000
35.1700 559.0000 1.0000
35.1800 559.0000 1.0000
35.1900 537.0000 1.0000
35.2000 543.0000 1.0000
35.2100 512.0000 1.0000
35.2200 535.0000 1.0000
35.2300 551.0000 1.0000
35.2400 497.0000 1.0000
35.2500 532.0000 1.0000
35.2600 556.0000 1.0000
35.2700 517.0000 1.0000
35.2800 546.0000 1.0000
35.2900 566.0000 1.0000
35.3000 526.0000 1.0000
35.3100 519.0000 1.0000
35.3200 561.0000 1.0000
35.3300 539.0000 1.0000
35.3400 517.0000 1.0000
35.3500 619.0000 1.0000
35.3600 585.0000 1.0000
35.3700 592.0000 1.0000
35.3800 579.0000 1.0000
35.3900 609.0000 1.0000
35.4000 625.0000 1.0000
35.4100 640.0000 1.0000
35.4200 685.0000 1.0000
35.4300 702.0000 1.0000
35.4400 705.0000 1.0000
35.4500 689.0000 1.0000
35.4600 725.0000 1.0000
35.4700 742.0000 1.0000
35.4800 768.0000 1.0000
35.4900 860.0000 1.0000
35.5000 881.0000 1.0000
35.5100 911.0000 1.0000
35.5200 986.0000 1.0000
35.5300 1034.0000 1.0000
35.5400 1048.0000 1.0000
35.5500 1080.0000 1.0000
35.5600 1089.0000 1.0000
35.5700 1055.0000 1.0000
35.5800 1040.0000 1.0000
35.5900 1038.0000 1.0000
35.6000 1003.0000 1.0000
35.6100 1002.0000 1.0000
35.6200 934.0000 1.0000
35.6300 934.0000 1.0000
35.6400 881.0000 1.0000
35.6500 889.0000 1.0000
35.6600 858.0000 1.0000
35.6700 802.0000 1.0000
35.6800 832.0000 1.0000
35.6900 745.0000 1.0000
35.7000 735.0000 1.0000
35.7100 712.0000 1.0000
35.7200 637.0000 1.0000
35.7300 622.0000 1.0000
35.7400 633.0000 1.0000
35.7500 631.0000 1.0000
35.7600 589.0000 1.0000
35.7700 542.0000 1.0000
35.7800 552.0000 1.0000
35.7900 551.0000 1.0000
35.8000 584.0000 1.0000
35.8100 558.0000 1.0000
35.8200 565.0000 1.0000
35.8300 524.0000 1.0000
35.8400 535.0000 1.0000
35.8500 529.0000 1.0000
35.8600 530.0000 1.0000
35.8700 506.0000 1.0000
35.8800 534.0000 1.0000
35.8900 510.0000 1.0000
35.9000 509.0000 1.0000
35.9100 501.0000 1.0000
35.9200 515.0000 1.0000
35.9300 505.0000 1.0000
35.9400 534.0000 1.0000
35.9500 518.0000 1.0000
35.9600 500.0000 1.0000
35.9700 452.0000 1.0000
35.9800 470.0000 1.0000
35.9900 496.0000 1.0000
36.0000 501.0000 1.0000
36.0100 485.0000 1.0000
36.0200 477.0000 1.0000
36.0300 480.0000 1.0000
36.0400 483.0000 1.0000
36.0500 469.0000 1.0000
36.0600 490.0000 1.0000
36.0700 517.0000 1.0000
36.0800 495.0000 1.0000
36.0900 488.0000 1.0000
36.1000 496.0000 1.0000
36.1100 512.0000 1.0000
36.1200 483.0000 1.0000
36.1300 460.0000 1.0000
36.1400 482.0000 1.0000
36.1500 487.0000 1.0000
36.1600 492.0000 1.0000
36.1700 487.0000 1.0000
36.1800 486.0000 1.0000
36.1900 473.0000 1.0000
36.2000 489.0000 1.0000
36.2100 497.0000 1.0000
36.2200 463.0000 1.0000
36.2300 480.0000 1.0000
36.2400 480.0000 1.0000
36.2500 480.0000 1.0000
36.2600 558.0000 1.0000
36.2700 490.0000 1.0000
36.2800 480.0000 1.0000
36.2900 530.0000 1.0000
36.3000 468.0000 1.0000
36.3100 518.0000 1.0000
36.3200 538.0000 1.0000
36.3300 502.0000 1.0000
36.3400 476.0000 1.0000
36.3500 515.0000 1.0000
36.3600 487.0000 1.0000
36.3700 523.0000 1.0000
36.3800 496.0000 1.0000
36.3900 453.0000 1.0000
36.4000 492.0000 1.0000
36.4100 498.0000 1.0000
36.4200 521.0000 1.0000
36.4300 475.0000 1.0000
36.4400 510.0000 1.0000
36.4500 517.0000 1.0000
36.4600 508.0000 1.0000
36.4700 493.0000 1.0000
36.4800 506.0000 1.0000
36.4900 489.0000 1.0000
36.5000 507.0000 1.0000
36.5100 449.0000 1.0000
36.5200 463.0000 1.0000
36.5300 496.0000 1.0000
36.5400 485.0000 1.0000
36.5500 463.0000 1.0000
36.5600 465.0000 1.0000
36.5700 459.0000 1.0000
36.5800 482.0000 1.0000
36.5900 469.0000 1.0000
36.6000 469.0000 1.0000
36.6100 489.0000 1.0000
36.6200 472.0000 1.0000
36.6300 484.0000 1.0000
36.6400 491.0000 1.0000
36.6500 479.0000 1.0000
36.6600 498.0000 1.0000
36.6700 533.0000 1.0000
36.6800 493.0000 1.0000
36.6900 466.0000 1.0000
36.7000 470.0000 1.0000
36.7100 488.0000 1.0000
36.7200 510.0000 1.0000
36.7300 476.0000 1.0000
36.7400 441.0000 1.0000
36.7500 503.0000 1.0000
36.7600 492.0000 1.0000
36.7700 486.0000 1.0000
36.7800 475.0000 1.0000
36.7900 457.0000 1.0000
36.8000 518.0000 1.0000
36.8100 502.0000 1.0000
36.8200 508.0000 1.0000
36.8300 498.0000 1.0000
36.8400 479.0000 1.0000
36.8500 488.0000 1.0000
36.8600 467.0000 1.0000
36.8700 440.0000 1.0000
36.8800 490.0000 1.0000
36.8900 514.0000 1.0000
36.9000 476.0000 1.0000
36.9100 463.0000 1.0000
36.9200 452.0000 1.0000
36.9300 483.0000 1.0000
36.9400 511.0000 1.0000
36.9500 501.0000 1.0000
36.9600 505.0000 1.0000
36.9700 499.0000 1.0000
36.9800 464.0000 1.0000
36.9900 488.0000 1.0000
37.0000 480.0000 1.0000
37.0100 501.0000 1.0000
37.0200 487.0000 1.0000
37.0300 480.0000 1.0000
37.0400 467.0000 1.0000
37.0500 444.0000 1.0000
37.0600 491.0000 1.0000
37.0700 524.0000 1.0000
37.0800 473.0000 1.0000
37.0900 481.0000 1.0000
37.1000 484.0000 1.0000
37.1100 515.0000 1.0000
37.1200 508.0000 1.0000
37.1300 484.0000 1.0000
37.1400 518.0000 1.0000
37.1500 485.0000 1.0000
37.1600 492.0000 1.0000
37.1700 512.0000 1.0000
37.1800 510.0000 1.0000
37.1900 487.0000 1.0000
37.2000 520.0000 1.0000
37.2100 530.0000 1.0000
37.2200 487.0000 1.0000
37.2300 504.0000 1.0000
37.2400 510.0000 1.0000
37.2500 531.0000 1.0000
37.2600 553.0000 1.0000
37.2700 526.0000 1.0000
37.2800 537.0000 1.0000
37.2900 544.0000 1.0000
37.3000 540.0000 1.0000
37.3100 555.0000 1.0000
37.3200 548.0000 1.0000
37.3300 541.0000 1.0000
37.3400 568.0000 1.0000
37.3500 564.0000 1.0000
37.3600 592.0000 1.0000
37.3700 650.0000 1.0000
37.3800 647.0000 1.0000
37.3900 612.0000 1.0000
37.4000 648.0000 1.0000
37.4100 620.0000 1.0000
37.4200 685.0000 1.0000
37.4300 687.0000 1.0000
37.4400 668.0000 1.0000
37.4500 742.0000 1.0000
37.4600 793.0000 1.0000
37.4700 738.0000 1.0000
37.4800 809.0000 1.0000
37.4900 837.0000 1.0000
37.5000 878.0000 1.0000
37.5100 930.0000 1.0000
37.5200 946.0000 1.0000
37.5300 1013.0000 1.0000
37.5400 1052.0000 1.0000
37.5500 1143.0000 1.0000
37.5600 1164.0000 1.0000
37.5700 1284.0000 1.0000
37.5800 1377.0000 1.0000
37.5900 1438.0000 1.0000
37.6000 1477.0000 1.0000
37.6100 1643.0000 1.0000
37.6200 1681.0000 1.0000
37.6300 1788.0000 1.0000
37.6400 1894.0000 1.0000
37.6500 1979.0000 1.0000
37.6600 2048.0000 1.0000
37.6700 2073.0000 1.0000
37.6800 2161.0000 1.0000
37.6900 2253.0000 1.0000
37.7000 2126.0000 1.0000
37.7100 2148.0000 1.0000
37.7200 2123.0000 1.0000
37.7300 2111.0000 1.0000
37.7400 2087.0000 1.0000
37.7500 2012.0000 1.0000
37.7600 1980.0000 1.0000
37.7700 1891.0000 1.0000
37.7800 1852.0000 1.0000
37.7900 1714.0000 1.0000
37.8000 1729.0000 1.0000
37.8100 1664.0000 1.0000
37.8200 1539.0000 1.0000
37.8300 1469.0000 1.0000
37.8400 1338.0000 1.0000
37.8500 1287.0000 1.0000
37.8600 1237.0000 1.0000
37.8700 1164.0000 1.0000
37.8800 1108.0000 1.0000
37.8900 1008.0000 1.0000
37.9000 1020.0000 1.0000
37.9100 926.0000 1.0000
37.9200 935.0000 1.0000
37.9300 835.0000 1.0000
37.9400 794.0000 1.0000
37.9500 775.0000 1.0000
37.9600 738.0000 1.0000
37.9700 725.0000 1.0000
37.9800 688.0000 1.0000
37.9900 669.0000 1.0000
38.0000 600.0000 1.0000
38.0100 618.0000 1.0000
38.0200 603.0000 1.0000
38.0300 603.0000 1.0000
38.0400 589.0000 1.0000
38.0500 575.0000 1.0000
38.0600 589.0000 1.0000
38.0700 575.0000 1.0000
38.0800 573.0000 1.0000
38.0900 555.0000 1.0000
38.1000 519.0000 1.0000
38.1100 514.0000 1.0000
38.1200 512.0000 1.0000
38.1300 505.0000 1.0000
38.1400 539.0000 1.0000
38.1500 512.0000 1.0000
38.1600 490.0000 1.0000
38.1700 482.0000 1.0000
38.1800 474.0000 1.0000
38.1900 481.0000 1.0000
38.2000 487.0000 1.0000
38.2100 444.0000 1.0000
38.2200 480.0000 1.0000
38.2300 475.0000 1.0000
38.2400 471.0000 1.0000
38.2500 485.0000 1.0000
38.2600 462.0000 1.0000
38.2700 457.0000 1.0000
38.2800 437.0000 1.0000
38.2900 437.0000 1.0000
38.3000 437.0000 1.0000
38.3100 450.0000 1.0000
38.3200 440.0000 1.0000
38.3300 451.0000 1.0000
38.3400 479.0000 1.0000
38.3500 500.0000 1.0000
38.3600 431.0000 1.0000
38.3700 457.0000 1.0000
38.3800 465.0000 1.0000
38.3900 469.0000 1.0000
38.4000 444.0000 1.0000
38.4100 423.0000 1.0000
38.4200 444.0000 1.0000
38.4300 506.0000 1.0000
38.4400 457.0000 1.0000
38.4500 463.0000 1.0000
38.4600 417.0000 1.0000
38.4700 443.0000 1.0000
38.4800 442.0000 1.0000
38.4900 461.0000 1.0000
38.5000 464.0000 1.0000
38.5100 453.0000 1.0000
38.5200 437.0000 1.0000
38.5300 429.0000 1.0000
38.5400 404.0000 1.0000
38.5500 453.0000 1.0000
38.5600 462.0000 1.0000
38.5700 440.0000 1.0000
38.5800 442.0000 1.0000
38.5900 443.0000 1.0000
38.6000 433.0000 1.0000
38.6100 472.0000 1.0000
38.6200 430.0000 1.0000
38.6300 422.0000 1.0000
38.6400 459.0000 1.0000
38.6500 483.0000 1.0000
38.6600 490.0000 1.0000
38.6700 467.0000 1.0000
38.6800 451.0000 1.0000
38.6900 489.0000 1.0000
38.7000 485.0000 1.0000
38.7100 457.0000 1.0000
38.7200 443.0000 1.0000
38.7300 462.0000 1.0000
38.7400 463.0000 1.0000
38.7500 458.0000 1.0000
38.7600 463.0000 1.0000
38.7700 477.0000 1.0000
38.7800 408.0000 1.0000
38.7900 455.0000 1.0000
38.8000 456.0000 1.0000
38.8100 465.0000 1.0000
38.8200 434.0000 1.0000
38.8300 460.0000 1.0000
38.8400 455.0000 1.0000
38.8500 450.0000 1.0000
38.8600 483.0000 1.0000
38.8700 474.0000 1.0000
38.8800 472.0000 1.0000
38.8900 420.0000 1.0000
38.9000 477.0000 1.0000
38.9100 450.0000 1.0000
38.9200 456.0000 1.0000
38.9300 463.0000 1.0000
38.9400 417.0000 1.0000
38.9500 426.0000 1.0000
38.9600 420.0000 1.0000
38.9700 462.0000 1.0000
38.9800 427.0000 1.0000
38.9900 446.0000 1.0000
39.0000 448.0000 1.0000
39.0100 424.0000 1.0000
39.0200 476.0000 1.0000
39.0300 441.0000 1.0000
39.0400 447.0000 1.0000
39.0500 435.0000 1.0000
39.0600 438.0000 1.0000
39.0700 436.0000 1.0000
39.0800 419.0000 1.0000
39.0900 441.0000 1.0000
39.1000 409.0000 1.0000
39.1100 406.0000 1.0000
39.1200 431.0000 1.0000
39.1300 450.0000 1.0000
39.1400 453.0000 1.0000
39.1500 403.0000 1.0000
39.1600 420.0000 1.0000
39.1700 409.0000 1.0000
39.1800 422.0000 1.0000
39.1900 408.0000 1.0000
39.2000 466.0000 1.0000
39.2100 402.0000 1.0000
39.2200 426.0000 1.0000
39.2300 430.0000 1.0000
39.2400 437.0000 1.0000
39.2500 442.0000 1.0000
39.2600 428.0000 1.0000
39.2700 431.0000 1.0000
39.2800 449.0000 1.0000
39.2900 449.0000 1.0000
39.3000 431.0000 1.0000
39.3100 413.0000 1.0000
39.3200 384.0000 1.0000
39.3300 407.0000 1.0000
39.3400 410.0000 1.0000
39.3500 421.0000 1.0000
39.3600 408.0000 1.0000
39.3700 403.0000 1.0000
39.3800 412.0000 1.0000
39.3900 416.0000 1.0000
39.4000 418.0000 1.0000
39.4100 439.0000 1.0000
39.4200 417.0000 1.0000
39.4300 419.0000 1.0000
39.4400 433.0000 1.0000
39.4500 431.0000 1.0000
39.4600 435.0000 1.0000
39.4700 452.0000 1.0000
39.4800 421.0000 1.0000
39.4900 416.0000 1.0000
39.5000 433.0000 1.0000
39.5100 410.0000 1.0000
39.5200 409.0000 1.0000
39.5300 424.0000 1.0000
39.5400 399.0000 1.0000
39.5500 389.0000 1.0000
39.5600 431.0000 1.0000
39.5700 446.0000 1.0000
39.5800 429.0000 1.0000
39.5900 402.0000 1.0000
39.6000 389.0000 1.0000
39.6100 420.0000 1.0000
39.6200 401.0000 1.0000
39.6300 447.0000 1.0000
39.6400 429.0000 1.0000
39.6500 411.0000 1.0000
39.6600 396.0000 1.0000
39.6700 394.0000 1.0000
39.6800 456.0000 1.0000
39.6900 418.0000 1.0000
39.7000 383.0000 1.0000
39.7100 391.0000 1.0000
39.7200 428.0000 1.0000
39.7300 402.0000 1.0000
39.7400 408.0000 1.0000
39.7500 414.0000 1.0000
39.7600 392.0000 1.0000
39.7700 421.0000 1.0000
39.7800 416.0000 1.0000
39.7900 405.0000 1.0000
39.8000 440.0000 1.0000
39.8100 420.0000 1.0000
39.8200 413.0000 1.0000
39.8300 429.0000 1.0000
39.8400 396.0000 1.0000
39.8500 375.0000 1.0000
39.8600 394.0000 1.0000
39.8700 416.0000 1.0000
39.8800 422.0000 1.0000
39.8900 402.0000 1.0000
39.9000 421.0000 1.0000
39.9100 410.0000 1.0000
39.9200 405.0000 1.0000
39.9300 421.0000 1.0000
39.9400 434.0000 1.0000
39.9500 432.0000 1.0000
39.9600 423.0000 1.0000
39.9700 409.0000 1.0000
39.9800 389.0000 1.0000
39.9900 412.0000 1.0000
40.0000 397.0000 1.0000
40.0100 397.0000 1.0000
40.0200 395.0000 1.0000
40.0300 407.0000 1.0000
40.0400 432.0000 1.0000
40.0500 425.0000 1.0000
40.0600 391.0000 1.0000
40.0700 400.0000 1.0000
40.0800 432.0000 1.0000
40.0900 426.0000 1.0000
40.1000 422.0000 1.0000
40.1100 400.0000 1.0000
40.1200 418.0000 1.0000
40.1300 399.0000 1.0000
40.1400 391.0000 1.0000
40.1500 409.0000 1.0000
40.1600 421.0000 1.0000
40.1700 390.0000 1.0000
40.1800 395.0000 1.0000
40.1900 411.0000 1.0000
40.2000 399.0000 1.0000
40.2100 404.0000 1.0000
40.2200 426.0000 1.0000
40.2300 427.0000 1.0000
40.2400 405.0000 1.0000
40.2500 379.0000 1.0000
40.2600 372.0000 1.0000
40.2700 383.0000 1.0000
40.2800 395.0000 1.0000
40.2900 395.0000 1.0000
40.3000 401.0000 1.0000
40.3100 380.0000 1.0000
40.3200 392.0000 1.0000
40.3300 398.0000 1.0000
40.3400 405.0000 1.0000
40.3500 413.0000 1.0000
40.3600 406.0000 1.0000
40.3700 422.0000 1.0000
40.3800 427.0000 1.0000
40.3900 411.0000 1.0000
40.4000 451.0000 1.0000
40.4100 410.0000 1.0000
40.4200 369.0000 1.0000
40.4300 418.0000 1.0000
40.4400 415.0000 1.0000
40.4500 429.0000 1.0000
40.4600 418.0000 1.0000
40.4700 451.0000 1.0000
40.4800 439.0000 1.0000
40.4900 414.0000 1.0000
40.5000 391.0000 1.0000
40.5100 419.0000 1.0000
40.5200 411.0000 1.0000
40.5300 416.0000 1.0000
40.5400 396.0000 1.0000
40.5500 451.0000 1.0000
40.5600 438.0000 1.0000
40.5700 447.0000 1.0000
40.5800 438.0000 1.0000
40.5900 466.0000 1.0000
40.6000 449.0000 1.0000
40.6100 417.0000 1.0000
40.6200 431.0000 1.0000
40.6300 456.0000 1.0000
40.6400 414.0000 1.0000
40.6500 439.0000 1.0000
40.6600 438.0000 1.0000
40.6700 429.0000 1.0000
40.6800 460.0000 1.0000
40.6900 456.0000 1.0000
40.7000 481.0000 1.0000
40.7100 485.0000 1.0000
40.7200 473.0000 1.0000
40.7300 472.0000 1.0000
40.7400 441.0000 1.0000
40.7500 453.0000 1.0000
40.7600 447.0000 1.0000
40.7700 453.0000 1.0000
40.7800 498.0000 1.0000
40.7900 505.0000 1.0000
40.8000 497.0000 1.0000
40.8100 473.0000 1.0000
40.8200 482.0000 1.0000
40.8300 453.0000 1.0000
40.8400 444.0000 1.0000
40.8500 469.0000 1.0000
40.8600 452.0000 1.0000
40.8700 467.0000 1.0000
40.8800 459.0000 1.0000
40.8900 464.0000 1.0000
40.9000 446.0000 1.0000
40.9100 440.0000 1.0000
40.9200 410.0000 1.0000
40.9300 430.0000 1.0000
40.9400 430.0000 1.0000
40.9500 419.0000 1.0000
40.9600 453.0000 1.0000
40.9700 438.0000 1.0000
40.9800 407.0000 1.0000
40.9900 404.0000 1.0000
41.0000 394.0000 1.0000
41.0100 408.0000 1.0000
41.0200 427.0000 1.0000
41.0300 393.0000 1.0000
41.0400 398.0000 1.0000
41.0500 399.0000 1.0000
41.0600 433.0000 1.0000
41.0700 396.0000 1.0000
41.0800 413.0000 1.0000
41.0900 423.0000 1.0000
41.1000 412.0000 1.0000
41.1100 412.0000 1.0000
41.1200 406.0000 1.0000
41.1300 386.0000 1.0000
41.1400 390.0000 1.0000
41.1500 401.0000 1.0000
41.1600 418.0000 1.0000
41.1700 407.0000 1.0000
41.1800 396.0000 1.0000
41.1900 406.0000 1.0000
41.2000 405.0000 1.0000
41.2100 409.0000 1.0000
41.2200 400.0000 1.0000
41.2300 411.0000 1.0000
41.2400 423.0000 1.0000
41.2500 390.0000 1.0000
41.2600 388.0000 1.0000
41.2700 402.0000 1.0000
41.2800 377.0000 1.0000
41.2900 395.0000 1.0000
41.3000 366.0000 1.0000
41.3100 395.0000 1.0000
41.3200 436.0000 1.0000
41.3300 395.0000 1.0000
41.3400 371.0000 1.0000
41.3500 403.0000 1.0000
41.3600 371.0000 1.0000
41.3700 377.0000 1.0000
41.3800 402.0000 1.0000
41.3900 416.0000 1.0000
41.4000 383.0000 1.0000
41.4100 395.0000 1.0000
41.4200 370.0000 1.0000
41.4300 386.0000 1.0000
41.4400 386.0000 1.0000
41.4500 394.0000 1.0000
41.4600 391.0000 1.0000
41.4700 451.0000 1.0000
41.4800 382.0000 1.0000
41.4900 378.0000 1.0000
41.5000 380.0000 1.0000
41.5100 418.0000 1.0000
41.5200 396.0000 1.0000
41.5300 407.0000 1.0000
41.5400 375.0000 1.0000
41.5500 389.0000 1.0000
41.5600 409.0000 1.0000
41.5700 394.0000 1.0000
41.5800 371.0000 1.0000
41.5900 390.0000 1.0000
41.6000 371.0000 1.0000
41.6100 405.0000 1.0000
41.6200 356.0000 1.0000
41.6300 380.0000 1.0000
41.6400 385.0000 1.0000
41.6500 373.0000 1.0000
41.6600 384.0000 1.0000
41.6700 380.0000 1.0000
41.6800 372.0000 1.0000
41.6900 390.0000 1.0000
41.7000 412.0000 1.0000
41.7100 432.0000 1.0000
41.7200 387.0000 1.0000
41.7300 402.0000 1.0000
41.7400 399.0000 1.0000
41.7500 371.0000 1.0000
41.7600 392.0000 1.0000
41.7700 355.0000 1.0000
41.7800 393.0000 1.0000
41.7900 391.0000 1.0000
41.8000 369.0000 1.0000
41.8100 406.0000 1.0000
41.8200 381.0000 1.0000
41.8300 378.0000 1.0000
41.8400 393.0000 1.0000
41.8500 403.0000 1.0000
41.8600 395.0000 1.0000
41.8700 382.0000 1.0000
41.8800 373.0000 1.0000
41.8900 361.0000 1.0000
41.9000 373.0000 1.0000
41.9100 384.0000 1.0000
41.9200 381.0000 1.0000
41.9300 376.0000 1.0000
41.9400 409.0000 1.0000
41.9500 383.0000 1.0000
41.9600 394.0000 1.0000
41.9700 431.0000 1.0000
41.9800 402.0000 1.0000
41.9900 370.0000 1.0000
42.0000 402.0000 1.0000
42.0100 354.0000 1.0000
42.0200 388.0000 1.0000
42.0300 389.0000 1.0000
42.0400 390.0000 1.0000
42.0500 422.0000 1.0000
42.0600 397.0000 1.0000
42.0700 371.0000 1.0000
42.0800 376.0000 1.0000
42.0900 403.0000 1.0000
42.1000 399.0000 1.0000
42.1100 405.0000 1.0000
42.1200 396.0000 1.0000
42.1300 411.0000 1.0000
42.1400 373.0000 1.0000
42.1500 431.0000 1.0000
42.1600 399.0000 1.0000
42.1700 397.0000 1.0000
42.1800 403.0000 1.0000
42.1900 427.0000 1.0000
42.2000 401.0000 1.0000
42.2100 373.0000 1.0000
42.2200 388.0000 1.0000
42.2300 409.0000 1.0000
42.2400 383.0000 1.0000
42.2500 406.0000 1.0000
42.2600 394.0000 1.0000
42.2700 399.0000 1.0000
42.2800 433.0000 1.0000
42.2900 424.0000 1.0000
42.3000 399.0000 1.0000
42.3100 405.0000 1.0000
42.3200 386.0000 1.0000
42.3300 414.0000 1.0000
42.3400 425.0000 1.0000
42.3500 423.0000 1.0000
42.3600 437.0000 1.0000
42.3700 477.0000 1.0000
42.3800 420.0000 1.0000
42.3900 389.0000 1.0000
42.4000 403.0000 1.0000
42.4100 401.0000 1.0000
42.4200 454.0000 1.0000
42.4300 408.0000 1.0000
42.4400 423.0000 1.0000
42.4500 403.0000 1.0000
42.4600 417.0000 1.0000
42.4700 402.0000 1.0000
42.4800 411.0000 1.0000
42.4900 407.0000 1.0000
42.5000 416.0000 1.0000
42.5100 445.0000 1.0000
42.5200 432.0000 1.0000
42.5300 401.0000 1.0000
42.5400 377.0000 1.0000
42.5500 409.0000 1.0000
42.5600 381.0000 1.0000
42.5700 396.0000 1.0000
42.5800 410.0000 1.0000
42.5900 392.0000 1.0000
42.6000 413.0000 1.0000
42.6100 391.0000 1.0000
42.6200 398.0000 1.0000
42.6300 394.0000 1.0000
42.6400 399.0000 1.0000
42.6500 398.0000 1.0000
42.6600 375.0000 1.0000
42.6700 396.0000 1.0000
42.6800 408.0000 1.0000
42.6900 392.0000 1.0000
42.7000 393.0000 1.0000
42.7100 389.0000 1.0000
42.7200 371.0000 1.0000
42.7300 391.0000 1.0000
42.7400 378.0000 1.0000
42.7500 405.0000 1.0000
42.7600 376.0000 1.0000
42.7700 385.0000 1.0000
42.7800 399.0000 1.0000
42.7900 381.0000 1.0000
42.8000 401.0000 1.0000
42.8100 378.0000 1.0000
42.8200 388.0000 1.0000
42.8300 390.0000 1.0000
42.8400 391.0000 1.0000
42.8500 396.0000 1.0000
42.8600 384.0000 1.0000
42.8700 367.0000 1.0000
42.8800 403.0000 1.0000
42.8900 390.0000 1.0000
42.9000 402.0000 1.0000
42.9100 384.0000 1.0000
42.9200 397.0000 1.0000
42.9300 410.0000 1.0000
42.9400 373.0000 1.0000
42.9500 399.0000 1.0000
42.9600 354.0000 1.0000
42.9700 385.0000 1.0000
42.9800 383.0000 1.0000
42.9900 393.0000 1.0000
43.0000 402.0000 1.0000
43.0100 371.0000 1.0000
43.0200 374.0000 1.0000
43.0300 358.0000 1.0000
43.0400 374.0000 1.0000
43.0500 403.0000 1.0000
43.0600 359.0000 1.0000
43.0700 376.0000 1.0000
43.0800 359.0000 1.0000
43.0900 392.0000 1.0000
43.1000 375.0000 1.0000
43.1100 368.0000 1.0000
43.1200 424.0000 1.0000
43.1300 394.0000 1.0000
43.1400 366.0000 1.0000
43.1500 393.0000 1.0000
43.1600 395.0000 1.0000
43.1700 362.0000 1.0000
43.1800 366.0000 1.0000
43.1900 395.0000 1.0000
43.2000 380.0000 1.0000
43.2100 393.0000 1.0000
43.2200 401.0000 1.0000
43.2300 356.0000 1.0000
43.2400 384.0000 1.0000
43.2500 375.0000 1.0000
43.2600 358.0000 1.0000
43.2700 389.0000 1.0000
43.2800 360.0000 1.0000
43.2900 392.0000 1.0000
43.3000 384.0000 1.0000
43.3100 398.0000 1.0000
43.3200 377.0000 1.0000
43.3300 394.0000 1.0000
43.3400 388.0000 1.0000
43.3500 359.0000 1.0000
43.3600 385.0000 1.0000
43.3700 375.0000 1.0000
43.3800 387.0000 1.0000
43.3900 403.0000 1.0000
43.4000 399.0000 1.0000
43.4100 419.0000 1.0000
43.4200 379.0000 1.0000
43.4300 405.0000 1.0000
43.4400 379.0000 1.0000
43.4500 397.0000 1.0000
43.4600 376.0000 1.0000
43.4700 403.0000 1.0000
43.4800 408.0000 1.0000
43.4900 420.0000 1.0000
43.5000 410.0000 1.0000
43.5100 393.0000 1.0000
43.5200 406.0000 1.0000
43.5300 391.0000 1.0000
43.5400 388.0000 1.0000
43.5500 368.0000 1.0000
43.5600 371.0000 1.0000
43.5700 372.0000 1.0000
43.5800 405.0000 1.0000
43.5900 383.0000 1.0000
43.6000 397.0000 1.0000
43.6100 398.0000 1.0000
43.6200 403.0000 1.0000
43.6300 378.0000 1.0000
43.6400 370.0000 1.0000
43.6500 387.0000 1.0000
43.6600 353.0000 1.0000
43.6700 372.0000 1.0000
43.6800 376.0000 1.0000
43.6900 389.0000 1.0000
43.7000 375.0000 1.0000
43.7100 384.0000 1.0000
43.7200 384.0000 1.0000
43.7300 374.0000 1.0000
43.7400 375.0000 1.0000
43.7500 390.0000 1.0000
43.7600 387.0000 1.0000
43.7700 389.0000 1.0000
43.7800 360.0000 1.0000
43.7900 348.0000 1.0000
43.8000 343.0000 1.0000
43.8100 355.0000 1.0000
43.8200 389.0000 1.0000
43.8300 393.0000 1.0000
43.8400 357.0000 1.0000
43.8500 358.0000 1.0000
43.8600 394.0000 1.0000
43.8700 380.0000 1.0000
43.8800 377.0000 1.0000
43.8900 361.0000 1.0000
43.9000 363.0000 1.0000
43.9100 353.0000 1.0000
43.9200 371.0000 1.0000
43.9300 372.0000 1.0000
43.9400 381.0000 1.0000
43.9500 377.0000 1.0000
43.9600 356.0000 1.0000
43.9700 370.0000 1.0000
43.9800 368.0000 1.0000
43.9900 394.0000 1.0000
44.0000 413.0000 1.0000
44.0100 399.0000 1.0000
44.0200 388.0000 1.0000
44.0300 386.0000 1.0000
44.0400 387.0000 1.0000
44.0500 375.0000 1.0000
44.0600 390.0000 1.0000
44.0700 383.0000 1.0000
44.0800 383.0000 1.0000
44.0900 395.0000 1.0000
44.1000 382.0000 1.0000
44.1100 360.0000 1.0000
44.1200 392.0000 1.0000
44.1300 382.0000 1.0000
44.1400 357.0000 1.0000
44.1500 366.0000 1.0000
44.1600 352.0000 1.0000
44.1700 389.0000 1.0000
44.1800 348.0000 1.0000
44.1900 346.0000 1.0000
44.2000 365.0000 1.0000
44.2100 394.0000 1.0000
44.2200 375.0000 1.0000
44.2300 377.0000 1.0000
44.2400 377.0000 1.0000
44.2500 386.0000 1.0000
44.2600 382.0000 1.0000
44.2700 387.0000 1.0000
44.2800 389.0000 1.0000
44.2900 389.0000 1.0000
44.3000 405.0000 1.0000
44.3100 356.0000 1.0000
44.3200 369.0000 1.0000
44.3300 356.0000 1.0000
44.3400 362.0000 1.0000
44.3500 379.0000 1.0000
44.3600 374.0000 1.0000
44.3700 360.0000 1.0000
44.3800 343.0000 1.0000
44.3900 348.0000 1.0000
44.4000 364.0000 1.0000
44.4100 390.0000 1.0000
44.4200 374.0000 1.0000
44.4300 372.0000 1.0000
44.4400 365.0000 1.0000
44.4500 357.0000 1.0000
44.4600 355.0000 1.0000
44.4700 372.0000 1.0000
44.4800 356.0000 1.0000
44.4900 364.0000 1.0000
44.5000 356.0000 1.0000
44.5100 394.0000 1.0000
44.5200 377.0000 1.0000
44.5300 370.0000 1.0000
44.5400 373.0000 1.0000
44.5500 360.0000 1.0000
44.5600 393.0000 1.0000
44.5700 369.0000 1.0000
44.5800 364.0000 1.0000
44.5900 372.0000 1.0000
44.6000 367.0000 1.0000
44.6100 374.0000 1.0000
44.6200 340.0000 1.0000
44.6300 361.0000 1.0000
44.6400 375.0000 1.0000
44.6500 359.0000 1.0000
44.6600 351.0000 1.0000
44.6700 372.0000 1.0000
44.6800 386.0000 1.0000
44.6900 354.0000 1.0000
44.7000 355.0000 1.0000
44.7100 359.0000 1.0000
44.7200 363.0000 1.0000
44.7300 367.0000 1.0000
44.7400 397.0000 1.0000
44.7500 370.0000 1.0000
44.7600 354.0000 1.0000
44.7700 355.0000 1.0000
44.7800 348.0000 1.0000
44.7900 350.0000 1.0000
44.8000 349.0000 1.0000
44.8100 383.0000 1.0000
44.8200 383.0000 1.0000
44.8300 371.0000 1.0000
44.8400 349.0000 1.0000
44.8500 374.0000 1.0000
44.8600 387.0000 1.0000
44.8700 364.0000 1.0000
44.8800 379.0000 1.0000
44.8900 374.0000 1.0000
44.9000 353.0000 1.0000
44.9100 380.0000 1.0000
44.9200 331.0000 1.0000
44.9300 374.0000 1.0000
44.9400 381.0000 1.0000
44.9500 372.0000 1.0000
44.9600 380.0000 1.0000
44.9700 376.0000 1.0000
44.9800 388.0000 1.0000
44.9900 351.0000 1.0000
45.0000 378.0000 1.0000
45.0100 366.0000 1.0000
45.0200 371.0000 1.0000
45.0300 371.0000 1.0000
45.0400 368.0000 1.0000
45.0500 355.0000 1.0000
45.0600 344.0000 1.0000
45.0700 338.0000 1.0000
45.0800 370.0000 1.0000
45.0900 383.0000 1.0000
45.1000 379.0000 1.0000
45.1100 366.0000 1.0000
45.1200 386.0000 1.0000
45.1300 356.0000 1.0000
45.1400 376.0000 1.0000
45.1500 386.0000 1.0000
45.1600 395.0000 1.0000
45.1700 389.0000 1.0000
45.1800 380.0000 1.0000
45.1900 386.0000 1.0000
45.2000 370.0000 1.0000
45.2100 389.0000 1.0000
45.2200 377.0000 1.0000
45.2300 368.0000 1.0000
45.2400 374.0000 1.0000
45.2500 403.0000 1.0000
45.2600 363.0000 1.0000
45.2700 385.0000 1.0000
45.2800 388.0000 1.0000
45.2900 348.0000 1.0000
45.3000 392.0000 1.0000
45.3100 394.0000 1.0000
45.3200 391.0000 1.0000
45.3300 404.0000 1.0000
45.3400 381.0000 1.0000
45.3500 379.0000 1.0000
45.3600 404.0000 1.0000
45.3700 390.0000 1.0000
45.3800 413.0000 1.0000
45.3900 359.0000 1.0000
45.4000 375.0000 1.0000
45.4100 380.0000 1.0000
45.4200 385.0000 1.0000
45.4300 384.0000 1.0000
45.4400 367.0000 1.0000
45.4500 342.0000 1.0000
45.4600 402.0000 1.0000
45.4700 385.0000 1.0000
45.4800 391.0000 1.0000
45.4900 362.0000 1.0000
45.5000 359.0000 1.0000
45.5100 353.0000 1.0000
45.5200 372.0000 1.0000
45.5300 353.0000 1.0000
45.5400 364.0000 1.0000
45.5500 356.0000 1.0000
45.5600 347.0000 1.0000
45.5700 348.0000 1.0000
45.5800 371.0000 1.0000
45.5900 335.0000 1.0000
45.6000 371.0000 1.0000
45.6100 352.0000 1.0000
45.6200 336.0000 1.0000
45.6300 353.0000 1.0000
45.6400 318.0000 1.0000
45.6500 341.0000 1.0000
45.6600 359.0000 1.0000
45.6700 330.0000 1.0000
45.6800 372.0000 1.0000
45.6900 385.0000 1.0000
45.7000 351.0000 1.0000
45.7100 352.0000 1.0000
45.7200 332.0000 1.0000
45.7300 385.0000 1.0000
45.7400 377.0000 1.0000
45.7500 356.0000 1.0000
45.7600 360.0000 1.0000
45.7700 365.0000 1.0000
45.7800 366.0000 1.0000
45.7900 338.0000 1.0000
45.8000 327.0000 1.0000
45.8100 366.0000 1.0000
45.8200 376.0000 1.0000
45.8300 364.0000 1.0000
45.8400 374.0000 1.0000
45.8500 395.0000 1.0000
45.8600 358.0000 1.0000
45.8700 349.0000 1.0000
45.8800 360.0000 1.0000
45.8900 331.0000 1.0000
45.9000 341.0000 1.0000
45.9100 369.0000 1.0000
45.9200 338.0000 1.0000
45.9300 358.0000 1.0000
45.9400 345.0000 1.0000
45.9500 324.0000 1.0000
45.9600 355.0000 1.0000
45.9700 361.0000 1.0000
45.9800 323.0000 1.0000
45.9900 356.0000 1.0000
46.0000 333.0000 1.0000
46.0100 352.0000 1.0000
46.0200 353.0000 1.0000
46.0300 348.0000 1.0000
46.0400 362.0000 1.0000
46.0500 381.0000 1.0000
46.0600 386.0000 1.0000
46.0700 374.0000 1.0000
46.0800 331.0000 1.0000
46.0900 345.0000 1.0000
46.1000 365.0000 1.0000
46.1100 380.0000 1.0000
46.1200 375.0000 1.0000
46.1300 352.0000 1.0000
46.1400 361.0000 1.0000
46.1500 354.0000 1.0000
46.1600 361.0000 1.0000
46.1700 367.0000 1.0000
46.1800 393.0000 1.0000
46.1900 359.0000 1.0000
46.2000 353.0000 1.0000
46.2100 334.0000 1.0000
46.2200 363.0000 1.0000
46.2300 334.0000 1.0000
46.2400 337.0000 1.0000
46.2500 362.0000 1.0000
46.2600 348.0000 1.0000
46.2700 348.0000 1.0000
46.2800 348.0000 1.0000
46.2900 354.0000 1.0000
46.3000 362.0000 1.0000
46.3100 363.0000 1.0000
46.3200 348.0000 1.0000
46.3300 356.0000 1.0000
46.3400 387.0000 1.0000
46.3500 329.0000 1.0000
46.3600 335.0000 1.0000
46.3700 364.0000 1.0000
46.3800 368.0000 1.0000
46.3900 358.0000 1.0000
46.4000 373.0000 1.0000
46.4100 367.0000 1.0000
46.4200 340.0000 1.0000
46.4300 383.0000 1.0000
46.4400 357.0000 1.0000
46.4500 334.0000 1.0000
46.4600 352.0000 1.0000
46.4700 361.0000 1.0000
46.4800 362.0000 1.0000
46.4900 347.0000 1.0000
46.5000 351.0000 1.0000
46.5100 329.0000 1.0000
46.5200 365.0000 1.0000
46.5300 360.0000 1.0000
46.5400 367.0000 1.0000
46.5500 390.0000 1.0000
46.5600 378.0000 1.0000
46.5700 353.0000 1.0000
46.5800 355.0000 1.0000
46.5900 332.0000 1.0000
46.6000 368.0000 1.0000
46.6100 340.0000 1.0000
46.6200 359.0000 1.0000
46.6300 353.0000 1.0000
46.6400 317.0000 1.0000
46.6500 352.0000 1.0000
46.6600 358.0000 1.0000
46.6700 366.0000 1.0000
46.6800 327.0000 1.0000
46.6900 334.0000 1.0000
46.7000 369.0000 1.0000
46.7100 352.0000 1.0000
46.7200 326.0000 1.0000
46.7300 329.0000 1.0000
46.7400 341.0000 1.0000
46.7500 339.0000 1.0000
46.7600 343.0000 1.0000
46.7700 339.0000 1.0000
46.7800 340.0000 1.0000
46.7900 360.0000 1.0000
46.8000 343.0000 1.0000
46.8100 345.0000 1.0000
46.8200 369.0000 1.0000
46.8300 392.0000 1.0000
46.8400 360.0000 1.0000
46.8500 356.0000 1.0000
46.8600 363.0000 1.0000
46.8700 333.0000 1.0000
46.8800 335.0000 1.0000
46.8900 343.0000 1.0000
46.9000 313.0000 1.0000
46.9100 342.0000 1.0000
46.9200 360.0000 1.0000
46.9300 356.0000 1.0000
46.9400 338.0000 1.0000
46.9500 345.0000 1.0000
46.9600 339.0000 1.0000
46.9700 300.0000 1.0000
46.9800 357.0000 1.0000
46.9900 369.0000 1.0000
47.0000 338.0000 1.0000
47.0100 360.0000 1.0000
47.0200 353.0000 1.0000
47.0300 366.0000 1.0000
47.0400 347.0000 1.0000
47.0500 324.0000 1.0000
47.0600 345.0000 1.0000
47.0700 341.0000 1.0000
47.0800 323.0000 1.0000
47.0900 358.0000 1.0000
47.1000 359.0000 1.0000
47.1100 346.0000 1.0000
47.1200 366.0000 1.0000
47.1300 320.0000 1.0000
47.1400 340.0000 1.0000
47.1500 349.0000 1.0000
47.1600 358.0000 1.0000
47.1700 350.0000 1.0000
47.1800 329.0000 1.0000
47.1900 341.0000 1.0000
47.2000 352.0000 1.0000
47.2100 356.0000 1.0000
47.2200 345.0000 1.0000
47.2300 355.0000 1.0000
47.2400 348.0000 1.0000
47.2500 328.0000 1.0000
47.2600 335.0000 1.0000
47.2700 361.0000 1.0000
47.2800 379.0000 1.0000
47.2900 352.0000 1.0000
47.3000 360.0000 1.0000
47.3100 310.0000 1.0000
47.3200 340.0000 1.0000
47.3300 361.0000 1.0000
47.3400 372.0000 1.0000
47.3500 344.0000 1.0000
47.3600 321.0000 1.0000
47.3700 332.0000 1.0000
47.3800 311.0000 1.0000
47.3900 337.0000 1.0000
47.4000 317.0000 1.0000
47.4100 326.0000 1.0000
47.4200 349.0000 1.0000
47.4300 358.0000 1.0000
47.4400 352.0000 1.0000
47.4500 329.0000 1.0000
47.4600 342.0000 1.0000
47.4700 324.0000 1.0000
47.4800 353.0000 1.0000
47.4900 357.0000 1.0000
47.5000 355.0000 1.0000
47.5100 351.0000 1.0000
47.5200 337.0000 1.0000
47.5300 330.0000 1.0000
47.5400 346.0000 1.0000
47.5500 347.0000 1.0000
47.5600 366.0000 1.0000
47.5700 324.0000 1.0000
47.5800 360.0000 1.0000
47.5900 357.0000 1.0000
47.6000 352.0000 1.0000
47.6100 343.0000 1.0000
47.6200 359.0000 1.0000
47.6300 332.0000 1.0000
47.6400 315.0000 1.0000
47.6500 347.0000 1.0000
47.6600 360.0000 1.0000
47.6700 336.0000 1.0000
47.6800 335.0000 1.0000
47.6900 349.0000 1.0000
47.7000 312.0000 1.0000
47.7100 333.0000 1.0000
47.7200 373.0000 1.0000
47.7300 318.0000 1.0000
47.7400 383.0000 1.0000
47.7500 342.0000 1.0000
47.7600 342.0000 1.0000
47.7700 329.0000 1.0000
47.7800 342.0000 1.0000
47.7900 315.0000 1.0000
47.8000 337.0000 1.0000
47.8100 325.0000 1.0000
47.8200 363.0000 1.0000
47.8300 321.0000 1.0000
47.8400 344.0000 1.0000
47.8500 362.0000 1.0000
47.8600 357.0000 1.0000
47.8700 330.0000 1.0000
47.8800 330.0000 1.0000
47.8900 342.0000 1.0000
47.9000 305.0000 1.0000
47.9100 341.0000 1.0000
47.9200 315.0000 1.0000
47.9300 325.0000 1.0000
47.9400 338.0000 1.0000
47.9500 330.0000 1.0000
47.9600 332.0000 1.0000
47.9700 333.0000 1.0000
47.9800 338.0000 1.0000
47.9900 344.0000 1.0000
48.0000 336.0000 1.0000
48.0100 323.0000 1.0000
48.0200 333.0000 1.0000
48.0300 345.0000 1.0000
48.0400 323.0000 1.0000
48.0500 352.0000 1.0000
48.0600 313.0000 1.0000
48.0700 303.0000 1.0000
48.0800 339.0000 1.0000
48.0900 343.0000 1.0000
48.1000 366.0000 1.0000
48.1100 362.0000 1.0000
48.1200 333.0000 1.0000
48.1300 346.0000 1.0000
48.1400 356.0000 1.0000
48.1500 333.0000 1.0000
48.1600 320.0000 1.0000
48.1700 287.0000 1.0000
48.1800 316.0000 1.0000
48.1900 336.0000 1.0000
48.2000 332.0000 1.0000
48.2100 368.0000 1.0000
48.2200 332.0000 1.0000
48.2300 328.0000 1.0000
48.2400 305.0000 1.0000
48.2500 362.0000 1.0000
48.2600 339.0000 1.0000
48.2700 334.0000 1.0000
48.2800 348.0000 1.0000
48.2900 337.0000 1.0000
48.3000 354.0000 1.0000
48.3100 339.0000 1.0000
48.3200 330.0000 1.0000
48.3300 364.0000 1.0000
48.3400 327.0000 1.0000
48.3500 332.0000 1.0000
48.3600 357.0000 1.0000
48.3700 342.0000 1.0000
48.3800 344.0000 1.0000
48.3900 336.0000 1.0000
48.4000 323.0000 1.0000
48.4100 326.0000 1.0000
48.4200 360.0000 1.0000
48.4300 377.0000 1.0000
48.4400 355.0000 1.0000
48.4500 364.0000 1.0000
48.4600 348.0000 1.0000
48.4700 318.0000 1.0000
48.4800 339.0000 1.0000
48.4900 351.0000 1.0000
48.5000 354.0000 1.0000
48.5100 336.0000 1.0000
48.5200 321.0000 1.0000
48.5300 326.0000 1.0000
48.5400 330.0000 1.0000
48.5500 328.0000 1.0000
48.5600 346.0000 1.0000
48.5700 330.0000 1.0000
48.5800 313.0000 1.0000
48.5900 325.0000 1.0000
48.6000 331.0000 1.0000
48.6100 374.0000 1.0000
48.6200 358.0000 1.0000
48.6300 305.0000 1.0000
48.6400 329.0000 1.0000
48.6500 358.0000 1.0000
48.6600 318.0000 1.0000
48.6700 324.0000 1.0000
48.6800 340.0000 1.0000
48.6900 318.0000 1.0000
48.7000 331.0000 1.0000
48.7100 340.0000 1.0000
48.7200 322.0000 1.0000
48.7300 344.0000 1.0000
48.7400 345.0000 1.0000
48.7500 343.0000 1.0000
48.7600 356.0000 1.0000
48.7700 338.0000 1.0000
48.7800 354.0000 1.0000
48.7900 319.0000 1.0000
48.8000 368.0000 1.0000
48.8100 339.0000 1.0000
48.8200 320.0000 1.0000
48.8300 335.0000 1.0000
48.8400 348.0000 1.0000
48.8500 324.0000 1.0000
48.8600 330.0000 1.0000
48.8700 327.0000 1.0000
48.8800 363.0000 1.0000
48.8900 352.0000 1.0000
48.9000 348.0000 1.0000
48.9100 335.0000 1.0000
48.9200 317.0000 1.0000
48.9300 332.0000 1.0000
48.9400 332.0000 1.0000
48.9500 344.0000 1.0000
48.9600 317.0000 1.0000
48.9700 323.0000 1.0000
48.9800 337.0000 1.0000
48.9900 317.0000 1.0000
49.0000 293.0000 1.0000
49.0100 325.0000 1.0000
49.0200 383.0000 1.0000
49.0300 362.0000 1.0000
49.0400 322.0000 1.0000
49.0500 326.0000 1.0000
49.0600 343.0000 1.0000
49.0700 345.0000 1.0000
49.0800 331.0000 1.0000
49.0900 304.0000 1.0000
49.1000 298.0000 1.0000
49.1100 353.0000 1.0000
49.1200 330.0000 1.0000
49.1300 325.0000 1.0000
49.1400 339.0000 1.0000
49.1500 346.0000 1.0000
49.1600 366.0000 1.0000
49.1700 336.0000 1.0000
49.1800 335.0000 1.0000
49.1900 352.0000 1.0000
49.2000 349.0000 1.0000
49.2100 316.0000 1.0000
49.2200 370.0000 1.0000
49.2300 341.0000 1.0000
49.2400 386.0000 1.0000
49.2500 348.0000 1.0000
49.2600 353.0000 1.0000
49.2700 339.0000 1.0000
49.2800 346.0000 1.0000
49.2900 335.0000 1.0000
49.3000 342.0000 1.0000
49.3100 392.0000 1.0000
49.3200 387.0000 1.0000
49.3300 406.0000 1.0000
49.3400 369.0000 1.0000
49.3500 397.0000 1.0000
49.3600 407.0000 1.0000
49.3700 398.0000 1.0000
49.3800 383.0000 1.0000
49.3900 384.0000 1.0000
49.4000 400.0000 1.0000
49.4100 398.0000 1.0000
49.4200 415.0000 1.0000
49.4300 422.0000 1.0000
49.4400 384.0000 1.0000
49.4500 402.0000 1.0000
49.4600 398.0000 1.0000
49.4700 411.0000 1.0000
49.4800 407.0000 1.0000
49.4900 410.0000 1.0000
49.5000 360.0000 1.0000
49.5100 417.0000 1.0000
49.5200 450.0000 1.0000
49.5300 378.0000 1.0000
49.5400 378.0000 1.0000
49.5500 358.0000 1.0000
49.5600 363.0000 1.0000
49.5700 369.0000 1.0000
49.5800 380.0000 1.0000
49.5900 365.0000 1.0000
49.6000 343.0000 1.0000
49.6100 355.0000 1.0000
49.6200 355.0000 1.0000
49.6300 316.0000 1.0000
49.6400 335.0000 1.0000
49.6500 348.0000 1.0000
49.6600 341.0000 1.0000
49.6700 345.0000 1.0000
49.6800 316.0000 1.0000
49.6900 376.0000 1.0000
49.7000 372.0000 1.0000
49.7100 323.0000 1.0000
49.7200 352.0000 1.0000
49.7300 340.0000 1.0000
49.7400 372.0000 1.0000
49.7500 351.0000 1.0000
49.7600 351.0000 1.0000
49.7700 333.0000 1.0000
49.7800 378.0000 1.0000
49.7900 337.0000 1.0000
49.8000 340.0000 1.0000
49.8100 343.0000 1.0000
49.8200 352.0000 1.0000
49.8300 324.0000 1.0000
49.8400 326.0000 1.0000
49.8500 354.0000 1.0000
49.8600 346.0000 1.0000
49.8700 320.0000 1.0000
49.8800 352.0000 1.0000
49.8900 329.0000 1.0000
49.9000 361.0000 1.0000
49.9100 334.0000 1.0000
49.9200 337.0000 1.0000
49.9300 333.0000 1.0000
49.9400 334.0000 1.0000
49.9500 305.0000 1.0000
49.9600 318.0000 1.0000
49.9700 352.0000 1.0000
49.9800 349.0000 1.0000
49.9900 368.0000 1.0000
50.0000 355.0000 1.0000
50.0100 344.0000 1.0000
50.0200 333.0000 1.0000
50.0300 331.0000 1.0000
50.0400 328.0000 1.0000
50.0500 303.0000 1.0000
50.0600 307.0000 1.0000
50.0700 348.0000 1.0000
50.0800 335.0000 1.0000
50.0900 346.0000 1.0000
50.1000 321.0000 1.0000
50.1100 336.0000 1.0000
50.1200 343.0000 1.0000
50.1300 366.0000 1.0000
50.1400 304.0000 1.0000
50.1500 337.0000 1.0000
50.1600 331.0000 1.0000
50.1700 358.0000 1.0000
50.1800 334.0000 1.0000
50.1900 309.0000 1.0000
50.2000 347.0000 1.0000
50.2100 351.0000 1.0000
50.2200 315.0000 1.0000
50.2300 336.0000 1.0000
50.2400 319.0000 1.0000
50.2500 331.0000 1.0000
50.2600 315.0000 1.0000
50.2700 319.0000 1.0000
50.2800 348.0000 1.0000
50.2900 351.0000 1.0000
50.3000 321.0000 1.0000
50.3100 310.0000 1.0000
50.3200 334.0000 1.0000
50.3300 327.0000 1.0000
50.3400 316.0000 1.0000
50.3500 310.0000 1.0000
50.3600 324.0000 1.0000
50.3700 334.0000 1.0000
50.3800 341.0000 1.0000
50.3900 334.0000 1.0000
50.4000 355.0000 1.0000
50.4100 348.0000 1.0000
50.4200 322.0000 1.0000
50.4300 349.0000 1.0000
50.4400 353.0000 1.0000
50.4500 357.0000 1.0000
50.4600 331.0000 1.0000
50.4700 352.0000 1.0000
50.4800 351.0000 1.0000
50.4900 330.0000 1.0000
50.5000 323.0000 1.0000
50.5100 357.0000 1.0000
50.5200 363.0000 1.0000
50.5300 339.0000 1.0000
50.5400 311.0000 1.0000
50.5500 333.0000 1.0000
50.5600 348.0000 1.0000
50.5700 356.0000 1.0000
50.5800 318.0000 1.0000
50.5900 315.0000 1.0000
50.6000 319.0000 1.0000
50.6100 339.0000 1.0000
50.6200 343.0000 1.0000
50.6300 351.0000 1.0000
50.6400 329.0000 1.0000
50.6500 347.0000 1.0000
50.6600 327.0000 1.0000
50.6700 304.0000 1.0000
50.6800 335.0000 1.0000
50.6900 336.0000 1.0000
50.7000 309.0000 1.0000
50.7100 332.0000 1.0000
50.7200 357.0000 1.0000
50.7300 328.0000 1.0000
50.7400 322.0000 1.0000
50.7500 366.0000 1.0000
50.7600 355.0000 1.0000
50.7700 321.0000 1.0000
50.7800 334.0000 1.0000
50.7900 336.0000 1.0000
50.8000 348.0000 1.0000
50.8100 356.0000 1.0000
50.8200 375.0000 1.0000
50.8300 328.0000 1.0000
50.8400 366.0000 1.0000
50.8500 340.0000 1.0000
50.8600 373.0000 1.0000
50.8700 368.0000 1.0000
50.8800 362.0000 1.0000
50.8900 351.0000 1.0000
50.9000 349.0000 1.0000
50.9100 385.0000 1.0000
50.9200 359.0000 1.0000
50.9300 351.0000 1.0000
50.9400 356.0000 1.0000
50.9500 374.0000 1.0000
50.9600 350.0000 1.0000
50.9700 348.0000 1.0000
50.9800 369.0000 1.0000
50.9900 385.0000 1.0000
51.0000 337.0000 1.0000
51.0100 354.0000 1.0000
51.0200 377.0000 1.0000
51.0300 376.0000 1.0000
51.0400 349.0000 1.0000
51.0500 367.0000 1.0000
51.0600 372.0000 1.0000
51.0700 414.0000 1.0000
51.0800 439.0000 1.0000
51.0900 397.0000 1.0000
51.1000 382.0000 1.0000
51.1100 427.0000 1.0000
51.1200 421.0000 1.0000
51.1300 440.0000 1.0000
51.1400 417.0000 1.0000
51.1500 439.0000 1.0000
51.1600 460.0000 1.0000
51.1700 485.0000 1.0000
51.1800 470.0000 1.0000
51.1900 478.0000 1.0000
51.2000 483.0000 1.0000
51.2100 508.0000 1.0000
51.2200 525.0000 1.0000
51.2300 612.0000 1.0000
51.2400 560.0000 1.0000
51.2500 597.0000 1.0000
51.2600 593.0000 1.0000
51.2700 655.0000 1.0000
51.2800 716.0000 1.0000
51.2900 698.0000 1.0000
51.3000 795.0000 1.0000
51.3100 809.0000 1.0000
51.3200 832.0000 1.0000
51.3300 888.0000 1.0000
51.3400 935.0000 1.0000
51.3500 1054.0000 1.0000
51.3600 1146.0000 1.0000
51.3700 1249.0000 1.0000
51.3800 1322.0000 1.0000
51.3900 1358.0000 1.0000
51.4000 1546.0000 1.0000
51.4100 1628.0000 1.0000
51.4200 1706.0000 1.0000
51.4300 1774.0000 1.0000
51.4400 1939.0000 1.0000
51.4500 1948.0000 1.0000
51.4600 2080.0000 1.0000
51.4700 2053.0000 1.0000
51.4800 2080.0000 1.0000
51.4900 2116.0000 1.0000
51.5000 2099.0000 1.0000
51.5100 2022.0000 1.0000
51.5200 1946.0000 1.0000
51.5300 1806.0000 1.0000
51.5400 1766.0000 1.0000
51.5500 1781.0000 1.0000
51.5600 1693.0000 1.0000
51.5700 1652.0000 1.0000
51.5800 1621.0000 1.0000
51.5900 1626.0000 1.0000
51.6000 1536.0000 1.0000
51.6100 1505.0000 1.0000
51.6200 1447.0000 1.0000
51.6300 1428.0000 1.0000
51.6400 1280.0000 1.0000
51.6500 1223.0000 1.0000
51.6600 1194.0000 1.0000
51.6700 1107.0000 1.0000
51.6800 1042.0000 1.0000
51.6900 930.0000 1.0000
51.7000 886.0000 1.0000
51.7100 824.0000 1.0000
51.7200 806.0000 1.0000
51.7300 713.0000 1.0000
51.7400 722.0000 1.0000
51.7500 650.0000 1.0000
51.7600 623.0000 1.0000
51.7700 616.0000 1.0000
51.7800 597.0000 1.0000
51.7900 572.0000 1.0000
51.8000 526.0000 1.0000
51.8100 521.0000 1.0000
51.8200 523.0000 1.0000
51.8300 476.0000 1.0000
51.8400 477.0000 1.0000
51.8500 451.0000 1.0000
51.8600 452.0000 1.0000
51.8700 436.0000 1.0000
51.8800 420.0000 1.0000
51.8900 414.0000 1.0000
51.9000 434.0000 1.0000
51.9100 404.0000 1.0000
51.9200 402.0000 1.0000
51.9300 398.0000 1.0000
51.9400 389.0000 1.0000
51.9500 419.0000 1.0000
51.9600 426.0000 1.0000
51.9700 369.0000 1.0000
51.9800 378.0000 1.0000
51.9900 393.0000 1.0000
52.0000 347.0000 1.0000
52.0100 400.0000 1.0000
52.0200 397.0000 1.0000
52.0300 407.0000 1.0000
52.0400 374.0000 1.0000
52.0500 392.0000 1.0000
52.0600 373.0000 1.0000
52.0700 357.0000 1.0000
52.0800 355.0000 1.0000
52.0900 360.0000 1.0000
52.1000 365.0000 1.0000
52.1100 386.0000 1.0000
52.1200 367.0000 1.0000
52.1300 364.0000 1.0000
52.1400 359.0000 1.0000
52.1500 323.0000 1.0000
52.1600 364.0000 1.0000
52.1700 386.0000 1.0000
52.1800 346.0000 1.0000
52.1900 358.0000 1.0000
52.2000 342.0000 1.0000
52.2100 359.0000 1.0000
52.2200 360.0000 1.0000
52.2300 342.0000 1.0000
52.2400 333.0000 1.0000
52.2500 343.0000 1.0000
52.2600 347.0000 1.0000
52.2700 334.0000 1.0000
52.2800 317.0000 1.0000
52.2900 327.0000 1.0000
52.3000 334.0000 1.0000
52.3100 357.0000 1.0000
52.3200 312.0000 1.0000
52.3300 323.0000 1.0000
52.3400 348.0000 1.0000
52.3500 334.0000 1.0000
52.3600 350.0000 1.0000
52.3700 337.0000 1.0000
52.3800 347.0000 1.0000
52.3900 320.0000 1.0000
52.4000 343.0000 1.0000
52.4100 332.0000 1.0000
52.4200 329.0000 1.0000
52.4300 346.0000 1.0000
52.4400 335.0000 1.0000
52.4500 309.0000 1.0000
52.4600 337.0000 1.0000
52.4700 325.0000 1.0000
52.4800 332.0000 1.0000
52.4900 345.0000 1.0000
52.5000 326.0000 1.0000
52.5100 321.0000 1.0000
52.5200 323.0000 1.0000
52.5300 316.0000 1.0000
52.5400 309.0000 1.0000
52.5500 326.0000 1.0000
52.5600 342.0000 1.0000
52.5700 320.0000 1.0000
52.5800 309.0000 1.0000
52.5900 349.0000 1.0000
52.6000 337.0000 1.0000
52.6100 321.0000 1.0000
52.6200 305.0000 1.0000
52.6300 345.0000 1.0000
52.6400 328.0000 1.0000
52.6500 331.0000 1.0000
52.6600 333.0000 1.0000
52.6700 308.0000 1.0000
52.6800 333.0000 1.0000
52.6900 328.0000 1.0000
52.7000 347.0000 1.0000
52.7100 328.0000 1.0000
52.7200 340.0000 1.0000
52.7300 331.0000 1.0000
52.7400 311.0000 1.0000
52.7500 334.0000 1.0000
52.7600 315.0000 1.0000
52.7700 345.0000 1.0000
52.7800 341.0000 1.0000
52.7900 318.0000 1.0000
52.8000 333.0000 1.0000
52.8100 332.0000 1.0000
52.8200 321.0000 1.0000
52.8300 334.0000 1.0000
52.8400 320.0000 1.0000
52.8500 300.0000 1.0000
52.8600 318.0000 1.0000
52.8700 314.0000 1.0000
52.8800 343.0000 1.0000
52.8900 304.0000 1.0000
52.9000 314.0000 1.0000
52.9100 314.0000 1.0000
52.9200 298.0000 1.0000
52.9300 331.0000 1.0000
52.9400 304.0000 1.0000
52.9500 346.0000 1.0000
52.9600 309.0000 1.0000
52.9700 329.0000 1.0000
52.9800 320.0000 1.0000
52.9900 314.0000 1.0000
53.0000 346.0000 1.0000
53.0100 321.0000 1.0000
53.0200 298.0000 1.0000
53.0300 331.0000 1.0000
53.0400 301.0000 1.0000
53.0500 331.0000 1.0000
53.0600 306.0000 1.0000
53.0700 277.0000 1.0000
53.0800 305.0000 1.0000
53.0900 296.0000 1.0000
53.1000 330.0000 1.0000
53.1100 305.0000 1.0000
53.1200 308.0000 1.0000
53.1300 307.0000 1.0000
53.1400 345.0000 1.0000
53.1500 364.0000 1.0000
53.1600 314.0000 1.0000
53.1700 310.0000 1.0000
53.1800 347.0000 1.0000
53.1900 312.0000 1.0000
53.2000 287.0000 1.0000
53.2100 332.0000 1.0000
53.2200 338.0000 1.0000
53.2300 319.0000 1.0000
53.2400 314.0000 1.0000
53.2500 323.0000 1.0000
53.2600 298.0000 1.0000
53.2700 340.0000 1.0000
53.2800 311.0000 1.0000
53.2900 317.0000 1.0000
53.3000 323.0000 1.0000
53.3100 329.0000 1.0000
53.3200 325.0000 1.0000
53.3300 284.0000 1.0000
53.3400 280.0000 1.0000
53.3500 324.0000 1.0000
53.3600 333.0000 1.0000
53.3700 346.0000 1.0000
53.3800 323.0000 1.0000
53.3900 318.0000 1.0000
53.4000 307.0000 1.0000
53.4100 310.0000 1.0000
53.4200 313.0000 1.0000
53.4300 320.0000 1.0000
53.4400 321.0000 1.0000
53.4500 343.0000 1.0000
53.4600 347.0000 1.0000
53.4700 340.0000 1.0000
53.4800 371.0000 1.0000
53.4900 332.0000 1.0000
53.5000 293.0000 1.0000
53.5100 335.0000 1.0000
53.5200 321.0000 1.0000
53.5300 329.0000 1.0000
53.5400 350.0000 1.0000
53.5500 319.0000 1.0000
53.5600 336.0000 1.0000
53.5700 344.0000 1.0000
53.5800 310.0000 1.0000
53.5900 323.0000 1.0000
53.6000 320.0000 1.0000
53.6100 319.0000 1.0000
53.6200 330.0000 1.0000
53.6300 345.0000 1.0000
53.6400 305.0000 1.0000
53.6500 333.0000 1.0000
53.6600 308.0000 1.0000
53.6700 331.0000 1.0000
53.6800 342.0000 1.0000
53.6900 322.0000 1.0000
53.7000 360.0000 1.0000
53.7100 359.0000 1.0000
53.7200 350.0000 1.0000
53.7300 317.0000 1.0000
53.7400 343.0000 1.0000
53.7500 322.0000 1.0000
53.7600 338.0000 1.0000
53.7700 343.0000 1.0000
53.7800 301.0000 1.0000
53.7900 333.0000 1.0000
53.8000 333.0000 1.0000
53.8100 337.0000 1.0000
53.8200 323.0000 1.0000
53.8300 336.0000 1.0000
53.8400 337.0000 1.0000
53.8500 334.0000 1.0000
53.8600 369.0000 1.0000
53.8700 305.0000 1.0000
53.8800 340.0000 1.0000
53.8900 336.0000 1.0000
53.9000 335.0000 1.0000
53.9100 338.0000 1.0000
53.9200 313.0000 1.0000
53.9300 365.0000 1.0000
53.9400 365.0000 1.0000
53.9500 384.0000 1.0000
53.9600 381.0000 1.0000
53.9700 378.0000 1.0000
53.9800 360.0000 1.0000
53.9900 389.0000 1.0000
54.0000 395.0000 1.0000
54.0100 397.0000 1.0000
54.0200 382.0000 1.0000
54.0300 357.0000 1.0000
54.0400 389.0000 1.0000
54.0500 397.0000 1.0000
54.0600 385.0000 1.0000
54.0700 406.0000 1.0000
54.0800 399.0000 1.0000
54.0900 381.0000 1.0000
54.1000 364.0000 1.0000
54.1100 363.0000 1.0000
54.1200 367.0000 1.0000
54.1300 331.0000 1.0000
54.1400 411.0000 1.0000
54.1500 423.0000 1.0000
54.1600 359.0000 1.0000
54.1700 381.0000 1.0000
54.1800 372.0000 1.0000
54.1900 365.0000 1.0000
54.2000 375.0000 1.0000
54.2100 365.0000 1.0000
54.2200 356.0000 1.0000
54.2300 341.0000 1.0000
54.2400 379.0000 1.0000
54.2500 358.0000 1.0000
54.2600 342.0000 1.0000
54.2700 371.0000 1.0000
54.2800 369.0000 1.0000
54.2900 369.0000 1.0000
54.3000 365.0000 1.0000
54.3100 394.0000 1.0000
54.3200 392.0000 1.0000
54.3300 386.0000 1.0000
54.3400 378.0000 1.0000
54.3500 363.0000 1.0000
54.3600 381.0000 1.0000
54.3700 367.0000 1.0000
54.3800 382.0000 1.0000
54.3900 386.0000 1.0000
54.4000 390.0000 1.0000
54.4100 418.0000 1.0000
54.4200 428.0000 1.0000
54.4300 465.0000 1.0000
54.4400 460.0000 1.0000
54.4500 458.0000 1.0000
54.4600 435.0000 1.0000
54.4700 454.0000 1.0000
54.4800 480.0000 1.0000
54.4900 473.0000 1.0000
54.5000 473.0000 1.0000
54.5100 486.0000 1.0000
54.5200 452.0000 1.0000
54.5300 451.0000 1.0000
54.5400 438.0000 1.0000
54.5500 470.0000 1.0000
54.5600 467.0000 1.0000
54.5700 449.0000 1.0000
54.5800 438.0000 1.0000
54.5900 436.0000 1.0000
54.6000 431.0000 1.0000
54.6100 479.0000 1.0000
54.6200 447.0000 1.0000
54.6300 420.0000 1.0000
54.6400 449.0000 1.0000
54.6500 405.0000 1.0000
54.6600 427.0000 1.0000
54.6700 461.0000 1.0000
54.6800 423.0000 1.0000
54.6900 415.0000 1.0000
54.7000 416.0000 1.0000
54.7100 418.0000 1.0000
54.7200 406.0000 1.0000
54.7300 415.0000 1.0000
54.7400 390.0000 1.0000
54.7500 390.0000 1.0000
54.7600 360.0000 1.0000
54.7700 337.0000 1.0000
54.7800 356.0000 1.0000
54.7900 363.0000 1.0000
54.8000 350.0000 1.0000
54.8100 359.0000 1.0000
54.8200 364.0000 1.0000
54.8300 375.0000 1.0000
54.8400 317.0000 1.0000
54.8500 345.0000 1.0000
54.8600 312.0000 1.0000
54.8700 325.0000 1.0000
54.8800 333.0000 1.0000
54.8900 315.0000 1.0000
54.9000 339.0000 1.0000
54.9100 348.0000 1.0000
54.9200 337.0000 1.0000
54.9300 353.0000 1.0000
54.9400 319.0000 1.0000
54.9500 321.0000 1.0000
54.9600 331.0000 1.0000
54.9700 328.0000 1.0000
54.9800 335.0000 1.0000
54.9900 348.0000 1.0000
55.0000 326.0000 1.0000
55.0100 325.0000 1.0000
55.0200 327.0000 1.0000
55.0300 313.0000 1.0000
55.0400 306.0000 1.0000
55.0500 341.0000 1.0000
55.0600 342.0000 1.0000
55.0700 318.0000 1.0000
55.0800 341.0000 1.0000
55.0900 347.0000 1.0000
55.1000 347.0000 1.0000
55.1100 325.0000 1.0000
55.1200 319.0000 1.0000
55.1300 312.0000 1.0000
55.1400 331.0000 1.0000
55.1500 327.0000 1.0000
55.1600 324.0000 1.0000
55.1700 311.0000 1.0000
55.1800 311.0000 1.0000
55.1900 326.0000 1.0000
55.2000 308.0000 1.0000
55.2100 308.0000 1.0000
55.2200 308.0000 1.0000
55.2300 315.0000 1.0000
55.2400 303.0000 1.0000
55.2500 293.0000 1.0000
55.2600 296.0000 1.0000
55.2700 318.0000 1.0000
55.2800 310.0000 1.0000
55.2900 309.0000 1.0000
55.3000 322.0000 1.0000
55.3100 356.0000 1.0000
55.3200 308.0000 1.0000
55.3300 312.0000 1.0000
55.3400 325.0000 1.0000
55.3500 293.0000 1.0000
55.3600 330.0000 1.0000
55.3700 351.0000 1.0000
55.3800 317.0000 1.0000
55.3900 314.0000 1.0000
55.4000 311.0000 1.0000
55.4100 321.0000 1.0000
55.4200 332.0000 1.0000
55.4300 308.0000 1.0000
55.4400 314.0000 1.0000
55.4500 306.0000 1.0000
55.4600 317.0000 1.0000
55.4700 311.0000 1.0000
55.4800 345.0000 1.0000
55.4900 325.0000 1.0000
55.5000 339.0000 1.0000
55.5100 301.0000 1.0000
55.5200 318.0000 1.0000
55.5300 287.0000 1.0000
55.5400 284.0000 1.0000
55.5500 295.0000 1.0000
55.5600 316.0000 1.0000
55.5700 281.0000 1.0000
55.5800 283.0000 1.0000
55.5900 304.0000 1.0000
55.6000 316.0000 1.0000
55.6100 299.0000 1.0000
55.6200 307.0000 1.0000
55.6300 305.0000 1.0000
55.6400 294.0000 1.0000
55.6500 308.0000 1.0000
55.6600 310.0000 1.0000
55.6700 316.0000 1.0000
55.6800 301.0000 1.0000
55.6900 283.0000 1.0000
55.7000 300.0000 1.0000
55.7100 308.0000 1.0000
55.7200 317.0000 1.0000
55.7300 297.0000 1.0000
55.7400 281.0000 1.0000
55.7500 342.0000 1.0000
55.7600 309.0000 1.0000
55.7700 301.0000 1.0000
55.7800 320.0000 1.0000
55.7900 303.0000 1.0000
55.8000 312.0000 1.0000
55.8100 313.0000 1.0000
55.8200 310.0000 1.0000
55.8300 336.0000 1.0000
55.8400 316.0000 1.0000
55.8500 326.0000 1.0000
55.8600 300.0000 1.0000
55.8700 278.0000 1.0000
55.8800 302.0000 1.0000
55.8900 302.0000 1.0000
55.9000 312.0000 1.0000
55.9100 290.0000 1.0000
55.9200 322.0000 1.0000
55.9300 312.0000 1.0000
55.9400 303.0000 1.0000
55.9500 309.0000 1.0000
55.9600 329.0000 1.0000
55.9700 331.0000 1.0000
55.9800 332.0000 1.0000
55.9900 298.0000 1.0000
56.0000 279.0000 1.0000
56.0100 305.0000 1.0000
56.0200 328.0000 1.0000
56.0300 305.0000 1.0000
56.0400 320.0000 1.0000
56.0500 316.0000 1.0000
56.0600 338.0000 1.0000
56.0700 314.0000 1.0000
56.0800 300.0000 1.0000
56.0900 299.0000 1.0000
56.1000 305.0000 1.0000
56.1100 310.0000 1.0000
56.1200 292.0000 1.0000
56.1300 319.0000 1.0000
56.1400 286.0000 1.0000
56.1500 331.0000 1.0000
56.1600 305.0000 1.0000
56.1700 329.0000 1.0000
56.1800 313.0000 1.0000
56.1900 297.0000 1.0000
56.2000 301.0000 1.0000
56.2100 303.0000 1.0000
56.2200 328.0000 1.0000
56.2300 293.0000 1.0000
56.2400 293.0000 1.0000
56.2500 311.0000 1.0000
56.2600 293.0000 1.0000
56.2700 285.0000 1.0000
56.2800 286.0000 1.0000
56.2900 300.0000 1.0000
56.3000 305.0000 1.0000
56.3100 326.0000 1.0000
56.3200 311.0000 1.0000
56.3300 319.0000 1.0000
56.3400 315.0000 1.0000
56.3500 300.0000 1.0000
56.3600 297.0000 1.0000
56.3700 302.0000 1.0000
56.3800 321.0000 1.0000
56.3900 316.0000 1.0000
56.4000 330.0000 1.0000
56.4100 312.0000 1.0000
56.4200 306.0000 1.0000
56.4300 309.0000 1.0000
56.4400 313.0000 1.0000
56.4500 299.0000 1.0000
56.4600 302.0000 1.0000
56.4700 313.0000 1.0000
56.4800 321.0000 1.0000
56.4900 299.0000 1.0000
56.5000 330.0000 1.0000
56.5100 309.0000 1.0000
56.5200 314.0000 1.0000
56.5300 303.0000 1.0000
56.5400 305.0000 1.0000
56.5500 325.0000 1.0000
56.5600 330.0000 1.0000
56.5700 285.0000 1.0000
56.5800 282.0000 1.0000
56.5900 298.0000 1.0000
56.6000 290.0000 1.0000
56.6100 288.0000 1.0000
56.6200 315.0000 1.0000
56.6300 330.0000 1.0000
56.6400 303.0000 1.0000
56.6500 338.0000 1.0000
56.6600 292.0000 1.0000
56.6700 300.0000 1.0000
56.6800 276.0000 1.0000
56.6900 305.0000 1.0000
56.7000 317.0000 1.0000
56.7100 335.0000 1.0000
56.7200 328.0000 1.0000
56.7300 312.0000 1.0000
56.7400 315.0000 1.0000
56.7500 302.0000 1.0000
56.7600 308.0000 1.0000
56.7700 296.0000 1.0000
56.7800 305.0000 1.0000
56.7900 306.0000 1.0000
56.8000 287.0000 1.0000
56.8100 335.0000 1.0000
56.8200 304.0000 1.0000
56.8300 305.0000 1.0000
56.8400 295.0000 1.0000
56.8500 310.0000 1.0000
56.8600 302.0000 1.0000
56.8700 318.0000 1.0000
56.8800 293.0000 1.0000
56.8900 288.0000 1.0000
56.9000 331.0000 1.0000
56.9100 331.0000 1.0000
56.9200 307.0000 1.0000
56.9300 302.0000 1.0000
56.9400 314.0000 1.0000
56.9500 330.0000 1.0000
56.9600 293.0000 1.0000
56.9700 300.0000 1.0000
56.9800 327.0000 1.0000
56.9900 294.0000 1.0000
57.0000 261.0000 1.0000
57.0100 332.0000 1.0000
57.0200 296.0000 1.0000
57.0300 300.0000 1.0000
57.0400 301.0000 1.0000
57.0500 300.0000 1.0000
57.0600 322.0000 1.0000
57.0700 284.0000 1.0000
57.0800 305.0000 1.0000
57.0900 302.0000 1.0000
57.1000 306.0000 1.0000
57.1100 310.0000 1.0000
57.1200 309.0000 1.0000
57.1300 296.0000 1.0000
57.1400 288.0000 1.0000
57.1500 303.0000 1.0000
57.1600 314.0000 1.0000
57.1700 297.0000 1.0000
57.1800 291.0000 1.0000
57.1900 316.0000 1.0000
57.2000 326.0000 1.0000
57.2100 305.0000 1.0000
57.2200 301.0000 1.0000
57.2300 296.0000 1.0000
57.2400 315.0000 1.0000
57.2500 287.0000 1.0000
57.2600 304.0000 1.0000
57.2700 275.0000 1.0000
57.2800 327.0000 1.0000
57.2900 339.0000 1.0000
57.3000 313.0000 1.0000
57.3100 325.0000 1.0000
57.3200 300.0000 1.0000
57.3300 320.0000 1.0000
57.3400 261.0000 1.0000
57.3500 306.0000 1.0000
57.3600 311.0000 1.0000
57.3700 321.0000 1.0000
57.3800 309.0000 1.0000
57.3900 318.0000 1.0000
57.4000 324.0000 1.0000
57.4100 311.0000 1.0000
57.4200 328.0000 1.0000
57.4300 339.0000 1.0000
57.4400 320.0000 1.0000
57.4500 334.0000 1.0000
57.4600 353.0000 1.0000
57.4700 333.0000 1.0000
57.4800 300.0000 1.0000
57.4900 313.0000 1.0000
57.5000 308.0000 1.0000
57.5100 326.0000 1.0000
57.5200 290.0000 1.0000
57.5300 303.0000 1.0000
57.5400 336.0000 1.0000
57.5500 352.0000 1.0000
57.5600 315.0000 1.0000
57.5700 304.0000 1.0000
57.5800 302.0000 1.0000
57.5900 330.0000 1.0000
57.6000 336.0000 1.0000
57.6100 320.0000 1.0000
57.6200 307.0000 1.0000
57.6300 295.0000 1.0000
57.6400 317.0000 1.0000
57.6500 346.0000 1.0000
57.6600 324.0000 1.0000
57.6700 323.0000 1.0000
57.6800 308.0000 1.0000
57.6900 309.0000 1.0000
57.7000 311.0000 1.0000
57.7100 334.0000 1.0000
57.7200 322.0000 1.0000
57.7300 311.0000 1.0000
57.7400 280.0000 1.0000
57.7500 311.0000 1.0000
57.7600 315.0000 1.0000
57.7700 322.0000 1.0000
57.7800 301.0000 1.0000
57.7900 292.0000 1.0000
57.8000 307.0000 1.0000
57.8100 289.0000 1.0000
57.8200 318.0000 1.0000
57.8300 318.0000 1.0000
57.8400 310.0000 1.0000
57.8500 300.0000 1.0000
57.8600 313.0000 1.0000
57.8700 289.0000 1.0000
57.8800 309.0000 1.0000
57.8900 307.0000 1.0000
57.9000 303.0000 1.0000
57.9100 327.0000 1.0000
57.9200 324.0000 1.0000
57.9300 310.0000 1.0000
57.9400 325.0000 1.0000
57.9500 298.0000 1.0000
57.9600 297.0000 1.0000
57.9700 310.0000 1.0000
57.9800 334.0000 1.0000
57.9900 324.0000 1.0000
58.0000 279.0000 1.0000
58.0100 313.0000 1.0000
58.0200 315.0000 1.0000
58.0300 289.0000 1.0000
58.0400 285.0000 1.0000
58.0500 290.0000 1.0000
58.0600 304.0000 1.0000
58.0700 318.0000 1.0000
58.0800 300.0000 1.0000
58.0900 305.0000 1.0000
58.1000 291.0000 1.0000
58.1100 306.0000 1.0000
58.1200 284.0000 1.0000
58.1300 314.0000 1.0000
58.1400 323.0000 1.0000
58.1500 333.0000 1.0000
58.1600 327.0000 1.0000
58.1700 323.0000 1.0000
58.1800 301.0000 1.0000
58.1900 305.0000 1.0000
58.2000 312.0000 1.0000
58.2100 312.0000 1.0000
58.2200 312.0000 1.0000
58.2300 306.0000 1.0000
58.2400 297.0000 1.0000
58.2500 311.0000 1.0000
58.2600 314.0000 1.0000
58.2700 319.0000 1.0000
58.2800 299.0000 1.0000
58.2900 313.0000 1.0000
58.3000 318.0000 1.0000
58.3100 309.0000 1.0000
58.3200 325.0000 1.0000
58.3300 323.0000 1.0000
58.3400 320.0000 1.0000
58.3500 296.0000 1.0000
58.3600 294.0000 1.0000
58.3700 313.0000 1.0000
58.3800 316.0000 1.0000
58.3900 292.0000 1.0000
58.4000 312.0000 1.0000
58.4100 283.0000 1.0000
58.4200 297.0000 1.0000
58.4300 287.0000 1.0000
58.4400 335.0000 1.0000
58.4500 320.0000 1.0000
58.4600 334.0000 1.0000
58.4700 288.0000 1.0000
58.4800 323.0000 1.0000
58.4900 326.0000 1.0000
58.5000 298.0000 1.0000
58.5100 321.0000 1.0000
58.5200 312.0000 1.0000
58.5300 321.0000 1.0000
58.5400 325.0000 1.0000
58.5500 319.0000 1.0000
58.5600 331.0000 1.0000
58.5700 292.0000 1.0000
58.5800 314.0000 1.0000
58.5900 310.0000 1.0000
58.6000 317.0000 1.0000
58.6100 322.0000 1.0000
58.6200 302.0000 1.0000
58.6300 306.0000 1.0000
58.6400 307.0000 1.0000
58.6500 331.0000 1.0000
58.6600 298.0000 1.0000
58.6700 289.0000 1.0000
58.6800 290.0000 1.0000
58.6900 308.0000 1.0000
58.7000 312.0000 1.0000
58.7100 288.0000 1.0000
58.7200 315.0000 1.0000
58.7300 324.0000 1.0000
58.7400 319.0000 1.0000
58.7500 318.0000 1.0000
58.7600 298.0000 1.0000
58.7700 331.0000 1.0000
58.7800 312.0000 1.0000
58.7900 331.0000 1.0000
58.8000 290.0000 1.0000
58.8100 327.0000 1.0000
58.8200 314.0000 1.0000
58.8300 300.0000 1.0000
58.8400 302.0000 1.0000
58.8500 315.0000 1.0000
58.8600 297.0000 1.0000
58.8700 303.0000 1.0000
58.8800 283.0000 1.0000
58.8900 288.0000 1.0000
58.9000 279.0000 1.0000
58.9100 301.0000 1.0000
58.9200 327.0000 1.0000
58.9300 326.0000 1.0000
58.9400 288.0000 1.0000
58.9500 307.0000 1.0000
58.9600 293.0000 1.0000
58.9700 315.0000 1.0000
58.9800 321.0000 1.0000
58.9900 322.0000 1.0000
59.0000 305.0000 1.0000
59.0100 290.0000 1.0000
59.0200 291.0000 1.0000
59.0300 299.0000 1.0000
59.0400 293.0000 1.0000
59.0500 323.0000 1.0000
59.0600 290.0000 1.0000
59.0700 303.0000 1.0000
59.0800 298.0000 1.0000
59.0900 317.0000 1.0000
59.1000 298.0000 1.0000
59.1100 283.0000 1.0000
59.1200 274.0000 1.0000
59.1300 282.0000 1.0000
59.1400 289.0000 1.0000
59.1500 275.0000 1.0000
59.1600 302.0000 1.0000
59.1700 300.0000 1.0000
59.1800 305.0000 1.0000
59.1900 298.0000 1.0000
59.2000 282.0000 1.0000
59.2100 302.0000 1.0000
59.2200 302.0000 1.0000
59.2300 341.0000 1.0000
59.2400 296.0000 1.0000
59.2500 293.0000 1.0000
59.2600 283.0000 1.0000
59.2700 292.0000 1.0000
59.2800 316.0000 1.0000
59.2900 329.0000 1.0000
59.3000 296.0000 1.0000
59.3100 281.0000 1.0000
59.3200 316.0000 1.0000
59.3300 304.0000 1.0000
59.3400 307.0000 1.0000
59.3500 312.0000 1.0000
59.3600 297.0000 1.0000
59.3700 322.0000 1.0000
59.3800 308.0000 1.0000
59.3900 312.0000 1.0000
59.4000 313.0000 1.0000
59.4100 288.0000 1.0000
59.4200 298.0000 1.0000
59.4300 329.0000 1.0000
59.4400 334.0000 1.0000
59.4500 305.0000 1.0000
59.4600 303.0000 1.0000
59.4700 295.0000 1.0000
59.4800 305.0000 1.0000
59.4900 310.0000 1.0000
59.5000 297.0000 1.0000
59.5100 310.0000 1.0000
59.5200 313.0000 1.0000
59.5300 300.0000 1.0000
59.5400 297.0000 1.0000
59.5500 294.0000 1.0000
59.5600 310.0000 1.0000
59.5700 314.0000 1.0000
59.5800 284.0000 1.0000
59.5900 343.0000 1.0000
59.6000 297.0000 1.0000
59.6100 312.0000 1.0000
59.6200 315.0000 1.0000
59.6300 286.0000 1.0000
59.6400 315.0000 1.0000
59.6500 296.0000 1.0000
59.6600 309.0000 1.0000
59.6700 311.0000 1.0000
59.6800 299.0000 1.0000
59.6900 311.0000 1.0000
59.7000 284.0000 1.0000
59.7100 287.0000 1.0000
59.7200 310.0000 1.0000
59.7300 287.0000 1.0000
59.7400 341.0000 1.0000
59.7500 321.0000 1.0000
59.7600 299.0000 1.0000
59.7700 297.0000 1.0000
59.7800 302.0000 1.0000
59.7900 319.0000 1.0000
59.8000 287.0000 1.0000
59.8100 307.0000 1.0000
59.8200 298.0000 1.0000
59.8300 311.0000 1.0000
59.8400 308.0000 1.0000
59.8500 317.0000 1.0000
59.8600 312.0000 1.0000
59.8700 313.0000 1.0000
59.8800 285.0000 1.0000
59.8900 301.0000 1.0000
59.9000 289.0000 1.0000
59.9100 285.0000 1.0000
59.9200 306.0000 1.0000
59.9300 296.0000 1.0000
59.9400 298.0000 1.0000
59.9500 287.0000 1.0000
59.9600 290.0000 1.0000
59.9700 306.0000 1.0000
59.9800 321.0000 1.0000
59.9900 323.0000 1.0000
60.0000 309.0000 1.0000
60.0100 294.0000 1.0000
60.0200 301.0000 1.0000
60.0300 308.0000 1.0000
60.0400 310.0000 1.0000
60.0500 285.0000 1.0000
60.0600 286.0000 1.0000
60.0700 299.0000 1.0000
60.0800 302.0000 1.0000
60.0900 294.0000 1.0000
60.1000 285.0000 1.0000
60.1100 293.0000 1.0000
60.1200 304.0000 1.0000
60.1300 288.0000 1.0000
60.1400 305.0000 1.0000
60.1500 296.0000 1.0000
60.1600 289.0000 1.0000
60.1700 300.0000 1.0000
60.1800 309.0000 1.0000
60.1900 314.0000 1.0000
60.2000 309.0000 1.0000
60.2100 311.0000 1.0000
60.2200 295.0000 1.0000
60.2300 277.0000 1.0000
60.2400 293.0000 1.0000
60.2500 312.0000 1.0000
60.2600 312.0000 1.0000
60.2700 286.0000 1.0000
60.2800 303.0000 1.0000
60.2900 286.0000 1.0000
60.3000 329.0000 1.0000
60.3100 311.0000 1.0000
60.3200 318.0000 1.0000
60.3300 308.0000 1.0000
60.3400 278.0000 1.0000
60.3500 296.0000 1.0000
60.3600 321.0000 1.0000
60.3700 314.0000 1.0000
60.3800 281.0000 1.0000
60.3900 288.0000 1.0000
60.4000 311.0000 1.0000
60.4100 296.0000 1.0000
60.4200 313.0000 1.0000
60.4300 323.0000 1.0000
60.4400 293.0000 1.0000
60.4500 288.0000 1.0000
60.4600 288.0000 1.0000
60.4700 312.0000 1.0000
60.4800 312.0000 1.0000
60.4900 317.0000 1.0000
60.5000 329.0000 1.0000
60.5100 298.0000 1.0000
60.5200 306.0000 1.0000
60.5300 306.0000 1.0000
60.5400 321.0000 1.0000
60.5500 293.0000 1.0000
60.5600 324.0000 1.0000
60.5700 291.0000 1.0000
60.5800 299.0000 1.0000
60.5900 283.0000 1.0000
60.6000 320.0000 1.0000
60.6100 317.0000 1.0000
60.6200 273.0000 1.0000
60.6300 319.0000 1.0000
60.6400 313.0000 1.0000
60.6500 296.0000 1.0000
60.6600 283.0000 1.0000
60.6700 280.0000 1.0000
60.6800 300.0000 1.0000
60.6900 302.0000 1.0000
60.7000 312.0000 1.0000
60.7100 323.0000 1.0000
60.7200 308.0000 1.0000
60.7300 294.0000 1.0000
60.7400 312.0000 1.0000
60.7500 308.0000 1.0000
60.7600 317.0000 1.0000
60.7700 294.0000 1.0000
60.7800 298.0000 1.0000
60.7900 298.0000 1.0000
60.8000 310.0000 1.0000
60.8100 303.0000 1.0000
60.8200 322.0000 1.0000
60.8300 303.0000 1.0000
60.8400 303.0000 1.0000
60.8500 300.0000 1.0000
60.8600 318.0000 1.0000
60.8700 309.0000 1.0000
60.8800 307.0000 1.0000
60.8900 306.0000 1.0000
60.9000 330.0000 1.0000
60.9100 323.0000 1.0000
60.9200 320.0000 1.0000
60.9300 306.0000 1.0000
60.9400 314.0000 1.0000
60.9500 292.0000 1.0000
60.9600 294.0000 1.0000
60.9700 294.0000 1.0000
60.9800 306.0000 1.0000
60.9900 302.0000 1.0000
61.0000 338.0000 1.0000
61.0100 321.0000 1.0000
61.0200 326.0000 1.0000
61.0300 335.0000 1.0000
61.0400 339.0000 1.0000
61.0500 293.0000 1.0000
61.0600 323.0000 1.0000
61.0700 323.0000 1.0000
61.0800 311.0000 1.0000
61.0900 306.0000 1.0000
61.1000 337.0000 1.0000
61.1100 336.0000 1.0000
61.1200 311.0000 1.0000
61.1300 307.0000 1.0000
61.1400 358.0000 1.0000
61.1500 373.0000 1.0000
61.1600 330.0000 1.0000
61.1700 339.0000 1.0000
61.1800 342.0000 1.0000
61.1900 346.0000 1.0000
61.2000 366.0000 1.0000
61.2100 338.0000 1.0000
61.2200 352.0000 1.0000
61.2300 374.0000 1.0000
61.2400 345.0000 1.0000
61.2500 379.0000 1.0000
61.2600 401.0000 1.0000
61.2700 392.0000 1.0000
61.2800 394.0000 1.0000
61.2900 393.0000 1.0000
61.3000 388.0000 1.0000
61.3100 410.0000 1.0000
61.3200 374.0000 1.0000
61.3300 370.0000 1.0000
61.3400 432.0000 1.0000
61.3500 406.0000 1.0000
61.3600 459.0000 1.0000
61.3700 457.0000 1.0000
61.3800 464.0000 1.0000
61.3900 489.0000 1.0000
61.4000 496.0000 1.0000
61.4100 479.0000 1.0000
61.4200 527.0000 1.0000
61.4300 541.0000 1.0000
61.4400 543.0000 1.0000
61.4500 543.0000 1.0000
61.4600 527.0000 1.0000
61.4700 603.0000 1.0000
61.4800 603.0000 1.0000
61.4900 595.0000 1.0000
61.5000 615.0000 1.0000
61.5100 626.0000 1.0000
61.5200 577.0000 1.0000
61.5300 581.0000 1.0000
61.5400 582.0000 1.0000
61.5500 624.0000 1.0000
61.5600 612.0000 1.0000
61.5700 589.0000 1.0000
61.5800 579.0000 1.0000
61.5900 599.0000 1.0000
61.6000 554.0000 1.0000
61.6100 580.0000 1.0000
61.6200 573.0000 1.0000
61.6300 570.0000 1.0000
61.6400 572.0000 1.0000
61.6500 551.0000 1.0000
61.6600 543.0000 1.0000
61.6700 537.0000 1.0000
61.6800 570.0000 1.0000
61.6900 559.0000 1.0000
61.7000 499.0000 1.0000
61.7100 495.0000 1.0000
61.7200 507.0000 1.0000
61.7300 502.0000 1.0000
61.7400 451.0000 1.0000
61.7500 486.0000 1.0000
61.7600 504.0000 1.0000
61.7700 492.0000 1.0000
61.7800 458.0000 1.0000
61.7900 499.0000 1.0000
61.8000 477.0000 1.0000
61.8100 443.0000 1.0000
61.8200 437.0000 1.0000
61.8300 424.0000 1.0000
61.8400 417.0000 1.0000
61.8500 411.0000 1.0000
61.8600 388.0000 1.0000
61.8700 407.0000 1.0000
61.8800 425.0000 1.0000
61.8900 393.0000 1.0000
61.9000 371.0000 1.0000
61.9100 360.0000 1.0000
61.9200 379.0000 1.0000
61.9300 369.0000 1.0000
61.9400 366.0000 1.0000
61.9500 369.0000 1.0000
61.9600 343.0000 1.0000
61.9700 357.0000 1.0000
61.9800 311.0000 1.0000
61.9900 331.0000 1.0000
62.0000 362.0000 1.0000
62.0100 333.0000 1.0000
62.0200 330.0000 1.0000
62.0300 330.0000 1.0000
62.0400 338.0000 1.0000
62.0500 341.0000 1.0000
62.0600 310.0000 1.0000
62.0700 328.0000 1.0000
62.0800 363.0000 1.0000
62.0900 338.0000 1.0000
62.1000 333.0000 1.0000
62.1100 317.0000 1.0000
62.1200 331.0000 1.0000
62.1300 356.0000 1.0000
62.1400 323.0000 1.0000
62.1500 323.0000 1.0000
62.1600 351.0000 1.0000
62.1700 343.0000 1.0000
62.1800 321.0000 1.0000
62.1900 353.0000 1.0000
62.2000 323.0000 1.0000
62.2100 321.0000 1.0000
62.2200 331.0000 1.0000
62.2300 363.0000 1.0000
62.2400 356.0000 1.0000
62.2500 315.0000 1.0000
62.2600 339.0000 1.0000
62.2700 348.0000 1.0000
62.2800 337.0000 1.0000
62.2900 324.0000 1.0000
62.3000 344.0000 1.0000
62.3100 356.0000 1.0000
62.3200 328.0000 1.0000
62.3300 351.0000 1.0000
62.3400 379.0000 1.0000
62.3500 379.0000 1.0000
62.3600 371.0000 1.0000
62.3700 348.0000 1.0000
62.3800 368.0000 1.0000
62.3900 332.0000 1.0000
62.4000 344.0000 1.0000
62.4100 362.0000 1.0000
62.4200 381.0000 1.0000
62.4300 353.0000 1.0000
62.4400 359.0000 1.0000
62.4500 356.0000 1.0000
62.4600 359.0000 1.0000
62.4700 338.0000 1.0000
62.4800 350.0000 1.0000
62.4900 355.0000 1.0000
62.5000 344.0000 1.0000
62.5100 328.0000 1.0000
62.5200 353.0000 1.0000
62.5300 331.0000 1.0000
62.5400 319.0000 1.0000
62.5500 302.0000 1.0000
62.5600 320.0000 1.0000
62.5700 341.0000 1.0000
62.5800 342.0000 1.0000
62.5900 349.0000 1.0000
62.6000 319.0000 1.0000
62.6100 346.0000 1.0000
62.6200 306.0000 1.0000
62.6300 319.0000 1.0000
62.6400 278.0000 1.0000
62.6500 306.0000 1.0000
62.6600 287.0000 1.0000
62.6700 303.0000 1.0000
62.6800 336.0000 1.0000
62.6900 310.0000 1.0000
62.7000 314.0000 1.0000
62.7100 298.0000 1.0000
62.7200 294.0000 1.0000
62.7300 283.0000 1.0000
62.7400 283.0000 1.0000
62.7500 299.0000 1.0000
62.7600 309.0000 1.0000
62.7700 320.0000 1.0000
62.7800 310.0000 1.0000
62.7900 304.0000 1.0000
62.8000 311.0000 1.0000
62.8100 299.0000 1.0000
62.8200 337.0000 1.0000
62.8300 262.0000 1.0000
62.8400 291.0000 1.0000
62.8500 304.0000 1.0000
62.8600 305.0000 1.0000
62.8700 301.0000 1.0000
62.8800 272.0000 1.0000
62.8900 272.0000 1.0000
62.9000 301.0000 1.0000
62.9100 333.0000 1.0000
62.9200 306.0000 1.0000
62.9300 297.0000 1.0000
62.9400 306.0000 1.0000
62.9500 311.0000 1.0000
62.9600 322.0000 1.0000
62.9700 308.0000 1.0000
62.9800 276.0000 1.0000
62.9900 291.0000 1.0000
63.0000 309.0000 1.0000
63.0100 323.0000 1.0000
63.0200 282.0000 1.0000
63.0300 303.0000 1.0000
63.0400 302.0000 1.0000
63.0500 295.0000 1.0000
63.0600 288.0000 1.0000
63.0700 320.0000 1.0000
63.0800 314.0000 1.0000
63.0900 292.0000 1.0000
63.1000 293.0000 1.0000
63.1100 276.0000 1.0000
63.1200 298.0000 1.0000
63.1300 288.0000 1.0000
63.1400 305.0000 1.0000
63.1500 294.0000 1.0000
63.1600 285.0000 1.0000
63.1700 325.0000 1.0000
63.1800 314.0000 1.0000
63.1900 309.0000 1.0000
63.2000 302.0000 1.0000
63.2100 283.0000 1.0000
63.2200 277.0000 1.0000
63.2300 314.0000 1.0000
63.2400 294.0000 1.0000
63.2500 326.0000 1.0000
63.2600 295.0000 1.0000
63.2700 315.0000 1.0000
63.2800 298.0000 1.0000
63.2900 310.0000 1.0000
63.3000 296.0000 1.0000
63.3100 309.0000 1.0000
63.3200 320.0000 1.0000
63.3300 299.0000 1.0000
63.3400 293.0000 1.0000
63.3500 294.0000 1.0000
63.3600 300.0000 1.0000
63.3700 289.0000 1.0000
63.3800 299.0000 1.0000
63.3900 323.0000 1.0000
63.4000 294.0000 1.0000
63.4100 290.0000 1.0000
63.4200 310.0000 1.0000
63.4300 286.0000 1.0000
63.4400 282.0000 1.0000
63.4500 268.0000 1.0000
63.4600 299.0000 1.0000
63.4700 306.0000 1.0000
63.4800 288.0000 1.0000
63.4900 320.0000 1.0000
63.5000 342.0000 1.0000
63.5100 309.0000 1.0000
63.5200 330.0000 1.0000
63.5300 320.0000 1.0000
63.5400 346.0000 1.0000
63.5500 315.0000 1.0000
63.5600 305.0000 1.0000
63.5700 333.0000 1.0000
63.5800 296.0000 1.0000
63.5900 310.0000 1.0000
63.6000 291.0000 1.0000
63.6100 272.0000 1.0000
63.6200 315.0000 1.0000
63.6300 330.0000 1.0000
63.6400 304.0000 1.0000
63.6500 321.0000 1.0000
63.6600 344.0000 1.0000
63.6700 354.0000 1.0000
63.6800 318.0000 1.0000
63.6900 361.0000 1.0000
63.7000 354.0000 1.0000
63.7100 335.0000 1.0000
63.7200 338.0000 1.0000
63.7300 317.0000 1.0000
63.7400 339.0000 1.0000
63.7500 332.0000 1.0000
63.7600 345.0000 1.0000
63.7700 307.0000 1.0000
63.7800 338.0000 1.0000
63.7900 356.0000 1.0000
63.8000 334.0000 1.0000
63.8100 313.0000 1.0000
63.8200 327.0000 1.0000
63.8300 344.0000 1.0000
63.8400 391.0000 1.0000
63.8500 390.0000 1.0000
63.8600 409.0000 1.0000
63.8700 415.0000 1.0000
63.8800 416.0000 1.0000
63.8900 435.0000 1.0000
63.9000 448.0000 1.0000
63.9100 453.0000 1.0000
63.9200 460.0000 1.0000
63.9300 463.0000 1.0000
63.9400 468.0000 1.0000
63.9500 471.0000 1.0000
63.9600 467.0000 1.0000
63.9700 427.0000 1.0000
63.9800 410.0000 1.0000
63.9900 410.0000 1.0000
64.0000 427.0000 1.0000
64.0100 462.0000 1.0000
64.0200 419.0000 1.0000
64.0300 410.0000 1.0000
64.0400 397.0000 1.0000
64.0500 418.0000 1.0000
64.0600 424.0000 1.0000
64.0700 428.0000 1.0000
64.0800 425.0000 1.0000
64.0900 415.0000 1.0000
64.1000 389.0000 1.0000
64.1100 407.0000 1.0000
64.1200 395.0000 1.0000
64.1300 389.0000 1.0000
64.1400 364.0000 1.0000
64.1500 371.0000 1.0000
64.1600 395.0000 1.0000
64.1700 393.0000 1.0000
64.1800 354.0000 1.0000
64.1900 363.0000 1.0000
64.2000 371.0000 1.0000
64.2100 344.0000 1.0000
64.2200 355.0000 1.0000
64.2300 345.0000 1.0000
64.2400 334.0000 1.0000
64.2500 329.0000 1.0000
64.2600 339.0000 1.0000
64.2700 314.0000 1.0000
64.2800 333.0000 1.0000
64.2900 338.0000 1.0000
64.3000 325.0000 1.0000
64.3100 332.0000 1.0000
64.3200 334.0000 1.0000
64.3300 323.0000 1.0000
64.3400 333.0000 1.0000
64.3500 316.0000 1.0000
64.3600 324.0000 1.0000
64.3700 365.0000 1.0000
64.3800 307.0000 1.0000
64.3900 330.0000 1.0000
64.4000 345.0000 1.0000
64.4100 323.0000 1.0000
64.4200 326.0000 1.0000
64.4300 297.0000 1.0000
64.4400 322.0000 1.0000
64.4500 337.0000 1.0000
64.4600 335.0000 1.0000
64.4700 335.0000 1.0000
64.4800 315.0000 1.0000
64.4900 322.0000 1.0000
64.5000 312.0000 1.0000
64.5100 322.0000 1.0000
64.5200 306.0000 1.0000
64.5300 300.0000 1.0000
64.5400 308.0000 1.0000
64.5500 319.0000 1.0000
64.5600 304.0000 1.0000
64.5700 325.0000 1.0000
64.5800 313.0000 1.0000
64.5900 313.0000 1.0000
64.6000 311.0000 1.0000
64.6100 323.0000 1.0000
64.6200 283.0000 1.0000
64.6300 300.0000 1.0000
64.6400 298.0000 1.0000
64.6500 304.0000 1.0000
64.6600 326.0000 1.0000
64.6700 302.0000 1.0000
64.6800 308.0000 1.0000
64.6900 325.0000 1.0000
64.7000 315.0000 1.0000
64.7100 317.0000 1.0000
64.7200 308.0000 1.0000
64.7300 309.0000 1.0000
64.7400 333.0000 1.0000
64.7500 338.0000 1.0000
64.7600 282.0000 1.0000
64.7700 318.0000 1.0000
64.7800 323.0000 1.0000
64.7900 333.0000 1.0000
64.8000 290.0000 1.0000
64.8100 320.0000 1.0000
64.8200 313.0000 1.0000
64.8300 328.0000 1.0000
64.8400 298.0000 1.0000
64.8500 301.0000 1.0000
64.8600 320.0000 1.0000
64.8700 310.0000 1.0000
64.8800 344.0000 1.0000
64.8900 297.0000 1.0000
64.9000 305.0000 1.0000
64.9100 308.0000 1.0000
64.9200 325.0000 1.0000
64.9300 327.0000 1.0000
64.9400 302.0000 1.0000
64.9500 319.0000 1.0000
64.9600 323.0000 1.0000
64.9700 302.0000 1.0000
64.9800 322.0000 1.0000
64.9900 319.0000 1.0000
65.0000 331.0000 1.0000
65.0100 329.0000 1.0000
65.0200 338.0000 1.0000
65.0300 328.0000 1.0000
65.0400 311.0000 1.0000
65.0500 358.0000 1.0000
65.0600 335.0000 1.0000
65.0700 335.0000 1.0000
65.0800 347.0000 1.0000
65.0900 340.0000 1.0000
65.1000 359.0000 1.0000
65.1100 386.0000 1.0000
65.1200 336.0000 1.0000
65.1300 338.0000 1.0000
65.1400 350.0000 1.0000
65.1500 360.0000 1.0000
65.1600 386.0000 1.0000
65.1700 358.0000 1.0000
65.1800 372.0000 1.0000
65.1900 402.0000 1.0000
65.2000 358.0000 1.0000
65.2100 376.0000 1.0000
65.2200 367.0000 1.0000
65.2300 407.0000 1.0000
65.2400 420.0000 1.0000
65.2500 387.0000 1.0000
65.2600 442.0000 1.0000
65.2700 450.0000 1.0000
65.2800 448.0000 1.0000
65.2900 491.0000 1.0000
65.3000 494.0000 1.0000
65.3100 503.0000 1.0000
65.3200 525.0000 1.0000
65.3300 492.0000 1.0000
65.3400 553.0000 1.0000
65.3500 542.0000 1.0000
65.3600 576.0000 1.0000
65.3700 603.0000 1.0000
65.3800 664.0000 1.0000
65.3900 699.0000 1.0000
65.4000 689.0000 1.0000
65.4100 706.0000 1.0000
65.4200 710.0000 1.0000
65.4300 763.0000 1.0000
65.4400 759.0000 1.0000
65.4500 820.0000 1.0000
65.4600 900.0000 1.0000
65.4700 932.0000 1.0000
65.4800 910.0000 1.0000
65.4900 933.0000 1.0000
65.5000 1034.0000 1.0000
65.5100 1026.0000 1.0000
65.5200 992.0000 1.0000
65.5300 997.0000 1.0000
65.5400 1077.0000 1.0000
65.5500 1002.0000 1.0000
65.5600 1026.0000 1.0000
65.5700 1014.0000 1.0000
65.5800 1021.0000 1.0000
65.5900 967.0000 1.0000
65.6000 970.0000 1.0000
65.6100 965.0000 1.0000
65.6200 928.0000 1.0000
65.6300 915.0000 1.0000
65.6400 926.0000 1.0000
65.6500 912.0000 1.0000
65.6600 863.0000 1.0000
65.6700 856.0000 1.0000
65.6800 867.0000 1.0000
65.6900 834.0000 1.0000
65.7000 791.0000 1.0000
65.7100 810.0000 1.0000
65.7200 799.0000 1.0000
65.7300 734.0000 1.0000
65.7400 774.0000 1.0000
65.7500 763.0000 1.0000
65.7600 685.0000 1.0000
65.7700 714.0000 1.0000
65.7800 709.0000 1.0000
65.7900 632.0000 1.0000
65.8000 619.0000 1.0000
65.8100 576.0000 1.0000
65.8200 559.0000 1.0000
65.8300 537.0000 1.0000
65.8400 537.0000 1.0000
65.8500 477.0000 1.0000
65.8600 448.0000 1.0000
65.8700 463.0000 1.0000
65.8800 468.0000 1.0000
65.8900 440.0000 1.0000
65.9000 454.0000 1.0000
65.9100 427.0000 1.0000
65.9200 439.0000 1.0000
65.9300 446.0000 1.0000
65.9400 403.0000 1.0000
65.9500 404.0000 1.0000
65.9600 363.0000 1.0000
65.9700 443.0000 1.0000
65.9800 341.0000 1.0000
65.9900 387.0000 1.0000
66.0000 391.0000 1.0000
66.0100 350.0000 1.0000
66.0200 353.0000 1.0000
66.0300 369.0000 1.0000
66.0400 340.0000 1.0000
66.0500 333.0000 1.0000
66.0600 338.0000 1.0000
66.0700 331.0000 1.0000
66.0800 335.0000 1.0000
66.0900 330.0000 1.0000
66.1000 333.0000 1.0000
66.1100 341.0000 1.0000
66.1200 344.0000 1.0000
66.1300 318.0000 1.0000
66.1400 333.0000 1.0000
66.1500 322.0000 1.0000
66.1600 344.0000 1.0000
66.1700 310.0000 1.0000
66.1800 307.0000 1.0000
66.1900 367.0000 1.0000
66.2000 329.0000 1.0000
66.2100 316.0000 1.0000
66.2200 311.0000 1.0000
66.2300 313.0000 1.0000
66.2400 319.0000 1.0000
66.2500 305.0000 1.0000
66.2600 302.0000 1.0000
66.2700 298.0000 1.0000
66.2800 297.0000 1.0000
66.2900 306.0000 1.0000
66.3000 310.0000 1.0000
66.3100 281.0000 1.0000
66.3200 341.0000 1.0000
66.3300 289.0000 1.0000
66.3400 274.0000 1.0000
66.3500 284.0000 1.0000
66.3600 289.0000 1.0000
66.3700 265.0000 1.0000
66.3800 312.0000 1.0000
66.3900 311.0000 1.0000
66.4000 277.0000 1.0000
66.4100 296.0000 1.0000
66.4200 277.0000 1.0000
66.4300 297.0000 1.0000
66.4400 320.0000 1.0000
66.4500 303.0000 1.0000
66.4600 282.0000 1.0000
66.4700 293.0000 1.0000
66.4800 281.0000 1.0000
66.4900 313.0000 1.0000
66.5000 296.0000 1.0000
66.5100 289.0000 1.0000
66.5200 302.0000 1.0000
66.5300 286.0000 1.0000
66.5400 281.0000 1.0000
66.5500 297.0000 1.0000
66.5600 281.0000 1.0000
66.5700 241.0000 1.0000
66.5800 256.0000 1.0000
66.5900 309.0000 1.0000
66.6000 261.0000 1.0000
66.6100 290.0000 1.0000
66.6200 280.0000 1.0000
66.6300 280.0000 1.0000
66.6400 295.0000 1.0000
66.6500 281.0000 1.0000
66.6600 274.0000 1.0000
66.6700 291.0000 1.0000
66.6800 283.0000 1.0000
66.6900 289.0000 1.0000
66.7000 279.0000 1.0000
66.7100 288.0000 1.0000
66.7200 276.0000 1.0000
66.7300 295.0000 1.0000
66.7400 280.0000 1.0000
66.7500 284.0000 1.0000
66.7600 284.0000 1.0000
66.7700 271.0000 1.0000
66.7800 275.0000 1.0000
66.7900 282.0000 1.0000
66.8000 283.0000 1.0000
66.8100 293.0000 1.0000
66.8200 306.0000 1.0000
66.8300 314.0000 1.0000
66.8400 312.0000 1.0000
66.8500 331.0000 1.0000
66.8600 275.0000 1.0000
66.8700 294.0000 1.0000
66.8800 298.0000 1.0000
66.8900 260.0000 1.0000
66.9000 274.0000 1.0000
66.9100 290.0000 1.0000
66.9200 283.0000 1.0000
66.9300 262.0000 1.0000
66.9400 260.0000 1.0000
66.9500 290.0000 1.0000
66.9600 259.0000 1.0000
66.9700 259.0000 1.0000
66.9800 279.0000 1.0000
66.9900 277.0000 1.0000
67.0000 252.0000 1.0000
67.0100 273.0000 1.0000
67.0200 266.0000 1.0000
67.0300 287.0000 1.0000
67.0400 264.0000 1.0000
67.0500 315.0000 1.0000
67.0600 287.0000 1.0000
67.0700 284.0000 1.0000
67.0800 290.0000 1.0000
67.0900 298.0000 1.0000
67.1000 266.0000 1.0000
67.1100 261.0000 1.0000
67.1200 284.0000 1.0000
67.1300 282.0000 1.0000
67.1400 274.0000 1.0000
67.1500 267.0000 1.0000
67.1600 275.0000 1.0000
67.1700 283.0000 1.0000
67.1800 284.0000 1.0000
67.1900 285.0000 1.0000
67.2000 300.0000 1.0000
67.2100 273.0000 1.0000
67.2200 291.0000 1.0000
67.2300 301.0000 1.0000
67.2400 276.0000 1.0000
67.2500 298.0000 1.0000
67.2600 256.0000 1.0000
67.2700 281.0000 1.0000
67.2800 250.0000 1.0000
67.2900 268.0000 1.0000
67.3000 285.0000 1.0000
67.3100 263.0000 1.0000
67.3200 260.0000 1.0000
67.3300 298.0000 1.0000
67.3400 284.0000 1.0000
67.3500 281.0000 1.0000
67.3600 290.0000 1.0000
67.3700 275.0000 1.0000
67.3800 287.0000 1.0000
67.3900 271.0000 1.0000
67.4000 279.0000 1.0000
67.4100 253.0000 1.0000
67.4200 255.0000 1.0000
67.4300 288.0000 1.0000
67.4400 266.0000 1.0000
67.4500 266.0000 1.0000
67.4600 288.0000 1.0000
67.4700 270.0000 1.0000
67.4800 300.0000 1.0000
67.4900 276.0000 1.0000
67.5000 269.0000 1.0000
67.5100 270.0000 1.0000
67.5200 269.0000 1.0000
67.5300 280.0000 1.0000
67.5400 270.0000 1.0000
67.5500 277.0000 1.0000
67.5600 284.0000 1.0000
67.5700 260.0000 1.0000
67.5800 248.0000 1.0000
67.5900 269.0000 1.0000
67.6000 295.0000 1.0000
67.6100 258.0000 1.0000
67.6200 254.0000 1.0000
67.6300 291.0000 1.0000
67.6400 274.0000 1.0000
67.6500 261.0000 1.0000
67.6600 256.0000 1.0000
67.6700 276.0000 1.0000
67.6800 306.0000 1.0000
67.6900 268.0000 1.0000
67.7000 302.0000 1.0000
67.7100 277.0000 1.0000
67.7200 285.0000 1.0000
67.7300 261.0000 1.0000
67.7400 271.0000 1.0000
67.7500 273.0000 1.0000
67.7600 290.0000 1.0000
67.7700 279.0000 1.0000
67.7800 280.0000 1.0000
67.7900 291.0000 1.0000
67.8000 282.0000 1.0000
67.8100 257.0000 1.0000
67.8200 276.0000 1.0000
67.8300 258.0000 1.0000
67.8400 269.0000 1.0000
67.8500 301.0000 1.0000
67.8600 292.0000 1.0000
67.8700 249.0000 1.0000
67.8800 261.0000 1.0000
67.8900 288.0000 1.0000
67.9000 304.0000 1.0000
67.9100 277.0000 1.0000
67.9200 258.0000 1.0000
67.9300 246.0000 1.0000
67.9400 268.0000 1.0000
67.9500 302.0000 1.0000
67.9600 271.0000 1.0000
67.9700 280.0000 1.0000
67.9800 261.0000 1.0000
67.9900 271.0000 1.0000
68.0000 283.0000 1.0000
68.0100 281.0000 1.0000
68.0200 275.0000 1.0000
68.0300 296.0000 1.0000
68.0400 267.0000 1.0000
68.0500 256.0000 1.0000
68.0600 254.0000 1.0000
68.0700 289.0000 1.0000
68.0800 241.0000 1.0000
68.0900 259.0000 1.0000
68.1000 281.0000 1.0000
68.1100 261.0000 1.0000
68.1200 257.0000 1.0000
68.1300 256.0000 1.0000
68.1400 284.0000 1.0000
68.1500 257.0000 1.0000
68.1600 262.0000 1.0000
68.1700 289.0000 1.0000
68.1800 286.0000 1.0000
68.1900 288.0000 1.0000
68.2000 285.0000 1.0000
68.2100 276.0000 1.0000
68.2200 262.0000 1.0000
68.2300 237.0000 1.0000
68.2400 263.0000 1.0000
68.2500 273.0000 1.0000
68.2600 272.0000 1.0000
68.2700 270.0000 1.0000
68.2800 284.0000 1.0000
68.2900 266.0000 1.0000
68.3000 277.0000 1.0000
68.3100 271.0000 1.0000
68.3200 305.0000 1.0000
68.3300 286.0000 1.0000
68.3400 279.0000 1.0000
68.3500 282.0000 1.0000
68.3600 257.0000 1.0000
68.3700 264.0000 1.0000
68.3800 275.0000 1.0000
68.3900 263.0000 1.0000
68.4000 256.0000 1.0000
68.4100 256.0000 1.0000
68.4200 276.0000 1.0000
68.4300 258.0000 1.0000
68.4400 276.0000 1.0000
68.4500 249.0000 1.0000
68.4600 263.0000 1.0000
68.4700 256.0000 1.0000
68.4800 304.0000 1.0000
68.4900 274.0000 1.0000
68.5000 237.0000 1.0000
68.5100 243.0000 1.0000
68.5200 275.0000 1.0000
68.5300 273.0000 1.0000
68.5400 265.0000 1.0000
68.5500 248.0000 1.0000
68.5600 294.0000 1.0000
68.5700 270.0000 1.0000
68.5800 255.0000 1.0000
68.5900 266.0000 1.0000
68.6000 264.0000 1.0000
68.6100 264.0000 1.0000
68.6200 274.0000 1.0000
68.6300 241.0000 1.0000
68.6400 270.0000 1.0000
68.6500 272.0000 1.0000
68.6600 267.0000 1.0000
68.6700 256.0000 1.0000
68.6800 294.0000 1.0000
68.6900 272.0000 1.0000
68.7000 288.0000 1.0000
68.7100 267.0000 1.0000
68.7200 270.0000 1.0000
68.7300 250.0000 1.0000
68.7400 261.0000 1.0000
68.7500 273.0000 1.0000
68.7600 267.0000 1.0000
68.7700 298.0000 1.0000
68.7800 292.0000 1.0000
68.7900 263.0000 1.0000
68.8000 285.0000 1.0000
68.8100 279.0000 1.0000
68.8200 271.0000 1.0000
68.8300 265.0000 1.0000
68.8400 271.0000 1.0000
68.8500 247.0000 1.0000
68.8600 255.0000 1.0000
68.8700 256.0000 1.0000
68.8800 269.0000 1.0000
68.8900 248.0000 1.0000
68.9000 252.0000 1.0000
68.9100 277.0000 1.0000
68.9200 275.0000 1.0000
68.9300 284.0000 1.0000
68.9400 268.0000 1.0000
68.9500 303.0000 1.0000
68.9600 256.0000 1.0000
68.9700 257.0000 1.0000
68.9800 263.0000 1.0000
68.9900 243.0000 1.0000
69.0000 264.0000 1.0000
69.0100 266.0000 1.0000
69.0200 293.0000 1.0000
69.0300 277.0000 1.0000
69.0400 280.0000 1.0000
69.0500 263.0000 1.0000
69.0600 276.0000 1.0000
69.0700 259.0000 1.0000
69.0800 253.0000 1.0000
69.0900 284.0000 1.0000
69.1000 292.0000 1.0000
69.1100 265.0000 1.0000
69.1200 228.0000 1.0000
69.1300 246.0000 1.0000
69.1400 265.0000 1.0000
69.1500 284.0000 1.0000
69.1600 267.0000 1.0000
69.1700 242.0000 1.0000
69.1800 268.0000 1.0000
69.1900 248.0000 1.0000
69.2000 250.0000 1.0000
69.2100 263.0000 1.0000
69.2200 257.0000 1.0000
69.2300 254.0000 1.0000
69.2400 281.0000 1.0000
69.2500 260.0000 1.0000
69.2600 274.0000 1.0000
69.2700 273.0000 1.0000
69.2800 254.0000 1.0000
69.2900 267.0000 1.0000
69.3000 261.0000 1.0000
69.3100 258.0000 1.0000
69.3200 260.0000 1.0000
69.3300 272.0000 1.0000
69.3400 269.0000 1.0000
69.3500 251.0000 1.0000
69.3600 245.0000 1.0000
69.3700 247.0000 1.0000
69.3800 254.0000 1.0000
69.3900 273.0000 1.0000
69.4000 235.0000 1.0000
69.4100 246.0000 1.0000
69.4200 272.0000 1.0000
69.4300 269.0000 1.0000
69.4400 269.0000 1.0000
69.4500 263.0000 1.0000
69.4600 266.0000 1.0000
69.4700 248.0000 1.0000
69.4800 250.0000 1.0000
69.4900 283.0000 1.0000
69.5000 254.0000 1.0000
69.5100 248.0000 1.0000
69.5200 284.0000 1.0000
69.5300 262.0000 1.0000
69.5400 268.0000 1.0000
69.5500 281.0000 1.0000
69.5600 295.0000 1.0000
69.5700 252.0000 1.0000
69.5800 258.0000 1.0000
69.5900 277.0000 1.0000
69.6000 253.0000 1.0000
69.6100 243.0000 1.0000
69.6200 270.0000 1.0000
69.6300 263.0000 1.0000
69.6400 258.0000 1.0000
69.6500 255.0000 1.0000
69.6600 282.0000 1.0000
69.6700 246.0000 1.0000
69.6800 253.0000 1.0000
69.6900 292.0000 1.0000
69.7000 263.0000 1.0000
69.7100 268.0000 1.0000
69.7200 246.0000 1.0000
69.7300 272.0000 1.0000
69.7400 279.0000 1.0000
69.7500 278.0000 1.0000
69.7600 232.0000 1.0000
69.7700 273.0000 1.0000
69.7800 248.0000 1.0000
69.7900 271.0000 1.0000
69.8000 247.0000 1.0000
69.8100 233.0000 1.0000
69.8200 272.0000 1.0000
69.8300 280.0000 1.0000
69.8400 297.0000 1.0000
69.8500 263.0000 1.0000
69.8600 283.0000 1.0000
69.8700 274.0000 1.0000
69.8800 255.0000 1.0000
69.8900 269.0000 1.0000
69.9000 278.0000 1.0000
69.9100 247.0000 1.0000
69.9200 233.0000 1.0000
69.9300 263.0000 1.0000
69.9400 268.0000 1.0000
69.9500 263.0000 1.0000
69.9600 257.0000 1.0000
69.9700 253.0000 1.0000
69.9800 278.0000 1.0000
69.9900 255.0000 1.0000
70.0000 262.0000 1.0000
*RAS_INT_END
*RAS_TEMPERATURE_START
*RAS_TEMPERATURE_END
*RAS_DATA_END
