*RAS_DATA_START
*RAS_HEADER_START
*DISP_FMT_X "%.2f"
*DISP_FMT_Y "%.0f"
*DISP_FULLSCALE "14215.0000000000"
*DISP_LINE_COLOR "255.0000000000"
*DISP_LINE_STYLE "0.0000000000"
*DISP_LINE_WIDTH "0.2500000000"
*DISP_NOTE "測定データ-6"
*DISP_OFFSET_Y "0.0000000000"
*DISP_PEAKSEARCH_UNIT_Y "cps"
*DISP_RANGE_BOTTOM "0.0000000000"
*DISP_RANGE_LEFT "20.0000000000"
*DISP_RANGE_LOGCUTOFF "0.0100000000"
*DISP_RANGE_RIGHT "70.0000000000"
*DISP_RANGE_TOP "14215.0000000000"
*DISP_SCALE_MODE_Y "0.0000000000"
*DISP_TAB_NAME "2θ/θ"
*DISP_TITLE_Y "強度"
*DISP_UNIT_Y "cps"
*DISP_WINDOW_NAME "MSG_MACROENGINE"
*FILE_COMMENT " "
*FILE_MD5 ""
*FILE_MEMO " "
*FILE_OPERATOR "Administrator"
*FILE_SAMPLE " "
*FILE_TYPE "RAS_RAW"
*FILE_USERGROUP "システムマネージャ"
*FILE_VERSION "1.0000000000"
*HW_ATTACHMENT_ID "ATT0025"
*HW_ATTACHMENT_NAME "標準|Standard"
*HW_COUNTER_ID-0 "CUT0025"
*HW_COUNTER_ID-1 "CUT0020"
*HW_COUNTER_ID-2 "CUT0020"
*HW_COUNTER_ID-3 "CSL0021"
*HW_COUNTER_ID-4 "CMC0021"
*HW_COUNTER_NAME-0 "D/teX Ultra|D/teX Ultra"
*HW_COUNTER_NAME-1 "None|None"
*HW_COUNTER_NAME-2 "None|None"
*HW_COUNTER_NAME-3 "BBM|BBM"
*HW_COUNTER_NAME-4 "検出器モノクロメータ|Detector monochromator"
*HW_COUNTER_SELECT_NAME "D/teX Ultra|D/teX Ultra"
*HW_GONIOMETER_ID "GON0023"
*HW_GONIOMETER_NAME "SmartLab|SmartLab"
*HW_GONIOMETER_RADIUS-0 "90.0"
*HW_GONIOMETER_RADIUS-1 "114.0"
*HW_GONIOMETER_RADIUS-2 "190.0"
*HW_GONIOMETER_RADIUS-3 "300.0"
*HW_GONIOMETER_RADIUS-4 "187.0"
*HW_GONIOMETER_RADIUS-5 "300.0"
*HW_GONIOMETER_RADIUS-6 "113.0"
*HW_GONIOMETER_RADIUS-7 "331.0"
*HW_I_OPT_ID-0 "CBO0021"
*HW_I_OPT_ID-1 "ICR0023"
*HW_I_OPT_ID-2 "ISL0021"
*HW_I_OPT_ID-3 "ISO0021"
*HW_I_OPT_ID-4 "IAD0021"
*HW_I_OPT_ID-5 "IPR0001"
*HW_I_OPT_NAME-0 "CBOユニット|CBO unit"
*HW_I_OPT_NAME-1 "標準入射光学ユニット|Standard incident optical unit"
*HW_I_OPT_NAME-2 "標準入射スリットボックス|Standard incident slit box"
*HW_I_OPT_NAME-3 "入射平行スリット|Incident parallel slit"
*HW_I_OPT_NAME-4 "長手制限スリット|Length limiting slit"
*HW_I_OPT_NAME-5 "None|None"
*HW_R_ATTENUATER_AUTOMODE "0"
*HW_R_OPT_ID-0 "RSS0021"
*HW_R_OPT_ID-1 "RCR0023"
*HW_R_OPT_ID-2 "RSO0021"
*HW_R_OPT_ID-3 "RRS0021"
*HW_R_OPT_ID-4 "ATN0021"
*HW_R_OPT_ID-5 "RFL0021"
*HW_R_OPT_ID-6 "RAD0021"
*HW_R_OPT_NAME-0 "標準受光スリットボックス1|Standard receiving slit box # 1"
*HW_R_OPT_NAME-1 "標準受光光学ユニット1|Standard receiving unit # 1"
*HW_R_OPT_NAME-2 "標準受光光学ユニット2|Standard receiving optical unit # 2"
*HW_R_OPT_NAME-3 "標準受光スリットボックス2|Standard receiving slit box # 2"
*HW_R_OPT_NAME-4 "標準アッテネータ|Standard Attenuator"
*HW_R_OPT_NAME-5 "Cu Kβ|Cu K-beta"
*HW_R_OPT_NAME-6 "調整用受光スリット|Alignment receiving slit"
*HW_SAMPLE_HOLDER_ID "SMP0023"
*HW_SAMPLE_HOLDER_NAME "標準Zステージ|Standard Z stage"
*HW_XG_CURRENT_MAX "50"
*HW_XG_CURRENT_MIN "2"
*HW_XG_CURRENT_RESOLUTION "1"
*HW_XG_CURRENT_UNIT "mA"
*HW_XG_FOCUS "1mm x 10mm"
*HW_XG_FOCUS_TYPE "Normal"
*HW_XG_ID ""
*HW_XG_NAME "3kW 封入管(ID:1200)|3kW Sealed tube(ID:1200)"
*HW_XG_TARGET_ATOMIC_NUMBER "29.0000000000"
*HW_XG_TARGET_NAME "Cu"
*HW_XG_TYPE "Hermetic"
*HW_XG_VOLTAGE_MAX "60"
*HW_XG_VOLTAGE_MIN "20"
*HW_XG_VOLTAGE_RESOLUTION "1"
*HW_XG_VOLTAGE_UNIT "kV"
*HW_XG_WATT_MAX "1.500"
*HW_XG_WATT_UNIT "kW"
*HW_XG_WAVE_LENGTH_ALPHA1 "1.540593"
*HW_XG_WAVE_LENGTH_ALPHA2 "1.544414"
*HW_XG_WAVE_LENGTH_BETA "1.392250"
*MEAS_COND_AXIS_NAME-0 "2θ/θ"
*MEAS_COND_AXIS_NAME-1 "2θ"
*MEAS_COND_AXIS_NAME-2 "ω"
*MEAS_COND_AXIS_NAME-3 "Z"
*MEAS_COND_AXIS_NAME-4 "2θ/ω"
*MEAS_COND_AXIS_NAME-5 "θs"
*MEAS_COND_AXIS_NAME-6 "θd"
*MEAS_COND_AXIS_NAME-7 "Ts"
*MEAS_COND_AXIS_NAME-8 "CBO選択スリット"
*MEAS_COND_AXIS_NAME-9 "M"
*MEAS_COND_AXIS_NAME-10 "入射平行スリット"
*MEAS_COND_AXIS_NAME-11 "入射スリット"
*MEAS_COND_AXIS_NAME-12 ""
*MEAS_COND_AXIS_NAME-13 "Zs"
*MEAS_COND_AXIS_NAME-14 "入射光学素子"
*MEAS_COND_AXIS_NAME-15 "長手制限スリット"
*MEAS_COND_AXIS_NAME-16 "センタースリット"
*MEAS_COND_AXIS_NAME-17 "フィルター"
*MEAS_COND_AXIS_NAME-18 "受光スリット1"
*MEAS_COND_AXIS_NAME-19 "受光スリット2"
*MEAS_COND_AXIS_NAME-20 "受光光学素子"
*MEAS_COND_AXIS_NAME-21 "受光平行スリット"
*MEAS_COND_AXIS_NAME-22 "調整用受光スリット"
*MEAS_COND_AXIS_NAME-23 ""
*MEAS_COND_AXIS_NAME-24 ""
*MEAS_COND_AXIS_NAME-25 "Zd"
*MEAS_COND_AXIS_NAME-26 "アッテネータ"
*MEAS_COND_AXIS_NAME-27 "検出器モノクロメータ"
*MEAS_COND_AXIS_NAME-28 "モノクロメータスリット"
*MEAS_COND_AXIS_NAME-29 "プライマリビーム"
*MEAS_COND_AXIS_NAME-30 "PHA"
*MEAS_COND_AXIS_NAME_INTERNAL-0 "TwoThetaTheta"
*MEAS_COND_AXIS_NAME_INTERNAL-1 "TwoTheta"
*MEAS_COND_AXIS_NAME_INTERNAL-2 "Omega"
*MEAS_COND_AXIS_NAME_INTERNAL-3 "Z"
*MEAS_COND_AXIS_NAME_INTERNAL-4 "TwoThetaOmega"
*MEAS_COND_AXIS_NAME_INTERNAL-5 "ThetaS"
*MEAS_COND_AXIS_NAME_INTERNAL-6 "ThetaD"
*MEAS_COND_AXIS_NAME_INTERNAL-7 "Ts"
*MEAS_COND_AXIS_NAME_INTERNAL-8 "CBO"
*MEAS_COND_AXIS_NAME_INTERNAL-9 "CBO-M"
*MEAS_COND_AXIS_NAME_INTERNAL-10 "IncidentSollerSlit"
*MEAS_COND_AXIS_NAME_INTERNAL-11 "IncidentSlitBox"
*MEAS_COND_AXIS_NAME_INTERNAL-12 "IncidentSlitBox-_Axis"
*MEAS_COND_AXIS_NAME_INTERNAL-13 "Zs"
*MEAS_COND_AXIS_NAME_INTERNAL-14 "IncidentMonochromator"
*MEAS_COND_AXIS_NAME_INTERNAL-15 "IncidentAxdSlit"
*MEAS_COND_AXIS_NAME_INTERNAL-16 "CenterSlit"
*MEAS_COND_AXIS_NAME_INTERNAL-17 "Filter"
*MEAS_COND_AXIS_NAME_INTERNAL-18 "ReceivingSlitBox1"
*MEAS_COND_AXIS_NAME_INTERNAL-19 "ReceivingSlitBox2"
*MEAS_COND_AXIS_NAME_INTERNAL-20 "ReceivingOptics"
*MEAS_COND_AXIS_NAME_INTERNAL-21 "ReceivingSollerSlit"
*MEAS_COND_AXIS_NAME_INTERNAL-22 "ReceivingAxdSlit"
*MEAS_COND_AXIS_NAME_INTERNAL-23 "ReceivingSlitBox1-_Axis"
*MEAS_COND_AXIS_NAME_INTERNAL-24 "ReceivingSlitBox2-_Axis"
*MEAS_COND_AXIS_NAME_INTERNAL-25 "ReceivingSlitBox2-Zd"
*MEAS_COND_AXIS_NAME_INTERNAL-26 "Attenuator"
*MEAS_COND_AXIS_NAME_INTERNAL-27 "CounterMonochromator"
*MEAS_COND_AXIS_NAME_INTERNAL-28 "CounterSlit"
*MEAS_COND_AXIS_NAME_INTERNAL-29 "IncidentPrimary"
*MEAS_COND_AXIS_NAME_INTERNAL-30 "PHA"
*MEAS_COND_AXIS_NAME_MAGICNO-0 "83951616.0000000000"
*MEAS_COND_AXIS_NAME_MAGICNO-1 "268632064.0000000000"
*MEAS_COND_AXIS_NAME_MAGICNO-2 "268500992.0000000000"
*MEAS_COND_AXIS_NAME_MAGICNO-3 "285278208.0000000000"
*MEAS_COND_AXIS_NAME_MAGICNO-4 "83951616.0000000000"
*MEAS_COND_AXIS_NAME_MAGICNO-5 "131072.0000000000"
*MEAS_COND_AXIS_NAME_MAGICNO-6 "131072.0000000000"
*MEAS_COND_AXIS_NAME_MAGICNO-7 "318898176.0000000000"
*MEAS_COND_AXIS_NAME_MAGICNO-8 "20971521.0000000000"
*MEAS_COND_AXIS_NAME_MAGICNO-9 "285343744.0000000000"
*MEAS_COND_AXIS_NAME_MAGICNO-10 "20971521.0000000000"
*MEAS_COND_AXIS_NAME_MAGICNO-11 "22020097.0000000000"
*MEAS_COND_AXIS_NAME_MAGICNO-12 "25165824.0000000000"
*MEAS_COND_AXIS_NAME_MAGICNO-13 "318898176.0000000000"
*MEAS_COND_AXIS_NAME_MAGICNO-14 "1.0000000000"
*MEAS_COND_AXIS_NAME_MAGICNO-15 "20971521.0000000000"
*MEAS_COND_AXIS_NAME_MAGICNO-16 "20971521.0000000000"
*MEAS_COND_AXIS_NAME_MAGICNO-17 "20971521.0000000000"
*MEAS_COND_AXIS_NAME_MAGICNO-18 "23068673.0000000000"
*MEAS_COND_AXIS_NAME_MAGICNO-19 "23068673.0000000000"
*MEAS_COND_AXIS_NAME_MAGICNO-20 "20971521.0000000000"
*MEAS_COND_AXIS_NAME_MAGICNO-21 "20971521.0000000000"
*MEAS_COND_AXIS_NAME_MAGICNO-22 "20971521.0000000000"
*MEAS_COND_AXIS_NAME_MAGICNO-23 "25165824.0000000000"
*MEAS_COND_AXIS_NAME_MAGICNO-24 "25165824.0000000000"
*MEAS_COND_AXIS_NAME_MAGICNO-25 "285343744.0000000000"
*MEAS_COND_AXIS_NAME_MAGICNO-26 "17301505.0000000000"
*MEAS_COND_AXIS_NAME_MAGICNO-27 "20971521.0000000000"
*MEAS_COND_AXIS_NAME_MAGICNO-28 "20971521.0000000000"
*MEAS_COND_AXIS_NAME_MAGICNO-29 "20971521.0000000000"
*MEAS_COND_AXIS_NAME_MAGICNO-30 "0.0000000000"
*MEAS_COND_AXIS_OFFSET-0 "-"
*MEAS_COND_AXIS_OFFSET-1 "-0.0310000000"
*MEAS_COND_AXIS_OFFSET-2 "0.5056000000"
*MEAS_COND_AXIS_OFFSET-3 "-"
*MEAS_COND_AXIS_OFFSET-4 "-"
*MEAS_COND_AXIS_OFFSET-5 "0.5056000000"
*MEAS_COND_AXIS_OFFSET-6 "-0.5366000000"
*MEAS_COND_AXIS_OFFSET-7 "-"
*MEAS_COND_AXIS_OFFSET-8 "-"
*MEAS_COND_AXIS_OFFSET-9 "-"
*MEAS_COND_AXIS_OFFSET-10 "-"
*MEAS_COND_AXIS_OFFSET-11 "-"
*MEAS_COND_AXIS_OFFSET-12 "-"
*MEAS_COND_AXIS_OFFSET-13 "-"
*MEAS_COND_AXIS_OFFSET-14 "-"
*MEAS_COND_AXIS_OFFSET-15 "-"
*MEAS_COND_AXIS_OFFSET-16 "-"
*MEAS_COND_AXIS_OFFSET-17 "-"
*MEAS_COND_AXIS_OFFSET-18 "-"
*MEAS_COND_AXIS_OFFSET-19 "-"
*MEAS_COND_AXIS_OFFSET-20 "-"
*MEAS_COND_AXIS_OFFSET-21 "-"
*MEAS_COND_AXIS_OFFSET-22 "-"
*MEAS_COND_AXIS_OFFSET-23 "-"
*MEAS_COND_AXIS_OFFSET-24 "-"
*MEAS_COND_AXIS_OFFSET-25 "-"
*MEAS_COND_AXIS_OFFSET-26 "-"
*MEAS_COND_AXIS_OFFSET-27 "-"
*MEAS_COND_AXIS_OFFSET-28 "-"
*MEAS_COND_AXIS_OFFSET-29 "-"
*MEAS_COND_AXIS_OFFSET-30 "-"
*MEAS_COND_AXIS_POSITION-0 "0.0000000000"
*MEAS_COND_AXIS_POSITION-1 "0.0000000000"
*MEAS_COND_AXIS_POSITION-2 "0.0000000000"
*MEAS_COND_AXIS_POSITION-3 "-2.9031400000"
*MEAS_COND_AXIS_POSITION-4 "0.0000000000"
*MEAS_COND_AXIS_POSITION-5 "0.0000000000"
*MEAS_COND_AXIS_POSITION-6 "0.0000000000"
*MEAS_COND_AXIS_POSITION-7 "-0.7498700000"
*MEAS_COND_AXIS_POSITION-8 "BB"
*MEAS_COND_AXIS_POSITION-9 "0.0000000000"
*MEAS_COND_AXIS_POSITION-10 "Soller_slit_5.0deg"
*MEAS_COND_AXIS_POSITION-11 "2/3deg"
*MEAS_COND_AXIS_POSITION-12 "2.2088000000"
*MEAS_COND_AXIS_POSITION-13 "-0.6412500000"
*MEAS_COND_AXIS_POSITION-14 "0.0000000000"
*MEAS_COND_AXIS_POSITION-15 "10.0mm"
*MEAS_COND_AXIS_POSITION-16 "None"
*MEAS_COND_AXIS_POSITION-17 "Cu_K-beta"
*MEAS_COND_AXIS_POSITION-18 "13.000mm"
*MEAS_COND_AXIS_POSITION-19 "13.000mm"
*MEAS_COND_AXIS_POSITION-20 "No_unit"
*MEAS_COND_AXIS_POSITION-21 "Soller_slit_5.0deg"
*MEAS_COND_AXIS_POSITION-22 "None"
*MEAS_COND_AXIS_POSITION-23 "13.0000000000"
*MEAS_COND_AXIS_POSITION-24 "13.0000000000"
*MEAS_COND_AXIS_POSITION-25 "0.0281300000"
*MEAS_COND_AXIS_POSITION-26 "Open"
*MEAS_COND_AXIS_POSITION-27 "None"
*MEAS_COND_AXIS_POSITION-28 "None"
*MEAS_COND_AXIS_POSITION-29 "None"
*MEAS_COND_AXIS_POSITION-30 "38.0000000000"
*MEAS_COND_AXIS_UNIT-0 "deg"
*MEAS_COND_AXIS_UNIT-1 "deg"
*MEAS_COND_AXIS_UNIT-2 "deg"
*MEAS_COND_AXIS_UNIT-3 "mm"
*MEAS_COND_AXIS_UNIT-4 "deg"
*MEAS_COND_AXIS_UNIT-5 "deg"
*MEAS_COND_AXIS_UNIT-6 "deg"
*MEAS_COND_AXIS_UNIT-7 "mm"
*MEAS_COND_AXIS_UNIT-8 ""
*MEAS_COND_AXIS_UNIT-9 "pulse"
*MEAS_COND_AXIS_UNIT-10 ""
*MEAS_COND_AXIS_UNIT-11 ""
*MEAS_COND_AXIS_UNIT-12 "mm"
*MEAS_COND_AXIS_UNIT-13 "mm"
*MEAS_COND_AXIS_UNIT-14 ""
*MEAS_COND_AXIS_UNIT-15 ""
*MEAS_COND_AXIS_UNIT-16 ""
*MEAS_COND_AXIS_UNIT-17 ""
*MEAS_COND_AXIS_UNIT-18 ""
*MEAS_COND_AXIS_UNIT-19 ""
*MEAS_COND_AXIS_UNIT-20 ""
*MEAS_COND_AXIS_UNIT-21 ""
*MEAS_COND_AXIS_UNIT-22 ""
*MEAS_COND_AXIS_UNIT-23 "mm"
*MEAS_COND_AXIS_UNIT-24 "mm"
*MEAS_COND_AXIS_UNIT-25 "mm"
*MEAS_COND_AXIS_UNIT-26 ""
*MEAS_COND_AXIS_UNIT-27 ""
*MEAS_COND_AXIS_UNIT-28 ""
*MEAS_COND_AXIS_UNIT-29 ""
*MEAS_COND_AXIS_UNIT-30 "div"
*MEAS_COND_COUNTER_CNTLOSS_CORR "0.0000000000"
*MEAS_COND_COUNTER_PHABASE "38.0000000000"
*MEAS_COND_COUNTER_PHAWINDOW "16.0000000000"
*MEAS_COND_COUNTER_PHA_UNIT "div"
*MEAS_COND_COUNTER_TAUDIFF "30.0000000000"
*MEAS_COND_COUNTER_TAUINT "0.0000000000"
*MEAS_COND_IRRADIATION_MODE "OFF"
*MEAS_COND_IRRADIATION_WIDTH ""
*MEAS_COND_OPT_ATTR "集中法"
*MEAS_COND_OPT_NAME "@集中法"
*MEAS_COND_UNSYMMETRIC_MODE "OFF"
*MEAS_COND_XG_CURRENT "30.0000000000"
*MEAS_COND_XG_VOLTAGE "40.0000000000"
*MEAS_COND_XG_WAVE_TYPE "Ka"
*MEAS_DATA_COUNT "5001.0000000000"
*MEAS_SCAN_AXIS_X "2θ/θ"
*MEAS_SCAN_AXIS_X_INTERNAL "TwoThetaTheta"
*MEAS_SCAN_END_TIME "07/27/23 21:36:02"
*MEAS_SCAN_MODE "CONTINUOUS"
*MEAS_SCAN_MONITOR "0"
*MEAS_SCAN_RESOLUTION_X "0.0002"
*MEAS_SCAN_SPEED "2.5"
*MEAS_SCAN_SPEED_UNIT "deg/min"
*MEAS_SCAN_START "20.0000000000"
*MEAS_SCAN_START_TIME "07/27/23 21:14:38"
*MEAS_SCAN_STEP "0.0100000000"
*MEAS_SCAN_STOP "70.0000000000"
*MEAS_SCAN_UNIT_X "deg"
*MEAS_SCAN_UNIT_Y "counts"
*RAS_HEADER_END
*RAS_INT_START
20.0000 872.0000 1.0000
20.0100 881.0000 1.0000
20.0200 847.0000 1.0000
20.0300 846.0000 1.0000
20.0400 839.0000 1.0000
20.0500 838.0000 1.0000
20.0600 882.0000 1.0000
20.0700 839.0000 1.0000
20.0800 838.0000 1.0000
20.0900 857.0000 1.0000
20.1000 896.0000 1.0000
20.1100 866.0000 1.0000
20.1200 870.0000 1.0000
20.1300 867.0000 1.0000
20.1400 834.0000 1.0000
20.1500 835.0000 1.0000
20.1600 866.0000 1.0000
20.1700 886.0000 1.0000
20.1800 874.0000 1.0000
20.1900 853.0000 1.0000
20.2000 851.0000 1.0000
20.2100 857.0000 1.0000
20.2200 893.0000 1.0000
20.2300 891.0000 1.0000
20.2400 842.0000 1.0000
20.2500 866.0000 1.0000
20.2600 872.0000 1.0000
20.2700 882.0000 1.0000
20.2800 879.0000 1.0000
20.2900 879.0000 1.0000
20.3000 935.0000 1.0000
20.3100 926.0000 1.0000
20.3200 868.0000 1.0000
20.3300 939.0000 1.0000
20.3400 899.0000 1.0000
20.3500 907.0000 1.0000
20.3600 855.0000 1.0000
20.3700 858.0000 1.0000
20.3800 891.0000 1.0000
20.3900 907.0000 1.0000
20.4000 812.0000 1.0000
20.4100 867.0000 1.0000
20.4200 891.0000 1.0000
20.4300 917.0000 1.0000
20.4400 879.0000 1.0000
20.4500 867.0000 1.0000
20.4600 877.0000 1.0000
20.4700 872.0000 1.0000
20.4800 899.0000 1.0000
20.4900 890.0000 1.0000
20.5000 853.0000 1.0000
20.5100 885.0000 1.0000
20.5200 862.0000 1.0000
20.5300 866.0000 1.0000
20.5400 873.0000 1.0000
20.5500 863.0000 1.0000
20.5600 855.0000 1.0000
20.5700 860.0000 1.0000
20.5800 872.0000 1.0000
20.5900 860.0000 1.0000
20.6000 873.0000 1.0000
20.6100 855.0000 1.0000
20.6200 843.0000 1.0000
20.6300 907.0000 1.0000
20.6400 920.0000 1.0000
20.6500 870.0000 1.0000
20.6600 901.0000 1.0000
20.6700 865.0000 1.0000
20.6800 863.0000 1.0000
20.6900 904.0000 1.0000
20.7000 880.0000 1.0000
20.7100 853.0000 1.0000
20.7200 923.0000 1.0000
20.7300 895.0000 1.0000
20.7400 880.0000 1.0000
20.7500 929.0000 1.0000
20.7600 911.0000 1.0000
20.7700 890.0000 1.0000
20.7800 866.0000 1.0000
20.7900 862.0000 1.0000
20.8000 861.0000 1.0000
20.8100 918.0000 1.0000
20.8200 842.0000 1.0000
20.8300 923.0000 1.0000
20.8400 867.0000 1.0000
20.8500 851.0000 1.0000
20.8600 853.0000 1.0000
20.8700 860.0000 1.0000
20.8800 850.0000 1.0000
20.8900 845.0000 1.0000
20.9000 872.0000 1.0000
20.9100 889.0000 1.0000
20.9200 900.0000 1.0000
20.9300 836.0000 1.0000
20.9400 828.0000 1.0000
20.9500 861.0000 1.0000
20.9600 886.0000 1.0000
20.9700 838.0000 1.0000
20.9800 863.0000 1.0000
20.9900 911.0000 1.0000
21.0000 904.0000 1.0000
21.0100 918.0000 1.0000
21.0200 847.0000 1.0000
21.0300 882.0000 1.0000
21.0400 856.0000 1.0000
21.0500 871.0000 1.0000
21.0600 878.0000 1.0000
21.0700 897.0000 1.0000
21.0800 923.0000 1.0000
21.0900 931.0000 1.0000
21.1000 864.0000 1.0000
21.1100 881.0000 1.0000
21.1200 816.0000 1.0000
21.1300 853.0000 1.0000
21.1400 789.0000 1.0000
21.1500 869.0000 1.0000
21.1600 872.0000 1.0000
21.1700 863.0000 1.0000
21.1800 876.0000 1.0000
21.1900 864.0000 1.0000
21.2000 852.0000 1.0000
21.2100 877.0000 1.0000
21.2200 850.0000 1.0000
21.2300 882.0000 1.0000
21.2400 895.0000 1.0000
21.2500 849.0000 1.0000
21.2600 822.0000 1.0000
21.2700 878.0000 1.0000
21.2800 846.0000 1.0000
21.2900 833.0000 1.0000
21.3000 889.0000 1.0000
21.3100 862.0000 1.0000
21.3200 879.0000 1.0000
21.3300 933.0000 1.0000
21.3400 916.0000 1.0000
21.3500 903.0000 1.0000
21.3600 867.0000 1.0000
21.3700 837.0000 1.0000
21.3800 850.0000 1.0000
21.3900 867.0000 1.0000
21.4000 851.0000 1.0000
21.4100 902.0000 1.0000
21.4200 901.0000 1.0000
21.4300 839.0000 1.0000
21.4400 817.0000 1.0000
21.4500 800.0000 1.0000
21.4600 852.0000 1.0000
21.4700 868.0000 1.0000
21.4800 855.0000 1.0000
21.4900 835.0000 1.0000
21.5000 900.0000 1.0000
21.5100 908.0000 1.0000
21.5200 873.0000 1.0000
21.5300 880.0000 1.0000
21.5400 868.0000 1.0000
21.5500 854.0000 1.0000
21.5600 867.0000 1.0000
21.5700 873.0000 1.0000
21.5800 882.0000 1.0000
21.5900 845.0000 1.0000
21.6000 849.0000 1.0000
21.6100 839.0000 1.0000
21.6200 845.0000 1.0000
21.6300 848.0000 1.0000
21.6400 846.0000 1.0000
21.6500 906.0000 1.0000
21.6600 914.0000 1.0000
21.6700 864.0000 1.0000
21.6800 869.0000 1.0000
21.6900 823.0000 1.0000
21.7000 918.0000 1.0000
21.7100 918.0000 1.0000
21.7200 846.0000 1.0000
21.7300 817.0000 1.0000
21.7400 862.0000 1.0000
21.7500 884.0000 1.0000
21.7600 891.0000 1.0000
21.7700 826.0000 1.0000
21.7800 827.0000 1.0000
21.7900 840.0000 1.0000
21.8000 880.0000 1.0000
21.8100 859.0000 1.0000
21.8200 808.0000 1.0000
21.8300 837.0000 1.0000
21.8400 886.0000 1.0000
21.8500 912.0000 1.0000
21.8600 866.0000 1.0000
21.8700 856.0000 1.0000
21.8800 862.0000 1.0000
21.8900 865.0000 1.0000
21.9000 835.0000 1.0000
21.9100 787.0000 1.0000
21.9200 816.0000 1.0000
21.9300 880.0000 1.0000
21.9400 840.0000 1.0000
21.9500 876.0000 1.0000
21.9600 902.0000 1.0000
21.9700 841.0000 1.0000
21.9800 847.0000 1.0000
21.9900 882.0000 1.0000
22.0000 879.0000 1.0000
22.0100 858.0000 1.0000
22.0200 804.0000 1.0000
22.0300 851.0000 1.0000
22.0400 854.0000 1.0000
22.0500 870.0000 1.0000
22.0600 880.0000 1.0000
22.0700 827.0000 1.0000
22.0800 844.0000 1.0000
22.0900 902.0000 1.0000
22.1000 871.0000 1.0000
22.1100 892.0000 1.0000
22.1200 885.0000 1.0000
22.1300 894.0000 1.0000
22.1400 887.0000 1.0000
22.1500 847.0000 1.0000
22.1600 861.0000 1.0000
22.1700 867.0000 1.0000
22.1800 848.0000 1.0000
22.1900 817.0000 1.0000
22.2000 868.0000 1.0000
22.2100 832.0000 1.0000
22.2200 857.0000 1.0000
22.2300 888.0000 1.0000
22.2400 797.0000 1.0000
22.2500 823.0000 1.0000
22.2600 863.0000 1.0000
22.2700 871.0000 1.0000
22.2800 844.0000 1.0000
22.2900 808.0000 1.0000
22.3000 851.0000 1.0000
22.3100 862.0000 1.0000
22.3200 913.0000 1.0000
22.3300 783.0000 1.0000
22.3400 837.0000 1.0000
22.3500 864.0000 1.0000
22.3600 832.0000 1.0000
22.3700 880.0000 1.0000
22.3800 793.0000 1.0000
22.3900 852.0000 1.0000
22.4000 878.0000 1.0000
22.4100 864.0000 1.0000
22.4200 829.0000 1.0000
22.4300 896.0000 1.0000
22.4400 884.0000 1.0000
22.4500 883.0000 1.0000
22.4600 851.0000 1.0000
22.4700 844.0000 1.0000
22.4800 837.0000 1.0000
22.4900 866.0000 1.0000
22.5000 886.0000 1.0000
22.5100 929.0000 1.0000
22.5200 836.0000 1.0000
22.5300 829.0000 1.0000
22.5400 845.0000 1.0000
22.5500 834.0000 1.0000
22.5600 863.0000 1.0000
22.5700 857.0000 1.0000
22.5800 838.0000 1.0000
22.5900 851.0000 1.0000
22.6000 831.0000 1.0000
22.6100 859.0000 1.0000
22.6200 837.0000 1.0000
22.6300 843.0000 1.0000
22.6400 834.0000 1.0000
22.6500 848.0000 1.0000
22.6600 856.0000 1.0000
22.6700 817.0000 1.0000
22.6800 826.0000 1.0000
22.6900 830.0000 1.0000
22.7000 822.0000 1.0000
22.7100 855.0000 1.0000
22.7200 856.0000 1.0000
22.7300 847.0000 1.0000
22.7400 822.0000 1.0000
22.7500 873.0000 1.0000
22.7600 848.0000 1.0000
22.7700 874.0000 1.0000
22.7800 901.0000 1.0000
22.7900 827.0000 1.0000
22.8000 822.0000 1.0000
22.8100 846.0000 1.0000
22.8200 821.0000 1.0000
22.8300 892.0000 1.0000
22.8400 838.0000 1.0000
22.8500 880.0000 1.0000
22.8600 859.0000 1.0000
22.8700 878.0000 1.0000
22.8800 833.0000 1.0000
22.8900 835.0000 1.0000
22.9000 851.0000 1.0000
22.9100 852.0000 1.0000
22.9200 849.0000 1.0000
22.9300 855.0000 1.0000
22.9400 841.0000 1.0000
22.9500 816.0000 1.0000
22.9600 817.0000 1.0000
22.9700 845.0000 1.0000
22.9800 815.0000 1.0000
22.9900 813.0000 1.0000
23.0000 808.0000 1.0000
23.0100 863.0000 1.0000
23.0200 832.0000 1.0000
23.0300 885.0000 1.0000
23.0400 858.0000 1.0000
23.0500 853.0000 1.0000
23.0600 836.0000 1.0000
23.0700 867.0000 1.0000
23.0800 821.0000 1.0000
23.0900 814.0000 1.0000
23.1000 833.0000 1.0000
23.1100 854.0000 1.0000
23.1200 870.0000 1.0000
23.1300 833.0000 1.0000
23.1400 832.0000 1.0000
23.1500 814.0000 1.0000
23.1600 860.0000 1.0000
23.1700 845.0000 1.0000
23.1800 811.0000 1.0000
23.1900 873.0000 1.0000
23.2000 837.0000 1.0000
23.2100 860.0000 1.0000
23.2200 872.0000 1.0000
23.2300 849.0000 1.0000
23.2400 829.0000 1.0000
23.2500 842.0000 1.0000
23.2600 855.0000 1.0000
23.2700 821.0000 1.0000
23.2800 866.0000 1.0000
23.2900 870.0000 1.0000
23.3000 867.0000 1.0000
23.3100 833.0000 1.0000
23.3200 789.0000 1.0000
23.3300 853.0000 1.0000
23.3400 798.0000 1.0000
23.3500 846.0000 1.0000
23.3600 812.0000 1.0000
23.3700 809.0000 1.0000
23.3800 884.0000 1.0000
23.3900 862.0000 1.0000
23.4000 882.0000 1.0000
23.4100 860.0000 1.0000
23.4200 832.0000 1.0000
23.4300 846.0000 1.0000
23.4400 838.0000 1.0000
23.4500 888.0000 1.0000
23.4600 808.0000 1.0000
23.4700 821.0000 1.0000
23.4800 826.0000 1.0000
23.4900 851.0000 1.0000
23.5000 833.0000 1.0000
23.5100 867.0000 1.0000
23.5200 863.0000 1.0000
23.5300 838.0000 1.0000
23.5400 845.0000 1.0000
23.5500 849.0000 1.0000
23.5600 848.0000 1.0000
23.5700 842.0000 1.0000
23.5800 860.0000 1.0000
23.5900 834.0000 1.0000
23.6000 819.0000 1.0000
23.6100 860.0000 1.0000
23.6200 872.0000 1.0000
23.6300 799.0000 1.0000
23.6400 820.0000 1.0000
23.6500 832.0000 1.0000
23.6600 846.0000 1.0000
23.6700 846.0000 1.0000
23.6800 824.0000 1.0000
23.6900 811.0000 1.0000
23.7000 819.0000 1.0000
23.7100 865.0000 1.0000
23.7200 848.0000 1.0000
23.7300 844.0000 1.0000
23.7400 842.0000 1.0000
23.7500 880.0000 1.0000
23.7600 874.0000 1.0000
23.7700 850.0000 1.0000
23.7800 860.0000 1.0000
23.7900 897.0000 1.0000
23.8000 888.0000 1.0000
23.8100 848.0000 1.0000
23.8200 857.0000 1.0000
23.8300 835.0000 1.0000
23.8400 872.0000 1.0000
23.8500 911.0000 1.0000
23.8600 894.0000 1.0000
23.8700 859.0000 1.0000
23.8800 866.0000 1.0000
23.8900 858.0000 1.0000
23.9000 889.0000 1.0000
23.9100 920.0000 1.0000
23.9200 941.0000 1.0000
23.9300 878.0000 1.0000
23.9400 923.0000 1.0000
23.9500 911.0000 1.0000
23.9600 899.0000 1.0000
23.9700 911.0000 1.0000
23.9800 871.0000 1.0000
23.9900 915.0000 1.0000
24.0000 925.0000 1.0000
24.0100 899.0000 1.0000
24.0200 952.0000 1.0000
24.0300 956.0000 1.0000
24.0400 982.0000 1.0000
24.0500 1000.0000 1.0000
24.0600 966.0000 1.0000
24.0700 965.0000 1.0000
24.0800 937.0000 1.0000
24.0900 927.0000 1.0000
24.1000 975.0000 1.0000
24.1100 992.0000 1.0000
24.1200 971.0000 1.0000
24.1300 971.0000 1.0000
24.1400 986.0000 1.0000
24.1500 946.0000 1.0000
24.1600 916.0000 1.0000
24.1700 930.0000 1.0000
24.1800 943.0000 1.0000
24.1900 852.0000 1.0000
24.2000 892.0000 1.0000
24.2100 856.0000 1.0000
24.2200 910.0000 1.0000
24.2300 924.0000 1.0000
24.2400 839.0000 1.0000
24.2500 829.0000 1.0000
24.2600 866.0000 1.0000
24.2700 847.0000 1.0000
24.2800 846.0000 1.0000
24.2900 855.0000 1.0000
24.3000 845.0000 1.0000
24.3100 875.0000 1.0000
24.3200 862.0000 1.0000
24.3300 863.0000 1.0000
24.3400 797.0000 1.0000
24.3500 825.0000 1.0000
24.3600 864.0000 1.0000
24.3700 849.0000 1.0000
24.3800 874.0000 1.0000
24.3900 839.0000 1.0000
24.4000 834.0000 1.0000
24.4100 818.0000 1.0000
24.4200 844.0000 1.0000
24.4300 829.0000 1.0000
24.4400 807.0000 1.0000
24.4500 858.0000 1.0000
24.4600 815.0000 1.0000
24.4700 869.0000 1.0000
24.4800 857.0000 1.0000
24.4900 892.0000 1.0000
24.5000 785.0000 1.0000
24.5100 831.0000 1.0000
24.5200 872.0000 1.0000
24.5300 825.0000 1.0000
24.5400 848.0000 1.0000
24.5500 844.0000 1.0000
24.5600 831.0000 1.0000
24.5700 808.0000 1.0000
24.5800 770.0000 1.0000
24.5900 864.0000 1.0000
24.6000 812.0000 1.0000
24.6100 771.0000 1.0000
24.6200 814.0000 1.0000
24.6300 839.0000 1.0000
24.6400 856.0000 1.0000
24.6500 812.0000 1.0000
24.6600 814.0000 1.0000
24.6700 796.0000 1.0000
24.6800 840.0000 1.0000
24.6900 801.0000 1.0000
24.7000 837.0000 1.0000
24.7100 783.0000 1.0000
24.7200 798.0000 1.0000
24.7300 843.0000 1.0000
24.7400 819.0000 1.0000
24.7500 835.0000 1.0000
24.7600 802.0000 1.0000
24.7700 821.0000 1.0000
24.7800 850.0000 1.0000
24.7900 840.0000 1.0000
24.8000 867.0000 1.0000
24.8100 806.0000 1.0000
24.8200 845.0000 1.0000
24.8300 850.0000 1.0000
24.8400 779.0000 1.0000
24.8500 797.0000 1.0000
24.8600 778.0000 1.0000
24.8700 820.0000 1.0000
24.8800 846.0000 1.0000
24.8900 819.0000 1.0000
24.9000 861.0000 1.0000
24.9100 812.0000 1.0000
24.9200 815.0000 1.0000
24.9300 818.0000 1.0000
24.9400 828.0000 1.0000
24.9500 855.0000 1.0000
24.9600 857.0000 1.0000
24.9700 839.0000 1.0000
24.9800 818.0000 1.0000
24.9900 837.0000 1.0000
25.0000 779.0000 1.0000
25.0100 843.0000 1.0000
25.0200 810.0000 1.0000
25.0300 814.0000 1.0000
25.0400 793.0000 1.0000
25.0500 815.0000 1.0000
25.0600 829.0000 1.0000
25.0700 793.0000 1.0000
25.0800 813.0000 1.0000
25.0900 817.0000 1.0000
25.1000 821.0000 1.0000
25.1100 804.0000 1.0000
25.1200 844.0000 1.0000
25.1300 831.0000 1.0000
25.1400 797.0000 1.0000
25.1500 768.0000 1.0000
25.1600 789.0000 1.0000
25.1700 800.0000 1.0000
25.1800 882.0000 1.0000
25.1900 783.0000 1.0000
25.2000 820.0000 1.0000
25.2100 884.0000 1.0000
25.2200 783.0000 1.0000
25.2300 833.0000 1.0000
25.2400 838.0000 1.0000
25.2500 807.0000 1.0000
25.2600 809.0000 1.0000
25.2700 766.0000 1.0000
25.2800 793.0000 1.0000
25.2900 818.0000 1.0000
25.3000 815.0000 1.0000
25.3100 801.0000 1.0000
25.3200 823.0000 1.0000
25.3300 868.0000 1.0000
25.3400 822.0000 1.0000
25.3500 789.0000 1.0000
25.3600 797.0000 1.0000
25.3700 817.0000 1.0000
25.3800 816.0000 1.0000
25.3900 832.0000 1.0000
25.4000 826.0000 1.0000
25.4100 790.0000 1.0000
25.4200 813.0000 1.0000
25.4300 811.0000 1.0000
25.4400 840.0000 1.0000
25.4500 833.0000 1.0000
25.4600 811.0000 1.0000
25.4700 849.0000 1.0000
25.4800 812.0000 1.0000
25.4900 822.0000 1.0000
25.5000 845.0000 1.0000
25.5100 810.0000 1.0000
25.5200 850.0000 1.0000
25.5300 850.0000 1.0000
25.5400 795.0000 1.0000
25.5500 822.0000 1.0000
25.5600 839.0000 1.0000
25.5700 864.0000 1.0000
25.5800 831.0000 1.0000
25.5900 828.0000 1.0000
25.6000 863.0000 1.0000
25.6100 858.0000 1.0000
25.6200 852.0000 1.0000
25.6300 855.0000 1.0000
25.6400 851.0000 1.0000
25.6500 831.0000 1.0000
25.6600 834.0000 1.0000
25.6700 860.0000 1.0000
25.6800 802.0000 1.0000
25.6900 835.0000 1.0000
25.7000 826.0000 1.0000
25.7100 798.0000 1.0000
25.7200 841.0000 1.0000
25.7300 870.0000 1.0000
25.7400 853.0000 1.0000
25.7500 889.0000 1.0000
25.7600 786.0000 1.0000
25.7700 814.0000 1.0000
25.7800 831.0000 1.0000
25.7900 836.0000 1.0000
25.8000 885.0000 1.0000
25.8100 849.0000 1.0000
25.8200 838.0000 1.0000
25.8300 865.0000 1.0000
25.8400 835.0000 1.0000
25.8500 851.0000 1.0000
25.8600 895.0000 1.0000
25.8700 877.0000 1.0000
25.8800 865.0000 1.0000
25.8900 861.0000 1.0000
25.9000 926.0000 1.0000
25.9100 887.0000 1.0000
25.9200 879.0000 1.0000
25.9300 916.0000 1.0000
25.9400 872.0000 1.0000
25.9500 876.0000 1.0000
25.9600 923.0000 1.0000
25.9700 862.0000 1.0000
25.9800 889.0000 1.0000
25.9900 863.0000 1.0000
26.0000 902.0000 1.0000
26.0100 866.0000 1.0000
26.0200 899.0000 1.0000
26.0300 928.0000 1.0000
26.0400 903.0000 1.0000
26.0500 913.0000 1.0000
26.0600 913.0000 1.0000
26.0700 937.0000 1.0000
26.0800 951.0000 1.0000
26.0900 988.0000 1.0000
26.1000 944.0000 1.0000
26.1100 988.0000 1.0000
26.1200 990.0000 1.0000
26.1300 1056.0000 1.0000
26.1400 1020.0000 1.0000
26.1500 1076.0000 1.0000
26.1600 1078.0000 1.0000
26.1700 1097.0000 1.0000
26.1800 1147.0000 1.0000
26.1900 1192.0000 1.0000
26.2000 1152.0000 1.0000
26.2100 1245.0000 1.0000
26.2200 1280.0000 1.0000
26.2300 1321.0000 1.0000
26.2400 1293.0000 1.0000
26.2500 1322.0000 1.0000
26.2600 1378.0000 1.0000
26.2700 1462.0000 1.0000
26.2800 1544.0000 1.0000
26.2900 1576.0000 1.0000
26.3000 1659.0000 1.0000
26.3100 1757.0000 1.0000
26.3200 1829.0000 1.0000
26.3300 1963.0000 1.0000
26.3400 2075.0000 1.0000
26.3500 2159.0000 1.0000
26.3600 2248.0000 1.0000
26.3700 2360.0000 1.0000
26.3800 2567.0000 1.0000
26.3900 2640.0000 1.0000
26.4000 2663.0000 1.0000
26.4100 2798.0000 1.0000
26.4200 2832.0000 1.0000
26.4300 2764.0000 1.0000
26.4400 2843.0000 1.0000
26.4500 2739.0000 1.0000
26.4600 2796.0000 1.0000
26.4700 2638.0000 1.0000
26.4800 2607.0000 1.0000
26.4900 2513.0000 1.0000
26.5000 2438.0000 1.0000
26.5100 2179.0000 1.0000
26.5200 2039.0000 1.0000
26.5300 1973.0000 1.0000
26.5400 1816.0000 1.0000
26.5500 1773.0000 1.0000
26.5600 1717.0000 1.0000
26.5700 1625.0000 1.0000
26.5800 1530.0000 1.0000
26.5900 1466.0000 1.0000
26.6000 1429.0000 1.0000
26.6100 1365.0000 1.0000
26.6200 1354.0000 1.0000
26.6300 1273.0000 1.0000
26.6400 1212.0000 1.0000
26.6500 1153.0000 1.0000
26.6600 1139.0000 1.0000
26.6700 1124.0000 1.0000
26.6800 1125.0000 1.0000
26.6900 1036.0000 1.0000
26.7000 1014.0000 1.0000
26.7100 1045.0000 1.0000
26.7200 1003.0000 1.0000
26.7300 1046.0000 1.0000
26.7400 1029.0000 1.0000
26.7500 996.0000 1.0000
26.7600 973.0000 1.0000
26.7700 943.0000 1.0000
26.7800 905.0000 1.0000
26.7900 864.0000 1.0000
26.8000 868.0000 1.0000
26.8100 921.0000 1.0000
26.8200 960.0000 1.0000
26.8300 928.0000 1.0000
26.8400 858.0000 1.0000
26.8500 887.0000 1.0000
26.8600 860.0000 1.0000
26.8700 843.0000 1.0000
26.8800 857.0000 1.0000
26.8900 837.0000 1.0000
26.9000 839.0000 1.0000
26.9100 827.0000 1.0000
26.9200 802.0000 1.0000
26.9300 811.0000 1.0000
26.9400 824.0000 1.0000
26.9500 807.0000 1.0000
26.9600 841.0000 1.0000
26.9700 862.0000 1.0000
26.9800 852.0000 1.0000
26.9900 858.0000 1.0000
27.0000 851.0000 1.0000
27.0100 814.0000 1.0000
27.0200 818.0000 1.0000
27.0300 812.0000 1.0000
27.0400 829.0000 1.0000
27.0500 767.0000 1.0000
27.0600 829.0000 1.0000
27.0700 847.0000 1.0000
27.0800 803.0000 1.0000
27.0900 806.0000 1.0000
27.1000 796.0000 1.0000
27.1100 724.0000 1.0000
27.1200 754.0000 1.0000
27.1300 827.0000 1.0000
27.1400 781.0000 1.0000
27.1500 750.0000 1.0000
27.1600 780.0000 1.0000
27.1700 773.0000 1.0000
27.1800 847.0000 1.0000
27.1900 770.0000 1.0000
27.2000 770.0000 1.0000
27.2100 807.0000 1.0000
27.2200 771.0000 1.0000
27.2300 785.0000 1.0000
27.2400 785.0000 1.0000
27.2500 743.0000 1.0000
27.2600 785.0000 1.0000
27.2700 770.0000 1.0000
27.2800 811.0000 1.0000
27.2900 814.0000 1.0000
27.3000 792.0000 1.0000
27.3100 796.0000 1.0000
27.3200 775.0000 1.0000
27.3300 765.0000 1.0000
27.3400 760.0000 1.0000
27.3500 763.0000 1.0000
27.3600 728.0000 1.0000
27.3700 794.0000 1.0000
27.3800 725.0000 1.0000
27.3900 757.0000 1.0000
27.4000 761.0000 1.0000
27.4100 788.0000 1.0000
27.4200 751.0000 1.0000
27.4300 721.0000 1.0000
27.4400 795.0000 1.0000
27.4500 798.0000 1.0000
27.4600 806.0000 1.0000
27.4700 801.0000 1.0000
27.4800 750.0000 1.0000
27.4900 750.0000 1.0000
27.5000 767.0000 1.0000
27.5100 789.0000 1.0000
27.5200 732.0000 1.0000
27.5300 748.0000 1.0000
27.5400 748.0000 1.0000
27.5500 747.0000 1.0000
27.5600 754.0000 1.0000
27.5700 731.0000 1.0000
27.5800 715.0000 1.0000
27.5900 746.0000 1.0000
27.6000 752.0000 1.0000
27.6100 737.0000 1.0000
27.6200 779.0000 1.0000
27.6300 771.0000 1.0000
27.6400 693.0000 1.0000
27.6500 760.0000 1.0000
27.6600 783.0000 1.0000
27.6700 783.0000 1.0000
27.6800 732.0000 1.0000
27.6900 737.0000 1.0000
27.7000 805.0000 1.0000
27.7100 757.0000 1.0000
27.7200 709.0000 1.0000
27.7300 740.0000 1.0000
27.7400 753.0000 1.0000
27.7500 769.0000 1.0000
27.7600 763.0000 1.0000
27.7700 739.0000 1.0000
27.7800 730.0000 1.0000
27.7900 700.0000 1.0000
27.8000 768.0000 1.0000
27.8100 731.0000 1.0000
27.8200 718.0000 1.0000
27.8300 788.0000 1.0000
27.8400 728.0000 1.0000
27.8500 745.0000 1.0000
27.8600 725.0000 1.0000
27.8700 723.0000 1.0000
27.8800 737.0000 1.0000
27.8900 760.0000 1.0000
27.9000 727.0000 1.0000
27.9100 730.0000 1.0000
27.9200 747.0000 1.0000
27.9300 718.0000 1.0000
27.9400 700.0000 1.0000
27.9500 745.0000 1.0000
27.9600 763.0000 1.0000
27.9700 755.0000 1.0000
27.9800 731.0000 1.0000
27.9900 717.0000 1.0000
28.0000 740.0000 1.0000
28.0100 715.0000 1.0000
28.0200 737.0000 1.0000
28.0300 761.0000 1.0000
28.0400 703.0000 1.0000
28.0500 731.0000 1.0000
28.0600 749.0000 1.0000
28.0700 721.0000 1.0000
28.0800 708.0000 1.0000
28.0900 787.0000 1.0000
28.1000 740.0000 1.0000
28.1100 712.0000 1.0000
28.1200 682.0000 1.0000
28.1300 682.0000 1.0000
28.1400 718.0000 1.0000
28.1500 690.0000 1.0000
28.1600 733.0000 1.0000
28.1700 732.0000 1.0000
28.1800 698.0000 1.0000
28.1900 703.0000 1.0000
28.2000 684.0000 1.0000
28.2100 717.0000 1.0000
28.2200 729.0000 1.0000
28.2300 747.0000 1.0000
28.2400 728.0000 1.0000
28.2500 764.0000 1.0000
28.2600 747.0000 1.0000
28.2700 728.0000 1.0000
28.2800 697.0000 1.0000
28.2900 734.0000 1.0000
28.3000 702.0000 1.0000
28.3100 722.0000 1.0000
28.3200 729.0000 1.0000
28.3300 691.0000 1.0000
28.3400 707.0000 1.0000
28.3500 725.0000 1.0000
28.3600 704.0000 1.0000
28.3700 715.0000 1.0000
28.3800 691.0000 1.0000
28.3900 714.0000 1.0000
28.4000 745.0000 1.0000
28.4100 685.0000 1.0000
28.4200 761.0000 1.0000
28.4300 744.0000 1.0000
28.4400 720.0000 1.0000
28.4500 708.0000 1.0000
28.4600 676.0000 1.0000
28.4700 716.0000 1.0000
28.4800 721.0000 1.0000
28.4900 709.0000 1.0000
28.5000 686.0000 1.0000
28.5100 750.0000 1.0000
28.5200 724.0000 1.0000
28.5300 759.0000 1.0000
28.5400 736.0000 1.0000
28.5500 747.0000 1.0000
28.5600 730.0000 1.0000
28.5700 727.0000 1.0000
28.5800 698.0000 1.0000
28.5900 740.0000 1.0000
28.6000 721.0000 1.0000
28.6100 664.0000 1.0000
28.6200 707.0000 1.0000
28.6300 682.0000 1.0000
28.6400 719.0000 1.0000
28.6500 718.0000 1.0000
28.6600 715.0000 1.0000
28.6700 707.0000 1.0000
28.6800 699.0000 1.0000
28.6900 690.0000 1.0000
28.7000 711.0000 1.0000
28.7100 706.0000 1.0000
28.7200 691.0000 1.0000
28.7300 686.0000 1.0000
28.7400 665.0000 1.0000
28.7500 727.0000 1.0000
28.7600 673.0000 1.0000
28.7700 704.0000 1.0000
28.7800 690.0000 1.0000
28.7900 720.0000 1.0000
28.8000 716.0000 1.0000
28.8100 718.0000 1.0000
28.8200 634.0000 1.0000
28.8300 688.0000 1.0000
28.8400 720.0000 1.0000
28.8500 699.0000 1.0000
28.8600 698.0000 1.0000
28.8700 703.0000 1.0000
28.8800 716.0000 1.0000
28.8900 690.0000 1.0000
28.9000 661.0000 1.0000
28.9100 687.0000 1.0000
28.9200 724.0000 1.0000
28.9300 677.0000 1.0000
28.9400 690.0000 1.0000
28.9500 688.0000 1.0000
28.9600 696.0000 1.0000
28.9700 727.0000 1.0000
28.9800 686.0000 1.0000
28.9900 717.0000 1.0000
29.0000 731.0000 1.0000
29.0100 701.0000 1.0000
29.0200 691.0000 1.0000
29.0300 696.0000 1.0000
29.0400 661.0000 1.0000
29.0500 726.0000 1.0000
29.0600 695.0000 1.0000
29.0700 664.0000 1.0000
29.0800 652.0000 1.0000
29.0900 678.0000 1.0000
29.1000 680.0000 1.0000
29.1100 717.0000 1.0000
29.1200 701.0000 1.0000
29.1300 737.0000 1.0000
29.1400 703.0000 1.0000
29.1500 706.0000 1.0000
29.1600 654.0000 1.0000
29.1700 689.0000 1.0000
29.1800 658.0000 1.0000
29.1900 710.0000 1.0000
29.2000 691.0000 1.0000
29.2100 730.0000 1.0000
29.2200 681.0000 1.0000
29.2300 647.0000 1.0000
29.2400 663.0000 1.0000
29.2500 696.0000 1.0000
29.2600 686.0000 1.0000
29.2700 673.0000 1.0000
29.2800 694.0000 1.0000
29.2900 676.0000 1.0000
29.3000 689.0000 1.0000
29.3100 689.0000 1.0000
29.3200 689.0000 1.0000
29.3300 694.0000 1.0000
29.3400 677.0000 1.0000
29.3500 676.0000 1.0000
29.3600 699.0000 1.0000
29.3700 702.0000 1.0000
29.3800 695.0000 1.0000
29.3900 687.0000 1.0000
29.4000 683.0000 1.0000
29.4100 677.0000 1.0000
29.4200 691.0000 1.0000
29.4300 661.0000 1.0000
29.4400 700.0000 1.0000
29.4500 676.0000 1.0000
29.4600 705.0000 1.0000
29.4700 704.0000 1.0000
29.4800 653.0000 1.0000
29.4900 674.0000 1.0000
29.5000 672.0000 1.0000
29.5100 683.0000 1.0000
29.5200 624.0000 1.0000
29.5300 674.0000 1.0000
29.5400 698.0000 1.0000
29.5500 723.0000 1.0000
29.5600 646.0000 1.0000
29.5700 611.0000 1.0000
29.5800 657.0000 1.0000
29.5900 685.0000 1.0000
29.6000 658.0000 1.0000
29.6100 663.0000 1.0000
29.6200 735.0000 1.0000
29.6300 637.0000 1.0000
29.6400 668.0000 1.0000
29.6500 651.0000 1.0000
29.6600 677.0000 1.0000
29.6700 652.0000 1.0000
29.6800 710.0000 1.0000
29.6900 701.0000 1.0000
29.7000 656.0000 1.0000
29.7100 656.0000 1.0000
29.7200 627.0000 1.0000
29.7300 667.0000 1.0000
29.7400 644.0000 1.0000
29.7500 689.0000 1.0000
29.7600 702.0000 1.0000
29.7700 684.0000 1.0000
29.7800 664.0000 1.0000
29.7900 686.0000 1.0000
29.8000 679.0000 1.0000
29.8100 683.0000 1.0000
29.8200 666.0000 1.0000
29.8300 676.0000 1.0000
29.8400 683.0000 1.0000
29.8500 663.0000 1.0000
29.8600 681.0000 1.0000
29.8700 681.0000 1.0000
29.8800 655.0000 1.0000
29.8900 685.0000 1.0000
29.9000 698.0000 1.0000
29.9100 663.0000 1.0000
29.9200 625.0000 1.0000
29.9300 661.0000 1.0000
29.9400 691.0000 1.0000
29.9500 680.0000 1.0000
29.9600 619.0000 1.0000
29.9700 641.0000 1.0000
29.9800 656.0000 1.0000
29.9900 667.0000 1.0000
30.0000 684.0000 1.0000
30.0100 667.0000 1.0000
30.0200 655.0000 1.0000
30.0300 639.0000 1.0000
30.0400 631.0000 1.0000
30.0500 650.0000 1.0000
30.0600 669.0000 1.0000
30.0700 654.0000 1.0000
30.0800 624.0000 1.0000
30.0900 629.0000 1.0000
30.1000 619.0000 1.0000
30.1100 658.0000 1.0000
30.1200 678.0000 1.0000
30.1300 662.0000 1.0000
30.1400 637.0000 1.0000
30.1500 635.0000 1.0000
30.1600 670.0000 1.0000
30.1700 645.0000 1.0000
30.1800 695.0000 1.0000
30.1900 636.0000 1.0000
30.2000 689.0000 1.0000
30.2100 703.0000 1.0000
30.2200 694.0000 1.0000
30.2300 668.0000 1.0000
30.2400 659.0000 1.0000
30.2500 714.0000 1.0000
30.2600 673.0000 1.0000
30.2700 660.0000 1.0000
30.2800 689.0000 1.0000
30.2900 646.0000 1.0000
30.3000 661.0000 1.0000
30.3100 629.0000 1.0000
30.3200 620.0000 1.0000
30.3300 647.0000 1.0000
30.3400 650.0000 1.0000
30.3500 643.0000 1.0000
30.3600 686.0000 1.0000
30.3700 659.0000 1.0000
30.3800 654.0000 1.0000
30.3900 635.0000 1.0000
30.4000 652.0000 1.0000
30.4100 631.0000 1.0000
30.4200 616.0000 1.0000
30.4300 652.0000 1.0000
30.4400 630.0000 1.0000
30.4500 644.0000 1.0000
30.4600 722.0000 1.0000
30.4700 682.0000 1.0000
30.4800 673.0000 1.0000
30.4900 642.0000 1.0000
30.5000 648.0000 1.0000
30.5100 697.0000 1.0000
30.5200 667.0000 1.0000
30.5300 652.0000 1.0000
30.5400 624.0000 1.0000
30.5500 677.0000 1.0000
30.5600 647.0000 1.0000
30.5700 644.0000 1.0000
30.5800 661.0000 1.0000
30.5900 641.0000 1.0000
30.6000 625.0000 1.0000
30.6100 693.0000 1.0000
30.6200 666.0000 1.0000
30.6300 668.0000 1.0000
30.6400 636.0000 1.0000
30.6500 653.0000 1.0000
30.6600 690.0000 1.0000
30.6700 635.0000 1.0000
30.6800 630.0000 1.0000
30.6900 653.0000 1.0000
30.7000 654.0000 1.0000
30.7100 668.0000 1.0000
30.7200 647.0000 1.0000
30.7300 663.0000 1.0000
30.7400 614.0000 1.0000
30.7500 649.0000 1.0000
30.7600 620.0000 1.0000
30.7700 634.0000 1.0000
30.7800 674.0000 1.0000
30.7900 642.0000 1.0000
30.8000 642.0000 1.0000
30.8100 647.0000 1.0000
30.8200 624.0000 1.0000
30.8300 661.0000 1.0000
30.8400 680.0000 1.0000
30.8500 619.0000 1.0000
30.8600 665.0000 1.0000
30.8700 611.0000 1.0000
30.8800 684.0000 1.0000
30.8900 648.0000 1.0000
30.9000 647.0000 1.0000
30.9100 634.0000 1.0000
30.9200 670.0000 1.0000
30.9300 633.0000 1.0000
30.9400 636.0000 1.0000
30.9500 619.0000 1.0000
30.9600 620.0000 1.0000
30.9700 645.0000 1.0000
30.9800 661.0000 1.0000
30.9900 630.0000 1.0000
31.0000 613.0000 1.0000
31.0100 609.0000 1.0000
31.0200 632.0000 1.0000
31.0300 654.0000 1.0000
31.0400 662.0000 1.0000
31.0500 632.0000 1.0000
31.0600 677.0000 1.0000
31.0700 677.0000 1.0000
31.0800 682.0000 1.0000
31.0900 685.0000 1.0000
31.1000 664.0000 1.0000
31.1100 637.0000 1.0000
31.1200 646.0000 1.0000
31.1300 653.0000 1.0000
31.1400 641.0000 1.0000
31.1500 660.0000 1.0000
31.1600 677.0000 1.0000
31.1700 658.0000 1.0000
31.1800 655.0000 1.0000
31.1900 649.0000 1.0000
31.2000 679.0000 1.0000
31.2100 673.0000 1.0000
31.2200 685.0000 1.0000
31.2300 634.0000 1.0000
31.2400 640.0000 1.0000
31.2500 634.0000 1.0000
31.2600 619.0000 1.0000
31.2700 668.0000 1.0000
31.2800 625.0000 1.0000
31.2900 610.0000 1.0000
31.3000 613.0000 1.0000
31.3100 622.0000 1.0000
31.3200 657.0000 1.0000
31.3300 673.0000 1.0000
31.3400 587.0000 1.0000
31.3500 624.0000 1.0000
31.3600 612.0000 1.0000
31.3700 667.0000 1.0000
31.3800 658.0000 1.0000
31.3900 681.0000 1.0000
31.4000 630.0000 1.0000
31.4100 626.0000 1.0000
31.4200 629.0000 1.0000
31.4300 637.0000 1.0000
31.4400 670.0000 1.0000
31.4500 615.0000 1.0000
31.4600 640.0000 1.0000
31.4700 657.0000 1.0000
31.4800 655.0000 1.0000
31.4900 656.0000 1.0000
31.5000 613.0000 1.0000
31.5100 614.0000 1.0000
31.5200 632.0000 1.0000
31.5300 659.0000 1.0000
31.5400 631.0000 1.0000
31.5500 651.0000 1.0000
31.5600 662.0000 1.0000
31.5700 662.0000 1.0000
31.5800 646.0000 1.0000
31.5900 623.0000 1.0000
31.6000 611.0000 1.0000
31.6100 646.0000 1.0000
31.6200 638.0000 1.0000
31.6300 650.0000 1.0000
31.6400 662.0000 1.0000
31.6500 637.0000 1.0000
31.6600 625.0000 1.0000
31.6700 667.0000 1.0000
31.6800 623.0000 1.0000
31.6900 628.0000 1.0000
31.7000 581.0000 1.0000
31.7100 593.0000 1.0000
31.7200 621.0000 1.0000
31.7300 627.0000 1.0000
31.7400 627.0000 1.0000
31.7500 592.0000 1.0000
31.7600 627.0000 1.0000
31.7700 622.0000 1.0000
31.7800 603.0000 1.0000
31.7900 602.0000 1.0000
31.8000 581.0000 1.0000
31.8100 594.0000 1.0000
31.8200 641.0000 1.0000
31.8300 617.0000 1.0000
31.8400 596.0000 1.0000
31.8500 618.0000 1.0000
31.8600 642.0000 1.0000
31.8700 637.0000 1.0000
31.8800 606.0000 1.0000
31.8900 572.0000 1.0000
31.9000 617.0000 1.0000
31.9100 625.0000 1.0000
31.9200 619.0000 1.0000
31.9300 620.0000 1.0000
31.9400 648.0000 1.0000
31.9500 619.0000 1.0000
31.9600 616.0000 1.0000
31.9700 629.0000 1.0000
31.9800 619.0000 1.0000
31.9900 625.0000 1.0000
32.0000 617.0000 1.0000
32.0100 595.0000 1.0000
32.0200 626.0000 1.0000
32.0300 589.0000 1.0000
32.0400 580.0000 1.0000
32.0500 627.0000 1.0000
32.0600 604.0000 1.0000
32.0700 611.0000 1.0000
32.0800 604.0000 1.0000
32.0900 630.0000 1.0000
32.1000 665.0000 1.0000
32.1100 627.0000 1.0000
32.1200 612.0000 1.0000
32.1300 599.0000 1.0000
32.1400 636.0000 1.0000
32.1500 614.0000 1.0000
32.1600 605.0000 1.0000
32.1700 614.0000 1.0000
32.1800 594.0000 1.0000
32.1900 621.0000 1.0000
32.2000 594.0000 1.0000
32.2100 615.0000 1.0000
32.2200 615.0000 1.0000
32.2300 642.0000 1.0000
32.2400 587.0000 1.0000
32.2500 573.0000 1.0000
32.2600 601.0000 1.0000
32.2700 577.0000 1.0000
32.2800 598.0000 1.0000
32.2900 601.0000 1.0000
32.3000 610.0000 1.0000
32.3100 624.0000 1.0000
32.3200 657.0000 1.0000
32.3300 648.0000 1.0000
32.3400 612.0000 1.0000
32.3500 562.0000 1.0000
32.3600 601.0000 1.0000
32.3700 637.0000 1.0000
32.3800 648.0000 1.0000
32.3900 646.0000 1.0000
32.4000 600.0000 1.0000
32.4100 632.0000 1.0000
32.4200 622.0000 1.0000
32.4300 614.0000 1.0000
32.4400 603.0000 1.0000
32.4500 605.0000 1.0000
32.4600 593.0000 1.0000
32.4700 573.0000 1.0000
32.4800 562.0000 1.0000
32.4900 593.0000 1.0000
32.5000 578.0000 1.0000
32.5100 596.0000 1.0000
32.5200 609.0000 1.0000
32.5300 642.0000 1.0000
32.5400 606.0000 1.0000
32.5500 630.0000 1.0000
32.5600 599.0000 1.0000
32.5700 602.0000 1.0000
32.5800 625.0000 1.0000
32.5900 627.0000 1.0000
32.6000 617.0000 1.0000
32.6100 591.0000 1.0000
32.6200 619.0000 1.0000
32.6300 643.0000 1.0000
32.6400 612.0000 1.0000
32.6500 595.0000 1.0000
32.6600 625.0000 1.0000
32.6700 633.0000 1.0000
32.6800 628.0000 1.0000
32.6900 604.0000 1.0000
32.7000 597.0000 1.0000
32.7100 574.0000 1.0000
32.7200 604.0000 1.0000
32.7300 591.0000 1.0000
32.7400 616.0000 1.0000
32.7500 614.0000 1.0000
32.7600 602.0000 1.0000
32.7700 599.0000 1.0000
32.7800 593.0000 1.0000
32.7900 644.0000 1.0000
32.8000 608.0000 1.0000
32.8100 625.0000 1.0000
32.8200 597.0000 1.0000
32.8300 611.0000 1.0000
32.8400 602.0000 1.0000
32.8500 607.0000 1.0000
32.8600 625.0000 1.0000
32.8700 643.0000 1.0000
32.8800 659.0000 1.0000
32.8900 624.0000 1.0000
32.9000 651.0000 1.0000
32.9100 628.0000 1.0000
32.9200 647.0000 1.0000
32.9300 667.0000 1.0000
32.9400 683.0000 1.0000
32.9500 639.0000 1.0000
32.9600 678.0000 1.0000
32.9700 678.0000 1.0000
32.9800 694.0000 1.0000
32.9900 706.0000 1.0000
33.0000 738.0000 1.0000
33.0100 748.0000 1.0000
33.0200 756.0000 1.0000
33.0300 709.0000 1.0000
33.0400 772.0000 1.0000
33.0500 800.0000 1.0000
33.0600 794.0000 1.0000
33.0700 794.0000 1.0000
33.0800 793.0000 1.0000
33.0900 862.0000 1.0000
33.1000 799.0000 1.0000
33.1100 804.0000 1.0000
33.1200 823.0000 1.0000
33.1300 791.0000 1.0000
33.1400 796.0000 1.0000
33.1500 757.0000 1.0000
33.1600 777.0000 1.0000
33.1700 727.0000 1.0000
33.1800 738.0000 1.0000
33.1900 703.0000 1.0000
33.2000 668.0000 1.0000
33.2100 719.0000 1.0000
33.2200 720.0000 1.0000
33.2300 753.0000 1.0000
33.2400 715.0000 1.0000
33.2500 692.0000 1.0000
33.2600 656.0000 1.0000
33.2700 686.0000 1.0000
33.2800 634.0000 1.0000
33.2900 689.0000 1.0000
33.3000 702.0000 1.0000
33.3100 693.0000 1.0000
33.3200 697.0000 1.0000
33.3300 659.0000 1.0000
33.3400 699.0000 1.0000
33.3500 669.0000 1.0000
33.3600 723.0000 1.0000
33.3700 759.0000 1.0000
33.3800 758.0000 1.0000
33.3900 723.0000 1.0000
33.4000 790.0000 1.0000
33.4100 731.0000 1.0000
33.4200 760.0000 1.0000
33.4300 771.0000 1.0000
33.4400 825.0000 1.0000
33.4500 803.0000 1.0000
33.4600 828.0000 1.0000
33.4700 821.0000 1.0000
33.4800 842.0000 1.0000
33.4900 881.0000 1.0000
33.5000 945.0000 1.0000
33.5100 1002.0000 1.0000
33.5200 1007.0000 1.0000
33.5300 1035.0000 1.0000
33.5400 1098.0000 1.0000
33.5500 1119.0000 1.0000
33.5600 1149.0000 1.0000
33.5700 1238.0000 1.0000
33.5800 1262.0000 1.0000
33.5900 1363.0000 1.0000
33.6000 1380.0000 1.0000
33.6100 1438.0000 1.0000
33.6200 1439.0000 1.0000
33.6300 1472.0000 1.0000
33.6400 1475.0000 1.0000
33.6500 1441.0000 1.0000
33.6600 1476.0000 1.0000
33.6700 1439.0000 1.0000
33.6800 1425.0000 1.0000
33.6900 1401.0000 1.0000
33.7000 1252.0000 1.0000
33.7100 1244.0000 1.0000
33.7200 1281.0000 1.0000
33.7300 1192.0000 1.0000
33.7400 1135.0000 1.0000
33.7500 1127.0000 1.0000
33.7600 1038.0000 1.0000
33.7700 1030.0000 1.0000
33.7800 996.0000 1.0000
33.7900 969.0000 1.0000
33.8000 886.0000 1.0000
33.8100 911.0000 1.0000
33.8200 887.0000 1.0000
33.8300 855.0000 1.0000
33.8400 839.0000 1.0000
33.8500 755.0000 1.0000
33.8600 772.0000 1.0000
33.8700 788.0000 1.0000
33.8800 760.0000 1.0000
33.8900 711.0000 1.0000
33.9000 730.0000 1.0000
33.9100 737.0000 1.0000
33.9200 671.0000 1.0000
33.9300 681.0000 1.0000
33.9400 633.0000 1.0000
33.9500 666.0000 1.0000
33.9600 649.0000 1.0000
33.9700 654.0000 1.0000
33.9800 630.0000 1.0000
33.9900 659.0000 1.0000
34.0000 631.0000 1.0000
34.0100 644.0000 1.0000
34.0200 628.0000 1.0000
34.0300 644.0000 1.0000
34.0400 627.0000 1.0000
34.0500 584.0000 1.0000
34.0600 603.0000 1.0000
34.0700 600.0000 1.0000
34.0800 629.0000 1.0000
34.0900 617.0000 1.0000
34.1000 562.0000 1.0000
34.1100 561.0000 1.0000
34.1200 611.0000 1.0000
34.1300 559.0000 1.0000
34.1400 569.0000 1.0000
34.1500 586.0000 1.0000
34.1600 593.0000 1.0000
34.1700 594.0000 1.0000
34.1800 579.0000 1.0000
34.1900 582.0000 1.0000
34.2000 578.0000 1.0000
34.2100 572.0000 1.0000
34.2200 548.0000 1.0000
34.2300 584.0000 1.0000
34.2400 537.0000 1.0000
34.2500 554.0000 1.0000
34.2600 571.0000 1.0000
34.2700 523.0000 1.0000
34.2800 577.0000 1.0000
34.2900 560.0000 1.0000
34.3000 554.0000 1.0000
34.3100 539.0000 1.0000
34.3200 571.0000 1.0000
34.3300 552.0000 1.0000
34.3400 564.0000 1.0000
34.3500 560.0000 1.0000
34.3600 554.0000 1.0000
34.3700 541.0000 1.0000
34.3800 582.0000 1.0000
34.3900 532.0000 1.0000
34.4000 589.0000 1.0000
34.4100 600.0000 1.0000
34.4200 538.0000 1.0000
34.4300 547.0000 1.0000
34.4400 569.0000 1.0000
34.4500 587.0000 1.0000
34.4600 524.0000 1.0000
34.4700 563.0000 1.0000
34.4800 589.0000 1.0000
34.4900 529.0000 1.0000
34.5000 556.0000 1.0000
34.5100 532.0000 1.0000
34.5200 530.0000 1.0000
34.5300 548.0000 1.0000
34.5400 524.0000 1.0000
34.5500 534.0000 1.0000
34.5600 564.0000 1.0000
34.5700 567.0000 1.0000
34.5800 564.0000 1.0000
34.5900 546.0000 1.0000
34.6000 537.0000 1.0000
34.6100 542.0000 1.0000
34.6200 540.0000 1.0000
34.6300 587.0000 1.0000
34.6400 558.0000 1.0000
34.6500 522.0000 1.0000
34.6600 518.0000 1.0000
34.6700 534.0000 1.0000
34.6800 508.0000 1.0000
34.6900 531.0000 1.0000
34.7000 528.0000 1.0000
34.7100 544.0000 1.0000
34.7200 552.0000 1.0000
34.7300 492.0000 1.0000
34.7400 518.0000 1.0000
34.7500 537.0000 1.0000
34.7600 544.0000 1.0000
34.7700 563.0000 1.0000
34.7800 497.0000 1.0000
34.7900 551.0000 1.0000
34.8000 531.0000 1.0000
34.8100 514.0000 1.0000
34.8200 567.0000 1.0000
34.8300 576.0000 1.0000
34.8400 527.0000 1.0000
34.8500 521.0000 1.0000
34.8600 544.0000 1.0000
34.8700 498.0000 1.0000
34.8800 491.0000 1.0000
34.8900 520.0000 1.0000
34.9000 535.0000 1.0000
34.9100 543.0000 1.0000
34.9200 530.0000 1.0000
34.9300 532.0000 1.0000
34.9400 537.0000 1.0000
34.9500 486.0000 1.0000
34.9600 500.0000 1.0000
34.9700 490.0000 1.0000
34.9800 504.0000 1.0000
34.9900 519.0000 1.0000
35.0000 530.0000 1.0000
35.0100 526.0000 1.0000
35.0200 538.0000 1.0000
35.0300 502.0000 1.0000
35.0400 519.0000 1.0000
35.0500 493.0000 1.0000
35.0600 498.0000 1.0000
35.0700 511.0000 1.0000
35.0800 511.0000 1.0000
35.0900 527.0000 1.0000
35.1000 499.0000 1.0000
35.1100 556.0000 1.0000
35.1200 531.0000 1.0000
35.1300 525.0000 1.0000
35.1400 506.0000 1.0000
35.1500 495.0000 1.0000
35.1600 498.0000 1.0000
35.1700 526.0000 1.0000
35.1800 554.0000 1.0000
35.1900 545.0000 1.0000
35.2000 530.0000 1.0000
35.2100 539.0000 1.0000
35.2200 546.0000 1.0000
35.2300 507.0000 1.0000
35.2400 542.0000 1.0000
35.2500 544.0000 1.0000
35.2600 543.0000 1.0000
35.2700 555.0000 1.0000
35.2800 529.0000 1.0000
35.2900 584.0000 1.0000
35.3000 583.0000 1.0000
35.3100 570.0000 1.0000
35.3200 535.0000 1.0000
35.3300 567.0000 1.0000
35.3400 568.0000 1.0000
35.3500 591.0000 1.0000
35.3600 598.0000 1.0000
35.3700 627.0000 1.0000
35.3800 641.0000 1.0000
35.3900 643.0000 1.0000
35.4000 659.0000 1.0000
35.4100 662.0000 1.0000
35.4200 684.0000 1.0000
35.4300 659.0000 1.0000
35.4400 703.0000 1.0000
35.4500 763.0000 1.0000
35.4600 746.0000 1.0000
35.4700 812.0000 1.0000
35.4800 835.0000 1.0000
35.4900 843.0000 1.0000
35.5000 938.0000 1.0000
35.5100 984.0000 1.0000
35.5200 992.0000 1.0000
35.5300 990.0000 1.0000
35.5400 1093.0000 1.0000
35.5500 1026.0000 1.0000
35.5600 1076.0000 1.0000
35.5700 1081.0000 1.0000
35.5800 1031.0000 1.0000
35.5900 1026.0000 1.0000
35.6000 1038.0000 1.0000
35.6100 966.0000 1.0000
35.6200 885.0000 1.0000
35.6300 931.0000 1.0000
35.6400 856.0000 1.0000
35.6500 864.0000 1.0000
35.6600 857.0000 1.0000
35.6700 830.0000 1.0000
35.6800 774.0000 1.0000
35.6900 755.0000 1.0000
35.7000 721.0000 1.0000
35.7100 674.0000 1.0000
35.7200 677.0000 1.0000
35.7300 621.0000 1.0000
35.7400 618.0000 1.0000
35.7500 646.0000 1.0000
35.7600 626.0000 1.0000
35.7700 601.0000 1.0000
35.7800 546.0000 1.0000
35.7900 537.0000 1.0000
35.8000 592.0000 1.0000
35.8100 532.0000 1.0000
35.8200 547.0000 1.0000
35.8300 522.0000 1.0000
35.8400 543.0000 1.0000
35.8500 548.0000 1.0000
35.8600 530.0000 1.0000
35.8700 519.0000 1.0000
35.8800 537.0000 1.0000
35.8900 511.0000 1.0000
35.9000 510.0000 1.0000
35.9100 499.0000 1.0000
35.9200 519.0000 1.0000
35.9300 488.0000 1.0000
35.9400 527.0000 1.0000
35.9500 541.0000 1.0000
35.9600 513.0000 1.0000
35.9700 458.0000 1.0000
35.9800 482.0000 1.0000
35.9900 473.0000 1.0000
36.0000 515.0000 1.0000
36.0100 530.0000 1.0000
36.0200 476.0000 1.0000
36.0300 446.0000 1.0000
36.0400 488.0000 1.0000
36.0500 456.0000 1.0000
36.0600 433.0000 1.0000
36.0700 501.0000 1.0000
36.0800 480.0000 1.0000
36.0900 485.0000 1.0000
36.1000 485.0000 1.0000
36.1100 484.0000 1.0000
36.1200 486.0000 1.0000
36.1300 477.0000 1.0000
36.1400 507.0000 1.0000
36.1500 461.0000 1.0000
36.1600 459.0000 1.0000
36.1700 491.0000 1.0000
36.1800 495.0000 1.0000
36.1900 498.0000 1.0000
36.2000 485.0000 1.0000
36.2100 484.0000 1.0000
36.2200 495.0000 1.0000
36.2300 489.0000 1.0000
36.2400 476.0000 1.0000
36.2500 490.0000 1.0000
36.2600 475.0000 1.0000
36.2700 471.0000 1.0000
36.2800 484.0000 1.0000
36.2900 491.0000 1.0000
36.3000 485.0000 1.0000
36.3100 498.0000 1.0000
36.3200 473.0000 1.0000
36.3300 450.0000 1.0000
36.3400 497.0000 1.0000
36.3500 491.0000 1.0000
36.3600 498.0000 1.0000
36.3700 480.0000 1.0000
36.3800 514.0000 1.0000
36.3900 519.0000 1.0000
36.4000 488.0000 1.0000
36.4100 468.0000 1.0000
36.4200 450.0000 1.0000
36.4300 488.0000 1.0000
36.4400 482.0000 1.0000
36.4500 493.0000 1.0000
36.4600 503.0000 1.0000
36.4700 508.0000 1.0000
36.4800 512.0000 1.0000
36.4900 468.0000 1.0000
36.5000 492.0000 1.0000
36.5100 465.0000 1.0000
36.5200 462.0000 1.0000
36.5300 441.0000 1.0000
36.5400 500.0000 1.0000
36.5500 480.0000 1.0000
36.5600 464.0000 1.0000
36.5700 486.0000 1.0000
36.5800 483.0000 1.0000
36.5900 536.0000 1.0000
36.6000 467.0000 1.0000
36.6100 462.0000 1.0000
36.6200 481.0000 1.0000
36.6300 469.0000 1.0000
36.6400 471.0000 1.0000
36.6500 490.0000 1.0000
36.6600 499.0000 1.0000
36.6700 489.0000 1.0000
36.6800 497.0000 1.0000
36.6900 476.0000 1.0000
36.7000 488.0000 1.0000
36.7100 484.0000 1.0000
36.7200 454.0000 1.0000
36.7300 493.0000 1.0000
36.7400 471.0000 1.0000
36.7500 482.0000 1.0000
36.7600 471.0000 1.0000
36.7700 486.0000 1.0000
36.7800 500.0000 1.0000
36.7900 480.0000 1.0000
36.8000 506.0000 1.0000
36.8100 447.0000 1.0000
36.8200 460.0000 1.0000
36.8300 507.0000 1.0000
36.8400 473.0000 1.0000
36.8500 465.0000 1.0000
36.8600 463.0000 1.0000
36.8700 493.0000 1.0000
36.8800 486.0000 1.0000
36.8900 461.0000 1.0000
36.9000 452.0000 1.0000
36.9100 480.0000 1.0000
36.9200 474.0000 1.0000
36.9300 486.0000 1.0000
36.9400 495.0000 1.0000
36.9500 453.0000 1.0000
36.9600 483.0000 1.0000
36.9700 503.0000 1.0000
36.9800 486.0000 1.0000
36.9900 511.0000 1.0000
37.0000 514.0000 1.0000
37.0100 461.0000 1.0000
37.0200 468.0000 1.0000
37.0300 477.0000 1.0000
37.0400 497.0000 1.0000
37.0500 499.0000 1.0000
37.0600 504.0000 1.0000
37.0700 478.0000 1.0000
37.0800 506.0000 1.0000
37.0900 487.0000 1.0000
37.1000 480.0000 1.0000
37.1100 468.0000 1.0000
37.1200 479.0000 1.0000
37.1300 483.0000 1.0000
37.1400 471.0000 1.0000
37.1500 484.0000 1.0000
37.1600 500.0000 1.0000
37.1700 513.0000 1.0000
37.1800 505.0000 1.0000
37.1900 495.0000 1.0000
37.2000 501.0000 1.0000
37.2100 514.0000 1.0000
37.2200 499.0000 1.0000
37.2300 492.0000 1.0000
37.2400 507.0000 1.0000
37.2500 509.0000 1.0000
37.2600 550.0000 1.0000
37.2700 517.0000 1.0000
37.2800 538.0000 1.0000
37.2900 545.0000 1.0000
37.3000 540.0000 1.0000
37.3100 544.0000 1.0000
37.3200 542.0000 1.0000
37.3300 583.0000 1.0000
37.3400 563.0000 1.0000
37.3500 584.0000 1.0000
37.3600 584.0000 1.0000
37.3700 586.0000 1.0000
37.3800 640.0000 1.0000
37.3900 604.0000 1.0000
37.4000 642.0000 1.0000
37.4100 684.0000 1.0000
37.4200 669.0000 1.0000
37.4300 689.0000 1.0000
37.4400 692.0000 1.0000
37.4500 726.0000 1.0000
37.4600 774.0000 1.0000
37.4700 791.0000 1.0000
37.4800 895.0000 1.0000
37.4900 843.0000 1.0000
37.5000 896.0000 1.0000
37.5100 962.0000 1.0000
37.5200 984.0000 1.0000
37.5300 1038.0000 1.0000
37.5400 1119.0000 1.0000
37.5500 1193.0000 1.0000
37.5600 1233.0000 1.0000
37.5700 1333.0000 1.0000
37.5800 1419.0000 1.0000
37.5900 1487.0000 1.0000
37.6000 1576.0000 1.0000
37.6100 1639.0000 1.0000
37.6200 1715.0000 1.0000
37.6300 1850.0000 1.0000
37.6400 1866.0000 1.0000
37.6500 2011.0000 1.0000
37.6600 2042.0000 1.0000
37.6700 2155.0000 1.0000
37.6800 2111.0000 1.0000
37.6900 2230.0000 1.0000
37.7000 2186.0000 1.0000
37.7100 2205.0000 1.0000
37.7200 2164.0000 1.0000
37.7300 2154.0000 1.0000
37.7400 2055.0000 1.0000
37.7500 2048.0000 1.0000
37.7600 1972.0000 1.0000
37.7700 1875.0000 1.0000
37.7800 1780.0000 1.0000
37.7900 1703.0000 1.0000
37.8000 1608.0000 1.0000
37.8100 1590.0000 1.0000
37.8200 1482.0000 1.0000
37.8300 1451.0000 1.0000
37.8400 1365.0000 1.0000
37.8500 1303.0000 1.0000
37.8600 1216.0000 1.0000
37.8700 1114.0000 1.0000
37.8800 1026.0000 1.0000
37.8900 1046.0000 1.0000
37.9000 924.0000 1.0000
37.9100 898.0000 1.0000
37.9200 875.0000 1.0000
37.9300 858.0000 1.0000
37.9400 775.0000 1.0000
37.9500 740.0000 1.0000
37.9600 719.0000 1.0000
37.9700 689.0000 1.0000
37.9800 656.0000 1.0000
37.9900 649.0000 1.0000
38.0000 669.0000 1.0000
38.0100 651.0000 1.0000
38.0200 618.0000 1.0000
38.0300 607.0000 1.0000
38.0400 631.0000 1.0000
38.0500 608.0000 1.0000
38.0600 572.0000 1.0000
38.0700 540.0000 1.0000
38.0800 522.0000 1.0000
38.0900 495.0000 1.0000
38.1000 540.0000 1.0000
38.1100 489.0000 1.0000
38.1200 506.0000 1.0000
38.1300 503.0000 1.0000
38.1400 472.0000 1.0000
38.1500 500.0000 1.0000
38.1600 500.0000 1.0000
38.1700 462.0000 1.0000
38.1800 453.0000 1.0000
38.1900 457.0000 1.0000
38.2000 497.0000 1.0000
38.2100 453.0000 1.0000
38.2200 510.0000 1.0000
38.2300 482.0000 1.0000
38.2400 493.0000 1.0000
38.2500 482.0000 1.0000
38.2600 491.0000 1.0000
38.2700 456.0000 1.0000
38.2800 464.0000 1.0000
38.2900 449.0000 1.0000
38.3000 422.0000 1.0000
38.3100 455.0000 1.0000
38.3200 462.0000 1.0000
38.3300 458.0000 1.0000
38.3400 437.0000 1.0000
38.3500 448.0000 1.0000
38.3600 437.0000 1.0000
38.3700 452.0000 1.0000
38.3800 459.0000 1.0000
38.3900 475.0000 1.0000
38.4000 459.0000 1.0000
38.4100 416.0000 1.0000
38.4200 450.0000 1.0000
38.4300 450.0000 1.0000
38.4400 465.0000 1.0000
38.4500 486.0000 1.0000
38.4600 464.0000 1.0000
38.4700 451.0000 1.0000
38.4800 465.0000 1.0000
38.4900 447.0000 1.0000
38.5000 465.0000 1.0000
38.5100 465.0000 1.0000
38.5200 444.0000 1.0000
38.5300 447.0000 1.0000
38.5400 449.0000 1.0000
38.5500 430.0000 1.0000
38.5600 435.0000 1.0000
38.5700 454.0000 1.0000
38.5800 423.0000 1.0000
38.5900 443.0000 1.0000
38.6000 437.0000 1.0000
38.6100 443.0000 1.0000
38.6200 454.0000 1.0000
38.6300 467.0000 1.0000
38.6400 441.0000 1.0000
38.6500 462.0000 1.0000
38.6600 470.0000 1.0000
38.6700 456.0000 1.0000
38.6800 463.0000 1.0000
38.6900 451.0000 1.0000
38.7000 443.0000 1.0000
38.7100 468.0000 1.0000
38.7200 450.0000 1.0000
38.7300 459.0000 1.0000
38.7400 449.0000 1.0000
38.7500 462.0000 1.0000
38.7600 458.0000 1.0000
38.7700 495.0000 1.0000
38.7800 480.0000 1.0000
38.7900 466.0000 1.0000
38.8000 451.0000 1.0000
38.8100 432.0000 1.0000
38.8200 465.0000 1.0000
38.8300 450.0000 1.0000
38.8400 450.0000 1.0000
38.8500 441.0000 1.0000
38.8600 437.0000 1.0000
38.8700 503.0000 1.0000
38.8800 486.0000 1.0000
38.8900 457.0000 1.0000
38.9000 446.0000 1.0000
38.9100 430.0000 1.0000
38.9200 413.0000 1.0000
38.9300 457.0000 1.0000
38.9400 431.0000 1.0000
38.9500 418.0000 1.0000
38.9600 402.0000 1.0000
38.9700 428.0000 1.0000
38.9800 429.0000 1.0000
38.9900 431.0000 1.0000
39.0000 436.0000 1.0000
39.0100 426.0000 1.0000
39.0200 417.0000 1.0000
39.0300 451.0000 1.0000
39.0400 433.0000 1.0000
39.0500 434.0000 1.0000
39.0600 422.0000 1.0000
39.0700 428.0000 1.0000
39.0800 401.0000 1.0000
39.0900 400.0000 1.0000
39.1000 398.0000 1.0000
39.1100 411.0000 1.0000
39.1200 427.0000 1.0000
39.1300 447.0000 1.0000
39.1400 415.0000 1.0000
39.1500 436.0000 1.0000
39.1600 434.0000 1.0000
39.1700 418.0000 1.0000
39.1800 445.0000 1.0000
39.1900 426.0000 1.0000
39.2000 435.0000 1.0000
39.2100 401.0000 1.0000
39.2200 398.0000 1.0000
39.2300 390.0000 1.0000
39.2400 439.0000 1.0000
39.2500 444.0000 1.0000
39.2600 385.0000 1.0000
39.2700 436.0000 1.0000
39.2800 428.0000 1.0000
39.2900 407.0000 1.0000
39.3000 395.0000 1.0000
39.3100 413.0000 1.0000
39.3200 416.0000 1.0000
39.3300 436.0000 1.0000
39.3400 415.0000 1.0000
39.3500 407.0000 1.0000
39.3600 426.0000 1.0000
39.3700 378.0000 1.0000
39.3800 410.0000 1.0000
39.3900 449.0000 1.0000
39.4000 449.0000 1.0000
39.4100 405.0000 1.0000
39.4200 421.0000 1.0000
39.4300 409.0000 1.0000
39.4400 442.0000 1.0000
39.4500 414.0000 1.0000
39.4600 399.0000 1.0000
39.4700 405.0000 1.0000
39.4800 435.0000 1.0000
39.4900 413.0000 1.0000
39.5000 401.0000 1.0000
39.5100 392.0000 1.0000
39.5200 433.0000 1.0000
39.5300 416.0000 1.0000
39.5400 399.0000 1.0000
39.5500 394.0000 1.0000
39.5600 374.0000 1.0000
39.5700 384.0000 1.0000
39.5800 419.0000 1.0000
39.5900 397.0000 1.0000
39.6000 421.0000 1.0000
39.6100 408.0000 1.0000
39.6200 400.0000 1.0000
39.6300 412.0000 1.0000
39.6400 401.0000 1.0000
39.6500 407.0000 1.0000
39.6600 397.0000 1.0000
39.6700 429.0000 1.0000
39.6800 402.0000 1.0000
39.6900 405.0000 1.0000
39.7000 413.0000 1.0000
39.7100 417.0000 1.0000
39.7200 438.0000 1.0000
39.7300 416.0000 1.0000
39.7400 390.0000 1.0000
39.7500 408.0000 1.0000
39.7600 391.0000 1.0000
39.7700 385.0000 1.0000
39.7800 407.0000 1.0000
39.7900 403.0000 1.0000
39.8000 421.0000 1.0000
39.8100 373.0000 1.0000
39.8200 392.0000 1.0000
39.8300 404.0000 1.0000
39.8400 404.0000 1.0000
39.8500 408.0000 1.0000
39.8600 413.0000 1.0000
39.8700 403.0000 1.0000
39.8800 392.0000 1.0000
39.8900 411.0000 1.0000
39.9000 415.0000 1.0000
39.9100 403.0000 1.0000
39.9200 396.0000 1.0000
39.9300 416.0000 1.0000
39.9400 393.0000 1.0000
39.9500 412.0000 1.0000
39.9600 371.0000 1.0000
39.9700 406.0000 1.0000
39.9800 407.0000 1.0000
39.9900 398.0000 1.0000
40.0000 429.0000 1.0000
40.0100 405.0000 1.0000
40.0200 402.0000 1.0000
40.0300 403.0000 1.0000
40.0400 384.0000 1.0000
40.0500 418.0000 1.0000
40.0600 415.0000 1.0000
40.0700 411.0000 1.0000
40.0800 387.0000 1.0000
40.0900 416.0000 1.0000
40.1000 424.0000 1.0000
40.1100 410.0000 1.0000
40.1200 371.0000 1.0000
40.1300 364.0000 1.0000
40.1400 389.0000 1.0000
40.1500 388.0000 1.0000
40.1600 410.0000 1.0000
40.1700 393.0000 1.0000
40.1800 382.0000 1.0000
40.1900 381.0000 1.0000
40.2000 400.0000 1.0000
40.2100 419.0000 1.0000
40.2200 425.0000 1.0000
40.2300 444.0000 1.0000
40.2400 398.0000 1.0000
40.2500 403.0000 1.0000
40.2600 418.0000 1.0000
40.2700 413.0000 1.0000
40.2800 395.0000 1.0000
40.2900 403.0000 1.0000
40.3000 412.0000 1.0000
40.3100 417.0000 1.0000
40.3200 386.0000 1.0000
40.3300 418.0000 1.0000
40.3400 419.0000 1.0000
40.3500 399.0000 1.0000
40.3600 404.0000 1.0000
40.3700 387.0000 1.0000
40.3800 390.0000 1.0000
40.3900 398.0000 1.0000
40.4000 394.0000 1.0000
40.4100 400.0000 1.0000
40.4200 390.0000 1.0000
40.4300 406.0000 1.0000
40.4400 403.0000 1.0000
40.4500 412.0000 1.0000
40.4600 380.0000 1.0000
40.4700 412.0000 1.0000
40.4800 421.0000 1.0000
40.4900 418.0000 1.0000
40.5000 395.0000 1.0000
40.5100 409.0000 1.0000
40.5200 416.0000 1.0000
40.5300 364.0000 1.0000
40.5400 406.0000 1.0000
40.5500 401.0000 1.0000
40.5600 442.0000 1.0000
40.5700 389.0000 1.0000
40.5800 386.0000 1.0000
40.5900 415.0000 1.0000
40.6000 404.0000 1.0000
40.6100 390.0000 1.0000
40.6200 422.0000 1.0000
40.6300 415.0000 1.0000
40.6400 459.0000 1.0000
40.6500 424.0000 1.0000
40.6600 422.0000 1.0000
40.6700 416.0000 1.0000
40.6800 412.0000 1.0000
40.6900 434.0000 1.0000
40.7000 433.0000 1.0000
40.7100 420.0000 1.0000
40.7200 454.0000 1.0000
40.7300 442.0000 1.0000
40.7400 436.0000 1.0000
40.7500 408.0000 1.0000
40.7600 454.0000 1.0000
40.7700 439.0000 1.0000
40.7800 437.0000 1.0000
40.7900 423.0000 1.0000
40.8000 403.0000 1.0000
40.8100 474.0000 1.0000
40.8200 451.0000 1.0000
40.8300 462.0000 1.0000
40.8400 444.0000 1.0000
40.8500 445.0000 1.0000
40.8600 443.0000 1.0000
40.8700 435.0000 1.0000
40.8800 451.0000 1.0000
40.8900 450.0000 1.0000
40.9000 417.0000 1.0000
40.9100 434.0000 1.0000
40.9200 422.0000 1.0000
40.9300 422.0000 1.0000
40.9400 436.0000 1.0000
40.9500 418.0000 1.0000
40.9600 420.0000 1.0000
40.9700 399.0000 1.0000
40.9800 404.0000 1.0000
40.9900 395.0000 1.0000
41.0000 381.0000 1.0000
41.0100 422.0000 1.0000
41.0200 408.0000 1.0000
41.0300 412.0000 1.0000
41.0400 392.0000 1.0000
41.0500 390.0000 1.0000
41.0600 375.0000 1.0000
41.0700 398.0000 1.0000
41.0800 367.0000 1.0000
41.0900 380.0000 1.0000
41.1000 429.0000 1.0000
41.1100 388.0000 1.0000
41.1200 369.0000 1.0000
41.1300 404.0000 1.0000
41.1400 396.0000 1.0000
41.1500 384.0000 1.0000
41.1600 406.0000 1.0000
41.1700 387.0000 1.0000
41.1800 387.0000 1.0000
41.1900 396.0000 1.0000
41.2000 400.0000 1.0000
41.2100 402.0000 1.0000
41.2200 391.0000 1.0000
41.2300 392.0000 1.0000
41.2400 417.0000 1.0000
41.2500 414.0000 1.0000
41.2600 396.0000 1.0000
41.2700 384.0000 1.0000
41.2800 407.0000 1.0000
41.2900 382.0000 1.0000
41.3000 384.0000 1.0000
41.3100 389.0000 1.0000
41.3200 411.0000 1.0000
41.3300 389.0000 1.0000
41.3400 408.0000 1.0000
41.3500 408.0000 1.0000
41.3600 412.0000 1.0000
41.3700 400.0000 1.0000
41.3800 395.0000 1.0000
41.3900 382.0000 1.0000
41.4000 386.0000 1.0000
41.4100 389.0000 1.0000
41.4200 384.0000 1.0000
41.4300 373.0000 1.0000
41.4400 372.0000 1.0000
41.4500 409.0000 1.0000
41.4600 399.0000 1.0000
41.4700 413.0000 1.0000
41.4800 409.0000 1.0000
41.4900 407.0000 1.0000
41.5000 375.0000 1.0000
41.5100 376.0000 1.0000
41.5200 384.0000 1.0000
41.5300 382.0000 1.0000
41.5400 360.0000 1.0000
41.5500 387.0000 1.0000
41.5600 394.0000 1.0000
41.5700 424.0000 1.0000
41.5800 409.0000 1.0000
41.5900 371.0000 1.0000
41.6000 390.0000 1.0000
41.6100 362.0000 1.0000
41.6200 372.0000 1.0000
41.6300 399.0000 1.0000
41.6400 394.0000 1.0000
41.6500 401.0000 1.0000
41.6600 378.0000 1.0000
41.6700 379.0000 1.0000
41.6800 375.0000 1.0000
41.6900 393.0000 1.0000
41.7000 409.0000 1.0000
41.7100 406.0000 1.0000
41.7200 391.0000 1.0000
41.7300 405.0000 1.0000
41.7400 386.0000 1.0000
41.7500 383.0000 1.0000
41.7600 398.0000 1.0000
41.7700 386.0000 1.0000
41.7800 371.0000 1.0000
41.7900 356.0000 1.0000
41.8000 390.0000 1.0000
41.8100 378.0000 1.0000
41.8200 388.0000 1.0000
41.8300 379.0000 1.0000
41.8400 379.0000 1.0000
41.8500 417.0000 1.0000
41.8600 382.0000 1.0000
41.8700 419.0000 1.0000
41.8800 365.0000 1.0000
41.8900 401.0000 1.0000
41.9000 388.0000 1.0000
41.9100 392.0000 1.0000
41.9200 393.0000 1.0000
41.9300 401.0000 1.0000
41.9400 389.0000 1.0000
41.9500 397.0000 1.0000
41.9600 409.0000 1.0000
41.9700 393.0000 1.0000
41.9800 389.0000 1.0000
41.9900 380.0000 1.0000
42.0000 411.0000 1.0000
42.0100 398.0000 1.0000
42.0200 359.0000 1.0000
42.0300 377.0000 1.0000
42.0400 396.0000 1.0000
42.0500 405.0000 1.0000
42.0600 398.0000 1.0000
42.0700 398.0000 1.0000
42.0800 375.0000 1.0000
42.0900 411.0000 1.0000
42.1000 370.0000 1.0000
42.1100 398.0000 1.0000
42.1200 365.0000 1.0000
42.1300 371.0000 1.0000
42.1400 367.0000 1.0000
42.1500 369.0000 1.0000
42.1600 395.0000 1.0000
42.1700 377.0000 1.0000
42.1800 399.0000 1.0000
42.1900 365.0000 1.0000
42.2000 405.0000 1.0000
42.2100 361.0000 1.0000
42.2200 395.0000 1.0000
42.2300 388.0000 1.0000
42.2400 388.0000 1.0000
42.2500 377.0000 1.0000
42.2600 411.0000 1.0000
42.2700 406.0000 1.0000
42.2800 401.0000 1.0000
42.2900 402.0000 1.0000
42.3000 412.0000 1.0000
42.3100 411.0000 1.0000
42.3200 408.0000 1.0000
42.3300 423.0000 1.0000
42.3400 410.0000 1.0000
42.3500 459.0000 1.0000
42.3600 440.0000 1.0000
42.3700 429.0000 1.0000
42.3800 433.0000 1.0000
42.3900 418.0000 1.0000
42.4000 421.0000 1.0000
42.4100 389.0000 1.0000
42.4200 410.0000 1.0000
42.4300 405.0000 1.0000
42.4400 422.0000 1.0000
42.4500 400.0000 1.0000
42.4600 435.0000 1.0000
42.4700 399.0000 1.0000
42.4800 400.0000 1.0000
42.4900 399.0000 1.0000
42.5000 396.0000 1.0000
42.5100 398.0000 1.0000
42.5200 411.0000 1.0000
42.5300 392.0000 1.0000
42.5400 409.0000 1.0000
42.5500 408.0000 1.0000
42.5600 408.0000 1.0000
42.5700 405.0000 1.0000
42.5800 404.0000 1.0000
42.5900 431.0000 1.0000
42.6000 414.0000 1.0000
42.6100 394.0000 1.0000
42.6200 391.0000 1.0000
42.6300 412.0000 1.0000
42.6400 390.0000 1.0000
42.6500 400.0000 1.0000
42.6600 380.0000 1.0000
42.6700 346.0000 1.0000
42.6800 369.0000 1.0000
42.6900 406.0000 1.0000
42.7000 368.0000 1.0000
42.7100 365.0000 1.0000
42.7200 367.0000 1.0000
42.7300 346.0000 1.0000
42.7400 401.0000 1.0000
42.7500 398.0000 1.0000
42.7600 376.0000 1.0000
42.7700 399.0000 1.0000
42.7800 396.0000 1.0000
42.7900 394.0000 1.0000
42.8000 381.0000 1.0000
42.8100 351.0000 1.0000
42.8200 361.0000 1.0000
42.8300 399.0000 1.0000
42.8400 412.0000 1.0000
42.8500 361.0000 1.0000
42.8600 398.0000 1.0000
42.8700 374.0000 1.0000
42.8800 353.0000 1.0000
42.8900 379.0000 1.0000
42.9000 324.0000 1.0000
42.9100 357.0000 1.0000
42.9200 406.0000 1.0000
42.9300 356.0000 1.0000
42.9400 404.0000 1.0000
42.9500 358.0000 1.0000
42.9600 344.0000 1.0000
42.9700 363.0000 1.0000
42.9800 391.0000 1.0000
42.9900 405.0000 1.0000
43.0000 387.0000 1.0000
43.0100 406.0000 1.0000
43.0200 376.0000 1.0000
43.0300 383.0000 1.0000
43.0400 364.0000 1.0000
43.0500 396.0000 1.0000
43.0600 395.0000 1.0000
43.0700 421.0000 1.0000
43.0800 383.0000 1.0000
43.0900 375.0000 1.0000
43.1000 377.0000 1.0000
43.1100 364.0000 1.0000
43.1200 431.0000 1.0000
43.1300 374.0000 1.0000
43.1400 366.0000 1.0000
43.1500 335.0000 1.0000
43.1600 405.0000 1.0000
43.1700 392.0000 1.0000
43.1800 366.0000 1.0000
43.1900 400.0000 1.0000
43.2000 392.0000 1.0000
43.2100 382.0000 1.0000
43.2200 406.0000 1.0000
43.2300 391.0000 1.0000
43.2400 412.0000 1.0000
43.2500 382.0000 1.0000
43.2600 382.0000 1.0000
43.2700 392.0000 1.0000
43.2800 380.0000 1.0000
43.2900 366.0000 1.0000
43.3000 384.0000 1.0000
43.3100 389.0000 1.0000
43.3200 395.0000 1.0000
43.3300 364.0000 1.0000
43.3400 360.0000 1.0000
43.3500 348.0000 1.0000
43.3600 395.0000 1.0000
43.3700 361.0000 1.0000
43.3800 383.0000 1.0000
43.3900 410.0000 1.0000
43.4000 362.0000 1.0000
43.4100 387.0000 1.0000
43.4200 403.0000 1.0000
43.4300 407.0000 1.0000
43.4400 397.0000 1.0000
43.4500 405.0000 1.0000
43.4600 371.0000 1.0000
43.4700 384.0000 1.0000
43.4800 403.0000 1.0000
43.4900 389.0000 1.0000
43.5000 421.0000 1.0000
43.5100 398.0000 1.0000
43.5200 407.0000 1.0000
43.5300 376.0000 1.0000
43.5400 383.0000 1.0000
43.5500 393.0000 1.0000
43.5600 388.0000 1.0000
43.5700 353.0000 1.0000
43.5800 386.0000 1.0000
43.5900 369.0000 1.0000
43.6000 352.0000 1.0000
43.6100 347.0000 1.0000
43.6200 321.0000 1.0000
43.6300 385.0000 1.0000
43.6400 363.0000 1.0000
43.6500 389.0000 1.0000
43.6600 367.0000 1.0000
43.6700 381.0000 1.0000
43.6800 345.0000 1.0000
43.6900 390.0000 1.0000
43.7000 389.0000 1.0000
43.7100 371.0000 1.0000
43.7200 383.0000 1.0000
43.7300 386.0000 1.0000
43.7400 344.0000 1.0000
43.7500 348.0000 1.0000
43.7600 375.0000 1.0000
43.7700 378.0000 1.0000
43.7800 392.0000 1.0000
43.7900 365.0000 1.0000
43.8000 388.0000 1.0000
43.8100 368.0000 1.0000
43.8200 398.0000 1.0000
43.8300 359.0000 1.0000
43.8400 364.0000 1.0000
43.8500 372.0000 1.0000
43.8600 365.0000 1.0000
43.8700 357.0000 1.0000
43.8800 351.0000 1.0000
43.8900 370.0000 1.0000
43.9000 377.0000 1.0000
43.9100 355.0000 1.0000
43.9200 346.0000 1.0000
43.9300 360.0000 1.0000
43.9400 372.0000 1.0000
43.9500 382.0000 1.0000
43.9600 381.0000 1.0000
43.9700 370.0000 1.0000
43.9800 392.0000 1.0000
43.9900 377.0000 1.0000
44.0000 368.0000 1.0000
44.0100 366.0000 1.0000
44.0200 355.0000 1.0000
44.0300 340.0000 1.0000
44.0400 372.0000 1.0000
44.0500 368.0000 1.0000
44.0600 378.0000 1.0000
44.0700 362.0000 1.0000
44.0800 359.0000 1.0000
44.0900 351.0000 1.0000
44.1000 353.0000 1.0000
44.1100 386.0000 1.0000
44.1200 375.0000 1.0000
44.1300 374.0000 1.0000
44.1400 360.0000 1.0000
44.1500 348.0000 1.0000
44.1600 364.0000 1.0000
44.1700 354.0000 1.0000
44.1800 337.0000 1.0000
44.1900 370.0000 1.0000
44.2000 378.0000 1.0000
44.2100 379.0000 1.0000
44.2200 344.0000 1.0000
44.2300 371.0000 1.0000
44.2400 352.0000 1.0000
44.2500 363.0000 1.0000
44.2600 375.0000 1.0000
44.2700 353.0000 1.0000
44.2800 336.0000 1.0000
44.2900 353.0000 1.0000
44.3000 379.0000 1.0000
44.3100 372.0000 1.0000
44.3200 347.0000 1.0000
44.3300 392.0000 1.0000
44.3400 345.0000 1.0000
44.3500 349.0000 1.0000
44.3600 342.0000 1.0000
44.3700 362.0000 1.0000
44.3800 367.0000 1.0000
44.3900 403.0000 1.0000
44.4000 384.0000 1.0000
44.4100 368.0000 1.0000
44.4200 353.0000 1.0000
44.4300 373.0000 1.0000
44.4400 340.0000 1.0000
44.4500 371.0000 1.0000
44.4600 359.0000 1.0000
44.4700 379.0000 1.0000
44.4800 357.0000 1.0000
44.4900 414.0000 1.0000
44.5000 381.0000 1.0000
44.5100 354.0000 1.0000
44.5200 334.0000 1.0000
44.5300 358.0000 1.0000
44.5400 369.0000 1.0000
44.5500 377.0000 1.0000
44.5600 363.0000 1.0000
44.5700 375.0000 1.0000
44.5800 390.0000 1.0000
44.5900 378.0000 1.0000
44.6000 376.0000 1.0000
44.6100 362.0000 1.0000
44.6200 347.0000 1.0000
44.6300 320.0000 1.0000
44.6400 357.0000 1.0000
44.6500 367.0000 1.0000
44.6600 355.0000 1.0000
44.6700 374.0000 1.0000
44.6800 352.0000 1.0000
44.6900 363.0000 1.0000
44.7000 381.0000 1.0000
44.7100 358.0000 1.0000
44.7200 382.0000 1.0000
44.7300 356.0000 1.0000
44.7400 352.0000 1.0000
44.7500 378.0000 1.0000
44.7600 368.0000 1.0000
44.7700 334.0000 1.0000
44.7800 372.0000 1.0000
44.7900 385.0000 1.0000
44.8000 384.0000 1.0000
44.8100 339.0000 1.0000
44.8200 362.0000 1.0000
44.8300 348.0000 1.0000
44.8400 360.0000 1.0000
44.8500 372.0000 1.0000
44.8600 367.0000 1.0000
44.8700 330.0000 1.0000
44.8800 343.0000 1.0000
44.8900 363.0000 1.0000
44.9000 357.0000 1.0000
44.9100 362.0000 1.0000
44.9200 368.0000 1.0000
44.9300 395.0000 1.0000
44.9400 337.0000 1.0000
44.9500 362.0000 1.0000
44.9600 378.0000 1.0000
44.9700 349.0000 1.0000
44.9800 374.0000 1.0000
44.9900 359.0000 1.0000
45.0000 370.0000 1.0000
45.0100 347.0000 1.0000
45.0200 376.0000 1.0000
45.0300 373.0000 1.0000
45.0400 394.0000 1.0000
45.0500 348.0000 1.0000
45.0600 354.0000 1.0000
45.0700 357.0000 1.0000
45.0800 414.0000 1.0000
45.0900 345.0000 1.0000
45.1000 326.0000 1.0000
45.1100 370.0000 1.0000
45.1200 361.0000 1.0000
45.1300 362.0000 1.0000
45.1400 382.0000 1.0000
45.1500 322.0000 1.0000
45.1600 336.0000 1.0000
45.1700 362.0000 1.0000
45.1800 340.0000 1.0000
45.1900 356.0000 1.0000
45.2000 364.0000 1.0000
45.2100 365.0000 1.0000
45.2200 330.0000 1.0000
45.2300 359.0000 1.0000
45.2400 325.0000 1.0000
45.2500 330.0000 1.0000
45.2600 380.0000 1.0000
45.2700 360.0000 1.0000
45.2800 341.0000 1.0000
45.2900 355.0000 1.0000
45.3000 360.0000 1.0000
45.3100 354.0000 1.0000
45.3200 345.0000 1.0000
45.3300 367.0000 1.0000
45.3400 376.0000 1.0000
45.3500 351.0000 1.0000
45.3600 372.0000 1.0000
45.3700 374.0000 1.0000
45.3800 383.0000 1.0000
45.3900 365.0000 1.0000
45.4000 387.0000 1.0000
45.4100 376.0000 1.0000
45.4200 377.0000 1.0000
45.4300 348.0000 1.0000
45.4400 365.0000 1.0000
45.4500 354.0000 1.0000
45.4600 340.0000 1.0000
45.4700 360.0000 1.0000
45.4800 343.0000 1.0000
45.4900 348.0000 1.0000
45.5000 355.0000 1.0000
45.5100 342.0000 1.0000
45.5200 372.0000 1.0000
45.5300 378.0000 1.0000
45.5400 341.0000 1.0000
45.5500 331.0000 1.0000
45.5600 337.0000 1.0000
45.5700 350.0000 1.0000
45.5800 328.0000 1.0000
45.5900 337.0000 1.0000
45.6000 315.0000 1.0000
45.6100 327.0000 1.0000
45.6200 336.0000 1.0000
45.6300 357.0000 1.0000
45.6400 363.0000 1.0000
45.6500 343.0000 1.0000
45.6600 347.0000 1.0000
45.6700 332.0000 1.0000
45.6800 363.0000 1.0000
45.6900 347.0000 1.0000
45.7000 366.0000 1.0000
45.7100 354.0000 1.0000
45.7200 362.0000 1.0000
45.7300 368.0000 1.0000
45.7400 376.0000 1.0000
45.7500 348.0000 1.0000
45.7600 333.0000 1.0000
45.7700 344.0000 1.0000
45.7800 384.0000 1.0000
45.7900 340.0000 1.0000
45.8000 357.0000 1.0000
45.8100 357.0000 1.0000
45.8200 369.0000 1.0000
45.8300 330.0000 1.0000
45.8400 323.0000 1.0000
45.8500 376.0000 1.0000
45.8600 354.0000 1.0000
45.8700 335.0000 1.0000
45.8800 338.0000 1.0000
45.8900 356.0000 1.0000
45.9000 356.0000 1.0000
45.9100 357.0000 1.0000
45.9200 359.0000 1.0000
45.9300 362.0000 1.0000
45.9400 328.0000 1.0000
45.9500 311.0000 1.0000
45.9600 374.0000 1.0000
45.9700 328.0000 1.0000
45.9800 352.0000 1.0000
45.9900 352.0000 1.0000
46.0000 355.0000 1.0000
46.0100 351.0000 1.0000
46.0200 367.0000 1.0000
46.0300 348.0000 1.0000
46.0400 365.0000 1.0000
46.0500 357.0000 1.0000
46.0600 351.0000 1.0000
46.0700 346.0000 1.0000
46.0800 345.0000 1.0000
46.0900 327.0000 1.0000
46.1000 339.0000 1.0000
46.1100 364.0000 1.0000
46.1200 367.0000 1.0000
46.1300 393.0000 1.0000
46.1400 371.0000 1.0000
46.1500 362.0000 1.0000
46.1600 379.0000 1.0000
46.1700 349.0000 1.0000
46.1800 351.0000 1.0000
46.1900 341.0000 1.0000
46.2000 357.0000 1.0000
46.2100 363.0000 1.0000
46.2200 364.0000 1.0000
46.2300 335.0000 1.0000
46.2400 372.0000 1.0000
46.2500 381.0000 1.0000
46.2600 374.0000 1.0000
46.2700 370.0000 1.0000
46.2800 360.0000 1.0000
46.2900 386.0000 1.0000
46.3000 376.0000 1.0000
46.3100 340.0000 1.0000
46.3200 386.0000 1.0000
46.3300 370.0000 1.0000
46.3400 347.0000 1.0000
46.3500 344.0000 1.0000
46.3600 349.0000 1.0000
46.3700 354.0000 1.0000
46.3800 357.0000 1.0000
46.3900 366.0000 1.0000
46.4000 362.0000 1.0000
46.4100 349.0000 1.0000
46.4200 368.0000 1.0000
46.4300 353.0000 1.0000
46.4400 324.0000 1.0000
46.4500 342.0000 1.0000
46.4600 380.0000 1.0000
46.4700 351.0000 1.0000
46.4800 324.0000 1.0000
46.4900 330.0000 1.0000
46.5000 339.0000 1.0000
46.5100 316.0000 1.0000
46.5200 315.0000 1.0000
46.5300 331.0000 1.0000
46.5400 329.0000 1.0000
46.5500 355.0000 1.0000
46.5600 359.0000 1.0000
46.5700 356.0000 1.0000
46.5800 355.0000 1.0000
46.5900 307.0000 1.0000
46.6000 333.0000 1.0000
46.6100 331.0000 1.0000
46.6200 329.0000 1.0000
46.6300 358.0000 1.0000
46.6400 380.0000 1.0000
46.6500 356.0000 1.0000
46.6600 341.0000 1.0000
46.6700 357.0000 1.0000
46.6800 324.0000 1.0000
46.6900 340.0000 1.0000
46.7000 351.0000 1.0000
46.7100 325.0000 1.0000
46.7200 325.0000 1.0000
46.7300 318.0000 1.0000
46.7400 337.0000 1.0000
46.7500 337.0000 1.0000
46.7600 331.0000 1.0000
46.7700 346.0000 1.0000
46.7800 349.0000 1.0000
46.7900 326.0000 1.0000
46.8000 356.0000 1.0000
46.8100 344.0000 1.0000
46.8200 318.0000 1.0000
46.8300 363.0000 1.0000
46.8400 360.0000 1.0000
46.8500 355.0000 1.0000
46.8600 349.0000 1.0000
46.8700 354.0000 1.0000
46.8800 323.0000 1.0000
46.8900 371.0000 1.0000
46.9000 325.0000 1.0000
46.9100 328.0000 1.0000
46.9200 350.0000 1.0000
46.9300 315.0000 1.0000
46.9400 365.0000 1.0000
46.9500 326.0000 1.0000
46.9600 351.0000 1.0000
46.9700 331.0000 1.0000
46.9800 345.0000 1.0000
46.9900 342.0000 1.0000
47.0000 335.0000 1.0000
47.0100 348.0000 1.0000
47.0200 337.0000 1.0000
47.0300 327.0000 1.0000
47.0400 326.0000 1.0000
47.0500 367.0000 1.0000
47.0600 367.0000 1.0000
47.0700 341.0000 1.0000
47.0800 314.0000 1.0000
47.0900 326.0000 1.0000
47.1000 350.0000 1.0000
47.1100 325.0000 1.0000
47.1200 324.0000 1.0000
47.1300 339.0000 1.0000
47.1400 320.0000 1.0000
47.1500 334.0000 1.0000
47.1600 324.0000 1.0000
47.1700 330.0000 1.0000
47.1800 356.0000 1.0000
47.1900 333.0000 1.0000
47.2000 344.0000 1.0000
47.2100 352.0000 1.0000
47.2200 311.0000 1.0000
47.2300 321.0000 1.0000
47.2400 347.0000 1.0000
47.2500 355.0000 1.0000
47.2600 352.0000 1.0000
47.2700 336.0000 1.0000
47.2800 321.0000 1.0000
47.2900 323.0000 1.0000
47.3000 342.0000 1.0000
47.3100 341.0000 1.0000
47.3200 331.0000 1.0000
47.3300 351.0000 1.0000
47.3400 288.0000 1.0000
47.3500 308.0000 1.0000
47.3600 348.0000 1.0000
47.3700 342.0000 1.0000
47.3800 338.0000 1.0000
47.3900 339.0000 1.0000
47.4000 344.0000 1.0000
47.4100 335.0000 1.0000
47.4200 323.0000 1.0000
47.4300 321.0000 1.0000
47.4400 333.0000 1.0000
47.4500 356.0000 1.0000
47.4600 334.0000 1.0000
47.4700 326.0000 1.0000
47.4800 344.0000 1.0000
47.4900 328.0000 1.0000
47.5000 342.0000 1.0000
47.5100 345.0000 1.0000
47.5200 326.0000 1.0000
47.5300 325.0000 1.0000
47.5400 375.0000 1.0000
47.5500 328.0000 1.0000
47.5600 342.0000 1.0000
47.5700 321.0000 1.0000
47.5800 323.0000 1.0000
47.5900 357.0000 1.0000
47.6000 366.0000 1.0000
47.6100 314.0000 1.0000
47.6200 367.0000 1.0000
47.6300 313.0000 1.0000
47.6400 304.0000 1.0000
47.6500 337.0000 1.0000
47.6600 336.0000 1.0000
47.6700 338.0000 1.0000
47.6800 346.0000 1.0000
47.6900 359.0000 1.0000
47.7000 372.0000 1.0000
47.7100 312.0000 1.0000
47.7200 347.0000 1.0000
47.7300 310.0000 1.0000
47.7400 328.0000 1.0000
47.7500 329.0000 1.0000
47.7600 326.0000 1.0000
47.7700 342.0000 1.0000
47.7800 347.0000 1.0000
47.7900 320.0000 1.0000
47.8000 336.0000 1.0000
47.8100 327.0000 1.0000
47.8200 352.0000 1.0000
47.8300 336.0000 1.0000
47.8400 290.0000 1.0000
47.8500 347.0000 1.0000
47.8600 357.0000 1.0000
47.8700 320.0000 1.0000
47.8800 334.0000 1.0000
47.8900 333.0000 1.0000
47.9000 330.0000 1.0000
47.9100 353.0000 1.0000
47.9200 332.0000 1.0000
47.9300 329.0000 1.0000
47.9400 326.0000 1.0000
47.9500 335.0000 1.0000
47.9600 327.0000 1.0000
47.9700 361.0000 1.0000
47.9800 341.0000 1.0000
47.9900 335.0000 1.0000
48.0000 333.0000 1.0000
48.0100 343.0000 1.0000
48.0200 352.0000 1.0000
48.0300 357.0000 1.0000
48.0400 337.0000 1.0000
48.0500 337.0000 1.0000
48.0600 337.0000 1.0000
48.0700 331.0000 1.0000
48.0800 343.0000 1.0000
48.0900 333.0000 1.0000
48.1000 353.0000 1.0000
48.1100 366.0000 1.0000
48.1200 375.0000 1.0000
48.1300 334.0000 1.0000
48.1400 326.0000 1.0000
48.1500 335.0000 1.0000
48.1600 324.0000 1.0000
48.1700 344.0000 1.0000
48.1800 303.0000 1.0000
48.1900 348.0000 1.0000
48.2000 331.0000 1.0000
48.2100 361.0000 1.0000
48.2200 322.0000 1.0000
48.2300 322.0000 1.0000
48.2400 327.0000 1.0000
48.2500 308.0000 1.0000
48.2600 326.0000 1.0000
48.2700 308.0000 1.0000
48.2800 298.0000 1.0000
48.2900 331.0000 1.0000
48.3000 312.0000 1.0000
48.3100 338.0000 1.0000
48.3200 336.0000 1.0000
48.3300 303.0000 1.0000
48.3400 321.0000 1.0000
48.3500 314.0000 1.0000
48.3600 348.0000 1.0000
48.3700 342.0000 1.0000
48.3800 335.0000 1.0000
48.3900 345.0000 1.0000
48.4000 332.0000 1.0000
48.4100 344.0000 1.0000
48.4200 350.0000 1.0000
48.4300 341.0000 1.0000
48.4400 319.0000 1.0000
48.4500 347.0000 1.0000
48.4600 336.0000 1.0000
48.4700 351.0000 1.0000
48.4800 325.0000 1.0000
48.4900 323.0000 1.0000
48.5000 317.0000 1.0000
48.5100 318.0000 1.0000
48.5200 319.0000 1.0000
48.5300 342.0000 1.0000
48.5400 346.0000 1.0000
48.5500 331.0000 1.0000
48.5600 320.0000 1.0000
48.5700 329.0000 1.0000
48.5800 333.0000 1.0000
48.5900 319.0000 1.0000
48.6000 301.0000 1.0000
48.6100 300.0000 1.0000
48.6200 332.0000 1.0000
48.6300 336.0000 1.0000
48.6400 327.0000 1.0000
48.6500 334.0000 1.0000
48.6600 325.0000 1.0000
48.6700 310.0000 1.0000
48.6800 310.0000 1.0000
48.6900 328.0000 1.0000
48.7000 334.0000 1.0000
48.7100 345.0000 1.0000
48.7200 336.0000 1.0000
48.7300 334.0000 1.0000
48.7400 340.0000 1.0000
48.7500 310.0000 1.0000
48.7600 310.0000 1.0000
48.7700 327.0000 1.0000
48.7800 365.0000 1.0000
48.7900 333.0000 1.0000
48.8000 338.0000 1.0000
48.8100 309.0000 1.0000
48.8200 322.0000 1.0000
48.8300 312.0000 1.0000
48.8400 322.0000 1.0000
48.8500 326.0000 1.0000
48.8600 311.0000 1.0000
48.8700 338.0000 1.0000
48.8800 336.0000 1.0000
48.8900 346.0000 1.0000
48.9000 336.0000 1.0000
48.9100 335.0000 1.0000
48.9200 344.0000 1.0000
48.9300 348.0000 1.0000
48.9400 323.0000 1.0000
48.9500 348.0000 1.0000
48.9600 327.0000 1.0000
48.9700 318.0000 1.0000
48.9800 354.0000 1.0000
48.9900 336.0000 1.0000
49.0000 340.0000 1.0000
49.0100 300.0000 1.0000
49.0200 343.0000 1.0000
49.0300 350.0000 1.0000
49.0400 336.0000 1.0000
49.0500 290.0000 1.0000
49.0600 327.0000 1.0000
49.0700 331.0000 1.0000
49.0800 319.0000 1.0000
49.0900 324.0000 1.0000
49.1000 312.0000 1.0000
49.1100 356.0000 1.0000
49.1200 348.0000 1.0000
49.1300 357.0000 1.0000
49.1400 341.0000 1.0000
49.1500 323.0000 1.0000
49.1600 350.0000 1.0000
49.1700 339.0000 1.0000
49.1800 360.0000 1.0000
49.1900 357.0000 1.0000
49.2000 349.0000 1.0000
49.2100 367.0000 1.0000
49.2200 338.0000 1.0000
49.2300 342.0000 1.0000
49.2400 334.0000 1.0000
49.2500 376.0000 1.0000
49.2600 346.0000 1.0000
49.2700 361.0000 1.0000
49.2800 329.0000 1.0000
49.2900 359.0000 1.0000
49.3000 385.0000 1.0000
49.3100 365.0000 1.0000
49.3200 374.0000 1.0000
49.3300 392.0000 1.0000
49.3400 375.0000 1.0000
49.3500 361.0000 1.0000
49.3600 372.0000 1.0000
49.3700 394.0000 1.0000
49.3800 391.0000 1.0000
49.3900 389.0000 1.0000
49.4000 360.0000 1.0000
49.4100 392.0000 1.0000
49.4200 394.0000 1.0000
49.4300 409.0000 1.0000
49.4400 393.0000 1.0000
49.4500 418.0000 1.0000
49.4600 382.0000 1.0000
49.4700 385.0000 1.0000
49.4800 378.0000 1.0000
49.4900 397.0000 1.0000
49.5000 403.0000 1.0000
49.5100 382.0000 1.0000
49.5200 366.0000 1.0000
49.5300 399.0000 1.0000
49.5400 415.0000 1.0000
49.5500 390.0000 1.0000
49.5600 345.0000 1.0000
49.5700 384.0000 1.0000
49.5800 361.0000 1.0000
49.5900 342.0000 1.0000
49.6000 359.0000 1.0000
49.6100 386.0000 1.0000
49.6200 380.0000 1.0000
49.6300 328.0000 1.0000
49.6400 340.0000 1.0000
49.6500 329.0000 1.0000
49.6600 344.0000 1.0000
49.6700 328.0000 1.0000
49.6800 335.0000 1.0000
49.6900 336.0000 1.0000
49.7000 331.0000 1.0000
49.7100 325.0000 1.0000
49.7200 330.0000 1.0000
49.7300 345.0000 1.0000
49.7400 318.0000 1.0000
49.7500 312.0000 1.0000
49.7600 322.0000 1.0000
49.7700 349.0000 1.0000
49.7800 342.0000 1.0000
49.7900 326.0000 1.0000
49.8000 349.0000 1.0000
49.8100 336.0000 1.0000
49.8200 308.0000 1.0000
49.8300 319.0000 1.0000
49.8400 332.0000 1.0000
49.8500 291.0000 1.0000
49.8600 374.0000 1.0000
49.8700 317.0000 1.0000
49.8800 371.0000 1.0000
49.8900 355.0000 1.0000
49.9000 326.0000 1.0000
49.9100 341.0000 1.0000
49.9200 328.0000 1.0000
49.9300 327.0000 1.0000
49.9400 363.0000 1.0000
49.9500 352.0000 1.0000
49.9600 309.0000 1.0000
49.9700 316.0000 1.0000
49.9800 356.0000 1.0000
49.9900 316.0000 1.0000
50.0000 352.0000 1.0000
50.0100 345.0000 1.0000
50.0200 337.0000 1.0000
50.0300 349.0000 1.0000
50.0400 346.0000 1.0000
50.0500 344.0000 1.0000
50.0600 352.0000 1.0000
50.0700 343.0000 1.0000
50.0800 332.0000 1.0000
50.0900 326.0000 1.0000
50.1000 321.0000 1.0000
50.1100 350.0000 1.0000
50.1200 309.0000 1.0000
50.1300 330.0000 1.0000
50.1400 333.0000 1.0000
50.1500 313.0000 1.0000
50.1600 317.0000 1.0000
50.1700 343.0000 1.0000
50.1800 357.0000 1.0000
50.1900 325.0000 1.0000
50.2000 327.0000 1.0000
50.2100 329.0000 1.0000
50.2200 337.0000 1.0000
50.2300 327.0000 1.0000
50.2400 326.0000 1.0000
50.2500 319.0000 1.0000
50.2600 346.0000 1.0000
50.2700 338.0000 1.0000
50.2800 335.0000 1.0000
50.2900 345.0000 1.0000
50.3000 373.0000 1.0000
50.3100 319.0000 1.0000
50.3200 330.0000 1.0000
50.3300 331.0000 1.0000
50.3400 340.0000 1.0000
50.3500 333.0000 1.0000
50.3600 308.0000 1.0000
50.3700 354.0000 1.0000
50.3800 321.0000 1.0000
50.3900 325.0000 1.0000
50.4000 332.0000 1.0000
50.4100 336.0000 1.0000
50.4200 332.0000 1.0000
50.4300 309.0000 1.0000
50.4400 311.0000 1.0000
50.4500 337.0000 1.0000
50.4600 334.0000 1.0000
50.4700 339.0000 1.0000
50.4800 332.0000 1.0000
50.4900 324.0000 1.0000
50.5000 333.0000 1.0000
50.5100 329.0000 1.0000
50.5200 377.0000 1.0000
50.5300 330.0000 1.0000
50.5400 324.0000 1.0000
50.5500 352.0000 1.0000
50.5600 343.0000 1.0000
50.5700 302.0000 1.0000
50.5800 322.0000 1.0000
50.5900 357.0000 1.0000
50.6000 333.0000 1.0000
50.6100 348.0000 1.0000
50.6200 355.0000 1.0000
50.6300 324.0000 1.0000
50.6400 348.0000 1.0000
50.6500 342.0000 1.0000
50.6600 372.0000 1.0000
50.6700 322.0000 1.0000
50.6800 330.0000 1.0000
50.6900 350.0000 1.0000
50.7000 317.0000 1.0000
50.7100 334.0000 1.0000
50.7200 336.0000 1.0000
50.7300 357.0000 1.0000
50.7400 350.0000 1.0000
50.7500 322.0000 1.0000
50.7600 331.0000 1.0000
50.7700 356.0000 1.0000
50.7800 356.0000 1.0000
50.7900 333.0000 1.0000
50.8000 339.0000 1.0000
50.8100 330.0000 1.0000
50.8200 352.0000 1.0000
50.8300 348.0000 1.0000
50.8400 334.0000 1.0000
50.8500 380.0000 1.0000
50.8600 332.0000 1.0000
50.8700 352.0000 1.0000
50.8800 336.0000 1.0000
50.8900 355.0000 1.0000
50.9000 331.0000 1.0000
50.9100 312.0000 1.0000
50.9200 381.0000 1.0000
50.9300 342.0000 1.0000
50.9400 361.0000 1.0000
50.9500 361.0000 1.0000
50.9600 361.0000 1.0000
50.9700 357.0000 1.0000
50.9800 346.0000 1.0000
50.9900 373.0000 1.0000
51.0000 333.0000 1.0000
51.0100 390.0000 1.0000
51.0200 388.0000 1.0000
51.0300 379.0000 1.0000
51.0400 364.0000 1.0000
51.0500 409.0000 1.0000
51.0600 396.0000 1.0000
51.0700 385.0000 1.0000
51.0800 417.0000 1.0000
51.0900 388.0000 1.0000
51.1000 432.0000 1.0000
51.1100 444.0000 1.0000
51.1200 450.0000 1.0000
51.1300 432.0000 1.0000
51.1400 442.0000 1.0000
51.1500 437.0000 1.0000
51.1600 438.0000 1.0000
51.1700 496.0000 1.0000
51.1800 507.0000 1.0000
51.1900 486.0000 1.0000
51.2000 538.0000 1.0000
51.2100 552.0000 1.0000
51.2200 525.0000 1.0000
51.2300 556.0000 1.0000
51.2400 574.0000 1.0000
51.2500 579.0000 1.0000
51.2600 618.0000 1.0000
51.2700 615.0000 1.0000
51.2800 658.0000 1.0000
51.2900 687.0000 1.0000
51.3000 794.0000 1.0000
51.3100 862.0000 1.0000
51.3200 932.0000 1.0000
51.3300 956.0000 1.0000
51.3400 1011.0000 1.0000
51.3500 1069.0000 1.0000
51.3600 1177.0000 1.0000
51.3700 1286.0000 1.0000
51.3800 1382.0000 1.0000
51.3900 1457.0000 1.0000
51.4000 1540.0000 1.0000
51.4100 1585.0000 1.0000
51.4200 1718.0000 1.0000
51.4300 1880.0000 1.0000
51.4400 1906.0000 1.0000
51.4500 2010.0000 1.0000
51.4600 2106.0000 1.0000
51.4700 2085.0000 1.0000
51.4800 2100.0000 1.0000
51.4900 2135.0000 1.0000
51.5000 2053.0000 1.0000
51.5100 2096.0000 1.0000
51.5200 1949.0000 1.0000
51.5300 1871.0000 1.0000
51.5400 1802.0000 1.0000
51.5500 1753.0000 1.0000
51.5600 1707.0000 1.0000
51.5700 1659.0000 1.0000
51.5800 1609.0000 1.0000
51.5900 1615.0000 1.0000
51.6000 1580.0000 1.0000
51.6100 1442.0000 1.0000
51.6200 1441.0000 1.0000
51.6300 1380.0000 1.0000
51.6400 1317.0000 1.0000
51.6500 1172.0000 1.0000
51.6600 1169.0000 1.0000
51.6700 1135.0000 1.0000
51.6800 1063.0000 1.0000
51.6900 930.0000 1.0000
51.7000 887.0000 1.0000
51.7100 826.0000 1.0000
51.7200 742.0000 1.0000
51.7300 755.0000 1.0000
51.7400 656.0000 1.0000
51.7500 630.0000 1.0000
51.7600 621.0000 1.0000
51.7700 589.0000 1.0000
51.7800 561.0000 1.0000
51.7900 529.0000 1.0000
51.8000 495.0000 1.0000
51.8100 513.0000 1.0000
51.8200 482.0000 1.0000
51.8300 522.0000 1.0000
51.8400 471.0000 1.0000
51.8500 462.0000 1.0000
51.8600 481.0000 1.0000
51.8700 462.0000 1.0000
51.8800 450.0000 1.0000
51.8900 407.0000 1.0000
51.9000 397.0000 1.0000
51.9100 435.0000 1.0000
51.9200 432.0000 1.0000
51.9300 377.0000 1.0000
51.9400 388.0000 1.0000
51.9500 395.0000 1.0000
51.9600 399.0000 1.0000
51.9700 388.0000 1.0000
51.9800 399.0000 1.0000
51.9900 390.0000 1.0000
52.0000 382.0000 1.0000
52.0100 371.0000 1.0000
52.0200 391.0000 1.0000
52.0300 382.0000 1.0000
52.0400 379.0000 1.0000
52.0500 376.0000 1.0000
52.0600 372.0000 1.0000
52.0700 370.0000 1.0000
52.0800 380.0000 1.0000
52.0900 355.0000 1.0000
52.1000 365.0000 1.0000
52.1100 374.0000 1.0000
52.1200 345.0000 1.0000
52.1300 334.0000 1.0000
52.1400 334.0000 1.0000
52.1500 346.0000 1.0000
52.1600 372.0000 1.0000
52.1700 349.0000 1.0000
52.1800 363.0000 1.0000
52.1900 323.0000 1.0000
52.2000 362.0000 1.0000
52.2100 341.0000 1.0000
52.2200 355.0000 1.0000
52.2300 316.0000 1.0000
52.2400 314.0000 1.0000
52.2500 356.0000 1.0000
52.2600 316.0000 1.0000
52.2700 320.0000 1.0000
52.2800 349.0000 1.0000
52.2900 351.0000 1.0000
52.3000 331.0000 1.0000
52.3100 356.0000 1.0000
52.3200 355.0000 1.0000
52.3300 332.0000 1.0000
52.3400 311.0000 1.0000
52.3500 336.0000 1.0000
52.3600 346.0000 1.0000
52.3700 348.0000 1.0000
52.3800 349.0000 1.0000
52.3900 324.0000 1.0000
52.4000 342.0000 1.0000
52.4100 338.0000 1.0000
52.4200 343.0000 1.0000
52.4300 324.0000 1.0000
52.4400 324.0000 1.0000
52.4500 343.0000 1.0000
52.4600 305.0000 1.0000
52.4700 345.0000 1.0000
52.4800 300.0000 1.0000
52.4900 332.0000 1.0000
52.5000 322.0000 1.0000
52.5100 316.0000 1.0000
52.5200 321.0000 1.0000
52.5300 289.0000 1.0000
52.5400 329.0000 1.0000
52.5500 339.0000 1.0000
52.5600 317.0000 1.0000
52.5700 358.0000 1.0000
52.5800 351.0000 1.0000
52.5900 335.0000 1.0000
52.6000 330.0000 1.0000
52.6100 316.0000 1.0000
52.6200 315.0000 1.0000
52.6300 338.0000 1.0000
52.6400 320.0000 1.0000
52.6500 308.0000 1.0000
52.6600 327.0000 1.0000
52.6700 371.0000 1.0000
52.6800 325.0000 1.0000
52.6900 331.0000 1.0000
52.7000 335.0000 1.0000
52.7100 308.0000 1.0000
52.7200 314.0000 1.0000
52.7300 308.0000 1.0000
52.7400 321.0000 1.0000
52.7500 339.0000 1.0000
52.7600 355.0000 1.0000
52.7700 333.0000 1.0000
52.7800 292.0000 1.0000
52.7900 315.0000 1.0000
52.8000 320.0000 1.0000
52.8100 317.0000 1.0000
52.8200 314.0000 1.0000
52.8300 327.0000 1.0000
52.8400 316.0000 1.0000
52.8500 296.0000 1.0000
52.8600 303.0000 1.0000
52.8700 311.0000 1.0000
52.8800 323.0000 1.0000
52.8900 329.0000 1.0000
52.9000 325.0000 1.0000
52.9100 333.0000 1.0000
52.9200 359.0000 1.0000
52.9300 328.0000 1.0000
52.9400 297.0000 1.0000
52.9500 331.0000 1.0000
52.9600 306.0000 1.0000
52.9700 285.0000 1.0000
52.9800 359.0000 1.0000
52.9900 347.0000 1.0000
53.0000 312.0000 1.0000
53.0100 342.0000 1.0000
53.0200 327.0000 1.0000
53.0300 324.0000 1.0000
53.0400 318.0000 1.0000
53.0500 302.0000 1.0000
53.0600 328.0000 1.0000
53.0700 314.0000 1.0000
53.0800 313.0000 1.0000
53.0900 356.0000 1.0000
53.1000 328.0000 1.0000
53.1100 328.0000 1.0000
53.1200 287.0000 1.0000
53.1300 339.0000 1.0000
53.1400 315.0000 1.0000
53.1500 304.0000 1.0000
53.1600 315.0000 1.0000
53.1700 290.0000 1.0000
53.1800 332.0000 1.0000
53.1900 346.0000 1.0000
53.2000 345.0000 1.0000
53.2100 332.0000 1.0000
53.2200 294.0000 1.0000
53.2300 311.0000 1.0000
53.2400 295.0000 1.0000
53.2500 313.0000 1.0000
53.2600 311.0000 1.0000
53.2700 287.0000 1.0000
53.2800 347.0000 1.0000
53.2900 305.0000 1.0000
53.3000 322.0000 1.0000
53.3100 321.0000 1.0000
53.3200 322.0000 1.0000
53.3300 341.0000 1.0000
53.3400 276.0000 1.0000
53.3500 294.0000 1.0000
53.3600 295.0000 1.0000
53.3700 301.0000 1.0000
53.3800 314.0000 1.0000
53.3900 302.0000 1.0000
53.4000 313.0000 1.0000
53.4100 323.0000 1.0000
53.4200 302.0000 1.0000
53.4300 292.0000 1.0000
53.4400 336.0000 1.0000
53.4500 335.0000 1.0000
53.4600 317.0000 1.0000
53.4700 306.0000 1.0000
53.4800 301.0000 1.0000
53.4900 307.0000 1.0000
53.5000 318.0000 1.0000
53.5100 302.0000 1.0000
53.5200 305.0000 1.0000
53.5300 315.0000 1.0000
53.5400 322.0000 1.0000
53.5500 332.0000 1.0000
53.5600 341.0000 1.0000
53.5700 357.0000 1.0000
53.5800 376.0000 1.0000
53.5900 297.0000 1.0000
53.6000 321.0000 1.0000
53.6100 312.0000 1.0000
53.6200 321.0000 1.0000
53.6300 322.0000 1.0000
53.6400 341.0000 1.0000
53.6500 319.0000 1.0000
53.6600 301.0000 1.0000
53.6700 315.0000 1.0000
53.6800 338.0000 1.0000
53.6900 322.0000 1.0000
53.7000 302.0000 1.0000
53.7100 302.0000 1.0000
53.7200 323.0000 1.0000
53.7300 323.0000 1.0000
53.7400 309.0000 1.0000
53.7500 331.0000 1.0000
53.7600 368.0000 1.0000
53.7700 315.0000 1.0000
53.7800 345.0000 1.0000
53.7900 345.0000 1.0000
53.8000 340.0000 1.0000
53.8100 292.0000 1.0000
53.8200 317.0000 1.0000
53.8300 336.0000 1.0000
53.8400 313.0000 1.0000
53.8500 333.0000 1.0000
53.8600 349.0000 1.0000
53.8700 340.0000 1.0000
53.8800 324.0000 1.0000
53.8900 345.0000 1.0000
53.9000 323.0000 1.0000
53.9100 347.0000 1.0000
53.9200 368.0000 1.0000
53.9300 330.0000 1.0000
53.9400 350.0000 1.0000
53.9500 383.0000 1.0000
53.9600 387.0000 1.0000
53.9700 361.0000 1.0000
53.9800 365.0000 1.0000
53.9900 369.0000 1.0000
54.0000 404.0000 1.0000
54.0100 364.0000 1.0000
54.0200 377.0000 1.0000
54.0300 373.0000 1.0000
54.0400 368.0000 1.0000
54.0500 353.0000 1.0000
54.0600 367.0000 1.0000
54.0700 376.0000 1.0000
54.0800 338.0000 1.0000
54.0900 373.0000 1.0000
54.1000 386.0000 1.0000
54.1100 380.0000 1.0000
54.1200 386.0000 1.0000
54.1300 339.0000 1.0000
54.1400 345.0000 1.0000
54.1500 384.0000 1.0000
54.1600 376.0000 1.0000
54.1700 380.0000 1.0000
54.1800 369.0000 1.0000
54.1900 356.0000 1.0000
54.2000 330.0000 1.0000
54.2100 338.0000 1.0000
54.2200 369.0000 1.0000
54.2300 365.0000 1.0000
54.2400 372.0000 1.0000
54.2500 343.0000 1.0000
54.2600 346.0000 1.0000
54.2700 385.0000 1.0000
54.2800 374.0000 1.0000
54.2900 369.0000 1.0000
54.3000 349.0000 1.0000
54.3100 386.0000 1.0000
54.3200 392.0000 1.0000
54.3300 379.0000 1.0000
54.3400 381.0000 1.0000
54.3500 395.0000 1.0000
54.3600 407.0000 1.0000
54.3700 422.0000 1.0000
54.3800 395.0000 1.0000
54.3900 406.0000 1.0000
54.4000 384.0000 1.0000
54.4100 421.0000 1.0000
54.4200 415.0000 1.0000
54.4300 454.0000 1.0000
54.4400 432.0000 1.0000
54.4500 418.0000 1.0000
54.4600 452.0000 1.0000
54.4700 430.0000 1.0000
54.4800 498.0000 1.0000
54.4900 468.0000 1.0000
54.5000 463.0000 1.0000
54.5100 456.0000 1.0000
54.5200 449.0000 1.0000
54.5300 493.0000 1.0000
54.5400 465.0000 1.0000
54.5500 462.0000 1.0000
54.5600 448.0000 1.0000
54.5700 468.0000 1.0000
54.5800 455.0000 1.0000
54.5900 413.0000 1.0000
54.6000 435.0000 1.0000
54.6100 464.0000 1.0000
54.6200 424.0000 1.0000
54.6300 408.0000 1.0000
54.6400 441.0000 1.0000
54.6500 393.0000 1.0000
54.6600 385.0000 1.0000
54.6700 448.0000 1.0000
54.6800 401.0000 1.0000
54.6900 441.0000 1.0000
54.7000 412.0000 1.0000
54.7100 382.0000 1.0000
54.7200 394.0000 1.0000
54.7300 383.0000 1.0000
54.7400 383.0000 1.0000
54.7500 368.0000 1.0000
54.7600 338.0000 1.0000
54.7700 370.0000 1.0000
54.7800 388.0000 1.0000
54.7900 354.0000 1.0000
54.8000 342.0000 1.0000
54.8100 333.0000 1.0000
54.8200 344.0000 1.0000
54.8300 337.0000 1.0000
54.8400 337.0000 1.0000
54.8500 324.0000 1.0000
54.8600 362.0000 1.0000
54.8700 364.0000 1.0000
54.8800 340.0000 1.0000
54.8900 338.0000 1.0000
54.9000 314.0000 1.0000
54.9100 318.0000 1.0000
54.9200 326.0000 1.0000
54.9300 344.0000 1.0000
54.9400 339.0000 1.0000
54.9500 338.0000 1.0000
54.9600 289.0000 1.0000
54.9700 288.0000 1.0000
54.9800 314.0000 1.0000
54.9900 307.0000 1.0000
55.0000 343.0000 1.0000
55.0100 311.0000 1.0000
55.0200 322.0000 1.0000
55.0300 332.0000 1.0000
55.0400 334.0000 1.0000
55.0500 347.0000 1.0000
55.0600 314.0000 1.0000
55.0700 301.0000 1.0000
55.0800 291.0000 1.0000
55.0900 307.0000 1.0000
55.1000 298.0000 1.0000
55.1100 296.0000 1.0000
55.1200 306.0000 1.0000
55.1300 330.0000 1.0000
55.1400 321.0000 1.0000
55.1500 314.0000 1.0000
55.1600 304.0000 1.0000
55.1700 290.0000 1.0000
55.1800 293.0000 1.0000
55.1900 302.0000 1.0000
55.2000 291.0000 1.0000
55.2100 313.0000 1.0000
55.2200 338.0000 1.0000
55.2300 307.0000 1.0000
55.2400 312.0000 1.0000
55.2500 309.0000 1.0000
55.2600 341.0000 1.0000
55.2700 347.0000 1.0000
55.2800 314.0000 1.0000
55.2900 298.0000 1.0000
55.3000 277.0000 1.0000
55.3100 319.0000 1.0000
55.3200 308.0000 1.0000
55.3300 316.0000 1.0000
55.3400 317.0000 1.0000
55.3500 316.0000 1.0000
55.3600 285.0000 1.0000
55.3700 310.0000 1.0000
55.3800 308.0000 1.0000
55.3900 308.0000 1.0000
55.4000 302.0000 1.0000
55.4100 331.0000 1.0000
55.4200 313.0000 1.0000
55.4300 311.0000 1.0000
55.4400 296.0000 1.0000
55.4500 325.0000 1.0000
55.4600 323.0000 1.0000
55.4700 302.0000 1.0000
55.4800 310.0000 1.0000
55.4900 294.0000 1.0000
55.5000 326.0000 1.0000
55.5100 326.0000 1.0000
55.5200 318.0000 1.0000
55.5300 297.0000 1.0000
55.5400 289.0000 1.0000
55.5500 299.0000 1.0000
55.5600 306.0000 1.0000
55.5700 334.0000 1.0000
55.5800 293.0000 1.0000
55.5900 297.0000 1.0000
55.6000 290.0000 1.0000
55.6100 279.0000 1.0000
55.6200 294.0000 1.0000
55.6300 324.0000 1.0000
55.6400 339.0000 1.0000
55.6500 319.0000 1.0000
55.6600 297.0000 1.0000
55.6700 302.0000 1.0000
55.6800 309.0000 1.0000
55.6900 322.0000 1.0000
55.7000 319.0000 1.0000
55.7100 307.0000 1.0000
55.7200 319.0000 1.0000
55.7300 299.0000 1.0000
55.7400 298.0000 1.0000
55.7500 317.0000 1.0000
55.7600 320.0000 1.0000
55.7700 281.0000 1.0000
55.7800 298.0000 1.0000
55.7900 314.0000 1.0000
55.8000 279.0000 1.0000
55.8100 317.0000 1.0000
55.8200 278.0000 1.0000
55.8300 299.0000 1.0000
55.8400 339.0000 1.0000
55.8500 301.0000 1.0000
55.8600 301.0000 1.0000
55.8700 279.0000 1.0000
55.8800 296.0000 1.0000
55.8900 299.0000 1.0000
55.9000 310.0000 1.0000
55.9100 345.0000 1.0000
55.9200 288.0000 1.0000
55.9300 327.0000 1.0000
55.9400 328.0000 1.0000
55.9500 311.0000 1.0000
55.9600 303.0000 1.0000
55.9700 295.0000 1.0000
55.9800 288.0000 1.0000
55.9900 305.0000 1.0000
56.0000 320.0000 1.0000
56.0100 290.0000 1.0000
56.0200 308.0000 1.0000
56.0300 316.0000 1.0000
56.0400 300.0000 1.0000
56.0500 304.0000 1.0000
56.0600 300.0000 1.0000
56.0700 308.0000 1.0000
56.0800 326.0000 1.0000
56.0900 331.0000 1.0000
56.1000 299.0000 1.0000
56.1100 299.0000 1.0000
56.1200 286.0000 1.0000
56.1300 294.0000 1.0000
56.1400 303.0000 1.0000
56.1500 339.0000 1.0000
56.1600 332.0000 1.0000
56.1700 330.0000 1.0000
56.1800 298.0000 1.0000
56.1900 279.0000 1.0000
56.2000 309.0000 1.0000
56.2100 333.0000 1.0000
56.2200 318.0000 1.0000
56.2300 302.0000 1.0000
56.2400 316.0000 1.0000
56.2500 297.0000 1.0000
56.2600 298.0000 1.0000
56.2700 298.0000 1.0000
56.2800 285.0000 1.0000
56.2900 321.0000 1.0000
56.3000 307.0000 1.0000
56.3100 316.0000 1.0000
56.3200 314.0000 1.0000
56.3300 281.0000 1.0000
56.3400 296.0000 1.0000
56.3500 293.0000 1.0000
56.3600 320.0000 1.0000
56.3700 297.0000 1.0000
56.3800 305.0000 1.0000
56.3900 322.0000 1.0000
56.4000 315.0000 1.0000
56.4100 301.0000 1.0000
56.4200 308.0000 1.0000
56.4300 292.0000 1.0000
56.4400 275.0000 1.0000
56.4500 275.0000 1.0000
56.4600 307.0000 1.0000
56.4700 308.0000 1.0000
56.4800 285.0000 1.0000
56.4900 326.0000 1.0000
56.5000 317.0000 1.0000
56.5100 306.0000 1.0000
56.5200 300.0000 1.0000
56.5300 286.0000 1.0000
56.5400 326.0000 1.0000
56.5500 340.0000 1.0000
56.5600 314.0000 1.0000
56.5700 278.0000 1.0000
56.5800 284.0000 1.0000
56.5900 286.0000 1.0000
56.6000 296.0000 1.0000
56.6100 295.0000 1.0000
56.6200 310.0000 1.0000
56.6300 300.0000 1.0000
56.6400 280.0000 1.0000
56.6500 270.0000 1.0000
56.6600 310.0000 1.0000
56.6700 295.0000 1.0000
56.6800 286.0000 1.0000
56.6900 320.0000 1.0000
56.7000 292.0000 1.0000
56.7100 299.0000 1.0000
56.7200 301.0000 1.0000
56.7300 326.0000 1.0000
56.7400 287.0000 1.0000
56.7500 296.0000 1.0000
56.7600 327.0000 1.0000
56.7700 303.0000 1.0000
56.7800 296.0000 1.0000
56.7900 317.0000 1.0000
56.8000 303.0000 1.0000
56.8100 288.0000 1.0000
56.8200 318.0000 1.0000
56.8300 295.0000 1.0000
56.8400 282.0000 1.0000
56.8500 290.0000 1.0000
56.8600 297.0000 1.0000
56.8700 295.0000 1.0000
56.8800 321.0000 1.0000
56.8900 319.0000 1.0000
56.9000 289.0000 1.0000
56.9100 264.0000 1.0000
56.9200 278.0000 1.0000
56.9300 308.0000 1.0000
56.9400 302.0000 1.0000
56.9500 309.0000 1.0000
56.9600 315.0000 1.0000
56.9700 314.0000 1.0000
56.9800 287.0000 1.0000
56.9900 313.0000 1.0000
57.0000 284.0000 1.0000
57.0100 315.0000 1.0000
57.0200 288.0000 1.0000
57.0300 306.0000 1.0000
57.0400 295.0000 1.0000
57.0500 301.0000 1.0000
57.0600 296.0000 1.0000
57.0700 301.0000 1.0000
57.0800 299.0000 1.0000
57.0900 299.0000 1.0000
57.1000 297.0000 1.0000
57.1100 311.0000 1.0000
57.1200 288.0000 1.0000
57.1300 312.0000 1.0000
57.1400 308.0000 1.0000
57.1500 313.0000 1.0000
57.1600 293.0000 1.0000
57.1700 285.0000 1.0000
57.1800 315.0000 1.0000
57.1900 301.0000 1.0000
57.2000 293.0000 1.0000
57.2100 322.0000 1.0000
57.2200 293.0000 1.0000
57.2300 294.0000 1.0000
57.2400 315.0000 1.0000
57.2500 333.0000 1.0000
57.2600 305.0000 1.0000
57.2700 301.0000 1.0000
57.2800 316.0000 1.0000
57.2900 301.0000 1.0000
57.3000 303.0000 1.0000
57.3100 299.0000 1.0000
57.3200 309.0000 1.0000
57.3300 310.0000 1.0000
57.3400 293.0000 1.0000
57.3500 292.0000 1.0000
57.3600 344.0000 1.0000
57.3700 305.0000 1.0000
57.3800 284.0000 1.0000
57.3900 304.0000 1.0000
57.4000 316.0000 1.0000
57.4100 297.0000 1.0000
57.4200 322.0000 1.0000
57.4300 307.0000 1.0000
57.4400 319.0000 1.0000
57.4500 316.0000 1.0000
57.4600 312.0000 1.0000
57.4700 289.0000 1.0000
57.4800 312.0000 1.0000
57.4900 316.0000 1.0000
57.5000 326.0000 1.0000
57.5100 317.0000 1.0000
57.5200 340.0000 1.0000
57.5300 314.0000 1.0000
57.5400 308.0000 1.0000
57.5500 306.0000 1.0000
57.5600 292.0000 1.0000
57.5700 313.0000 1.0000
57.5800 324.0000 1.0000
57.5900 315.0000 1.0000
57.6000 334.0000 1.0000
57.6100 303.0000 1.0000
57.6200 317.0000 1.0000
57.6300 330.0000 1.0000
57.6400 301.0000 1.0000
57.6500 297.0000 1.0000
57.6600 302.0000 1.0000
57.6700 320.0000 1.0000
57.6800 323.0000 1.0000
57.6900 310.0000 1.0000
57.7000 320.0000 1.0000
57.7100 297.0000 1.0000
57.7200 288.0000 1.0000
57.7300 296.0000 1.0000
57.7400 265.0000 1.0000
57.7500 290.0000 1.0000
57.7600 299.0000 1.0000
57.7700 311.0000 1.0000
57.7800 291.0000 1.0000
57.7900 315.0000 1.0000
57.8000 325.0000 1.0000
57.8100 285.0000 1.0000
57.8200 275.0000 1.0000
57.8300 277.0000 1.0000
57.8400 298.0000 1.0000
57.8500 283.0000 1.0000
57.8600 317.0000 1.0000
57.8700 293.0000 1.0000
57.8800 316.0000 1.0000
57.8900 314.0000 1.0000
57.9000 283.0000 1.0000
57.9100 280.0000 1.0000
57.9200 282.0000 1.0000
57.9300 293.0000 1.0000
57.9400 290.0000 1.0000
57.9500 272.0000 1.0000
57.9600 303.0000 1.0000
57.9700 329.0000 1.0000
57.9800 289.0000 1.0000
57.9900 311.0000 1.0000
58.0000 275.0000 1.0000
58.0100 309.0000 1.0000
58.0200 302.0000 1.0000
58.0300 320.0000 1.0000
58.0400 301.0000 1.0000
58.0500 297.0000 1.0000
58.0600 300.0000 1.0000
58.0700 292.0000 1.0000
58.0800 313.0000 1.0000
58.0900 288.0000 1.0000
58.1000 313.0000 1.0000
58.1100 306.0000 1.0000
58.1200 303.0000 1.0000
58.1300 271.0000 1.0000
58.1400 267.0000 1.0000
58.1500 287.0000 1.0000
58.1600 302.0000 1.0000
58.1700 320.0000 1.0000
58.1800 312.0000 1.0000
58.1900 307.0000 1.0000
58.2000 318.0000 1.0000
58.2100 311.0000 1.0000
58.2200 288.0000 1.0000
58.2300 319.0000 1.0000
58.2400 294.0000 1.0000
58.2500 299.0000 1.0000
58.2600 310.0000 1.0000
58.2700 309.0000 1.0000
58.2800 287.0000 1.0000
58.2900 286.0000 1.0000
58.3000 292.0000 1.0000
58.3100 282.0000 1.0000
58.3200 316.0000 1.0000
58.3300 329.0000 1.0000
58.3400 303.0000 1.0000
58.3500 285.0000 1.0000
58.3600 297.0000 1.0000
58.3700 308.0000 1.0000
58.3800 296.0000 1.0000
58.3900 314.0000 1.0000
58.4000 290.0000 1.0000
58.4100 289.0000 1.0000
58.4200 305.0000 1.0000
58.4300 326.0000 1.0000
58.4400 332.0000 1.0000
58.4500 296.0000 1.0000
58.4600 325.0000 1.0000
58.4700 285.0000 1.0000
58.4800 293.0000 1.0000
58.4900 279.0000 1.0000
58.5000 296.0000 1.0000
58.5100 294.0000 1.0000
58.5200 302.0000 1.0000
58.5300 300.0000 1.0000
58.5400 303.0000 1.0000
58.5500 294.0000 1.0000
58.5600 314.0000 1.0000
58.5700 297.0000 1.0000
58.5800 314.0000 1.0000
58.5900 291.0000 1.0000
58.6000 308.0000 1.0000
58.6100 302.0000 1.0000
58.6200 288.0000 1.0000
58.6300 295.0000 1.0000
58.6400 283.0000 1.0000
58.6500 317.0000 1.0000
58.6600 312.0000 1.0000
58.6700 334.0000 1.0000
58.6800 316.0000 1.0000
58.6900 303.0000 1.0000
58.7000 307.0000 1.0000
58.7100 302.0000 1.0000
58.7200 303.0000 1.0000
58.7300 295.0000 1.0000
58.7400 251.0000 1.0000
58.7500 320.0000 1.0000
58.7600 315.0000 1.0000
58.7700 300.0000 1.0000
58.7800 287.0000 1.0000
58.7900 285.0000 1.0000
58.8000 302.0000 1.0000
58.8100 283.0000 1.0000
58.8200 298.0000 1.0000
58.8300 301.0000 1.0000
58.8400 296.0000 1.0000
58.8500 316.0000 1.0000
58.8600 312.0000 1.0000
58.8700 308.0000 1.0000
58.8800 291.0000 1.0000
58.8900 287.0000 1.0000
58.9000 304.0000 1.0000
58.9100 291.0000 1.0000
58.9200 279.0000 1.0000
58.9300 306.0000 1.0000
58.9400 300.0000 1.0000
58.9500 302.0000 1.0000
58.9600 306.0000 1.0000
58.9700 298.0000 1.0000
58.9800 318.0000 1.0000
58.9900 310.0000 1.0000
59.0000 294.0000 1.0000
59.0100 290.0000 1.0000
59.0200 286.0000 1.0000
59.0300 289.0000 1.0000
59.0400 289.0000 1.0000
59.0500 283.0000 1.0000
59.0600 286.0000 1.0000
59.0700 286.0000 1.0000
59.0800 302.0000 1.0000
59.0900 298.0000 1.0000
59.1000 273.0000 1.0000
59.1100 263.0000 1.0000
59.1200 290.0000 1.0000
59.1300 306.0000 1.0000
59.1400 300.0000 1.0000
59.1500 292.0000 1.0000
59.1600 282.0000 1.0000
59.1700 318.0000 1.0000
59.1800 298.0000 1.0000
59.1900 302.0000 1.0000
59.2000 314.0000 1.0000
59.2100 280.0000 1.0000
59.2200 286.0000 1.0000
59.2300 303.0000 1.0000
59.2400 310.0000 1.0000
59.2500 310.0000 1.0000
59.2600 299.0000 1.0000
59.2700 334.0000 1.0000
59.2800 302.0000 1.0000
59.2900 317.0000 1.0000
59.3000 326.0000 1.0000
59.3100 299.0000 1.0000
59.3200 286.0000 1.0000
59.3300 299.0000 1.0000
59.3400 300.0000 1.0000
59.3500 309.0000 1.0000
59.3600 301.0000 1.0000
59.3700 319.0000 1.0000
59.3800 299.0000 1.0000
59.3900 305.0000 1.0000
59.4000 281.0000 1.0000
59.4100 301.0000 1.0000
59.4200 282.0000 1.0000
59.4300 317.0000 1.0000
59.4400 311.0000 1.0000
59.4500 316.0000 1.0000
59.4600 278.0000 1.0000
59.4700 262.0000 1.0000
59.4800 290.0000 1.0000
59.4900 311.0000 1.0000
59.5000 279.0000 1.0000
59.5100 325.0000 1.0000
59.5200 298.0000 1.0000
59.5300 280.0000 1.0000
59.5400 298.0000 1.0000
59.5500 301.0000 1.0000
59.5600 300.0000 1.0000
59.5700 295.0000 1.0000
59.5800 300.0000 1.0000
59.5900 325.0000 1.0000
59.6000 284.0000 1.0000
59.6100 288.0000 1.0000
59.6200 301.0000 1.0000
59.6300 307.0000 1.0000
59.6400 283.0000 1.0000
59.6500 289.0000 1.0000
59.6600 273.0000 1.0000
59.6700 267.0000 1.0000
59.6800 272.0000 1.0000
59.6900 299.0000 1.0000
59.7000 279.0000 1.0000
59.7100 300.0000 1.0000
59.7200 309.0000 1.0000
59.7300 311.0000 1.0000
59.7400 304.0000 1.0000
59.7500 293.0000 1.0000
59.7600 291.0000 1.0000
59.7700 302.0000 1.0000
59.7800 279.0000 1.0000
59.7900 325.0000 1.0000
59.8000 299.0000 1.0000
59.8100 294.0000 1.0000
59.8200 291.0000 1.0000
59.8300 275.0000 1.0000
59.8400 291.0000 1.0000
59.8500 313.0000 1.0000
59.8600 300.0000 1.0000
59.8700 291.0000 1.0000
59.8800 328.0000 1.0000
59.8900 285.0000 1.0000
59.9000 285.0000 1.0000
59.9100 310.0000 1.0000
59.9200 314.0000 1.0000
59.9300 294.0000 1.0000
59.9400 283.0000 1.0000
59.9500 300.0000 1.0000
59.9600 288.0000 1.0000
59.9700 335.0000 1.0000
59.9800 306.0000 1.0000
59.9900 307.0000 1.0000
60.0000 326.0000 1.0000
60.0100 281.0000 1.0000
60.0200 268.0000 1.0000
60.0300 287.0000 1.0000
60.0400 308.0000 1.0000
60.0500 290.0000 1.0000
60.0600 272.0000 1.0000
60.0700 289.0000 1.0000
60.0800 320.0000 1.0000
60.0900 290.0000 1.0000
60.1000 281.0000 1.0000
60.1100 289.0000 1.0000
60.1200 291.0000 1.0000
60.1300 289.0000 1.0000
60.1400 320.0000 1.0000
60.1500 304.0000 1.0000
60.1600 293.0000 1.0000
60.1700 297.0000 1.0000
60.1800 313.0000 1.0000
60.1900 292.0000 1.0000
60.2000 300.0000 1.0000
60.2100 301.0000 1.0000
60.2200 320.0000 1.0000
60.2300 293.0000 1.0000
60.2400 296.0000 1.0000
60.2500 274.0000 1.0000
60.2600 292.0000 1.0000
60.2700 283.0000 1.0000
60.2800 287.0000 1.0000
60.2900 283.0000 1.0000
60.3000 297.0000 1.0000
60.3100 286.0000 1.0000
60.3200 285.0000 1.0000
60.3300 288.0000 1.0000
60.3400 300.0000 1.0000
60.3500 300.0000 1.0000
60.3600 300.0000 1.0000
60.3700 305.0000 1.0000
60.3800 293.0000 1.0000
60.3900 304.0000 1.0000
60.4000 305.0000 1.0000
60.4100 291.0000 1.0000
60.4200 302.0000 1.0000
60.4300 288.0000 1.0000
60.4400 291.0000 1.0000
60.4500 297.0000 1.0000
60.4600 327.0000 1.0000
60.4700 288.0000 1.0000
60.4800 281.0000 1.0000
60.4900 284.0000 1.0000
60.5000 316.0000 1.0000
60.5100 286.0000 1.0000
60.5200 290.0000 1.0000
60.5300 312.0000 1.0000
60.5400 272.0000 1.0000
60.5500 285.0000 1.0000
60.5600 279.0000 1.0000
60.5700 294.0000 1.0000
60.5800 312.0000 1.0000
60.5900 330.0000 1.0000
60.6000 274.0000 1.0000
60.6100 310.0000 1.0000
60.6200 301.0000 1.0000
60.6300 290.0000 1.0000
60.6400 283.0000 1.0000
60.6500 297.0000 1.0000
60.6600 303.0000 1.0000
60.6700 316.0000 1.0000
60.6800 288.0000 1.0000
60.6900 276.0000 1.0000
60.7000 278.0000 1.0000
60.7100 296.0000 1.0000
60.7200 286.0000 1.0000
60.7300 311.0000 1.0000
60.7400 286.0000 1.0000
60.7500 284.0000 1.0000
60.7600 285.0000 1.0000
60.7700 305.0000 1.0000
60.7800 280.0000 1.0000
60.7900 305.0000 1.0000
60.8000 279.0000 1.0000
60.8100 286.0000 1.0000
60.8200 286.0000 1.0000
60.8300 322.0000 1.0000
60.8400 317.0000 1.0000
60.8500 298.0000 1.0000
60.8600 313.0000 1.0000
60.8700 296.0000 1.0000
60.8800 302.0000 1.0000
60.8900 276.0000 1.0000
60.9000 288.0000 1.0000
60.9100 292.0000 1.0000
60.9200 315.0000 1.0000
60.9300 306.0000 1.0000
60.9400 298.0000 1.0000
60.9500 321.0000 1.0000
60.9600 330.0000 1.0000
60.9700 308.0000 1.0000
60.9800 306.0000 1.0000
60.9900 282.0000 1.0000
61.0000 286.0000 1.0000
61.0100 304.0000 1.0000
61.0200 306.0000 1.0000
61.0300 319.0000 1.0000
61.0400 307.0000 1.0000
61.0500 325.0000 1.0000
61.0600 307.0000 1.0000
61.0700 355.0000 1.0000
61.0800 329.0000 1.0000
61.0900 345.0000 1.0000
61.1000 297.0000 1.0000
61.1100 321.0000 1.0000
61.1200 335.0000 1.0000
61.1300 330.0000 1.0000
61.1400 318.0000 1.0000
61.1500 315.0000 1.0000
61.1600 344.0000 1.0000
61.1700 323.0000 1.0000
61.1800 319.0000 1.0000
61.1900 333.0000 1.0000
61.2000 352.0000 1.0000
61.2100 361.0000 1.0000
61.2200 343.0000 1.0000
61.2300 358.0000 1.0000
61.2400 364.0000 1.0000
61.2500 357.0000 1.0000
61.2600 382.0000 1.0000
61.2700 374.0000 1.0000
61.2800 353.0000 1.0000
61.2900 389.0000 1.0000
61.3000 412.0000 1.0000
61.3100 404.0000 1.0000
61.3200 413.0000 1.0000
61.3300 448.0000 1.0000
61.3400 439.0000 1.0000
61.3500 428.0000 1.0000
61.3600 465.0000 1.0000
61.3700 442.0000 1.0000
61.3800 468.0000 1.0000
61.3900 506.0000 1.0000
61.4000 503.0000 1.0000
61.4100 479.0000 1.0000
61.4200 526.0000 1.0000
61.4300 511.0000 1.0000
61.4400 570.0000 1.0000
61.4500 564.0000 1.0000
61.4600 577.0000 1.0000
61.4700 564.0000 1.0000
61.4800 593.0000 1.0000
61.4900 581.0000 1.0000
61.5000 597.0000 1.0000
61.5100 576.0000 1.0000
61.5200 587.0000 1.0000
61.5300 602.0000 1.0000
61.5400 576.0000 1.0000
61.5500 558.0000 1.0000
61.5600 550.0000 1.0000
61.5700 582.0000 1.0000
61.5800 590.0000 1.0000
61.5900 603.0000 1.0000
61.6000 566.0000 1.0000
61.6100 558.0000 1.0000
61.6200 576.0000 1.0000
61.6300 567.0000 1.0000
61.6400 546.0000 1.0000
61.6500 558.0000 1.0000
61.6600 575.0000 1.0000
61.6700 533.0000 1.0000
61.6800 543.0000 1.0000
61.6900 513.0000 1.0000
61.7000 529.0000 1.0000
61.7100 547.0000 1.0000
61.7200 515.0000 1.0000
61.7300 479.0000 1.0000
61.7400 472.0000 1.0000
61.7500 513.0000 1.0000
61.7600 490.0000 1.0000
61.7700 473.0000 1.0000
61.7800 458.0000 1.0000
61.7900 443.0000 1.0000
61.8000 389.0000 1.0000
61.8100 422.0000 1.0000
61.8200 429.0000 1.0000
61.8300 411.0000 1.0000
61.8400 412.0000 1.0000
61.8500 428.0000 1.0000
61.8600 387.0000 1.0000
61.8700 422.0000 1.0000
61.8800 413.0000 1.0000
61.8900 382.0000 1.0000
61.9000 382.0000 1.0000
61.9100 378.0000 1.0000
61.9200 367.0000 1.0000
61.9300 368.0000 1.0000
61.9400 383.0000 1.0000
61.9500 355.0000 1.0000
61.9600 374.0000 1.0000
61.9700 336.0000 1.0000
61.9800 347.0000 1.0000
61.9900 335.0000 1.0000
62.0000 335.0000 1.0000
62.0100 331.0000 1.0000
62.0200 332.0000 1.0000
62.0300 326.0000 1.0000
62.0400 375.0000 1.0000
62.0500 296.0000 1.0000
62.0600 317.0000 1.0000
62.0700 349.0000 1.0000
62.0800 301.0000 1.0000
62.0900 317.0000 1.0000
62.1000 363.0000 1.0000
62.1100 334.0000 1.0000
62.1200 330.0000 1.0000
62.1300 315.0000 1.0000
62.1400 327.0000 1.0000
62.1500 341.0000 1.0000
62.1600 312.0000 1.0000
62.1700 313.0000 1.0000
62.1800 327.0000 1.0000
62.1900 319.0000 1.0000
62.2000 327.0000 1.0000
62.2100 337.0000 1.0000
62.2200 355.0000 1.0000
62.2300 348.0000 1.0000
62.2400 347.0000 1.0000
62.2500 347.0000 1.0000
62.2600 356.0000 1.0000
62.2700 315.0000 1.0000
62.2800 319.0000 1.0000
62.2900 358.0000 1.0000
62.3000 345.0000 1.0000
62.3100 342.0000 1.0000
62.3200 339.0000 1.0000
62.3300 310.0000 1.0000
62.3400 337.0000 1.0000
62.3500 339.0000 1.0000
62.3600 332.0000 1.0000
62.3700 361.0000 1.0000
62.3800 349.0000 1.0000
62.3900 369.0000 1.0000
62.4000 359.0000 1.0000
62.4100 345.0000 1.0000
62.4200 356.0000 1.0000
62.4300 350.0000 1.0000
62.4400 320.0000 1.0000
62.4500 323.0000 1.0000
62.4600 348.0000 1.0000
62.4700 308.0000 1.0000
62.4800 335.0000 1.0000
62.4900 333.0000 1.0000
62.5000 365.0000 1.0000
62.5100 311.0000 1.0000
62.5200 319.0000 1.0000
62.5300 325.0000 1.0000
62.5400 333.0000 1.0000
62.5500 357.0000 1.0000
62.5600 323.0000 1.0000
62.5700 323.0000 1.0000
62.5800 319.0000 1.0000
62.5900 327.0000 1.0000
62.6000 298.0000 1.0000
62.6100 294.0000 1.0000
62.6200 348.0000 1.0000
62.6300 323.0000 1.0000
62.6400 313.0000 1.0000
62.6500 308.0000 1.0000
62.6600 296.0000 1.0000
62.6700 316.0000 1.0000
62.6800 321.0000 1.0000
62.6900 293.0000 1.0000
62.7000 308.0000 1.0000
62.7100 307.0000 1.0000
62.7200 283.0000 1.0000
62.7300 306.0000 1.0000
62.7400 306.0000 1.0000
62.7500 320.0000 1.0000
62.7600 310.0000 1.0000
62.7700 301.0000 1.0000
62.7800 313.0000 1.0000
62.7900 300.0000 1.0000
62.8000 312.0000 1.0000
62.8100 275.0000 1.0000
62.8200 269.0000 1.0000
62.8300 291.0000 1.0000
62.8400 276.0000 1.0000
62.8500 265.0000 1.0000
62.8600 292.0000 1.0000
62.8700 314.0000 1.0000
62.8800 302.0000 1.0000
62.8900 302.0000 1.0000
62.9000 276.0000 1.0000
62.9100 295.0000 1.0000
62.9200 286.0000 1.0000
62.9300 294.0000 1.0000
62.9400 300.0000 1.0000
62.9500 308.0000 1.0000
62.9600 298.0000 1.0000
62.9700 275.0000 1.0000
62.9800 289.0000 1.0000
62.9900 276.0000 1.0000
63.0000 306.0000 1.0000
63.0100 279.0000 1.0000
63.0200 274.0000 1.0000
63.0300 284.0000 1.0000
63.0400 295.0000 1.0000
63.0500 301.0000 1.0000
63.0600 308.0000 1.0000
63.0700 302.0000 1.0000
63.0800 314.0000 1.0000
63.0900 290.0000 1.0000
63.1000 290.0000 1.0000
63.1100 255.0000 1.0000
63.1200 296.0000 1.0000
63.1300 311.0000 1.0000
63.1400 313.0000 1.0000
63.1500 304.0000 1.0000
63.1600 274.0000 1.0000
63.1700 280.0000 1.0000
63.1800 312.0000 1.0000
63.1900 288.0000 1.0000
63.2000 286.0000 1.0000
63.2100 274.0000 1.0000
63.2200 304.0000 1.0000
63.2300 288.0000 1.0000
63.2400 292.0000 1.0000
63.2500 290.0000 1.0000
63.2600 295.0000 1.0000
63.2700 308.0000 1.0000
63.2800 300.0000 1.0000
63.2900 311.0000 1.0000
63.3000 298.0000 1.0000
63.3100 309.0000 1.0000
63.3200 298.0000 1.0000
63.3300 299.0000 1.0000
63.3400 299.0000 1.0000
63.3500 316.0000 1.0000
63.3600 310.0000 1.0000
63.3700 295.0000 1.0000
63.3800 287.0000 1.0000
63.3900 277.0000 1.0000
63.4000 309.0000 1.0000
63.4100 297.0000 1.0000
63.4200 304.0000 1.0000
63.4300 301.0000 1.0000
63.4400 305.0000 1.0000
63.4500 318.0000 1.0000
63.4600 288.0000 1.0000
63.4700 307.0000 1.0000
63.4800 320.0000 1.0000
63.4900 288.0000 1.0000
63.5000 280.0000 1.0000
63.5100 275.0000 1.0000
63.5200 304.0000 1.0000
63.5300 284.0000 1.0000
63.5400 300.0000 1.0000
63.5500 296.0000 1.0000
63.5600 279.0000 1.0000
63.5700 284.0000 1.0000
63.5800 306.0000 1.0000
63.5900 292.0000 1.0000
63.6000 325.0000 1.0000
63.6100 305.0000 1.0000
63.6200 317.0000 1.0000
63.6300 312.0000 1.0000
63.6400 298.0000 1.0000
63.6500 303.0000 1.0000
63.6600 312.0000 1.0000
63.6700 319.0000 1.0000
63.6800 307.0000 1.0000
63.6900 310.0000 1.0000
63.7000 313.0000 1.0000
63.7100 300.0000 1.0000
63.7200 335.0000 1.0000
63.7300 314.0000 1.0000
63.7400 326.0000 1.0000
63.7500 355.0000 1.0000
63.7600 348.0000 1.0000
63.7700 350.0000 1.0000
63.7800 327.0000 1.0000
63.7900 332.0000 1.0000
63.8000 377.0000 1.0000
63.8100 373.0000 1.0000
63.8200 398.0000 1.0000
63.8300 394.0000 1.0000
63.8400 391.0000 1.0000
63.8500 393.0000 1.0000
63.8600 358.0000 1.0000
63.8700 384.0000 1.0000
63.8800 395.0000 1.0000
63.8900 374.0000 1.0000
63.9000 427.0000 1.0000
63.9100 451.0000 1.0000
63.9200 474.0000 1.0000
63.9300 484.0000 1.0000
63.9400 468.0000 1.0000
63.9500 432.0000 1.0000
63.9600 437.0000 1.0000
63.9700 420.0000 1.0000
63.9800 436.0000 1.0000
63.9900 394.0000 1.0000
64.0000 380.0000 1.0000
64.0100 409.0000 1.0000
64.0200 391.0000 1.0000
64.0300 391.0000 1.0000
64.0400 371.0000 1.0000
64.0500 428.0000 1.0000
64.0600 419.0000 1.0000
64.0700 417.0000 1.0000
64.0800 380.0000 1.0000
64.0900 389.0000 1.0000
64.1000 387.0000 1.0000
64.1100 408.0000 1.0000
64.1200 413.0000 1.0000
64.1300 383.0000 1.0000
64.1400 386.0000 1.0000
64.1500 370.0000 1.0000
64.1600 367.0000 1.0000
64.1700 355.0000 1.0000
64.1800 376.0000 1.0000
64.1900 374.0000 1.0000
64.2000 356.0000 1.0000
64.2100 324.0000 1.0000
64.2200 340.0000 1.0000
64.2300 325.0000 1.0000
64.2400 358.0000 1.0000
64.2500 341.0000 1.0000
64.2600 338.0000 1.0000
64.2700 319.0000 1.0000
64.2800 329.0000 1.0000
64.2900 340.0000 1.0000
64.3000 354.0000 1.0000
64.3100 339.0000 1.0000
64.3200 326.0000 1.0000
64.3300 328.0000 1.0000
64.3400 323.0000 1.0000
64.3500 303.0000 1.0000
64.3600 294.0000 1.0000
64.3700 307.0000 1.0000
64.3800 306.0000 1.0000
64.3900 323.0000 1.0000
64.4000 312.0000 1.0000
64.4100 284.0000 1.0000
64.4200 309.0000 1.0000
64.4300 298.0000 1.0000
64.4400 334.0000 1.0000
64.4500 303.0000 1.0000
64.4600 319.0000 1.0000
64.4700 302.0000 1.0000
64.4800 300.0000 1.0000
64.4900 296.0000 1.0000
64.5000 313.0000 1.0000
64.5100 315.0000 1.0000
64.5200 299.0000 1.0000
64.5300 290.0000 1.0000
64.5400 320.0000 1.0000
64.5500 282.0000 1.0000
64.5600 322.0000 1.0000
64.5700 316.0000 1.0000
64.5800 292.0000 1.0000
64.5900 296.0000 1.0000
64.6000 294.0000 1.0000
64.6100 284.0000 1.0000
64.6200 325.0000 1.0000
64.6300 341.0000 1.0000
64.6400 309.0000 1.0000
64.6500 306.0000 1.0000
64.6600 312.0000 1.0000
64.6700 293.0000 1.0000
64.6800 294.0000 1.0000
64.6900 304.0000 1.0000
64.7000 318.0000 1.0000
64.7100 291.0000 1.0000
64.7200 321.0000 1.0000
64.7300 293.0000 1.0000
64.7400 299.0000 1.0000
64.7500 305.0000 1.0000
64.7600 317.0000 1.0000
64.7700 301.0000 1.0000
64.7800 298.0000 1.0000
64.7900 290.0000 1.0000
64.8000 312.0000 1.0000
64.8100 318.0000 1.0000
64.8200 323.0000 1.0000
64.8300 286.0000 1.0000
64.8400 291.0000 1.0000
64.8500 299.0000 1.0000
64.8600 325.0000 1.0000
64.8700 322.0000 1.0000
64.8800 296.0000 1.0000
64.8900 310.0000 1.0000
64.9000 322.0000 1.0000
64.9100 309.0000 1.0000
64.9200 329.0000 1.0000
64.9300 321.0000 1.0000
64.9400 316.0000 1.0000
64.9500 311.0000 1.0000
64.9600 311.0000 1.0000
64.9700 303.0000 1.0000
64.9800 328.0000 1.0000
64.9900 320.0000 1.0000
65.0000 339.0000 1.0000
65.0100 340.0000 1.0000
65.0200 334.0000 1.0000
65.0300 307.0000 1.0000
65.0400 343.0000 1.0000
65.0500 326.0000 1.0000
65.0600 328.0000 1.0000
65.0700 336.0000 1.0000
65.0800 316.0000 1.0000
65.0900 336.0000 1.0000
65.1000 314.0000 1.0000
65.1100 329.0000 1.0000
65.1200 322.0000 1.0000
65.1300 344.0000 1.0000
65.1400 345.0000 1.0000
65.1500 342.0000 1.0000
65.1600 348.0000 1.0000
65.1700 325.0000 1.0000
65.1800 355.0000 1.0000
65.1900 389.0000 1.0000
65.2000 372.0000 1.0000
65.2100 378.0000 1.0000
65.2200 388.0000 1.0000
65.2300 391.0000 1.0000
65.2400 408.0000 1.0000
65.2500 418.0000 1.0000
65.2600 415.0000 1.0000
65.2700 404.0000 1.0000
65.2800 440.0000 1.0000
65.2900 448.0000 1.0000
65.3000 496.0000 1.0000
65.3100 490.0000 1.0000
65.3200 507.0000 1.0000
65.3300 540.0000 1.0000
65.3400 568.0000 1.0000
65.3500 606.0000 1.0000
65.3600 575.0000 1.0000
65.3700 635.0000 1.0000
65.3800 606.0000 1.0000
65.3900 634.0000 1.0000
65.4000 698.0000 1.0000
65.4100 697.0000 1.0000
65.4200 710.0000 1.0000
65.4300 778.0000 1.0000
65.4400 830.0000 1.0000
65.4500 811.0000 1.0000
65.4600 872.0000 1.0000
65.4700 951.0000 1.0000
65.4800 899.0000 1.0000
65.4900 934.0000 1.0000
65.5000 1016.0000 1.0000
65.5100 994.0000 1.0000
65.5200 999.0000 1.0000
65.5300 1062.0000 1.0000
65.5400 1009.0000 1.0000
65.5500 1002.0000 1.0000
65.5600 1008.0000 1.0000
65.5700 965.0000 1.0000
65.5800 999.0000 1.0000
65.5900 989.0000 1.0000
65.6000 973.0000 1.0000
65.6100 927.0000 1.0000
65.6200 900.0000 1.0000
65.6300 870.0000 1.0000
65.6400 903.0000 1.0000
65.6500 828.0000 1.0000
65.6600 838.0000 1.0000
65.6700 811.0000 1.0000
65.6800 901.0000 1.0000
65.6900 818.0000 1.0000
65.7000 817.0000 1.0000
65.7100 798.0000 1.0000
65.7200 801.0000 1.0000
65.7300 752.0000 1.0000
65.7400 771.0000 1.0000
65.7500 711.0000 1.0000
65.7600 683.0000 1.0000
65.7700 684.0000 1.0000
65.7800 660.0000 1.0000
65.7900 616.0000 1.0000
65.8000 599.0000 1.0000
65.8100 589.0000 1.0000
65.8200 569.0000 1.0000
65.8300 541.0000 1.0000
65.8400 516.0000 1.0000
65.8500 498.0000 1.0000
65.8600 488.0000 1.0000
65.8700 462.0000 1.0000
65.8800 464.0000 1.0000
65.8900 447.0000 1.0000
65.9000 403.0000 1.0000
65.9100 403.0000 1.0000
65.9200 414.0000 1.0000
65.9300 378.0000 1.0000
65.9400 403.0000 1.0000
65.9500 413.0000 1.0000
65.9600 405.0000 1.0000
65.9700 416.0000 1.0000
65.9800 331.0000 1.0000
65.9900 369.0000 1.0000
66.0000 366.0000 1.0000
66.0100 359.0000 1.0000
66.0200 366.0000 1.0000
66.0300 334.0000 1.0000
66.0400 337.0000 1.0000
66.0500 356.0000 1.0000
66.0600 342.0000 1.0000
66.0700 342.0000 1.0000
66.0800 364.0000 1.0000
66.0900 318.0000 1.0000
66.1000 299.0000 1.0000
66.1100 328.0000 1.0000
66.1200 323.0000 1.0000
66.1300 295.0000 1.0000
66.1400 296.0000 1.0000
66.1500 317.0000 1.0000
66.1600 303.0000 1.0000
66.1700 295.0000 1.0000
66.1800 313.0000 1.0000
66.1900 304.0000 1.0000
66.2000 286.0000 1.0000
66.2100 338.0000 1.0000
66.2200 324.0000 1.0000
66.2300 290.0000 1.0000
66.2400 296.0000 1.0000
66.2500 301.0000 1.0000
66.2600 318.0000 1.0000
66.2700 297.0000 1.0000
66.2800 291.0000 1.0000
66.2900 278.0000 1.0000
66.3000 278.0000 1.0000
66.3100 288.0000 1.0000
66.3200 288.0000 1.0000
66.3300 280.0000 1.0000
66.3400 285.0000 1.0000
66.3500 279.0000 1.0000
66.3600 249.0000 1.0000
66.3700 281.0000 1.0000
66.3800 283.0000 1.0000
66.3900 296.0000 1.0000
66.4000 297.0000 1.0000
66.4100 321.0000 1.0000
66.4200 281.0000 1.0000
66.4300 291.0000 1.0000
66.4400 270.0000 1.0000
66.4500 267.0000 1.0000
66.4600 312.0000 1.0000
66.4700 295.0000 1.0000
66.4800 300.0000 1.0000
66.4900 287.0000 1.0000
66.5000 299.0000 1.0000
66.5100 302.0000 1.0000
66.5200 262.0000 1.0000
66.5300 266.0000 1.0000
66.5400 262.0000 1.0000
66.5500 277.0000 1.0000
66.5600 272.0000 1.0000
66.5700 293.0000 1.0000
66.5800 265.0000 1.0000
66.5900 291.0000 1.0000
66.6000 318.0000 1.0000
66.6100 277.0000 1.0000
66.6200 271.0000 1.0000
66.6300 283.0000 1.0000
66.6400 276.0000 1.0000
66.6500 276.0000 1.0000
66.6600 272.0000 1.0000
66.6700 291.0000 1.0000
66.6800 289.0000 1.0000
66.6900 279.0000 1.0000
66.7000 265.0000 1.0000
66.7100 271.0000 1.0000
66.7200 278.0000 1.0000
66.7300 298.0000 1.0000
66.7400 278.0000 1.0000
66.7500 304.0000 1.0000
66.7600 293.0000 1.0000
66.7700 301.0000 1.0000
66.7800 294.0000 1.0000
66.7900 256.0000 1.0000
66.8000 258.0000 1.0000
66.8100 266.0000 1.0000
66.8200 285.0000 1.0000
66.8300 288.0000 1.0000
66.8400 274.0000 1.0000
66.8500 243.0000 1.0000
66.8600 274.0000 1.0000
66.8700 285.0000 1.0000
66.8800 285.0000 1.0000
66.8900 270.0000 1.0000
66.9000 270.0000 1.0000
66.9100 276.0000 1.0000
66.9200 282.0000 1.0000
66.9300 295.0000 1.0000
66.9400 256.0000 1.0000
66.9500 279.0000 1.0000
66.9600 286.0000 1.0000
66.9700 284.0000 1.0000
66.9800 282.0000 1.0000
66.9900 282.0000 1.0000
67.0000 271.0000 1.0000
67.0100 270.0000 1.0000
67.0200 288.0000 1.0000
67.0300 259.0000 1.0000
67.0400 262.0000 1.0000
67.0500 255.0000 1.0000
67.0600 260.0000 1.0000
67.0700 293.0000 1.0000
67.0800 280.0000 1.0000
67.0900 255.0000 1.0000
67.1000 288.0000 1.0000
67.1100 274.0000 1.0000
67.1200 275.0000 1.0000
67.1300 281.0000 1.0000
67.1400 282.0000 1.0000
67.1500 267.0000 1.0000
67.1600 253.0000 1.0000
67.1700 259.0000 1.0000
67.1800 293.0000 1.0000
67.1900 306.0000 1.0000
67.2000 280.0000 1.0000
67.2100 288.0000 1.0000
67.2200 274.0000 1.0000
67.2300 286.0000 1.0000
67.2400 256.0000 1.0000
67.2500 286.0000 1.0000
67.2600 290.0000 1.0000
67.2700 265.0000 1.0000
67.2800 250.0000 1.0000
67.2900 255.0000 1.0000
67.3000 273.0000 1.0000
67.3100 252.0000 1.0000
67.3200 255.0000 1.0000
67.3300 258.0000 1.0000
67.3400 247.0000 1.0000
67.3500 272.0000 1.0000
67.3600 283.0000 1.0000
67.3700 275.0000 1.0000
67.3800 264.0000 1.0000
67.3900 286.0000 1.0000
67.4000 272.0000 1.0000
67.4100 290.0000 1.0000
67.4200 280.0000 1.0000
67.4300 265.0000 1.0000
67.4400 266.0000 1.0000
67.4500 257.0000 1.0000
67.4600 266.0000 1.0000
67.4700 258.0000 1.0000
67.4800 249.0000 1.0000
67.4900 253.0000 1.0000
67.5000 258.0000 1.0000
67.5100 255.0000 1.0000
67.5200 269.0000 1.0000
67.5300 272.0000 1.0000
67.5400 267.0000 1.0000
67.5500 269.0000 1.0000
67.5600 249.0000 1.0000
67.5700 245.0000 1.0000
67.5800 258.0000 1.0000
67.5900 291.0000 1.0000
67.6000 247.0000 1.0000
67.6100 255.0000 1.0000
67.6200 245.0000 1.0000
67.6300 249.0000 1.0000
67.6400 269.0000 1.0000
67.6500 276.0000 1.0000
67.6600 228.0000 1.0000
67.6700 261.0000 1.0000
67.6800 272.0000 1.0000
67.6900 282.0000 1.0000
67.7000 266.0000 1.0000
67.7100 246.0000 1.0000
67.7200 239.0000 1.0000
67.7300 280.0000 1.0000
67.7400 256.0000 1.0000
67.7500 249.0000 1.0000
67.7600 286.0000 1.0000
67.7700 284.0000 1.0000
67.7800 259.0000 1.0000
67.7900 274.0000 1.0000
67.8000 265.0000 1.0000
67.8100 266.0000 1.0000
67.8200 258.0000 1.0000
67.8300 259.0000 1.0000
67.8400 274.0000 1.0000
67.8500 281.0000 1.0000
67.8600 271.0000 1.0000
67.8700 261.0000 1.0000
67.8800 262.0000 1.0000
67.8900 261.0000 1.0000
67.9000 283.0000 1.0000
67.9100 243.0000 1.0000
67.9200 262.0000 1.0000
67.9300 240.0000 1.0000
67.9400 256.0000 1.0000
67.9500 278.0000 1.0000
67.9600 299.0000 1.0000
67.9700 254.0000 1.0000
67.9800 241.0000 1.0000
67.9900 257.0000 1.0000
68.0000 269.0000 1.0000
68.0100 286.0000 1.0000
68.0200 295.0000 1.0000
68.0300 282.0000 1.0000
68.0400 262.0000 1.0000
68.0500 246.0000 1.0000
68.0600 257.0000 1.0000
68.0700 256.0000 1.0000
68.0800 246.0000 1.0000
68.0900 258.0000 1.0000
68.1000 300.0000 1.0000
68.1100 297.0000 1.0000
68.1200 280.0000 1.0000
68.1300 277.0000 1.0000
68.1400 262.0000 1.0000
68.1500 261.0000 1.0000
68.1600 261.0000 1.0000
68.1700 252.0000 1.0000
68.1800 266.0000 1.0000
68.1900 242.0000 1.0000
68.2000 259.0000 1.0000
68.2100 267.0000 1.0000
68.2200 254.0000 1.0000
68.2300 292.0000 1.0000
68.2400 268.0000 1.0000
68.2500 269.0000 1.0000
68.2600 247.0000 1.0000
68.2700 259.0000 1.0000
68.2800 275.0000 1.0000
68.2900 273.0000 1.0000
68.3000 253.0000 1.0000
68.3100 287.0000 1.0000
68.3200 286.0000 1.0000
68.3300 247.0000 1.0000
68.3400 244.0000 1.0000
68.3500 260.0000 1.0000
68.3600 250.0000 1.0000
68.3700 252.0000 1.0000
68.3800 257.0000 1.0000
68.3900 281.0000 1.0000
68.4000 252.0000 1.0000
68.4100 253.0000 1.0000
68.4200 279.0000 1.0000
68.4300 267.0000 1.0000
68.4400 258.0000 1.0000
68.4500 258.0000 1.0000
68.4600 260.0000 1.0000
68.4700 251.0000 1.0000
68.4800 272.0000 1.0000
68.4900 250.0000 1.0000
68.5000 263.0000 1.0000
68.5100 264.0000 1.0000
68.5200 247.0000 1.0000
68.5300 247.0000 1.0000
68.5400 262.0000 1.0000
68.5500 271.0000 1.0000
68.5600 286.0000 1.0000
68.5700 255.0000 1.0000
68.5800 262.0000 1.0000
68.5900 251.0000 1.0000
68.6000 262.0000 1.0000
68.6100 260.0000 1.0000
68.6200 254.0000 1.0000
68.6300 256.0000 1.0000
68.6400 274.0000 1.0000
68.6500 263.0000 1.0000
68.6600 291.0000 1.0000
68.6700 261.0000 1.0000
68.6800 272.0000 1.0000
68.6900 260.0000 1.0000
68.7000 269.0000 1.0000
68.7100 274.0000 1.0000
68.7200 266.0000 1.0000
68.7300 249.0000 1.0000
68.7400 261.0000 1.0000
68.7500 245.0000 1.0000
68.7600 262.0000 1.0000
68.7700 285.0000 1.0000
68.7800 279.0000 1.0000
68.7900 245.0000 1.0000
68.8000 269.0000 1.0000
68.8100 263.0000 1.0000
68.8200 261.0000 1.0000
68.8300 282.0000 1.0000
68.8400 262.0000 1.0000
68.8500 257.0000 1.0000
68.8600 273.0000 1.0000
68.8700 277.0000 1.0000
68.8800 255.0000 1.0000
68.8900 262.0000 1.0000
68.9000 277.0000 1.0000
68.9100 257.0000 1.0000
68.9200 279.0000 1.0000
68.9300 289.0000 1.0000
68.9400 272.0000 1.0000
68.9500 289.0000 1.0000
68.9600 289.0000 1.0000
68.9700 253.0000 1.0000
68.9800 239.0000 1.0000
68.9900 262.0000 1.0000
69.0000 282.0000 1.0000
69.0100 274.0000 1.0000
69.0200 252.0000 1.0000
69.0300 243.0000 1.0000
69.0400 234.0000 1.0000
69.0500 262.0000 1.0000
69.0600 274.0000 1.0000
69.0700 252.0000 1.0000
69.0800 243.0000 1.0000
69.0900 273.0000 1.0000
69.1000 257.0000 1.0000
69.1100 265.0000 1.0000
69.1200 268.0000 1.0000
69.1300 246.0000 1.0000
69.1400 261.0000 1.0000
69.1500 227.0000 1.0000
69.1600 224.0000 1.0000
69.1700 229.0000 1.0000
69.1800 245.0000 1.0000
69.1900 257.0000 1.0000
69.2000 237.0000 1.0000
69.2100 276.0000 1.0000
69.2200 255.0000 1.0000
69.2300 235.0000 1.0000
69.2400 291.0000 1.0000
69.2500 251.0000 1.0000
69.2600 238.0000 1.0000
69.2700 244.0000 1.0000
69.2800 234.0000 1.0000
69.2900 251.0000 1.0000
69.3000 245.0000 1.0000
69.3100 272.0000 1.0000
69.3200 265.0000 1.0000
69.3300 278.0000 1.0000
69.3400 258.0000 1.0000
69.3500 229.0000 1.0000
69.3600 254.0000 1.0000
69.3700 279.0000 1.0000
69.3800 267.0000 1.0000
69.3900 258.0000 1.0000
69.4000 259.0000 1.0000
69.4100 257.0000 1.0000
69.4200 282.0000 1.0000
69.4300 255.0000 1.0000
69.4400 225.0000 1.0000
69.4500 260.0000 1.0000
69.4600 253.0000 1.0000
69.4700 238.0000 1.0000
69.4800 255.0000 1.0000
69.4900 296.0000 1.0000
69.5000 262.0000 1.0000
69.5100 289.0000 1.0000
69.5200 248.0000 1.0000
69.5300 257.0000 1.0000
69.5400 233.0000 1.0000
69.5500 268.0000 1.0000
69.5600 258.0000 1.0000
69.5700 236.0000 1.0000
69.5800 236.0000 1.0000
69.5900 243.0000 1.0000
69.6000 261.0000 1.0000
69.6100 252.0000 1.0000
69.6200 252.0000 1.0000
69.6300 272.0000 1.0000
69.6400 244.0000 1.0000
69.6500 251.0000 1.0000
69.6600 248.0000 1.0000
69.6700 234.0000 1.0000
69.6800 259.0000 1.0000
69.6900 250.0000 1.0000
69.7000 272.0000 1.0000
69.7100 237.0000 1.0000
69.7200 261.0000 1.0000
69.7300 271.0000 1.0000
69.7400 262.0000 1.0000
69.7500 267.0000 1.0000
69.7600 256.0000 1.0000
69.7700 277.0000 1.0000
69.7800 259.0000 1.0000
69.7900 267.0000 1.0000
69.8000 281.0000 1.0000
69.8100 240.0000 1.0000
69.8200 248.0000 1.0000
69.8300 267.0000 1.0000
69.8400 230.0000 1.0000
69.8500 253.0000 1.0000
69.8600 269.0000 1.0000
69.8700 236.0000 1.0000
69.8800 246.0000 1.0000
69.8900 233.0000 1.0000
69.9000 225.0000 1.0000
69.9100 252.0000 1.0000
69.9200 289.0000 1.0000
69.9300 254.0000 1.0000
69.9400 271.0000 1.0000
69.9500 265.0000 1.0000
69.9600 263.0000 1.0000
69.9700 245.0000 1.0000
69.9800 258.0000 1.0000
69.9900 258.0000 1.0000
70.0000 242.0000 1.0000
*RAS_INT_END
*RAS_TEMPERATURE_START
*RAS_TEMPERATURE_END
*RAS_DATA_END
