*RAS_DATA_START
*RAS_HEADER_START
*DISP_FMT_X "%.2f"
*DISP_FMT_Y "%.0f"
*DISP_FULLSCALE "13705.0000000000"
*DISP_LINE_COLOR "255.0000000000"
*DISP_LINE_STYLE "0.0000000000"
*DISP_LINE_WIDTH "0.2500000000"
*DISP_NOTE "測定データ-3"
*DISP_OFFSET_Y "0.0000000000"
*DISP_PEAKSEARCH_UNIT_Y "cps"
*DISP_RANGE_BOTTOM "0.0000000000"
*DISP_RANGE_LEFT "20.0000000000"
*DISP_RANGE_LOGCUTOFF "0.0100000000"
*DISP_RANGE_RIGHT "70.0000000000"
*DISP_RANGE_TOP "13705.0000000000"
*DISP_SCALE_MODE_Y "0.0000000000"
*DISP_TAB_NAME "2θ/θ"
*DISP_TITLE_Y "強度"
*DISP_UNIT_Y "cps"
*DISP_WINDOW_NAME "MSG_MACROENGINE"
*FILE_COMMENT " "
*FILE_MD5 ""
*FILE_MEMO " "
*FILE_OPERATOR "Administrator"
*FILE_SAMPLE " "
*FILE_TYPE "RAS_RAW"
*FILE_USERGROUP "システムマネージャ"
*FILE_VERSION "1.0000000000"
*HW_ATTACHMENT_ID "ATT0025"
*HW_ATTACHMENT_NAME "標準|Standard"
*HW_COUNTER_ID-0 "CUT0025"
*HW_COUNTER_ID-1 "CUT0020"
*HW_COUNTER_ID-2 "CUT0020"
*HW_COUNTER_ID-3 "CSL0021"
*HW_COUNTER_ID-4 "CMC0021"
*HW_COUNTER_NAME-0 "D/teX Ultra|D/teX Ultra"
*HW_COUNTER_NAME-1 "None|None"
*HW_COUNTER_NAME-2 "None|None"
*HW_COUNTER_NAME-3 "BBM|BBM"
*HW_COUNTER_NAME-4 "検出器モノクロメータ|Detector monochromator"
*HW_COUNTER_SELECT_NAME "D/teX Ultra|D/teX Ultra"
*HW_GONIOMETER_ID "GON0023"
*HW_GONIOMETER_NAME "SmartLab|SmartLab"
*HW_GONIOMETER_RADIUS-0 "90.0"
*HW_GONIOMETER_RADIUS-1 "114.0"
*HW_GONIOMETER_RADIUS-2 "190.0"
*HW_GONIOMETER_RADIUS-3 "300.0"
*HW_GONIOMETER_RADIUS-4 "187.0"
*HW_GONIOMETER_RADIUS-5 "300.0"
*HW_GONIOMETER_RADIUS-6 "113.0"
*HW_GONIOMETER_RADIUS-7 "331.0"
*HW_I_OPT_ID-0 "CBO0021"
*HW_I_OPT_ID-1 "ICR0023"
*HW_I_OPT_ID-2 "ISL0021"
*HW_I_OPT_ID-3 "ISO0021"
*HW_I_OPT_ID-4 "IAD0021"
*HW_I_OPT_ID-5 "IPR0001"
*HW_I_OPT_NAME-0 "CBOユニット|CBO unit"
*HW_I_OPT_NAME-1 "標準入射光学ユニット|Standard incident optical unit"
*HW_I_OPT_NAME-2 "標準入射スリットボックス|Standard incident slit box"
*HW_I_OPT_NAME-3 "入射平行スリット|Incident parallel slit"
*HW_I_OPT_NAME-4 "長手制限スリット|Length limiting slit"
*HW_I_OPT_NAME-5 "None|None"
*HW_R_ATTENUATER_AUTOMODE "0"
*HW_R_OPT_ID-0 "RSS0021"
*HW_R_OPT_ID-1 "RCR0023"
*HW_R_OPT_ID-2 "RSO0021"
*HW_R_OPT_ID-3 "RRS0021"
*HW_R_OPT_ID-4 "ATN0021"
*HW_R_OPT_ID-5 "RFL0021"
*HW_R_OPT_ID-6 "RAD0021"
*HW_R_OPT_NAME-0 "標準受光スリットボックス1|Standard receiving slit box # 1"
*HW_R_OPT_NAME-1 "標準受光光学ユニット1|Standard receiving unit # 1"
*HW_R_OPT_NAME-2 "標準受光光学ユニット2|Standard receiving optical unit # 2"
*HW_R_OPT_NAME-3 "標準受光スリットボックス2|Standard receiving slit box # 2"
*HW_R_OPT_NAME-4 "標準アッテネータ|Standard Attenuator"
*HW_R_OPT_NAME-5 "Cu Kβ|Cu K-beta"
*HW_R_OPT_NAME-6 "調整用受光スリット|Alignment receiving slit"
*HW_SAMPLE_HOLDER_ID "SMP0023"
*HW_SAMPLE_HOLDER_NAME "標準Zステージ|Standard Z stage"
*HW_XG_CURRENT_MAX "50"
*HW_XG_CURRENT_MIN "2"
*HW_XG_CURRENT_RESOLUTION "1"
*HW_XG_CURRENT_UNIT "mA"
*HW_XG_FOCUS "1mm x 10mm"
*HW_XG_FOCUS_TYPE "Normal"
*HW_XG_ID ""
*HW_XG_NAME "3kW 封入管(ID:1200)|3kW Sealed tube(ID:1200)"
*HW_XG_TARGET_ATOMIC_NUMBER "29.0000000000"
*HW_XG_TARGET_NAME "Cu"
*HW_XG_TYPE "Hermetic"
*HW_XG_VOLTAGE_MAX "60"
*HW_XG_VOLTAGE_MIN "20"
*HW_XG_VOLTAGE_RESOLUTION "1"
*HW_XG_VOLTAGE_UNIT "kV"
*HW_XG_WATT_MAX "1.500"
*HW_XG_WATT_UNIT "kW"
*HW_XG_WAVE_LENGTH_ALPHA1 "1.540593"
*HW_XG_WAVE_LENGTH_ALPHA2 "1.544414"
*HW_XG_WAVE_LENGTH_BETA "1.392250"
*MEAS_COND_AXIS_NAME-0 "2θ/θ"
*MEAS_COND_AXIS_NAME-1 "2θ"
*MEAS_COND_AXIS_NAME-2 "ω"
*MEAS_COND_AXIS_NAME-3 "Z"
*MEAS_COND_AXIS_NAME-4 "2θ/ω"
*MEAS_COND_AXIS_NAME-5 "θs"
*MEAS_COND_AXIS_NAME-6 "θd"
*MEAS_COND_AXIS_NAME-7 "Ts"
*MEAS_COND_AXIS_NAME-8 "CBO選択スリット"
*MEAS_COND_AXIS_NAME-9 "M"
*MEAS_COND_AXIS_NAME-10 "入射平行スリット"
*MEAS_COND_AXIS_NAME-11 "入射スリット"
*MEAS_COND_AXIS_NAME-12 ""
*MEAS_COND_AXIS_NAME-13 "Zs"
*MEAS_COND_AXIS_NAME-14 "入射光学素子"
*MEAS_COND_AXIS_NAME-15 "長手制限スリット"
*MEAS_COND_AXIS_NAME-16 "センタースリット"
*MEAS_COND_AXIS_NAME-17 "フィルター"
*MEAS_COND_AXIS_NAME-18 "受光スリット1"
*MEAS_COND_AXIS_NAME-19 "受光スリット2"
*MEAS_COND_AXIS_NAME-20 "受光光学素子"
*MEAS_COND_AXIS_NAME-21 "受光平行スリット"
*MEAS_COND_AXIS_NAME-22 "調整用受光スリット"
*MEAS_COND_AXIS_NAME-23 ""
*MEAS_COND_AXIS_NAME-24 ""
*MEAS_COND_AXIS_NAME-25 "Zd"
*MEAS_COND_AXIS_NAME-26 "アッテネータ"
*MEAS_COND_AXIS_NAME-27 "検出器モノクロメータ"
*MEAS_COND_AXIS_NAME-28 "モノクロメータスリット"
*MEAS_COND_AXIS_NAME-29 "プライマリビーム"
*MEAS_COND_AXIS_NAME-30 "PHA"
*MEAS_COND_AXIS_NAME_INTERNAL-0 "TwoThetaTheta"
*MEAS_COND_AXIS_NAME_INTERNAL-1 "TwoTheta"
*MEAS_COND_AXIS_NAME_INTERNAL-2 "Omega"
*MEAS_COND_AXIS_NAME_INTERNAL-3 "Z"
*MEAS_COND_AXIS_NAME_INTERNAL-4 "TwoThetaOmega"
*MEAS_COND_AXIS_NAME_INTERNAL-5 "ThetaS"
*MEAS_COND_AXIS_NAME_INTERNAL-6 "ThetaD"
*MEAS_COND_AXIS_NAME_INTERNAL-7 "Ts"
*MEAS_COND_AXIS_NAME_INTERNAL-8 "CBO"
*MEAS_COND_AXIS_NAME_INTERNAL-9 "CBO-M"
*MEAS_COND_AXIS_NAME_INTERNAL-10 "IncidentSollerSlit"
*MEAS_COND_AXIS_NAME_INTERNAL-11 "IncidentSlitBox"
*MEAS_COND_AXIS_NAME_INTERNAL-12 "IncidentSlitBox-_Axis"
*MEAS_COND_AXIS_NAME_INTERNAL-13 "Zs"
*MEAS_COND_AXIS_NAME_INTERNAL-14 "IncidentMonochromator"
*MEAS_COND_AXIS_NAME_INTERNAL-15 "IncidentAxdSlit"
*MEAS_COND_AXIS_NAME_INTERNAL-16 "CenterSlit"
*MEAS_COND_AXIS_NAME_INTERNAL-17 "Filter"
*MEAS_COND_AXIS_NAME_INTERNAL-18 "ReceivingSlitBox1"
*MEAS_COND_AXIS_NAME_INTERNAL-19 "ReceivingSlitBox2"
*MEAS_COND_AXIS_NAME_INTERNAL-20 "ReceivingOptics"
*MEAS_COND_AXIS_NAME_INTERNAL-21 "ReceivingSollerSlit"
*MEAS_COND_AXIS_NAME_INTERNAL-22 "ReceivingAxdSlit"
*MEAS_COND_AXIS_NAME_INTERNAL-23 "ReceivingSlitBox1-_Axis"
*MEAS_COND_AXIS_NAME_INTERNAL-24 "ReceivingSlitBox2-_Axis"
*MEAS_COND_AXIS_NAME_INTERNAL-25 "ReceivingSlitBox2-Zd"
*MEAS_COND_AXIS_NAME_INTERNAL-26 "Attenuator"
*MEAS_COND_AXIS_NAME_INTERNAL-27 "CounterMonochromator"
*MEAS_COND_AXIS_NAME_INTERNAL-28 "CounterSlit"
*MEAS_COND_AXIS_NAME_INTERNAL-29 "IncidentPrimary"
*MEAS_COND_AXIS_NAME_INTERNAL-30 "PHA"
*MEAS_COND_AXIS_NAME_MAGICNO-0 "83951616.0000000000"
*MEAS_COND_AXIS_NAME_MAGICNO-1 "268632064.0000000000"
*MEAS_COND_AXIS_NAME_MAGICNO-2 "268500992.0000000000"
*MEAS_COND_AXIS_NAME_MAGICNO-3 "285278208.0000000000"
*MEAS_COND_AXIS_NAME_MAGICNO-4 "83951616.0000000000"
*MEAS_COND_AXIS_NAME_MAGICNO-5 "131072.0000000000"
*MEAS_COND_AXIS_NAME_MAGICNO-6 "131072.0000000000"
*MEAS_COND_AXIS_NAME_MAGICNO-7 "318898176.0000000000"
*MEAS_COND_AXIS_NAME_MAGICNO-8 "20971521.0000000000"
*MEAS_COND_AXIS_NAME_MAGICNO-9 "285343744.0000000000"
*MEAS_COND_AXIS_NAME_MAGICNO-10 "20971521.0000000000"
*MEAS_COND_AXIS_NAME_MAGICNO-11 "22020097.0000000000"
*MEAS_COND_AXIS_NAME_MAGICNO-12 "25165824.0000000000"
*MEAS_COND_AXIS_NAME_MAGICNO-13 "318898176.0000000000"
*MEAS_COND_AXIS_NAME_MAGICNO-14 "1.0000000000"
*MEAS_COND_AXIS_NAME_MAGICNO-15 "20971521.0000000000"
*MEAS_COND_AXIS_NAME_MAGICNO-16 "20971521.0000000000"
*MEAS_COND_AXIS_NAME_MAGICNO-17 "20971521.0000000000"
*MEAS_COND_AXIS_NAME_MAGICNO-18 "23068673.0000000000"
*MEAS_COND_AXIS_NAME_MAGICNO-19 "23068673.0000000000"
*MEAS_COND_AXIS_NAME_MAGICNO-20 "20971521.0000000000"
*MEAS_COND_AXIS_NAME_MAGICNO-21 "20971521.0000000000"
*MEAS_COND_AXIS_NAME_MAGICNO-22 "20971521.0000000000"
*MEAS_COND_AXIS_NAME_MAGICNO-23 "25165824.0000000000"
*MEAS_COND_AXIS_NAME_MAGICNO-24 "25165824.0000000000"
*MEAS_COND_AXIS_NAME_MAGICNO-25 "285343744.0000000000"
*MEAS_COND_AXIS_NAME_MAGICNO-26 "17301505.0000000000"
*MEAS_COND_AXIS_NAME_MAGICNO-27 "20971521.0000000000"
*MEAS_COND_AXIS_NAME_MAGICNO-28 "20971521.0000000000"
*MEAS_COND_AXIS_NAME_MAGICNO-29 "20971521.0000000000"
*MEAS_COND_AXIS_NAME_MAGICNO-30 "0.0000000000"
*MEAS_COND_AXIS_OFFSET-0 "-"
*MEAS_COND_AXIS_OFFSET-1 "-0.0310000000"
*MEAS_COND_AXIS_OFFSET-2 "0.5056000000"
*MEAS_COND_AXIS_OFFSET-3 "-"
*MEAS_COND_AXIS_OFFSET-4 "-"
*MEAS_COND_AXIS_OFFSET-5 "0.5056000000"
*MEAS_COND_AXIS_OFFSET-6 "-0.5366000000"
*MEAS_COND_AXIS_OFFSET-7 "-"
*MEAS_COND_AXIS_OFFSET-8 "-"
*MEAS_COND_AXIS_OFFSET-9 "-"
*MEAS_COND_AXIS_OFFSET-10 "-"
*MEAS_COND_AXIS_OFFSET-11 "-"
*MEAS_COND_AXIS_OFFSET-12 "-"
*MEAS_COND_AXIS_OFFSET-13 "-"
*MEAS_COND_AXIS_OFFSET-14 "-"
*MEAS_COND_AXIS_OFFSET-15 "-"
*MEAS_COND_AXIS_OFFSET-16 "-"
*MEAS_COND_AXIS_OFFSET-17 "-"
*MEAS_COND_AXIS_OFFSET-18 "-"
*MEAS_COND_AXIS_OFFSET-19 "-"
*MEAS_COND_AXIS_OFFSET-20 "-"
*MEAS_COND_AXIS_OFFSET-21 "-"
*MEAS_COND_AXIS_OFFSET-22 "-"
*MEAS_COND_AXIS_OFFSET-23 "-"
*MEAS_COND_AXIS_OFFSET-24 "-"
*MEAS_COND_AXIS_OFFSET-25 "-"
*MEAS_COND_AXIS_OFFSET-26 "-"
*MEAS_COND_AXIS_OFFSET-27 "-"
*MEAS_COND_AXIS_OFFSET-28 "-"
*MEAS_COND_AXIS_OFFSET-29 "-"
*MEAS_COND_AXIS_OFFSET-30 "-"
*MEAS_COND_AXIS_POSITION-0 "0.0000000000"
*MEAS_COND_AXIS_POSITION-1 "0.0000000000"
*MEAS_COND_AXIS_POSITION-2 "0.0000000000"
*MEAS_COND_AXIS_POSITION-3 "-2.9031400000"
*MEAS_COND_AXIS_POSITION-4 "0.0000000000"
*MEAS_COND_AXIS_POSITION-5 "0.0000000000"
*MEAS_COND_AXIS_POSITION-6 "0.0000000000"
*MEAS_COND_AXIS_POSITION-7 "-0.7498700000"
*MEAS_COND_AXIS_POSITION-8 "BB"
*MEAS_COND_AXIS_POSITION-9 "0.0000000000"
*MEAS_COND_AXIS_POSITION-10 "Soller_slit_5.0deg"
*MEAS_COND_AXIS_POSITION-11 "2/3deg"
*MEAS_COND_AXIS_POSITION-12 "2.2088000000"
*MEAS_COND_AXIS_POSITION-13 "-0.6412500000"
*MEAS_COND_AXIS_POSITION-14 "0.0000000000"
*MEAS_COND_AXIS_POSITION-15 "10.0mm"
*MEAS_COND_AXIS_POSITION-16 "None"
*MEAS_COND_AXIS_POSITION-17 "Cu_K-beta"
*MEAS_COND_AXIS_POSITION-18 "13.000mm"
*MEAS_COND_AXIS_POSITION-19 "13.000mm"
*MEAS_COND_AXIS_POSITION-20 "No_unit"
*MEAS_COND_AXIS_POSITION-21 "Soller_slit_5.0deg"
*MEAS_COND_AXIS_POSITION-22 "None"
*MEAS_COND_AXIS_POSITION-23 "13.0000000000"
*MEAS_COND_AXIS_POSITION-24 "13.0000000000"
*MEAS_COND_AXIS_POSITION-25 "0.0281300000"
*MEAS_COND_AXIS_POSITION-26 "Open"
*MEAS_COND_AXIS_POSITION-27 "None"
*MEAS_COND_AXIS_POSITION-28 "None"
*MEAS_COND_AXIS_POSITION-29 "None"
*MEAS_COND_AXIS_POSITION-30 "38.0000000000"
*MEAS_COND_AXIS_UNIT-0 "deg"
*MEAS_COND_AXIS_UNIT-1 "deg"
*MEAS_COND_AXIS_UNIT-2 "deg"
*MEAS_COND_AXIS_UNIT-3 "mm"
*MEAS_COND_AXIS_UNIT-4 "deg"
*MEAS_COND_AXIS_UNIT-5 "deg"
*MEAS_COND_AXIS_UNIT-6 "deg"
*MEAS_COND_AXIS_UNIT-7 "mm"
*MEAS_COND_AXIS_UNIT-8 ""
*MEAS_COND_AXIS_UNIT-9 "pulse"
*MEAS_COND_AXIS_UNIT-10 ""
*MEAS_COND_AXIS_UNIT-11 ""
*MEAS_COND_AXIS_UNIT-12 "mm"
*MEAS_COND_AXIS_UNIT-13 "mm"
*MEAS_COND_AXIS_UNIT-14 ""
*MEAS_COND_AXIS_UNIT-15 ""
*MEAS_COND_AXIS_UNIT-16 ""
*MEAS_COND_AXIS_UNIT-17 ""
*MEAS_COND_AXIS_UNIT-18 ""
*MEAS_COND_AXIS_UNIT-19 ""
*MEAS_COND_AXIS_UNIT-20 ""
*MEAS_COND_AXIS_UNIT-21 ""
*MEAS_COND_AXIS_UNIT-22 ""
*MEAS_COND_AXIS_UNIT-23 "mm"
*MEAS_COND_AXIS_UNIT-24 "mm"
*MEAS_COND_AXIS_UNIT-25 "mm"
*MEAS_COND_AXIS_UNIT-26 ""
*MEAS_COND_AXIS_UNIT-27 ""
*MEAS_COND_AXIS_UNIT-28 ""
*MEAS_COND_AXIS_UNIT-29 ""
*MEAS_COND_AXIS_UNIT-30 "div"
*MEAS_COND_COUNTER_CNTLOSS_CORR "0.0000000000"
*MEAS_COND_COUNTER_PHABASE "38.0000000000"
*MEAS_COND_COUNTER_PHAWINDOW "16.0000000000"
*MEAS_COND_COUNTER_PHA_UNIT "div"
*MEAS_COND_COUNTER_TAUDIFF "30.0000000000"
*MEAS_COND_COUNTER_TAUINT "0.0000000000"
*MEAS_COND_IRRADIATION_MODE "OFF"
*MEAS_COND_IRRADIATION_WIDTH ""
*MEAS_COND_OPT_ATTR "集中法"
*MEAS_COND_OPT_NAME "@集中法"
*MEAS_COND_UNSYMMETRIC_MODE "OFF"
*MEAS_COND_XG_CURRENT "30.0000000000"
*MEAS_COND_XG_VOLTAGE "40.0000000000"
*MEAS_COND_XG_WAVE_TYPE "Ka"
*MEAS_DATA_COUNT "5001.0000000000"
*MEAS_SCAN_AXIS_X "2θ/θ"
*MEAS_SCAN_AXIS_X_INTERNAL "TwoThetaTheta"
*MEAS_SCAN_END_TIME "07/27/23 20:27:35"
*MEAS_SCAN_MODE "CONTINUOUS"
*MEAS_SCAN_MONITOR "0"
*MEAS_SCAN_RESOLUTION_X "0.0002"
*MEAS_SCAN_SPEED "2.5"
*MEAS_SCAN_SPEED_UNIT "deg/min"
*MEAS_SCAN_START "20.0000000000"
*MEAS_SCAN_START_TIME "07/27/23 20:06:11"
*MEAS_SCAN_STEP "0.0100000000"
*MEAS_SCAN_STOP "70.0000000000"
*MEAS_SCAN_UNIT_X "deg"
*MEAS_SCAN_UNIT_Y "counts"
*RAS_HEADER_END
*RAS_INT_START
20.0000 967.0000 1.0000
20.0100 917.0000 1.0000
20.0200 872.0000 1.0000
20.0300 914.0000 1.0000
20.0400 965.0000 1.0000
20.0500 993.0000 1.0000
20.0600 981.0000 1.0000
20.0700 935.0000 1.0000
20.0800 927.0000 1.0000
20.0900 907.0000 1.0000
20.1000 929.0000 1.0000
20.1100 979.0000 1.0000
20.1200 965.0000 1.0000
20.1300 970.0000 1.0000
20.1400 985.0000 1.0000
20.1500 952.0000 1.0000
20.1600 954.0000 1.0000
20.1700 978.0000 1.0000
20.1800 953.0000 1.0000
20.1900 920.0000 1.0000
20.2000 964.0000 1.0000
20.2100 941.0000 1.0000
20.2200 930.0000 1.0000
20.2300 984.0000 1.0000
20.2400 970.0000 1.0000
20.2500 975.0000 1.0000
20.2600 946.0000 1.0000
20.2700 902.0000 1.0000
20.2800 891.0000 1.0000
20.2900 924.0000 1.0000
20.3000 883.0000 1.0000
20.3100 948.0000 1.0000
20.3200 940.0000 1.0000
20.3300 974.0000 1.0000
20.3400 959.0000 1.0000
20.3500 917.0000 1.0000
20.3600 930.0000 1.0000
20.3700 912.0000 1.0000
20.3800 914.0000 1.0000
20.3900 910.0000 1.0000
20.4000 940.0000 1.0000
20.4100 962.0000 1.0000
20.4200 976.0000 1.0000
20.4300 908.0000 1.0000
20.4400 886.0000 1.0000
20.4500 896.0000 1.0000
20.4600 943.0000 1.0000
20.4700 884.0000 1.0000
20.4800 860.0000 1.0000
20.4900 903.0000 1.0000
20.5000 963.0000 1.0000
20.5100 937.0000 1.0000
20.5200 959.0000 1.0000
20.5300 945.0000 1.0000
20.5400 912.0000 1.0000
20.5500 970.0000 1.0000
20.5600 970.0000 1.0000
20.5700 906.0000 1.0000
20.5800 943.0000 1.0000
20.5900 904.0000 1.0000
20.6000 920.0000 1.0000
20.6100 929.0000 1.0000
20.6200 954.0000 1.0000
20.6300 933.0000 1.0000
20.6400 930.0000 1.0000
20.6500 941.0000 1.0000
20.6600 906.0000 1.0000
20.6700 919.0000 1.0000
20.6800 917.0000 1.0000
20.6900 952.0000 1.0000
20.7000 937.0000 1.0000
20.7100 926.0000 1.0000
20.7200 936.0000 1.0000
20.7300 924.0000 1.0000
20.7400 911.0000 1.0000
20.7500 972.0000 1.0000
20.7600 925.0000 1.0000
20.7700 856.0000 1.0000
20.7800 910.0000 1.0000
20.7900 908.0000 1.0000
20.8000 971.0000 1.0000
20.8100 924.0000 1.0000
20.8200 942.0000 1.0000
20.8300 899.0000 1.0000
20.8400 921.0000 1.0000
20.8500 929.0000 1.0000
20.8600 936.0000 1.0000
20.8700 903.0000 1.0000
20.8800 885.0000 1.0000
20.8900 888.0000 1.0000
20.9000 933.0000 1.0000
20.9100 867.0000 1.0000
20.9200 929.0000 1.0000
20.9300 893.0000 1.0000
20.9400 911.0000 1.0000
20.9500 923.0000 1.0000
20.9600 957.0000 1.0000
20.9700 934.0000 1.0000
20.9800 947.0000 1.0000
20.9900 950.0000 1.0000
21.0000 960.0000 1.0000
21.0100 902.0000 1.0000
21.0200 870.0000 1.0000
21.0300 919.0000 1.0000
21.0400 925.0000 1.0000
21.0500 896.0000 1.0000
21.0600 906.0000 1.0000
21.0700 916.0000 1.0000
21.0800 883.0000 1.0000
21.0900 847.0000 1.0000
21.1000 859.0000 1.0000
21.1100 976.0000 1.0000
21.1200 942.0000 1.0000
21.1300 933.0000 1.0000
21.1400 890.0000 1.0000
21.1500 910.0000 1.0000
21.1600 888.0000 1.0000
21.1700 878.0000 1.0000
21.1800 935.0000 1.0000
21.1900 983.0000 1.0000
21.2000 872.0000 1.0000
21.2100 937.0000 1.0000
21.2200 907.0000 1.0000
21.2300 947.0000 1.0000
21.2400 905.0000 1.0000
21.2500 964.0000 1.0000
21.2600 943.0000 1.0000
21.2700 918.0000 1.0000
21.2800 907.0000 1.0000
21.2900 914.0000 1.0000
21.3000 918.0000 1.0000
21.3100 896.0000 1.0000
21.3200 941.0000 1.0000
21.3300 887.0000 1.0000
21.3400 887.0000 1.0000
21.3500 873.0000 1.0000
21.3600 859.0000 1.0000
21.3700 855.0000 1.0000
21.3800 895.0000 1.0000
21.3900 888.0000 1.0000
21.4000 930.0000 1.0000
21.4100 900.0000 1.0000
21.4200 896.0000 1.0000
21.4300 888.0000 1.0000
21.4400 945.0000 1.0000
21.4500 842.0000 1.0000
21.4600 919.0000 1.0000
21.4700 951.0000 1.0000
21.4800 943.0000 1.0000
21.4900 940.0000 1.0000
21.5000 940.0000 1.0000
21.5100 897.0000 1.0000
21.5200 922.0000 1.0000
21.5300 903.0000 1.0000
21.5400 929.0000 1.0000
21.5500 874.0000 1.0000
21.5600 885.0000 1.0000
21.5700 922.0000 1.0000
21.5800 910.0000 1.0000
21.5900 836.0000 1.0000
21.6000 894.0000 1.0000
21.6100 895.0000 1.0000
21.6200 889.0000 1.0000
21.6300 873.0000 1.0000
21.6400 888.0000 1.0000
21.6500 938.0000 1.0000
21.6600 899.0000 1.0000
21.6700 923.0000 1.0000
21.6800 890.0000 1.0000
21.6900 913.0000 1.0000
21.7000 942.0000 1.0000
21.7100 913.0000 1.0000
21.7200 893.0000 1.0000
21.7300 879.0000 1.0000
21.7400 874.0000 1.0000
21.7500 876.0000 1.0000
21.7600 901.0000 1.0000
21.7700 901.0000 1.0000
21.7800 915.0000 1.0000
21.7900 901.0000 1.0000
21.8000 912.0000 1.0000
21.8100 898.0000 1.0000
21.8200 889.0000 1.0000
21.8300 862.0000 1.0000
21.8400 906.0000 1.0000
21.8500 946.0000 1.0000
21.8600 860.0000 1.0000
21.8700 851.0000 1.0000
21.8800 841.0000 1.0000
21.8900 886.0000 1.0000
21.9000 918.0000 1.0000
21.9100 859.0000 1.0000
21.9200 909.0000 1.0000
21.9300 879.0000 1.0000
21.9400 888.0000 1.0000
21.9500 842.0000 1.0000
21.9600 885.0000 1.0000
21.9700 863.0000 1.0000
21.9800 924.0000 1.0000
21.9900 925.0000 1.0000
22.0000 861.0000 1.0000
22.0100 909.0000 1.0000
22.0200 899.0000 1.0000
22.0300 937.0000 1.0000
22.0400 858.0000 1.0000
22.0500 884.0000 1.0000
22.0600 892.0000 1.0000
22.0700 906.0000 1.0000
22.0800 848.0000 1.0000
22.0900 911.0000 1.0000
22.1000 920.0000 1.0000
22.1100 866.0000 1.0000
22.1200 876.0000 1.0000
22.1300 862.0000 1.0000
22.1400 910.0000 1.0000
22.1500 864.0000 1.0000
22.1600 893.0000 1.0000
22.1700 895.0000 1.0000
22.1800 921.0000 1.0000
22.1900 931.0000 1.0000
22.2000 922.0000 1.0000
22.2100 860.0000 1.0000
22.2200 922.0000 1.0000
22.2300 891.0000 1.0000
22.2400 883.0000 1.0000
22.2500 913.0000 1.0000
22.2600 878.0000 1.0000
22.2700 900.0000 1.0000
22.2800 897.0000 1.0000
22.2900 899.0000 1.0000
22.3000 931.0000 1.0000
22.3100 914.0000 1.0000
22.3200 912.0000 1.0000
22.3300 878.0000 1.0000
22.3400 865.0000 1.0000
22.3500 895.0000 1.0000
22.3600 903.0000 1.0000
22.3700 890.0000 1.0000
22.3800 956.0000 1.0000
22.3900 938.0000 1.0000
22.4000 903.0000 1.0000
22.4100 890.0000 1.0000
22.4200 882.0000 1.0000
22.4300 843.0000 1.0000
22.4400 883.0000 1.0000
22.4500 829.0000 1.0000
22.4600 874.0000 1.0000
22.4700 847.0000 1.0000
22.4800 941.0000 1.0000
22.4900 891.0000 1.0000
22.5000 873.0000 1.0000
22.5100 874.0000 1.0000
22.5200 850.0000 1.0000
22.5300 852.0000 1.0000
22.5400 865.0000 1.0000
22.5500 881.0000 1.0000
22.5600 866.0000 1.0000
22.5700 864.0000 1.0000
22.5800 866.0000 1.0000
22.5900 894.0000 1.0000
22.6000 874.0000 1.0000
22.6100 889.0000 1.0000
22.6200 837.0000 1.0000
22.6300 835.0000 1.0000
22.6400 904.0000 1.0000
22.6500 894.0000 1.0000
22.6600 822.0000 1.0000
22.6700 882.0000 1.0000
22.6800 868.0000 1.0000
22.6900 886.0000 1.0000
22.7000 852.0000 1.0000
22.7100 839.0000 1.0000
22.7200 877.0000 1.0000
22.7300 864.0000 1.0000
22.7400 875.0000 1.0000
22.7500 900.0000 1.0000
22.7600 919.0000 1.0000
22.7700 921.0000 1.0000
22.7800 854.0000 1.0000
22.7900 881.0000 1.0000
22.8000 891.0000 1.0000
22.8100 859.0000 1.0000
22.8200 905.0000 1.0000
22.8300 910.0000 1.0000
22.8400 908.0000 1.0000
22.8500 861.0000 1.0000
22.8600 905.0000 1.0000
22.8700 851.0000 1.0000
22.8800 874.0000 1.0000
22.8900 879.0000 1.0000
22.9000 904.0000 1.0000
22.9100 868.0000 1.0000
22.9200 901.0000 1.0000
22.9300 838.0000 1.0000
22.9400 891.0000 1.0000
22.9500 862.0000 1.0000
22.9600 857.0000 1.0000
22.9700 907.0000 1.0000
22.9800 906.0000 1.0000
22.9900 875.0000 1.0000
23.0000 851.0000 1.0000
23.0100 883.0000 1.0000
23.0200 904.0000 1.0000
23.0300 869.0000 1.0000
23.0400 822.0000 1.0000
23.0500 876.0000 1.0000
23.0600 870.0000 1.0000
23.0700 891.0000 1.0000
23.0800 824.0000 1.0000
23.0900 827.0000 1.0000
23.1000 915.0000 1.0000
23.1100 860.0000 1.0000
23.1200 851.0000 1.0000
23.1300 906.0000 1.0000
23.1400 887.0000 1.0000
23.1500 881.0000 1.0000
23.1600 885.0000 1.0000
23.1700 862.0000 1.0000
23.1800 834.0000 1.0000
23.1900 921.0000 1.0000
23.2000 875.0000 1.0000
23.2100 883.0000 1.0000
23.2200 908.0000 1.0000
23.2300 914.0000 1.0000
23.2400 859.0000 1.0000
23.2500 844.0000 1.0000
23.2600 854.0000 1.0000
23.2700 900.0000 1.0000
23.2800 892.0000 1.0000
23.2900 889.0000 1.0000
23.3000 892.0000 1.0000
23.3100 908.0000 1.0000
23.3200 846.0000 1.0000
23.3300 923.0000 1.0000
23.3400 893.0000 1.0000
23.3500 889.0000 1.0000
23.3600 877.0000 1.0000
23.3700 793.0000 1.0000
23.3800 845.0000 1.0000
23.3900 894.0000 1.0000
23.4000 882.0000 1.0000
23.4100 857.0000 1.0000
23.4200 907.0000 1.0000
23.4300 941.0000 1.0000
23.4400 913.0000 1.0000
23.4500 822.0000 1.0000
23.4600 836.0000 1.0000
23.4700 833.0000 1.0000
23.4800 841.0000 1.0000
23.4900 868.0000 1.0000
23.5000 815.0000 1.0000
23.5100 851.0000 1.0000
23.5200 877.0000 1.0000
23.5300 873.0000 1.0000
23.5400 894.0000 1.0000
23.5500 868.0000 1.0000
23.5600 861.0000 1.0000
23.5700 837.0000 1.0000
23.5800 873.0000 1.0000
23.5900 874.0000 1.0000
23.6000 850.0000 1.0000
23.6100 842.0000 1.0000
23.6200 853.0000 1.0000
23.6300 874.0000 1.0000
23.6400 892.0000 1.0000
23.6500 868.0000 1.0000
23.6600 881.0000 1.0000
23.6700 936.0000 1.0000
23.6800 881.0000 1.0000
23.6900 887.0000 1.0000
23.7000 894.0000 1.0000
23.7100 866.0000 1.0000
23.7200 843.0000 1.0000
23.7300 838.0000 1.0000
23.7400 916.0000 1.0000
23.7500 864.0000 1.0000
23.7600 905.0000 1.0000
23.7700 896.0000 1.0000
23.7800 860.0000 1.0000
23.7900 872.0000 1.0000
23.8000 858.0000 1.0000
23.8100 847.0000 1.0000
23.8200 860.0000 1.0000
23.8300 846.0000 1.0000
23.8400 921.0000 1.0000
23.8500 849.0000 1.0000
23.8600 915.0000 1.0000
23.8700 860.0000 1.0000
23.8800 925.0000 1.0000
23.8900 915.0000 1.0000
23.9000 916.0000 1.0000
23.9100 895.0000 1.0000
23.9200 897.0000 1.0000
23.9300 952.0000 1.0000
23.9400 923.0000 1.0000
23.9500 932.0000 1.0000
23.9600 949.0000 1.0000
23.9700 935.0000 1.0000
23.9800 899.0000 1.0000
23.9900 935.0000 1.0000
24.0000 915.0000 1.0000
24.0100 1033.0000 1.0000
24.0200 984.0000 1.0000
24.0300 966.0000 1.0000
24.0400 931.0000 1.0000
24.0500 1006.0000 1.0000
24.0600 1045.0000 1.0000
24.0700 1038.0000 1.0000
24.0800 1026.0000 1.0000
24.0900 1014.0000 1.0000
24.1000 985.0000 1.0000
24.1100 1030.0000 1.0000
24.1200 971.0000 1.0000
24.1300 926.0000 1.0000
24.1400 969.0000 1.0000
24.1500 951.0000 1.0000
24.1600 955.0000 1.0000
24.1700 922.0000 1.0000
24.1800 906.0000 1.0000
24.1900 963.0000 1.0000
24.2000 907.0000 1.0000
24.2100 872.0000 1.0000
24.2200 920.0000 1.0000
24.2300 886.0000 1.0000
24.2400 948.0000 1.0000
24.2500 906.0000 1.0000
24.2600 894.0000 1.0000
24.2700 882.0000 1.0000
24.2800 876.0000 1.0000
24.2900 921.0000 1.0000
24.3000 913.0000 1.0000
24.3100 904.0000 1.0000
24.3200 886.0000 1.0000
24.3300 861.0000 1.0000
24.3400 894.0000 1.0000
24.3500 838.0000 1.0000
24.3600 869.0000 1.0000
24.3700 888.0000 1.0000
24.3800 927.0000 1.0000
24.3900 874.0000 1.0000
24.4000 883.0000 1.0000
24.4100 875.0000 1.0000
24.4200 872.0000 1.0000
24.4300 844.0000 1.0000
24.4400 888.0000 1.0000
24.4500 875.0000 1.0000
24.4600 911.0000 1.0000
24.4700 920.0000 1.0000
24.4800 914.0000 1.0000
24.4900 898.0000 1.0000
24.5000 892.0000 1.0000
24.5100 827.0000 1.0000
24.5200 884.0000 1.0000
24.5300 882.0000 1.0000
24.5400 884.0000 1.0000
24.5500 869.0000 1.0000
24.5600 930.0000 1.0000
24.5700 863.0000 1.0000
24.5800 894.0000 1.0000
24.5900 850.0000 1.0000
24.6000 839.0000 1.0000
24.6100 867.0000 1.0000
24.6200 854.0000 1.0000
24.6300 863.0000 1.0000
24.6400 893.0000 1.0000
24.6500 908.0000 1.0000
24.6600 865.0000 1.0000
24.6700 809.0000 1.0000
24.6800 844.0000 1.0000
24.6900 837.0000 1.0000
24.7000 874.0000 1.0000
24.7100 843.0000 1.0000
24.7200 840.0000 1.0000
24.7300 842.0000 1.0000
24.7400 835.0000 1.0000
24.7500 858.0000 1.0000
24.7600 864.0000 1.0000
24.7700 854.0000 1.0000
24.7800 862.0000 1.0000
24.7900 872.0000 1.0000
24.8000 853.0000 1.0000
24.8100 854.0000 1.0000
24.8200 857.0000 1.0000
24.8300 920.0000 1.0000
24.8400 888.0000 1.0000
24.8500 880.0000 1.0000
24.8600 904.0000 1.0000
24.8700 847.0000 1.0000
24.8800 867.0000 1.0000
24.8900 898.0000 1.0000
24.9000 873.0000 1.0000
24.9100 854.0000 1.0000
24.9200 881.0000 1.0000
24.9300 866.0000 1.0000
24.9400 877.0000 1.0000
24.9500 879.0000 1.0000
24.9600 868.0000 1.0000
24.9700 880.0000 1.0000
24.9800 796.0000 1.0000
24.9900 853.0000 1.0000
25.0000 832.0000 1.0000
25.0100 845.0000 1.0000
25.0200 820.0000 1.0000
25.0300 828.0000 1.0000
25.0400 869.0000 1.0000
25.0500 881.0000 1.0000
25.0600 840.0000 1.0000
25.0700 833.0000 1.0000
25.0800 810.0000 1.0000
25.0900 859.0000 1.0000
25.1000 838.0000 1.0000
25.1100 877.0000 1.0000
25.1200 849.0000 1.0000
25.1300 862.0000 1.0000
25.1400 867.0000 1.0000
25.1500 877.0000 1.0000
25.1600 800.0000 1.0000
25.1700 871.0000 1.0000
25.1800 888.0000 1.0000
25.1900 837.0000 1.0000
25.2000 830.0000 1.0000
25.2100 843.0000 1.0000
25.2200 814.0000 1.0000
25.2300 849.0000 1.0000
25.2400 849.0000 1.0000
25.2500 868.0000 1.0000
25.2600 861.0000 1.0000
25.2700 861.0000 1.0000
25.2800 847.0000 1.0000
25.2900 827.0000 1.0000
25.3000 844.0000 1.0000
25.3100 841.0000 1.0000
25.3200 886.0000 1.0000
25.3300 853.0000 1.0000
25.3400 876.0000 1.0000
25.3500 883.0000 1.0000
25.3600 869.0000 1.0000
25.3700 889.0000 1.0000
25.3800 846.0000 1.0000
25.3900 839.0000 1.0000
25.4000 869.0000 1.0000
25.4100 820.0000 1.0000
25.4200 796.0000 1.0000
25.4300 823.0000 1.0000
25.4400 864.0000 1.0000
25.4500 851.0000 1.0000
25.4600 828.0000 1.0000
25.4700 841.0000 1.0000
25.4800 939.0000 1.0000
25.4900 828.0000 1.0000
25.5000 836.0000 1.0000
25.5100 897.0000 1.0000
25.5200 842.0000 1.0000
25.5300 843.0000 1.0000
25.5400 872.0000 1.0000
25.5500 855.0000 1.0000
25.5600 853.0000 1.0000
25.5700 874.0000 1.0000
25.5800 868.0000 1.0000
25.5900 934.0000 1.0000
25.6000 888.0000 1.0000
25.6100 892.0000 1.0000
25.6200 883.0000 1.0000
25.6300 845.0000 1.0000
25.6400 873.0000 1.0000
25.6500 852.0000 1.0000
25.6600 907.0000 1.0000
25.6700 874.0000 1.0000
25.6800 848.0000 1.0000
25.6900 919.0000 1.0000
25.7000 894.0000 1.0000
25.7100 877.0000 1.0000
25.7200 912.0000 1.0000
25.7300 866.0000 1.0000
25.7400 865.0000 1.0000
25.7500 864.0000 1.0000
25.7600 882.0000 1.0000
25.7700 881.0000 1.0000
25.7800 890.0000 1.0000
25.7900 869.0000 1.0000
25.8000 865.0000 1.0000
25.8100 892.0000 1.0000
25.8200 870.0000 1.0000
25.8300 884.0000 1.0000
25.8400 918.0000 1.0000
25.8500 888.0000 1.0000
25.8600 886.0000 1.0000
25.8700 863.0000 1.0000
25.8800 878.0000 1.0000
25.8900 890.0000 1.0000
25.9000 917.0000 1.0000
25.9100 886.0000 1.0000
25.9200 886.0000 1.0000
25.9300 897.0000 1.0000
25.9400 872.0000 1.0000
25.9500 915.0000 1.0000
25.9600 934.0000 1.0000
25.9700 873.0000 1.0000
25.9800 926.0000 1.0000
25.9900 918.0000 1.0000
26.0000 928.0000 1.0000
26.0100 916.0000 1.0000
26.0200 850.0000 1.0000
26.0300 959.0000 1.0000
26.0400 936.0000 1.0000
26.0500 1027.0000 1.0000
26.0600 953.0000 1.0000
26.0700 1000.0000 1.0000
26.0800 974.0000 1.0000
26.0900 980.0000 1.0000
26.1000 1018.0000 1.0000
26.1100 1011.0000 1.0000
26.1200 975.0000 1.0000
26.1300 1023.0000 1.0000
26.1400 1015.0000 1.0000
26.1500 1057.0000 1.0000
26.1600 1065.0000 1.0000
26.1700 1095.0000 1.0000
26.1800 1072.0000 1.0000
26.1900 1105.0000 1.0000
26.2000 1145.0000 1.0000
26.2100 1184.0000 1.0000
26.2200 1161.0000 1.0000
26.2300 1236.0000 1.0000
26.2400 1297.0000 1.0000
26.2500 1255.0000 1.0000
26.2600 1404.0000 1.0000
26.2700 1342.0000 1.0000
26.2800 1389.0000 1.0000
26.2900 1481.0000 1.0000
26.3000 1508.0000 1.0000
26.3100 1591.0000 1.0000
26.3200 1642.0000 1.0000
26.3300 1766.0000 1.0000
26.3400 1832.0000 1.0000
26.3500 1988.0000 1.0000
26.3600 2076.0000 1.0000
26.3700 2191.0000 1.0000
26.3800 2243.0000 1.0000
26.3900 2367.0000 1.0000
26.4000 2493.0000 1.0000
26.4100 2447.0000 1.0000
26.4200 2548.0000 1.0000
26.4300 2741.0000 1.0000
26.4400 2630.0000 1.0000
26.4500 2498.0000 1.0000
26.4600 2523.0000 1.0000
26.4700 2400.0000 1.0000
26.4800 2315.0000 1.0000
26.4900 2296.0000 1.0000
26.5000 2246.0000 1.0000
26.5100 2042.0000 1.0000
26.5200 1984.0000 1.0000
26.5300 1901.0000 1.0000
26.5400 1768.0000 1.0000
26.5500 1721.0000 1.0000
26.5600 1653.0000 1.0000
26.5700 1524.0000 1.0000
26.5800 1470.0000 1.0000
26.5900 1383.0000 1.0000
26.6000 1329.0000 1.0000
26.6100 1370.0000 1.0000
26.6200 1312.0000 1.0000
26.6300 1220.0000 1.0000
26.6400 1174.0000 1.0000
26.6500 1161.0000 1.0000
26.6600 1149.0000 1.0000
26.6700 1140.0000 1.0000
26.6800 1126.0000 1.0000
26.6900 1127.0000 1.0000
26.7000 1047.0000 1.0000
26.7100 1048.0000 1.0000
26.7200 983.0000 1.0000
26.7300 996.0000 1.0000
26.7400 994.0000 1.0000
26.7500 980.0000 1.0000
26.7600 1003.0000 1.0000
26.7700 933.0000 1.0000
26.7800 899.0000 1.0000
26.7900 944.0000 1.0000
26.8000 915.0000 1.0000
26.8100 909.0000 1.0000
26.8200 945.0000 1.0000
26.8300 897.0000 1.0000
26.8400 883.0000 1.0000
26.8500 913.0000 1.0000
26.8600 924.0000 1.0000
26.8700 892.0000 1.0000
26.8800 880.0000 1.0000
26.8900 902.0000 1.0000
26.9000 883.0000 1.0000
26.9100 891.0000 1.0000
26.9200 904.0000 1.0000
26.9300 872.0000 1.0000
26.9400 857.0000 1.0000
26.9500 905.0000 1.0000
26.9600 893.0000 1.0000
26.9700 857.0000 1.0000
26.9800 801.0000 1.0000
26.9900 850.0000 1.0000
27.0000 927.0000 1.0000
27.0100 853.0000 1.0000
27.0200 879.0000 1.0000
27.0300 851.0000 1.0000
27.0400 829.0000 1.0000
27.0500 841.0000 1.0000
27.0600 848.0000 1.0000
27.0700 853.0000 1.0000
27.0800 836.0000 1.0000
27.0900 837.0000 1.0000
27.1000 863.0000 1.0000
27.1100 842.0000 1.0000
27.1200 843.0000 1.0000
27.1300 816.0000 1.0000
27.1400 875.0000 1.0000
27.1500 903.0000 1.0000
27.1600 877.0000 1.0000
27.1700 836.0000 1.0000
27.1800 835.0000 1.0000
27.1900 832.0000 1.0000
27.2000 852.0000 1.0000
27.2100 840.0000 1.0000
27.2200 839.0000 1.0000
27.2300 846.0000 1.0000
27.2400 837.0000 1.0000
27.2500 846.0000 1.0000
27.2600 835.0000 1.0000
27.2700 832.0000 1.0000
27.2800 778.0000 1.0000
27.2900 841.0000 1.0000
27.3000 849.0000 1.0000
27.3100 796.0000 1.0000
27.3200 808.0000 1.0000
27.3300 812.0000 1.0000
27.3400 829.0000 1.0000
27.3500 822.0000 1.0000
27.3600 790.0000 1.0000
27.3700 814.0000 1.0000
27.3800 835.0000 1.0000
27.3900 768.0000 1.0000
27.4000 800.0000 1.0000
27.4100 793.0000 1.0000
27.4200 794.0000 1.0000
27.4300 827.0000 1.0000
27.4400 776.0000 1.0000
27.4500 789.0000 1.0000
27.4600 809.0000 1.0000
27.4700 793.0000 1.0000
27.4800 795.0000 1.0000
27.4900 802.0000 1.0000
27.5000 812.0000 1.0000
27.5100 798.0000 1.0000
27.5200 807.0000 1.0000
27.5300 861.0000 1.0000
27.5400 813.0000 1.0000
27.5500 814.0000 1.0000
27.5600 771.0000 1.0000
27.5700 808.0000 1.0000
27.5800 783.0000 1.0000
27.5900 799.0000 1.0000
27.6000 788.0000 1.0000
27.6100 824.0000 1.0000
27.6200 835.0000 1.0000
27.6300 779.0000 1.0000
27.6400 761.0000 1.0000
27.6500 804.0000 1.0000
27.6600 802.0000 1.0000
27.6700 794.0000 1.0000
27.6800 776.0000 1.0000
27.6900 775.0000 1.0000
27.7000 753.0000 1.0000
27.7100 747.0000 1.0000
27.7200 797.0000 1.0000
27.7300 755.0000 1.0000
27.7400 801.0000 1.0000
27.7500 784.0000 1.0000
27.7600 803.0000 1.0000
27.7700 788.0000 1.0000
27.7800 746.0000 1.0000
27.7900 777.0000 1.0000
27.8000 782.0000 1.0000
27.8100 812.0000 1.0000
27.8200 802.0000 1.0000
27.8300 765.0000 1.0000
27.8400 829.0000 1.0000
27.8500 801.0000 1.0000
27.8600 835.0000 1.0000
27.8700 779.0000 1.0000
27.8800 764.0000 1.0000
27.8900 777.0000 1.0000
27.9000 762.0000 1.0000
27.9100 807.0000 1.0000
27.9200 753.0000 1.0000
27.9300 774.0000 1.0000
27.9400 778.0000 1.0000
27.9500 823.0000 1.0000
27.9600 764.0000 1.0000
27.9700 767.0000 1.0000
27.9800 768.0000 1.0000
27.9900 792.0000 1.0000
28.0000 815.0000 1.0000
28.0100 792.0000 1.0000
28.0200 778.0000 1.0000
28.0300 742.0000 1.0000
28.0400 765.0000 1.0000
28.0500 791.0000 1.0000
28.0600 801.0000 1.0000
28.0700 789.0000 1.0000
28.0800 800.0000 1.0000
28.0900 804.0000 1.0000
28.1000 794.0000 1.0000
28.1100 778.0000 1.0000
28.1200 760.0000 1.0000
28.1300 743.0000 1.0000
28.1400 786.0000 1.0000
28.1500 791.0000 1.0000
28.1600 757.0000 1.0000
28.1700 781.0000 1.0000
28.1800 773.0000 1.0000
28.1900 755.0000 1.0000
28.2000 756.0000 1.0000
28.2100 753.0000 1.0000
28.2200 817.0000 1.0000
28.2300 778.0000 1.0000
28.2400 793.0000 1.0000
28.2500 792.0000 1.0000
28.2600 753.0000 1.0000
28.2700 772.0000 1.0000
28.2800 764.0000 1.0000
28.2900 806.0000 1.0000
28.3000 798.0000 1.0000
28.3100 723.0000 1.0000
28.3200 743.0000 1.0000
28.3300 751.0000 1.0000
28.3400 774.0000 1.0000
28.3500 741.0000 1.0000
28.3600 771.0000 1.0000
28.3700 780.0000 1.0000
28.3800 787.0000 1.0000
28.3900 799.0000 1.0000
28.4000 770.0000 1.0000
28.4100 739.0000 1.0000
28.4200 712.0000 1.0000
28.4300 774.0000 1.0000
28.4400 767.0000 1.0000
28.4500 781.0000 1.0000
28.4600 811.0000 1.0000
28.4700 807.0000 1.0000
28.4800 761.0000 1.0000
28.4900 791.0000 1.0000
28.5000 727.0000 1.0000
28.5100 779.0000 1.0000
28.5200 735.0000 1.0000
28.5300 752.0000 1.0000
28.5400 712.0000 1.0000
28.5500 734.0000 1.0000
28.5600 767.0000 1.0000
28.5700 786.0000 1.0000
28.5800 710.0000 1.0000
28.5900 750.0000 1.0000
28.6000 777.0000 1.0000
28.6100 737.0000 1.0000
28.6200 722.0000 1.0000
28.6300 746.0000 1.0000
28.6400 785.0000 1.0000
28.6500 774.0000 1.0000
28.6600 727.0000 1.0000
28.6700 772.0000 1.0000
28.6800 744.0000 1.0000
28.6900 736.0000 1.0000
28.7000 770.0000 1.0000
28.7100 725.0000 1.0000
28.7200 784.0000 1.0000
28.7300 820.0000 1.0000
28.7400 786.0000 1.0000
28.7500 776.0000 1.0000
28.7600 766.0000 1.0000
28.7700 759.0000 1.0000
28.7800 773.0000 1.0000
28.7900 772.0000 1.0000
28.8000 775.0000 1.0000
28.8100 757.0000 1.0000
28.8200 727.0000 1.0000
28.8300 761.0000 1.0000
28.8400 747.0000 1.0000
28.8500 735.0000 1.0000
28.8600 748.0000 1.0000
28.8700 764.0000 1.0000
28.8800 755.0000 1.0000
28.8900 735.0000 1.0000
28.9000 713.0000 1.0000
28.9100 724.0000 1.0000
28.9200 815.0000 1.0000
28.9300 728.0000 1.0000
28.9400 747.0000 1.0000
28.9500 747.0000 1.0000
28.9600 768.0000 1.0000
28.9700 750.0000 1.0000
28.9800 733.0000 1.0000
28.9900 775.0000 1.0000
29.0000 725.0000 1.0000
29.0100 730.0000 1.0000
29.0200 769.0000 1.0000
29.0300 758.0000 1.0000
29.0400 748.0000 1.0000
29.0500 787.0000 1.0000
29.0600 768.0000 1.0000
29.0700 755.0000 1.0000
29.0800 764.0000 1.0000
29.0900 745.0000 1.0000
29.1000 749.0000 1.0000
29.1100 735.0000 1.0000
29.1200 789.0000 1.0000
29.1300 739.0000 1.0000
29.1400 734.0000 1.0000
29.1500 747.0000 1.0000
29.1600 756.0000 1.0000
29.1700 768.0000 1.0000
29.1800 734.0000 1.0000
29.1900 730.0000 1.0000
29.2000 755.0000 1.0000
29.2100 764.0000 1.0000
29.2200 754.0000 1.0000
29.2300 750.0000 1.0000
29.2400 730.0000 1.0000
29.2500 703.0000 1.0000
29.2600 721.0000 1.0000
29.2700 743.0000 1.0000
29.2800 742.0000 1.0000
29.2900 693.0000 1.0000
29.3000 749.0000 1.0000
29.3100 701.0000 1.0000
29.3200 751.0000 1.0000
29.3300 754.0000 1.0000
29.3400 770.0000 1.0000
29.3500 750.0000 1.0000
29.3600 769.0000 1.0000
29.3700 734.0000 1.0000
29.3800 733.0000 1.0000
29.3900 734.0000 1.0000
29.4000 712.0000 1.0000
29.4100 738.0000 1.0000
29.4200 729.0000 1.0000
29.4300 762.0000 1.0000
29.4400 738.0000 1.0000
29.4500 696.0000 1.0000
29.4600 742.0000 1.0000
29.4700 700.0000 1.0000
29.4800 707.0000 1.0000
29.4900 732.0000 1.0000
29.5000 721.0000 1.0000
29.5100 723.0000 1.0000
29.5200 722.0000 1.0000
29.5300 731.0000 1.0000
29.5400 717.0000 1.0000
29.5500 751.0000 1.0000
29.5600 736.0000 1.0000
29.5700 740.0000 1.0000
29.5800 745.0000 1.0000
29.5900 752.0000 1.0000
29.6000 752.0000 1.0000
29.6100 724.0000 1.0000
29.6200 686.0000 1.0000
29.6300 739.0000 1.0000
29.6400 782.0000 1.0000
29.6500 740.0000 1.0000
29.6600 742.0000 1.0000
29.6700 734.0000 1.0000
29.6800 735.0000 1.0000
29.6900 747.0000 1.0000
29.7000 717.0000 1.0000
29.7100 724.0000 1.0000
29.7200 667.0000 1.0000
29.7300 723.0000 1.0000
29.7400 758.0000 1.0000
29.7500 719.0000 1.0000
29.7600 743.0000 1.0000
29.7700 702.0000 1.0000
29.7800 707.0000 1.0000
29.7900 723.0000 1.0000
29.8000 704.0000 1.0000
29.8100 760.0000 1.0000
29.8200 715.0000 1.0000
29.8300 670.0000 1.0000
29.8400 740.0000 1.0000
29.8500 729.0000 1.0000
29.8600 720.0000 1.0000
29.8700 711.0000 1.0000
29.8800 767.0000 1.0000
29.8900 702.0000 1.0000
29.9000 723.0000 1.0000
29.9100 720.0000 1.0000
29.9200 752.0000 1.0000
29.9300 754.0000 1.0000
29.9400 756.0000 1.0000
29.9500 706.0000 1.0000
29.9600 794.0000 1.0000
29.9700 740.0000 1.0000
29.9800 758.0000 1.0000
29.9900 716.0000 1.0000
30.0000 764.0000 1.0000
30.0100 715.0000 1.0000
30.0200 740.0000 1.0000
30.0300 770.0000 1.0000
30.0400 682.0000 1.0000
30.0500 787.0000 1.0000
30.0600 771.0000 1.0000
30.0700 697.0000 1.0000
30.0800 710.0000 1.0000
30.0900 717.0000 1.0000
30.1000 714.0000 1.0000
30.1100 727.0000 1.0000
30.1200 700.0000 1.0000
30.1300 743.0000 1.0000
30.1400 724.0000 1.0000
30.1500 734.0000 1.0000
30.1600 749.0000 1.0000
30.1700 762.0000 1.0000
30.1800 733.0000 1.0000
30.1900 679.0000 1.0000
30.2000 685.0000 1.0000
30.2100 677.0000 1.0000
30.2200 714.0000 1.0000
30.2300 710.0000 1.0000
30.2400 739.0000 1.0000
30.2500 747.0000 1.0000
30.2600 695.0000 1.0000
30.2700 681.0000 1.0000
30.2800 696.0000 1.0000
30.2900 669.0000 1.0000
30.3000 723.0000 1.0000
30.3100 727.0000 1.0000
30.3200 736.0000 1.0000
30.3300 707.0000 1.0000
30.3400 685.0000 1.0000
30.3500 753.0000 1.0000
30.3600 707.0000 1.0000
30.3700 691.0000 1.0000
30.3800 711.0000 1.0000
30.3900 710.0000 1.0000
30.4000 733.0000 1.0000
30.4100 734.0000 1.0000
30.4200 697.0000 1.0000
30.4300 699.0000 1.0000
30.4400 712.0000 1.0000
30.4500 690.0000 1.0000
30.4600 674.0000 1.0000
30.4700 678.0000 1.0000
30.4800 693.0000 1.0000
30.4900 698.0000 1.0000
30.5000 716.0000 1.0000
30.5100 713.0000 1.0000
30.5200 710.0000 1.0000
30.5300 702.0000 1.0000
30.5400 692.0000 1.0000
30.5500 694.0000 1.0000
30.5600 712.0000 1.0000
30.5700 687.0000 1.0000
30.5800 718.0000 1.0000
30.5900 713.0000 1.0000
30.6000 720.0000 1.0000
30.6100 727.0000 1.0000
30.6200 707.0000 1.0000
30.6300 700.0000 1.0000
30.6400 704.0000 1.0000
30.6500 692.0000 1.0000
30.6600 698.0000 1.0000
30.6700 697.0000 1.0000
30.6800 702.0000 1.0000
30.6900 731.0000 1.0000
30.7000 698.0000 1.0000
30.7100 710.0000 1.0000
30.7200 723.0000 1.0000
30.7300 680.0000 1.0000
30.7400 741.0000 1.0000
30.7500 694.0000 1.0000
30.7600 697.0000 1.0000
30.7700 709.0000 1.0000
30.7800 727.0000 1.0000
30.7900 724.0000 1.0000
30.8000 684.0000 1.0000
30.8100 690.0000 1.0000
30.8200 691.0000 1.0000
30.8300 674.0000 1.0000
30.8400 710.0000 1.0000
30.8500 744.0000 1.0000
30.8600 704.0000 1.0000
30.8700 701.0000 1.0000
30.8800 715.0000 1.0000
30.8900 670.0000 1.0000
30.9000 686.0000 1.0000
30.9100 678.0000 1.0000
30.9200 675.0000 1.0000
30.9300 675.0000 1.0000
30.9400 689.0000 1.0000
30.9500 719.0000 1.0000
30.9600 686.0000 1.0000
30.9700 688.0000 1.0000
30.9800 697.0000 1.0000
30.9900 711.0000 1.0000
31.0000 692.0000 1.0000
31.0100 741.0000 1.0000
31.0200 725.0000 1.0000
31.0300 706.0000 1.0000
31.0400 686.0000 1.0000
31.0500 711.0000 1.0000
31.0600 721.0000 1.0000
31.0700 709.0000 1.0000
31.0800 694.0000 1.0000
31.0900 687.0000 1.0000
31.1000 707.0000 1.0000
31.1100 677.0000 1.0000
31.1200 691.0000 1.0000
31.1300 655.0000 1.0000
31.1400 673.0000 1.0000
31.1500 711.0000 1.0000
31.1600 673.0000 1.0000
31.1700 703.0000 1.0000
31.1800 683.0000 1.0000
31.1900 695.0000 1.0000
31.2000 692.0000 1.0000
31.2100 681.0000 1.0000
31.2200 712.0000 1.0000
31.2300 678.0000 1.0000
31.2400 654.0000 1.0000
31.2500 684.0000 1.0000
31.2600 692.0000 1.0000
31.2700 670.0000 1.0000
31.2800 680.0000 1.0000
31.2900 680.0000 1.0000
31.3000 675.0000 1.0000
31.3100 694.0000 1.0000
31.3200 674.0000 1.0000
31.3300 696.0000 1.0000
31.3400 700.0000 1.0000
31.3500 683.0000 1.0000
31.3600 640.0000 1.0000
31.3700 680.0000 1.0000
31.3800 688.0000 1.0000
31.3900 673.0000 1.0000
31.4000 658.0000 1.0000
31.4100 695.0000 1.0000
31.4200 707.0000 1.0000
31.4300 655.0000 1.0000
31.4400 669.0000 1.0000
31.4500 677.0000 1.0000
31.4600 686.0000 1.0000
31.4700 740.0000 1.0000
31.4800 690.0000 1.0000
31.4900 723.0000 1.0000
31.5000 696.0000 1.0000
31.5100 663.0000 1.0000
31.5200 665.0000 1.0000
31.5300 703.0000 1.0000
31.5400 710.0000 1.0000
31.5500 686.0000 1.0000
31.5600 674.0000 1.0000
31.5700 677.0000 1.0000
31.5800 690.0000 1.0000
31.5900 700.0000 1.0000
31.6000 682.0000 1.0000
31.6100 674.0000 1.0000
31.6200 672.0000 1.0000
31.6300 703.0000 1.0000
31.6400 655.0000 1.0000
31.6500 662.0000 1.0000
31.6600 653.0000 1.0000
31.6700 669.0000 1.0000
31.6800 694.0000 1.0000
31.6900 684.0000 1.0000
31.7000 666.0000 1.0000
31.7100 653.0000 1.0000
31.7200 686.0000 1.0000
31.7300 684.0000 1.0000
31.7400 663.0000 1.0000
31.7500 639.0000 1.0000
31.7600 681.0000 1.0000
31.7700 697.0000 1.0000
31.7800 665.0000 1.0000
31.7900 649.0000 1.0000
31.8000 660.0000 1.0000
31.8100 678.0000 1.0000
31.8200 702.0000 1.0000
31.8300 640.0000 1.0000
31.8400 642.0000 1.0000
31.8500 689.0000 1.0000
31.8600 661.0000 1.0000
31.8700 675.0000 1.0000
31.8800 673.0000 1.0000
31.8900 669.0000 1.0000
31.9000 700.0000 1.0000
31.9100 658.0000 1.0000
31.9200 685.0000 1.0000
31.9300 703.0000 1.0000
31.9400 703.0000 1.0000
31.9500 660.0000 1.0000
31.9600 674.0000 1.0000
31.9700 690.0000 1.0000
31.9800 664.0000 1.0000
31.9900 656.0000 1.0000
32.0000 649.0000 1.0000
32.0100 692.0000 1.0000
32.0200 683.0000 1.0000
32.0300 647.0000 1.0000
32.0400 680.0000 1.0000
32.0500 656.0000 1.0000
32.0600 669.0000 1.0000
32.0700 672.0000 1.0000
32.0800 688.0000 1.0000
32.0900 690.0000 1.0000
32.1000 658.0000 1.0000
32.1100 648.0000 1.0000
32.1200 644.0000 1.0000
32.1300 616.0000 1.0000
32.1400 670.0000 1.0000
32.1500 689.0000 1.0000
32.1600 674.0000 1.0000
32.1700 663.0000 1.0000
32.1800 645.0000 1.0000
32.1900 658.0000 1.0000
32.2000 660.0000 1.0000
32.2100 657.0000 1.0000
32.2200 614.0000 1.0000
32.2300 673.0000 1.0000
32.2400 671.0000 1.0000
32.2500 652.0000 1.0000
32.2600 650.0000 1.0000
32.2700 675.0000 1.0000
32.2800 657.0000 1.0000
32.2900 667.0000 1.0000
32.3000 635.0000 1.0000
32.3100 603.0000 1.0000
32.3200 658.0000 1.0000
32.3300 663.0000 1.0000
32.3400 694.0000 1.0000
32.3500 687.0000 1.0000
32.3600 671.0000 1.0000
32.3700 651.0000 1.0000
32.3800 670.0000 1.0000
32.3900 658.0000 1.0000
32.4000 678.0000 1.0000
32.4100 678.0000 1.0000
32.4200 679.0000 1.0000
32.4300 662.0000 1.0000
32.4400 679.0000 1.0000
32.4500 680.0000 1.0000
32.4600 652.0000 1.0000
32.4700 641.0000 1.0000
32.4800 624.0000 1.0000
32.4900 661.0000 1.0000
32.5000 705.0000 1.0000
32.5100 661.0000 1.0000
32.5200 683.0000 1.0000
32.5300 638.0000 1.0000
32.5400 647.0000 1.0000
32.5500 661.0000 1.0000
32.5600 678.0000 1.0000
32.5700 627.0000 1.0000
32.5800 667.0000 1.0000
32.5900 641.0000 1.0000
32.6000 680.0000 1.0000
32.6100 678.0000 1.0000
32.6200 694.0000 1.0000
32.6300 634.0000 1.0000
32.6400 646.0000 1.0000
32.6500 680.0000 1.0000
32.6600 623.0000 1.0000
32.6700 652.0000 1.0000
32.6800 649.0000 1.0000
32.6900 677.0000 1.0000
32.7000 670.0000 1.0000
32.7100 643.0000 1.0000
32.7200 670.0000 1.0000
32.7300 666.0000 1.0000
32.7400 678.0000 1.0000
32.7500 668.0000 1.0000
32.7600 699.0000 1.0000
32.7700 631.0000 1.0000
32.7800 605.0000 1.0000
32.7900 676.0000 1.0000
32.8000 695.0000 1.0000
32.8100 711.0000 1.0000
32.8200 683.0000 1.0000
32.8300 637.0000 1.0000
32.8400 660.0000 1.0000
32.8500 696.0000 1.0000
32.8600 687.0000 1.0000
32.8700 709.0000 1.0000
32.8800 664.0000 1.0000
32.8900 722.0000 1.0000
32.9000 686.0000 1.0000
32.9100 713.0000 1.0000
32.9200 700.0000 1.0000
32.9300 700.0000 1.0000
32.9400 718.0000 1.0000
32.9500 761.0000 1.0000
32.9600 728.0000 1.0000
32.9700 773.0000 1.0000
32.9800 736.0000 1.0000
32.9900 764.0000 1.0000
33.0000 831.0000 1.0000
33.0100 798.0000 1.0000
33.0200 786.0000 1.0000
33.0300 838.0000 1.0000
33.0400 849.0000 1.0000
33.0500 873.0000 1.0000
33.0600 901.0000 1.0000
33.0700 871.0000 1.0000
33.0800 906.0000 1.0000
33.0900 860.0000 1.0000
33.1000 880.0000 1.0000
33.1100 858.0000 1.0000
33.1200 896.0000 1.0000
33.1300 871.0000 1.0000
33.1400 842.0000 1.0000
33.1500 853.0000 1.0000
33.1600 829.0000 1.0000
33.1700 822.0000 1.0000
33.1800 748.0000 1.0000
33.1900 784.0000 1.0000
33.2000 777.0000 1.0000
33.2100 800.0000 1.0000
33.2200 762.0000 1.0000
33.2300 759.0000 1.0000
33.2400 732.0000 1.0000
33.2500 715.0000 1.0000
33.2600 753.0000 1.0000
33.2700 754.0000 1.0000
33.2800 725.0000 1.0000
33.2900 732.0000 1.0000
33.3000 728.0000 1.0000
33.3100 702.0000 1.0000
33.3200 739.0000 1.0000
33.3300 749.0000 1.0000
33.3400 697.0000 1.0000
33.3500 719.0000 1.0000
33.3600 724.0000 1.0000
33.3700 755.0000 1.0000
33.3800 761.0000 1.0000
33.3900 777.0000 1.0000
33.4000 774.0000 1.0000
33.4100 786.0000 1.0000
33.4200 846.0000 1.0000
33.4300 768.0000 1.0000
33.4400 806.0000 1.0000
33.4500 801.0000 1.0000
33.4600 796.0000 1.0000
33.4700 835.0000 1.0000
33.4800 877.0000 1.0000
33.4900 904.0000 1.0000
33.5000 905.0000 1.0000
33.5100 897.0000 1.0000
33.5200 972.0000 1.0000
33.5300 1077.0000 1.0000
33.5400 1080.0000 1.0000
33.5500 1057.0000 1.0000
33.5600 1130.0000 1.0000
33.5700 1208.0000 1.0000
33.5800 1252.0000 1.0000
33.5900 1305.0000 1.0000
33.6000 1349.0000 1.0000
33.6100 1348.0000 1.0000
33.6200 1407.0000 1.0000
33.6300 1433.0000 1.0000
33.6400 1396.0000 1.0000
33.6500 1472.0000 1.0000
33.6600 1417.0000 1.0000
33.6700 1374.0000 1.0000
33.6800 1397.0000 1.0000
33.6900 1307.0000 1.0000
33.7000 1306.0000 1.0000
33.7100 1242.0000 1.0000
33.7200 1191.0000 1.0000
33.7300 1236.0000 1.0000
33.7400 1135.0000 1.0000
33.7500 1104.0000 1.0000
33.7600 1080.0000 1.0000
33.7700 1008.0000 1.0000
33.7800 999.0000 1.0000
33.7900 986.0000 1.0000
33.8000 918.0000 1.0000
33.8100 868.0000 1.0000
33.8200 867.0000 1.0000
33.8300 903.0000 1.0000
33.8400 854.0000 1.0000
33.8500 817.0000 1.0000
33.8600 786.0000 1.0000
33.8700 728.0000 1.0000
33.8800 730.0000 1.0000
33.8900 762.0000 1.0000
33.9000 731.0000 1.0000
33.9100 820.0000 1.0000
33.9200 749.0000 1.0000
33.9300 776.0000 1.0000
33.9400 732.0000 1.0000
33.9500 715.0000 1.0000
33.9600 724.0000 1.0000
33.9700 694.0000 1.0000
33.9800 710.0000 1.0000
33.9900 719.0000 1.0000
34.0000 676.0000 1.0000
34.0100 698.0000 1.0000
34.0200 671.0000 1.0000
34.0300 706.0000 1.0000
34.0400 703.0000 1.0000
34.0500 665.0000 1.0000
34.0600 651.0000 1.0000
34.0700 639.0000 1.0000
34.0800 648.0000 1.0000
34.0900 633.0000 1.0000
34.1000 622.0000 1.0000
34.1100 610.0000 1.0000
34.1200 648.0000 1.0000
34.1300 656.0000 1.0000
34.1400 653.0000 1.0000
34.1500 674.0000 1.0000
34.1600 650.0000 1.0000
34.1700 654.0000 1.0000
34.1800 636.0000 1.0000
34.1900 632.0000 1.0000
34.2000 633.0000 1.0000
34.2100 654.0000 1.0000
34.2200 635.0000 1.0000
34.2300 636.0000 1.0000
34.2400 650.0000 1.0000
34.2500 635.0000 1.0000
34.2600 620.0000 1.0000
34.2700 624.0000 1.0000
34.2800 607.0000 1.0000
34.2900 626.0000 1.0000
34.3000 627.0000 1.0000
34.3100 582.0000 1.0000
34.3200 602.0000 1.0000
34.3300 621.0000 1.0000
34.3400 658.0000 1.0000
34.3500 633.0000 1.0000
34.3600 610.0000 1.0000
34.3700 618.0000 1.0000
34.3800 653.0000 1.0000
34.3900 644.0000 1.0000
34.4000 622.0000 1.0000
34.4100 651.0000 1.0000
34.4200 626.0000 1.0000
34.4300 565.0000 1.0000
34.4400 590.0000 1.0000
34.4500 587.0000 1.0000
34.4600 586.0000 1.0000
34.4700 621.0000 1.0000
34.4800 633.0000 1.0000
34.4900 609.0000 1.0000
34.5000 611.0000 1.0000
34.5100 583.0000 1.0000
34.5200 610.0000 1.0000
34.5300 612.0000 1.0000
34.5400 591.0000 1.0000
34.5500 634.0000 1.0000
34.5600 581.0000 1.0000
34.5700 573.0000 1.0000
34.5800 590.0000 1.0000
34.5900 585.0000 1.0000
34.6000 600.0000 1.0000
34.6100 605.0000 1.0000
34.6200 627.0000 1.0000
34.6300 606.0000 1.0000
34.6400 618.0000 1.0000
34.6500 571.0000 1.0000
34.6600 625.0000 1.0000
34.6700 584.0000 1.0000
34.6800 556.0000 1.0000
34.6900 589.0000 1.0000
34.7000 594.0000 1.0000
34.7100 541.0000 1.0000
34.7200 546.0000 1.0000
34.7300 584.0000 1.0000
34.7400 592.0000 1.0000
34.7500 624.0000 1.0000
34.7600 572.0000 1.0000
34.7700 634.0000 1.0000
34.7800 588.0000 1.0000
34.7900 561.0000 1.0000
34.8000 597.0000 1.0000
34.8100 594.0000 1.0000
34.8200 627.0000 1.0000
34.8300 634.0000 1.0000
34.8400 623.0000 1.0000
34.8500 560.0000 1.0000
34.8600 605.0000 1.0000
34.8700 618.0000 1.0000
34.8800 604.0000 1.0000
34.8900 597.0000 1.0000
34.9000 577.0000 1.0000
34.9100 580.0000 1.0000
34.9200 588.0000 1.0000
34.9300 566.0000 1.0000
34.9400 581.0000 1.0000
34.9500 558.0000 1.0000
34.9600 596.0000 1.0000
34.9700 610.0000 1.0000
34.9800 593.0000 1.0000
34.9900 581.0000 1.0000
35.0000 617.0000 1.0000
35.0100 582.0000 1.0000
35.0200 582.0000 1.0000
35.0300 571.0000 1.0000
35.0400 596.0000 1.0000
35.0500 598.0000 1.0000
35.0600 574.0000 1.0000
35.0700 554.0000 1.0000
35.0800 594.0000 1.0000
35.0900 593.0000 1.0000
35.1000 576.0000 1.0000
35.1100 599.0000 1.0000
35.1200 581.0000 1.0000
35.1300 603.0000 1.0000
35.1400 589.0000 1.0000
35.1500 543.0000 1.0000
35.1600 603.0000 1.0000
35.1700 569.0000 1.0000
35.1800 590.0000 1.0000
35.1900 607.0000 1.0000
35.2000 621.0000 1.0000
35.2100 575.0000 1.0000
35.2200 600.0000 1.0000
35.2300 607.0000 1.0000
35.2400 589.0000 1.0000
35.2500 587.0000 1.0000
35.2600 588.0000 1.0000
35.2700 636.0000 1.0000
35.2800 631.0000 1.0000
35.2900 617.0000 1.0000
35.3000 678.0000 1.0000
35.3100 627.0000 1.0000
35.3200 662.0000 1.0000
35.3300 660.0000 1.0000
35.3400 682.0000 1.0000
35.3500 715.0000 1.0000
35.3600 718.0000 1.0000
35.3700 705.0000 1.0000
35.3800 672.0000 1.0000
35.3900 734.0000 1.0000
35.4000 780.0000 1.0000
35.4100 752.0000 1.0000
35.4200 816.0000 1.0000
35.4300 817.0000 1.0000
35.4400 832.0000 1.0000
35.4500 887.0000 1.0000
35.4600 964.0000 1.0000
35.4700 1052.0000 1.0000
35.4800 1085.0000 1.0000
35.4900 1108.0000 1.0000
35.5000 1142.0000 1.0000
35.5100 1198.0000 1.0000
35.5200 1343.0000 1.0000
35.5300 1401.0000 1.0000
35.5400 1439.0000 1.0000
35.5500 1476.0000 1.0000
35.5600 1464.0000 1.0000
35.5700 1530.0000 1.0000
35.5800 1426.0000 1.0000
35.5900 1428.0000 1.0000
35.6000 1350.0000 1.0000
35.6100 1260.0000 1.0000
35.6200 1280.0000 1.0000
35.6300 1171.0000 1.0000
35.6400 1212.0000 1.0000
35.6500 1108.0000 1.0000
35.6600 1105.0000 1.0000
35.6700 1068.0000 1.0000
35.6800 974.0000 1.0000
35.6900 912.0000 1.0000
35.7000 875.0000 1.0000
35.7100 803.0000 1.0000
35.7200 831.0000 1.0000
35.7300 780.0000 1.0000
35.7400 702.0000 1.0000
35.7500 711.0000 1.0000
35.7600 663.0000 1.0000
35.7700 693.0000 1.0000
35.7800 665.0000 1.0000
35.7900 596.0000 1.0000
35.8000 616.0000 1.0000
35.8100 635.0000 1.0000
35.8200 598.0000 1.0000
35.8300 587.0000 1.0000
35.8400 638.0000 1.0000
35.8500 565.0000 1.0000
35.8600 601.0000 1.0000
35.8700 584.0000 1.0000
35.8800 590.0000 1.0000
35.8900 577.0000 1.0000
35.9000 598.0000 1.0000
35.9100 564.0000 1.0000
35.9200 535.0000 1.0000
35.9300 532.0000 1.0000
35.9400 603.0000 1.0000
35.9500 606.0000 1.0000
35.9600 563.0000 1.0000
35.9700 547.0000 1.0000
35.9800 549.0000 1.0000
35.9900 548.0000 1.0000
36.0000 556.0000 1.0000
36.0100 561.0000 1.0000
36.0200 559.0000 1.0000
36.0300 526.0000 1.0000
36.0400 570.0000 1.0000
36.0500 572.0000 1.0000
36.0600 586.0000 1.0000
36.0700 552.0000 1.0000
36.0800 577.0000 1.0000
36.0900 568.0000 1.0000
36.1000 545.0000 1.0000
36.1100 549.0000 1.0000
36.1200 530.0000 1.0000
36.1300 547.0000 1.0000
36.1400 577.0000 1.0000
36.1500 539.0000 1.0000
36.1600 539.0000 1.0000
36.1700 543.0000 1.0000
36.1800 569.0000 1.0000
36.1900 583.0000 1.0000
36.2000 599.0000 1.0000
36.2100 566.0000 1.0000
36.2200 539.0000 1.0000
36.2300 555.0000 1.0000
36.2400 532.0000 1.0000
36.2500 489.0000 1.0000
36.2600 536.0000 1.0000
36.2700 536.0000 1.0000
36.2800 549.0000 1.0000
36.2900 547.0000 1.0000
36.3000 544.0000 1.0000
36.3100 545.0000 1.0000
36.3200 522.0000 1.0000
36.3300 574.0000 1.0000
36.3400 580.0000 1.0000
36.3500 535.0000 1.0000
36.3600 569.0000 1.0000
36.3700 562.0000 1.0000
36.3800 562.0000 1.0000
36.3900 558.0000 1.0000
36.4000 535.0000 1.0000
36.4100 545.0000 1.0000
36.4200 562.0000 1.0000
36.4300 546.0000 1.0000
36.4400 570.0000 1.0000
36.4500 593.0000 1.0000
36.4600 566.0000 1.0000
36.4700 515.0000 1.0000
36.4800 553.0000 1.0000
36.4900 510.0000 1.0000
36.5000 505.0000 1.0000
36.5100 524.0000 1.0000
36.5200 509.0000 1.0000
36.5300 512.0000 1.0000
36.5400 563.0000 1.0000
36.5500 560.0000 1.0000
36.5600 545.0000 1.0000
36.5700 521.0000 1.0000
36.5800 515.0000 1.0000
36.5900 552.0000 1.0000
36.6000 508.0000 1.0000
36.6100 528.0000 1.0000
36.6200 539.0000 1.0000
36.6300 546.0000 1.0000
36.6400 563.0000 1.0000
36.6500 547.0000 1.0000
36.6600 521.0000 1.0000
36.6700 511.0000 1.0000
36.6800 543.0000 1.0000
36.6900 534.0000 1.0000
36.7000 571.0000 1.0000
36.7100 569.0000 1.0000
36.7200 516.0000 1.0000
36.7300 539.0000 1.0000
36.7400 554.0000 1.0000
36.7500 537.0000 1.0000
36.7600 534.0000 1.0000
36.7700 531.0000 1.0000
36.7800 526.0000 1.0000
36.7900 536.0000 1.0000
36.8000 566.0000 1.0000
36.8100 530.0000 1.0000
36.8200 544.0000 1.0000
36.8300 540.0000 1.0000
36.8400 585.0000 1.0000
36.8500 541.0000 1.0000
36.8600 528.0000 1.0000
36.8700 544.0000 1.0000
36.8800 514.0000 1.0000
36.8900 581.0000 1.0000
36.9000 554.0000 1.0000
36.9100 549.0000 1.0000
36.9200 519.0000 1.0000
36.9300 527.0000 1.0000
36.9400 530.0000 1.0000
36.9500 565.0000 1.0000
36.9600 550.0000 1.0000
36.9700 541.0000 1.0000
36.9800 489.0000 1.0000
36.9900 507.0000 1.0000
37.0000 520.0000 1.0000
37.0100 550.0000 1.0000
37.0200 550.0000 1.0000
37.0300 556.0000 1.0000
37.0400 533.0000 1.0000
37.0500 540.0000 1.0000
37.0600 530.0000 1.0000
37.0700 519.0000 1.0000
37.0800 575.0000 1.0000
37.0900 546.0000 1.0000
37.1000 544.0000 1.0000
37.1100 580.0000 1.0000
37.1200 534.0000 1.0000
37.1300 583.0000 1.0000
37.1400 564.0000 1.0000
37.1500 537.0000 1.0000
37.1600 560.0000 1.0000
37.1700 532.0000 1.0000
37.1800 549.0000 1.0000
37.1900 586.0000 1.0000
37.2000 575.0000 1.0000
37.2100 556.0000 1.0000
37.2200 574.0000 1.0000
37.2300 566.0000 1.0000
37.2400 594.0000 1.0000
37.2500 563.0000 1.0000
37.2600 572.0000 1.0000
37.2700 578.0000 1.0000
37.2800 579.0000 1.0000
37.2900 584.0000 1.0000
37.3000 589.0000 1.0000
37.3100 621.0000 1.0000
37.3200 607.0000 1.0000
37.3300 623.0000 1.0000
37.3400 579.0000 1.0000
37.3500 568.0000 1.0000
37.3600 613.0000 1.0000
37.3700 604.0000 1.0000
37.3800 627.0000 1.0000
37.3900 695.0000 1.0000
37.4000 697.0000 1.0000
37.4100 681.0000 1.0000
37.4200 674.0000 1.0000
37.4300 742.0000 1.0000
37.4400 732.0000 1.0000
37.4500 740.0000 1.0000
37.4600 823.0000 1.0000
37.4700 803.0000 1.0000
37.4800 843.0000 1.0000
37.4900 866.0000 1.0000
37.5000 872.0000 1.0000
37.5100 941.0000 1.0000
37.5200 1010.0000 1.0000
37.5300 1026.0000 1.0000
37.5400 1043.0000 1.0000
37.5500 1152.0000 1.0000
37.5600 1192.0000 1.0000
37.5700 1253.0000 1.0000
37.5800 1322.0000 1.0000
37.5900 1417.0000 1.0000
37.6000 1451.0000 1.0000
37.6100 1562.0000 1.0000
37.6200 1747.0000 1.0000
37.6300 1710.0000 1.0000
37.6400 1753.0000 1.0000
37.6500 1892.0000 1.0000
37.6600 1920.0000 1.0000
37.6700 2008.0000 1.0000
37.6800 2003.0000 1.0000
37.6900 2080.0000 1.0000
37.7000 2084.0000 1.0000
37.7100 2000.0000 1.0000
37.7200 2072.0000 1.0000
37.7300 2005.0000 1.0000
37.7400 2004.0000 1.0000
37.7500 1978.0000 1.0000
37.7600 1892.0000 1.0000
37.7700 1835.0000 1.0000
37.7800 1808.0000 1.0000
37.7900 1728.0000 1.0000
37.8000 1584.0000 1.0000
37.8100 1546.0000 1.0000
37.8200 1453.0000 1.0000
37.8300 1338.0000 1.0000
37.8400 1358.0000 1.0000
37.8500 1257.0000 1.0000
37.8600 1170.0000 1.0000
37.8700 1106.0000 1.0000
37.8800 1084.0000 1.0000
37.8900 1014.0000 1.0000
37.9000 954.0000 1.0000
37.9100 902.0000 1.0000
37.9200 876.0000 1.0000
37.9300 846.0000 1.0000
37.9400 815.0000 1.0000
37.9500 768.0000 1.0000
37.9600 745.0000 1.0000
37.9700 734.0000 1.0000
37.9800 763.0000 1.0000
37.9900 693.0000 1.0000
38.0000 649.0000 1.0000
38.0100 623.0000 1.0000
38.0200 603.0000 1.0000
38.0300 670.0000 1.0000
38.0400 635.0000 1.0000
38.0500 634.0000 1.0000
38.0600 610.0000 1.0000
38.0700 585.0000 1.0000
38.0800 570.0000 1.0000
38.0900 555.0000 1.0000
38.1000 560.0000 1.0000
38.1100 571.0000 1.0000
38.1200 551.0000 1.0000
38.1300 574.0000 1.0000
38.1400 569.0000 1.0000
38.1500 511.0000 1.0000
38.1600 554.0000 1.0000
38.1700 573.0000 1.0000
38.1800 558.0000 1.0000
38.1900 529.0000 1.0000
38.2000 520.0000 1.0000
38.2100 514.0000 1.0000
38.2200 544.0000 1.0000
38.2300 542.0000 1.0000
38.2400 520.0000 1.0000
38.2500 513.0000 1.0000
38.2600 521.0000 1.0000
38.2700 522.0000 1.0000
38.2800 497.0000 1.0000
38.2900 517.0000 1.0000
38.3000 509.0000 1.0000
38.3100 519.0000 1.0000
38.3200 540.0000 1.0000
38.3300 531.0000 1.0000
38.3400 516.0000 1.0000
38.3500 502.0000 1.0000
38.3600 496.0000 1.0000
38.3700 531.0000 1.0000
38.3800 544.0000 1.0000
38.3900 535.0000 1.0000
38.4000 524.0000 1.0000
38.4100 486.0000 1.0000
38.4200 478.0000 1.0000
38.4300 476.0000 1.0000
38.4400 520.0000 1.0000
38.4500 454.0000 1.0000
38.4600 465.0000 1.0000
38.4700 493.0000 1.0000
38.4800 473.0000 1.0000
38.4900 490.0000 1.0000
38.5000 512.0000 1.0000
38.5100 474.0000 1.0000
38.5200 474.0000 1.0000
38.5300 498.0000 1.0000
38.5400 498.0000 1.0000
38.5500 488.0000 1.0000
38.5600 489.0000 1.0000
38.5700 491.0000 1.0000
38.5800 507.0000 1.0000
38.5900 510.0000 1.0000
38.6000 472.0000 1.0000
38.6100 492.0000 1.0000
38.6200 507.0000 1.0000
38.6300 528.0000 1.0000
38.6400 530.0000 1.0000
38.6500 481.0000 1.0000
38.6600 487.0000 1.0000
38.6700 506.0000 1.0000
38.6800 545.0000 1.0000
38.6900 535.0000 1.0000
38.7000 534.0000 1.0000
38.7100 545.0000 1.0000
38.7200 538.0000 1.0000
38.7300 507.0000 1.0000
38.7400 508.0000 1.0000
38.7500 517.0000 1.0000
38.7600 480.0000 1.0000
38.7700 502.0000 1.0000
38.7800 534.0000 1.0000
38.7900 518.0000 1.0000
38.8000 510.0000 1.0000
38.8100 531.0000 1.0000
38.8200 479.0000 1.0000
38.8300 513.0000 1.0000
38.8400 501.0000 1.0000
38.8500 529.0000 1.0000
38.8600 538.0000 1.0000
38.8700 510.0000 1.0000
38.8800 475.0000 1.0000
38.8900 487.0000 1.0000
38.9000 463.0000 1.0000
38.9100 512.0000 1.0000
38.9200 495.0000 1.0000
38.9300 521.0000 1.0000
38.9400 464.0000 1.0000
38.9500 470.0000 1.0000
38.9600 493.0000 1.0000
38.9700 488.0000 1.0000
38.9800 495.0000 1.0000
38.9900 485.0000 1.0000
39.0000 484.0000 1.0000
39.0100 504.0000 1.0000
39.0200 482.0000 1.0000
39.0300 506.0000 1.0000
39.0400 490.0000 1.0000
39.0500 461.0000 1.0000
39.0600 475.0000 1.0000
39.0700 465.0000 1.0000
39.0800 483.0000 1.0000
39.0900 500.0000 1.0000
39.1000 481.0000 1.0000
39.1100 507.0000 1.0000
39.1200 491.0000 1.0000
39.1300 455.0000 1.0000
39.1400 523.0000 1.0000
39.1500 472.0000 1.0000
39.1600 464.0000 1.0000
39.1700 463.0000 1.0000
39.1800 464.0000 1.0000
39.1900 446.0000 1.0000
39.2000 470.0000 1.0000
39.2100 464.0000 1.0000
39.2200 465.0000 1.0000
39.2300 460.0000 1.0000
39.2400 460.0000 1.0000
39.2500 495.0000 1.0000
39.2600 496.0000 1.0000
39.2700 505.0000 1.0000
39.2800 473.0000 1.0000
39.2900 496.0000 1.0000
39.3000 455.0000 1.0000
39.3100 478.0000 1.0000
39.3200 464.0000 1.0000
39.3300 492.0000 1.0000
39.3400 487.0000 1.0000
39.3500 466.0000 1.0000
39.3600 492.0000 1.0000
39.3700 455.0000 1.0000
39.3800 473.0000 1.0000
39.3900 491.0000 1.0000
39.4000 466.0000 1.0000
39.4100 447.0000 1.0000
39.4200 476.0000 1.0000
39.4300 461.0000 1.0000
39.4400 488.0000 1.0000
39.4500 459.0000 1.0000
39.4600 463.0000 1.0000
39.4700 449.0000 1.0000
39.4800 463.0000 1.0000
39.4900 469.0000 1.0000
39.5000 478.0000 1.0000
39.5100 472.0000 1.0000
39.5200 478.0000 1.0000
39.5300 468.0000 1.0000
39.5400 461.0000 1.0000
39.5500 470.0000 1.0000
39.5600 469.0000 1.0000
39.5700 482.0000 1.0000
39.5800 483.0000 1.0000
39.5900 447.0000 1.0000
39.6000 466.0000 1.0000
39.6100 466.0000 1.0000
39.6200 456.0000 1.0000
39.6300 453.0000 1.0000
39.6400 425.0000 1.0000
39.6500 460.0000 1.0000
39.6600 463.0000 1.0000
39.6700 430.0000 1.0000
39.6800 465.0000 1.0000
39.6900 470.0000 1.0000
39.7000 444.0000 1.0000
39.7100 460.0000 1.0000
39.7200 463.0000 1.0000
39.7300 446.0000 1.0000
39.7400 444.0000 1.0000
39.7500 456.0000 1.0000
39.7600 452.0000 1.0000
39.7700 457.0000 1.0000
39.7800 436.0000 1.0000
39.7900 438.0000 1.0000
39.8000 445.0000 1.0000
39.8100 481.0000 1.0000
39.8200 478.0000 1.0000
39.8300 481.0000 1.0000
39.8400 439.0000 1.0000
39.8500 486.0000 1.0000
39.8600 486.0000 1.0000
39.8700 429.0000 1.0000
39.8800 449.0000 1.0000
39.8900 475.0000 1.0000
39.9000 452.0000 1.0000
39.9100 471.0000 1.0000
39.9200 456.0000 1.0000
39.9300 450.0000 1.0000
39.9400 462.0000 1.0000
39.9500 441.0000 1.0000
39.9600 441.0000 1.0000
39.9700 464.0000 1.0000
39.9800 468.0000 1.0000
39.9900 480.0000 1.0000
40.0000 441.0000 1.0000
40.0100 444.0000 1.0000
40.0200 448.0000 1.0000
40.0300 444.0000 1.0000
40.0400 458.0000 1.0000
40.0500 463.0000 1.0000
40.0600 448.0000 1.0000
40.0700 488.0000 1.0000
40.0800 475.0000 1.0000
40.0900 446.0000 1.0000
40.1000 468.0000 1.0000
40.1100 446.0000 1.0000
40.1200 456.0000 1.0000
40.1300 480.0000 1.0000
40.1400 485.0000 1.0000
40.1500 455.0000 1.0000
40.1600 469.0000 1.0000
40.1700 490.0000 1.0000
40.1800 452.0000 1.0000
40.1900 427.0000 1.0000
40.2000 464.0000 1.0000
40.2100 456.0000 1.0000
40.2200 443.0000 1.0000
40.2300 442.0000 1.0000
40.2400 466.0000 1.0000
40.2500 471.0000 1.0000
40.2600 443.0000 1.0000
40.2700 493.0000 1.0000
40.2800 477.0000 1.0000
40.2900 430.0000 1.0000
40.3000 469.0000 1.0000
40.3100 425.0000 1.0000
40.3200 459.0000 1.0000
40.3300 472.0000 1.0000
40.3400 438.0000 1.0000
40.3500 468.0000 1.0000
40.3600 449.0000 1.0000
40.3700 447.0000 1.0000
40.3800 472.0000 1.0000
40.3900 465.0000 1.0000
40.4000 475.0000 1.0000
40.4100 468.0000 1.0000
40.4200 459.0000 1.0000
40.4300 438.0000 1.0000
40.4400 440.0000 1.0000
40.4500 407.0000 1.0000
40.4600 454.0000 1.0000
40.4700 434.0000 1.0000
40.4800 448.0000 1.0000
40.4900 451.0000 1.0000
40.5000 484.0000 1.0000
40.5100 486.0000 1.0000
40.5200 498.0000 1.0000
40.5300 446.0000 1.0000
40.5400 463.0000 1.0000
40.5500 470.0000 1.0000
40.5600 470.0000 1.0000
40.5700 461.0000 1.0000
40.5800 462.0000 1.0000
40.5900 446.0000 1.0000
40.6000 462.0000 1.0000
40.6100 474.0000 1.0000
40.6200 487.0000 1.0000
40.6300 494.0000 1.0000
40.6400 482.0000 1.0000
40.6500 454.0000 1.0000
40.6600 506.0000 1.0000
40.6700 488.0000 1.0000
40.6800 516.0000 1.0000
40.6900 450.0000 1.0000
40.7000 506.0000 1.0000
40.7100 476.0000 1.0000
40.7200 486.0000 1.0000
40.7300 521.0000 1.0000
40.7400 494.0000 1.0000
40.7500 509.0000 1.0000
40.7600 483.0000 1.0000
40.7700 508.0000 1.0000
40.7800 537.0000 1.0000
40.7900 517.0000 1.0000
40.8000 533.0000 1.0000
40.8100 496.0000 1.0000
40.8200 468.0000 1.0000
40.8300 476.0000 1.0000
40.8400 483.0000 1.0000
40.8500 474.0000 1.0000
40.8600 506.0000 1.0000
40.8700 493.0000 1.0000
40.8800 458.0000 1.0000
40.8900 504.0000 1.0000
40.9000 509.0000 1.0000
40.9100 451.0000 1.0000
40.9200 478.0000 1.0000
40.9300 490.0000 1.0000
40.9400 473.0000 1.0000
40.9500 452.0000 1.0000
40.9600 445.0000 1.0000
40.9700 483.0000 1.0000
40.9800 481.0000 1.0000
40.9900 479.0000 1.0000
41.0000 466.0000 1.0000
41.0100 472.0000 1.0000
41.0200 483.0000 1.0000
41.0300 478.0000 1.0000
41.0400 455.0000 1.0000
41.0500 459.0000 1.0000
41.0600 424.0000 1.0000
41.0700 442.0000 1.0000
41.0800 463.0000 1.0000
41.0900 449.0000 1.0000
41.1000 475.0000 1.0000
41.1100 446.0000 1.0000
41.1200 457.0000 1.0000
41.1300 477.0000 1.0000
41.1400 463.0000 1.0000
41.1500 462.0000 1.0000
41.1600 405.0000 1.0000
41.1700 418.0000 1.0000
41.1800 442.0000 1.0000
41.1900 448.0000 1.0000
41.2000 423.0000 1.0000
41.2100 464.0000 1.0000
41.2200 446.0000 1.0000
41.2300 434.0000 1.0000
41.2400 425.0000 1.0000
41.2500 423.0000 1.0000
41.2600 496.0000 1.0000
41.2700 421.0000 1.0000
41.2800 457.0000 1.0000
41.2900 445.0000 1.0000
41.3000 446.0000 1.0000
41.3100 447.0000 1.0000
41.3200 405.0000 1.0000
41.3300 440.0000 1.0000
41.3400 416.0000 1.0000
41.3500 469.0000 1.0000
41.3600 430.0000 1.0000
41.3700 434.0000 1.0000
41.3800 445.0000 1.0000
41.3900 432.0000 1.0000
41.4000 404.0000 1.0000
41.4100 443.0000 1.0000
41.4200 432.0000 1.0000
41.4300 421.0000 1.0000
41.4400 457.0000 1.0000
41.4500 454.0000 1.0000
41.4600 454.0000 1.0000
41.4700 440.0000 1.0000
41.4800 460.0000 1.0000
41.4900 422.0000 1.0000
41.5000 471.0000 1.0000
41.5100 442.0000 1.0000
41.5200 482.0000 1.0000
41.5300 453.0000 1.0000
41.5400 444.0000 1.0000
41.5500 460.0000 1.0000
41.5600 451.0000 1.0000
41.5700 407.0000 1.0000
41.5800 445.0000 1.0000
41.5900 447.0000 1.0000
41.6000 430.0000 1.0000
41.6100 438.0000 1.0000
41.6200 467.0000 1.0000
41.6300 430.0000 1.0000
41.6400 420.0000 1.0000
41.6500 457.0000 1.0000
41.6600 438.0000 1.0000
41.6700 424.0000 1.0000
41.6800 400.0000 1.0000
41.6900 443.0000 1.0000
41.7000 462.0000 1.0000
41.7100 450.0000 1.0000
41.7200 423.0000 1.0000
41.7300 437.0000 1.0000
41.7400 449.0000 1.0000
41.7500 437.0000 1.0000
41.7600 450.0000 1.0000
41.7700 453.0000 1.0000
41.7800 449.0000 1.0000
41.7900 425.0000 1.0000
41.8000 433.0000 1.0000
41.8100 401.0000 1.0000
41.8200 428.0000 1.0000
41.8300 452.0000 1.0000
41.8400 443.0000 1.0000
41.8500 451.0000 1.0000
41.8600 448.0000 1.0000
41.8700 449.0000 1.0000
41.8800 430.0000 1.0000
41.8900 422.0000 1.0000
41.9000 441.0000 1.0000
41.9100 421.0000 1.0000
41.9200 427.0000 1.0000
41.9300 442.0000 1.0000
41.9400 434.0000 1.0000
41.9500 434.0000 1.0000
41.9600 436.0000 1.0000
41.9700 427.0000 1.0000
41.9800 438.0000 1.0000
41.9900 420.0000 1.0000
42.0000 442.0000 1.0000
42.0100 435.0000 1.0000
42.0200 433.0000 1.0000
42.0300 445.0000 1.0000
42.0400 462.0000 1.0000
42.0500 447.0000 1.0000
42.0600 464.0000 1.0000
42.0700 445.0000 1.0000
42.0800 461.0000 1.0000
42.0900 443.0000 1.0000
42.1000 441.0000 1.0000
42.1100 439.0000 1.0000
42.1200 451.0000 1.0000
42.1300 407.0000 1.0000
42.1400 410.0000 1.0000
42.1500 443.0000 1.0000
42.1600 439.0000 1.0000
42.1700 501.0000 1.0000
42.1800 444.0000 1.0000
42.1900 452.0000 1.0000
42.2000 451.0000 1.0000
42.2100 449.0000 1.0000
42.2200 452.0000 1.0000
42.2300 450.0000 1.0000
42.2400 428.0000 1.0000
42.2500 436.0000 1.0000
42.2600 438.0000 1.0000
42.2700 463.0000 1.0000
42.2800 452.0000 1.0000
42.2900 482.0000 1.0000
42.3000 500.0000 1.0000
42.3100 485.0000 1.0000
42.3200 443.0000 1.0000
42.3300 455.0000 1.0000
42.3400 451.0000 1.0000
42.3500 458.0000 1.0000
42.3600 492.0000 1.0000
42.3700 481.0000 1.0000
42.3800 500.0000 1.0000
42.3900 460.0000 1.0000
42.4000 477.0000 1.0000
42.4100 465.0000 1.0000
42.4200 449.0000 1.0000
42.4300 506.0000 1.0000
42.4400 473.0000 1.0000
42.4500 454.0000 1.0000
42.4600 412.0000 1.0000
42.4700 475.0000 1.0000
42.4800 472.0000 1.0000
42.4900 430.0000 1.0000
42.5000 451.0000 1.0000
42.5100 462.0000 1.0000
42.5200 442.0000 1.0000
42.5300 431.0000 1.0000
42.5400 436.0000 1.0000
42.5500 457.0000 1.0000
42.5600 452.0000 1.0000
42.5700 459.0000 1.0000
42.5800 441.0000 1.0000
42.5900 459.0000 1.0000
42.6000 450.0000 1.0000
42.6100 447.0000 1.0000
42.6200 449.0000 1.0000
42.6300 444.0000 1.0000
42.6400 418.0000 1.0000
42.6500 431.0000 1.0000
42.6600 445.0000 1.0000
42.6700 460.0000 1.0000
42.6800 465.0000 1.0000
42.6900 448.0000 1.0000
42.7000 451.0000 1.0000
42.7100 420.0000 1.0000
42.7200 442.0000 1.0000
42.7300 449.0000 1.0000
42.7400 434.0000 1.0000
42.7500 423.0000 1.0000
42.7600 418.0000 1.0000
42.7700 437.0000 1.0000
42.7800 438.0000 1.0000
42.7900 439.0000 1.0000
42.8000 449.0000 1.0000
42.8100 436.0000 1.0000
42.8200 424.0000 1.0000
42.8300 446.0000 1.0000
42.8400 437.0000 1.0000
42.8500 445.0000 1.0000
42.8600 448.0000 1.0000
42.8700 433.0000 1.0000
42.8800 403.0000 1.0000
42.8900 439.0000 1.0000
42.9000 416.0000 1.0000
42.9100 446.0000 1.0000
42.9200 444.0000 1.0000
42.9300 422.0000 1.0000
42.9400 438.0000 1.0000
42.9500 408.0000 1.0000
42.9600 433.0000 1.0000
42.9700 440.0000 1.0000
42.9800 446.0000 1.0000
42.9900 431.0000 1.0000
43.0000 441.0000 1.0000
43.0100 437.0000 1.0000
43.0200 456.0000 1.0000
43.0300 417.0000 1.0000
43.0400 462.0000 1.0000
43.0500 450.0000 1.0000
43.0600 423.0000 1.0000
43.0700 453.0000 1.0000
43.0800 437.0000 1.0000
43.0900 415.0000 1.0000
43.1000 405.0000 1.0000
43.1100 451.0000 1.0000
43.1200 427.0000 1.0000
43.1300 434.0000 1.0000
43.1400 409.0000 1.0000
43.1500 438.0000 1.0000
43.1600 428.0000 1.0000
43.1700 412.0000 1.0000
43.1800 429.0000 1.0000
43.1900 462.0000 1.0000
43.2000 447.0000 1.0000
43.2100 429.0000 1.0000
43.2200 437.0000 1.0000
43.2300 455.0000 1.0000
43.2400 428.0000 1.0000
43.2500 410.0000 1.0000
43.2600 424.0000 1.0000
43.2700 440.0000 1.0000
43.2800 440.0000 1.0000
43.2900 458.0000 1.0000
43.3000 439.0000 1.0000
43.3100 435.0000 1.0000
43.3200 426.0000 1.0000
43.3300 455.0000 1.0000
43.3400 434.0000 1.0000
43.3500 426.0000 1.0000
43.3600 438.0000 1.0000
43.3700 433.0000 1.0000
43.3800 406.0000 1.0000
43.3900 474.0000 1.0000
43.4000 452.0000 1.0000
43.4100 457.0000 1.0000
43.4200 440.0000 1.0000
43.4300 475.0000 1.0000
43.4400 440.0000 1.0000
43.4500 450.0000 1.0000
43.4600 476.0000 1.0000
43.4700 487.0000 1.0000
43.4800 461.0000 1.0000
43.4900 426.0000 1.0000
43.5000 447.0000 1.0000
43.5100 457.0000 1.0000
43.5200 453.0000 1.0000
43.5300 483.0000 1.0000
43.5400 440.0000 1.0000
43.5500 432.0000 1.0000
43.5600 457.0000 1.0000
43.5700 445.0000 1.0000
43.5800 471.0000 1.0000
43.5900 420.0000 1.0000
43.6000 412.0000 1.0000
43.6100 435.0000 1.0000
43.6200 450.0000 1.0000
43.6300 431.0000 1.0000
43.6400 454.0000 1.0000
43.6500 456.0000 1.0000
43.6600 462.0000 1.0000
43.6700 419.0000 1.0000
43.6800 452.0000 1.0000
43.6900 447.0000 1.0000
43.7000 468.0000 1.0000
43.7100 442.0000 1.0000
43.7200 434.0000 1.0000
43.7300 441.0000 1.0000
43.7400 423.0000 1.0000
43.7500 399.0000 1.0000
43.7600 431.0000 1.0000
43.7700 426.0000 1.0000
43.7800 393.0000 1.0000
43.7900 438.0000 1.0000
43.8000 405.0000 1.0000
43.8100 463.0000 1.0000
43.8200 423.0000 1.0000
43.8300 425.0000 1.0000
43.8400 407.0000 1.0000
43.8500 421.0000 1.0000
43.8600 437.0000 1.0000
43.8700 429.0000 1.0000
43.8800 420.0000 1.0000
43.8900 395.0000 1.0000
43.9000 444.0000 1.0000
43.9100 442.0000 1.0000
43.9200 437.0000 1.0000
43.9300 443.0000 1.0000
43.9400 471.0000 1.0000
43.9500 389.0000 1.0000
43.9600 401.0000 1.0000
43.9700 425.0000 1.0000
43.9800 425.0000 1.0000
43.9900 412.0000 1.0000
44.0000 397.0000 1.0000
44.0100 431.0000 1.0000
44.0200 405.0000 1.0000
44.0300 426.0000 1.0000
44.0400 440.0000 1.0000
44.0500 424.0000 1.0000
44.0600 384.0000 1.0000
44.0700 431.0000 1.0000
44.0800 372.0000 1.0000
44.0900 418.0000 1.0000
44.1000 438.0000 1.0000
44.1100 398.0000 1.0000
44.1200 386.0000 1.0000
44.1300 438.0000 1.0000
44.1400 431.0000 1.0000
44.1500 443.0000 1.0000
44.1600 447.0000 1.0000
44.1700 428.0000 1.0000
44.1800 421.0000 1.0000
44.1900 414.0000 1.0000
44.2000 435.0000 1.0000
44.2100 453.0000 1.0000
44.2200 425.0000 1.0000
44.2300 433.0000 1.0000
44.2400 432.0000 1.0000
44.2500 436.0000 1.0000
44.2600 406.0000 1.0000
44.2700 396.0000 1.0000
44.2800 407.0000 1.0000
44.2900 409.0000 1.0000
44.3000 418.0000 1.0000
44.3100 422.0000 1.0000
44.3200 444.0000 1.0000
44.3300 415.0000 1.0000
44.3400 442.0000 1.0000
44.3500 437.0000 1.0000
44.3600 414.0000 1.0000
44.3700 447.0000 1.0000
44.3800 435.0000 1.0000
44.3900 457.0000 1.0000
44.4000 445.0000 1.0000
44.4100 436.0000 1.0000
44.4200 421.0000 1.0000
44.4300 422.0000 1.0000
44.4400 445.0000 1.0000
44.4500 380.0000 1.0000
44.4600 430.0000 1.0000
44.4700 409.0000 1.0000
44.4800 404.0000 1.0000
44.4900 414.0000 1.0000
44.5000 404.0000 1.0000
44.5100 409.0000 1.0000
44.5200 400.0000 1.0000
44.5300 415.0000 1.0000
44.5400 449.0000 1.0000
44.5500 415.0000 1.0000
44.5600 446.0000 1.0000
44.5700 419.0000 1.0000
44.5800 364.0000 1.0000
44.5900 418.0000 1.0000
44.6000 419.0000 1.0000
44.6100 420.0000 1.0000
44.6200 396.0000 1.0000
44.6300 384.0000 1.0000
44.6400 386.0000 1.0000
44.6500 427.0000 1.0000
44.6600 445.0000 1.0000
44.6700 421.0000 1.0000
44.6800 421.0000 1.0000
44.6900 389.0000 1.0000
44.7000 435.0000 1.0000
44.7100 466.0000 1.0000
44.7200 450.0000 1.0000
44.7300 421.0000 1.0000
44.7400 390.0000 1.0000
44.7500 415.0000 1.0000
44.7600 425.0000 1.0000
44.7700 414.0000 1.0000
44.7800 384.0000 1.0000
44.7900 393.0000 1.0000
44.8000 419.0000 1.0000
44.8100 391.0000 1.0000
44.8200 421.0000 1.0000
44.8300 402.0000 1.0000
44.8400 408.0000 1.0000
44.8500 401.0000 1.0000
44.8600 381.0000 1.0000
44.8700 409.0000 1.0000
44.8800 425.0000 1.0000
44.8900 428.0000 1.0000
44.9000 422.0000 1.0000
44.9100 421.0000 1.0000
44.9200 436.0000 1.0000
44.9300 442.0000 1.0000
44.9400 377.0000 1.0000
44.9500 390.0000 1.0000
44.9600 416.0000 1.0000
44.9700 403.0000 1.0000
44.9800 420.0000 1.0000
44.9900 390.0000 1.0000
45.0000 417.0000 1.0000
45.0100 391.0000 1.0000
45.0200 404.0000 1.0000
45.0300 417.0000 1.0000
45.0400 415.0000 1.0000
45.0500 421.0000 1.0000
45.0600 437.0000 1.0000
45.0700 397.0000 1.0000
45.0800 408.0000 1.0000
45.0900 412.0000 1.0000
45.1000 408.0000 1.0000
45.1100 401.0000 1.0000
45.1200 395.0000 1.0000
45.1300 403.0000 1.0000
45.1400 432.0000 1.0000
45.1500 391.0000 1.0000
45.1600 416.0000 1.0000
45.1700 424.0000 1.0000
45.1800 387.0000 1.0000
45.1900 389.0000 1.0000
45.2000 418.0000 1.0000
45.2100 428.0000 1.0000
45.2200 416.0000 1.0000
45.2300 425.0000 1.0000
45.2400 407.0000 1.0000
45.2500 386.0000 1.0000
45.2600 417.0000 1.0000
45.2700 418.0000 1.0000
45.2800 426.0000 1.0000
45.2900 427.0000 1.0000
45.3000 394.0000 1.0000
45.3100 404.0000 1.0000
45.3200 427.0000 1.0000
45.3300 405.0000 1.0000
45.3400 386.0000 1.0000
45.3500 370.0000 1.0000
45.3600 409.0000 1.0000
45.3700 390.0000 1.0000
45.3800 405.0000 1.0000
45.3900 424.0000 1.0000
45.4000 401.0000 1.0000
45.4100 427.0000 1.0000
45.4200 411.0000 1.0000
45.4300 397.0000 1.0000
45.4400 395.0000 1.0000
45.4500 421.0000 1.0000
45.4600 418.0000 1.0000
45.4700 394.0000 1.0000
45.4800 418.0000 1.0000
45.4900 413.0000 1.0000
45.5000 419.0000 1.0000
45.5100 431.0000 1.0000
45.5200 417.0000 1.0000
45.5300 384.0000 1.0000
45.5400 403.0000 1.0000
45.5500 415.0000 1.0000
45.5600 430.0000 1.0000
45.5700 408.0000 1.0000
45.5800 401.0000 1.0000
45.5900 376.0000 1.0000
45.6000 426.0000 1.0000
45.6100 414.0000 1.0000
45.6200 379.0000 1.0000
45.6300 383.0000 1.0000
45.6400 392.0000 1.0000
45.6500 426.0000 1.0000
45.6600 398.0000 1.0000
45.6700 404.0000 1.0000
45.6800 413.0000 1.0000
45.6900 438.0000 1.0000
45.7000 409.0000 1.0000
45.7100 419.0000 1.0000
45.7200 400.0000 1.0000
45.7300 382.0000 1.0000
45.7400 393.0000 1.0000
45.7500 386.0000 1.0000
45.7600 391.0000 1.0000
45.7700 402.0000 1.0000
45.7800 443.0000 1.0000
45.7900 388.0000 1.0000
45.8000 359.0000 1.0000
45.8100 385.0000 1.0000
45.8200 363.0000 1.0000
45.8300 382.0000 1.0000
45.8400 386.0000 1.0000
45.8500 442.0000 1.0000
45.8600 417.0000 1.0000
45.8700 452.0000 1.0000
45.8800 409.0000 1.0000
45.8900 405.0000 1.0000
45.9000 399.0000 1.0000
45.9100 388.0000 1.0000
45.9200 417.0000 1.0000
45.9300 405.0000 1.0000
45.9400 379.0000 1.0000
45.9500 373.0000 1.0000
45.9600 382.0000 1.0000
45.9700 377.0000 1.0000
45.9800 371.0000 1.0000
45.9900 408.0000 1.0000
46.0000 399.0000 1.0000
46.0100 405.0000 1.0000
46.0200 405.0000 1.0000
46.0300 403.0000 1.0000
46.0400 384.0000 1.0000
46.0500 404.0000 1.0000
46.0600 405.0000 1.0000
46.0700 426.0000 1.0000
46.0800 394.0000 1.0000
46.0900 405.0000 1.0000
46.1000 439.0000 1.0000
46.1100 442.0000 1.0000
46.1200 419.0000 1.0000
46.1300 415.0000 1.0000
46.1400 431.0000 1.0000
46.1500 431.0000 1.0000
46.1600 403.0000 1.0000
46.1700 427.0000 1.0000
46.1800 405.0000 1.0000
46.1900 397.0000 1.0000
46.2000 441.0000 1.0000
46.2100 415.0000 1.0000
46.2200 419.0000 1.0000
46.2300 448.0000 1.0000
46.2400 409.0000 1.0000
46.2500 436.0000 1.0000
46.2600 384.0000 1.0000
46.2700 414.0000 1.0000
46.2800 394.0000 1.0000
46.2900 384.0000 1.0000
46.3000 424.0000 1.0000
46.3100 411.0000 1.0000
46.3200 403.0000 1.0000
46.3300 408.0000 1.0000
46.3400 403.0000 1.0000
46.3500 395.0000 1.0000
46.3600 400.0000 1.0000
46.3700 372.0000 1.0000
46.3800 390.0000 1.0000
46.3900 384.0000 1.0000
46.4000 375.0000 1.0000
46.4100 381.0000 1.0000
46.4200 405.0000 1.0000
46.4300 412.0000 1.0000
46.4400 393.0000 1.0000
46.4500 395.0000 1.0000
46.4600 371.0000 1.0000
46.4700 383.0000 1.0000
46.4800 424.0000 1.0000
46.4900 388.0000 1.0000
46.5000 369.0000 1.0000
46.5100 380.0000 1.0000
46.5200 403.0000 1.0000
46.5300 407.0000 1.0000
46.5400 415.0000 1.0000
46.5500 409.0000 1.0000
46.5600 387.0000 1.0000
46.5700 406.0000 1.0000
46.5800 413.0000 1.0000
46.5900 377.0000 1.0000
46.6000 411.0000 1.0000
46.6100 381.0000 1.0000
46.6200 388.0000 1.0000
46.6300 416.0000 1.0000
46.6400 392.0000 1.0000
46.6500 378.0000 1.0000
46.6600 393.0000 1.0000
46.6700 383.0000 1.0000
46.6800 400.0000 1.0000
46.6900 391.0000 1.0000
46.7000 383.0000 1.0000
46.7100 397.0000 1.0000
46.7200 400.0000 1.0000
46.7300 413.0000 1.0000
46.7400 374.0000 1.0000
46.7500 401.0000 1.0000
46.7600 385.0000 1.0000
46.7700 400.0000 1.0000
46.7800 386.0000 1.0000
46.7900 383.0000 1.0000
46.8000 411.0000 1.0000
46.8100 369.0000 1.0000
46.8200 368.0000 1.0000
46.8300 414.0000 1.0000
46.8400 397.0000 1.0000
46.8500 406.0000 1.0000
46.8600 373.0000 1.0000
46.8700 392.0000 1.0000
46.8800 403.0000 1.0000
46.8900 357.0000 1.0000
46.9000 405.0000 1.0000
46.9100 373.0000 1.0000
46.9200 380.0000 1.0000
46.9300 380.0000 1.0000
46.9400 383.0000 1.0000
46.9500 402.0000 1.0000
46.9600 398.0000 1.0000
46.9700 417.0000 1.0000
46.9800 414.0000 1.0000
46.9900 386.0000 1.0000
47.0000 380.0000 1.0000
47.0100 382.0000 1.0000
47.0200 383.0000 1.0000
47.0300 407.0000 1.0000
47.0400 394.0000 1.0000
47.0500 423.0000 1.0000
47.0600 404.0000 1.0000
47.0700 386.0000 1.0000
47.0800 377.0000 1.0000
47.0900 367.0000 1.0000
47.1000 361.0000 1.0000
47.1100 384.0000 1.0000
47.1200 402.0000 1.0000
47.1300 402.0000 1.0000
47.1400 399.0000 1.0000
47.1500 398.0000 1.0000
47.1600 434.0000 1.0000
47.1700 403.0000 1.0000
47.1800 370.0000 1.0000
47.1900 358.0000 1.0000
47.2000 390.0000 1.0000
47.2100 390.0000 1.0000
47.2200 395.0000 1.0000
47.2300 378.0000 1.0000
47.2400 393.0000 1.0000
47.2500 393.0000 1.0000
47.2600 371.0000 1.0000
47.2700 377.0000 1.0000
47.2800 400.0000 1.0000
47.2900 372.0000 1.0000
47.3000 393.0000 1.0000
47.3100 405.0000 1.0000
47.3200 382.0000 1.0000
47.3300 375.0000 1.0000
47.3400 435.0000 1.0000
47.3500 395.0000 1.0000
47.3600 378.0000 1.0000
47.3700 380.0000 1.0000
47.3800 385.0000 1.0000
47.3900 400.0000 1.0000
47.4000 347.0000 1.0000
47.4100 402.0000 1.0000
47.4200 400.0000 1.0000
47.4300 391.0000 1.0000
47.4400 381.0000 1.0000
47.4500 390.0000 1.0000
47.4600 404.0000 1.0000
47.4700 409.0000 1.0000
47.4800 391.0000 1.0000
47.4900 415.0000 1.0000
47.5000 383.0000 1.0000
47.5100 398.0000 1.0000
47.5200 410.0000 1.0000
47.5300 381.0000 1.0000
47.5400 409.0000 1.0000
47.5500 353.0000 1.0000
47.5600 363.0000 1.0000
47.5700 374.0000 1.0000
47.5800 386.0000 1.0000
47.5900 381.0000 1.0000
47.6000 358.0000 1.0000
47.6100 364.0000 1.0000
47.6200 391.0000 1.0000
47.6300 367.0000 1.0000
47.6400 380.0000 1.0000
47.6500 404.0000 1.0000
47.6600 371.0000 1.0000
47.6700 387.0000 1.0000
47.6800 407.0000 1.0000
47.6900 405.0000 1.0000
47.7000 396.0000 1.0000
47.7100 388.0000 1.0000
47.7200 386.0000 1.0000
47.7300 360.0000 1.0000
47.7400 390.0000 1.0000
47.7500 390.0000 1.0000
47.7600 415.0000 1.0000
47.7700 419.0000 1.0000
47.7800 370.0000 1.0000
47.7900 394.0000 1.0000
47.8000 367.0000 1.0000
47.8100 392.0000 1.0000
47.8200 386.0000 1.0000
47.8300 395.0000 1.0000
47.8400 398.0000 1.0000
47.8500 365.0000 1.0000
47.8600 392.0000 1.0000
47.8700 353.0000 1.0000
47.8800 372.0000 1.0000
47.8900 374.0000 1.0000
47.9000 359.0000 1.0000
47.9100 403.0000 1.0000
47.9200 376.0000 1.0000
47.9300 381.0000 1.0000
47.9400 357.0000 1.0000
47.9500 358.0000 1.0000
47.9600 401.0000 1.0000
47.9700 375.0000 1.0000
47.9800 377.0000 1.0000
47.9900 397.0000 1.0000
48.0000 395.0000 1.0000
48.0100 392.0000 1.0000
48.0200 392.0000 1.0000
48.0300 373.0000 1.0000
48.0400 402.0000 1.0000
48.0500 372.0000 1.0000
48.0600 376.0000 1.0000
48.0700 381.0000 1.0000
48.0800 360.0000 1.0000
48.0900 386.0000 1.0000
48.1000 357.0000 1.0000
48.1100 371.0000 1.0000
48.1200 367.0000 1.0000
48.1300 387.0000 1.0000
48.1400 369.0000 1.0000
48.1500 369.0000 1.0000
48.1600 400.0000 1.0000
48.1700 385.0000 1.0000
48.1800 385.0000 1.0000
48.1900 385.0000 1.0000
48.2000 388.0000 1.0000
48.2100 383.0000 1.0000
48.2200 390.0000 1.0000
48.2300 384.0000 1.0000
48.2400 370.0000 1.0000
48.2500 370.0000 1.0000
48.2600 374.0000 1.0000
48.2700 362.0000 1.0000
48.2800 386.0000 1.0000
48.2900 395.0000 1.0000
48.3000 391.0000 1.0000
48.3100 370.0000 1.0000
48.3200 372.0000 1.0000
48.3300 363.0000 1.0000
48.3400 360.0000 1.0000
48.3500 379.0000 1.0000
48.3600 376.0000 1.0000
48.3700 361.0000 1.0000
48.3800 389.0000 1.0000
48.3900 366.0000 1.0000
48.4000 372.0000 1.0000
48.4100 397.0000 1.0000
48.4200 404.0000 1.0000
48.4300 373.0000 1.0000
48.4400 387.0000 1.0000
48.4500 414.0000 1.0000
48.4600 388.0000 1.0000
48.4700 386.0000 1.0000
48.4800 380.0000 1.0000
48.4900 382.0000 1.0000
48.5000 379.0000 1.0000
48.5100 394.0000 1.0000
48.5200 387.0000 1.0000
48.5300 373.0000 1.0000
48.5400 398.0000 1.0000
48.5500 385.0000 1.0000
48.5600 385.0000 1.0000
48.5700 395.0000 1.0000
48.5800 380.0000 1.0000
48.5900 374.0000 1.0000
48.6000 344.0000 1.0000
48.6100 374.0000 1.0000
48.6200 354.0000 1.0000
48.6300 392.0000 1.0000
48.6400 396.0000 1.0000
48.6500 366.0000 1.0000
48.6600 414.0000 1.0000
48.6700 411.0000 1.0000
48.6800 375.0000 1.0000
48.6900 380.0000 1.0000
48.7000 371.0000 1.0000
48.7100 359.0000 1.0000
48.7200 380.0000 1.0000
48.7300 403.0000 1.0000
48.7400 372.0000 1.0000
48.7500 404.0000 1.0000
48.7600 387.0000 1.0000
48.7700 381.0000 1.0000
48.7800 378.0000 1.0000
48.7900 379.0000 1.0000
48.8000 408.0000 1.0000
48.8100 403.0000 1.0000
48.8200 352.0000 1.0000
48.8300 378.0000 1.0000
48.8400 380.0000 1.0000
48.8500 404.0000 1.0000
48.8600 400.0000 1.0000
48.8700 374.0000 1.0000
48.8800 378.0000 1.0000
48.8900 391.0000 1.0000
48.9000 407.0000 1.0000
48.9100 385.0000 1.0000
48.9200 407.0000 1.0000
48.9300 372.0000 1.0000
48.9400 389.0000 1.0000
48.9500 413.0000 1.0000
48.9600 411.0000 1.0000
48.9700 403.0000 1.0000
48.9800 390.0000 1.0000
48.9900 356.0000 1.0000
49.0000 371.0000 1.0000
49.0100 387.0000 1.0000
49.0200 376.0000 1.0000
49.0300 349.0000 1.0000
49.0400 403.0000 1.0000
49.0500 396.0000 1.0000
49.0600 385.0000 1.0000
49.0700 374.0000 1.0000
49.0800 398.0000 1.0000
49.0900 378.0000 1.0000
49.1000 386.0000 1.0000
49.1100 375.0000 1.0000
49.1200 382.0000 1.0000
49.1300 395.0000 1.0000
49.1400 390.0000 1.0000
49.1500 415.0000 1.0000
49.1600 396.0000 1.0000
49.1700 388.0000 1.0000
49.1800 397.0000 1.0000
49.1900 387.0000 1.0000
49.2000 354.0000 1.0000
49.2100 396.0000 1.0000
49.2200 379.0000 1.0000
49.2300 396.0000 1.0000
49.2400 395.0000 1.0000
49.2500 360.0000 1.0000
49.2600 381.0000 1.0000
49.2700 389.0000 1.0000
49.2800 413.0000 1.0000
49.2900 422.0000 1.0000
49.3000 391.0000 1.0000
49.3100 405.0000 1.0000
49.3200 404.0000 1.0000
49.3300 410.0000 1.0000
49.3400 427.0000 1.0000
49.3500 467.0000 1.0000
49.3600 450.0000 1.0000
49.3700 455.0000 1.0000
49.3800 464.0000 1.0000
49.3900 467.0000 1.0000
49.4000 465.0000 1.0000
49.4100 451.0000 1.0000
49.4200 433.0000 1.0000
49.4300 429.0000 1.0000
49.4400 470.0000 1.0000
49.4500 441.0000 1.0000
49.4600 461.0000 1.0000
49.4700 462.0000 1.0000
49.4800 439.0000 1.0000
49.4900 407.0000 1.0000
49.5000 410.0000 1.0000
49.5100 406.0000 1.0000
49.5200 446.0000 1.0000
49.5300 440.0000 1.0000
49.5400 431.0000 1.0000
49.5500 447.0000 1.0000
49.5600 444.0000 1.0000
49.5700 391.0000 1.0000
49.5800 385.0000 1.0000
49.5900 398.0000 1.0000
49.6000 403.0000 1.0000
49.6100 390.0000 1.0000
49.6200 368.0000 1.0000
49.6300 414.0000 1.0000
49.6400 405.0000 1.0000
49.6500 391.0000 1.0000
49.6600 379.0000 1.0000
49.6700 393.0000 1.0000
49.6800 366.0000 1.0000
49.6900 369.0000 1.0000
49.7000 358.0000 1.0000
49.7100 410.0000 1.0000
49.7200 433.0000 1.0000
49.7300 402.0000 1.0000
49.7400 400.0000 1.0000
49.7500 381.0000 1.0000
49.7600 409.0000 1.0000
49.7700 403.0000 1.0000
49.7800 406.0000 1.0000
49.7900 376.0000 1.0000
49.8000 378.0000 1.0000
49.8100 404.0000 1.0000
49.8200 374.0000 1.0000
49.8300 370.0000 1.0000
49.8400 367.0000 1.0000
49.8500 369.0000 1.0000
49.8600 409.0000 1.0000
49.8700 369.0000 1.0000
49.8800 356.0000 1.0000
49.8900 375.0000 1.0000
49.9000 388.0000 1.0000
49.9100 378.0000 1.0000
49.9200 379.0000 1.0000
49.9300 399.0000 1.0000
49.9400 364.0000 1.0000
49.9500 386.0000 1.0000
49.9600 373.0000 1.0000
49.9700 367.0000 1.0000
49.9800 361.0000 1.0000
49.9900 374.0000 1.0000
50.0000 394.0000 1.0000
50.0100 386.0000 1.0000
50.0200 358.0000 1.0000
50.0300 400.0000 1.0000
50.0400 384.0000 1.0000
50.0500 380.0000 1.0000
50.0600 390.0000 1.0000
50.0700 355.0000 1.0000
50.0800 391.0000 1.0000
50.0900 397.0000 1.0000
50.1000 423.0000 1.0000
50.1100 388.0000 1.0000
50.1200 391.0000 1.0000
50.1300 381.0000 1.0000
50.1400 388.0000 1.0000
50.1500 371.0000 1.0000
50.1600 384.0000 1.0000
50.1700 374.0000 1.0000
50.1800 388.0000 1.0000
50.1900 399.0000 1.0000
50.2000 365.0000 1.0000
50.2100 380.0000 1.0000
50.2200 410.0000 1.0000
50.2300 403.0000 1.0000
50.2400 379.0000 1.0000
50.2500 374.0000 1.0000
50.2600 359.0000 1.0000
50.2700 381.0000 1.0000
50.2800 392.0000 1.0000
50.2900 398.0000 1.0000
50.3000 388.0000 1.0000
50.3100 422.0000 1.0000
50.3200 358.0000 1.0000
50.3300 387.0000 1.0000
50.3400 405.0000 1.0000
50.3500 382.0000 1.0000
50.3600 357.0000 1.0000
50.3700 377.0000 1.0000
50.3800 371.0000 1.0000
50.3900 407.0000 1.0000
50.4000 384.0000 1.0000
50.4100 400.0000 1.0000
50.4200 336.0000 1.0000
50.4300 385.0000 1.0000
50.4400 374.0000 1.0000
50.4500 374.0000 1.0000
50.4600 384.0000 1.0000
50.4700 383.0000 1.0000
50.4800 387.0000 1.0000
50.4900 381.0000 1.0000
50.5000 423.0000 1.0000
50.5100 379.0000 1.0000
50.5200 384.0000 1.0000
50.5300 386.0000 1.0000
50.5400 385.0000 1.0000
50.5500 381.0000 1.0000
50.5600 353.0000 1.0000
50.5700 378.0000 1.0000
50.5800 382.0000 1.0000
50.5900 370.0000 1.0000
50.6000 377.0000 1.0000
50.6100 393.0000 1.0000
50.6200 405.0000 1.0000
50.6300 357.0000 1.0000
50.6400 391.0000 1.0000
50.6500 401.0000 1.0000
50.6600 400.0000 1.0000
50.6700 398.0000 1.0000
50.6800 357.0000 1.0000
50.6900 412.0000 1.0000
50.7000 405.0000 1.0000
50.7100 361.0000 1.0000
50.7200 413.0000 1.0000
50.7300 401.0000 1.0000
50.7400 379.0000 1.0000
50.7500 399.0000 1.0000
50.7600 367.0000 1.0000
50.7700 406.0000 1.0000
50.7800 396.0000 1.0000
50.7900 381.0000 1.0000
50.8000 405.0000 1.0000
50.8100 401.0000 1.0000
50.8200 401.0000 1.0000
50.8300 388.0000 1.0000
50.8400 342.0000 1.0000
50.8500 407.0000 1.0000
50.8600 393.0000 1.0000
50.8700 414.0000 1.0000
50.8800 409.0000 1.0000
50.8900 405.0000 1.0000
50.9000 381.0000 1.0000
50.9100 383.0000 1.0000
50.9200 385.0000 1.0000
50.9300 392.0000 1.0000
50.9400 385.0000 1.0000
50.9500 394.0000 1.0000
50.9600 397.0000 1.0000
50.9700 405.0000 1.0000
50.9800 415.0000 1.0000
50.9900 396.0000 1.0000
51.0000 417.0000 1.0000
51.0100 410.0000 1.0000
51.0200 401.0000 1.0000
51.0300 407.0000 1.0000
51.0400 424.0000 1.0000
51.0500 438.0000 1.0000
51.0600 415.0000 1.0000
51.0700 441.0000 1.0000
51.0800 425.0000 1.0000
51.0900 402.0000 1.0000
51.1000 458.0000 1.0000
51.1100 415.0000 1.0000
51.1200 470.0000 1.0000
51.1300 442.0000 1.0000
51.1400 443.0000 1.0000
51.1500 479.0000 1.0000
51.1600 504.0000 1.0000
51.1700 483.0000 1.0000
51.1800 497.0000 1.0000
51.1900 525.0000 1.0000
51.2000 543.0000 1.0000
51.2100 555.0000 1.0000
51.2200 596.0000 1.0000
51.2300 622.0000 1.0000
51.2400 618.0000 1.0000
51.2500 604.0000 1.0000
51.2600 626.0000 1.0000
51.2700 660.0000 1.0000
51.2800 682.0000 1.0000
51.2900 737.0000 1.0000
51.3000 803.0000 1.0000
51.3100 849.0000 1.0000
51.3200 867.0000 1.0000
51.3300 927.0000 1.0000
51.3400 986.0000 1.0000
51.3500 1041.0000 1.0000
51.3600 1142.0000 1.0000
51.3700 1158.0000 1.0000
51.3800 1289.0000 1.0000
51.3900 1387.0000 1.0000
51.4000 1543.0000 1.0000
51.4100 1614.0000 1.0000
51.4200 1551.0000 1.0000
51.4300 1710.0000 1.0000
51.4400 1845.0000 1.0000
51.4500 1946.0000 1.0000
51.4600 1911.0000 1.0000
51.4700 1941.0000 1.0000
51.4800 2025.0000 1.0000
51.4900 1987.0000 1.0000
51.5000 1937.0000 1.0000
51.5100 1883.0000 1.0000
51.5200 1883.0000 1.0000
51.5300 1803.0000 1.0000
51.5400 1731.0000 1.0000
51.5500 1703.0000 1.0000
51.5600 1639.0000 1.0000
51.5700 1576.0000 1.0000
51.5800 1542.0000 1.0000
51.5900 1546.0000 1.0000
51.6000 1449.0000 1.0000
51.6100 1398.0000 1.0000
51.6200 1387.0000 1.0000
51.6300 1366.0000 1.0000
51.6400 1274.0000 1.0000
51.6500 1162.0000 1.0000
51.6600 1121.0000 1.0000
51.6700 1101.0000 1.0000
51.6800 1000.0000 1.0000
51.6900 933.0000 1.0000
51.7000 870.0000 1.0000
51.7100 804.0000 1.0000
51.7200 799.0000 1.0000
51.7300 758.0000 1.0000
51.7400 724.0000 1.0000
51.7500 679.0000 1.0000
51.7600 696.0000 1.0000
51.7700 626.0000 1.0000
51.7800 619.0000 1.0000
51.7900 574.0000 1.0000
51.8000 600.0000 1.0000
51.8100 538.0000 1.0000
51.8200 580.0000 1.0000
51.8300 526.0000 1.0000
51.8400 512.0000 1.0000
51.8500 489.0000 1.0000
51.8600 519.0000 1.0000
51.8700 433.0000 1.0000
51.8800 496.0000 1.0000
51.8900 498.0000 1.0000
51.9000 476.0000 1.0000
51.9100 480.0000 1.0000
51.9200 438.0000 1.0000
51.9300 419.0000 1.0000
51.9400 445.0000 1.0000
51.9500 438.0000 1.0000
51.9600 440.0000 1.0000
51.9700 443.0000 1.0000
51.9800 439.0000 1.0000
51.9900 383.0000 1.0000
52.0000 391.0000 1.0000
52.0100 408.0000 1.0000
52.0200 410.0000 1.0000
52.0300 404.0000 1.0000
52.0400 425.0000 1.0000
52.0500 446.0000 1.0000
52.0600 396.0000 1.0000
52.0700 402.0000 1.0000
52.0800 412.0000 1.0000
52.0900 404.0000 1.0000
52.1000 430.0000 1.0000
52.1100 415.0000 1.0000
52.1200 383.0000 1.0000
52.1300 379.0000 1.0000
52.1400 420.0000 1.0000
52.1500 398.0000 1.0000
52.1600 379.0000 1.0000
52.1700 413.0000 1.0000
52.1800 415.0000 1.0000
52.1900 382.0000 1.0000
52.2000 416.0000 1.0000
52.2100 417.0000 1.0000
52.2200 389.0000 1.0000
52.2300 402.0000 1.0000
52.2400 411.0000 1.0000
52.2500 381.0000 1.0000
52.2600 381.0000 1.0000
52.2700 416.0000 1.0000
52.2800 381.0000 1.0000
52.2900 390.0000 1.0000
52.3000 407.0000 1.0000
52.3100 421.0000 1.0000
52.3200 394.0000 1.0000
52.3300 378.0000 1.0000
52.3400 393.0000 1.0000
52.3500 378.0000 1.0000
52.3600 383.0000 1.0000
52.3700 369.0000 1.0000
52.3800 372.0000 1.0000
52.3900 350.0000 1.0000
52.4000 387.0000 1.0000
52.4100 386.0000 1.0000
52.4200 361.0000 1.0000
52.4300 377.0000 1.0000
52.4400 362.0000 1.0000
52.4500 401.0000 1.0000
52.4600 349.0000 1.0000
52.4700 377.0000 1.0000
52.4800 356.0000 1.0000
52.4900 403.0000 1.0000
52.5000 407.0000 1.0000
52.5100 352.0000 1.0000
52.5200 369.0000 1.0000
52.5300 348.0000 1.0000
52.5400 380.0000 1.0000
52.5500 383.0000 1.0000
52.5600 378.0000 1.0000
52.5700 360.0000 1.0000
52.5800 370.0000 1.0000
52.5900 378.0000 1.0000
52.6000 390.0000 1.0000
52.6100 359.0000 1.0000
52.6200 376.0000 1.0000
52.6300 348.0000 1.0000
52.6400 399.0000 1.0000
52.6500 388.0000 1.0000
52.6600 383.0000 1.0000
52.6700 361.0000 1.0000
52.6800 354.0000 1.0000
52.6900 381.0000 1.0000
52.7000 413.0000 1.0000
52.7100 351.0000 1.0000
52.7200 347.0000 1.0000
52.7300 371.0000 1.0000
52.7400 387.0000 1.0000
52.7500 382.0000 1.0000
52.7600 368.0000 1.0000
52.7700 347.0000 1.0000
52.7800 376.0000 1.0000
52.7900 362.0000 1.0000
52.8000 377.0000 1.0000
52.8100 337.0000 1.0000
52.8200 382.0000 1.0000
52.8300 394.0000 1.0000
52.8400 385.0000 1.0000
52.8500 361.0000 1.0000
52.8600 368.0000 1.0000
52.8700 367.0000 1.0000
52.8800 351.0000 1.0000
52.8900 340.0000 1.0000
52.9000 338.0000 1.0000
52.9100 360.0000 1.0000
52.9200 374.0000 1.0000
52.9300 371.0000 1.0000
52.9400 372.0000 1.0000
52.9500 356.0000 1.0000
52.9600 379.0000 1.0000
52.9700 339.0000 1.0000
52.9800 365.0000 1.0000
52.9900 362.0000 1.0000
53.0000 351.0000 1.0000
53.0100 370.0000 1.0000
53.0200 379.0000 1.0000
53.0300 380.0000 1.0000
53.0400 380.0000 1.0000
53.0500 370.0000 1.0000
53.0600 382.0000 1.0000
53.0700 352.0000 1.0000
53.0800 343.0000 1.0000
53.0900 355.0000 1.0000
53.1000 346.0000 1.0000
53.1100 383.0000 1.0000
53.1200 367.0000 1.0000
53.1300 358.0000 1.0000
53.1400 369.0000 1.0000
53.1500 390.0000 1.0000
53.1600 344.0000 1.0000
53.1700 373.0000 1.0000
53.1800 370.0000 1.0000
53.1900 355.0000 1.0000
53.2000 369.0000 1.0000
53.2100 336.0000 1.0000
53.2200 365.0000 1.0000
53.2300 374.0000 1.0000
53.2400 399.0000 1.0000
53.2500 374.0000 1.0000
53.2600 379.0000 1.0000
53.2700 343.0000 1.0000
53.2800 395.0000 1.0000
53.2900 362.0000 1.0000
53.3000 376.0000 1.0000
53.3100 357.0000 1.0000
53.3200 388.0000 1.0000
53.3300 355.0000 1.0000
53.3400 372.0000 1.0000
53.3500 376.0000 1.0000
53.3600 364.0000 1.0000
53.3700 392.0000 1.0000
53.3800 388.0000 1.0000
53.3900 369.0000 1.0000
53.4000 367.0000 1.0000
53.4100 356.0000 1.0000
53.4200 339.0000 1.0000
53.4300 376.0000 1.0000
53.4400 385.0000 1.0000
53.4500 375.0000 1.0000
53.4600 358.0000 1.0000
53.4700 352.0000 1.0000
53.4800 382.0000 1.0000
53.4900 383.0000 1.0000
53.5000 345.0000 1.0000
53.5100 382.0000 1.0000
53.5200 375.0000 1.0000
53.5300 383.0000 1.0000
53.5400 353.0000 1.0000
53.5500 356.0000 1.0000
53.5600 385.0000 1.0000
53.5700 380.0000 1.0000
53.5800 375.0000 1.0000
53.5900 345.0000 1.0000
53.6000 352.0000 1.0000
53.6100 386.0000 1.0000
53.6200 404.0000 1.0000
53.6300 374.0000 1.0000
53.6400 351.0000 1.0000
53.6500 384.0000 1.0000
53.6600 369.0000 1.0000
53.6700 382.0000 1.0000
53.6800 363.0000 1.0000
53.6900 373.0000 1.0000
53.7000 357.0000 1.0000
53.7100 358.0000 1.0000
53.7200 377.0000 1.0000
53.7300 335.0000 1.0000
53.7400 354.0000 1.0000
53.7500 367.0000 1.0000
53.7600 375.0000 1.0000
53.7700 370.0000 1.0000
53.7800 363.0000 1.0000
53.7900 387.0000 1.0000
53.8000 356.0000 1.0000
53.8100 364.0000 1.0000
53.8200 386.0000 1.0000
53.8300 358.0000 1.0000
53.8400 363.0000 1.0000
53.8500 366.0000 1.0000
53.8600 388.0000 1.0000
53.8700 384.0000 1.0000
53.8800 367.0000 1.0000
53.8900 380.0000 1.0000
53.9000 359.0000 1.0000
53.9100 366.0000 1.0000
53.9200 434.0000 1.0000
53.9300 381.0000 1.0000
53.9400 380.0000 1.0000
53.9500 401.0000 1.0000
53.9600 429.0000 1.0000
53.9700 427.0000 1.0000
53.9800 397.0000 1.0000
53.9900 429.0000 1.0000
54.0000 409.0000 1.0000
54.0100 411.0000 1.0000
54.0200 442.0000 1.0000
54.0300 403.0000 1.0000
54.0400 400.0000 1.0000
54.0500 405.0000 1.0000
54.0600 422.0000 1.0000
54.0700 389.0000 1.0000
54.0800 435.0000 1.0000
54.0900 406.0000 1.0000
54.1000 378.0000 1.0000
54.1100 407.0000 1.0000
54.1200 412.0000 1.0000
54.1300 427.0000 1.0000
54.1400 438.0000 1.0000
54.1500 400.0000 1.0000
54.1600 407.0000 1.0000
54.1700 436.0000 1.0000
54.1800 383.0000 1.0000
54.1900 414.0000 1.0000
54.2000 405.0000 1.0000
54.2100 404.0000 1.0000
54.2200 404.0000 1.0000
54.2300 379.0000 1.0000
54.2400 385.0000 1.0000
54.2500 398.0000 1.0000
54.2600 376.0000 1.0000
54.2700 389.0000 1.0000
54.2800 366.0000 1.0000
54.2900 386.0000 1.0000
54.3000 428.0000 1.0000
54.3100 423.0000 1.0000
54.3200 399.0000 1.0000
54.3300 413.0000 1.0000
54.3400 429.0000 1.0000
54.3500 414.0000 1.0000
54.3600 435.0000 1.0000
54.3700 430.0000 1.0000
54.3800 448.0000 1.0000
54.3900 408.0000 1.0000
54.4000 459.0000 1.0000
54.4100 496.0000 1.0000
54.4200 458.0000 1.0000
54.4300 500.0000 1.0000
54.4400 489.0000 1.0000
54.4500 487.0000 1.0000
54.4600 494.0000 1.0000
54.4700 500.0000 1.0000
54.4800 535.0000 1.0000
54.4900 499.0000 1.0000
54.5000 465.0000 1.0000
54.5100 471.0000 1.0000
54.5200 489.0000 1.0000
54.5300 492.0000 1.0000
54.5400 532.0000 1.0000
54.5500 494.0000 1.0000
54.5600 480.0000 1.0000
54.5700 495.0000 1.0000
54.5800 495.0000 1.0000
54.5900 479.0000 1.0000
54.6000 513.0000 1.0000
54.6100 491.0000 1.0000
54.6200 512.0000 1.0000
54.6300 477.0000 1.0000
54.6400 487.0000 1.0000
54.6500 483.0000 1.0000
54.6600 462.0000 1.0000
54.6700 447.0000 1.0000
54.6800 445.0000 1.0000
54.6900 493.0000 1.0000
54.7000 455.0000 1.0000
54.7100 404.0000 1.0000
54.7200 437.0000 1.0000
54.7300 419.0000 1.0000
54.7400 425.0000 1.0000
54.7500 436.0000 1.0000
54.7600 421.0000 1.0000
54.7700 401.0000 1.0000
54.7800 398.0000 1.0000
54.7900 390.0000 1.0000
54.8000 405.0000 1.0000
54.8100 418.0000 1.0000
54.8200 422.0000 1.0000
54.8300 390.0000 1.0000
54.8400 400.0000 1.0000
54.8500 373.0000 1.0000
54.8600 384.0000 1.0000
54.8700 370.0000 1.0000
54.8800 401.0000 1.0000
54.8900 360.0000 1.0000
54.9000 367.0000 1.0000
54.9100 381.0000 1.0000
54.9200 374.0000 1.0000
54.9300 370.0000 1.0000
54.9400 375.0000 1.0000
54.9500 344.0000 1.0000
54.9600 355.0000 1.0000
54.9700 329.0000 1.0000
54.9800 361.0000 1.0000
54.9900 375.0000 1.0000
55.0000 340.0000 1.0000
55.0100 345.0000 1.0000
55.0200 386.0000 1.0000
55.0300 379.0000 1.0000
55.0400 382.0000 1.0000
55.0500 366.0000 1.0000
55.0600 374.0000 1.0000
55.0700 370.0000 1.0000
55.0800 360.0000 1.0000
55.0900 359.0000 1.0000
55.1000 337.0000 1.0000
55.1100 357.0000 1.0000
55.1200 362.0000 1.0000
55.1300 371.0000 1.0000
55.1400 360.0000 1.0000
55.1500 373.0000 1.0000
55.1600 361.0000 1.0000
55.1700 331.0000 1.0000
55.1800 367.0000 1.0000
55.1900 368.0000 1.0000
55.2000 338.0000 1.0000
55.2100 355.0000 1.0000
55.2200 363.0000 1.0000
55.2300 368.0000 1.0000
55.2400 371.0000 1.0000
55.2500 357.0000 1.0000
55.2600 345.0000 1.0000
55.2700 340.0000 1.0000
55.2800 369.0000 1.0000
55.2900 338.0000 1.0000
55.3000 349.0000 1.0000
55.3100 357.0000 1.0000
55.3200 363.0000 1.0000
55.3300 350.0000 1.0000
55.3400 361.0000 1.0000
55.3500 347.0000 1.0000
55.3600 363.0000 1.0000
55.3700 376.0000 1.0000
55.3800 358.0000 1.0000
55.3900 372.0000 1.0000
55.4000 345.0000 1.0000
55.4100 358.0000 1.0000
55.4200 352.0000 1.0000
55.4300 361.0000 1.0000
55.4400 377.0000 1.0000
55.4500 328.0000 1.0000
55.4600 332.0000 1.0000
55.4700 342.0000 1.0000
55.4800 353.0000 1.0000
55.4900 358.0000 1.0000
55.5000 340.0000 1.0000
55.5100 341.0000 1.0000
55.5200 324.0000 1.0000
55.5300 353.0000 1.0000
55.5400 388.0000 1.0000
55.5500 382.0000 1.0000
55.5600 345.0000 1.0000
55.5700 352.0000 1.0000
55.5800 358.0000 1.0000
55.5900 316.0000 1.0000
55.6000 334.0000 1.0000
55.6100 337.0000 1.0000
55.6200 363.0000 1.0000
55.6300 362.0000 1.0000
55.6400 357.0000 1.0000
55.6500 345.0000 1.0000
55.6600 341.0000 1.0000
55.6700 345.0000 1.0000
55.6800 341.0000 1.0000
55.6900 352.0000 1.0000
55.7000 371.0000 1.0000
55.7100 349.0000 1.0000
55.7200 343.0000 1.0000
55.7300 378.0000 1.0000
55.7400 359.0000 1.0000
55.7500 351.0000 1.0000
55.7600 326.0000 1.0000
55.7700 344.0000 1.0000
55.7800 376.0000 1.0000
55.7900 345.0000 1.0000
55.8000 333.0000 1.0000
55.8100 336.0000 1.0000
55.8200 374.0000 1.0000
55.8300 335.0000 1.0000
55.8400 336.0000 1.0000
55.8500 339.0000 1.0000
55.8600 348.0000 1.0000
55.8700 350.0000 1.0000
55.8800 342.0000 1.0000
55.8900 327.0000 1.0000
55.9000 344.0000 1.0000
55.9100 365.0000 1.0000
55.9200 359.0000 1.0000
55.9300 351.0000 1.0000
55.9400 349.0000 1.0000
55.9500 324.0000 1.0000
55.9600 357.0000 1.0000
55.9700 341.0000 1.0000
55.9800 341.0000 1.0000
55.9900 367.0000 1.0000
56.0000 346.0000 1.0000
56.0100 341.0000 1.0000
56.0200 334.0000 1.0000
56.0300 310.0000 1.0000
56.0400 343.0000 1.0000
56.0500 356.0000 1.0000
56.0600 334.0000 1.0000
56.0700 330.0000 1.0000
56.0800 347.0000 1.0000
56.0900 361.0000 1.0000
56.1000 381.0000 1.0000
56.1100 381.0000 1.0000
56.1200 360.0000 1.0000
56.1300 327.0000 1.0000
56.1400 337.0000 1.0000
56.1500 337.0000 1.0000
56.1600 361.0000 1.0000
56.1700 357.0000 1.0000
56.1800 331.0000 1.0000
56.1900 354.0000 1.0000
56.2000 316.0000 1.0000
56.2100 352.0000 1.0000
56.2200 334.0000 1.0000
56.2300 357.0000 1.0000
56.2400 366.0000 1.0000
56.2500 349.0000 1.0000
56.2600 325.0000 1.0000
56.2700 341.0000 1.0000
56.2800 334.0000 1.0000
56.2900 367.0000 1.0000
56.3000 334.0000 1.0000
56.3100 309.0000 1.0000
56.3200 354.0000 1.0000
56.3300 349.0000 1.0000
56.3400 344.0000 1.0000
56.3500 345.0000 1.0000
56.3600 343.0000 1.0000
56.3700 375.0000 1.0000
56.3800 342.0000 1.0000
56.3900 321.0000 1.0000
56.4000 307.0000 1.0000
56.4100 324.0000 1.0000
56.4200 346.0000 1.0000
56.4300 345.0000 1.0000
56.4400 317.0000 1.0000
56.4500 372.0000 1.0000
56.4600 362.0000 1.0000
56.4700 347.0000 1.0000
56.4800 341.0000 1.0000
56.4900 355.0000 1.0000
56.5000 323.0000 1.0000
56.5100 348.0000 1.0000
56.5200 333.0000 1.0000
56.5300 335.0000 1.0000
56.5400 374.0000 1.0000
56.5500 368.0000 1.0000
56.5600 323.0000 1.0000
56.5700 341.0000 1.0000
56.5800 351.0000 1.0000
56.5900 341.0000 1.0000
56.6000 318.0000 1.0000
56.6100 359.0000 1.0000
56.6200 370.0000 1.0000
56.6300 329.0000 1.0000
56.6400 339.0000 1.0000
56.6500 358.0000 1.0000
56.6600 353.0000 1.0000
56.6700 322.0000 1.0000
56.6800 341.0000 1.0000
56.6900 368.0000 1.0000
56.7000 338.0000 1.0000
56.7100 342.0000 1.0000
56.7200 344.0000 1.0000
56.7300 330.0000 1.0000
56.7400 342.0000 1.0000
56.7500 331.0000 1.0000
56.7600 346.0000 1.0000
56.7700 318.0000 1.0000
56.7800 347.0000 1.0000
56.7900 332.0000 1.0000
56.8000 349.0000 1.0000
56.8100 364.0000 1.0000
56.8200 329.0000 1.0000
56.8300 362.0000 1.0000
56.8400 312.0000 1.0000
56.8500 330.0000 1.0000
56.8600 365.0000 1.0000
56.8700 358.0000 1.0000
56.8800 342.0000 1.0000
56.8900 382.0000 1.0000
56.9000 346.0000 1.0000
56.9100 356.0000 1.0000
56.9200 350.0000 1.0000
56.9300 352.0000 1.0000
56.9400 342.0000 1.0000
56.9500 343.0000 1.0000
56.9600 372.0000 1.0000
56.9700 371.0000 1.0000
56.9800 392.0000 1.0000
56.9900 340.0000 1.0000
57.0000 368.0000 1.0000
57.0100 322.0000 1.0000
57.0200 323.0000 1.0000
57.0300 328.0000 1.0000
57.0400 373.0000 1.0000
57.0500 373.0000 1.0000
57.0600 355.0000 1.0000
57.0700 344.0000 1.0000
57.0800 300.0000 1.0000
57.0900 341.0000 1.0000
57.1000 332.0000 1.0000
57.1100 372.0000 1.0000
57.1200 354.0000 1.0000
57.1300 333.0000 1.0000
57.1400 381.0000 1.0000
57.1500 361.0000 1.0000
57.1600 359.0000 1.0000
57.1700 349.0000 1.0000
57.1800 345.0000 1.0000
57.1900 333.0000 1.0000
57.2000 318.0000 1.0000
57.2100 339.0000 1.0000
57.2200 368.0000 1.0000
57.2300 364.0000 1.0000
57.2400 370.0000 1.0000
57.2500 338.0000 1.0000
57.2600 367.0000 1.0000
57.2700 363.0000 1.0000
57.2800 381.0000 1.0000
57.2900 346.0000 1.0000
57.3000 341.0000 1.0000
57.3100 369.0000 1.0000
57.3200 375.0000 1.0000
57.3300 351.0000 1.0000
57.3400 363.0000 1.0000
57.3500 338.0000 1.0000
57.3600 355.0000 1.0000
57.3700 344.0000 1.0000
57.3800 331.0000 1.0000
57.3900 320.0000 1.0000
57.4000 347.0000 1.0000
57.4100 368.0000 1.0000
57.4200 363.0000 1.0000
57.4300 376.0000 1.0000
57.4400 352.0000 1.0000
57.4500 337.0000 1.0000
57.4600 360.0000 1.0000
57.4700 367.0000 1.0000
57.4800 364.0000 1.0000
57.4900 357.0000 1.0000
57.5000 376.0000 1.0000
57.5100 367.0000 1.0000
57.5200 378.0000 1.0000
57.5300 372.0000 1.0000
57.5400 356.0000 1.0000
57.5500 364.0000 1.0000
57.5600 385.0000 1.0000
57.5700 371.0000 1.0000
57.5800 356.0000 1.0000
57.5900 387.0000 1.0000
57.6000 341.0000 1.0000
57.6100 359.0000 1.0000
57.6200 357.0000 1.0000
57.6300 366.0000 1.0000
57.6400 347.0000 1.0000
57.6500 335.0000 1.0000
57.6600 356.0000 1.0000
57.6700 373.0000 1.0000
57.6800 329.0000 1.0000
57.6900 317.0000 1.0000
57.7000 327.0000 1.0000
57.7100 338.0000 1.0000
57.7200 343.0000 1.0000
57.7300 327.0000 1.0000
57.7400 335.0000 1.0000
57.7500 358.0000 1.0000
57.7600 324.0000 1.0000
57.7700 347.0000 1.0000
57.7800 356.0000 1.0000
57.7900 361.0000 1.0000
57.8000 359.0000 1.0000
57.8100 330.0000 1.0000
57.8200 364.0000 1.0000
57.8300 358.0000 1.0000
57.8400 341.0000 1.0000
57.8500 355.0000 1.0000
57.8600 346.0000 1.0000
57.8700 326.0000 1.0000
57.8800 324.0000 1.0000
57.8900 344.0000 1.0000
57.9000 364.0000 1.0000
57.9100 344.0000 1.0000
57.9200 353.0000 1.0000
57.9300 371.0000 1.0000
57.9400 352.0000 1.0000
57.9500 350.0000 1.0000
57.9600 342.0000 1.0000
57.9700 369.0000 1.0000
57.9800 388.0000 1.0000
57.9900 359.0000 1.0000
58.0000 361.0000 1.0000
58.0100 332.0000 1.0000
58.0200 336.0000 1.0000
58.0300 324.0000 1.0000
58.0400 353.0000 1.0000
58.0500 362.0000 1.0000
58.0600 315.0000 1.0000
58.0700 330.0000 1.0000
58.0800 339.0000 1.0000
58.0900 315.0000 1.0000
58.1000 306.0000 1.0000
58.1100 344.0000 1.0000
58.1200 331.0000 1.0000
58.1300 331.0000 1.0000
58.1400 350.0000 1.0000
58.1500 324.0000 1.0000
58.1600 315.0000 1.0000
58.1700 327.0000 1.0000
58.1800 346.0000 1.0000
58.1900 318.0000 1.0000
58.2000 311.0000 1.0000
58.2100 331.0000 1.0000
58.2200 346.0000 1.0000
58.2300 339.0000 1.0000
58.2400 352.0000 1.0000
58.2500 361.0000 1.0000
58.2600 346.0000 1.0000
58.2700 341.0000 1.0000
58.2800 347.0000 1.0000
58.2900 342.0000 1.0000
58.3000 339.0000 1.0000
58.3100 336.0000 1.0000
58.3200 347.0000 1.0000
58.3300 357.0000 1.0000
58.3400 338.0000 1.0000
58.3500 346.0000 1.0000
58.3600 341.0000 1.0000
58.3700 356.0000 1.0000
58.3800 361.0000 1.0000
58.3900 373.0000 1.0000
58.4000 349.0000 1.0000
58.4100 327.0000 1.0000
58.4200 344.0000 1.0000
58.4300 338.0000 1.0000
58.4400 333.0000 1.0000
58.4500 330.0000 1.0000
58.4600 341.0000 1.0000
58.4700 352.0000 1.0000
58.4800 349.0000 1.0000
58.4900 345.0000 1.0000
58.5000 340.0000 1.0000
58.5100 337.0000 1.0000
58.5200 344.0000 1.0000
58.5300 377.0000 1.0000
58.5400 345.0000 1.0000
58.5500 343.0000 1.0000
58.5600 317.0000 1.0000
58.5700 339.0000 1.0000
58.5800 362.0000 1.0000
58.5900 348.0000 1.0000
58.6000 341.0000 1.0000
58.6100 335.0000 1.0000
58.6200 352.0000 1.0000
58.6300 330.0000 1.0000
58.6400 366.0000 1.0000
58.6500 322.0000 1.0000
58.6600 321.0000 1.0000
58.6700 313.0000 1.0000
58.6800 359.0000 1.0000
58.6900 352.0000 1.0000
58.7000 336.0000 1.0000
58.7100 342.0000 1.0000
58.7200 324.0000 1.0000
58.7300 309.0000 1.0000
58.7400 365.0000 1.0000
58.7500 359.0000 1.0000
58.7600 343.0000 1.0000
58.7700 354.0000 1.0000
58.7800 332.0000 1.0000
58.7900 371.0000 1.0000
58.8000 335.0000 1.0000
58.8100 340.0000 1.0000
58.8200 345.0000 1.0000
58.8300 361.0000 1.0000
58.8400 357.0000 1.0000
58.8500 361.0000 1.0000
58.8600 345.0000 1.0000
58.8700 384.0000 1.0000
58.8800 352.0000 1.0000
58.8900 339.0000 1.0000
58.9000 365.0000 1.0000
58.9100 367.0000 1.0000
58.9200 347.0000 1.0000
58.9300 322.0000 1.0000
58.9400 342.0000 1.0000
58.9500 324.0000 1.0000
58.9600 330.0000 1.0000
58.9700 362.0000 1.0000
58.9800 343.0000 1.0000
58.9900 366.0000 1.0000
59.0000 349.0000 1.0000
59.0100 360.0000 1.0000
59.0200 347.0000 1.0000
59.0300 357.0000 1.0000
59.0400 329.0000 1.0000
59.0500 349.0000 1.0000
59.0600 332.0000 1.0000
59.0700 324.0000 1.0000
59.0800 304.0000 1.0000
59.0900 327.0000 1.0000
59.1000 325.0000 1.0000
59.1100 345.0000 1.0000
59.1200 343.0000 1.0000
59.1300 346.0000 1.0000
59.1400 336.0000 1.0000
59.1500 336.0000 1.0000
59.1600 334.0000 1.0000
59.1700 335.0000 1.0000
59.1800 323.0000 1.0000
59.1900 343.0000 1.0000
59.2000 340.0000 1.0000
59.2100 338.0000 1.0000
59.2200 339.0000 1.0000
59.2300 314.0000 1.0000
59.2400 308.0000 1.0000
59.2500 331.0000 1.0000
59.2600 358.0000 1.0000
59.2700 370.0000 1.0000
59.2800 362.0000 1.0000
59.2900 341.0000 1.0000
59.3000 352.0000 1.0000
59.3100 339.0000 1.0000
59.3200 353.0000 1.0000
59.3300 354.0000 1.0000
59.3400 363.0000 1.0000
59.3500 355.0000 1.0000
59.3600 352.0000 1.0000
59.3700 345.0000 1.0000
59.3800 340.0000 1.0000
59.3900 342.0000 1.0000
59.4000 310.0000 1.0000
59.4100 329.0000 1.0000
59.4200 315.0000 1.0000
59.4300 370.0000 1.0000
59.4400 369.0000 1.0000
59.4500 318.0000 1.0000
59.4600 329.0000 1.0000
59.4700 346.0000 1.0000
59.4800 353.0000 1.0000
59.4900 337.0000 1.0000
59.5000 331.0000 1.0000
59.5100 337.0000 1.0000
59.5200 327.0000 1.0000
59.5300 329.0000 1.0000
59.5400 330.0000 1.0000
59.5500 356.0000 1.0000
59.5600 348.0000 1.0000
59.5700 330.0000 1.0000
59.5800 318.0000 1.0000
59.5900 332.0000 1.0000
59.6000 351.0000 1.0000
59.6100 339.0000 1.0000
59.6200 359.0000 1.0000
59.6300 328.0000 1.0000
59.6400 344.0000 1.0000
59.6500 328.0000 1.0000
59.6600 314.0000 1.0000
59.6700 322.0000 1.0000
59.6800 341.0000 1.0000
59.6900 349.0000 1.0000
59.7000 367.0000 1.0000
59.7100 353.0000 1.0000
59.7200 355.0000 1.0000
59.7300 330.0000 1.0000
59.7400 342.0000 1.0000
59.7500 327.0000 1.0000
59.7600 307.0000 1.0000
59.7700 334.0000 1.0000
59.7800 351.0000 1.0000
59.7900 365.0000 1.0000
59.8000 345.0000 1.0000
59.8100 342.0000 1.0000
59.8200 326.0000 1.0000
59.8300 323.0000 1.0000
59.8400 350.0000 1.0000
59.8500 363.0000 1.0000
59.8600 311.0000 1.0000
59.8700 347.0000 1.0000
59.8800 334.0000 1.0000
59.8900 338.0000 1.0000
59.9000 338.0000 1.0000
59.9100 315.0000 1.0000
59.9200 328.0000 1.0000
59.9300 333.0000 1.0000
59.9400 342.0000 1.0000
59.9500 336.0000 1.0000
59.9600 352.0000 1.0000
59.9700 343.0000 1.0000
59.9800 348.0000 1.0000
59.9900 350.0000 1.0000
60.0000 313.0000 1.0000
60.0100 336.0000 1.0000
60.0200 335.0000 1.0000
60.0300 337.0000 1.0000
60.0400 357.0000 1.0000
60.0500 345.0000 1.0000
60.0600 336.0000 1.0000
60.0700 341.0000 1.0000
60.0800 366.0000 1.0000
60.0900 335.0000 1.0000
60.1000 331.0000 1.0000
60.1100 354.0000 1.0000
60.1200 353.0000 1.0000
60.1300 329.0000 1.0000
60.1400 345.0000 1.0000
60.1500 325.0000 1.0000
60.1600 320.0000 1.0000
60.1700 317.0000 1.0000
60.1800 329.0000 1.0000
60.1900 328.0000 1.0000
60.2000 348.0000 1.0000
60.2100 320.0000 1.0000
60.2200 304.0000 1.0000
60.2300 341.0000 1.0000
60.2400 371.0000 1.0000
60.2500 313.0000 1.0000
60.2600 319.0000 1.0000
60.2700 341.0000 1.0000
60.2800 343.0000 1.0000
60.2900 326.0000 1.0000
60.3000 319.0000 1.0000
60.3100 336.0000 1.0000
60.3200 333.0000 1.0000
60.3300 349.0000 1.0000
60.3400 329.0000 1.0000
60.3500 316.0000 1.0000
60.3600 345.0000 1.0000
60.3700 337.0000 1.0000
60.3800 334.0000 1.0000
60.3900 354.0000 1.0000
60.4000 335.0000 1.0000
60.4100 340.0000 1.0000
60.4200 351.0000 1.0000
60.4300 337.0000 1.0000
60.4400 313.0000 1.0000
60.4500 319.0000 1.0000
60.4600 310.0000 1.0000
60.4700 325.0000 1.0000
60.4800 322.0000 1.0000
60.4900 336.0000 1.0000
60.5000 314.0000 1.0000
60.5100 377.0000 1.0000
60.5200 363.0000 1.0000
60.5300 343.0000 1.0000
60.5400 353.0000 1.0000
60.5500 373.0000 1.0000
60.5600 352.0000 1.0000
60.5700 359.0000 1.0000
60.5800 320.0000 1.0000
60.5900 353.0000 1.0000
60.6000 336.0000 1.0000
60.6100 351.0000 1.0000
60.6200 336.0000 1.0000
60.6300 344.0000 1.0000
60.6400 351.0000 1.0000
60.6500 317.0000 1.0000
60.6600 320.0000 1.0000
60.6700 335.0000 1.0000
60.6800 326.0000 1.0000
60.6900 349.0000 1.0000
60.7000 322.0000 1.0000
60.7100 377.0000 1.0000
60.7200 343.0000 1.0000
60.7300 355.0000 1.0000
60.7400 360.0000 1.0000
60.7500 371.0000 1.0000
60.7600 362.0000 1.0000
60.7700 355.0000 1.0000
60.7800 315.0000 1.0000
60.7900 297.0000 1.0000
60.8000 358.0000 1.0000
60.8100 343.0000 1.0000
60.8200 325.0000 1.0000
60.8300 350.0000 1.0000
60.8400 362.0000 1.0000
60.8500 341.0000 1.0000
60.8600 360.0000 1.0000
60.8700 348.0000 1.0000
60.8800 336.0000 1.0000
60.8900 384.0000 1.0000
60.9000 366.0000 1.0000
60.9100 324.0000 1.0000
60.9200 355.0000 1.0000
60.9300 360.0000 1.0000
60.9400 339.0000 1.0000
60.9500 352.0000 1.0000
60.9600 358.0000 1.0000
60.9700 365.0000 1.0000
60.9800 343.0000 1.0000
60.9900 318.0000 1.0000
61.0000 342.0000 1.0000
61.0100 369.0000 1.0000
61.0200 370.0000 1.0000
61.0300 347.0000 1.0000
61.0400 337.0000 1.0000
61.0500 362.0000 1.0000
61.0600 348.0000 1.0000
61.0700 335.0000 1.0000
61.0800 352.0000 1.0000
61.0900 374.0000 1.0000
61.1000 363.0000 1.0000
61.1100 356.0000 1.0000
61.1200 338.0000 1.0000
61.1300 364.0000 1.0000
61.1400 355.0000 1.0000
61.1500 374.0000 1.0000
61.1600 380.0000 1.0000
61.1700 397.0000 1.0000
61.1800 401.0000 1.0000
61.1900 364.0000 1.0000
61.2000 389.0000 1.0000
61.2100 376.0000 1.0000
61.2200 392.0000 1.0000
61.2300 368.0000 1.0000
61.2400 415.0000 1.0000
61.2500 387.0000 1.0000
61.2600 392.0000 1.0000
61.2700 398.0000 1.0000
61.2800 394.0000 1.0000
61.2900 433.0000 1.0000
61.3000 430.0000 1.0000
61.3100 475.0000 1.0000
61.3200 459.0000 1.0000
61.3300 437.0000 1.0000
61.3400 460.0000 1.0000
61.3500 438.0000 1.0000
61.3600 483.0000 1.0000
61.3700 507.0000 1.0000
61.3800 501.0000 1.0000
61.3900 518.0000 1.0000
61.4000 519.0000 1.0000
61.4100 488.0000 1.0000
61.4200 539.0000 1.0000
61.4300 555.0000 1.0000
61.4400 552.0000 1.0000
61.4500 538.0000 1.0000
61.4600 573.0000 1.0000
61.4700 611.0000 1.0000
61.4800 563.0000 1.0000
61.4900 581.0000 1.0000
61.5000 619.0000 1.0000
61.5100 592.0000 1.0000
61.5200 628.0000 1.0000
61.5300 627.0000 1.0000
61.5400 605.0000 1.0000
61.5500 620.0000 1.0000
61.5600 588.0000 1.0000
61.5700 634.0000 1.0000
61.5800 604.0000 1.0000
61.5900 603.0000 1.0000
61.6000 590.0000 1.0000
61.6100 616.0000 1.0000
61.6200 583.0000 1.0000
61.6300 602.0000 1.0000
61.6400 628.0000 1.0000
61.6500 604.0000 1.0000
61.6600 579.0000 1.0000
61.6700 575.0000 1.0000
61.6800 603.0000 1.0000
61.6900 546.0000 1.0000
61.7000 548.0000 1.0000
61.7100 506.0000 1.0000
61.7200 539.0000 1.0000
61.7300 492.0000 1.0000
61.7400 511.0000 1.0000
61.7500 551.0000 1.0000
61.7600 507.0000 1.0000
61.7700 497.0000 1.0000
61.7800 471.0000 1.0000
61.7900 488.0000 1.0000
61.8000 473.0000 1.0000
61.8100 454.0000 1.0000
61.8200 454.0000 1.0000
61.8300 430.0000 1.0000
61.8400 438.0000 1.0000
61.8500 434.0000 1.0000
61.8600 447.0000 1.0000
61.8700 431.0000 1.0000
61.8800 441.0000 1.0000
61.8900 414.0000 1.0000
61.9000 430.0000 1.0000
61.9100 397.0000 1.0000
61.9200 403.0000 1.0000
61.9300 400.0000 1.0000
61.9400 419.0000 1.0000
61.9500 402.0000 1.0000
61.9600 386.0000 1.0000
61.9700 404.0000 1.0000
61.9800 418.0000 1.0000
61.9900 388.0000 1.0000
62.0000 403.0000 1.0000
62.0100 388.0000 1.0000
62.0200 359.0000 1.0000
62.0300 364.0000 1.0000
62.0400 415.0000 1.0000
62.0500 378.0000 1.0000
62.0600 367.0000 1.0000
62.0700 405.0000 1.0000
62.0800 363.0000 1.0000
62.0900 385.0000 1.0000
62.1000 343.0000 1.0000
62.1100 371.0000 1.0000
62.1200 367.0000 1.0000
62.1300 335.0000 1.0000
62.1400 361.0000 1.0000
62.1500 376.0000 1.0000
62.1600 337.0000 1.0000
62.1700 365.0000 1.0000
62.1800 370.0000 1.0000
62.1900 410.0000 1.0000
62.2000 385.0000 1.0000
62.2100 376.0000 1.0000
62.2200 374.0000 1.0000
62.2300 375.0000 1.0000
62.2400 387.0000 1.0000
62.2500 397.0000 1.0000
62.2600 369.0000 1.0000
62.2700 378.0000 1.0000
62.2800 357.0000 1.0000
62.2900 378.0000 1.0000
62.3000 396.0000 1.0000
62.3100 385.0000 1.0000
62.3200 416.0000 1.0000
62.3300 388.0000 1.0000
62.3400 387.0000 1.0000
62.3500 435.0000 1.0000
62.3600 395.0000 1.0000
62.3700 377.0000 1.0000
62.3800 409.0000 1.0000
62.3900 407.0000 1.0000
62.4000 414.0000 1.0000
62.4100 396.0000 1.0000
62.4200 403.0000 1.0000
62.4300 400.0000 1.0000
62.4400 380.0000 1.0000
62.4500 384.0000 1.0000
62.4600 377.0000 1.0000
62.4700 367.0000 1.0000
62.4800 355.0000 1.0000
62.4900 353.0000 1.0000
62.5000 367.0000 1.0000
62.5100 397.0000 1.0000
62.5200 386.0000 1.0000
62.5300 390.0000 1.0000
62.5400 356.0000 1.0000
62.5500 364.0000 1.0000
62.5600 376.0000 1.0000
62.5700 376.0000 1.0000
62.5800 374.0000 1.0000
62.5900 352.0000 1.0000
62.6000 340.0000 1.0000
62.6100 351.0000 1.0000
62.6200 345.0000 1.0000
62.6300 346.0000 1.0000
62.6400 364.0000 1.0000
62.6500 371.0000 1.0000
62.6600 335.0000 1.0000
62.6700 369.0000 1.0000
62.6800 319.0000 1.0000
62.6900 355.0000 1.0000
62.7000 391.0000 1.0000
62.7100 335.0000 1.0000
62.7200 338.0000 1.0000
62.7300 350.0000 1.0000
62.7400 346.0000 1.0000
62.7500 327.0000 1.0000
62.7600 320.0000 1.0000
62.7700 310.0000 1.0000
62.7800 335.0000 1.0000
62.7900 320.0000 1.0000
62.8000 332.0000 1.0000
62.8100 311.0000 1.0000
62.8200 309.0000 1.0000
62.8300 328.0000 1.0000
62.8400 307.0000 1.0000
62.8500 324.0000 1.0000
62.8600 319.0000 1.0000
62.8700 328.0000 1.0000
62.8800 336.0000 1.0000
62.8900 328.0000 1.0000
62.9000 326.0000 1.0000
62.9100 319.0000 1.0000
62.9200 351.0000 1.0000
62.9300 352.0000 1.0000
62.9400 358.0000 1.0000
62.9500 331.0000 1.0000
62.9600 325.0000 1.0000
62.9700 327.0000 1.0000
62.9800 365.0000 1.0000
62.9900 344.0000 1.0000
63.0000 327.0000 1.0000
63.0100 310.0000 1.0000
63.0200 318.0000 1.0000
63.0300 317.0000 1.0000
63.0400 336.0000 1.0000
63.0500 322.0000 1.0000
63.0600 357.0000 1.0000
63.0700 337.0000 1.0000
63.0800 337.0000 1.0000
63.0900 369.0000 1.0000
63.1000 351.0000 1.0000
63.1100 350.0000 1.0000
63.1200 351.0000 1.0000
63.1300 302.0000 1.0000
63.1400 331.0000 1.0000
63.1500 344.0000 1.0000
63.1600 330.0000 1.0000
63.1700 337.0000 1.0000
63.1800 327.0000 1.0000
63.1900 334.0000 1.0000
63.2000 329.0000 1.0000
63.2100 349.0000 1.0000
63.2200 368.0000 1.0000
63.2300 334.0000 1.0000
63.2400 327.0000 1.0000
63.2500 352.0000 1.0000
63.2600 337.0000 1.0000
63.2700 342.0000 1.0000
63.2800 360.0000 1.0000
63.2900 349.0000 1.0000
63.3000 345.0000 1.0000
63.3100 349.0000 1.0000
63.3200 348.0000 1.0000
63.3300 351.0000 1.0000
63.3400 345.0000 1.0000
63.3500 319.0000 1.0000
63.3600 313.0000 1.0000
63.3700 359.0000 1.0000
63.3800 344.0000 1.0000
63.3900 352.0000 1.0000
63.4000 347.0000 1.0000
63.4100 326.0000 1.0000
63.4200 345.0000 1.0000
63.4300 358.0000 1.0000
63.4400 340.0000 1.0000
63.4500 357.0000 1.0000
63.4600 351.0000 1.0000
63.4700 358.0000 1.0000
63.4800 371.0000 1.0000
63.4900 332.0000 1.0000
63.5000 349.0000 1.0000
63.5100 336.0000 1.0000
63.5200 324.0000 1.0000
63.5300 309.0000 1.0000
63.5400 354.0000 1.0000
63.5500 335.0000 1.0000
63.5600 322.0000 1.0000
63.5700 338.0000 1.0000
63.5800 340.0000 1.0000
63.5900 325.0000 1.0000
63.6000 389.0000 1.0000
63.6100 374.0000 1.0000
63.6200 366.0000 1.0000
63.6300 364.0000 1.0000
63.6400 352.0000 1.0000
63.6500 391.0000 1.0000
63.6600 407.0000 1.0000
63.6700 378.0000 1.0000
63.6800 403.0000 1.0000
63.6900 379.0000 1.0000
63.7000 372.0000 1.0000
63.7100 398.0000 1.0000
63.7200 394.0000 1.0000
63.7300 393.0000 1.0000
63.7400 389.0000 1.0000
63.7500 406.0000 1.0000
63.7600 423.0000 1.0000
63.7700 439.0000 1.0000
63.7800 418.0000 1.0000
63.7900 455.0000 1.0000
63.8000 460.0000 1.0000
63.8100 460.0000 1.0000
63.8200 478.0000 1.0000
63.8300 494.0000 1.0000
63.8400 516.0000 1.0000
63.8500 519.0000 1.0000
63.8600 578.0000 1.0000
63.8700 591.0000 1.0000
63.8800 575.0000 1.0000
63.8900 610.0000 1.0000
63.9000 659.0000 1.0000
63.9100 659.0000 1.0000
63.9200 693.0000 1.0000
63.9300 685.0000 1.0000
63.9400 729.0000 1.0000
63.9500 695.0000 1.0000
63.9600 698.0000 1.0000
63.9700 618.0000 1.0000
63.9800 644.0000 1.0000
63.9900 653.0000 1.0000
64.0000 619.0000 1.0000
64.0100 582.0000 1.0000
64.0200 572.0000 1.0000
64.0300 606.0000 1.0000
64.0400 581.0000 1.0000
64.0500 537.0000 1.0000
64.0600 594.0000 1.0000
64.0700 582.0000 1.0000
64.0800 606.0000 1.0000
64.0900 546.0000 1.0000
64.1000 553.0000 1.0000
64.1100 554.0000 1.0000
64.1200 541.0000 1.0000
64.1300 571.0000 1.0000
64.1400 510.0000 1.0000
64.1500 499.0000 1.0000
64.1600 517.0000 1.0000
64.1700 507.0000 1.0000
64.1800 484.0000 1.0000
64.1900 431.0000 1.0000
64.2000 424.0000 1.0000
64.2100 436.0000 1.0000
64.2200 436.0000 1.0000
64.2300 427.0000 1.0000
64.2400 421.0000 1.0000
64.2500 428.0000 1.0000
64.2600 394.0000 1.0000
64.2700 406.0000 1.0000
64.2800 422.0000 1.0000
64.2900 402.0000 1.0000
64.3000 374.0000 1.0000
64.3100 407.0000 1.0000
64.3200 380.0000 1.0000
64.3300 385.0000 1.0000
64.3400 380.0000 1.0000
64.3500 362.0000 1.0000
64.3600 370.0000 1.0000
64.3700 367.0000 1.0000
64.3800 373.0000 1.0000
64.3900 376.0000 1.0000
64.4000 354.0000 1.0000
64.4100 362.0000 1.0000
64.4200 383.0000 1.0000
64.4300 352.0000 1.0000
64.4400 348.0000 1.0000
64.4500 357.0000 1.0000
64.4600 348.0000 1.0000
64.4700 333.0000 1.0000
64.4800 368.0000 1.0000
64.4900 367.0000 1.0000
64.5000 349.0000 1.0000
64.5100 345.0000 1.0000
64.5200 372.0000 1.0000
64.5300 376.0000 1.0000
64.5400 362.0000 1.0000
64.5500 332.0000 1.0000
64.5600 331.0000 1.0000
64.5700 344.0000 1.0000
64.5800 366.0000 1.0000
64.5900 353.0000 1.0000
64.6000 347.0000 1.0000
64.6100 348.0000 1.0000
64.6200 337.0000 1.0000
64.6300 350.0000 1.0000
64.6400 367.0000 1.0000
64.6500 348.0000 1.0000
64.6600 359.0000 1.0000
64.6700 362.0000 1.0000
64.6800 346.0000 1.0000
64.6900 367.0000 1.0000
64.7000 333.0000 1.0000
64.7100 347.0000 1.0000
64.7200 300.0000 1.0000
64.7300 325.0000 1.0000
64.7400 349.0000 1.0000
64.7500 351.0000 1.0000
64.7600 348.0000 1.0000
64.7700 348.0000 1.0000
64.7800 327.0000 1.0000
64.7900 339.0000 1.0000
64.8000 310.0000 1.0000
64.8100 354.0000 1.0000
64.8200 367.0000 1.0000
64.8300 355.0000 1.0000
64.8400 335.0000 1.0000
64.8500 361.0000 1.0000
64.8600 355.0000 1.0000
64.8700 345.0000 1.0000
64.8800 334.0000 1.0000
64.8900 356.0000 1.0000
64.9000 344.0000 1.0000
64.9100 320.0000 1.0000
64.9200 355.0000 1.0000
64.9300 335.0000 1.0000
64.9400 365.0000 1.0000
64.9500 358.0000 1.0000
64.9600 351.0000 1.0000
64.9700 366.0000 1.0000
64.9800 354.0000 1.0000
64.9900 351.0000 1.0000
65.0000 373.0000 1.0000
65.0100 346.0000 1.0000
65.0200 361.0000 1.0000
65.0300 391.0000 1.0000
65.0400 365.0000 1.0000
65.0500 383.0000 1.0000
65.0600 369.0000 1.0000
65.0700 366.0000 1.0000
65.0800 379.0000 1.0000
65.0900 383.0000 1.0000
65.1000 359.0000 1.0000
65.1100 370.0000 1.0000
65.1200 383.0000 1.0000
65.1300 384.0000 1.0000
65.1400 399.0000 1.0000
65.1500 367.0000 1.0000
65.1600 377.0000 1.0000
65.1700 421.0000 1.0000
65.1800 392.0000 1.0000
65.1900 413.0000 1.0000
65.2000 419.0000 1.0000
65.2100 435.0000 1.0000
65.2200 428.0000 1.0000
65.2300 403.0000 1.0000
65.2400 442.0000 1.0000
65.2500 463.0000 1.0000
65.2600 427.0000 1.0000
65.2700 454.0000 1.0000
65.2800 442.0000 1.0000
65.2900 495.0000 1.0000
65.3000 507.0000 1.0000
65.3100 523.0000 1.0000
65.3200 493.0000 1.0000
65.3300 512.0000 1.0000
65.3400 549.0000 1.0000
65.3500 596.0000 1.0000
65.3600 607.0000 1.0000
65.3700 619.0000 1.0000
65.3800 658.0000 1.0000
65.3900 648.0000 1.0000
65.4000 671.0000 1.0000
65.4100 720.0000 1.0000
65.4200 731.0000 1.0000
65.4300 750.0000 1.0000
65.4400 820.0000 1.0000
65.4500 854.0000 1.0000
65.4600 843.0000 1.0000
65.4700 827.0000 1.0000
65.4800 866.0000 1.0000
65.4900 940.0000 1.0000
65.5000 943.0000 1.0000
65.5100 963.0000 1.0000
65.5200 1002.0000 1.0000
65.5300 1008.0000 1.0000
65.5400 1005.0000 1.0000
65.5500 984.0000 1.0000
65.5600 995.0000 1.0000
65.5700 1003.0000 1.0000
65.5800 1046.0000 1.0000
65.5900 986.0000 1.0000
65.6000 995.0000 1.0000
65.6100 911.0000 1.0000
65.6200 900.0000 1.0000
65.6300 854.0000 1.0000
65.6400 864.0000 1.0000
65.6500 887.0000 1.0000
65.6600 910.0000 1.0000
65.6700 787.0000 1.0000
65.6800 867.0000 1.0000
65.6900 813.0000 1.0000
65.7000 818.0000 1.0000
65.7100 811.0000 1.0000
65.7200 800.0000 1.0000
65.7300 814.0000 1.0000
65.7400 743.0000 1.0000
65.7500 746.0000 1.0000
65.7600 743.0000 1.0000
65.7700 652.0000 1.0000
65.7800 663.0000 1.0000
65.7900 592.0000 1.0000
65.8000 640.0000 1.0000
65.8100 639.0000 1.0000
65.8200 568.0000 1.0000
65.8300 560.0000 1.0000
65.8400 530.0000 1.0000
65.8500 514.0000 1.0000
65.8600 522.0000 1.0000
65.8700 456.0000 1.0000
65.8800 506.0000 1.0000
65.8900 471.0000 1.0000
65.9000 462.0000 1.0000
65.9100 449.0000 1.0000
65.9200 459.0000 1.0000
65.9300 431.0000 1.0000
65.9400 422.0000 1.0000
65.9500 399.0000 1.0000
65.9600 390.0000 1.0000
65.9700 410.0000 1.0000
65.9800 370.0000 1.0000
65.9900 418.0000 1.0000
66.0000 394.0000 1.0000
66.0100 371.0000 1.0000
66.0200 383.0000 1.0000
66.0300 394.0000 1.0000
66.0400 384.0000 1.0000
66.0500 342.0000 1.0000
66.0600 367.0000 1.0000
66.0700 386.0000 1.0000
66.0800 370.0000 1.0000
66.0900 384.0000 1.0000
66.1000 368.0000 1.0000
66.1100 357.0000 1.0000
66.1200 376.0000 1.0000
66.1300 351.0000 1.0000
66.1400 344.0000 1.0000
66.1500 372.0000 1.0000
66.1600 341.0000 1.0000
66.1700 311.0000 1.0000
66.1800 362.0000 1.0000
66.1900 337.0000 1.0000
66.2000 333.0000 1.0000
66.2100 318.0000 1.0000
66.2200 332.0000 1.0000
66.2300 325.0000 1.0000
66.2400 337.0000 1.0000
66.2500 341.0000 1.0000
66.2600 332.0000 1.0000
66.2700 304.0000 1.0000
66.2800 347.0000 1.0000
66.2900 342.0000 1.0000
66.3000 359.0000 1.0000
66.3100 318.0000 1.0000
66.3200 304.0000 1.0000
66.3300 346.0000 1.0000
66.3400 354.0000 1.0000
66.3500 324.0000 1.0000
66.3600 321.0000 1.0000
66.3700 313.0000 1.0000
66.3800 308.0000 1.0000
66.3900 354.0000 1.0000
66.4000 334.0000 1.0000
66.4100 344.0000 1.0000
66.4200 330.0000 1.0000
66.4300 348.0000 1.0000
66.4400 325.0000 1.0000
66.4500 324.0000 1.0000
66.4600 322.0000 1.0000
66.4700 353.0000 1.0000
66.4800 337.0000 1.0000
66.4900 354.0000 1.0000
66.5000 318.0000 1.0000
66.5100 339.0000 1.0000
66.5200 351.0000 1.0000
66.5300 331.0000 1.0000
66.5400 325.0000 1.0000
66.5500 341.0000 1.0000
66.5600 314.0000 1.0000
66.5700 318.0000 1.0000
66.5800 331.0000 1.0000
66.5900 316.0000 1.0000
66.6000 298.0000 1.0000
66.6100 320.0000 1.0000
66.6200 322.0000 1.0000
66.6300 316.0000 1.0000
66.6400 303.0000 1.0000
66.6500 329.0000 1.0000
66.6600 334.0000 1.0000
66.6700 323.0000 1.0000
66.6800 312.0000 1.0000
66.6900 307.0000 1.0000
66.7000 303.0000 1.0000
66.7100 309.0000 1.0000
66.7200 322.0000 1.0000
66.7300 304.0000 1.0000
66.7400 317.0000 1.0000
66.7500 329.0000 1.0000
66.7600 314.0000 1.0000
66.7700 327.0000 1.0000
66.7800 310.0000 1.0000
66.7900 281.0000 1.0000
66.8000 310.0000 1.0000
66.8100 303.0000 1.0000
66.8200 285.0000 1.0000
66.8300 315.0000 1.0000
66.8400 330.0000 1.0000
66.8500 309.0000 1.0000
66.8600 298.0000 1.0000
66.8700 331.0000 1.0000
66.8800 304.0000 1.0000
66.8900 308.0000 1.0000
66.9000 299.0000 1.0000
66.9100 311.0000 1.0000
66.9200 318.0000 1.0000
66.9300 300.0000 1.0000
66.9400 301.0000 1.0000
66.9500 325.0000 1.0000
66.9600 297.0000 1.0000
66.9700 306.0000 1.0000
66.9800 313.0000 1.0000
66.9900 294.0000 1.0000
67.0000 312.0000 1.0000
67.0100 287.0000 1.0000
67.0200 293.0000 1.0000
67.0300 296.0000 1.0000
67.0400 322.0000 1.0000
67.0500 325.0000 1.0000
67.0600 304.0000 1.0000
67.0700 328.0000 1.0000
67.0800 325.0000 1.0000
67.0900 326.0000 1.0000
67.1000 333.0000 1.0000
67.1100 321.0000 1.0000
67.1200 316.0000 1.0000
67.1300 292.0000 1.0000
67.1400 319.0000 1.0000
67.1500 317.0000 1.0000
67.1600 304.0000 1.0000
67.1700 300.0000 1.0000
67.1800 301.0000 1.0000
67.1900 314.0000 1.0000
67.2000 315.0000 1.0000
67.2100 314.0000 1.0000
67.2200 323.0000 1.0000
67.2300 322.0000 1.0000
67.2400 325.0000 1.0000
67.2500 326.0000 1.0000
67.2600 327.0000 1.0000
67.2700 306.0000 1.0000
67.2800 293.0000 1.0000
67.2900 309.0000 1.0000
67.3000 320.0000 1.0000
67.3100 334.0000 1.0000
67.3200 336.0000 1.0000
67.3300 312.0000 1.0000
67.3400 313.0000 1.0000
67.3500 278.0000 1.0000
67.3600 285.0000 1.0000
67.3700 309.0000 1.0000
67.3800 287.0000 1.0000
67.3900 279.0000 1.0000
67.4000 304.0000 1.0000
67.4100 320.0000 1.0000
67.4200 313.0000 1.0000
67.4300 312.0000 1.0000
67.4400 314.0000 1.0000
67.4500 313.0000 1.0000
67.4600 317.0000 1.0000
67.4700 321.0000 1.0000
67.4800 315.0000 1.0000
67.4900 305.0000 1.0000
67.5000 307.0000 1.0000
67.5100 312.0000 1.0000
67.5200 318.0000 1.0000
67.5300 324.0000 1.0000
67.5400 306.0000 1.0000
67.5500 320.0000 1.0000
67.5600 302.0000 1.0000
67.5700 309.0000 1.0000
67.5800 331.0000 1.0000
67.5900 334.0000 1.0000
67.6000 341.0000 1.0000
67.6100 323.0000 1.0000
67.6200 293.0000 1.0000
67.6300 276.0000 1.0000
67.6400 303.0000 1.0000
67.6500 311.0000 1.0000
67.6600 303.0000 1.0000
67.6700 314.0000 1.0000
67.6800 305.0000 1.0000
67.6900 309.0000 1.0000
67.7000 304.0000 1.0000
67.7100 301.0000 1.0000
67.7200 311.0000 1.0000
67.7300 314.0000 1.0000
67.7400 304.0000 1.0000
67.7500 297.0000 1.0000
67.7600 336.0000 1.0000
67.7700 324.0000 1.0000
67.7800 324.0000 1.0000
67.7900 331.0000 1.0000
67.8000 306.0000 1.0000
67.8100 306.0000 1.0000
67.8200 289.0000 1.0000
67.8300 300.0000 1.0000
67.8400 327.0000 1.0000
67.8500 286.0000 1.0000
67.8600 260.0000 1.0000
67.8700 351.0000 1.0000
67.8800 298.0000 1.0000
67.8900 293.0000 1.0000
67.9000 317.0000 1.0000
67.9100 307.0000 1.0000
67.9200 311.0000 1.0000
67.9300 302.0000 1.0000
67.9400 310.0000 1.0000
67.9500 318.0000 1.0000
67.9600 305.0000 1.0000
67.9700 286.0000 1.0000
67.9800 265.0000 1.0000
67.9900 306.0000 1.0000
68.0000 326.0000 1.0000
68.0100 288.0000 1.0000
68.0200 304.0000 1.0000
68.0300 320.0000 1.0000
68.0400 302.0000 1.0000
68.0500 290.0000 1.0000
68.0600 297.0000 1.0000
68.0700 312.0000 1.0000
68.0800 303.0000 1.0000
68.0900 312.0000 1.0000
68.1000 317.0000 1.0000
68.1100 317.0000 1.0000
68.1200 310.0000 1.0000
68.1300 295.0000 1.0000
68.1400 316.0000 1.0000
68.1500 316.0000 1.0000
68.1600 308.0000 1.0000
68.1700 312.0000 1.0000
68.1800 308.0000 1.0000
68.1900 312.0000 1.0000
68.2000 320.0000 1.0000
68.2100 339.0000 1.0000
68.2200 315.0000 1.0000
68.2300 301.0000 1.0000
68.2400 312.0000 1.0000
68.2500 305.0000 1.0000
68.2600 322.0000 1.0000
68.2700 320.0000 1.0000
68.2800 294.0000 1.0000
68.2900 293.0000 1.0000
68.3000 326.0000 1.0000
68.3100 319.0000 1.0000
68.3200 291.0000 1.0000
68.3300 263.0000 1.0000
68.3400 296.0000 1.0000
68.3500 315.0000 1.0000
68.3600 302.0000 1.0000
68.3700 315.0000 1.0000
68.3800 302.0000 1.0000
68.3900 305.0000 1.0000
68.4000 292.0000 1.0000
68.4100 301.0000 1.0000
68.4200 311.0000 1.0000
68.4300 321.0000 1.0000
68.4400 315.0000 1.0000
68.4500 284.0000 1.0000
68.4600 274.0000 1.0000
68.4700 304.0000 1.0000
68.4800 314.0000 1.0000
68.4900 309.0000 1.0000
68.5000 308.0000 1.0000
68.5100 327.0000 1.0000
68.5200 286.0000 1.0000
68.5300 292.0000 1.0000
68.5400 309.0000 1.0000
68.5500 293.0000 1.0000
68.5600 294.0000 1.0000
68.5700 292.0000 1.0000
68.5800 292.0000 1.0000
68.5900 273.0000 1.0000
68.6000 271.0000 1.0000
68.6100 290.0000 1.0000
68.6200 304.0000 1.0000
68.6300 305.0000 1.0000
68.6400 308.0000 1.0000
68.6500 301.0000 1.0000
68.6600 287.0000 1.0000
68.6700 295.0000 1.0000
68.6800 294.0000 1.0000
68.6900 288.0000 1.0000
68.7000 285.0000 1.0000
68.7100 324.0000 1.0000
68.7200 304.0000 1.0000
68.7300 296.0000 1.0000
68.7400 310.0000 1.0000
68.7500 277.0000 1.0000
68.7600 291.0000 1.0000
68.7700 317.0000 1.0000
68.7800 307.0000 1.0000
68.7900 334.0000 1.0000
68.8000 317.0000 1.0000
68.8100 315.0000 1.0000
68.8200 295.0000 1.0000
68.8300 263.0000 1.0000
68.8400 304.0000 1.0000
68.8500 300.0000 1.0000
68.8600 279.0000 1.0000
68.8700 285.0000 1.0000
68.8800 332.0000 1.0000
68.8900 289.0000 1.0000
68.9000 273.0000 1.0000
68.9100 303.0000 1.0000
68.9200 313.0000 1.0000
68.9300 312.0000 1.0000
68.9400 299.0000 1.0000
68.9500 303.0000 1.0000
68.9600 311.0000 1.0000
68.9700 301.0000 1.0000
68.9800 298.0000 1.0000
68.9900 305.0000 1.0000
69.0000 288.0000 1.0000
69.0100 316.0000 1.0000
69.0200 290.0000 1.0000
69.0300 309.0000 1.0000
69.0400 303.0000 1.0000
69.0500 314.0000 1.0000
69.0600 295.0000 1.0000
69.0700 314.0000 1.0000
69.0800 307.0000 1.0000
69.0900 305.0000 1.0000
69.1000 294.0000 1.0000
69.1100 310.0000 1.0000
69.1200 291.0000 1.0000
69.1300 267.0000 1.0000
69.1400 298.0000 1.0000
69.1500 305.0000 1.0000
69.1600 278.0000 1.0000
69.1700 280.0000 1.0000
69.1800 287.0000 1.0000
69.1900 291.0000 1.0000
69.2000 279.0000 1.0000
69.2100 305.0000 1.0000
69.2200 292.0000 1.0000
69.2300 290.0000 1.0000
69.2400 290.0000 1.0000
69.2500 304.0000 1.0000
69.2600 304.0000 1.0000
69.2700 280.0000 1.0000
69.2800 290.0000 1.0000
69.2900 271.0000 1.0000
69.3000 310.0000 1.0000
69.3100 273.0000 1.0000
69.3200 289.0000 1.0000
69.3300 284.0000 1.0000
69.3400 296.0000 1.0000
69.3500 302.0000 1.0000
69.3600 288.0000 1.0000
69.3700 285.0000 1.0000
69.3800 303.0000 1.0000
69.3900 291.0000 1.0000
69.4000 296.0000 1.0000
69.4100 289.0000 1.0000
69.4200 310.0000 1.0000
69.4300 301.0000 1.0000
69.4400 300.0000 1.0000
69.4500 307.0000 1.0000
69.4600 285.0000 1.0000
69.4700 291.0000 1.0000
69.4800 287.0000 1.0000
69.4900 312.0000 1.0000
69.5000 302.0000 1.0000
69.5100 307.0000 1.0000
69.5200 309.0000 1.0000
69.5300 328.0000 1.0000
69.5400 296.0000 1.0000
69.5500 286.0000 1.0000
69.5600 296.0000 1.0000
69.5700 297.0000 1.0000
69.5800 326.0000 1.0000
69.5900 302.0000 1.0000
69.6000 262.0000 1.0000
69.6100 302.0000 1.0000
69.6200 291.0000 1.0000
69.6300 295.0000 1.0000
69.6400 276.0000 1.0000
69.6500 280.0000 1.0000
69.6600 294.0000 1.0000
69.6700 302.0000 1.0000
69.6800 281.0000 1.0000
69.6900 296.0000 1.0000
69.7000 300.0000 1.0000
69.7100 301.0000 1.0000
69.7200 288.0000 1.0000
69.7300 281.0000 1.0000
69.7400 262.0000 1.0000
69.7500 290.0000 1.0000
69.7600 279.0000 1.0000
69.7700 272.0000 1.0000
69.7800 299.0000 1.0000
69.7900 324.0000 1.0000
69.8000 286.0000 1.0000
69.8100 284.0000 1.0000
69.8200 313.0000 1.0000
69.8300 297.0000 1.0000
69.8400 302.0000 1.0000
69.8500 274.0000 1.0000
69.8600 290.0000 1.0000
69.8700 288.0000 1.0000
69.8800 310.0000 1.0000
69.8900 281.0000 1.0000
69.9000 314.0000 1.0000
69.9100 282.0000 1.0000
69.9200 301.0000 1.0000
69.9300 315.0000 1.0000
69.9400 298.0000 1.0000
69.9500 282.0000 1.0000
69.9600 307.0000 1.0000
69.9700 315.0000 1.0000
69.9800 298.0000 1.0000
69.9900 270.0000 1.0000
70.0000 292.0000 1.0000
*RAS_INT_END
*RAS_TEMPERATURE_START
*RAS_TEMPERATURE_END
*RAS_DATA_END
