*RAS_DATA_START
*RAS_HEADER_START
*DISP_FMT_X "%.2f"
*DISP_FMT_Y "%.0f"
*DISP_FULLSCALE "12900.0000000000"
*DISP_LINE_COLOR "255.0000000000"
*DISP_LINE_STYLE "0.0000000000"
*DISP_LINE_WIDTH "0.2500000000"
*DISP_NOTE "測定データ-11"
*DISP_OFFSET_Y "0.0000000000"
*DISP_PEAKSEARCH_UNIT_Y "cps"
*DISP_RANGE_BOTTOM "0.0000000000"
*DISP_RANGE_LEFT "20.0000000000"
*DISP_RANGE_LOGCUTOFF "0.0100000000"
*DISP_RANGE_RIGHT "70.0000000000"
*DISP_RANGE_TOP "12900.0000000000"
*DISP_SCALE_MODE_Y "0.0000000000"
*DISP_TAB_NAME "2θ/θ"
*DISP_TITLE_Y "強度"
*DISP_UNIT_Y "cps"
*DISP_WINDOW_NAME "MSG_MACROENGINE"
*FILE_COMMENT " "
*FILE_MD5 ""
*FILE_MEMO " "
*FILE_OPERATOR "Administrator"
*FILE_SAMPLE " "
*FILE_TYPE "RAS_RAW"
*FILE_USERGROUP "システムマネージャ"
*FILE_VERSION "1.0000000000"
*HW_ATTACHMENT_ID "ATT0025"
*HW_ATTACHMENT_NAME "標準|Standard"
*HW_COUNTER_ID-0 "CUT0025"
*HW_COUNTER_ID-1 "CUT0020"
*HW_COUNTER_ID-2 "CUT0020"
*HW_COUNTER_ID-3 "CSL0021"
*HW_COUNTER_ID-4 "CMC0021"
*HW_COUNTER_NAME-0 "D/teX Ultra|D/teX Ultra"
*HW_COUNTER_NAME-1 "None|None"
*HW_COUNTER_NAME-2 "None|None"
*HW_COUNTER_NAME-3 "BBM|BBM"
*HW_COUNTER_NAME-4 "検出器モノクロメータ|Detector monochromator"
*HW_COUNTER_SELECT_NAME "D/teX Ultra|D/teX Ultra"
*HW_GONIOMETER_ID "GON0023"
*HW_GONIOMETER_NAME "SmartLab|SmartLab"
*HW_GONIOMETER_RADIUS-0 "90.0"
*HW_GONIOMETER_RADIUS-1 "114.0"
*HW_GONIOMETER_RADIUS-2 "190.0"
*HW_GONIOMETER_RADIUS-3 "300.0"
*HW_GONIOMETER_RADIUS-4 "187.0"
*HW_GONIOMETER_RADIUS-5 "300.0"
*HW_GONIOMETER_RADIUS-6 "113.0"
*HW_GONIOMETER_RADIUS-7 "331.0"
*HW_I_OPT_ID-0 "CBO0021"
*HW_I_OPT_ID-1 "ICR0023"
*HW_I_OPT_ID-2 "ISL0021"
*HW_I_OPT_ID-3 "ISO0021"
*HW_I_OPT_ID-4 "IAD0021"
*HW_I_OPT_ID-5 "IPR0001"
*HW_I_OPT_NAME-0 "CBOユニット|CBO unit"
*HW_I_OPT_NAME-1 "標準入射光学ユニット|Standard incident optical unit"
*HW_I_OPT_NAME-2 "標準入射スリットボックス|Standard incident slit box"
*HW_I_OPT_NAME-3 "入射平行スリット|Incident parallel slit"
*HW_I_OPT_NAME-4 "長手制限スリット|Length limiting slit"
*HW_I_OPT_NAME-5 "None|None"
*HW_R_ATTENUATER_AUTOMODE "0"
*HW_R_OPT_ID-0 "RSS0021"
*HW_R_OPT_ID-1 "RCR0023"
*HW_R_OPT_ID-2 "RSO0021"
*HW_R_OPT_ID-3 "RRS0021"
*HW_R_OPT_ID-4 "ATN0021"
*HW_R_OPT_ID-5 "RFL0021"
*HW_R_OPT_ID-6 "RAD0021"
*HW_R_OPT_NAME-0 "標準受光スリットボックス1|Standard receiving slit box # 1"
*HW_R_OPT_NAME-1 "標準受光光学ユニット1|Standard receiving unit # 1"
*HW_R_OPT_NAME-2 "標準受光光学ユニット2|Standard receiving optical unit # 2"
*HW_R_OPT_NAME-3 "標準受光スリットボックス2|Standard receiving slit box # 2"
*HW_R_OPT_NAME-4 "標準アッテネータ|Standard Attenuator"
*HW_R_OPT_NAME-5 "Cu Kβ|Cu K-beta"
*HW_R_OPT_NAME-6 "調整用受光スリット|Alignment receiving slit"
*HW_SAMPLE_HOLDER_ID "SMP0023"
*HW_SAMPLE_HOLDER_NAME "標準Zステージ|Standard Z stage"
*HW_XG_CURRENT_MAX "50"
*HW_XG_CURRENT_MIN "2"
*HW_XG_CURRENT_RESOLUTION "1"
*HW_XG_CURRENT_UNIT "mA"
*HW_XG_FOCUS "1mm x 10mm"
*HW_XG_FOCUS_TYPE "Normal"
*HW_XG_ID ""
*HW_XG_NAME "3kW 封入管(ID:1200)|3kW Sealed tube(ID:1200)"
*HW_XG_TARGET_ATOMIC_NUMBER "29.0000000000"
*HW_XG_TARGET_NAME "Cu"
*HW_XG_TYPE "Hermetic"
*HW_XG_VOLTAGE_MAX "60"
*HW_XG_VOLTAGE_MIN "20"
*HW_XG_VOLTAGE_RESOLUTION "1"
*HW_XG_VOLTAGE_UNIT "kV"
*HW_XG_WATT_MAX "1.500"
*HW_XG_WATT_UNIT "kW"
*HW_XG_WAVE_LENGTH_ALPHA1 "1.540593"
*HW_XG_WAVE_LENGTH_ALPHA2 "1.544414"
*HW_XG_WAVE_LENGTH_BETA "1.392250"
*MEAS_COND_AXIS_NAME-0 "2θ/θ"
*MEAS_COND_AXIS_NAME-1 "2θ"
*MEAS_COND_AXIS_NAME-2 "ω"
*MEAS_COND_AXIS_NAME-3 "Z"
*MEAS_COND_AXIS_NAME-4 "2θ/ω"
*MEAS_COND_AXIS_NAME-5 "θs"
*MEAS_COND_AXIS_NAME-6 "θd"
*MEAS_COND_AXIS_NAME-7 "Ts"
*MEAS_COND_AXIS_NAME-8 "CBO選択スリット"
*MEAS_COND_AXIS_NAME-9 "M"
*MEAS_COND_AXIS_NAME-10 "入射平行スリット"
*MEAS_COND_AXIS_NAME-11 "入射スリット"
*MEAS_COND_AXIS_NAME-12 ""
*MEAS_COND_AXIS_NAME-13 "Zs"
*MEAS_COND_AXIS_NAME-14 "入射光学素子"
*MEAS_COND_AXIS_NAME-15 "長手制限スリット"
*MEAS_COND_AXIS_NAME-16 "センタースリット"
*MEAS_COND_AXIS_NAME-17 "フィルター"
*MEAS_COND_AXIS_NAME-18 "受光スリット1"
*MEAS_COND_AXIS_NAME-19 "受光スリット2"
*MEAS_COND_AXIS_NAME-20 "受光光学素子"
*MEAS_COND_AXIS_NAME-21 "受光平行スリット"
*MEAS_COND_AXIS_NAME-22 "調整用受光スリット"
*MEAS_COND_AXIS_NAME-23 ""
*MEAS_COND_AXIS_NAME-24 ""
*MEAS_COND_AXIS_NAME-25 "Zd"
*MEAS_COND_AXIS_NAME-26 "アッテネータ"
*MEAS_COND_AXIS_NAME-27 "検出器モノクロメータ"
*MEAS_COND_AXIS_NAME-28 "モノクロメータスリット"
*MEAS_COND_AXIS_NAME-29 "プライマリビーム"
*MEAS_COND_AXIS_NAME-30 "PHA"
*MEAS_COND_AXIS_NAME_INTERNAL-0 "TwoThetaTheta"
*MEAS_COND_AXIS_NAME_INTERNAL-1 "TwoTheta"
*MEAS_COND_AXIS_NAME_INTERNAL-2 "Omega"
*MEAS_COND_AXIS_NAME_INTERNAL-3 "Z"
*MEAS_COND_AXIS_NAME_INTERNAL-4 "TwoThetaOmega"
*MEAS_COND_AXIS_NAME_INTERNAL-5 "ThetaS"
*MEAS_COND_AXIS_NAME_INTERNAL-6 "ThetaD"
*MEAS_COND_AXIS_NAME_INTERNAL-7 "Ts"
*MEAS_COND_AXIS_NAME_INTERNAL-8 "CBO"
*MEAS_COND_AXIS_NAME_INTERNAL-9 "CBO-M"
*MEAS_COND_AXIS_NAME_INTERNAL-10 "IncidentSollerSlit"
*MEAS_COND_AXIS_NAME_INTERNAL-11 "IncidentSlitBox"
*MEAS_COND_AXIS_NAME_INTERNAL-12 "IncidentSlitBox-_Axis"
*MEAS_COND_AXIS_NAME_INTERNAL-13 "Zs"
*MEAS_COND_AXIS_NAME_INTERNAL-14 "IncidentMonochromator"
*MEAS_COND_AXIS_NAME_INTERNAL-15 "IncidentAxdSlit"
*MEAS_COND_AXIS_NAME_INTERNAL-16 "CenterSlit"
*MEAS_COND_AXIS_NAME_INTERNAL-17 "Filter"
*MEAS_COND_AXIS_NAME_INTERNAL-18 "ReceivingSlitBox1"
*MEAS_COND_AXIS_NAME_INTERNAL-19 "ReceivingSlitBox2"
*MEAS_COND_AXIS_NAME_INTERNAL-20 "ReceivingOptics"
*MEAS_COND_AXIS_NAME_INTERNAL-21 "ReceivingSollerSlit"
*MEAS_COND_AXIS_NAME_INTERNAL-22 "ReceivingAxdSlit"
*MEAS_COND_AXIS_NAME_INTERNAL-23 "ReceivingSlitBox1-_Axis"
*MEAS_COND_AXIS_NAME_INTERNAL-24 "ReceivingSlitBox2-_Axis"
*MEAS_COND_AXIS_NAME_INTERNAL-25 "ReceivingSlitBox2-Zd"
*MEAS_COND_AXIS_NAME_INTERNAL-26 "Attenuator"
*MEAS_COND_AXIS_NAME_INTERNAL-27 "CounterMonochromator"
*MEAS_COND_AXIS_NAME_INTERNAL-28 "CounterSlit"
*MEAS_COND_AXIS_NAME_INTERNAL-29 "IncidentPrimary"
*MEAS_COND_AXIS_NAME_INTERNAL-30 "PHA"
*MEAS_COND_AXIS_NAME_MAGICNO-0 "83951616.0000000000"
*MEAS_COND_AXIS_NAME_MAGICNO-1 "268632064.0000000000"
*MEAS_COND_AXIS_NAME_MAGICNO-2 "268500992.0000000000"
*MEAS_COND_AXIS_NAME_MAGICNO-3 "285278208.0000000000"
*MEAS_COND_AXIS_NAME_MAGICNO-4 "83951616.0000000000"
*MEAS_COND_AXIS_NAME_MAGICNO-5 "131072.0000000000"
*MEAS_COND_AXIS_NAME_MAGICNO-6 "131072.0000000000"
*MEAS_COND_AXIS_NAME_MAGICNO-7 "318898176.0000000000"
*MEAS_COND_AXIS_NAME_MAGICNO-8 "20971521.0000000000"
*MEAS_COND_AXIS_NAME_MAGICNO-9 "285343744.0000000000"
*MEAS_COND_AXIS_NAME_MAGICNO-10 "20971521.0000000000"
*MEAS_COND_AXIS_NAME_MAGICNO-11 "22020097.0000000000"
*MEAS_COND_AXIS_NAME_MAGICNO-12 "25165824.0000000000"
*MEAS_COND_AXIS_NAME_MAGICNO-13 "318898176.0000000000"
*MEAS_COND_AXIS_NAME_MAGICNO-14 "1.0000000000"
*MEAS_COND_AXIS_NAME_MAGICNO-15 "20971521.0000000000"
*MEAS_COND_AXIS_NAME_MAGICNO-16 "20971521.0000000000"
*MEAS_COND_AXIS_NAME_MAGICNO-17 "20971521.0000000000"
*MEAS_COND_AXIS_NAME_MAGICNO-18 "23068673.0000000000"
*MEAS_COND_AXIS_NAME_MAGICNO-19 "23068673.0000000000"
*MEAS_COND_AXIS_NAME_MAGICNO-20 "20971521.0000000000"
*MEAS_COND_AXIS_NAME_MAGICNO-21 "20971521.0000000000"
*MEAS_COND_AXIS_NAME_MAGICNO-22 "20971521.0000000000"
*MEAS_COND_AXIS_NAME_MAGICNO-23 "25165824.0000000000"
*MEAS_COND_AXIS_NAME_MAGICNO-24 "25165824.0000000000"
*MEAS_COND_AXIS_NAME_MAGICNO-25 "285343744.0000000000"
*MEAS_COND_AXIS_NAME_MAGICNO-26 "17301505.0000000000"
*MEAS_COND_AXIS_NAME_MAGICNO-27 "20971521.0000000000"
*MEAS_COND_AXIS_NAME_MAGICNO-28 "20971521.0000000000"
*MEAS_COND_AXIS_NAME_MAGICNO-29 "20971521.0000000000"
*MEAS_COND_AXIS_NAME_MAGICNO-30 "0.0000000000"
*MEAS_COND_AXIS_OFFSET-0 "-"
*MEAS_COND_AXIS_OFFSET-1 "-0.0310000000"
*MEAS_COND_AXIS_OFFSET-2 "0.4064000000"
*MEAS_COND_AXIS_OFFSET-3 "-"
*MEAS_COND_AXIS_OFFSET-4 "-"
*MEAS_COND_AXIS_OFFSET-5 "0.4064000000"
*MEAS_COND_AXIS_OFFSET-6 "-0.4374000000"
*MEAS_COND_AXIS_OFFSET-7 "-"
*MEAS_COND_AXIS_OFFSET-8 "-"
*MEAS_COND_AXIS_OFFSET-9 "-"
*MEAS_COND_AXIS_OFFSET-10 "-"
*MEAS_COND_AXIS_OFFSET-11 "-"
*MEAS_COND_AXIS_OFFSET-12 "-"
*MEAS_COND_AXIS_OFFSET-13 "-"
*MEAS_COND_AXIS_OFFSET-14 "-"
*MEAS_COND_AXIS_OFFSET-15 "-"
*MEAS_COND_AXIS_OFFSET-16 "-"
*MEAS_COND_AXIS_OFFSET-17 "-"
*MEAS_COND_AXIS_OFFSET-18 "-"
*MEAS_COND_AXIS_OFFSET-19 "-"
*MEAS_COND_AXIS_OFFSET-20 "-"
*MEAS_COND_AXIS_OFFSET-21 "-"
*MEAS_COND_AXIS_OFFSET-22 "-"
*MEAS_COND_AXIS_OFFSET-23 "-"
*MEAS_COND_AXIS_OFFSET-24 "-"
*MEAS_COND_AXIS_OFFSET-25 "-"
*MEAS_COND_AXIS_OFFSET-26 "-"
*MEAS_COND_AXIS_OFFSET-27 "-"
*MEAS_COND_AXIS_OFFSET-28 "-"
*MEAS_COND_AXIS_OFFSET-29 "-"
*MEAS_COND_AXIS_OFFSET-30 "-"
*MEAS_COND_AXIS_POSITION-0 "0.0000000000"
*MEAS_COND_AXIS_POSITION-1 "0.0000000000"
*MEAS_COND_AXIS_POSITION-2 "0.0000000000"
*MEAS_COND_AXIS_POSITION-3 "-2.8286000000"
*MEAS_COND_AXIS_POSITION-4 "0.0000000000"
*MEAS_COND_AXIS_POSITION-5 "0.0000000000"
*MEAS_COND_AXIS_POSITION-6 "0.0000000000"
*MEAS_COND_AXIS_POSITION-7 "-0.7498700000"
*MEAS_COND_AXIS_POSITION-8 "BB"
*MEAS_COND_AXIS_POSITION-9 "0.0000000000"
*MEAS_COND_AXIS_POSITION-10 "Soller_slit_5.0deg"
*MEAS_COND_AXIS_POSITION-11 "2/3deg"
*MEAS_COND_AXIS_POSITION-12 "2.2088000000"
*MEAS_COND_AXIS_POSITION-13 "-0.6412500000"
*MEAS_COND_AXIS_POSITION-14 "0.0000000000"
*MEAS_COND_AXIS_POSITION-15 "10.0mm"
*MEAS_COND_AXIS_POSITION-16 "None"
*MEAS_COND_AXIS_POSITION-17 "Cu_K-beta"
*MEAS_COND_AXIS_POSITION-18 "13.000mm"
*MEAS_COND_AXIS_POSITION-19 "13.000mm"
*MEAS_COND_AXIS_POSITION-20 "No_unit"
*MEAS_COND_AXIS_POSITION-21 "Soller_slit_5.0deg"
*MEAS_COND_AXIS_POSITION-22 "None"
*MEAS_COND_AXIS_POSITION-23 "13.0000000000"
*MEAS_COND_AXIS_POSITION-24 "13.0000000000"
*MEAS_COND_AXIS_POSITION-25 "0.0281300000"
*MEAS_COND_AXIS_POSITION-26 "Open"
*MEAS_COND_AXIS_POSITION-27 "None"
*MEAS_COND_AXIS_POSITION-28 "None"
*MEAS_COND_AXIS_POSITION-29 "None"
*MEAS_COND_AXIS_POSITION-30 "38.0000000000"
*MEAS_COND_AXIS_UNIT-0 "deg"
*MEAS_COND_AXIS_UNIT-1 "deg"
*MEAS_COND_AXIS_UNIT-2 "deg"
*MEAS_COND_AXIS_UNIT-3 "mm"
*MEAS_COND_AXIS_UNIT-4 "deg"
*MEAS_COND_AXIS_UNIT-5 "deg"
*MEAS_COND_AXIS_UNIT-6 "deg"
*MEAS_COND_AXIS_UNIT-7 "mm"
*MEAS_COND_AXIS_UNIT-8 ""
*MEAS_COND_AXIS_UNIT-9 "pulse"
*MEAS_COND_AXIS_UNIT-10 ""
*MEAS_COND_AXIS_UNIT-11 ""
*MEAS_COND_AXIS_UNIT-12 "mm"
*MEAS_COND_AXIS_UNIT-13 "mm"
*MEAS_COND_AXIS_UNIT-14 ""
*MEAS_COND_AXIS_UNIT-15 ""
*MEAS_COND_AXIS_UNIT-16 ""
*MEAS_COND_AXIS_UNIT-17 ""
*MEAS_COND_AXIS_UNIT-18 ""
*MEAS_COND_AXIS_UNIT-19 ""
*MEAS_COND_AXIS_UNIT-20 ""
*MEAS_COND_AXIS_UNIT-21 ""
*MEAS_COND_AXIS_UNIT-22 ""
*MEAS_COND_AXIS_UNIT-23 "mm"
*MEAS_COND_AXIS_UNIT-24 "mm"
*MEAS_COND_AXIS_UNIT-25 "mm"
*MEAS_COND_AXIS_UNIT-26 ""
*MEAS_COND_AXIS_UNIT-27 ""
*MEAS_COND_AXIS_UNIT-28 ""
*MEAS_COND_AXIS_UNIT-29 ""
*MEAS_COND_AXIS_UNIT-30 "div"
*MEAS_COND_COUNTER_CNTLOSS_CORR "0.0000000000"
*MEAS_COND_COUNTER_PHABASE "38.0000000000"
*MEAS_COND_COUNTER_PHAWINDOW "16.0000000000"
*MEAS_COND_COUNTER_PHA_UNIT "div"
*MEAS_COND_COUNTER_TAUDIFF "30.0000000000"
*MEAS_COND_COUNTER_TAUINT "0.0000000000"
*MEAS_COND_IRRADIATION_MODE "OFF"
*MEAS_COND_IRRADIATION_WIDTH ""
*MEAS_COND_OPT_ATTR "集中法"
*MEAS_COND_OPT_NAME "@集中法"
*MEAS_COND_UNSYMMETRIC_MODE "OFF"
*MEAS_COND_XG_CURRENT "30.0000000000"
*MEAS_COND_XG_VOLTAGE "40.0000000000"
*MEAS_COND_XG_WAVE_TYPE "Ka"
*MEAS_DATA_COUNT "5001.0000000000"
*MEAS_SCAN_AXIS_X "2θ/θ"
*MEAS_SCAN_AXIS_X_INTERNAL "TwoThetaTheta"
*MEAS_SCAN_END_TIME "08/01/23 19:15:59"
*MEAS_SCAN_MODE "CONTINUOUS"
*MEAS_SCAN_MONITOR "0"
*MEAS_SCAN_RESOLUTION_X "0.0002"
*MEAS_SCAN_SPEED "2.5"
*MEAS_SCAN_SPEED_UNIT "deg/min"
*MEAS_SCAN_START "20.0000000000"
*MEAS_SCAN_START_TIME "08/01/23 18:54:35"
*MEAS_SCAN_STEP "0.0100000000"
*MEAS_SCAN_STOP "70.0000000000"
*MEAS_SCAN_UNIT_X "deg"
*MEAS_SCAN_UNIT_Y "counts"
*RAS_HEADER_END
*RAS_INT_START
20.0000 792.0000 1.0000
20.0100 796.0000 1.0000
20.0200 721.0000 1.0000
20.0300 752.0000 1.0000
20.0400 771.0000 1.0000
20.0500 792.0000 1.0000
20.0600 741.0000 1.0000
20.0700 757.0000 1.0000
20.0800 762.0000 1.0000
20.0900 792.0000 1.0000
20.1000 774.0000 1.0000
20.1100 778.0000 1.0000
20.1200 750.0000 1.0000
20.1300 792.0000 1.0000
20.1400 773.0000 1.0000
20.1500 741.0000 1.0000
20.1600 778.0000 1.0000
20.1700 764.0000 1.0000
20.1800 764.0000 1.0000
20.1900 746.0000 1.0000
20.2000 750.0000 1.0000
20.2100 788.0000 1.0000
20.2200 834.0000 1.0000
20.2300 745.0000 1.0000
20.2400 758.0000 1.0000
20.2500 757.0000 1.0000
20.2600 812.0000 1.0000
20.2700 786.0000 1.0000
20.2800 757.0000 1.0000
20.2900 744.0000 1.0000
20.3000 773.0000 1.0000
20.3100 774.0000 1.0000
20.3200 795.0000 1.0000
20.3300 771.0000 1.0000
20.3400 771.0000 1.0000
20.3500 831.0000 1.0000
20.3600 756.0000 1.0000
20.3700 732.0000 1.0000
20.3800 706.0000 1.0000
20.3900 699.0000 1.0000
20.4000 813.0000 1.0000
20.4100 765.0000 1.0000
20.4200 743.0000 1.0000
20.4300 767.0000 1.0000
20.4400 761.0000 1.0000
20.4500 774.0000 1.0000
20.4600 793.0000 1.0000
20.4700 791.0000 1.0000
20.4800 777.0000 1.0000
20.4900 739.0000 1.0000
20.5000 672.0000 1.0000
20.5100 751.0000 1.0000
20.5200 738.0000 1.0000
20.5300 773.0000 1.0000
20.5400 752.0000 1.0000
20.5500 796.0000 1.0000
20.5600 765.0000 1.0000
20.5700 746.0000 1.0000
20.5800 711.0000 1.0000
20.5900 735.0000 1.0000
20.6000 746.0000 1.0000
20.6100 795.0000 1.0000
20.6200 777.0000 1.0000
20.6300 762.0000 1.0000
20.6400 788.0000 1.0000
20.6500 801.0000 1.0000
20.6600 787.0000 1.0000
20.6700 793.0000 1.0000
20.6800 745.0000 1.0000
20.6900 737.0000 1.0000
20.7000 805.0000 1.0000
20.7100 740.0000 1.0000
20.7200 779.0000 1.0000
20.7300 718.0000 1.0000
20.7400 762.0000 1.0000
20.7500 768.0000 1.0000
20.7600 782.0000 1.0000
20.7700 779.0000 1.0000
20.7800 752.0000 1.0000
20.7900 763.0000 1.0000
20.8000 763.0000 1.0000
20.8100 749.0000 1.0000
20.8200 726.0000 1.0000
20.8300 768.0000 1.0000
20.8400 744.0000 1.0000
20.8500 797.0000 1.0000
20.8600 768.0000 1.0000
20.8700 806.0000 1.0000
20.8800 742.0000 1.0000
20.8900 758.0000 1.0000
20.9000 768.0000 1.0000
20.9100 751.0000 1.0000
20.9200 736.0000 1.0000
20.9300 738.0000 1.0000
20.9400 800.0000 1.0000
20.9500 790.0000 1.0000
20.9600 739.0000 1.0000
20.9700 797.0000 1.0000
20.9800 764.0000 1.0000
20.9900 765.0000 1.0000
21.0000 782.0000 1.0000
21.0100 754.0000 1.0000
21.0200 783.0000 1.0000
21.0300 777.0000 1.0000
21.0400 772.0000 1.0000
21.0500 781.0000 1.0000
21.0600 757.0000 1.0000
21.0700 760.0000 1.0000
21.0800 716.0000 1.0000
21.0900 752.0000 1.0000
21.1000 765.0000 1.0000
21.1100 742.0000 1.0000
21.1200 711.0000 1.0000
21.1300 785.0000 1.0000
21.1400 726.0000 1.0000
21.1500 742.0000 1.0000
21.1600 737.0000 1.0000
21.1700 694.0000 1.0000
21.1800 740.0000 1.0000
21.1900 717.0000 1.0000
21.2000 776.0000 1.0000
21.2100 731.0000 1.0000
21.2200 800.0000 1.0000
21.2300 784.0000 1.0000
21.2400 756.0000 1.0000
21.2500 754.0000 1.0000
21.2600 776.0000 1.0000
21.2700 773.0000 1.0000
21.2800 741.0000 1.0000
21.2900 745.0000 1.0000
21.3000 759.0000 1.0000
21.3100 744.0000 1.0000
21.3200 750.0000 1.0000
21.3300 775.0000 1.0000
21.3400 781.0000 1.0000
21.3500 754.0000 1.0000
21.3600 754.0000 1.0000
21.3700 796.0000 1.0000
21.3800 726.0000 1.0000
21.3900 764.0000 1.0000
21.4000 719.0000 1.0000
21.4100 787.0000 1.0000
21.4200 732.0000 1.0000
21.4300 776.0000 1.0000
21.4400 741.0000 1.0000
21.4500 720.0000 1.0000
21.4600 725.0000 1.0000
21.4700 716.0000 1.0000
21.4800 733.0000 1.0000
21.4900 750.0000 1.0000
21.5000 728.0000 1.0000
21.5100 806.0000 1.0000
21.5200 747.0000 1.0000
21.5300 746.0000 1.0000
21.5400 730.0000 1.0000
21.5500 749.0000 1.0000
21.5600 742.0000 1.0000
21.5700 758.0000 1.0000
21.5800 797.0000 1.0000
21.5900 759.0000 1.0000
21.6000 767.0000 1.0000
21.6100 728.0000 1.0000
21.6200 737.0000 1.0000
21.6300 763.0000 1.0000
21.6400 733.0000 1.0000
21.6500 752.0000 1.0000
21.6600 748.0000 1.0000
21.6700 743.0000 1.0000
21.6800 726.0000 1.0000
21.6900 740.0000 1.0000
21.7000 761.0000 1.0000
21.7100 772.0000 1.0000
21.7200 754.0000 1.0000
21.7300 749.0000 1.0000
21.7400 730.0000 1.0000
21.7500 697.0000 1.0000
21.7600 772.0000 1.0000
21.7700 748.0000 1.0000
21.7800 774.0000 1.0000
21.7900 726.0000 1.0000
21.8000 738.0000 1.0000
21.8100 749.0000 1.0000
21.8200 765.0000 1.0000
21.8300 761.0000 1.0000
21.8400 732.0000 1.0000
21.8500 730.0000 1.0000
21.8600 755.0000 1.0000
21.8700 717.0000 1.0000
21.8800 746.0000 1.0000
21.8900 745.0000 1.0000
21.9000 724.0000 1.0000
21.9100 760.0000 1.0000
21.9200 793.0000 1.0000
21.9300 741.0000 1.0000
21.9400 749.0000 1.0000
21.9500 799.0000 1.0000
21.9600 741.0000 1.0000
21.9700 716.0000 1.0000
21.9800 718.0000 1.0000
21.9900 774.0000 1.0000
22.0000 781.0000 1.0000
22.0100 726.0000 1.0000
22.0200 747.0000 1.0000
22.0300 738.0000 1.0000
22.0400 738.0000 1.0000
22.0500 752.0000 1.0000
22.0600 755.0000 1.0000
22.0700 739.0000 1.0000
22.0800 715.0000 1.0000
22.0900 786.0000 1.0000
22.1000 785.0000 1.0000
22.1100 719.0000 1.0000
22.1200 762.0000 1.0000
22.1300 763.0000 1.0000
22.1400 763.0000 1.0000
22.1500 731.0000 1.0000
22.1600 735.0000 1.0000
22.1700 755.0000 1.0000
22.1800 781.0000 1.0000
22.1900 798.0000 1.0000
22.2000 726.0000 1.0000
22.2100 765.0000 1.0000
22.2200 748.0000 1.0000
22.2300 783.0000 1.0000
22.2400 759.0000 1.0000
22.2500 748.0000 1.0000
22.2600 754.0000 1.0000
22.2700 738.0000 1.0000
22.2800 732.0000 1.0000
22.2900 730.0000 1.0000
22.3000 744.0000 1.0000
22.3100 727.0000 1.0000
22.3200 695.0000 1.0000
22.3300 727.0000 1.0000
22.3400 784.0000 1.0000
22.3500 729.0000 1.0000
22.3600 740.0000 1.0000
22.3700 777.0000 1.0000
22.3800 767.0000 1.0000
22.3900 771.0000 1.0000
22.4000 736.0000 1.0000
22.4100 736.0000 1.0000
22.4200 710.0000 1.0000
22.4300 740.0000 1.0000
22.4400 753.0000 1.0000
22.4500 773.0000 1.0000
22.4600 715.0000 1.0000
22.4700 706.0000 1.0000
22.4800 730.0000 1.0000
22.4900 740.0000 1.0000
22.5000 727.0000 1.0000
22.5100 747.0000 1.0000
22.5200 734.0000 1.0000
22.5300 789.0000 1.0000
22.5400 715.0000 1.0000
22.5500 715.0000 1.0000
22.5600 753.0000 1.0000
22.5700 762.0000 1.0000
22.5800 781.0000 1.0000
22.5900 681.0000 1.0000
22.6000 734.0000 1.0000
22.6100 772.0000 1.0000
22.6200 788.0000 1.0000
22.6300 773.0000 1.0000
22.6400 724.0000 1.0000
22.6500 747.0000 1.0000
22.6600 805.0000 1.0000
22.6700 793.0000 1.0000
22.6800 777.0000 1.0000
22.6900 677.0000 1.0000
22.7000 707.0000 1.0000
22.7100 790.0000 1.0000
22.7200 758.0000 1.0000
22.7300 717.0000 1.0000
22.7400 765.0000 1.0000
22.7500 733.0000 1.0000
22.7600 719.0000 1.0000
22.7700 751.0000 1.0000
22.7800 732.0000 1.0000
22.7900 745.0000 1.0000
22.8000 720.0000 1.0000
22.8100 708.0000 1.0000
22.8200 751.0000 1.0000
22.8300 721.0000 1.0000
22.8400 684.0000 1.0000
22.8500 712.0000 1.0000
22.8600 739.0000 1.0000
22.8700 704.0000 1.0000
22.8800 709.0000 1.0000
22.8900 728.0000 1.0000
22.9000 775.0000 1.0000
22.9100 735.0000 1.0000
22.9200 774.0000 1.0000
22.9300 724.0000 1.0000
22.9400 739.0000 1.0000
22.9500 726.0000 1.0000
22.9600 731.0000 1.0000
22.9700 751.0000 1.0000
22.9800 695.0000 1.0000
22.9900 705.0000 1.0000
23.0000 747.0000 1.0000
23.0100 754.0000 1.0000
23.0200 750.0000 1.0000
23.0300 752.0000 1.0000
23.0400 742.0000 1.0000
23.0500 759.0000 1.0000
23.0600 753.0000 1.0000
23.0700 713.0000 1.0000
23.0800 733.0000 1.0000
23.0900 751.0000 1.0000
23.1000 754.0000 1.0000
23.1100 734.0000 1.0000
23.1200 727.0000 1.0000
23.1300 684.0000 1.0000
23.1400 718.0000 1.0000
23.1500 696.0000 1.0000
23.1600 751.0000 1.0000
23.1700 747.0000 1.0000
23.1800 737.0000 1.0000
23.1900 703.0000 1.0000
23.2000 737.0000 1.0000
23.2100 736.0000 1.0000
23.2200 771.0000 1.0000
23.2300 724.0000 1.0000
23.2400 735.0000 1.0000
23.2500 746.0000 1.0000
23.2600 763.0000 1.0000
23.2700 726.0000 1.0000
23.2800 724.0000 1.0000
23.2900 760.0000 1.0000
23.3000 704.0000 1.0000
23.3100 696.0000 1.0000
23.3200 743.0000 1.0000
23.3300 780.0000 1.0000
23.3400 715.0000 1.0000
23.3500 738.0000 1.0000
23.3600 767.0000 1.0000
23.3700 707.0000 1.0000
23.3800 753.0000 1.0000
23.3900 733.0000 1.0000
23.4000 776.0000 1.0000
23.4100 718.0000 1.0000
23.4200 730.0000 1.0000
23.4300 711.0000 1.0000
23.4400 761.0000 1.0000
23.4500 717.0000 1.0000
23.4600 735.0000 1.0000
23.4700 733.0000 1.0000
23.4800 741.0000 1.0000
23.4900 724.0000 1.0000
23.5000 700.0000 1.0000
23.5100 755.0000 1.0000
23.5200 709.0000 1.0000
23.5300 727.0000 1.0000
23.5400 740.0000 1.0000
23.5500 743.0000 1.0000
23.5600 757.0000 1.0000
23.5700 705.0000 1.0000
23.5800 687.0000 1.0000
23.5900 704.0000 1.0000
23.6000 731.0000 1.0000
23.6100 719.0000 1.0000
23.6200 791.0000 1.0000
23.6300 721.0000 1.0000
23.6400 762.0000 1.0000
23.6500 737.0000 1.0000
23.6600 723.0000 1.0000
23.6700 755.0000 1.0000
23.6800 751.0000 1.0000
23.6900 702.0000 1.0000
23.7000 718.0000 1.0000
23.7100 738.0000 1.0000
23.7200 766.0000 1.0000
23.7300 800.0000 1.0000
23.7400 770.0000 1.0000
23.7500 762.0000 1.0000
23.7600 687.0000 1.0000
23.7700 718.0000 1.0000
23.7800 731.0000 1.0000
23.7900 766.0000 1.0000
23.8000 804.0000 1.0000
23.8100 755.0000 1.0000
23.8200 769.0000 1.0000
23.8300 745.0000 1.0000
23.8400 760.0000 1.0000
23.8500 761.0000 1.0000
23.8600 786.0000 1.0000
23.8700 763.0000 1.0000
23.8800 753.0000 1.0000
23.8900 786.0000 1.0000
23.9000 770.0000 1.0000
23.9100 741.0000 1.0000
23.9200 753.0000 1.0000
23.9300 724.0000 1.0000
23.9400 769.0000 1.0000
23.9500 777.0000 1.0000
23.9600 733.0000 1.0000
23.9700 757.0000 1.0000
23.9800 803.0000 1.0000
23.9900 790.0000 1.0000
24.0000 787.0000 1.0000
24.0100 799.0000 1.0000
24.0200 779.0000 1.0000
24.0300 751.0000 1.0000
24.0400 769.0000 1.0000
24.0500 766.0000 1.0000
24.0600 789.0000 1.0000
24.0700 792.0000 1.0000
24.0800 772.0000 1.0000
24.0900 779.0000 1.0000
24.1000 771.0000 1.0000
24.1100 775.0000 1.0000
24.1200 777.0000 1.0000
24.1300 795.0000 1.0000
24.1400 770.0000 1.0000
24.1500 808.0000 1.0000
24.1600 740.0000 1.0000
24.1700 759.0000 1.0000
24.1800 758.0000 1.0000
24.1900 792.0000 1.0000
24.2000 729.0000 1.0000
24.2100 751.0000 1.0000
24.2200 766.0000 1.0000
24.2300 784.0000 1.0000
24.2400 769.0000 1.0000
24.2500 757.0000 1.0000
24.2600 718.0000 1.0000
24.2700 714.0000 1.0000
24.2800 722.0000 1.0000
24.2900 732.0000 1.0000
24.3000 712.0000 1.0000
24.3100 747.0000 1.0000
24.3200 767.0000 1.0000
24.3300 715.0000 1.0000
24.3400 706.0000 1.0000
24.3500 725.0000 1.0000
24.3600 734.0000 1.0000
24.3700 728.0000 1.0000
24.3800 750.0000 1.0000
24.3900 759.0000 1.0000
24.4000 727.0000 1.0000
24.4100 763.0000 1.0000
24.4200 767.0000 1.0000
24.4300 726.0000 1.0000
24.4400 753.0000 1.0000
24.4500 711.0000 1.0000
24.4600 758.0000 1.0000
24.4700 751.0000 1.0000
24.4800 730.0000 1.0000
24.4900 735.0000 1.0000
24.5000 765.0000 1.0000
24.5100 711.0000 1.0000
24.5200 741.0000 1.0000
24.5300 743.0000 1.0000
24.5400 691.0000 1.0000
24.5500 724.0000 1.0000
24.5600 716.0000 1.0000
24.5700 719.0000 1.0000
24.5800 701.0000 1.0000
24.5900 703.0000 1.0000
24.6000 695.0000 1.0000
24.6100 713.0000 1.0000
24.6200 782.0000 1.0000
24.6300 740.0000 1.0000
24.6400 745.0000 1.0000
24.6500 723.0000 1.0000
24.6600 732.0000 1.0000
24.6700 723.0000 1.0000
24.6800 717.0000 1.0000
24.6900 710.0000 1.0000
24.7000 767.0000 1.0000
24.7100 708.0000 1.0000
24.7200 731.0000 1.0000
24.7300 726.0000 1.0000
24.7400 708.0000 1.0000
24.7500 704.0000 1.0000
24.7600 711.0000 1.0000
24.7700 700.0000 1.0000
24.7800 721.0000 1.0000
24.7900 714.0000 1.0000
24.8000 696.0000 1.0000
24.8100 713.0000 1.0000
24.8200 698.0000 1.0000
24.8300 696.0000 1.0000
24.8400 728.0000 1.0000
24.8500 748.0000 1.0000
24.8600 739.0000 1.0000
24.8700 715.0000 1.0000
24.8800 707.0000 1.0000
24.8900 698.0000 1.0000
24.9000 749.0000 1.0000
24.9100 724.0000 1.0000
24.9200 717.0000 1.0000
24.9300 733.0000 1.0000
24.9400 736.0000 1.0000
24.9500 721.0000 1.0000
24.9600 735.0000 1.0000
24.9700 716.0000 1.0000
24.9800 685.0000 1.0000
24.9900 717.0000 1.0000
25.0000 707.0000 1.0000
25.0100 694.0000 1.0000
25.0200 705.0000 1.0000
25.0300 703.0000 1.0000
25.0400 725.0000 1.0000
25.0500 680.0000 1.0000
25.0600 746.0000 1.0000
25.0700 738.0000 1.0000
25.0800 787.0000 1.0000
25.0900 735.0000 1.0000
25.1000 683.0000 1.0000
25.1100 715.0000 1.0000
25.1200 749.0000 1.0000
25.1300 721.0000 1.0000
25.1400 770.0000 1.0000
25.1500 721.0000 1.0000
25.1600 723.0000 1.0000
25.1700 703.0000 1.0000
25.1800 720.0000 1.0000
25.1900 740.0000 1.0000
25.2000 688.0000 1.0000
25.2100 666.0000 1.0000
25.2200 712.0000 1.0000
25.2300 706.0000 1.0000
25.2400 733.0000 1.0000
25.2500 789.0000 1.0000
25.2600 751.0000 1.0000
25.2700 716.0000 1.0000
25.2800 764.0000 1.0000
25.2900 741.0000 1.0000
25.3000 804.0000 1.0000
25.3100 671.0000 1.0000
25.3200 681.0000 1.0000
25.3300 689.0000 1.0000
25.3400 726.0000 1.0000
25.3500 693.0000 1.0000
25.3600 702.0000 1.0000
25.3700 723.0000 1.0000
25.3800 762.0000 1.0000
25.3900 766.0000 1.0000
25.4000 688.0000 1.0000
25.4100 727.0000 1.0000
25.4200 755.0000 1.0000
25.4300 754.0000 1.0000
25.4400 749.0000 1.0000
25.4500 692.0000 1.0000
25.4600 712.0000 1.0000
25.4700 717.0000 1.0000
25.4800 719.0000 1.0000
25.4900 740.0000 1.0000
25.5000 737.0000 1.0000
25.5100 761.0000 1.0000
25.5200 730.0000 1.0000
25.5300 762.0000 1.0000
25.5400 761.0000 1.0000
25.5500 739.0000 1.0000
25.5600 725.0000 1.0000
25.5700 700.0000 1.0000
25.5800 727.0000 1.0000
25.5900 726.0000 1.0000
25.6000 759.0000 1.0000
25.6100 768.0000 1.0000
25.6200 718.0000 1.0000
25.6300 751.0000 1.0000
25.6400 705.0000 1.0000
25.6500 746.0000 1.0000
25.6600 731.0000 1.0000
25.6700 719.0000 1.0000
25.6800 782.0000 1.0000
25.6900 755.0000 1.0000
25.7000 746.0000 1.0000
25.7100 755.0000 1.0000
25.7200 762.0000 1.0000
25.7300 691.0000 1.0000
25.7400 766.0000 1.0000
25.7500 773.0000 1.0000
25.7600 747.0000 1.0000
25.7700 774.0000 1.0000
25.7800 739.0000 1.0000
25.7900 714.0000 1.0000
25.8000 691.0000 1.0000
25.8100 762.0000 1.0000
25.8200 747.0000 1.0000
25.8300 729.0000 1.0000
25.8400 747.0000 1.0000
25.8500 711.0000 1.0000
25.8600 741.0000 1.0000
25.8700 731.0000 1.0000
25.8800 707.0000 1.0000
25.8900 763.0000 1.0000
25.9000 766.0000 1.0000
25.9100 789.0000 1.0000
25.9200 723.0000 1.0000
25.9300 783.0000 1.0000
25.9400 755.0000 1.0000
25.9500 757.0000 1.0000
25.9600 742.0000 1.0000
25.9700 781.0000 1.0000
25.9800 781.0000 1.0000
25.9900 759.0000 1.0000
26.0000 783.0000 1.0000
26.0100 839.0000 1.0000
26.0200 812.0000 1.0000
26.0300 779.0000 1.0000
26.0400 799.0000 1.0000
26.0500 810.0000 1.0000
26.0600 779.0000 1.0000
26.0700 818.0000 1.0000
26.0800 814.0000 1.0000
26.0900 821.0000 1.0000
26.1000 825.0000 1.0000
26.1100 881.0000 1.0000
26.1200 880.0000 1.0000
26.1300 860.0000 1.0000
26.1400 902.0000 1.0000
26.1500 929.0000 1.0000
26.1600 940.0000 1.0000
26.1700 960.0000 1.0000
26.1800 940.0000 1.0000
26.1900 927.0000 1.0000
26.2000 940.0000 1.0000
26.2100 1009.0000 1.0000
26.2200 1071.0000 1.0000
26.2300 1033.0000 1.0000
26.2400 1109.0000 1.0000
26.2500 1120.0000 1.0000
26.2600 1140.0000 1.0000
26.2700 1194.0000 1.0000
26.2800 1287.0000 1.0000
26.2900 1315.0000 1.0000
26.3000 1355.0000 1.0000
26.3100 1415.0000 1.0000
26.3200 1467.0000 1.0000
26.3300 1553.0000 1.0000
26.3400 1599.0000 1.0000
26.3500 1723.0000 1.0000
26.3600 1881.0000 1.0000
26.3700 1962.0000 1.0000
26.3800 2013.0000 1.0000
26.3900 2084.0000 1.0000
26.4000 2258.0000 1.0000
26.4100 2325.0000 1.0000
26.4200 2415.0000 1.0000
26.4300 2454.0000 1.0000
26.4400 2562.0000 1.0000
26.4500 2551.0000 1.0000
26.4600 2580.0000 1.0000
26.4700 2563.0000 1.0000
26.4800 2477.0000 1.0000
26.4900 2385.0000 1.0000
26.5000 2357.0000 1.0000
26.5100 2233.0000 1.0000
26.5200 2180.0000 1.0000
26.5300 2091.0000 1.0000
26.5400 1953.0000 1.0000
26.5500 1821.0000 1.0000
26.5600 1796.0000 1.0000
26.5700 1689.0000 1.0000
26.5800 1616.0000 1.0000
26.5900 1526.0000 1.0000
26.6000 1424.0000 1.0000
26.6100 1349.0000 1.0000
26.6200 1284.0000 1.0000
26.6300 1227.0000 1.0000
26.6400 1173.0000 1.0000
26.6500 1187.0000 1.0000
26.6600 1128.0000 1.0000
26.6700 1061.0000 1.0000
26.6800 1005.0000 1.0000
26.6900 1003.0000 1.0000
26.7000 1007.0000 1.0000
26.7100 957.0000 1.0000
26.7200 968.0000 1.0000
26.7300 962.0000 1.0000
26.7400 932.0000 1.0000
26.7500 866.0000 1.0000
26.7600 862.0000 1.0000
26.7700 818.0000 1.0000
26.7800 870.0000 1.0000
26.7900 845.0000 1.0000
26.8000 843.0000 1.0000
26.8100 843.0000 1.0000
26.8200 815.0000 1.0000
26.8300 826.0000 1.0000
26.8400 789.0000 1.0000
26.8500 839.0000 1.0000
26.8600 775.0000 1.0000
26.8700 757.0000 1.0000
26.8800 742.0000 1.0000
26.8900 769.0000 1.0000
26.9000 777.0000 1.0000
26.9100 773.0000 1.0000
26.9200 701.0000 1.0000
26.9300 742.0000 1.0000
26.9400 743.0000 1.0000
26.9500 745.0000 1.0000
26.9600 755.0000 1.0000
26.9700 726.0000 1.0000
26.9800 727.0000 1.0000
26.9900 761.0000 1.0000
27.0000 807.0000 1.0000
27.0100 756.0000 1.0000
27.0200 728.0000 1.0000
27.0300 743.0000 1.0000
27.0400 743.0000 1.0000
27.0500 735.0000 1.0000
27.0600 733.0000 1.0000
27.0700 747.0000 1.0000
27.0800 746.0000 1.0000
27.0900 716.0000 1.0000
27.1000 667.0000 1.0000
27.1100 738.0000 1.0000
27.1200 732.0000 1.0000
27.1300 719.0000 1.0000
27.1400 733.0000 1.0000
27.1500 710.0000 1.0000
27.1600 713.0000 1.0000
27.1700 731.0000 1.0000
27.1800 683.0000 1.0000
27.1900 709.0000 1.0000
27.2000 747.0000 1.0000
27.2100 681.0000 1.0000
27.2200 688.0000 1.0000
27.2300 672.0000 1.0000
27.2400 678.0000 1.0000
27.2500 690.0000 1.0000
27.2600 700.0000 1.0000
27.2700 687.0000 1.0000
27.2800 672.0000 1.0000
27.2900 730.0000 1.0000
27.3000 672.0000 1.0000
27.3100 700.0000 1.0000
27.3200 666.0000 1.0000
27.3300 673.0000 1.0000
27.3400 682.0000 1.0000
27.3500 703.0000 1.0000
27.3600 670.0000 1.0000
27.3700 680.0000 1.0000
27.3800 701.0000 1.0000
27.3900 709.0000 1.0000
27.4000 679.0000 1.0000
27.4100 643.0000 1.0000
27.4200 628.0000 1.0000
27.4300 649.0000 1.0000
27.4400 680.0000 1.0000
27.4500 664.0000 1.0000
27.4600 675.0000 1.0000
27.4700 642.0000 1.0000
27.4800 670.0000 1.0000
27.4900 671.0000 1.0000
27.5000 662.0000 1.0000
27.5100 644.0000 1.0000
27.5200 667.0000 1.0000
27.5300 664.0000 1.0000
27.5400 682.0000 1.0000
27.5500 706.0000 1.0000
27.5600 688.0000 1.0000
27.5700 669.0000 1.0000
27.5800 658.0000 1.0000
27.5900 688.0000 1.0000
27.6000 628.0000 1.0000
27.6100 692.0000 1.0000
27.6200 674.0000 1.0000
27.6300 700.0000 1.0000
27.6400 676.0000 1.0000
27.6500 675.0000 1.0000
27.6600 615.0000 1.0000
27.6700 646.0000 1.0000
27.6800 657.0000 1.0000
27.6900 670.0000 1.0000
27.7000 627.0000 1.0000
27.7100 644.0000 1.0000
27.7200 668.0000 1.0000
27.7300 691.0000 1.0000
27.7400 641.0000 1.0000
27.7500 647.0000 1.0000
27.7600 645.0000 1.0000
27.7700 672.0000 1.0000
27.7800 665.0000 1.0000
27.7900 669.0000 1.0000
27.8000 666.0000 1.0000
27.8100 622.0000 1.0000
27.8200 599.0000 1.0000
27.8300 617.0000 1.0000
27.8400 669.0000 1.0000
27.8500 652.0000 1.0000
27.8600 682.0000 1.0000
27.8700 641.0000 1.0000
27.8800 634.0000 1.0000
27.8900 651.0000 1.0000
27.9000 645.0000 1.0000
27.9100 658.0000 1.0000
27.9200 672.0000 1.0000
27.9300 696.0000 1.0000
27.9400 675.0000 1.0000
27.9500 647.0000 1.0000
27.9600 661.0000 1.0000
27.9700 638.0000 1.0000
27.9800 691.0000 1.0000
27.9900 680.0000 1.0000
28.0000 650.0000 1.0000
28.0100 664.0000 1.0000
28.0200 627.0000 1.0000
28.0300 646.0000 1.0000
28.0400 671.0000 1.0000
28.0500 623.0000 1.0000
28.0600 663.0000 1.0000
28.0700 713.0000 1.0000
28.0800 673.0000 1.0000
28.0900 648.0000 1.0000
28.1000 614.0000 1.0000
28.1100 643.0000 1.0000
28.1200 679.0000 1.0000
28.1300 673.0000 1.0000
28.1400 667.0000 1.0000
28.1500 666.0000 1.0000
28.1600 626.0000 1.0000
28.1700 591.0000 1.0000
28.1800 660.0000 1.0000
28.1900 636.0000 1.0000
28.2000 641.0000 1.0000
28.2100 639.0000 1.0000
28.2200 645.0000 1.0000
28.2300 623.0000 1.0000
28.2400 672.0000 1.0000
28.2500 643.0000 1.0000
28.2600 673.0000 1.0000
28.2700 694.0000 1.0000
28.2800 698.0000 1.0000
28.2900 673.0000 1.0000
28.3000 683.0000 1.0000
28.3100 685.0000 1.0000
28.3200 660.0000 1.0000
28.3300 670.0000 1.0000
28.3400 652.0000 1.0000
28.3500 644.0000 1.0000
28.3600 616.0000 1.0000
28.3700 619.0000 1.0000
28.3800 682.0000 1.0000
28.3900 662.0000 1.0000
28.4000 631.0000 1.0000
28.4100 638.0000 1.0000
28.4200 644.0000 1.0000
28.4300 648.0000 1.0000
28.4400 638.0000 1.0000
28.4500 637.0000 1.0000
28.4600 599.0000 1.0000
28.4700 637.0000 1.0000
28.4800 670.0000 1.0000
28.4900 659.0000 1.0000
28.5000 622.0000 1.0000
28.5100 642.0000 1.0000
28.5200 653.0000 1.0000
28.5300 641.0000 1.0000
28.5400 661.0000 1.0000
28.5500 635.0000 1.0000
28.5600 662.0000 1.0000
28.5700 659.0000 1.0000
28.5800 664.0000 1.0000
28.5900 628.0000 1.0000
28.6000 651.0000 1.0000
28.6100 626.0000 1.0000
28.6200 614.0000 1.0000
28.6300 630.0000 1.0000
28.6400 609.0000 1.0000
28.6500 611.0000 1.0000
28.6600 636.0000 1.0000
28.6700 617.0000 1.0000
28.6800 626.0000 1.0000
28.6900 628.0000 1.0000
28.7000 638.0000 1.0000
28.7100 611.0000 1.0000
28.7200 692.0000 1.0000
28.7300 617.0000 1.0000
28.7400 592.0000 1.0000
28.7500 604.0000 1.0000
28.7600 627.0000 1.0000
28.7700 619.0000 1.0000
28.7800 639.0000 1.0000
28.7900 634.0000 1.0000
28.8000 672.0000 1.0000
28.8100 643.0000 1.0000
28.8200 593.0000 1.0000
28.8300 609.0000 1.0000
28.8400 596.0000 1.0000
28.8500 648.0000 1.0000
28.8600 647.0000 1.0000
28.8700 624.0000 1.0000
28.8800 619.0000 1.0000
28.8900 637.0000 1.0000
28.9000 624.0000 1.0000
28.9100 563.0000 1.0000
28.9200 655.0000 1.0000
28.9300 635.0000 1.0000
28.9400 662.0000 1.0000
28.9500 598.0000 1.0000
28.9600 663.0000 1.0000
28.9700 628.0000 1.0000
28.9800 639.0000 1.0000
28.9900 621.0000 1.0000
29.0000 663.0000 1.0000
29.0100 641.0000 1.0000
29.0200 659.0000 1.0000
29.0300 644.0000 1.0000
29.0400 655.0000 1.0000
29.0500 611.0000 1.0000
29.0600 586.0000 1.0000
29.0700 625.0000 1.0000
29.0800 633.0000 1.0000
29.0900 596.0000 1.0000
29.1000 645.0000 1.0000
29.1100 635.0000 1.0000
29.1200 656.0000 1.0000
29.1300 628.0000 1.0000
29.1400 655.0000 1.0000
29.1500 635.0000 1.0000
29.1600 607.0000 1.0000
29.1700 617.0000 1.0000
29.1800 642.0000 1.0000
29.1900 610.0000 1.0000
29.2000 593.0000 1.0000
29.2100 618.0000 1.0000
29.2200 659.0000 1.0000
29.2300 630.0000 1.0000
29.2400 607.0000 1.0000
29.2500 602.0000 1.0000
29.2600 622.0000 1.0000
29.2700 617.0000 1.0000
29.2800 601.0000 1.0000
29.2900 649.0000 1.0000
29.3000 626.0000 1.0000
29.3100 615.0000 1.0000
29.3200 601.0000 1.0000
29.3300 599.0000 1.0000
29.3400 601.0000 1.0000
29.3500 617.0000 1.0000
29.3600 630.0000 1.0000
29.3700 589.0000 1.0000
29.3800 611.0000 1.0000
29.3900 609.0000 1.0000
29.4000 583.0000 1.0000
29.4100 642.0000 1.0000
29.4200 611.0000 1.0000
29.4300 597.0000 1.0000
29.4400 606.0000 1.0000
29.4500 614.0000 1.0000
29.4600 613.0000 1.0000
29.4700 601.0000 1.0000
29.4800 607.0000 1.0000
29.4900 582.0000 1.0000
29.5000 584.0000 1.0000
29.5100 598.0000 1.0000
29.5200 613.0000 1.0000
29.5300 587.0000 1.0000
29.5400 594.0000 1.0000
29.5500 631.0000 1.0000
29.5600 624.0000 1.0000
29.5700 588.0000 1.0000
29.5800 630.0000 1.0000
29.5900 609.0000 1.0000
29.6000 605.0000 1.0000
29.6100 598.0000 1.0000
29.6200 606.0000 1.0000
29.6300 590.0000 1.0000
29.6400 613.0000 1.0000
29.6500 644.0000 1.0000
29.6600 596.0000 1.0000
29.6700 615.0000 1.0000
29.6800 590.0000 1.0000
29.6900 582.0000 1.0000
29.7000 590.0000 1.0000
29.7100 588.0000 1.0000
29.7200 612.0000 1.0000
29.7300 624.0000 1.0000
29.7400 585.0000 1.0000
29.7500 594.0000 1.0000
29.7600 596.0000 1.0000
29.7700 584.0000 1.0000
29.7800 602.0000 1.0000
29.7900 562.0000 1.0000
29.8000 621.0000 1.0000
29.8100 613.0000 1.0000
29.8200 634.0000 1.0000
29.8300 632.0000 1.0000
29.8400 650.0000 1.0000
29.8500 604.0000 1.0000
29.8600 542.0000 1.0000
29.8700 581.0000 1.0000
29.8800 590.0000 1.0000
29.8900 601.0000 1.0000
29.9000 596.0000 1.0000
29.9100 626.0000 1.0000
29.9200 610.0000 1.0000
29.9300 568.0000 1.0000
29.9400 563.0000 1.0000
29.9500 582.0000 1.0000
29.9600 596.0000 1.0000
29.9700 576.0000 1.0000
29.9800 607.0000 1.0000
29.9900 624.0000 1.0000
30.0000 584.0000 1.0000
30.0100 613.0000 1.0000
30.0200 566.0000 1.0000
30.0300 575.0000 1.0000
30.0400 615.0000 1.0000
30.0500 605.0000 1.0000
30.0600 624.0000 1.0000
30.0700 598.0000 1.0000
30.0800 616.0000 1.0000
30.0900 607.0000 1.0000
30.1000 605.0000 1.0000
30.1100 617.0000 1.0000
30.1200 605.0000 1.0000
30.1300 598.0000 1.0000
30.1400 573.0000 1.0000
30.1500 577.0000 1.0000
30.1600 620.0000 1.0000
30.1700 607.0000 1.0000
30.1800 593.0000 1.0000
30.1900 605.0000 1.0000
30.2000 622.0000 1.0000
30.2100 584.0000 1.0000
30.2200 571.0000 1.0000
30.2300 605.0000 1.0000
30.2400 601.0000 1.0000
30.2500 598.0000 1.0000
30.2600 589.0000 1.0000
30.2700 583.0000 1.0000
30.2800 585.0000 1.0000
30.2900 607.0000 1.0000
30.3000 609.0000 1.0000
30.3100 581.0000 1.0000
30.3200 580.0000 1.0000
30.3300 606.0000 1.0000
30.3400 598.0000 1.0000
30.3500 568.0000 1.0000
30.3600 560.0000 1.0000
30.3700 622.0000 1.0000
30.3800 593.0000 1.0000
30.3900 579.0000 1.0000
30.4000 575.0000 1.0000
30.4100 576.0000 1.0000
30.4200 611.0000 1.0000
30.4300 598.0000 1.0000
30.4400 591.0000 1.0000
30.4500 550.0000 1.0000
30.4600 579.0000 1.0000
30.4700 539.0000 1.0000
30.4800 557.0000 1.0000
30.4900 553.0000 1.0000
30.5000 564.0000 1.0000
30.5100 593.0000 1.0000
30.5200 570.0000 1.0000
30.5300 586.0000 1.0000
30.5400 603.0000 1.0000
30.5500 603.0000 1.0000
30.5600 576.0000 1.0000
30.5700 548.0000 1.0000
30.5800 571.0000 1.0000
30.5900 594.0000 1.0000
30.6000 583.0000 1.0000
30.6100 602.0000 1.0000
30.6200 564.0000 1.0000
30.6300 594.0000 1.0000
30.6400 611.0000 1.0000
30.6500 588.0000 1.0000
30.6600 557.0000 1.0000
30.6700 613.0000 1.0000
30.6800 611.0000 1.0000
30.6900 560.0000 1.0000
30.7000 556.0000 1.0000
30.7100 569.0000 1.0000
30.7200 542.0000 1.0000
30.7300 576.0000 1.0000
30.7400 556.0000 1.0000
30.7500 555.0000 1.0000
30.7600 588.0000 1.0000
30.7700 590.0000 1.0000
30.7800 563.0000 1.0000
30.7900 562.0000 1.0000
30.8000 601.0000 1.0000
30.8100 568.0000 1.0000
30.8200 561.0000 1.0000
30.8300 554.0000 1.0000
30.8400 536.0000 1.0000
30.8500 586.0000 1.0000
30.8600 548.0000 1.0000
30.8700 566.0000 1.0000
30.8800 579.0000 1.0000
30.8900 585.0000 1.0000
30.9000 562.0000 1.0000
30.9100 545.0000 1.0000
30.9200 567.0000 1.0000
30.9300 592.0000 1.0000
30.9400 601.0000 1.0000
30.9500 555.0000 1.0000
30.9600 577.0000 1.0000
30.9700 572.0000 1.0000
30.9800 582.0000 1.0000
30.9900 615.0000 1.0000
31.0000 563.0000 1.0000
31.0100 590.0000 1.0000
31.0200 574.0000 1.0000
31.0300 569.0000 1.0000
31.0400 596.0000 1.0000
31.0500 603.0000 1.0000
31.0600 618.0000 1.0000
31.0700 575.0000 1.0000
31.0800 595.0000 1.0000
31.0900 590.0000 1.0000
31.1000 542.0000 1.0000
31.1100 589.0000 1.0000
31.1200 596.0000 1.0000
31.1300 594.0000 1.0000
31.1400 588.0000 1.0000
31.1500 576.0000 1.0000
31.1600 556.0000 1.0000
31.1700 591.0000 1.0000
31.1800 567.0000 1.0000
31.1900 579.0000 1.0000
31.2000 580.0000 1.0000
31.2100 616.0000 1.0000
31.2200 594.0000 1.0000
31.2300 564.0000 1.0000
31.2400 554.0000 1.0000
31.2500 600.0000 1.0000
31.2600 581.0000 1.0000
31.2700 599.0000 1.0000
31.2800 577.0000 1.0000
31.2900 568.0000 1.0000
31.3000 587.0000 1.0000
31.3100 593.0000 1.0000
31.3200 557.0000 1.0000
31.3300 567.0000 1.0000
31.3400 590.0000 1.0000
31.3500 580.0000 1.0000
31.3600 547.0000 1.0000
31.3700 562.0000 1.0000
31.3800 590.0000 1.0000
31.3900 568.0000 1.0000
31.4000 570.0000 1.0000
31.4100 538.0000 1.0000
31.4200 562.0000 1.0000
31.4300 561.0000 1.0000
31.4400 558.0000 1.0000
31.4500 546.0000 1.0000
31.4600 547.0000 1.0000
31.4700 529.0000 1.0000
31.4800 544.0000 1.0000
31.4900 551.0000 1.0000
31.5000 547.0000 1.0000
31.5100 557.0000 1.0000
31.5200 580.0000 1.0000
31.5300 562.0000 1.0000
31.5400 534.0000 1.0000
31.5500 559.0000 1.0000
31.5600 572.0000 1.0000
31.5700 559.0000 1.0000
31.5800 572.0000 1.0000
31.5900 553.0000 1.0000
31.6000 583.0000 1.0000
31.6100 596.0000 1.0000
31.6200 567.0000 1.0000
31.6300 571.0000 1.0000
31.6400 578.0000 1.0000
31.6500 592.0000 1.0000
31.6600 518.0000 1.0000
31.6700 515.0000 1.0000
31.6800 518.0000 1.0000
31.6900 563.0000 1.0000
31.7000 552.0000 1.0000
31.7100 558.0000 1.0000
31.7200 543.0000 1.0000
31.7300 572.0000 1.0000
31.7400 560.0000 1.0000
31.7500 569.0000 1.0000
31.7600 548.0000 1.0000
31.7700 561.0000 1.0000
31.7800 576.0000 1.0000
31.7900 547.0000 1.0000
31.8000 554.0000 1.0000
31.8100 522.0000 1.0000
31.8200 609.0000 1.0000
31.8300 528.0000 1.0000
31.8400 540.0000 1.0000
31.8500 500.0000 1.0000
31.8600 551.0000 1.0000
31.8700 567.0000 1.0000
31.8800 520.0000 1.0000
31.8900 560.0000 1.0000
31.9000 547.0000 1.0000
31.9100 552.0000 1.0000
31.9200 554.0000 1.0000
31.9300 544.0000 1.0000
31.9400 591.0000 1.0000
31.9500 541.0000 1.0000
31.9600 568.0000 1.0000
31.9700 575.0000 1.0000
31.9800 554.0000 1.0000
31.9900 540.0000 1.0000
32.0000 563.0000 1.0000
32.0100 544.0000 1.0000
32.0200 555.0000 1.0000
32.0300 523.0000 1.0000
32.0400 519.0000 1.0000
32.0500 547.0000 1.0000
32.0600 570.0000 1.0000
32.0700 588.0000 1.0000
32.0800 533.0000 1.0000
32.0900 561.0000 1.0000
32.1000 589.0000 1.0000
32.1100 545.0000 1.0000
32.1200 552.0000 1.0000
32.1300 550.0000 1.0000
32.1400 567.0000 1.0000
32.1500 551.0000 1.0000
32.1600 525.0000 1.0000
32.1700 532.0000 1.0000
32.1800 558.0000 1.0000
32.1900 555.0000 1.0000
32.2000 538.0000 1.0000
32.2100 532.0000 1.0000
32.2200 549.0000 1.0000
32.2300 554.0000 1.0000
32.2400 528.0000 1.0000
32.2500 547.0000 1.0000
32.2600 565.0000 1.0000
32.2700 550.0000 1.0000
32.2800 569.0000 1.0000
32.2900 540.0000 1.0000
32.3000 574.0000 1.0000
32.3100 558.0000 1.0000
32.3200 565.0000 1.0000
32.3300 564.0000 1.0000
32.3400 517.0000 1.0000
32.3500 545.0000 1.0000
32.3600 554.0000 1.0000
32.3700 543.0000 1.0000
32.3800 566.0000 1.0000
32.3900 528.0000 1.0000
32.4000 538.0000 1.0000
32.4100 576.0000 1.0000
32.4200 571.0000 1.0000
32.4300 552.0000 1.0000
32.4400 517.0000 1.0000
32.4500 529.0000 1.0000
32.4600 543.0000 1.0000
32.4700 511.0000 1.0000
32.4800 508.0000 1.0000
32.4900 523.0000 1.0000
32.5000 542.0000 1.0000
32.5100 518.0000 1.0000
32.5200 538.0000 1.0000
32.5300 545.0000 1.0000
32.5400 550.0000 1.0000
32.5500 542.0000 1.0000
32.5600 556.0000 1.0000
32.5700 527.0000 1.0000
32.5800 539.0000 1.0000
32.5900 521.0000 1.0000
32.6000 520.0000 1.0000
32.6100 552.0000 1.0000
32.6200 546.0000 1.0000
32.6300 516.0000 1.0000
32.6400 514.0000 1.0000
32.6500 539.0000 1.0000
32.6600 538.0000 1.0000
32.6700 492.0000 1.0000
32.6800 530.0000 1.0000
32.6900 574.0000 1.0000
32.7000 528.0000 1.0000
32.7100 531.0000 1.0000
32.7200 508.0000 1.0000
32.7300 563.0000 1.0000
32.7400 551.0000 1.0000
32.7500 563.0000 1.0000
32.7600 544.0000 1.0000
32.7700 519.0000 1.0000
32.7800 540.0000 1.0000
32.7900 561.0000 1.0000
32.8000 553.0000 1.0000
32.8100 571.0000 1.0000
32.8200 567.0000 1.0000
32.8300 521.0000 1.0000
32.8400 523.0000 1.0000
32.8500 564.0000 1.0000
32.8600 558.0000 1.0000
32.8700 565.0000 1.0000
32.8800 531.0000 1.0000
32.8900 545.0000 1.0000
32.9000 563.0000 1.0000
32.9100 551.0000 1.0000
32.9200 545.0000 1.0000
32.9300 559.0000 1.0000
32.9400 529.0000 1.0000
32.9500 549.0000 1.0000
32.9600 594.0000 1.0000
32.9700 528.0000 1.0000
32.9800 584.0000 1.0000
32.9900 581.0000 1.0000
33.0000 553.0000 1.0000
33.0100 593.0000 1.0000
33.0200 596.0000 1.0000
33.0300 642.0000 1.0000
33.0400 592.0000 1.0000
33.0500 637.0000 1.0000
33.0600 650.0000 1.0000
33.0700 610.0000 1.0000
33.0800 657.0000 1.0000
33.0900 653.0000 1.0000
33.1000 662.0000 1.0000
33.1100 604.0000 1.0000
33.1200 664.0000 1.0000
33.1300 685.0000 1.0000
33.1400 659.0000 1.0000
33.1500 651.0000 1.0000
33.1600 627.0000 1.0000
33.1700 609.0000 1.0000
33.1800 635.0000 1.0000
33.1900 625.0000 1.0000
33.2000 639.0000 1.0000
33.2100 618.0000 1.0000
33.2200 626.0000 1.0000
33.2300 602.0000 1.0000
33.2400 612.0000 1.0000
33.2500 595.0000 1.0000
33.2600 623.0000 1.0000
33.2700 609.0000 1.0000
33.2800 610.0000 1.0000
33.2900 630.0000 1.0000
33.3000 607.0000 1.0000
33.3100 636.0000 1.0000
33.3200 601.0000 1.0000
33.3300 597.0000 1.0000
33.3400 588.0000 1.0000
33.3500 615.0000 1.0000
33.3600 589.0000 1.0000
33.3700 631.0000 1.0000
33.3800 623.0000 1.0000
33.3900 626.0000 1.0000
33.4000 620.0000 1.0000
33.4100 667.0000 1.0000
33.4200 651.0000 1.0000
33.4300 663.0000 1.0000
33.4400 722.0000 1.0000
33.4500 687.0000 1.0000
33.4600 683.0000 1.0000
33.4700 704.0000 1.0000
33.4800 734.0000 1.0000
33.4900 761.0000 1.0000
33.5000 742.0000 1.0000
33.5100 827.0000 1.0000
33.5200 858.0000 1.0000
33.5300 874.0000 1.0000
33.5400 887.0000 1.0000
33.5500 926.0000 1.0000
33.5600 989.0000 1.0000
33.5700 1086.0000 1.0000
33.5800 1055.0000 1.0000
33.5900 1073.0000 1.0000
33.6000 1155.0000 1.0000
33.6100 1212.0000 1.0000
33.6200 1274.0000 1.0000
33.6300 1342.0000 1.0000
33.6400 1280.0000 1.0000
33.6500 1339.0000 1.0000
33.6600 1402.0000 1.0000
33.6700 1285.0000 1.0000
33.6800 1340.0000 1.0000
33.6900 1327.0000 1.0000
33.7000 1303.0000 1.0000
33.7100 1254.0000 1.0000
33.7200 1212.0000 1.0000
33.7300 1153.0000 1.0000
33.7400 1167.0000 1.0000
33.7500 1071.0000 1.0000
33.7600 1055.0000 1.0000
33.7700 1009.0000 1.0000
33.7800 969.0000 1.0000
33.7900 992.0000 1.0000
33.8000 988.0000 1.0000
33.8100 859.0000 1.0000
33.8200 810.0000 1.0000
33.8300 786.0000 1.0000
33.8400 842.0000 1.0000
33.8500 794.0000 1.0000
33.8600 725.0000 1.0000
33.8700 737.0000 1.0000
33.8800 688.0000 1.0000
33.8900 674.0000 1.0000
33.9000 664.0000 1.0000
33.9100 659.0000 1.0000
33.9200 686.0000 1.0000
33.9300 638.0000 1.0000
33.9400 627.0000 1.0000
33.9500 624.0000 1.0000
33.9600 631.0000 1.0000
33.9700 600.0000 1.0000
33.9800 599.0000 1.0000
33.9900 579.0000 1.0000
34.0000 604.0000 1.0000
34.0100 561.0000 1.0000
34.0200 572.0000 1.0000
34.0300 614.0000 1.0000
34.0400 573.0000 1.0000
34.0500 586.0000 1.0000
34.0600 572.0000 1.0000
34.0700 565.0000 1.0000
34.0800 540.0000 1.0000
34.0900 520.0000 1.0000
34.1000 558.0000 1.0000
34.1100 497.0000 1.0000
34.1200 517.0000 1.0000
34.1300 531.0000 1.0000
34.1400 547.0000 1.0000
34.1500 524.0000 1.0000
34.1600 492.0000 1.0000
34.1700 511.0000 1.0000
34.1800 529.0000 1.0000
34.1900 524.0000 1.0000
34.2000 532.0000 1.0000
34.2100 485.0000 1.0000
34.2200 480.0000 1.0000
34.2300 510.0000 1.0000
34.2400 495.0000 1.0000
34.2500 510.0000 1.0000
34.2600 495.0000 1.0000
34.2700 530.0000 1.0000
34.2800 473.0000 1.0000
34.2900 530.0000 1.0000
34.3000 539.0000 1.0000
34.3100 478.0000 1.0000
34.3200 520.0000 1.0000
34.3300 494.0000 1.0000
34.3400 506.0000 1.0000
34.3500 486.0000 1.0000
34.3600 478.0000 1.0000
34.3700 479.0000 1.0000
34.3800 484.0000 1.0000
34.3900 514.0000 1.0000
34.4000 504.0000 1.0000
34.4100 537.0000 1.0000
34.4200 495.0000 1.0000
34.4300 490.0000 1.0000
34.4400 475.0000 1.0000
34.4500 518.0000 1.0000
34.4600 511.0000 1.0000
34.4700 512.0000 1.0000
34.4800 497.0000 1.0000
34.4900 508.0000 1.0000
34.5000 474.0000 1.0000
34.5100 459.0000 1.0000
34.5200 486.0000 1.0000
34.5300 515.0000 1.0000
34.5400 471.0000 1.0000
34.5500 506.0000 1.0000
34.5600 475.0000 1.0000
34.5700 452.0000 1.0000
34.5800 514.0000 1.0000
34.5900 503.0000 1.0000
34.6000 513.0000 1.0000
34.6100 512.0000 1.0000
34.6200 469.0000 1.0000
34.6300 520.0000 1.0000
34.6400 488.0000 1.0000
34.6500 470.0000 1.0000
34.6600 484.0000 1.0000
34.6700 472.0000 1.0000
34.6800 471.0000 1.0000
34.6900 476.0000 1.0000
34.7000 436.0000 1.0000
34.7100 486.0000 1.0000
34.7200 479.0000 1.0000
34.7300 490.0000 1.0000
34.7400 482.0000 1.0000
34.7500 477.0000 1.0000
34.7600 468.0000 1.0000
34.7700 499.0000 1.0000
34.7800 463.0000 1.0000
34.7900 465.0000 1.0000
34.8000 478.0000 1.0000
34.8100 474.0000 1.0000
34.8200 462.0000 1.0000
34.8300 455.0000 1.0000
34.8400 470.0000 1.0000
34.8500 434.0000 1.0000
34.8600 467.0000 1.0000
34.8700 484.0000 1.0000
34.8800 474.0000 1.0000
34.8900 462.0000 1.0000
34.9000 489.0000 1.0000
34.9100 469.0000 1.0000
34.9200 459.0000 1.0000
34.9300 466.0000 1.0000
34.9400 449.0000 1.0000
34.9500 506.0000 1.0000
34.9600 494.0000 1.0000
34.9700 487.0000 1.0000
34.9800 467.0000 1.0000
34.9900 479.0000 1.0000
35.0000 478.0000 1.0000
35.0100 493.0000 1.0000
35.0200 442.0000 1.0000
35.0300 476.0000 1.0000
35.0400 496.0000 1.0000
35.0500 479.0000 1.0000
35.0600 493.0000 1.0000
35.0700 472.0000 1.0000
35.0800 466.0000 1.0000
35.0900 472.0000 1.0000
35.1000 447.0000 1.0000
35.1100 487.0000 1.0000
35.1200 466.0000 1.0000
35.1300 494.0000 1.0000
35.1400 473.0000 1.0000
35.1500 484.0000 1.0000
35.1600 436.0000 1.0000
35.1700 451.0000 1.0000
35.1800 476.0000 1.0000
35.1900 462.0000 1.0000
35.2000 483.0000 1.0000
35.2100 462.0000 1.0000
35.2200 470.0000 1.0000
35.2300 495.0000 1.0000
35.2400 499.0000 1.0000
35.2500 479.0000 1.0000
35.2600 499.0000 1.0000
35.2700 500.0000 1.0000
35.2800 470.0000 1.0000
35.2900 502.0000 1.0000
35.3000 519.0000 1.0000
35.3100 518.0000 1.0000
35.3200 538.0000 1.0000
35.3300 510.0000 1.0000
35.3400 516.0000 1.0000
35.3500 572.0000 1.0000
35.3600 542.0000 1.0000
35.3700 522.0000 1.0000
35.3800 586.0000 1.0000
35.3900 557.0000 1.0000
35.4000 518.0000 1.0000
35.4100 580.0000 1.0000
35.4200 619.0000 1.0000
35.4300 611.0000 1.0000
35.4400 601.0000 1.0000
35.4500 635.0000 1.0000
35.4600 599.0000 1.0000
35.4700 674.0000 1.0000
35.4800 741.0000 1.0000
35.4900 746.0000 1.0000
35.5000 771.0000 1.0000
35.5100 777.0000 1.0000
35.5200 851.0000 1.0000
35.5300 909.0000 1.0000
35.5400 890.0000 1.0000
35.5500 886.0000 1.0000
35.5600 918.0000 1.0000
35.5700 975.0000 1.0000
35.5800 948.0000 1.0000
35.5900 939.0000 1.0000
35.6000 958.0000 1.0000
35.6100 931.0000 1.0000
35.6200 969.0000 1.0000
35.6300 892.0000 1.0000
35.6400 853.0000 1.0000
35.6500 869.0000 1.0000
35.6600 827.0000 1.0000
35.6700 804.0000 1.0000
35.6800 783.0000 1.0000
35.6900 756.0000 1.0000
35.7000 711.0000 1.0000
35.7100 690.0000 1.0000
35.7200 643.0000 1.0000
35.7300 613.0000 1.0000
35.7400 620.0000 1.0000
35.7500 578.0000 1.0000
35.7600 552.0000 1.0000
35.7700 562.0000 1.0000
35.7800 523.0000 1.0000
35.7900 526.0000 1.0000
35.8000 509.0000 1.0000
35.8100 532.0000 1.0000
35.8200 521.0000 1.0000
35.8300 511.0000 1.0000
35.8400 498.0000 1.0000
35.8500 462.0000 1.0000
35.8600 491.0000 1.0000
35.8700 481.0000 1.0000
35.8800 457.0000 1.0000
35.8900 490.0000 1.0000
35.9000 438.0000 1.0000
35.9100 478.0000 1.0000
35.9200 454.0000 1.0000
35.9300 460.0000 1.0000
35.9400 461.0000 1.0000
35.9500 460.0000 1.0000
35.9600 456.0000 1.0000
35.9700 467.0000 1.0000
35.9800 457.0000 1.0000
35.9900 462.0000 1.0000
36.0000 450.0000 1.0000
36.0100 447.0000 1.0000
36.0200 450.0000 1.0000
36.0300 438.0000 1.0000
36.0400 456.0000 1.0000
36.0500 423.0000 1.0000
36.0600 440.0000 1.0000
36.0700 455.0000 1.0000
36.0800 449.0000 1.0000
36.0900 441.0000 1.0000
36.1000 435.0000 1.0000
36.1100 482.0000 1.0000
36.1200 462.0000 1.0000
36.1300 419.0000 1.0000
36.1400 418.0000 1.0000
36.1500 439.0000 1.0000
36.1600 449.0000 1.0000
36.1700 404.0000 1.0000
36.1800 426.0000 1.0000
36.1900 423.0000 1.0000
36.2000 460.0000 1.0000
36.2100 442.0000 1.0000
36.2200 411.0000 1.0000
36.2300 465.0000 1.0000
36.2400 438.0000 1.0000
36.2500 448.0000 1.0000
36.2600 453.0000 1.0000
36.2700 468.0000 1.0000
36.2800 423.0000 1.0000
36.2900 451.0000 1.0000
36.3000 451.0000 1.0000
36.3100 443.0000 1.0000
36.3200 455.0000 1.0000
36.3300 422.0000 1.0000
36.3400 451.0000 1.0000
36.3500 460.0000 1.0000
36.3600 432.0000 1.0000
36.3700 416.0000 1.0000
36.3800 458.0000 1.0000
36.3900 445.0000 1.0000
36.4000 443.0000 1.0000
36.4100 399.0000 1.0000
36.4200 421.0000 1.0000
36.4300 440.0000 1.0000
36.4400 472.0000 1.0000
36.4500 462.0000 1.0000
36.4600 423.0000 1.0000
36.4700 449.0000 1.0000
36.4800 447.0000 1.0000
36.4900 434.0000 1.0000
36.5000 420.0000 1.0000
36.5100 465.0000 1.0000
36.5200 480.0000 1.0000
36.5300 440.0000 1.0000
36.5400 409.0000 1.0000
36.5500 429.0000 1.0000
36.5600 435.0000 1.0000
36.5700 413.0000 1.0000
36.5800 413.0000 1.0000
36.5900 460.0000 1.0000
36.6000 443.0000 1.0000
36.6100 436.0000 1.0000
36.6200 424.0000 1.0000
36.6300 422.0000 1.0000
36.6400 403.0000 1.0000
36.6500 422.0000 1.0000
36.6600 439.0000 1.0000
36.6700 415.0000 1.0000
36.6800 443.0000 1.0000
36.6900 446.0000 1.0000
36.7000 435.0000 1.0000
36.7100 397.0000 1.0000
36.7200 436.0000 1.0000
36.7300 439.0000 1.0000
36.7400 425.0000 1.0000
36.7500 457.0000 1.0000
36.7600 461.0000 1.0000
36.7700 440.0000 1.0000
36.7800 433.0000 1.0000
36.7900 412.0000 1.0000
36.8000 462.0000 1.0000
36.8100 440.0000 1.0000
36.8200 441.0000 1.0000
36.8300 447.0000 1.0000
36.8400 409.0000 1.0000
36.8500 425.0000 1.0000
36.8600 439.0000 1.0000
36.8700 434.0000 1.0000
36.8800 418.0000 1.0000
36.8900 410.0000 1.0000
36.9000 413.0000 1.0000
36.9100 433.0000 1.0000
36.9200 471.0000 1.0000
36.9300 455.0000 1.0000
36.9400 424.0000 1.0000
36.9500 420.0000 1.0000
36.9600 445.0000 1.0000
36.9700 452.0000 1.0000
36.9800 447.0000 1.0000
36.9900 453.0000 1.0000
37.0000 441.0000 1.0000
37.0100 444.0000 1.0000
37.0200 449.0000 1.0000
37.0300 415.0000 1.0000
37.0400 467.0000 1.0000
37.0500 424.0000 1.0000
37.0600 402.0000 1.0000
37.0700 477.0000 1.0000
37.0800 456.0000 1.0000
37.0900 458.0000 1.0000
37.1000 401.0000 1.0000
37.1100 445.0000 1.0000
37.1200 404.0000 1.0000
37.1300 434.0000 1.0000
37.1400 433.0000 1.0000
37.1500 429.0000 1.0000
37.1600 453.0000 1.0000
37.1700 449.0000 1.0000
37.1800 420.0000 1.0000
37.1900 481.0000 1.0000
37.2000 454.0000 1.0000
37.2100 425.0000 1.0000
37.2200 434.0000 1.0000
37.2300 458.0000 1.0000
37.2400 420.0000 1.0000
37.2500 487.0000 1.0000
37.2600 474.0000 1.0000
37.2700 427.0000 1.0000
37.2800 505.0000 1.0000
37.2900 488.0000 1.0000
37.3000 470.0000 1.0000
37.3100 499.0000 1.0000
37.3200 492.0000 1.0000
37.3300 509.0000 1.0000
37.3400 514.0000 1.0000
37.3500 514.0000 1.0000
37.3600 498.0000 1.0000
37.3700 524.0000 1.0000
37.3800 519.0000 1.0000
37.3900 516.0000 1.0000
37.4000 547.0000 1.0000
37.4100 575.0000 1.0000
37.4200 570.0000 1.0000
37.4300 588.0000 1.0000
37.4400 590.0000 1.0000
37.4500 640.0000 1.0000
37.4600 704.0000 1.0000
37.4700 715.0000 1.0000
37.4800 760.0000 1.0000
37.4900 814.0000 1.0000
37.5000 746.0000 1.0000
37.5100 814.0000 1.0000
37.5200 829.0000 1.0000
37.5300 882.0000 1.0000
37.5400 961.0000 1.0000
37.5500 975.0000 1.0000
37.5600 1055.0000 1.0000
37.5700 1150.0000 1.0000
37.5800 1202.0000 1.0000
37.5900 1247.0000 1.0000
37.6000 1376.0000 1.0000
37.6100 1424.0000 1.0000
37.6200 1496.0000 1.0000
37.6300 1622.0000 1.0000
37.6400 1711.0000 1.0000
37.6500 1787.0000 1.0000
37.6600 1933.0000 1.0000
37.6700 1984.0000 1.0000
37.6800 1980.0000 1.0000
37.6900 2114.0000 1.0000
37.7000 2125.0000 1.0000
37.7100 2196.0000 1.0000
37.7200 2106.0000 1.0000
37.7300 2103.0000 1.0000
37.7400 2159.0000 1.0000
37.7500 2086.0000 1.0000
37.7600 2112.0000 1.0000
37.7700 2013.0000 1.0000
37.7800 1975.0000 1.0000
37.7900 1894.0000 1.0000
37.8000 1762.0000 1.0000
37.8100 1654.0000 1.0000
37.8200 1619.0000 1.0000
37.8300 1526.0000 1.0000
37.8400 1485.0000 1.0000
37.8500 1399.0000 1.0000
37.8600 1265.0000 1.0000
37.8700 1263.0000 1.0000
37.8800 1126.0000 1.0000
37.8900 1097.0000 1.0000
37.9000 1033.0000 1.0000
37.9100 930.0000 1.0000
37.9200 915.0000 1.0000
37.9300 881.0000 1.0000
37.9400 834.0000 1.0000
37.9500 795.0000 1.0000
37.9600 793.0000 1.0000
37.9700 725.0000 1.0000
37.9800 670.0000 1.0000
37.9900 633.0000 1.0000
38.0000 667.0000 1.0000
38.0100 609.0000 1.0000
38.0200 583.0000 1.0000
38.0300 564.0000 1.0000
38.0400 559.0000 1.0000
38.0500 562.0000 1.0000
38.0600 549.0000 1.0000
38.0700 553.0000 1.0000
38.0800 515.0000 1.0000
38.0900 507.0000 1.0000
38.1000 497.0000 1.0000
38.1100 458.0000 1.0000
38.1200 451.0000 1.0000
38.1300 455.0000 1.0000
38.1400 483.0000 1.0000
38.1500 470.0000 1.0000
38.1600 440.0000 1.0000
38.1700 451.0000 1.0000
38.1800 439.0000 1.0000
38.1900 484.0000 1.0000
38.2000 444.0000 1.0000
38.2100 431.0000 1.0000
38.2200 449.0000 1.0000
38.2300 421.0000 1.0000
38.2400 400.0000 1.0000
38.2500 419.0000 1.0000
38.2600 466.0000 1.0000
38.2700 441.0000 1.0000
38.2800 425.0000 1.0000
38.2900 459.0000 1.0000
38.3000 428.0000 1.0000
38.3100 384.0000 1.0000
38.3200 404.0000 1.0000
38.3300 413.0000 1.0000
38.3400 418.0000 1.0000
38.3500 441.0000 1.0000
38.3600 421.0000 1.0000
38.3700 392.0000 1.0000
38.3800 390.0000 1.0000
38.3900 405.0000 1.0000
38.4000 380.0000 1.0000
38.4100 394.0000 1.0000
38.4200 431.0000 1.0000
38.4300 407.0000 1.0000
38.4400 413.0000 1.0000
38.4500 388.0000 1.0000
38.4600 423.0000 1.0000
38.4700 420.0000 1.0000
38.4800 410.0000 1.0000
38.4900 424.0000 1.0000
38.5000 379.0000 1.0000
38.5100 390.0000 1.0000
38.5200 417.0000 1.0000
38.5300 438.0000 1.0000
38.5400 388.0000 1.0000
38.5500 417.0000 1.0000
38.5600 435.0000 1.0000
38.5700 400.0000 1.0000
38.5800 385.0000 1.0000
38.5900 355.0000 1.0000
38.6000 386.0000 1.0000
38.6100 350.0000 1.0000
38.6200 395.0000 1.0000
38.6300 398.0000 1.0000
38.6400 392.0000 1.0000
38.6500 421.0000 1.0000
38.6600 421.0000 1.0000
38.6700 413.0000 1.0000
38.6800 384.0000 1.0000
38.6900 400.0000 1.0000
38.7000 394.0000 1.0000
38.7100 386.0000 1.0000
38.7200 415.0000 1.0000
38.7300 412.0000 1.0000
38.7400 423.0000 1.0000
38.7500 409.0000 1.0000
38.7600 373.0000 1.0000
38.7700 407.0000 1.0000
38.7800 439.0000 1.0000
38.7900 379.0000 1.0000
38.8000 392.0000 1.0000
38.8100 374.0000 1.0000
38.8200 410.0000 1.0000
38.8300 388.0000 1.0000
38.8400 411.0000 1.0000
38.8500 391.0000 1.0000
38.8600 401.0000 1.0000
38.8700 394.0000 1.0000
38.8800 434.0000 1.0000
38.8900 427.0000 1.0000
38.9000 377.0000 1.0000
38.9100 372.0000 1.0000
38.9200 381.0000 1.0000
38.9300 418.0000 1.0000
38.9400 381.0000 1.0000
38.9500 376.0000 1.0000
38.9600 392.0000 1.0000
38.9700 400.0000 1.0000
38.9800 412.0000 1.0000
38.9900 394.0000 1.0000
39.0000 375.0000 1.0000
39.0100 391.0000 1.0000
39.0200 367.0000 1.0000
39.0300 367.0000 1.0000
39.0400 365.0000 1.0000
39.0500 378.0000 1.0000
39.0600 398.0000 1.0000
39.0700 378.0000 1.0000
39.0800 375.0000 1.0000
39.0900 368.0000 1.0000
39.1000 369.0000 1.0000
39.1100 345.0000 1.0000
39.1200 361.0000 1.0000
39.1300 406.0000 1.0000
39.1400 335.0000 1.0000
39.1500 371.0000 1.0000
39.1600 382.0000 1.0000
39.1700 420.0000 1.0000
39.1800 401.0000 1.0000
39.1900 399.0000 1.0000
39.2000 358.0000 1.0000
39.2100 382.0000 1.0000
39.2200 367.0000 1.0000
39.2300 350.0000 1.0000
39.2400 342.0000 1.0000
39.2500 355.0000 1.0000
39.2600 402.0000 1.0000
39.2700 369.0000 1.0000
39.2800 340.0000 1.0000
39.2900 383.0000 1.0000
39.3000 377.0000 1.0000
39.3100 368.0000 1.0000
39.3200 351.0000 1.0000
39.3300 352.0000 1.0000
39.3400 395.0000 1.0000
39.3500 368.0000 1.0000
39.3600 356.0000 1.0000
39.3700 351.0000 1.0000
39.3800 355.0000 1.0000
39.3900 398.0000 1.0000
39.4000 381.0000 1.0000
39.4100 378.0000 1.0000
39.4200 394.0000 1.0000
39.4300 374.0000 1.0000
39.4400 362.0000 1.0000
39.4500 387.0000 1.0000
39.4600 374.0000 1.0000
39.4700 386.0000 1.0000
39.4800 354.0000 1.0000
39.4900 370.0000 1.0000
39.5000 362.0000 1.0000
39.5100 357.0000 1.0000
39.5200 357.0000 1.0000
39.5300 382.0000 1.0000
39.5400 395.0000 1.0000
39.5500 380.0000 1.0000
39.5600 372.0000 1.0000
39.5700 380.0000 1.0000
39.5800 380.0000 1.0000
39.5900 378.0000 1.0000
39.6000 363.0000 1.0000
39.6100 341.0000 1.0000
39.6200 375.0000 1.0000
39.6300 367.0000 1.0000
39.6400 355.0000 1.0000
39.6500 382.0000 1.0000
39.6600 345.0000 1.0000
39.6700 394.0000 1.0000
39.6800 384.0000 1.0000
39.6900 348.0000 1.0000
39.7000 389.0000 1.0000
39.7100 363.0000 1.0000
39.7200 352.0000 1.0000
39.7300 342.0000 1.0000
39.7400 368.0000 1.0000
39.7500 370.0000 1.0000
39.7600 366.0000 1.0000
39.7700 358.0000 1.0000
39.7800 358.0000 1.0000
39.7900 380.0000 1.0000
39.8000 338.0000 1.0000
39.8100 358.0000 1.0000
39.8200 344.0000 1.0000
39.8300 364.0000 1.0000
39.8400 376.0000 1.0000
39.8500 367.0000 1.0000
39.8600 340.0000 1.0000
39.8700 382.0000 1.0000
39.8800 370.0000 1.0000
39.8900 370.0000 1.0000
39.9000 342.0000 1.0000
39.9100 339.0000 1.0000
39.9200 385.0000 1.0000
39.9300 375.0000 1.0000
39.9400 377.0000 1.0000
39.9500 365.0000 1.0000
39.9600 366.0000 1.0000
39.9700 361.0000 1.0000
39.9800 371.0000 1.0000
39.9900 366.0000 1.0000
40.0000 359.0000 1.0000
40.0100 347.0000 1.0000
40.0200 367.0000 1.0000
40.0300 338.0000 1.0000
40.0400 340.0000 1.0000
40.0500 360.0000 1.0000
40.0600 355.0000 1.0000
40.0700 345.0000 1.0000
40.0800 360.0000 1.0000
40.0900 343.0000 1.0000
40.1000 368.0000 1.0000
40.1100 364.0000 1.0000
40.1200 362.0000 1.0000
40.1300 359.0000 1.0000
40.1400 382.0000 1.0000
40.1500 367.0000 1.0000
40.1600 332.0000 1.0000
40.1700 377.0000 1.0000
40.1800 355.0000 1.0000
40.1900 360.0000 1.0000
40.2000 350.0000 1.0000
40.2100 366.0000 1.0000
40.2200 362.0000 1.0000
40.2300 385.0000 1.0000
40.2400 378.0000 1.0000
40.2500 363.0000 1.0000
40.2600 361.0000 1.0000
40.2700 344.0000 1.0000
40.2800 343.0000 1.0000
40.2900 352.0000 1.0000
40.3000 376.0000 1.0000
40.3100 370.0000 1.0000
40.3200 357.0000 1.0000
40.3300 326.0000 1.0000
40.3400 365.0000 1.0000
40.3500 351.0000 1.0000
40.3600 323.0000 1.0000
40.3700 360.0000 1.0000
40.3800 345.0000 1.0000
40.3900 358.0000 1.0000
40.4000 356.0000 1.0000
40.4100 359.0000 1.0000
40.4200 354.0000 1.0000
40.4300 369.0000 1.0000
40.4400 358.0000 1.0000
40.4500 373.0000 1.0000
40.4600 359.0000 1.0000
40.4700 346.0000 1.0000
40.4800 359.0000 1.0000
40.4900 353.0000 1.0000
40.5000 401.0000 1.0000
40.5100 378.0000 1.0000
40.5200 359.0000 1.0000
40.5300 352.0000 1.0000
40.5400 349.0000 1.0000
40.5500 364.0000 1.0000
40.5600 362.0000 1.0000
40.5700 346.0000 1.0000
40.5800 344.0000 1.0000
40.5900 382.0000 1.0000
40.6000 400.0000 1.0000
40.6100 382.0000 1.0000
40.6200 372.0000 1.0000
40.6300 347.0000 1.0000
40.6400 342.0000 1.0000
40.6500 365.0000 1.0000
40.6600 369.0000 1.0000
40.6700 352.0000 1.0000
40.6800 340.0000 1.0000
40.6900 369.0000 1.0000
40.7000 393.0000 1.0000
40.7100 345.0000 1.0000
40.7200 366.0000 1.0000
40.7300 316.0000 1.0000
40.7400 367.0000 1.0000
40.7500 382.0000 1.0000
40.7600 369.0000 1.0000
40.7700 383.0000 1.0000
40.7800 350.0000 1.0000
40.7900 361.0000 1.0000
40.8000 344.0000 1.0000
40.8100 364.0000 1.0000
40.8200 363.0000 1.0000
40.8300 376.0000 1.0000
40.8400 396.0000 1.0000
40.8500 359.0000 1.0000
40.8600 400.0000 1.0000
40.8700 373.0000 1.0000
40.8800 340.0000 1.0000
40.8900 353.0000 1.0000
40.9000 368.0000 1.0000
40.9100 387.0000 1.0000
40.9200 382.0000 1.0000
40.9300 364.0000 1.0000
40.9400 337.0000 1.0000
40.9500 374.0000 1.0000
40.9600 368.0000 1.0000
40.9700 336.0000 1.0000
40.9800 361.0000 1.0000
40.9900 371.0000 1.0000
41.0000 348.0000 1.0000
41.0100 346.0000 1.0000
41.0200 371.0000 1.0000
41.0300 382.0000 1.0000
41.0400 367.0000 1.0000
41.0500 375.0000 1.0000
41.0600 359.0000 1.0000
41.0700 349.0000 1.0000
41.0800 360.0000 1.0000
41.0900 334.0000 1.0000
41.1000 350.0000 1.0000
41.1100 330.0000 1.0000
41.1200 341.0000 1.0000
41.1300 366.0000 1.0000
41.1400 373.0000 1.0000
41.1500 358.0000 1.0000
41.1600 365.0000 1.0000
41.1700 355.0000 1.0000
41.1800 366.0000 1.0000
41.1900 375.0000 1.0000
41.2000 365.0000 1.0000
41.2100 371.0000 1.0000
41.2200 382.0000 1.0000
41.2300 364.0000 1.0000
41.2400 356.0000 1.0000
41.2500 336.0000 1.0000
41.2600 371.0000 1.0000
41.2700 349.0000 1.0000
41.2800 364.0000 1.0000
41.2900 359.0000 1.0000
41.3000 333.0000 1.0000
41.3100 351.0000 1.0000
41.3200 336.0000 1.0000
41.3300 346.0000 1.0000
41.3400 369.0000 1.0000
41.3500 379.0000 1.0000
41.3600 341.0000 1.0000
41.3700 330.0000 1.0000
41.3800 305.0000 1.0000
41.3900 351.0000 1.0000
41.4000 363.0000 1.0000
41.4100 370.0000 1.0000
41.4200 295.0000 1.0000
41.4300 346.0000 1.0000
41.4400 366.0000 1.0000
41.4500 370.0000 1.0000
41.4600 329.0000 1.0000
41.4700 347.0000 1.0000
41.4800 353.0000 1.0000
41.4900 374.0000 1.0000
41.5000 367.0000 1.0000
41.5100 397.0000 1.0000
41.5200 350.0000 1.0000
41.5300 359.0000 1.0000
41.5400 355.0000 1.0000
41.5500 348.0000 1.0000
41.5600 322.0000 1.0000
41.5700 351.0000 1.0000
41.5800 346.0000 1.0000
41.5900 352.0000 1.0000
41.6000 343.0000 1.0000
41.6100 356.0000 1.0000
41.6200 325.0000 1.0000
41.6300 347.0000 1.0000
41.6400 336.0000 1.0000
41.6500 341.0000 1.0000
41.6600 354.0000 1.0000
41.6700 348.0000 1.0000
41.6800 349.0000 1.0000
41.6900 343.0000 1.0000
41.7000 343.0000 1.0000
41.7100 337.0000 1.0000
41.7200 356.0000 1.0000
41.7300 316.0000 1.0000
41.7400 348.0000 1.0000
41.7500 330.0000 1.0000
41.7600 347.0000 1.0000
41.7700 369.0000 1.0000
41.7800 358.0000 1.0000
41.7900 342.0000 1.0000
41.8000 345.0000 1.0000
41.8100 351.0000 1.0000
41.8200 345.0000 1.0000
41.8300 336.0000 1.0000
41.8400 329.0000 1.0000
41.8500 349.0000 1.0000
41.8600 354.0000 1.0000
41.8700 319.0000 1.0000
41.8800 341.0000 1.0000
41.8900 370.0000 1.0000
41.9000 363.0000 1.0000
41.9100 352.0000 1.0000
41.9200 308.0000 1.0000
41.9300 326.0000 1.0000
41.9400 352.0000 1.0000
41.9500 351.0000 1.0000
41.9600 337.0000 1.0000
41.9700 338.0000 1.0000
41.9800 369.0000 1.0000
41.9900 321.0000 1.0000
42.0000 343.0000 1.0000
42.0100 366.0000 1.0000
42.0200 349.0000 1.0000
42.0300 363.0000 1.0000
42.0400 359.0000 1.0000
42.0500 351.0000 1.0000
42.0600 353.0000 1.0000
42.0700 367.0000 1.0000
42.0800 351.0000 1.0000
42.0900 326.0000 1.0000
42.1000 357.0000 1.0000
42.1100 341.0000 1.0000
42.1200 343.0000 1.0000
42.1300 337.0000 1.0000
42.1400 376.0000 1.0000
42.1500 371.0000 1.0000
42.1600 339.0000 1.0000
42.1700 343.0000 1.0000
42.1800 344.0000 1.0000
42.1900 366.0000 1.0000
42.2000 344.0000 1.0000
42.2100 348.0000 1.0000
42.2200 368.0000 1.0000
42.2300 371.0000 1.0000
42.2400 367.0000 1.0000
42.2500 343.0000 1.0000
42.2600 331.0000 1.0000
42.2700 345.0000 1.0000
42.2800 369.0000 1.0000
42.2900 364.0000 1.0000
42.3000 361.0000 1.0000
42.3100 351.0000 1.0000
42.3200 368.0000 1.0000
42.3300 376.0000 1.0000
42.3400 390.0000 1.0000
42.3500 383.0000 1.0000
42.3600 402.0000 1.0000
42.3700 361.0000 1.0000
42.3800 359.0000 1.0000
42.3900 399.0000 1.0000
42.4000 391.0000 1.0000
42.4100 374.0000 1.0000
42.4200 370.0000 1.0000
42.4300 376.0000 1.0000
42.4400 372.0000 1.0000
42.4500 388.0000 1.0000
42.4600 377.0000 1.0000
42.4700 369.0000 1.0000
42.4800 363.0000 1.0000
42.4900 363.0000 1.0000
42.5000 357.0000 1.0000
42.5100 370.0000 1.0000
42.5200 335.0000 1.0000
42.5300 337.0000 1.0000
42.5400 375.0000 1.0000
42.5500 354.0000 1.0000
42.5600 379.0000 1.0000
42.5700 342.0000 1.0000
42.5800 358.0000 1.0000
42.5900 350.0000 1.0000
42.6000 345.0000 1.0000
42.6100 369.0000 1.0000
42.6200 363.0000 1.0000
42.6300 346.0000 1.0000
42.6400 329.0000 1.0000
42.6500 365.0000 1.0000
42.6600 349.0000 1.0000
42.6700 369.0000 1.0000
42.6800 358.0000 1.0000
42.6900 367.0000 1.0000
42.7000 337.0000 1.0000
42.7100 346.0000 1.0000
42.7200 325.0000 1.0000
42.7300 315.0000 1.0000
42.7400 346.0000 1.0000
42.7500 352.0000 1.0000
42.7600 347.0000 1.0000
42.7700 335.0000 1.0000
42.7800 310.0000 1.0000
42.7900 325.0000 1.0000
42.8000 328.0000 1.0000
42.8100 348.0000 1.0000
42.8200 336.0000 1.0000
42.8300 342.0000 1.0000
42.8400 351.0000 1.0000
42.8500 320.0000 1.0000
42.8600 337.0000 1.0000
42.8700 347.0000 1.0000
42.8800 332.0000 1.0000
42.8900 339.0000 1.0000
42.9000 345.0000 1.0000
42.9100 319.0000 1.0000
42.9200 347.0000 1.0000
42.9300 341.0000 1.0000
42.9400 369.0000 1.0000
42.9500 315.0000 1.0000
42.9600 310.0000 1.0000
42.9700 340.0000 1.0000
42.9800 337.0000 1.0000
42.9900 322.0000 1.0000
43.0000 338.0000 1.0000
43.0100 344.0000 1.0000
43.0200 362.0000 1.0000
43.0300 354.0000 1.0000
43.0400 347.0000 1.0000
43.0500 325.0000 1.0000
43.0600 352.0000 1.0000
43.0700 318.0000 1.0000
43.0800 326.0000 1.0000
43.0900 332.0000 1.0000
43.1000 359.0000 1.0000
43.1100 319.0000 1.0000
43.1200 313.0000 1.0000
43.1300 340.0000 1.0000
43.1400 343.0000 1.0000
43.1500 327.0000 1.0000
43.1600 346.0000 1.0000
43.1700 313.0000 1.0000
43.1800 344.0000 1.0000
43.1900 331.0000 1.0000
43.2000 319.0000 1.0000
43.2100 328.0000 1.0000
43.2200 328.0000 1.0000
43.2300 344.0000 1.0000
43.2400 342.0000 1.0000
43.2500 310.0000 1.0000
43.2600 334.0000 1.0000
43.2700 364.0000 1.0000
43.2800 329.0000 1.0000
43.2900 352.0000 1.0000
43.3000 347.0000 1.0000
43.3100 333.0000 1.0000
43.3200 354.0000 1.0000
43.3300 360.0000 1.0000
43.3400 310.0000 1.0000
43.3500 346.0000 1.0000
43.3600 320.0000 1.0000
43.3700 359.0000 1.0000
43.3800 332.0000 1.0000
43.3900 327.0000 1.0000
43.4000 317.0000 1.0000
43.4100 324.0000 1.0000
43.4200 323.0000 1.0000
43.4300 352.0000 1.0000
43.4400 349.0000 1.0000
43.4500 323.0000 1.0000
43.4600 363.0000 1.0000
43.4700 326.0000 1.0000
43.4800 345.0000 1.0000
43.4900 347.0000 1.0000
43.5000 367.0000 1.0000
43.5100 357.0000 1.0000
43.5200 345.0000 1.0000
43.5300 325.0000 1.0000
43.5400 315.0000 1.0000
43.5500 309.0000 1.0000
43.5600 345.0000 1.0000
43.5700 313.0000 1.0000
43.5800 349.0000 1.0000
43.5900 350.0000 1.0000
43.6000 358.0000 1.0000
43.6100 355.0000 1.0000
43.6200 304.0000 1.0000
43.6300 344.0000 1.0000
43.6400 356.0000 1.0000
43.6500 357.0000 1.0000
43.6600 370.0000 1.0000
43.6700 348.0000 1.0000
43.6800 349.0000 1.0000
43.6900 360.0000 1.0000
43.7000 350.0000 1.0000
43.7100 355.0000 1.0000
43.7200 335.0000 1.0000
43.7300 345.0000 1.0000
43.7400 320.0000 1.0000
43.7500 339.0000 1.0000
43.7600 359.0000 1.0000
43.7700 369.0000 1.0000
43.7800 338.0000 1.0000
43.7900 312.0000 1.0000
43.8000 322.0000 1.0000
43.8100 312.0000 1.0000
43.8200 362.0000 1.0000
43.8300 363.0000 1.0000
43.8400 333.0000 1.0000
43.8500 327.0000 1.0000
43.8600 326.0000 1.0000
43.8700 340.0000 1.0000
43.8800 365.0000 1.0000
43.8900 313.0000 1.0000
43.9000 336.0000 1.0000
43.9100 328.0000 1.0000
43.9200 336.0000 1.0000
43.9300 353.0000 1.0000
43.9400 353.0000 1.0000
43.9500 351.0000 1.0000
43.9600 318.0000 1.0000
43.9700 342.0000 1.0000
43.9800 304.0000 1.0000
43.9900 308.0000 1.0000
44.0000 327.0000 1.0000
44.0100 332.0000 1.0000
44.0200 327.0000 1.0000
44.0300 310.0000 1.0000
44.0400 295.0000 1.0000
44.0500 310.0000 1.0000
44.0600 307.0000 1.0000
44.0700 324.0000 1.0000
44.0800 338.0000 1.0000
44.0900 347.0000 1.0000
44.1000 336.0000 1.0000
44.1100 312.0000 1.0000
44.1200 332.0000 1.0000
44.1300 330.0000 1.0000
44.1400 326.0000 1.0000
44.1500 300.0000 1.0000
44.1600 316.0000 1.0000
44.1700 314.0000 1.0000
44.1800 311.0000 1.0000
44.1900 342.0000 1.0000
44.2000 342.0000 1.0000
44.2100 303.0000 1.0000
44.2200 324.0000 1.0000
44.2300 331.0000 1.0000
44.2400 322.0000 1.0000
44.2500 315.0000 1.0000
44.2600 306.0000 1.0000
44.2700 331.0000 1.0000
44.2800 307.0000 1.0000
44.2900 324.0000 1.0000
44.3000 314.0000 1.0000
44.3100 329.0000 1.0000
44.3200 303.0000 1.0000
44.3300 337.0000 1.0000
44.3400 333.0000 1.0000
44.3500 334.0000 1.0000
44.3600 304.0000 1.0000
44.3700 305.0000 1.0000
44.3800 327.0000 1.0000
44.3900 336.0000 1.0000
44.4000 331.0000 1.0000
44.4100 300.0000 1.0000
44.4200 288.0000 1.0000
44.4300 326.0000 1.0000
44.4400 307.0000 1.0000
44.4500 351.0000 1.0000
44.4600 350.0000 1.0000
44.4700 331.0000 1.0000
44.4800 347.0000 1.0000
44.4900 328.0000 1.0000
44.5000 325.0000 1.0000
44.5100 297.0000 1.0000
44.5200 315.0000 1.0000
44.5300 297.0000 1.0000
44.5400 323.0000 1.0000
44.5500 331.0000 1.0000
44.5600 335.0000 1.0000
44.5700 305.0000 1.0000
44.5800 327.0000 1.0000
44.5900 335.0000 1.0000
44.6000 324.0000 1.0000
44.6100 298.0000 1.0000
44.6200 329.0000 1.0000
44.6300 318.0000 1.0000
44.6400 359.0000 1.0000
44.6500 334.0000 1.0000
44.6600 317.0000 1.0000
44.6700 296.0000 1.0000
44.6800 319.0000 1.0000
44.6900 337.0000 1.0000
44.7000 331.0000 1.0000
44.7100 336.0000 1.0000
44.7200 314.0000 1.0000
44.7300 335.0000 1.0000
44.7400 292.0000 1.0000
44.7500 314.0000 1.0000
44.7600 298.0000 1.0000
44.7700 327.0000 1.0000
44.7800 302.0000 1.0000
44.7900 340.0000 1.0000
44.8000 321.0000 1.0000
44.8100 342.0000 1.0000
44.8200 321.0000 1.0000
44.8300 299.0000 1.0000
44.8400 296.0000 1.0000
44.8500 325.0000 1.0000
44.8600 298.0000 1.0000
44.8700 326.0000 1.0000
44.8800 339.0000 1.0000
44.8900 336.0000 1.0000
44.9000 339.0000 1.0000
44.9100 308.0000 1.0000
44.9200 314.0000 1.0000
44.9300 323.0000 1.0000
44.9400 318.0000 1.0000
44.9500 297.0000 1.0000
44.9600 326.0000 1.0000
44.9700 327.0000 1.0000
44.9800 315.0000 1.0000
44.9900 295.0000 1.0000
45.0000 284.0000 1.0000
45.0100 325.0000 1.0000
45.0200 312.0000 1.0000
45.0300 315.0000 1.0000
45.0400 325.0000 1.0000
45.0500 324.0000 1.0000
45.0600 314.0000 1.0000
45.0700 343.0000 1.0000
45.0800 337.0000 1.0000
45.0900 315.0000 1.0000
45.1000 340.0000 1.0000
45.1100 320.0000 1.0000
45.1200 353.0000 1.0000
45.1300 306.0000 1.0000
45.1400 306.0000 1.0000
45.1500 324.0000 1.0000
45.1600 332.0000 1.0000
45.1700 352.0000 1.0000
45.1800 320.0000 1.0000
45.1900 341.0000 1.0000
45.2000 336.0000 1.0000
45.2100 308.0000 1.0000
45.2200 347.0000 1.0000
45.2300 318.0000 1.0000
45.2400 304.0000 1.0000
45.2500 321.0000 1.0000
45.2600 339.0000 1.0000
45.2700 316.0000 1.0000
45.2800 329.0000 1.0000
45.2900 330.0000 1.0000
45.3000 332.0000 1.0000
45.3100 327.0000 1.0000
45.3200 295.0000 1.0000
45.3300 303.0000 1.0000
45.3400 302.0000 1.0000
45.3500 334.0000 1.0000
45.3600 315.0000 1.0000
45.3700 333.0000 1.0000
45.3800 306.0000 1.0000
45.3900 311.0000 1.0000
45.4000 333.0000 1.0000
45.4100 306.0000 1.0000
45.4200 301.0000 1.0000
45.4300 325.0000 1.0000
45.4400 292.0000 1.0000
45.4500 342.0000 1.0000
45.4600 300.0000 1.0000
45.4700 316.0000 1.0000
45.4800 325.0000 1.0000
45.4900 312.0000 1.0000
45.5000 294.0000 1.0000
45.5100 304.0000 1.0000
45.5200 338.0000 1.0000
45.5300 316.0000 1.0000
45.5400 297.0000 1.0000
45.5500 305.0000 1.0000
45.5600 277.0000 1.0000
45.5700 308.0000 1.0000
45.5800 331.0000 1.0000
45.5900 323.0000 1.0000
45.6000 328.0000 1.0000
45.6100 312.0000 1.0000
45.6200 313.0000 1.0000
45.6300 305.0000 1.0000
45.6400 317.0000 1.0000
45.6500 353.0000 1.0000
45.6600 296.0000 1.0000
45.6700 304.0000 1.0000
45.6800 329.0000 1.0000
45.6900 305.0000 1.0000
45.7000 327.0000 1.0000
45.7100 295.0000 1.0000
45.7200 315.0000 1.0000
45.7300 330.0000 1.0000
45.7400 291.0000 1.0000
45.7500 316.0000 1.0000
45.7600 318.0000 1.0000
45.7700 313.0000 1.0000
45.7800 334.0000 1.0000
45.7900 332.0000 1.0000
45.8000 296.0000 1.0000
45.8100 304.0000 1.0000
45.8200 301.0000 1.0000
45.8300 297.0000 1.0000
45.8400 293.0000 1.0000
45.8500 329.0000 1.0000
45.8600 300.0000 1.0000
45.8700 306.0000 1.0000
45.8800 318.0000 1.0000
45.8900 319.0000 1.0000
45.9000 326.0000 1.0000
45.9100 313.0000 1.0000
45.9200 321.0000 1.0000
45.9300 302.0000 1.0000
45.9400 333.0000 1.0000
45.9500 333.0000 1.0000
45.9600 305.0000 1.0000
45.9700 324.0000 1.0000
45.9800 329.0000 1.0000
45.9900 286.0000 1.0000
46.0000 303.0000 1.0000
46.0100 292.0000 1.0000
46.0200 299.0000 1.0000
46.0300 298.0000 1.0000
46.0400 293.0000 1.0000
46.0500 320.0000 1.0000
46.0600 325.0000 1.0000
46.0700 306.0000 1.0000
46.0800 337.0000 1.0000
46.0900 322.0000 1.0000
46.1000 330.0000 1.0000
46.1100 338.0000 1.0000
46.1200 317.0000 1.0000
46.1300 324.0000 1.0000
46.1400 306.0000 1.0000
46.1500 310.0000 1.0000
46.1600 307.0000 1.0000
46.1700 298.0000 1.0000
46.1800 321.0000 1.0000
46.1900 342.0000 1.0000
46.2000 334.0000 1.0000
46.2100 338.0000 1.0000
46.2200 300.0000 1.0000
46.2300 322.0000 1.0000
46.2400 320.0000 1.0000
46.2500 313.0000 1.0000
46.2600 339.0000 1.0000
46.2700 316.0000 1.0000
46.2800 334.0000 1.0000
46.2900 309.0000 1.0000
46.3000 329.0000 1.0000
46.3100 317.0000 1.0000
46.3200 310.0000 1.0000
46.3300 312.0000 1.0000
46.3400 311.0000 1.0000
46.3500 305.0000 1.0000
46.3600 299.0000 1.0000
46.3700 321.0000 1.0000
46.3800 328.0000 1.0000
46.3900 278.0000 1.0000
46.4000 292.0000 1.0000
46.4100 306.0000 1.0000
46.4200 305.0000 1.0000
46.4300 313.0000 1.0000
46.4400 313.0000 1.0000
46.4500 306.0000 1.0000
46.4600 297.0000 1.0000
46.4700 300.0000 1.0000
46.4800 309.0000 1.0000
46.4900 285.0000 1.0000
46.5000 331.0000 1.0000
46.5100 288.0000 1.0000
46.5200 309.0000 1.0000
46.5300 316.0000 1.0000
46.5400 298.0000 1.0000
46.5500 284.0000 1.0000
46.5600 303.0000 1.0000
46.5700 317.0000 1.0000
46.5800 334.0000 1.0000
46.5900 316.0000 1.0000
46.6000 338.0000 1.0000
46.6100 332.0000 1.0000
46.6200 345.0000 1.0000
46.6300 334.0000 1.0000
46.6400 328.0000 1.0000
46.6500 304.0000 1.0000
46.6600 298.0000 1.0000
46.6700 328.0000 1.0000
46.6800 319.0000 1.0000
46.6900 309.0000 1.0000
46.7000 323.0000 1.0000
46.7100 297.0000 1.0000
46.7200 281.0000 1.0000
46.7300 281.0000 1.0000
46.7400 312.0000 1.0000
46.7500 293.0000 1.0000
46.7600 309.0000 1.0000
46.7700 287.0000 1.0000
46.7800 321.0000 1.0000
46.7900 323.0000 1.0000
46.8000 317.0000 1.0000
46.8100 314.0000 1.0000
46.8200 341.0000 1.0000
46.8300 292.0000 1.0000
46.8400 305.0000 1.0000
46.8500 301.0000 1.0000
46.8600 304.0000 1.0000
46.8700 318.0000 1.0000
46.8800 316.0000 1.0000
46.8900 329.0000 1.0000
46.9000 274.0000 1.0000
46.9100 279.0000 1.0000
46.9200 289.0000 1.0000
46.9300 289.0000 1.0000
46.9400 299.0000 1.0000
46.9500 294.0000 1.0000
46.9600 293.0000 1.0000
46.9700 294.0000 1.0000
46.9800 266.0000 1.0000
46.9900 288.0000 1.0000
47.0000 298.0000 1.0000
47.0100 335.0000 1.0000
47.0200 295.0000 1.0000
47.0300 329.0000 1.0000
47.0400 300.0000 1.0000
47.0500 306.0000 1.0000
47.0600 307.0000 1.0000
47.0700 299.0000 1.0000
47.0800 296.0000 1.0000
47.0900 333.0000 1.0000
47.1000 328.0000 1.0000
47.1100 307.0000 1.0000
47.1200 326.0000 1.0000
47.1300 271.0000 1.0000
47.1400 312.0000 1.0000
47.1500 307.0000 1.0000
47.1600 309.0000 1.0000
47.1700 284.0000 1.0000
47.1800 312.0000 1.0000
47.1900 293.0000 1.0000
47.2000 294.0000 1.0000
47.2100 296.0000 1.0000
47.2200 277.0000 1.0000
47.2300 303.0000 1.0000
47.2400 288.0000 1.0000
47.2500 282.0000 1.0000
47.2600 327.0000 1.0000
47.2700 334.0000 1.0000
47.2800 324.0000 1.0000
47.2900 284.0000 1.0000
47.3000 293.0000 1.0000
47.3100 285.0000 1.0000
47.3200 278.0000 1.0000
47.3300 302.0000 1.0000
47.3400 295.0000 1.0000
47.3500 301.0000 1.0000
47.3600 289.0000 1.0000
47.3700 287.0000 1.0000
47.3800 320.0000 1.0000
47.3900 284.0000 1.0000
47.4000 301.0000 1.0000
47.4100 303.0000 1.0000
47.4200 287.0000 1.0000
47.4300 292.0000 1.0000
47.4400 304.0000 1.0000
47.4500 337.0000 1.0000
47.4600 325.0000 1.0000
47.4700 302.0000 1.0000
47.4800 293.0000 1.0000
47.4900 333.0000 1.0000
47.5000 298.0000 1.0000
47.5100 286.0000 1.0000
47.5200 300.0000 1.0000
47.5300 317.0000 1.0000
47.5400 280.0000 1.0000
47.5500 303.0000 1.0000
47.5600 286.0000 1.0000
47.5700 286.0000 1.0000
47.5800 299.0000 1.0000
47.5900 279.0000 1.0000
47.6000 309.0000 1.0000
47.6100 316.0000 1.0000
47.6200 295.0000 1.0000
47.6300 281.0000 1.0000
47.6400 289.0000 1.0000
47.6500 304.0000 1.0000
47.6600 292.0000 1.0000
47.6700 297.0000 1.0000
47.6800 308.0000 1.0000
47.6900 309.0000 1.0000
47.7000 289.0000 1.0000
47.7100 298.0000 1.0000
47.7200 306.0000 1.0000
47.7300 292.0000 1.0000
47.7400 291.0000 1.0000
47.7500 316.0000 1.0000
47.7600 311.0000 1.0000
47.7700 292.0000 1.0000
47.7800 300.0000 1.0000
47.7900 327.0000 1.0000
47.8000 275.0000 1.0000
47.8100 259.0000 1.0000
47.8200 286.0000 1.0000
47.8300 323.0000 1.0000
47.8400 320.0000 1.0000
47.8500 301.0000 1.0000
47.8600 267.0000 1.0000
47.8700 293.0000 1.0000
47.8800 293.0000 1.0000
47.8900 284.0000 1.0000
47.9000 317.0000 1.0000
47.9100 291.0000 1.0000
47.9200 283.0000 1.0000
47.9300 290.0000 1.0000
47.9400 298.0000 1.0000
47.9500 305.0000 1.0000
47.9600 305.0000 1.0000
47.9700 296.0000 1.0000
47.9800 311.0000 1.0000
47.9900 286.0000 1.0000
48.0000 300.0000 1.0000
48.0100 300.0000 1.0000
48.0200 294.0000 1.0000
48.0300 274.0000 1.0000
48.0400 262.0000 1.0000
48.0500 293.0000 1.0000
48.0600 296.0000 1.0000
48.0700 303.0000 1.0000
48.0800 279.0000 1.0000
48.0900 273.0000 1.0000
48.1000 284.0000 1.0000
48.1100 276.0000 1.0000
48.1200 320.0000 1.0000
48.1300 301.0000 1.0000
48.1400 291.0000 1.0000
48.1500 295.0000 1.0000
48.1600 284.0000 1.0000
48.1700 298.0000 1.0000
48.1800 334.0000 1.0000
48.1900 295.0000 1.0000
48.2000 293.0000 1.0000
48.2100 294.0000 1.0000
48.2200 293.0000 1.0000
48.2300 317.0000 1.0000
48.2400 312.0000 1.0000
48.2500 296.0000 1.0000
48.2600 295.0000 1.0000
48.2700 306.0000 1.0000
48.2800 276.0000 1.0000
48.2900 313.0000 1.0000
48.3000 317.0000 1.0000
48.3100 296.0000 1.0000
48.3200 312.0000 1.0000
48.3300 295.0000 1.0000
48.3400 261.0000 1.0000
48.3500 266.0000 1.0000
48.3600 278.0000 1.0000
48.3700 312.0000 1.0000
48.3800 292.0000 1.0000
48.3900 317.0000 1.0000
48.4000 301.0000 1.0000
48.4100 317.0000 1.0000
48.4200 311.0000 1.0000
48.4300 279.0000 1.0000
48.4400 275.0000 1.0000
48.4500 300.0000 1.0000
48.4600 304.0000 1.0000
48.4700 297.0000 1.0000
48.4800 283.0000 1.0000
48.4900 272.0000 1.0000
48.5000 280.0000 1.0000
48.5100 274.0000 1.0000
48.5200 297.0000 1.0000
48.5300 257.0000 1.0000
48.5400 274.0000 1.0000
48.5500 297.0000 1.0000
48.5600 308.0000 1.0000
48.5700 282.0000 1.0000
48.5800 306.0000 1.0000
48.5900 321.0000 1.0000
48.6000 309.0000 1.0000
48.6100 277.0000 1.0000
48.6200 285.0000 1.0000
48.6300 284.0000 1.0000
48.6400 300.0000 1.0000
48.6500 289.0000 1.0000
48.6600 326.0000 1.0000
48.6700 297.0000 1.0000
48.6800 262.0000 1.0000
48.6900 277.0000 1.0000
48.7000 304.0000 1.0000
48.7100 309.0000 1.0000
48.7200 299.0000 1.0000
48.7300 285.0000 1.0000
48.7400 262.0000 1.0000
48.7500 278.0000 1.0000
48.7600 281.0000 1.0000
48.7700 276.0000 1.0000
48.7800 295.0000 1.0000
48.7900 269.0000 1.0000
48.8000 268.0000 1.0000
48.8100 306.0000 1.0000
48.8200 321.0000 1.0000
48.8300 288.0000 1.0000
48.8400 288.0000 1.0000
48.8500 292.0000 1.0000
48.8600 280.0000 1.0000
48.8700 296.0000 1.0000
48.8800 284.0000 1.0000
48.8900 288.0000 1.0000
48.9000 284.0000 1.0000
48.9100 286.0000 1.0000
48.9200 305.0000 1.0000
48.9300 302.0000 1.0000
48.9400 291.0000 1.0000
48.9500 320.0000 1.0000
48.9600 300.0000 1.0000
48.9700 291.0000 1.0000
48.9800 297.0000 1.0000
48.9900 277.0000 1.0000
49.0000 321.0000 1.0000
49.0100 320.0000 1.0000
49.0200 268.0000 1.0000
49.0300 269.0000 1.0000
49.0400 292.0000 1.0000
49.0500 278.0000 1.0000
49.0600 313.0000 1.0000
49.0700 293.0000 1.0000
49.0800 269.0000 1.0000
49.0900 307.0000 1.0000
49.1000 303.0000 1.0000
49.1100 272.0000 1.0000
49.1200 301.0000 1.0000
49.1300 298.0000 1.0000
49.1400 276.0000 1.0000
49.1500 304.0000 1.0000
49.1600 292.0000 1.0000
49.1700 306.0000 1.0000
49.1800 310.0000 1.0000
49.1900 292.0000 1.0000
49.2000 279.0000 1.0000
49.2100 291.0000 1.0000
49.2200 319.0000 1.0000
49.2300 312.0000 1.0000
49.2400 314.0000 1.0000
49.2500 290.0000 1.0000
49.2600 301.0000 1.0000
49.2700 313.0000 1.0000
49.2800 308.0000 1.0000
49.2900 295.0000 1.0000
49.3000 296.0000 1.0000
49.3100 296.0000 1.0000
49.3200 319.0000 1.0000
49.3300 301.0000 1.0000
49.3400 307.0000 1.0000
49.3500 331.0000 1.0000
49.3600 313.0000 1.0000
49.3700 293.0000 1.0000
49.3800 335.0000 1.0000
49.3900 318.0000 1.0000
49.4000 329.0000 1.0000
49.4100 294.0000 1.0000
49.4200 313.0000 1.0000
49.4300 335.0000 1.0000
49.4400 344.0000 1.0000
49.4500 321.0000 1.0000
49.4600 300.0000 1.0000
49.4700 293.0000 1.0000
49.4800 330.0000 1.0000
49.4900 328.0000 1.0000
49.5000 317.0000 1.0000
49.5100 323.0000 1.0000
49.5200 322.0000 1.0000
49.5300 298.0000 1.0000
49.5400 305.0000 1.0000
49.5500 300.0000 1.0000
49.5600 274.0000 1.0000
49.5700 333.0000 1.0000
49.5800 312.0000 1.0000
49.5900 300.0000 1.0000
49.6000 304.0000 1.0000
49.6100 289.0000 1.0000
49.6200 264.0000 1.0000
49.6300 321.0000 1.0000
49.6400 317.0000 1.0000
49.6500 304.0000 1.0000
49.6600 300.0000 1.0000
49.6700 303.0000 1.0000
49.6800 339.0000 1.0000
49.6900 292.0000 1.0000
49.7000 282.0000 1.0000
49.7100 319.0000 1.0000
49.7200 308.0000 1.0000
49.7300 319.0000 1.0000
49.7400 329.0000 1.0000
49.7500 290.0000 1.0000
49.7600 295.0000 1.0000
49.7700 292.0000 1.0000
49.7800 298.0000 1.0000
49.7900 300.0000 1.0000
49.8000 302.0000 1.0000
49.8100 283.0000 1.0000
49.8200 285.0000 1.0000
49.8300 304.0000 1.0000
49.8400 296.0000 1.0000
49.8500 285.0000 1.0000
49.8600 296.0000 1.0000
49.8700 279.0000 1.0000
49.8800 284.0000 1.0000
49.8900 312.0000 1.0000
49.9000 307.0000 1.0000
49.9100 285.0000 1.0000
49.9200 302.0000 1.0000
49.9300 272.0000 1.0000
49.9400 309.0000 1.0000
49.9500 299.0000 1.0000
49.9600 296.0000 1.0000
49.9700 293.0000 1.0000
49.9800 306.0000 1.0000
49.9900 286.0000 1.0000
50.0000 310.0000 1.0000
50.0100 326.0000 1.0000
50.0200 267.0000 1.0000
50.0300 275.0000 1.0000
50.0400 285.0000 1.0000
50.0500 267.0000 1.0000
50.0600 298.0000 1.0000
50.0700 273.0000 1.0000
50.0800 309.0000 1.0000
50.0900 284.0000 1.0000
50.1000 322.0000 1.0000
50.1100 297.0000 1.0000
50.1200 310.0000 1.0000
50.1300 308.0000 1.0000
50.1400 291.0000 1.0000
50.1500 311.0000 1.0000
50.1600 301.0000 1.0000
50.1700 281.0000 1.0000
50.1800 291.0000 1.0000
50.1900 289.0000 1.0000
50.2000 312.0000 1.0000
50.2100 303.0000 1.0000
50.2200 297.0000 1.0000
50.2300 296.0000 1.0000
50.2400 304.0000 1.0000
50.2500 285.0000 1.0000
50.2600 275.0000 1.0000
50.2700 279.0000 1.0000
50.2800 296.0000 1.0000
50.2900 298.0000 1.0000
50.3000 311.0000 1.0000
50.3100 310.0000 1.0000
50.3200 325.0000 1.0000
50.3300 296.0000 1.0000
50.3400 296.0000 1.0000
50.3500 298.0000 1.0000
50.3600 307.0000 1.0000
50.3700 298.0000 1.0000
50.3800 300.0000 1.0000
50.3900 315.0000 1.0000
50.4000 297.0000 1.0000
50.4100 321.0000 1.0000
50.4200 320.0000 1.0000
50.4300 292.0000 1.0000
50.4400 298.0000 1.0000
50.4500 305.0000 1.0000
50.4600 294.0000 1.0000
50.4700 280.0000 1.0000
50.4800 311.0000 1.0000
50.4900 300.0000 1.0000
50.5000 296.0000 1.0000
50.5100 303.0000 1.0000
50.5200 288.0000 1.0000
50.5300 300.0000 1.0000
50.5400 307.0000 1.0000
50.5500 294.0000 1.0000
50.5600 321.0000 1.0000
50.5700 299.0000 1.0000
50.5800 282.0000 1.0000
50.5900 323.0000 1.0000
50.6000 319.0000 1.0000
50.6100 321.0000 1.0000
50.6200 278.0000 1.0000
50.6300 295.0000 1.0000
50.6400 295.0000 1.0000
50.6500 290.0000 1.0000
50.6600 289.0000 1.0000
50.6700 301.0000 1.0000
50.6800 300.0000 1.0000
50.6900 306.0000 1.0000
50.7000 318.0000 1.0000
50.7100 290.0000 1.0000
50.7200 316.0000 1.0000
50.7300 277.0000 1.0000
50.7400 327.0000 1.0000
50.7500 280.0000 1.0000
50.7600 287.0000 1.0000
50.7700 319.0000 1.0000
50.7800 345.0000 1.0000
50.7900 285.0000 1.0000
50.8000 297.0000 1.0000
50.8100 304.0000 1.0000
50.8200 294.0000 1.0000
50.8300 335.0000 1.0000
50.8400 334.0000 1.0000
50.8500 330.0000 1.0000
50.8600 319.0000 1.0000
50.8700 311.0000 1.0000
50.8800 284.0000 1.0000
50.8900 309.0000 1.0000
50.9000 297.0000 1.0000
50.9100 290.0000 1.0000
50.9200 306.0000 1.0000
50.9300 331.0000 1.0000
50.9400 341.0000 1.0000
50.9500 317.0000 1.0000
50.9600 342.0000 1.0000
50.9700 337.0000 1.0000
50.9800 340.0000 1.0000
50.9900 339.0000 1.0000
51.0000 293.0000 1.0000
51.0100 305.0000 1.0000
51.0200 306.0000 1.0000
51.0300 335.0000 1.0000
51.0400 341.0000 1.0000
51.0500 329.0000 1.0000
51.0600 361.0000 1.0000
51.0700 353.0000 1.0000
51.0800 358.0000 1.0000
51.0900 338.0000 1.0000
51.1000 355.0000 1.0000
51.1100 367.0000 1.0000
51.1200 370.0000 1.0000
51.1300 368.0000 1.0000
51.1400 386.0000 1.0000
51.1500 414.0000 1.0000
51.1600 404.0000 1.0000
51.1700 404.0000 1.0000
51.1800 390.0000 1.0000
51.1900 426.0000 1.0000
51.2000 412.0000 1.0000
51.2100 456.0000 1.0000
51.2200 450.0000 1.0000
51.2300 480.0000 1.0000
51.2400 491.0000 1.0000
51.2500 530.0000 1.0000
51.2600 531.0000 1.0000
51.2700 579.0000 1.0000
51.2800 556.0000 1.0000
51.2900 630.0000 1.0000
51.3000 669.0000 1.0000
51.3100 663.0000 1.0000
51.3200 736.0000 1.0000
51.3300 783.0000 1.0000
51.3400 817.0000 1.0000
51.3500 889.0000 1.0000
51.3600 929.0000 1.0000
51.3700 947.0000 1.0000
51.3800 1127.0000 1.0000
51.3900 1186.0000 1.0000
51.4000 1274.0000 1.0000
51.4100 1396.0000 1.0000
51.4200 1477.0000 1.0000
51.4300 1574.0000 1.0000
51.4400 1628.0000 1.0000
51.4500 1730.0000 1.0000
51.4600 1861.0000 1.0000
51.4700 1895.0000 1.0000
51.4800 1920.0000 1.0000
51.4900 2016.0000 1.0000
51.5000 1918.0000 1.0000
51.5100 1856.0000 1.0000
51.5200 1888.0000 1.0000
51.5300 1873.0000 1.0000
51.5400 1850.0000 1.0000
51.5500 1785.0000 1.0000
51.5600 1806.0000 1.0000
51.5700 1720.0000 1.0000
51.5800 1593.0000 1.0000
51.5900 1540.0000 1.0000
51.6000 1488.0000 1.0000
51.6100 1399.0000 1.0000
51.6200 1393.0000 1.0000
51.6300 1450.0000 1.0000
51.6400 1375.0000 1.0000
51.6500 1254.0000 1.0000
51.6600 1193.0000 1.0000
51.6700 1167.0000 1.0000
51.6800 1077.0000 1.0000
51.6900 964.0000 1.0000
51.7000 932.0000 1.0000
51.7100 900.0000 1.0000
51.7200 782.0000 1.0000
51.7300 751.0000 1.0000
51.7400 729.0000 1.0000
51.7500 682.0000 1.0000
51.7600 651.0000 1.0000
51.7700 600.0000 1.0000
51.7800 556.0000 1.0000
51.7900 543.0000 1.0000
51.8000 525.0000 1.0000
51.8100 558.0000 1.0000
51.8200 446.0000 1.0000
51.8300 444.0000 1.0000
51.8400 411.0000 1.0000
51.8500 446.0000 1.0000
51.8600 457.0000 1.0000
51.8700 434.0000 1.0000
51.8800 416.0000 1.0000
51.8900 394.0000 1.0000
51.9000 371.0000 1.0000
51.9100 395.0000 1.0000
51.9200 382.0000 1.0000
51.9300 388.0000 1.0000
51.9400 383.0000 1.0000
51.9500 371.0000 1.0000
51.9600 408.0000 1.0000
51.9700 370.0000 1.0000
51.9800 358.0000 1.0000
51.9900 349.0000 1.0000
52.0000 369.0000 1.0000
52.0100 352.0000 1.0000
52.0200 317.0000 1.0000
52.0300 328.0000 1.0000
52.0400 333.0000 1.0000
52.0500 346.0000 1.0000
52.0600 337.0000 1.0000
52.0700 332.0000 1.0000
52.0800 323.0000 1.0000
52.0900 323.0000 1.0000
52.1000 304.0000 1.0000
52.1100 327.0000 1.0000
52.1200 326.0000 1.0000
52.1300 300.0000 1.0000
52.1400 311.0000 1.0000
52.1500 318.0000 1.0000
52.1600 302.0000 1.0000
52.1700 319.0000 1.0000
52.1800 309.0000 1.0000
52.1900 298.0000 1.0000
52.2000 316.0000 1.0000
52.2100 289.0000 1.0000
52.2200 289.0000 1.0000
52.2300 297.0000 1.0000
52.2400 300.0000 1.0000
52.2500 274.0000 1.0000
52.2600 279.0000 1.0000
52.2700 275.0000 1.0000
52.2800 301.0000 1.0000
52.2900 304.0000 1.0000
52.3000 284.0000 1.0000
52.3100 310.0000 1.0000
52.3200 295.0000 1.0000
52.3300 286.0000 1.0000
52.3400 295.0000 1.0000
52.3500 318.0000 1.0000
52.3600 313.0000 1.0000
52.3700 312.0000 1.0000
52.3800 309.0000 1.0000
52.3900 296.0000 1.0000
52.4000 296.0000 1.0000
52.4100 305.0000 1.0000
52.4200 290.0000 1.0000
52.4300 271.0000 1.0000
52.4400 297.0000 1.0000
52.4500 294.0000 1.0000
52.4600 255.0000 1.0000
52.4700 288.0000 1.0000
52.4800 297.0000 1.0000
52.4900 305.0000 1.0000
52.5000 288.0000 1.0000
52.5100 278.0000 1.0000
52.5200 300.0000 1.0000
52.5300 287.0000 1.0000
52.5400 282.0000 1.0000
52.5500 316.0000 1.0000
52.5600 278.0000 1.0000
52.5700 268.0000 1.0000
52.5800 266.0000 1.0000
52.5900 303.0000 1.0000
52.6000 300.0000 1.0000
52.6100 271.0000 1.0000
52.6200 259.0000 1.0000
52.6300 296.0000 1.0000
52.6400 284.0000 1.0000
52.6500 301.0000 1.0000
52.6600 296.0000 1.0000
52.6700 294.0000 1.0000
52.6800 306.0000 1.0000
52.6900 288.0000 1.0000
52.7000 312.0000 1.0000
52.7100 271.0000 1.0000
52.7200 313.0000 1.0000
52.7300 267.0000 1.0000
52.7400 264.0000 1.0000
52.7500 297.0000 1.0000
52.7600 309.0000 1.0000
52.7700 272.0000 1.0000
52.7800 266.0000 1.0000
52.7900 272.0000 1.0000
52.8000 266.0000 1.0000
52.8100 285.0000 1.0000
52.8200 305.0000 1.0000
52.8300 270.0000 1.0000
52.8400 294.0000 1.0000
52.8500 277.0000 1.0000
52.8600 296.0000 1.0000
52.8700 303.0000 1.0000
52.8800 294.0000 1.0000
52.8900 275.0000 1.0000
52.9000 316.0000 1.0000
52.9100 289.0000 1.0000
52.9200 292.0000 1.0000
52.9300 294.0000 1.0000
52.9400 296.0000 1.0000
52.9500 297.0000 1.0000
52.9600 299.0000 1.0000
52.9700 290.0000 1.0000
52.9800 269.0000 1.0000
52.9900 278.0000 1.0000
53.0000 259.0000 1.0000
53.0100 314.0000 1.0000
53.0200 309.0000 1.0000
53.0300 280.0000 1.0000
53.0400 291.0000 1.0000
53.0500 276.0000 1.0000
53.0600 280.0000 1.0000
53.0700 319.0000 1.0000
53.0800 277.0000 1.0000
53.0900 269.0000 1.0000
53.1000 263.0000 1.0000
53.1100 289.0000 1.0000
53.1200 296.0000 1.0000
53.1300 259.0000 1.0000
53.1400 285.0000 1.0000
53.1500 315.0000 1.0000
53.1600 289.0000 1.0000
53.1700 278.0000 1.0000
53.1800 286.0000 1.0000
53.1900 282.0000 1.0000
53.2000 272.0000 1.0000
53.2100 289.0000 1.0000
53.2200 289.0000 1.0000
53.2300 283.0000 1.0000
53.2400 265.0000 1.0000
53.2500 255.0000 1.0000
53.2600 258.0000 1.0000
53.2700 298.0000 1.0000
53.2800 280.0000 1.0000
53.2900 298.0000 1.0000
53.3000 283.0000 1.0000
53.3100 280.0000 1.0000
53.3200 272.0000 1.0000
53.3300 273.0000 1.0000
53.3400 279.0000 1.0000
53.3500 265.0000 1.0000
53.3600 279.0000 1.0000
53.3700 251.0000 1.0000
53.3800 264.0000 1.0000
53.3900 311.0000 1.0000
53.4000 318.0000 1.0000
53.4100 279.0000 1.0000
53.4200 281.0000 1.0000
53.4300 289.0000 1.0000
53.4400 269.0000 1.0000
53.4500 263.0000 1.0000
53.4600 268.0000 1.0000
53.4700 302.0000 1.0000
53.4800 298.0000 1.0000
53.4900 292.0000 1.0000
53.5000 294.0000 1.0000
53.5100 298.0000 1.0000
53.5200 304.0000 1.0000
53.5300 291.0000 1.0000
53.5400 300.0000 1.0000
53.5500 268.0000 1.0000
53.5600 284.0000 1.0000
53.5700 263.0000 1.0000
53.5800 261.0000 1.0000
53.5900 289.0000 1.0000
53.6000 285.0000 1.0000
53.6100 264.0000 1.0000
53.6200 259.0000 1.0000
53.6300 286.0000 1.0000
53.6400 267.0000 1.0000
53.6500 284.0000 1.0000
53.6600 273.0000 1.0000
53.6700 287.0000 1.0000
53.6800 288.0000 1.0000
53.6900 260.0000 1.0000
53.7000 293.0000 1.0000
53.7100 293.0000 1.0000
53.7200 303.0000 1.0000
53.7300 292.0000 1.0000
53.7400 277.0000 1.0000
53.7500 281.0000 1.0000
53.7600 300.0000 1.0000
53.7700 297.0000 1.0000
53.7800 281.0000 1.0000
53.7900 294.0000 1.0000
53.8000 286.0000 1.0000
53.8100 305.0000 1.0000
53.8200 267.0000 1.0000
53.8300 305.0000 1.0000
53.8400 267.0000 1.0000
53.8500 285.0000 1.0000
53.8600 283.0000 1.0000
53.8700 260.0000 1.0000
53.8800 257.0000 1.0000
53.8900 282.0000 1.0000
53.9000 282.0000 1.0000
53.9100 270.0000 1.0000
53.9200 288.0000 1.0000
53.9300 312.0000 1.0000
53.9400 314.0000 1.0000
53.9500 294.0000 1.0000
53.9600 324.0000 1.0000
53.9700 310.0000 1.0000
53.9800 315.0000 1.0000
53.9900 325.0000 1.0000
54.0000 311.0000 1.0000
54.0100 297.0000 1.0000
54.0200 302.0000 1.0000
54.0300 306.0000 1.0000
54.0400 291.0000 1.0000
54.0500 286.0000 1.0000
54.0600 297.0000 1.0000
54.0700 327.0000 1.0000
54.0800 301.0000 1.0000
54.0900 320.0000 1.0000
54.1000 298.0000 1.0000
54.1100 291.0000 1.0000
54.1200 301.0000 1.0000
54.1300 287.0000 1.0000
54.1400 329.0000 1.0000
54.1500 307.0000 1.0000
54.1600 289.0000 1.0000
54.1700 298.0000 1.0000
54.1800 323.0000 1.0000
54.1900 302.0000 1.0000
54.2000 320.0000 1.0000
54.2100 313.0000 1.0000
54.2200 329.0000 1.0000
54.2300 306.0000 1.0000
54.2400 291.0000 1.0000
54.2500 297.0000 1.0000
54.2600 331.0000 1.0000
54.2700 333.0000 1.0000
54.2800 315.0000 1.0000
54.2900 334.0000 1.0000
54.3000 326.0000 1.0000
54.3100 330.0000 1.0000
54.3200 319.0000 1.0000
54.3300 330.0000 1.0000
54.3400 326.0000 1.0000
54.3500 369.0000 1.0000
54.3600 339.0000 1.0000
54.3700 353.0000 1.0000
54.3800 335.0000 1.0000
54.3900 352.0000 1.0000
54.4000 380.0000 1.0000
54.4100 395.0000 1.0000
54.4200 391.0000 1.0000
54.4300 391.0000 1.0000
54.4400 407.0000 1.0000
54.4500 395.0000 1.0000
54.4600 402.0000 1.0000
54.4700 416.0000 1.0000
54.4800 417.0000 1.0000
54.4900 417.0000 1.0000
54.5000 413.0000 1.0000
54.5100 404.0000 1.0000
54.5200 375.0000 1.0000
54.5300 405.0000 1.0000
54.5400 429.0000 1.0000
54.5500 385.0000 1.0000
54.5600 403.0000 1.0000
54.5700 438.0000 1.0000
54.5800 427.0000 1.0000
54.5900 392.0000 1.0000
54.6000 379.0000 1.0000
54.6100 411.0000 1.0000
54.6200 423.0000 1.0000
54.6300 443.0000 1.0000
54.6400 422.0000 1.0000
54.6500 394.0000 1.0000
54.6600 387.0000 1.0000
54.6700 386.0000 1.0000
54.6800 379.0000 1.0000
54.6900 370.0000 1.0000
54.7000 362.0000 1.0000
54.7100 358.0000 1.0000
54.7200 320.0000 1.0000
54.7300 352.0000 1.0000
54.7400 341.0000 1.0000
54.7500 331.0000 1.0000
54.7600 321.0000 1.0000
54.7700 324.0000 1.0000
54.7800 346.0000 1.0000
54.7900 308.0000 1.0000
54.8000 336.0000 1.0000
54.8100 322.0000 1.0000
54.8200 318.0000 1.0000
54.8300 334.0000 1.0000
54.8400 298.0000 1.0000
54.8500 289.0000 1.0000
54.8600 284.0000 1.0000
54.8700 291.0000 1.0000
54.8800 304.0000 1.0000
54.8900 301.0000 1.0000
54.9000 321.0000 1.0000
54.9100 285.0000 1.0000
54.9200 286.0000 1.0000
54.9300 299.0000 1.0000
54.9400 273.0000 1.0000
54.9500 295.0000 1.0000
54.9600 314.0000 1.0000
54.9700 290.0000 1.0000
54.9800 279.0000 1.0000
54.9900 294.0000 1.0000
55.0000 285.0000 1.0000
55.0100 264.0000 1.0000
55.0200 304.0000 1.0000
55.0300 272.0000 1.0000
55.0400 309.0000 1.0000
55.0500 286.0000 1.0000
55.0600 292.0000 1.0000
55.0700 294.0000 1.0000
55.0800 302.0000 1.0000
55.0900 258.0000 1.0000
55.1000 270.0000 1.0000
55.1100 260.0000 1.0000
55.1200 281.0000 1.0000
55.1300 283.0000 1.0000
55.1400 258.0000 1.0000
55.1500 269.0000 1.0000
55.1600 280.0000 1.0000
55.1700 254.0000 1.0000
55.1800 282.0000 1.0000
55.1900 287.0000 1.0000
55.2000 297.0000 1.0000
55.2100 284.0000 1.0000
55.2200 293.0000 1.0000
55.2300 259.0000 1.0000
55.2400 281.0000 1.0000
55.2500 277.0000 1.0000
55.2600 287.0000 1.0000
55.2700 255.0000 1.0000
55.2800 255.0000 1.0000
55.2900 274.0000 1.0000
55.3000 265.0000 1.0000
55.3100 288.0000 1.0000
55.3200 251.0000 1.0000
55.3300 252.0000 1.0000
55.3400 290.0000 1.0000
55.3500 263.0000 1.0000
55.3600 263.0000 1.0000
55.3700 280.0000 1.0000
55.3800 305.0000 1.0000
55.3900 284.0000 1.0000
55.4000 257.0000 1.0000
55.4100 281.0000 1.0000
55.4200 268.0000 1.0000
55.4300 291.0000 1.0000
55.4400 274.0000 1.0000
55.4500 278.0000 1.0000
55.4600 265.0000 1.0000
55.4700 289.0000 1.0000
55.4800 258.0000 1.0000
55.4900 264.0000 1.0000
55.5000 257.0000 1.0000
55.5100 267.0000 1.0000
55.5200 284.0000 1.0000
55.5300 261.0000 1.0000
55.5400 266.0000 1.0000
55.5500 304.0000 1.0000
55.5600 280.0000 1.0000
55.5700 297.0000 1.0000
55.5800 267.0000 1.0000
55.5900 281.0000 1.0000
55.6000 247.0000 1.0000
55.6100 258.0000 1.0000
55.6200 239.0000 1.0000
55.6300 267.0000 1.0000
55.6400 281.0000 1.0000
55.6500 288.0000 1.0000
55.6600 257.0000 1.0000
55.6700 283.0000 1.0000
55.6800 287.0000 1.0000
55.6900 256.0000 1.0000
55.7000 274.0000 1.0000
55.7100 285.0000 1.0000
55.7200 264.0000 1.0000
55.7300 281.0000 1.0000
55.7400 268.0000 1.0000
55.7500 278.0000 1.0000
55.7600 298.0000 1.0000
55.7700 287.0000 1.0000
55.7800 289.0000 1.0000
55.7900 283.0000 1.0000
55.8000 263.0000 1.0000
55.8100 296.0000 1.0000
55.8200 286.0000 1.0000
55.8300 298.0000 1.0000
55.8400 265.0000 1.0000
55.8500 287.0000 1.0000
55.8600 311.0000 1.0000
55.8700 280.0000 1.0000
55.8800 289.0000 1.0000
55.8900 259.0000 1.0000
55.9000 255.0000 1.0000
55.9100 290.0000 1.0000
55.9200 266.0000 1.0000
55.9300 268.0000 1.0000
55.9400 291.0000 1.0000
55.9500 287.0000 1.0000
55.9600 266.0000 1.0000
55.9700 267.0000 1.0000
55.9800 256.0000 1.0000
55.9900 287.0000 1.0000
56.0000 280.0000 1.0000
56.0100 279.0000 1.0000
56.0200 281.0000 1.0000
56.0300 279.0000 1.0000
56.0400 250.0000 1.0000
56.0500 261.0000 1.0000
56.0600 277.0000 1.0000
56.0700 263.0000 1.0000
56.0800 287.0000 1.0000
56.0900 283.0000 1.0000
56.1000 263.0000 1.0000
56.1100 270.0000 1.0000
56.1200 277.0000 1.0000
56.1300 280.0000 1.0000
56.1400 258.0000 1.0000
56.1500 289.0000 1.0000
56.1600 252.0000 1.0000
56.1700 290.0000 1.0000
56.1800 306.0000 1.0000
56.1900 285.0000 1.0000
56.2000 267.0000 1.0000
56.2100 266.0000 1.0000
56.2200 290.0000 1.0000
56.2300 249.0000 1.0000
56.2400 290.0000 1.0000
56.2500 270.0000 1.0000
56.2600 283.0000 1.0000
56.2700 258.0000 1.0000
56.2800 273.0000 1.0000
56.2900 253.0000 1.0000
56.3000 270.0000 1.0000
56.3100 250.0000 1.0000
56.3200 247.0000 1.0000
56.3300 251.0000 1.0000
56.3400 292.0000 1.0000
56.3500 275.0000 1.0000
56.3600 262.0000 1.0000
56.3700 290.0000 1.0000
56.3800 267.0000 1.0000
56.3900 261.0000 1.0000
56.4000 275.0000 1.0000
56.4100 267.0000 1.0000
56.4200 280.0000 1.0000
56.4300 240.0000 1.0000
56.4400 281.0000 1.0000
56.4500 278.0000 1.0000
56.4600 292.0000 1.0000
56.4700 258.0000 1.0000
56.4800 261.0000 1.0000
56.4900 257.0000 1.0000
56.5000 280.0000 1.0000
56.5100 285.0000 1.0000
56.5200 287.0000 1.0000
56.5300 268.0000 1.0000
56.5400 257.0000 1.0000
56.5500 259.0000 1.0000
56.5600 257.0000 1.0000
56.5700 276.0000 1.0000
56.5800 265.0000 1.0000
56.5900 265.0000 1.0000
56.6000 262.0000 1.0000
56.6100 274.0000 1.0000
56.6200 249.0000 1.0000
56.6300 276.0000 1.0000
56.6400 248.0000 1.0000
56.6500 285.0000 1.0000
56.6600 283.0000 1.0000
56.6700 274.0000 1.0000
56.6800 279.0000 1.0000
56.6900 275.0000 1.0000
56.7000 276.0000 1.0000
56.7100 283.0000 1.0000
56.7200 276.0000 1.0000
56.7300 270.0000 1.0000
56.7400 275.0000 1.0000
56.7500 243.0000 1.0000
56.7600 288.0000 1.0000
56.7700 265.0000 1.0000
56.7800 282.0000 1.0000
56.7900 271.0000 1.0000
56.8000 284.0000 1.0000
56.8100 289.0000 1.0000
56.8200 289.0000 1.0000
56.8300 279.0000 1.0000
56.8400 290.0000 1.0000
56.8500 295.0000 1.0000
56.8600 274.0000 1.0000
56.8700 292.0000 1.0000
56.8800 279.0000 1.0000
56.8900 269.0000 1.0000
56.9000 268.0000 1.0000
56.9100 284.0000 1.0000
56.9200 271.0000 1.0000
56.9300 275.0000 1.0000
56.9400 251.0000 1.0000
56.9500 272.0000 1.0000
56.9600 263.0000 1.0000
56.9700 261.0000 1.0000
56.9800 228.0000 1.0000
56.9900 279.0000 1.0000
57.0000 244.0000 1.0000
57.0100 256.0000 1.0000
57.0200 259.0000 1.0000
57.0300 268.0000 1.0000
57.0400 270.0000 1.0000
57.0500 281.0000 1.0000
57.0600 272.0000 1.0000
57.0700 263.0000 1.0000
57.0800 287.0000 1.0000
57.0900 265.0000 1.0000
57.1000 248.0000 1.0000
57.1100 275.0000 1.0000
57.1200 280.0000 1.0000
57.1300 291.0000 1.0000
57.1400 264.0000 1.0000
57.1500 289.0000 1.0000
57.1600 283.0000 1.0000
57.1700 272.0000 1.0000
57.1800 285.0000 1.0000
57.1900 264.0000 1.0000
57.2000 291.0000 1.0000
57.2100 266.0000 1.0000
57.2200 270.0000 1.0000
57.2300 248.0000 1.0000
57.2400 261.0000 1.0000
57.2500 240.0000 1.0000
57.2600 274.0000 1.0000
57.2700 267.0000 1.0000
57.2800 265.0000 1.0000
57.2900 282.0000 1.0000
57.3000 299.0000 1.0000
57.3100 293.0000 1.0000
57.3200 298.0000 1.0000
57.3300 289.0000 1.0000
57.3400 264.0000 1.0000
57.3500 274.0000 1.0000
57.3600 261.0000 1.0000
57.3700 270.0000 1.0000
57.3800 276.0000 1.0000
57.3900 267.0000 1.0000
57.4000 304.0000 1.0000
57.4100 300.0000 1.0000
57.4200 281.0000 1.0000
57.4300 293.0000 1.0000
57.4400 292.0000 1.0000
57.4500 266.0000 1.0000
57.4600 275.0000 1.0000
57.4700 282.0000 1.0000
57.4800 289.0000 1.0000
57.4900 270.0000 1.0000
57.5000 280.0000 1.0000
57.5100 257.0000 1.0000
57.5200 275.0000 1.0000
57.5300 301.0000 1.0000
57.5400 287.0000 1.0000
57.5500 280.0000 1.0000
57.5600 273.0000 1.0000
57.5700 283.0000 1.0000
57.5800 298.0000 1.0000
57.5900 270.0000 1.0000
57.6000 276.0000 1.0000
57.6100 280.0000 1.0000
57.6200 306.0000 1.0000
57.6300 275.0000 1.0000
57.6400 275.0000 1.0000
57.6500 277.0000 1.0000
57.6600 257.0000 1.0000
57.6700 262.0000 1.0000
57.6800 268.0000 1.0000
57.6900 254.0000 1.0000
57.7000 257.0000 1.0000
57.7100 254.0000 1.0000
57.7200 272.0000 1.0000
57.7300 269.0000 1.0000
57.7400 284.0000 1.0000
57.7500 271.0000 1.0000
57.7600 281.0000 1.0000
57.7700 283.0000 1.0000
57.7800 273.0000 1.0000
57.7900 254.0000 1.0000
57.8000 259.0000 1.0000
57.8100 251.0000 1.0000
57.8200 271.0000 1.0000
57.8300 259.0000 1.0000
57.8400 255.0000 1.0000
57.8500 272.0000 1.0000
57.8600 264.0000 1.0000
57.8700 253.0000 1.0000
57.8800 300.0000 1.0000
57.8900 292.0000 1.0000
57.9000 259.0000 1.0000
57.9100 278.0000 1.0000
57.9200 289.0000 1.0000
57.9300 271.0000 1.0000
57.9400 272.0000 1.0000
57.9500 273.0000 1.0000
57.9600 282.0000 1.0000
57.9700 287.0000 1.0000
57.9800 249.0000 1.0000
57.9900 274.0000 1.0000
58.0000 270.0000 1.0000
58.0100 250.0000 1.0000
58.0200 253.0000 1.0000
58.0300 268.0000 1.0000
58.0400 259.0000 1.0000
58.0500 269.0000 1.0000
58.0600 262.0000 1.0000
58.0700 268.0000 1.0000
58.0800 288.0000 1.0000
58.0900 248.0000 1.0000
58.1000 272.0000 1.0000
58.1100 263.0000 1.0000
58.1200 248.0000 1.0000
58.1300 241.0000 1.0000
58.1400 259.0000 1.0000
58.1500 268.0000 1.0000
58.1600 262.0000 1.0000
58.1700 278.0000 1.0000
58.1800 283.0000 1.0000
58.1900 283.0000 1.0000
58.2000 280.0000 1.0000
58.2100 281.0000 1.0000
58.2200 284.0000 1.0000
58.2300 280.0000 1.0000
58.2400 264.0000 1.0000
58.2500 262.0000 1.0000
58.2600 278.0000 1.0000
58.2700 288.0000 1.0000
58.2800 273.0000 1.0000
58.2900 260.0000 1.0000
58.3000 276.0000 1.0000
58.3100 254.0000 1.0000
58.3200 279.0000 1.0000
58.3300 273.0000 1.0000
58.3400 268.0000 1.0000
58.3500 254.0000 1.0000
58.3600 252.0000 1.0000
58.3700 224.0000 1.0000
58.3800 253.0000 1.0000
58.3900 266.0000 1.0000
58.4000 295.0000 1.0000
58.4100 268.0000 1.0000
58.4200 257.0000 1.0000
58.4300 258.0000 1.0000
58.4400 236.0000 1.0000
58.4500 278.0000 1.0000
58.4600 248.0000 1.0000
58.4700 279.0000 1.0000
58.4800 259.0000 1.0000
58.4900 267.0000 1.0000
58.5000 266.0000 1.0000
58.5100 271.0000 1.0000
58.5200 280.0000 1.0000
58.5300 276.0000 1.0000
58.5400 261.0000 1.0000
58.5500 270.0000 1.0000
58.5600 254.0000 1.0000
58.5700 281.0000 1.0000
58.5800 288.0000 1.0000
58.5900 268.0000 1.0000
58.6000 266.0000 1.0000
58.6100 266.0000 1.0000
58.6200 284.0000 1.0000
58.6300 288.0000 1.0000
58.6400 255.0000 1.0000
58.6500 277.0000 1.0000
58.6600 265.0000 1.0000
58.6700 299.0000 1.0000
58.6800 286.0000 1.0000
58.6900 272.0000 1.0000
58.7000 272.0000 1.0000
58.7100 278.0000 1.0000
58.7200 257.0000 1.0000
58.7300 273.0000 1.0000
58.7400 272.0000 1.0000
58.7500 251.0000 1.0000
58.7600 263.0000 1.0000
58.7700 262.0000 1.0000
58.7800 269.0000 1.0000
58.7900 252.0000 1.0000
58.8000 278.0000 1.0000
58.8100 274.0000 1.0000
58.8200 238.0000 1.0000
58.8300 247.0000 1.0000
58.8400 279.0000 1.0000
58.8500 256.0000 1.0000
58.8600 235.0000 1.0000
58.8700 248.0000 1.0000
58.8800 238.0000 1.0000
58.8900 262.0000 1.0000
58.9000 248.0000 1.0000
58.9100 279.0000 1.0000
58.9200 300.0000 1.0000
58.9300 278.0000 1.0000
58.9400 250.0000 1.0000
58.9500 283.0000 1.0000
58.9600 262.0000 1.0000
58.9700 238.0000 1.0000
58.9800 274.0000 1.0000
58.9900 272.0000 1.0000
59.0000 282.0000 1.0000
59.0100 247.0000 1.0000
59.0200 277.0000 1.0000
59.0300 243.0000 1.0000
59.0400 264.0000 1.0000
59.0500 272.0000 1.0000
59.0600 263.0000 1.0000
59.0700 278.0000 1.0000
59.0800 298.0000 1.0000
59.0900 253.0000 1.0000
59.1000 245.0000 1.0000
59.1100 256.0000 1.0000
59.1200 270.0000 1.0000
59.1300 271.0000 1.0000
59.1400 257.0000 1.0000
59.1500 280.0000 1.0000
59.1600 271.0000 1.0000
59.1700 239.0000 1.0000
59.1800 289.0000 1.0000
59.1900 235.0000 1.0000
59.2000 276.0000 1.0000
59.2100 262.0000 1.0000
59.2200 246.0000 1.0000
59.2300 260.0000 1.0000
59.2400 256.0000 1.0000
59.2500 297.0000 1.0000
59.2600 246.0000 1.0000
59.2700 257.0000 1.0000
59.2800 251.0000 1.0000
59.2900 247.0000 1.0000
59.3000 243.0000 1.0000
59.3100 266.0000 1.0000
59.3200 284.0000 1.0000
59.3300 267.0000 1.0000
59.3400 245.0000 1.0000
59.3500 268.0000 1.0000
59.3600 282.0000 1.0000
59.3700 255.0000 1.0000
59.3800 284.0000 1.0000
59.3900 282.0000 1.0000
59.4000 260.0000 1.0000
59.4100 267.0000 1.0000
59.4200 277.0000 1.0000
59.4300 255.0000 1.0000
59.4400 283.0000 1.0000
59.4500 274.0000 1.0000
59.4600 266.0000 1.0000
59.4700 264.0000 1.0000
59.4800 267.0000 1.0000
59.4900 298.0000 1.0000
59.5000 258.0000 1.0000
59.5100 240.0000 1.0000
59.5200 263.0000 1.0000
59.5300 274.0000 1.0000
59.5400 290.0000 1.0000
59.5500 246.0000 1.0000
59.5600 261.0000 1.0000
59.5700 265.0000 1.0000
59.5800 257.0000 1.0000
59.5900 271.0000 1.0000
59.6000 270.0000 1.0000
59.6100 266.0000 1.0000
59.6200 290.0000 1.0000
59.6300 283.0000 1.0000
59.6400 240.0000 1.0000
59.6500 273.0000 1.0000
59.6600 260.0000 1.0000
59.6700 251.0000 1.0000
59.6800 250.0000 1.0000
59.6900 243.0000 1.0000
59.7000 231.0000 1.0000
59.7100 259.0000 1.0000
59.7200 258.0000 1.0000
59.7300 267.0000 1.0000
59.7400 266.0000 1.0000
59.7500 252.0000 1.0000
59.7600 246.0000 1.0000
59.7700 296.0000 1.0000
59.7800 259.0000 1.0000
59.7900 274.0000 1.0000
59.8000 276.0000 1.0000
59.8100 268.0000 1.0000
59.8200 271.0000 1.0000
59.8300 244.0000 1.0000
59.8400 260.0000 1.0000
59.8500 270.0000 1.0000
59.8600 280.0000 1.0000
59.8700 259.0000 1.0000
59.8800 252.0000 1.0000
59.8900 246.0000 1.0000
59.9000 258.0000 1.0000
59.9100 230.0000 1.0000
59.9200 239.0000 1.0000
59.9300 274.0000 1.0000
59.9400 295.0000 1.0000
59.9500 284.0000 1.0000
59.9600 267.0000 1.0000
59.9700 250.0000 1.0000
59.9800 245.0000 1.0000
59.9900 251.0000 1.0000
60.0000 271.0000 1.0000
60.0100 255.0000 1.0000
60.0200 272.0000 1.0000
60.0300 283.0000 1.0000
60.0400 264.0000 1.0000
60.0500 273.0000 1.0000
60.0600 273.0000 1.0000
60.0700 276.0000 1.0000
60.0800 288.0000 1.0000
60.0900 270.0000 1.0000
60.1000 272.0000 1.0000
60.1100 294.0000 1.0000
60.1200 274.0000 1.0000
60.1300 268.0000 1.0000
60.1400 266.0000 1.0000
60.1500 256.0000 1.0000
60.1600 287.0000 1.0000
60.1700 261.0000 1.0000
60.1800 279.0000 1.0000
60.1900 286.0000 1.0000
60.2000 277.0000 1.0000
60.2100 270.0000 1.0000
60.2200 275.0000 1.0000
60.2300 273.0000 1.0000
60.2400 258.0000 1.0000
60.2500 254.0000 1.0000
60.2600 258.0000 1.0000
60.2700 273.0000 1.0000
60.2800 281.0000 1.0000
60.2900 281.0000 1.0000
60.3000 270.0000 1.0000
60.3100 268.0000 1.0000
60.3200 258.0000 1.0000
60.3300 264.0000 1.0000
60.3400 251.0000 1.0000
60.3500 265.0000 1.0000
60.3600 285.0000 1.0000
60.3700 236.0000 1.0000
60.3800 284.0000 1.0000
60.3900 266.0000 1.0000
60.4000 273.0000 1.0000
60.4100 275.0000 1.0000
60.4200 251.0000 1.0000
60.4300 271.0000 1.0000
60.4400 264.0000 1.0000
60.4500 244.0000 1.0000
60.4600 251.0000 1.0000
60.4700 271.0000 1.0000
60.4800 259.0000 1.0000
60.4900 293.0000 1.0000
60.5000 268.0000 1.0000
60.5100 252.0000 1.0000
60.5200 286.0000 1.0000
60.5300 291.0000 1.0000
60.5400 265.0000 1.0000
60.5500 270.0000 1.0000
60.5600 255.0000 1.0000
60.5700 264.0000 1.0000
60.5800 293.0000 1.0000
60.5900 270.0000 1.0000
60.6000 287.0000 1.0000
60.6100 258.0000 1.0000
60.6200 276.0000 1.0000
60.6300 276.0000 1.0000
60.6400 279.0000 1.0000
60.6500 273.0000 1.0000
60.6600 248.0000 1.0000
60.6700 251.0000 1.0000
60.6800 261.0000 1.0000
60.6900 274.0000 1.0000
60.7000 249.0000 1.0000
60.7100 268.0000 1.0000
60.7200 280.0000 1.0000
60.7300 268.0000 1.0000
60.7400 255.0000 1.0000
60.7500 285.0000 1.0000
60.7600 247.0000 1.0000
60.7700 270.0000 1.0000
60.7800 291.0000 1.0000
60.7900 279.0000 1.0000
60.8000 264.0000 1.0000
60.8100 250.0000 1.0000
60.8200 267.0000 1.0000
60.8300 288.0000 1.0000
60.8400 261.0000 1.0000
60.8500 270.0000 1.0000
60.8600 279.0000 1.0000
60.8700 275.0000 1.0000
60.8800 288.0000 1.0000
60.8900 284.0000 1.0000
60.9000 293.0000 1.0000
60.9100 272.0000 1.0000
60.9200 291.0000 1.0000
60.9300 275.0000 1.0000
60.9400 274.0000 1.0000
60.9500 273.0000 1.0000
60.9600 261.0000 1.0000
60.9700 259.0000 1.0000
60.9800 256.0000 1.0000
60.9900 282.0000 1.0000
61.0000 276.0000 1.0000
61.0100 272.0000 1.0000
61.0200 276.0000 1.0000
61.0300 280.0000 1.0000
61.0400 290.0000 1.0000
61.0500 302.0000 1.0000
61.0600 293.0000 1.0000
61.0700 305.0000 1.0000
61.0800 283.0000 1.0000
61.0900 276.0000 1.0000
61.1000 273.0000 1.0000
61.1100 272.0000 1.0000
61.1200 285.0000 1.0000
61.1300 313.0000 1.0000
61.1400 287.0000 1.0000
61.1500 292.0000 1.0000
61.1600 297.0000 1.0000
61.1700 301.0000 1.0000
61.1800 305.0000 1.0000
61.1900 316.0000 1.0000
61.2000 313.0000 1.0000
61.2100 297.0000 1.0000
61.2200 316.0000 1.0000
61.2300 313.0000 1.0000
61.2400 329.0000 1.0000
61.2500 322.0000 1.0000
61.2600 325.0000 1.0000
61.2700 332.0000 1.0000
61.2800 327.0000 1.0000
61.2900 336.0000 1.0000
61.3000 367.0000 1.0000
61.3100 351.0000 1.0000
61.3200 349.0000 1.0000
61.3300 422.0000 1.0000
61.3400 395.0000 1.0000
61.3500 413.0000 1.0000
61.3600 412.0000 1.0000
61.3700 394.0000 1.0000
61.3800 405.0000 1.0000
61.3900 427.0000 1.0000
61.4000 458.0000 1.0000
61.4100 457.0000 1.0000
61.4200 486.0000 1.0000
61.4300 490.0000 1.0000
61.4400 514.0000 1.0000
61.4500 475.0000 1.0000
61.4600 519.0000 1.0000
61.4700 524.0000 1.0000
61.4800 504.0000 1.0000
61.4900 553.0000 1.0000
61.5000 541.0000 1.0000
61.5100 558.0000 1.0000
61.5200 554.0000 1.0000
61.5300 556.0000 1.0000
61.5400 586.0000 1.0000
61.5500 574.0000 1.0000
61.5600 553.0000 1.0000
61.5700 580.0000 1.0000
61.5800 575.0000 1.0000
61.5900 560.0000 1.0000
61.6000 581.0000 1.0000
61.6100 530.0000 1.0000
61.6200 540.0000 1.0000
61.6300 597.0000 1.0000
61.6400 526.0000 1.0000
61.6500 526.0000 1.0000
61.6600 515.0000 1.0000
61.6700 535.0000 1.0000
61.6800 542.0000 1.0000
61.6900 554.0000 1.0000
61.7000 487.0000 1.0000
61.7100 507.0000 1.0000
61.7200 511.0000 1.0000
61.7300 483.0000 1.0000
61.7400 459.0000 1.0000
61.7500 455.0000 1.0000
61.7600 452.0000 1.0000
61.7700 457.0000 1.0000
61.7800 453.0000 1.0000
61.7900 425.0000 1.0000
61.8000 409.0000 1.0000
61.8100 391.0000 1.0000
61.8200 381.0000 1.0000
61.8300 387.0000 1.0000
61.8400 380.0000 1.0000
61.8500 363.0000 1.0000
61.8600 358.0000 1.0000
61.8700 374.0000 1.0000
61.8800 365.0000 1.0000
61.8900 362.0000 1.0000
61.9000 367.0000 1.0000
61.9100 378.0000 1.0000
61.9200 339.0000 1.0000
61.9300 328.0000 1.0000
61.9400 337.0000 1.0000
61.9500 309.0000 1.0000
61.9600 332.0000 1.0000
61.9700 306.0000 1.0000
61.9800 317.0000 1.0000
61.9900 310.0000 1.0000
62.0000 325.0000 1.0000
62.0100 333.0000 1.0000
62.0200 325.0000 1.0000
62.0300 304.0000 1.0000
62.0400 296.0000 1.0000
62.0500 310.0000 1.0000
62.0600 285.0000 1.0000
62.0700 303.0000 1.0000
62.0800 295.0000 1.0000
62.0900 282.0000 1.0000
62.1000 303.0000 1.0000
62.1100 291.0000 1.0000
62.1200 294.0000 1.0000
62.1300 277.0000 1.0000
62.1400 251.0000 1.0000
62.1500 289.0000 1.0000
62.1600 302.0000 1.0000
62.1700 288.0000 1.0000
62.1800 283.0000 1.0000
62.1900 289.0000 1.0000
62.2000 267.0000 1.0000
62.2100 306.0000 1.0000
62.2200 289.0000 1.0000
62.2300 295.0000 1.0000
62.2400 295.0000 1.0000
62.2500 293.0000 1.0000
62.2600 282.0000 1.0000
62.2700 308.0000 1.0000
62.2800 295.0000 1.0000
62.2900 303.0000 1.0000
62.3000 268.0000 1.0000
62.3100 278.0000 1.0000
62.3200 296.0000 1.0000
62.3300 315.0000 1.0000
62.3400 290.0000 1.0000
62.3500 278.0000 1.0000
62.3600 285.0000 1.0000
62.3700 339.0000 1.0000
62.3800 289.0000 1.0000
62.3900 287.0000 1.0000
62.4000 299.0000 1.0000
62.4100 292.0000 1.0000
62.4200 314.0000 1.0000
62.4300 289.0000 1.0000
62.4400 281.0000 1.0000
62.4500 300.0000 1.0000
62.4600 286.0000 1.0000
62.4700 280.0000 1.0000
62.4800 275.0000 1.0000
62.4900 280.0000 1.0000
62.5000 258.0000 1.0000
62.5100 279.0000 1.0000
62.5200 280.0000 1.0000
62.5300 296.0000 1.0000
62.5400 310.0000 1.0000
62.5500 285.0000 1.0000
62.5600 277.0000 1.0000
62.5700 270.0000 1.0000
62.5800 295.0000 1.0000
62.5900 286.0000 1.0000
62.6000 297.0000 1.0000
62.6100 267.0000 1.0000
62.6200 276.0000 1.0000
62.6300 294.0000 1.0000
62.6400 266.0000 1.0000
62.6500 275.0000 1.0000
62.6600 280.0000 1.0000
62.6700 264.0000 1.0000
62.6800 267.0000 1.0000
62.6900 279.0000 1.0000
62.7000 288.0000 1.0000
62.7100 256.0000 1.0000
62.7200 276.0000 1.0000
62.7300 287.0000 1.0000
62.7400 260.0000 1.0000
62.7500 268.0000 1.0000
62.7600 253.0000 1.0000
62.7700 293.0000 1.0000
62.7800 283.0000 1.0000
62.7900 274.0000 1.0000
62.8000 260.0000 1.0000
62.8100 243.0000 1.0000
62.8200 277.0000 1.0000
62.8300 247.0000 1.0000
62.8400 278.0000 1.0000
62.8500 252.0000 1.0000
62.8600 256.0000 1.0000
62.8700 256.0000 1.0000
62.8800 270.0000 1.0000
62.8900 253.0000 1.0000
62.9000 260.0000 1.0000
62.9100 285.0000 1.0000
62.9200 253.0000 1.0000
62.9300 262.0000 1.0000
62.9400 250.0000 1.0000
62.9500 236.0000 1.0000
62.9600 283.0000 1.0000
62.9700 264.0000 1.0000
62.9800 267.0000 1.0000
62.9900 254.0000 1.0000
63.0000 251.0000 1.0000
63.0100 277.0000 1.0000
63.0200 258.0000 1.0000
63.0300 286.0000 1.0000
63.0400 293.0000 1.0000
63.0500 250.0000 1.0000
63.0600 261.0000 1.0000
63.0700 266.0000 1.0000
63.0800 257.0000 1.0000
63.0900 265.0000 1.0000
63.1000 285.0000 1.0000
63.1100 276.0000 1.0000
63.1200 275.0000 1.0000
63.1300 290.0000 1.0000
63.1400 282.0000 1.0000
63.1500 256.0000 1.0000
63.1600 282.0000 1.0000
63.1700 270.0000 1.0000
63.1800 258.0000 1.0000
63.1900 249.0000 1.0000
63.2000 241.0000 1.0000
63.2100 253.0000 1.0000
63.2200 285.0000 1.0000
63.2300 289.0000 1.0000
63.2400 289.0000 1.0000
63.2500 252.0000 1.0000
63.2600 246.0000 1.0000
63.2700 253.0000 1.0000
63.2800 240.0000 1.0000
63.2900 266.0000 1.0000
63.3000 278.0000 1.0000
63.3100 260.0000 1.0000
63.3200 285.0000 1.0000
63.3300 256.0000 1.0000
63.3400 268.0000 1.0000
63.3500 280.0000 1.0000
63.3600 247.0000 1.0000
63.3700 266.0000 1.0000
63.3800 265.0000 1.0000
63.3900 269.0000 1.0000
63.4000 258.0000 1.0000
63.4100 265.0000 1.0000
63.4200 268.0000 1.0000
63.4300 289.0000 1.0000
63.4400 274.0000 1.0000
63.4500 267.0000 1.0000
63.4600 277.0000 1.0000
63.4700 295.0000 1.0000
63.4800 282.0000 1.0000
63.4900 252.0000 1.0000
63.5000 252.0000 1.0000
63.5100 260.0000 1.0000
63.5200 286.0000 1.0000
63.5300 262.0000 1.0000
63.5400 271.0000 1.0000
63.5500 292.0000 1.0000
63.5600 276.0000 1.0000
63.5700 292.0000 1.0000
63.5800 313.0000 1.0000
63.5900 291.0000 1.0000
63.6000 318.0000 1.0000
63.6100 294.0000 1.0000
63.6200 304.0000 1.0000
63.6300 291.0000 1.0000
63.6400 277.0000 1.0000
63.6500 297.0000 1.0000
63.6600 286.0000 1.0000
63.6700 298.0000 1.0000
63.6800 268.0000 1.0000
63.6900 283.0000 1.0000
63.7000 290.0000 1.0000
63.7100 295.0000 1.0000
63.7200 290.0000 1.0000
63.7300 280.0000 1.0000
63.7400 281.0000 1.0000
63.7500 292.0000 1.0000
63.7600 296.0000 1.0000
63.7700 324.0000 1.0000
63.7800 293.0000 1.0000
63.7900 306.0000 1.0000
63.8000 319.0000 1.0000
63.8100 330.0000 1.0000
63.8200 342.0000 1.0000
63.8300 331.0000 1.0000
63.8400 334.0000 1.0000
63.8500 346.0000 1.0000
63.8600 375.0000 1.0000
63.8700 374.0000 1.0000
63.8800 361.0000 1.0000
63.8900 373.0000 1.0000
63.9000 357.0000 1.0000
63.9100 340.0000 1.0000
63.9200 350.0000 1.0000
63.9300 362.0000 1.0000
63.9400 393.0000 1.0000
63.9500 429.0000 1.0000
63.9600 416.0000 1.0000
63.9700 447.0000 1.0000
63.9800 412.0000 1.0000
63.9900 404.0000 1.0000
64.0000 390.0000 1.0000
64.0100 404.0000 1.0000
64.0200 402.0000 1.0000
64.0300 395.0000 1.0000
64.0400 370.0000 1.0000
64.0500 398.0000 1.0000
64.0600 375.0000 1.0000
64.0700 369.0000 1.0000
64.0800 376.0000 1.0000
64.0900 366.0000 1.0000
64.1000 384.0000 1.0000
64.1100 395.0000 1.0000
64.1200 380.0000 1.0000
64.1300 357.0000 1.0000
64.1400 344.0000 1.0000
64.1500 342.0000 1.0000
64.1600 337.0000 1.0000
64.1700 327.0000 1.0000
64.1800 302.0000 1.0000
64.1900 334.0000 1.0000
64.2000 326.0000 1.0000
64.2100 346.0000 1.0000
64.2200 306.0000 1.0000
64.2300 297.0000 1.0000
64.2400 301.0000 1.0000
64.2500 296.0000 1.0000
64.2600 299.0000 1.0000
64.2700 310.0000 1.0000
64.2800 315.0000 1.0000
64.2900 326.0000 1.0000
64.3000 320.0000 1.0000
64.3100 293.0000 1.0000
64.3200 276.0000 1.0000
64.3300 279.0000 1.0000
64.3400 265.0000 1.0000
64.3500 296.0000 1.0000
64.3600 292.0000 1.0000
64.3700 283.0000 1.0000
64.3800 302.0000 1.0000
64.3900 294.0000 1.0000
64.4000 292.0000 1.0000
64.4100 285.0000 1.0000
64.4200 301.0000 1.0000
64.4300 262.0000 1.0000
64.4400 298.0000 1.0000
64.4500 280.0000 1.0000
64.4600 279.0000 1.0000
64.4700 319.0000 1.0000
64.4800 288.0000 1.0000
64.4900 309.0000 1.0000
64.5000 290.0000 1.0000
64.5100 291.0000 1.0000
64.5200 292.0000 1.0000
64.5300 293.0000 1.0000
64.5400 274.0000 1.0000
64.5500 273.0000 1.0000
64.5600 308.0000 1.0000
64.5700 292.0000 1.0000
64.5800 278.0000 1.0000
64.5900 263.0000 1.0000
64.6000 275.0000 1.0000
64.6100 284.0000 1.0000
64.6200 298.0000 1.0000
64.6300 268.0000 1.0000
64.6400 280.0000 1.0000
64.6500 268.0000 1.0000
64.6600 274.0000 1.0000
64.6700 264.0000 1.0000
64.6800 282.0000 1.0000
64.6900 311.0000 1.0000
64.7000 266.0000 1.0000
64.7100 264.0000 1.0000
64.7200 291.0000 1.0000
64.7300 278.0000 1.0000
64.7400 289.0000 1.0000
64.7500 298.0000 1.0000
64.7600 300.0000 1.0000
64.7700 326.0000 1.0000
64.7800 289.0000 1.0000
64.7900 292.0000 1.0000
64.8000 275.0000 1.0000
64.8100 288.0000 1.0000
64.8200 301.0000 1.0000
64.8300 272.0000 1.0000
64.8400 272.0000 1.0000
64.8500 271.0000 1.0000
64.8600 289.0000 1.0000
64.8700 285.0000 1.0000
64.8800 270.0000 1.0000
64.8900 267.0000 1.0000
64.9000 243.0000 1.0000
64.9100 274.0000 1.0000
64.9200 286.0000 1.0000
64.9300 282.0000 1.0000
64.9400 270.0000 1.0000
64.9500 306.0000 1.0000
64.9600 265.0000 1.0000
64.9700 288.0000 1.0000
64.9800 308.0000 1.0000
64.9900 281.0000 1.0000
65.0000 280.0000 1.0000
65.0100 308.0000 1.0000
65.0200 268.0000 1.0000
65.0300 282.0000 1.0000
65.0400 284.0000 1.0000
65.0500 287.0000 1.0000
65.0600 307.0000 1.0000
65.0700 305.0000 1.0000
65.0800 300.0000 1.0000
65.0900 309.0000 1.0000
65.1000 304.0000 1.0000
65.1100 303.0000 1.0000
65.1200 293.0000 1.0000
65.1300 326.0000 1.0000
65.1400 301.0000 1.0000
65.1500 294.0000 1.0000
65.1600 310.0000 1.0000
65.1700 340.0000 1.0000
65.1800 347.0000 1.0000
65.1900 354.0000 1.0000
65.2000 357.0000 1.0000
65.2100 364.0000 1.0000
65.2200 355.0000 1.0000
65.2300 374.0000 1.0000
65.2400 372.0000 1.0000
65.2500 361.0000 1.0000
65.2600 373.0000 1.0000
65.2700 383.0000 1.0000
65.2800 420.0000 1.0000
65.2900 420.0000 1.0000
65.3000 417.0000 1.0000
65.3100 430.0000 1.0000
65.3200 464.0000 1.0000
65.3300 448.0000 1.0000
65.3400 438.0000 1.0000
65.3500 483.0000 1.0000
65.3600 522.0000 1.0000
65.3700 510.0000 1.0000
65.3800 524.0000 1.0000
65.3900 550.0000 1.0000
65.4000 616.0000 1.0000
65.4100 653.0000 1.0000
65.4200 664.0000 1.0000
65.4300 698.0000 1.0000
65.4400 742.0000 1.0000
65.4500 771.0000 1.0000
65.4600 807.0000 1.0000
65.4700 845.0000 1.0000
65.4800 853.0000 1.0000
65.4900 848.0000 1.0000
65.5000 897.0000 1.0000
65.5100 966.0000 1.0000
65.5200 967.0000 1.0000
65.5300 955.0000 1.0000
65.5400 996.0000 1.0000
65.5500 1018.0000 1.0000
65.5600 950.0000 1.0000
65.5700 1007.0000 1.0000
65.5800 931.0000 1.0000
65.5900 989.0000 1.0000
65.6000 932.0000 1.0000
65.6100 935.0000 1.0000
65.6200 896.0000 1.0000
65.6300 860.0000 1.0000
65.6400 877.0000 1.0000
65.6500 838.0000 1.0000
65.6600 861.0000 1.0000
65.6700 835.0000 1.0000
65.6800 819.0000 1.0000
65.6900 847.0000 1.0000
65.7000 761.0000 1.0000
65.7100 744.0000 1.0000
65.7200 731.0000 1.0000
65.7300 669.0000 1.0000
65.7400 709.0000 1.0000
65.7500 727.0000 1.0000
65.7600 695.0000 1.0000
65.7700 636.0000 1.0000
65.7800 615.0000 1.0000
65.7900 665.0000 1.0000
65.8000 613.0000 1.0000
65.8100 571.0000 1.0000
65.8200 530.0000 1.0000
65.8300 522.0000 1.0000
65.8400 495.0000 1.0000
65.8500 506.0000 1.0000
65.8600 497.0000 1.0000
65.8700 457.0000 1.0000
65.8800 449.0000 1.0000
65.8900 466.0000 1.0000
65.9000 424.0000 1.0000
65.9100 439.0000 1.0000
65.9200 353.0000 1.0000
65.9300 420.0000 1.0000
65.9400 389.0000 1.0000
65.9500 347.0000 1.0000
65.9600 353.0000 1.0000
65.9700 371.0000 1.0000
65.9800 350.0000 1.0000
65.9900 357.0000 1.0000
66.0000 335.0000 1.0000
66.0100 332.0000 1.0000
66.0200 323.0000 1.0000
66.0300 340.0000 1.0000
66.0400 313.0000 1.0000
66.0500 313.0000 1.0000
66.0600 286.0000 1.0000
66.0700 324.0000 1.0000
66.0800 291.0000 1.0000
66.0900 295.0000 1.0000
66.1000 294.0000 1.0000
66.1100 314.0000 1.0000
66.1200 310.0000 1.0000
66.1300 302.0000 1.0000
66.1400 307.0000 1.0000
66.1500 268.0000 1.0000
66.1600 289.0000 1.0000
66.1700 286.0000 1.0000
66.1800 283.0000 1.0000
66.1900 270.0000 1.0000
66.2000 278.0000 1.0000
66.2100 267.0000 1.0000
66.2200 266.0000 1.0000
66.2300 296.0000 1.0000
66.2400 278.0000 1.0000
66.2500 255.0000 1.0000
66.2600 269.0000 1.0000
66.2700 275.0000 1.0000
66.2800 294.0000 1.0000
66.2900 270.0000 1.0000
66.3000 259.0000 1.0000
66.3100 273.0000 1.0000
66.3200 275.0000 1.0000
66.3300 260.0000 1.0000
66.3400 262.0000 1.0000
66.3500 268.0000 1.0000
66.3600 256.0000 1.0000
66.3700 238.0000 1.0000
66.3800 253.0000 1.0000
66.3900 296.0000 1.0000
66.4000 269.0000 1.0000
66.4100 258.0000 1.0000
66.4200 255.0000 1.0000
66.4300 287.0000 1.0000
66.4400 245.0000 1.0000
66.4500 258.0000 1.0000
66.4600 252.0000 1.0000
66.4700 243.0000 1.0000
66.4800 251.0000 1.0000
66.4900 251.0000 1.0000
66.5000 283.0000 1.0000
66.5100 241.0000 1.0000
66.5200 250.0000 1.0000
66.5300 266.0000 1.0000
66.5400 277.0000 1.0000
66.5500 252.0000 1.0000
66.5600 248.0000 1.0000
66.5700 267.0000 1.0000
66.5800 245.0000 1.0000
66.5900 260.0000 1.0000
66.6000 253.0000 1.0000
66.6100 222.0000 1.0000
66.6200 231.0000 1.0000
66.6300 259.0000 1.0000
66.6400 248.0000 1.0000
66.6500 224.0000 1.0000
66.6600 239.0000 1.0000
66.6700 259.0000 1.0000
66.6800 231.0000 1.0000
66.6900 230.0000 1.0000
66.7000 264.0000 1.0000
66.7100 248.0000 1.0000
66.7200 241.0000 1.0000
66.7300 237.0000 1.0000
66.7400 236.0000 1.0000
66.7500 269.0000 1.0000
66.7600 271.0000 1.0000
66.7700 242.0000 1.0000
66.7800 246.0000 1.0000
66.7900 258.0000 1.0000
66.8000 255.0000 1.0000
66.8100 247.0000 1.0000
66.8200 266.0000 1.0000
66.8300 246.0000 1.0000
66.8400 245.0000 1.0000
66.8500 260.0000 1.0000
66.8600 248.0000 1.0000
66.8700 241.0000 1.0000
66.8800 250.0000 1.0000
66.8900 264.0000 1.0000
66.9000 267.0000 1.0000
66.9100 266.0000 1.0000
66.9200 274.0000 1.0000
66.9300 254.0000 1.0000
66.9400 246.0000 1.0000
66.9500 233.0000 1.0000
66.9600 259.0000 1.0000
66.9700 277.0000 1.0000
66.9800 247.0000 1.0000
66.9900 241.0000 1.0000
67.0000 231.0000 1.0000
67.0100 241.0000 1.0000
67.0200 250.0000 1.0000
67.0300 237.0000 1.0000
67.0400 256.0000 1.0000
67.0500 238.0000 1.0000
67.0600 209.0000 1.0000
67.0700 257.0000 1.0000
67.0800 254.0000 1.0000
67.0900 230.0000 1.0000
67.1000 258.0000 1.0000
67.1100 225.0000 1.0000
67.1200 221.0000 1.0000
67.1300 244.0000 1.0000
67.1400 259.0000 1.0000
67.1500 254.0000 1.0000
67.1600 235.0000 1.0000
67.1700 266.0000 1.0000
67.1800 270.0000 1.0000
67.1900 231.0000 1.0000
67.2000 235.0000 1.0000
67.2100 260.0000 1.0000
67.2200 264.0000 1.0000
67.2300 247.0000 1.0000
67.2400 228.0000 1.0000
67.2500 249.0000 1.0000
67.2600 224.0000 1.0000
67.2700 273.0000 1.0000
67.2800 273.0000 1.0000
67.2900 257.0000 1.0000
67.3000 274.0000 1.0000
67.3100 235.0000 1.0000
67.3200 254.0000 1.0000
67.3300 242.0000 1.0000
67.3400 253.0000 1.0000
67.3500 226.0000 1.0000
67.3600 253.0000 1.0000
67.3700 243.0000 1.0000
67.3800 232.0000 1.0000
67.3900 247.0000 1.0000
67.4000 233.0000 1.0000
67.4100 241.0000 1.0000
67.4200 241.0000 1.0000
67.4300 236.0000 1.0000
67.4400 220.0000 1.0000
67.4500 245.0000 1.0000
67.4600 251.0000 1.0000
67.4700 247.0000 1.0000
67.4800 258.0000 1.0000
67.4900 267.0000 1.0000
67.5000 229.0000 1.0000
67.5100 238.0000 1.0000
67.5200 245.0000 1.0000
67.5300 236.0000 1.0000
67.5400 260.0000 1.0000
67.5500 250.0000 1.0000
67.5600 238.0000 1.0000
67.5700 240.0000 1.0000
67.5800 211.0000 1.0000
67.5900 221.0000 1.0000
67.6000 234.0000 1.0000
67.6100 223.0000 1.0000
67.6200 242.0000 1.0000
67.6300 251.0000 1.0000
67.6400 271.0000 1.0000
67.6500 238.0000 1.0000
67.6600 246.0000 1.0000
67.6700 234.0000 1.0000
67.6800 247.0000 1.0000
67.6900 266.0000 1.0000
67.7000 280.0000 1.0000
67.7100 256.0000 1.0000
67.7200 244.0000 1.0000
67.7300 223.0000 1.0000
67.7400 239.0000 1.0000
67.7500 242.0000 1.0000
67.7600 269.0000 1.0000
67.7700 234.0000 1.0000
67.7800 228.0000 1.0000
67.7900 263.0000 1.0000
67.8000 237.0000 1.0000
67.8100 238.0000 1.0000
67.8200 225.0000 1.0000
67.8300 235.0000 1.0000
67.8400 266.0000 1.0000
67.8500 243.0000 1.0000
67.8600 224.0000 1.0000
67.8700 268.0000 1.0000
67.8800 247.0000 1.0000
67.8900 245.0000 1.0000
67.9000 240.0000 1.0000
67.9100 254.0000 1.0000
67.9200 252.0000 1.0000
67.9300 262.0000 1.0000
67.9400 268.0000 1.0000
67.9500 216.0000 1.0000
67.9600 215.0000 1.0000
67.9700 231.0000 1.0000
67.9800 211.0000 1.0000
67.9900 246.0000 1.0000
68.0000 236.0000 1.0000
68.0100 251.0000 1.0000
68.0200 245.0000 1.0000
68.0300 243.0000 1.0000
68.0400 227.0000 1.0000
68.0500 228.0000 1.0000
68.0600 240.0000 1.0000
68.0700 233.0000 1.0000
68.0800 259.0000 1.0000
68.0900 222.0000 1.0000
68.1000 218.0000 1.0000
68.1100 261.0000 1.0000
68.1200 265.0000 1.0000
68.1300 246.0000 1.0000
68.1400 236.0000 1.0000
68.1500 226.0000 1.0000
68.1600 264.0000 1.0000
68.1700 236.0000 1.0000
68.1800 230.0000 1.0000
68.1900 246.0000 1.0000
68.2000 257.0000 1.0000
68.2100 230.0000 1.0000
68.2200 261.0000 1.0000
68.2300 243.0000 1.0000
68.2400 227.0000 1.0000
68.2500 248.0000 1.0000
68.2600 245.0000 1.0000
68.2700 238.0000 1.0000
68.2800 244.0000 1.0000
68.2900 244.0000 1.0000
68.3000 237.0000 1.0000
68.3100 210.0000 1.0000
68.3200 230.0000 1.0000
68.3300 247.0000 1.0000
68.3400 252.0000 1.0000
68.3500 246.0000 1.0000
68.3600 220.0000 1.0000
68.3700 234.0000 1.0000
68.3800 230.0000 1.0000
68.3900 225.0000 1.0000
68.4000 238.0000 1.0000
68.4100 243.0000 1.0000
68.4200 232.0000 1.0000
68.4300 234.0000 1.0000
68.4400 252.0000 1.0000
68.4500 246.0000 1.0000
68.4600 228.0000 1.0000
68.4700 227.0000 1.0000
68.4800 219.0000 1.0000
68.4900 240.0000 1.0000
68.5000 244.0000 1.0000
68.5100 203.0000 1.0000
68.5200 229.0000 1.0000
68.5300 227.0000 1.0000
68.5400 244.0000 1.0000
68.5500 255.0000 1.0000
68.5600 252.0000 1.0000
68.5700 260.0000 1.0000
68.5800 210.0000 1.0000
68.5900 237.0000 1.0000
68.6000 235.0000 1.0000
68.6100 256.0000 1.0000
68.6200 254.0000 1.0000
68.6300 238.0000 1.0000
68.6400 228.0000 1.0000
68.6500 220.0000 1.0000
68.6600 227.0000 1.0000
68.6700 236.0000 1.0000
68.6800 250.0000 1.0000
68.6900 257.0000 1.0000
68.7000 257.0000 1.0000
68.7100 252.0000 1.0000
68.7200 237.0000 1.0000
68.7300 254.0000 1.0000
68.7400 219.0000 1.0000
68.7500 237.0000 1.0000
68.7600 225.0000 1.0000
68.7700 245.0000 1.0000
68.7800 236.0000 1.0000
68.7900 234.0000 1.0000
68.8000 230.0000 1.0000
68.8100 226.0000 1.0000
68.8200 236.0000 1.0000
68.8300 236.0000 1.0000
68.8400 244.0000 1.0000
68.8500 226.0000 1.0000
68.8600 235.0000 1.0000
68.8700 233.0000 1.0000
68.8800 225.0000 1.0000
68.8900 234.0000 1.0000
68.9000 218.0000 1.0000
68.9100 229.0000 1.0000
68.9200 230.0000 1.0000
68.9300 230.0000 1.0000
68.9400 226.0000 1.0000
68.9500 241.0000 1.0000
68.9600 243.0000 1.0000
68.9700 255.0000 1.0000
68.9800 234.0000 1.0000
68.9900 215.0000 1.0000
69.0000 238.0000 1.0000
69.0100 248.0000 1.0000
69.0200 231.0000 1.0000
69.0300 227.0000 1.0000
69.0400 233.0000 1.0000
69.0500 212.0000 1.0000
69.0600 202.0000 1.0000
69.0700 252.0000 1.0000
69.0800 228.0000 1.0000
69.0900 244.0000 1.0000
69.1000 249.0000 1.0000
69.1100 239.0000 1.0000
69.1200 237.0000 1.0000
69.1300 230.0000 1.0000
69.1400 240.0000 1.0000
69.1500 234.0000 1.0000
69.1600 241.0000 1.0000
69.1700 250.0000 1.0000
69.1800 236.0000 1.0000
69.1900 250.0000 1.0000
69.2000 222.0000 1.0000
69.2100 242.0000 1.0000
69.2200 228.0000 1.0000
69.2300 229.0000 1.0000
69.2400 228.0000 1.0000
69.2500 230.0000 1.0000
69.2600 239.0000 1.0000
69.2700 237.0000 1.0000
69.2800 231.0000 1.0000
69.2900 211.0000 1.0000
69.3000 223.0000 1.0000
69.3100 221.0000 1.0000
69.3200 250.0000 1.0000
69.3300 218.0000 1.0000
69.3400 233.0000 1.0000
69.3500 233.0000 1.0000
69.3600 245.0000 1.0000
69.3700 252.0000 1.0000
69.3800 238.0000 1.0000
69.3900 242.0000 1.0000
69.4000 235.0000 1.0000
69.4100 242.0000 1.0000
69.4200 259.0000 1.0000
69.4300 246.0000 1.0000
69.4400 250.0000 1.0000
69.4500 211.0000 1.0000
69.4600 223.0000 1.0000
69.4700 216.0000 1.0000
69.4800 224.0000 1.0000
69.4900 235.0000 1.0000
69.5000 225.0000 1.0000
69.5100 230.0000 1.0000
69.5200 227.0000 1.0000
69.5300 229.0000 1.0000
69.5400 230.0000 1.0000
69.5500 252.0000 1.0000
69.5600 253.0000 1.0000
69.5700 259.0000 1.0000
69.5800 219.0000 1.0000
69.5900 239.0000 1.0000
69.6000 224.0000 1.0000
69.6100 219.0000 1.0000
69.6200 228.0000 1.0000
69.6300 247.0000 1.0000
69.6400 219.0000 1.0000
69.6500 235.0000 1.0000
69.6600 229.0000 1.0000
69.6700 239.0000 1.0000
69.6800 239.0000 1.0000
69.6900 213.0000 1.0000
69.7000 235.0000 1.0000
69.7100 229.0000 1.0000
69.7200 238.0000 1.0000
69.7300 205.0000 1.0000
69.7400 228.0000 1.0000
69.7500 227.0000 1.0000
69.7600 234.0000 1.0000
69.7700 225.0000 1.0000
69.7800 214.0000 1.0000
69.7900 230.0000 1.0000
69.8000 233.0000 1.0000
69.8100 227.0000 1.0000
69.8200 229.0000 1.0000
69.8300 224.0000 1.0000
69.8400 239.0000 1.0000
69.8500 204.0000 1.0000
69.8600 201.0000 1.0000
69.8700 219.0000 1.0000
69.8800 228.0000 1.0000
69.8900 214.0000 1.0000
69.9000 217.0000 1.0000
69.9100 252.0000 1.0000
69.9200 241.0000 1.0000
69.9300 223.0000 1.0000
69.9400 212.0000 1.0000
69.9500 216.0000 1.0000
69.9600 229.0000 1.0000
69.9700 253.0000 1.0000
69.9800 228.0000 1.0000
69.9900 217.0000 1.0000
70.0000 210.0000 1.0000
*RAS_INT_END
*RAS_TEMPERATURE_START
*RAS_TEMPERATURE_END
*RAS_DATA_END
