*RAS_DATA_START
*RAS_HEADER_START
*DISP_FMT_X "%.2f"
*DISP_FMT_Y "%.0f"
*DISP_FULLSCALE "13775.0000000000"
*DISP_LINE_COLOR "255.0000000000"
*DISP_LINE_STYLE "0.0000000000"
*DISP_LINE_WIDTH "0.2500000000"
*DISP_NOTE "測定データ-13"
*DISP_OFFSET_Y "0.0000000000"
*DISP_PEAKSEARCH_UNIT_Y "cps"
*DISP_RANGE_BOTTOM "0.0000000000"
*DISP_RANGE_LEFT "20.0000000000"
*DISP_RANGE_LOGCUTOFF "0.0100000000"
*DISP_RANGE_RIGHT "70.0000000000"
*DISP_RANGE_TOP "13775.0000000000"
*DISP_SCALE_MODE_Y "0.0000000000"
*DISP_TAB_NAME "2θ/θ"
*DISP_TITLE_Y "強度"
*DISP_UNIT_Y "cps"
*DISP_WINDOW_NAME "MSG_MACROENGINE"
*FILE_COMMENT " "
*FILE_MD5 ""
*FILE_MEMO " "
*FILE_OPERATOR "Administrator"
*FILE_SAMPLE " "
*FILE_TYPE "RAS_RAW"
*FILE_USERGROUP "システムマネージャ"
*FILE_VERSION "1.0000000000"
*HW_ATTACHMENT_ID "ATT0025"
*HW_ATTACHMENT_NAME "標準|Standard"
*HW_COUNTER_ID-0 "CUT0025"
*HW_COUNTER_ID-1 "CUT0020"
*HW_COUNTER_ID-2 "CUT0020"
*HW_COUNTER_ID-3 "CSL0021"
*HW_COUNTER_ID-4 "CMC0021"
*HW_COUNTER_NAME-0 "D/teX Ultra|D/teX Ultra"
*HW_COUNTER_NAME-1 "None|None"
*HW_COUNTER_NAME-2 "None|None"
*HW_COUNTER_NAME-3 "BBM|BBM"
*HW_COUNTER_NAME-4 "検出器モノクロメータ|Detector monochromator"
*HW_COUNTER_SELECT_NAME "D/teX Ultra|D/teX Ultra"
*HW_GONIOMETER_ID "GON0023"
*HW_GONIOMETER_NAME "SmartLab|SmartLab"
*HW_GONIOMETER_RADIUS-0 "90.0"
*HW_GONIOMETER_RADIUS-1 "114.0"
*HW_GONIOMETER_RADIUS-2 "190.0"
*HW_GONIOMETER_RADIUS-3 "300.0"
*HW_GONIOMETER_RADIUS-4 "187.0"
*HW_GONIOMETER_RADIUS-5 "300.0"
*HW_GONIOMETER_RADIUS-6 "113.0"
*HW_GONIOMETER_RADIUS-7 "331.0"
*HW_I_OPT_ID-0 "CBO0021"
*HW_I_OPT_ID-1 "ICR0023"
*HW_I_OPT_ID-2 "ISL0021"
*HW_I_OPT_ID-3 "ISO0021"
*HW_I_OPT_ID-4 "IAD0021"
*HW_I_OPT_ID-5 "IPR0001"
*HW_I_OPT_NAME-0 "CBOユニット|CBO unit"
*HW_I_OPT_NAME-1 "標準入射光学ユニット|Standard incident optical unit"
*HW_I_OPT_NAME-2 "標準入射スリットボックス|Standard incident slit box"
*HW_I_OPT_NAME-3 "入射平行スリット|Incident parallel slit"
*HW_I_OPT_NAME-4 "長手制限スリット|Length limiting slit"
*HW_I_OPT_NAME-5 "None|None"
*HW_R_ATTENUATER_AUTOMODE "0"
*HW_R_OPT_ID-0 "RSS0021"
*HW_R_OPT_ID-1 "RCR0023"
*HW_R_OPT_ID-2 "RSO0021"
*HW_R_OPT_ID-3 "RRS0021"
*HW_R_OPT_ID-4 "ATN0021"
*HW_R_OPT_ID-5 "RFL0021"
*HW_R_OPT_ID-6 "RAD0021"
*HW_R_OPT_NAME-0 "標準受光スリットボックス1|Standard receiving slit box # 1"
*HW_R_OPT_NAME-1 "標準受光光学ユニット1|Standard receiving unit # 1"
*HW_R_OPT_NAME-2 "標準受光光学ユニット2|Standard receiving optical unit # 2"
*HW_R_OPT_NAME-3 "標準受光スリットボックス2|Standard receiving slit box # 2"
*HW_R_OPT_NAME-4 "標準アッテネータ|Standard Attenuator"
*HW_R_OPT_NAME-5 "Cu Kβ|Cu K-beta"
*HW_R_OPT_NAME-6 "調整用受光スリット|Alignment receiving slit"
*HW_SAMPLE_HOLDER_ID "SMP0023"
*HW_SAMPLE_HOLDER_NAME "標準Zステージ|Standard Z stage"
*HW_XG_CURRENT_MAX "50"
*HW_XG_CURRENT_MIN "2"
*HW_XG_CURRENT_RESOLUTION "1"
*HW_XG_CURRENT_UNIT "mA"
*HW_XG_FOCUS "1mm x 10mm"
*HW_XG_FOCUS_TYPE "Normal"
*HW_XG_ID ""
*HW_XG_NAME "3kW 封入管(ID:1200)|3kW Sealed tube(ID:1200)"
*HW_XG_TARGET_ATOMIC_NUMBER "29.0000000000"
*HW_XG_TARGET_NAME "Cu"
*HW_XG_TYPE "Hermetic"
*HW_XG_VOLTAGE_MAX "60"
*HW_XG_VOLTAGE_MIN "20"
*HW_XG_VOLTAGE_RESOLUTION "1"
*HW_XG_VOLTAGE_UNIT "kV"
*HW_XG_WATT_MAX "1.500"
*HW_XG_WATT_UNIT "kW"
*HW_XG_WAVE_LENGTH_ALPHA1 "1.540593"
*HW_XG_WAVE_LENGTH_ALPHA2 "1.544414"
*HW_XG_WAVE_LENGTH_BETA "1.392250"
*MEAS_COND_AXIS_NAME-0 "2θ/θ"
*MEAS_COND_AXIS_NAME-1 "2θ"
*MEAS_COND_AXIS_NAME-2 "ω"
*MEAS_COND_AXIS_NAME-3 "Z"
*MEAS_COND_AXIS_NAME-4 "2θ/ω"
*MEAS_COND_AXIS_NAME-5 "θs"
*MEAS_COND_AXIS_NAME-6 "θd"
*MEAS_COND_AXIS_NAME-7 "Ts"
*MEAS_COND_AXIS_NAME-8 "CBO選択スリット"
*MEAS_COND_AXIS_NAME-9 "M"
*MEAS_COND_AXIS_NAME-10 "入射平行スリット"
*MEAS_COND_AXIS_NAME-11 "入射スリット"
*MEAS_COND_AXIS_NAME-12 ""
*MEAS_COND_AXIS_NAME-13 "Zs"
*MEAS_COND_AXIS_NAME-14 "入射光学素子"
*MEAS_COND_AXIS_NAME-15 "長手制限スリット"
*MEAS_COND_AXIS_NAME-16 "センタースリット"
*MEAS_COND_AXIS_NAME-17 "フィルター"
*MEAS_COND_AXIS_NAME-18 "受光スリット1"
*MEAS_COND_AXIS_NAME-19 "受光スリット2"
*MEAS_COND_AXIS_NAME-20 "受光光学素子"
*MEAS_COND_AXIS_NAME-21 "受光平行スリット"
*MEAS_COND_AXIS_NAME-22 "調整用受光スリット"
*MEAS_COND_AXIS_NAME-23 ""
*MEAS_COND_AXIS_NAME-24 ""
*MEAS_COND_AXIS_NAME-25 "Zd"
*MEAS_COND_AXIS_NAME-26 "アッテネータ"
*MEAS_COND_AXIS_NAME-27 "検出器モノクロメータ"
*MEAS_COND_AXIS_NAME-28 "モノクロメータスリット"
*MEAS_COND_AXIS_NAME-29 "プライマリビーム"
*MEAS_COND_AXIS_NAME-30 "PHA"
*MEAS_COND_AXIS_NAME_INTERNAL-0 "TwoThetaTheta"
*MEAS_COND_AXIS_NAME_INTERNAL-1 "TwoTheta"
*MEAS_COND_AXIS_NAME_INTERNAL-2 "Omega"
*MEAS_COND_AXIS_NAME_INTERNAL-3 "Z"
*MEAS_COND_AXIS_NAME_INTERNAL-4 "TwoThetaOmega"
*MEAS_COND_AXIS_NAME_INTERNAL-5 "ThetaS"
*MEAS_COND_AXIS_NAME_INTERNAL-6 "ThetaD"
*MEAS_COND_AXIS_NAME_INTERNAL-7 "Ts"
*MEAS_COND_AXIS_NAME_INTERNAL-8 "CBO"
*MEAS_COND_AXIS_NAME_INTERNAL-9 "CBO-M"
*MEAS_COND_AXIS_NAME_INTERNAL-10 "IncidentSollerSlit"
*MEAS_COND_AXIS_NAME_INTERNAL-11 "IncidentSlitBox"
*MEAS_COND_AXIS_NAME_INTERNAL-12 "IncidentSlitBox-_Axis"
*MEAS_COND_AXIS_NAME_INTERNAL-13 "Zs"
*MEAS_COND_AXIS_NAME_INTERNAL-14 "IncidentMonochromator"
*MEAS_COND_AXIS_NAME_INTERNAL-15 "IncidentAxdSlit"
*MEAS_COND_AXIS_NAME_INTERNAL-16 "CenterSlit"
*MEAS_COND_AXIS_NAME_INTERNAL-17 "Filter"
*MEAS_COND_AXIS_NAME_INTERNAL-18 "ReceivingSlitBox1"
*MEAS_COND_AXIS_NAME_INTERNAL-19 "ReceivingSlitBox2"
*MEAS_COND_AXIS_NAME_INTERNAL-20 "ReceivingOptics"
*MEAS_COND_AXIS_NAME_INTERNAL-21 "ReceivingSollerSlit"
*MEAS_COND_AXIS_NAME_INTERNAL-22 "ReceivingAxdSlit"
*MEAS_COND_AXIS_NAME_INTERNAL-23 "ReceivingSlitBox1-_Axis"
*MEAS_COND_AXIS_NAME_INTERNAL-24 "ReceivingSlitBox2-_Axis"
*MEAS_COND_AXIS_NAME_INTERNAL-25 "ReceivingSlitBox2-Zd"
*MEAS_COND_AXIS_NAME_INTERNAL-26 "Attenuator"
*MEAS_COND_AXIS_NAME_INTERNAL-27 "CounterMonochromator"
*MEAS_COND_AXIS_NAME_INTERNAL-28 "CounterSlit"
*MEAS_COND_AXIS_NAME_INTERNAL-29 "IncidentPrimary"
*MEAS_COND_AXIS_NAME_INTERNAL-30 "PHA"
*MEAS_COND_AXIS_NAME_MAGICNO-0 "83951616.0000000000"
*MEAS_COND_AXIS_NAME_MAGICNO-1 "268632064.0000000000"
*MEAS_COND_AXIS_NAME_MAGICNO-2 "268500992.0000000000"
*MEAS_COND_AXIS_NAME_MAGICNO-3 "285278208.0000000000"
*MEAS_COND_AXIS_NAME_MAGICNO-4 "83951616.0000000000"
*MEAS_COND_AXIS_NAME_MAGICNO-5 "131072.0000000000"
*MEAS_COND_AXIS_NAME_MAGICNO-6 "131072.0000000000"
*MEAS_COND_AXIS_NAME_MAGICNO-7 "318898176.0000000000"
*MEAS_COND_AXIS_NAME_MAGICNO-8 "20971521.0000000000"
*MEAS_COND_AXIS_NAME_MAGICNO-9 "285343744.0000000000"
*MEAS_COND_AXIS_NAME_MAGICNO-10 "20971521.0000000000"
*MEAS_COND_AXIS_NAME_MAGICNO-11 "22020097.0000000000"
*MEAS_COND_AXIS_NAME_MAGICNO-12 "25165824.0000000000"
*MEAS_COND_AXIS_NAME_MAGICNO-13 "318898176.0000000000"
*MEAS_COND_AXIS_NAME_MAGICNO-14 "1.0000000000"
*MEAS_COND_AXIS_NAME_MAGICNO-15 "20971521.0000000000"
*MEAS_COND_AXIS_NAME_MAGICNO-16 "20971521.0000000000"
*MEAS_COND_AXIS_NAME_MAGICNO-17 "20971521.0000000000"
*MEAS_COND_AXIS_NAME_MAGICNO-18 "23068673.0000000000"
*MEAS_COND_AXIS_NAME_MAGICNO-19 "23068673.0000000000"
*MEAS_COND_AXIS_NAME_MAGICNO-20 "20971521.0000000000"
*MEAS_COND_AXIS_NAME_MAGICNO-21 "20971521.0000000000"
*MEAS_COND_AXIS_NAME_MAGICNO-22 "20971521.0000000000"
*MEAS_COND_AXIS_NAME_MAGICNO-23 "25165824.0000000000"
*MEAS_COND_AXIS_NAME_MAGICNO-24 "25165824.0000000000"
*MEAS_COND_AXIS_NAME_MAGICNO-25 "285343744.0000000000"
*MEAS_COND_AXIS_NAME_MAGICNO-26 "17301505.0000000000"
*MEAS_COND_AXIS_NAME_MAGICNO-27 "20971521.0000000000"
*MEAS_COND_AXIS_NAME_MAGICNO-28 "20971521.0000000000"
*MEAS_COND_AXIS_NAME_MAGICNO-29 "20971521.0000000000"
*MEAS_COND_AXIS_NAME_MAGICNO-30 "0.0000000000"
*MEAS_COND_AXIS_OFFSET-0 "-"
*MEAS_COND_AXIS_OFFSET-1 "-0.0310000000"
*MEAS_COND_AXIS_OFFSET-2 "0.4064000000"
*MEAS_COND_AXIS_OFFSET-3 "-"
*MEAS_COND_AXIS_OFFSET-4 "-"
*MEAS_COND_AXIS_OFFSET-5 "0.4064000000"
*MEAS_COND_AXIS_OFFSET-6 "-0.4374000000"
*MEAS_COND_AXIS_OFFSET-7 "-"
*MEAS_COND_AXIS_OFFSET-8 "-"
*MEAS_COND_AXIS_OFFSET-9 "-"
*MEAS_COND_AXIS_OFFSET-10 "-"
*MEAS_COND_AXIS_OFFSET-11 "-"
*MEAS_COND_AXIS_OFFSET-12 "-"
*MEAS_COND_AXIS_OFFSET-13 "-"
*MEAS_COND_AXIS_OFFSET-14 "-"
*MEAS_COND_AXIS_OFFSET-15 "-"
*MEAS_COND_AXIS_OFFSET-16 "-"
*MEAS_COND_AXIS_OFFSET-17 "-"
*MEAS_COND_AXIS_OFFSET-18 "-"
*MEAS_COND_AXIS_OFFSET-19 "-"
*MEAS_COND_AXIS_OFFSET-20 "-"
*MEAS_COND_AXIS_OFFSET-21 "-"
*MEAS_COND_AXIS_OFFSET-22 "-"
*MEAS_COND_AXIS_OFFSET-23 "-"
*MEAS_COND_AXIS_OFFSET-24 "-"
*MEAS_COND_AXIS_OFFSET-25 "-"
*MEAS_COND_AXIS_OFFSET-26 "-"
*MEAS_COND_AXIS_OFFSET-27 "-"
*MEAS_COND_AXIS_OFFSET-28 "-"
*MEAS_COND_AXIS_OFFSET-29 "-"
*MEAS_COND_AXIS_OFFSET-30 "-"
*MEAS_COND_AXIS_POSITION-0 "0.0000000000"
*MEAS_COND_AXIS_POSITION-1 "0.0000000000"
*MEAS_COND_AXIS_POSITION-2 "0.0000000000"
*MEAS_COND_AXIS_POSITION-3 "-2.8286000000"
*MEAS_COND_AXIS_POSITION-4 "0.0000000000"
*MEAS_COND_AXIS_POSITION-5 "0.0000000000"
*MEAS_COND_AXIS_POSITION-6 "0.0000000000"
*MEAS_COND_AXIS_POSITION-7 "-0.7498700000"
*MEAS_COND_AXIS_POSITION-8 "BB"
*MEAS_COND_AXIS_POSITION-9 "0.0000000000"
*MEAS_COND_AXIS_POSITION-10 "Soller_slit_5.0deg"
*MEAS_COND_AXIS_POSITION-11 "2/3deg"
*MEAS_COND_AXIS_POSITION-12 "2.2088000000"
*MEAS_COND_AXIS_POSITION-13 "-0.6412500000"
*MEAS_COND_AXIS_POSITION-14 "0.0000000000"
*MEAS_COND_AXIS_POSITION-15 "10.0mm"
*MEAS_COND_AXIS_POSITION-16 "None"
*MEAS_COND_AXIS_POSITION-17 "Cu_K-beta"
*MEAS_COND_AXIS_POSITION-18 "13.000mm"
*MEAS_COND_AXIS_POSITION-19 "13.000mm"
*MEAS_COND_AXIS_POSITION-20 "No_unit"
*MEAS_COND_AXIS_POSITION-21 "Soller_slit_5.0deg"
*MEAS_COND_AXIS_POSITION-22 "None"
*MEAS_COND_AXIS_POSITION-23 "13.0000000000"
*MEAS_COND_AXIS_POSITION-24 "13.0000000000"
*MEAS_COND_AXIS_POSITION-25 "0.0281300000"
*MEAS_COND_AXIS_POSITION-26 "Open"
*MEAS_COND_AXIS_POSITION-27 "None"
*MEAS_COND_AXIS_POSITION-28 "None"
*MEAS_COND_AXIS_POSITION-29 "None"
*MEAS_COND_AXIS_POSITION-30 "38.0000000000"
*MEAS_COND_AXIS_UNIT-0 "deg"
*MEAS_COND_AXIS_UNIT-1 "deg"
*MEAS_COND_AXIS_UNIT-2 "deg"
*MEAS_COND_AXIS_UNIT-3 "mm"
*MEAS_COND_AXIS_UNIT-4 "deg"
*MEAS_COND_AXIS_UNIT-5 "deg"
*MEAS_COND_AXIS_UNIT-6 "deg"
*MEAS_COND_AXIS_UNIT-7 "mm"
*MEAS_COND_AXIS_UNIT-8 ""
*MEAS_COND_AXIS_UNIT-9 "pulse"
*MEAS_COND_AXIS_UNIT-10 ""
*MEAS_COND_AXIS_UNIT-11 ""
*MEAS_COND_AXIS_UNIT-12 "mm"
*MEAS_COND_AXIS_UNIT-13 "mm"
*MEAS_COND_AXIS_UNIT-14 ""
*MEAS_COND_AXIS_UNIT-15 ""
*MEAS_COND_AXIS_UNIT-16 ""
*MEAS_COND_AXIS_UNIT-17 ""
*MEAS_COND_AXIS_UNIT-18 ""
*MEAS_COND_AXIS_UNIT-19 ""
*MEAS_COND_AXIS_UNIT-20 ""
*MEAS_COND_AXIS_UNIT-21 ""
*MEAS_COND_AXIS_UNIT-22 ""
*MEAS_COND_AXIS_UNIT-23 "mm"
*MEAS_COND_AXIS_UNIT-24 "mm"
*MEAS_COND_AXIS_UNIT-25 "mm"
*MEAS_COND_AXIS_UNIT-26 ""
*MEAS_COND_AXIS_UNIT-27 ""
*MEAS_COND_AXIS_UNIT-28 ""
*MEAS_COND_AXIS_UNIT-29 ""
*MEAS_COND_AXIS_UNIT-30 "div"
*MEAS_COND_COUNTER_CNTLOSS_CORR "0.0000000000"
*MEAS_COND_COUNTER_PHABASE "38.0000000000"
*MEAS_COND_COUNTER_PHAWINDOW "16.0000000000"
*MEAS_COND_COUNTER_PHA_UNIT "div"
*MEAS_COND_COUNTER_TAUDIFF "30.0000000000"
*MEAS_COND_COUNTER_TAUINT "0.0000000000"
*MEAS_COND_IRRADIATION_MODE "OFF"
*MEAS_COND_IRRADIATION_WIDTH ""
*MEAS_COND_OPT_ATTR "集中法"
*MEAS_COND_OPT_NAME "@集中法"
*MEAS_COND_UNSYMMETRIC_MODE "OFF"
*MEAS_COND_XG_CURRENT "30.0000000000"
*MEAS_COND_XG_VOLTAGE "40.0000000000"
*MEAS_COND_XG_WAVE_TYPE "Ka"
*MEAS_DATA_COUNT "5001.0000000000"
*MEAS_SCAN_AXIS_X "2θ/θ"
*MEAS_SCAN_AXIS_X_INTERNAL "TwoThetaTheta"
*MEAS_SCAN_END_TIME "08/01/23 20:24:17"
*MEAS_SCAN_MODE "CONTINUOUS"
*MEAS_SCAN_MONITOR "0"
*MEAS_SCAN_RESOLUTION_X "0.0002"
*MEAS_SCAN_SPEED "2.5"
*MEAS_SCAN_SPEED_UNIT "deg/min"
*MEAS_SCAN_START "20.0000000000"
*MEAS_SCAN_START_TIME "08/01/23 20:02:53"
*MEAS_SCAN_STEP "0.0100000000"
*MEAS_SCAN_STOP "70.0000000000"
*MEAS_SCAN_UNIT_X "deg"
*MEAS_SCAN_UNIT_Y "counts"
*RAS_HEADER_END
*RAS_INT_START
20.0000 836.0000 1.0000
20.0100 772.0000 1.0000
20.0200 812.0000 1.0000
20.0300 800.0000 1.0000
20.0400 828.0000 1.0000
20.0500 830.0000 1.0000
20.0600 840.0000 1.0000
20.0700 832.0000 1.0000
20.0800 772.0000 1.0000
20.0900 794.0000 1.0000
20.1000 823.0000 1.0000
20.1100 786.0000 1.0000
20.1200 810.0000 1.0000
20.1300 800.0000 1.0000
20.1400 841.0000 1.0000
20.1500 792.0000 1.0000
20.1600 796.0000 1.0000
20.1700 813.0000 1.0000
20.1800 778.0000 1.0000
20.1900 803.0000 1.0000
20.2000 806.0000 1.0000
20.2100 793.0000 1.0000
20.2200 771.0000 1.0000
20.2300 847.0000 1.0000
20.2400 842.0000 1.0000
20.2500 813.0000 1.0000
20.2600 843.0000 1.0000
20.2700 816.0000 1.0000
20.2800 820.0000 1.0000
20.2900 818.0000 1.0000
20.3000 847.0000 1.0000
20.3100 825.0000 1.0000
20.3200 877.0000 1.0000
20.3300 808.0000 1.0000
20.3400 821.0000 1.0000
20.3500 806.0000 1.0000
20.3600 809.0000 1.0000
20.3700 795.0000 1.0000
20.3800 753.0000 1.0000
20.3900 821.0000 1.0000
20.4000 817.0000 1.0000
20.4100 800.0000 1.0000
20.4200 796.0000 1.0000
20.4300 817.0000 1.0000
20.4400 839.0000 1.0000
20.4500 803.0000 1.0000
20.4600 848.0000 1.0000
20.4700 812.0000 1.0000
20.4800 820.0000 1.0000
20.4900 830.0000 1.0000
20.5000 729.0000 1.0000
20.5100 798.0000 1.0000
20.5200 838.0000 1.0000
20.5300 782.0000 1.0000
20.5400 792.0000 1.0000
20.5500 788.0000 1.0000
20.5600 833.0000 1.0000
20.5700 837.0000 1.0000
20.5800 823.0000 1.0000
20.5900 872.0000 1.0000
20.6000 798.0000 1.0000
20.6100 777.0000 1.0000
20.6200 812.0000 1.0000
20.6300 791.0000 1.0000
20.6400 828.0000 1.0000
20.6500 844.0000 1.0000
20.6600 804.0000 1.0000
20.6700 792.0000 1.0000
20.6800 773.0000 1.0000
20.6900 822.0000 1.0000
20.7000 814.0000 1.0000
20.7100 828.0000 1.0000
20.7200 851.0000 1.0000
20.7300 813.0000 1.0000
20.7400 793.0000 1.0000
20.7500 819.0000 1.0000
20.7600 804.0000 1.0000
20.7700 790.0000 1.0000
20.7800 809.0000 1.0000
20.7900 802.0000 1.0000
20.8000 757.0000 1.0000
20.8100 837.0000 1.0000
20.8200 804.0000 1.0000
20.8300 804.0000 1.0000
20.8400 816.0000 1.0000
20.8500 819.0000 1.0000
20.8600 790.0000 1.0000
20.8700 827.0000 1.0000
20.8800 811.0000 1.0000
20.8900 842.0000 1.0000
20.9000 823.0000 1.0000
20.9100 813.0000 1.0000
20.9200 794.0000 1.0000
20.9300 855.0000 1.0000
20.9400 836.0000 1.0000
20.9500 815.0000 1.0000
20.9600 762.0000 1.0000
20.9700 840.0000 1.0000
20.9800 831.0000 1.0000
20.9900 779.0000 1.0000
21.0000 835.0000 1.0000
21.0100 818.0000 1.0000
21.0200 803.0000 1.0000
21.0300 818.0000 1.0000
21.0400 818.0000 1.0000
21.0500 836.0000 1.0000
21.0600 835.0000 1.0000
21.0700 813.0000 1.0000
21.0800 871.0000 1.0000
21.0900 814.0000 1.0000
21.1000 809.0000 1.0000
21.1100 787.0000 1.0000
21.1200 783.0000 1.0000
21.1300 820.0000 1.0000
21.1400 788.0000 1.0000
21.1500 788.0000 1.0000
21.1600 803.0000 1.0000
21.1700 827.0000 1.0000
21.1800 784.0000 1.0000
21.1900 791.0000 1.0000
21.2000 834.0000 1.0000
21.2100 791.0000 1.0000
21.2200 843.0000 1.0000
21.2300 810.0000 1.0000
21.2400 802.0000 1.0000
21.2500 816.0000 1.0000
21.2600 818.0000 1.0000
21.2700 836.0000 1.0000
21.2800 810.0000 1.0000
21.2900 784.0000 1.0000
21.3000 785.0000 1.0000
21.3100 820.0000 1.0000
21.3200 877.0000 1.0000
21.3300 843.0000 1.0000
21.3400 793.0000 1.0000
21.3500 786.0000 1.0000
21.3600 844.0000 1.0000
21.3700 805.0000 1.0000
21.3800 816.0000 1.0000
21.3900 781.0000 1.0000
21.4000 817.0000 1.0000
21.4100 820.0000 1.0000
21.4200 819.0000 1.0000
21.4300 815.0000 1.0000
21.4400 811.0000 1.0000
21.4500 834.0000 1.0000
21.4600 796.0000 1.0000
21.4700 803.0000 1.0000
21.4800 858.0000 1.0000
21.4900 808.0000 1.0000
21.5000 826.0000 1.0000
21.5100 817.0000 1.0000
21.5200 872.0000 1.0000
21.5300 849.0000 1.0000
21.5400 814.0000 1.0000
21.5500 823.0000 1.0000
21.5600 823.0000 1.0000
21.5700 813.0000 1.0000
21.5800 813.0000 1.0000
21.5900 788.0000 1.0000
21.6000 835.0000 1.0000
21.6100 782.0000 1.0000
21.6200 786.0000 1.0000
21.6300 798.0000 1.0000
21.6400 825.0000 1.0000
21.6500 860.0000 1.0000
21.6600 787.0000 1.0000
21.6700 818.0000 1.0000
21.6800 838.0000 1.0000
21.6900 798.0000 1.0000
21.7000 840.0000 1.0000
21.7100 817.0000 1.0000
21.7200 792.0000 1.0000
21.7300 804.0000 1.0000
21.7400 805.0000 1.0000
21.7500 801.0000 1.0000
21.7600 782.0000 1.0000
21.7700 803.0000 1.0000
21.7800 770.0000 1.0000
21.7900 761.0000 1.0000
21.8000 793.0000 1.0000
21.8100 829.0000 1.0000
21.8200 806.0000 1.0000
21.8300 821.0000 1.0000
21.8400 780.0000 1.0000
21.8500 806.0000 1.0000
21.8600 797.0000 1.0000
21.8700 808.0000 1.0000
21.8800 827.0000 1.0000
21.8900 757.0000 1.0000
21.9000 800.0000 1.0000
21.9100 781.0000 1.0000
21.9200 756.0000 1.0000
21.9300 806.0000 1.0000
21.9400 769.0000 1.0000
21.9500 802.0000 1.0000
21.9600 860.0000 1.0000
21.9700 815.0000 1.0000
21.9800 819.0000 1.0000
21.9900 774.0000 1.0000
22.0000 806.0000 1.0000
22.0100 770.0000 1.0000
22.0200 773.0000 1.0000
22.0300 810.0000 1.0000
22.0400 807.0000 1.0000
22.0500 803.0000 1.0000
22.0600 743.0000 1.0000
22.0700 782.0000 1.0000
22.0800 756.0000 1.0000
22.0900 811.0000 1.0000
22.1000 772.0000 1.0000
22.1100 809.0000 1.0000
22.1200 784.0000 1.0000
22.1300 812.0000 1.0000
22.1400 773.0000 1.0000
22.1500 795.0000 1.0000
22.1600 778.0000 1.0000
22.1700 808.0000 1.0000
22.1800 786.0000 1.0000
22.1900 763.0000 1.0000
22.2000 760.0000 1.0000
22.2100 818.0000 1.0000
22.2200 819.0000 1.0000
22.2300 847.0000 1.0000
22.2400 845.0000 1.0000
22.2500 800.0000 1.0000
22.2600 800.0000 1.0000
22.2700 780.0000 1.0000
22.2800 777.0000 1.0000
22.2900 789.0000 1.0000
22.3000 816.0000 1.0000
22.3100 785.0000 1.0000
22.3200 786.0000 1.0000
22.3300 786.0000 1.0000
22.3400 748.0000 1.0000
22.3500 768.0000 1.0000
22.3600 817.0000 1.0000
22.3700 834.0000 1.0000
22.3800 765.0000 1.0000
22.3900 790.0000 1.0000
22.4000 823.0000 1.0000
22.4100 807.0000 1.0000
22.4200 792.0000 1.0000
22.4300 775.0000 1.0000
22.4400 775.0000 1.0000
22.4500 840.0000 1.0000
22.4600 775.0000 1.0000
22.4700 798.0000 1.0000
22.4800 801.0000 1.0000
22.4900 811.0000 1.0000
22.5000 797.0000 1.0000
22.5100 751.0000 1.0000
22.5200 781.0000 1.0000
22.5300 774.0000 1.0000
22.5400 785.0000 1.0000
22.5500 789.0000 1.0000
22.5600 801.0000 1.0000
22.5700 758.0000 1.0000
22.5800 772.0000 1.0000
22.5900 766.0000 1.0000
22.6000 793.0000 1.0000
22.6100 782.0000 1.0000
22.6200 820.0000 1.0000
22.6300 785.0000 1.0000
22.6400 778.0000 1.0000
22.6500 771.0000 1.0000
22.6600 803.0000 1.0000
22.6700 836.0000 1.0000
22.6800 801.0000 1.0000
22.6900 814.0000 1.0000
22.7000 796.0000 1.0000
22.7100 818.0000 1.0000
22.7200 757.0000 1.0000
22.7300 810.0000 1.0000
22.7400 767.0000 1.0000
22.7500 764.0000 1.0000
22.7600 763.0000 1.0000
22.7700 817.0000 1.0000
22.7800 814.0000 1.0000
22.7900 763.0000 1.0000
22.8000 769.0000 1.0000
22.8100 801.0000 1.0000
22.8200 816.0000 1.0000
22.8300 775.0000 1.0000
22.8400 804.0000 1.0000
22.8500 803.0000 1.0000
22.8600 818.0000 1.0000
22.8700 822.0000 1.0000
22.8800 810.0000 1.0000
22.8900 812.0000 1.0000
22.9000 803.0000 1.0000
22.9100 828.0000 1.0000
22.9200 811.0000 1.0000
22.9300 765.0000 1.0000
22.9400 776.0000 1.0000
22.9500 793.0000 1.0000
22.9600 820.0000 1.0000
22.9700 802.0000 1.0000
22.9800 815.0000 1.0000
22.9900 762.0000 1.0000
23.0000 756.0000 1.0000
23.0100 810.0000 1.0000
23.0200 854.0000 1.0000
23.0300 774.0000 1.0000
23.0400 808.0000 1.0000
23.0500 776.0000 1.0000
23.0600 811.0000 1.0000
23.0700 840.0000 1.0000
23.0800 800.0000 1.0000
23.0900 765.0000 1.0000
23.1000 786.0000 1.0000
23.1100 796.0000 1.0000
23.1200 782.0000 1.0000
23.1300 783.0000 1.0000
23.1400 774.0000 1.0000
23.1500 796.0000 1.0000
23.1600 775.0000 1.0000
23.1700 782.0000 1.0000
23.1800 774.0000 1.0000
23.1900 795.0000 1.0000
23.2000 769.0000 1.0000
23.2100 769.0000 1.0000
23.2200 781.0000 1.0000
23.2300 790.0000 1.0000
23.2400 749.0000 1.0000
23.2500 780.0000 1.0000
23.2600 769.0000 1.0000
23.2700 770.0000 1.0000
23.2800 847.0000 1.0000
23.2900 764.0000 1.0000
23.3000 787.0000 1.0000
23.3100 789.0000 1.0000
23.3200 787.0000 1.0000
23.3300 758.0000 1.0000
23.3400 764.0000 1.0000
23.3500 754.0000 1.0000
23.3600 799.0000 1.0000
23.3700 751.0000 1.0000
23.3800 815.0000 1.0000
23.3900 772.0000 1.0000
23.4000 779.0000 1.0000
23.4100 731.0000 1.0000
23.4200 747.0000 1.0000
23.4300 726.0000 1.0000
23.4400 761.0000 1.0000
23.4500 778.0000 1.0000
23.4600 788.0000 1.0000
23.4700 749.0000 1.0000
23.4800 810.0000 1.0000
23.4900 744.0000 1.0000
23.5000 829.0000 1.0000
23.5100 860.0000 1.0000
23.5200 792.0000 1.0000
23.5300 783.0000 1.0000
23.5400 757.0000 1.0000
23.5500 815.0000 1.0000
23.5600 761.0000 1.0000
23.5700 767.0000 1.0000
23.5800 750.0000 1.0000
23.5900 775.0000 1.0000
23.6000 765.0000 1.0000
23.6100 802.0000 1.0000
23.6200 768.0000 1.0000
23.6300 790.0000 1.0000
23.6400 784.0000 1.0000
23.6500 795.0000 1.0000
23.6600 776.0000 1.0000
23.6700 761.0000 1.0000
23.6800 854.0000 1.0000
23.6900 820.0000 1.0000
23.7000 822.0000 1.0000
23.7100 758.0000 1.0000
23.7200 770.0000 1.0000
23.7300 765.0000 1.0000
23.7400 759.0000 1.0000
23.7500 800.0000 1.0000
23.7600 774.0000 1.0000
23.7700 763.0000 1.0000
23.7800 793.0000 1.0000
23.7900 787.0000 1.0000
23.8000 784.0000 1.0000
23.8100 789.0000 1.0000
23.8200 817.0000 1.0000
23.8300 781.0000 1.0000
23.8400 782.0000 1.0000
23.8500 782.0000 1.0000
23.8600 777.0000 1.0000
23.8700 781.0000 1.0000
23.8800 798.0000 1.0000
23.8900 794.0000 1.0000
23.9000 820.0000 1.0000
23.9100 810.0000 1.0000
23.9200 821.0000 1.0000
23.9300 838.0000 1.0000
23.9400 818.0000 1.0000
23.9500 826.0000 1.0000
23.9600 838.0000 1.0000
23.9700 819.0000 1.0000
23.9800 760.0000 1.0000
23.9900 806.0000 1.0000
24.0000 823.0000 1.0000
24.0100 805.0000 1.0000
24.0200 883.0000 1.0000
24.0300 811.0000 1.0000
24.0400 815.0000 1.0000
24.0500 828.0000 1.0000
24.0600 864.0000 1.0000
24.0700 848.0000 1.0000
24.0800 812.0000 1.0000
24.0900 856.0000 1.0000
24.1000 834.0000 1.0000
24.1100 839.0000 1.0000
24.1200 856.0000 1.0000
24.1300 844.0000 1.0000
24.1400 851.0000 1.0000
24.1500 856.0000 1.0000
24.1600 802.0000 1.0000
24.1700 807.0000 1.0000
24.1800 825.0000 1.0000
24.1900 843.0000 1.0000
24.2000 825.0000 1.0000
24.2100 855.0000 1.0000
24.2200 833.0000 1.0000
24.2300 789.0000 1.0000
24.2400 813.0000 1.0000
24.2500 841.0000 1.0000
24.2600 782.0000 1.0000
24.2700 770.0000 1.0000
24.2800 772.0000 1.0000
24.2900 754.0000 1.0000
24.3000 779.0000 1.0000
24.3100 769.0000 1.0000
24.3200 797.0000 1.0000
24.3300 815.0000 1.0000
24.3400 767.0000 1.0000
24.3500 773.0000 1.0000
24.3600 743.0000 1.0000
24.3700 753.0000 1.0000
24.3800 759.0000 1.0000
24.3900 775.0000 1.0000
24.4000 790.0000 1.0000
24.4100 814.0000 1.0000
24.4200 783.0000 1.0000
24.4300 778.0000 1.0000
24.4400 823.0000 1.0000
24.4500 784.0000 1.0000
24.4600 812.0000 1.0000
24.4700 768.0000 1.0000
24.4800 789.0000 1.0000
24.4900 793.0000 1.0000
24.5000 760.0000 1.0000
24.5100 731.0000 1.0000
24.5200 792.0000 1.0000
24.5300 773.0000 1.0000
24.5400 819.0000 1.0000
24.5500 764.0000 1.0000
24.5600 785.0000 1.0000
24.5700 791.0000 1.0000
24.5800 794.0000 1.0000
24.5900 764.0000 1.0000
24.6000 821.0000 1.0000
24.6100 733.0000 1.0000
24.6200 757.0000 1.0000
24.6300 788.0000 1.0000
24.6400 759.0000 1.0000
24.6500 787.0000 1.0000
24.6600 794.0000 1.0000
24.6700 779.0000 1.0000
24.6800 783.0000 1.0000
24.6900 739.0000 1.0000
24.7000 732.0000 1.0000
24.7100 785.0000 1.0000
24.7200 736.0000 1.0000
24.7300 754.0000 1.0000
24.7400 782.0000 1.0000
24.7500 805.0000 1.0000
24.7600 767.0000 1.0000
24.7700 765.0000 1.0000
24.7800 786.0000 1.0000
24.7900 729.0000 1.0000
24.8000 764.0000 1.0000
24.8100 760.0000 1.0000
24.8200 757.0000 1.0000
24.8300 757.0000 1.0000
24.8400 748.0000 1.0000
24.8500 779.0000 1.0000
24.8600 795.0000 1.0000
24.8700 755.0000 1.0000
24.8800 776.0000 1.0000
24.8900 771.0000 1.0000
24.9000 717.0000 1.0000
24.9100 736.0000 1.0000
24.9200 738.0000 1.0000
24.9300 750.0000 1.0000
24.9400 734.0000 1.0000
24.9500 773.0000 1.0000
24.9600 763.0000 1.0000
24.9700 730.0000 1.0000
24.9800 764.0000 1.0000
24.9900 758.0000 1.0000
25.0000 744.0000 1.0000
25.0100 780.0000 1.0000
25.0200 751.0000 1.0000
25.0300 765.0000 1.0000
25.0400 793.0000 1.0000
25.0500 718.0000 1.0000
25.0600 763.0000 1.0000
25.0700 783.0000 1.0000
25.0800 738.0000 1.0000
25.0900 768.0000 1.0000
25.1000 748.0000 1.0000
25.1100 719.0000 1.0000
25.1200 755.0000 1.0000
25.1300 742.0000 1.0000
25.1400 762.0000 1.0000
25.1500 732.0000 1.0000
25.1600 730.0000 1.0000
25.1700 755.0000 1.0000
25.1800 735.0000 1.0000
25.1900 742.0000 1.0000
25.2000 823.0000 1.0000
25.2100 787.0000 1.0000
25.2200 741.0000 1.0000
25.2300 737.0000 1.0000
25.2400 771.0000 1.0000
25.2500 741.0000 1.0000
25.2600 751.0000 1.0000
25.2700 720.0000 1.0000
25.2800 763.0000 1.0000
25.2900 793.0000 1.0000
25.3000 776.0000 1.0000
25.3100 782.0000 1.0000
25.3200 791.0000 1.0000
25.3300 749.0000 1.0000
25.3400 769.0000 1.0000
25.3500 723.0000 1.0000
25.3600 759.0000 1.0000
25.3700 745.0000 1.0000
25.3800 823.0000 1.0000
25.3900 773.0000 1.0000
25.4000 759.0000 1.0000
25.4100 782.0000 1.0000
25.4200 748.0000 1.0000
25.4300 791.0000 1.0000
25.4400 728.0000 1.0000
25.4500 796.0000 1.0000
25.4600 739.0000 1.0000
25.4700 749.0000 1.0000
25.4800 747.0000 1.0000
25.4900 708.0000 1.0000
25.5000 771.0000 1.0000
25.5100 805.0000 1.0000
25.5200 781.0000 1.0000
25.5300 781.0000 1.0000
25.5400 781.0000 1.0000
25.5500 794.0000 1.0000
25.5600 771.0000 1.0000
25.5700 784.0000 1.0000
25.5800 801.0000 1.0000
25.5900 780.0000 1.0000
25.6000 775.0000 1.0000
25.6100 824.0000 1.0000
25.6200 788.0000 1.0000
25.6300 766.0000 1.0000
25.6400 776.0000 1.0000
25.6500 772.0000 1.0000
25.6600 806.0000 1.0000
25.6700 780.0000 1.0000
25.6800 752.0000 1.0000
25.6900 770.0000 1.0000
25.7000 782.0000 1.0000
25.7100 776.0000 1.0000
25.7200 791.0000 1.0000
25.7300 767.0000 1.0000
25.7400 755.0000 1.0000
25.7500 768.0000 1.0000
25.7600 774.0000 1.0000
25.7700 762.0000 1.0000
25.7800 777.0000 1.0000
25.7900 773.0000 1.0000
25.8000 769.0000 1.0000
25.8100 818.0000 1.0000
25.8200 808.0000 1.0000
25.8300 783.0000 1.0000
25.8400 760.0000 1.0000
25.8500 784.0000 1.0000
25.8600 826.0000 1.0000
25.8700 822.0000 1.0000
25.8800 804.0000 1.0000
25.8900 794.0000 1.0000
25.9000 770.0000 1.0000
25.9100 832.0000 1.0000
25.9200 822.0000 1.0000
25.9300 821.0000 1.0000
25.9400 781.0000 1.0000
25.9500 854.0000 1.0000
25.9600 830.0000 1.0000
25.9700 767.0000 1.0000
25.9800 811.0000 1.0000
25.9900 800.0000 1.0000
26.0000 769.0000 1.0000
26.0100 846.0000 1.0000
26.0200 859.0000 1.0000
26.0300 837.0000 1.0000
26.0400 867.0000 1.0000
26.0500 851.0000 1.0000
26.0600 870.0000 1.0000
26.0700 885.0000 1.0000
26.0800 911.0000 1.0000
26.0900 898.0000 1.0000
26.1000 915.0000 1.0000
26.1100 845.0000 1.0000
26.1200 878.0000 1.0000
26.1300 945.0000 1.0000
26.1400 910.0000 1.0000
26.1500 949.0000 1.0000
26.1600 969.0000 1.0000
26.1700 993.0000 1.0000
26.1800 1002.0000 1.0000
26.1900 1026.0000 1.0000
26.2000 1029.0000 1.0000
26.2100 1079.0000 1.0000
26.2200 1085.0000 1.0000
26.2300 1127.0000 1.0000
26.2400 1205.0000 1.0000
26.2500 1199.0000 1.0000
26.2600 1141.0000 1.0000
26.2700 1231.0000 1.0000
26.2800 1320.0000 1.0000
26.2900 1322.0000 1.0000
26.3000 1378.0000 1.0000
26.3100 1460.0000 1.0000
26.3200 1558.0000 1.0000
26.3300 1619.0000 1.0000
26.3400 1730.0000 1.0000
26.3500 1769.0000 1.0000
26.3600 1908.0000 1.0000
26.3700 2021.0000 1.0000
26.3800 2137.0000 1.0000
26.3900 2230.0000 1.0000
26.4000 2430.0000 1.0000
26.4100 2508.0000 1.0000
26.4200 2585.0000 1.0000
26.4300 2644.0000 1.0000
26.4400 2601.0000 1.0000
26.4500 2741.0000 1.0000
26.4600 2755.0000 1.0000
26.4700 2729.0000 1.0000
26.4800 2704.0000 1.0000
26.4900 2618.0000 1.0000
26.5000 2506.0000 1.0000
26.5100 2425.0000 1.0000
26.5200 2304.0000 1.0000
26.5300 2218.0000 1.0000
26.5400 2133.0000 1.0000
26.5500 2009.0000 1.0000
26.5600 1856.0000 1.0000
26.5700 1813.0000 1.0000
26.5800 1690.0000 1.0000
26.5900 1527.0000 1.0000
26.6000 1531.0000 1.0000
26.6100 1496.0000 1.0000
26.6200 1423.0000 1.0000
26.6300 1342.0000 1.0000
26.6400 1249.0000 1.0000
26.6500 1264.0000 1.0000
26.6600 1165.0000 1.0000
26.6700 1107.0000 1.0000
26.6800 1114.0000 1.0000
26.6900 1086.0000 1.0000
26.7000 1050.0000 1.0000
26.7100 1025.0000 1.0000
26.7200 1011.0000 1.0000
26.7300 1003.0000 1.0000
26.7400 959.0000 1.0000
26.7500 963.0000 1.0000
26.7600 940.0000 1.0000
26.7700 948.0000 1.0000
26.7800 920.0000 1.0000
26.7900 960.0000 1.0000
26.8000 908.0000 1.0000
26.8100 901.0000 1.0000
26.8200 877.0000 1.0000
26.8300 886.0000 1.0000
26.8400 861.0000 1.0000
26.8500 883.0000 1.0000
26.8600 857.0000 1.0000
26.8700 842.0000 1.0000
26.8800 827.0000 1.0000
26.8900 821.0000 1.0000
26.9000 868.0000 1.0000
26.9100 799.0000 1.0000
26.9200 839.0000 1.0000
26.9300 824.0000 1.0000
26.9400 771.0000 1.0000
26.9500 809.0000 1.0000
26.9600 761.0000 1.0000
26.9700 760.0000 1.0000
26.9800 779.0000 1.0000
26.9900 777.0000 1.0000
27.0000 761.0000 1.0000
27.0100 767.0000 1.0000
27.0200 794.0000 1.0000
27.0300 771.0000 1.0000
27.0400 756.0000 1.0000
27.0500 765.0000 1.0000
27.0600 695.0000 1.0000
27.0700 758.0000 1.0000
27.0800 747.0000 1.0000
27.0900 737.0000 1.0000
27.1000 727.0000 1.0000
27.1100 740.0000 1.0000
27.1200 750.0000 1.0000
27.1300 727.0000 1.0000
27.1400 691.0000 1.0000
27.1500 705.0000 1.0000
27.1600 765.0000 1.0000
27.1700 726.0000 1.0000
27.1800 732.0000 1.0000
27.1900 734.0000 1.0000
27.2000 742.0000 1.0000
27.2100 711.0000 1.0000
27.2200 701.0000 1.0000
27.2300 722.0000 1.0000
27.2400 730.0000 1.0000
27.2500 707.0000 1.0000
27.2600 694.0000 1.0000
27.2700 753.0000 1.0000
27.2800 715.0000 1.0000
27.2900 706.0000 1.0000
27.3000 706.0000 1.0000
27.3100 731.0000 1.0000
27.3200 745.0000 1.0000
27.3300 714.0000 1.0000
27.3400 690.0000 1.0000
27.3500 705.0000 1.0000
27.3600 704.0000 1.0000
27.3700 710.0000 1.0000
27.3800 714.0000 1.0000
27.3900 693.0000 1.0000
27.4000 693.0000 1.0000
27.4100 718.0000 1.0000
27.4200 714.0000 1.0000
27.4300 741.0000 1.0000
27.4400 671.0000 1.0000
27.4500 684.0000 1.0000
27.4600 723.0000 1.0000
27.4700 672.0000 1.0000
27.4800 690.0000 1.0000
27.4900 738.0000 1.0000
27.5000 690.0000 1.0000
27.5100 690.0000 1.0000
27.5200 723.0000 1.0000
27.5300 717.0000 1.0000
27.5400 715.0000 1.0000
27.5500 738.0000 1.0000
27.5600 705.0000 1.0000
27.5700 672.0000 1.0000
27.5800 708.0000 1.0000
27.5900 697.0000 1.0000
27.6000 696.0000 1.0000
27.6100 678.0000 1.0000
27.6200 706.0000 1.0000
27.6300 689.0000 1.0000
27.6400 663.0000 1.0000
27.6500 650.0000 1.0000
27.6600 670.0000 1.0000
27.6700 684.0000 1.0000
27.6800 688.0000 1.0000
27.6900 690.0000 1.0000
27.7000 706.0000 1.0000
27.7100 690.0000 1.0000
27.7200 697.0000 1.0000
27.7300 706.0000 1.0000
27.7400 673.0000 1.0000
27.7500 704.0000 1.0000
27.7600 704.0000 1.0000
27.7700 668.0000 1.0000
27.7800 653.0000 1.0000
27.7900 647.0000 1.0000
27.8000 700.0000 1.0000
27.8100 662.0000 1.0000
27.8200 640.0000 1.0000
27.8300 708.0000 1.0000
27.8400 711.0000 1.0000
27.8500 712.0000 1.0000
27.8600 708.0000 1.0000
27.8700 705.0000 1.0000
27.8800 693.0000 1.0000
27.8900 681.0000 1.0000
27.9000 660.0000 1.0000
27.9100 694.0000 1.0000
27.9200 701.0000 1.0000
27.9300 692.0000 1.0000
27.9400 618.0000 1.0000
27.9500 690.0000 1.0000
27.9600 682.0000 1.0000
27.9700 696.0000 1.0000
27.9800 663.0000 1.0000
27.9900 685.0000 1.0000
28.0000 685.0000 1.0000
28.0100 694.0000 1.0000
28.0200 637.0000 1.0000
28.0300 712.0000 1.0000
28.0400 699.0000 1.0000
28.0500 700.0000 1.0000
28.0600 692.0000 1.0000
28.0700 662.0000 1.0000
28.0800 720.0000 1.0000
28.0900 706.0000 1.0000
28.1000 696.0000 1.0000
28.1100 644.0000 1.0000
28.1200 675.0000 1.0000
28.1300 657.0000 1.0000
28.1400 662.0000 1.0000
28.1500 684.0000 1.0000
28.1600 657.0000 1.0000
28.1700 694.0000 1.0000
28.1800 672.0000 1.0000
28.1900 676.0000 1.0000
28.2000 674.0000 1.0000
28.2100 693.0000 1.0000
28.2200 627.0000 1.0000
28.2300 665.0000 1.0000
28.2400 623.0000 1.0000
28.2500 633.0000 1.0000
28.2600 672.0000 1.0000
28.2700 735.0000 1.0000
28.2800 673.0000 1.0000
28.2900 638.0000 1.0000
28.3000 638.0000 1.0000
28.3100 649.0000 1.0000
28.3200 667.0000 1.0000
28.3300 673.0000 1.0000
28.3400 631.0000 1.0000
28.3500 662.0000 1.0000
28.3600 691.0000 1.0000
28.3700 669.0000 1.0000
28.3800 651.0000 1.0000
28.3900 682.0000 1.0000
28.4000 676.0000 1.0000
28.4100 671.0000 1.0000
28.4200 643.0000 1.0000
28.4300 696.0000 1.0000
28.4400 656.0000 1.0000
28.4500 630.0000 1.0000
28.4600 616.0000 1.0000
28.4700 687.0000 1.0000
28.4800 669.0000 1.0000
28.4900 658.0000 1.0000
28.5000 675.0000 1.0000
28.5100 689.0000 1.0000
28.5200 672.0000 1.0000
28.5300 689.0000 1.0000
28.5400 659.0000 1.0000
28.5500 653.0000 1.0000
28.5600 691.0000 1.0000
28.5700 663.0000 1.0000
28.5800 689.0000 1.0000
28.5900 641.0000 1.0000
28.6000 657.0000 1.0000
28.6100 619.0000 1.0000
28.6200 655.0000 1.0000
28.6300 688.0000 1.0000
28.6400 628.0000 1.0000
28.6500 617.0000 1.0000
28.6600 620.0000 1.0000
28.6700 620.0000 1.0000
28.6800 655.0000 1.0000
28.6900 642.0000 1.0000
28.7000 628.0000 1.0000
28.7100 642.0000 1.0000
28.7200 661.0000 1.0000
28.7300 636.0000 1.0000
28.7400 627.0000 1.0000
28.7500 648.0000 1.0000
28.7600 675.0000 1.0000
28.7700 635.0000 1.0000
28.7800 615.0000 1.0000
28.7900 625.0000 1.0000
28.8000 646.0000 1.0000
28.8100 607.0000 1.0000
28.8200 641.0000 1.0000
28.8300 659.0000 1.0000
28.8400 658.0000 1.0000
28.8500 633.0000 1.0000
28.8600 646.0000 1.0000
28.8700 657.0000 1.0000
28.8800 630.0000 1.0000
28.8900 612.0000 1.0000
28.9000 580.0000 1.0000
28.9100 588.0000 1.0000
28.9200 634.0000 1.0000
28.9300 641.0000 1.0000
28.9400 642.0000 1.0000
28.9500 634.0000 1.0000
28.9600 648.0000 1.0000
28.9700 609.0000 1.0000
28.9800 620.0000 1.0000
28.9900 657.0000 1.0000
29.0000 630.0000 1.0000
29.0100 585.0000 1.0000
29.0200 627.0000 1.0000
29.0300 663.0000 1.0000
29.0400 647.0000 1.0000
29.0500 627.0000 1.0000
29.0600 644.0000 1.0000
29.0700 652.0000 1.0000
29.0800 653.0000 1.0000
29.0900 610.0000 1.0000
29.1000 618.0000 1.0000
29.1100 619.0000 1.0000
29.1200 652.0000 1.0000
29.1300 621.0000 1.0000
29.1400 633.0000 1.0000
29.1500 614.0000 1.0000
29.1600 636.0000 1.0000
29.1700 565.0000 1.0000
29.1800 616.0000 1.0000
29.1900 632.0000 1.0000
29.2000 628.0000 1.0000
29.2100 640.0000 1.0000
29.2200 646.0000 1.0000
29.2300 605.0000 1.0000
29.2400 634.0000 1.0000
29.2500 655.0000 1.0000
29.2600 624.0000 1.0000
29.2700 673.0000 1.0000
29.2800 631.0000 1.0000
29.2900 699.0000 1.0000
29.3000 655.0000 1.0000
29.3100 651.0000 1.0000
29.3200 656.0000 1.0000
29.3300 662.0000 1.0000
29.3400 597.0000 1.0000
29.3500 617.0000 1.0000
29.3600 634.0000 1.0000
29.3700 628.0000 1.0000
29.3800 629.0000 1.0000
29.3900 628.0000 1.0000
29.4000 622.0000 1.0000
29.4100 595.0000 1.0000
29.4200 580.0000 1.0000
29.4300 595.0000 1.0000
29.4400 642.0000 1.0000
29.4500 636.0000 1.0000
29.4600 599.0000 1.0000
29.4700 647.0000 1.0000
29.4800 653.0000 1.0000
29.4900 632.0000 1.0000
29.5000 628.0000 1.0000
29.5100 606.0000 1.0000
29.5200 618.0000 1.0000
29.5300 640.0000 1.0000
29.5400 647.0000 1.0000
29.5500 606.0000 1.0000
29.5600 654.0000 1.0000
29.5700 605.0000 1.0000
29.5800 641.0000 1.0000
29.5900 667.0000 1.0000
29.6000 660.0000 1.0000
29.6100 633.0000 1.0000
29.6200 589.0000 1.0000
29.6300 618.0000 1.0000
29.6400 645.0000 1.0000
29.6500 664.0000 1.0000
29.6600 632.0000 1.0000
29.6700 608.0000 1.0000
29.6800 612.0000 1.0000
29.6900 615.0000 1.0000
29.7000 627.0000 1.0000
29.7100 595.0000 1.0000
29.7200 674.0000 1.0000
29.7300 662.0000 1.0000
29.7400 608.0000 1.0000
29.7500 599.0000 1.0000
29.7600 582.0000 1.0000
29.7700 639.0000 1.0000
29.7800 615.0000 1.0000
29.7900 600.0000 1.0000
29.8000 611.0000 1.0000
29.8100 657.0000 1.0000
29.8200 609.0000 1.0000
29.8300 628.0000 1.0000
29.8400 595.0000 1.0000
29.8500 613.0000 1.0000
29.8600 579.0000 1.0000
29.8700 579.0000 1.0000
29.8800 631.0000 1.0000
29.8900 625.0000 1.0000
29.9000 606.0000 1.0000
29.9100 577.0000 1.0000
29.9200 607.0000 1.0000
29.9300 606.0000 1.0000
29.9400 592.0000 1.0000
29.9500 611.0000 1.0000
29.9600 640.0000 1.0000
29.9700 634.0000 1.0000
29.9800 610.0000 1.0000
29.9900 597.0000 1.0000
30.0000 600.0000 1.0000
30.0100 620.0000 1.0000
30.0200 634.0000 1.0000
30.0300 623.0000 1.0000
30.0400 639.0000 1.0000
30.0500 639.0000 1.0000
30.0600 559.0000 1.0000
30.0700 587.0000 1.0000
30.0800 592.0000 1.0000
30.0900 625.0000 1.0000
30.1000 532.0000 1.0000
30.1100 585.0000 1.0000
30.1200 588.0000 1.0000
30.1300 592.0000 1.0000
30.1400 632.0000 1.0000
30.1500 591.0000 1.0000
30.1600 632.0000 1.0000
30.1700 623.0000 1.0000
30.1800 614.0000 1.0000
30.1900 597.0000 1.0000
30.2000 597.0000 1.0000
30.2100 612.0000 1.0000
30.2200 618.0000 1.0000
30.2300 613.0000 1.0000
30.2400 636.0000 1.0000
30.2500 576.0000 1.0000
30.2600 600.0000 1.0000
30.2700 621.0000 1.0000
30.2800 635.0000 1.0000
30.2900 617.0000 1.0000
30.3000 630.0000 1.0000
30.3100 629.0000 1.0000
30.3200 614.0000 1.0000
30.3300 627.0000 1.0000
30.3400 627.0000 1.0000
30.3500 644.0000 1.0000
30.3600 626.0000 1.0000
30.3700 569.0000 1.0000
30.3800 598.0000 1.0000
30.3900 623.0000 1.0000
30.4000 603.0000 1.0000
30.4100 565.0000 1.0000
30.4200 566.0000 1.0000
30.4300 631.0000 1.0000
30.4400 631.0000 1.0000
30.4500 618.0000 1.0000
30.4600 641.0000 1.0000
30.4700 584.0000 1.0000
30.4800 631.0000 1.0000
30.4900 614.0000 1.0000
30.5000 610.0000 1.0000
30.5100 601.0000 1.0000
30.5200 577.0000 1.0000
30.5300 574.0000 1.0000
30.5400 548.0000 1.0000
30.5500 596.0000 1.0000
30.5600 609.0000 1.0000
30.5700 597.0000 1.0000
30.5800 621.0000 1.0000
30.5900 607.0000 1.0000
30.6000 588.0000 1.0000
30.6100 586.0000 1.0000
30.6200 573.0000 1.0000
30.6300 625.0000 1.0000
30.6400 596.0000 1.0000
30.6500 585.0000 1.0000
30.6600 584.0000 1.0000
30.6700 588.0000 1.0000
30.6800 620.0000 1.0000
30.6900 602.0000 1.0000
30.7000 595.0000 1.0000
30.7100 582.0000 1.0000
30.7200 594.0000 1.0000
30.7300 582.0000 1.0000
30.7400 577.0000 1.0000
30.7500 574.0000 1.0000
30.7600 573.0000 1.0000
30.7700 580.0000 1.0000
30.7800 564.0000 1.0000
30.7900 590.0000 1.0000
30.8000 629.0000 1.0000
30.8100 599.0000 1.0000
30.8200 600.0000 1.0000
30.8300 627.0000 1.0000
30.8400 608.0000 1.0000
30.8500 586.0000 1.0000
30.8600 586.0000 1.0000
30.8700 582.0000 1.0000
30.8800 616.0000 1.0000
30.8900 557.0000 1.0000
30.9000 556.0000 1.0000
30.9100 543.0000 1.0000
30.9200 648.0000 1.0000
30.9300 577.0000 1.0000
30.9400 538.0000 1.0000
30.9500 562.0000 1.0000
30.9600 572.0000 1.0000
30.9700 617.0000 1.0000
30.9800 592.0000 1.0000
30.9900 612.0000 1.0000
31.0000 574.0000 1.0000
31.0100 564.0000 1.0000
31.0200 587.0000 1.0000
31.0300 593.0000 1.0000
31.0400 605.0000 1.0000
31.0500 555.0000 1.0000
31.0600 588.0000 1.0000
31.0700 578.0000 1.0000
31.0800 556.0000 1.0000
31.0900 610.0000 1.0000
31.1000 629.0000 1.0000
31.1100 588.0000 1.0000
31.1200 554.0000 1.0000
31.1300 589.0000 1.0000
31.1400 613.0000 1.0000
31.1500 588.0000 1.0000
31.1600 564.0000 1.0000
31.1700 600.0000 1.0000
31.1800 574.0000 1.0000
31.1900 614.0000 1.0000
31.2000 610.0000 1.0000
31.2100 588.0000 1.0000
31.2200 594.0000 1.0000
31.2300 595.0000 1.0000
31.2400 584.0000 1.0000
31.2500 568.0000 1.0000
31.2600 552.0000 1.0000
31.2700 559.0000 1.0000
31.2800 597.0000 1.0000
31.2900 598.0000 1.0000
31.3000 594.0000 1.0000
31.3100 611.0000 1.0000
31.3200 619.0000 1.0000
31.3300 589.0000 1.0000
31.3400 558.0000 1.0000
31.3500 543.0000 1.0000
31.3600 568.0000 1.0000
31.3700 591.0000 1.0000
31.3800 554.0000 1.0000
31.3900 540.0000 1.0000
31.4000 597.0000 1.0000
31.4100 602.0000 1.0000
31.4200 614.0000 1.0000
31.4300 594.0000 1.0000
31.4400 570.0000 1.0000
31.4500 545.0000 1.0000
31.4600 589.0000 1.0000
31.4700 574.0000 1.0000
31.4800 567.0000 1.0000
31.4900 578.0000 1.0000
31.5000 545.0000 1.0000
31.5100 586.0000 1.0000
31.5200 611.0000 1.0000
31.5300 559.0000 1.0000
31.5400 559.0000 1.0000
31.5500 594.0000 1.0000
31.5600 602.0000 1.0000
31.5700 579.0000 1.0000
31.5800 563.0000 1.0000
31.5900 574.0000 1.0000
31.6000 569.0000 1.0000
31.6100 606.0000 1.0000
31.6200 569.0000 1.0000
31.6300 578.0000 1.0000
31.6400 597.0000 1.0000
31.6500 576.0000 1.0000
31.6600 579.0000 1.0000
31.6700 580.0000 1.0000
31.6800 580.0000 1.0000
31.6900 565.0000 1.0000
31.7000 599.0000 1.0000
31.7100 552.0000 1.0000
31.7200 569.0000 1.0000
31.7300 523.0000 1.0000
31.7400 588.0000 1.0000
31.7500 604.0000 1.0000
31.7600 555.0000 1.0000
31.7700 496.0000 1.0000
31.7800 563.0000 1.0000
31.7900 568.0000 1.0000
31.8000 556.0000 1.0000
31.8100 575.0000 1.0000
31.8200 625.0000 1.0000
31.8300 606.0000 1.0000
31.8400 593.0000 1.0000
31.8500 588.0000 1.0000
31.8600 549.0000 1.0000
31.8700 570.0000 1.0000
31.8800 559.0000 1.0000
31.8900 570.0000 1.0000
31.9000 549.0000 1.0000
31.9100 539.0000 1.0000
31.9200 569.0000 1.0000
31.9300 580.0000 1.0000
31.9400 540.0000 1.0000
31.9500 572.0000 1.0000
31.9600 548.0000 1.0000
31.9700 586.0000 1.0000
31.9800 585.0000 1.0000
31.9900 584.0000 1.0000
32.0000 555.0000 1.0000
32.0100 561.0000 1.0000
32.0200 557.0000 1.0000
32.0300 597.0000 1.0000
32.0400 596.0000 1.0000
32.0500 574.0000 1.0000
32.0600 545.0000 1.0000
32.0700 550.0000 1.0000
32.0800 567.0000 1.0000
32.0900 590.0000 1.0000
32.1000 544.0000 1.0000
32.1100 546.0000 1.0000
32.1200 520.0000 1.0000
32.1300 513.0000 1.0000
32.1400 545.0000 1.0000
32.1500 532.0000 1.0000
32.1600 540.0000 1.0000
32.1700 571.0000 1.0000
32.1800 566.0000 1.0000
32.1900 557.0000 1.0000
32.2000 542.0000 1.0000
32.2100 535.0000 1.0000
32.2200 544.0000 1.0000
32.2300 548.0000 1.0000
32.2400 588.0000 1.0000
32.2500 572.0000 1.0000
32.2600 559.0000 1.0000
32.2700 549.0000 1.0000
32.2800 521.0000 1.0000
32.2900 564.0000 1.0000
32.3000 542.0000 1.0000
32.3100 554.0000 1.0000
32.3200 546.0000 1.0000
32.3300 586.0000 1.0000
32.3400 549.0000 1.0000
32.3500 512.0000 1.0000
32.3600 522.0000 1.0000
32.3700 570.0000 1.0000
32.3800 580.0000 1.0000
32.3900 524.0000 1.0000
32.4000 528.0000 1.0000
32.4100 563.0000 1.0000
32.4200 556.0000 1.0000
32.4300 547.0000 1.0000
32.4400 558.0000 1.0000
32.4500 527.0000 1.0000
32.4600 545.0000 1.0000
32.4700 550.0000 1.0000
32.4800 583.0000 1.0000
32.4900 534.0000 1.0000
32.5000 565.0000 1.0000
32.5100 633.0000 1.0000
32.5200 585.0000 1.0000
32.5300 543.0000 1.0000
32.5400 547.0000 1.0000
32.5500 576.0000 1.0000
32.5600 582.0000 1.0000
32.5700 569.0000 1.0000
32.5800 558.0000 1.0000
32.5900 559.0000 1.0000
32.6000 546.0000 1.0000
32.6100 545.0000 1.0000
32.6200 577.0000 1.0000
32.6300 509.0000 1.0000
32.6400 585.0000 1.0000
32.6500 560.0000 1.0000
32.6600 548.0000 1.0000
32.6700 556.0000 1.0000
32.6800 521.0000 1.0000
32.6900 539.0000 1.0000
32.7000 537.0000 1.0000
32.7100 561.0000 1.0000
32.7200 516.0000 1.0000
32.7300 558.0000 1.0000
32.7400 550.0000 1.0000
32.7500 564.0000 1.0000
32.7600 524.0000 1.0000
32.7700 545.0000 1.0000
32.7800 574.0000 1.0000
32.7900 539.0000 1.0000
32.8000 530.0000 1.0000
32.8100 553.0000 1.0000
32.8200 544.0000 1.0000
32.8300 533.0000 1.0000
32.8400 526.0000 1.0000
32.8500 528.0000 1.0000
32.8600 570.0000 1.0000
32.8700 543.0000 1.0000
32.8800 571.0000 1.0000
32.8900 558.0000 1.0000
32.9000 551.0000 1.0000
32.9100 545.0000 1.0000
32.9200 542.0000 1.0000
32.9300 588.0000 1.0000
32.9400 588.0000 1.0000
32.9500 587.0000 1.0000
32.9600 590.0000 1.0000
32.9700 591.0000 1.0000
32.9800 546.0000 1.0000
32.9900 580.0000 1.0000
33.0000 607.0000 1.0000
33.0100 596.0000 1.0000
33.0200 665.0000 1.0000
33.0300 659.0000 1.0000
33.0400 604.0000 1.0000
33.0500 640.0000 1.0000
33.0600 681.0000 1.0000
33.0700 617.0000 1.0000
33.0800 705.0000 1.0000
33.0900 682.0000 1.0000
33.1000 661.0000 1.0000
33.1100 672.0000 1.0000
33.1200 619.0000 1.0000
33.1300 700.0000 1.0000
33.1400 670.0000 1.0000
33.1500 692.0000 1.0000
33.1600 649.0000 1.0000
33.1700 632.0000 1.0000
33.1800 648.0000 1.0000
33.1900 656.0000 1.0000
33.2000 634.0000 1.0000
33.2100 652.0000 1.0000
33.2200 655.0000 1.0000
33.2300 667.0000 1.0000
33.2400 632.0000 1.0000
33.2500 603.0000 1.0000
33.2600 610.0000 1.0000
33.2700 603.0000 1.0000
33.2800 610.0000 1.0000
33.2900 607.0000 1.0000
33.3000 586.0000 1.0000
33.3100 627.0000 1.0000
33.3200 642.0000 1.0000
33.3300 617.0000 1.0000
33.3400 650.0000 1.0000
33.3500 634.0000 1.0000
33.3600 662.0000 1.0000
33.3700 647.0000 1.0000
33.3800 657.0000 1.0000
33.3900 658.0000 1.0000
33.4000 656.0000 1.0000
33.4100 680.0000 1.0000
33.4200 710.0000 1.0000
33.4300 702.0000 1.0000
33.4400 745.0000 1.0000
33.4500 687.0000 1.0000
33.4600 685.0000 1.0000
33.4700 728.0000 1.0000
33.4800 728.0000 1.0000
33.4900 769.0000 1.0000
33.5000 806.0000 1.0000
33.5100 830.0000 1.0000
33.5200 789.0000 1.0000
33.5300 875.0000 1.0000
33.5400 923.0000 1.0000
33.5500 931.0000 1.0000
33.5600 969.0000 1.0000
33.5700 1085.0000 1.0000
33.5800 1060.0000 1.0000
33.5900 1077.0000 1.0000
33.6000 1195.0000 1.0000
33.6100 1226.0000 1.0000
33.6200 1280.0000 1.0000
33.6300 1327.0000 1.0000
33.6400 1294.0000 1.0000
33.6500 1382.0000 1.0000
33.6600 1368.0000 1.0000
33.6700 1416.0000 1.0000
33.6800 1355.0000 1.0000
33.6900 1345.0000 1.0000
33.7000 1288.0000 1.0000
33.7100 1280.0000 1.0000
33.7200 1369.0000 1.0000
33.7300 1185.0000 1.0000
33.7400 1198.0000 1.0000
33.7500 1126.0000 1.0000
33.7600 1109.0000 1.0000
33.7700 1061.0000 1.0000
33.7800 1012.0000 1.0000
33.7900 960.0000 1.0000
33.8000 959.0000 1.0000
33.8100 949.0000 1.0000
33.8200 855.0000 1.0000
33.8300 804.0000 1.0000
33.8400 811.0000 1.0000
33.8500 797.0000 1.0000
33.8600 767.0000 1.0000
33.8700 724.0000 1.0000
33.8800 760.0000 1.0000
33.8900 722.0000 1.0000
33.9000 692.0000 1.0000
33.9100 755.0000 1.0000
33.9200 703.0000 1.0000
33.9300 674.0000 1.0000
33.9400 650.0000 1.0000
33.9500 618.0000 1.0000
33.9600 633.0000 1.0000
33.9700 624.0000 1.0000
33.9800 618.0000 1.0000
33.9900 614.0000 1.0000
34.0000 606.0000 1.0000
34.0100 646.0000 1.0000
34.0200 596.0000 1.0000
34.0300 618.0000 1.0000
34.0400 586.0000 1.0000
34.0500 590.0000 1.0000
34.0600 584.0000 1.0000
34.0700 553.0000 1.0000
34.0800 534.0000 1.0000
34.0900 577.0000 1.0000
34.1000 587.0000 1.0000
34.1100 516.0000 1.0000
34.1200 559.0000 1.0000
34.1300 578.0000 1.0000
34.1400 543.0000 1.0000
34.1500 536.0000 1.0000
34.1600 556.0000 1.0000
34.1700 526.0000 1.0000
34.1800 513.0000 1.0000
34.1900 542.0000 1.0000
34.2000 534.0000 1.0000
34.2100 529.0000 1.0000
34.2200 534.0000 1.0000
34.2300 511.0000 1.0000
34.2400 552.0000 1.0000
34.2500 536.0000 1.0000
34.2600 530.0000 1.0000
34.2700 551.0000 1.0000
34.2800 531.0000 1.0000
34.2900 524.0000 1.0000
34.3000 551.0000 1.0000
34.3100 536.0000 1.0000
34.3200 539.0000 1.0000
34.3300 507.0000 1.0000
34.3400 507.0000 1.0000
34.3500 491.0000 1.0000
34.3600 514.0000 1.0000
34.3700 521.0000 1.0000
34.3800 514.0000 1.0000
34.3900 459.0000 1.0000
34.4000 502.0000 1.0000
34.4100 508.0000 1.0000
34.4200 498.0000 1.0000
34.4300 487.0000 1.0000
34.4400 500.0000 1.0000
34.4500 516.0000 1.0000
34.4600 522.0000 1.0000
34.4700 544.0000 1.0000
34.4800 497.0000 1.0000
34.4900 511.0000 1.0000
34.5000 498.0000 1.0000
34.5100 510.0000 1.0000
34.5200 496.0000 1.0000
34.5300 462.0000 1.0000
34.5400 541.0000 1.0000
34.5500 532.0000 1.0000
34.5600 510.0000 1.0000
34.5700 520.0000 1.0000
34.5800 482.0000 1.0000
34.5900 493.0000 1.0000
34.6000 522.0000 1.0000
34.6100 488.0000 1.0000
34.6200 468.0000 1.0000
34.6300 516.0000 1.0000
34.6400 503.0000 1.0000
34.6500 500.0000 1.0000
34.6600 474.0000 1.0000
34.6700 475.0000 1.0000
34.6800 486.0000 1.0000
34.6900 490.0000 1.0000
34.7000 489.0000 1.0000
34.7100 490.0000 1.0000
34.7200 492.0000 1.0000
34.7300 508.0000 1.0000
34.7400 507.0000 1.0000
34.7500 497.0000 1.0000
34.7600 523.0000 1.0000
34.7700 512.0000 1.0000
34.7800 491.0000 1.0000
34.7900 516.0000 1.0000
34.8000 485.0000 1.0000
34.8100 477.0000 1.0000
34.8200 497.0000 1.0000
34.8300 478.0000 1.0000
34.8400 473.0000 1.0000
34.8500 467.0000 1.0000
34.8600 459.0000 1.0000
34.8700 477.0000 1.0000
34.8800 457.0000 1.0000
34.8900 472.0000 1.0000
34.9000 474.0000 1.0000
34.9100 484.0000 1.0000
34.9200 477.0000 1.0000
34.9300 475.0000 1.0000
34.9400 508.0000 1.0000
34.9500 502.0000 1.0000
34.9600 487.0000 1.0000
34.9700 499.0000 1.0000
34.9800 433.0000 1.0000
34.9900 446.0000 1.0000
35.0000 476.0000 1.0000
35.0100 491.0000 1.0000
35.0200 469.0000 1.0000
35.0300 489.0000 1.0000
35.0400 451.0000 1.0000
35.0500 488.0000 1.0000
35.0600 472.0000 1.0000
35.0700 487.0000 1.0000
35.0800 471.0000 1.0000
35.0900 463.0000 1.0000
35.1000 446.0000 1.0000
35.1100 485.0000 1.0000
35.1200 494.0000 1.0000
35.1300 463.0000 1.0000
35.1400 464.0000 1.0000
35.1500 521.0000 1.0000
35.1600 476.0000 1.0000
35.1700 477.0000 1.0000
35.1800 467.0000 1.0000
35.1900 483.0000 1.0000
35.2000 515.0000 1.0000
35.2100 466.0000 1.0000
35.2200 505.0000 1.0000
35.2300 471.0000 1.0000
35.2400 475.0000 1.0000
35.2500 462.0000 1.0000
35.2600 490.0000 1.0000
35.2700 495.0000 1.0000
35.2800 495.0000 1.0000
35.2900 490.0000 1.0000
35.3000 508.0000 1.0000
35.3100 512.0000 1.0000
35.3200 521.0000 1.0000
35.3300 535.0000 1.0000
35.3400 524.0000 1.0000
35.3500 528.0000 1.0000
35.3600 499.0000 1.0000
35.3700 557.0000 1.0000
35.3800 500.0000 1.0000
35.3900 569.0000 1.0000
35.4000 537.0000 1.0000
35.4100 549.0000 1.0000
35.4200 587.0000 1.0000
35.4300 620.0000 1.0000
35.4400 596.0000 1.0000
35.4500 638.0000 1.0000
35.4600 640.0000 1.0000
35.4700 641.0000 1.0000
35.4800 652.0000 1.0000
35.4900 700.0000 1.0000
35.5000 726.0000 1.0000
35.5100 724.0000 1.0000
35.5200 782.0000 1.0000
35.5300 809.0000 1.0000
35.5400 793.0000 1.0000
35.5500 865.0000 1.0000
35.5600 881.0000 1.0000
35.5700 871.0000 1.0000
35.5800 944.0000 1.0000
35.5900 869.0000 1.0000
35.6000 890.0000 1.0000
35.6100 878.0000 1.0000
35.6200 821.0000 1.0000
35.6300 836.0000 1.0000
35.6400 834.0000 1.0000
35.6500 799.0000 1.0000
35.6600 804.0000 1.0000
35.6700 783.0000 1.0000
35.6800 733.0000 1.0000
35.6900 736.0000 1.0000
35.7000 683.0000 1.0000
35.7100 686.0000 1.0000
35.7200 692.0000 1.0000
35.7300 683.0000 1.0000
35.7400 642.0000 1.0000
35.7500 585.0000 1.0000
35.7600 567.0000 1.0000
35.7700 573.0000 1.0000
35.7800 516.0000 1.0000
35.7900 542.0000 1.0000
35.8000 521.0000 1.0000
35.8100 532.0000 1.0000
35.8200 508.0000 1.0000
35.8300 498.0000 1.0000
35.8400 512.0000 1.0000
35.8500 456.0000 1.0000
35.8600 500.0000 1.0000
35.8700 486.0000 1.0000
35.8800 486.0000 1.0000
35.8900 486.0000 1.0000
35.9000 512.0000 1.0000
35.9100 458.0000 1.0000
35.9200 451.0000 1.0000
35.9300 474.0000 1.0000
35.9400 442.0000 1.0000
35.9500 445.0000 1.0000
35.9600 463.0000 1.0000
35.9700 440.0000 1.0000
35.9800 460.0000 1.0000
35.9900 499.0000 1.0000
36.0000 438.0000 1.0000
36.0100 458.0000 1.0000
36.0200 460.0000 1.0000
36.0300 451.0000 1.0000
36.0400 458.0000 1.0000
36.0500 451.0000 1.0000
36.0600 442.0000 1.0000
36.0700 482.0000 1.0000
36.0800 472.0000 1.0000
36.0900 434.0000 1.0000
36.1000 464.0000 1.0000
36.1100 449.0000 1.0000
36.1200 442.0000 1.0000
36.1300 418.0000 1.0000
36.1400 472.0000 1.0000
36.1500 478.0000 1.0000
36.1600 458.0000 1.0000
36.1700 442.0000 1.0000
36.1800 438.0000 1.0000
36.1900 458.0000 1.0000
36.2000 440.0000 1.0000
36.2100 473.0000 1.0000
36.2200 441.0000 1.0000
36.2300 398.0000 1.0000
36.2400 440.0000 1.0000
36.2500 441.0000 1.0000
36.2600 435.0000 1.0000
36.2700 454.0000 1.0000
36.2800 453.0000 1.0000
36.2900 455.0000 1.0000
36.3000 447.0000 1.0000
36.3100 442.0000 1.0000
36.3200 427.0000 1.0000
36.3300 426.0000 1.0000
36.3400 428.0000 1.0000
36.3500 437.0000 1.0000
36.3600 420.0000 1.0000
36.3700 454.0000 1.0000
36.3800 441.0000 1.0000
36.3900 463.0000 1.0000
36.4000 430.0000 1.0000
36.4100 403.0000 1.0000
36.4200 444.0000 1.0000
36.4300 460.0000 1.0000
36.4400 472.0000 1.0000
36.4500 454.0000 1.0000
36.4600 437.0000 1.0000
36.4700 468.0000 1.0000
36.4800 408.0000 1.0000
36.4900 441.0000 1.0000
36.5000 440.0000 1.0000
36.5100 417.0000 1.0000
36.5200 400.0000 1.0000
36.5300 410.0000 1.0000
36.5400 457.0000 1.0000
36.5500 428.0000 1.0000
36.5600 409.0000 1.0000
36.5700 462.0000 1.0000
36.5800 441.0000 1.0000
36.5900 406.0000 1.0000
36.6000 411.0000 1.0000
36.6100 442.0000 1.0000
36.6200 434.0000 1.0000
36.6300 436.0000 1.0000
36.6400 451.0000 1.0000
36.6500 424.0000 1.0000
36.6600 460.0000 1.0000
36.6700 459.0000 1.0000
36.6800 472.0000 1.0000
36.6900 445.0000 1.0000
36.7000 445.0000 1.0000
36.7100 449.0000 1.0000
36.7200 430.0000 1.0000
36.7300 428.0000 1.0000
36.7400 421.0000 1.0000
36.7500 466.0000 1.0000
36.7600 406.0000 1.0000
36.7700 388.0000 1.0000
36.7800 448.0000 1.0000
36.7900 437.0000 1.0000
36.8000 456.0000 1.0000
36.8100 426.0000 1.0000
36.8200 464.0000 1.0000
36.8300 483.0000 1.0000
36.8400 453.0000 1.0000
36.8500 469.0000 1.0000
36.8600 450.0000 1.0000
36.8700 441.0000 1.0000
36.8800 473.0000 1.0000
36.8900 431.0000 1.0000
36.9000 406.0000 1.0000
36.9100 477.0000 1.0000
36.9200 436.0000 1.0000
36.9300 454.0000 1.0000
36.9400 441.0000 1.0000
36.9500 456.0000 1.0000
36.9600 454.0000 1.0000
36.9700 450.0000 1.0000
36.9800 435.0000 1.0000
36.9900 402.0000 1.0000
37.0000 406.0000 1.0000
37.0100 432.0000 1.0000
37.0200 443.0000 1.0000
37.0300 468.0000 1.0000
37.0400 403.0000 1.0000
37.0500 484.0000 1.0000
37.0600 438.0000 1.0000
37.0700 474.0000 1.0000
37.0800 450.0000 1.0000
37.0900 452.0000 1.0000
37.1000 454.0000 1.0000
37.1100 461.0000 1.0000
37.1200 433.0000 1.0000
37.1300 445.0000 1.0000
37.1400 468.0000 1.0000
37.1500 460.0000 1.0000
37.1600 448.0000 1.0000
37.1700 458.0000 1.0000
37.1800 456.0000 1.0000
37.1900 476.0000 1.0000
37.2000 471.0000 1.0000
37.2100 459.0000 1.0000
37.2200 439.0000 1.0000
37.2300 423.0000 1.0000
37.2400 410.0000 1.0000
37.2500 457.0000 1.0000
37.2600 449.0000 1.0000
37.2700 500.0000 1.0000
37.2800 503.0000 1.0000
37.2900 496.0000 1.0000
37.3000 492.0000 1.0000
37.3100 484.0000 1.0000
37.3200 491.0000 1.0000
37.3300 520.0000 1.0000
37.3400 532.0000 1.0000
37.3500 497.0000 1.0000
37.3600 537.0000 1.0000
37.3700 558.0000 1.0000
37.3800 535.0000 1.0000
37.3900 515.0000 1.0000
37.4000 531.0000 1.0000
37.4100 612.0000 1.0000
37.4200 620.0000 1.0000
37.4300 621.0000 1.0000
37.4400 631.0000 1.0000
37.4500 655.0000 1.0000
37.4600 672.0000 1.0000
37.4700 687.0000 1.0000
37.4800 758.0000 1.0000
37.4900 772.0000 1.0000
37.5000 774.0000 1.0000
37.5100 812.0000 1.0000
37.5200 857.0000 1.0000
37.5300 889.0000 1.0000
37.5400 925.0000 1.0000
37.5500 942.0000 1.0000
37.5600 1011.0000 1.0000
37.5700 1051.0000 1.0000
37.5800 1147.0000 1.0000
37.5900 1232.0000 1.0000
37.6000 1388.0000 1.0000
37.6100 1426.0000 1.0000
37.6200 1552.0000 1.0000
37.6300 1589.0000 1.0000
37.6400 1676.0000 1.0000
37.6500 1698.0000 1.0000
37.6600 1842.0000 1.0000
37.6700 1966.0000 1.0000
37.6800 1980.0000 1.0000
37.6900 2107.0000 1.0000
37.7000 2118.0000 1.0000
37.7100 2191.0000 1.0000
37.7200 2129.0000 1.0000
37.7300 2283.0000 1.0000
37.7400 2185.0000 1.0000
37.7500 2219.0000 1.0000
37.7600 2156.0000 1.0000
37.7700 2164.0000 1.0000
37.7800 2024.0000 1.0000
37.7900 1903.0000 1.0000
37.8000 1898.0000 1.0000
37.8100 1812.0000 1.0000
37.8200 1701.0000 1.0000
37.8300 1613.0000 1.0000
37.8400 1557.0000 1.0000
37.8500 1476.0000 1.0000
37.8600 1452.0000 1.0000
37.8700 1322.0000 1.0000
37.8800 1259.0000 1.0000
37.8900 1149.0000 1.0000
37.9000 1110.0000 1.0000
37.9100 1090.0000 1.0000
37.9200 962.0000 1.0000
37.9300 952.0000 1.0000
37.9400 927.0000 1.0000
37.9500 860.0000 1.0000
37.9600 790.0000 1.0000
37.9700 776.0000 1.0000
37.9800 694.0000 1.0000
37.9900 674.0000 1.0000
38.0000 670.0000 1.0000
38.0100 608.0000 1.0000
38.0200 628.0000 1.0000
38.0300 616.0000 1.0000
38.0400 607.0000 1.0000
38.0500 569.0000 1.0000
38.0600 520.0000 1.0000
38.0700 563.0000 1.0000
38.0800 506.0000 1.0000
38.0900 525.0000 1.0000
38.1000 520.0000 1.0000
38.1100 508.0000 1.0000
38.1200 515.0000 1.0000
38.1300 508.0000 1.0000
38.1400 491.0000 1.0000
38.1500 483.0000 1.0000
38.1600 462.0000 1.0000
38.1700 456.0000 1.0000
38.1800 477.0000 1.0000
38.1900 452.0000 1.0000
38.2000 462.0000 1.0000
38.2100 451.0000 1.0000
38.2200 456.0000 1.0000
38.2300 443.0000 1.0000
38.2400 429.0000 1.0000
38.2500 398.0000 1.0000
38.2600 398.0000 1.0000
38.2700 426.0000 1.0000
38.2800 418.0000 1.0000
38.2900 436.0000 1.0000
38.3000 455.0000 1.0000
38.3100 403.0000 1.0000
38.3200 407.0000 1.0000
38.3300 402.0000 1.0000
38.3400 413.0000 1.0000
38.3500 435.0000 1.0000
38.3600 427.0000 1.0000
38.3700 413.0000 1.0000
38.3800 437.0000 1.0000
38.3900 429.0000 1.0000
38.4000 433.0000 1.0000
38.4100 423.0000 1.0000
38.4200 423.0000 1.0000
38.4300 400.0000 1.0000
38.4400 410.0000 1.0000
38.4500 428.0000 1.0000
38.4600 423.0000 1.0000
38.4700 385.0000 1.0000
38.4800 400.0000 1.0000
38.4900 384.0000 1.0000
38.5000 418.0000 1.0000
38.5100 429.0000 1.0000
38.5200 427.0000 1.0000
38.5300 419.0000 1.0000
38.5400 381.0000 1.0000
38.5500 395.0000 1.0000
38.5600 367.0000 1.0000
38.5700 396.0000 1.0000
38.5800 436.0000 1.0000
38.5900 448.0000 1.0000
38.6000 409.0000 1.0000
38.6100 405.0000 1.0000
38.6200 430.0000 1.0000
38.6300 365.0000 1.0000
38.6400 410.0000 1.0000
38.6500 384.0000 1.0000
38.6600 420.0000 1.0000
38.6700 385.0000 1.0000
38.6800 417.0000 1.0000
38.6900 463.0000 1.0000
38.7000 428.0000 1.0000
38.7100 417.0000 1.0000
38.7200 420.0000 1.0000
38.7300 376.0000 1.0000
38.7400 420.0000 1.0000
38.7500 419.0000 1.0000
38.7600 415.0000 1.0000
38.7700 430.0000 1.0000
38.7800 426.0000 1.0000
38.7900 397.0000 1.0000
38.8000 423.0000 1.0000
38.8100 432.0000 1.0000
38.8200 407.0000 1.0000
38.8300 436.0000 1.0000
38.8400 425.0000 1.0000
38.8500 429.0000 1.0000
38.8600 404.0000 1.0000
38.8700 412.0000 1.0000
38.8800 437.0000 1.0000
38.8900 430.0000 1.0000
38.9000 424.0000 1.0000
38.9100 382.0000 1.0000
38.9200 351.0000 1.0000
38.9300 382.0000 1.0000
38.9400 412.0000 1.0000
38.9500 373.0000 1.0000
38.9600 373.0000 1.0000
38.9700 405.0000 1.0000
38.9800 377.0000 1.0000
38.9900 385.0000 1.0000
39.0000 404.0000 1.0000
39.0100 401.0000 1.0000
39.0200 391.0000 1.0000
39.0300 403.0000 1.0000
39.0400 374.0000 1.0000
39.0500 383.0000 1.0000
39.0600 385.0000 1.0000
39.0700 379.0000 1.0000
39.0800 390.0000 1.0000
39.0900 382.0000 1.0000
39.1000 389.0000 1.0000
39.1100 355.0000 1.0000
39.1200 363.0000 1.0000
39.1300 357.0000 1.0000
39.1400 390.0000 1.0000
39.1500 355.0000 1.0000
39.1600 384.0000 1.0000
39.1700 387.0000 1.0000
39.1800 369.0000 1.0000
39.1900 393.0000 1.0000
39.2000 366.0000 1.0000
39.2100 379.0000 1.0000
39.2200 363.0000 1.0000
39.2300 381.0000 1.0000
39.2400 374.0000 1.0000
39.2500 397.0000 1.0000
39.2600 381.0000 1.0000
39.2700 397.0000 1.0000
39.2800 364.0000 1.0000
39.2900 361.0000 1.0000
39.3000 376.0000 1.0000
39.3100 381.0000 1.0000
39.3200 397.0000 1.0000
39.3300 368.0000 1.0000
39.3400 387.0000 1.0000
39.3500 365.0000 1.0000
39.3600 335.0000 1.0000
39.3700 370.0000 1.0000
39.3800 341.0000 1.0000
39.3900 367.0000 1.0000
39.4000 420.0000 1.0000
39.4100 373.0000 1.0000
39.4200 370.0000 1.0000
39.4300 364.0000 1.0000
39.4400 348.0000 1.0000
39.4500 365.0000 1.0000
39.4600 382.0000 1.0000
39.4700 325.0000 1.0000
39.4800 370.0000 1.0000
39.4900 372.0000 1.0000
39.5000 384.0000 1.0000
39.5100 400.0000 1.0000
39.5200 386.0000 1.0000
39.5300 394.0000 1.0000
39.5400 395.0000 1.0000
39.5500 375.0000 1.0000
39.5600 372.0000 1.0000
39.5700 398.0000 1.0000
39.5800 377.0000 1.0000
39.5900 378.0000 1.0000
39.6000 370.0000 1.0000
39.6100 345.0000 1.0000
39.6200 377.0000 1.0000
39.6300 389.0000 1.0000
39.6400 364.0000 1.0000
39.6500 366.0000 1.0000
39.6600 395.0000 1.0000
39.6700 364.0000 1.0000
39.6800 379.0000 1.0000
39.6900 369.0000 1.0000
39.7000 378.0000 1.0000
39.7100 363.0000 1.0000
39.7200 392.0000 1.0000
39.7300 379.0000 1.0000
39.7400 365.0000 1.0000
39.7500 374.0000 1.0000
39.7600 387.0000 1.0000
39.7700 360.0000 1.0000
39.7800 368.0000 1.0000
39.7900 368.0000 1.0000
39.8000 340.0000 1.0000
39.8100 355.0000 1.0000
39.8200 373.0000 1.0000
39.8300 331.0000 1.0000
39.8400 346.0000 1.0000
39.8500 367.0000 1.0000
39.8600 362.0000 1.0000
39.8700 362.0000 1.0000
39.8800 341.0000 1.0000
39.8900 374.0000 1.0000
39.9000 378.0000 1.0000
39.9100 353.0000 1.0000
39.9200 346.0000 1.0000
39.9300 347.0000 1.0000
39.9400 369.0000 1.0000
39.9500 381.0000 1.0000
39.9600 354.0000 1.0000
39.9700 358.0000 1.0000
39.9800 363.0000 1.0000
39.9900 376.0000 1.0000
40.0000 381.0000 1.0000
40.0100 376.0000 1.0000
40.0200 356.0000 1.0000
40.0300 388.0000 1.0000
40.0400 363.0000 1.0000
40.0500 390.0000 1.0000
40.0600 368.0000 1.0000
40.0700 353.0000 1.0000
40.0800 319.0000 1.0000
40.0900 377.0000 1.0000
40.1000 362.0000 1.0000
40.1100 384.0000 1.0000
40.1200 371.0000 1.0000
40.1300 354.0000 1.0000
40.1400 364.0000 1.0000
40.1500 365.0000 1.0000
40.1600 369.0000 1.0000
40.1700 352.0000 1.0000
40.1800 371.0000 1.0000
40.1900 375.0000 1.0000
40.2000 368.0000 1.0000
40.2100 401.0000 1.0000
40.2200 403.0000 1.0000
40.2300 380.0000 1.0000
40.2400 339.0000 1.0000
40.2500 347.0000 1.0000
40.2600 361.0000 1.0000
40.2700 352.0000 1.0000
40.2800 402.0000 1.0000
40.2900 371.0000 1.0000
40.3000 352.0000 1.0000
40.3100 363.0000 1.0000
40.3200 395.0000 1.0000
40.3300 366.0000 1.0000
40.3400 374.0000 1.0000
40.3500 343.0000 1.0000
40.3600 348.0000 1.0000
40.3700 356.0000 1.0000
40.3800 344.0000 1.0000
40.3900 342.0000 1.0000
40.4000 362.0000 1.0000
40.4100 338.0000 1.0000
40.4200 374.0000 1.0000
40.4300 343.0000 1.0000
40.4400 332.0000 1.0000
40.4500 369.0000 1.0000
40.4600 373.0000 1.0000
40.4700 311.0000 1.0000
40.4800 363.0000 1.0000
40.4900 350.0000 1.0000
40.5000 339.0000 1.0000
40.5100 360.0000 1.0000
40.5200 388.0000 1.0000
40.5300 352.0000 1.0000
40.5400 358.0000 1.0000
40.5500 355.0000 1.0000
40.5600 351.0000 1.0000
40.5700 370.0000 1.0000
40.5800 375.0000 1.0000
40.5900 374.0000 1.0000
40.6000 398.0000 1.0000
40.6100 348.0000 1.0000
40.6200 379.0000 1.0000
40.6300 374.0000 1.0000
40.6400 366.0000 1.0000
40.6500 357.0000 1.0000
40.6600 376.0000 1.0000
40.6700 380.0000 1.0000
40.6800 326.0000 1.0000
40.6900 380.0000 1.0000
40.7000 409.0000 1.0000
40.7100 397.0000 1.0000
40.7200 383.0000 1.0000
40.7300 381.0000 1.0000
40.7400 398.0000 1.0000
40.7500 367.0000 1.0000
40.7600 373.0000 1.0000
40.7700 367.0000 1.0000
40.7800 366.0000 1.0000
40.7900 385.0000 1.0000
40.8000 352.0000 1.0000
40.8100 382.0000 1.0000
40.8200 399.0000 1.0000
40.8300 407.0000 1.0000
40.8400 378.0000 1.0000
40.8500 371.0000 1.0000
40.8600 374.0000 1.0000
40.8700 365.0000 1.0000
40.8800 350.0000 1.0000
40.8900 346.0000 1.0000
40.9000 372.0000 1.0000
40.9100 400.0000 1.0000
40.9200 378.0000 1.0000
40.9300 367.0000 1.0000
40.9400 376.0000 1.0000
40.9500 365.0000 1.0000
40.9600 369.0000 1.0000
40.9700 373.0000 1.0000
40.9800 368.0000 1.0000
40.9900 344.0000 1.0000
41.0000 383.0000 1.0000
41.0100 319.0000 1.0000
41.0200 354.0000 1.0000
41.0300 334.0000 1.0000
41.0400 349.0000 1.0000
41.0500 368.0000 1.0000
41.0600 330.0000 1.0000
41.0700 338.0000 1.0000
41.0800 348.0000 1.0000
41.0900 337.0000 1.0000
41.1000 374.0000 1.0000
41.1100 359.0000 1.0000
41.1200 353.0000 1.0000
41.1300 369.0000 1.0000
41.1400 359.0000 1.0000
41.1500 367.0000 1.0000
41.1600 348.0000 1.0000
41.1700 356.0000 1.0000
41.1800 370.0000 1.0000
41.1900 366.0000 1.0000
41.2000 332.0000 1.0000
41.2100 350.0000 1.0000
41.2200 345.0000 1.0000
41.2300 349.0000 1.0000
41.2400 334.0000 1.0000
41.2500 336.0000 1.0000
41.2600 400.0000 1.0000
41.2700 344.0000 1.0000
41.2800 341.0000 1.0000
41.2900 355.0000 1.0000
41.3000 398.0000 1.0000
41.3100 356.0000 1.0000
41.3200 389.0000 1.0000
41.3300 365.0000 1.0000
41.3400 372.0000 1.0000
41.3500 348.0000 1.0000
41.3600 343.0000 1.0000
41.3700 353.0000 1.0000
41.3800 371.0000 1.0000
41.3900 357.0000 1.0000
41.4000 338.0000 1.0000
41.4100 357.0000 1.0000
41.4200 359.0000 1.0000
41.4300 352.0000 1.0000
41.4400 375.0000 1.0000
41.4500 353.0000 1.0000
41.4600 366.0000 1.0000
41.4700 356.0000 1.0000
41.4800 328.0000 1.0000
41.4900 352.0000 1.0000
41.5000 357.0000 1.0000
41.5100 326.0000 1.0000
41.5200 368.0000 1.0000
41.5300 358.0000 1.0000
41.5400 326.0000 1.0000
41.5500 357.0000 1.0000
41.5600 352.0000 1.0000
41.5700 341.0000 1.0000
41.5800 354.0000 1.0000
41.5900 370.0000 1.0000
41.6000 358.0000 1.0000
41.6100 350.0000 1.0000
41.6200 355.0000 1.0000
41.6300 335.0000 1.0000
41.6400 328.0000 1.0000
41.6500 325.0000 1.0000
41.6600 374.0000 1.0000
41.6700 357.0000 1.0000
41.6800 365.0000 1.0000
41.6900 363.0000 1.0000
41.7000 359.0000 1.0000
41.7100 351.0000 1.0000
41.7200 339.0000 1.0000
41.7300 344.0000 1.0000
41.7400 361.0000 1.0000
41.7500 351.0000 1.0000
41.7600 342.0000 1.0000
41.7700 369.0000 1.0000
41.7800 363.0000 1.0000
41.7900 371.0000 1.0000
41.8000 344.0000 1.0000
41.8100 387.0000 1.0000
41.8200 366.0000 1.0000
41.8300 366.0000 1.0000
41.8400 359.0000 1.0000
41.8500 363.0000 1.0000
41.8600 354.0000 1.0000
41.8700 366.0000 1.0000
41.8800 374.0000 1.0000
41.8900 358.0000 1.0000
41.9000 371.0000 1.0000
41.9100 380.0000 1.0000
41.9200 340.0000 1.0000
41.9300 343.0000 1.0000
41.9400 354.0000 1.0000
41.9500 364.0000 1.0000
41.9600 329.0000 1.0000
41.9700 344.0000 1.0000
41.9800 352.0000 1.0000
41.9900 368.0000 1.0000
42.0000 336.0000 1.0000
42.0100 352.0000 1.0000
42.0200 355.0000 1.0000
42.0300 359.0000 1.0000
42.0400 364.0000 1.0000
42.0500 378.0000 1.0000
42.0600 330.0000 1.0000
42.0700 345.0000 1.0000
42.0800 359.0000 1.0000
42.0900 354.0000 1.0000
42.1000 351.0000 1.0000
42.1100 366.0000 1.0000
42.1200 372.0000 1.0000
42.1300 369.0000 1.0000
42.1400 369.0000 1.0000
42.1500 363.0000 1.0000
42.1600 328.0000 1.0000
42.1700 351.0000 1.0000
42.1800 330.0000 1.0000
42.1900 367.0000 1.0000
42.2000 398.0000 1.0000
42.2100 353.0000 1.0000
42.2200 373.0000 1.0000
42.2300 380.0000 1.0000
42.2400 337.0000 1.0000
42.2500 360.0000 1.0000
42.2600 362.0000 1.0000
42.2700 373.0000 1.0000
42.2800 378.0000 1.0000
42.2900 357.0000 1.0000
42.3000 375.0000 1.0000
42.3100 358.0000 1.0000
42.3200 363.0000 1.0000
42.3300 413.0000 1.0000
42.3400 369.0000 1.0000
42.3500 365.0000 1.0000
42.3600 364.0000 1.0000
42.3700 389.0000 1.0000
42.3800 373.0000 1.0000
42.3900 350.0000 1.0000
42.4000 399.0000 1.0000
42.4100 394.0000 1.0000
42.4200 410.0000 1.0000
42.4300 377.0000 1.0000
42.4400 359.0000 1.0000
42.4500 398.0000 1.0000
42.4600 392.0000 1.0000
42.4700 348.0000 1.0000
42.4800 333.0000 1.0000
42.4900 410.0000 1.0000
42.5000 414.0000 1.0000
42.5100 345.0000 1.0000
42.5200 375.0000 1.0000
42.5300 377.0000 1.0000
42.5400 360.0000 1.0000
42.5500 360.0000 1.0000
42.5600 383.0000 1.0000
42.5700 367.0000 1.0000
42.5800 372.0000 1.0000
42.5900 365.0000 1.0000
42.6000 359.0000 1.0000
42.6100 335.0000 1.0000
42.6200 343.0000 1.0000
42.6300 368.0000 1.0000
42.6400 367.0000 1.0000
42.6500 356.0000 1.0000
42.6600 337.0000 1.0000
42.6700 349.0000 1.0000
42.6800 341.0000 1.0000
42.6900 378.0000 1.0000
42.7000 347.0000 1.0000
42.7100 377.0000 1.0000
42.7200 360.0000 1.0000
42.7300 359.0000 1.0000
42.7400 364.0000 1.0000
42.7500 350.0000 1.0000
42.7600 308.0000 1.0000
42.7700 343.0000 1.0000
42.7800 332.0000 1.0000
42.7900 361.0000 1.0000
42.8000 363.0000 1.0000
42.8100 321.0000 1.0000
42.8200 333.0000 1.0000
42.8300 369.0000 1.0000
42.8400 394.0000 1.0000
42.8500 332.0000 1.0000
42.8600 356.0000 1.0000
42.8700 351.0000 1.0000
42.8800 349.0000 1.0000
42.8900 325.0000 1.0000
42.9000 352.0000 1.0000
42.9100 317.0000 1.0000
42.9200 357.0000 1.0000
42.9300 350.0000 1.0000
42.9400 342.0000 1.0000
42.9500 358.0000 1.0000
42.9600 347.0000 1.0000
42.9700 322.0000 1.0000
42.9800 323.0000 1.0000
42.9900 322.0000 1.0000
43.0000 346.0000 1.0000
43.0100 351.0000 1.0000
43.0200 311.0000 1.0000
43.0300 340.0000 1.0000
43.0400 332.0000 1.0000
43.0500 350.0000 1.0000
43.0600 338.0000 1.0000
43.0700 350.0000 1.0000
43.0800 327.0000 1.0000
43.0900 336.0000 1.0000
43.1000 345.0000 1.0000
43.1100 354.0000 1.0000
43.1200 313.0000 1.0000
43.1300 344.0000 1.0000
43.1400 332.0000 1.0000
43.1500 332.0000 1.0000
43.1600 346.0000 1.0000
43.1700 348.0000 1.0000
43.1800 343.0000 1.0000
43.1900 339.0000 1.0000
43.2000 364.0000 1.0000
43.2100 338.0000 1.0000
43.2200 324.0000 1.0000
43.2300 327.0000 1.0000
43.2400 335.0000 1.0000
43.2500 348.0000 1.0000
43.2600 349.0000 1.0000
43.2700 340.0000 1.0000
43.2800 363.0000 1.0000
43.2900 356.0000 1.0000
43.3000 348.0000 1.0000
43.3100 359.0000 1.0000
43.3200 333.0000 1.0000
43.3300 334.0000 1.0000
43.3400 316.0000 1.0000
43.3500 347.0000 1.0000
43.3600 321.0000 1.0000
43.3700 351.0000 1.0000
43.3800 372.0000 1.0000
43.3900 335.0000 1.0000
43.4000 356.0000 1.0000
43.4100 354.0000 1.0000
43.4200 347.0000 1.0000
43.4300 367.0000 1.0000
43.4400 332.0000 1.0000
43.4500 327.0000 1.0000
43.4600 355.0000 1.0000
43.4700 344.0000 1.0000
43.4800 332.0000 1.0000
43.4900 328.0000 1.0000
43.5000 341.0000 1.0000
43.5100 335.0000 1.0000
43.5200 359.0000 1.0000
43.5300 342.0000 1.0000
43.5400 344.0000 1.0000
43.5500 322.0000 1.0000
43.5600 343.0000 1.0000
43.5700 357.0000 1.0000
43.5800 344.0000 1.0000
43.5900 352.0000 1.0000
43.6000 360.0000 1.0000
43.6100 339.0000 1.0000
43.6200 355.0000 1.0000
43.6300 336.0000 1.0000
43.6400 344.0000 1.0000
43.6500 345.0000 1.0000
43.6600 339.0000 1.0000
43.6700 361.0000 1.0000
43.6800 361.0000 1.0000
43.6900 351.0000 1.0000
43.7000 350.0000 1.0000
43.7100 344.0000 1.0000
43.7200 342.0000 1.0000
43.7300 355.0000 1.0000
43.7400 350.0000 1.0000
43.7500 356.0000 1.0000
43.7600 305.0000 1.0000
43.7700 342.0000 1.0000
43.7800 331.0000 1.0000
43.7900 329.0000 1.0000
43.8000 332.0000 1.0000
43.8100 331.0000 1.0000
43.8200 318.0000 1.0000
43.8300 361.0000 1.0000
43.8400 359.0000 1.0000
43.8500 333.0000 1.0000
43.8600 353.0000 1.0000
43.8700 313.0000 1.0000
43.8800 321.0000 1.0000
43.8900 317.0000 1.0000
43.9000 326.0000 1.0000
43.9100 338.0000 1.0000
43.9200 347.0000 1.0000
43.9300 339.0000 1.0000
43.9400 347.0000 1.0000
43.9500 337.0000 1.0000
43.9600 339.0000 1.0000
43.9700 329.0000 1.0000
43.9800 330.0000 1.0000
43.9900 362.0000 1.0000
44.0000 296.0000 1.0000
44.0100 324.0000 1.0000
44.0200 347.0000 1.0000
44.0300 344.0000 1.0000
44.0400 325.0000 1.0000
44.0500 343.0000 1.0000
44.0600 320.0000 1.0000
44.0700 315.0000 1.0000
44.0800 322.0000 1.0000
44.0900 328.0000 1.0000
44.1000 312.0000 1.0000
44.1100 308.0000 1.0000
44.1200 323.0000 1.0000
44.1300 297.0000 1.0000
44.1400 324.0000 1.0000
44.1500 319.0000 1.0000
44.1600 315.0000 1.0000
44.1700 339.0000 1.0000
44.1800 324.0000 1.0000
44.1900 317.0000 1.0000
44.2000 328.0000 1.0000
44.2100 352.0000 1.0000
44.2200 338.0000 1.0000
44.2300 313.0000 1.0000
44.2400 344.0000 1.0000
44.2500 326.0000 1.0000
44.2600 313.0000 1.0000
44.2700 332.0000 1.0000
44.2800 308.0000 1.0000
44.2900 325.0000 1.0000
44.3000 330.0000 1.0000
44.3100 322.0000 1.0000
44.3200 347.0000 1.0000
44.3300 320.0000 1.0000
44.3400 329.0000 1.0000
44.3500 313.0000 1.0000
44.3600 336.0000 1.0000
44.3700 333.0000 1.0000
44.3800 311.0000 1.0000
44.3900 330.0000 1.0000
44.4000 347.0000 1.0000
44.4100 349.0000 1.0000
44.4200 306.0000 1.0000
44.4300 326.0000 1.0000
44.4400 338.0000 1.0000
44.4500 341.0000 1.0000
44.4600 293.0000 1.0000
44.4700 312.0000 1.0000
44.4800 330.0000 1.0000
44.4900 333.0000 1.0000
44.5000 336.0000 1.0000
44.5100 338.0000 1.0000
44.5200 344.0000 1.0000
44.5300 348.0000 1.0000
44.5400 299.0000 1.0000
44.5500 330.0000 1.0000
44.5600 338.0000 1.0000
44.5700 351.0000 1.0000
44.5800 320.0000 1.0000
44.5900 295.0000 1.0000
44.6000 308.0000 1.0000
44.6100 332.0000 1.0000
44.6200 312.0000 1.0000
44.6300 337.0000 1.0000
44.6400 329.0000 1.0000
44.6500 357.0000 1.0000
44.6600 302.0000 1.0000
44.6700 315.0000 1.0000
44.6800 345.0000 1.0000
44.6900 331.0000 1.0000
44.7000 328.0000 1.0000
44.7100 322.0000 1.0000
44.7200 345.0000 1.0000
44.7300 330.0000 1.0000
44.7400 339.0000 1.0000
44.7500 331.0000 1.0000
44.7600 333.0000 1.0000
44.7700 311.0000 1.0000
44.7800 336.0000 1.0000
44.7900 321.0000 1.0000
44.8000 309.0000 1.0000
44.8100 308.0000 1.0000
44.8200 305.0000 1.0000
44.8300 311.0000 1.0000
44.8400 311.0000 1.0000
44.8500 328.0000 1.0000
44.8600 312.0000 1.0000
44.8700 333.0000 1.0000
44.8800 313.0000 1.0000
44.8900 314.0000 1.0000
44.9000 319.0000 1.0000
44.9100 338.0000 1.0000
44.9200 319.0000 1.0000
44.9300 330.0000 1.0000
44.9400 333.0000 1.0000
44.9500 321.0000 1.0000
44.9600 337.0000 1.0000
44.9700 332.0000 1.0000
44.9800 317.0000 1.0000
44.9900 335.0000 1.0000
45.0000 336.0000 1.0000
45.0100 321.0000 1.0000
45.0200 320.0000 1.0000
45.0300 325.0000 1.0000
45.0400 347.0000 1.0000
45.0500 322.0000 1.0000
45.0600 286.0000 1.0000
45.0700 307.0000 1.0000
45.0800 326.0000 1.0000
45.0900 320.0000 1.0000
45.1000 326.0000 1.0000
45.1100 333.0000 1.0000
45.1200 317.0000 1.0000
45.1300 299.0000 1.0000
45.1400 317.0000 1.0000
45.1500 321.0000 1.0000
45.1600 360.0000 1.0000
45.1700 335.0000 1.0000
45.1800 293.0000 1.0000
45.1900 288.0000 1.0000
45.2000 311.0000 1.0000
45.2100 295.0000 1.0000
45.2200 317.0000 1.0000
45.2300 336.0000 1.0000
45.2400 335.0000 1.0000
45.2500 325.0000 1.0000
45.2600 344.0000 1.0000
45.2700 339.0000 1.0000
45.2800 317.0000 1.0000
45.2900 332.0000 1.0000
45.3000 310.0000 1.0000
45.3100 323.0000 1.0000
45.3200 324.0000 1.0000
45.3300 318.0000 1.0000
45.3400 323.0000 1.0000
45.3500 307.0000 1.0000
45.3600 330.0000 1.0000
45.3700 328.0000 1.0000
45.3800 325.0000 1.0000
45.3900 319.0000 1.0000
45.4000 347.0000 1.0000
45.4100 315.0000 1.0000
45.4200 305.0000 1.0000
45.4300 320.0000 1.0000
45.4400 326.0000 1.0000
45.4500 320.0000 1.0000
45.4600 306.0000 1.0000
45.4700 329.0000 1.0000
45.4800 281.0000 1.0000
45.4900 318.0000 1.0000
45.5000 343.0000 1.0000
45.5100 311.0000 1.0000
45.5200 320.0000 1.0000
45.5300 325.0000 1.0000
45.5400 324.0000 1.0000
45.5500 319.0000 1.0000
45.5600 309.0000 1.0000
45.5700 342.0000 1.0000
45.5800 330.0000 1.0000
45.5900 300.0000 1.0000
45.6000 318.0000 1.0000
45.6100 329.0000 1.0000
45.6200 333.0000 1.0000
45.6300 342.0000 1.0000
45.6400 300.0000 1.0000
45.6500 343.0000 1.0000
45.6600 332.0000 1.0000
45.6700 301.0000 1.0000
45.6800 290.0000 1.0000
45.6900 293.0000 1.0000
45.7000 308.0000 1.0000
45.7100 337.0000 1.0000
45.7200 311.0000 1.0000
45.7300 323.0000 1.0000
45.7400 314.0000 1.0000
45.7500 327.0000 1.0000
45.7600 319.0000 1.0000
45.7700 332.0000 1.0000
45.7800 319.0000 1.0000
45.7900 343.0000 1.0000
45.8000 305.0000 1.0000
45.8100 302.0000 1.0000
45.8200 330.0000 1.0000
45.8300 355.0000 1.0000
45.8400 332.0000 1.0000
45.8500 305.0000 1.0000
45.8600 293.0000 1.0000
45.8700 307.0000 1.0000
45.8800 293.0000 1.0000
45.8900 329.0000 1.0000
45.9000 341.0000 1.0000
45.9100 331.0000 1.0000
45.9200 301.0000 1.0000
45.9300 308.0000 1.0000
45.9400 337.0000 1.0000
45.9500 289.0000 1.0000
45.9600 335.0000 1.0000
45.9700 315.0000 1.0000
45.9800 304.0000 1.0000
45.9900 340.0000 1.0000
46.0000 317.0000 1.0000
46.0100 315.0000 1.0000
46.0200 342.0000 1.0000
46.0300 322.0000 1.0000
46.0400 323.0000 1.0000
46.0500 308.0000 1.0000
46.0600 335.0000 1.0000
46.0700 310.0000 1.0000
46.0800 330.0000 1.0000
46.0900 319.0000 1.0000
46.1000 321.0000 1.0000
46.1100 329.0000 1.0000
46.1200 327.0000 1.0000
46.1300 304.0000 1.0000
46.1400 316.0000 1.0000
46.1500 309.0000 1.0000
46.1600 320.0000 1.0000
46.1700 320.0000 1.0000
46.1800 336.0000 1.0000
46.1900 304.0000 1.0000
46.2000 305.0000 1.0000
46.2100 323.0000 1.0000
46.2200 359.0000 1.0000
46.2300 302.0000 1.0000
46.2400 302.0000 1.0000
46.2500 336.0000 1.0000
46.2600 323.0000 1.0000
46.2700 335.0000 1.0000
46.2800 357.0000 1.0000
46.2900 321.0000 1.0000
46.3000 331.0000 1.0000
46.3100 313.0000 1.0000
46.3200 305.0000 1.0000
46.3300 335.0000 1.0000
46.3400 306.0000 1.0000
46.3500 301.0000 1.0000
46.3600 360.0000 1.0000
46.3700 331.0000 1.0000
46.3800 292.0000 1.0000
46.3900 305.0000 1.0000
46.4000 329.0000 1.0000
46.4100 309.0000 1.0000
46.4200 299.0000 1.0000
46.4300 287.0000 1.0000
46.4400 300.0000 1.0000
46.4500 298.0000 1.0000
46.4600 319.0000 1.0000
46.4700 310.0000 1.0000
46.4800 309.0000 1.0000
46.4900 325.0000 1.0000
46.5000 288.0000 1.0000
46.5100 329.0000 1.0000
46.5200 328.0000 1.0000
46.5300 315.0000 1.0000
46.5400 315.0000 1.0000
46.5500 277.0000 1.0000
46.5600 284.0000 1.0000
46.5700 293.0000 1.0000
46.5800 309.0000 1.0000
46.5900 314.0000 1.0000
46.6000 317.0000 1.0000
46.6100 303.0000 1.0000
46.6200 306.0000 1.0000
46.6300 307.0000 1.0000
46.6400 303.0000 1.0000
46.6500 322.0000 1.0000
46.6600 325.0000 1.0000
46.6700 320.0000 1.0000
46.6800 314.0000 1.0000
46.6900 330.0000 1.0000
46.7000 299.0000 1.0000
46.7100 322.0000 1.0000
46.7200 329.0000 1.0000
46.7300 299.0000 1.0000
46.7400 312.0000 1.0000
46.7500 297.0000 1.0000
46.7600 282.0000 1.0000
46.7700 316.0000 1.0000
46.7800 311.0000 1.0000
46.7900 331.0000 1.0000
46.8000 296.0000 1.0000
46.8100 312.0000 1.0000
46.8200 318.0000 1.0000
46.8300 309.0000 1.0000
46.8400 337.0000 1.0000
46.8500 314.0000 1.0000
46.8600 296.0000 1.0000
46.8700 288.0000 1.0000
46.8800 307.0000 1.0000
46.8900 310.0000 1.0000
46.9000 305.0000 1.0000
46.9100 330.0000 1.0000
46.9200 319.0000 1.0000
46.9300 300.0000 1.0000
46.9400 321.0000 1.0000
46.9500 297.0000 1.0000
46.9600 290.0000 1.0000
46.9700 304.0000 1.0000
46.9800 306.0000 1.0000
46.9900 286.0000 1.0000
47.0000 304.0000 1.0000
47.0100 296.0000 1.0000
47.0200 323.0000 1.0000
47.0300 317.0000 1.0000
47.0400 300.0000 1.0000
47.0500 299.0000 1.0000
47.0600 310.0000 1.0000
47.0700 315.0000 1.0000
47.0800 311.0000 1.0000
47.0900 304.0000 1.0000
47.1000 309.0000 1.0000
47.1100 312.0000 1.0000
47.1200 319.0000 1.0000
47.1300 275.0000 1.0000
47.1400 269.0000 1.0000
47.1500 318.0000 1.0000
47.1600 314.0000 1.0000
47.1700 311.0000 1.0000
47.1800 316.0000 1.0000
47.1900 346.0000 1.0000
47.2000 326.0000 1.0000
47.2100 302.0000 1.0000
47.2200 314.0000 1.0000
47.2300 311.0000 1.0000
47.2400 295.0000 1.0000
47.2500 289.0000 1.0000
47.2600 334.0000 1.0000
47.2700 315.0000 1.0000
47.2800 301.0000 1.0000
47.2900 280.0000 1.0000
47.3000 297.0000 1.0000
47.3100 295.0000 1.0000
47.3200 340.0000 1.0000
47.3300 312.0000 1.0000
47.3400 313.0000 1.0000
47.3500 272.0000 1.0000
47.3600 289.0000 1.0000
47.3700 301.0000 1.0000
47.3800 300.0000 1.0000
47.3900 320.0000 1.0000
47.4000 303.0000 1.0000
47.4100 306.0000 1.0000
47.4200 305.0000 1.0000
47.4300 307.0000 1.0000
47.4400 306.0000 1.0000
47.4500 306.0000 1.0000
47.4600 302.0000 1.0000
47.4700 316.0000 1.0000
47.4800 307.0000 1.0000
47.4900 319.0000 1.0000
47.5000 341.0000 1.0000
47.5100 318.0000 1.0000
47.5200 302.0000 1.0000
47.5300 295.0000 1.0000
47.5400 305.0000 1.0000
47.5500 293.0000 1.0000
47.5600 296.0000 1.0000
47.5700 299.0000 1.0000
47.5800 310.0000 1.0000
47.5900 278.0000 1.0000
47.6000 293.0000 1.0000
47.6100 300.0000 1.0000
47.6200 307.0000 1.0000
47.6300 309.0000 1.0000
47.6400 317.0000 1.0000
47.6500 280.0000 1.0000
47.6600 312.0000 1.0000
47.6700 299.0000 1.0000
47.6800 290.0000 1.0000
47.6900 307.0000 1.0000
47.7000 299.0000 1.0000
47.7100 321.0000 1.0000
47.7200 318.0000 1.0000
47.7300 282.0000 1.0000
47.7400 284.0000 1.0000
47.7500 314.0000 1.0000
47.7600 289.0000 1.0000
47.7700 283.0000 1.0000
47.7800 289.0000 1.0000
47.7900 297.0000 1.0000
47.8000 316.0000 1.0000
47.8100 316.0000 1.0000
47.8200 308.0000 1.0000
47.8300 320.0000 1.0000
47.8400 317.0000 1.0000
47.8500 318.0000 1.0000
47.8600 299.0000 1.0000
47.8700 295.0000 1.0000
47.8800 285.0000 1.0000
47.8900 295.0000 1.0000
47.9000 303.0000 1.0000
47.9100 305.0000 1.0000
47.9200 304.0000 1.0000
47.9300 290.0000 1.0000
47.9400 254.0000 1.0000
47.9500 309.0000 1.0000
47.9600 318.0000 1.0000
47.9700 308.0000 1.0000
47.9800 299.0000 1.0000
47.9900 304.0000 1.0000
48.0000 301.0000 1.0000
48.0100 292.0000 1.0000
48.0200 270.0000 1.0000
48.0300 277.0000 1.0000
48.0400 303.0000 1.0000
48.0500 295.0000 1.0000
48.0600 283.0000 1.0000
48.0700 294.0000 1.0000
48.0800 300.0000 1.0000
48.0900 289.0000 1.0000
48.1000 282.0000 1.0000
48.1100 288.0000 1.0000
48.1200 322.0000 1.0000
48.1300 328.0000 1.0000
48.1400 296.0000 1.0000
48.1500 313.0000 1.0000
48.1600 308.0000 1.0000
48.1700 316.0000 1.0000
48.1800 286.0000 1.0000
48.1900 310.0000 1.0000
48.2000 284.0000 1.0000
48.2100 277.0000 1.0000
48.2200 301.0000 1.0000
48.2300 300.0000 1.0000
48.2400 304.0000 1.0000
48.2500 313.0000 1.0000
48.2600 285.0000 1.0000
48.2700 273.0000 1.0000
48.2800 330.0000 1.0000
48.2900 283.0000 1.0000
48.3000 278.0000 1.0000
48.3100 298.0000 1.0000
48.3200 296.0000 1.0000
48.3300 327.0000 1.0000
48.3400 294.0000 1.0000
48.3500 337.0000 1.0000
48.3600 319.0000 1.0000
48.3700 325.0000 1.0000
48.3800 318.0000 1.0000
48.3900 297.0000 1.0000
48.4000 286.0000 1.0000
48.4100 302.0000 1.0000
48.4200 294.0000 1.0000
48.4300 290.0000 1.0000
48.4400 300.0000 1.0000
48.4500 292.0000 1.0000
48.4600 290.0000 1.0000
48.4700 305.0000 1.0000
48.4800 292.0000 1.0000
48.4900 288.0000 1.0000
48.5000 308.0000 1.0000
48.5100 281.0000 1.0000
48.5200 314.0000 1.0000
48.5300 302.0000 1.0000
48.5400 287.0000 1.0000
48.5500 311.0000 1.0000
48.5600 295.0000 1.0000
48.5700 295.0000 1.0000
48.5800 296.0000 1.0000
48.5900 298.0000 1.0000
48.6000 287.0000 1.0000
48.6100 279.0000 1.0000
48.6200 287.0000 1.0000
48.6300 286.0000 1.0000
48.6400 280.0000 1.0000
48.6500 268.0000 1.0000
48.6600 290.0000 1.0000
48.6700 272.0000 1.0000
48.6800 289.0000 1.0000
48.6900 321.0000 1.0000
48.7000 297.0000 1.0000
48.7100 294.0000 1.0000
48.7200 287.0000 1.0000
48.7300 296.0000 1.0000
48.7400 286.0000 1.0000
48.7500 310.0000 1.0000
48.7600 321.0000 1.0000
48.7700 298.0000 1.0000
48.7800 293.0000 1.0000
48.7900 304.0000 1.0000
48.8000 287.0000 1.0000
48.8100 301.0000 1.0000
48.8200 296.0000 1.0000
48.8300 294.0000 1.0000
48.8400 295.0000 1.0000
48.8500 285.0000 1.0000
48.8600 302.0000 1.0000
48.8700 314.0000 1.0000
48.8800 289.0000 1.0000
48.8900 296.0000 1.0000
48.9000 299.0000 1.0000
48.9100 303.0000 1.0000
48.9200 298.0000 1.0000
48.9300 307.0000 1.0000
48.9400 294.0000 1.0000
48.9500 274.0000 1.0000
48.9600 286.0000 1.0000
48.9700 311.0000 1.0000
48.9800 312.0000 1.0000
48.9900 279.0000 1.0000
49.0000 315.0000 1.0000
49.0100 302.0000 1.0000
49.0200 317.0000 1.0000
49.0300 294.0000 1.0000
49.0400 320.0000 1.0000
49.0500 275.0000 1.0000
49.0600 274.0000 1.0000
49.0700 297.0000 1.0000
49.0800 306.0000 1.0000
49.0900 324.0000 1.0000
49.1000 276.0000 1.0000
49.1100 298.0000 1.0000
49.1200 306.0000 1.0000
49.1300 285.0000 1.0000
49.1400 313.0000 1.0000
49.1500 299.0000 1.0000
49.1600 294.0000 1.0000
49.1700 289.0000 1.0000
49.1800 290.0000 1.0000
49.1900 298.0000 1.0000
49.2000 284.0000 1.0000
49.2100 328.0000 1.0000
49.2200 290.0000 1.0000
49.2300 285.0000 1.0000
49.2400 307.0000 1.0000
49.2500 307.0000 1.0000
49.2600 296.0000 1.0000
49.2700 317.0000 1.0000
49.2800 318.0000 1.0000
49.2900 304.0000 1.0000
49.3000 317.0000 1.0000
49.3100 287.0000 1.0000
49.3200 313.0000 1.0000
49.3300 321.0000 1.0000
49.3400 306.0000 1.0000
49.3500 307.0000 1.0000
49.3600 320.0000 1.0000
49.3700 306.0000 1.0000
49.3800 317.0000 1.0000
49.3900 328.0000 1.0000
49.4000 321.0000 1.0000
49.4100 340.0000 1.0000
49.4200 320.0000 1.0000
49.4300 322.0000 1.0000
49.4400 324.0000 1.0000
49.4500 340.0000 1.0000
49.4600 338.0000 1.0000
49.4700 331.0000 1.0000
49.4800 346.0000 1.0000
49.4900 315.0000 1.0000
49.5000 306.0000 1.0000
49.5100 318.0000 1.0000
49.5200 318.0000 1.0000
49.5300 344.0000 1.0000
49.5400 321.0000 1.0000
49.5500 323.0000 1.0000
49.5600 312.0000 1.0000
49.5700 308.0000 1.0000
49.5800 335.0000 1.0000
49.5900 304.0000 1.0000
49.6000 301.0000 1.0000
49.6100 319.0000 1.0000
49.6200 327.0000 1.0000
49.6300 319.0000 1.0000
49.6400 319.0000 1.0000
49.6500 311.0000 1.0000
49.6600 328.0000 1.0000
49.6700 327.0000 1.0000
49.6800 341.0000 1.0000
49.6900 304.0000 1.0000
49.7000 301.0000 1.0000
49.7100 289.0000 1.0000
49.7200 311.0000 1.0000
49.7300 306.0000 1.0000
49.7400 296.0000 1.0000
49.7500 296.0000 1.0000
49.7600 298.0000 1.0000
49.7700 302.0000 1.0000
49.7800 299.0000 1.0000
49.7900 309.0000 1.0000
49.8000 307.0000 1.0000
49.8100 301.0000 1.0000
49.8200 284.0000 1.0000
49.8300 307.0000 1.0000
49.8400 312.0000 1.0000
49.8500 273.0000 1.0000
49.8600 285.0000 1.0000
49.8700 310.0000 1.0000
49.8800 277.0000 1.0000
49.8900 284.0000 1.0000
49.9000 298.0000 1.0000
49.9100 300.0000 1.0000
49.9200 309.0000 1.0000
49.9300 289.0000 1.0000
49.9400 331.0000 1.0000
49.9500 306.0000 1.0000
49.9600 332.0000 1.0000
49.9700 300.0000 1.0000
49.9800 264.0000 1.0000
49.9900 318.0000 1.0000
50.0000 319.0000 1.0000
50.0100 285.0000 1.0000
50.0200 307.0000 1.0000
50.0300 301.0000 1.0000
50.0400 306.0000 1.0000
50.0500 289.0000 1.0000
50.0600 295.0000 1.0000
50.0700 303.0000 1.0000
50.0800 324.0000 1.0000
50.0900 300.0000 1.0000
50.1000 303.0000 1.0000
50.1100 294.0000 1.0000
50.1200 299.0000 1.0000
50.1300 298.0000 1.0000
50.1400 288.0000 1.0000
50.1500 317.0000 1.0000
50.1600 309.0000 1.0000
50.1700 309.0000 1.0000
50.1800 277.0000 1.0000
50.1900 271.0000 1.0000
50.2000 306.0000 1.0000
50.2100 284.0000 1.0000
50.2200 331.0000 1.0000
50.2300 302.0000 1.0000
50.2400 281.0000 1.0000
50.2500 289.0000 1.0000
50.2600 303.0000 1.0000
50.2700 308.0000 1.0000
50.2800 301.0000 1.0000
50.2900 287.0000 1.0000
50.3000 315.0000 1.0000
50.3100 309.0000 1.0000
50.3200 286.0000 1.0000
50.3300 313.0000 1.0000
50.3400 320.0000 1.0000
50.3500 310.0000 1.0000
50.3600 291.0000 1.0000
50.3700 292.0000 1.0000
50.3800 304.0000 1.0000
50.3900 286.0000 1.0000
50.4000 273.0000 1.0000
50.4100 306.0000 1.0000
50.4200 295.0000 1.0000
50.4300 285.0000 1.0000
50.4400 291.0000 1.0000
50.4500 320.0000 1.0000
50.4600 299.0000 1.0000
50.4700 322.0000 1.0000
50.4800 325.0000 1.0000
50.4900 273.0000 1.0000
50.5000 297.0000 1.0000
50.5100 320.0000 1.0000
50.5200 268.0000 1.0000
50.5300 282.0000 1.0000
50.5400 284.0000 1.0000
50.5500 304.0000 1.0000
50.5600 313.0000 1.0000
50.5700 309.0000 1.0000
50.5800 305.0000 1.0000
50.5900 305.0000 1.0000
50.6000 302.0000 1.0000
50.6100 302.0000 1.0000
50.6200 317.0000 1.0000
50.6300 299.0000 1.0000
50.6400 292.0000 1.0000
50.6500 309.0000 1.0000
50.6600 310.0000 1.0000
50.6700 291.0000 1.0000
50.6800 329.0000 1.0000
50.6900 282.0000 1.0000
50.7000 298.0000 1.0000
50.7100 306.0000 1.0000
50.7200 292.0000 1.0000
50.7300 295.0000 1.0000
50.7400 326.0000 1.0000
50.7500 307.0000 1.0000
50.7600 289.0000 1.0000
50.7700 315.0000 1.0000
50.7800 323.0000 1.0000
50.7900 325.0000 1.0000
50.8000 294.0000 1.0000
50.8100 296.0000 1.0000
50.8200 302.0000 1.0000
50.8300 313.0000 1.0000
50.8400 323.0000 1.0000
50.8500 296.0000 1.0000
50.8600 301.0000 1.0000
50.8700 301.0000 1.0000
50.8800 303.0000 1.0000
50.8900 314.0000 1.0000
50.9000 292.0000 1.0000
50.9100 301.0000 1.0000
50.9200 333.0000 1.0000
50.9300 314.0000 1.0000
50.9400 312.0000 1.0000
50.9500 325.0000 1.0000
50.9600 329.0000 1.0000
50.9700 317.0000 1.0000
50.9800 290.0000 1.0000
50.9900 314.0000 1.0000
51.0000 346.0000 1.0000
51.0100 330.0000 1.0000
51.0200 317.0000 1.0000
51.0300 326.0000 1.0000
51.0400 326.0000 1.0000
51.0500 348.0000 1.0000
51.0600 319.0000 1.0000
51.0700 368.0000 1.0000
51.0800 363.0000 1.0000
51.0900 347.0000 1.0000
51.1000 352.0000 1.0000
51.1100 339.0000 1.0000
51.1200 378.0000 1.0000
51.1300 409.0000 1.0000
51.1400 400.0000 1.0000
51.1500 389.0000 1.0000
51.1600 404.0000 1.0000
51.1700 407.0000 1.0000
51.1800 420.0000 1.0000
51.1900 424.0000 1.0000
51.2000 435.0000 1.0000
51.2100 442.0000 1.0000
51.2200 474.0000 1.0000
51.2300 449.0000 1.0000
51.2400 494.0000 1.0000
51.2500 513.0000 1.0000
51.2600 531.0000 1.0000
51.2700 572.0000 1.0000
51.2800 597.0000 1.0000
51.2900 609.0000 1.0000
51.3000 609.0000 1.0000
51.3100 661.0000 1.0000
51.3200 716.0000 1.0000
51.3300 761.0000 1.0000
51.3400 815.0000 1.0000
51.3500 869.0000 1.0000
51.3600 904.0000 1.0000
51.3700 967.0000 1.0000
51.3800 1103.0000 1.0000
51.3900 1185.0000 1.0000
51.4000 1241.0000 1.0000
51.4100 1339.0000 1.0000
51.4200 1515.0000 1.0000
51.4300 1537.0000 1.0000
51.4400 1565.0000 1.0000
51.4500 1654.0000 1.0000
51.4600 1841.0000 1.0000
51.4700 1899.0000 1.0000
51.4800 1896.0000 1.0000
51.4900 2014.0000 1.0000
51.5000 2015.0000 1.0000
51.5100 2060.0000 1.0000
51.5200 1965.0000 1.0000
51.5300 1913.0000 1.0000
51.5400 1919.0000 1.0000
51.5500 1875.0000 1.0000
51.5600 1794.0000 1.0000
51.5700 1709.0000 1.0000
51.5800 1632.0000 1.0000
51.5900 1567.0000 1.0000
51.6000 1600.0000 1.0000
51.6100 1538.0000 1.0000
51.6200 1498.0000 1.0000
51.6300 1469.0000 1.0000
51.6400 1407.0000 1.0000
51.6500 1367.0000 1.0000
51.6600 1296.0000 1.0000
51.6700 1181.0000 1.0000
51.6800 1139.0000 1.0000
51.6900 1064.0000 1.0000
51.7000 1012.0000 1.0000
51.7100 939.0000 1.0000
51.7200 902.0000 1.0000
51.7300 810.0000 1.0000
51.7400 731.0000 1.0000
51.7500 726.0000 1.0000
51.7600 690.0000 1.0000
51.7700 610.0000 1.0000
51.7800 611.0000 1.0000
51.7900 563.0000 1.0000
51.8000 529.0000 1.0000
51.8100 561.0000 1.0000
51.8200 522.0000 1.0000
51.8300 473.0000 1.0000
51.8400 463.0000 1.0000
51.8500 485.0000 1.0000
51.8600 439.0000 1.0000
51.8700 416.0000 1.0000
51.8800 419.0000 1.0000
51.8900 408.0000 1.0000
51.9000 418.0000 1.0000
51.9100 394.0000 1.0000
51.9200 390.0000 1.0000
51.9300 376.0000 1.0000
51.9400 389.0000 1.0000
51.9500 360.0000 1.0000
51.9600 349.0000 1.0000
51.9700 358.0000 1.0000
51.9800 350.0000 1.0000
51.9900 392.0000 1.0000
52.0000 392.0000 1.0000
52.0100 320.0000 1.0000
52.0200 351.0000 1.0000
52.0300 329.0000 1.0000
52.0400 367.0000 1.0000
52.0500 360.0000 1.0000
52.0600 357.0000 1.0000
52.0700 365.0000 1.0000
52.0800 347.0000 1.0000
52.0900 364.0000 1.0000
52.1000 342.0000 1.0000
52.1100 335.0000 1.0000
52.1200 321.0000 1.0000
52.1300 329.0000 1.0000
52.1400 330.0000 1.0000
52.1500 319.0000 1.0000
52.1600 296.0000 1.0000
52.1700 326.0000 1.0000
52.1800 347.0000 1.0000
52.1900 328.0000 1.0000
52.2000 320.0000 1.0000
52.2100 317.0000 1.0000
52.2200 313.0000 1.0000
52.2300 297.0000 1.0000
52.2400 334.0000 1.0000
52.2500 272.0000 1.0000
52.2600 280.0000 1.0000
52.2700 309.0000 1.0000
52.2800 304.0000 1.0000
52.2900 308.0000 1.0000
52.3000 304.0000 1.0000
52.3100 313.0000 1.0000
52.3200 296.0000 1.0000
52.3300 291.0000 1.0000
52.3400 300.0000 1.0000
52.3500 301.0000 1.0000
52.3600 324.0000 1.0000
52.3700 334.0000 1.0000
52.3800 281.0000 1.0000
52.3900 293.0000 1.0000
52.4000 275.0000 1.0000
52.4100 304.0000 1.0000
52.4200 330.0000 1.0000
52.4300 302.0000 1.0000
52.4400 281.0000 1.0000
52.4500 295.0000 1.0000
52.4600 307.0000 1.0000
52.4700 283.0000 1.0000
52.4800 299.0000 1.0000
52.4900 298.0000 1.0000
52.5000 295.0000 1.0000
52.5100 285.0000 1.0000
52.5200 295.0000 1.0000
52.5300 288.0000 1.0000
52.5400 276.0000 1.0000
52.5500 293.0000 1.0000
52.5600 302.0000 1.0000
52.5700 292.0000 1.0000
52.5800 289.0000 1.0000
52.5900 288.0000 1.0000
52.6000 292.0000 1.0000
52.6100 296.0000 1.0000
52.6200 328.0000 1.0000
52.6300 301.0000 1.0000
52.6400 291.0000 1.0000
52.6500 303.0000 1.0000
52.6600 328.0000 1.0000
52.6700 339.0000 1.0000
52.6800 303.0000 1.0000
52.6900 291.0000 1.0000
52.7000 318.0000 1.0000
52.7100 271.0000 1.0000
52.7200 293.0000 1.0000
52.7300 270.0000 1.0000
52.7400 286.0000 1.0000
52.7500 282.0000 1.0000
52.7600 289.0000 1.0000
52.7700 297.0000 1.0000
52.7800 297.0000 1.0000
52.7900 290.0000 1.0000
52.8000 303.0000 1.0000
52.8100 299.0000 1.0000
52.8200 271.0000 1.0000
52.8300 267.0000 1.0000
52.8400 288.0000 1.0000
52.8500 306.0000 1.0000
52.8600 320.0000 1.0000
52.8700 310.0000 1.0000
52.8800 278.0000 1.0000
52.8900 280.0000 1.0000
52.9000 290.0000 1.0000
52.9100 275.0000 1.0000
52.9200 294.0000 1.0000
52.9300 284.0000 1.0000
52.9400 308.0000 1.0000
52.9500 280.0000 1.0000
52.9600 296.0000 1.0000
52.9700 299.0000 1.0000
52.9800 315.0000 1.0000
52.9900 277.0000 1.0000
53.0000 279.0000 1.0000
53.0100 289.0000 1.0000
53.0200 297.0000 1.0000
53.0300 312.0000 1.0000
53.0400 277.0000 1.0000
53.0500 279.0000 1.0000
53.0600 272.0000 1.0000
53.0700 309.0000 1.0000
53.0800 283.0000 1.0000
53.0900 267.0000 1.0000
53.1000 264.0000 1.0000
53.1100 325.0000 1.0000
53.1200 274.0000 1.0000
53.1300 286.0000 1.0000
53.1400 302.0000 1.0000
53.1500 295.0000 1.0000
53.1600 264.0000 1.0000
53.1700 292.0000 1.0000
53.1800 293.0000 1.0000
53.1900 284.0000 1.0000
53.2000 305.0000 1.0000
53.2100 278.0000 1.0000
53.2200 316.0000 1.0000
53.2300 286.0000 1.0000
53.2400 302.0000 1.0000
53.2500 307.0000 1.0000
53.2600 322.0000 1.0000
53.2700 291.0000 1.0000
53.2800 276.0000 1.0000
53.2900 277.0000 1.0000
53.3000 284.0000 1.0000
53.3100 274.0000 1.0000
53.3200 288.0000 1.0000
53.3300 289.0000 1.0000
53.3400 284.0000 1.0000
53.3500 302.0000 1.0000
53.3600 273.0000 1.0000
53.3700 295.0000 1.0000
53.3800 297.0000 1.0000
53.3900 315.0000 1.0000
53.4000 289.0000 1.0000
53.4100 260.0000 1.0000
53.4200 303.0000 1.0000
53.4300 295.0000 1.0000
53.4400 282.0000 1.0000
53.4500 308.0000 1.0000
53.4600 295.0000 1.0000
53.4700 291.0000 1.0000
53.4800 289.0000 1.0000
53.4900 284.0000 1.0000
53.5000 295.0000 1.0000
53.5100 292.0000 1.0000
53.5200 282.0000 1.0000
53.5300 292.0000 1.0000
53.5400 272.0000 1.0000
53.5500 281.0000 1.0000
53.5600 300.0000 1.0000
53.5700 294.0000 1.0000
53.5800 298.0000 1.0000
53.5900 278.0000 1.0000
53.6000 278.0000 1.0000
53.6100 288.0000 1.0000
53.6200 275.0000 1.0000
53.6300 307.0000 1.0000
53.6400 288.0000 1.0000
53.6500 297.0000 1.0000
53.6600 278.0000 1.0000
53.6700 301.0000 1.0000
53.6800 289.0000 1.0000
53.6900 290.0000 1.0000
53.7000 306.0000 1.0000
53.7100 283.0000 1.0000
53.7200 326.0000 1.0000
53.7300 296.0000 1.0000
53.7400 297.0000 1.0000
53.7500 319.0000 1.0000
53.7600 299.0000 1.0000
53.7700 312.0000 1.0000
53.7800 298.0000 1.0000
53.7900 310.0000 1.0000
53.8000 285.0000 1.0000
53.8100 285.0000 1.0000
53.8200 296.0000 1.0000
53.8300 297.0000 1.0000
53.8400 286.0000 1.0000
53.8500 279.0000 1.0000
53.8600 303.0000 1.0000
53.8700 295.0000 1.0000
53.8800 303.0000 1.0000
53.8900 317.0000 1.0000
53.9000 303.0000 1.0000
53.9100 339.0000 1.0000
53.9200 306.0000 1.0000
53.9300 303.0000 1.0000
53.9400 299.0000 1.0000
53.9500 303.0000 1.0000
53.9600 308.0000 1.0000
53.9700 306.0000 1.0000
53.9800 316.0000 1.0000
53.9900 340.0000 1.0000
54.0000 347.0000 1.0000
54.0100 355.0000 1.0000
54.0200 319.0000 1.0000
54.0300 290.0000 1.0000
54.0400 297.0000 1.0000
54.0500 298.0000 1.0000
54.0600 325.0000 1.0000
54.0700 312.0000 1.0000
54.0800 309.0000 1.0000
54.0900 329.0000 1.0000
54.1000 345.0000 1.0000
54.1100 304.0000 1.0000
54.1200 324.0000 1.0000
54.1300 299.0000 1.0000
54.1400 303.0000 1.0000
54.1500 317.0000 1.0000
54.1600 317.0000 1.0000
54.1700 316.0000 1.0000
54.1800 302.0000 1.0000
54.1900 304.0000 1.0000
54.2000 352.0000 1.0000
54.2100 306.0000 1.0000
54.2200 335.0000 1.0000
54.2300 338.0000 1.0000
54.2400 304.0000 1.0000
54.2500 330.0000 1.0000
54.2600 328.0000 1.0000
54.2700 324.0000 1.0000
54.2800 328.0000 1.0000
54.2900 325.0000 1.0000
54.3000 302.0000 1.0000
54.3100 317.0000 1.0000
54.3200 316.0000 1.0000
54.3300 318.0000 1.0000
54.3400 331.0000 1.0000
54.3500 313.0000 1.0000
54.3600 347.0000 1.0000
54.3700 342.0000 1.0000
54.3800 336.0000 1.0000
54.3900 360.0000 1.0000
54.4000 385.0000 1.0000
54.4100 370.0000 1.0000
54.4200 368.0000 1.0000
54.4300 417.0000 1.0000
54.4400 416.0000 1.0000
54.4500 398.0000 1.0000
54.4600 405.0000 1.0000
54.4700 402.0000 1.0000
54.4800 455.0000 1.0000
54.4900 402.0000 1.0000
54.5000 411.0000 1.0000
54.5100 450.0000 1.0000
54.5200 437.0000 1.0000
54.5300 404.0000 1.0000
54.5400 451.0000 1.0000
54.5500 435.0000 1.0000
54.5600 411.0000 1.0000
54.5700 418.0000 1.0000
54.5800 421.0000 1.0000
54.5900 386.0000 1.0000
54.6000 412.0000 1.0000
54.6100 407.0000 1.0000
54.6200 421.0000 1.0000
54.6300 401.0000 1.0000
54.6400 410.0000 1.0000
54.6500 440.0000 1.0000
54.6600 431.0000 1.0000
54.6700 420.0000 1.0000
54.6800 417.0000 1.0000
54.6900 414.0000 1.0000
54.7000 362.0000 1.0000
54.7100 363.0000 1.0000
54.7200 363.0000 1.0000
54.7300 359.0000 1.0000
54.7400 344.0000 1.0000
54.7500 370.0000 1.0000
54.7600 338.0000 1.0000
54.7700 349.0000 1.0000
54.7800 336.0000 1.0000
54.7900 333.0000 1.0000
54.8000 325.0000 1.0000
54.8100 332.0000 1.0000
54.8200 345.0000 1.0000
54.8300 344.0000 1.0000
54.8400 334.0000 1.0000
54.8500 303.0000 1.0000
54.8600 297.0000 1.0000
54.8700 304.0000 1.0000
54.8800 303.0000 1.0000
54.8900 314.0000 1.0000
54.9000 306.0000 1.0000
54.9100 309.0000 1.0000
54.9200 296.0000 1.0000
54.9300 304.0000 1.0000
54.9400 310.0000 1.0000
54.9500 310.0000 1.0000
54.9600 296.0000 1.0000
54.9700 290.0000 1.0000
54.9800 329.0000 1.0000
54.9900 304.0000 1.0000
55.0000 289.0000 1.0000
55.0100 283.0000 1.0000
55.0200 296.0000 1.0000
55.0300 268.0000 1.0000
55.0400 298.0000 1.0000
55.0500 323.0000 1.0000
55.0600 281.0000 1.0000
55.0700 271.0000 1.0000
55.0800 278.0000 1.0000
55.0900 304.0000 1.0000
55.1000 282.0000 1.0000
55.1100 292.0000 1.0000
55.1200 278.0000 1.0000
55.1300 301.0000 1.0000
55.1400 285.0000 1.0000
55.1500 272.0000 1.0000
55.1600 291.0000 1.0000
55.1700 298.0000 1.0000
55.1800 300.0000 1.0000
55.1900 305.0000 1.0000
55.2000 294.0000 1.0000
55.2100 260.0000 1.0000
55.2200 258.0000 1.0000
55.2300 297.0000 1.0000
55.2400 287.0000 1.0000
55.2500 296.0000 1.0000
55.2600 265.0000 1.0000
55.2700 278.0000 1.0000
55.2800 298.0000 1.0000
55.2900 281.0000 1.0000
55.3000 284.0000 1.0000
55.3100 289.0000 1.0000
55.3200 277.0000 1.0000
55.3300 267.0000 1.0000
55.3400 254.0000 1.0000
55.3500 296.0000 1.0000
55.3600 301.0000 1.0000
55.3700 316.0000 1.0000
55.3800 321.0000 1.0000
55.3900 284.0000 1.0000
55.4000 255.0000 1.0000
55.4100 280.0000 1.0000
55.4200 295.0000 1.0000
55.4300 285.0000 1.0000
55.4400 310.0000 1.0000
55.4500 280.0000 1.0000
55.4600 288.0000 1.0000
55.4700 291.0000 1.0000
55.4800 281.0000 1.0000
55.4900 277.0000 1.0000
55.5000 292.0000 1.0000
55.5100 267.0000 1.0000
55.5200 253.0000 1.0000
55.5300 273.0000 1.0000
55.5400 296.0000 1.0000
55.5500 256.0000 1.0000
55.5600 263.0000 1.0000
55.5700 267.0000 1.0000
55.5800 238.0000 1.0000
55.5900 290.0000 1.0000
55.6000 267.0000 1.0000
55.6100 288.0000 1.0000
55.6200 291.0000 1.0000
55.6300 288.0000 1.0000
55.6400 264.0000 1.0000
55.6500 268.0000 1.0000
55.6600 279.0000 1.0000
55.6700 263.0000 1.0000
55.6800 270.0000 1.0000
55.6900 284.0000 1.0000
55.7000 263.0000 1.0000
55.7100 268.0000 1.0000
55.7200 285.0000 1.0000
55.7300 264.0000 1.0000
55.7400 286.0000 1.0000
55.7500 289.0000 1.0000
55.7600 274.0000 1.0000
55.7700 285.0000 1.0000
55.7800 271.0000 1.0000
55.7900 286.0000 1.0000
55.8000 253.0000 1.0000
55.8100 267.0000 1.0000
55.8200 243.0000 1.0000
55.8300 257.0000 1.0000
55.8400 292.0000 1.0000
55.8500 276.0000 1.0000
55.8600 281.0000 1.0000
55.8700 286.0000 1.0000
55.8800 282.0000 1.0000
55.8900 265.0000 1.0000
55.9000 299.0000 1.0000
55.9100 289.0000 1.0000
55.9200 276.0000 1.0000
55.9300 266.0000 1.0000
55.9400 259.0000 1.0000
55.9500 272.0000 1.0000
55.9600 265.0000 1.0000
55.9700 285.0000 1.0000
55.9800 292.0000 1.0000
55.9900 282.0000 1.0000
56.0000 267.0000 1.0000
56.0100 266.0000 1.0000
56.0200 288.0000 1.0000
56.0300 286.0000 1.0000
56.0400 270.0000 1.0000
56.0500 300.0000 1.0000
56.0600 291.0000 1.0000
56.0700 258.0000 1.0000
56.0800 292.0000 1.0000
56.0900 249.0000 1.0000
56.1000 292.0000 1.0000
56.1100 290.0000 1.0000
56.1200 263.0000 1.0000
56.1300 287.0000 1.0000
56.1400 270.0000 1.0000
56.1500 283.0000 1.0000
56.1600 284.0000 1.0000
56.1700 295.0000 1.0000
56.1800 241.0000 1.0000
56.1900 255.0000 1.0000
56.2000 263.0000 1.0000
56.2100 274.0000 1.0000
56.2200 276.0000 1.0000
56.2300 298.0000 1.0000
56.2400 258.0000 1.0000
56.2500 303.0000 1.0000
56.2600 271.0000 1.0000
56.2700 270.0000 1.0000
56.2800 242.0000 1.0000
56.2900 270.0000 1.0000
56.3000 290.0000 1.0000
56.3100 263.0000 1.0000
56.3200 263.0000 1.0000
56.3300 276.0000 1.0000
56.3400 286.0000 1.0000
56.3500 269.0000 1.0000
56.3600 262.0000 1.0000
56.3700 261.0000 1.0000
56.3800 296.0000 1.0000
56.3900 266.0000 1.0000
56.4000 253.0000 1.0000
56.4100 270.0000 1.0000
56.4200 267.0000 1.0000
56.4300 284.0000 1.0000
56.4400 282.0000 1.0000
56.4500 289.0000 1.0000
56.4600 285.0000 1.0000
56.4700 278.0000 1.0000
56.4800 276.0000 1.0000
56.4900 269.0000 1.0000
56.5000 271.0000 1.0000
56.5100 264.0000 1.0000
56.5200 249.0000 1.0000
56.5300 281.0000 1.0000
56.5400 269.0000 1.0000
56.5500 276.0000 1.0000
56.5600 274.0000 1.0000
56.5700 286.0000 1.0000
56.5800 269.0000 1.0000
56.5900 263.0000 1.0000
56.6000 251.0000 1.0000
56.6100 270.0000 1.0000
56.6200 273.0000 1.0000
56.6300 260.0000 1.0000
56.6400 265.0000 1.0000
56.6500 259.0000 1.0000
56.6600 272.0000 1.0000
56.6700 288.0000 1.0000
56.6800 283.0000 1.0000
56.6900 279.0000 1.0000
56.7000 261.0000 1.0000
56.7100 261.0000 1.0000
56.7200 300.0000 1.0000
56.7300 264.0000 1.0000
56.7400 275.0000 1.0000
56.7500 263.0000 1.0000
56.7600 273.0000 1.0000
56.7700 259.0000 1.0000
56.7800 266.0000 1.0000
56.7900 253.0000 1.0000
56.8000 270.0000 1.0000
56.8100 274.0000 1.0000
56.8200 254.0000 1.0000
56.8300 284.0000 1.0000
56.8400 274.0000 1.0000
56.8500 272.0000 1.0000
56.8600 306.0000 1.0000
56.8700 281.0000 1.0000
56.8800 263.0000 1.0000
56.8900 291.0000 1.0000
56.9000 277.0000 1.0000
56.9100 280.0000 1.0000
56.9200 260.0000 1.0000
56.9300 278.0000 1.0000
56.9400 302.0000 1.0000
56.9500 256.0000 1.0000
56.9600 265.0000 1.0000
56.9700 290.0000 1.0000
56.9800 263.0000 1.0000
56.9900 265.0000 1.0000
57.0000 306.0000 1.0000
57.0100 269.0000 1.0000
57.0200 252.0000 1.0000
57.0300 266.0000 1.0000
57.0400 271.0000 1.0000
57.0500 259.0000 1.0000
57.0600 258.0000 1.0000
57.0700 271.0000 1.0000
57.0800 252.0000 1.0000
57.0900 279.0000 1.0000
57.1000 279.0000 1.0000
57.1100 284.0000 1.0000
57.1200 249.0000 1.0000
57.1300 277.0000 1.0000
57.1400 256.0000 1.0000
57.1500 279.0000 1.0000
57.1600 260.0000 1.0000
57.1700 302.0000 1.0000
57.1800 318.0000 1.0000
57.1900 290.0000 1.0000
57.2000 297.0000 1.0000
57.2100 256.0000 1.0000
57.2200 270.0000 1.0000
57.2300 264.0000 1.0000
57.2400 270.0000 1.0000
57.2500 235.0000 1.0000
57.2600 257.0000 1.0000
57.2700 261.0000 1.0000
57.2800 275.0000 1.0000
57.2900 271.0000 1.0000
57.3000 269.0000 1.0000
57.3100 289.0000 1.0000
57.3200 278.0000 1.0000
57.3300 265.0000 1.0000
57.3400 278.0000 1.0000
57.3500 259.0000 1.0000
57.3600 264.0000 1.0000
57.3700 280.0000 1.0000
57.3800 268.0000 1.0000
57.3900 265.0000 1.0000
57.4000 285.0000 1.0000
57.4100 250.0000 1.0000
57.4200 268.0000 1.0000
57.4300 278.0000 1.0000
57.4400 280.0000 1.0000
57.4500 290.0000 1.0000
57.4600 289.0000 1.0000
57.4700 278.0000 1.0000
57.4800 269.0000 1.0000
57.4900 266.0000 1.0000
57.5000 258.0000 1.0000
57.5100 279.0000 1.0000
57.5200 303.0000 1.0000
57.5300 295.0000 1.0000
57.5400 282.0000 1.0000
57.5500 292.0000 1.0000
57.5600 281.0000 1.0000
57.5700 298.0000 1.0000
57.5800 309.0000 1.0000
57.5900 293.0000 1.0000
57.6000 276.0000 1.0000
57.6100 288.0000 1.0000
57.6200 263.0000 1.0000
57.6300 278.0000 1.0000
57.6400 295.0000 1.0000
57.6500 290.0000 1.0000
57.6600 257.0000 1.0000
57.6700 255.0000 1.0000
57.6800 286.0000 1.0000
57.6900 286.0000 1.0000
57.7000 259.0000 1.0000
57.7100 262.0000 1.0000
57.7200 297.0000 1.0000
57.7300 299.0000 1.0000
57.7400 259.0000 1.0000
57.7500 304.0000 1.0000
57.7600 287.0000 1.0000
57.7700 282.0000 1.0000
57.7800 262.0000 1.0000
57.7900 265.0000 1.0000
57.8000 283.0000 1.0000
57.8100 275.0000 1.0000
57.8200 283.0000 1.0000
57.8300 318.0000 1.0000
57.8400 302.0000 1.0000
57.8500 281.0000 1.0000
57.8600 283.0000 1.0000
57.8700 255.0000 1.0000
57.8800 302.0000 1.0000
57.8900 306.0000 1.0000
57.9000 274.0000 1.0000
57.9100 270.0000 1.0000
57.9200 258.0000 1.0000
57.9300 254.0000 1.0000
57.9400 306.0000 1.0000
57.9500 275.0000 1.0000
57.9600 269.0000 1.0000
57.9700 272.0000 1.0000
57.9800 268.0000 1.0000
57.9900 262.0000 1.0000
58.0000 266.0000 1.0000
58.0100 281.0000 1.0000
58.0200 273.0000 1.0000
58.0300 237.0000 1.0000
58.0400 260.0000 1.0000
58.0500 270.0000 1.0000
58.0600 304.0000 1.0000
58.0700 279.0000 1.0000
58.0800 269.0000 1.0000
58.0900 273.0000 1.0000
58.1000 273.0000 1.0000
58.1100 276.0000 1.0000
58.1200 271.0000 1.0000
58.1300 299.0000 1.0000
58.1400 290.0000 1.0000
58.1500 254.0000 1.0000
58.1600 263.0000 1.0000
58.1700 255.0000 1.0000
58.1800 262.0000 1.0000
58.1900 276.0000 1.0000
58.2000 259.0000 1.0000
58.2100 243.0000 1.0000
58.2200 253.0000 1.0000
58.2300 268.0000 1.0000
58.2400 268.0000 1.0000
58.2500 266.0000 1.0000
58.2600 275.0000 1.0000
58.2700 303.0000 1.0000
58.2800 301.0000 1.0000
58.2900 269.0000 1.0000
58.3000 289.0000 1.0000
58.3100 274.0000 1.0000
58.3200 286.0000 1.0000
58.3300 277.0000 1.0000
58.3400 265.0000 1.0000
58.3500 249.0000 1.0000
58.3600 271.0000 1.0000
58.3700 294.0000 1.0000
58.3800 269.0000 1.0000
58.3900 265.0000 1.0000
58.4000 250.0000 1.0000
58.4100 271.0000 1.0000
58.4200 274.0000 1.0000
58.4300 266.0000 1.0000
58.4400 260.0000 1.0000
58.4500 279.0000 1.0000
58.4600 302.0000 1.0000
58.4700 272.0000 1.0000
58.4800 308.0000 1.0000
58.4900 285.0000 1.0000
58.5000 275.0000 1.0000
58.5100 286.0000 1.0000
58.5200 278.0000 1.0000
58.5300 279.0000 1.0000
58.5400 291.0000 1.0000
58.5500 273.0000 1.0000
58.5600 288.0000 1.0000
58.5700 292.0000 1.0000
58.5800 293.0000 1.0000
58.5900 284.0000 1.0000
58.6000 276.0000 1.0000
58.6100 286.0000 1.0000
58.6200 290.0000 1.0000
58.6300 256.0000 1.0000
58.6400 249.0000 1.0000
58.6500 245.0000 1.0000
58.6600 263.0000 1.0000
58.6700 263.0000 1.0000
58.6800 286.0000 1.0000
58.6900 281.0000 1.0000
58.7000 285.0000 1.0000
58.7100 271.0000 1.0000
58.7200 269.0000 1.0000
58.7300 247.0000 1.0000
58.7400 279.0000 1.0000
58.7500 279.0000 1.0000
58.7600 273.0000 1.0000
58.7700 261.0000 1.0000
58.7800 272.0000 1.0000
58.7900 256.0000 1.0000
58.8000 251.0000 1.0000
58.8100 259.0000 1.0000
58.8200 273.0000 1.0000
58.8300 272.0000 1.0000
58.8400 271.0000 1.0000
58.8500 260.0000 1.0000
58.8600 242.0000 1.0000
58.8700 263.0000 1.0000
58.8800 259.0000 1.0000
58.8900 252.0000 1.0000
58.9000 259.0000 1.0000
58.9100 265.0000 1.0000
58.9200 297.0000 1.0000
58.9300 278.0000 1.0000
58.9400 262.0000 1.0000
58.9500 252.0000 1.0000
58.9600 268.0000 1.0000
58.9700 264.0000 1.0000
58.9800 237.0000 1.0000
58.9900 258.0000 1.0000
59.0000 280.0000 1.0000
59.0100 293.0000 1.0000
59.0200 281.0000 1.0000
59.0300 268.0000 1.0000
59.0400 278.0000 1.0000
59.0500 277.0000 1.0000
59.0600 252.0000 1.0000
59.0700 269.0000 1.0000
59.0800 289.0000 1.0000
59.0900 266.0000 1.0000
59.1000 278.0000 1.0000
59.1100 289.0000 1.0000
59.1200 270.0000 1.0000
59.1300 267.0000 1.0000
59.1400 252.0000 1.0000
59.1500 281.0000 1.0000
59.1600 268.0000 1.0000
59.1700 271.0000 1.0000
59.1800 284.0000 1.0000
59.1900 272.0000 1.0000
59.2000 263.0000 1.0000
59.2100 271.0000 1.0000
59.2200 267.0000 1.0000
59.2300 273.0000 1.0000
59.2400 252.0000 1.0000
59.2500 267.0000 1.0000
59.2600 270.0000 1.0000
59.2700 260.0000 1.0000
59.2800 287.0000 1.0000
59.2900 276.0000 1.0000
59.3000 258.0000 1.0000
59.3100 269.0000 1.0000
59.3200 278.0000 1.0000
59.3300 268.0000 1.0000
59.3400 295.0000 1.0000
59.3500 276.0000 1.0000
59.3600 258.0000 1.0000
59.3700 273.0000 1.0000
59.3800 272.0000 1.0000
59.3900 274.0000 1.0000
59.4000 268.0000 1.0000
59.4100 271.0000 1.0000
59.4200 257.0000 1.0000
59.4300 260.0000 1.0000
59.4400 253.0000 1.0000
59.4500 264.0000 1.0000
59.4600 271.0000 1.0000
59.4700 290.0000 1.0000
59.4800 273.0000 1.0000
59.4900 271.0000 1.0000
59.5000 303.0000 1.0000
59.5100 258.0000 1.0000
59.5200 258.0000 1.0000
59.5300 274.0000 1.0000
59.5400 274.0000 1.0000
59.5500 279.0000 1.0000
59.5600 271.0000 1.0000
59.5700 268.0000 1.0000
59.5800 260.0000 1.0000
59.5900 233.0000 1.0000
59.6000 281.0000 1.0000
59.6100 288.0000 1.0000
59.6200 285.0000 1.0000
59.6300 261.0000 1.0000
59.6400 270.0000 1.0000
59.6500 293.0000 1.0000
59.6600 256.0000 1.0000
59.6700 272.0000 1.0000
59.6800 317.0000 1.0000
59.6900 278.0000 1.0000
59.7000 279.0000 1.0000
59.7100 287.0000 1.0000
59.7200 248.0000 1.0000
59.7300 253.0000 1.0000
59.7400 270.0000 1.0000
59.7500 285.0000 1.0000
59.7600 284.0000 1.0000
59.7700 276.0000 1.0000
59.7800 257.0000 1.0000
59.7900 270.0000 1.0000
59.8000 281.0000 1.0000
59.8100 277.0000 1.0000
59.8200 261.0000 1.0000
59.8300 269.0000 1.0000
59.8400 261.0000 1.0000
59.8500 268.0000 1.0000
59.8600 263.0000 1.0000
59.8700 265.0000 1.0000
59.8800 238.0000 1.0000
59.8900 249.0000 1.0000
59.9000 258.0000 1.0000
59.9100 253.0000 1.0000
59.9200 279.0000 1.0000
59.9300 266.0000 1.0000
59.9400 270.0000 1.0000
59.9500 267.0000 1.0000
59.9600 255.0000 1.0000
59.9700 279.0000 1.0000
59.9800 283.0000 1.0000
59.9900 265.0000 1.0000
60.0000 274.0000 1.0000
60.0100 277.0000 1.0000
60.0200 269.0000 1.0000
60.0300 246.0000 1.0000
60.0400 257.0000 1.0000
60.0500 280.0000 1.0000
60.0600 290.0000 1.0000
60.0700 262.0000 1.0000
60.0800 292.0000 1.0000
60.0900 299.0000 1.0000
60.1000 299.0000 1.0000
60.1100 276.0000 1.0000
60.1200 261.0000 1.0000
60.1300 266.0000 1.0000
60.1400 276.0000 1.0000
60.1500 277.0000 1.0000
60.1600 268.0000 1.0000
60.1700 265.0000 1.0000
60.1800 265.0000 1.0000
60.1900 243.0000 1.0000
60.2000 270.0000 1.0000
60.2100 256.0000 1.0000
60.2200 273.0000 1.0000
60.2300 270.0000 1.0000
60.2400 274.0000 1.0000
60.2500 264.0000 1.0000
60.2600 262.0000 1.0000
60.2700 271.0000 1.0000
60.2800 277.0000 1.0000
60.2900 281.0000 1.0000
60.3000 282.0000 1.0000
60.3100 273.0000 1.0000
60.3200 256.0000 1.0000
60.3300 283.0000 1.0000
60.3400 255.0000 1.0000
60.3500 248.0000 1.0000
60.3600 259.0000 1.0000
60.3700 258.0000 1.0000
60.3800 264.0000 1.0000
60.3900 273.0000 1.0000
60.4000 248.0000 1.0000
60.4100 273.0000 1.0000
60.4200 300.0000 1.0000
60.4300 264.0000 1.0000
60.4400 285.0000 1.0000
60.4500 274.0000 1.0000
60.4600 274.0000 1.0000
60.4700 262.0000 1.0000
60.4800 263.0000 1.0000
60.4900 275.0000 1.0000
60.5000 275.0000 1.0000
60.5100 294.0000 1.0000
60.5200 282.0000 1.0000
60.5300 296.0000 1.0000
60.5400 260.0000 1.0000
60.5500 246.0000 1.0000
60.5600 291.0000 1.0000
60.5700 265.0000 1.0000
60.5800 271.0000 1.0000
60.5900 272.0000 1.0000
60.6000 281.0000 1.0000
60.6100 254.0000 1.0000
60.6200 258.0000 1.0000
60.6300 271.0000 1.0000
60.6400 278.0000 1.0000
60.6500 271.0000 1.0000
60.6600 261.0000 1.0000
60.6700 288.0000 1.0000
60.6800 259.0000 1.0000
60.6900 258.0000 1.0000
60.7000 281.0000 1.0000
60.7100 270.0000 1.0000
60.7200 272.0000 1.0000
60.7300 262.0000 1.0000
60.7400 284.0000 1.0000
60.7500 272.0000 1.0000
60.7600 248.0000 1.0000
60.7700 265.0000 1.0000
60.7800 273.0000 1.0000
60.7900 307.0000 1.0000
60.8000 284.0000 1.0000
60.8100 307.0000 1.0000
60.8200 303.0000 1.0000
60.8300 304.0000 1.0000
60.8400 299.0000 1.0000
60.8500 262.0000 1.0000
60.8600 262.0000 1.0000
60.8700 268.0000 1.0000
60.8800 281.0000 1.0000
60.8900 295.0000 1.0000
60.9000 278.0000 1.0000
60.9100 289.0000 1.0000
60.9200 268.0000 1.0000
60.9300 302.0000 1.0000
60.9400 285.0000 1.0000
60.9500 260.0000 1.0000
60.9600 279.0000 1.0000
60.9700 279.0000 1.0000
60.9800 296.0000 1.0000
60.9900 289.0000 1.0000
61.0000 247.0000 1.0000
61.0100 281.0000 1.0000
61.0200 250.0000 1.0000
61.0300 269.0000 1.0000
61.0400 295.0000 1.0000
61.0500 289.0000 1.0000
61.0600 293.0000 1.0000
61.0700 306.0000 1.0000
61.0800 294.0000 1.0000
61.0900 306.0000 1.0000
61.1000 304.0000 1.0000
61.1100 271.0000 1.0000
61.1200 302.0000 1.0000
61.1300 313.0000 1.0000
61.1400 280.0000 1.0000
61.1500 314.0000 1.0000
61.1600 289.0000 1.0000
61.1700 312.0000 1.0000
61.1800 304.0000 1.0000
61.1900 317.0000 1.0000
61.2000 317.0000 1.0000
61.2100 312.0000 1.0000
61.2200 316.0000 1.0000
61.2300 308.0000 1.0000
61.2400 315.0000 1.0000
61.2500 340.0000 1.0000
61.2600 331.0000 1.0000
61.2700 337.0000 1.0000
61.2800 359.0000 1.0000
61.2900 347.0000 1.0000
61.3000 359.0000 1.0000
61.3100 355.0000 1.0000
61.3200 359.0000 1.0000
61.3300 367.0000 1.0000
61.3400 362.0000 1.0000
61.3500 361.0000 1.0000
61.3600 386.0000 1.0000
61.3700 413.0000 1.0000
61.3800 438.0000 1.0000
61.3900 444.0000 1.0000
61.4000 447.0000 1.0000
61.4100 433.0000 1.0000
61.4200 453.0000 1.0000
61.4300 518.0000 1.0000
61.4400 480.0000 1.0000
61.4500 491.0000 1.0000
61.4600 537.0000 1.0000
61.4700 534.0000 1.0000
61.4800 496.0000 1.0000
61.4900 551.0000 1.0000
61.5000 606.0000 1.0000
61.5100 582.0000 1.0000
61.5200 558.0000 1.0000
61.5300 568.0000 1.0000
61.5400 580.0000 1.0000
61.5500 563.0000 1.0000
61.5600 574.0000 1.0000
61.5700 588.0000 1.0000
61.5800 566.0000 1.0000
61.5900 543.0000 1.0000
61.6000 562.0000 1.0000
61.6100 558.0000 1.0000
61.6200 542.0000 1.0000
61.6300 547.0000 1.0000
61.6400 521.0000 1.0000
61.6500 571.0000 1.0000
61.6600 525.0000 1.0000
61.6700 502.0000 1.0000
61.6800 512.0000 1.0000
61.6900 514.0000 1.0000
61.7000 531.0000 1.0000
61.7100 529.0000 1.0000
61.7200 476.0000 1.0000
61.7300 501.0000 1.0000
61.7400 456.0000 1.0000
61.7500 462.0000 1.0000
61.7600 471.0000 1.0000
61.7700 493.0000 1.0000
61.7800 470.0000 1.0000
61.7900 434.0000 1.0000
61.8000 452.0000 1.0000
61.8100 439.0000 1.0000
61.8200 437.0000 1.0000
61.8300 416.0000 1.0000
61.8400 407.0000 1.0000
61.8500 384.0000 1.0000
61.8600 352.0000 1.0000
61.8700 361.0000 1.0000
61.8800 364.0000 1.0000
61.8900 386.0000 1.0000
61.9000 354.0000 1.0000
61.9100 347.0000 1.0000
61.9200 352.0000 1.0000
61.9300 359.0000 1.0000
61.9400 379.0000 1.0000
61.9500 340.0000 1.0000
61.9600 365.0000 1.0000
61.9700 337.0000 1.0000
61.9800 314.0000 1.0000
61.9900 308.0000 1.0000
62.0000 330.0000 1.0000
62.0100 333.0000 1.0000
62.0200 288.0000 1.0000
62.0300 334.0000 1.0000
62.0400 338.0000 1.0000
62.0500 316.0000 1.0000
62.0600 300.0000 1.0000
62.0700 309.0000 1.0000
62.0800 324.0000 1.0000
62.0900 313.0000 1.0000
62.1000 311.0000 1.0000
62.1100 288.0000 1.0000
62.1200 307.0000 1.0000
62.1300 289.0000 1.0000
62.1400 311.0000 1.0000
62.1500 293.0000 1.0000
62.1600 302.0000 1.0000
62.1700 292.0000 1.0000
62.1800 297.0000 1.0000
62.1900 293.0000 1.0000
62.2000 318.0000 1.0000
62.2100 287.0000 1.0000
62.2200 282.0000 1.0000
62.2300 305.0000 1.0000
62.2400 294.0000 1.0000
62.2500 279.0000 1.0000
62.2600 298.0000 1.0000
62.2700 287.0000 1.0000
62.2800 315.0000 1.0000
62.2900 313.0000 1.0000
62.3000 312.0000 1.0000
62.3100 307.0000 1.0000
62.3200 319.0000 1.0000
62.3300 318.0000 1.0000
62.3400 298.0000 1.0000
62.3500 313.0000 1.0000
62.3600 303.0000 1.0000
62.3700 336.0000 1.0000
62.3800 293.0000 1.0000
62.3900 299.0000 1.0000
62.4000 314.0000 1.0000
62.4100 301.0000 1.0000
62.4200 295.0000 1.0000
62.4300 281.0000 1.0000
62.4400 310.0000 1.0000
62.4500 304.0000 1.0000
62.4600 310.0000 1.0000
62.4700 299.0000 1.0000
62.4800 305.0000 1.0000
62.4900 273.0000 1.0000
62.5000 271.0000 1.0000
62.5100 281.0000 1.0000
62.5200 334.0000 1.0000
62.5300 288.0000 1.0000
62.5400 297.0000 1.0000
62.5500 304.0000 1.0000
62.5600 276.0000 1.0000
62.5700 288.0000 1.0000
62.5800 291.0000 1.0000
62.5900 296.0000 1.0000
62.6000 271.0000 1.0000
62.6100 247.0000 1.0000
62.6200 283.0000 1.0000
62.6300 303.0000 1.0000
62.6400 274.0000 1.0000
62.6500 282.0000 1.0000
62.6600 283.0000 1.0000
62.6700 275.0000 1.0000
62.6800 246.0000 1.0000
62.6900 268.0000 1.0000
62.7000 294.0000 1.0000
62.7100 261.0000 1.0000
62.7200 281.0000 1.0000
62.7300 265.0000 1.0000
62.7400 260.0000 1.0000
62.7500 270.0000 1.0000
62.7600 263.0000 1.0000
62.7700 282.0000 1.0000
62.7800 274.0000 1.0000
62.7900 268.0000 1.0000
62.8000 265.0000 1.0000
62.8100 263.0000 1.0000
62.8200 262.0000 1.0000
62.8300 292.0000 1.0000
62.8400 274.0000 1.0000
62.8500 265.0000 1.0000
62.8600 241.0000 1.0000
62.8700 279.0000 1.0000
62.8800 262.0000 1.0000
62.8900 273.0000 1.0000
62.9000 264.0000 1.0000
62.9100 274.0000 1.0000
62.9200 295.0000 1.0000
62.9300 273.0000 1.0000
62.9400 247.0000 1.0000
62.9500 269.0000 1.0000
62.9600 251.0000 1.0000
62.9700 261.0000 1.0000
62.9800 271.0000 1.0000
62.9900 281.0000 1.0000
63.0000 285.0000 1.0000
63.0100 262.0000 1.0000
63.0200 268.0000 1.0000
63.0300 268.0000 1.0000
63.0400 251.0000 1.0000
63.0500 267.0000 1.0000
63.0600 291.0000 1.0000
63.0700 293.0000 1.0000
63.0800 271.0000 1.0000
63.0900 287.0000 1.0000
63.1000 270.0000 1.0000
63.1100 277.0000 1.0000
63.1200 277.0000 1.0000
63.1300 257.0000 1.0000
63.1400 276.0000 1.0000
63.1500 254.0000 1.0000
63.1600 251.0000 1.0000
63.1700 270.0000 1.0000
63.1800 283.0000 1.0000
63.1900 273.0000 1.0000
63.2000 262.0000 1.0000
63.2100 264.0000 1.0000
63.2200 289.0000 1.0000
63.2300 257.0000 1.0000
63.2400 272.0000 1.0000
63.2500 299.0000 1.0000
63.2600 280.0000 1.0000
63.2700 249.0000 1.0000
63.2800 299.0000 1.0000
63.2900 269.0000 1.0000
63.3000 280.0000 1.0000
63.3100 271.0000 1.0000
63.3200 247.0000 1.0000
63.3300 262.0000 1.0000
63.3400 267.0000 1.0000
63.3500 265.0000 1.0000
63.3600 285.0000 1.0000
63.3700 267.0000 1.0000
63.3800 250.0000 1.0000
63.3900 287.0000 1.0000
63.4000 271.0000 1.0000
63.4100 286.0000 1.0000
63.4200 288.0000 1.0000
63.4300 270.0000 1.0000
63.4400 285.0000 1.0000
63.4500 270.0000 1.0000
63.4600 274.0000 1.0000
63.4700 267.0000 1.0000
63.4800 268.0000 1.0000
63.4900 265.0000 1.0000
63.5000 257.0000 1.0000
63.5100 283.0000 1.0000
63.5200 270.0000 1.0000
63.5300 269.0000 1.0000
63.5400 276.0000 1.0000
63.5500 261.0000 1.0000
63.5600 251.0000 1.0000
63.5700 262.0000 1.0000
63.5800 267.0000 1.0000
63.5900 281.0000 1.0000
63.6000 261.0000 1.0000
63.6100 259.0000 1.0000
63.6200 276.0000 1.0000
63.6300 309.0000 1.0000
63.6400 285.0000 1.0000
63.6500 275.0000 1.0000
63.6600 290.0000 1.0000
63.6700 320.0000 1.0000
63.6800 299.0000 1.0000
63.6900 291.0000 1.0000
63.7000 264.0000 1.0000
63.7100 300.0000 1.0000
63.7200 288.0000 1.0000
63.7300 304.0000 1.0000
63.7400 298.0000 1.0000
63.7500 285.0000 1.0000
63.7600 288.0000 1.0000
63.7700 298.0000 1.0000
63.7800 274.0000 1.0000
63.7900 300.0000 1.0000
63.8000 323.0000 1.0000
63.8100 297.0000 1.0000
63.8200 321.0000 1.0000
63.8300 334.0000 1.0000
63.8400 341.0000 1.0000
63.8500 320.0000 1.0000
63.8600 312.0000 1.0000
63.8700 327.0000 1.0000
63.8800 357.0000 1.0000
63.8900 391.0000 1.0000
63.9000 375.0000 1.0000
63.9100 364.0000 1.0000
63.9200 385.0000 1.0000
63.9300 388.0000 1.0000
63.9400 392.0000 1.0000
63.9500 400.0000 1.0000
63.9600 384.0000 1.0000
63.9700 381.0000 1.0000
63.9800 389.0000 1.0000
63.9900 384.0000 1.0000
64.0000 404.0000 1.0000
64.0100 408.0000 1.0000
64.0200 359.0000 1.0000
64.0300 348.0000 1.0000
64.0400 350.0000 1.0000
64.0500 365.0000 1.0000
64.0600 368.0000 1.0000
64.0700 377.0000 1.0000
64.0800 338.0000 1.0000
64.0900 393.0000 1.0000
64.1000 342.0000 1.0000
64.1100 329.0000 1.0000
64.1200 355.0000 1.0000
64.1300 365.0000 1.0000
64.1400 338.0000 1.0000
64.1500 352.0000 1.0000
64.1600 337.0000 1.0000
64.1700 329.0000 1.0000
64.1800 315.0000 1.0000
64.1900 344.0000 1.0000
64.2000 348.0000 1.0000
64.2100 321.0000 1.0000
64.2200 314.0000 1.0000
64.2300 312.0000 1.0000
64.2400 288.0000 1.0000
64.2500 294.0000 1.0000
64.2600 307.0000 1.0000
64.2700 311.0000 1.0000
64.2800 322.0000 1.0000
64.2900 319.0000 1.0000
64.3000 306.0000 1.0000
64.3100 309.0000 1.0000
64.3200 327.0000 1.0000
64.3300 298.0000 1.0000
64.3400 284.0000 1.0000
64.3500 273.0000 1.0000
64.3600 266.0000 1.0000
64.3700 293.0000 1.0000
64.3800 303.0000 1.0000
64.3900 271.0000 1.0000
64.4000 264.0000 1.0000
64.4100 265.0000 1.0000
64.4200 293.0000 1.0000
64.4300 284.0000 1.0000
64.4400 276.0000 1.0000
64.4500 308.0000 1.0000
64.4600 308.0000 1.0000
64.4700 270.0000 1.0000
64.4800 297.0000 1.0000
64.4900 257.0000 1.0000
64.5000 281.0000 1.0000
64.5100 317.0000 1.0000
64.5200 304.0000 1.0000
64.5300 265.0000 1.0000
64.5400 269.0000 1.0000
64.5500 300.0000 1.0000
64.5600 309.0000 1.0000
64.5700 266.0000 1.0000
64.5800 296.0000 1.0000
64.5900 272.0000 1.0000
64.6000 276.0000 1.0000
64.6100 283.0000 1.0000
64.6200 271.0000 1.0000
64.6300 271.0000 1.0000
64.6400 288.0000 1.0000
64.6500 290.0000 1.0000
64.6600 282.0000 1.0000
64.6700 296.0000 1.0000
64.6800 289.0000 1.0000
64.6900 258.0000 1.0000
64.7000 289.0000 1.0000
64.7100 269.0000 1.0000
64.7200 265.0000 1.0000
64.7300 312.0000 1.0000
64.7400 302.0000 1.0000
64.7500 298.0000 1.0000
64.7600 284.0000 1.0000
64.7700 255.0000 1.0000
64.7800 262.0000 1.0000
64.7900 263.0000 1.0000
64.8000 275.0000 1.0000
64.8100 269.0000 1.0000
64.8200 275.0000 1.0000
64.8300 264.0000 1.0000
64.8400 249.0000 1.0000
64.8500 299.0000 1.0000
64.8600 272.0000 1.0000
64.8700 268.0000 1.0000
64.8800 298.0000 1.0000
64.8900 310.0000 1.0000
64.9000 313.0000 1.0000
64.9100 278.0000 1.0000
64.9200 285.0000 1.0000
64.9300 300.0000 1.0000
64.9400 280.0000 1.0000
64.9500 290.0000 1.0000
64.9600 267.0000 1.0000
64.9700 282.0000 1.0000
64.9800 272.0000 1.0000
64.9900 313.0000 1.0000
65.0000 306.0000 1.0000
65.0100 280.0000 1.0000
65.0200 288.0000 1.0000
65.0300 285.0000 1.0000
65.0400 294.0000 1.0000
65.0500 291.0000 1.0000
65.0600 263.0000 1.0000
65.0700 294.0000 1.0000
65.0800 301.0000 1.0000
65.0900 291.0000 1.0000
65.1000 310.0000 1.0000
65.1100 323.0000 1.0000
65.1200 305.0000 1.0000
65.1300 304.0000 1.0000
65.1400 315.0000 1.0000
65.1500 317.0000 1.0000
65.1600 359.0000 1.0000
65.1700 354.0000 1.0000
65.1800 345.0000 1.0000
65.1900 332.0000 1.0000
65.2000 345.0000 1.0000
65.2100 366.0000 1.0000
65.2200 357.0000 1.0000
65.2300 347.0000 1.0000
65.2400 373.0000 1.0000
65.2500 392.0000 1.0000
65.2600 373.0000 1.0000
65.2700 387.0000 1.0000
65.2800 397.0000 1.0000
65.2900 382.0000 1.0000
65.3000 451.0000 1.0000
65.3100 433.0000 1.0000
65.3200 422.0000 1.0000
65.3300 478.0000 1.0000
65.3400 460.0000 1.0000
65.3500 508.0000 1.0000
65.3600 527.0000 1.0000
65.3700 499.0000 1.0000
65.3800 546.0000 1.0000
65.3900 585.0000 1.0000
65.4000 616.0000 1.0000
65.4100 626.0000 1.0000
65.4200 666.0000 1.0000
65.4300 696.0000 1.0000
65.4400 741.0000 1.0000
65.4500 734.0000 1.0000
65.4600 762.0000 1.0000
65.4700 817.0000 1.0000
65.4800 852.0000 1.0000
65.4900 840.0000 1.0000
65.5000 855.0000 1.0000
65.5100 896.0000 1.0000
65.5200 903.0000 1.0000
65.5300 973.0000 1.0000
65.5400 997.0000 1.0000
65.5500 979.0000 1.0000
65.5600 1017.0000 1.0000
65.5700 1021.0000 1.0000
65.5800 1015.0000 1.0000
65.5900 1012.0000 1.0000
65.6000 965.0000 1.0000
65.6100 993.0000 1.0000
65.6200 983.0000 1.0000
65.6300 947.0000 1.0000
65.6400 952.0000 1.0000
65.6500 877.0000 1.0000
65.6600 836.0000 1.0000
65.6700 811.0000 1.0000
65.6800 823.0000 1.0000
65.6900 847.0000 1.0000
65.7000 804.0000 1.0000
65.7100 776.0000 1.0000
65.7200 765.0000 1.0000
65.7300 810.0000 1.0000
65.7400 789.0000 1.0000
65.7500 739.0000 1.0000
65.7600 686.0000 1.0000
65.7700 727.0000 1.0000
65.7800 746.0000 1.0000
65.7900 667.0000 1.0000
65.8000 597.0000 1.0000
65.8100 624.0000 1.0000
65.8200 590.0000 1.0000
65.8300 592.0000 1.0000
65.8400 501.0000 1.0000
65.8500 519.0000 1.0000
65.8600 499.0000 1.0000
65.8700 479.0000 1.0000
65.8800 482.0000 1.0000
65.8900 439.0000 1.0000
65.9000 446.0000 1.0000
65.9100 411.0000 1.0000
65.9200 408.0000 1.0000
65.9300 379.0000 1.0000
65.9400 383.0000 1.0000
65.9500 366.0000 1.0000
65.9600 361.0000 1.0000
65.9700 372.0000 1.0000
65.9800 390.0000 1.0000
65.9900 363.0000 1.0000
66.0000 340.0000 1.0000
66.0100 367.0000 1.0000
66.0200 335.0000 1.0000
66.0300 333.0000 1.0000
66.0400 348.0000 1.0000
66.0500 311.0000 1.0000
66.0600 313.0000 1.0000
66.0700 331.0000 1.0000
66.0800 312.0000 1.0000
66.0900 293.0000 1.0000
66.1000 331.0000 1.0000
66.1100 286.0000 1.0000
66.1200 286.0000 1.0000
66.1300 317.0000 1.0000
66.1400 287.0000 1.0000
66.1500 293.0000 1.0000
66.1600 301.0000 1.0000
66.1700 295.0000 1.0000
66.1800 306.0000 1.0000
66.1900 265.0000 1.0000
66.2000 284.0000 1.0000
66.2100 275.0000 1.0000
66.2200 303.0000 1.0000
66.2300 285.0000 1.0000
66.2400 294.0000 1.0000
66.2500 282.0000 1.0000
66.2600 285.0000 1.0000
66.2700 297.0000 1.0000
66.2800 279.0000 1.0000
66.2900 275.0000 1.0000
66.3000 297.0000 1.0000
66.3100 285.0000 1.0000
66.3200 286.0000 1.0000
66.3300 241.0000 1.0000
66.3400 241.0000 1.0000
66.3500 275.0000 1.0000
66.3600 280.0000 1.0000
66.3700 248.0000 1.0000
66.3800 261.0000 1.0000
66.3900 271.0000 1.0000
66.4000 274.0000 1.0000
66.4100 275.0000 1.0000
66.4200 260.0000 1.0000
66.4300 289.0000 1.0000
66.4400 268.0000 1.0000
66.4500 264.0000 1.0000
66.4600 259.0000 1.0000
66.4700 239.0000 1.0000
66.4800 271.0000 1.0000
66.4900 247.0000 1.0000
66.5000 278.0000 1.0000
66.5100 245.0000 1.0000
66.5200 248.0000 1.0000
66.5300 291.0000 1.0000
66.5400 259.0000 1.0000
66.5500 256.0000 1.0000
66.5600 270.0000 1.0000
66.5700 278.0000 1.0000
66.5800 263.0000 1.0000
66.5900 250.0000 1.0000
66.6000 277.0000 1.0000
66.6100 277.0000 1.0000
66.6200 246.0000 1.0000
66.6300 241.0000 1.0000
66.6400 254.0000 1.0000
66.6500 253.0000 1.0000
66.6600 259.0000 1.0000
66.6700 227.0000 1.0000
66.6800 257.0000 1.0000
66.6900 265.0000 1.0000
66.7000 271.0000 1.0000
66.7100 260.0000 1.0000
66.7200 269.0000 1.0000
66.7300 274.0000 1.0000
66.7400 283.0000 1.0000
66.7500 257.0000 1.0000
66.7600 263.0000 1.0000
66.7700 225.0000 1.0000
66.7800 259.0000 1.0000
66.7900 246.0000 1.0000
66.8000 273.0000 1.0000
66.8100 260.0000 1.0000
66.8200 267.0000 1.0000
66.8300 263.0000 1.0000
66.8400 248.0000 1.0000
66.8500 267.0000 1.0000
66.8600 263.0000 1.0000
66.8700 280.0000 1.0000
66.8800 278.0000 1.0000
66.8900 247.0000 1.0000
66.9000 236.0000 1.0000
66.9100 228.0000 1.0000
66.9200 255.0000 1.0000
66.9300 280.0000 1.0000
66.9400 251.0000 1.0000
66.9500 243.0000 1.0000
66.9600 281.0000 1.0000
66.9700 261.0000 1.0000
66.9800 235.0000 1.0000
66.9900 260.0000 1.0000
67.0000 231.0000 1.0000
67.0100 256.0000 1.0000
67.0200 244.0000 1.0000
67.0300 253.0000 1.0000
67.0400 265.0000 1.0000
67.0500 252.0000 1.0000
67.0600 252.0000 1.0000
67.0700 271.0000 1.0000
67.0800 253.0000 1.0000
67.0900 253.0000 1.0000
67.1000 248.0000 1.0000
67.1100 254.0000 1.0000
67.1200 250.0000 1.0000
67.1300 251.0000 1.0000
67.1400 257.0000 1.0000
67.1500 269.0000 1.0000
67.1600 251.0000 1.0000
67.1700 251.0000 1.0000
67.1800 250.0000 1.0000
67.1900 265.0000 1.0000
67.2000 235.0000 1.0000
67.2100 268.0000 1.0000
67.2200 254.0000 1.0000
67.2300 248.0000 1.0000
67.2400 225.0000 1.0000
67.2500 249.0000 1.0000
67.2600 247.0000 1.0000
67.2700 273.0000 1.0000
67.2800 249.0000 1.0000
67.2900 256.0000 1.0000
67.3000 276.0000 1.0000
67.3100 259.0000 1.0000
67.3200 283.0000 1.0000
67.3300 264.0000 1.0000
67.3400 265.0000 1.0000
67.3500 226.0000 1.0000
67.3600 239.0000 1.0000
67.3700 247.0000 1.0000
67.3800 238.0000 1.0000
67.3900 266.0000 1.0000
67.4000 252.0000 1.0000
67.4100 257.0000 1.0000
67.4200 234.0000 1.0000
67.4300 231.0000 1.0000
67.4400 215.0000 1.0000
67.4500 223.0000 1.0000
67.4600 232.0000 1.0000
67.4700 227.0000 1.0000
67.4800 259.0000 1.0000
67.4900 254.0000 1.0000
67.5000 247.0000 1.0000
67.5100 230.0000 1.0000
67.5200 229.0000 1.0000
67.5300 246.0000 1.0000
67.5400 256.0000 1.0000
67.5500 241.0000 1.0000
67.5600 257.0000 1.0000
67.5700 233.0000 1.0000
67.5800 243.0000 1.0000
67.5900 214.0000 1.0000
67.6000 233.0000 1.0000
67.6100 238.0000 1.0000
67.6200 222.0000 1.0000
67.6300 230.0000 1.0000
67.6400 264.0000 1.0000
67.6500 249.0000 1.0000
67.6600 234.0000 1.0000
67.6700 259.0000 1.0000
67.6800 245.0000 1.0000
67.6900 218.0000 1.0000
67.7000 220.0000 1.0000
67.7100 240.0000 1.0000
67.7200 255.0000 1.0000
67.7300 254.0000 1.0000
67.7400 244.0000 1.0000
67.7500 251.0000 1.0000
67.7600 229.0000 1.0000
67.7700 226.0000 1.0000
67.7800 253.0000 1.0000
67.7900 222.0000 1.0000
67.8000 225.0000 1.0000
67.8100 243.0000 1.0000
67.8200 229.0000 1.0000
67.8300 208.0000 1.0000
67.8400 248.0000 1.0000
67.8500 268.0000 1.0000
67.8600 226.0000 1.0000
67.8700 247.0000 1.0000
67.8800 252.0000 1.0000
67.8900 254.0000 1.0000
67.9000 269.0000 1.0000
67.9100 233.0000 1.0000
67.9200 242.0000 1.0000
67.9300 254.0000 1.0000
67.9400 243.0000 1.0000
67.9500 221.0000 1.0000
67.9600 250.0000 1.0000
67.9700 259.0000 1.0000
67.9800 254.0000 1.0000
67.9900 241.0000 1.0000
68.0000 235.0000 1.0000
68.0100 238.0000 1.0000
68.0200 233.0000 1.0000
68.0300 214.0000 1.0000
68.0400 241.0000 1.0000
68.0500 230.0000 1.0000
68.0600 238.0000 1.0000
68.0700 248.0000 1.0000
68.0800 228.0000 1.0000
68.0900 212.0000 1.0000
68.1000 227.0000 1.0000
68.1100 228.0000 1.0000
68.1200 227.0000 1.0000
68.1300 229.0000 1.0000
68.1400 227.0000 1.0000
68.1500 263.0000 1.0000
68.1600 247.0000 1.0000
68.1700 245.0000 1.0000
68.1800 247.0000 1.0000
68.1900 261.0000 1.0000
68.2000 224.0000 1.0000
68.2100 230.0000 1.0000
68.2200 214.0000 1.0000
68.2300 253.0000 1.0000
68.2400 239.0000 1.0000
68.2500 232.0000 1.0000
68.2600 252.0000 1.0000
68.2700 228.0000 1.0000
68.2800 246.0000 1.0000
68.2900 245.0000 1.0000
68.3000 231.0000 1.0000
68.3100 227.0000 1.0000
68.3200 207.0000 1.0000
68.3300 235.0000 1.0000
68.3400 224.0000 1.0000
68.3500 223.0000 1.0000
68.3600 235.0000 1.0000
68.3700 213.0000 1.0000
68.3800 249.0000 1.0000
68.3900 205.0000 1.0000
68.4000 240.0000 1.0000
68.4100 239.0000 1.0000
68.4200 244.0000 1.0000
68.4300 243.0000 1.0000
68.4400 233.0000 1.0000
68.4500 235.0000 1.0000
68.4600 257.0000 1.0000
68.4700 267.0000 1.0000
68.4800 242.0000 1.0000
68.4900 233.0000 1.0000
68.5000 234.0000 1.0000
68.5100 227.0000 1.0000
68.5200 232.0000 1.0000
68.5300 230.0000 1.0000
68.5400 230.0000 1.0000
68.5500 237.0000 1.0000
68.5600 223.0000 1.0000
68.5700 226.0000 1.0000
68.5800 252.0000 1.0000
68.5900 254.0000 1.0000
68.6000 264.0000 1.0000
68.6100 259.0000 1.0000
68.6200 242.0000 1.0000
68.6300 244.0000 1.0000
68.6400 255.0000 1.0000
68.6500 255.0000 1.0000
68.6600 243.0000 1.0000
68.6700 242.0000 1.0000
68.6800 233.0000 1.0000
68.6900 245.0000 1.0000
68.7000 233.0000 1.0000
68.7100 232.0000 1.0000
68.7200 229.0000 1.0000
68.7300 237.0000 1.0000
68.7400 253.0000 1.0000
68.7500 245.0000 1.0000
68.7600 252.0000 1.0000
68.7700 253.0000 1.0000
68.7800 269.0000 1.0000
68.7900 259.0000 1.0000
68.8000 239.0000 1.0000
68.8100 232.0000 1.0000
68.8200 233.0000 1.0000
68.8300 217.0000 1.0000
68.8400 269.0000 1.0000
68.8500 260.0000 1.0000
68.8600 258.0000 1.0000
68.8700 248.0000 1.0000
68.8800 220.0000 1.0000
68.8900 238.0000 1.0000
68.9000 256.0000 1.0000
68.9100 253.0000 1.0000
68.9200 250.0000 1.0000
68.9300 241.0000 1.0000
68.9400 236.0000 1.0000
68.9500 208.0000 1.0000
68.9600 240.0000 1.0000
68.9700 223.0000 1.0000
68.9800 209.0000 1.0000
68.9900 233.0000 1.0000
69.0000 263.0000 1.0000
69.0100 221.0000 1.0000
69.0200 208.0000 1.0000
69.0300 243.0000 1.0000
69.0400 241.0000 1.0000
69.0500 246.0000 1.0000
69.0600 245.0000 1.0000
69.0700 245.0000 1.0000
69.0800 255.0000 1.0000
69.0900 250.0000 1.0000
69.1000 233.0000 1.0000
69.1100 218.0000 1.0000
69.1200 257.0000 1.0000
69.1300 258.0000 1.0000
69.1400 234.0000 1.0000
69.1500 239.0000 1.0000
69.1600 238.0000 1.0000
69.1700 233.0000 1.0000
69.1800 260.0000 1.0000
69.1900 243.0000 1.0000
69.2000 232.0000 1.0000
69.2100 244.0000 1.0000
69.2200 242.0000 1.0000
69.2300 243.0000 1.0000
69.2400 219.0000 1.0000
69.2500 237.0000 1.0000
69.2600 222.0000 1.0000
69.2700 224.0000 1.0000
69.2800 219.0000 1.0000
69.2900 250.0000 1.0000
69.3000 257.0000 1.0000
69.3100 260.0000 1.0000
69.3200 245.0000 1.0000
69.3300 238.0000 1.0000
69.3400 236.0000 1.0000
69.3500 214.0000 1.0000
69.3600 229.0000 1.0000
69.3700 225.0000 1.0000
69.3800 232.0000 1.0000
69.3900 240.0000 1.0000
69.4000 233.0000 1.0000
69.4100 244.0000 1.0000
69.4200 235.0000 1.0000
69.4300 245.0000 1.0000
69.4400 235.0000 1.0000
69.4500 247.0000 1.0000
69.4600 237.0000 1.0000
69.4700 234.0000 1.0000
69.4800 252.0000 1.0000
69.4900 262.0000 1.0000
69.5000 246.0000 1.0000
69.5100 246.0000 1.0000
69.5200 254.0000 1.0000
69.5300 258.0000 1.0000
69.5400 250.0000 1.0000
69.5500 239.0000 1.0000
69.5600 232.0000 1.0000
69.5700 232.0000 1.0000
69.5800 212.0000 1.0000
69.5900 212.0000 1.0000
69.6000 232.0000 1.0000
69.6100 244.0000 1.0000
69.6200 224.0000 1.0000
69.6300 224.0000 1.0000
69.6400 218.0000 1.0000
69.6500 211.0000 1.0000
69.6600 225.0000 1.0000
69.6700 238.0000 1.0000
69.6800 225.0000 1.0000
69.6900 260.0000 1.0000
69.7000 215.0000 1.0000
69.7100 237.0000 1.0000
69.7200 250.0000 1.0000
69.7300 238.0000 1.0000
69.7400 227.0000 1.0000
69.7500 221.0000 1.0000
69.7600 221.0000 1.0000
69.7700 241.0000 1.0000
69.7800 244.0000 1.0000
69.7900 248.0000 1.0000
69.8000 236.0000 1.0000
69.8100 221.0000 1.0000
69.8200 233.0000 1.0000
69.8300 223.0000 1.0000
69.8400 229.0000 1.0000
69.8500 242.0000 1.0000
69.8600 225.0000 1.0000
69.8700 222.0000 1.0000
69.8800 266.0000 1.0000
69.8900 246.0000 1.0000
69.9000 236.0000 1.0000
69.9100 254.0000 1.0000
69.9200 226.0000 1.0000
69.9300 218.0000 1.0000
69.9400 215.0000 1.0000
69.9500 208.0000 1.0000
69.9600 214.0000 1.0000
69.9700 211.0000 1.0000
69.9800 219.0000 1.0000
69.9900 210.0000 1.0000
70.0000 206.0000 1.0000
*RAS_INT_END
*RAS_TEMPERATURE_START
*RAS_TEMPERATURE_END
*RAS_DATA_END
