*RAS_DATA_START
*RAS_HEADER_START
*DISP_FMT_X "%.2f"
*DISP_FMT_Y "%.0f"
*DISP_FULLSCALE "14170.0000000000"
*DISP_LINE_COLOR "255.0000000000"
*DISP_LINE_STYLE "0.0000000000"
*DISP_LINE_WIDTH "0.2500000000"
*DISP_NOTE "測定データ-16"
*DISP_OFFSET_Y "0.0000000000"
*DISP_PEAKSEARCH_UNIT_Y "cps"
*DISP_RANGE_BOTTOM "0.0000000000"
*DISP_RANGE_LEFT "20.0000000000"
*DISP_RANGE_LOGCUTOFF "0.0100000000"
*DISP_RANGE_RIGHT "70.0000000000"
*DISP_RANGE_TOP "14170.0000000000"
*DISP_SCALE_MODE_Y "0.0000000000"
*DISP_TAB_NAME "2θ/θ"
*DISP_TITLE_Y "強度"
*DISP_UNIT_Y "cps"
*DISP_WINDOW_NAME "MSG_MACROENGINE"
*FILE_COMMENT " "
*FILE_MD5 ""
*FILE_MEMO " "
*FILE_OPERATOR "Administrator"
*FILE_SAMPLE " "
*FILE_TYPE "RAS_RAW"
*FILE_USERGROUP "システムマネージャ"
*FILE_VERSION "1.0000000000"
*HW_ATTACHMENT_ID "ATT0025"
*HW_ATTACHMENT_NAME "標準|Standard"
*HW_COUNTER_ID-0 "CUT0025"
*HW_COUNTER_ID-1 "CUT0020"
*HW_COUNTER_ID-2 "CUT0020"
*HW_COUNTER_ID-3 "CSL0021"
*HW_COUNTER_ID-4 "CMC0021"
*HW_COUNTER_NAME-0 "D/teX Ultra|D/teX Ultra"
*HW_COUNTER_NAME-1 "None|None"
*HW_COUNTER_NAME-2 "None|None"
*HW_COUNTER_NAME-3 "BBM|BBM"
*HW_COUNTER_NAME-4 "検出器モノクロメータ|Detector monochromator"
*HW_COUNTER_SELECT_NAME "D/teX Ultra|D/teX Ultra"
*HW_GONIOMETER_ID "GON0023"
*HW_GONIOMETER_NAME "SmartLab|SmartLab"
*HW_GONIOMETER_RADIUS-0 "90.0"
*HW_GONIOMETER_RADIUS-1 "114.0"
*HW_GONIOMETER_RADIUS-2 "190.0"
*HW_GONIOMETER_RADIUS-3 "300.0"
*HW_GONIOMETER_RADIUS-4 "187.0"
*HW_GONIOMETER_RADIUS-5 "300.0"
*HW_GONIOMETER_RADIUS-6 "113.0"
*HW_GONIOMETER_RADIUS-7 "331.0"
*HW_I_OPT_ID-0 "CBO0021"
*HW_I_OPT_ID-1 "ICR0023"
*HW_I_OPT_ID-2 "ISL0021"
*HW_I_OPT_ID-3 "ISO0021"
*HW_I_OPT_ID-4 "IAD0021"
*HW_I_OPT_ID-5 "IPR0001"
*HW_I_OPT_NAME-0 "CBOユニット|CBO unit"
*HW_I_OPT_NAME-1 "標準入射光学ユニット|Standard incident optical unit"
*HW_I_OPT_NAME-2 "標準入射スリットボックス|Standard incident slit box"
*HW_I_OPT_NAME-3 "入射平行スリット|Incident parallel slit"
*HW_I_OPT_NAME-4 "長手制限スリット|Length limiting slit"
*HW_I_OPT_NAME-5 "None|None"
*HW_R_ATTENUATER_AUTOMODE "0"
*HW_R_OPT_ID-0 "RSS0021"
*HW_R_OPT_ID-1 "RCR0023"
*HW_R_OPT_ID-2 "RSO0021"
*HW_R_OPT_ID-3 "RRS0021"
*HW_R_OPT_ID-4 "ATN0021"
*HW_R_OPT_ID-5 "RFL0021"
*HW_R_OPT_ID-6 "RAD0021"
*HW_R_OPT_NAME-0 "標準受光スリットボックス1|Standard receiving slit box # 1"
*HW_R_OPT_NAME-1 "標準受光光学ユニット1|Standard receiving unit # 1"
*HW_R_OPT_NAME-2 "標準受光光学ユニット2|Standard receiving optical unit # 2"
*HW_R_OPT_NAME-3 "標準受光スリットボックス2|Standard receiving slit box # 2"
*HW_R_OPT_NAME-4 "標準アッテネータ|Standard Attenuator"
*HW_R_OPT_NAME-5 "Cu Kβ|Cu K-beta"
*HW_R_OPT_NAME-6 "調整用受光スリット|Alignment receiving slit"
*HW_SAMPLE_HOLDER_ID "SMP0023"
*HW_SAMPLE_HOLDER_NAME "標準Zステージ|Standard Z stage"
*HW_XG_CURRENT_MAX "50"
*HW_XG_CURRENT_MIN "2"
*HW_XG_CURRENT_RESOLUTION "1"
*HW_XG_CURRENT_UNIT "mA"
*HW_XG_FOCUS "1mm x 10mm"
*HW_XG_FOCUS_TYPE "Normal"
*HW_XG_ID ""
*HW_XG_NAME "3kW 封入管(ID:1200)|3kW Sealed tube(ID:1200)"
*HW_XG_TARGET_ATOMIC_NUMBER "29.0000000000"
*HW_XG_TARGET_NAME "Cu"
*HW_XG_TYPE "Hermetic"
*HW_XG_VOLTAGE_MAX "60"
*HW_XG_VOLTAGE_MIN "20"
*HW_XG_VOLTAGE_RESOLUTION "1"
*HW_XG_VOLTAGE_UNIT "kV"
*HW_XG_WATT_MAX "1.500"
*HW_XG_WATT_UNIT "kW"
*HW_XG_WAVE_LENGTH_ALPHA1 "1.540593"
*HW_XG_WAVE_LENGTH_ALPHA2 "1.544414"
*HW_XG_WAVE_LENGTH_BETA "1.392250"
*MEAS_COND_AXIS_NAME-0 "2θ/θ"
*MEAS_COND_AXIS_NAME-1 "2θ"
*MEAS_COND_AXIS_NAME-2 "ω"
*MEAS_COND_AXIS_NAME-3 "Z"
*MEAS_COND_AXIS_NAME-4 "2θ/ω"
*MEAS_COND_AXIS_NAME-5 "θs"
*MEAS_COND_AXIS_NAME-6 "θd"
*MEAS_COND_AXIS_NAME-7 "Ts"
*MEAS_COND_AXIS_NAME-8 "CBO選択スリット"
*MEAS_COND_AXIS_NAME-9 "M"
*MEAS_COND_AXIS_NAME-10 "入射平行スリット"
*MEAS_COND_AXIS_NAME-11 "入射スリット"
*MEAS_COND_AXIS_NAME-12 ""
*MEAS_COND_AXIS_NAME-13 "Zs"
*MEAS_COND_AXIS_NAME-14 "入射光学素子"
*MEAS_COND_AXIS_NAME-15 "長手制限スリット"
*MEAS_COND_AXIS_NAME-16 "センタースリット"
*MEAS_COND_AXIS_NAME-17 "フィルター"
*MEAS_COND_AXIS_NAME-18 "受光スリット1"
*MEAS_COND_AXIS_NAME-19 "受光スリット2"
*MEAS_COND_AXIS_NAME-20 "受光光学素子"
*MEAS_COND_AXIS_NAME-21 "受光平行スリット"
*MEAS_COND_AXIS_NAME-22 "調整用受光スリット"
*MEAS_COND_AXIS_NAME-23 ""
*MEAS_COND_AXIS_NAME-24 ""
*MEAS_COND_AXIS_NAME-25 "Zd"
*MEAS_COND_AXIS_NAME-26 "アッテネータ"
*MEAS_COND_AXIS_NAME-27 "検出器モノクロメータ"
*MEAS_COND_AXIS_NAME-28 "モノクロメータスリット"
*MEAS_COND_AXIS_NAME-29 "プライマリビーム"
*MEAS_COND_AXIS_NAME-30 "PHA"
*MEAS_COND_AXIS_NAME_INTERNAL-0 "TwoThetaTheta"
*MEAS_COND_AXIS_NAME_INTERNAL-1 "TwoTheta"
*MEAS_COND_AXIS_NAME_INTERNAL-2 "Omega"
*MEAS_COND_AXIS_NAME_INTERNAL-3 "Z"
*MEAS_COND_AXIS_NAME_INTERNAL-4 "TwoThetaOmega"
*MEAS_COND_AXIS_NAME_INTERNAL-5 "ThetaS"
*MEAS_COND_AXIS_NAME_INTERNAL-6 "ThetaD"
*MEAS_COND_AXIS_NAME_INTERNAL-7 "Ts"
*MEAS_COND_AXIS_NAME_INTERNAL-8 "CBO"
*MEAS_COND_AXIS_NAME_INTERNAL-9 "CBO-M"
*MEAS_COND_AXIS_NAME_INTERNAL-10 "IncidentSollerSlit"
*MEAS_COND_AXIS_NAME_INTERNAL-11 "IncidentSlitBox"
*MEAS_COND_AXIS_NAME_INTERNAL-12 "IncidentSlitBox-_Axis"
*MEAS_COND_AXIS_NAME_INTERNAL-13 "Zs"
*MEAS_COND_AXIS_NAME_INTERNAL-14 "IncidentMonochromator"
*MEAS_COND_AXIS_NAME_INTERNAL-15 "IncidentAxdSlit"
*MEAS_COND_AXIS_NAME_INTERNAL-16 "CenterSlit"
*MEAS_COND_AXIS_NAME_INTERNAL-17 "Filter"
*MEAS_COND_AXIS_NAME_INTERNAL-18 "ReceivingSlitBox1"
*MEAS_COND_AXIS_NAME_INTERNAL-19 "ReceivingSlitBox2"
*MEAS_COND_AXIS_NAME_INTERNAL-20 "ReceivingOptics"
*MEAS_COND_AXIS_NAME_INTERNAL-21 "ReceivingSollerSlit"
*MEAS_COND_AXIS_NAME_INTERNAL-22 "ReceivingAxdSlit"
*MEAS_COND_AXIS_NAME_INTERNAL-23 "ReceivingSlitBox1-_Axis"
*MEAS_COND_AXIS_NAME_INTERNAL-24 "ReceivingSlitBox2-_Axis"
*MEAS_COND_AXIS_NAME_INTERNAL-25 "ReceivingSlitBox2-Zd"
*MEAS_COND_AXIS_NAME_INTERNAL-26 "Attenuator"
*MEAS_COND_AXIS_NAME_INTERNAL-27 "CounterMonochromator"
*MEAS_COND_AXIS_NAME_INTERNAL-28 "CounterSlit"
*MEAS_COND_AXIS_NAME_INTERNAL-29 "IncidentPrimary"
*MEAS_COND_AXIS_NAME_INTERNAL-30 "PHA"
*MEAS_COND_AXIS_NAME_MAGICNO-0 "83951616.0000000000"
*MEAS_COND_AXIS_NAME_MAGICNO-1 "268632064.0000000000"
*MEAS_COND_AXIS_NAME_MAGICNO-2 "268500992.0000000000"
*MEAS_COND_AXIS_NAME_MAGICNO-3 "285278208.0000000000"
*MEAS_COND_AXIS_NAME_MAGICNO-4 "83951616.0000000000"
*MEAS_COND_AXIS_NAME_MAGICNO-5 "131072.0000000000"
*MEAS_COND_AXIS_NAME_MAGICNO-6 "131072.0000000000"
*MEAS_COND_AXIS_NAME_MAGICNO-7 "318898176.0000000000"
*MEAS_COND_AXIS_NAME_MAGICNO-8 "20971521.0000000000"
*MEAS_COND_AXIS_NAME_MAGICNO-9 "285343744.0000000000"
*MEAS_COND_AXIS_NAME_MAGICNO-10 "20971521.0000000000"
*MEAS_COND_AXIS_NAME_MAGICNO-11 "22020097.0000000000"
*MEAS_COND_AXIS_NAME_MAGICNO-12 "25165824.0000000000"
*MEAS_COND_AXIS_NAME_MAGICNO-13 "318898176.0000000000"
*MEAS_COND_AXIS_NAME_MAGICNO-14 "1.0000000000"
*MEAS_COND_AXIS_NAME_MAGICNO-15 "20971521.0000000000"
*MEAS_COND_AXIS_NAME_MAGICNO-16 "20971521.0000000000"
*MEAS_COND_AXIS_NAME_MAGICNO-17 "20971521.0000000000"
*MEAS_COND_AXIS_NAME_MAGICNO-18 "23068673.0000000000"
*MEAS_COND_AXIS_NAME_MAGICNO-19 "23068673.0000000000"
*MEAS_COND_AXIS_NAME_MAGICNO-20 "20971521.0000000000"
*MEAS_COND_AXIS_NAME_MAGICNO-21 "20971521.0000000000"
*MEAS_COND_AXIS_NAME_MAGICNO-22 "20971521.0000000000"
*MEAS_COND_AXIS_NAME_MAGICNO-23 "25165824.0000000000"
*MEAS_COND_AXIS_NAME_MAGICNO-24 "25165824.0000000000"
*MEAS_COND_AXIS_NAME_MAGICNO-25 "285343744.0000000000"
*MEAS_COND_AXIS_NAME_MAGICNO-26 "17301505.0000000000"
*MEAS_COND_AXIS_NAME_MAGICNO-27 "20971521.0000000000"
*MEAS_COND_AXIS_NAME_MAGICNO-28 "20971521.0000000000"
*MEAS_COND_AXIS_NAME_MAGICNO-29 "20971521.0000000000"
*MEAS_COND_AXIS_NAME_MAGICNO-30 "0.0000000000"
*MEAS_COND_AXIS_OFFSET-0 "-"
*MEAS_COND_AXIS_OFFSET-1 "-0.0310000000"
*MEAS_COND_AXIS_OFFSET-2 "0.4064000000"
*MEAS_COND_AXIS_OFFSET-3 "-"
*MEAS_COND_AXIS_OFFSET-4 "-"
*MEAS_COND_AXIS_OFFSET-5 "0.4064000000"
*MEAS_COND_AXIS_OFFSET-6 "-0.4374000000"
*MEAS_COND_AXIS_OFFSET-7 "-"
*MEAS_COND_AXIS_OFFSET-8 "-"
*MEAS_COND_AXIS_OFFSET-9 "-"
*MEAS_COND_AXIS_OFFSET-10 "-"
*MEAS_COND_AXIS_OFFSET-11 "-"
*MEAS_COND_AXIS_OFFSET-12 "-"
*MEAS_COND_AXIS_OFFSET-13 "-"
*MEAS_COND_AXIS_OFFSET-14 "-"
*MEAS_COND_AXIS_OFFSET-15 "-"
*MEAS_COND_AXIS_OFFSET-16 "-"
*MEAS_COND_AXIS_OFFSET-17 "-"
*MEAS_COND_AXIS_OFFSET-18 "-"
*MEAS_COND_AXIS_OFFSET-19 "-"
*MEAS_COND_AXIS_OFFSET-20 "-"
*MEAS_COND_AXIS_OFFSET-21 "-"
*MEAS_COND_AXIS_OFFSET-22 "-"
*MEAS_COND_AXIS_OFFSET-23 "-"
*MEAS_COND_AXIS_OFFSET-24 "-"
*MEAS_COND_AXIS_OFFSET-25 "-"
*MEAS_COND_AXIS_OFFSET-26 "-"
*MEAS_COND_AXIS_OFFSET-27 "-"
*MEAS_COND_AXIS_OFFSET-28 "-"
*MEAS_COND_AXIS_OFFSET-29 "-"
*MEAS_COND_AXIS_OFFSET-30 "-"
*MEAS_COND_AXIS_POSITION-0 "0.0000000000"
*MEAS_COND_AXIS_POSITION-1 "0.0000000000"
*MEAS_COND_AXIS_POSITION-2 "0.0000000000"
*MEAS_COND_AXIS_POSITION-3 "-2.8286000000"
*MEAS_COND_AXIS_POSITION-4 "0.0000000000"
*MEAS_COND_AXIS_POSITION-5 "0.0000000000"
*MEAS_COND_AXIS_POSITION-6 "0.0000000000"
*MEAS_COND_AXIS_POSITION-7 "-0.7498700000"
*MEAS_COND_AXIS_POSITION-8 "BB"
*MEAS_COND_AXIS_POSITION-9 "0.0000000000"
*MEAS_COND_AXIS_POSITION-10 "Soller_slit_5.0deg"
*MEAS_COND_AXIS_POSITION-11 "2/3deg"
*MEAS_COND_AXIS_POSITION-12 "2.2088000000"
*MEAS_COND_AXIS_POSITION-13 "-0.6412500000"
*MEAS_COND_AXIS_POSITION-14 "0.0000000000"
*MEAS_COND_AXIS_POSITION-15 "10.0mm"
*MEAS_COND_AXIS_POSITION-16 "None"
*MEAS_COND_AXIS_POSITION-17 "Cu_K-beta"
*MEAS_COND_AXIS_POSITION-18 "13.000mm"
*MEAS_COND_AXIS_POSITION-19 "13.000mm"
*MEAS_COND_AXIS_POSITION-20 "No_unit"
*MEAS_COND_AXIS_POSITION-21 "Soller_slit_5.0deg"
*MEAS_COND_AXIS_POSITION-22 "None"
*MEAS_COND_AXIS_POSITION-23 "13.0000000000"
*MEAS_COND_AXIS_POSITION-24 "13.0000000000"
*MEAS_COND_AXIS_POSITION-25 "0.0281300000"
*MEAS_COND_AXIS_POSITION-26 "Open"
*MEAS_COND_AXIS_POSITION-27 "None"
*MEAS_COND_AXIS_POSITION-28 "None"
*MEAS_COND_AXIS_POSITION-29 "None"
*MEAS_COND_AXIS_POSITION-30 "38.0000000000"
*MEAS_COND_AXIS_UNIT-0 "deg"
*MEAS_COND_AXIS_UNIT-1 "deg"
*MEAS_COND_AXIS_UNIT-2 "deg"
*MEAS_COND_AXIS_UNIT-3 "mm"
*MEAS_COND_AXIS_UNIT-4 "deg"
*MEAS_COND_AXIS_UNIT-5 "deg"
*MEAS_COND_AXIS_UNIT-6 "deg"
*MEAS_COND_AXIS_UNIT-7 "mm"
*MEAS_COND_AXIS_UNIT-8 ""
*MEAS_COND_AXIS_UNIT-9 "pulse"
*MEAS_COND_AXIS_UNIT-10 ""
*MEAS_COND_AXIS_UNIT-11 ""
*MEAS_COND_AXIS_UNIT-12 "mm"
*MEAS_COND_AXIS_UNIT-13 "mm"
*MEAS_COND_AXIS_UNIT-14 ""
*MEAS_COND_AXIS_UNIT-15 ""
*MEAS_COND_AXIS_UNIT-16 ""
*MEAS_COND_AXIS_UNIT-17 ""
*MEAS_COND_AXIS_UNIT-18 ""
*MEAS_COND_AXIS_UNIT-19 ""
*MEAS_COND_AXIS_UNIT-20 ""
*MEAS_COND_AXIS_UNIT-21 ""
*MEAS_COND_AXIS_UNIT-22 ""
*MEAS_COND_AXIS_UNIT-23 "mm"
*MEAS_COND_AXIS_UNIT-24 "mm"
*MEAS_COND_AXIS_UNIT-25 "mm"
*MEAS_COND_AXIS_UNIT-26 ""
*MEAS_COND_AXIS_UNIT-27 ""
*MEAS_COND_AXIS_UNIT-28 ""
*MEAS_COND_AXIS_UNIT-29 ""
*MEAS_COND_AXIS_UNIT-30 "div"
*MEAS_COND_COUNTER_CNTLOSS_CORR "0.0000000000"
*MEAS_COND_COUNTER_PHABASE "38.0000000000"
*MEAS_COND_COUNTER_PHAWINDOW "16.0000000000"
*MEAS_COND_COUNTER_PHA_UNIT "div"
*MEAS_COND_COUNTER_TAUDIFF "30.0000000000"
*MEAS_COND_COUNTER_TAUINT "0.0000000000"
*MEAS_COND_IRRADIATION_MODE "OFF"
*MEAS_COND_IRRADIATION_WIDTH ""
*MEAS_COND_OPT_ATTR "集中法"
*MEAS_COND_OPT_NAME "@集中法"
*MEAS_COND_UNSYMMETRIC_MODE "OFF"
*MEAS_COND_XG_CURRENT "30.0000000000"
*MEAS_COND_XG_VOLTAGE "40.0000000000"
*MEAS_COND_XG_WAVE_TYPE "Ka"
*MEAS_DATA_COUNT "5001.0000000000"
*MEAS_SCAN_AXIS_X "2θ/θ"
*MEAS_SCAN_AXIS_X_INTERNAL "TwoThetaTheta"
*MEAS_SCAN_END_TIME "08/01/23 21:32:45"
*MEAS_SCAN_MODE "CONTINUOUS"
*MEAS_SCAN_MONITOR "0"
*MEAS_SCAN_RESOLUTION_X "0.0002"
*MEAS_SCAN_SPEED "2.5"
*MEAS_SCAN_SPEED_UNIT "deg/min"
*MEAS_SCAN_START "20.0000000000"
*MEAS_SCAN_START_TIME "08/01/23 21:11:22"
*MEAS_SCAN_STEP "0.0100000000"
*MEAS_SCAN_STOP "70.0000000000"
*MEAS_SCAN_UNIT_X "deg"
*MEAS_SCAN_UNIT_Y "counts"
*RAS_HEADER_END
*RAS_INT_START
20.0000 913.0000 1.0000
20.0100 946.0000 1.0000
20.0200 949.0000 1.0000
20.0300 953.0000 1.0000
20.0400 929.0000 1.0000
20.0500 932.0000 1.0000
20.0600 928.0000 1.0000
20.0700 954.0000 1.0000
20.0800 934.0000 1.0000
20.0900 916.0000 1.0000
20.1000 911.0000 1.0000
20.1100 919.0000 1.0000
20.1200 963.0000 1.0000
20.1300 980.0000 1.0000
20.1400 992.0000 1.0000
20.1500 937.0000 1.0000
20.1600 934.0000 1.0000
20.1700 952.0000 1.0000
20.1800 933.0000 1.0000
20.1900 927.0000 1.0000
20.2000 952.0000 1.0000
20.2100 942.0000 1.0000
20.2200 946.0000 1.0000
20.2300 982.0000 1.0000
20.2400 942.0000 1.0000
20.2500 891.0000 1.0000
20.2600 976.0000 1.0000
20.2700 971.0000 1.0000
20.2800 953.0000 1.0000
20.2900 956.0000 1.0000
20.3000 950.0000 1.0000
20.3100 945.0000 1.0000
20.3200 977.0000 1.0000
20.3300 888.0000 1.0000
20.3400 936.0000 1.0000
20.3500 897.0000 1.0000
20.3600 946.0000 1.0000
20.3700 962.0000 1.0000
20.3800 937.0000 1.0000
20.3900 961.0000 1.0000
20.4000 925.0000 1.0000
20.4100 967.0000 1.0000
20.4200 952.0000 1.0000
20.4300 950.0000 1.0000
20.4400 924.0000 1.0000
20.4500 917.0000 1.0000
20.4600 873.0000 1.0000
20.4700 950.0000 1.0000
20.4800 942.0000 1.0000
20.4900 923.0000 1.0000
20.5000 984.0000 1.0000
20.5100 956.0000 1.0000
20.5200 938.0000 1.0000
20.5300 907.0000 1.0000
20.5400 937.0000 1.0000
20.5500 984.0000 1.0000
20.5600 983.0000 1.0000
20.5700 948.0000 1.0000
20.5800 951.0000 1.0000
20.5900 881.0000 1.0000
20.6000 975.0000 1.0000
20.6100 978.0000 1.0000
20.6200 929.0000 1.0000
20.6300 905.0000 1.0000
20.6400 942.0000 1.0000
20.6500 940.0000 1.0000
20.6600 969.0000 1.0000
20.6700 913.0000 1.0000
20.6800 929.0000 1.0000
20.6900 939.0000 1.0000
20.7000 940.0000 1.0000
20.7100 925.0000 1.0000
20.7200 919.0000 1.0000
20.7300 943.0000 1.0000
20.7400 918.0000 1.0000
20.7500 905.0000 1.0000
20.7600 932.0000 1.0000
20.7700 907.0000 1.0000
20.7800 926.0000 1.0000
20.7900 925.0000 1.0000
20.8000 906.0000 1.0000
20.8100 904.0000 1.0000
20.8200 973.0000 1.0000
20.8300 988.0000 1.0000
20.8400 955.0000 1.0000
20.8500 949.0000 1.0000
20.8600 965.0000 1.0000
20.8700 973.0000 1.0000
20.8800 956.0000 1.0000
20.8900 935.0000 1.0000
20.9000 898.0000 1.0000
20.9100 893.0000 1.0000
20.9200 986.0000 1.0000
20.9300 911.0000 1.0000
20.9400 930.0000 1.0000
20.9500 911.0000 1.0000
20.9600 945.0000 1.0000
20.9700 919.0000 1.0000
20.9800 894.0000 1.0000
20.9900 970.0000 1.0000
21.0000 946.0000 1.0000
21.0100 962.0000 1.0000
21.0200 964.0000 1.0000
21.0300 946.0000 1.0000
21.0400 947.0000 1.0000
21.0500 951.0000 1.0000
21.0600 973.0000 1.0000
21.0700 941.0000 1.0000
21.0800 891.0000 1.0000
21.0900 931.0000 1.0000
21.1000 927.0000 1.0000
21.1100 933.0000 1.0000
21.1200 955.0000 1.0000
21.1300 966.0000 1.0000
21.1400 935.0000 1.0000
21.1500 945.0000 1.0000
21.1600 987.0000 1.0000
21.1700 929.0000 1.0000
21.1800 935.0000 1.0000
21.1900 910.0000 1.0000
21.2000 974.0000 1.0000
21.2100 930.0000 1.0000
21.2200 902.0000 1.0000
21.2300 911.0000 1.0000
21.2400 909.0000 1.0000
21.2500 934.0000 1.0000
21.2600 954.0000 1.0000
21.2700 945.0000 1.0000
21.2800 954.0000 1.0000
21.2900 925.0000 1.0000
21.3000 927.0000 1.0000
21.3100 885.0000 1.0000
21.3200 929.0000 1.0000
21.3300 967.0000 1.0000
21.3400 1002.0000 1.0000
21.3500 953.0000 1.0000
21.3600 938.0000 1.0000
21.3700 906.0000 1.0000
21.3800 938.0000 1.0000
21.3900 933.0000 1.0000
21.4000 943.0000 1.0000
21.4100 949.0000 1.0000
21.4200 935.0000 1.0000
21.4300 907.0000 1.0000
21.4400 870.0000 1.0000
21.4500 928.0000 1.0000
21.4600 966.0000 1.0000
21.4700 935.0000 1.0000
21.4800 937.0000 1.0000
21.4900 936.0000 1.0000
21.5000 942.0000 1.0000
21.5100 981.0000 1.0000
21.5200 942.0000 1.0000
21.5300 915.0000 1.0000
21.5400 948.0000 1.0000
21.5500 907.0000 1.0000
21.5600 967.0000 1.0000
21.5700 923.0000 1.0000
21.5800 883.0000 1.0000
21.5900 901.0000 1.0000
21.6000 925.0000 1.0000
21.6100 942.0000 1.0000
21.6200 907.0000 1.0000
21.6300 943.0000 1.0000
21.6400 943.0000 1.0000
21.6500 972.0000 1.0000
21.6600 912.0000 1.0000
21.6700 948.0000 1.0000
21.6800 954.0000 1.0000
21.6900 957.0000 1.0000
21.7000 928.0000 1.0000
21.7100 936.0000 1.0000
21.7200 844.0000 1.0000
21.7300 979.0000 1.0000
21.7400 939.0000 1.0000
21.7500 940.0000 1.0000
21.7600 943.0000 1.0000
21.7700 890.0000 1.0000
21.7800 926.0000 1.0000
21.7900 934.0000 1.0000
21.8000 1016.0000 1.0000
21.8100 946.0000 1.0000
21.8200 949.0000 1.0000
21.8300 974.0000 1.0000
21.8400 946.0000 1.0000
21.8500 949.0000 1.0000
21.8600 930.0000 1.0000
21.8700 992.0000 1.0000
21.8800 957.0000 1.0000
21.8900 950.0000 1.0000
21.9000 895.0000 1.0000
21.9100 918.0000 1.0000
21.9200 924.0000 1.0000
21.9300 960.0000 1.0000
21.9400 951.0000 1.0000
21.9500 950.0000 1.0000
21.9600 941.0000 1.0000
21.9700 947.0000 1.0000
21.9800 886.0000 1.0000
21.9900 898.0000 1.0000
22.0000 910.0000 1.0000
22.0100 938.0000 1.0000
22.0200 930.0000 1.0000
22.0300 913.0000 1.0000
22.0400 905.0000 1.0000
22.0500 926.0000 1.0000
22.0600 871.0000 1.0000
22.0700 874.0000 1.0000
22.0800 941.0000 1.0000
22.0900 949.0000 1.0000
22.1000 882.0000 1.0000
22.1100 892.0000 1.0000
22.1200 942.0000 1.0000
22.1300 943.0000 1.0000
22.1400 969.0000 1.0000
22.1500 985.0000 1.0000
22.1600 927.0000 1.0000
22.1700 951.0000 1.0000
22.1800 967.0000 1.0000
22.1900 919.0000 1.0000
22.2000 926.0000 1.0000
22.2100 925.0000 1.0000
22.2200 874.0000 1.0000
22.2300 934.0000 1.0000
22.2400 914.0000 1.0000
22.2500 942.0000 1.0000
22.2600 973.0000 1.0000
22.2700 923.0000 1.0000
22.2800 950.0000 1.0000
22.2900 950.0000 1.0000
22.3000 891.0000 1.0000
22.3100 883.0000 1.0000
22.3200 922.0000 1.0000
22.3300 988.0000 1.0000
22.3400 965.0000 1.0000
22.3500 930.0000 1.0000
22.3600 933.0000 1.0000
22.3700 900.0000 1.0000
22.3800 949.0000 1.0000
22.3900 942.0000 1.0000
22.4000 945.0000 1.0000
22.4100 971.0000 1.0000
22.4200 898.0000 1.0000
22.4300 920.0000 1.0000
22.4400 924.0000 1.0000
22.4500 921.0000 1.0000
22.4600 922.0000 1.0000
22.4700 896.0000 1.0000
22.4800 915.0000 1.0000
22.4900 913.0000 1.0000
22.5000 932.0000 1.0000
22.5100 887.0000 1.0000
22.5200 883.0000 1.0000
22.5300 982.0000 1.0000
22.5400 900.0000 1.0000
22.5500 904.0000 1.0000
22.5600 916.0000 1.0000
22.5700 914.0000 1.0000
22.5800 929.0000 1.0000
22.5900 974.0000 1.0000
22.6000 925.0000 1.0000
22.6100 870.0000 1.0000
22.6200 918.0000 1.0000
22.6300 887.0000 1.0000
22.6400 925.0000 1.0000
22.6500 935.0000 1.0000
22.6600 914.0000 1.0000
22.6700 931.0000 1.0000
22.6800 882.0000 1.0000
22.6900 917.0000 1.0000
22.7000 933.0000 1.0000
22.7100 931.0000 1.0000
22.7200 951.0000 1.0000
22.7300 900.0000 1.0000
22.7400 924.0000 1.0000
22.7500 978.0000 1.0000
22.7600 881.0000 1.0000
22.7700 895.0000 1.0000
22.7800 874.0000 1.0000
22.7900 893.0000 1.0000
22.8000 880.0000 1.0000
22.8100 933.0000 1.0000
22.8200 923.0000 1.0000
22.8300 879.0000 1.0000
22.8400 927.0000 1.0000
22.8500 913.0000 1.0000
22.8600 911.0000 1.0000
22.8700 953.0000 1.0000
22.8800 884.0000 1.0000
22.8900 895.0000 1.0000
22.9000 917.0000 1.0000
22.9100 873.0000 1.0000
22.9200 925.0000 1.0000
22.9300 908.0000 1.0000
22.9400 912.0000 1.0000
22.9500 890.0000 1.0000
22.9600 870.0000 1.0000
22.9700 893.0000 1.0000
22.9800 909.0000 1.0000
22.9900 892.0000 1.0000
23.0000 952.0000 1.0000
23.0100 917.0000 1.0000
23.0200 897.0000 1.0000
23.0300 888.0000 1.0000
23.0400 870.0000 1.0000
23.0500 888.0000 1.0000
23.0600 945.0000 1.0000
23.0700 898.0000 1.0000
23.0800 909.0000 1.0000
23.0900 911.0000 1.0000
23.1000 961.0000 1.0000
23.1100 864.0000 1.0000
23.1200 875.0000 1.0000
23.1300 873.0000 1.0000
23.1400 925.0000 1.0000
23.1500 916.0000 1.0000
23.1600 903.0000 1.0000
23.1700 924.0000 1.0000
23.1800 919.0000 1.0000
23.1900 938.0000 1.0000
23.2000 889.0000 1.0000
23.2100 853.0000 1.0000
23.2200 906.0000 1.0000
23.2300 865.0000 1.0000
23.2400 924.0000 1.0000
23.2500 835.0000 1.0000
23.2600 877.0000 1.0000
23.2700 890.0000 1.0000
23.2800 883.0000 1.0000
23.2900 869.0000 1.0000
23.3000 880.0000 1.0000
23.3100 925.0000 1.0000
23.3200 947.0000 1.0000
23.3300 904.0000 1.0000
23.3400 905.0000 1.0000
23.3500 899.0000 1.0000
23.3600 921.0000 1.0000
23.3700 871.0000 1.0000
23.3800 919.0000 1.0000
23.3900 904.0000 1.0000
23.4000 879.0000 1.0000
23.4100 914.0000 1.0000
23.4200 896.0000 1.0000
23.4300 884.0000 1.0000
23.4400 935.0000 1.0000
23.4500 932.0000 1.0000
23.4600 881.0000 1.0000
23.4700 871.0000 1.0000
23.4800 910.0000 1.0000
23.4900 876.0000 1.0000
23.5000 885.0000 1.0000
23.5100 872.0000 1.0000
23.5200 923.0000 1.0000
23.5300 877.0000 1.0000
23.5400 920.0000 1.0000
23.5500 904.0000 1.0000
23.5600 902.0000 1.0000
23.5700 910.0000 1.0000
23.5800 911.0000 1.0000
23.5900 896.0000 1.0000
23.6000 879.0000 1.0000
23.6100 883.0000 1.0000
23.6200 857.0000 1.0000
23.6300 879.0000 1.0000
23.6400 862.0000 1.0000
23.6500 889.0000 1.0000
23.6600 864.0000 1.0000
23.6700 872.0000 1.0000
23.6800 884.0000 1.0000
23.6900 879.0000 1.0000
23.7000 873.0000 1.0000
23.7100 909.0000 1.0000
23.7200 882.0000 1.0000
23.7300 870.0000 1.0000
23.7400 927.0000 1.0000
23.7500 937.0000 1.0000
23.7600 916.0000 1.0000
23.7700 908.0000 1.0000
23.7800 928.0000 1.0000
23.7900 928.0000 1.0000
23.8000 862.0000 1.0000
23.8100 913.0000 1.0000
23.8200 916.0000 1.0000
23.8300 900.0000 1.0000
23.8400 924.0000 1.0000
23.8500 906.0000 1.0000
23.8600 926.0000 1.0000
23.8700 958.0000 1.0000
23.8800 961.0000 1.0000
23.8900 905.0000 1.0000
23.9000 896.0000 1.0000
23.9100 916.0000 1.0000
23.9200 970.0000 1.0000
23.9300 924.0000 1.0000
23.9400 928.0000 1.0000
23.9500 910.0000 1.0000
23.9600 990.0000 1.0000
23.9700 981.0000 1.0000
23.9800 962.0000 1.0000
23.9900 963.0000 1.0000
24.0000 1026.0000 1.0000
24.0100 959.0000 1.0000
24.0200 960.0000 1.0000
24.0300 1034.0000 1.0000
24.0400 998.0000 1.0000
24.0500 1056.0000 1.0000
24.0600 1064.0000 1.0000
24.0700 1078.0000 1.0000
24.0800 1034.0000 1.0000
24.0900 1055.0000 1.0000
24.1000 1034.0000 1.0000
24.1100 1052.0000 1.0000
24.1200 1034.0000 1.0000
24.1300 1061.0000 1.0000
24.1400 1021.0000 1.0000
24.1500 970.0000 1.0000
24.1600 974.0000 1.0000
24.1700 960.0000 1.0000
24.1800 923.0000 1.0000
24.1900 963.0000 1.0000
24.2000 914.0000 1.0000
24.2100 919.0000 1.0000
24.2200 924.0000 1.0000
24.2300 897.0000 1.0000
24.2400 944.0000 1.0000
24.2500 960.0000 1.0000
24.2600 903.0000 1.0000
24.2700 907.0000 1.0000
24.2800 921.0000 1.0000
24.2900 911.0000 1.0000
24.3000 921.0000 1.0000
24.3100 884.0000 1.0000
24.3200 889.0000 1.0000
24.3300 893.0000 1.0000
24.3400 877.0000 1.0000
24.3500 895.0000 1.0000
24.3600 881.0000 1.0000
24.3700 921.0000 1.0000
24.3800 874.0000 1.0000
24.3900 848.0000 1.0000
24.4000 905.0000 1.0000
24.4100 911.0000 1.0000
24.4200 871.0000 1.0000
24.4300 904.0000 1.0000
24.4400 883.0000 1.0000
24.4500 877.0000 1.0000
24.4600 915.0000 1.0000
24.4700 894.0000 1.0000
24.4800 919.0000 1.0000
24.4900 892.0000 1.0000
24.5000 873.0000 1.0000
24.5100 887.0000 1.0000
24.5200 865.0000 1.0000
24.5300 885.0000 1.0000
24.5400 931.0000 1.0000
24.5500 903.0000 1.0000
24.5600 939.0000 1.0000
24.5700 917.0000 1.0000
24.5800 881.0000 1.0000
24.5900 934.0000 1.0000
24.6000 883.0000 1.0000
24.6100 905.0000 1.0000
24.6200 891.0000 1.0000
24.6300 891.0000 1.0000
24.6400 891.0000 1.0000
24.6500 828.0000 1.0000
24.6600 865.0000 1.0000
24.6700 873.0000 1.0000
24.6800 907.0000 1.0000
24.6900 860.0000 1.0000
24.7000 903.0000 1.0000
24.7100 857.0000 1.0000
24.7200 893.0000 1.0000
24.7300 840.0000 1.0000
24.7400 867.0000 1.0000
24.7500 894.0000 1.0000
24.7600 849.0000 1.0000
24.7700 893.0000 1.0000
24.7800 846.0000 1.0000
24.7900 846.0000 1.0000
24.8000 868.0000 1.0000
24.8100 848.0000 1.0000
24.8200 848.0000 1.0000
24.8300 867.0000 1.0000
24.8400 905.0000 1.0000
24.8500 900.0000 1.0000
24.8600 914.0000 1.0000
24.8700 866.0000 1.0000
24.8800 887.0000 1.0000
24.8900 869.0000 1.0000
24.9000 845.0000 1.0000
24.9100 851.0000 1.0000
24.9200 852.0000 1.0000
24.9300 897.0000 1.0000
24.9400 869.0000 1.0000
24.9500 900.0000 1.0000
24.9600 828.0000 1.0000
24.9700 895.0000 1.0000
24.9800 863.0000 1.0000
24.9900 877.0000 1.0000
25.0000 852.0000 1.0000
25.0100 851.0000 1.0000
25.0200 857.0000 1.0000
25.0300 900.0000 1.0000
25.0400 928.0000 1.0000
25.0500 897.0000 1.0000
25.0600 873.0000 1.0000
25.0700 839.0000 1.0000
25.0800 862.0000 1.0000
25.0900 874.0000 1.0000
25.1000 888.0000 1.0000
25.1100 858.0000 1.0000
25.1200 838.0000 1.0000
25.1300 827.0000 1.0000
25.1400 870.0000 1.0000
25.1500 874.0000 1.0000
25.1600 898.0000 1.0000
25.1700 861.0000 1.0000
25.1800 879.0000 1.0000
25.1900 856.0000 1.0000
25.2000 831.0000 1.0000
25.2100 884.0000 1.0000
25.2200 903.0000 1.0000
25.2300 841.0000 1.0000
25.2400 867.0000 1.0000
25.2500 843.0000 1.0000
25.2600 843.0000 1.0000
25.2700 875.0000 1.0000
25.2800 904.0000 1.0000
25.2900 858.0000 1.0000
25.3000 876.0000 1.0000
25.3100 886.0000 1.0000
25.3200 898.0000 1.0000
25.3300 874.0000 1.0000
25.3400 852.0000 1.0000
25.3500 900.0000 1.0000
25.3600 886.0000 1.0000
25.3700 872.0000 1.0000
25.3800 872.0000 1.0000
25.3900 869.0000 1.0000
25.4000 871.0000 1.0000
25.4100 848.0000 1.0000
25.4200 854.0000 1.0000
25.4300 869.0000 1.0000
25.4400 926.0000 1.0000
25.4500 899.0000 1.0000
25.4600 881.0000 1.0000
25.4700 854.0000 1.0000
25.4800 857.0000 1.0000
25.4900 901.0000 1.0000
25.5000 876.0000 1.0000
25.5100 904.0000 1.0000
25.5200 888.0000 1.0000
25.5300 883.0000 1.0000
25.5400 869.0000 1.0000
25.5500 853.0000 1.0000
25.5600 872.0000 1.0000
25.5700 923.0000 1.0000
25.5800 866.0000 1.0000
25.5900 859.0000 1.0000
25.6000 926.0000 1.0000
25.6100 892.0000 1.0000
25.6200 876.0000 1.0000
25.6300 855.0000 1.0000
25.6400 848.0000 1.0000
25.6500 900.0000 1.0000
25.6600 898.0000 1.0000
25.6700 879.0000 1.0000
25.6800 899.0000 1.0000
25.6900 894.0000 1.0000
25.7000 903.0000 1.0000
25.7100 901.0000 1.0000
25.7200 908.0000 1.0000
25.7300 872.0000 1.0000
25.7400 911.0000 1.0000
25.7500 909.0000 1.0000
25.7600 884.0000 1.0000
25.7700 901.0000 1.0000
25.7800 902.0000 1.0000
25.7900 855.0000 1.0000
25.8000 889.0000 1.0000
25.8100 933.0000 1.0000
25.8200 937.0000 1.0000
25.8300 899.0000 1.0000
25.8400 879.0000 1.0000
25.8500 939.0000 1.0000
25.8600 930.0000 1.0000
25.8700 937.0000 1.0000
25.8800 898.0000 1.0000
25.8900 866.0000 1.0000
25.9000 925.0000 1.0000
25.9100 927.0000 1.0000
25.9200 937.0000 1.0000
25.9300 898.0000 1.0000
25.9400 896.0000 1.0000
25.9500 914.0000 1.0000
25.9600 942.0000 1.0000
25.9700 927.0000 1.0000
25.9800 943.0000 1.0000
25.9900 907.0000 1.0000
26.0000 939.0000 1.0000
26.0100 901.0000 1.0000
26.0200 941.0000 1.0000
26.0300 906.0000 1.0000
26.0400 932.0000 1.0000
26.0500 982.0000 1.0000
26.0600 952.0000 1.0000
26.0700 961.0000 1.0000
26.0800 956.0000 1.0000
26.0900 994.0000 1.0000
26.1000 1019.0000 1.0000
26.1100 999.0000 1.0000
26.1200 1021.0000 1.0000
26.1300 1026.0000 1.0000
26.1400 1094.0000 1.0000
26.1500 1041.0000 1.0000
26.1600 1056.0000 1.0000
26.1700 1094.0000 1.0000
26.1800 1097.0000 1.0000
26.1900 1151.0000 1.0000
26.2000 1145.0000 1.0000
26.2100 1182.0000 1.0000
26.2200 1181.0000 1.0000
26.2300 1257.0000 1.0000
26.2400 1314.0000 1.0000
26.2500 1292.0000 1.0000
26.2600 1374.0000 1.0000
26.2700 1321.0000 1.0000
26.2800 1426.0000 1.0000
26.2900 1496.0000 1.0000
26.3000 1520.0000 1.0000
26.3100 1594.0000 1.0000
26.3200 1728.0000 1.0000
26.3300 1793.0000 1.0000
26.3400 1843.0000 1.0000
26.3500 2014.0000 1.0000
26.3600 2067.0000 1.0000
26.3700 2194.0000 1.0000
26.3800 2313.0000 1.0000
26.3900 2449.0000 1.0000
26.4000 2421.0000 1.0000
26.4100 2626.0000 1.0000
26.4200 2648.0000 1.0000
26.4300 2678.0000 1.0000
26.4400 2795.0000 1.0000
26.4500 2834.0000 1.0000
26.4600 2788.0000 1.0000
26.4700 2684.0000 1.0000
26.4800 2567.0000 1.0000
26.4900 2559.0000 1.0000
26.5000 2495.0000 1.0000
26.5100 2329.0000 1.0000
26.5200 2202.0000 1.0000
26.5300 2125.0000 1.0000
26.5400 1989.0000 1.0000
26.5500 1889.0000 1.0000
26.5600 1820.0000 1.0000
26.5700 1714.0000 1.0000
26.5800 1639.0000 1.0000
26.5900 1536.0000 1.0000
26.6000 1554.0000 1.0000
26.6100 1457.0000 1.0000
26.6200 1404.0000 1.0000
26.6300 1321.0000 1.0000
26.6400 1299.0000 1.0000
26.6500 1304.0000 1.0000
26.6600 1232.0000 1.0000
26.6700 1202.0000 1.0000
26.6800 1125.0000 1.0000
26.6900 1106.0000 1.0000
26.7000 1117.0000 1.0000
26.7100 1061.0000 1.0000
26.7200 1090.0000 1.0000
26.7300 1102.0000 1.0000
26.7400 1070.0000 1.0000
26.7500 1038.0000 1.0000
26.7600 988.0000 1.0000
26.7700 1018.0000 1.0000
26.7800 978.0000 1.0000
26.7900 984.0000 1.0000
26.8000 966.0000 1.0000
26.8100 968.0000 1.0000
26.8200 917.0000 1.0000
26.8300 988.0000 1.0000
26.8400 932.0000 1.0000
26.8500 965.0000 1.0000
26.8600 978.0000 1.0000
26.8700 911.0000 1.0000
26.8800 913.0000 1.0000
26.8900 950.0000 1.0000
26.9000 913.0000 1.0000
26.9100 894.0000 1.0000
26.9200 922.0000 1.0000
26.9300 887.0000 1.0000
26.9400 926.0000 1.0000
26.9500 843.0000 1.0000
26.9600 893.0000 1.0000
26.9700 852.0000 1.0000
26.9800 912.0000 1.0000
26.9900 892.0000 1.0000
27.0000 849.0000 1.0000
27.0100 914.0000 1.0000
27.0200 871.0000 1.0000
27.0300 817.0000 1.0000
27.0400 804.0000 1.0000
27.0500 850.0000 1.0000
27.0600 819.0000 1.0000
27.0700 862.0000 1.0000
27.0800 883.0000 1.0000
27.0900 833.0000 1.0000
27.1000 805.0000 1.0000
27.1100 819.0000 1.0000
27.1200 824.0000 1.0000
27.1300 832.0000 1.0000
27.1400 848.0000 1.0000
27.1500 874.0000 1.0000
27.1600 856.0000 1.0000
27.1700 881.0000 1.0000
27.1800 823.0000 1.0000
27.1900 873.0000 1.0000
27.2000 858.0000 1.0000
27.2100 857.0000 1.0000
27.2200 868.0000 1.0000
27.2300 842.0000 1.0000
27.2400 820.0000 1.0000
27.2500 829.0000 1.0000
27.2600 825.0000 1.0000
27.2700 823.0000 1.0000
27.2800 815.0000 1.0000
27.2900 823.0000 1.0000
27.3000 812.0000 1.0000
27.3100 870.0000 1.0000
27.3200 825.0000 1.0000
27.3300 870.0000 1.0000
27.3400 779.0000 1.0000
27.3500 779.0000 1.0000
27.3600 816.0000 1.0000
27.3700 823.0000 1.0000
27.3800 790.0000 1.0000
27.3900 788.0000 1.0000
27.4000 800.0000 1.0000
27.4100 802.0000 1.0000
27.4200 804.0000 1.0000
27.4300 811.0000 1.0000
27.4400 832.0000 1.0000
27.4500 796.0000 1.0000
27.4600 803.0000 1.0000
27.4700 779.0000 1.0000
27.4800 793.0000 1.0000
27.4900 787.0000 1.0000
27.5000 792.0000 1.0000
27.5100 794.0000 1.0000
27.5200 819.0000 1.0000
27.5300 794.0000 1.0000
27.5400 738.0000 1.0000
27.5500 758.0000 1.0000
27.5600 784.0000 1.0000
27.5700 778.0000 1.0000
27.5800 804.0000 1.0000
27.5900 821.0000 1.0000
27.6000 786.0000 1.0000
27.6100 818.0000 1.0000
27.6200 781.0000 1.0000
27.6300 816.0000 1.0000
27.6400 793.0000 1.0000
27.6500 821.0000 1.0000
27.6600 807.0000 1.0000
27.6700 822.0000 1.0000
27.6800 802.0000 1.0000
27.6900 833.0000 1.0000
27.7000 768.0000 1.0000
27.7100 809.0000 1.0000
27.7200 731.0000 1.0000
27.7300 781.0000 1.0000
27.7400 802.0000 1.0000
27.7500 772.0000 1.0000
27.7600 748.0000 1.0000
27.7700 762.0000 1.0000
27.7800 797.0000 1.0000
27.7900 745.0000 1.0000
27.8000 804.0000 1.0000
27.8100 787.0000 1.0000
27.8200 735.0000 1.0000
27.8300 759.0000 1.0000
27.8400 797.0000 1.0000
27.8500 802.0000 1.0000
27.8600 826.0000 1.0000
27.8700 748.0000 1.0000
27.8800 763.0000 1.0000
27.8900 775.0000 1.0000
27.9000 764.0000 1.0000
27.9100 741.0000 1.0000
27.9200 794.0000 1.0000
27.9300 781.0000 1.0000
27.9400 800.0000 1.0000
27.9500 771.0000 1.0000
27.9600 746.0000 1.0000
27.9700 752.0000 1.0000
27.9800 770.0000 1.0000
27.9900 742.0000 1.0000
28.0000 788.0000 1.0000
28.0100 776.0000 1.0000
28.0200 745.0000 1.0000
28.0300 776.0000 1.0000
28.0400 801.0000 1.0000
28.0500 782.0000 1.0000
28.0600 706.0000 1.0000
28.0700 748.0000 1.0000
28.0800 795.0000 1.0000
28.0900 748.0000 1.0000
28.1000 753.0000 1.0000
28.1100 756.0000 1.0000
28.1200 820.0000 1.0000
28.1300 781.0000 1.0000
28.1400 836.0000 1.0000
28.1500 775.0000 1.0000
28.1600 746.0000 1.0000
28.1700 776.0000 1.0000
28.1800 800.0000 1.0000
28.1900 756.0000 1.0000
28.2000 776.0000 1.0000
28.2100 777.0000 1.0000
28.2200 766.0000 1.0000
28.2300 787.0000 1.0000
28.2400 784.0000 1.0000
28.2500 768.0000 1.0000
28.2600 746.0000 1.0000
28.2700 762.0000 1.0000
28.2800 761.0000 1.0000
28.2900 732.0000 1.0000
28.3000 815.0000 1.0000
28.3100 752.0000 1.0000
28.3200 768.0000 1.0000
28.3300 732.0000 1.0000
28.3400 781.0000 1.0000
28.3500 735.0000 1.0000
28.3600 793.0000 1.0000
28.3700 723.0000 1.0000
28.3800 754.0000 1.0000
28.3900 776.0000 1.0000
28.4000 754.0000 1.0000
28.4100 788.0000 1.0000
28.4200 756.0000 1.0000
28.4300 769.0000 1.0000
28.4400 753.0000 1.0000
28.4500 755.0000 1.0000
28.4600 772.0000 1.0000
28.4700 743.0000 1.0000
28.4800 730.0000 1.0000
28.4900 751.0000 1.0000
28.5000 752.0000 1.0000
28.5100 755.0000 1.0000
28.5200 728.0000 1.0000
28.5300 753.0000 1.0000
28.5400 733.0000 1.0000
28.5500 780.0000 1.0000
28.5600 746.0000 1.0000
28.5700 767.0000 1.0000
28.5800 749.0000 1.0000
28.5900 767.0000 1.0000
28.6000 719.0000 1.0000
28.6100 738.0000 1.0000
28.6200 734.0000 1.0000
28.6300 765.0000 1.0000
28.6400 744.0000 1.0000
28.6500 737.0000 1.0000
28.6600 741.0000 1.0000
28.6700 747.0000 1.0000
28.6800 698.0000 1.0000
28.6900 723.0000 1.0000
28.7000 740.0000 1.0000
28.7100 764.0000 1.0000
28.7200 716.0000 1.0000
28.7300 730.0000 1.0000
28.7400 756.0000 1.0000
28.7500 709.0000 1.0000
28.7600 765.0000 1.0000
28.7700 727.0000 1.0000
28.7800 774.0000 1.0000
28.7900 711.0000 1.0000
28.8000 716.0000 1.0000
28.8100 738.0000 1.0000
28.8200 733.0000 1.0000
28.8300 737.0000 1.0000
28.8400 757.0000 1.0000
28.8500 713.0000 1.0000
28.8600 717.0000 1.0000
28.8700 756.0000 1.0000
28.8800 742.0000 1.0000
28.8900 777.0000 1.0000
28.9000 783.0000 1.0000
28.9100 760.0000 1.0000
28.9200 748.0000 1.0000
28.9300 736.0000 1.0000
28.9400 779.0000 1.0000
28.9500 739.0000 1.0000
28.9600 708.0000 1.0000
28.9700 691.0000 1.0000
28.9800 753.0000 1.0000
28.9900 709.0000 1.0000
29.0000 731.0000 1.0000
29.0100 707.0000 1.0000
29.0200 756.0000 1.0000
29.0300 756.0000 1.0000
29.0400 724.0000 1.0000
29.0500 709.0000 1.0000
29.0600 778.0000 1.0000
29.0700 791.0000 1.0000
29.0800 731.0000 1.0000
29.0900 747.0000 1.0000
29.1000 732.0000 1.0000
29.1100 762.0000 1.0000
29.1200 763.0000 1.0000
29.1300 749.0000 1.0000
29.1400 752.0000 1.0000
29.1500 720.0000 1.0000
29.1600 735.0000 1.0000
29.1700 692.0000 1.0000
29.1800 708.0000 1.0000
29.1900 724.0000 1.0000
29.2000 743.0000 1.0000
29.2100 710.0000 1.0000
29.2200 721.0000 1.0000
29.2300 663.0000 1.0000
29.2400 735.0000 1.0000
29.2500 707.0000 1.0000
29.2600 692.0000 1.0000
29.2700 723.0000 1.0000
29.2800 750.0000 1.0000
29.2900 726.0000 1.0000
29.3000 686.0000 1.0000
29.3100 708.0000 1.0000
29.3200 694.0000 1.0000
29.3300 746.0000 1.0000
29.3400 739.0000 1.0000
29.3500 774.0000 1.0000
29.3600 715.0000 1.0000
29.3700 730.0000 1.0000
29.3800 735.0000 1.0000
29.3900 759.0000 1.0000
29.4000 790.0000 1.0000
29.4100 741.0000 1.0000
29.4200 703.0000 1.0000
29.4300 696.0000 1.0000
29.4400 721.0000 1.0000
29.4500 715.0000 1.0000
29.4600 690.0000 1.0000
29.4700 742.0000 1.0000
29.4800 776.0000 1.0000
29.4900 735.0000 1.0000
29.5000 716.0000 1.0000
29.5100 703.0000 1.0000
29.5200 735.0000 1.0000
29.5300 730.0000 1.0000
29.5400 769.0000 1.0000
29.5500 737.0000 1.0000
29.5600 713.0000 1.0000
29.5700 735.0000 1.0000
29.5800 732.0000 1.0000
29.5900 749.0000 1.0000
29.6000 747.0000 1.0000
29.6100 731.0000 1.0000
29.6200 757.0000 1.0000
29.6300 759.0000 1.0000
29.6400 742.0000 1.0000
29.6500 738.0000 1.0000
29.6600 730.0000 1.0000
29.6700 742.0000 1.0000
29.6800 711.0000 1.0000
29.6900 708.0000 1.0000
29.7000 737.0000 1.0000
29.7100 734.0000 1.0000
29.7200 707.0000 1.0000
29.7300 683.0000 1.0000
29.7400 732.0000 1.0000
29.7500 690.0000 1.0000
29.7600 720.0000 1.0000
29.7700 671.0000 1.0000
29.7800 704.0000 1.0000
29.7900 713.0000 1.0000
29.8000 715.0000 1.0000
29.8100 781.0000 1.0000
29.8200 695.0000 1.0000
29.8300 664.0000 1.0000
29.8400 679.0000 1.0000
29.8500 688.0000 1.0000
29.8600 730.0000 1.0000
29.8700 690.0000 1.0000
29.8800 699.0000 1.0000
29.8900 707.0000 1.0000
29.9000 709.0000 1.0000
29.9100 687.0000 1.0000
29.9200 715.0000 1.0000
29.9300 745.0000 1.0000
29.9400 721.0000 1.0000
29.9500 690.0000 1.0000
29.9600 697.0000 1.0000
29.9700 763.0000 1.0000
29.9800 721.0000 1.0000
29.9900 688.0000 1.0000
30.0000 705.0000 1.0000
30.0100 736.0000 1.0000
30.0200 723.0000 1.0000
30.0300 724.0000 1.0000
30.0400 744.0000 1.0000
30.0500 731.0000 1.0000
30.0600 723.0000 1.0000
30.0700 736.0000 1.0000
30.0800 739.0000 1.0000
30.0900 738.0000 1.0000
30.1000 734.0000 1.0000
30.1100 740.0000 1.0000
30.1200 717.0000 1.0000
30.1300 702.0000 1.0000
30.1400 713.0000 1.0000
30.1500 712.0000 1.0000
30.1600 678.0000 1.0000
30.1700 748.0000 1.0000
30.1800 755.0000 1.0000
30.1900 725.0000 1.0000
30.2000 715.0000 1.0000
30.2100 682.0000 1.0000
30.2200 717.0000 1.0000
30.2300 737.0000 1.0000
30.2400 685.0000 1.0000
30.2500 681.0000 1.0000
30.2600 666.0000 1.0000
30.2700 678.0000 1.0000
30.2800 672.0000 1.0000
30.2900 734.0000 1.0000
30.3000 699.0000 1.0000
30.3100 679.0000 1.0000
30.3200 696.0000 1.0000
30.3300 699.0000 1.0000
30.3400 725.0000 1.0000
30.3500 744.0000 1.0000
30.3600 671.0000 1.0000
30.3700 668.0000 1.0000
30.3800 668.0000 1.0000
30.3900 695.0000 1.0000
30.4000 696.0000 1.0000
30.4100 736.0000 1.0000
30.4200 672.0000 1.0000
30.4300 698.0000 1.0000
30.4400 702.0000 1.0000
30.4500 693.0000 1.0000
30.4600 711.0000 1.0000
30.4700 707.0000 1.0000
30.4800 696.0000 1.0000
30.4900 699.0000 1.0000
30.5000 652.0000 1.0000
30.5100 649.0000 1.0000
30.5200 694.0000 1.0000
30.5300 718.0000 1.0000
30.5400 682.0000 1.0000
30.5500 652.0000 1.0000
30.5600 643.0000 1.0000
30.5700 723.0000 1.0000
30.5800 716.0000 1.0000
30.5900 696.0000 1.0000
30.6000 709.0000 1.0000
30.6100 678.0000 1.0000
30.6200 699.0000 1.0000
30.6300 693.0000 1.0000
30.6400 682.0000 1.0000
30.6500 698.0000 1.0000
30.6600 667.0000 1.0000
30.6700 654.0000 1.0000
30.6800 694.0000 1.0000
30.6900 689.0000 1.0000
30.7000 683.0000 1.0000
30.7100 687.0000 1.0000
30.7200 683.0000 1.0000
30.7300 698.0000 1.0000
30.7400 676.0000 1.0000
30.7500 713.0000 1.0000
30.7600 679.0000 1.0000
30.7700 683.0000 1.0000
30.7800 699.0000 1.0000
30.7900 707.0000 1.0000
30.8000 694.0000 1.0000
30.8100 693.0000 1.0000
30.8200 699.0000 1.0000
30.8300 722.0000 1.0000
30.8400 722.0000 1.0000
30.8500 666.0000 1.0000
30.8600 657.0000 1.0000
30.8700 674.0000 1.0000
30.8800 698.0000 1.0000
30.8900 645.0000 1.0000
30.9000 656.0000 1.0000
30.9100 674.0000 1.0000
30.9200 630.0000 1.0000
30.9300 671.0000 1.0000
30.9400 660.0000 1.0000
30.9500 737.0000 1.0000
30.9600 660.0000 1.0000
30.9700 690.0000 1.0000
30.9800 676.0000 1.0000
30.9900 723.0000 1.0000
31.0000 673.0000 1.0000
31.0100 692.0000 1.0000
31.0200 687.0000 1.0000
31.0300 664.0000 1.0000
31.0400 674.0000 1.0000
31.0500 700.0000 1.0000
31.0600 678.0000 1.0000
31.0700 695.0000 1.0000
31.0800 732.0000 1.0000
31.0900 704.0000 1.0000
31.1000 699.0000 1.0000
31.1100 694.0000 1.0000
31.1200 667.0000 1.0000
31.1300 655.0000 1.0000
31.1400 623.0000 1.0000
31.1500 662.0000 1.0000
31.1600 678.0000 1.0000
31.1700 693.0000 1.0000
31.1800 698.0000 1.0000
31.1900 670.0000 1.0000
31.2000 720.0000 1.0000
31.2100 702.0000 1.0000
31.2200 713.0000 1.0000
31.2300 700.0000 1.0000
31.2400 689.0000 1.0000
31.2500 692.0000 1.0000
31.2600 683.0000 1.0000
31.2700 656.0000 1.0000
31.2800 629.0000 1.0000
31.2900 651.0000 1.0000
31.3000 713.0000 1.0000
31.3100 673.0000 1.0000
31.3200 665.0000 1.0000
31.3300 680.0000 1.0000
31.3400 654.0000 1.0000
31.3500 682.0000 1.0000
31.3600 642.0000 1.0000
31.3700 670.0000 1.0000
31.3800 704.0000 1.0000
31.3900 680.0000 1.0000
31.4000 707.0000 1.0000
31.4100 665.0000 1.0000
31.4200 694.0000 1.0000
31.4300 696.0000 1.0000
31.4400 717.0000 1.0000
31.4500 669.0000 1.0000
31.4600 644.0000 1.0000
31.4700 669.0000 1.0000
31.4800 654.0000 1.0000
31.4900 715.0000 1.0000
31.5000 672.0000 1.0000
31.5100 729.0000 1.0000
31.5200 689.0000 1.0000
31.5300 667.0000 1.0000
31.5400 670.0000 1.0000
31.5500 706.0000 1.0000
31.5600 689.0000 1.0000
31.5700 701.0000 1.0000
31.5800 724.0000 1.0000
31.5900 726.0000 1.0000
31.6000 682.0000 1.0000
31.6100 749.0000 1.0000
31.6200 627.0000 1.0000
31.6300 760.0000 1.0000
31.6400 723.0000 1.0000
31.6500 692.0000 1.0000
31.6600 698.0000 1.0000
31.6700 666.0000 1.0000
31.6800 675.0000 1.0000
31.6900 684.0000 1.0000
31.7000 691.0000 1.0000
31.7100 659.0000 1.0000
31.7200 669.0000 1.0000
31.7300 703.0000 1.0000
31.7400 654.0000 1.0000
31.7500 681.0000 1.0000
31.7600 627.0000 1.0000
31.7700 646.0000 1.0000
31.7800 631.0000 1.0000
31.7900 654.0000 1.0000
31.8000 682.0000 1.0000
31.8100 672.0000 1.0000
31.8200 663.0000 1.0000
31.8300 655.0000 1.0000
31.8400 628.0000 1.0000
31.8500 643.0000 1.0000
31.8600 655.0000 1.0000
31.8700 674.0000 1.0000
31.8800 672.0000 1.0000
31.8900 683.0000 1.0000
31.9000 634.0000 1.0000
31.9100 657.0000 1.0000
31.9200 620.0000 1.0000
31.9300 698.0000 1.0000
31.9400 669.0000 1.0000
31.9500 707.0000 1.0000
31.9600 647.0000 1.0000
31.9700 641.0000 1.0000
31.9800 636.0000 1.0000
31.9900 606.0000 1.0000
32.0000 654.0000 1.0000
32.0100 657.0000 1.0000
32.0200 642.0000 1.0000
32.0300 648.0000 1.0000
32.0400 674.0000 1.0000
32.0500 695.0000 1.0000
32.0600 661.0000 1.0000
32.0700 662.0000 1.0000
32.0800 697.0000 1.0000
32.0900 655.0000 1.0000
32.1000 676.0000 1.0000
32.1100 625.0000 1.0000
32.1200 641.0000 1.0000
32.1300 657.0000 1.0000
32.1400 659.0000 1.0000
32.1500 648.0000 1.0000
32.1600 647.0000 1.0000
32.1700 666.0000 1.0000
32.1800 623.0000 1.0000
32.1900 611.0000 1.0000
32.2000 654.0000 1.0000
32.2100 634.0000 1.0000
32.2200 625.0000 1.0000
32.2300 645.0000 1.0000
32.2400 613.0000 1.0000
32.2500 628.0000 1.0000
32.2600 658.0000 1.0000
32.2700 680.0000 1.0000
32.2800 664.0000 1.0000
32.2900 650.0000 1.0000
32.3000 652.0000 1.0000
32.3100 649.0000 1.0000
32.3200 647.0000 1.0000
32.3300 624.0000 1.0000
32.3400 659.0000 1.0000
32.3500 664.0000 1.0000
32.3600 648.0000 1.0000
32.3700 640.0000 1.0000
32.3800 639.0000 1.0000
32.3900 645.0000 1.0000
32.4000 626.0000 1.0000
32.4100 637.0000 1.0000
32.4200 653.0000 1.0000
32.4300 628.0000 1.0000
32.4400 613.0000 1.0000
32.4500 655.0000 1.0000
32.4600 677.0000 1.0000
32.4700 625.0000 1.0000
32.4800 616.0000 1.0000
32.4900 653.0000 1.0000
32.5000 645.0000 1.0000
32.5100 608.0000 1.0000
32.5200 638.0000 1.0000
32.5300 633.0000 1.0000
32.5400 669.0000 1.0000
32.5500 634.0000 1.0000
32.5600 612.0000 1.0000
32.5700 646.0000 1.0000
32.5800 638.0000 1.0000
32.5900 671.0000 1.0000
32.6000 598.0000 1.0000
32.6100 635.0000 1.0000
32.6200 643.0000 1.0000
32.6300 676.0000 1.0000
32.6400 674.0000 1.0000
32.6500 645.0000 1.0000
32.6600 652.0000 1.0000
32.6700 653.0000 1.0000
32.6800 659.0000 1.0000
32.6900 642.0000 1.0000
32.7000 612.0000 1.0000
32.7100 643.0000 1.0000
32.7200 614.0000 1.0000
32.7300 630.0000 1.0000
32.7400 673.0000 1.0000
32.7500 645.0000 1.0000
32.7600 628.0000 1.0000
32.7700 640.0000 1.0000
32.7800 657.0000 1.0000
32.7900 614.0000 1.0000
32.8000 613.0000 1.0000
32.8100 625.0000 1.0000
32.8200 651.0000 1.0000
32.8300 635.0000 1.0000
32.8400 637.0000 1.0000
32.8500 670.0000 1.0000
32.8600 699.0000 1.0000
32.8700 636.0000 1.0000
32.8800 679.0000 1.0000
32.8900 633.0000 1.0000
32.9000 682.0000 1.0000
32.9100 664.0000 1.0000
32.9200 644.0000 1.0000
32.9300 678.0000 1.0000
32.9400 673.0000 1.0000
32.9500 690.0000 1.0000
32.9600 630.0000 1.0000
32.9700 714.0000 1.0000
32.9800 692.0000 1.0000
32.9900 691.0000 1.0000
33.0000 734.0000 1.0000
33.0100 744.0000 1.0000
33.0200 755.0000 1.0000
33.0300 760.0000 1.0000
33.0400 766.0000 1.0000
33.0500 817.0000 1.0000
33.0600 851.0000 1.0000
33.0700 806.0000 1.0000
33.0800 832.0000 1.0000
33.0900 905.0000 1.0000
33.1000 865.0000 1.0000
33.1100 862.0000 1.0000
33.1200 880.0000 1.0000
33.1300 857.0000 1.0000
33.1400 831.0000 1.0000
33.1500 817.0000 1.0000
33.1600 805.0000 1.0000
33.1700 781.0000 1.0000
33.1800 744.0000 1.0000
33.1900 762.0000 1.0000
33.2000 775.0000 1.0000
33.2100 787.0000 1.0000
33.2200 763.0000 1.0000
33.2300 735.0000 1.0000
33.2400 729.0000 1.0000
33.2500 742.0000 1.0000
33.2600 721.0000 1.0000
33.2700 735.0000 1.0000
33.2800 720.0000 1.0000
33.2900 705.0000 1.0000
33.3000 712.0000 1.0000
33.3100 708.0000 1.0000
33.3200 752.0000 1.0000
33.3300 698.0000 1.0000
33.3400 723.0000 1.0000
33.3500 763.0000 1.0000
33.3600 722.0000 1.0000
33.3700 701.0000 1.0000
33.3800 740.0000 1.0000
33.3900 737.0000 1.0000
33.4000 746.0000 1.0000
33.4100 760.0000 1.0000
33.4200 794.0000 1.0000
33.4300 773.0000 1.0000
33.4400 784.0000 1.0000
33.4500 784.0000 1.0000
33.4600 789.0000 1.0000
33.4700 828.0000 1.0000
33.4800 912.0000 1.0000
33.4900 869.0000 1.0000
33.5000 923.0000 1.0000
33.5100 920.0000 1.0000
33.5200 960.0000 1.0000
33.5300 957.0000 1.0000
33.5400 1082.0000 1.0000
33.5500 1049.0000 1.0000
33.5600 1119.0000 1.0000
33.5700 1116.0000 1.0000
33.5800 1238.0000 1.0000
33.5900 1309.0000 1.0000
33.6000 1358.0000 1.0000
33.6100 1388.0000 1.0000
33.6200 1341.0000 1.0000
33.6300 1396.0000 1.0000
33.6400 1386.0000 1.0000
33.6500 1488.0000 1.0000
33.6600 1450.0000 1.0000
33.6700 1495.0000 1.0000
33.6800 1446.0000 1.0000
33.6900 1371.0000 1.0000
33.7000 1362.0000 1.0000
33.7100 1317.0000 1.0000
33.7200 1332.0000 1.0000
33.7300 1264.0000 1.0000
33.7400 1257.0000 1.0000
33.7500 1250.0000 1.0000
33.7600 1132.0000 1.0000
33.7700 1131.0000 1.0000
33.7800 1053.0000 1.0000
33.7900 1027.0000 1.0000
33.8000 957.0000 1.0000
33.8100 940.0000 1.0000
33.8200 859.0000 1.0000
33.8300 914.0000 1.0000
33.8400 879.0000 1.0000
33.8500 876.0000 1.0000
33.8600 811.0000 1.0000
33.8700 771.0000 1.0000
33.8800 789.0000 1.0000
33.8900 761.0000 1.0000
33.9000 762.0000 1.0000
33.9100 777.0000 1.0000
33.9200 696.0000 1.0000
33.9300 716.0000 1.0000
33.9400 761.0000 1.0000
33.9500 742.0000 1.0000
33.9600 730.0000 1.0000
33.9700 709.0000 1.0000
33.9800 679.0000 1.0000
33.9900 714.0000 1.0000
34.0000 683.0000 1.0000
34.0100 655.0000 1.0000
34.0200 658.0000 1.0000
34.0300 673.0000 1.0000
34.0400 680.0000 1.0000
34.0500 632.0000 1.0000
34.0600 626.0000 1.0000
34.0700 641.0000 1.0000
34.0800 616.0000 1.0000
34.0900 644.0000 1.0000
34.1000 641.0000 1.0000
34.1100 644.0000 1.0000
34.1200 647.0000 1.0000
34.1300 651.0000 1.0000
34.1400 622.0000 1.0000
34.1500 646.0000 1.0000
34.1600 646.0000 1.0000
34.1700 617.0000 1.0000
34.1800 615.0000 1.0000
34.1900 596.0000 1.0000
34.2000 613.0000 1.0000
34.2100 662.0000 1.0000
34.2200 603.0000 1.0000
34.2300 593.0000 1.0000
34.2400 601.0000 1.0000
34.2500 594.0000 1.0000
34.2600 649.0000 1.0000
34.2700 604.0000 1.0000
34.2800 615.0000 1.0000
34.2900 630.0000 1.0000
34.3000 599.0000 1.0000
34.3100 597.0000 1.0000
34.3200 643.0000 1.0000
34.3300 604.0000 1.0000
34.3400 577.0000 1.0000
34.3500 593.0000 1.0000
34.3600 607.0000 1.0000
34.3700 603.0000 1.0000
34.3800 606.0000 1.0000
34.3900 610.0000 1.0000
34.4000 594.0000 1.0000
34.4100 540.0000 1.0000
34.4200 579.0000 1.0000
34.4300 599.0000 1.0000
34.4400 610.0000 1.0000
34.4500 608.0000 1.0000
34.4600 589.0000 1.0000
34.4700 576.0000 1.0000
34.4800 596.0000 1.0000
34.4900 592.0000 1.0000
34.5000 595.0000 1.0000
34.5100 590.0000 1.0000
34.5200 581.0000 1.0000
34.5300 574.0000 1.0000
34.5400 590.0000 1.0000
34.5500 543.0000 1.0000
34.5600 553.0000 1.0000
34.5700 570.0000 1.0000
34.5800 568.0000 1.0000
34.5900 544.0000 1.0000
34.6000 576.0000 1.0000
34.6100 624.0000 1.0000
34.6200 571.0000 1.0000
34.6300 581.0000 1.0000
34.6400 609.0000 1.0000
34.6500 562.0000 1.0000
34.6600 573.0000 1.0000
34.6700 576.0000 1.0000
34.6800 584.0000 1.0000
34.6900 591.0000 1.0000
34.7000 536.0000 1.0000
34.7100 558.0000 1.0000
34.7200 561.0000 1.0000
34.7300 571.0000 1.0000
34.7400 560.0000 1.0000
34.7500 567.0000 1.0000
34.7600 613.0000 1.0000
34.7700 555.0000 1.0000
34.7800 580.0000 1.0000
34.7900 591.0000 1.0000
34.8000 568.0000 1.0000
34.8100 566.0000 1.0000
34.8200 580.0000 1.0000
34.8300 556.0000 1.0000
34.8400 519.0000 1.0000
34.8500 548.0000 1.0000
34.8600 571.0000 1.0000
34.8700 592.0000 1.0000
34.8800 569.0000 1.0000
34.8900 575.0000 1.0000
34.9000 596.0000 1.0000
34.9100 518.0000 1.0000
34.9200 547.0000 1.0000
34.9300 556.0000 1.0000
34.9400 533.0000 1.0000
34.9500 581.0000 1.0000
34.9600 585.0000 1.0000
34.9700 542.0000 1.0000
34.9800 558.0000 1.0000
34.9900 563.0000 1.0000
35.0000 549.0000 1.0000
35.0100 584.0000 1.0000
35.0200 575.0000 1.0000
35.0300 567.0000 1.0000
35.0400 576.0000 1.0000
35.0500 535.0000 1.0000
35.0600 568.0000 1.0000
35.0700 559.0000 1.0000
35.0800 582.0000 1.0000
35.0900 561.0000 1.0000
35.1000 602.0000 1.0000
35.1100 584.0000 1.0000
35.1200 587.0000 1.0000
35.1300 572.0000 1.0000
35.1400 551.0000 1.0000
35.1500 587.0000 1.0000
35.1600 569.0000 1.0000
35.1700 561.0000 1.0000
35.1800 598.0000 1.0000
35.1900 581.0000 1.0000
35.2000 547.0000 1.0000
35.2100 538.0000 1.0000
35.2200 564.0000 1.0000
35.2300 569.0000 1.0000
35.2400 585.0000 1.0000
35.2500 575.0000 1.0000
35.2600 612.0000 1.0000
35.2700 568.0000 1.0000
35.2800 610.0000 1.0000
35.2900 594.0000 1.0000
35.3000 593.0000 1.0000
35.3100 628.0000 1.0000
35.3200 598.0000 1.0000
35.3300 624.0000 1.0000
35.3400 640.0000 1.0000
35.3500 604.0000 1.0000
35.3600 658.0000 1.0000
35.3700 636.0000 1.0000
35.3800 672.0000 1.0000
35.3900 628.0000 1.0000
35.4000 717.0000 1.0000
35.4100 716.0000 1.0000
35.4200 694.0000 1.0000
35.4300 735.0000 1.0000
35.4400 758.0000 1.0000
35.4500 805.0000 1.0000
35.4600 811.0000 1.0000
35.4700 831.0000 1.0000
35.4800 890.0000 1.0000
35.4900 934.0000 1.0000
35.5000 1040.0000 1.0000
35.5100 1130.0000 1.0000
35.5200 1131.0000 1.0000
35.5300 1205.0000 1.0000
35.5400 1187.0000 1.0000
35.5500 1285.0000 1.0000
35.5600 1278.0000 1.0000
35.5700 1328.0000 1.0000
35.5800 1307.0000 1.0000
35.5900 1234.0000 1.0000
35.6000 1246.0000 1.0000
35.6100 1215.0000 1.0000
35.6200 1132.0000 1.0000
35.6300 1146.0000 1.0000
35.6400 1120.0000 1.0000
35.6500 1037.0000 1.0000
35.6600 1042.0000 1.0000
35.6700 1005.0000 1.0000
35.6800 964.0000 1.0000
35.6900 872.0000 1.0000
35.7000 830.0000 1.0000
35.7100 781.0000 1.0000
35.7200 779.0000 1.0000
35.7300 722.0000 1.0000
35.7400 697.0000 1.0000
35.7500 690.0000 1.0000
35.7600 664.0000 1.0000
35.7700 607.0000 1.0000
35.7800 610.0000 1.0000
35.7900 637.0000 1.0000
35.8000 599.0000 1.0000
35.8100 635.0000 1.0000
35.8200 645.0000 1.0000
35.8300 549.0000 1.0000
35.8400 585.0000 1.0000
35.8500 556.0000 1.0000
35.8600 577.0000 1.0000
35.8700 569.0000 1.0000
35.8800 586.0000 1.0000
35.8900 568.0000 1.0000
35.9000 491.0000 1.0000
35.9100 545.0000 1.0000
35.9200 532.0000 1.0000
35.9300 560.0000 1.0000
35.9400 590.0000 1.0000
35.9500 519.0000 1.0000
35.9600 556.0000 1.0000
35.9700 513.0000 1.0000
35.9800 502.0000 1.0000
35.9900 552.0000 1.0000
36.0000 573.0000 1.0000
36.0100 549.0000 1.0000
36.0200 513.0000 1.0000
36.0300 537.0000 1.0000
36.0400 526.0000 1.0000
36.0500 560.0000 1.0000
36.0600 515.0000 1.0000
36.0700 496.0000 1.0000
36.0800 547.0000 1.0000
36.0900 513.0000 1.0000
36.1000 513.0000 1.0000
36.1100 526.0000 1.0000
36.1200 548.0000 1.0000
36.1300 539.0000 1.0000
36.1400 503.0000 1.0000
36.1500 513.0000 1.0000
36.1600 509.0000 1.0000
36.1700 520.0000 1.0000
36.1800 544.0000 1.0000
36.1900 510.0000 1.0000
36.2000 533.0000 1.0000
36.2100 509.0000 1.0000
36.2200 544.0000 1.0000
36.2300 528.0000 1.0000
36.2400 508.0000 1.0000
36.2500 528.0000 1.0000
36.2600 535.0000 1.0000
36.2700 549.0000 1.0000
36.2800 546.0000 1.0000
36.2900 484.0000 1.0000
36.3000 544.0000 1.0000
36.3100 515.0000 1.0000
36.3200 519.0000 1.0000
36.3300 528.0000 1.0000
36.3400 541.0000 1.0000
36.3500 548.0000 1.0000
36.3600 518.0000 1.0000
36.3700 543.0000 1.0000
36.3800 551.0000 1.0000
36.3900 475.0000 1.0000
36.4000 529.0000 1.0000
36.4100 511.0000 1.0000
36.4200 521.0000 1.0000
36.4300 556.0000 1.0000
36.4400 538.0000 1.0000
36.4500 519.0000 1.0000
36.4600 490.0000 1.0000
36.4700 519.0000 1.0000
36.4800 515.0000 1.0000
36.4900 509.0000 1.0000
36.5000 534.0000 1.0000
36.5100 509.0000 1.0000
36.5200 533.0000 1.0000
36.5300 568.0000 1.0000
36.5400 543.0000 1.0000
36.5500 535.0000 1.0000
36.5600 535.0000 1.0000
36.5700 498.0000 1.0000
36.5800 522.0000 1.0000
36.5900 523.0000 1.0000
36.6000 549.0000 1.0000
36.6100 512.0000 1.0000
36.6200 468.0000 1.0000
36.6300 533.0000 1.0000
36.6400 509.0000 1.0000
36.6500 513.0000 1.0000
36.6600 470.0000 1.0000
36.6700 530.0000 1.0000
36.6800 515.0000 1.0000
36.6900 504.0000 1.0000
36.7000 517.0000 1.0000
36.7100 506.0000 1.0000
36.7200 500.0000 1.0000
36.7300 562.0000 1.0000
36.7400 548.0000 1.0000
36.7500 522.0000 1.0000
36.7600 551.0000 1.0000
36.7700 498.0000 1.0000
36.7800 499.0000 1.0000
36.7900 511.0000 1.0000
36.8000 513.0000 1.0000
36.8100 538.0000 1.0000
36.8200 509.0000 1.0000
36.8300 504.0000 1.0000
36.8400 507.0000 1.0000
36.8500 542.0000 1.0000
36.8600 511.0000 1.0000
36.8700 522.0000 1.0000
36.8800 492.0000 1.0000
36.8900 529.0000 1.0000
36.9000 509.0000 1.0000
36.9100 503.0000 1.0000
36.9200 524.0000 1.0000
36.9300 510.0000 1.0000
36.9400 516.0000 1.0000
36.9500 545.0000 1.0000
36.9600 519.0000 1.0000
36.9700 479.0000 1.0000
36.9800 509.0000 1.0000
36.9900 535.0000 1.0000
37.0000 535.0000 1.0000
37.0100 517.0000 1.0000
37.0200 541.0000 1.0000
37.0300 546.0000 1.0000
37.0400 535.0000 1.0000
37.0500 525.0000 1.0000
37.0600 520.0000 1.0000
37.0700 526.0000 1.0000
37.0800 510.0000 1.0000
37.0900 526.0000 1.0000
37.1000 559.0000 1.0000
37.1100 533.0000 1.0000
37.1200 516.0000 1.0000
37.1300 519.0000 1.0000
37.1400 545.0000 1.0000
37.1500 528.0000 1.0000
37.1600 533.0000 1.0000
37.1700 547.0000 1.0000
37.1800 524.0000 1.0000
37.1900 495.0000 1.0000
37.2000 556.0000 1.0000
37.2100 541.0000 1.0000
37.2200 556.0000 1.0000
37.2300 528.0000 1.0000
37.2400 567.0000 1.0000
37.2500 527.0000 1.0000
37.2600 536.0000 1.0000
37.2700 597.0000 1.0000
37.2800 561.0000 1.0000
37.2900 552.0000 1.0000
37.3000 600.0000 1.0000
37.3100 582.0000 1.0000
37.3200 591.0000 1.0000
37.3300 586.0000 1.0000
37.3400 567.0000 1.0000
37.3500 637.0000 1.0000
37.3600 631.0000 1.0000
37.3700 609.0000 1.0000
37.3800 650.0000 1.0000
37.3900 628.0000 1.0000
37.4000 655.0000 1.0000
37.4100 737.0000 1.0000
37.4200 763.0000 1.0000
37.4300 698.0000 1.0000
37.4400 676.0000 1.0000
37.4500 714.0000 1.0000
37.4600 741.0000 1.0000
37.4700 804.0000 1.0000
37.4800 788.0000 1.0000
37.4900 794.0000 1.0000
37.5000 831.0000 1.0000
37.5100 957.0000 1.0000
37.5200 967.0000 1.0000
37.5300 984.0000 1.0000
37.5400 1024.0000 1.0000
37.5500 1123.0000 1.0000
37.5600 1162.0000 1.0000
37.5700 1181.0000 1.0000
37.5800 1296.0000 1.0000
37.5900 1363.0000 1.0000
37.6000 1427.0000 1.0000
37.6100 1538.0000 1.0000
37.6200 1620.0000 1.0000
37.6300 1707.0000 1.0000
37.6400 1758.0000 1.0000
37.6500 1810.0000 1.0000
37.6600 1874.0000 1.0000
37.6700 1933.0000 1.0000
37.6800 2118.0000 1.0000
37.6900 2117.0000 1.0000
37.7000 2152.0000 1.0000
37.7100 2111.0000 1.0000
37.7200 2116.0000 1.0000
37.7300 2133.0000 1.0000
37.7400 2099.0000 1.0000
37.7500 2043.0000 1.0000
37.7600 2033.0000 1.0000
37.7700 1961.0000 1.0000
37.7800 1837.0000 1.0000
37.7900 1721.0000 1.0000
37.8000 1677.0000 1.0000
37.8100 1577.0000 1.0000
37.8200 1543.0000 1.0000
37.8300 1478.0000 1.0000
37.8400 1457.0000 1.0000
37.8500 1315.0000 1.0000
37.8600 1288.0000 1.0000
37.8700 1220.0000 1.0000
37.8800 1113.0000 1.0000
37.8900 1072.0000 1.0000
37.9000 1013.0000 1.0000
37.9100 975.0000 1.0000
37.9200 914.0000 1.0000
37.9300 874.0000 1.0000
37.9400 819.0000 1.0000
37.9500 862.0000 1.0000
37.9600 778.0000 1.0000
37.9700 765.0000 1.0000
37.9800 712.0000 1.0000
37.9900 695.0000 1.0000
38.0000 688.0000 1.0000
38.0100 699.0000 1.0000
38.0200 632.0000 1.0000
38.0300 635.0000 1.0000
38.0400 660.0000 1.0000
38.0500 647.0000 1.0000
38.0600 593.0000 1.0000
38.0700 623.0000 1.0000
38.0800 589.0000 1.0000
38.0900 594.0000 1.0000
38.1000 597.0000 1.0000
38.1100 596.0000 1.0000
38.1200 550.0000 1.0000
38.1300 534.0000 1.0000
38.1400 576.0000 1.0000
38.1500 551.0000 1.0000
38.1600 526.0000 1.0000
38.1700 556.0000 1.0000
38.1800 513.0000 1.0000
38.1900 553.0000 1.0000
38.2000 514.0000 1.0000
38.2100 520.0000 1.0000
38.2200 526.0000 1.0000
38.2300 516.0000 1.0000
38.2400 498.0000 1.0000
38.2500 522.0000 1.0000
38.2600 492.0000 1.0000
38.2700 515.0000 1.0000
38.2800 536.0000 1.0000
38.2900 495.0000 1.0000
38.3000 517.0000 1.0000
38.3100 497.0000 1.0000
38.3200 499.0000 1.0000
38.3300 494.0000 1.0000
38.3400 511.0000 1.0000
38.3500 526.0000 1.0000
38.3600 498.0000 1.0000
38.3700 516.0000 1.0000
38.3800 504.0000 1.0000
38.3900 483.0000 1.0000
38.4000 534.0000 1.0000
38.4100 482.0000 1.0000
38.4200 505.0000 1.0000
38.4300 480.0000 1.0000
38.4400 483.0000 1.0000
38.4500 483.0000 1.0000
38.4600 476.0000 1.0000
38.4700 461.0000 1.0000
38.4800 459.0000 1.0000
38.4900 476.0000 1.0000
38.5000 479.0000 1.0000
38.5100 491.0000 1.0000
38.5200 508.0000 1.0000
38.5300 496.0000 1.0000
38.5400 463.0000 1.0000
38.5500 502.0000 1.0000
38.5600 491.0000 1.0000
38.5700 506.0000 1.0000
38.5800 457.0000 1.0000
38.5900 451.0000 1.0000
38.6000 463.0000 1.0000
38.6100 486.0000 1.0000
38.6200 482.0000 1.0000
38.6300 464.0000 1.0000
38.6400 500.0000 1.0000
38.6500 478.0000 1.0000
38.6600 481.0000 1.0000
38.6700 480.0000 1.0000
38.6800 446.0000 1.0000
38.6900 522.0000 1.0000
38.7000 486.0000 1.0000
38.7100 529.0000 1.0000
38.7200 500.0000 1.0000
38.7300 475.0000 1.0000
38.7400 521.0000 1.0000
38.7500 507.0000 1.0000
38.7600 525.0000 1.0000
38.7700 501.0000 1.0000
38.7800 502.0000 1.0000
38.7900 511.0000 1.0000
38.8000 512.0000 1.0000
38.8100 483.0000 1.0000
38.8200 464.0000 1.0000
38.8300 488.0000 1.0000
38.8400 471.0000 1.0000
38.8500 463.0000 1.0000
38.8600 477.0000 1.0000
38.8700 505.0000 1.0000
38.8800 512.0000 1.0000
38.8900 441.0000 1.0000
38.9000 476.0000 1.0000
38.9100 452.0000 1.0000
38.9200 472.0000 1.0000
38.9300 486.0000 1.0000
38.9400 477.0000 1.0000
38.9500 488.0000 1.0000
38.9600 440.0000 1.0000
38.9700 486.0000 1.0000
38.9800 488.0000 1.0000
38.9900 474.0000 1.0000
39.0000 474.0000 1.0000
39.0100 442.0000 1.0000
39.0200 475.0000 1.0000
39.0300 468.0000 1.0000
39.0400 478.0000 1.0000
39.0500 456.0000 1.0000
39.0600 456.0000 1.0000
39.0700 438.0000 1.0000
39.0800 484.0000 1.0000
39.0900 464.0000 1.0000
39.1000 469.0000 1.0000
39.1100 478.0000 1.0000
39.1200 472.0000 1.0000
39.1300 468.0000 1.0000
39.1400 459.0000 1.0000
39.1500 452.0000 1.0000
39.1600 436.0000 1.0000
39.1700 488.0000 1.0000
39.1800 466.0000 1.0000
39.1900 438.0000 1.0000
39.2000 459.0000 1.0000
39.2100 460.0000 1.0000
39.2200 483.0000 1.0000
39.2300 495.0000 1.0000
39.2400 491.0000 1.0000
39.2500 463.0000 1.0000
39.2600 441.0000 1.0000
39.2700 454.0000 1.0000
39.2800 432.0000 1.0000
39.2900 457.0000 1.0000
39.3000 447.0000 1.0000
39.3100 429.0000 1.0000
39.3200 468.0000 1.0000
39.3300 437.0000 1.0000
39.3400 458.0000 1.0000
39.3500 451.0000 1.0000
39.3600 437.0000 1.0000
39.3700 465.0000 1.0000
39.3800 496.0000 1.0000
39.3900 435.0000 1.0000
39.4000 438.0000 1.0000
39.4100 471.0000 1.0000
39.4200 424.0000 1.0000
39.4300 467.0000 1.0000
39.4400 482.0000 1.0000
39.4500 443.0000 1.0000
39.4600 418.0000 1.0000
39.4700 406.0000 1.0000
39.4800 470.0000 1.0000
39.4900 477.0000 1.0000
39.5000 472.0000 1.0000
39.5100 435.0000 1.0000
39.5200 422.0000 1.0000
39.5300 427.0000 1.0000
39.5400 458.0000 1.0000
39.5500 464.0000 1.0000
39.5600 455.0000 1.0000
39.5700 452.0000 1.0000
39.5800 438.0000 1.0000
39.5900 432.0000 1.0000
39.6000 461.0000 1.0000
39.6100 426.0000 1.0000
39.6200 423.0000 1.0000
39.6300 474.0000 1.0000
39.6400 441.0000 1.0000
39.6500 440.0000 1.0000
39.6600 453.0000 1.0000
39.6700 435.0000 1.0000
39.6800 498.0000 1.0000
39.6900 476.0000 1.0000
39.7000 470.0000 1.0000
39.7100 415.0000 1.0000
39.7200 419.0000 1.0000
39.7300 412.0000 1.0000
39.7400 459.0000 1.0000
39.7500 502.0000 1.0000
39.7600 496.0000 1.0000
39.7700 459.0000 1.0000
39.7800 410.0000 1.0000
39.7900 465.0000 1.0000
39.8000 445.0000 1.0000
39.8100 484.0000 1.0000
39.8200 488.0000 1.0000
39.8300 482.0000 1.0000
39.8400 465.0000 1.0000
39.8500 452.0000 1.0000
39.8600 481.0000 1.0000
39.8700 439.0000 1.0000
39.8800 394.0000 1.0000
39.8900 445.0000 1.0000
39.9000 486.0000 1.0000
39.9100 431.0000 1.0000
39.9200 433.0000 1.0000
39.9300 490.0000 1.0000
39.9400 462.0000 1.0000
39.9500 466.0000 1.0000
39.9600 442.0000 1.0000
39.9700 455.0000 1.0000
39.9800 429.0000 1.0000
39.9900 454.0000 1.0000
40.0000 435.0000 1.0000
40.0100 433.0000 1.0000
40.0200 456.0000 1.0000
40.0300 449.0000 1.0000
40.0400 440.0000 1.0000
40.0500 411.0000 1.0000
40.0600 449.0000 1.0000
40.0700 460.0000 1.0000
40.0800 436.0000 1.0000
40.0900 448.0000 1.0000
40.1000 445.0000 1.0000
40.1100 455.0000 1.0000
40.1200 421.0000 1.0000
40.1300 407.0000 1.0000
40.1400 461.0000 1.0000
40.1500 472.0000 1.0000
40.1600 454.0000 1.0000
40.1700 448.0000 1.0000
40.1800 402.0000 1.0000
40.1900 441.0000 1.0000
40.2000 451.0000 1.0000
40.2100 423.0000 1.0000
40.2200 432.0000 1.0000
40.2300 488.0000 1.0000
40.2400 433.0000 1.0000
40.2500 440.0000 1.0000
40.2600 423.0000 1.0000
40.2700 428.0000 1.0000
40.2800 428.0000 1.0000
40.2900 444.0000 1.0000
40.3000 445.0000 1.0000
40.3100 462.0000 1.0000
40.3200 433.0000 1.0000
40.3300 445.0000 1.0000
40.3400 441.0000 1.0000
40.3500 441.0000 1.0000
40.3600 443.0000 1.0000
40.3700 421.0000 1.0000
40.3800 481.0000 1.0000
40.3900 456.0000 1.0000
40.4000 416.0000 1.0000
40.4100 419.0000 1.0000
40.4200 437.0000 1.0000
40.4300 461.0000 1.0000
40.4400 441.0000 1.0000
40.4500 491.0000 1.0000
40.4600 470.0000 1.0000
40.4700 421.0000 1.0000
40.4800 474.0000 1.0000
40.4900 473.0000 1.0000
40.5000 450.0000 1.0000
40.5100 446.0000 1.0000
40.5200 473.0000 1.0000
40.5300 430.0000 1.0000
40.5400 405.0000 1.0000
40.5500 429.0000 1.0000
40.5600 450.0000 1.0000
40.5700 441.0000 1.0000
40.5800 423.0000 1.0000
40.5900 408.0000 1.0000
40.6000 429.0000 1.0000
40.6100 425.0000 1.0000
40.6200 451.0000 1.0000
40.6300 446.0000 1.0000
40.6400 429.0000 1.0000
40.6500 457.0000 1.0000
40.6600 458.0000 1.0000
40.6700 474.0000 1.0000
40.6800 467.0000 1.0000
40.6900 456.0000 1.0000
40.7000 458.0000 1.0000
40.7100 486.0000 1.0000
40.7200 480.0000 1.0000
40.7300 464.0000 1.0000
40.7400 441.0000 1.0000
40.7500 490.0000 1.0000
40.7600 467.0000 1.0000
40.7700 484.0000 1.0000
40.7800 460.0000 1.0000
40.7900 440.0000 1.0000
40.8000 481.0000 1.0000
40.8100 472.0000 1.0000
40.8200 489.0000 1.0000
40.8300 505.0000 1.0000
40.8400 478.0000 1.0000
40.8500 489.0000 1.0000
40.8600 471.0000 1.0000
40.8700 495.0000 1.0000
40.8800 423.0000 1.0000
40.8900 474.0000 1.0000
40.9000 456.0000 1.0000
40.9100 440.0000 1.0000
40.9200 465.0000 1.0000
40.9300 492.0000 1.0000
40.9400 469.0000 1.0000
40.9500 427.0000 1.0000
40.9600 452.0000 1.0000
40.9700 439.0000 1.0000
40.9800 465.0000 1.0000
40.9900 426.0000 1.0000
41.0000 441.0000 1.0000
41.0100 473.0000 1.0000
41.0200 426.0000 1.0000
41.0300 461.0000 1.0000
41.0400 423.0000 1.0000
41.0500 398.0000 1.0000
41.0600 430.0000 1.0000
41.0700 461.0000 1.0000
41.0800 482.0000 1.0000
41.0900 431.0000 1.0000
41.1000 444.0000 1.0000
41.1100 415.0000 1.0000
41.1200 392.0000 1.0000
41.1300 427.0000 1.0000
41.1400 457.0000 1.0000
41.1500 433.0000 1.0000
41.1600 409.0000 1.0000
41.1700 431.0000 1.0000
41.1800 436.0000 1.0000
41.1900 427.0000 1.0000
41.2000 475.0000 1.0000
41.2100 441.0000 1.0000
41.2200 413.0000 1.0000
41.2300 466.0000 1.0000
41.2400 451.0000 1.0000
41.2500 428.0000 1.0000
41.2600 438.0000 1.0000
41.2700 428.0000 1.0000
41.2800 417.0000 1.0000
41.2900 429.0000 1.0000
41.3000 416.0000 1.0000
41.3100 410.0000 1.0000
41.3200 422.0000 1.0000
41.3300 446.0000 1.0000
41.3400 443.0000 1.0000
41.3500 399.0000 1.0000
41.3600 396.0000 1.0000
41.3700 458.0000 1.0000
41.3800 467.0000 1.0000
41.3900 428.0000 1.0000
41.4000 434.0000 1.0000
41.4100 434.0000 1.0000
41.4200 431.0000 1.0000
41.4300 459.0000 1.0000
41.4400 434.0000 1.0000
41.4500 451.0000 1.0000
41.4600 445.0000 1.0000
41.4700 444.0000 1.0000
41.4800 436.0000 1.0000
41.4900 443.0000 1.0000
41.5000 432.0000 1.0000
41.5100 431.0000 1.0000
41.5200 451.0000 1.0000
41.5300 408.0000 1.0000
41.5400 429.0000 1.0000
41.5500 429.0000 1.0000
41.5600 401.0000 1.0000
41.5700 433.0000 1.0000
41.5800 441.0000 1.0000
41.5900 438.0000 1.0000
41.6000 455.0000 1.0000
41.6100 416.0000 1.0000
41.6200 435.0000 1.0000
41.6300 405.0000 1.0000
41.6400 441.0000 1.0000
41.6500 438.0000 1.0000
41.6600 432.0000 1.0000
41.6700 426.0000 1.0000
41.6800 420.0000 1.0000
41.6900 439.0000 1.0000
41.7000 419.0000 1.0000
41.7100 418.0000 1.0000
41.7200 404.0000 1.0000
41.7300 407.0000 1.0000
41.7400 441.0000 1.0000
41.7500 438.0000 1.0000
41.7600 433.0000 1.0000
41.7700 425.0000 1.0000
41.7800 431.0000 1.0000
41.7900 409.0000 1.0000
41.8000 441.0000 1.0000
41.8100 458.0000 1.0000
41.8200 417.0000 1.0000
41.8300 439.0000 1.0000
41.8400 420.0000 1.0000
41.8500 399.0000 1.0000
41.8600 426.0000 1.0000
41.8700 397.0000 1.0000
41.8800 418.0000 1.0000
41.8900 401.0000 1.0000
41.9000 440.0000 1.0000
41.9100 436.0000 1.0000
41.9200 431.0000 1.0000
41.9300 416.0000 1.0000
41.9400 399.0000 1.0000
41.9500 444.0000 1.0000
41.9600 454.0000 1.0000
41.9700 450.0000 1.0000
41.9800 430.0000 1.0000
41.9900 395.0000 1.0000
42.0000 419.0000 1.0000
42.0100 406.0000 1.0000
42.0200 434.0000 1.0000
42.0300 423.0000 1.0000
42.0400 437.0000 1.0000
42.0500 444.0000 1.0000
42.0600 458.0000 1.0000
42.0700 416.0000 1.0000
42.0800 430.0000 1.0000
42.0900 405.0000 1.0000
42.1000 417.0000 1.0000
42.1100 436.0000 1.0000
42.1200 465.0000 1.0000
42.1300 440.0000 1.0000
42.1400 418.0000 1.0000
42.1500 422.0000 1.0000
42.1600 406.0000 1.0000
42.1700 459.0000 1.0000
42.1800 428.0000 1.0000
42.1900 424.0000 1.0000
42.2000 431.0000 1.0000
42.2100 439.0000 1.0000
42.2200 411.0000 1.0000
42.2300 426.0000 1.0000
42.2400 460.0000 1.0000
42.2500 421.0000 1.0000
42.2600 454.0000 1.0000
42.2700 417.0000 1.0000
42.2800 425.0000 1.0000
42.2900 424.0000 1.0000
42.3000 443.0000 1.0000
42.3100 457.0000 1.0000
42.3200 470.0000 1.0000
42.3300 464.0000 1.0000
42.3400 442.0000 1.0000
42.3500 462.0000 1.0000
42.3600 447.0000 1.0000
42.3700 456.0000 1.0000
42.3800 457.0000 1.0000
42.3900 448.0000 1.0000
42.4000 472.0000 1.0000
42.4100 458.0000 1.0000
42.4200 455.0000 1.0000
42.4300 442.0000 1.0000
42.4400 457.0000 1.0000
42.4500 465.0000 1.0000
42.4600 473.0000 1.0000
42.4700 439.0000 1.0000
42.4800 478.0000 1.0000
42.4900 472.0000 1.0000
42.5000 470.0000 1.0000
42.5100 479.0000 1.0000
42.5200 471.0000 1.0000
42.5300 410.0000 1.0000
42.5400 437.0000 1.0000
42.5500 424.0000 1.0000
42.5600 453.0000 1.0000
42.5700 436.0000 1.0000
42.5800 426.0000 1.0000
42.5900 451.0000 1.0000
42.6000 465.0000 1.0000
42.6100 456.0000 1.0000
42.6200 444.0000 1.0000
42.6300 414.0000 1.0000
42.6400 438.0000 1.0000
42.6500 400.0000 1.0000
42.6600 427.0000 1.0000
42.6700 390.0000 1.0000
42.6800 436.0000 1.0000
42.6900 425.0000 1.0000
42.7000 417.0000 1.0000
42.7100 415.0000 1.0000
42.7200 421.0000 1.0000
42.7300 431.0000 1.0000
42.7400 417.0000 1.0000
42.7500 434.0000 1.0000
42.7600 407.0000 1.0000
42.7700 434.0000 1.0000
42.7800 386.0000 1.0000
42.7900 417.0000 1.0000
42.8000 430.0000 1.0000
42.8100 428.0000 1.0000
42.8200 418.0000 1.0000
42.8300 408.0000 1.0000
42.8400 420.0000 1.0000
42.8500 404.0000 1.0000
42.8600 419.0000 1.0000
42.8700 407.0000 1.0000
42.8800 427.0000 1.0000
42.8900 441.0000 1.0000
42.9000 403.0000 1.0000
42.9100 419.0000 1.0000
42.9200 397.0000 1.0000
42.9300 416.0000 1.0000
42.9400 423.0000 1.0000
42.9500 420.0000 1.0000
42.9600 444.0000 1.0000
42.9700 408.0000 1.0000
42.9800 395.0000 1.0000
42.9900 388.0000 1.0000
43.0000 441.0000 1.0000
43.0100 377.0000 1.0000
43.0200 433.0000 1.0000
43.0300 429.0000 1.0000
43.0400 399.0000 1.0000
43.0500 392.0000 1.0000
43.0600 433.0000 1.0000
43.0700 399.0000 1.0000
43.0800 411.0000 1.0000
43.0900 413.0000 1.0000
43.1000 392.0000 1.0000
43.1100 404.0000 1.0000
43.1200 389.0000 1.0000
43.1300 391.0000 1.0000
43.1400 418.0000 1.0000
43.1500 429.0000 1.0000
43.1600 430.0000 1.0000
43.1700 421.0000 1.0000
43.1800 418.0000 1.0000
43.1900 443.0000 1.0000
43.2000 397.0000 1.0000
43.2100 440.0000 1.0000
43.2200 416.0000 1.0000
43.2300 428.0000 1.0000
43.2400 408.0000 1.0000
43.2500 412.0000 1.0000
43.2600 432.0000 1.0000
43.2700 413.0000 1.0000
43.2800 384.0000 1.0000
43.2900 422.0000 1.0000
43.3000 417.0000 1.0000
43.3100 389.0000 1.0000
43.3200 444.0000 1.0000
43.3300 436.0000 1.0000
43.3400 385.0000 1.0000
43.3500 399.0000 1.0000
43.3600 422.0000 1.0000
43.3700 379.0000 1.0000
43.3800 411.0000 1.0000
43.3900 422.0000 1.0000
43.4000 434.0000 1.0000
43.4100 404.0000 1.0000
43.4200 420.0000 1.0000
43.4300 421.0000 1.0000
43.4400 423.0000 1.0000
43.4500 430.0000 1.0000
43.4600 424.0000 1.0000
43.4700 444.0000 1.0000
43.4800 466.0000 1.0000
43.4900 422.0000 1.0000
43.5000 372.0000 1.0000
43.5100 417.0000 1.0000
43.5200 443.0000 1.0000
43.5300 432.0000 1.0000
43.5400 426.0000 1.0000
43.5500 410.0000 1.0000
43.5600 408.0000 1.0000
43.5700 417.0000 1.0000
43.5800 432.0000 1.0000
43.5900 413.0000 1.0000
43.6000 413.0000 1.0000
43.6100 438.0000 1.0000
43.6200 388.0000 1.0000
43.6300 445.0000 1.0000
43.6400 411.0000 1.0000
43.6500 416.0000 1.0000
43.6600 411.0000 1.0000
43.6700 407.0000 1.0000
43.6800 430.0000 1.0000
43.6900 365.0000 1.0000
43.7000 407.0000 1.0000
43.7100 450.0000 1.0000
43.7200 409.0000 1.0000
43.7300 419.0000 1.0000
43.7400 408.0000 1.0000
43.7500 427.0000 1.0000
43.7600 391.0000 1.0000
43.7700 402.0000 1.0000
43.7800 395.0000 1.0000
43.7900 442.0000 1.0000
43.8000 391.0000 1.0000
43.8100 411.0000 1.0000
43.8200 420.0000 1.0000
43.8300 438.0000 1.0000
43.8400 398.0000 1.0000
43.8500 375.0000 1.0000
43.8600 371.0000 1.0000
43.8700 401.0000 1.0000
43.8800 388.0000 1.0000
43.8900 400.0000 1.0000
43.9000 422.0000 1.0000
43.9100 437.0000 1.0000
43.9200 410.0000 1.0000
43.9300 391.0000 1.0000
43.9400 416.0000 1.0000
43.9500 375.0000 1.0000
43.9600 393.0000 1.0000
43.9700 414.0000 1.0000
43.9800 417.0000 1.0000
43.9900 389.0000 1.0000
44.0000 402.0000 1.0000
44.0100 413.0000 1.0000
44.0200 404.0000 1.0000
44.0300 373.0000 1.0000
44.0400 387.0000 1.0000
44.0500 397.0000 1.0000
44.0600 385.0000 1.0000
44.0700 397.0000 1.0000
44.0800 386.0000 1.0000
44.0900 385.0000 1.0000
44.1000 388.0000 1.0000
44.1100 420.0000 1.0000
44.1200 406.0000 1.0000
44.1300 409.0000 1.0000
44.1400 414.0000 1.0000
44.1500 368.0000 1.0000
44.1600 438.0000 1.0000
44.1700 421.0000 1.0000
44.1800 401.0000 1.0000
44.1900 396.0000 1.0000
44.2000 409.0000 1.0000
44.2100 426.0000 1.0000
44.2200 392.0000 1.0000
44.2300 385.0000 1.0000
44.2400 368.0000 1.0000
44.2500 385.0000 1.0000
44.2600 388.0000 1.0000
44.2700 408.0000 1.0000
44.2800 449.0000 1.0000
44.2900 362.0000 1.0000
44.3000 384.0000 1.0000
44.3100 408.0000 1.0000
44.3200 370.0000 1.0000
44.3300 419.0000 1.0000
44.3400 429.0000 1.0000
44.3500 409.0000 1.0000
44.3600 408.0000 1.0000
44.3700 373.0000 1.0000
44.3800 403.0000 1.0000
44.3900 404.0000 1.0000
44.4000 389.0000 1.0000
44.4100 387.0000 1.0000
44.4200 414.0000 1.0000
44.4300 396.0000 1.0000
44.4400 409.0000 1.0000
44.4500 423.0000 1.0000
44.4600 390.0000 1.0000
44.4700 382.0000 1.0000
44.4800 429.0000 1.0000
44.4900 411.0000 1.0000
44.5000 392.0000 1.0000
44.5100 396.0000 1.0000
44.5200 384.0000 1.0000
44.5300 414.0000 1.0000
44.5400 382.0000 1.0000
44.5500 432.0000 1.0000
44.5600 391.0000 1.0000
44.5700 378.0000 1.0000
44.5800 391.0000 1.0000
44.5900 412.0000 1.0000
44.6000 403.0000 1.0000
44.6100 407.0000 1.0000
44.6200 407.0000 1.0000
44.6300 409.0000 1.0000
44.6400 418.0000 1.0000
44.6500 410.0000 1.0000
44.6600 394.0000 1.0000
44.6700 390.0000 1.0000
44.6800 381.0000 1.0000
44.6900 392.0000 1.0000
44.7000 396.0000 1.0000
44.7100 401.0000 1.0000
44.7200 409.0000 1.0000
44.7300 400.0000 1.0000
44.7400 406.0000 1.0000
44.7500 400.0000 1.0000
44.7600 400.0000 1.0000
44.7700 380.0000 1.0000
44.7800 385.0000 1.0000
44.7900 386.0000 1.0000
44.8000 395.0000 1.0000
44.8100 390.0000 1.0000
44.8200 382.0000 1.0000
44.8300 421.0000 1.0000
44.8400 401.0000 1.0000
44.8500 382.0000 1.0000
44.8600 362.0000 1.0000
44.8700 396.0000 1.0000
44.8800 387.0000 1.0000
44.8900 386.0000 1.0000
44.9000 387.0000 1.0000
44.9100 397.0000 1.0000
44.9200 369.0000 1.0000
44.9300 417.0000 1.0000
44.9400 376.0000 1.0000
44.9500 384.0000 1.0000
44.9600 394.0000 1.0000
44.9700 433.0000 1.0000
44.9800 412.0000 1.0000
44.9900 375.0000 1.0000
45.0000 370.0000 1.0000
45.0100 408.0000 1.0000
45.0200 389.0000 1.0000
45.0300 418.0000 1.0000
45.0400 371.0000 1.0000
45.0500 377.0000 1.0000
45.0600 394.0000 1.0000
45.0700 402.0000 1.0000
45.0800 379.0000 1.0000
45.0900 366.0000 1.0000
45.1000 386.0000 1.0000
45.1100 380.0000 1.0000
45.1200 383.0000 1.0000
45.1300 391.0000 1.0000
45.1400 386.0000 1.0000
45.1500 361.0000 1.0000
45.1600 424.0000 1.0000
45.1700 401.0000 1.0000
45.1800 416.0000 1.0000
45.1900 407.0000 1.0000
45.2000 392.0000 1.0000
45.2100 418.0000 1.0000
45.2200 429.0000 1.0000
45.2300 349.0000 1.0000
45.2400 373.0000 1.0000
45.2500 389.0000 1.0000
45.2600 369.0000 1.0000
45.2700 380.0000 1.0000
45.2800 375.0000 1.0000
45.2900 407.0000 1.0000
45.3000 396.0000 1.0000
45.3100 420.0000 1.0000
45.3200 423.0000 1.0000
45.3300 395.0000 1.0000
45.3400 388.0000 1.0000
45.3500 375.0000 1.0000
45.3600 413.0000 1.0000
45.3700 377.0000 1.0000
45.3800 395.0000 1.0000
45.3900 382.0000 1.0000
45.4000 376.0000 1.0000
45.4100 389.0000 1.0000
45.4200 380.0000 1.0000
45.4300 385.0000 1.0000
45.4400 426.0000 1.0000
45.4500 409.0000 1.0000
45.4600 399.0000 1.0000
45.4700 399.0000 1.0000
45.4800 390.0000 1.0000
45.4900 370.0000 1.0000
45.5000 409.0000 1.0000
45.5100 416.0000 1.0000
45.5200 418.0000 1.0000
45.5300 384.0000 1.0000
45.5400 364.0000 1.0000
45.5500 386.0000 1.0000
45.5600 378.0000 1.0000
45.5700 384.0000 1.0000
45.5800 383.0000 1.0000
45.5900 344.0000 1.0000
45.6000 389.0000 1.0000
45.6100 387.0000 1.0000
45.6200 379.0000 1.0000
45.6300 392.0000 1.0000
45.6400 417.0000 1.0000
45.6500 372.0000 1.0000
45.6600 391.0000 1.0000
45.6700 363.0000 1.0000
45.6800 368.0000 1.0000
45.6900 342.0000 1.0000
45.7000 349.0000 1.0000
45.7100 385.0000 1.0000
45.7200 387.0000 1.0000
45.7300 386.0000 1.0000
45.7400 387.0000 1.0000
45.7500 371.0000 1.0000
45.7600 383.0000 1.0000
45.7700 376.0000 1.0000
45.7800 396.0000 1.0000
45.7900 380.0000 1.0000
45.8000 399.0000 1.0000
45.8100 406.0000 1.0000
45.8200 390.0000 1.0000
45.8300 385.0000 1.0000
45.8400 377.0000 1.0000
45.8500 396.0000 1.0000
45.8600 388.0000 1.0000
45.8700 402.0000 1.0000
45.8800 360.0000 1.0000
45.8900 393.0000 1.0000
45.9000 373.0000 1.0000
45.9100 390.0000 1.0000
45.9200 378.0000 1.0000
45.9300 358.0000 1.0000
45.9400 382.0000 1.0000
45.9500 364.0000 1.0000
45.9600 381.0000 1.0000
45.9700 377.0000 1.0000
45.9800 377.0000 1.0000
45.9900 360.0000 1.0000
46.0000 353.0000 1.0000
46.0100 359.0000 1.0000
46.0200 381.0000 1.0000
46.0300 384.0000 1.0000
46.0400 383.0000 1.0000
46.0500 383.0000 1.0000
46.0600 378.0000 1.0000
46.0700 369.0000 1.0000
46.0800 417.0000 1.0000
46.0900 392.0000 1.0000
46.1000 367.0000 1.0000
46.1100 379.0000 1.0000
46.1200 433.0000 1.0000
46.1300 397.0000 1.0000
46.1400 410.0000 1.0000
46.1500 382.0000 1.0000
46.1600 405.0000 1.0000
46.1700 426.0000 1.0000
46.1800 383.0000 1.0000
46.1900 369.0000 1.0000
46.2000 421.0000 1.0000
46.2100 411.0000 1.0000
46.2200 398.0000 1.0000
46.2300 404.0000 1.0000
46.2400 369.0000 1.0000
46.2500 409.0000 1.0000
46.2600 389.0000 1.0000
46.2700 379.0000 1.0000
46.2800 384.0000 1.0000
46.2900 387.0000 1.0000
46.3000 381.0000 1.0000
46.3100 395.0000 1.0000
46.3200 368.0000 1.0000
46.3300 358.0000 1.0000
46.3400 371.0000 1.0000
46.3500 409.0000 1.0000
46.3600 430.0000 1.0000
46.3700 384.0000 1.0000
46.3800 374.0000 1.0000
46.3900 395.0000 1.0000
46.4000 420.0000 1.0000
46.4100 380.0000 1.0000
46.4200 401.0000 1.0000
46.4300 368.0000 1.0000
46.4400 381.0000 1.0000
46.4500 374.0000 1.0000
46.4600 393.0000 1.0000
46.4700 412.0000 1.0000
46.4800 356.0000 1.0000
46.4900 343.0000 1.0000
46.5000 395.0000 1.0000
46.5100 395.0000 1.0000
46.5200 387.0000 1.0000
46.5300 381.0000 1.0000
46.5400 379.0000 1.0000
46.5500 398.0000 1.0000
46.5600 399.0000 1.0000
46.5700 383.0000 1.0000
46.5800 392.0000 1.0000
46.5900 398.0000 1.0000
46.6000 348.0000 1.0000
46.6100 366.0000 1.0000
46.6200 389.0000 1.0000
46.6300 390.0000 1.0000
46.6400 367.0000 1.0000
46.6500 382.0000 1.0000
46.6600 362.0000 1.0000
46.6700 333.0000 1.0000
46.6800 354.0000 1.0000
46.6900 355.0000 1.0000
46.7000 353.0000 1.0000
46.7100 366.0000 1.0000
46.7200 373.0000 1.0000
46.7300 388.0000 1.0000
46.7400 363.0000 1.0000
46.7500 323.0000 1.0000
46.7600 357.0000 1.0000
46.7700 420.0000 1.0000
46.7800 386.0000 1.0000
46.7900 375.0000 1.0000
46.8000 370.0000 1.0000
46.8100 381.0000 1.0000
46.8200 416.0000 1.0000
46.8300 359.0000 1.0000
46.8400 322.0000 1.0000
46.8500 375.0000 1.0000
46.8600 363.0000 1.0000
46.8700 362.0000 1.0000
46.8800 362.0000 1.0000
46.8900 385.0000 1.0000
46.9000 384.0000 1.0000
46.9100 403.0000 1.0000
46.9200 388.0000 1.0000
46.9300 363.0000 1.0000
46.9400 400.0000 1.0000
46.9500 369.0000 1.0000
46.9600 341.0000 1.0000
46.9700 393.0000 1.0000
46.9800 370.0000 1.0000
46.9900 371.0000 1.0000
47.0000 380.0000 1.0000
47.0100 389.0000 1.0000
47.0200 374.0000 1.0000
47.0300 358.0000 1.0000
47.0400 367.0000 1.0000
47.0500 384.0000 1.0000
47.0600 378.0000 1.0000
47.0700 389.0000 1.0000
47.0800 375.0000 1.0000
47.0900 352.0000 1.0000
47.1000 378.0000 1.0000
47.1100 363.0000 1.0000
47.1200 372.0000 1.0000
47.1300 361.0000 1.0000
47.1400 381.0000 1.0000
47.1500 373.0000 1.0000
47.1600 369.0000 1.0000
47.1700 373.0000 1.0000
47.1800 409.0000 1.0000
47.1900 383.0000 1.0000
47.2000 358.0000 1.0000
47.2100 354.0000 1.0000
47.2200 361.0000 1.0000
47.2300 348.0000 1.0000
47.2400 387.0000 1.0000
47.2500 386.0000 1.0000
47.2600 381.0000 1.0000
47.2700 395.0000 1.0000
47.2800 382.0000 1.0000
47.2900 381.0000 1.0000
47.3000 387.0000 1.0000
47.3100 399.0000 1.0000
47.3200 359.0000 1.0000
47.3300 378.0000 1.0000
47.3400 367.0000 1.0000
47.3500 337.0000 1.0000
47.3600 350.0000 1.0000
47.3700 365.0000 1.0000
47.3800 349.0000 1.0000
47.3900 370.0000 1.0000
47.4000 349.0000 1.0000
47.4100 345.0000 1.0000
47.4200 332.0000 1.0000
47.4300 375.0000 1.0000
47.4400 379.0000 1.0000
47.4500 389.0000 1.0000
47.4600 392.0000 1.0000
47.4700 390.0000 1.0000
47.4800 411.0000 1.0000
47.4900 391.0000 1.0000
47.5000 396.0000 1.0000
47.5100 343.0000 1.0000
47.5200 350.0000 1.0000
47.5300 406.0000 1.0000
47.5400 387.0000 1.0000
47.5500 338.0000 1.0000
47.5600 411.0000 1.0000
47.5700 375.0000 1.0000
47.5800 385.0000 1.0000
47.5900 389.0000 1.0000
47.6000 377.0000 1.0000
47.6100 392.0000 1.0000
47.6200 373.0000 1.0000
47.6300 352.0000 1.0000
47.6400 379.0000 1.0000
47.6500 361.0000 1.0000
47.6600 371.0000 1.0000
47.6700 365.0000 1.0000
47.6800 380.0000 1.0000
47.6900 373.0000 1.0000
47.7000 366.0000 1.0000
47.7100 368.0000 1.0000
47.7200 357.0000 1.0000
47.7300 367.0000 1.0000
47.7400 359.0000 1.0000
47.7500 383.0000 1.0000
47.7600 376.0000 1.0000
47.7700 363.0000 1.0000
47.7800 363.0000 1.0000
47.7900 407.0000 1.0000
47.8000 361.0000 1.0000
47.8100 363.0000 1.0000
47.8200 341.0000 1.0000
47.8300 398.0000 1.0000
47.8400 360.0000 1.0000
47.8500 380.0000 1.0000
47.8600 341.0000 1.0000
47.8700 370.0000 1.0000
47.8800 345.0000 1.0000
47.8900 362.0000 1.0000
47.9000 358.0000 1.0000
47.9100 367.0000 1.0000
47.9200 365.0000 1.0000
47.9300 365.0000 1.0000
47.9400 360.0000 1.0000
47.9500 385.0000 1.0000
47.9600 369.0000 1.0000
47.9700 359.0000 1.0000
47.9800 365.0000 1.0000
47.9900 358.0000 1.0000
48.0000 368.0000 1.0000
48.0100 375.0000 1.0000
48.0200 374.0000 1.0000
48.0300 387.0000 1.0000
48.0400 383.0000 1.0000
48.0500 364.0000 1.0000
48.0600 334.0000 1.0000
48.0700 389.0000 1.0000
48.0800 377.0000 1.0000
48.0900 354.0000 1.0000
48.1000 359.0000 1.0000
48.1100 386.0000 1.0000
48.1200 353.0000 1.0000
48.1300 366.0000 1.0000
48.1400 376.0000 1.0000
48.1500 381.0000 1.0000
48.1600 380.0000 1.0000
48.1700 341.0000 1.0000
48.1800 385.0000 1.0000
48.1900 348.0000 1.0000
48.2000 378.0000 1.0000
48.2100 368.0000 1.0000
48.2200 357.0000 1.0000
48.2300 381.0000 1.0000
48.2400 367.0000 1.0000
48.2500 339.0000 1.0000
48.2600 358.0000 1.0000
48.2700 353.0000 1.0000
48.2800 359.0000 1.0000
48.2900 368.0000 1.0000
48.3000 350.0000 1.0000
48.3100 346.0000 1.0000
48.3200 367.0000 1.0000
48.3300 338.0000 1.0000
48.3400 361.0000 1.0000
48.3500 350.0000 1.0000
48.3600 349.0000 1.0000
48.3700 347.0000 1.0000
48.3800 385.0000 1.0000
48.3900 347.0000 1.0000
48.4000 369.0000 1.0000
48.4100 364.0000 1.0000
48.4200 361.0000 1.0000
48.4300 340.0000 1.0000
48.4400 374.0000 1.0000
48.4500 364.0000 1.0000
48.4600 341.0000 1.0000
48.4700 336.0000 1.0000
48.4800 348.0000 1.0000
48.4900 365.0000 1.0000
48.5000 357.0000 1.0000
48.5100 367.0000 1.0000
48.5200 370.0000 1.0000
48.5300 380.0000 1.0000
48.5400 392.0000 1.0000
48.5500 401.0000 1.0000
48.5600 373.0000 1.0000
48.5700 374.0000 1.0000
48.5800 360.0000 1.0000
48.5900 355.0000 1.0000
48.6000 345.0000 1.0000
48.6100 358.0000 1.0000
48.6200 353.0000 1.0000
48.6300 378.0000 1.0000
48.6400 376.0000 1.0000
48.6500 347.0000 1.0000
48.6600 350.0000 1.0000
48.6700 370.0000 1.0000
48.6800 339.0000 1.0000
48.6900 357.0000 1.0000
48.7000 364.0000 1.0000
48.7100 375.0000 1.0000
48.7200 351.0000 1.0000
48.7300 318.0000 1.0000
48.7400 342.0000 1.0000
48.7500 330.0000 1.0000
48.7600 383.0000 1.0000
48.7700 377.0000 1.0000
48.7800 385.0000 1.0000
48.7900 377.0000 1.0000
48.8000 348.0000 1.0000
48.8100 335.0000 1.0000
48.8200 356.0000 1.0000
48.8300 339.0000 1.0000
48.8400 385.0000 1.0000
48.8500 362.0000 1.0000
48.8600 378.0000 1.0000
48.8700 362.0000 1.0000
48.8800 351.0000 1.0000
48.8900 371.0000 1.0000
48.9000 331.0000 1.0000
48.9100 337.0000 1.0000
48.9200 379.0000 1.0000
48.9300 369.0000 1.0000
48.9400 375.0000 1.0000
48.9500 357.0000 1.0000
48.9600 361.0000 1.0000
48.9700 401.0000 1.0000
48.9800 353.0000 1.0000
48.9900 366.0000 1.0000
49.0000 336.0000 1.0000
49.0100 378.0000 1.0000
49.0200 355.0000 1.0000
49.0300 364.0000 1.0000
49.0400 386.0000 1.0000
49.0500 375.0000 1.0000
49.0600 374.0000 1.0000
49.0700 386.0000 1.0000
49.0800 383.0000 1.0000
49.0900 366.0000 1.0000
49.1000 350.0000 1.0000
49.1100 369.0000 1.0000
49.1200 380.0000 1.0000
49.1300 381.0000 1.0000
49.1400 367.0000 1.0000
49.1500 340.0000 1.0000
49.1600 363.0000 1.0000
49.1700 359.0000 1.0000
49.1800 361.0000 1.0000
49.1900 379.0000 1.0000
49.2000 357.0000 1.0000
49.2100 338.0000 1.0000
49.2200 370.0000 1.0000
49.2300 401.0000 1.0000
49.2400 373.0000 1.0000
49.2500 400.0000 1.0000
49.2600 394.0000 1.0000
49.2700 381.0000 1.0000
49.2800 368.0000 1.0000
49.2900 370.0000 1.0000
49.3000 406.0000 1.0000
49.3100 407.0000 1.0000
49.3200 406.0000 1.0000
49.3300 395.0000 1.0000
49.3400 422.0000 1.0000
49.3500 447.0000 1.0000
49.3600 413.0000 1.0000
49.3700 436.0000 1.0000
49.3800 429.0000 1.0000
49.3900 416.0000 1.0000
49.4000 417.0000 1.0000
49.4100 408.0000 1.0000
49.4200 401.0000 1.0000
49.4300 442.0000 1.0000
49.4400 424.0000 1.0000
49.4500 406.0000 1.0000
49.4600 409.0000 1.0000
49.4700 439.0000 1.0000
49.4800 423.0000 1.0000
49.4900 439.0000 1.0000
49.5000 431.0000 1.0000
49.5100 412.0000 1.0000
49.5200 411.0000 1.0000
49.5300 390.0000 1.0000
49.5400 388.0000 1.0000
49.5500 389.0000 1.0000
49.5600 393.0000 1.0000
49.5700 359.0000 1.0000
49.5800 371.0000 1.0000
49.5900 401.0000 1.0000
49.6000 385.0000 1.0000
49.6100 362.0000 1.0000
49.6200 362.0000 1.0000
49.6300 365.0000 1.0000
49.6400 403.0000 1.0000
49.6500 387.0000 1.0000
49.6600 376.0000 1.0000
49.6700 382.0000 1.0000
49.6800 384.0000 1.0000
49.6900 371.0000 1.0000
49.7000 354.0000 1.0000
49.7100 351.0000 1.0000
49.7200 344.0000 1.0000
49.7300 364.0000 1.0000
49.7400 365.0000 1.0000
49.7500 366.0000 1.0000
49.7600 362.0000 1.0000
49.7700 384.0000 1.0000
49.7800 358.0000 1.0000
49.7900 383.0000 1.0000
49.8000 389.0000 1.0000
49.8100 370.0000 1.0000
49.8200 388.0000 1.0000
49.8300 359.0000 1.0000
49.8400 394.0000 1.0000
49.8500 381.0000 1.0000
49.8600 392.0000 1.0000
49.8700 364.0000 1.0000
49.8800 395.0000 1.0000
49.8900 363.0000 1.0000
49.9000 385.0000 1.0000
49.9100 361.0000 1.0000
49.9200 358.0000 1.0000
49.9300 377.0000 1.0000
49.9400 354.0000 1.0000
49.9500 372.0000 1.0000
49.9600 365.0000 1.0000
49.9700 363.0000 1.0000
49.9800 387.0000 1.0000
49.9900 329.0000 1.0000
50.0000 362.0000 1.0000
50.0100 332.0000 1.0000
50.0200 359.0000 1.0000
50.0300 363.0000 1.0000
50.0400 372.0000 1.0000
50.0500 346.0000 1.0000
50.0600 350.0000 1.0000
50.0700 366.0000 1.0000
50.0800 350.0000 1.0000
50.0900 398.0000 1.0000
50.1000 369.0000 1.0000
50.1100 380.0000 1.0000
50.1200 340.0000 1.0000
50.1300 364.0000 1.0000
50.1400 355.0000 1.0000
50.1500 381.0000 1.0000
50.1600 387.0000 1.0000
50.1700 353.0000 1.0000
50.1800 349.0000 1.0000
50.1900 380.0000 1.0000
50.2000 355.0000 1.0000
50.2100 341.0000 1.0000
50.2200 378.0000 1.0000
50.2300 411.0000 1.0000
50.2400 392.0000 1.0000
50.2500 355.0000 1.0000
50.2600 348.0000 1.0000
50.2700 354.0000 1.0000
50.2800 386.0000 1.0000
50.2900 350.0000 1.0000
50.3000 345.0000 1.0000
50.3100 368.0000 1.0000
50.3200 390.0000 1.0000
50.3300 373.0000 1.0000
50.3400 336.0000 1.0000
50.3500 325.0000 1.0000
50.3600 339.0000 1.0000
50.3700 355.0000 1.0000
50.3800 382.0000 1.0000
50.3900 376.0000 1.0000
50.4000 350.0000 1.0000
50.4100 347.0000 1.0000
50.4200 356.0000 1.0000
50.4300 358.0000 1.0000
50.4400 326.0000 1.0000
50.4500 366.0000 1.0000
50.4600 364.0000 1.0000
50.4700 307.0000 1.0000
50.4800 354.0000 1.0000
50.4900 386.0000 1.0000
50.5000 372.0000 1.0000
50.5100 359.0000 1.0000
50.5200 387.0000 1.0000
50.5300 389.0000 1.0000
50.5400 387.0000 1.0000
50.5500 374.0000 1.0000
50.5600 363.0000 1.0000
50.5700 385.0000 1.0000
50.5800 381.0000 1.0000
50.5900 405.0000 1.0000
50.6000 390.0000 1.0000
50.6100 380.0000 1.0000
50.6200 310.0000 1.0000
50.6300 376.0000 1.0000
50.6400 402.0000 1.0000
50.6500 359.0000 1.0000
50.6600 347.0000 1.0000
50.6700 375.0000 1.0000
50.6800 345.0000 1.0000
50.6900 369.0000 1.0000
50.7000 359.0000 1.0000
50.7100 361.0000 1.0000
50.7200 357.0000 1.0000
50.7300 354.0000 1.0000
50.7400 353.0000 1.0000
50.7500 370.0000 1.0000
50.7600 416.0000 1.0000
50.7700 389.0000 1.0000
50.7800 381.0000 1.0000
50.7900 400.0000 1.0000
50.8000 374.0000 1.0000
50.8100 388.0000 1.0000
50.8200 365.0000 1.0000
50.8300 402.0000 1.0000
50.8400 394.0000 1.0000
50.8500 392.0000 1.0000
50.8600 381.0000 1.0000
50.8700 386.0000 1.0000
50.8800 353.0000 1.0000
50.8900 366.0000 1.0000
50.9000 393.0000 1.0000
50.9100 385.0000 1.0000
50.9200 397.0000 1.0000
50.9300 373.0000 1.0000
50.9400 356.0000 1.0000
50.9500 414.0000 1.0000
50.9600 393.0000 1.0000
50.9700 415.0000 1.0000
50.9800 384.0000 1.0000
50.9900 372.0000 1.0000
51.0000 387.0000 1.0000
51.0100 363.0000 1.0000
51.0200 388.0000 1.0000
51.0300 400.0000 1.0000
51.0400 384.0000 1.0000
51.0500 400.0000 1.0000
51.0600 392.0000 1.0000
51.0700 418.0000 1.0000
51.0800 413.0000 1.0000
51.0900 444.0000 1.0000
51.1000 442.0000 1.0000
51.1100 434.0000 1.0000
51.1200 427.0000 1.0000
51.1300 418.0000 1.0000
51.1400 468.0000 1.0000
51.1500 442.0000 1.0000
51.1600 460.0000 1.0000
51.1700 496.0000 1.0000
51.1800 500.0000 1.0000
51.1900 507.0000 1.0000
51.2000 497.0000 1.0000
51.2100 526.0000 1.0000
51.2200 553.0000 1.0000
51.2300 534.0000 1.0000
51.2400 597.0000 1.0000
51.2500 591.0000 1.0000
51.2600 626.0000 1.0000
51.2700 639.0000 1.0000
51.2800 656.0000 1.0000
51.2900 686.0000 1.0000
51.3000 753.0000 1.0000
51.3100 719.0000 1.0000
51.3200 835.0000 1.0000
51.3300 867.0000 1.0000
51.3400 934.0000 1.0000
51.3500 1037.0000 1.0000
51.3600 1124.0000 1.0000
51.3700 1180.0000 1.0000
51.3800 1251.0000 1.0000
51.3900 1408.0000 1.0000
51.4000 1411.0000 1.0000
51.4100 1533.0000 1.0000
51.4200 1660.0000 1.0000
51.4300 1713.0000 1.0000
51.4400 1787.0000 1.0000
51.4500 1842.0000 1.0000
51.4600 1921.0000 1.0000
51.4700 1991.0000 1.0000
51.4800 2051.0000 1.0000
51.4900 2024.0000 1.0000
51.5000 2086.0000 1.0000
51.5100 2030.0000 1.0000
51.5200 1953.0000 1.0000
51.5300 1967.0000 1.0000
51.5400 1915.0000 1.0000
51.5500 1862.0000 1.0000
51.5600 1719.0000 1.0000
51.5700 1655.0000 1.0000
51.5800 1606.0000 1.0000
51.5900 1587.0000 1.0000
51.6000 1541.0000 1.0000
51.6100 1477.0000 1.0000
51.6200 1437.0000 1.0000
51.6300 1395.0000 1.0000
51.6400 1419.0000 1.0000
51.6500 1305.0000 1.0000
51.6600 1281.0000 1.0000
51.6700 1123.0000 1.0000
51.6800 1022.0000 1.0000
51.6900 1011.0000 1.0000
51.7000 946.0000 1.0000
51.7100 905.0000 1.0000
51.7200 852.0000 1.0000
51.7300 795.0000 1.0000
51.7400 714.0000 1.0000
51.7500 700.0000 1.0000
51.7600 684.0000 1.0000
51.7700 641.0000 1.0000
51.7800 592.0000 1.0000
51.7900 625.0000 1.0000
51.8000 575.0000 1.0000
51.8100 565.0000 1.0000
51.8200 506.0000 1.0000
51.8300 523.0000 1.0000
51.8400 511.0000 1.0000
51.8500 488.0000 1.0000
51.8600 470.0000 1.0000
51.8700 491.0000 1.0000
51.8800 449.0000 1.0000
51.8900 469.0000 1.0000
51.9000 444.0000 1.0000
51.9100 421.0000 1.0000
51.9200 452.0000 1.0000
51.9300 447.0000 1.0000
51.9400 448.0000 1.0000
51.9500 424.0000 1.0000
51.9600 452.0000 1.0000
51.9700 437.0000 1.0000
51.9800 399.0000 1.0000
51.9900 394.0000 1.0000
52.0000 413.0000 1.0000
52.0100 417.0000 1.0000
52.0200 418.0000 1.0000
52.0300 385.0000 1.0000
52.0400 384.0000 1.0000
52.0500 362.0000 1.0000
52.0600 400.0000 1.0000
52.0700 371.0000 1.0000
52.0800 391.0000 1.0000
52.0900 393.0000 1.0000
52.1000 371.0000 1.0000
52.1100 366.0000 1.0000
52.1200 391.0000 1.0000
52.1300 369.0000 1.0000
52.1400 384.0000 1.0000
52.1500 371.0000 1.0000
52.1600 380.0000 1.0000
52.1700 379.0000 1.0000
52.1800 360.0000 1.0000
52.1900 361.0000 1.0000
52.2000 367.0000 1.0000
52.2100 384.0000 1.0000
52.2200 358.0000 1.0000
52.2300 376.0000 1.0000
52.2400 375.0000 1.0000
52.2500 389.0000 1.0000
52.2600 350.0000 1.0000
52.2700 379.0000 1.0000
52.2800 380.0000 1.0000
52.2900 383.0000 1.0000
52.3000 372.0000 1.0000
52.3100 359.0000 1.0000
52.3200 331.0000 1.0000
52.3300 362.0000 1.0000
52.3400 372.0000 1.0000
52.3500 379.0000 1.0000
52.3600 393.0000 1.0000
52.3700 375.0000 1.0000
52.3800 363.0000 1.0000
52.3900 352.0000 1.0000
52.4000 363.0000 1.0000
52.4100 335.0000 1.0000
52.4200 343.0000 1.0000
52.4300 369.0000 1.0000
52.4400 348.0000 1.0000
52.4500 356.0000 1.0000
52.4600 335.0000 1.0000
52.4700 329.0000 1.0000
52.4800 357.0000 1.0000
52.4900 343.0000 1.0000
52.5000 355.0000 1.0000
52.5100 359.0000 1.0000
52.5200 367.0000 1.0000
52.5300 348.0000 1.0000
52.5400 360.0000 1.0000
52.5500 343.0000 1.0000
52.5600 367.0000 1.0000
52.5700 358.0000 1.0000
52.5800 349.0000 1.0000
52.5900 351.0000 1.0000
52.6000 327.0000 1.0000
52.6100 337.0000 1.0000
52.6200 353.0000 1.0000
52.6300 340.0000 1.0000
52.6400 362.0000 1.0000
52.6500 322.0000 1.0000
52.6600 341.0000 1.0000
52.6700 335.0000 1.0000
52.6800 341.0000 1.0000
52.6900 334.0000 1.0000
52.7000 322.0000 1.0000
52.7100 344.0000 1.0000
52.7200 357.0000 1.0000
52.7300 347.0000 1.0000
52.7400 385.0000 1.0000
52.7500 361.0000 1.0000
52.7600 365.0000 1.0000
52.7700 354.0000 1.0000
52.7800 370.0000 1.0000
52.7900 359.0000 1.0000
52.8000 389.0000 1.0000
52.8100 359.0000 1.0000
52.8200 357.0000 1.0000
52.8300 371.0000 1.0000
52.8400 353.0000 1.0000
52.8500 363.0000 1.0000
52.8600 364.0000 1.0000
52.8700 331.0000 1.0000
52.8800 323.0000 1.0000
52.8900 323.0000 1.0000
52.9000 361.0000 1.0000
52.9100 337.0000 1.0000
52.9200 344.0000 1.0000
52.9300 371.0000 1.0000
52.9400 347.0000 1.0000
52.9500 327.0000 1.0000
52.9600 340.0000 1.0000
52.9700 356.0000 1.0000
52.9800 373.0000 1.0000
52.9900 341.0000 1.0000
53.0000 340.0000 1.0000
53.0100 355.0000 1.0000
53.0200 361.0000 1.0000
53.0300 334.0000 1.0000
53.0400 352.0000 1.0000
53.0500 324.0000 1.0000
53.0600 356.0000 1.0000
53.0700 358.0000 1.0000
53.0800 332.0000 1.0000
53.0900 316.0000 1.0000
53.1000 360.0000 1.0000
53.1100 368.0000 1.0000
53.1200 334.0000 1.0000
53.1300 341.0000 1.0000
53.1400 321.0000 1.0000
53.1500 346.0000 1.0000
53.1600 350.0000 1.0000
53.1700 339.0000 1.0000
53.1800 335.0000 1.0000
53.1900 339.0000 1.0000
53.2000 339.0000 1.0000
53.2100 332.0000 1.0000
53.2200 342.0000 1.0000
53.2300 351.0000 1.0000
53.2400 363.0000 1.0000
53.2500 327.0000 1.0000
53.2600 341.0000 1.0000
53.2700 382.0000 1.0000
53.2800 382.0000 1.0000
53.2900 346.0000 1.0000
53.3000 359.0000 1.0000
53.3100 334.0000 1.0000
53.3200 347.0000 1.0000
53.3300 341.0000 1.0000
53.3400 350.0000 1.0000
53.3500 350.0000 1.0000
53.3600 341.0000 1.0000
53.3700 345.0000 1.0000
53.3800 333.0000 1.0000
53.3900 335.0000 1.0000
53.4000 356.0000 1.0000
53.4100 311.0000 1.0000
53.4200 328.0000 1.0000
53.4300 339.0000 1.0000
53.4400 339.0000 1.0000
53.4500 361.0000 1.0000
53.4600 363.0000 1.0000
53.4700 372.0000 1.0000
53.4800 341.0000 1.0000
53.4900 363.0000 1.0000
53.5000 360.0000 1.0000
53.5100 360.0000 1.0000
53.5200 339.0000 1.0000
53.5300 339.0000 1.0000
53.5400 361.0000 1.0000
53.5500 337.0000 1.0000
53.5600 363.0000 1.0000
53.5700 378.0000 1.0000
53.5800 345.0000 1.0000
53.5900 336.0000 1.0000
53.6000 341.0000 1.0000
53.6100 343.0000 1.0000
53.6200 380.0000 1.0000
53.6300 346.0000 1.0000
53.6400 342.0000 1.0000
53.6500 340.0000 1.0000
53.6600 363.0000 1.0000
53.6700 378.0000 1.0000
53.6800 372.0000 1.0000
53.6900 337.0000 1.0000
53.7000 321.0000 1.0000
53.7100 361.0000 1.0000
53.7200 352.0000 1.0000
53.7300 356.0000 1.0000
53.7400 357.0000 1.0000
53.7500 315.0000 1.0000
53.7600 337.0000 1.0000
53.7700 341.0000 1.0000
53.7800 360.0000 1.0000
53.7900 358.0000 1.0000
53.8000 342.0000 1.0000
53.8100 372.0000 1.0000
53.8200 355.0000 1.0000
53.8300 365.0000 1.0000
53.8400 367.0000 1.0000
53.8500 359.0000 1.0000
53.8600 358.0000 1.0000
53.8700 367.0000 1.0000
53.8800 392.0000 1.0000
53.8900 379.0000 1.0000
53.9000 374.0000 1.0000
53.9100 367.0000 1.0000
53.9200 373.0000 1.0000
53.9300 382.0000 1.0000
53.9400 386.0000 1.0000
53.9500 384.0000 1.0000
53.9600 391.0000 1.0000
53.9700 380.0000 1.0000
53.9800 388.0000 1.0000
53.9900 412.0000 1.0000
54.0000 414.0000 1.0000
54.0100 400.0000 1.0000
54.0200 381.0000 1.0000
54.0300 418.0000 1.0000
54.0400 423.0000 1.0000
54.0500 405.0000 1.0000
54.0600 403.0000 1.0000
54.0700 380.0000 1.0000
54.0800 380.0000 1.0000
54.0900 393.0000 1.0000
54.1000 403.0000 1.0000
54.1100 394.0000 1.0000
54.1200 375.0000 1.0000
54.1300 368.0000 1.0000
54.1400 386.0000 1.0000
54.1500 378.0000 1.0000
54.1600 392.0000 1.0000
54.1700 361.0000 1.0000
54.1800 373.0000 1.0000
54.1900 390.0000 1.0000
54.2000 355.0000 1.0000
54.2100 365.0000 1.0000
54.2200 374.0000 1.0000
54.2300 374.0000 1.0000
54.2400 360.0000 1.0000
54.2500 389.0000 1.0000
54.2600 363.0000 1.0000
54.2700 370.0000 1.0000
54.2800 386.0000 1.0000
54.2900 384.0000 1.0000
54.3000 382.0000 1.0000
54.3100 428.0000 1.0000
54.3200 411.0000 1.0000
54.3300 393.0000 1.0000
54.3400 393.0000 1.0000
54.3500 387.0000 1.0000
54.3600 395.0000 1.0000
54.3700 407.0000 1.0000
54.3800 407.0000 1.0000
54.3900 435.0000 1.0000
54.4000 433.0000 1.0000
54.4100 460.0000 1.0000
54.4200 460.0000 1.0000
54.4300 453.0000 1.0000
54.4400 439.0000 1.0000
54.4500 421.0000 1.0000
54.4600 468.0000 1.0000
54.4700 483.0000 1.0000
54.4800 505.0000 1.0000
54.4900 507.0000 1.0000
54.5000 474.0000 1.0000
54.5100 470.0000 1.0000
54.5200 440.0000 1.0000
54.5300 482.0000 1.0000
54.5400 500.0000 1.0000
54.5500 505.0000 1.0000
54.5600 494.0000 1.0000
54.5700 441.0000 1.0000
54.5800 508.0000 1.0000
54.5900 469.0000 1.0000
54.6000 474.0000 1.0000
54.6100 492.0000 1.0000
54.6200 476.0000 1.0000
54.6300 450.0000 1.0000
54.6400 412.0000 1.0000
54.6500 434.0000 1.0000
54.6600 471.0000 1.0000
54.6700 442.0000 1.0000
54.6800 438.0000 1.0000
54.6900 418.0000 1.0000
54.7000 434.0000 1.0000
54.7100 405.0000 1.0000
54.7200 403.0000 1.0000
54.7300 429.0000 1.0000
54.7400 411.0000 1.0000
54.7500 423.0000 1.0000
54.7600 435.0000 1.0000
54.7700 393.0000 1.0000
54.7800 372.0000 1.0000
54.7900 381.0000 1.0000
54.8000 386.0000 1.0000
54.8100 379.0000 1.0000
54.8200 392.0000 1.0000
54.8300 373.0000 1.0000
54.8400 374.0000 1.0000
54.8500 369.0000 1.0000
54.8600 372.0000 1.0000
54.8700 369.0000 1.0000
54.8800 387.0000 1.0000
54.8900 365.0000 1.0000
54.9000 362.0000 1.0000
54.9100 359.0000 1.0000
54.9200 376.0000 1.0000
54.9300 346.0000 1.0000
54.9400 337.0000 1.0000
54.9500 341.0000 1.0000
54.9600 320.0000 1.0000
54.9700 358.0000 1.0000
54.9800 342.0000 1.0000
54.9900 335.0000 1.0000
55.0000 368.0000 1.0000
55.0100 345.0000 1.0000
55.0200 352.0000 1.0000
55.0300 348.0000 1.0000
55.0400 324.0000 1.0000
55.0500 337.0000 1.0000
55.0600 350.0000 1.0000
55.0700 368.0000 1.0000
55.0800 336.0000 1.0000
55.0900 328.0000 1.0000
55.1000 349.0000 1.0000
55.1100 354.0000 1.0000
55.1200 348.0000 1.0000
55.1300 337.0000 1.0000
55.1400 358.0000 1.0000
55.1500 347.0000 1.0000
55.1600 341.0000 1.0000
55.1700 331.0000 1.0000
55.1800 336.0000 1.0000
55.1900 357.0000 1.0000
55.2000 353.0000 1.0000
55.2100 344.0000 1.0000
55.2200 345.0000 1.0000
55.2300 328.0000 1.0000
55.2400 302.0000 1.0000
55.2500 312.0000 1.0000
55.2600 345.0000 1.0000
55.2700 345.0000 1.0000
55.2800 349.0000 1.0000
55.2900 364.0000 1.0000
55.3000 358.0000 1.0000
55.3100 347.0000 1.0000
55.3200 305.0000 1.0000
55.3300 352.0000 1.0000
55.3400 329.0000 1.0000
55.3500 328.0000 1.0000
55.3600 338.0000 1.0000
55.3700 349.0000 1.0000
55.3800 335.0000 1.0000
55.3900 330.0000 1.0000
55.4000 337.0000 1.0000
55.4100 331.0000 1.0000
55.4200 367.0000 1.0000
55.4300 322.0000 1.0000
55.4400 334.0000 1.0000
55.4500 324.0000 1.0000
55.4600 315.0000 1.0000
55.4700 337.0000 1.0000
55.4800 356.0000 1.0000
55.4900 343.0000 1.0000
55.5000 332.0000 1.0000
55.5100 349.0000 1.0000
55.5200 339.0000 1.0000
55.5300 336.0000 1.0000
55.5400 321.0000 1.0000
55.5500 334.0000 1.0000
55.5600 338.0000 1.0000
55.5700 353.0000 1.0000
55.5800 347.0000 1.0000
55.5900 351.0000 1.0000
55.6000 350.0000 1.0000
55.6100 335.0000 1.0000
55.6200 334.0000 1.0000
55.6300 315.0000 1.0000
55.6400 327.0000 1.0000
55.6500 330.0000 1.0000
55.6600 337.0000 1.0000
55.6700 349.0000 1.0000
55.6800 349.0000 1.0000
55.6900 346.0000 1.0000
55.7000 338.0000 1.0000
55.7100 325.0000 1.0000
55.7200 328.0000 1.0000
55.7300 341.0000 1.0000
55.7400 328.0000 1.0000
55.7500 329.0000 1.0000
55.7600 328.0000 1.0000
55.7700 337.0000 1.0000
55.7800 319.0000 1.0000
55.7900 349.0000 1.0000
55.8000 339.0000 1.0000
55.8100 333.0000 1.0000
55.8200 327.0000 1.0000
55.8300 342.0000 1.0000
55.8400 338.0000 1.0000
55.8500 338.0000 1.0000
55.8600 340.0000 1.0000
55.8700 319.0000 1.0000
55.8800 351.0000 1.0000
55.8900 337.0000 1.0000
55.9000 322.0000 1.0000
55.9100 326.0000 1.0000
55.9200 395.0000 1.0000
55.9300 350.0000 1.0000
55.9400 361.0000 1.0000
55.9500 343.0000 1.0000
55.9600 333.0000 1.0000
55.9700 339.0000 1.0000
55.9800 310.0000 1.0000
55.9900 318.0000 1.0000
56.0000 354.0000 1.0000
56.0100 315.0000 1.0000
56.0200 323.0000 1.0000
56.0300 321.0000 1.0000
56.0400 327.0000 1.0000
56.0500 319.0000 1.0000
56.0600 327.0000 1.0000
56.0700 342.0000 1.0000
56.0800 323.0000 1.0000
56.0900 327.0000 1.0000
56.1000 329.0000 1.0000
56.1100 332.0000 1.0000
56.1200 363.0000 1.0000
56.1300 327.0000 1.0000
56.1400 335.0000 1.0000
56.1500 339.0000 1.0000
56.1600 323.0000 1.0000
56.1700 337.0000 1.0000
56.1800 325.0000 1.0000
56.1900 315.0000 1.0000
56.2000 336.0000 1.0000
56.2100 335.0000 1.0000
56.2200 317.0000 1.0000
56.2300 311.0000 1.0000
56.2400 326.0000 1.0000
56.2500 321.0000 1.0000
56.2600 335.0000 1.0000
56.2700 327.0000 1.0000
56.2800 353.0000 1.0000
56.2900 322.0000 1.0000
56.3000 332.0000 1.0000
56.3100 314.0000 1.0000
56.3200 345.0000 1.0000
56.3300 336.0000 1.0000
56.3400 358.0000 1.0000
56.3500 328.0000 1.0000
56.3600 334.0000 1.0000
56.3700 355.0000 1.0000
56.3800 319.0000 1.0000
56.3900 320.0000 1.0000
56.4000 337.0000 1.0000
56.4100 360.0000 1.0000
56.4200 323.0000 1.0000
56.4300 351.0000 1.0000
56.4400 312.0000 1.0000
56.4500 316.0000 1.0000
56.4600 326.0000 1.0000
56.4700 342.0000 1.0000
56.4800 329.0000 1.0000
56.4900 332.0000 1.0000
56.5000 334.0000 1.0000
56.5100 345.0000 1.0000
56.5200 315.0000 1.0000
56.5300 374.0000 1.0000
56.5400 347.0000 1.0000
56.5500 339.0000 1.0000
56.5600 322.0000 1.0000
56.5700 320.0000 1.0000
56.5800 334.0000 1.0000
56.5900 350.0000 1.0000
56.6000 310.0000 1.0000
56.6100 341.0000 1.0000
56.6200 339.0000 1.0000
56.6300 290.0000 1.0000
56.6400 355.0000 1.0000
56.6500 356.0000 1.0000
56.6600 324.0000 1.0000
56.6700 331.0000 1.0000
56.6800 343.0000 1.0000
56.6900 313.0000 1.0000
56.7000 325.0000 1.0000
56.7100 348.0000 1.0000
56.7200 352.0000 1.0000
56.7300 321.0000 1.0000
56.7400 306.0000 1.0000
56.7500 363.0000 1.0000
56.7600 355.0000 1.0000
56.7700 332.0000 1.0000
56.7800 334.0000 1.0000
56.7900 317.0000 1.0000
56.8000 337.0000 1.0000
56.8100 336.0000 1.0000
56.8200 324.0000 1.0000
56.8300 310.0000 1.0000
56.8400 349.0000 1.0000
56.8500 362.0000 1.0000
56.8600 337.0000 1.0000
56.8700 313.0000 1.0000
56.8800 333.0000 1.0000
56.8900 308.0000 1.0000
56.9000 294.0000 1.0000
56.9100 336.0000 1.0000
56.9200 320.0000 1.0000
56.9300 326.0000 1.0000
56.9400 329.0000 1.0000
56.9500 305.0000 1.0000
56.9600 328.0000 1.0000
56.9700 344.0000 1.0000
56.9800 335.0000 1.0000
56.9900 306.0000 1.0000
57.0000 313.0000 1.0000
57.0100 303.0000 1.0000
57.0200 323.0000 1.0000
57.0300 323.0000 1.0000
57.0400 367.0000 1.0000
57.0500 342.0000 1.0000
57.0600 346.0000 1.0000
57.0700 339.0000 1.0000
57.0800 348.0000 1.0000
57.0900 346.0000 1.0000
57.1000 335.0000 1.0000
57.1100 318.0000 1.0000
57.1200 326.0000 1.0000
57.1300 336.0000 1.0000
57.1400 344.0000 1.0000
57.1500 331.0000 1.0000
57.1600 318.0000 1.0000
57.1700 343.0000 1.0000
57.1800 354.0000 1.0000
57.1900 327.0000 1.0000
57.2000 324.0000 1.0000
57.2100 326.0000 1.0000
57.2200 331.0000 1.0000
57.2300 325.0000 1.0000
57.2400 348.0000 1.0000
57.2500 346.0000 1.0000
57.2600 308.0000 1.0000
57.2700 326.0000 1.0000
57.2800 325.0000 1.0000
57.2900 318.0000 1.0000
57.3000 366.0000 1.0000
57.3100 372.0000 1.0000
57.3200 349.0000 1.0000
57.3300 351.0000 1.0000
57.3400 349.0000 1.0000
57.3500 322.0000 1.0000
57.3600 308.0000 1.0000
57.3700 316.0000 1.0000
57.3800 349.0000 1.0000
57.3900 352.0000 1.0000
57.4000 360.0000 1.0000
57.4100 358.0000 1.0000
57.4200 326.0000 1.0000
57.4300 361.0000 1.0000
57.4400 330.0000 1.0000
57.4500 343.0000 1.0000
57.4600 318.0000 1.0000
57.4700 353.0000 1.0000
57.4800 339.0000 1.0000
57.4900 377.0000 1.0000
57.5000 321.0000 1.0000
57.5100 339.0000 1.0000
57.5200 330.0000 1.0000
57.5300 343.0000 1.0000
57.5400 348.0000 1.0000
57.5500 315.0000 1.0000
57.5600 386.0000 1.0000
57.5700 331.0000 1.0000
57.5800 317.0000 1.0000
57.5900 338.0000 1.0000
57.6000 352.0000 1.0000
57.6100 340.0000 1.0000
57.6200 314.0000 1.0000
57.6300 328.0000 1.0000
57.6400 333.0000 1.0000
57.6500 330.0000 1.0000
57.6600 346.0000 1.0000
57.6700 322.0000 1.0000
57.6800 326.0000 1.0000
57.6900 314.0000 1.0000
57.7000 356.0000 1.0000
57.7100 323.0000 1.0000
57.7200 364.0000 1.0000
57.7300 339.0000 1.0000
57.7400 332.0000 1.0000
57.7500 341.0000 1.0000
57.7600 321.0000 1.0000
57.7700 306.0000 1.0000
57.7800 338.0000 1.0000
57.7900 334.0000 1.0000
57.8000 344.0000 1.0000
57.8100 333.0000 1.0000
57.8200 333.0000 1.0000
57.8300 334.0000 1.0000
57.8400 342.0000 1.0000
57.8500 314.0000 1.0000
57.8600 345.0000 1.0000
57.8700 350.0000 1.0000
57.8800 359.0000 1.0000
57.8900 362.0000 1.0000
57.9000 334.0000 1.0000
57.9100 319.0000 1.0000
57.9200 364.0000 1.0000
57.9300 360.0000 1.0000
57.9400 316.0000 1.0000
57.9500 326.0000 1.0000
57.9600 334.0000 1.0000
57.9700 330.0000 1.0000
57.9800 314.0000 1.0000
57.9900 323.0000 1.0000
58.0000 328.0000 1.0000
58.0100 348.0000 1.0000
58.0200 295.0000 1.0000
58.0300 334.0000 1.0000
58.0400 330.0000 1.0000
58.0500 320.0000 1.0000
58.0600 338.0000 1.0000
58.0700 331.0000 1.0000
58.0800 339.0000 1.0000
58.0900 337.0000 1.0000
58.1000 319.0000 1.0000
58.1100 328.0000 1.0000
58.1200 324.0000 1.0000
58.1300 325.0000 1.0000
58.1400 321.0000 1.0000
58.1500 341.0000 1.0000
58.1600 339.0000 1.0000
58.1700 290.0000 1.0000
58.1800 333.0000 1.0000
58.1900 317.0000 1.0000
58.2000 328.0000 1.0000
58.2100 335.0000 1.0000
58.2200 317.0000 1.0000
58.2300 333.0000 1.0000
58.2400 311.0000 1.0000
58.2500 334.0000 1.0000
58.2600 328.0000 1.0000
58.2700 331.0000 1.0000
58.2800 328.0000 1.0000
58.2900 358.0000 1.0000
58.3000 335.0000 1.0000
58.3100 327.0000 1.0000
58.3200 355.0000 1.0000
58.3300 341.0000 1.0000
58.3400 345.0000 1.0000
58.3500 338.0000 1.0000
58.3600 334.0000 1.0000
58.3700 311.0000 1.0000
58.3800 321.0000 1.0000
58.3900 342.0000 1.0000
58.4000 341.0000 1.0000
58.4100 319.0000 1.0000
58.4200 335.0000 1.0000
58.4300 339.0000 1.0000
58.4400 325.0000 1.0000
58.4500 328.0000 1.0000
58.4600 312.0000 1.0000
58.4700 336.0000 1.0000
58.4800 348.0000 1.0000
58.4900 337.0000 1.0000
58.5000 324.0000 1.0000
58.5100 330.0000 1.0000
58.5200 309.0000 1.0000
58.5300 343.0000 1.0000
58.5400 329.0000 1.0000
58.5500 326.0000 1.0000
58.5600 328.0000 1.0000
58.5700 343.0000 1.0000
58.5800 321.0000 1.0000
58.5900 311.0000 1.0000
58.6000 329.0000 1.0000
58.6100 349.0000 1.0000
58.6200 333.0000 1.0000
58.6300 332.0000 1.0000
58.6400 359.0000 1.0000
58.6500 340.0000 1.0000
58.6600 334.0000 1.0000
58.6700 347.0000 1.0000
58.6800 328.0000 1.0000
58.6900 317.0000 1.0000
58.7000 333.0000 1.0000
58.7100 334.0000 1.0000
58.7200 321.0000 1.0000
58.7300 320.0000 1.0000
58.7400 342.0000 1.0000
58.7500 313.0000 1.0000
58.7600 317.0000 1.0000
58.7700 319.0000 1.0000
58.7800 322.0000 1.0000
58.7900 321.0000 1.0000
58.8000 324.0000 1.0000
58.8100 321.0000 1.0000
58.8200 301.0000 1.0000
58.8300 313.0000 1.0000
58.8400 318.0000 1.0000
58.8500 346.0000 1.0000
58.8600 329.0000 1.0000
58.8700 342.0000 1.0000
58.8800 347.0000 1.0000
58.8900 325.0000 1.0000
58.9000 313.0000 1.0000
58.9100 316.0000 1.0000
58.9200 332.0000 1.0000
58.9300 306.0000 1.0000
58.9400 320.0000 1.0000
58.9500 331.0000 1.0000
58.9600 318.0000 1.0000
58.9700 336.0000 1.0000
58.9800 298.0000 1.0000
58.9900 298.0000 1.0000
59.0000 320.0000 1.0000
59.0100 304.0000 1.0000
59.0200 343.0000 1.0000
59.0300 334.0000 1.0000
59.0400 338.0000 1.0000
59.0500 332.0000 1.0000
59.0600 302.0000 1.0000
59.0700 353.0000 1.0000
59.0800 343.0000 1.0000
59.0900 329.0000 1.0000
59.1000 306.0000 1.0000
59.1100 290.0000 1.0000
59.1200 311.0000 1.0000
59.1300 321.0000 1.0000
59.1400 336.0000 1.0000
59.1500 328.0000 1.0000
59.1600 320.0000 1.0000
59.1700 342.0000 1.0000
59.1800 319.0000 1.0000
59.1900 327.0000 1.0000
59.2000 324.0000 1.0000
59.2100 333.0000 1.0000
59.2200 320.0000 1.0000
59.2300 333.0000 1.0000
59.2400 334.0000 1.0000
59.2500 302.0000 1.0000
59.2600 310.0000 1.0000
59.2700 331.0000 1.0000
59.2800 352.0000 1.0000
59.2900 348.0000 1.0000
59.3000 299.0000 1.0000
59.3100 335.0000 1.0000
59.3200 321.0000 1.0000
59.3300 327.0000 1.0000
59.3400 333.0000 1.0000
59.3500 325.0000 1.0000
59.3600 304.0000 1.0000
59.3700 325.0000 1.0000
59.3800 353.0000 1.0000
59.3900 311.0000 1.0000
59.4000 314.0000 1.0000
59.4100 320.0000 1.0000
59.4200 326.0000 1.0000
59.4300 324.0000 1.0000
59.4400 319.0000 1.0000
59.4500 313.0000 1.0000
59.4600 328.0000 1.0000
59.4700 327.0000 1.0000
59.4800 334.0000 1.0000
59.4900 318.0000 1.0000
59.5000 337.0000 1.0000
59.5100 338.0000 1.0000
59.5200 356.0000 1.0000
59.5300 314.0000 1.0000
59.5400 320.0000 1.0000
59.5500 344.0000 1.0000
59.5600 314.0000 1.0000
59.5700 307.0000 1.0000
59.5800 325.0000 1.0000
59.5900 317.0000 1.0000
59.6000 313.0000 1.0000
59.6100 316.0000 1.0000
59.6200 322.0000 1.0000
59.6300 353.0000 1.0000
59.6400 331.0000 1.0000
59.6500 316.0000 1.0000
59.6600 335.0000 1.0000
59.6700 303.0000 1.0000
59.6800 345.0000 1.0000
59.6900 358.0000 1.0000
59.7000 347.0000 1.0000
59.7100 347.0000 1.0000
59.7200 355.0000 1.0000
59.7300 333.0000 1.0000
59.7400 365.0000 1.0000
59.7500 325.0000 1.0000
59.7600 333.0000 1.0000
59.7700 328.0000 1.0000
59.7800 331.0000 1.0000
59.7900 324.0000 1.0000
59.8000 332.0000 1.0000
59.8100 330.0000 1.0000
59.8200 343.0000 1.0000
59.8300 347.0000 1.0000
59.8400 349.0000 1.0000
59.8500 316.0000 1.0000
59.8600 335.0000 1.0000
59.8700 305.0000 1.0000
59.8800 317.0000 1.0000
59.8900 344.0000 1.0000
59.9000 348.0000 1.0000
59.9100 317.0000 1.0000
59.9200 297.0000 1.0000
59.9300 321.0000 1.0000
59.9400 309.0000 1.0000
59.9500 320.0000 1.0000
59.9600 355.0000 1.0000
59.9700 327.0000 1.0000
59.9800 318.0000 1.0000
59.9900 336.0000 1.0000
60.0000 320.0000 1.0000
60.0100 332.0000 1.0000
60.0200 327.0000 1.0000
60.0300 341.0000 1.0000
60.0400 324.0000 1.0000
60.0500 347.0000 1.0000
60.0600 333.0000 1.0000
60.0700 321.0000 1.0000
60.0800 339.0000 1.0000
60.0900 317.0000 1.0000
60.1000 331.0000 1.0000
60.1100 342.0000 1.0000
60.1200 302.0000 1.0000
60.1300 313.0000 1.0000
60.1400 313.0000 1.0000
60.1500 350.0000 1.0000
60.1600 340.0000 1.0000
60.1700 324.0000 1.0000
60.1800 345.0000 1.0000
60.1900 334.0000 1.0000
60.2000 323.0000 1.0000
60.2100 346.0000 1.0000
60.2200 347.0000 1.0000
60.2300 349.0000 1.0000
60.2400 332.0000 1.0000
60.2500 309.0000 1.0000
60.2600 294.0000 1.0000
60.2700 317.0000 1.0000
60.2800 315.0000 1.0000
60.2900 319.0000 1.0000
60.3000 315.0000 1.0000
60.3100 326.0000 1.0000
60.3200 345.0000 1.0000
60.3300 292.0000 1.0000
60.3400 336.0000 1.0000
60.3500 319.0000 1.0000
60.3600 330.0000 1.0000
60.3700 301.0000 1.0000
60.3800 320.0000 1.0000
60.3900 338.0000 1.0000
60.4000 313.0000 1.0000
60.4100 320.0000 1.0000
60.4200 345.0000 1.0000
60.4300 340.0000 1.0000
60.4400 316.0000 1.0000
60.4500 315.0000 1.0000
60.4600 304.0000 1.0000
60.4700 330.0000 1.0000
60.4800 303.0000 1.0000
60.4900 307.0000 1.0000
60.5000 308.0000 1.0000
60.5100 338.0000 1.0000
60.5200 328.0000 1.0000
60.5300 309.0000 1.0000
60.5400 297.0000 1.0000
60.5500 349.0000 1.0000
60.5600 328.0000 1.0000
60.5700 320.0000 1.0000
60.5800 321.0000 1.0000
60.5900 346.0000 1.0000
60.6000 302.0000 1.0000
60.6100 305.0000 1.0000
60.6200 326.0000 1.0000
60.6300 326.0000 1.0000
60.6400 297.0000 1.0000
60.6500 303.0000 1.0000
60.6600 299.0000 1.0000
60.6700 319.0000 1.0000
60.6800 330.0000 1.0000
60.6900 320.0000 1.0000
60.7000 288.0000 1.0000
60.7100 323.0000 1.0000
60.7200 320.0000 1.0000
60.7300 317.0000 1.0000
60.7400 307.0000 1.0000
60.7500 341.0000 1.0000
60.7600 356.0000 1.0000
60.7700 350.0000 1.0000
60.7800 316.0000 1.0000
60.7900 350.0000 1.0000
60.8000 328.0000 1.0000
60.8100 306.0000 1.0000
60.8200 343.0000 1.0000
60.8300 323.0000 1.0000
60.8400 356.0000 1.0000
60.8500 340.0000 1.0000
60.8600 311.0000 1.0000
60.8700 320.0000 1.0000
60.8800 315.0000 1.0000
60.8900 330.0000 1.0000
60.9000 353.0000 1.0000
60.9100 334.0000 1.0000
60.9200 303.0000 1.0000
60.9300 353.0000 1.0000
60.9400 342.0000 1.0000
60.9500 319.0000 1.0000
60.9600 321.0000 1.0000
60.9700 324.0000 1.0000
60.9800 349.0000 1.0000
60.9900 358.0000 1.0000
61.0000 328.0000 1.0000
61.0100 347.0000 1.0000
61.0200 368.0000 1.0000
61.0300 339.0000 1.0000
61.0400 372.0000 1.0000
61.0500 350.0000 1.0000
61.0600 342.0000 1.0000
61.0700 351.0000 1.0000
61.0800 349.0000 1.0000
61.0900 369.0000 1.0000
61.1000 355.0000 1.0000
61.1100 345.0000 1.0000
61.1200 336.0000 1.0000
61.1300 374.0000 1.0000
61.1400 381.0000 1.0000
61.1500 350.0000 1.0000
61.1600 328.0000 1.0000
61.1700 414.0000 1.0000
61.1800 386.0000 1.0000
61.1900 343.0000 1.0000
61.2000 359.0000 1.0000
61.2100 385.0000 1.0000
61.2200 356.0000 1.0000
61.2300 389.0000 1.0000
61.2400 370.0000 1.0000
61.2500 373.0000 1.0000
61.2600 386.0000 1.0000
61.2700 398.0000 1.0000
61.2800 414.0000 1.0000
61.2900 404.0000 1.0000
61.3000 406.0000 1.0000
61.3100 418.0000 1.0000
61.3200 396.0000 1.0000
61.3300 429.0000 1.0000
61.3400 417.0000 1.0000
61.3500 447.0000 1.0000
61.3600 457.0000 1.0000
61.3700 445.0000 1.0000
61.3800 466.0000 1.0000
61.3900 482.0000 1.0000
61.4000 508.0000 1.0000
61.4100 544.0000 1.0000
61.4200 554.0000 1.0000
61.4300 487.0000 1.0000
61.4400 551.0000 1.0000
61.4500 549.0000 1.0000
61.4600 561.0000 1.0000
61.4700 568.0000 1.0000
61.4800 599.0000 1.0000
61.4900 611.0000 1.0000
61.5000 581.0000 1.0000
61.5100 605.0000 1.0000
61.5200 596.0000 1.0000
61.5300 595.0000 1.0000
61.5400 625.0000 1.0000
61.5500 633.0000 1.0000
61.5600 600.0000 1.0000
61.5700 598.0000 1.0000
61.5800 612.0000 1.0000
61.5900 566.0000 1.0000
61.6000 594.0000 1.0000
61.6100 624.0000 1.0000
61.6200 585.0000 1.0000
61.6300 584.0000 1.0000
61.6400 600.0000 1.0000
61.6500 598.0000 1.0000
61.6600 588.0000 1.0000
61.6700 552.0000 1.0000
61.6800 519.0000 1.0000
61.6900 534.0000 1.0000
61.7000 555.0000 1.0000
61.7100 550.0000 1.0000
61.7200 504.0000 1.0000
61.7300 516.0000 1.0000
61.7400 510.0000 1.0000
61.7500 471.0000 1.0000
61.7600 476.0000 1.0000
61.7700 525.0000 1.0000
61.7800 485.0000 1.0000
61.7900 454.0000 1.0000
61.8000 464.0000 1.0000
61.8100 464.0000 1.0000
61.8200 434.0000 1.0000
61.8300 416.0000 1.0000
61.8400 436.0000 1.0000
61.8500 449.0000 1.0000
61.8600 398.0000 1.0000
61.8700 414.0000 1.0000
61.8800 418.0000 1.0000
61.8900 439.0000 1.0000
61.9000 378.0000 1.0000
61.9100 385.0000 1.0000
61.9200 384.0000 1.0000
61.9300 357.0000 1.0000
61.9400 372.0000 1.0000
61.9500 371.0000 1.0000
61.9600 380.0000 1.0000
61.9700 383.0000 1.0000
61.9800 357.0000 1.0000
61.9900 411.0000 1.0000
62.0000 390.0000 1.0000
62.0100 362.0000 1.0000
62.0200 360.0000 1.0000
62.0300 380.0000 1.0000
62.0400 376.0000 1.0000
62.0500 384.0000 1.0000
62.0600 383.0000 1.0000
62.0700 369.0000 1.0000
62.0800 389.0000 1.0000
62.0900 372.0000 1.0000
62.1000 345.0000 1.0000
62.1100 367.0000 1.0000
62.1200 355.0000 1.0000
62.1300 372.0000 1.0000
62.1400 339.0000 1.0000
62.1500 341.0000 1.0000
62.1600 367.0000 1.0000
62.1700 347.0000 1.0000
62.1800 364.0000 1.0000
62.1900 396.0000 1.0000
62.2000 364.0000 1.0000
62.2100 358.0000 1.0000
62.2200 357.0000 1.0000
62.2300 324.0000 1.0000
62.2400 357.0000 1.0000
62.2500 332.0000 1.0000
62.2600 342.0000 1.0000
62.2700 346.0000 1.0000
62.2800 386.0000 1.0000
62.2900 363.0000 1.0000
62.3000 364.0000 1.0000
62.3100 369.0000 1.0000
62.3200 383.0000 1.0000
62.3300 384.0000 1.0000
62.3400 387.0000 1.0000
62.3500 351.0000 1.0000
62.3600 374.0000 1.0000
62.3700 360.0000 1.0000
62.3800 430.0000 1.0000
62.3900 366.0000 1.0000
62.4000 407.0000 1.0000
62.4100 387.0000 1.0000
62.4200 369.0000 1.0000
62.4300 357.0000 1.0000
62.4400 375.0000 1.0000
62.4500 364.0000 1.0000
62.4600 352.0000 1.0000
62.4700 350.0000 1.0000
62.4800 341.0000 1.0000
62.4900 370.0000 1.0000
62.5000 369.0000 1.0000
62.5100 344.0000 1.0000
62.5200 356.0000 1.0000
62.5300 389.0000 1.0000
62.5400 346.0000 1.0000
62.5500 363.0000 1.0000
62.5600 360.0000 1.0000
62.5700 347.0000 1.0000
62.5800 332.0000 1.0000
62.5900 341.0000 1.0000
62.6000 328.0000 1.0000
62.6100 345.0000 1.0000
62.6200 318.0000 1.0000
62.6300 304.0000 1.0000
62.6400 340.0000 1.0000
62.6500 295.0000 1.0000
62.6600 342.0000 1.0000
62.6700 313.0000 1.0000
62.6800 346.0000 1.0000
62.6900 360.0000 1.0000
62.7000 310.0000 1.0000
62.7100 310.0000 1.0000
62.7200 292.0000 1.0000
62.7300 305.0000 1.0000
62.7400 315.0000 1.0000
62.7500 316.0000 1.0000
62.7600 313.0000 1.0000
62.7700 339.0000 1.0000
62.7800 311.0000 1.0000
62.7900 335.0000 1.0000
62.8000 322.0000 1.0000
62.8100 316.0000 1.0000
62.8200 309.0000 1.0000
62.8300 331.0000 1.0000
62.8400 317.0000 1.0000
62.8500 309.0000 1.0000
62.8600 320.0000 1.0000
62.8700 333.0000 1.0000
62.8800 323.0000 1.0000
62.8900 341.0000 1.0000
62.9000 311.0000 1.0000
62.9100 332.0000 1.0000
62.9200 317.0000 1.0000
62.9300 313.0000 1.0000
62.9400 327.0000 1.0000
62.9500 314.0000 1.0000
62.9600 314.0000 1.0000
62.9700 318.0000 1.0000
62.9800 343.0000 1.0000
62.9900 344.0000 1.0000
63.0000 310.0000 1.0000
63.0100 319.0000 1.0000
63.0200 314.0000 1.0000
63.0300 302.0000 1.0000
63.0400 315.0000 1.0000
63.0500 335.0000 1.0000
63.0600 329.0000 1.0000
63.0700 323.0000 1.0000
63.0800 349.0000 1.0000
63.0900 349.0000 1.0000
63.1000 307.0000 1.0000
63.1100 272.0000 1.0000
63.1200 312.0000 1.0000
63.1300 319.0000 1.0000
63.1400 321.0000 1.0000
63.1500 364.0000 1.0000
63.1600 346.0000 1.0000
63.1700 308.0000 1.0000
63.1800 305.0000 1.0000
63.1900 316.0000 1.0000
63.2000 295.0000 1.0000
63.2100 314.0000 1.0000
63.2200 323.0000 1.0000
63.2300 334.0000 1.0000
63.2400 324.0000 1.0000
63.2500 286.0000 1.0000
63.2600 335.0000 1.0000
63.2700 330.0000 1.0000
63.2800 346.0000 1.0000
63.2900 319.0000 1.0000
63.3000 319.0000 1.0000
63.3100 328.0000 1.0000
63.3200 324.0000 1.0000
63.3300 335.0000 1.0000
63.3400 338.0000 1.0000
63.3500 298.0000 1.0000
63.3600 312.0000 1.0000
63.3700 320.0000 1.0000
63.3800 348.0000 1.0000
63.3900 287.0000 1.0000
63.4000 310.0000 1.0000
63.4100 320.0000 1.0000
63.4200 288.0000 1.0000
63.4300 330.0000 1.0000
63.4400 332.0000 1.0000
63.4500 324.0000 1.0000
63.4600 327.0000 1.0000
63.4700 324.0000 1.0000
63.4800 318.0000 1.0000
63.4900 340.0000 1.0000
63.5000 318.0000 1.0000
63.5100 291.0000 1.0000
63.5200 308.0000 1.0000
63.5300 302.0000 1.0000
63.5400 342.0000 1.0000
63.5500 341.0000 1.0000
63.5600 322.0000 1.0000
63.5700 312.0000 1.0000
63.5800 324.0000 1.0000
63.5900 333.0000 1.0000
63.6000 355.0000 1.0000
63.6100 318.0000 1.0000
63.6200 330.0000 1.0000
63.6300 338.0000 1.0000
63.6400 340.0000 1.0000
63.6500 359.0000 1.0000
63.6600 347.0000 1.0000
63.6700 340.0000 1.0000
63.6800 357.0000 1.0000
63.6900 373.0000 1.0000
63.7000 327.0000 1.0000
63.7100 349.0000 1.0000
63.7200 349.0000 1.0000
63.7300 371.0000 1.0000
63.7400 377.0000 1.0000
63.7500 393.0000 1.0000
63.7600 361.0000 1.0000
63.7700 381.0000 1.0000
63.7800 387.0000 1.0000
63.7900 384.0000 1.0000
63.8000 411.0000 1.0000
63.8100 435.0000 1.0000
63.8200 423.0000 1.0000
63.8300 445.0000 1.0000
63.8400 469.0000 1.0000
63.8500 444.0000 1.0000
63.8600 498.0000 1.0000
63.8700 499.0000 1.0000
63.8800 521.0000 1.0000
63.8900 545.0000 1.0000
63.9000 547.0000 1.0000
63.9100 620.0000 1.0000
63.9200 608.0000 1.0000
63.9300 616.0000 1.0000
63.9400 602.0000 1.0000
63.9500 585.0000 1.0000
63.9600 616.0000 1.0000
63.9700 605.0000 1.0000
63.9800 580.0000 1.0000
63.9900 548.0000 1.0000
64.0000 548.0000 1.0000
64.0100 501.0000 1.0000
64.0200 552.0000 1.0000
64.0300 511.0000 1.0000
64.0400 512.0000 1.0000
64.0500 486.0000 1.0000
64.0600 474.0000 1.0000
64.0700 488.0000 1.0000
64.0800 504.0000 1.0000
64.0900 508.0000 1.0000
64.1000 513.0000 1.0000
64.1100 502.0000 1.0000
64.1200 505.0000 1.0000
64.1300 474.0000 1.0000
64.1400 461.0000 1.0000
64.1500 468.0000 1.0000
64.1600 460.0000 1.0000
64.1700 436.0000 1.0000
64.1800 424.0000 1.0000
64.1900 411.0000 1.0000
64.2000 384.0000 1.0000
64.2100 430.0000 1.0000
64.2200 385.0000 1.0000
64.2300 409.0000 1.0000
64.2400 355.0000 1.0000
64.2500 377.0000 1.0000
64.2600 403.0000 1.0000
64.2700 368.0000 1.0000
64.2800 392.0000 1.0000
64.2900 376.0000 1.0000
64.3000 383.0000 1.0000
64.3100 357.0000 1.0000
64.3200 367.0000 1.0000
64.3300 335.0000 1.0000
64.3400 329.0000 1.0000
64.3500 347.0000 1.0000
64.3600 342.0000 1.0000
64.3700 340.0000 1.0000
64.3800 323.0000 1.0000
64.3900 353.0000 1.0000
64.4000 346.0000 1.0000
64.4100 326.0000 1.0000
64.4200 339.0000 1.0000
64.4300 349.0000 1.0000
64.4400 337.0000 1.0000
64.4500 332.0000 1.0000
64.4600 332.0000 1.0000
64.4700 327.0000 1.0000
64.4800 348.0000 1.0000
64.4900 358.0000 1.0000
64.5000 330.0000 1.0000
64.5100 354.0000 1.0000
64.5200 343.0000 1.0000
64.5300 330.0000 1.0000
64.5400 327.0000 1.0000
64.5500 328.0000 1.0000
64.5600 332.0000 1.0000
64.5700 345.0000 1.0000
64.5800 364.0000 1.0000
64.5900 338.0000 1.0000
64.6000 381.0000 1.0000
64.6100 342.0000 1.0000
64.6200 301.0000 1.0000
64.6300 331.0000 1.0000
64.6400 327.0000 1.0000
64.6500 323.0000 1.0000
64.6600 333.0000 1.0000
64.6700 372.0000 1.0000
64.6800 331.0000 1.0000
64.6900 356.0000 1.0000
64.7000 321.0000 1.0000
64.7100 337.0000 1.0000
64.7200 344.0000 1.0000
64.7300 333.0000 1.0000
64.7400 357.0000 1.0000
64.7500 295.0000 1.0000
64.7600 320.0000 1.0000
64.7700 349.0000 1.0000
64.7800 325.0000 1.0000
64.7900 320.0000 1.0000
64.8000 283.0000 1.0000
64.8100 313.0000 1.0000
64.8200 333.0000 1.0000
64.8300 332.0000 1.0000
64.8400 338.0000 1.0000
64.8500 320.0000 1.0000
64.8600 341.0000 1.0000
64.8700 327.0000 1.0000
64.8800 336.0000 1.0000
64.8900 363.0000 1.0000
64.9000 337.0000 1.0000
64.9100 357.0000 1.0000
64.9200 338.0000 1.0000
64.9300 355.0000 1.0000
64.9400 347.0000 1.0000
64.9500 342.0000 1.0000
64.9600 337.0000 1.0000
64.9700 332.0000 1.0000
64.9800 335.0000 1.0000
64.9900 320.0000 1.0000
65.0000 355.0000 1.0000
65.0100 363.0000 1.0000
65.0200 349.0000 1.0000
65.0300 358.0000 1.0000
65.0400 385.0000 1.0000
65.0500 351.0000 1.0000
65.0600 344.0000 1.0000
65.0700 373.0000 1.0000
65.0800 366.0000 1.0000
65.0900 336.0000 1.0000
65.1000 371.0000 1.0000
65.1100 347.0000 1.0000
65.1200 370.0000 1.0000
65.1300 337.0000 1.0000
65.1400 341.0000 1.0000
65.1500 375.0000 1.0000
65.1600 340.0000 1.0000
65.1700 385.0000 1.0000
65.1800 382.0000 1.0000
65.1900 387.0000 1.0000
65.2000 371.0000 1.0000
65.2100 398.0000 1.0000
65.2200 412.0000 1.0000
65.2300 428.0000 1.0000
65.2400 437.0000 1.0000
65.2500 410.0000 1.0000
65.2600 432.0000 1.0000
65.2700 446.0000 1.0000
65.2800 474.0000 1.0000
65.2900 519.0000 1.0000
65.3000 511.0000 1.0000
65.3100 530.0000 1.0000
65.3200 497.0000 1.0000
65.3300 522.0000 1.0000
65.3400 549.0000 1.0000
65.3500 519.0000 1.0000
65.3600 573.0000 1.0000
65.3700 594.0000 1.0000
65.3800 600.0000 1.0000
65.3900 653.0000 1.0000
65.4000 709.0000 1.0000
65.4100 668.0000 1.0000
65.4200 716.0000 1.0000
65.4300 799.0000 1.0000
65.4400 790.0000 1.0000
65.4500 804.0000 1.0000
65.4600 842.0000 1.0000
65.4700 912.0000 1.0000
65.4800 872.0000 1.0000
65.4900 920.0000 1.0000
65.5000 980.0000 1.0000
65.5100 956.0000 1.0000
65.5200 1025.0000 1.0000
65.5300 995.0000 1.0000
65.5400 1006.0000 1.0000
65.5500 1050.0000 1.0000
65.5600 1015.0000 1.0000
65.5700 989.0000 1.0000
65.5800 930.0000 1.0000
65.5900 948.0000 1.0000
65.6000 985.0000 1.0000
65.6100 985.0000 1.0000
65.6200 953.0000 1.0000
65.6300 919.0000 1.0000
65.6400 956.0000 1.0000
65.6500 923.0000 1.0000
65.6600 888.0000 1.0000
65.6700 831.0000 1.0000
65.6800 831.0000 1.0000
65.6900 849.0000 1.0000
65.7000 828.0000 1.0000
65.7100 829.0000 1.0000
65.7200 806.0000 1.0000
65.7300 796.0000 1.0000
65.7400 746.0000 1.0000
65.7500 730.0000 1.0000
65.7600 731.0000 1.0000
65.7700 694.0000 1.0000
65.7800 663.0000 1.0000
65.7900 662.0000 1.0000
65.8000 671.0000 1.0000
65.8100 581.0000 1.0000
65.8200 605.0000 1.0000
65.8300 574.0000 1.0000
65.8400 564.0000 1.0000
65.8500 504.0000 1.0000
65.8600 507.0000 1.0000
65.8700 488.0000 1.0000
65.8800 494.0000 1.0000
65.8900 460.0000 1.0000
65.9000 452.0000 1.0000
65.9100 429.0000 1.0000
65.9200 468.0000 1.0000
65.9300 436.0000 1.0000
65.9400 413.0000 1.0000
65.9500 412.0000 1.0000
65.9600 439.0000 1.0000
65.9700 423.0000 1.0000
65.9800 425.0000 1.0000
65.9900 385.0000 1.0000
66.0000 383.0000 1.0000
66.0100 373.0000 1.0000
66.0200 368.0000 1.0000
66.0300 389.0000 1.0000
66.0400 362.0000 1.0000
66.0500 363.0000 1.0000
66.0600 356.0000 1.0000
66.0700 334.0000 1.0000
66.0800 329.0000 1.0000
66.0900 321.0000 1.0000
66.1000 342.0000 1.0000
66.1100 353.0000 1.0000
66.1200 360.0000 1.0000
66.1300 374.0000 1.0000
66.1400 358.0000 1.0000
66.1500 318.0000 1.0000
66.1600 343.0000 1.0000
66.1700 346.0000 1.0000
66.1800 355.0000 1.0000
66.1900 318.0000 1.0000
66.2000 308.0000 1.0000
66.2100 320.0000 1.0000
66.2200 344.0000 1.0000
66.2300 322.0000 1.0000
66.2400 322.0000 1.0000
66.2500 300.0000 1.0000
66.2600 332.0000 1.0000
66.2700 328.0000 1.0000
66.2800 347.0000 1.0000
66.2900 350.0000 1.0000
66.3000 319.0000 1.0000
66.3100 348.0000 1.0000
66.3200 348.0000 1.0000
66.3300 293.0000 1.0000
66.3400 298.0000 1.0000
66.3500 312.0000 1.0000
66.3600 298.0000 1.0000
66.3700 321.0000 1.0000
66.3800 322.0000 1.0000
66.3900 332.0000 1.0000
66.4000 275.0000 1.0000
66.4100 322.0000 1.0000
66.4200 323.0000 1.0000
66.4300 326.0000 1.0000
66.4400 311.0000 1.0000
66.4500 338.0000 1.0000
66.4600 321.0000 1.0000
66.4700 330.0000 1.0000
66.4800 310.0000 1.0000
66.4900 308.0000 1.0000
66.5000 299.0000 1.0000
66.5100 306.0000 1.0000
66.5200 321.0000 1.0000
66.5300 308.0000 1.0000
66.5400 303.0000 1.0000
66.5500 301.0000 1.0000
66.5600 304.0000 1.0000
66.5700 301.0000 1.0000
66.5800 307.0000 1.0000
66.5900 310.0000 1.0000
66.6000 273.0000 1.0000
66.6100 317.0000 1.0000
66.6200 288.0000 1.0000
66.6300 302.0000 1.0000
66.6400 304.0000 1.0000
66.6500 309.0000 1.0000
66.6600 297.0000 1.0000
66.6700 302.0000 1.0000
66.6800 325.0000 1.0000
66.6900 321.0000 1.0000
66.7000 308.0000 1.0000
66.7100 303.0000 1.0000
66.7200 292.0000 1.0000
66.7300 294.0000 1.0000
66.7400 318.0000 1.0000
66.7500 317.0000 1.0000
66.7600 293.0000 1.0000
66.7700 293.0000 1.0000
66.7800 307.0000 1.0000
66.7900 305.0000 1.0000
66.8000 284.0000 1.0000
66.8100 292.0000 1.0000
66.8200 323.0000 1.0000
66.8300 315.0000 1.0000
66.8400 296.0000 1.0000
66.8500 293.0000 1.0000
66.8600 304.0000 1.0000
66.8700 296.0000 1.0000
66.8800 338.0000 1.0000
66.8900 333.0000 1.0000
66.9000 280.0000 1.0000
66.9100 304.0000 1.0000
66.9200 315.0000 1.0000
66.9300 286.0000 1.0000
66.9400 275.0000 1.0000
66.9500 290.0000 1.0000
66.9600 332.0000 1.0000
66.9700 299.0000 1.0000
66.9800 307.0000 1.0000
66.9900 296.0000 1.0000
67.0000 245.0000 1.0000
67.0100 281.0000 1.0000
67.0200 292.0000 1.0000
67.0300 288.0000 1.0000
67.0400 308.0000 1.0000
67.0500 295.0000 1.0000
67.0600 304.0000 1.0000
67.0700 294.0000 1.0000
67.0800 302.0000 1.0000
67.0900 298.0000 1.0000
67.1000 325.0000 1.0000
67.1100 307.0000 1.0000
67.1200 302.0000 1.0000
67.1300 328.0000 1.0000
67.1400 325.0000 1.0000
67.1500 309.0000 1.0000
67.1600 308.0000 1.0000
67.1700 314.0000 1.0000
67.1800 320.0000 1.0000
67.1900 319.0000 1.0000
67.2000 304.0000 1.0000
67.2100 302.0000 1.0000
67.2200 286.0000 1.0000
67.2300 307.0000 1.0000
67.2400 298.0000 1.0000
67.2500 282.0000 1.0000
67.2600 280.0000 1.0000
67.2700 313.0000 1.0000
67.2800 324.0000 1.0000
67.2900 297.0000 1.0000
67.3000 296.0000 1.0000
67.3100 307.0000 1.0000
67.3200 311.0000 1.0000
67.3300 333.0000 1.0000
67.3400 290.0000 1.0000
67.3500 296.0000 1.0000
67.3600 265.0000 1.0000
67.3700 295.0000 1.0000
67.3800 309.0000 1.0000
67.3900 269.0000 1.0000
67.4000 294.0000 1.0000
67.4100 287.0000 1.0000
67.4200 299.0000 1.0000
67.4300 315.0000 1.0000
67.4400 274.0000 1.0000
67.4500 280.0000 1.0000
67.4600 294.0000 1.0000
67.4700 324.0000 1.0000
67.4800 329.0000 1.0000
67.4900 308.0000 1.0000
67.5000 303.0000 1.0000
67.5100 279.0000 1.0000
67.5200 281.0000 1.0000
67.5300 275.0000 1.0000
67.5400 264.0000 1.0000
67.5500 296.0000 1.0000
67.5600 301.0000 1.0000
67.5700 277.0000 1.0000
67.5800 301.0000 1.0000
67.5900 296.0000 1.0000
67.6000 299.0000 1.0000
67.6100 289.0000 1.0000
67.6200 288.0000 1.0000
67.6300 307.0000 1.0000
67.6400 286.0000 1.0000
67.6500 273.0000 1.0000
67.6600 297.0000 1.0000
67.6700 281.0000 1.0000
67.6800 293.0000 1.0000
67.6900 322.0000 1.0000
67.7000 305.0000 1.0000
67.7100 300.0000 1.0000
67.7200 282.0000 1.0000
67.7300 273.0000 1.0000
67.7400 293.0000 1.0000
67.7500 301.0000 1.0000
67.7600 304.0000 1.0000
67.7700 277.0000 1.0000
67.7800 286.0000 1.0000
67.7900 305.0000 1.0000
67.8000 285.0000 1.0000
67.8100 319.0000 1.0000
67.8200 270.0000 1.0000
67.8300 271.0000 1.0000
67.8400 293.0000 1.0000
67.8500 292.0000 1.0000
67.8600 269.0000 1.0000
67.8700 284.0000 1.0000
67.8800 300.0000 1.0000
67.8900 291.0000 1.0000
67.9000 290.0000 1.0000
67.9100 282.0000 1.0000
67.9200 291.0000 1.0000
67.9300 292.0000 1.0000
67.9400 284.0000 1.0000
67.9500 293.0000 1.0000
67.9600 306.0000 1.0000
67.9700 315.0000 1.0000
67.9800 268.0000 1.0000
67.9900 297.0000 1.0000
68.0000 319.0000 1.0000
68.0100 328.0000 1.0000
68.0200 290.0000 1.0000
68.0300 279.0000 1.0000
68.0400 297.0000 1.0000
68.0500 275.0000 1.0000
68.0600 261.0000 1.0000
68.0700 298.0000 1.0000
68.0800 320.0000 1.0000
68.0900 295.0000 1.0000
68.1000 282.0000 1.0000
68.1100 290.0000 1.0000
68.1200 274.0000 1.0000
68.1300 295.0000 1.0000
68.1400 301.0000 1.0000
68.1500 285.0000 1.0000
68.1600 289.0000 1.0000
68.1700 288.0000 1.0000
68.1800 274.0000 1.0000
68.1900 301.0000 1.0000
68.2000 281.0000 1.0000
68.2100 269.0000 1.0000
68.2200 281.0000 1.0000
68.2300 281.0000 1.0000
68.2400 300.0000 1.0000
68.2500 303.0000 1.0000
68.2600 289.0000 1.0000
68.2700 280.0000 1.0000
68.2800 275.0000 1.0000
68.2900 309.0000 1.0000
68.3000 303.0000 1.0000
68.3100 292.0000 1.0000
68.3200 286.0000 1.0000
68.3300 293.0000 1.0000
68.3400 323.0000 1.0000
68.3500 273.0000 1.0000
68.3600 285.0000 1.0000
68.3700 276.0000 1.0000
68.3800 271.0000 1.0000
68.3900 268.0000 1.0000
68.4000 308.0000 1.0000
68.4100 264.0000 1.0000
68.4200 308.0000 1.0000
68.4300 299.0000 1.0000
68.4400 263.0000 1.0000
68.4500 289.0000 1.0000
68.4600 279.0000 1.0000
68.4700 279.0000 1.0000
68.4800 282.0000 1.0000
68.4900 316.0000 1.0000
68.5000 284.0000 1.0000
68.5100 274.0000 1.0000
68.5200 311.0000 1.0000
68.5300 283.0000 1.0000
68.5400 314.0000 1.0000
68.5500 268.0000 1.0000
68.5600 275.0000 1.0000
68.5700 276.0000 1.0000
68.5800 299.0000 1.0000
68.5900 300.0000 1.0000
68.6000 300.0000 1.0000
68.6100 281.0000 1.0000
68.6200 279.0000 1.0000
68.6300 294.0000 1.0000
68.6400 302.0000 1.0000
68.6500 307.0000 1.0000
68.6600 290.0000 1.0000
68.6700 285.0000 1.0000
68.6800 303.0000 1.0000
68.6900 292.0000 1.0000
68.7000 289.0000 1.0000
68.7100 310.0000 1.0000
68.7200 290.0000 1.0000
68.7300 296.0000 1.0000
68.7400 304.0000 1.0000
68.7500 300.0000 1.0000
68.7600 288.0000 1.0000
68.7700 304.0000 1.0000
68.7800 315.0000 1.0000
68.7900 316.0000 1.0000
68.8000 281.0000 1.0000
68.8100 272.0000 1.0000
68.8200 286.0000 1.0000
68.8300 292.0000 1.0000
68.8400 275.0000 1.0000
68.8500 272.0000 1.0000
68.8600 288.0000 1.0000
68.8700 281.0000 1.0000
68.8800 280.0000 1.0000
68.8900 259.0000 1.0000
68.9000 283.0000 1.0000
68.9100 303.0000 1.0000
68.9200 264.0000 1.0000
68.9300 273.0000 1.0000
68.9400 278.0000 1.0000
68.9500 291.0000 1.0000
68.9600 278.0000 1.0000
68.9700 295.0000 1.0000
68.9800 273.0000 1.0000
68.9900 284.0000 1.0000
69.0000 298.0000 1.0000
69.0100 291.0000 1.0000
69.0200 302.0000 1.0000
69.0300 289.0000 1.0000
69.0400 310.0000 1.0000
69.0500 287.0000 1.0000
69.0600 297.0000 1.0000
69.0700 306.0000 1.0000
69.0800 293.0000 1.0000
69.0900 289.0000 1.0000
69.1000 287.0000 1.0000
69.1100 293.0000 1.0000
69.1200 310.0000 1.0000
69.1300 276.0000 1.0000
69.1400 290.0000 1.0000
69.1500 298.0000 1.0000
69.1600 281.0000 1.0000
69.1700 261.0000 1.0000
69.1800 284.0000 1.0000
69.1900 285.0000 1.0000
69.2000 247.0000 1.0000
69.2100 260.0000 1.0000
69.2200 268.0000 1.0000
69.2300 303.0000 1.0000
69.2400 274.0000 1.0000
69.2500 299.0000 1.0000
69.2600 265.0000 1.0000
69.2700 289.0000 1.0000
69.2800 279.0000 1.0000
69.2900 280.0000 1.0000
69.3000 289.0000 1.0000
69.3100 295.0000 1.0000
69.3200 300.0000 1.0000
69.3300 278.0000 1.0000
69.3400 293.0000 1.0000
69.3500 283.0000 1.0000
69.3600 290.0000 1.0000
69.3700 309.0000 1.0000
69.3800 286.0000 1.0000
69.3900 295.0000 1.0000
69.4000 271.0000 1.0000
69.4100 271.0000 1.0000
69.4200 273.0000 1.0000
69.4300 267.0000 1.0000
69.4400 296.0000 1.0000
69.4500 277.0000 1.0000
69.4600 296.0000 1.0000
69.4700 290.0000 1.0000
69.4800 276.0000 1.0000
69.4900 286.0000 1.0000
69.5000 300.0000 1.0000
69.5100 272.0000 1.0000
69.5200 301.0000 1.0000
69.5300 277.0000 1.0000
69.5400 273.0000 1.0000
69.5500 283.0000 1.0000
69.5600 287.0000 1.0000
69.5700 284.0000 1.0000
69.5800 275.0000 1.0000
69.5900 248.0000 1.0000
69.6000 253.0000 1.0000
69.6100 274.0000 1.0000
69.6200 302.0000 1.0000
69.6300 276.0000 1.0000
69.6400 283.0000 1.0000
69.6500 263.0000 1.0000
69.6600 267.0000 1.0000
69.6700 299.0000 1.0000
69.6800 278.0000 1.0000
69.6900 275.0000 1.0000
69.7000 286.0000 1.0000
69.7100 315.0000 1.0000
69.7200 284.0000 1.0000
69.7300 293.0000 1.0000
69.7400 279.0000 1.0000
69.7500 273.0000 1.0000
69.7600 268.0000 1.0000
69.7700 280.0000 1.0000
69.7800 289.0000 1.0000
69.7900 280.0000 1.0000
69.8000 276.0000 1.0000
69.8100 259.0000 1.0000
69.8200 272.0000 1.0000
69.8300 276.0000 1.0000
69.8400 277.0000 1.0000
69.8500 278.0000 1.0000
69.8600 274.0000 1.0000
69.8700 262.0000 1.0000
69.8800 285.0000 1.0000
69.8900 281.0000 1.0000
69.9000 280.0000 1.0000
69.9100 289.0000 1.0000
69.9200 252.0000 1.0000
69.9300 277.0000 1.0000
69.9400 271.0000 1.0000
69.9500 278.0000 1.0000
69.9600 306.0000 1.0000
69.9700 269.0000 1.0000
69.9800 270.0000 1.0000
69.9900 307.0000 1.0000
70.0000 272.0000 1.0000
*RAS_INT_END
*RAS_TEMPERATURE_START
*RAS_TEMPERATURE_END
*RAS_DATA_END
