*RAS_DATA_START
*RAS_HEADER_START
*DISP_FMT_X "%.2f"
*DISP_FMT_Y "%.0f"
*DISP_FULLSCALE "13395.0000000000"
*DISP_LINE_COLOR "255.0000000000"
*DISP_LINE_STYLE "0.0000000000"
*DISP_LINE_WIDTH "0.2500000000"
*DISP_NOTE "測定データ-15"
*DISP_OFFSET_Y "0.0000000000"
*DISP_PEAKSEARCH_UNIT_Y "cps"
*DISP_RANGE_BOTTOM "0.0000000000"
*DISP_RANGE_LEFT "20.0000000000"
*DISP_RANGE_LOGCUTOFF "0.0100000000"
*DISP_RANGE_RIGHT "70.0000000000"
*DISP_RANGE_TOP "13395.0000000000"
*DISP_SCALE_MODE_Y "0.0000000000"
*DISP_TAB_NAME "2θ/θ"
*DISP_TITLE_Y "強度"
*DISP_UNIT_Y "cps"
*DISP_WINDOW_NAME "MSG_MACROENGINE"
*FILE_COMMENT " "
*FILE_MD5 ""
*FILE_MEMO " "
*FILE_OPERATOR "Administrator"
*FILE_SAMPLE " "
*FILE_TYPE "RAS_RAW"
*FILE_USERGROUP "システムマネージャ"
*FILE_VERSION "1.0000000000"
*HW_ATTACHMENT_ID "ATT0025"
*HW_ATTACHMENT_NAME "標準|Standard"
*HW_COUNTER_ID-0 "CUT0025"
*HW_COUNTER_ID-1 "CUT0020"
*HW_COUNTER_ID-2 "CUT0020"
*HW_COUNTER_ID-3 "CSL0021"
*HW_COUNTER_ID-4 "CMC0021"
*HW_COUNTER_NAME-0 "D/teX Ultra|D/teX Ultra"
*HW_COUNTER_NAME-1 "None|None"
*HW_COUNTER_NAME-2 "None|None"
*HW_COUNTER_NAME-3 "BBM|BBM"
*HW_COUNTER_NAME-4 "検出器モノクロメータ|Detector monochromator"
*HW_COUNTER_SELECT_NAME "D/teX Ultra|D/teX Ultra"
*HW_GONIOMETER_ID "GON0023"
*HW_GONIOMETER_NAME "SmartLab|SmartLab"
*HW_GONIOMETER_RADIUS-0 "90.0"
*HW_GONIOMETER_RADIUS-1 "114.0"
*HW_GONIOMETER_RADIUS-2 "190.0"
*HW_GONIOMETER_RADIUS-3 "300.0"
*HW_GONIOMETER_RADIUS-4 "187.0"
*HW_GONIOMETER_RADIUS-5 "300.0"
*HW_GONIOMETER_RADIUS-6 "113.0"
*HW_GONIOMETER_RADIUS-7 "331.0"
*HW_I_OPT_ID-0 "CBO0021"
*HW_I_OPT_ID-1 "ICR0023"
*HW_I_OPT_ID-2 "ISL0021"
*HW_I_OPT_ID-3 "ISO0021"
*HW_I_OPT_ID-4 "IAD0021"
*HW_I_OPT_ID-5 "IPR0001"
*HW_I_OPT_NAME-0 "CBOユニット|CBO unit"
*HW_I_OPT_NAME-1 "標準入射光学ユニット|Standard incident optical unit"
*HW_I_OPT_NAME-2 "標準入射スリットボックス|Standard incident slit box"
*HW_I_OPT_NAME-3 "入射平行スリット|Incident parallel slit"
*HW_I_OPT_NAME-4 "長手制限スリット|Length limiting slit"
*HW_I_OPT_NAME-5 "None|None"
*HW_R_ATTENUATER_AUTOMODE "0"
*HW_R_OPT_ID-0 "RSS0021"
*HW_R_OPT_ID-1 "RCR0023"
*HW_R_OPT_ID-2 "RSO0021"
*HW_R_OPT_ID-3 "RRS0021"
*HW_R_OPT_ID-4 "ATN0021"
*HW_R_OPT_ID-5 "RFL0021"
*HW_R_OPT_ID-6 "RAD0021"
*HW_R_OPT_NAME-0 "標準受光スリットボックス1|Standard receiving slit box # 1"
*HW_R_OPT_NAME-1 "標準受光光学ユニット1|Standard receiving unit # 1"
*HW_R_OPT_NAME-2 "標準受光光学ユニット2|Standard receiving optical unit # 2"
*HW_R_OPT_NAME-3 "標準受光スリットボックス2|Standard receiving slit box # 2"
*HW_R_OPT_NAME-4 "標準アッテネータ|Standard Attenuator"
*HW_R_OPT_NAME-5 "Cu Kβ|Cu K-beta"
*HW_R_OPT_NAME-6 "調整用受光スリット|Alignment receiving slit"
*HW_SAMPLE_HOLDER_ID "SMP0023"
*HW_SAMPLE_HOLDER_NAME "標準Zステージ|Standard Z stage"
*HW_XG_CURRENT_MAX "50"
*HW_XG_CURRENT_MIN "2"
*HW_XG_CURRENT_RESOLUTION "1"
*HW_XG_CURRENT_UNIT "mA"
*HW_XG_FOCUS "1mm x 10mm"
*HW_XG_FOCUS_TYPE "Normal"
*HW_XG_ID ""
*HW_XG_NAME "3kW 封入管(ID:1200)|3kW Sealed tube(ID:1200)"
*HW_XG_TARGET_ATOMIC_NUMBER "29.0000000000"
*HW_XG_TARGET_NAME "Cu"
*HW_XG_TYPE "Hermetic"
*HW_XG_VOLTAGE_MAX "60"
*HW_XG_VOLTAGE_MIN "20"
*HW_XG_VOLTAGE_RESOLUTION "1"
*HW_XG_VOLTAGE_UNIT "kV"
*HW_XG_WATT_MAX "1.500"
*HW_XG_WATT_UNIT "kW"
*HW_XG_WAVE_LENGTH_ALPHA1 "1.540593"
*HW_XG_WAVE_LENGTH_ALPHA2 "1.544414"
*HW_XG_WAVE_LENGTH_BETA "1.392250"
*MEAS_COND_AXIS_NAME-0 "2θ/θ"
*MEAS_COND_AXIS_NAME-1 "2θ"
*MEAS_COND_AXIS_NAME-2 "ω"
*MEAS_COND_AXIS_NAME-3 "Z"
*MEAS_COND_AXIS_NAME-4 "2θ/ω"
*MEAS_COND_AXIS_NAME-5 "θs"
*MEAS_COND_AXIS_NAME-6 "θd"
*MEAS_COND_AXIS_NAME-7 "Ts"
*MEAS_COND_AXIS_NAME-8 "CBO選択スリット"
*MEAS_COND_AXIS_NAME-9 "M"
*MEAS_COND_AXIS_NAME-10 "入射平行スリット"
*MEAS_COND_AXIS_NAME-11 "入射スリット"
*MEAS_COND_AXIS_NAME-12 ""
*MEAS_COND_AXIS_NAME-13 "Zs"
*MEAS_COND_AXIS_NAME-14 "入射光学素子"
*MEAS_COND_AXIS_NAME-15 "長手制限スリット"
*MEAS_COND_AXIS_NAME-16 "センタースリット"
*MEAS_COND_AXIS_NAME-17 "フィルター"
*MEAS_COND_AXIS_NAME-18 "受光スリット1"
*MEAS_COND_AXIS_NAME-19 "受光スリット2"
*MEAS_COND_AXIS_NAME-20 "受光光学素子"
*MEAS_COND_AXIS_NAME-21 "受光平行スリット"
*MEAS_COND_AXIS_NAME-22 "調整用受光スリット"
*MEAS_COND_AXIS_NAME-23 ""
*MEAS_COND_AXIS_NAME-24 ""
*MEAS_COND_AXIS_NAME-25 "Zd"
*MEAS_COND_AXIS_NAME-26 "アッテネータ"
*MEAS_COND_AXIS_NAME-27 "検出器モノクロメータ"
*MEAS_COND_AXIS_NAME-28 "モノクロメータスリット"
*MEAS_COND_AXIS_NAME-29 "プライマリビーム"
*MEAS_COND_AXIS_NAME-30 "PHA"
*MEAS_COND_AXIS_NAME_INTERNAL-0 "TwoThetaTheta"
*MEAS_COND_AXIS_NAME_INTERNAL-1 "TwoTheta"
*MEAS_COND_AXIS_NAME_INTERNAL-2 "Omega"
*MEAS_COND_AXIS_NAME_INTERNAL-3 "Z"
*MEAS_COND_AXIS_NAME_INTERNAL-4 "TwoThetaOmega"
*MEAS_COND_AXIS_NAME_INTERNAL-5 "ThetaS"
*MEAS_COND_AXIS_NAME_INTERNAL-6 "ThetaD"
*MEAS_COND_AXIS_NAME_INTERNAL-7 "Ts"
*MEAS_COND_AXIS_NAME_INTERNAL-8 "CBO"
*MEAS_COND_AXIS_NAME_INTERNAL-9 "CBO-M"
*MEAS_COND_AXIS_NAME_INTERNAL-10 "IncidentSollerSlit"
*MEAS_COND_AXIS_NAME_INTERNAL-11 "IncidentSlitBox"
*MEAS_COND_AXIS_NAME_INTERNAL-12 "IncidentSlitBox-_Axis"
*MEAS_COND_AXIS_NAME_INTERNAL-13 "Zs"
*MEAS_COND_AXIS_NAME_INTERNAL-14 "IncidentMonochromator"
*MEAS_COND_AXIS_NAME_INTERNAL-15 "IncidentAxdSlit"
*MEAS_COND_AXIS_NAME_INTERNAL-16 "CenterSlit"
*MEAS_COND_AXIS_NAME_INTERNAL-17 "Filter"
*MEAS_COND_AXIS_NAME_INTERNAL-18 "ReceivingSlitBox1"
*MEAS_COND_AXIS_NAME_INTERNAL-19 "ReceivingSlitBox2"
*MEAS_COND_AXIS_NAME_INTERNAL-20 "ReceivingOptics"
*MEAS_COND_AXIS_NAME_INTERNAL-21 "ReceivingSollerSlit"
*MEAS_COND_AXIS_NAME_INTERNAL-22 "ReceivingAxdSlit"
*MEAS_COND_AXIS_NAME_INTERNAL-23 "ReceivingSlitBox1-_Axis"
*MEAS_COND_AXIS_NAME_INTERNAL-24 "ReceivingSlitBox2-_Axis"
*MEAS_COND_AXIS_NAME_INTERNAL-25 "ReceivingSlitBox2-Zd"
*MEAS_COND_AXIS_NAME_INTERNAL-26 "Attenuator"
*MEAS_COND_AXIS_NAME_INTERNAL-27 "CounterMonochromator"
*MEAS_COND_AXIS_NAME_INTERNAL-28 "CounterSlit"
*MEAS_COND_AXIS_NAME_INTERNAL-29 "IncidentPrimary"
*MEAS_COND_AXIS_NAME_INTERNAL-30 "PHA"
*MEAS_COND_AXIS_NAME_MAGICNO-0 "83951616.0000000000"
*MEAS_COND_AXIS_NAME_MAGICNO-1 "268632064.0000000000"
*MEAS_COND_AXIS_NAME_MAGICNO-2 "268500992.0000000000"
*MEAS_COND_AXIS_NAME_MAGICNO-3 "285278208.0000000000"
*MEAS_COND_AXIS_NAME_MAGICNO-4 "83951616.0000000000"
*MEAS_COND_AXIS_NAME_MAGICNO-5 "131072.0000000000"
*MEAS_COND_AXIS_NAME_MAGICNO-6 "131072.0000000000"
*MEAS_COND_AXIS_NAME_MAGICNO-7 "318898176.0000000000"
*MEAS_COND_AXIS_NAME_MAGICNO-8 "20971521.0000000000"
*MEAS_COND_AXIS_NAME_MAGICNO-9 "285343744.0000000000"
*MEAS_COND_AXIS_NAME_MAGICNO-10 "20971521.0000000000"
*MEAS_COND_AXIS_NAME_MAGICNO-11 "22020097.0000000000"
*MEAS_COND_AXIS_NAME_MAGICNO-12 "25165824.0000000000"
*MEAS_COND_AXIS_NAME_MAGICNO-13 "318898176.0000000000"
*MEAS_COND_AXIS_NAME_MAGICNO-14 "1.0000000000"
*MEAS_COND_AXIS_NAME_MAGICNO-15 "20971521.0000000000"
*MEAS_COND_AXIS_NAME_MAGICNO-16 "20971521.0000000000"
*MEAS_COND_AXIS_NAME_MAGICNO-17 "20971521.0000000000"
*MEAS_COND_AXIS_NAME_MAGICNO-18 "23068673.0000000000"
*MEAS_COND_AXIS_NAME_MAGICNO-19 "23068673.0000000000"
*MEAS_COND_AXIS_NAME_MAGICNO-20 "20971521.0000000000"
*MEAS_COND_AXIS_NAME_MAGICNO-21 "20971521.0000000000"
*MEAS_COND_AXIS_NAME_MAGICNO-22 "20971521.0000000000"
*MEAS_COND_AXIS_NAME_MAGICNO-23 "25165824.0000000000"
*MEAS_COND_AXIS_NAME_MAGICNO-24 "25165824.0000000000"
*MEAS_COND_AXIS_NAME_MAGICNO-25 "285343744.0000000000"
*MEAS_COND_AXIS_NAME_MAGICNO-26 "17301505.0000000000"
*MEAS_COND_AXIS_NAME_MAGICNO-27 "20971521.0000000000"
*MEAS_COND_AXIS_NAME_MAGICNO-28 "20971521.0000000000"
*MEAS_COND_AXIS_NAME_MAGICNO-29 "20971521.0000000000"
*MEAS_COND_AXIS_NAME_MAGICNO-30 "0.0000000000"
*MEAS_COND_AXIS_OFFSET-0 "-"
*MEAS_COND_AXIS_OFFSET-1 "-0.0310000000"
*MEAS_COND_AXIS_OFFSET-2 "0.4064000000"
*MEAS_COND_AXIS_OFFSET-3 "-"
*MEAS_COND_AXIS_OFFSET-4 "-"
*MEAS_COND_AXIS_OFFSET-5 "0.4064000000"
*MEAS_COND_AXIS_OFFSET-6 "-0.4374000000"
*MEAS_COND_AXIS_OFFSET-7 "-"
*MEAS_COND_AXIS_OFFSET-8 "-"
*MEAS_COND_AXIS_OFFSET-9 "-"
*MEAS_COND_AXIS_OFFSET-10 "-"
*MEAS_COND_AXIS_OFFSET-11 "-"
*MEAS_COND_AXIS_OFFSET-12 "-"
*MEAS_COND_AXIS_OFFSET-13 "-"
*MEAS_COND_AXIS_OFFSET-14 "-"
*MEAS_COND_AXIS_OFFSET-15 "-"
*MEAS_COND_AXIS_OFFSET-16 "-"
*MEAS_COND_AXIS_OFFSET-17 "-"
*MEAS_COND_AXIS_OFFSET-18 "-"
*MEAS_COND_AXIS_OFFSET-19 "-"
*MEAS_COND_AXIS_OFFSET-20 "-"
*MEAS_COND_AXIS_OFFSET-21 "-"
*MEAS_COND_AXIS_OFFSET-22 "-"
*MEAS_COND_AXIS_OFFSET-23 "-"
*MEAS_COND_AXIS_OFFSET-24 "-"
*MEAS_COND_AXIS_OFFSET-25 "-"
*MEAS_COND_AXIS_OFFSET-26 "-"
*MEAS_COND_AXIS_OFFSET-27 "-"
*MEAS_COND_AXIS_OFFSET-28 "-"
*MEAS_COND_AXIS_OFFSET-29 "-"
*MEAS_COND_AXIS_OFFSET-30 "-"
*MEAS_COND_AXIS_POSITION-0 "0.0000000000"
*MEAS_COND_AXIS_POSITION-1 "0.0000000000"
*MEAS_COND_AXIS_POSITION-2 "0.0000000000"
*MEAS_COND_AXIS_POSITION-3 "-2.8286000000"
*MEAS_COND_AXIS_POSITION-4 "0.0000000000"
*MEAS_COND_AXIS_POSITION-5 "0.0000000000"
*MEAS_COND_AXIS_POSITION-6 "0.0000000000"
*MEAS_COND_AXIS_POSITION-7 "-0.7498700000"
*MEAS_COND_AXIS_POSITION-8 "BB"
*MEAS_COND_AXIS_POSITION-9 "0.0000000000"
*MEAS_COND_AXIS_POSITION-10 "Soller_slit_5.0deg"
*MEAS_COND_AXIS_POSITION-11 "2/3deg"
*MEAS_COND_AXIS_POSITION-12 "2.2088000000"
*MEAS_COND_AXIS_POSITION-13 "-0.6412500000"
*MEAS_COND_AXIS_POSITION-14 "0.0000000000"
*MEAS_COND_AXIS_POSITION-15 "10.0mm"
*MEAS_COND_AXIS_POSITION-16 "None"
*MEAS_COND_AXIS_POSITION-17 "Cu_K-beta"
*MEAS_COND_AXIS_POSITION-18 "13.000mm"
*MEAS_COND_AXIS_POSITION-19 "13.000mm"
*MEAS_COND_AXIS_POSITION-20 "No_unit"
*MEAS_COND_AXIS_POSITION-21 "Soller_slit_5.0deg"
*MEAS_COND_AXIS_POSITION-22 "None"
*MEAS_COND_AXIS_POSITION-23 "13.0000000000"
*MEAS_COND_AXIS_POSITION-24 "13.0000000000"
*MEAS_COND_AXIS_POSITION-25 "0.0281300000"
*MEAS_COND_AXIS_POSITION-26 "Open"
*MEAS_COND_AXIS_POSITION-27 "None"
*MEAS_COND_AXIS_POSITION-28 "None"
*MEAS_COND_AXIS_POSITION-29 "None"
*MEAS_COND_AXIS_POSITION-30 "38.0000000000"
*MEAS_COND_AXIS_UNIT-0 "deg"
*MEAS_COND_AXIS_UNIT-1 "deg"
*MEAS_COND_AXIS_UNIT-2 "deg"
*MEAS_COND_AXIS_UNIT-3 "mm"
*MEAS_COND_AXIS_UNIT-4 "deg"
*MEAS_COND_AXIS_UNIT-5 "deg"
*MEAS_COND_AXIS_UNIT-6 "deg"
*MEAS_COND_AXIS_UNIT-7 "mm"
*MEAS_COND_AXIS_UNIT-8 ""
*MEAS_COND_AXIS_UNIT-9 "pulse"
*MEAS_COND_AXIS_UNIT-10 ""
*MEAS_COND_AXIS_UNIT-11 ""
*MEAS_COND_AXIS_UNIT-12 "mm"
*MEAS_COND_AXIS_UNIT-13 "mm"
*MEAS_COND_AXIS_UNIT-14 ""
*MEAS_COND_AXIS_UNIT-15 ""
*MEAS_COND_AXIS_UNIT-16 ""
*MEAS_COND_AXIS_UNIT-17 ""
*MEAS_COND_AXIS_UNIT-18 ""
*MEAS_COND_AXIS_UNIT-19 ""
*MEAS_COND_AXIS_UNIT-20 ""
*MEAS_COND_AXIS_UNIT-21 ""
*MEAS_COND_AXIS_UNIT-22 ""
*MEAS_COND_AXIS_UNIT-23 "mm"
*MEAS_COND_AXIS_UNIT-24 "mm"
*MEAS_COND_AXIS_UNIT-25 "mm"
*MEAS_COND_AXIS_UNIT-26 ""
*MEAS_COND_AXIS_UNIT-27 ""
*MEAS_COND_AXIS_UNIT-28 ""
*MEAS_COND_AXIS_UNIT-29 ""
*MEAS_COND_AXIS_UNIT-30 "div"
*MEAS_COND_COUNTER_CNTLOSS_CORR "0.0000000000"
*MEAS_COND_COUNTER_PHABASE "38.0000000000"
*MEAS_COND_COUNTER_PHAWINDOW "16.0000000000"
*MEAS_COND_COUNTER_PHA_UNIT "div"
*MEAS_COND_COUNTER_TAUDIFF "30.0000000000"
*MEAS_COND_COUNTER_TAUINT "0.0000000000"
*MEAS_COND_IRRADIATION_MODE "OFF"
*MEAS_COND_IRRADIATION_WIDTH ""
*MEAS_COND_OPT_ATTR "集中法"
*MEAS_COND_OPT_NAME "@集中法"
*MEAS_COND_UNSYMMETRIC_MODE "OFF"
*MEAS_COND_XG_CURRENT "30.0000000000"
*MEAS_COND_XG_VOLTAGE "40.0000000000"
*MEAS_COND_XG_WAVE_TYPE "Ka"
*MEAS_DATA_COUNT "5001.0000000000"
*MEAS_SCAN_AXIS_X "2θ/θ"
*MEAS_SCAN_AXIS_X_INTERNAL "TwoThetaTheta"
*MEAS_SCAN_END_TIME "08/01/23 21:10:03"
*MEAS_SCAN_MODE "CONTINUOUS"
*MEAS_SCAN_MONITOR "0"
*MEAS_SCAN_RESOLUTION_X "0.0002"
*MEAS_SCAN_SPEED "2.5"
*MEAS_SCAN_SPEED_UNIT "deg/min"
*MEAS_SCAN_START "20.0000000000"
*MEAS_SCAN_START_TIME "08/01/23 20:48:39"
*MEAS_SCAN_STEP "0.0100000000"
*MEAS_SCAN_STOP "70.0000000000"
*MEAS_SCAN_UNIT_X "deg"
*MEAS_SCAN_UNIT_Y "counts"
*RAS_HEADER_END
*RAS_INT_START
20.0000 972.0000 1.0000
20.0100 927.0000 1.0000
20.0200 943.0000 1.0000
20.0300 907.0000 1.0000
20.0400 895.0000 1.0000
20.0500 907.0000 1.0000
20.0600 886.0000 1.0000
20.0700 917.0000 1.0000
20.0800 911.0000 1.0000
20.0900 929.0000 1.0000
20.1000 958.0000 1.0000
20.1100 902.0000 1.0000
20.1200 931.0000 1.0000
20.1300 886.0000 1.0000
20.1400 919.0000 1.0000
20.1500 938.0000 1.0000
20.1600 925.0000 1.0000
20.1700 922.0000 1.0000
20.1800 911.0000 1.0000
20.1900 890.0000 1.0000
20.2000 913.0000 1.0000
20.2100 917.0000 1.0000
20.2200 954.0000 1.0000
20.2300 964.0000 1.0000
20.2400 911.0000 1.0000
20.2500 892.0000 1.0000
20.2600 906.0000 1.0000
20.2700 913.0000 1.0000
20.2800 915.0000 1.0000
20.2900 924.0000 1.0000
20.3000 940.0000 1.0000
20.3100 961.0000 1.0000
20.3200 946.0000 1.0000
20.3300 936.0000 1.0000
20.3400 964.0000 1.0000
20.3500 936.0000 1.0000
20.3600 948.0000 1.0000
20.3700 904.0000 1.0000
20.3800 890.0000 1.0000
20.3900 941.0000 1.0000
20.4000 900.0000 1.0000
20.4100 917.0000 1.0000
20.4200 917.0000 1.0000
20.4300 933.0000 1.0000
20.4400 942.0000 1.0000
20.4500 905.0000 1.0000
20.4600 909.0000 1.0000
20.4700 897.0000 1.0000
20.4800 904.0000 1.0000
20.4900 885.0000 1.0000
20.5000 914.0000 1.0000
20.5100 941.0000 1.0000
20.5200 932.0000 1.0000
20.5300 985.0000 1.0000
20.5400 950.0000 1.0000
20.5500 890.0000 1.0000
20.5600 930.0000 1.0000
20.5700 919.0000 1.0000
20.5800 891.0000 1.0000
20.5900 948.0000 1.0000
20.6000 900.0000 1.0000
20.6100 936.0000 1.0000
20.6200 893.0000 1.0000
20.6300 931.0000 1.0000
20.6400 942.0000 1.0000
20.6500 926.0000 1.0000
20.6600 889.0000 1.0000
20.6700 874.0000 1.0000
20.6800 930.0000 1.0000
20.6900 970.0000 1.0000
20.7000 919.0000 1.0000
20.7100 940.0000 1.0000
20.7200 926.0000 1.0000
20.7300 904.0000 1.0000
20.7400 924.0000 1.0000
20.7500 938.0000 1.0000
20.7600 906.0000 1.0000
20.7700 901.0000 1.0000
20.7800 900.0000 1.0000
20.7900 901.0000 1.0000
20.8000 931.0000 1.0000
20.8100 956.0000 1.0000
20.8200 970.0000 1.0000
20.8300 924.0000 1.0000
20.8400 882.0000 1.0000
20.8500 906.0000 1.0000
20.8600 931.0000 1.0000
20.8700 911.0000 1.0000
20.8800 927.0000 1.0000
20.8900 935.0000 1.0000
20.9000 911.0000 1.0000
20.9100 926.0000 1.0000
20.9200 935.0000 1.0000
20.9300 898.0000 1.0000
20.9400 895.0000 1.0000
20.9500 923.0000 1.0000
20.9600 937.0000 1.0000
20.9700 904.0000 1.0000
20.9800 902.0000 1.0000
20.9900 954.0000 1.0000
21.0000 912.0000 1.0000
21.0100 892.0000 1.0000
21.0200 899.0000 1.0000
21.0300 868.0000 1.0000
21.0400 884.0000 1.0000
21.0500 938.0000 1.0000
21.0600 911.0000 1.0000
21.0700 944.0000 1.0000
21.0800 896.0000 1.0000
21.0900 924.0000 1.0000
21.1000 915.0000 1.0000
21.1100 930.0000 1.0000
21.1200 920.0000 1.0000
21.1300 925.0000 1.0000
21.1400 931.0000 1.0000
21.1500 883.0000 1.0000
21.1600 879.0000 1.0000
21.1700 910.0000 1.0000
21.1800 922.0000 1.0000
21.1900 932.0000 1.0000
21.2000 914.0000 1.0000
21.2100 922.0000 1.0000
21.2200 891.0000 1.0000
21.2300 899.0000 1.0000
21.2400 889.0000 1.0000
21.2500 921.0000 1.0000
21.2600 976.0000 1.0000
21.2700 925.0000 1.0000
21.2800 903.0000 1.0000
21.2900 909.0000 1.0000
21.3000 919.0000 1.0000
21.3100 934.0000 1.0000
21.3200 886.0000 1.0000
21.3300 935.0000 1.0000
21.3400 897.0000 1.0000
21.3500 935.0000 1.0000
21.3600 926.0000 1.0000
21.3700 883.0000 1.0000
21.3800 884.0000 1.0000
21.3900 877.0000 1.0000
21.4000 861.0000 1.0000
21.4100 926.0000 1.0000
21.4200 944.0000 1.0000
21.4300 927.0000 1.0000
21.4400 881.0000 1.0000
21.4500 926.0000 1.0000
21.4600 908.0000 1.0000
21.4700 911.0000 1.0000
21.4800 931.0000 1.0000
21.4900 878.0000 1.0000
21.5000 899.0000 1.0000
21.5100 917.0000 1.0000
21.5200 893.0000 1.0000
21.5300 899.0000 1.0000
21.5400 898.0000 1.0000
21.5500 885.0000 1.0000
21.5600 917.0000 1.0000
21.5700 876.0000 1.0000
21.5800 901.0000 1.0000
21.5900 895.0000 1.0000
21.6000 877.0000 1.0000
21.6100 916.0000 1.0000
21.6200 860.0000 1.0000
21.6300 910.0000 1.0000
21.6400 846.0000 1.0000
21.6500 940.0000 1.0000
21.6600 914.0000 1.0000
21.6700 915.0000 1.0000
21.6800 920.0000 1.0000
21.6900 932.0000 1.0000
21.7000 955.0000 1.0000
21.7100 950.0000 1.0000
21.7200 956.0000 1.0000
21.7300 892.0000 1.0000
21.7400 873.0000 1.0000
21.7500 877.0000 1.0000
21.7600 907.0000 1.0000
21.7700 916.0000 1.0000
21.7800 932.0000 1.0000
21.7900 882.0000 1.0000
21.8000 919.0000 1.0000
21.8100 920.0000 1.0000
21.8200 853.0000 1.0000
21.8300 888.0000 1.0000
21.8400 923.0000 1.0000
21.8500 909.0000 1.0000
21.8600 918.0000 1.0000
21.8700 935.0000 1.0000
21.8800 930.0000 1.0000
21.8900 881.0000 1.0000
21.9000 878.0000 1.0000
21.9100 875.0000 1.0000
21.9200 906.0000 1.0000
21.9300 854.0000 1.0000
21.9400 923.0000 1.0000
21.9500 912.0000 1.0000
21.9600 884.0000 1.0000
21.9700 882.0000 1.0000
21.9800 887.0000 1.0000
21.9900 901.0000 1.0000
22.0000 890.0000 1.0000
22.0100 884.0000 1.0000
22.0200 919.0000 1.0000
22.0300 858.0000 1.0000
22.0400 873.0000 1.0000
22.0500 898.0000 1.0000
22.0600 850.0000 1.0000
22.0700 897.0000 1.0000
22.0800 905.0000 1.0000
22.0900 886.0000 1.0000
22.1000 890.0000 1.0000
22.1100 951.0000 1.0000
22.1200 955.0000 1.0000
22.1300 932.0000 1.0000
22.1400 929.0000 1.0000
22.1500 904.0000 1.0000
22.1600 926.0000 1.0000
22.1700 872.0000 1.0000
22.1800 892.0000 1.0000
22.1900 886.0000 1.0000
22.2000 892.0000 1.0000
22.2100 895.0000 1.0000
22.2200 872.0000 1.0000
22.2300 891.0000 1.0000
22.2400 864.0000 1.0000
22.2500 907.0000 1.0000
22.2600 915.0000 1.0000
22.2700 849.0000 1.0000
22.2800 901.0000 1.0000
22.2900 901.0000 1.0000
22.3000 869.0000 1.0000
22.3100 905.0000 1.0000
22.3200 924.0000 1.0000
22.3300 896.0000 1.0000
22.3400 933.0000 1.0000
22.3500 867.0000 1.0000
22.3600 952.0000 1.0000
22.3700 880.0000 1.0000
22.3800 871.0000 1.0000
22.3900 904.0000 1.0000
22.4000 889.0000 1.0000
22.4100 853.0000 1.0000
22.4200 907.0000 1.0000
22.4300 918.0000 1.0000
22.4400 872.0000 1.0000
22.4500 912.0000 1.0000
22.4600 882.0000 1.0000
22.4700 913.0000 1.0000
22.4800 935.0000 1.0000
22.4900 876.0000 1.0000
22.5000 881.0000 1.0000
22.5100 882.0000 1.0000
22.5200 849.0000 1.0000
22.5300 898.0000 1.0000
22.5400 873.0000 1.0000
22.5500 918.0000 1.0000
22.5600 905.0000 1.0000
22.5700 913.0000 1.0000
22.5800 889.0000 1.0000
22.5900 899.0000 1.0000
22.6000 856.0000 1.0000
22.6100 914.0000 1.0000
22.6200 904.0000 1.0000
22.6300 897.0000 1.0000
22.6400 941.0000 1.0000
22.6500 879.0000 1.0000
22.6600 886.0000 1.0000
22.6700 887.0000 1.0000
22.6800 884.0000 1.0000
22.6900 900.0000 1.0000
22.7000 874.0000 1.0000
22.7100 862.0000 1.0000
22.7200 899.0000 1.0000
22.7300 879.0000 1.0000
22.7400 906.0000 1.0000
22.7500 899.0000 1.0000
22.7600 895.0000 1.0000
22.7700 883.0000 1.0000
22.7800 865.0000 1.0000
22.7900 813.0000 1.0000
22.8000 872.0000 1.0000
22.8100 924.0000 1.0000
22.8200 879.0000 1.0000
22.8300 910.0000 1.0000
22.8400 899.0000 1.0000
22.8500 874.0000 1.0000
22.8600 876.0000 1.0000
22.8700 837.0000 1.0000
22.8800 888.0000 1.0000
22.8900 855.0000 1.0000
22.9000 873.0000 1.0000
22.9100 856.0000 1.0000
22.9200 867.0000 1.0000
22.9300 909.0000 1.0000
22.9400 900.0000 1.0000
22.9500 886.0000 1.0000
22.9600 864.0000 1.0000
22.9700 926.0000 1.0000
22.9800 917.0000 1.0000
22.9900 880.0000 1.0000
23.0000 879.0000 1.0000
23.0100 881.0000 1.0000
23.0200 877.0000 1.0000
23.0300 869.0000 1.0000
23.0400 881.0000 1.0000
23.0500 893.0000 1.0000
23.0600 806.0000 1.0000
23.0700 918.0000 1.0000
23.0800 920.0000 1.0000
23.0900 917.0000 1.0000
23.1000 863.0000 1.0000
23.1100 856.0000 1.0000
23.1200 868.0000 1.0000
23.1300 828.0000 1.0000
23.1400 860.0000 1.0000
23.1500 891.0000 1.0000
23.1600 901.0000 1.0000
23.1700 859.0000 1.0000
23.1800 866.0000 1.0000
23.1900 901.0000 1.0000
23.2000 840.0000 1.0000
23.2100 856.0000 1.0000
23.2200 876.0000 1.0000
23.2300 877.0000 1.0000
23.2400 826.0000 1.0000
23.2500 856.0000 1.0000
23.2600 831.0000 1.0000
23.2700 886.0000 1.0000
23.2800 844.0000 1.0000
23.2900 905.0000 1.0000
23.3000 886.0000 1.0000
23.3100 873.0000 1.0000
23.3200 860.0000 1.0000
23.3300 822.0000 1.0000
23.3400 867.0000 1.0000
23.3500 884.0000 1.0000
23.3600 872.0000 1.0000
23.3700 892.0000 1.0000
23.3800 879.0000 1.0000
23.3900 827.0000 1.0000
23.4000 860.0000 1.0000
23.4100 869.0000 1.0000
23.4200 892.0000 1.0000
23.4300 922.0000 1.0000
23.4400 914.0000 1.0000
23.4500 871.0000 1.0000
23.4600 908.0000 1.0000
23.4700 875.0000 1.0000
23.4800 868.0000 1.0000
23.4900 902.0000 1.0000
23.5000 930.0000 1.0000
23.5100 848.0000 1.0000
23.5200 897.0000 1.0000
23.5300 854.0000 1.0000
23.5400 930.0000 1.0000
23.5500 871.0000 1.0000
23.5600 873.0000 1.0000
23.5700 836.0000 1.0000
23.5800 814.0000 1.0000
23.5900 878.0000 1.0000
23.6000 873.0000 1.0000
23.6100 876.0000 1.0000
23.6200 882.0000 1.0000
23.6300 848.0000 1.0000
23.6400 862.0000 1.0000
23.6500 846.0000 1.0000
23.6600 897.0000 1.0000
23.6700 845.0000 1.0000
23.6800 931.0000 1.0000
23.6900 880.0000 1.0000
23.7000 874.0000 1.0000
23.7100 901.0000 1.0000
23.7200 850.0000 1.0000
23.7300 922.0000 1.0000
23.7400 905.0000 1.0000
23.7500 903.0000 1.0000
23.7600 860.0000 1.0000
23.7700 899.0000 1.0000
23.7800 830.0000 1.0000
23.7900 811.0000 1.0000
23.8000 892.0000 1.0000
23.8100 915.0000 1.0000
23.8200 923.0000 1.0000
23.8300 875.0000 1.0000
23.8400 903.0000 1.0000
23.8500 910.0000 1.0000
23.8600 881.0000 1.0000
23.8700 910.0000 1.0000
23.8800 893.0000 1.0000
23.8900 891.0000 1.0000
23.9000 890.0000 1.0000
23.9100 910.0000 1.0000
23.9200 973.0000 1.0000
23.9300 929.0000 1.0000
23.9400 914.0000 1.0000
23.9500 885.0000 1.0000
23.9600 902.0000 1.0000
23.9700 900.0000 1.0000
23.9800 926.0000 1.0000
23.9900 985.0000 1.0000
24.0000 958.0000 1.0000
24.0100 981.0000 1.0000
24.0200 1003.0000 1.0000
24.0300 1010.0000 1.0000
24.0400 972.0000 1.0000
24.0500 943.0000 1.0000
24.0600 1004.0000 1.0000
24.0700 1030.0000 1.0000
24.0800 981.0000 1.0000
24.0900 973.0000 1.0000
24.1000 994.0000 1.0000
24.1100 968.0000 1.0000
24.1200 986.0000 1.0000
24.1300 978.0000 1.0000
24.1400 966.0000 1.0000
24.1500 996.0000 1.0000
24.1600 969.0000 1.0000
24.1700 1021.0000 1.0000
24.1800 981.0000 1.0000
24.1900 953.0000 1.0000
24.2000 918.0000 1.0000
24.2100 928.0000 1.0000
24.2200 929.0000 1.0000
24.2300 863.0000 1.0000
24.2400 883.0000 1.0000
24.2500 916.0000 1.0000
24.2600 834.0000 1.0000
24.2700 890.0000 1.0000
24.2800 834.0000 1.0000
24.2900 881.0000 1.0000
24.3000 914.0000 1.0000
24.3100 899.0000 1.0000
24.3200 859.0000 1.0000
24.3300 869.0000 1.0000
24.3400 920.0000 1.0000
24.3500 929.0000 1.0000
24.3600 891.0000 1.0000
24.3700 872.0000 1.0000
24.3800 837.0000 1.0000
24.3900 862.0000 1.0000
24.4000 886.0000 1.0000
24.4100 889.0000 1.0000
24.4200 870.0000 1.0000
24.4300 853.0000 1.0000
24.4400 888.0000 1.0000
24.4500 896.0000 1.0000
24.4600 872.0000 1.0000
24.4700 854.0000 1.0000
24.4800 778.0000 1.0000
24.4900 848.0000 1.0000
24.5000 848.0000 1.0000
24.5100 849.0000 1.0000
24.5200 838.0000 1.0000
24.5300 845.0000 1.0000
24.5400 820.0000 1.0000
24.5500 819.0000 1.0000
24.5600 883.0000 1.0000
24.5700 843.0000 1.0000
24.5800 820.0000 1.0000
24.5900 877.0000 1.0000
24.6000 832.0000 1.0000
24.6100 857.0000 1.0000
24.6200 839.0000 1.0000
24.6300 849.0000 1.0000
24.6400 834.0000 1.0000
24.6500 874.0000 1.0000
24.6600 847.0000 1.0000
24.6700 842.0000 1.0000
24.6800 878.0000 1.0000
24.6900 861.0000 1.0000
24.7000 850.0000 1.0000
24.7100 837.0000 1.0000
24.7200 877.0000 1.0000
24.7300 856.0000 1.0000
24.7400 865.0000 1.0000
24.7500 876.0000 1.0000
24.7600 844.0000 1.0000
24.7700 843.0000 1.0000
24.7800 824.0000 1.0000
24.7900 816.0000 1.0000
24.8000 825.0000 1.0000
24.8100 844.0000 1.0000
24.8200 839.0000 1.0000
24.8300 847.0000 1.0000
24.8400 835.0000 1.0000
24.8500 837.0000 1.0000
24.8600 836.0000 1.0000
24.8700 873.0000 1.0000
24.8800 859.0000 1.0000
24.8900 826.0000 1.0000
24.9000 885.0000 1.0000
24.9100 880.0000 1.0000
24.9200 892.0000 1.0000
24.9300 887.0000 1.0000
24.9400 831.0000 1.0000
24.9500 826.0000 1.0000
24.9600 906.0000 1.0000
24.9700 869.0000 1.0000
24.9800 841.0000 1.0000
24.9900 801.0000 1.0000
25.0000 872.0000 1.0000
25.0100 875.0000 1.0000
25.0200 836.0000 1.0000
25.0300 819.0000 1.0000
25.0400 857.0000 1.0000
25.0500 862.0000 1.0000
25.0600 806.0000 1.0000
25.0700 845.0000 1.0000
25.0800 865.0000 1.0000
25.0900 822.0000 1.0000
25.1000 785.0000 1.0000
25.1100 861.0000 1.0000
25.1200 811.0000 1.0000
25.1300 805.0000 1.0000
25.1400 847.0000 1.0000
25.1500 837.0000 1.0000
25.1600 830.0000 1.0000
25.1700 811.0000 1.0000
25.1800 861.0000 1.0000
25.1900 856.0000 1.0000
25.2000 815.0000 1.0000
25.2100 829.0000 1.0000
25.2200 852.0000 1.0000
25.2300 771.0000 1.0000
25.2400 792.0000 1.0000
25.2500 875.0000 1.0000
25.2600 861.0000 1.0000
25.2700 794.0000 1.0000
25.2800 800.0000 1.0000
25.2900 832.0000 1.0000
25.3000 831.0000 1.0000
25.3100 842.0000 1.0000
25.3200 834.0000 1.0000
25.3300 827.0000 1.0000
25.3400 859.0000 1.0000
25.3500 818.0000 1.0000
25.3600 899.0000 1.0000
25.3700 862.0000 1.0000
25.3800 837.0000 1.0000
25.3900 862.0000 1.0000
25.4000 834.0000 1.0000
25.4100 803.0000 1.0000
25.4200 847.0000 1.0000
25.4300 878.0000 1.0000
25.4400 875.0000 1.0000
25.4500 834.0000 1.0000
25.4600 812.0000 1.0000
25.4700 828.0000 1.0000
25.4800 842.0000 1.0000
25.4900 752.0000 1.0000
25.5000 800.0000 1.0000
25.5100 838.0000 1.0000
25.5200 811.0000 1.0000
25.5300 837.0000 1.0000
25.5400 822.0000 1.0000
25.5500 869.0000 1.0000
25.5600 881.0000 1.0000
25.5700 844.0000 1.0000
25.5800 857.0000 1.0000
25.5900 845.0000 1.0000
25.6000 828.0000 1.0000
25.6100 870.0000 1.0000
25.6200 845.0000 1.0000
25.6300 895.0000 1.0000
25.6400 837.0000 1.0000
25.6500 863.0000 1.0000
25.6600 879.0000 1.0000
25.6700 844.0000 1.0000
25.6800 816.0000 1.0000
25.6900 815.0000 1.0000
25.7000 872.0000 1.0000
25.7100 849.0000 1.0000
25.7200 810.0000 1.0000
25.7300 863.0000 1.0000
25.7400 886.0000 1.0000
25.7500 875.0000 1.0000
25.7600 864.0000 1.0000
25.7700 827.0000 1.0000
25.7800 824.0000 1.0000
25.7900 843.0000 1.0000
25.8000 788.0000 1.0000
25.8100 878.0000 1.0000
25.8200 890.0000 1.0000
25.8300 829.0000 1.0000
25.8400 867.0000 1.0000
25.8500 903.0000 1.0000
25.8600 829.0000 1.0000
25.8700 855.0000 1.0000
25.8800 867.0000 1.0000
25.8900 854.0000 1.0000
25.9000 843.0000 1.0000
25.9100 849.0000 1.0000
25.9200 895.0000 1.0000
25.9300 878.0000 1.0000
25.9400 869.0000 1.0000
25.9500 892.0000 1.0000
25.9600 910.0000 1.0000
25.9700 926.0000 1.0000
25.9800 868.0000 1.0000
25.9900 886.0000 1.0000
26.0000 878.0000 1.0000
26.0100 893.0000 1.0000
26.0200 913.0000 1.0000
26.0300 989.0000 1.0000
26.0400 901.0000 1.0000
26.0500 917.0000 1.0000
26.0600 977.0000 1.0000
26.0700 960.0000 1.0000
26.0800 963.0000 1.0000
26.0900 926.0000 1.0000
26.1000 919.0000 1.0000
26.1100 944.0000 1.0000
26.1200 965.0000 1.0000
26.1300 1010.0000 1.0000
26.1400 1034.0000 1.0000
26.1500 1018.0000 1.0000
26.1600 990.0000 1.0000
26.1700 1115.0000 1.0000
26.1800 1085.0000 1.0000
26.1900 1136.0000 1.0000
26.2000 1120.0000 1.0000
26.2100 1146.0000 1.0000
26.2200 1212.0000 1.0000
26.2300 1224.0000 1.0000
26.2400 1259.0000 1.0000
26.2500 1207.0000 1.0000
26.2600 1278.0000 1.0000
26.2700 1360.0000 1.0000
26.2800 1318.0000 1.0000
26.2900 1418.0000 1.0000
26.3000 1467.0000 1.0000
26.3100 1551.0000 1.0000
26.3200 1608.0000 1.0000
26.3300 1686.0000 1.0000
26.3400 1779.0000 1.0000
26.3500 1891.0000 1.0000
26.3600 1928.0000 1.0000
26.3700 2049.0000 1.0000
26.3800 2170.0000 1.0000
26.3900 2296.0000 1.0000
26.4000 2347.0000 1.0000
26.4100 2454.0000 1.0000
26.4200 2532.0000 1.0000
26.4300 2548.0000 1.0000
26.4400 2661.0000 1.0000
26.4500 2583.0000 1.0000
26.4600 2679.0000 1.0000
26.4700 2654.0000 1.0000
26.4800 2530.0000 1.0000
26.4900 2452.0000 1.0000
26.5000 2397.0000 1.0000
26.5100 2314.0000 1.0000
26.5200 2226.0000 1.0000
26.5300 2224.0000 1.0000
26.5400 2058.0000 1.0000
26.5500 1941.0000 1.0000
26.5600 1840.0000 1.0000
26.5700 1755.0000 1.0000
26.5800 1637.0000 1.0000
26.5900 1621.0000 1.0000
26.6000 1517.0000 1.0000
26.6100 1397.0000 1.0000
26.6200 1467.0000 1.0000
26.6300 1406.0000 1.0000
26.6400 1297.0000 1.0000
26.6500 1291.0000 1.0000
26.6600 1205.0000 1.0000
26.6700 1202.0000 1.0000
26.6800 1114.0000 1.0000
26.6900 1119.0000 1.0000
26.7000 1083.0000 1.0000
26.7100 1020.0000 1.0000
26.7200 998.0000 1.0000
26.7300 1017.0000 1.0000
26.7400 1009.0000 1.0000
26.7500 920.0000 1.0000
26.7600 981.0000 1.0000
26.7700 991.0000 1.0000
26.7800 969.0000 1.0000
26.7900 935.0000 1.0000
26.8000 922.0000 1.0000
26.8100 936.0000 1.0000
26.8200 912.0000 1.0000
26.8300 865.0000 1.0000
26.8400 879.0000 1.0000
26.8500 896.0000 1.0000
26.8600 946.0000 1.0000
26.8700 868.0000 1.0000
26.8800 905.0000 1.0000
26.8900 922.0000 1.0000
26.9000 869.0000 1.0000
26.9100 881.0000 1.0000
26.9200 866.0000 1.0000
26.9300 879.0000 1.0000
26.9400 891.0000 1.0000
26.9500 867.0000 1.0000
26.9600 842.0000 1.0000
26.9700 862.0000 1.0000
26.9800 869.0000 1.0000
26.9900 858.0000 1.0000
27.0000 881.0000 1.0000
27.0100 846.0000 1.0000
27.0200 861.0000 1.0000
27.0300 809.0000 1.0000
27.0400 766.0000 1.0000
27.0500 804.0000 1.0000
27.0600 835.0000 1.0000
27.0700 845.0000 1.0000
27.0800 833.0000 1.0000
27.0900 825.0000 1.0000
27.1000 804.0000 1.0000
27.1100 813.0000 1.0000
27.1200 816.0000 1.0000
27.1300 829.0000 1.0000
27.1400 797.0000 1.0000
27.1500 808.0000 1.0000
27.1600 729.0000 1.0000
27.1700 804.0000 1.0000
27.1800 834.0000 1.0000
27.1900 811.0000 1.0000
27.2000 819.0000 1.0000
27.2100 816.0000 1.0000
27.2200 855.0000 1.0000
27.2300 757.0000 1.0000
27.2400 778.0000 1.0000
27.2500 779.0000 1.0000
27.2600 830.0000 1.0000
27.2700 799.0000 1.0000
27.2800 859.0000 1.0000
27.2900 817.0000 1.0000
27.3000 848.0000 1.0000
27.3100 760.0000 1.0000
27.3200 779.0000 1.0000
27.3300 753.0000 1.0000
27.3400 787.0000 1.0000
27.3500 755.0000 1.0000
27.3600 805.0000 1.0000
27.3700 762.0000 1.0000
27.3800 758.0000 1.0000
27.3900 802.0000 1.0000
27.4000 789.0000 1.0000
27.4100 781.0000 1.0000
27.4200 759.0000 1.0000
27.4300 765.0000 1.0000
27.4400 751.0000 1.0000
27.4500 753.0000 1.0000
27.4600 796.0000 1.0000
27.4700 783.0000 1.0000
27.4800 783.0000 1.0000
27.4900 775.0000 1.0000
27.5000 775.0000 1.0000
27.5100 740.0000 1.0000
27.5200 762.0000 1.0000
27.5300 776.0000 1.0000
27.5400 778.0000 1.0000
27.5500 803.0000 1.0000
27.5600 838.0000 1.0000
27.5700 812.0000 1.0000
27.5800 786.0000 1.0000
27.5900 729.0000 1.0000
27.6000 774.0000 1.0000
27.6100 766.0000 1.0000
27.6200 770.0000 1.0000
27.6300 749.0000 1.0000
27.6400 788.0000 1.0000
27.6500 748.0000 1.0000
27.6600 819.0000 1.0000
27.6700 787.0000 1.0000
27.6800 764.0000 1.0000
27.6900 743.0000 1.0000
27.7000 766.0000 1.0000
27.7100 757.0000 1.0000
27.7200 793.0000 1.0000
27.7300 747.0000 1.0000
27.7400 787.0000 1.0000
27.7500 769.0000 1.0000
27.7600 756.0000 1.0000
27.7700 723.0000 1.0000
27.7800 723.0000 1.0000
27.7900 736.0000 1.0000
27.8000 732.0000 1.0000
27.8100 787.0000 1.0000
27.8200 817.0000 1.0000
27.8300 782.0000 1.0000
27.8400 754.0000 1.0000
27.8500 756.0000 1.0000
27.8600 736.0000 1.0000
27.8700 757.0000 1.0000
27.8800 735.0000 1.0000
27.8900 767.0000 1.0000
27.9000 745.0000 1.0000
27.9100 747.0000 1.0000
27.9200 737.0000 1.0000
27.9300 713.0000 1.0000
27.9400 719.0000 1.0000
27.9500 725.0000 1.0000
27.9600 738.0000 1.0000
27.9700 739.0000 1.0000
27.9800 788.0000 1.0000
27.9900 773.0000 1.0000
28.0000 735.0000 1.0000
28.0100 729.0000 1.0000
28.0200 724.0000 1.0000
28.0300 789.0000 1.0000
28.0400 738.0000 1.0000
28.0500 761.0000 1.0000
28.0600 752.0000 1.0000
28.0700 733.0000 1.0000
28.0800 720.0000 1.0000
28.0900 770.0000 1.0000
28.1000 733.0000 1.0000
28.1100 799.0000 1.0000
28.1200 716.0000 1.0000
28.1300 714.0000 1.0000
28.1400 721.0000 1.0000
28.1500 699.0000 1.0000
28.1600 726.0000 1.0000
28.1700 762.0000 1.0000
28.1800 745.0000 1.0000
28.1900 793.0000 1.0000
28.2000 783.0000 1.0000
28.2100 742.0000 1.0000
28.2200 773.0000 1.0000
28.2300 740.0000 1.0000
28.2400 725.0000 1.0000
28.2500 745.0000 1.0000
28.2600 726.0000 1.0000
28.2700 740.0000 1.0000
28.2800 735.0000 1.0000
28.2900 718.0000 1.0000
28.3000 708.0000 1.0000
28.3100 706.0000 1.0000
28.3200 729.0000 1.0000
28.3300 719.0000 1.0000
28.3400 715.0000 1.0000
28.3500 704.0000 1.0000
28.3600 784.0000 1.0000
28.3700 743.0000 1.0000
28.3800 744.0000 1.0000
28.3900 742.0000 1.0000
28.4000 739.0000 1.0000
28.4100 729.0000 1.0000
28.4200 725.0000 1.0000
28.4300 706.0000 1.0000
28.4400 732.0000 1.0000
28.4500 731.0000 1.0000
28.4600 722.0000 1.0000
28.4700 754.0000 1.0000
28.4800 798.0000 1.0000
28.4900 719.0000 1.0000
28.5000 784.0000 1.0000
28.5100 748.0000 1.0000
28.5200 737.0000 1.0000
28.5300 724.0000 1.0000
28.5400 717.0000 1.0000
28.5500 731.0000 1.0000
28.5600 712.0000 1.0000
28.5700 709.0000 1.0000
28.5800 722.0000 1.0000
28.5900 710.0000 1.0000
28.6000 732.0000 1.0000
28.6100 711.0000 1.0000
28.6200 732.0000 1.0000
28.6300 724.0000 1.0000
28.6400 720.0000 1.0000
28.6500 738.0000 1.0000
28.6600 733.0000 1.0000
28.6700 736.0000 1.0000
28.6800 726.0000 1.0000
28.6900 744.0000 1.0000
28.7000 707.0000 1.0000
28.7100 688.0000 1.0000
28.7200 688.0000 1.0000
28.7300 680.0000 1.0000
28.7400 700.0000 1.0000
28.7500 730.0000 1.0000
28.7600 750.0000 1.0000
28.7700 750.0000 1.0000
28.7800 689.0000 1.0000
28.7900 710.0000 1.0000
28.8000 692.0000 1.0000
28.8100 690.0000 1.0000
28.8200 746.0000 1.0000
28.8300 723.0000 1.0000
28.8400 683.0000 1.0000
28.8500 700.0000 1.0000
28.8600 735.0000 1.0000
28.8700 733.0000 1.0000
28.8800 718.0000 1.0000
28.8900 737.0000 1.0000
28.9000 739.0000 1.0000
28.9100 707.0000 1.0000
28.9200 683.0000 1.0000
28.9300 729.0000 1.0000
28.9400 731.0000 1.0000
28.9500 734.0000 1.0000
28.9600 711.0000 1.0000
28.9700 688.0000 1.0000
28.9800 687.0000 1.0000
28.9900 695.0000 1.0000
29.0000 708.0000 1.0000
29.0100 736.0000 1.0000
29.0200 701.0000 1.0000
29.0300 714.0000 1.0000
29.0400 707.0000 1.0000
29.0500 689.0000 1.0000
29.0600 728.0000 1.0000
29.0700 717.0000 1.0000
29.0800 705.0000 1.0000
29.0900 688.0000 1.0000
29.1000 708.0000 1.0000
29.1100 685.0000 1.0000
29.1200 714.0000 1.0000
29.1300 688.0000 1.0000
29.1400 743.0000 1.0000
29.1500 683.0000 1.0000
29.1600 717.0000 1.0000
29.1700 693.0000 1.0000
29.1800 712.0000 1.0000
29.1900 730.0000 1.0000
29.2000 681.0000 1.0000
29.2100 670.0000 1.0000
29.2200 734.0000 1.0000
29.2300 698.0000 1.0000
29.2400 731.0000 1.0000
29.2500 712.0000 1.0000
29.2600 671.0000 1.0000
29.2700 703.0000 1.0000
29.2800 705.0000 1.0000
29.2900 686.0000 1.0000
29.3000 701.0000 1.0000
29.3100 681.0000 1.0000
29.3200 693.0000 1.0000
29.3300 729.0000 1.0000
29.3400 717.0000 1.0000
29.3500 690.0000 1.0000
29.3600 708.0000 1.0000
29.3700 693.0000 1.0000
29.3800 707.0000 1.0000
29.3900 720.0000 1.0000
29.4000 654.0000 1.0000
29.4100 706.0000 1.0000
29.4200 695.0000 1.0000
29.4300 710.0000 1.0000
29.4400 706.0000 1.0000
29.4500 691.0000 1.0000
29.4600 686.0000 1.0000
29.4700 703.0000 1.0000
29.4800 747.0000 1.0000
29.4900 680.0000 1.0000
29.5000 689.0000 1.0000
29.5100 685.0000 1.0000
29.5200 678.0000 1.0000
29.5300 685.0000 1.0000
29.5400 673.0000 1.0000
29.5500 681.0000 1.0000
29.5600 720.0000 1.0000
29.5700 680.0000 1.0000
29.5800 723.0000 1.0000
29.5900 733.0000 1.0000
29.6000 676.0000 1.0000
29.6100 721.0000 1.0000
29.6200 726.0000 1.0000
29.6300 705.0000 1.0000
29.6400 680.0000 1.0000
29.6500 658.0000 1.0000
29.6600 654.0000 1.0000
29.6700 700.0000 1.0000
29.6800 664.0000 1.0000
29.6900 664.0000 1.0000
29.7000 714.0000 1.0000
29.7100 722.0000 1.0000
29.7200 703.0000 1.0000
29.7300 737.0000 1.0000
29.7400 688.0000 1.0000
29.7500 717.0000 1.0000
29.7600 717.0000 1.0000
29.7700 691.0000 1.0000
29.7800 662.0000 1.0000
29.7900 740.0000 1.0000
29.8000 693.0000 1.0000
29.8100 687.0000 1.0000
29.8200 656.0000 1.0000
29.8300 673.0000 1.0000
29.8400 649.0000 1.0000
29.8500 630.0000 1.0000
29.8600 692.0000 1.0000
29.8700 624.0000 1.0000
29.8800 651.0000 1.0000
29.8900 664.0000 1.0000
29.9000 632.0000 1.0000
29.9100 683.0000 1.0000
29.9200 674.0000 1.0000
29.9300 687.0000 1.0000
29.9400 637.0000 1.0000
29.9500 674.0000 1.0000
29.9600 686.0000 1.0000
29.9700 670.0000 1.0000
29.9800 670.0000 1.0000
29.9900 663.0000 1.0000
30.0000 647.0000 1.0000
30.0100 678.0000 1.0000
30.0200 697.0000 1.0000
30.0300 729.0000 1.0000
30.0400 690.0000 1.0000
30.0500 696.0000 1.0000
30.0600 641.0000 1.0000
30.0700 670.0000 1.0000
30.0800 650.0000 1.0000
30.0900 703.0000 1.0000
30.1000 698.0000 1.0000
30.1100 663.0000 1.0000
30.1200 707.0000 1.0000
30.1300 670.0000 1.0000
30.1400 704.0000 1.0000
30.1500 688.0000 1.0000
30.1600 683.0000 1.0000
30.1700 693.0000 1.0000
30.1800 677.0000 1.0000
30.1900 689.0000 1.0000
30.2000 658.0000 1.0000
30.2100 665.0000 1.0000
30.2200 629.0000 1.0000
30.2300 658.0000 1.0000
30.2400 701.0000 1.0000
30.2500 727.0000 1.0000
30.2600 648.0000 1.0000
30.2700 664.0000 1.0000
30.2800 639.0000 1.0000
30.2900 715.0000 1.0000
30.3000 640.0000 1.0000
30.3100 702.0000 1.0000
30.3200 692.0000 1.0000
30.3300 646.0000 1.0000
30.3400 684.0000 1.0000
30.3500 656.0000 1.0000
30.3600 734.0000 1.0000
30.3700 660.0000 1.0000
30.3800 642.0000 1.0000
30.3900 697.0000 1.0000
30.4000 691.0000 1.0000
30.4100 676.0000 1.0000
30.4200 666.0000 1.0000
30.4300 699.0000 1.0000
30.4400 656.0000 1.0000
30.4500 670.0000 1.0000
30.4600 643.0000 1.0000
30.4700 699.0000 1.0000
30.4800 663.0000 1.0000
30.4900 664.0000 1.0000
30.5000 647.0000 1.0000
30.5100 690.0000 1.0000
30.5200 646.0000 1.0000
30.5300 687.0000 1.0000
30.5400 676.0000 1.0000
30.5500 690.0000 1.0000
30.5600 713.0000 1.0000
30.5700 657.0000 1.0000
30.5800 653.0000 1.0000
30.5900 675.0000 1.0000
30.6000 654.0000 1.0000
30.6100 671.0000 1.0000
30.6200 650.0000 1.0000
30.6300 623.0000 1.0000
30.6400 625.0000 1.0000
30.6500 646.0000 1.0000
30.6600 642.0000 1.0000
30.6700 663.0000 1.0000
30.6800 643.0000 1.0000
30.6900 669.0000 1.0000
30.7000 664.0000 1.0000
30.7100 681.0000 1.0000
30.7200 718.0000 1.0000
30.7300 674.0000 1.0000
30.7400 706.0000 1.0000
30.7500 659.0000 1.0000
30.7600 662.0000 1.0000
30.7700 710.0000 1.0000
30.7800 658.0000 1.0000
30.7900 646.0000 1.0000
30.8000 668.0000 1.0000
30.8100 665.0000 1.0000
30.8200 637.0000 1.0000
30.8300 667.0000 1.0000
30.8400 650.0000 1.0000
30.8500 659.0000 1.0000
30.8600 630.0000 1.0000
30.8700 658.0000 1.0000
30.8800 673.0000 1.0000
30.8900 677.0000 1.0000
30.9000 677.0000 1.0000
30.9100 674.0000 1.0000
30.9200 662.0000 1.0000
30.9300 663.0000 1.0000
30.9400 671.0000 1.0000
30.9500 670.0000 1.0000
30.9600 687.0000 1.0000
30.9700 647.0000 1.0000
30.9800 688.0000 1.0000
30.9900 665.0000 1.0000
31.0000 688.0000 1.0000
31.0100 704.0000 1.0000
31.0200 663.0000 1.0000
31.0300 634.0000 1.0000
31.0400 656.0000 1.0000
31.0500 673.0000 1.0000
31.0600 665.0000 1.0000
31.0700 727.0000 1.0000
31.0800 667.0000 1.0000
31.0900 663.0000 1.0000
31.1000 721.0000 1.0000
31.1100 645.0000 1.0000
31.1200 691.0000 1.0000
31.1300 698.0000 1.0000
31.1400 666.0000 1.0000
31.1500 684.0000 1.0000
31.1600 661.0000 1.0000
31.1700 662.0000 1.0000
31.1800 660.0000 1.0000
31.1900 630.0000 1.0000
31.2000 636.0000 1.0000
31.2100 654.0000 1.0000
31.2200 653.0000 1.0000
31.2300 647.0000 1.0000
31.2400 637.0000 1.0000
31.2500 673.0000 1.0000
31.2600 633.0000 1.0000
31.2700 665.0000 1.0000
31.2800 727.0000 1.0000
31.2900 663.0000 1.0000
31.3000 659.0000 1.0000
31.3100 667.0000 1.0000
31.3200 666.0000 1.0000
31.3300 661.0000 1.0000
31.3400 693.0000 1.0000
31.3500 631.0000 1.0000
31.3600 687.0000 1.0000
31.3700 639.0000 1.0000
31.3800 669.0000 1.0000
31.3900 630.0000 1.0000
31.4000 632.0000 1.0000
31.4100 628.0000 1.0000
31.4200 611.0000 1.0000
31.4300 638.0000 1.0000
31.4400 656.0000 1.0000
31.4500 644.0000 1.0000
31.4600 659.0000 1.0000
31.4700 701.0000 1.0000
31.4800 659.0000 1.0000
31.4900 597.0000 1.0000
31.5000 656.0000 1.0000
31.5100 676.0000 1.0000
31.5200 629.0000 1.0000
31.5300 673.0000 1.0000
31.5400 694.0000 1.0000
31.5500 690.0000 1.0000
31.5600 646.0000 1.0000
31.5700 641.0000 1.0000
31.5800 688.0000 1.0000
31.5900 679.0000 1.0000
31.6000 685.0000 1.0000
31.6100 653.0000 1.0000
31.6200 662.0000 1.0000
31.6300 659.0000 1.0000
31.6400 660.0000 1.0000
31.6500 657.0000 1.0000
31.6600 646.0000 1.0000
31.6700 682.0000 1.0000
31.6800 673.0000 1.0000
31.6900 640.0000 1.0000
31.7000 637.0000 1.0000
31.7100 626.0000 1.0000
31.7200 648.0000 1.0000
31.7300 664.0000 1.0000
31.7400 654.0000 1.0000
31.7500 646.0000 1.0000
31.7600 653.0000 1.0000
31.7700 640.0000 1.0000
31.7800 665.0000 1.0000
31.7900 633.0000 1.0000
31.8000 624.0000 1.0000
31.8100 654.0000 1.0000
31.8200 664.0000 1.0000
31.8300 631.0000 1.0000
31.8400 618.0000 1.0000
31.8500 663.0000 1.0000
31.8600 674.0000 1.0000
31.8700 633.0000 1.0000
31.8800 628.0000 1.0000
31.8900 644.0000 1.0000
31.9000 622.0000 1.0000
31.9100 643.0000 1.0000
31.9200 643.0000 1.0000
31.9300 628.0000 1.0000
31.9400 596.0000 1.0000
31.9500 636.0000 1.0000
31.9600 630.0000 1.0000
31.9700 617.0000 1.0000
31.9800 644.0000 1.0000
31.9900 617.0000 1.0000
32.0000 617.0000 1.0000
32.0100 664.0000 1.0000
32.0200 659.0000 1.0000
32.0300 645.0000 1.0000
32.0400 644.0000 1.0000
32.0500 641.0000 1.0000
32.0600 612.0000 1.0000
32.0700 609.0000 1.0000
32.0800 611.0000 1.0000
32.0900 635.0000 1.0000
32.1000 624.0000 1.0000
32.1100 642.0000 1.0000
32.1200 660.0000 1.0000
32.1300 613.0000 1.0000
32.1400 601.0000 1.0000
32.1500 625.0000 1.0000
32.1600 603.0000 1.0000
32.1700 626.0000 1.0000
32.1800 604.0000 1.0000
32.1900 624.0000 1.0000
32.2000 586.0000 1.0000
32.2100 633.0000 1.0000
32.2200 662.0000 1.0000
32.2300 591.0000 1.0000
32.2400 632.0000 1.0000
32.2500 646.0000 1.0000
32.2600 604.0000 1.0000
32.2700 633.0000 1.0000
32.2800 618.0000 1.0000
32.2900 606.0000 1.0000
32.3000 634.0000 1.0000
32.3100 624.0000 1.0000
32.3200 663.0000 1.0000
32.3300 640.0000 1.0000
32.3400 596.0000 1.0000
32.3500 615.0000 1.0000
32.3600 616.0000 1.0000
32.3700 623.0000 1.0000
32.3800 601.0000 1.0000
32.3900 624.0000 1.0000
32.4000 608.0000 1.0000
32.4100 617.0000 1.0000
32.4200 627.0000 1.0000
32.4300 607.0000 1.0000
32.4400 624.0000 1.0000
32.4500 573.0000 1.0000
32.4600 641.0000 1.0000
32.4700 641.0000 1.0000
32.4800 663.0000 1.0000
32.4900 630.0000 1.0000
32.5000 603.0000 1.0000
32.5100 640.0000 1.0000
32.5200 616.0000 1.0000
32.5300 632.0000 1.0000
32.5400 607.0000 1.0000
32.5500 651.0000 1.0000
32.5600 609.0000 1.0000
32.5700 590.0000 1.0000
32.5800 586.0000 1.0000
32.5900 611.0000 1.0000
32.6000 608.0000 1.0000
32.6100 633.0000 1.0000
32.6200 663.0000 1.0000
32.6300 655.0000 1.0000
32.6400 623.0000 1.0000
32.6500 679.0000 1.0000
32.6600 666.0000 1.0000
32.6700 615.0000 1.0000
32.6800 633.0000 1.0000
32.6900 619.0000 1.0000
32.7000 606.0000 1.0000
32.7100 639.0000 1.0000
32.7200 607.0000 1.0000
32.7300 595.0000 1.0000
32.7400 609.0000 1.0000
32.7500 649.0000 1.0000
32.7600 672.0000 1.0000
32.7700 651.0000 1.0000
32.7800 601.0000 1.0000
32.7900 606.0000 1.0000
32.8000 646.0000 1.0000
32.8100 660.0000 1.0000
32.8200 621.0000 1.0000
32.8300 643.0000 1.0000
32.8400 620.0000 1.0000
32.8500 607.0000 1.0000
32.8600 639.0000 1.0000
32.8700 608.0000 1.0000
32.8800 651.0000 1.0000
32.8900 649.0000 1.0000
32.9000 653.0000 1.0000
32.9100 684.0000 1.0000
32.9200 623.0000 1.0000
32.9300 657.0000 1.0000
32.9400 663.0000 1.0000
32.9500 688.0000 1.0000
32.9600 660.0000 1.0000
32.9700 702.0000 1.0000
32.9800 703.0000 1.0000
32.9900 708.0000 1.0000
33.0000 672.0000 1.0000
33.0100 723.0000 1.0000
33.0200 699.0000 1.0000
33.0300 741.0000 1.0000
33.0400 783.0000 1.0000
33.0500 763.0000 1.0000
33.0600 773.0000 1.0000
33.0700 790.0000 1.0000
33.0800 784.0000 1.0000
33.0900 786.0000 1.0000
33.1000 788.0000 1.0000
33.1100 837.0000 1.0000
33.1200 804.0000 1.0000
33.1300 832.0000 1.0000
33.1400 773.0000 1.0000
33.1500 799.0000 1.0000
33.1600 798.0000 1.0000
33.1700 774.0000 1.0000
33.1800 785.0000 1.0000
33.1900 758.0000 1.0000
33.2000 785.0000 1.0000
33.2100 768.0000 1.0000
33.2200 757.0000 1.0000
33.2300 739.0000 1.0000
33.2400 701.0000 1.0000
33.2500 692.0000 1.0000
33.2600 721.0000 1.0000
33.2700 700.0000 1.0000
33.2800 691.0000 1.0000
33.2900 698.0000 1.0000
33.3000 729.0000 1.0000
33.3100 670.0000 1.0000
33.3200 709.0000 1.0000
33.3300 700.0000 1.0000
33.3400 665.0000 1.0000
33.3500 668.0000 1.0000
33.3600 692.0000 1.0000
33.3700 762.0000 1.0000
33.3800 726.0000 1.0000
33.3900 715.0000 1.0000
33.4000 751.0000 1.0000
33.4100 746.0000 1.0000
33.4200 745.0000 1.0000
33.4300 778.0000 1.0000
33.4400 810.0000 1.0000
33.4500 776.0000 1.0000
33.4600 807.0000 1.0000
33.4700 778.0000 1.0000
33.4800 830.0000 1.0000
33.4900 844.0000 1.0000
33.5000 864.0000 1.0000
33.5100 879.0000 1.0000
33.5200 920.0000 1.0000
33.5300 898.0000 1.0000
33.5400 968.0000 1.0000
33.5500 1013.0000 1.0000
33.5600 1006.0000 1.0000
33.5700 1084.0000 1.0000
33.5800 1073.0000 1.0000
33.5900 1229.0000 1.0000
33.6000 1210.0000 1.0000
33.6100 1274.0000 1.0000
33.6200 1325.0000 1.0000
33.6300 1342.0000 1.0000
33.6400 1351.0000 1.0000
33.6500 1377.0000 1.0000
33.6600 1312.0000 1.0000
33.6700 1380.0000 1.0000
33.6800 1351.0000 1.0000
33.6900 1381.0000 1.0000
33.7000 1339.0000 1.0000
33.7100 1313.0000 1.0000
33.7200 1325.0000 1.0000
33.7300 1244.0000 1.0000
33.7400 1194.0000 1.0000
33.7500 1171.0000 1.0000
33.7600 1129.0000 1.0000
33.7700 1104.0000 1.0000
33.7800 1078.0000 1.0000
33.7900 1040.0000 1.0000
33.8000 971.0000 1.0000
33.8100 913.0000 1.0000
33.8200 934.0000 1.0000
33.8300 889.0000 1.0000
33.8400 866.0000 1.0000
33.8500 847.0000 1.0000
33.8600 802.0000 1.0000
33.8700 790.0000 1.0000
33.8800 779.0000 1.0000
33.8900 742.0000 1.0000
33.9000 733.0000 1.0000
33.9100 764.0000 1.0000
33.9200 753.0000 1.0000
33.9300 646.0000 1.0000
33.9400 635.0000 1.0000
33.9500 692.0000 1.0000
33.9600 735.0000 1.0000
33.9700 698.0000 1.0000
33.9800 678.0000 1.0000
33.9900 642.0000 1.0000
34.0000 640.0000 1.0000
34.0100 645.0000 1.0000
34.0200 637.0000 1.0000
34.0300 672.0000 1.0000
34.0400 639.0000 1.0000
34.0500 637.0000 1.0000
34.0600 635.0000 1.0000
34.0700 615.0000 1.0000
34.0800 612.0000 1.0000
34.0900 631.0000 1.0000
34.1000 605.0000 1.0000
34.1100 620.0000 1.0000
34.1200 640.0000 1.0000
34.1300 650.0000 1.0000
34.1400 566.0000 1.0000
34.1500 590.0000 1.0000
34.1600 563.0000 1.0000
34.1700 595.0000 1.0000
34.1800 581.0000 1.0000
34.1900 599.0000 1.0000
34.2000 621.0000 1.0000
34.2100 630.0000 1.0000
34.2200 619.0000 1.0000
34.2300 611.0000 1.0000
34.2400 583.0000 1.0000
34.2500 524.0000 1.0000
34.2600 560.0000 1.0000
34.2700 537.0000 1.0000
34.2800 600.0000 1.0000
34.2900 591.0000 1.0000
34.3000 594.0000 1.0000
34.3100 588.0000 1.0000
34.3200 602.0000 1.0000
34.3300 610.0000 1.0000
34.3400 545.0000 1.0000
34.3500 571.0000 1.0000
34.3600 580.0000 1.0000
34.3700 604.0000 1.0000
34.3800 598.0000 1.0000
34.3900 559.0000 1.0000
34.4000 603.0000 1.0000
34.4100 580.0000 1.0000
34.4200 594.0000 1.0000
34.4300 626.0000 1.0000
34.4400 572.0000 1.0000
34.4500 605.0000 1.0000
34.4600 580.0000 1.0000
34.4700 583.0000 1.0000
34.4800 547.0000 1.0000
34.4900 570.0000 1.0000
34.5000 517.0000 1.0000
34.5100 549.0000 1.0000
34.5200 570.0000 1.0000
34.5300 553.0000 1.0000
34.5400 593.0000 1.0000
34.5500 561.0000 1.0000
34.5600 592.0000 1.0000
34.5700 561.0000 1.0000
34.5800 589.0000 1.0000
34.5900 592.0000 1.0000
34.6000 582.0000 1.0000
34.6100 556.0000 1.0000
34.6200 580.0000 1.0000
34.6300 587.0000 1.0000
34.6400 545.0000 1.0000
34.6500 548.0000 1.0000
34.6600 539.0000 1.0000
34.6700 551.0000 1.0000
34.6800 592.0000 1.0000
34.6900 516.0000 1.0000
34.7000 560.0000 1.0000
34.7100 540.0000 1.0000
34.7200 539.0000 1.0000
34.7300 588.0000 1.0000
34.7400 553.0000 1.0000
34.7500 567.0000 1.0000
34.7600 559.0000 1.0000
34.7700 562.0000 1.0000
34.7800 540.0000 1.0000
34.7900 547.0000 1.0000
34.8000 527.0000 1.0000
34.8100 542.0000 1.0000
34.8200 578.0000 1.0000
34.8300 546.0000 1.0000
34.8400 584.0000 1.0000
34.8500 549.0000 1.0000
34.8600 534.0000 1.0000
34.8700 552.0000 1.0000
34.8800 540.0000 1.0000
34.8900 537.0000 1.0000
34.9000 557.0000 1.0000
34.9100 520.0000 1.0000
34.9200 509.0000 1.0000
34.9300 522.0000 1.0000
34.9400 538.0000 1.0000
34.9500 567.0000 1.0000
34.9600 541.0000 1.0000
34.9700 543.0000 1.0000
34.9800 546.0000 1.0000
34.9900 540.0000 1.0000
35.0000 528.0000 1.0000
35.0100 545.0000 1.0000
35.0200 521.0000 1.0000
35.0300 527.0000 1.0000
35.0400 542.0000 1.0000
35.0500 566.0000 1.0000
35.0600 542.0000 1.0000
35.0700 548.0000 1.0000
35.0800 559.0000 1.0000
35.0900 570.0000 1.0000
35.1000 555.0000 1.0000
35.1100 564.0000 1.0000
35.1200 521.0000 1.0000
35.1300 551.0000 1.0000
35.1400 498.0000 1.0000
35.1500 567.0000 1.0000
35.1600 542.0000 1.0000
35.1700 559.0000 1.0000
35.1800 548.0000 1.0000
35.1900 567.0000 1.0000
35.2000 564.0000 1.0000
35.2100 550.0000 1.0000
35.2200 539.0000 1.0000
35.2300 548.0000 1.0000
35.2400 568.0000 1.0000
35.2500 558.0000 1.0000
35.2600 559.0000 1.0000
35.2700 548.0000 1.0000
35.2800 567.0000 1.0000
35.2900 597.0000 1.0000
35.3000 564.0000 1.0000
35.3100 598.0000 1.0000
35.3200 581.0000 1.0000
35.3300 592.0000 1.0000
35.3400 590.0000 1.0000
35.3500 565.0000 1.0000
35.3600 601.0000 1.0000
35.3700 661.0000 1.0000
35.3800 625.0000 1.0000
35.3900 607.0000 1.0000
35.4000 590.0000 1.0000
35.4100 687.0000 1.0000
35.4200 672.0000 1.0000
35.4300 723.0000 1.0000
35.4400 722.0000 1.0000
35.4500 720.0000 1.0000
35.4600 718.0000 1.0000
35.4700 740.0000 1.0000
35.4800 821.0000 1.0000
35.4900 845.0000 1.0000
35.5000 869.0000 1.0000
35.5100 964.0000 1.0000
35.5200 993.0000 1.0000
35.5300 1074.0000 1.0000
35.5400 1109.0000 1.0000
35.5500 1156.0000 1.0000
35.5600 1141.0000 1.0000
35.5700 1201.0000 1.0000
35.5800 1218.0000 1.0000
35.5900 1218.0000 1.0000
35.6000 1168.0000 1.0000
35.6100 1110.0000 1.0000
35.6200 1135.0000 1.0000
35.6300 1087.0000 1.0000
35.6400 1048.0000 1.0000
35.6500 1006.0000 1.0000
35.6600 914.0000 1.0000
35.6700 894.0000 1.0000
35.6800 951.0000 1.0000
35.6900 865.0000 1.0000
35.7000 879.0000 1.0000
35.7100 795.0000 1.0000
35.7200 789.0000 1.0000
35.7300 688.0000 1.0000
35.7400 691.0000 1.0000
35.7500 686.0000 1.0000
35.7600 643.0000 1.0000
35.7700 619.0000 1.0000
35.7800 605.0000 1.0000
35.7900 579.0000 1.0000
35.8000 579.0000 1.0000
35.8100 580.0000 1.0000
35.8200 603.0000 1.0000
35.8300 576.0000 1.0000
35.8400 532.0000 1.0000
35.8500 554.0000 1.0000
35.8600 579.0000 1.0000
35.8700 538.0000 1.0000
35.8800 511.0000 1.0000
35.8900 557.0000 1.0000
35.9000 536.0000 1.0000
35.9100 492.0000 1.0000
35.9200 544.0000 1.0000
35.9300 532.0000 1.0000
35.9400 480.0000 1.0000
35.9500 504.0000 1.0000
35.9600 545.0000 1.0000
35.9700 508.0000 1.0000
35.9800 521.0000 1.0000
35.9900 510.0000 1.0000
36.0000 494.0000 1.0000
36.0100 554.0000 1.0000
36.0200 494.0000 1.0000
36.0300 526.0000 1.0000
36.0400 555.0000 1.0000
36.0500 541.0000 1.0000
36.0600 471.0000 1.0000
36.0700 509.0000 1.0000
36.0800 495.0000 1.0000
36.0900 486.0000 1.0000
36.1000 528.0000 1.0000
36.1100 511.0000 1.0000
36.1200 491.0000 1.0000
36.1300 488.0000 1.0000
36.1400 488.0000 1.0000
36.1500 501.0000 1.0000
36.1600 533.0000 1.0000
36.1700 515.0000 1.0000
36.1800 521.0000 1.0000
36.1900 522.0000 1.0000
36.2000 477.0000 1.0000
36.2100 492.0000 1.0000
36.2200 526.0000 1.0000
36.2300 509.0000 1.0000
36.2400 528.0000 1.0000
36.2500 509.0000 1.0000
36.2600 496.0000 1.0000
36.2700 494.0000 1.0000
36.2800 525.0000 1.0000
36.2900 515.0000 1.0000
36.3000 464.0000 1.0000
36.3100 471.0000 1.0000
36.3200 483.0000 1.0000
36.3300 523.0000 1.0000
36.3400 522.0000 1.0000
36.3500 505.0000 1.0000
36.3600 529.0000 1.0000
36.3700 530.0000 1.0000
36.3800 540.0000 1.0000
36.3900 527.0000 1.0000
36.4000 526.0000 1.0000
36.4100 513.0000 1.0000
36.4200 513.0000 1.0000
36.4300 478.0000 1.0000
36.4400 496.0000 1.0000
36.4500 518.0000 1.0000
36.4600 500.0000 1.0000
36.4700 508.0000 1.0000
36.4800 505.0000 1.0000
36.4900 516.0000 1.0000
36.5000 473.0000 1.0000
36.5100 504.0000 1.0000
36.5200 540.0000 1.0000
36.5300 515.0000 1.0000
36.5400 509.0000 1.0000
36.5500 475.0000 1.0000
36.5600 512.0000 1.0000
36.5700 508.0000 1.0000
36.5800 493.0000 1.0000
36.5900 482.0000 1.0000
36.6000 467.0000 1.0000
36.6100 495.0000 1.0000
36.6200 497.0000 1.0000
36.6300 475.0000 1.0000
36.6400 536.0000 1.0000
36.6500 518.0000 1.0000
36.6600 487.0000 1.0000
36.6700 501.0000 1.0000
36.6800 470.0000 1.0000
36.6900 518.0000 1.0000
36.7000 497.0000 1.0000
36.7100 510.0000 1.0000
36.7200 490.0000 1.0000
36.7300 482.0000 1.0000
36.7400 480.0000 1.0000
36.7500 520.0000 1.0000
36.7600 539.0000 1.0000
36.7700 487.0000 1.0000
36.7800 493.0000 1.0000
36.7900 488.0000 1.0000
36.8000 461.0000 1.0000
36.8100 480.0000 1.0000
36.8200 474.0000 1.0000
36.8300 494.0000 1.0000
36.8400 472.0000 1.0000
36.8500 493.0000 1.0000
36.8600 485.0000 1.0000
36.8700 498.0000 1.0000
36.8800 473.0000 1.0000
36.8900 544.0000 1.0000
36.9000 526.0000 1.0000
36.9100 494.0000 1.0000
36.9200 535.0000 1.0000
36.9300 525.0000 1.0000
36.9400 500.0000 1.0000
36.9500 512.0000 1.0000
36.9600 502.0000 1.0000
36.9700 520.0000 1.0000
36.9800 507.0000 1.0000
36.9900 482.0000 1.0000
37.0000 497.0000 1.0000
37.0100 523.0000 1.0000
37.0200 532.0000 1.0000
37.0300 526.0000 1.0000
37.0400 511.0000 1.0000
37.0500 504.0000 1.0000
37.0600 477.0000 1.0000
37.0700 475.0000 1.0000
37.0800 494.0000 1.0000
37.0900 528.0000 1.0000
37.1000 484.0000 1.0000
37.1100 486.0000 1.0000
37.1200 495.0000 1.0000
37.1300 480.0000 1.0000
37.1400 497.0000 1.0000
37.1500 505.0000 1.0000
37.1600 506.0000 1.0000
37.1700 483.0000 1.0000
37.1800 509.0000 1.0000
37.1900 521.0000 1.0000
37.2000 496.0000 1.0000
37.2100 517.0000 1.0000
37.2200 540.0000 1.0000
37.2300 530.0000 1.0000
37.2400 551.0000 1.0000
37.2500 527.0000 1.0000
37.2600 503.0000 1.0000
37.2700 507.0000 1.0000
37.2800 531.0000 1.0000
37.2900 520.0000 1.0000
37.3000 529.0000 1.0000
37.3100 579.0000 1.0000
37.3200 554.0000 1.0000
37.3300 565.0000 1.0000
37.3400 586.0000 1.0000
37.3500 573.0000 1.0000
37.3600 573.0000 1.0000
37.3700 611.0000 1.0000
37.3800 614.0000 1.0000
37.3900 635.0000 1.0000
37.4000 631.0000 1.0000
37.4100 618.0000 1.0000
37.4200 663.0000 1.0000
37.4300 681.0000 1.0000
37.4400 716.0000 1.0000
37.4500 654.0000 1.0000
37.4600 699.0000 1.0000
37.4700 709.0000 1.0000
37.4800 747.0000 1.0000
37.4900 784.0000 1.0000
37.5000 800.0000 1.0000
37.5100 835.0000 1.0000
37.5200 921.0000 1.0000
37.5300 918.0000 1.0000
37.5400 913.0000 1.0000
37.5500 996.0000 1.0000
37.5600 1077.0000 1.0000
37.5700 1130.0000 1.0000
37.5800 1188.0000 1.0000
37.5900 1279.0000 1.0000
37.6000 1335.0000 1.0000
37.6100 1393.0000 1.0000
37.6200 1504.0000 1.0000
37.6300 1602.0000 1.0000
37.6400 1693.0000 1.0000
37.6500 1753.0000 1.0000
37.6600 1842.0000 1.0000
37.6700 1895.0000 1.0000
37.6800 1999.0000 1.0000
37.6900 2000.0000 1.0000
37.7000 2010.0000 1.0000
37.7100 2031.0000 1.0000
37.7200 2032.0000 1.0000
37.7300 2086.0000 1.0000
37.7400 2030.0000 1.0000
37.7500 2033.0000 1.0000
37.7600 1962.0000 1.0000
37.7700 1911.0000 1.0000
37.7800 1843.0000 1.0000
37.7900 1842.0000 1.0000
37.8000 1784.0000 1.0000
37.8100 1660.0000 1.0000
37.8200 1608.0000 1.0000
37.8300 1559.0000 1.0000
37.8400 1478.0000 1.0000
37.8500 1389.0000 1.0000
37.8600 1272.0000 1.0000
37.8700 1225.0000 1.0000
37.8800 1195.0000 1.0000
37.8900 1137.0000 1.0000
37.9000 1075.0000 1.0000
37.9100 1058.0000 1.0000
37.9200 1026.0000 1.0000
37.9300 884.0000 1.0000
37.9400 885.0000 1.0000
37.9500 804.0000 1.0000
37.9600 818.0000 1.0000
37.9700 781.0000 1.0000
37.9800 729.0000 1.0000
37.9900 784.0000 1.0000
38.0000 699.0000 1.0000
38.0100 703.0000 1.0000
38.0200 672.0000 1.0000
38.0300 605.0000 1.0000
38.0400 600.0000 1.0000
38.0500 583.0000 1.0000
38.0600 618.0000 1.0000
38.0700 605.0000 1.0000
38.0800 611.0000 1.0000
38.0900 593.0000 1.0000
38.1000 590.0000 1.0000
38.1100 523.0000 1.0000
38.1200 528.0000 1.0000
38.1300 547.0000 1.0000
38.1400 509.0000 1.0000
38.1500 501.0000 1.0000
38.1600 519.0000 1.0000
38.1700 535.0000 1.0000
38.1800 525.0000 1.0000
38.1900 510.0000 1.0000
38.2000 536.0000 1.0000
38.2100 515.0000 1.0000
38.2200 497.0000 1.0000
38.2300 511.0000 1.0000
38.2400 484.0000 1.0000
38.2500 497.0000 1.0000
38.2600 477.0000 1.0000
38.2700 501.0000 1.0000
38.2800 490.0000 1.0000
38.2900 490.0000 1.0000
38.3000 511.0000 1.0000
38.3100 515.0000 1.0000
38.3200 483.0000 1.0000
38.3300 496.0000 1.0000
38.3400 493.0000 1.0000
38.3500 465.0000 1.0000
38.3600 442.0000 1.0000
38.3700 478.0000 1.0000
38.3800 497.0000 1.0000
38.3900 516.0000 1.0000
38.4000 469.0000 1.0000
38.4100 456.0000 1.0000
38.4200 458.0000 1.0000
38.4300 482.0000 1.0000
38.4400 440.0000 1.0000
38.4500 482.0000 1.0000
38.4600 496.0000 1.0000
38.4700 453.0000 1.0000
38.4800 473.0000 1.0000
38.4900 493.0000 1.0000
38.5000 443.0000 1.0000
38.5100 469.0000 1.0000
38.5200 470.0000 1.0000
38.5300 462.0000 1.0000
38.5400 475.0000 1.0000
38.5500 435.0000 1.0000
38.5600 435.0000 1.0000
38.5700 475.0000 1.0000
38.5800 473.0000 1.0000
38.5900 442.0000 1.0000
38.6000 481.0000 1.0000
38.6100 487.0000 1.0000
38.6200 477.0000 1.0000
38.6300 490.0000 1.0000
38.6400 469.0000 1.0000
38.6500 482.0000 1.0000
38.6600 442.0000 1.0000
38.6700 464.0000 1.0000
38.6800 456.0000 1.0000
38.6900 493.0000 1.0000
38.7000 480.0000 1.0000
38.7100 478.0000 1.0000
38.7200 491.0000 1.0000
38.7300 446.0000 1.0000
38.7400 489.0000 1.0000
38.7500 485.0000 1.0000
38.7600 480.0000 1.0000
38.7700 442.0000 1.0000
38.7800 450.0000 1.0000
38.7900 478.0000 1.0000
38.8000 435.0000 1.0000
38.8100 479.0000 1.0000
38.8200 469.0000 1.0000
38.8300 471.0000 1.0000
38.8400 438.0000 1.0000
38.8500 457.0000 1.0000
38.8600 483.0000 1.0000
38.8700 465.0000 1.0000
38.8800 471.0000 1.0000
38.8900 491.0000 1.0000
38.9000 502.0000 1.0000
38.9100 472.0000 1.0000
38.9200 465.0000 1.0000
38.9300 443.0000 1.0000
38.9400 469.0000 1.0000
38.9500 445.0000 1.0000
38.9600 468.0000 1.0000
38.9700 468.0000 1.0000
38.9800 475.0000 1.0000
38.9900 464.0000 1.0000
39.0000 447.0000 1.0000
39.0100 433.0000 1.0000
39.0200 396.0000 1.0000
39.0300 408.0000 1.0000
39.0400 410.0000 1.0000
39.0500 422.0000 1.0000
39.0600 418.0000 1.0000
39.0700 464.0000 1.0000
39.0800 455.0000 1.0000
39.0900 451.0000 1.0000
39.1000 438.0000 1.0000
39.1100 464.0000 1.0000
39.1200 450.0000 1.0000
39.1300 432.0000 1.0000
39.1400 417.0000 1.0000
39.1500 433.0000 1.0000
39.1600 443.0000 1.0000
39.1700 440.0000 1.0000
39.1800 452.0000 1.0000
39.1900 444.0000 1.0000
39.2000 446.0000 1.0000
39.2100 471.0000 1.0000
39.2200 448.0000 1.0000
39.2300 447.0000 1.0000
39.2400 406.0000 1.0000
39.2500 423.0000 1.0000
39.2600 431.0000 1.0000
39.2700 436.0000 1.0000
39.2800 437.0000 1.0000
39.2900 470.0000 1.0000
39.3000 438.0000 1.0000
39.3100 424.0000 1.0000
39.3200 428.0000 1.0000
39.3300 430.0000 1.0000
39.3400 415.0000 1.0000
39.3500 429.0000 1.0000
39.3600 427.0000 1.0000
39.3700 401.0000 1.0000
39.3800 434.0000 1.0000
39.3900 456.0000 1.0000
39.4000 398.0000 1.0000
39.4100 411.0000 1.0000
39.4200 456.0000 1.0000
39.4300 411.0000 1.0000
39.4400 451.0000 1.0000
39.4500 456.0000 1.0000
39.4600 451.0000 1.0000
39.4700 454.0000 1.0000
39.4800 439.0000 1.0000
39.4900 464.0000 1.0000
39.5000 451.0000 1.0000
39.5100 417.0000 1.0000
39.5200 431.0000 1.0000
39.5300 441.0000 1.0000
39.5400 431.0000 1.0000
39.5500 437.0000 1.0000
39.5600 445.0000 1.0000
39.5700 384.0000 1.0000
39.5800 413.0000 1.0000
39.5900 401.0000 1.0000
39.6000 452.0000 1.0000
39.6100 458.0000 1.0000
39.6200 394.0000 1.0000
39.6300 443.0000 1.0000
39.6400 452.0000 1.0000
39.6500 455.0000 1.0000
39.6600 427.0000 1.0000
39.6700 444.0000 1.0000
39.6800 438.0000 1.0000
39.6900 409.0000 1.0000
39.7000 390.0000 1.0000
39.7100 428.0000 1.0000
39.7200 427.0000 1.0000
39.7300 439.0000 1.0000
39.7400 440.0000 1.0000
39.7500 436.0000 1.0000
39.7600 403.0000 1.0000
39.7700 437.0000 1.0000
39.7800 443.0000 1.0000
39.7900 406.0000 1.0000
39.8000 423.0000 1.0000
39.8100 456.0000 1.0000
39.8200 419.0000 1.0000
39.8300 429.0000 1.0000
39.8400 429.0000 1.0000
39.8500 406.0000 1.0000
39.8600 440.0000 1.0000
39.8700 428.0000 1.0000
39.8800 395.0000 1.0000
39.8900 412.0000 1.0000
39.9000 406.0000 1.0000
39.9100 435.0000 1.0000
39.9200 425.0000 1.0000
39.9300 422.0000 1.0000
39.9400 431.0000 1.0000
39.9500 400.0000 1.0000
39.9600 407.0000 1.0000
39.9700 423.0000 1.0000
39.9800 409.0000 1.0000
39.9900 460.0000 1.0000
40.0000 457.0000 1.0000
40.0100 458.0000 1.0000
40.0200 439.0000 1.0000
40.0300 430.0000 1.0000
40.0400 408.0000 1.0000
40.0500 446.0000 1.0000
40.0600 402.0000 1.0000
40.0700 422.0000 1.0000
40.0800 437.0000 1.0000
40.0900 432.0000 1.0000
40.1000 417.0000 1.0000
40.1100 416.0000 1.0000
40.1200 418.0000 1.0000
40.1300 430.0000 1.0000
40.1400 418.0000 1.0000
40.1500 442.0000 1.0000
40.1600 459.0000 1.0000
40.1700 426.0000 1.0000
40.1800 413.0000 1.0000
40.1900 401.0000 1.0000
40.2000 453.0000 1.0000
40.2100 458.0000 1.0000
40.2200 402.0000 1.0000
40.2300 432.0000 1.0000
40.2400 409.0000 1.0000
40.2500 405.0000 1.0000
40.2600 440.0000 1.0000
40.2700 428.0000 1.0000
40.2800 439.0000 1.0000
40.2900 459.0000 1.0000
40.3000 390.0000 1.0000
40.3100 412.0000 1.0000
40.3200 421.0000 1.0000
40.3300 419.0000 1.0000
40.3400 429.0000 1.0000
40.3500 409.0000 1.0000
40.3600 398.0000 1.0000
40.3700 430.0000 1.0000
40.3800 451.0000 1.0000
40.3900 436.0000 1.0000
40.4000 391.0000 1.0000
40.4100 424.0000 1.0000
40.4200 427.0000 1.0000
40.4300 418.0000 1.0000
40.4400 430.0000 1.0000
40.4500 405.0000 1.0000
40.4600 388.0000 1.0000
40.4700 424.0000 1.0000
40.4800 408.0000 1.0000
40.4900 464.0000 1.0000
40.5000 448.0000 1.0000
40.5100 429.0000 1.0000
40.5200 433.0000 1.0000
40.5300 436.0000 1.0000
40.5400 438.0000 1.0000
40.5500 434.0000 1.0000
40.5600 486.0000 1.0000
40.5700 424.0000 1.0000
40.5800 432.0000 1.0000
40.5900 439.0000 1.0000
40.6000 429.0000 1.0000
40.6100 418.0000 1.0000
40.6200 438.0000 1.0000
40.6300 434.0000 1.0000
40.6400 407.0000 1.0000
40.6500 438.0000 1.0000
40.6600 450.0000 1.0000
40.6700 443.0000 1.0000
40.6800 431.0000 1.0000
40.6900 449.0000 1.0000
40.7000 435.0000 1.0000
40.7100 442.0000 1.0000
40.7200 432.0000 1.0000
40.7300 442.0000 1.0000
40.7400 464.0000 1.0000
40.7500 474.0000 1.0000
40.7600 436.0000 1.0000
40.7700 454.0000 1.0000
40.7800 494.0000 1.0000
40.7900 514.0000 1.0000
40.8000 484.0000 1.0000
40.8100 463.0000 1.0000
40.8200 463.0000 1.0000
40.8300 465.0000 1.0000
40.8400 487.0000 1.0000
40.8500 475.0000 1.0000
40.8600 465.0000 1.0000
40.8700 446.0000 1.0000
40.8800 432.0000 1.0000
40.8900 413.0000 1.0000
40.9000 451.0000 1.0000
40.9100 456.0000 1.0000
40.9200 441.0000 1.0000
40.9300 445.0000 1.0000
40.9400 433.0000 1.0000
40.9500 421.0000 1.0000
40.9600 442.0000 1.0000
40.9700 408.0000 1.0000
40.9800 432.0000 1.0000
40.9900 446.0000 1.0000
41.0000 443.0000 1.0000
41.0100 426.0000 1.0000
41.0200 443.0000 1.0000
41.0300 440.0000 1.0000
41.0400 417.0000 1.0000
41.0500 420.0000 1.0000
41.0600 418.0000 1.0000
41.0700 394.0000 1.0000
41.0800 408.0000 1.0000
41.0900 416.0000 1.0000
41.1000 403.0000 1.0000
41.1100 417.0000 1.0000
41.1200 442.0000 1.0000
41.1300 421.0000 1.0000
41.1400 421.0000 1.0000
41.1500 433.0000 1.0000
41.1600 410.0000 1.0000
41.1700 404.0000 1.0000
41.1800 400.0000 1.0000
41.1900 405.0000 1.0000
41.2000 416.0000 1.0000
41.2100 426.0000 1.0000
41.2200 384.0000 1.0000
41.2300 427.0000 1.0000
41.2400 397.0000 1.0000
41.2500 412.0000 1.0000
41.2600 443.0000 1.0000
41.2700 407.0000 1.0000
41.2800 376.0000 1.0000
41.2900 401.0000 1.0000
41.3000 408.0000 1.0000
41.3100 408.0000 1.0000
41.3200 421.0000 1.0000
41.3300 432.0000 1.0000
41.3400 429.0000 1.0000
41.3500 439.0000 1.0000
41.3600 417.0000 1.0000
41.3700 398.0000 1.0000
41.3800 396.0000 1.0000
41.3900 402.0000 1.0000
41.4000 420.0000 1.0000
41.4100 407.0000 1.0000
41.4200 401.0000 1.0000
41.4300 424.0000 1.0000
41.4400 400.0000 1.0000
41.4500 434.0000 1.0000
41.4600 412.0000 1.0000
41.4700 406.0000 1.0000
41.4800 441.0000 1.0000
41.4900 444.0000 1.0000
41.5000 410.0000 1.0000
41.5100 382.0000 1.0000
41.5200 439.0000 1.0000
41.5300 413.0000 1.0000
41.5400 406.0000 1.0000
41.5500 395.0000 1.0000
41.5600 395.0000 1.0000
41.5700 392.0000 1.0000
41.5800 407.0000 1.0000
41.5900 430.0000 1.0000
41.6000 428.0000 1.0000
41.6100 421.0000 1.0000
41.6200 419.0000 1.0000
41.6300 391.0000 1.0000
41.6400 420.0000 1.0000
41.6500 399.0000 1.0000
41.6600 430.0000 1.0000
41.6700 418.0000 1.0000
41.6800 414.0000 1.0000
41.6900 382.0000 1.0000
41.7000 412.0000 1.0000
41.7100 400.0000 1.0000
41.7200 426.0000 1.0000
41.7300 401.0000 1.0000
41.7400 401.0000 1.0000
41.7500 410.0000 1.0000
41.7600 400.0000 1.0000
41.7700 421.0000 1.0000
41.7800 424.0000 1.0000
41.7900 424.0000 1.0000
41.8000 416.0000 1.0000
41.8100 416.0000 1.0000
41.8200 408.0000 1.0000
41.8300 417.0000 1.0000
41.8400 406.0000 1.0000
41.8500 425.0000 1.0000
41.8600 407.0000 1.0000
41.8700 384.0000 1.0000
41.8800 408.0000 1.0000
41.8900 417.0000 1.0000
41.9000 401.0000 1.0000
41.9100 398.0000 1.0000
41.9200 411.0000 1.0000
41.9300 436.0000 1.0000
41.9400 404.0000 1.0000
41.9500 442.0000 1.0000
41.9600 392.0000 1.0000
41.9700 403.0000 1.0000
41.9800 404.0000 1.0000
41.9900 416.0000 1.0000
42.0000 404.0000 1.0000
42.0100 408.0000 1.0000
42.0200 411.0000 1.0000
42.0300 409.0000 1.0000
42.0400 454.0000 1.0000
42.0500 416.0000 1.0000
42.0600 414.0000 1.0000
42.0700 418.0000 1.0000
42.0800 397.0000 1.0000
42.0900 383.0000 1.0000
42.1000 408.0000 1.0000
42.1100 408.0000 1.0000
42.1200 464.0000 1.0000
42.1300 378.0000 1.0000
42.1400 418.0000 1.0000
42.1500 394.0000 1.0000
42.1600 399.0000 1.0000
42.1700 389.0000 1.0000
42.1800 389.0000 1.0000
42.1900 360.0000 1.0000
42.2000 394.0000 1.0000
42.2100 399.0000 1.0000
42.2200 388.0000 1.0000
42.2300 407.0000 1.0000
42.2400 400.0000 1.0000
42.2500 417.0000 1.0000
42.2600 418.0000 1.0000
42.2700 426.0000 1.0000
42.2800 427.0000 1.0000
42.2900 426.0000 1.0000
42.3000 459.0000 1.0000
42.3100 437.0000 1.0000
42.3200 426.0000 1.0000
42.3300 448.0000 1.0000
42.3400 417.0000 1.0000
42.3500 410.0000 1.0000
42.3600 436.0000 1.0000
42.3700 441.0000 1.0000
42.3800 429.0000 1.0000
42.3900 430.0000 1.0000
42.4000 453.0000 1.0000
42.4100 453.0000 1.0000
42.4200 430.0000 1.0000
42.4300 442.0000 1.0000
42.4400 421.0000 1.0000
42.4500 449.0000 1.0000
42.4600 411.0000 1.0000
42.4700 446.0000 1.0000
42.4800 421.0000 1.0000
42.4900 439.0000 1.0000
42.5000 435.0000 1.0000
42.5100 407.0000 1.0000
42.5200 407.0000 1.0000
42.5300 405.0000 1.0000
42.5400 449.0000 1.0000
42.5500 420.0000 1.0000
42.5600 409.0000 1.0000
42.5700 433.0000 1.0000
42.5800 408.0000 1.0000
42.5900 410.0000 1.0000
42.6000 445.0000 1.0000
42.6100 396.0000 1.0000
42.6200 419.0000 1.0000
42.6300 426.0000 1.0000
42.6400 389.0000 1.0000
42.6500 409.0000 1.0000
42.6600 449.0000 1.0000
42.6700 436.0000 1.0000
42.6800 416.0000 1.0000
42.6900 445.0000 1.0000
42.7000 384.0000 1.0000
42.7100 386.0000 1.0000
42.7200 425.0000 1.0000
42.7300 410.0000 1.0000
42.7400 431.0000 1.0000
42.7500 425.0000 1.0000
42.7600 410.0000 1.0000
42.7700 422.0000 1.0000
42.7800 390.0000 1.0000
42.7900 401.0000 1.0000
42.8000 379.0000 1.0000
42.8100 404.0000 1.0000
42.8200 380.0000 1.0000
42.8300 393.0000 1.0000
42.8400 394.0000 1.0000
42.8500 405.0000 1.0000
42.8600 391.0000 1.0000
42.8700 421.0000 1.0000
42.8800 420.0000 1.0000
42.8900 407.0000 1.0000
42.9000 404.0000 1.0000
42.9100 397.0000 1.0000
42.9200 418.0000 1.0000
42.9300 364.0000 1.0000
42.9400 399.0000 1.0000
42.9500 395.0000 1.0000
42.9600 361.0000 1.0000
42.9700 381.0000 1.0000
42.9800 388.0000 1.0000
42.9900 388.0000 1.0000
43.0000 430.0000 1.0000
43.0100 382.0000 1.0000
43.0200 416.0000 1.0000
43.0300 422.0000 1.0000
43.0400 403.0000 1.0000
43.0500 392.0000 1.0000
43.0600 416.0000 1.0000
43.0700 404.0000 1.0000
43.0800 431.0000 1.0000
43.0900 393.0000 1.0000
43.1000 441.0000 1.0000
43.1100 429.0000 1.0000
43.1200 403.0000 1.0000
43.1300 409.0000 1.0000
43.1400 400.0000 1.0000
43.1500 384.0000 1.0000
43.1600 407.0000 1.0000
43.1700 445.0000 1.0000
43.1800 403.0000 1.0000
43.1900 407.0000 1.0000
43.2000 409.0000 1.0000
43.2100 399.0000 1.0000
43.2200 422.0000 1.0000
43.2300 382.0000 1.0000
43.2400 395.0000 1.0000
43.2500 395.0000 1.0000
43.2600 424.0000 1.0000
43.2700 402.0000 1.0000
43.2800 410.0000 1.0000
43.2900 424.0000 1.0000
43.3000 403.0000 1.0000
43.3100 388.0000 1.0000
43.3200 386.0000 1.0000
43.3300 399.0000 1.0000
43.3400 405.0000 1.0000
43.3500 377.0000 1.0000
43.3600 381.0000 1.0000
43.3700 411.0000 1.0000
43.3800 399.0000 1.0000
43.3900 405.0000 1.0000
43.4000 376.0000 1.0000
43.4100 397.0000 1.0000
43.4200 419.0000 1.0000
43.4300 365.0000 1.0000
43.4400 398.0000 1.0000
43.4500 402.0000 1.0000
43.4600 421.0000 1.0000
43.4700 419.0000 1.0000
43.4800 433.0000 1.0000
43.4900 393.0000 1.0000
43.5000 409.0000 1.0000
43.5100 419.0000 1.0000
43.5200 376.0000 1.0000
43.5300 410.0000 1.0000
43.5400 392.0000 1.0000
43.5500 381.0000 1.0000
43.5600 404.0000 1.0000
43.5700 402.0000 1.0000
43.5800 375.0000 1.0000
43.5900 408.0000 1.0000
43.6000 433.0000 1.0000
43.6100 409.0000 1.0000
43.6200 418.0000 1.0000
43.6300 382.0000 1.0000
43.6400 375.0000 1.0000
43.6500 413.0000 1.0000
43.6600 412.0000 1.0000
43.6700 379.0000 1.0000
43.6800 386.0000 1.0000
43.6900 403.0000 1.0000
43.7000 409.0000 1.0000
43.7100 410.0000 1.0000
43.7200 399.0000 1.0000
43.7300 402.0000 1.0000
43.7400 397.0000 1.0000
43.7500 415.0000 1.0000
43.7600 389.0000 1.0000
43.7700 375.0000 1.0000
43.7800 398.0000 1.0000
43.7900 427.0000 1.0000
43.8000 373.0000 1.0000
43.8100 383.0000 1.0000
43.8200 400.0000 1.0000
43.8300 414.0000 1.0000
43.8400 415.0000 1.0000
43.8500 405.0000 1.0000
43.8600 372.0000 1.0000
43.8700 383.0000 1.0000
43.8800 389.0000 1.0000
43.8900 403.0000 1.0000
43.9000 401.0000 1.0000
43.9100 419.0000 1.0000
43.9200 409.0000 1.0000
43.9300 398.0000 1.0000
43.9400 371.0000 1.0000
43.9500 377.0000 1.0000
43.9600 383.0000 1.0000
43.9700 391.0000 1.0000
43.9800 349.0000 1.0000
43.9900 382.0000 1.0000
44.0000 442.0000 1.0000
44.0100 393.0000 1.0000
44.0200 392.0000 1.0000
44.0300 373.0000 1.0000
44.0400 385.0000 1.0000
44.0500 396.0000 1.0000
44.0600 410.0000 1.0000
44.0700 390.0000 1.0000
44.0800 401.0000 1.0000
44.0900 378.0000 1.0000
44.1000 373.0000 1.0000
44.1100 368.0000 1.0000
44.1200 396.0000 1.0000
44.1300 370.0000 1.0000
44.1400 371.0000 1.0000
44.1500 389.0000 1.0000
44.1600 379.0000 1.0000
44.1700 372.0000 1.0000
44.1800 387.0000 1.0000
44.1900 405.0000 1.0000
44.2000 403.0000 1.0000
44.2100 399.0000 1.0000
44.2200 408.0000 1.0000
44.2300 437.0000 1.0000
44.2400 394.0000 1.0000
44.2500 382.0000 1.0000
44.2600 365.0000 1.0000
44.2700 343.0000 1.0000
44.2800 383.0000 1.0000
44.2900 389.0000 1.0000
44.3000 408.0000 1.0000
44.3100 386.0000 1.0000
44.3200 404.0000 1.0000
44.3300 391.0000 1.0000
44.3400 382.0000 1.0000
44.3500 378.0000 1.0000
44.3600 377.0000 1.0000
44.3700 397.0000 1.0000
44.3800 399.0000 1.0000
44.3900 387.0000 1.0000
44.4000 355.0000 1.0000
44.4100 401.0000 1.0000
44.4200 366.0000 1.0000
44.4300 373.0000 1.0000
44.4400 374.0000 1.0000
44.4500 380.0000 1.0000
44.4600 362.0000 1.0000
44.4700 402.0000 1.0000
44.4800 383.0000 1.0000
44.4900 381.0000 1.0000
44.5000 375.0000 1.0000
44.5100 386.0000 1.0000
44.5200 381.0000 1.0000
44.5300 394.0000 1.0000
44.5400 392.0000 1.0000
44.5500 352.0000 1.0000
44.5600 404.0000 1.0000
44.5700 385.0000 1.0000
44.5800 370.0000 1.0000
44.5900 362.0000 1.0000
44.6000 388.0000 1.0000
44.6100 386.0000 1.0000
44.6200 378.0000 1.0000
44.6300 379.0000 1.0000
44.6400 388.0000 1.0000
44.6500 385.0000 1.0000
44.6600 383.0000 1.0000
44.6700 365.0000 1.0000
44.6800 386.0000 1.0000
44.6900 396.0000 1.0000
44.7000 382.0000 1.0000
44.7100 383.0000 1.0000
44.7200 382.0000 1.0000
44.7300 363.0000 1.0000
44.7400 370.0000 1.0000
44.7500 365.0000 1.0000
44.7600 356.0000 1.0000
44.7700 397.0000 1.0000
44.7800 384.0000 1.0000
44.7900 366.0000 1.0000
44.8000 379.0000 1.0000
44.8100 401.0000 1.0000
44.8200 371.0000 1.0000
44.8300 388.0000 1.0000
44.8400 387.0000 1.0000
44.8500 374.0000 1.0000
44.8600 356.0000 1.0000
44.8700 359.0000 1.0000
44.8800 375.0000 1.0000
44.8900 341.0000 1.0000
44.9000 345.0000 1.0000
44.9100 360.0000 1.0000
44.9200 376.0000 1.0000
44.9300 378.0000 1.0000
44.9400 379.0000 1.0000
44.9500 365.0000 1.0000
44.9600 382.0000 1.0000
44.9700 379.0000 1.0000
44.9800 400.0000 1.0000
44.9900 415.0000 1.0000
45.0000 363.0000 1.0000
45.0100 376.0000 1.0000
45.0200 387.0000 1.0000
45.0300 397.0000 1.0000
45.0400 355.0000 1.0000
45.0500 392.0000 1.0000
45.0600 379.0000 1.0000
45.0700 383.0000 1.0000
45.0800 417.0000 1.0000
45.0900 375.0000 1.0000
45.1000 355.0000 1.0000
45.1100 379.0000 1.0000
45.1200 358.0000 1.0000
45.1300 398.0000 1.0000
45.1400 402.0000 1.0000
45.1500 367.0000 1.0000
45.1600 357.0000 1.0000
45.1700 389.0000 1.0000
45.1800 389.0000 1.0000
45.1900 391.0000 1.0000
45.2000 390.0000 1.0000
45.2100 379.0000 1.0000
45.2200 359.0000 1.0000
45.2300 410.0000 1.0000
45.2400 396.0000 1.0000
45.2500 350.0000 1.0000
45.2600 385.0000 1.0000
45.2700 362.0000 1.0000
45.2800 363.0000 1.0000
45.2900 352.0000 1.0000
45.3000 383.0000 1.0000
45.3100 376.0000 1.0000
45.3200 380.0000 1.0000
45.3300 392.0000 1.0000
45.3400 404.0000 1.0000
45.3500 408.0000 1.0000
45.3600 414.0000 1.0000
45.3700 383.0000 1.0000
45.3800 390.0000 1.0000
45.3900 390.0000 1.0000
45.4000 375.0000 1.0000
45.4100 374.0000 1.0000
45.4200 359.0000 1.0000
45.4300 378.0000 1.0000
45.4400 377.0000 1.0000
45.4500 360.0000 1.0000
45.4600 379.0000 1.0000
45.4700 400.0000 1.0000
45.4800 379.0000 1.0000
45.4900 376.0000 1.0000
45.5000 405.0000 1.0000
45.5100 398.0000 1.0000
45.5200 352.0000 1.0000
45.5300 380.0000 1.0000
45.5400 367.0000 1.0000
45.5500 356.0000 1.0000
45.5600 379.0000 1.0000
45.5700 404.0000 1.0000
45.5800 398.0000 1.0000
45.5900 372.0000 1.0000
45.6000 395.0000 1.0000
45.6100 340.0000 1.0000
45.6200 365.0000 1.0000
45.6300 381.0000 1.0000
45.6400 369.0000 1.0000
45.6500 348.0000 1.0000
45.6600 372.0000 1.0000
45.6700 384.0000 1.0000
45.6800 383.0000 1.0000
45.6900 395.0000 1.0000
45.7000 387.0000 1.0000
45.7100 376.0000 1.0000
45.7200 361.0000 1.0000
45.7300 364.0000 1.0000
45.7400 368.0000 1.0000
45.7500 353.0000 1.0000
45.7600 369.0000 1.0000
45.7700 391.0000 1.0000
45.7800 375.0000 1.0000
45.7900 356.0000 1.0000
45.8000 357.0000 1.0000
45.8100 396.0000 1.0000
45.8200 389.0000 1.0000
45.8300 416.0000 1.0000
45.8400 399.0000 1.0000
45.8500 350.0000 1.0000
45.8600 379.0000 1.0000
45.8700 393.0000 1.0000
45.8800 375.0000 1.0000
45.8900 384.0000 1.0000
45.9000 390.0000 1.0000
45.9100 368.0000 1.0000
45.9200 380.0000 1.0000
45.9300 397.0000 1.0000
45.9400 384.0000 1.0000
45.9500 349.0000 1.0000
45.9600 351.0000 1.0000
45.9700 339.0000 1.0000
45.9800 363.0000 1.0000
45.9900 373.0000 1.0000
46.0000 386.0000 1.0000
46.0100 367.0000 1.0000
46.0200 349.0000 1.0000
46.0300 385.0000 1.0000
46.0400 374.0000 1.0000
46.0500 395.0000 1.0000
46.0600 370.0000 1.0000
46.0700 349.0000 1.0000
46.0800 370.0000 1.0000
46.0900 378.0000 1.0000
46.1000 394.0000 1.0000
46.1100 362.0000 1.0000
46.1200 358.0000 1.0000
46.1300 370.0000 1.0000
46.1400 396.0000 1.0000
46.1500 381.0000 1.0000
46.1600 375.0000 1.0000
46.1700 400.0000 1.0000
46.1800 362.0000 1.0000
46.1900 346.0000 1.0000
46.2000 400.0000 1.0000
46.2100 377.0000 1.0000
46.2200 381.0000 1.0000
46.2300 394.0000 1.0000
46.2400 346.0000 1.0000
46.2500 389.0000 1.0000
46.2600 398.0000 1.0000
46.2700 395.0000 1.0000
46.2800 390.0000 1.0000
46.2900 360.0000 1.0000
46.3000 353.0000 1.0000
46.3100 391.0000 1.0000
46.3200 371.0000 1.0000
46.3300 362.0000 1.0000
46.3400 366.0000 1.0000
46.3500 357.0000 1.0000
46.3600 356.0000 1.0000
46.3700 379.0000 1.0000
46.3800 377.0000 1.0000
46.3900 371.0000 1.0000
46.4000 360.0000 1.0000
46.4100 351.0000 1.0000
46.4200 381.0000 1.0000
46.4300 372.0000 1.0000
46.4400 356.0000 1.0000
46.4500 376.0000 1.0000
46.4600 369.0000 1.0000
46.4700 368.0000 1.0000
46.4800 366.0000 1.0000
46.4900 380.0000 1.0000
46.5000 358.0000 1.0000
46.5100 363.0000 1.0000
46.5200 360.0000 1.0000
46.5300 375.0000 1.0000
46.5400 365.0000 1.0000
46.5500 364.0000 1.0000
46.5600 362.0000 1.0000
46.5700 357.0000 1.0000
46.5800 373.0000 1.0000
46.5900 377.0000 1.0000
46.6000 384.0000 1.0000
46.6100 370.0000 1.0000
46.6200 381.0000 1.0000
46.6300 355.0000 1.0000
46.6400 349.0000 1.0000
46.6500 351.0000 1.0000
46.6600 354.0000 1.0000
46.6700 380.0000 1.0000
46.6800 365.0000 1.0000
46.6900 348.0000 1.0000
46.7000 369.0000 1.0000
46.7100 363.0000 1.0000
46.7200 377.0000 1.0000
46.7300 357.0000 1.0000
46.7400 371.0000 1.0000
46.7500 366.0000 1.0000
46.7600 371.0000 1.0000
46.7700 377.0000 1.0000
46.7800 362.0000 1.0000
46.7900 356.0000 1.0000
46.8000 352.0000 1.0000
46.8100 368.0000 1.0000
46.8200 356.0000 1.0000
46.8300 393.0000 1.0000
46.8400 388.0000 1.0000
46.8500 345.0000 1.0000
46.8600 351.0000 1.0000
46.8700 361.0000 1.0000
46.8800 387.0000 1.0000
46.8900 367.0000 1.0000
46.9000 369.0000 1.0000
46.9100 367.0000 1.0000
46.9200 362.0000 1.0000
46.9300 352.0000 1.0000
46.9400 392.0000 1.0000
46.9500 351.0000 1.0000
46.9600 393.0000 1.0000
46.9700 356.0000 1.0000
46.9800 365.0000 1.0000
46.9900 350.0000 1.0000
47.0000 365.0000 1.0000
47.0100 343.0000 1.0000
47.0200 343.0000 1.0000
47.0300 381.0000 1.0000
47.0400 359.0000 1.0000
47.0500 384.0000 1.0000
47.0600 362.0000 1.0000
47.0700 367.0000 1.0000
47.0800 348.0000 1.0000
47.0900 360.0000 1.0000
47.1000 366.0000 1.0000
47.1100 367.0000 1.0000
47.1200 359.0000 1.0000
47.1300 378.0000 1.0000
47.1400 378.0000 1.0000
47.1500 370.0000 1.0000
47.1600 383.0000 1.0000
47.1700 368.0000 1.0000
47.1800 390.0000 1.0000
47.1900 369.0000 1.0000
47.2000 357.0000 1.0000
47.2100 361.0000 1.0000
47.2200 363.0000 1.0000
47.2300 338.0000 1.0000
47.2400 345.0000 1.0000
47.2500 341.0000 1.0000
47.2600 347.0000 1.0000
47.2700 373.0000 1.0000
47.2800 354.0000 1.0000
47.2900 340.0000 1.0000
47.3000 375.0000 1.0000
47.3100 369.0000 1.0000
47.3200 363.0000 1.0000
47.3300 368.0000 1.0000
47.3400 353.0000 1.0000
47.3500 384.0000 1.0000
47.3600 360.0000 1.0000
47.3700 323.0000 1.0000
47.3800 367.0000 1.0000
47.3900 364.0000 1.0000
47.4000 364.0000 1.0000
47.4100 313.0000 1.0000
47.4200 365.0000 1.0000
47.4300 373.0000 1.0000
47.4400 342.0000 1.0000
47.4500 371.0000 1.0000
47.4600 355.0000 1.0000
47.4700 390.0000 1.0000
47.4800 349.0000 1.0000
47.4900 315.0000 1.0000
47.5000 345.0000 1.0000
47.5100 369.0000 1.0000
47.5200 335.0000 1.0000
47.5300 340.0000 1.0000
47.5400 326.0000 1.0000
47.5500 353.0000 1.0000
47.5600 365.0000 1.0000
47.5700 364.0000 1.0000
47.5800 353.0000 1.0000
47.5900 331.0000 1.0000
47.6000 344.0000 1.0000
47.6100 351.0000 1.0000
47.6200 360.0000 1.0000
47.6300 379.0000 1.0000
47.6400 371.0000 1.0000
47.6500 395.0000 1.0000
47.6600 373.0000 1.0000
47.6700 365.0000 1.0000
47.6800 375.0000 1.0000
47.6900 357.0000 1.0000
47.7000 359.0000 1.0000
47.7100 326.0000 1.0000
47.7200 353.0000 1.0000
47.7300 367.0000 1.0000
47.7400 356.0000 1.0000
47.7500 363.0000 1.0000
47.7600 367.0000 1.0000
47.7700 377.0000 1.0000
47.7800 357.0000 1.0000
47.7900 350.0000 1.0000
47.8000 345.0000 1.0000
47.8100 346.0000 1.0000
47.8200 354.0000 1.0000
47.8300 353.0000 1.0000
47.8400 341.0000 1.0000
47.8500 377.0000 1.0000
47.8600 353.0000 1.0000
47.8700 326.0000 1.0000
47.8800 347.0000 1.0000
47.8900 331.0000 1.0000
47.9000 348.0000 1.0000
47.9100 340.0000 1.0000
47.9200 333.0000 1.0000
47.9300 315.0000 1.0000
47.9400 355.0000 1.0000
47.9500 351.0000 1.0000
47.9600 328.0000 1.0000
47.9700 347.0000 1.0000
47.9800 376.0000 1.0000
47.9900 368.0000 1.0000
48.0000 323.0000 1.0000
48.0100 354.0000 1.0000
48.0200 361.0000 1.0000
48.0300 353.0000 1.0000
48.0400 345.0000 1.0000
48.0500 349.0000 1.0000
48.0600 343.0000 1.0000
48.0700 368.0000 1.0000
48.0800 340.0000 1.0000
48.0900 338.0000 1.0000
48.1000 356.0000 1.0000
48.1100 368.0000 1.0000
48.1200 392.0000 1.0000
48.1300 368.0000 1.0000
48.1400 343.0000 1.0000
48.1500 315.0000 1.0000
48.1600 368.0000 1.0000
48.1700 348.0000 1.0000
48.1800 391.0000 1.0000
48.1900 331.0000 1.0000
48.2000 325.0000 1.0000
48.2100 319.0000 1.0000
48.2200 356.0000 1.0000
48.2300 331.0000 1.0000
48.2400 359.0000 1.0000
48.2500 377.0000 1.0000
48.2600 362.0000 1.0000
48.2700 346.0000 1.0000
48.2800 351.0000 1.0000
48.2900 357.0000 1.0000
48.3000 382.0000 1.0000
48.3100 380.0000 1.0000
48.3200 385.0000 1.0000
48.3300 381.0000 1.0000
48.3400 358.0000 1.0000
48.3500 323.0000 1.0000
48.3600 355.0000 1.0000
48.3700 372.0000 1.0000
48.3800 365.0000 1.0000
48.3900 368.0000 1.0000
48.4000 346.0000 1.0000
48.4100 369.0000 1.0000
48.4200 349.0000 1.0000
48.4300 386.0000 1.0000
48.4400 362.0000 1.0000
48.4500 339.0000 1.0000
48.4600 328.0000 1.0000
48.4700 369.0000 1.0000
48.4800 339.0000 1.0000
48.4900 349.0000 1.0000
48.5000 333.0000 1.0000
48.5100 349.0000 1.0000
48.5200 325.0000 1.0000
48.5300 347.0000 1.0000
48.5400 350.0000 1.0000
48.5500 322.0000 1.0000
48.5600 342.0000 1.0000
48.5700 341.0000 1.0000
48.5800 357.0000 1.0000
48.5900 372.0000 1.0000
48.6000 342.0000 1.0000
48.6100 362.0000 1.0000
48.6200 344.0000 1.0000
48.6300 344.0000 1.0000
48.6400 379.0000 1.0000
48.6500 339.0000 1.0000
48.6600 344.0000 1.0000
48.6700 358.0000 1.0000
48.6800 358.0000 1.0000
48.6900 322.0000 1.0000
48.7000 362.0000 1.0000
48.7100 337.0000 1.0000
48.7200 339.0000 1.0000
48.7300 349.0000 1.0000
48.7400 341.0000 1.0000
48.7500 372.0000 1.0000
48.7600 354.0000 1.0000
48.7700 386.0000 1.0000
48.7800 356.0000 1.0000
48.7900 375.0000 1.0000
48.8000 360.0000 1.0000
48.8100 374.0000 1.0000
48.8200 357.0000 1.0000
48.8300 327.0000 1.0000
48.8400 330.0000 1.0000
48.8500 356.0000 1.0000
48.8600 371.0000 1.0000
48.8700 328.0000 1.0000
48.8800 364.0000 1.0000
48.8900 333.0000 1.0000
48.9000 381.0000 1.0000
48.9100 332.0000 1.0000
48.9200 340.0000 1.0000
48.9300 333.0000 1.0000
48.9400 329.0000 1.0000
48.9500 346.0000 1.0000
48.9600 346.0000 1.0000
48.9700 361.0000 1.0000
48.9800 361.0000 1.0000
48.9900 367.0000 1.0000
49.0000 326.0000 1.0000
49.0100 355.0000 1.0000
49.0200 329.0000 1.0000
49.0300 344.0000 1.0000
49.0400 355.0000 1.0000
49.0500 363.0000 1.0000
49.0600 338.0000 1.0000
49.0700 294.0000 1.0000
49.0800 347.0000 1.0000
49.0900 344.0000 1.0000
49.1000 367.0000 1.0000
49.1100 372.0000 1.0000
49.1200 331.0000 1.0000
49.1300 346.0000 1.0000
49.1400 369.0000 1.0000
49.1500 355.0000 1.0000
49.1600 369.0000 1.0000
49.1700 357.0000 1.0000
49.1800 358.0000 1.0000
49.1900 343.0000 1.0000
49.2000 329.0000 1.0000
49.2100 317.0000 1.0000
49.2200 361.0000 1.0000
49.2300 340.0000 1.0000
49.2400 334.0000 1.0000
49.2500 325.0000 1.0000
49.2600 357.0000 1.0000
49.2700 342.0000 1.0000
49.2800 383.0000 1.0000
49.2900 380.0000 1.0000
49.3000 388.0000 1.0000
49.3100 391.0000 1.0000
49.3200 383.0000 1.0000
49.3300 392.0000 1.0000
49.3400 369.0000 1.0000
49.3500 372.0000 1.0000
49.3600 410.0000 1.0000
49.3700 442.0000 1.0000
49.3800 397.0000 1.0000
49.3900 395.0000 1.0000
49.4000 427.0000 1.0000
49.4100 413.0000 1.0000
49.4200 419.0000 1.0000
49.4300 419.0000 1.0000
49.4400 409.0000 1.0000
49.4500 374.0000 1.0000
49.4600 403.0000 1.0000
49.4700 387.0000 1.0000
49.4800 404.0000 1.0000
49.4900 402.0000 1.0000
49.5000 400.0000 1.0000
49.5100 414.0000 1.0000
49.5200 397.0000 1.0000
49.5300 394.0000 1.0000
49.5400 383.0000 1.0000
49.5500 345.0000 1.0000
49.5600 377.0000 1.0000
49.5700 363.0000 1.0000
49.5800 395.0000 1.0000
49.5900 386.0000 1.0000
49.6000 391.0000 1.0000
49.6100 374.0000 1.0000
49.6200 389.0000 1.0000
49.6300 370.0000 1.0000
49.6400 353.0000 1.0000
49.6500 368.0000 1.0000
49.6600 409.0000 1.0000
49.6700 353.0000 1.0000
49.6800 344.0000 1.0000
49.6900 352.0000 1.0000
49.7000 343.0000 1.0000
49.7100 369.0000 1.0000
49.7200 357.0000 1.0000
49.7300 341.0000 1.0000
49.7400 342.0000 1.0000
49.7500 373.0000 1.0000
49.7600 321.0000 1.0000
49.7700 353.0000 1.0000
49.7800 339.0000 1.0000
49.7900 354.0000 1.0000
49.8000 350.0000 1.0000
49.8100 365.0000 1.0000
49.8200 360.0000 1.0000
49.8300 358.0000 1.0000
49.8400 367.0000 1.0000
49.8500 357.0000 1.0000
49.8600 358.0000 1.0000
49.8700 361.0000 1.0000
49.8800 368.0000 1.0000
49.8900 344.0000 1.0000
49.9000 371.0000 1.0000
49.9100 352.0000 1.0000
49.9200 363.0000 1.0000
49.9300 352.0000 1.0000
49.9400 358.0000 1.0000
49.9500 341.0000 1.0000
49.9600 370.0000 1.0000
49.9700 369.0000 1.0000
49.9800 315.0000 1.0000
49.9900 334.0000 1.0000
50.0000 358.0000 1.0000
50.0100 385.0000 1.0000
50.0200 336.0000 1.0000
50.0300 365.0000 1.0000
50.0400 356.0000 1.0000
50.0500 358.0000 1.0000
50.0600 334.0000 1.0000
50.0700 350.0000 1.0000
50.0800 341.0000 1.0000
50.0900 364.0000 1.0000
50.1000 375.0000 1.0000
50.1100 343.0000 1.0000
50.1200 345.0000 1.0000
50.1300 345.0000 1.0000
50.1400 357.0000 1.0000
50.1500 345.0000 1.0000
50.1600 360.0000 1.0000
50.1700 342.0000 1.0000
50.1800 365.0000 1.0000
50.1900 377.0000 1.0000
50.2000 348.0000 1.0000
50.2100 344.0000 1.0000
50.2200 349.0000 1.0000
50.2300 394.0000 1.0000
50.2400 344.0000 1.0000
50.2500 338.0000 1.0000
50.2600 323.0000 1.0000
50.2700 345.0000 1.0000
50.2800 348.0000 1.0000
50.2900 364.0000 1.0000
50.3000 352.0000 1.0000
50.3100 345.0000 1.0000
50.3200 341.0000 1.0000
50.3300 347.0000 1.0000
50.3400 342.0000 1.0000
50.3500 366.0000 1.0000
50.3600 367.0000 1.0000
50.3700 333.0000 1.0000
50.3800 366.0000 1.0000
50.3900 348.0000 1.0000
50.4000 359.0000 1.0000
50.4100 344.0000 1.0000
50.4200 363.0000 1.0000
50.4300 348.0000 1.0000
50.4400 351.0000 1.0000
50.4500 365.0000 1.0000
50.4600 345.0000 1.0000
50.4700 353.0000 1.0000
50.4800 322.0000 1.0000
50.4900 345.0000 1.0000
50.5000 350.0000 1.0000
50.5100 357.0000 1.0000
50.5200 336.0000 1.0000
50.5300 342.0000 1.0000
50.5400 387.0000 1.0000
50.5500 311.0000 1.0000
50.5600 331.0000 1.0000
50.5700 355.0000 1.0000
50.5800 348.0000 1.0000
50.5900 338.0000 1.0000
50.6000 334.0000 1.0000
50.6100 367.0000 1.0000
50.6200 339.0000 1.0000
50.6300 339.0000 1.0000
50.6400 328.0000 1.0000
50.6500 337.0000 1.0000
50.6600 364.0000 1.0000
50.6700 340.0000 1.0000
50.6800 337.0000 1.0000
50.6900 316.0000 1.0000
50.7000 378.0000 1.0000
50.7100 368.0000 1.0000
50.7200 366.0000 1.0000
50.7300 358.0000 1.0000
50.7400 389.0000 1.0000
50.7500 351.0000 1.0000
50.7600 347.0000 1.0000
50.7700 367.0000 1.0000
50.7800 363.0000 1.0000
50.7900 350.0000 1.0000
50.8000 374.0000 1.0000
50.8100 369.0000 1.0000
50.8200 366.0000 1.0000
50.8300 343.0000 1.0000
50.8400 332.0000 1.0000
50.8500 363.0000 1.0000
50.8600 359.0000 1.0000
50.8700 336.0000 1.0000
50.8800 347.0000 1.0000
50.8900 360.0000 1.0000
50.9000 378.0000 1.0000
50.9100 404.0000 1.0000
50.9200 383.0000 1.0000
50.9300 361.0000 1.0000
50.9400 389.0000 1.0000
50.9500 359.0000 1.0000
50.9600 353.0000 1.0000
50.9700 366.0000 1.0000
50.9800 371.0000 1.0000
50.9900 362.0000 1.0000
51.0000 378.0000 1.0000
51.0100 405.0000 1.0000
51.0200 385.0000 1.0000
51.0300 395.0000 1.0000
51.0400 401.0000 1.0000
51.0500 393.0000 1.0000
51.0600 418.0000 1.0000
51.0700 399.0000 1.0000
51.0800 383.0000 1.0000
51.0900 410.0000 1.0000
51.1000 413.0000 1.0000
51.1100 414.0000 1.0000
51.1200 412.0000 1.0000
51.1300 444.0000 1.0000
51.1400 432.0000 1.0000
51.1500 416.0000 1.0000
51.1600 440.0000 1.0000
51.1700 430.0000 1.0000
51.1800 456.0000 1.0000
51.1900 468.0000 1.0000
51.2000 531.0000 1.0000
51.2100 530.0000 1.0000
51.2200 516.0000 1.0000
51.2300 549.0000 1.0000
51.2400 536.0000 1.0000
51.2500 572.0000 1.0000
51.2600 607.0000 1.0000
51.2700 594.0000 1.0000
51.2800 613.0000 1.0000
51.2900 661.0000 1.0000
51.3000 714.0000 1.0000
51.3100 780.0000 1.0000
51.3200 783.0000 1.0000
51.3300 853.0000 1.0000
51.3400 833.0000 1.0000
51.3500 912.0000 1.0000
51.3600 1007.0000 1.0000
51.3700 1064.0000 1.0000
51.3800 1130.0000 1.0000
51.3900 1216.0000 1.0000
51.4000 1314.0000 1.0000
51.4100 1403.0000 1.0000
51.4200 1481.0000 1.0000
51.4300 1600.0000 1.0000
51.4400 1742.0000 1.0000
51.4500 1719.0000 1.0000
51.4600 1831.0000 1.0000
51.4700 1858.0000 1.0000
51.4800 1913.0000 1.0000
51.4900 1891.0000 1.0000
51.5000 1951.0000 1.0000
51.5100 2033.0000 1.0000
51.5200 1989.0000 1.0000
51.5300 1935.0000 1.0000
51.5400 1966.0000 1.0000
51.5500 1909.0000 1.0000
51.5600 1822.0000 1.0000
51.5700 1765.0000 1.0000
51.5800 1628.0000 1.0000
51.5900 1595.0000 1.0000
51.6000 1627.0000 1.0000
51.6100 1478.0000 1.0000
51.6200 1474.0000 1.0000
51.6300 1427.0000 1.0000
51.6400 1366.0000 1.0000
51.6500 1269.0000 1.0000
51.6600 1262.0000 1.0000
51.6700 1247.0000 1.0000
51.6800 1221.0000 1.0000
51.6900 1101.0000 1.0000
51.7000 1036.0000 1.0000
51.7100 940.0000 1.0000
51.7200 886.0000 1.0000
51.7300 820.0000 1.0000
51.7400 740.0000 1.0000
51.7500 694.0000 1.0000
51.7600 698.0000 1.0000
51.7700 704.0000 1.0000
51.7800 642.0000 1.0000
51.7900 600.0000 1.0000
51.8000 577.0000 1.0000
51.8100 566.0000 1.0000
51.8200 528.0000 1.0000
51.8300 506.0000 1.0000
51.8400 506.0000 1.0000
51.8500 523.0000 1.0000
51.8600 495.0000 1.0000
51.8700 462.0000 1.0000
51.8800 497.0000 1.0000
51.8900 466.0000 1.0000
51.9000 454.0000 1.0000
51.9100 444.0000 1.0000
51.9200 449.0000 1.0000
51.9300 462.0000 1.0000
51.9400 433.0000 1.0000
51.9500 409.0000 1.0000
51.9600 433.0000 1.0000
51.9700 420.0000 1.0000
51.9800 414.0000 1.0000
51.9900 395.0000 1.0000
52.0000 414.0000 1.0000
52.0100 386.0000 1.0000
52.0200 415.0000 1.0000
52.0300 383.0000 1.0000
52.0400 388.0000 1.0000
52.0500 385.0000 1.0000
52.0600 365.0000 1.0000
52.0700 381.0000 1.0000
52.0800 388.0000 1.0000
52.0900 366.0000 1.0000
52.1000 369.0000 1.0000
52.1100 357.0000 1.0000
52.1200 365.0000 1.0000
52.1300 364.0000 1.0000
52.1400 380.0000 1.0000
52.1500 374.0000 1.0000
52.1600 371.0000 1.0000
52.1700 350.0000 1.0000
52.1800 348.0000 1.0000
52.1900 342.0000 1.0000
52.2000 367.0000 1.0000
52.2100 379.0000 1.0000
52.2200 376.0000 1.0000
52.2300 377.0000 1.0000
52.2400 389.0000 1.0000
52.2500 368.0000 1.0000
52.2600 375.0000 1.0000
52.2700 365.0000 1.0000
52.2800 348.0000 1.0000
52.2900 352.0000 1.0000
52.3000 335.0000 1.0000
52.3100 352.0000 1.0000
52.3200 387.0000 1.0000
52.3300 366.0000 1.0000
52.3400 334.0000 1.0000
52.3500 351.0000 1.0000
52.3600 371.0000 1.0000
52.3700 379.0000 1.0000
52.3800 375.0000 1.0000
52.3900 391.0000 1.0000
52.4000 353.0000 1.0000
52.4100 364.0000 1.0000
52.4200 330.0000 1.0000
52.4300 337.0000 1.0000
52.4400 339.0000 1.0000
52.4500 355.0000 1.0000
52.4600 351.0000 1.0000
52.4700 325.0000 1.0000
52.4800 350.0000 1.0000
52.4900 346.0000 1.0000
52.5000 344.0000 1.0000
52.5100 349.0000 1.0000
52.5200 322.0000 1.0000
52.5300 336.0000 1.0000
52.5400 343.0000 1.0000
52.5500 311.0000 1.0000
52.5600 360.0000 1.0000
52.5700 340.0000 1.0000
52.5800 346.0000 1.0000
52.5900 343.0000 1.0000
52.6000 339.0000 1.0000
52.6100 332.0000 1.0000
52.6200 319.0000 1.0000
52.6300 351.0000 1.0000
52.6400 332.0000 1.0000
52.6500 329.0000 1.0000
52.6600 322.0000 1.0000
52.6700 337.0000 1.0000
52.6800 347.0000 1.0000
52.6900 323.0000 1.0000
52.7000 343.0000 1.0000
52.7100 332.0000 1.0000
52.7200 321.0000 1.0000
52.7300 341.0000 1.0000
52.7400 321.0000 1.0000
52.7500 376.0000 1.0000
52.7600 363.0000 1.0000
52.7700 351.0000 1.0000
52.7800 353.0000 1.0000
52.7900 346.0000 1.0000
52.8000 332.0000 1.0000
52.8100 345.0000 1.0000
52.8200 339.0000 1.0000
52.8300 352.0000 1.0000
52.8400 352.0000 1.0000
52.8500 319.0000 1.0000
52.8600 353.0000 1.0000
52.8700 356.0000 1.0000
52.8800 329.0000 1.0000
52.8900 336.0000 1.0000
52.9000 361.0000 1.0000
52.9100 323.0000 1.0000
52.9200 350.0000 1.0000
52.9300 356.0000 1.0000
52.9400 355.0000 1.0000
52.9500 332.0000 1.0000
52.9600 348.0000 1.0000
52.9700 334.0000 1.0000
52.9800 310.0000 1.0000
52.9900 312.0000 1.0000
53.0000 334.0000 1.0000
53.0100 349.0000 1.0000
53.0200 350.0000 1.0000
53.0300 363.0000 1.0000
53.0400 332.0000 1.0000
53.0500 337.0000 1.0000
53.0600 353.0000 1.0000
53.0700 337.0000 1.0000
53.0800 351.0000 1.0000
53.0900 337.0000 1.0000
53.1000 331.0000 1.0000
53.1100 332.0000 1.0000
53.1200 329.0000 1.0000
53.1300 334.0000 1.0000
53.1400 294.0000 1.0000
53.1500 323.0000 1.0000
53.1600 347.0000 1.0000
53.1700 323.0000 1.0000
53.1800 311.0000 1.0000
53.1900 353.0000 1.0000
53.2000 348.0000 1.0000
53.2100 325.0000 1.0000
53.2200 369.0000 1.0000
53.2300 327.0000 1.0000
53.2400 320.0000 1.0000
53.2500 352.0000 1.0000
53.2600 358.0000 1.0000
53.2700 315.0000 1.0000
53.2800 315.0000 1.0000
53.2900 337.0000 1.0000
53.3000 344.0000 1.0000
53.3100 368.0000 1.0000
53.3200 371.0000 1.0000
53.3300 355.0000 1.0000
53.3400 351.0000 1.0000
53.3500 346.0000 1.0000
53.3600 304.0000 1.0000
53.3700 323.0000 1.0000
53.3800 350.0000 1.0000
53.3900 344.0000 1.0000
53.4000 335.0000 1.0000
53.4100 334.0000 1.0000
53.4200 327.0000 1.0000
53.4300 373.0000 1.0000
53.4400 339.0000 1.0000
53.4500 321.0000 1.0000
53.4600 327.0000 1.0000
53.4700 311.0000 1.0000
53.4800 347.0000 1.0000
53.4900 360.0000 1.0000
53.5000 358.0000 1.0000
53.5100 335.0000 1.0000
53.5200 362.0000 1.0000
53.5300 311.0000 1.0000
53.5400 329.0000 1.0000
53.5500 346.0000 1.0000
53.5600 307.0000 1.0000
53.5700 309.0000 1.0000
53.5800 335.0000 1.0000
53.5900 344.0000 1.0000
53.6000 382.0000 1.0000
53.6100 343.0000 1.0000
53.6200 329.0000 1.0000
53.6300 329.0000 1.0000
53.6400 335.0000 1.0000
53.6500 368.0000 1.0000
53.6600 325.0000 1.0000
53.6700 341.0000 1.0000
53.6800 342.0000 1.0000
53.6900 337.0000 1.0000
53.7000 313.0000 1.0000
53.7100 367.0000 1.0000
53.7200 348.0000 1.0000
53.7300 335.0000 1.0000
53.7400 357.0000 1.0000
53.7500 329.0000 1.0000
53.7600 315.0000 1.0000
53.7700 356.0000 1.0000
53.7800 356.0000 1.0000
53.7900 346.0000 1.0000
53.8000 339.0000 1.0000
53.8100 347.0000 1.0000
53.8200 358.0000 1.0000
53.8300 326.0000 1.0000
53.8400 317.0000 1.0000
53.8500 358.0000 1.0000
53.8600 344.0000 1.0000
53.8700 358.0000 1.0000
53.8800 342.0000 1.0000
53.8900 376.0000 1.0000
53.9000 338.0000 1.0000
53.9100 324.0000 1.0000
53.9200 376.0000 1.0000
53.9300 380.0000 1.0000
53.9400 356.0000 1.0000
53.9500 344.0000 1.0000
53.9600 377.0000 1.0000
53.9700 370.0000 1.0000
53.9800 360.0000 1.0000
53.9900 419.0000 1.0000
54.0000 396.0000 1.0000
54.0100 389.0000 1.0000
54.0200 379.0000 1.0000
54.0300 374.0000 1.0000
54.0400 370.0000 1.0000
54.0500 436.0000 1.0000
54.0600 398.0000 1.0000
54.0700 416.0000 1.0000
54.0800 389.0000 1.0000
54.0900 341.0000 1.0000
54.1000 354.0000 1.0000
54.1100 382.0000 1.0000
54.1200 372.0000 1.0000
54.1300 410.0000 1.0000
54.1400 363.0000 1.0000
54.1500 388.0000 1.0000
54.1600 369.0000 1.0000
54.1700 394.0000 1.0000
54.1800 369.0000 1.0000
54.1900 378.0000 1.0000
54.2000 348.0000 1.0000
54.2100 372.0000 1.0000
54.2200 377.0000 1.0000
54.2300 415.0000 1.0000
54.2400 395.0000 1.0000
54.2500 383.0000 1.0000
54.2600 407.0000 1.0000
54.2700 364.0000 1.0000
54.2800 334.0000 1.0000
54.2900 384.0000 1.0000
54.3000 346.0000 1.0000
54.3100 360.0000 1.0000
54.3200 396.0000 1.0000
54.3300 400.0000 1.0000
54.3400 392.0000 1.0000
54.3500 361.0000 1.0000
54.3600 384.0000 1.0000
54.3700 397.0000 1.0000
54.3800 394.0000 1.0000
54.3900 413.0000 1.0000
54.4000 447.0000 1.0000
54.4100 409.0000 1.0000
54.4200 428.0000 1.0000
54.4300 409.0000 1.0000
54.4400 430.0000 1.0000
54.4500 461.0000 1.0000
54.4600 439.0000 1.0000
54.4700 430.0000 1.0000
54.4800 449.0000 1.0000
54.4900 462.0000 1.0000
54.5000 456.0000 1.0000
54.5100 490.0000 1.0000
54.5200 515.0000 1.0000
54.5300 462.0000 1.0000
54.5400 442.0000 1.0000
54.5500 459.0000 1.0000
54.5600 481.0000 1.0000
54.5700 496.0000 1.0000
54.5800 440.0000 1.0000
54.5900 457.0000 1.0000
54.6000 428.0000 1.0000
54.6100 442.0000 1.0000
54.6200 469.0000 1.0000
54.6300 446.0000 1.0000
54.6400 497.0000 1.0000
54.6500 445.0000 1.0000
54.6600 444.0000 1.0000
54.6700 474.0000 1.0000
54.6800 454.0000 1.0000
54.6900 438.0000 1.0000
54.7000 437.0000 1.0000
54.7100 409.0000 1.0000
54.7200 413.0000 1.0000
54.7300 418.0000 1.0000
54.7400 414.0000 1.0000
54.7500 386.0000 1.0000
54.7600 396.0000 1.0000
54.7700 392.0000 1.0000
54.7800 419.0000 1.0000
54.7900 361.0000 1.0000
54.8000 388.0000 1.0000
54.8100 369.0000 1.0000
54.8200 376.0000 1.0000
54.8300 400.0000 1.0000
54.8400 392.0000 1.0000
54.8500 378.0000 1.0000
54.8600 404.0000 1.0000
54.8700 377.0000 1.0000
54.8800 353.0000 1.0000
54.8900 370.0000 1.0000
54.9000 352.0000 1.0000
54.9100 352.0000 1.0000
54.9200 369.0000 1.0000
54.9300 342.0000 1.0000
54.9400 380.0000 1.0000
54.9500 319.0000 1.0000
54.9600 336.0000 1.0000
54.9700 348.0000 1.0000
54.9800 349.0000 1.0000
54.9900 323.0000 1.0000
55.0000 317.0000 1.0000
55.0100 333.0000 1.0000
55.0200 318.0000 1.0000
55.0300 331.0000 1.0000
55.0400 324.0000 1.0000
55.0500 367.0000 1.0000
55.0600 335.0000 1.0000
55.0700 333.0000 1.0000
55.0800 339.0000 1.0000
55.0900 365.0000 1.0000
55.1000 322.0000 1.0000
55.1100 336.0000 1.0000
55.1200 362.0000 1.0000
55.1300 324.0000 1.0000
55.1400 328.0000 1.0000
55.1500 328.0000 1.0000
55.1600 327.0000 1.0000
55.1700 316.0000 1.0000
55.1800 353.0000 1.0000
55.1900 324.0000 1.0000
55.2000 318.0000 1.0000
55.2100 350.0000 1.0000
55.2200 327.0000 1.0000
55.2300 317.0000 1.0000
55.2400 305.0000 1.0000
55.2500 323.0000 1.0000
55.2600 349.0000 1.0000
55.2700 327.0000 1.0000
55.2800 342.0000 1.0000
55.2900 328.0000 1.0000
55.3000 316.0000 1.0000
55.3100 318.0000 1.0000
55.3200 333.0000 1.0000
55.3300 308.0000 1.0000
55.3400 321.0000 1.0000
55.3500 335.0000 1.0000
55.3600 314.0000 1.0000
55.3700 346.0000 1.0000
55.3800 323.0000 1.0000
55.3900 318.0000 1.0000
55.4000 334.0000 1.0000
55.4100 316.0000 1.0000
55.4200 330.0000 1.0000
55.4300 327.0000 1.0000
55.4400 318.0000 1.0000
55.4500 324.0000 1.0000
55.4600 313.0000 1.0000
55.4700 353.0000 1.0000
55.4800 329.0000 1.0000
55.4900 307.0000 1.0000
55.5000 311.0000 1.0000
55.5100 338.0000 1.0000
55.5200 317.0000 1.0000
55.5300 340.0000 1.0000
55.5400 324.0000 1.0000
55.5500 354.0000 1.0000
55.5600 328.0000 1.0000
55.5700 317.0000 1.0000
55.5800 296.0000 1.0000
55.5900 342.0000 1.0000
55.6000 329.0000 1.0000
55.6100 313.0000 1.0000
55.6200 312.0000 1.0000
55.6300 331.0000 1.0000
55.6400 295.0000 1.0000
55.6500 323.0000 1.0000
55.6600 317.0000 1.0000
55.6700 331.0000 1.0000
55.6800 288.0000 1.0000
55.6900 310.0000 1.0000
55.7000 318.0000 1.0000
55.7100 332.0000 1.0000
55.7200 339.0000 1.0000
55.7300 303.0000 1.0000
55.7400 328.0000 1.0000
55.7500 319.0000 1.0000
55.7600 322.0000 1.0000
55.7700 339.0000 1.0000
55.7800 313.0000 1.0000
55.7900 302.0000 1.0000
55.8000 302.0000 1.0000
55.8100 320.0000 1.0000
55.8200 334.0000 1.0000
55.8300 325.0000 1.0000
55.8400 339.0000 1.0000
55.8500 315.0000 1.0000
55.8600 299.0000 1.0000
55.8700 325.0000 1.0000
55.8800 325.0000 1.0000
55.8900 345.0000 1.0000
55.9000 352.0000 1.0000
55.9100 303.0000 1.0000
55.9200 308.0000 1.0000
55.9300 329.0000 1.0000
55.9400 311.0000 1.0000
55.9500 350.0000 1.0000
55.9600 348.0000 1.0000
55.9700 353.0000 1.0000
55.9800 325.0000 1.0000
55.9900 309.0000 1.0000
56.0000 322.0000 1.0000
56.0100 331.0000 1.0000
56.0200 318.0000 1.0000
56.0300 334.0000 1.0000
56.0400 331.0000 1.0000
56.0500 305.0000 1.0000
56.0600 320.0000 1.0000
56.0700 356.0000 1.0000
56.0800 343.0000 1.0000
56.0900 316.0000 1.0000
56.1000 331.0000 1.0000
56.1100 309.0000 1.0000
56.1200 351.0000 1.0000
56.1300 345.0000 1.0000
56.1400 323.0000 1.0000
56.1500 331.0000 1.0000
56.1600 316.0000 1.0000
56.1700 327.0000 1.0000
56.1800 332.0000 1.0000
56.1900 355.0000 1.0000
56.2000 327.0000 1.0000
56.2100 315.0000 1.0000
56.2200 281.0000 1.0000
56.2300 318.0000 1.0000
56.2400 338.0000 1.0000
56.2500 370.0000 1.0000
56.2600 341.0000 1.0000
56.2700 327.0000 1.0000
56.2800 329.0000 1.0000
56.2900 329.0000 1.0000
56.3000 356.0000 1.0000
56.3100 332.0000 1.0000
56.3200 343.0000 1.0000
56.3300 348.0000 1.0000
56.3400 304.0000 1.0000
56.3500 291.0000 1.0000
56.3600 289.0000 1.0000
56.3700 326.0000 1.0000
56.3800 344.0000 1.0000
56.3900 343.0000 1.0000
56.4000 317.0000 1.0000
56.4100 329.0000 1.0000
56.4200 324.0000 1.0000
56.4300 358.0000 1.0000
56.4400 324.0000 1.0000
56.4500 331.0000 1.0000
56.4600 312.0000 1.0000
56.4700 318.0000 1.0000
56.4800 317.0000 1.0000
56.4900 336.0000 1.0000
56.5000 325.0000 1.0000
56.5100 321.0000 1.0000
56.5200 310.0000 1.0000
56.5300 329.0000 1.0000
56.5400 303.0000 1.0000
56.5500 332.0000 1.0000
56.5600 336.0000 1.0000
56.5700 321.0000 1.0000
56.5800 317.0000 1.0000
56.5900 321.0000 1.0000
56.6000 319.0000 1.0000
56.6100 314.0000 1.0000
56.6200 302.0000 1.0000
56.6300 304.0000 1.0000
56.6400 317.0000 1.0000
56.6500 313.0000 1.0000
56.6600 318.0000 1.0000
56.6700 317.0000 1.0000
56.6800 323.0000 1.0000
56.6900 315.0000 1.0000
56.7000 324.0000 1.0000
56.7100 322.0000 1.0000
56.7200 320.0000 1.0000
56.7300 305.0000 1.0000
56.7400 313.0000 1.0000
56.7500 307.0000 1.0000
56.7600 321.0000 1.0000
56.7700 288.0000 1.0000
56.7800 322.0000 1.0000
56.7900 297.0000 1.0000
56.8000 312.0000 1.0000
56.8100 323.0000 1.0000
56.8200 316.0000 1.0000
56.8300 313.0000 1.0000
56.8400 326.0000 1.0000
56.8500 317.0000 1.0000
56.8600 316.0000 1.0000
56.8700 324.0000 1.0000
56.8800 323.0000 1.0000
56.8900 307.0000 1.0000
56.9000 296.0000 1.0000
56.9100 314.0000 1.0000
56.9200 329.0000 1.0000
56.9300 327.0000 1.0000
56.9400 285.0000 1.0000
56.9500 317.0000 1.0000
56.9600 311.0000 1.0000
56.9700 293.0000 1.0000
56.9800 286.0000 1.0000
56.9900 320.0000 1.0000
57.0000 321.0000 1.0000
57.0100 347.0000 1.0000
57.0200 305.0000 1.0000
57.0300 308.0000 1.0000
57.0400 309.0000 1.0000
57.0500 308.0000 1.0000
57.0600 304.0000 1.0000
57.0700 303.0000 1.0000
57.0800 325.0000 1.0000
57.0900 343.0000 1.0000
57.1000 327.0000 1.0000
57.1100 307.0000 1.0000
57.1200 319.0000 1.0000
57.1300 296.0000 1.0000
57.1400 341.0000 1.0000
57.1500 319.0000 1.0000
57.1600 293.0000 1.0000
57.1700 313.0000 1.0000
57.1800 338.0000 1.0000
57.1900 333.0000 1.0000
57.2000 333.0000 1.0000
57.2100 338.0000 1.0000
57.2200 293.0000 1.0000
57.2300 295.0000 1.0000
57.2400 288.0000 1.0000
57.2500 338.0000 1.0000
57.2600 341.0000 1.0000
57.2700 332.0000 1.0000
57.2800 344.0000 1.0000
57.2900 335.0000 1.0000
57.3000 318.0000 1.0000
57.3100 340.0000 1.0000
57.3200 319.0000 1.0000
57.3300 343.0000 1.0000
57.3400 355.0000 1.0000
57.3500 358.0000 1.0000
57.3600 323.0000 1.0000
57.3700 356.0000 1.0000
57.3800 340.0000 1.0000
57.3900 329.0000 1.0000
57.4000 327.0000 1.0000
57.4100 325.0000 1.0000
57.4200 329.0000 1.0000
57.4300 338.0000 1.0000
57.4400 331.0000 1.0000
57.4500 356.0000 1.0000
57.4600 355.0000 1.0000
57.4700 376.0000 1.0000
57.4800 342.0000 1.0000
57.4900 349.0000 1.0000
57.5000 345.0000 1.0000
57.5100 334.0000 1.0000
57.5200 346.0000 1.0000
57.5300 335.0000 1.0000
57.5400 333.0000 1.0000
57.5500 328.0000 1.0000
57.5600 340.0000 1.0000
57.5700 314.0000 1.0000
57.5800 329.0000 1.0000
57.5900 339.0000 1.0000
57.6000 341.0000 1.0000
57.6100 306.0000 1.0000
57.6200 321.0000 1.0000
57.6300 356.0000 1.0000
57.6400 322.0000 1.0000
57.6500 326.0000 1.0000
57.6600 341.0000 1.0000
57.6700 329.0000 1.0000
57.6800 342.0000 1.0000
57.6900 329.0000 1.0000
57.7000 336.0000 1.0000
57.7100 322.0000 1.0000
57.7200 334.0000 1.0000
57.7300 307.0000 1.0000
57.7400 311.0000 1.0000
57.7500 330.0000 1.0000
57.7600 294.0000 1.0000
57.7700 329.0000 1.0000
57.7800 324.0000 1.0000
57.7900 320.0000 1.0000
57.8000 368.0000 1.0000
57.8100 327.0000 1.0000
57.8200 333.0000 1.0000
57.8300 320.0000 1.0000
57.8400 312.0000 1.0000
57.8500 334.0000 1.0000
57.8600 340.0000 1.0000
57.8700 321.0000 1.0000
57.8800 319.0000 1.0000
57.8900 344.0000 1.0000
57.9000 341.0000 1.0000
57.9100 335.0000 1.0000
57.9200 322.0000 1.0000
57.9300 293.0000 1.0000
57.9400 328.0000 1.0000
57.9500 310.0000 1.0000
57.9600 320.0000 1.0000
57.9700 318.0000 1.0000
57.9800 289.0000 1.0000
57.9900 300.0000 1.0000
58.0000 309.0000 1.0000
58.0100 310.0000 1.0000
58.0200 304.0000 1.0000
58.0300 333.0000 1.0000
58.0400 296.0000 1.0000
58.0500 296.0000 1.0000
58.0600 291.0000 1.0000
58.0700 307.0000 1.0000
58.0800 295.0000 1.0000
58.0900 329.0000 1.0000
58.1000 302.0000 1.0000
58.1100 314.0000 1.0000
58.1200 325.0000 1.0000
58.1300 351.0000 1.0000
58.1400 325.0000 1.0000
58.1500 303.0000 1.0000
58.1600 332.0000 1.0000
58.1700 317.0000 1.0000
58.1800 302.0000 1.0000
58.1900 324.0000 1.0000
58.2000 308.0000 1.0000
58.2100 310.0000 1.0000
58.2200 343.0000 1.0000
58.2300 311.0000 1.0000
58.2400 320.0000 1.0000
58.2500 333.0000 1.0000
58.2600 355.0000 1.0000
58.2700 332.0000 1.0000
58.2800 330.0000 1.0000
58.2900 332.0000 1.0000
58.3000 320.0000 1.0000
58.3100 298.0000 1.0000
58.3200 326.0000 1.0000
58.3300 321.0000 1.0000
58.3400 333.0000 1.0000
58.3500 320.0000 1.0000
58.3600 296.0000 1.0000
58.3700 305.0000 1.0000
58.3800 300.0000 1.0000
58.3900 308.0000 1.0000
58.4000 291.0000 1.0000
58.4100 308.0000 1.0000
58.4200 325.0000 1.0000
58.4300 307.0000 1.0000
58.4400 322.0000 1.0000
58.4500 294.0000 1.0000
58.4600 331.0000 1.0000
58.4700 307.0000 1.0000
58.4800 311.0000 1.0000
58.4900 310.0000 1.0000
58.5000 315.0000 1.0000
58.5100 324.0000 1.0000
58.5200 320.0000 1.0000
58.5300 313.0000 1.0000
58.5400 340.0000 1.0000
58.5500 328.0000 1.0000
58.5600 333.0000 1.0000
58.5700 284.0000 1.0000
58.5800 323.0000 1.0000
58.5900 336.0000 1.0000
58.6000 321.0000 1.0000
58.6100 331.0000 1.0000
58.6200 335.0000 1.0000
58.6300 313.0000 1.0000
58.6400 354.0000 1.0000
58.6500 330.0000 1.0000
58.6600 306.0000 1.0000
58.6700 294.0000 1.0000
58.6800 342.0000 1.0000
58.6900 328.0000 1.0000
58.7000 293.0000 1.0000
58.7100 318.0000 1.0000
58.7200 302.0000 1.0000
58.7300 301.0000 1.0000
58.7400 333.0000 1.0000
58.7500 316.0000 1.0000
58.7600 310.0000 1.0000
58.7700 322.0000 1.0000
58.7800 334.0000 1.0000
58.7900 341.0000 1.0000
58.8000 322.0000 1.0000
58.8100 316.0000 1.0000
58.8200 326.0000 1.0000
58.8300 346.0000 1.0000
58.8400 322.0000 1.0000
58.8500 329.0000 1.0000
58.8600 321.0000 1.0000
58.8700 315.0000 1.0000
58.8800 328.0000 1.0000
58.8900 338.0000 1.0000
58.9000 320.0000 1.0000
58.9100 335.0000 1.0000
58.9200 319.0000 1.0000
58.9300 315.0000 1.0000
58.9400 328.0000 1.0000
58.9500 342.0000 1.0000
58.9600 332.0000 1.0000
58.9700 317.0000 1.0000
58.9800 334.0000 1.0000
58.9900 312.0000 1.0000
59.0000 315.0000 1.0000
59.0100 324.0000 1.0000
59.0200 317.0000 1.0000
59.0300 311.0000 1.0000
59.0400 321.0000 1.0000
59.0500 315.0000 1.0000
59.0600 320.0000 1.0000
59.0700 313.0000 1.0000
59.0800 317.0000 1.0000
59.0900 304.0000 1.0000
59.1000 289.0000 1.0000
59.1100 308.0000 1.0000
59.1200 308.0000 1.0000
59.1300 337.0000 1.0000
59.1400 331.0000 1.0000
59.1500 319.0000 1.0000
59.1600 317.0000 1.0000
59.1700 313.0000 1.0000
59.1800 309.0000 1.0000
59.1900 321.0000 1.0000
59.2000 304.0000 1.0000
59.2100 330.0000 1.0000
59.2200 322.0000 1.0000
59.2300 317.0000 1.0000
59.2400 329.0000 1.0000
59.2500 310.0000 1.0000
59.2600 325.0000 1.0000
59.2700 320.0000 1.0000
59.2800 315.0000 1.0000
59.2900 309.0000 1.0000
59.3000 363.0000 1.0000
59.3100 320.0000 1.0000
59.3200 311.0000 1.0000
59.3300 336.0000 1.0000
59.3400 322.0000 1.0000
59.3500 330.0000 1.0000
59.3600 323.0000 1.0000
59.3700 324.0000 1.0000
59.3800 326.0000 1.0000
59.3900 279.0000 1.0000
59.4000 333.0000 1.0000
59.4100 313.0000 1.0000
59.4200 318.0000 1.0000
59.4300 321.0000 1.0000
59.4400 338.0000 1.0000
59.4500 336.0000 1.0000
59.4600 342.0000 1.0000
59.4700 315.0000 1.0000
59.4800 347.0000 1.0000
59.4900 306.0000 1.0000
59.5000 291.0000 1.0000
59.5100 321.0000 1.0000
59.5200 308.0000 1.0000
59.5300 282.0000 1.0000
59.5400 315.0000 1.0000
59.5500 321.0000 1.0000
59.5600 324.0000 1.0000
59.5700 288.0000 1.0000
59.5800 310.0000 1.0000
59.5900 314.0000 1.0000
59.6000 306.0000 1.0000
59.6100 291.0000 1.0000
59.6200 285.0000 1.0000
59.6300 305.0000 1.0000
59.6400 298.0000 1.0000
59.6500 330.0000 1.0000
59.6600 314.0000 1.0000
59.6700 312.0000 1.0000
59.6800 294.0000 1.0000
59.6900 349.0000 1.0000
59.7000 313.0000 1.0000
59.7100 295.0000 1.0000
59.7200 297.0000 1.0000
59.7300 293.0000 1.0000
59.7400 297.0000 1.0000
59.7500 318.0000 1.0000
59.7600 294.0000 1.0000
59.7700 312.0000 1.0000
59.7800 305.0000 1.0000
59.7900 300.0000 1.0000
59.8000 296.0000 1.0000
59.8100 276.0000 1.0000
59.8200 318.0000 1.0000
59.8300 345.0000 1.0000
59.8400 315.0000 1.0000
59.8500 307.0000 1.0000
59.8600 338.0000 1.0000
59.8700 353.0000 1.0000
59.8800 323.0000 1.0000
59.8900 290.0000 1.0000
59.9000 320.0000 1.0000
59.9100 315.0000 1.0000
59.9200 315.0000 1.0000
59.9300 285.0000 1.0000
59.9400 327.0000 1.0000
59.9500 338.0000 1.0000
59.9600 330.0000 1.0000
59.9700 298.0000 1.0000
59.9800 299.0000 1.0000
59.9900 308.0000 1.0000
60.0000 301.0000 1.0000
60.0100 318.0000 1.0000
60.0200 316.0000 1.0000
60.0300 303.0000 1.0000
60.0400 308.0000 1.0000
60.0500 317.0000 1.0000
60.0600 323.0000 1.0000
60.0700 297.0000 1.0000
60.0800 318.0000 1.0000
60.0900 314.0000 1.0000
60.1000 325.0000 1.0000
60.1100 327.0000 1.0000
60.1200 330.0000 1.0000
60.1300 301.0000 1.0000
60.1400 295.0000 1.0000
60.1500 298.0000 1.0000
60.1600 317.0000 1.0000
60.1700 316.0000 1.0000
60.1800 292.0000 1.0000
60.1900 304.0000 1.0000
60.2000 320.0000 1.0000
60.2100 335.0000 1.0000
60.2200 327.0000 1.0000
60.2300 333.0000 1.0000
60.2400 287.0000 1.0000
60.2500 291.0000 1.0000
60.2600 300.0000 1.0000
60.2700 340.0000 1.0000
60.2800 329.0000 1.0000
60.2900 317.0000 1.0000
60.3000 319.0000 1.0000
60.3100 283.0000 1.0000
60.3200 319.0000 1.0000
60.3300 308.0000 1.0000
60.3400 318.0000 1.0000
60.3500 305.0000 1.0000
60.3600 327.0000 1.0000
60.3700 292.0000 1.0000
60.3800 309.0000 1.0000
60.3900 316.0000 1.0000
60.4000 319.0000 1.0000
60.4100 319.0000 1.0000
60.4200 315.0000 1.0000
60.4300 311.0000 1.0000
60.4400 321.0000 1.0000
60.4500 294.0000 1.0000
60.4600 330.0000 1.0000
60.4700 304.0000 1.0000
60.4800 316.0000 1.0000
60.4900 288.0000 1.0000
60.5000 300.0000 1.0000
60.5100 310.0000 1.0000
60.5200 317.0000 1.0000
60.5300 315.0000 1.0000
60.5400 318.0000 1.0000
60.5500 335.0000 1.0000
60.5600 321.0000 1.0000
60.5700 332.0000 1.0000
60.5800 308.0000 1.0000
60.5900 297.0000 1.0000
60.6000 307.0000 1.0000
60.6100 314.0000 1.0000
60.6200 312.0000 1.0000
60.6300 331.0000 1.0000
60.6400 315.0000 1.0000
60.6500 327.0000 1.0000
60.6600 318.0000 1.0000
60.6700 329.0000 1.0000
60.6800 336.0000 1.0000
60.6900 301.0000 1.0000
60.7000 292.0000 1.0000
60.7100 341.0000 1.0000
60.7200 308.0000 1.0000
60.7300 327.0000 1.0000
60.7400 332.0000 1.0000
60.7500 319.0000 1.0000
60.7600 317.0000 1.0000
60.7700 300.0000 1.0000
60.7800 344.0000 1.0000
60.7900 339.0000 1.0000
60.8000 326.0000 1.0000
60.8100 312.0000 1.0000
60.8200 295.0000 1.0000
60.8300 327.0000 1.0000
60.8400 321.0000 1.0000
60.8500 314.0000 1.0000
60.8600 304.0000 1.0000
60.8700 296.0000 1.0000
60.8800 312.0000 1.0000
60.8900 326.0000 1.0000
60.9000 314.0000 1.0000
60.9100 318.0000 1.0000
60.9200 320.0000 1.0000
60.9300 301.0000 1.0000
60.9400 312.0000 1.0000
60.9500 300.0000 1.0000
60.9600 295.0000 1.0000
60.9700 362.0000 1.0000
60.9800 314.0000 1.0000
60.9900 329.0000 1.0000
61.0000 323.0000 1.0000
61.0100 333.0000 1.0000
61.0200 344.0000 1.0000
61.0300 310.0000 1.0000
61.0400 323.0000 1.0000
61.0500 330.0000 1.0000
61.0600 335.0000 1.0000
61.0700 350.0000 1.0000
61.0800 337.0000 1.0000
61.0900 313.0000 1.0000
61.1000 329.0000 1.0000
61.1100 341.0000 1.0000
61.1200 316.0000 1.0000
61.1300 328.0000 1.0000
61.1400 321.0000 1.0000
61.1500 330.0000 1.0000
61.1600 346.0000 1.0000
61.1700 356.0000 1.0000
61.1800 383.0000 1.0000
61.1900 359.0000 1.0000
61.2000 350.0000 1.0000
61.2100 358.0000 1.0000
61.2200 357.0000 1.0000
61.2300 343.0000 1.0000
61.2400 362.0000 1.0000
61.2500 355.0000 1.0000
61.2600 356.0000 1.0000
61.2700 355.0000 1.0000
61.2800 380.0000 1.0000
61.2900 425.0000 1.0000
61.3000 409.0000 1.0000
61.3100 393.0000 1.0000
61.3200 389.0000 1.0000
61.3300 432.0000 1.0000
61.3400 441.0000 1.0000
61.3500 429.0000 1.0000
61.3600 433.0000 1.0000
61.3700 460.0000 1.0000
61.3800 476.0000 1.0000
61.3900 460.0000 1.0000
61.4000 471.0000 1.0000
61.4100 477.0000 1.0000
61.4200 497.0000 1.0000
61.4300 486.0000 1.0000
61.4400 497.0000 1.0000
61.4500 546.0000 1.0000
61.4600 564.0000 1.0000
61.4700 545.0000 1.0000
61.4800 513.0000 1.0000
61.4900 559.0000 1.0000
61.5000 616.0000 1.0000
61.5100 587.0000 1.0000
61.5200 554.0000 1.0000
61.5300 574.0000 1.0000
61.5400 606.0000 1.0000
61.5500 566.0000 1.0000
61.5600 614.0000 1.0000
61.5700 620.0000 1.0000
61.5800 595.0000 1.0000
61.5900 611.0000 1.0000
61.6000 600.0000 1.0000
61.6100 597.0000 1.0000
61.6200 575.0000 1.0000
61.6300 607.0000 1.0000
61.6400 596.0000 1.0000
61.6500 603.0000 1.0000
61.6600 576.0000 1.0000
61.6700 576.0000 1.0000
61.6800 559.0000 1.0000
61.6900 530.0000 1.0000
61.7000 546.0000 1.0000
61.7100 566.0000 1.0000
61.7200 535.0000 1.0000
61.7300 540.0000 1.0000
61.7400 514.0000 1.0000
61.7500 511.0000 1.0000
61.7600 529.0000 1.0000
61.7700 510.0000 1.0000
61.7800 489.0000 1.0000
61.7900 445.0000 1.0000
61.8000 429.0000 1.0000
61.8100 444.0000 1.0000
61.8200 455.0000 1.0000
61.8300 431.0000 1.0000
61.8400 442.0000 1.0000
61.8500 483.0000 1.0000
61.8600 461.0000 1.0000
61.8700 476.0000 1.0000
61.8800 398.0000 1.0000
61.8900 418.0000 1.0000
61.9000 404.0000 1.0000
61.9100 373.0000 1.0000
61.9200 385.0000 1.0000
61.9300 411.0000 1.0000
61.9400 380.0000 1.0000
61.9500 414.0000 1.0000
61.9600 347.0000 1.0000
61.9700 386.0000 1.0000
61.9800 417.0000 1.0000
61.9900 368.0000 1.0000
62.0000 366.0000 1.0000
62.0100 364.0000 1.0000
62.0200 361.0000 1.0000
62.0300 356.0000 1.0000
62.0400 372.0000 1.0000
62.0500 360.0000 1.0000
62.0600 365.0000 1.0000
62.0700 346.0000 1.0000
62.0800 357.0000 1.0000
62.0900 352.0000 1.0000
62.1000 353.0000 1.0000
62.1100 369.0000 1.0000
62.1200 339.0000 1.0000
62.1300 332.0000 1.0000
62.1400 342.0000 1.0000
62.1500 349.0000 1.0000
62.1600 353.0000 1.0000
62.1700 345.0000 1.0000
62.1800 374.0000 1.0000
62.1900 341.0000 1.0000
62.2000 339.0000 1.0000
62.2100 372.0000 1.0000
62.2200 334.0000 1.0000
62.2300 340.0000 1.0000
62.2400 306.0000 1.0000
62.2500 332.0000 1.0000
62.2600 342.0000 1.0000
62.2700 337.0000 1.0000
62.2800 350.0000 1.0000
62.2900 354.0000 1.0000
62.3000 350.0000 1.0000
62.3100 364.0000 1.0000
62.3200 340.0000 1.0000
62.3300 363.0000 1.0000
62.3400 373.0000 1.0000
62.3500 366.0000 1.0000
62.3600 342.0000 1.0000
62.3700 374.0000 1.0000
62.3800 382.0000 1.0000
62.3900 402.0000 1.0000
62.4000 396.0000 1.0000
62.4100 357.0000 1.0000
62.4200 360.0000 1.0000
62.4300 322.0000 1.0000
62.4400 366.0000 1.0000
62.4500 368.0000 1.0000
62.4600 359.0000 1.0000
62.4700 353.0000 1.0000
62.4800 349.0000 1.0000
62.4900 302.0000 1.0000
62.5000 325.0000 1.0000
62.5100 347.0000 1.0000
62.5200 373.0000 1.0000
62.5300 366.0000 1.0000
62.5400 335.0000 1.0000
62.5500 358.0000 1.0000
62.5600 331.0000 1.0000
62.5700 374.0000 1.0000
62.5800 340.0000 1.0000
62.5900 328.0000 1.0000
62.6000 338.0000 1.0000
62.6100 307.0000 1.0000
62.6200 351.0000 1.0000
62.6300 372.0000 1.0000
62.6400 315.0000 1.0000
62.6500 312.0000 1.0000
62.6600 319.0000 1.0000
62.6700 336.0000 1.0000
62.6800 322.0000 1.0000
62.6900 330.0000 1.0000
62.7000 335.0000 1.0000
62.7100 314.0000 1.0000
62.7200 323.0000 1.0000
62.7300 299.0000 1.0000
62.7400 329.0000 1.0000
62.7500 313.0000 1.0000
62.7600 317.0000 1.0000
62.7700 310.0000 1.0000
62.7800 298.0000 1.0000
62.7900 283.0000 1.0000
62.8000 332.0000 1.0000
62.8100 345.0000 1.0000
62.8200 331.0000 1.0000
62.8300 321.0000 1.0000
62.8400 328.0000 1.0000
62.8500 318.0000 1.0000
62.8600 299.0000 1.0000
62.8700 264.0000 1.0000
62.8800 308.0000 1.0000
62.8900 313.0000 1.0000
62.9000 327.0000 1.0000
62.9100 323.0000 1.0000
62.9200 303.0000 1.0000
62.9300 290.0000 1.0000
62.9400 317.0000 1.0000
62.9500 318.0000 1.0000
62.9600 323.0000 1.0000
62.9700 338.0000 1.0000
62.9800 284.0000 1.0000
62.9900 290.0000 1.0000
63.0000 317.0000 1.0000
63.0100 293.0000 1.0000
63.0200 306.0000 1.0000
63.0300 307.0000 1.0000
63.0400 316.0000 1.0000
63.0500 338.0000 1.0000
63.0600 303.0000 1.0000
63.0700 313.0000 1.0000
63.0800 353.0000 1.0000
63.0900 341.0000 1.0000
63.1000 325.0000 1.0000
63.1100 302.0000 1.0000
63.1200 308.0000 1.0000
63.1300 303.0000 1.0000
63.1400 301.0000 1.0000
63.1500 300.0000 1.0000
63.1600 325.0000 1.0000
63.1700 317.0000 1.0000
63.1800 317.0000 1.0000
63.1900 311.0000 1.0000
63.2000 314.0000 1.0000
63.2100 303.0000 1.0000
63.2200 285.0000 1.0000
63.2300 310.0000 1.0000
63.2400 315.0000 1.0000
63.2500 296.0000 1.0000
63.2600 288.0000 1.0000
63.2700 314.0000 1.0000
63.2800 333.0000 1.0000
63.2900 321.0000 1.0000
63.3000 325.0000 1.0000
63.3100 298.0000 1.0000
63.3200 307.0000 1.0000
63.3300 305.0000 1.0000
63.3400 328.0000 1.0000
63.3500 313.0000 1.0000
63.3600 328.0000 1.0000
63.3700 317.0000 1.0000
63.3800 307.0000 1.0000
63.3900 304.0000 1.0000
63.4000 320.0000 1.0000
63.4100 300.0000 1.0000
63.4200 310.0000 1.0000
63.4300 295.0000 1.0000
63.4400 331.0000 1.0000
63.4500 322.0000 1.0000
63.4600 322.0000 1.0000
63.4700 286.0000 1.0000
63.4800 317.0000 1.0000
63.4900 324.0000 1.0000
63.5000 312.0000 1.0000
63.5100 334.0000 1.0000
63.5200 323.0000 1.0000
63.5300 291.0000 1.0000
63.5400 312.0000 1.0000
63.5500 322.0000 1.0000
63.5600 351.0000 1.0000
63.5700 321.0000 1.0000
63.5800 316.0000 1.0000
63.5900 323.0000 1.0000
63.6000 345.0000 1.0000
63.6100 340.0000 1.0000
63.6200 348.0000 1.0000
63.6300 308.0000 1.0000
63.6400 326.0000 1.0000
63.6500 331.0000 1.0000
63.6600 353.0000 1.0000
63.6700 325.0000 1.0000
63.6800 366.0000 1.0000
63.6900 353.0000 1.0000
63.7000 343.0000 1.0000
63.7100 352.0000 1.0000
63.7200 324.0000 1.0000
63.7300 381.0000 1.0000
63.7400 364.0000 1.0000
63.7500 361.0000 1.0000
63.7600 354.0000 1.0000
63.7700 361.0000 1.0000
63.7800 368.0000 1.0000
63.7900 399.0000 1.0000
63.8000 397.0000 1.0000
63.8100 395.0000 1.0000
63.8200 396.0000 1.0000
63.8300 431.0000 1.0000
63.8400 417.0000 1.0000
63.8500 464.0000 1.0000
63.8600 459.0000 1.0000
63.8700 452.0000 1.0000
63.8800 469.0000 1.0000
63.8900 478.0000 1.0000
63.9000 563.0000 1.0000
63.9100 552.0000 1.0000
63.9200 590.0000 1.0000
63.9300 580.0000 1.0000
63.9400 565.0000 1.0000
63.9500 571.0000 1.0000
63.9600 539.0000 1.0000
63.9700 550.0000 1.0000
63.9800 538.0000 1.0000
63.9900 559.0000 1.0000
64.0000 566.0000 1.0000
64.0100 513.0000 1.0000
64.0200 516.0000 1.0000
64.0300 512.0000 1.0000
64.0400 483.0000 1.0000
64.0500 501.0000 1.0000
64.0600 491.0000 1.0000
64.0700 476.0000 1.0000
64.0800 507.0000 1.0000
64.0900 486.0000 1.0000
64.1000 478.0000 1.0000
64.1100 465.0000 1.0000
64.1200 499.0000 1.0000
64.1300 510.0000 1.0000
64.1400 448.0000 1.0000
64.1500 478.0000 1.0000
64.1600 443.0000 1.0000
64.1700 492.0000 1.0000
64.1800 438.0000 1.0000
64.1900 440.0000 1.0000
64.2000 399.0000 1.0000
64.2100 372.0000 1.0000
64.2200 361.0000 1.0000
64.2300 373.0000 1.0000
64.2400 386.0000 1.0000
64.2500 414.0000 1.0000
64.2600 365.0000 1.0000
64.2700 382.0000 1.0000
64.2800 350.0000 1.0000
64.2900 347.0000 1.0000
64.3000 340.0000 1.0000
64.3100 348.0000 1.0000
64.3200 356.0000 1.0000
64.3300 315.0000 1.0000
64.3400 333.0000 1.0000
64.3500 363.0000 1.0000
64.3600 335.0000 1.0000
64.3700 380.0000 1.0000
64.3800 322.0000 1.0000
64.3900 337.0000 1.0000
64.4000 356.0000 1.0000
64.4100 331.0000 1.0000
64.4200 338.0000 1.0000
64.4300 336.0000 1.0000
64.4400 324.0000 1.0000
64.4500 331.0000 1.0000
64.4600 331.0000 1.0000
64.4700 355.0000 1.0000
64.4800 310.0000 1.0000
64.4900 351.0000 1.0000
64.5000 335.0000 1.0000
64.5100 327.0000 1.0000
64.5200 339.0000 1.0000
64.5300 372.0000 1.0000
64.5400 345.0000 1.0000
64.5500 315.0000 1.0000
64.5600 308.0000 1.0000
64.5700 314.0000 1.0000
64.5800 326.0000 1.0000
64.5900 343.0000 1.0000
64.6000 310.0000 1.0000
64.6100 318.0000 1.0000
64.6200 325.0000 1.0000
64.6300 325.0000 1.0000
64.6400 340.0000 1.0000
64.6500 296.0000 1.0000
64.6600 319.0000 1.0000
64.6700 334.0000 1.0000
64.6800 311.0000 1.0000
64.6900 298.0000 1.0000
64.7000 326.0000 1.0000
64.7100 326.0000 1.0000
64.7200 322.0000 1.0000
64.7300 318.0000 1.0000
64.7400 336.0000 1.0000
64.7500 300.0000 1.0000
64.7600 313.0000 1.0000
64.7700 312.0000 1.0000
64.7800 318.0000 1.0000
64.7900 343.0000 1.0000
64.8000 338.0000 1.0000
64.8100 309.0000 1.0000
64.8200 299.0000 1.0000
64.8300 332.0000 1.0000
64.8400 335.0000 1.0000
64.8500 324.0000 1.0000
64.8600 334.0000 1.0000
64.8700 343.0000 1.0000
64.8800 323.0000 1.0000
64.8900 325.0000 1.0000
64.9000 333.0000 1.0000
64.9100 311.0000 1.0000
64.9200 337.0000 1.0000
64.9300 302.0000 1.0000
64.9400 329.0000 1.0000
64.9500 331.0000 1.0000
64.9600 339.0000 1.0000
64.9700 335.0000 1.0000
64.9800 313.0000 1.0000
64.9900 346.0000 1.0000
65.0000 338.0000 1.0000
65.0100 303.0000 1.0000
65.0200 341.0000 1.0000
65.0300 313.0000 1.0000
65.0400 315.0000 1.0000
65.0500 334.0000 1.0000
65.0600 348.0000 1.0000
65.0700 331.0000 1.0000
65.0800 345.0000 1.0000
65.0900 338.0000 1.0000
65.1000 336.0000 1.0000
65.1100 325.0000 1.0000
65.1200 381.0000 1.0000
65.1300 379.0000 1.0000
65.1400 378.0000 1.0000
65.1500 348.0000 1.0000
65.1600 370.0000 1.0000
65.1700 394.0000 1.0000
65.1800 388.0000 1.0000
65.1900 368.0000 1.0000
65.2000 357.0000 1.0000
65.2100 398.0000 1.0000
65.2200 410.0000 1.0000
65.2300 381.0000 1.0000
65.2400 366.0000 1.0000
65.2500 365.0000 1.0000
65.2600 398.0000 1.0000
65.2700 430.0000 1.0000
65.2800 438.0000 1.0000
65.2900 427.0000 1.0000
65.3000 454.0000 1.0000
65.3100 480.0000 1.0000
65.3200 459.0000 1.0000
65.3300 501.0000 1.0000
65.3400 519.0000 1.0000
65.3500 518.0000 1.0000
65.3600 531.0000 1.0000
65.3700 550.0000 1.0000
65.3800 605.0000 1.0000
65.3900 654.0000 1.0000
65.4000 646.0000 1.0000
65.4100 654.0000 1.0000
65.4200 705.0000 1.0000
65.4300 697.0000 1.0000
65.4400 716.0000 1.0000
65.4500 724.0000 1.0000
65.4600 794.0000 1.0000
65.4700 835.0000 1.0000
65.4800 851.0000 1.0000
65.4900 872.0000 1.0000
65.5000 832.0000 1.0000
65.5100 949.0000 1.0000
65.5200 973.0000 1.0000
65.5300 925.0000 1.0000
65.5400 947.0000 1.0000
65.5500 992.0000 1.0000
65.5600 1052.0000 1.0000
65.5700 1038.0000 1.0000
65.5800 1015.0000 1.0000
65.5900 1025.0000 1.0000
65.6000 978.0000 1.0000
65.6100 1018.0000 1.0000
65.6200 944.0000 1.0000
65.6300 926.0000 1.0000
65.6400 878.0000 1.0000
65.6500 861.0000 1.0000
65.6600 840.0000 1.0000
65.6700 817.0000 1.0000
65.6800 879.0000 1.0000
65.6900 857.0000 1.0000
65.7000 864.0000 1.0000
65.7100 769.0000 1.0000
65.7200 832.0000 1.0000
65.7300 786.0000 1.0000
65.7400 768.0000 1.0000
65.7500 707.0000 1.0000
65.7600 761.0000 1.0000
65.7700 750.0000 1.0000
65.7800 753.0000 1.0000
65.7900 655.0000 1.0000
65.8000 644.0000 1.0000
65.8100 596.0000 1.0000
65.8200 627.0000 1.0000
65.8300 618.0000 1.0000
65.8400 581.0000 1.0000
65.8500 578.0000 1.0000
65.8600 546.0000 1.0000
65.8700 493.0000 1.0000
65.8800 492.0000 1.0000
65.8900 473.0000 1.0000
65.9000 496.0000 1.0000
65.9100 466.0000 1.0000
65.9200 466.0000 1.0000
65.9300 452.0000 1.0000
65.9400 442.0000 1.0000
65.9500 436.0000 1.0000
65.9600 419.0000 1.0000
65.9700 416.0000 1.0000
65.9800 381.0000 1.0000
65.9900 397.0000 1.0000
66.0000 410.0000 1.0000
66.0100 424.0000 1.0000
66.0200 367.0000 1.0000
66.0300 368.0000 1.0000
66.0400 357.0000 1.0000
66.0500 360.0000 1.0000
66.0600 376.0000 1.0000
66.0700 371.0000 1.0000
66.0800 337.0000 1.0000
66.0900 333.0000 1.0000
66.1000 372.0000 1.0000
66.1100 340.0000 1.0000
66.1200 344.0000 1.0000
66.1300 364.0000 1.0000
66.1400 321.0000 1.0000
66.1500 329.0000 1.0000
66.1600 332.0000 1.0000
66.1700 351.0000 1.0000
66.1800 329.0000 1.0000
66.1900 344.0000 1.0000
66.2000 314.0000 1.0000
66.2100 329.0000 1.0000
66.2200 319.0000 1.0000
66.2300 350.0000 1.0000
66.2400 313.0000 1.0000
66.2500 305.0000 1.0000
66.2600 327.0000 1.0000
66.2700 328.0000 1.0000
66.2800 338.0000 1.0000
66.2900 312.0000 1.0000
66.3000 318.0000 1.0000
66.3100 307.0000 1.0000
66.3200 317.0000 1.0000
66.3300 328.0000 1.0000
66.3400 285.0000 1.0000
66.3500 298.0000 1.0000
66.3600 291.0000 1.0000
66.3700 310.0000 1.0000
66.3800 315.0000 1.0000
66.3900 275.0000 1.0000
66.4000 307.0000 1.0000
66.4100 296.0000 1.0000
66.4200 310.0000 1.0000
66.4300 296.0000 1.0000
66.4400 280.0000 1.0000
66.4500 304.0000 1.0000
66.4600 308.0000 1.0000
66.4700 299.0000 1.0000
66.4800 323.0000 1.0000
66.4900 289.0000 1.0000
66.5000 295.0000 1.0000
66.5100 299.0000 1.0000
66.5200 313.0000 1.0000
66.5300 297.0000 1.0000
66.5400 302.0000 1.0000
66.5500 286.0000 1.0000
66.5600 300.0000 1.0000
66.5700 316.0000 1.0000
66.5800 314.0000 1.0000
66.5900 315.0000 1.0000
66.6000 289.0000 1.0000
66.6100 328.0000 1.0000
66.6200 309.0000 1.0000
66.6300 305.0000 1.0000
66.6400 294.0000 1.0000
66.6500 298.0000 1.0000
66.6600 315.0000 1.0000
66.6700 325.0000 1.0000
66.6800 316.0000 1.0000
66.6900 297.0000 1.0000
66.7000 307.0000 1.0000
66.7100 304.0000 1.0000
66.7200 287.0000 1.0000
66.7300 275.0000 1.0000
66.7400 291.0000 1.0000
66.7500 273.0000 1.0000
66.7600 268.0000 1.0000
66.7700 281.0000 1.0000
66.7800 287.0000 1.0000
66.7900 291.0000 1.0000
66.8000 310.0000 1.0000
66.8100 289.0000 1.0000
66.8200 285.0000 1.0000
66.8300 315.0000 1.0000
66.8400 322.0000 1.0000
66.8500 295.0000 1.0000
66.8600 267.0000 1.0000
66.8700 290.0000 1.0000
66.8800 311.0000 1.0000
66.8900 283.0000 1.0000
66.9000 282.0000 1.0000
66.9100 303.0000 1.0000
66.9200 325.0000 1.0000
66.9300 307.0000 1.0000
66.9400 286.0000 1.0000
66.9500 288.0000 1.0000
66.9600 294.0000 1.0000
66.9700 285.0000 1.0000
66.9800 293.0000 1.0000
66.9900 289.0000 1.0000
67.0000 296.0000 1.0000
67.0100 288.0000 1.0000
67.0200 298.0000 1.0000
67.0300 284.0000 1.0000
67.0400 301.0000 1.0000
67.0500 291.0000 1.0000
67.0600 272.0000 1.0000
67.0700 277.0000 1.0000
67.0800 295.0000 1.0000
67.0900 288.0000 1.0000
67.1000 286.0000 1.0000
67.1100 317.0000 1.0000
67.1200 308.0000 1.0000
67.1300 311.0000 1.0000
67.1400 292.0000 1.0000
67.1500 279.0000 1.0000
67.1600 285.0000 1.0000
67.1700 299.0000 1.0000
67.1800 302.0000 1.0000
67.1900 280.0000 1.0000
67.2000 280.0000 1.0000
67.2100 293.0000 1.0000
67.2200 278.0000 1.0000
67.2300 276.0000 1.0000
67.2400 252.0000 1.0000
67.2500 280.0000 1.0000
67.2600 277.0000 1.0000
67.2700 296.0000 1.0000
67.2800 284.0000 1.0000
67.2900 272.0000 1.0000
67.3000 281.0000 1.0000
67.3100 290.0000 1.0000
67.3200 286.0000 1.0000
67.3300 285.0000 1.0000
67.3400 278.0000 1.0000
67.3500 299.0000 1.0000
67.3600 278.0000 1.0000
67.3700 294.0000 1.0000
67.3800 289.0000 1.0000
67.3900 261.0000 1.0000
67.4000 277.0000 1.0000
67.4100 291.0000 1.0000
67.4200 306.0000 1.0000
67.4300 318.0000 1.0000
67.4400 294.0000 1.0000
67.4500 266.0000 1.0000
67.4600 294.0000 1.0000
67.4700 299.0000 1.0000
67.4800 273.0000 1.0000
67.4900 299.0000 1.0000
67.5000 299.0000 1.0000
67.5100 301.0000 1.0000
67.5200 293.0000 1.0000
67.5300 303.0000 1.0000
67.5400 280.0000 1.0000
67.5500 281.0000 1.0000
67.5600 288.0000 1.0000
67.5700 293.0000 1.0000
67.5800 299.0000 1.0000
67.5900 265.0000 1.0000
67.6000 285.0000 1.0000
67.6100 291.0000 1.0000
67.6200 285.0000 1.0000
67.6300 298.0000 1.0000
67.6400 284.0000 1.0000
67.6500 273.0000 1.0000
67.6600 283.0000 1.0000
67.6700 275.0000 1.0000
67.6800 278.0000 1.0000
67.6900 285.0000 1.0000
67.7000 295.0000 1.0000
67.7100 273.0000 1.0000
67.7200 308.0000 1.0000
67.7300 294.0000 1.0000
67.7400 283.0000 1.0000
67.7500 285.0000 1.0000
67.7600 293.0000 1.0000
67.7700 272.0000 1.0000
67.7800 257.0000 1.0000
67.7900 297.0000 1.0000
67.8000 287.0000 1.0000
67.8100 281.0000 1.0000
67.8200 282.0000 1.0000
67.8300 294.0000 1.0000
67.8400 321.0000 1.0000
67.8500 292.0000 1.0000
67.8600 259.0000 1.0000
67.8700 302.0000 1.0000
67.8800 282.0000 1.0000
67.8900 303.0000 1.0000
67.9000 258.0000 1.0000
67.9100 291.0000 1.0000
67.9200 273.0000 1.0000
67.9300 263.0000 1.0000
67.9400 275.0000 1.0000
67.9500 308.0000 1.0000
67.9600 269.0000 1.0000
67.9700 281.0000 1.0000
67.9800 297.0000 1.0000
67.9900 257.0000 1.0000
68.0000 307.0000 1.0000
68.0100 306.0000 1.0000
68.0200 283.0000 1.0000
68.0300 267.0000 1.0000
68.0400 287.0000 1.0000
68.0500 308.0000 1.0000
68.0600 294.0000 1.0000
68.0700 287.0000 1.0000
68.0800 292.0000 1.0000
68.0900 271.0000 1.0000
68.1000 283.0000 1.0000
68.1100 282.0000 1.0000
68.1200 300.0000 1.0000
68.1300 309.0000 1.0000
68.1400 293.0000 1.0000
68.1500 263.0000 1.0000
68.1600 278.0000 1.0000
68.1700 279.0000 1.0000
68.1800 266.0000 1.0000
68.1900 262.0000 1.0000
68.2000 264.0000 1.0000
68.2100 275.0000 1.0000
68.2200 291.0000 1.0000
68.2300 309.0000 1.0000
68.2400 283.0000 1.0000
68.2500 307.0000 1.0000
68.2600 286.0000 1.0000
68.2700 259.0000 1.0000
68.2800 314.0000 1.0000
68.2900 280.0000 1.0000
68.3000 272.0000 1.0000
68.3100 304.0000 1.0000
68.3200 280.0000 1.0000
68.3300 284.0000 1.0000
68.3400 265.0000 1.0000
68.3500 301.0000 1.0000
68.3600 299.0000 1.0000
68.3700 292.0000 1.0000
68.3800 266.0000 1.0000
68.3900 271.0000 1.0000
68.4000 232.0000 1.0000
68.4100 268.0000 1.0000
68.4200 266.0000 1.0000
68.4300 258.0000 1.0000
68.4400 292.0000 1.0000
68.4500 294.0000 1.0000
68.4600 283.0000 1.0000
68.4700 283.0000 1.0000
68.4800 285.0000 1.0000
68.4900 291.0000 1.0000
68.5000 264.0000 1.0000
68.5100 266.0000 1.0000
68.5200 283.0000 1.0000
68.5300 282.0000 1.0000
68.5400 271.0000 1.0000
68.5500 286.0000 1.0000
68.5600 287.0000 1.0000
68.5700 299.0000 1.0000
68.5800 280.0000 1.0000
68.5900 277.0000 1.0000
68.6000 262.0000 1.0000
68.6100 275.0000 1.0000
68.6200 294.0000 1.0000
68.6300 269.0000 1.0000
68.6400 285.0000 1.0000
68.6500 286.0000 1.0000
68.6600 283.0000 1.0000
68.6700 271.0000 1.0000
68.6800 279.0000 1.0000
68.6900 285.0000 1.0000
68.7000 281.0000 1.0000
68.7100 269.0000 1.0000
68.7200 261.0000 1.0000
68.7300 277.0000 1.0000
68.7400 284.0000 1.0000
68.7500 295.0000 1.0000
68.7600 279.0000 1.0000
68.7700 282.0000 1.0000
68.7800 260.0000 1.0000
68.7900 285.0000 1.0000
68.8000 287.0000 1.0000
68.8100 306.0000 1.0000
68.8200 265.0000 1.0000
68.8300 267.0000 1.0000
68.8400 267.0000 1.0000
68.8500 294.0000 1.0000
68.8600 288.0000 1.0000
68.8700 279.0000 1.0000
68.8800 303.0000 1.0000
68.8900 296.0000 1.0000
68.9000 307.0000 1.0000
68.9100 288.0000 1.0000
68.9200 281.0000 1.0000
68.9300 259.0000 1.0000
68.9400 267.0000 1.0000
68.9500 289.0000 1.0000
68.9600 268.0000 1.0000
68.9700 275.0000 1.0000
68.9800 287.0000 1.0000
68.9900 273.0000 1.0000
69.0000 270.0000 1.0000
69.0100 265.0000 1.0000
69.0200 254.0000 1.0000
69.0300 282.0000 1.0000
69.0400 279.0000 1.0000
69.0500 288.0000 1.0000
69.0600 287.0000 1.0000
69.0700 269.0000 1.0000
69.0800 306.0000 1.0000
69.0900 279.0000 1.0000
69.1000 254.0000 1.0000
69.1100 268.0000 1.0000
69.1200 282.0000 1.0000
69.1300 292.0000 1.0000
69.1400 260.0000 1.0000
69.1500 247.0000 1.0000
69.1600 274.0000 1.0000
69.1700 275.0000 1.0000
69.1800 278.0000 1.0000
69.1900 280.0000 1.0000
69.2000 245.0000 1.0000
69.2100 257.0000 1.0000
69.2200 246.0000 1.0000
69.2300 265.0000 1.0000
69.2400 251.0000 1.0000
69.2500 265.0000 1.0000
69.2600 259.0000 1.0000
69.2700 276.0000 1.0000
69.2800 273.0000 1.0000
69.2900 271.0000 1.0000
69.3000 279.0000 1.0000
69.3100 275.0000 1.0000
69.3200 277.0000 1.0000
69.3300 258.0000 1.0000
69.3400 291.0000 1.0000
69.3500 260.0000 1.0000
69.3600 254.0000 1.0000
69.3700 274.0000 1.0000
69.3800 272.0000 1.0000
69.3900 271.0000 1.0000
69.4000 259.0000 1.0000
69.4100 260.0000 1.0000
69.4200 269.0000 1.0000
69.4300 275.0000 1.0000
69.4400 267.0000 1.0000
69.4500 260.0000 1.0000
69.4600 278.0000 1.0000
69.4700 256.0000 1.0000
69.4800 292.0000 1.0000
69.4900 280.0000 1.0000
69.5000 262.0000 1.0000
69.5100 271.0000 1.0000
69.5200 271.0000 1.0000
69.5300 283.0000 1.0000
69.5400 292.0000 1.0000
69.5500 276.0000 1.0000
69.5600 282.0000 1.0000
69.5700 269.0000 1.0000
69.5800 280.0000 1.0000
69.5900 301.0000 1.0000
69.6000 279.0000 1.0000
69.6100 283.0000 1.0000
69.6200 273.0000 1.0000
69.6300 272.0000 1.0000
69.6400 246.0000 1.0000
69.6500 282.0000 1.0000
69.6600 266.0000 1.0000
69.6700 275.0000 1.0000
69.6800 261.0000 1.0000
69.6900 272.0000 1.0000
69.7000 275.0000 1.0000
69.7100 265.0000 1.0000
69.7200 251.0000 1.0000
69.7300 251.0000 1.0000
69.7400 270.0000 1.0000
69.7500 264.0000 1.0000
69.7600 262.0000 1.0000
69.7700 272.0000 1.0000
69.7800 288.0000 1.0000
69.7900 265.0000 1.0000
69.8000 282.0000 1.0000
69.8100 289.0000 1.0000
69.8200 253.0000 1.0000
69.8300 275.0000 1.0000
69.8400 293.0000 1.0000
69.8500 274.0000 1.0000
69.8600 280.0000 1.0000
69.8700 286.0000 1.0000
69.8800 277.0000 1.0000
69.8900 285.0000 1.0000
69.9000 260.0000 1.0000
69.9100 261.0000 1.0000
69.9200 261.0000 1.0000
69.9300 254.0000 1.0000
69.9400 264.0000 1.0000
69.9500 272.0000 1.0000
69.9600 289.0000 1.0000
69.9700 254.0000 1.0000
69.9800 255.0000 1.0000
69.9900 242.0000 1.0000
70.0000 291.0000 1.0000
*RAS_INT_END
*RAS_TEMPERATURE_START
*RAS_TEMPERATURE_END
*RAS_DATA_END
