*RAS_DATA_START
*RAS_HEADER_START
*DISP_FMT_X "%.2f"
*DISP_FMT_Y "%.0f"
*DISP_FULLSCALE "15340.0000000000"
*DISP_LINE_COLOR "255.0000000000"
*DISP_LINE_STYLE "0.0000000000"
*DISP_LINE_WIDTH "0.2500000000"
*DISP_NOTE "測定データ-3"
*DISP_OFFSET_Y "0.0000000000"
*DISP_PEAKSEARCH_UNIT_Y "cps"
*DISP_RANGE_BOTTOM "0.0000000000"
*DISP_RANGE_LEFT "20.0000000000"
*DISP_RANGE_LOGCUTOFF "0.0100000000"
*DISP_RANGE_RIGHT "70.0000000000"
*DISP_RANGE_TOP "15340.0000000000"
*DISP_SCALE_MODE_Y "0.0000000000"
*DISP_TAB_NAME "2θ/θ"
*DISP_TITLE_Y "強度"
*DISP_UNIT_Y "cps"
*DISP_WINDOW_NAME "MSG_MACROENGINE"
*FILE_COMMENT " "
*FILE_MD5 ""
*FILE_MEMO " "
*FILE_OPERATOR "Administrator"
*FILE_SAMPLE " "
*FILE_TYPE "RAS_RAW"
*FILE_USERGROUP "システムマネージャ"
*FILE_VERSION "1.0000000000"
*HW_ATTACHMENT_ID "ATT0025"
*HW_ATTACHMENT_NAME "標準|Standard"
*HW_COUNTER_ID-0 "CUT0025"
*HW_COUNTER_ID-1 "CUT0020"
*HW_COUNTER_ID-2 "CUT0020"
*HW_COUNTER_ID-3 "CSL0021"
*HW_COUNTER_ID-4 "CMC0021"
*HW_COUNTER_NAME-0 "D/teX Ultra|D/teX Ultra"
*HW_COUNTER_NAME-1 "None|None"
*HW_COUNTER_NAME-2 "None|None"
*HW_COUNTER_NAME-3 "BBM|BBM"
*HW_COUNTER_NAME-4 "検出器モノクロメータ|Detector monochromator"
*HW_COUNTER_SELECT_NAME "D/teX Ultra|D/teX Ultra"
*HW_GONIOMETER_ID "GON0023"
*HW_GONIOMETER_NAME "SmartLab|SmartLab"
*HW_GONIOMETER_RADIUS-0 "90.0"
*HW_GONIOMETER_RADIUS-1 "114.0"
*HW_GONIOMETER_RADIUS-2 "190.0"
*HW_GONIOMETER_RADIUS-3 "300.0"
*HW_GONIOMETER_RADIUS-4 "187.0"
*HW_GONIOMETER_RADIUS-5 "300.0"
*HW_GONIOMETER_RADIUS-6 "113.0"
*HW_GONIOMETER_RADIUS-7 "331.0"
*HW_I_OPT_ID-0 "CBO0021"
*HW_I_OPT_ID-1 "ICR0023"
*HW_I_OPT_ID-2 "ISL0021"
*HW_I_OPT_ID-3 "ISO0021"
*HW_I_OPT_ID-4 "IAD0021"
*HW_I_OPT_ID-5 "IPR0001"
*HW_I_OPT_NAME-0 "CBOユニット|CBO unit"
*HW_I_OPT_NAME-1 "標準入射光学ユニット|Standard incident optical unit"
*HW_I_OPT_NAME-2 "標準入射スリットボックス|Standard incident slit box"
*HW_I_OPT_NAME-3 "入射平行スリット|Incident parallel slit"
*HW_I_OPT_NAME-4 "長手制限スリット|Length limiting slit"
*HW_I_OPT_NAME-5 "None|None"
*HW_R_ATTENUATER_AUTOMODE "0"
*HW_R_OPT_ID-0 "RSS0021"
*HW_R_OPT_ID-1 "RCR0023"
*HW_R_OPT_ID-2 "RSO0021"
*HW_R_OPT_ID-3 "RRS0021"
*HW_R_OPT_ID-4 "ATN0021"
*HW_R_OPT_ID-5 "RFL0021"
*HW_R_OPT_ID-6 "RAD0021"
*HW_R_OPT_NAME-0 "標準受光スリットボックス1|Standard receiving slit box # 1"
*HW_R_OPT_NAME-1 "標準受光光学ユニット1|Standard receiving unit # 1"
*HW_R_OPT_NAME-2 "標準受光光学ユニット2|Standard receiving optical unit # 2"
*HW_R_OPT_NAME-3 "標準受光スリットボックス2|Standard receiving slit box # 2"
*HW_R_OPT_NAME-4 "標準アッテネータ|Standard Attenuator"
*HW_R_OPT_NAME-5 "Cu Kβ|Cu K-beta"
*HW_R_OPT_NAME-6 "調整用受光スリット|Alignment receiving slit"
*HW_SAMPLE_HOLDER_ID "SMP0023"
*HW_SAMPLE_HOLDER_NAME "標準Zステージ|Standard Z stage"
*HW_XG_CURRENT_MAX "50"
*HW_XG_CURRENT_MIN "2"
*HW_XG_CURRENT_RESOLUTION "1"
*HW_XG_CURRENT_UNIT "mA"
*HW_XG_FOCUS "1mm x 10mm"
*HW_XG_FOCUS_TYPE "Normal"
*HW_XG_ID ""
*HW_XG_NAME "3kW 封入管(ID:1200)|3kW Sealed tube(ID:1200)"
*HW_XG_TARGET_ATOMIC_NUMBER "29.0000000000"
*HW_XG_TARGET_NAME "Cu"
*HW_XG_TYPE "Hermetic"
*HW_XG_VOLTAGE_MAX "60"
*HW_XG_VOLTAGE_MIN "20"
*HW_XG_VOLTAGE_RESOLUTION "1"
*HW_XG_VOLTAGE_UNIT "kV"
*HW_XG_WATT_MAX "1.500"
*HW_XG_WATT_UNIT "kW"
*HW_XG_WAVE_LENGTH_ALPHA1 "1.540593"
*HW_XG_WAVE_LENGTH_ALPHA2 "1.544414"
*HW_XG_WAVE_LENGTH_BETA "1.392250"
*MEAS_COND_AXIS_NAME-0 "2θ/θ"
*MEAS_COND_AXIS_NAME-1 "2θ"
*MEAS_COND_AXIS_NAME-2 "ω"
*MEAS_COND_AXIS_NAME-3 "Z"
*MEAS_COND_AXIS_NAME-4 "2θ/ω"
*MEAS_COND_AXIS_NAME-5 "θs"
*MEAS_COND_AXIS_NAME-6 "θd"
*MEAS_COND_AXIS_NAME-7 "Ts"
*MEAS_COND_AXIS_NAME-8 "CBO選択スリット"
*MEAS_COND_AXIS_NAME-9 "M"
*MEAS_COND_AXIS_NAME-10 "入射平行スリット"
*MEAS_COND_AXIS_NAME-11 "入射スリット"
*MEAS_COND_AXIS_NAME-12 ""
*MEAS_COND_AXIS_NAME-13 "Zs"
*MEAS_COND_AXIS_NAME-14 "入射光学素子"
*MEAS_COND_AXIS_NAME-15 "長手制限スリット"
*MEAS_COND_AXIS_NAME-16 "センタースリット"
*MEAS_COND_AXIS_NAME-17 "フィルター"
*MEAS_COND_AXIS_NAME-18 "受光スリット1"
*MEAS_COND_AXIS_NAME-19 "受光スリット2"
*MEAS_COND_AXIS_NAME-20 "受光光学素子"
*MEAS_COND_AXIS_NAME-21 "受光平行スリット"
*MEAS_COND_AXIS_NAME-22 "調整用受光スリット"
*MEAS_COND_AXIS_NAME-23 ""
*MEAS_COND_AXIS_NAME-24 ""
*MEAS_COND_AXIS_NAME-25 "Zd"
*MEAS_COND_AXIS_NAME-26 "アッテネータ"
*MEAS_COND_AXIS_NAME-27 "検出器モノクロメータ"
*MEAS_COND_AXIS_NAME-28 "モノクロメータスリット"
*MEAS_COND_AXIS_NAME-29 "プライマリビーム"
*MEAS_COND_AXIS_NAME-30 "PHA"
*MEAS_COND_AXIS_NAME_INTERNAL-0 "TwoThetaTheta"
*MEAS_COND_AXIS_NAME_INTERNAL-1 "TwoTheta"
*MEAS_COND_AXIS_NAME_INTERNAL-2 "Omega"
*MEAS_COND_AXIS_NAME_INTERNAL-3 "Z"
*MEAS_COND_AXIS_NAME_INTERNAL-4 "TwoThetaOmega"
*MEAS_COND_AXIS_NAME_INTERNAL-5 "ThetaS"
*MEAS_COND_AXIS_NAME_INTERNAL-6 "ThetaD"
*MEAS_COND_AXIS_NAME_INTERNAL-7 "Ts"
*MEAS_COND_AXIS_NAME_INTERNAL-8 "CBO"
*MEAS_COND_AXIS_NAME_INTERNAL-9 "CBO-M"
*MEAS_COND_AXIS_NAME_INTERNAL-10 "IncidentSollerSlit"
*MEAS_COND_AXIS_NAME_INTERNAL-11 "IncidentSlitBox"
*MEAS_COND_AXIS_NAME_INTERNAL-12 "IncidentSlitBox-_Axis"
*MEAS_COND_AXIS_NAME_INTERNAL-13 "Zs"
*MEAS_COND_AXIS_NAME_INTERNAL-14 "IncidentMonochromator"
*MEAS_COND_AXIS_NAME_INTERNAL-15 "IncidentAxdSlit"
*MEAS_COND_AXIS_NAME_INTERNAL-16 "CenterSlit"
*MEAS_COND_AXIS_NAME_INTERNAL-17 "Filter"
*MEAS_COND_AXIS_NAME_INTERNAL-18 "ReceivingSlitBox1"
*MEAS_COND_AXIS_NAME_INTERNAL-19 "ReceivingSlitBox2"
*MEAS_COND_AXIS_NAME_INTERNAL-20 "ReceivingOptics"
*MEAS_COND_AXIS_NAME_INTERNAL-21 "ReceivingSollerSlit"
*MEAS_COND_AXIS_NAME_INTERNAL-22 "ReceivingAxdSlit"
*MEAS_COND_AXIS_NAME_INTERNAL-23 "ReceivingSlitBox1-_Axis"
*MEAS_COND_AXIS_NAME_INTERNAL-24 "ReceivingSlitBox2-_Axis"
*MEAS_COND_AXIS_NAME_INTERNAL-25 "ReceivingSlitBox2-Zd"
*MEAS_COND_AXIS_NAME_INTERNAL-26 "Attenuator"
*MEAS_COND_AXIS_NAME_INTERNAL-27 "CounterMonochromator"
*MEAS_COND_AXIS_NAME_INTERNAL-28 "CounterSlit"
*MEAS_COND_AXIS_NAME_INTERNAL-29 "IncidentPrimary"
*MEAS_COND_AXIS_NAME_INTERNAL-30 "PHA"
*MEAS_COND_AXIS_NAME_MAGICNO-0 "83951616.0000000000"
*MEAS_COND_AXIS_NAME_MAGICNO-1 "268632064.0000000000"
*MEAS_COND_AXIS_NAME_MAGICNO-2 "268500992.0000000000"
*MEAS_COND_AXIS_NAME_MAGICNO-3 "285278208.0000000000"
*MEAS_COND_AXIS_NAME_MAGICNO-4 "83951616.0000000000"
*MEAS_COND_AXIS_NAME_MAGICNO-5 "131072.0000000000"
*MEAS_COND_AXIS_NAME_MAGICNO-6 "131072.0000000000"
*MEAS_COND_AXIS_NAME_MAGICNO-7 "318898176.0000000000"
*MEAS_COND_AXIS_NAME_MAGICNO-8 "20971521.0000000000"
*MEAS_COND_AXIS_NAME_MAGICNO-9 "285343744.0000000000"
*MEAS_COND_AXIS_NAME_MAGICNO-10 "20971521.0000000000"
*MEAS_COND_AXIS_NAME_MAGICNO-11 "22020097.0000000000"
*MEAS_COND_AXIS_NAME_MAGICNO-12 "25165824.0000000000"
*MEAS_COND_AXIS_NAME_MAGICNO-13 "318898176.0000000000"
*MEAS_COND_AXIS_NAME_MAGICNO-14 "1.0000000000"
*MEAS_COND_AXIS_NAME_MAGICNO-15 "20971521.0000000000"
*MEAS_COND_AXIS_NAME_MAGICNO-16 "20971521.0000000000"
*MEAS_COND_AXIS_NAME_MAGICNO-17 "20971521.0000000000"
*MEAS_COND_AXIS_NAME_MAGICNO-18 "23068673.0000000000"
*MEAS_COND_AXIS_NAME_MAGICNO-19 "23068673.0000000000"
*MEAS_COND_AXIS_NAME_MAGICNO-20 "20971521.0000000000"
*MEAS_COND_AXIS_NAME_MAGICNO-21 "20971521.0000000000"
*MEAS_COND_AXIS_NAME_MAGICNO-22 "20971521.0000000000"
*MEAS_COND_AXIS_NAME_MAGICNO-23 "25165824.0000000000"
*MEAS_COND_AXIS_NAME_MAGICNO-24 "25165824.0000000000"
*MEAS_COND_AXIS_NAME_MAGICNO-25 "285343744.0000000000"
*MEAS_COND_AXIS_NAME_MAGICNO-26 "17301505.0000000000"
*MEAS_COND_AXIS_NAME_MAGICNO-27 "20971521.0000000000"
*MEAS_COND_AXIS_NAME_MAGICNO-28 "20971521.0000000000"
*MEAS_COND_AXIS_NAME_MAGICNO-29 "20971521.0000000000"
*MEAS_COND_AXIS_NAME_MAGICNO-30 "0.0000000000"
*MEAS_COND_AXIS_OFFSET-0 "-"
*MEAS_COND_AXIS_OFFSET-1 "-0.0310000000"
*MEAS_COND_AXIS_OFFSET-2 "0.1954000000"
*MEAS_COND_AXIS_OFFSET-3 "-"
*MEAS_COND_AXIS_OFFSET-4 "-"
*MEAS_COND_AXIS_OFFSET-5 "0.1954000000"
*MEAS_COND_AXIS_OFFSET-6 "-0.2264000000"
*MEAS_COND_AXIS_OFFSET-7 "-"
*MEAS_COND_AXIS_OFFSET-8 "-"
*MEAS_COND_AXIS_OFFSET-9 "-"
*MEAS_COND_AXIS_OFFSET-10 "-"
*MEAS_COND_AXIS_OFFSET-11 "-"
*MEAS_COND_AXIS_OFFSET-12 "-"
*MEAS_COND_AXIS_OFFSET-13 "-"
*MEAS_COND_AXIS_OFFSET-14 "-"
*MEAS_COND_AXIS_OFFSET-15 "-"
*MEAS_COND_AXIS_OFFSET-16 "-"
*MEAS_COND_AXIS_OFFSET-17 "-"
*MEAS_COND_AXIS_OFFSET-18 "-"
*MEAS_COND_AXIS_OFFSET-19 "-"
*MEAS_COND_AXIS_OFFSET-20 "-"
*MEAS_COND_AXIS_OFFSET-21 "-"
*MEAS_COND_AXIS_OFFSET-22 "-"
*MEAS_COND_AXIS_OFFSET-23 "-"
*MEAS_COND_AXIS_OFFSET-24 "-"
*MEAS_COND_AXIS_OFFSET-25 "-"
*MEAS_COND_AXIS_OFFSET-26 "-"
*MEAS_COND_AXIS_OFFSET-27 "-"
*MEAS_COND_AXIS_OFFSET-28 "-"
*MEAS_COND_AXIS_OFFSET-29 "-"
*MEAS_COND_AXIS_OFFSET-30 "-"
*MEAS_COND_AXIS_POSITION-0 "0.0000000000"
*MEAS_COND_AXIS_POSITION-1 "0.0000000000"
*MEAS_COND_AXIS_POSITION-2 "0.0000000000"
*MEAS_COND_AXIS_POSITION-3 "-2.9389800000"
*MEAS_COND_AXIS_POSITION-4 "0.0000000000"
*MEAS_COND_AXIS_POSITION-5 "0.0000000000"
*MEAS_COND_AXIS_POSITION-6 "0.0000000000"
*MEAS_COND_AXIS_POSITION-7 "-0.7498700000"
*MEAS_COND_AXIS_POSITION-8 "BB"
*MEAS_COND_AXIS_POSITION-9 "0.0000000000"
*MEAS_COND_AXIS_POSITION-10 "Soller_slit_5.0deg"
*MEAS_COND_AXIS_POSITION-11 "2/3deg"
*MEAS_COND_AXIS_POSITION-12 "2.2088000000"
*MEAS_COND_AXIS_POSITION-13 "-0.6412500000"
*MEAS_COND_AXIS_POSITION-14 "0.0000000000"
*MEAS_COND_AXIS_POSITION-15 "10.0mm"
*MEAS_COND_AXIS_POSITION-16 "None"
*MEAS_COND_AXIS_POSITION-17 "Cu_K-beta"
*MEAS_COND_AXIS_POSITION-18 "13.000mm"
*MEAS_COND_AXIS_POSITION-19 "13.000mm"
*MEAS_COND_AXIS_POSITION-20 "No_unit"
*MEAS_COND_AXIS_POSITION-21 "Soller_slit_5.0deg"
*MEAS_COND_AXIS_POSITION-22 "None"
*MEAS_COND_AXIS_POSITION-23 "13.0000000000"
*MEAS_COND_AXIS_POSITION-24 "13.0000000000"
*MEAS_COND_AXIS_POSITION-25 "0.0281300000"
*MEAS_COND_AXIS_POSITION-26 "Open"
*MEAS_COND_AXIS_POSITION-27 "None"
*MEAS_COND_AXIS_POSITION-28 "None"
*MEAS_COND_AXIS_POSITION-29 "None"
*MEAS_COND_AXIS_POSITION-30 "38.0000000000"
*MEAS_COND_AXIS_UNIT-0 "deg"
*MEAS_COND_AXIS_UNIT-1 "deg"
*MEAS_COND_AXIS_UNIT-2 "deg"
*MEAS_COND_AXIS_UNIT-3 "mm"
*MEAS_COND_AXIS_UNIT-4 "deg"
*MEAS_COND_AXIS_UNIT-5 "deg"
*MEAS_COND_AXIS_UNIT-6 "deg"
*MEAS_COND_AXIS_UNIT-7 "mm"
*MEAS_COND_AXIS_UNIT-8 ""
*MEAS_COND_AXIS_UNIT-9 "pulse"
*MEAS_COND_AXIS_UNIT-10 ""
*MEAS_COND_AXIS_UNIT-11 ""
*MEAS_COND_AXIS_UNIT-12 "mm"
*MEAS_COND_AXIS_UNIT-13 "mm"
*MEAS_COND_AXIS_UNIT-14 ""
*MEAS_COND_AXIS_UNIT-15 ""
*MEAS_COND_AXIS_UNIT-16 ""
*MEAS_COND_AXIS_UNIT-17 ""
*MEAS_COND_AXIS_UNIT-18 ""
*MEAS_COND_AXIS_UNIT-19 ""
*MEAS_COND_AXIS_UNIT-20 ""
*MEAS_COND_AXIS_UNIT-21 ""
*MEAS_COND_AXIS_UNIT-22 ""
*MEAS_COND_AXIS_UNIT-23 "mm"
*MEAS_COND_AXIS_UNIT-24 "mm"
*MEAS_COND_AXIS_UNIT-25 "mm"
*MEAS_COND_AXIS_UNIT-26 ""
*MEAS_COND_AXIS_UNIT-27 ""
*MEAS_COND_AXIS_UNIT-28 ""
*MEAS_COND_AXIS_UNIT-29 ""
*MEAS_COND_AXIS_UNIT-30 "div"
*MEAS_COND_COUNTER_CNTLOSS_CORR "0.0000000000"
*MEAS_COND_COUNTER_PHABASE "38.0000000000"
*MEAS_COND_COUNTER_PHAWINDOW "16.0000000000"
*MEAS_COND_COUNTER_PHA_UNIT "div"
*MEAS_COND_COUNTER_TAUDIFF "30.0000000000"
*MEAS_COND_COUNTER_TAUINT "0.0000000000"
*MEAS_COND_IRRADIATION_MODE "OFF"
*MEAS_COND_IRRADIATION_WIDTH ""
*MEAS_COND_OPT_ATTR "集中法"
*MEAS_COND_OPT_NAME "@集中法"
*MEAS_COND_UNSYMMETRIC_MODE "OFF"
*MEAS_COND_XG_CURRENT "30.0000000000"
*MEAS_COND_XG_VOLTAGE "40.0000000000"
*MEAS_COND_XG_WAVE_TYPE "Ka"
*MEAS_DATA_COUNT "5001.0000000000"
*MEAS_SCAN_AXIS_X "2θ/θ"
*MEAS_SCAN_AXIS_X_INTERNAL "TwoThetaTheta"
*MEAS_SCAN_END_TIME "12/13/22 20:55:01"
*MEAS_SCAN_MODE "CONTINUOUS"
*MEAS_SCAN_MONITOR "0"
*MEAS_SCAN_RESOLUTION_X "0.0002"
*MEAS_SCAN_SPEED "2.5"
*MEAS_SCAN_SPEED_UNIT "deg/min"
*MEAS_SCAN_START "20.0000000000"
*MEAS_SCAN_START_TIME "12/13/22 20:33:37"
*MEAS_SCAN_STEP "0.0100000000"
*MEAS_SCAN_STOP "70.0000000000"
*MEAS_SCAN_UNIT_X "deg"
*MEAS_SCAN_UNIT_Y "counts"
*RAS_HEADER_END
*RAS_INT_START
20.0000 865.0000 1.0000
20.0100 907.0000 1.0000
20.0200 921.0000 1.0000
20.0300 876.0000 1.0000
20.0400 844.0000 1.0000
20.0500 885.0000 1.0000
20.0600 893.0000 1.0000
20.0700 936.0000 1.0000
20.0800 893.0000 1.0000
20.0900 865.0000 1.0000
20.1000 934.0000 1.0000
20.1100 853.0000 1.0000
20.1200 926.0000 1.0000
20.1300 894.0000 1.0000
20.1400 930.0000 1.0000
20.1500 895.0000 1.0000
20.1600 922.0000 1.0000
20.1700 912.0000 1.0000
20.1800 888.0000 1.0000
20.1900 884.0000 1.0000
20.2000 882.0000 1.0000
20.2100 883.0000 1.0000
20.2200 871.0000 1.0000
20.2300 905.0000 1.0000
20.2400 886.0000 1.0000
20.2500 912.0000 1.0000
20.2600 927.0000 1.0000
20.2700 887.0000 1.0000
20.2800 899.0000 1.0000
20.2900 893.0000 1.0000
20.3000 887.0000 1.0000
20.3100 883.0000 1.0000
20.3200 938.0000 1.0000
20.3300 921.0000 1.0000
20.3400 905.0000 1.0000
20.3500 882.0000 1.0000
20.3600 929.0000 1.0000
20.3700 898.0000 1.0000
20.3800 906.0000 1.0000
20.3900 833.0000 1.0000
20.4000 900.0000 1.0000
20.4100 948.0000 1.0000
20.4200 943.0000 1.0000
20.4300 881.0000 1.0000
20.4400 900.0000 1.0000
20.4500 858.0000 1.0000
20.4600 921.0000 1.0000
20.4700 893.0000 1.0000
20.4800 930.0000 1.0000
20.4900 912.0000 1.0000
20.5000 880.0000 1.0000
20.5100 902.0000 1.0000
20.5200 887.0000 1.0000
20.5300 889.0000 1.0000
20.5400 855.0000 1.0000
20.5500 904.0000 1.0000
20.5600 919.0000 1.0000
20.5700 939.0000 1.0000
20.5800 923.0000 1.0000
20.5900 845.0000 1.0000
20.6000 915.0000 1.0000
20.6100 938.0000 1.0000
20.6200 915.0000 1.0000
20.6300 878.0000 1.0000
20.6400 893.0000 1.0000
20.6500 905.0000 1.0000
20.6600 897.0000 1.0000
20.6700 888.0000 1.0000
20.6800 872.0000 1.0000
20.6900 897.0000 1.0000
20.7000 877.0000 1.0000
20.7100 894.0000 1.0000
20.7200 911.0000 1.0000
20.7300 867.0000 1.0000
20.7400 898.0000 1.0000
20.7500 866.0000 1.0000
20.7600 897.0000 1.0000
20.7700 892.0000 1.0000
20.7800 845.0000 1.0000
20.7900 894.0000 1.0000
20.8000 873.0000 1.0000
20.8100 853.0000 1.0000
20.8200 916.0000 1.0000
20.8300 876.0000 1.0000
20.8400 880.0000 1.0000
20.8500 907.0000 1.0000
20.8600 891.0000 1.0000
20.8700 877.0000 1.0000
20.8800 913.0000 1.0000
20.8900 887.0000 1.0000
20.9000 875.0000 1.0000
20.9100 864.0000 1.0000
20.9200 903.0000 1.0000
20.9300 846.0000 1.0000
20.9400 899.0000 1.0000
20.9500 942.0000 1.0000
20.9600 863.0000 1.0000
20.9700 907.0000 1.0000
20.9800 879.0000 1.0000
20.9900 870.0000 1.0000
21.0000 866.0000 1.0000
21.0100 894.0000 1.0000
21.0200 917.0000 1.0000
21.0300 893.0000 1.0000
21.0400 845.0000 1.0000
21.0500 911.0000 1.0000
21.0600 920.0000 1.0000
21.0700 938.0000 1.0000
21.0800 887.0000 1.0000
21.0900 873.0000 1.0000
21.1000 950.0000 1.0000
21.1100 853.0000 1.0000
21.1200 869.0000 1.0000
21.1300 854.0000 1.0000
21.1400 921.0000 1.0000
21.1500 919.0000 1.0000
21.1600 916.0000 1.0000
21.1700 934.0000 1.0000
21.1800 900.0000 1.0000
21.1900 900.0000 1.0000
21.2000 890.0000 1.0000
21.2100 938.0000 1.0000
21.2200 932.0000 1.0000
21.2300 895.0000 1.0000
21.2400 898.0000 1.0000
21.2500 911.0000 1.0000
21.2600 879.0000 1.0000
21.2700 912.0000 1.0000
21.2800 909.0000 1.0000
21.2900 888.0000 1.0000
21.3000 874.0000 1.0000
21.3100 880.0000 1.0000
21.3200 872.0000 1.0000
21.3300 898.0000 1.0000
21.3400 910.0000 1.0000
21.3500 900.0000 1.0000
21.3600 908.0000 1.0000
21.3700 893.0000 1.0000
21.3800 937.0000 1.0000
21.3900 892.0000 1.0000
21.4000 856.0000 1.0000
21.4100 912.0000 1.0000
21.4200 889.0000 1.0000
21.4300 921.0000 1.0000
21.4400 871.0000 1.0000
21.4500 886.0000 1.0000
21.4600 838.0000 1.0000
21.4700 885.0000 1.0000
21.4800 889.0000 1.0000
21.4900 919.0000 1.0000
21.5000 858.0000 1.0000
21.5100 924.0000 1.0000
21.5200 891.0000 1.0000
21.5300 862.0000 1.0000
21.5400 868.0000 1.0000
21.5500 885.0000 1.0000
21.5600 900.0000 1.0000
21.5700 880.0000 1.0000
21.5800 913.0000 1.0000
21.5900 904.0000 1.0000
21.6000 933.0000 1.0000
21.6100 890.0000 1.0000
21.6200 916.0000 1.0000
21.6300 868.0000 1.0000
21.6400 885.0000 1.0000
21.6500 919.0000 1.0000
21.6600 854.0000 1.0000
21.6700 961.0000 1.0000
21.6800 892.0000 1.0000
21.6900 909.0000 1.0000
21.7000 904.0000 1.0000
21.7100 916.0000 1.0000
21.7200 875.0000 1.0000
21.7300 895.0000 1.0000
21.7400 855.0000 1.0000
21.7500 954.0000 1.0000
21.7600 925.0000 1.0000
21.7700 894.0000 1.0000
21.7800 912.0000 1.0000
21.7900 865.0000 1.0000
21.8000 886.0000 1.0000
21.8100 909.0000 1.0000
21.8200 924.0000 1.0000
21.8300 912.0000 1.0000
21.8400 893.0000 1.0000
21.8500 910.0000 1.0000
21.8600 876.0000 1.0000
21.8700 950.0000 1.0000
21.8800 903.0000 1.0000
21.8900 875.0000 1.0000
21.9000 919.0000 1.0000
21.9100 932.0000 1.0000
21.9200 867.0000 1.0000
21.9300 896.0000 1.0000
21.9400 899.0000 1.0000
21.9500 902.0000 1.0000
21.9600 917.0000 1.0000
21.9700 855.0000 1.0000
21.9800 902.0000 1.0000
21.9900 897.0000 1.0000
22.0000 887.0000 1.0000
22.0100 925.0000 1.0000
22.0200 889.0000 1.0000
22.0300 910.0000 1.0000
22.0400 882.0000 1.0000
22.0500 880.0000 1.0000
22.0600 887.0000 1.0000
22.0700 900.0000 1.0000
22.0800 885.0000 1.0000
22.0900 894.0000 1.0000
22.1000 879.0000 1.0000
22.1100 863.0000 1.0000
22.1200 863.0000 1.0000
22.1300 894.0000 1.0000
22.1400 851.0000 1.0000
22.1500 889.0000 1.0000
22.1600 872.0000 1.0000
22.1700 869.0000 1.0000
22.1800 836.0000 1.0000
22.1900 861.0000 1.0000
22.2000 872.0000 1.0000
22.2100 918.0000 1.0000
22.2200 837.0000 1.0000
22.2300 889.0000 1.0000
22.2400 870.0000 1.0000
22.2500 878.0000 1.0000
22.2600 854.0000 1.0000
22.2700 901.0000 1.0000
22.2800 852.0000 1.0000
22.2900 885.0000 1.0000
22.3000 912.0000 1.0000
22.3100 916.0000 1.0000
22.3200 882.0000 1.0000
22.3300 875.0000 1.0000
22.3400 845.0000 1.0000
22.3500 874.0000 1.0000
22.3600 910.0000 1.0000
22.3700 878.0000 1.0000
22.3800 890.0000 1.0000
22.3900 876.0000 1.0000
22.4000 881.0000 1.0000
22.4100 887.0000 1.0000
22.4200 834.0000 1.0000
22.4300 841.0000 1.0000
22.4400 880.0000 1.0000
22.4500 887.0000 1.0000
22.4600 860.0000 1.0000
22.4700 845.0000 1.0000
22.4800 891.0000 1.0000
22.4900 846.0000 1.0000
22.5000 897.0000 1.0000
22.5100 881.0000 1.0000
22.5200 914.0000 1.0000
22.5300 890.0000 1.0000
22.5400 852.0000 1.0000
22.5500 906.0000 1.0000
22.5600 935.0000 1.0000
22.5700 839.0000 1.0000
22.5800 864.0000 1.0000
22.5900 854.0000 1.0000
22.6000 866.0000 1.0000
22.6100 873.0000 1.0000
22.6200 851.0000 1.0000
22.6300 881.0000 1.0000
22.6400 872.0000 1.0000
22.6500 866.0000 1.0000
22.6600 876.0000 1.0000
22.6700 864.0000 1.0000
22.6800 893.0000 1.0000
22.6900 857.0000 1.0000
22.7000 860.0000 1.0000
22.7100 879.0000 1.0000
22.7200 893.0000 1.0000
22.7300 854.0000 1.0000
22.7400 885.0000 1.0000
22.7500 868.0000 1.0000
22.7600 910.0000 1.0000
22.7700 855.0000 1.0000
22.7800 886.0000 1.0000
22.7900 896.0000 1.0000
22.8000 890.0000 1.0000
22.8100 897.0000 1.0000
22.8200 880.0000 1.0000
22.8300 893.0000 1.0000
22.8400 876.0000 1.0000
22.8500 903.0000 1.0000
22.8600 859.0000 1.0000
22.8700 877.0000 1.0000
22.8800 891.0000 1.0000
22.8900 932.0000 1.0000
22.9000 891.0000 1.0000
22.9100 852.0000 1.0000
22.9200 848.0000 1.0000
22.9300 897.0000 1.0000
22.9400 911.0000 1.0000
22.9500 879.0000 1.0000
22.9600 849.0000 1.0000
22.9700 836.0000 1.0000
22.9800 894.0000 1.0000
22.9900 881.0000 1.0000
23.0000 850.0000 1.0000
23.0100 870.0000 1.0000
23.0200 899.0000 1.0000
23.0300 893.0000 1.0000
23.0400 899.0000 1.0000
23.0500 879.0000 1.0000
23.0600 823.0000 1.0000
23.0700 890.0000 1.0000
23.0800 890.0000 1.0000
23.0900 892.0000 1.0000
23.1000 864.0000 1.0000
23.1100 884.0000 1.0000
23.1200 841.0000 1.0000
23.1300 830.0000 1.0000
23.1400 917.0000 1.0000
23.1500 798.0000 1.0000
23.1600 839.0000 1.0000
23.1700 871.0000 1.0000
23.1800 857.0000 1.0000
23.1900 868.0000 1.0000
23.2000 877.0000 1.0000
23.2100 916.0000 1.0000
23.2200 896.0000 1.0000
23.2300 857.0000 1.0000
23.2400 851.0000 1.0000
23.2500 867.0000 1.0000
23.2600 864.0000 1.0000
23.2700 835.0000 1.0000
23.2800 844.0000 1.0000
23.2900 852.0000 1.0000
23.3000 856.0000 1.0000
23.3100 871.0000 1.0000
23.3200 849.0000 1.0000
23.3300 781.0000 1.0000
23.3400 850.0000 1.0000
23.3500 831.0000 1.0000
23.3600 856.0000 1.0000
23.3700 850.0000 1.0000
23.3800 876.0000 1.0000
23.3900 849.0000 1.0000
23.4000 820.0000 1.0000
23.4100 835.0000 1.0000
23.4200 849.0000 1.0000
23.4300 823.0000 1.0000
23.4400 842.0000 1.0000
23.4500 885.0000 1.0000
23.4600 849.0000 1.0000
23.4700 891.0000 1.0000
23.4800 833.0000 1.0000
23.4900 843.0000 1.0000
23.5000 857.0000 1.0000
23.5100 867.0000 1.0000
23.5200 820.0000 1.0000
23.5300 835.0000 1.0000
23.5400 862.0000 1.0000
23.5500 856.0000 1.0000
23.5600 837.0000 1.0000
23.5700 841.0000 1.0000
23.5800 839.0000 1.0000
23.5900 866.0000 1.0000
23.6000 892.0000 1.0000
23.6100 874.0000 1.0000
23.6200 840.0000 1.0000
23.6300 862.0000 1.0000
23.6400 883.0000 1.0000
23.6500 910.0000 1.0000
23.6600 879.0000 1.0000
23.6700 896.0000 1.0000
23.6800 879.0000 1.0000
23.6900 884.0000 1.0000
23.7000 830.0000 1.0000
23.7100 838.0000 1.0000
23.7200 821.0000 1.0000
23.7300 838.0000 1.0000
23.7400 869.0000 1.0000
23.7500 851.0000 1.0000
23.7600 876.0000 1.0000
23.7700 841.0000 1.0000
23.7800 925.0000 1.0000
23.7900 855.0000 1.0000
23.8000 899.0000 1.0000
23.8100 897.0000 1.0000
23.8200 878.0000 1.0000
23.8300 856.0000 1.0000
23.8400 884.0000 1.0000
23.8500 888.0000 1.0000
23.8600 881.0000 1.0000
23.8700 862.0000 1.0000
23.8800 929.0000 1.0000
23.8900 898.0000 1.0000
23.9000 894.0000 1.0000
23.9100 841.0000 1.0000
23.9200 869.0000 1.0000
23.9300 896.0000 1.0000
23.9400 889.0000 1.0000
23.9500 910.0000 1.0000
23.9600 883.0000 1.0000
23.9700 945.0000 1.0000
23.9800 893.0000 1.0000
23.9900 938.0000 1.0000
24.0000 891.0000 1.0000
24.0100 920.0000 1.0000
24.0200 905.0000 1.0000
24.0300 908.0000 1.0000
24.0400 895.0000 1.0000
24.0500 900.0000 1.0000
24.0600 924.0000 1.0000
24.0700 904.0000 1.0000
24.0800 933.0000 1.0000
24.0900 912.0000 1.0000
24.1000 937.0000 1.0000
24.1100 888.0000 1.0000
24.1200 887.0000 1.0000
24.1300 863.0000 1.0000
24.1400 909.0000 1.0000
24.1500 880.0000 1.0000
24.1600 903.0000 1.0000
24.1700 903.0000 1.0000
24.1800 894.0000 1.0000
24.1900 865.0000 1.0000
24.2000 881.0000 1.0000
24.2100 952.0000 1.0000
24.2200 894.0000 1.0000
24.2300 882.0000 1.0000
24.2400 864.0000 1.0000
24.2500 890.0000 1.0000
24.2600 829.0000 1.0000
24.2700 882.0000 1.0000
24.2800 893.0000 1.0000
24.2900 890.0000 1.0000
24.3000 934.0000 1.0000
24.3100 909.0000 1.0000
24.3200 887.0000 1.0000
24.3300 854.0000 1.0000
24.3400 898.0000 1.0000
24.3500 853.0000 1.0000
24.3600 828.0000 1.0000
24.3700 852.0000 1.0000
24.3800 924.0000 1.0000
24.3900 852.0000 1.0000
24.4000 879.0000 1.0000
24.4100 874.0000 1.0000
24.4200 860.0000 1.0000
24.4300 867.0000 1.0000
24.4400 813.0000 1.0000
24.4500 835.0000 1.0000
24.4600 849.0000 1.0000
24.4700 883.0000 1.0000
24.4800 855.0000 1.0000
24.4900 843.0000 1.0000
24.5000 831.0000 1.0000
24.5100 852.0000 1.0000
24.5200 881.0000 1.0000
24.5300 855.0000 1.0000
24.5400 858.0000 1.0000
24.5500 852.0000 1.0000
24.5600 886.0000 1.0000
24.5700 812.0000 1.0000
24.5800 827.0000 1.0000
24.5900 844.0000 1.0000
24.6000 896.0000 1.0000
24.6100 853.0000 1.0000
24.6200 833.0000 1.0000
24.6300 852.0000 1.0000
24.6400 862.0000 1.0000
24.6500 833.0000 1.0000
24.6600 830.0000 1.0000
24.6700 883.0000 1.0000
24.6800 826.0000 1.0000
24.6900 811.0000 1.0000
24.7000 814.0000 1.0000
24.7100 869.0000 1.0000
24.7200 878.0000 1.0000
24.7300 852.0000 1.0000
24.7400 850.0000 1.0000
24.7500 868.0000 1.0000
24.7600 849.0000 1.0000
24.7700 830.0000 1.0000
24.7800 851.0000 1.0000
24.7900 828.0000 1.0000
24.8000 789.0000 1.0000
24.8100 816.0000 1.0000
24.8200 872.0000 1.0000
24.8300 885.0000 1.0000
24.8400 856.0000 1.0000
24.8500 817.0000 1.0000
24.8600 821.0000 1.0000
24.8700 878.0000 1.0000
24.8800 874.0000 1.0000
24.8900 842.0000 1.0000
24.9000 817.0000 1.0000
24.9100 813.0000 1.0000
24.9200 850.0000 1.0000
24.9300 812.0000 1.0000
24.9400 784.0000 1.0000
24.9500 828.0000 1.0000
24.9600 821.0000 1.0000
24.9700 832.0000 1.0000
24.9800 832.0000 1.0000
24.9900 806.0000 1.0000
25.0000 866.0000 1.0000
25.0100 869.0000 1.0000
25.0200 868.0000 1.0000
25.0300 824.0000 1.0000
25.0400 848.0000 1.0000
25.0500 860.0000 1.0000
25.0600 817.0000 1.0000
25.0700 825.0000 1.0000
25.0800 864.0000 1.0000
25.0900 843.0000 1.0000
25.1000 853.0000 1.0000
25.1100 835.0000 1.0000
25.1200 825.0000 1.0000
25.1300 822.0000 1.0000
25.1400 825.0000 1.0000
25.1500 853.0000 1.0000
25.1600 825.0000 1.0000
25.1700 842.0000 1.0000
25.1800 835.0000 1.0000
25.1900 871.0000 1.0000
25.2000 898.0000 1.0000
25.2100 826.0000 1.0000
25.2200 846.0000 1.0000
25.2300 818.0000 1.0000
25.2400 841.0000 1.0000
25.2500 841.0000 1.0000
25.2600 797.0000 1.0000
25.2700 814.0000 1.0000
25.2800 803.0000 1.0000
25.2900 835.0000 1.0000
25.3000 828.0000 1.0000
25.3100 820.0000 1.0000
25.3200 880.0000 1.0000
25.3300 820.0000 1.0000
25.3400 902.0000 1.0000
25.3500 843.0000 1.0000
25.3600 816.0000 1.0000
25.3700 857.0000 1.0000
25.3800 838.0000 1.0000
25.3900 841.0000 1.0000
25.4000 860.0000 1.0000
25.4100 801.0000 1.0000
25.4200 816.0000 1.0000
25.4300 830.0000 1.0000
25.4400 796.0000 1.0000
25.4500 814.0000 1.0000
25.4600 894.0000 1.0000
25.4700 904.0000 1.0000
25.4800 856.0000 1.0000
25.4900 845.0000 1.0000
25.5000 824.0000 1.0000
25.5100 835.0000 1.0000
25.5200 813.0000 1.0000
25.5300 889.0000 1.0000
25.5400 857.0000 1.0000
25.5500 815.0000 1.0000
25.5600 813.0000 1.0000
25.5700 863.0000 1.0000
25.5800 835.0000 1.0000
25.5900 839.0000 1.0000
25.6000 842.0000 1.0000
25.6100 854.0000 1.0000
25.6200 848.0000 1.0000
25.6300 896.0000 1.0000
25.6400 875.0000 1.0000
25.6500 868.0000 1.0000
25.6600 851.0000 1.0000
25.6700 859.0000 1.0000
25.6800 845.0000 1.0000
25.6900 885.0000 1.0000
25.7000 849.0000 1.0000
25.7100 865.0000 1.0000
25.7200 860.0000 1.0000
25.7300 819.0000 1.0000
25.7400 844.0000 1.0000
25.7500 867.0000 1.0000
25.7600 865.0000 1.0000
25.7700 849.0000 1.0000
25.7800 838.0000 1.0000
25.7900 817.0000 1.0000
25.8000 850.0000 1.0000
25.8100 870.0000 1.0000
25.8200 844.0000 1.0000
25.8300 877.0000 1.0000
25.8400 895.0000 1.0000
25.8500 874.0000 1.0000
25.8600 880.0000 1.0000
25.8700 835.0000 1.0000
25.8800 857.0000 1.0000
25.8900 860.0000 1.0000
25.9000 852.0000 1.0000
25.9100 888.0000 1.0000
25.9200 846.0000 1.0000
25.9300 858.0000 1.0000
25.9400 935.0000 1.0000
25.9500 886.0000 1.0000
25.9600 904.0000 1.0000
25.9700 882.0000 1.0000
25.9800 950.0000 1.0000
25.9900 936.0000 1.0000
26.0000 890.0000 1.0000
26.0100 910.0000 1.0000
26.0200 925.0000 1.0000
26.0300 917.0000 1.0000
26.0400 893.0000 1.0000
26.0500 950.0000 1.0000
26.0600 976.0000 1.0000
26.0700 936.0000 1.0000
26.0800 994.0000 1.0000
26.0900 982.0000 1.0000
26.1000 965.0000 1.0000
26.1100 1046.0000 1.0000
26.1200 1053.0000 1.0000
26.1300 1058.0000 1.0000
26.1400 1015.0000 1.0000
26.1500 1062.0000 1.0000
26.1600 1101.0000 1.0000
26.1700 1131.0000 1.0000
26.1800 1146.0000 1.0000
26.1900 1138.0000 1.0000
26.2000 1192.0000 1.0000
26.2100 1183.0000 1.0000
26.2200 1196.0000 1.0000
26.2300 1324.0000 1.0000
26.2400 1265.0000 1.0000
26.2500 1315.0000 1.0000
26.2600 1380.0000 1.0000
26.2700 1361.0000 1.0000
26.2800 1494.0000 1.0000
26.2900 1615.0000 1.0000
26.3000 1681.0000 1.0000
26.3100 1714.0000 1.0000
26.3200 1796.0000 1.0000
26.3300 1850.0000 1.0000
26.3400 1956.0000 1.0000
26.3500 2073.0000 1.0000
26.3600 2205.0000 1.0000
26.3700 2382.0000 1.0000
26.3800 2454.0000 1.0000
26.3900 2583.0000 1.0000
26.4000 2749.0000 1.0000
26.4100 2834.0000 1.0000
26.4200 2953.0000 1.0000
26.4300 3044.0000 1.0000
26.4400 3019.0000 1.0000
26.4500 3022.0000 1.0000
26.4600 3068.0000 1.0000
26.4700 2895.0000 1.0000
26.4800 2919.0000 1.0000
26.4900 2836.0000 1.0000
26.5000 2656.0000 1.0000
26.5100 2586.0000 1.0000
26.5200 2460.0000 1.0000
26.5300 2412.0000 1.0000
26.5400 2228.0000 1.0000
26.5500 2058.0000 1.0000
26.5600 2002.0000 1.0000
26.5700 1897.0000 1.0000
26.5800 1730.0000 1.0000
26.5900 1716.0000 1.0000
26.6000 1607.0000 1.0000
26.6100 1543.0000 1.0000
26.6200 1477.0000 1.0000
26.6300 1416.0000 1.0000
26.6400 1362.0000 1.0000
26.6500 1335.0000 1.0000
26.6600 1268.0000 1.0000
26.6700 1256.0000 1.0000
26.6800 1230.0000 1.0000
26.6900 1210.0000 1.0000
26.7000 1161.0000 1.0000
26.7100 1112.0000 1.0000
26.7200 1085.0000 1.0000
26.7300 1073.0000 1.0000
26.7400 1096.0000 1.0000
26.7500 1095.0000 1.0000
26.7600 988.0000 1.0000
26.7700 1023.0000 1.0000
26.7800 957.0000 1.0000
26.7900 980.0000 1.0000
26.8000 1024.0000 1.0000
26.8100 963.0000 1.0000
26.8200 957.0000 1.0000
26.8300 895.0000 1.0000
26.8400 889.0000 1.0000
26.8500 920.0000 1.0000
26.8600 967.0000 1.0000
26.8700 979.0000 1.0000
26.8800 919.0000 1.0000
26.8900 936.0000 1.0000
26.9000 943.0000 1.0000
26.9100 893.0000 1.0000
26.9200 869.0000 1.0000
26.9300 917.0000 1.0000
26.9400 851.0000 1.0000
26.9500 898.0000 1.0000
26.9600 866.0000 1.0000
26.9700 850.0000 1.0000
26.9800 863.0000 1.0000
26.9900 892.0000 1.0000
27.0000 853.0000 1.0000
27.0100 879.0000 1.0000
27.0200 880.0000 1.0000
27.0300 843.0000 1.0000
27.0400 847.0000 1.0000
27.0500 840.0000 1.0000
27.0600 818.0000 1.0000
27.0700 847.0000 1.0000
27.0800 780.0000 1.0000
27.0900 876.0000 1.0000
27.1000 842.0000 1.0000
27.1100 818.0000 1.0000
27.1200 852.0000 1.0000
27.1300 849.0000 1.0000
27.1400 841.0000 1.0000
27.1500 812.0000 1.0000
27.1600 845.0000 1.0000
27.1700 838.0000 1.0000
27.1800 786.0000 1.0000
27.1900 807.0000 1.0000
27.2000 842.0000 1.0000
27.2100 766.0000 1.0000
27.2200 805.0000 1.0000
27.2300 809.0000 1.0000
27.2400 808.0000 1.0000
27.2500 784.0000 1.0000
27.2600 796.0000 1.0000
27.2700 783.0000 1.0000
27.2800 774.0000 1.0000
27.2900 842.0000 1.0000
27.3000 781.0000 1.0000
27.3100 806.0000 1.0000
27.3200 756.0000 1.0000
27.3300 780.0000 1.0000
27.3400 800.0000 1.0000
27.3500 750.0000 1.0000
27.3600 776.0000 1.0000
27.3700 754.0000 1.0000
27.3800 825.0000 1.0000
27.3900 750.0000 1.0000
27.4000 791.0000 1.0000
27.4100 754.0000 1.0000
27.4200 724.0000 1.0000
27.4300 778.0000 1.0000
27.4400 821.0000 1.0000
27.4500 789.0000 1.0000
27.4600 797.0000 1.0000
27.4700 771.0000 1.0000
27.4800 753.0000 1.0000
27.4900 794.0000 1.0000
27.5000 791.0000 1.0000
27.5100 762.0000 1.0000
27.5200 777.0000 1.0000
27.5300 800.0000 1.0000
27.5400 744.0000 1.0000
27.5500 761.0000 1.0000
27.5600 775.0000 1.0000
27.5700 795.0000 1.0000
27.5800 746.0000 1.0000
27.5900 760.0000 1.0000
27.6000 756.0000 1.0000
27.6100 743.0000 1.0000
27.6200 793.0000 1.0000
27.6300 732.0000 1.0000
27.6400 801.0000 1.0000
27.6500 780.0000 1.0000
27.6600 794.0000 1.0000
27.6700 785.0000 1.0000
27.6800 740.0000 1.0000
27.6900 757.0000 1.0000
27.7000 753.0000 1.0000
27.7100 734.0000 1.0000
27.7200 810.0000 1.0000
27.7300 754.0000 1.0000
27.7400 781.0000 1.0000
27.7500 788.0000 1.0000
27.7600 749.0000 1.0000
27.7700 773.0000 1.0000
27.7800 791.0000 1.0000
27.7900 737.0000 1.0000
27.8000 764.0000 1.0000
27.8100 736.0000 1.0000
27.8200 762.0000 1.0000
27.8300 794.0000 1.0000
27.8400 766.0000 1.0000
27.8500 742.0000 1.0000
27.8600 765.0000 1.0000
27.8700 784.0000 1.0000
27.8800 749.0000 1.0000
27.8900 716.0000 1.0000
27.9000 743.0000 1.0000
27.9100 716.0000 1.0000
27.9200 779.0000 1.0000
27.9300 757.0000 1.0000
27.9400 745.0000 1.0000
27.9500 760.0000 1.0000
27.9600 719.0000 1.0000
27.9700 764.0000 1.0000
27.9800 753.0000 1.0000
27.9900 780.0000 1.0000
28.0000 747.0000 1.0000
28.0100 758.0000 1.0000
28.0200 727.0000 1.0000
28.0300 749.0000 1.0000
28.0400 754.0000 1.0000
28.0500 758.0000 1.0000
28.0600 783.0000 1.0000
28.0700 733.0000 1.0000
28.0800 783.0000 1.0000
28.0900 770.0000 1.0000
28.1000 769.0000 1.0000
28.1100 773.0000 1.0000
28.1200 742.0000 1.0000
28.1300 749.0000 1.0000
28.1400 697.0000 1.0000
28.1500 744.0000 1.0000
28.1600 749.0000 1.0000
28.1700 769.0000 1.0000
28.1800 768.0000 1.0000
28.1900 748.0000 1.0000
28.2000 766.0000 1.0000
28.2100 719.0000 1.0000
28.2200 707.0000 1.0000
28.2300 737.0000 1.0000
28.2400 755.0000 1.0000
28.2500 779.0000 1.0000
28.2600 787.0000 1.0000
28.2700 741.0000 1.0000
28.2800 718.0000 1.0000
28.2900 718.0000 1.0000
28.3000 755.0000 1.0000
28.3100 703.0000 1.0000
28.3200 737.0000 1.0000
28.3300 743.0000 1.0000
28.3400 746.0000 1.0000
28.3500 731.0000 1.0000
28.3600 721.0000 1.0000
28.3700 711.0000 1.0000
28.3800 772.0000 1.0000
28.3900 760.0000 1.0000
28.4000 718.0000 1.0000
28.4100 713.0000 1.0000
28.4200 684.0000 1.0000
28.4300 715.0000 1.0000
28.4400 753.0000 1.0000
28.4500 751.0000 1.0000
28.4600 802.0000 1.0000
28.4700 767.0000 1.0000
28.4800 726.0000 1.0000
28.4900 731.0000 1.0000
28.5000 699.0000 1.0000
28.5100 746.0000 1.0000
28.5200 789.0000 1.0000
28.5300 715.0000 1.0000
28.5400 740.0000 1.0000
28.5500 719.0000 1.0000
28.5600 708.0000 1.0000
28.5700 686.0000 1.0000
28.5800 733.0000 1.0000
28.5900 708.0000 1.0000
28.6000 725.0000 1.0000
28.6100 754.0000 1.0000
28.6200 688.0000 1.0000
28.6300 710.0000 1.0000
28.6400 711.0000 1.0000
28.6500 733.0000 1.0000
28.6600 683.0000 1.0000
28.6700 706.0000 1.0000
28.6800 681.0000 1.0000
28.6900 708.0000 1.0000
28.7000 707.0000 1.0000
28.7100 734.0000 1.0000
28.7200 753.0000 1.0000
28.7300 720.0000 1.0000
28.7400 740.0000 1.0000
28.7500 753.0000 1.0000
28.7600 721.0000 1.0000
28.7700 724.0000 1.0000
28.7800 747.0000 1.0000
28.7900 734.0000 1.0000
28.8000 746.0000 1.0000
28.8100 713.0000 1.0000
28.8200 719.0000 1.0000
28.8300 708.0000 1.0000
28.8400 700.0000 1.0000
28.8500 768.0000 1.0000
28.8600 695.0000 1.0000
28.8700 740.0000 1.0000
28.8800 706.0000 1.0000
28.8900 704.0000 1.0000
28.9000 709.0000 1.0000
28.9100 724.0000 1.0000
28.9200 704.0000 1.0000
28.9300 699.0000 1.0000
28.9400 710.0000 1.0000
28.9500 713.0000 1.0000
28.9600 668.0000 1.0000
28.9700 729.0000 1.0000
28.9800 731.0000 1.0000
28.9900 689.0000 1.0000
29.0000 677.0000 1.0000
29.0100 726.0000 1.0000
29.0200 669.0000 1.0000
29.0300 724.0000 1.0000
29.0400 747.0000 1.0000
29.0500 705.0000 1.0000
29.0600 697.0000 1.0000
29.0700 707.0000 1.0000
29.0800 729.0000 1.0000
29.0900 745.0000 1.0000
29.1000 701.0000 1.0000
29.1100 726.0000 1.0000
29.1200 723.0000 1.0000
29.1300 704.0000 1.0000
29.1400 701.0000 1.0000
29.1500 683.0000 1.0000
29.1600 694.0000 1.0000
29.1700 720.0000 1.0000
29.1800 652.0000 1.0000
29.1900 709.0000 1.0000
29.2000 708.0000 1.0000
29.2100 712.0000 1.0000
29.2200 728.0000 1.0000
29.2300 695.0000 1.0000
29.2400 707.0000 1.0000
29.2500 667.0000 1.0000
29.2600 740.0000 1.0000
29.2700 667.0000 1.0000
29.2800 703.0000 1.0000
29.2900 648.0000 1.0000
29.3000 654.0000 1.0000
29.3100 680.0000 1.0000
29.3200 688.0000 1.0000
29.3300 689.0000 1.0000
29.3400 699.0000 1.0000
29.3500 682.0000 1.0000
29.3600 682.0000 1.0000
29.3700 725.0000 1.0000
29.3800 696.0000 1.0000
29.3900 699.0000 1.0000
29.4000 716.0000 1.0000
29.4100 699.0000 1.0000
29.4200 730.0000 1.0000
29.4300 673.0000 1.0000
29.4400 720.0000 1.0000
29.4500 694.0000 1.0000
29.4600 698.0000 1.0000
29.4700 670.0000 1.0000
29.4800 649.0000 1.0000
29.4900 698.0000 1.0000
29.5000 714.0000 1.0000
29.5100 675.0000 1.0000
29.5200 690.0000 1.0000
29.5300 673.0000 1.0000
29.5400 679.0000 1.0000
29.5500 691.0000 1.0000
29.5600 687.0000 1.0000
29.5700 708.0000 1.0000
29.5800 699.0000 1.0000
29.5900 670.0000 1.0000
29.6000 683.0000 1.0000
29.6100 671.0000 1.0000
29.6200 666.0000 1.0000
29.6300 644.0000 1.0000
29.6400 636.0000 1.0000
29.6500 674.0000 1.0000
29.6600 718.0000 1.0000
29.6700 667.0000 1.0000
29.6800 696.0000 1.0000
29.6900 660.0000 1.0000
29.7000 649.0000 1.0000
29.7100 673.0000 1.0000
29.7200 658.0000 1.0000
29.7300 627.0000 1.0000
29.7400 657.0000 1.0000
29.7500 645.0000 1.0000
29.7600 690.0000 1.0000
29.7700 699.0000 1.0000
29.7800 644.0000 1.0000
29.7900 685.0000 1.0000
29.8000 664.0000 1.0000
29.8100 719.0000 1.0000
29.8200 687.0000 1.0000
29.8300 668.0000 1.0000
29.8400 677.0000 1.0000
29.8500 683.0000 1.0000
29.8600 689.0000 1.0000
29.8700 714.0000 1.0000
29.8800 658.0000 1.0000
29.8900 700.0000 1.0000
29.9000 713.0000 1.0000
29.9100 679.0000 1.0000
29.9200 709.0000 1.0000
29.9300 746.0000 1.0000
29.9400 658.0000 1.0000
29.9500 671.0000 1.0000
29.9600 636.0000 1.0000
29.9700 701.0000 1.0000
29.9800 687.0000 1.0000
29.9900 686.0000 1.0000
30.0000 673.0000 1.0000
30.0100 652.0000 1.0000
30.0200 700.0000 1.0000
30.0300 663.0000 1.0000
30.0400 688.0000 1.0000
30.0500 661.0000 1.0000
30.0600 654.0000 1.0000
30.0700 639.0000 1.0000
30.0800 678.0000 1.0000
30.0900 670.0000 1.0000
30.1000 691.0000 1.0000
30.1100 663.0000 1.0000
30.1200 695.0000 1.0000
30.1300 673.0000 1.0000
30.1400 673.0000 1.0000
30.1500 661.0000 1.0000
30.1600 705.0000 1.0000
30.1700 690.0000 1.0000
30.1800 637.0000 1.0000
30.1900 695.0000 1.0000
30.2000 685.0000 1.0000
30.2100 697.0000 1.0000
30.2200 625.0000 1.0000
30.2300 683.0000 1.0000
30.2400 677.0000 1.0000
30.2500 689.0000 1.0000
30.2600 666.0000 1.0000
30.2700 679.0000 1.0000
30.2800 689.0000 1.0000
30.2900 680.0000 1.0000
30.3000 628.0000 1.0000
30.3100 665.0000 1.0000
30.3200 650.0000 1.0000
30.3300 686.0000 1.0000
30.3400 642.0000 1.0000
30.3500 641.0000 1.0000
30.3600 673.0000 1.0000
30.3700 681.0000 1.0000
30.3800 683.0000 1.0000
30.3900 644.0000 1.0000
30.4000 679.0000 1.0000
30.4100 688.0000 1.0000
30.4200 649.0000 1.0000
30.4300 666.0000 1.0000
30.4400 700.0000 1.0000
30.4500 633.0000 1.0000
30.4600 662.0000 1.0000
30.4700 637.0000 1.0000
30.4800 616.0000 1.0000
30.4900 638.0000 1.0000
30.5000 671.0000 1.0000
30.5100 660.0000 1.0000
30.5200 648.0000 1.0000
30.5300 652.0000 1.0000
30.5400 668.0000 1.0000
30.5500 660.0000 1.0000
30.5600 665.0000 1.0000
30.5700 668.0000 1.0000
30.5800 675.0000 1.0000
30.5900 645.0000 1.0000
30.6000 703.0000 1.0000
30.6100 671.0000 1.0000
30.6200 702.0000 1.0000
30.6300 698.0000 1.0000
30.6400 713.0000 1.0000
30.6500 679.0000 1.0000
30.6600 621.0000 1.0000
30.6700 630.0000 1.0000
30.6800 692.0000 1.0000
30.6900 643.0000 1.0000
30.7000 642.0000 1.0000
30.7100 646.0000 1.0000
30.7200 659.0000 1.0000
30.7300 643.0000 1.0000
30.7400 629.0000 1.0000
30.7500 645.0000 1.0000
30.7600 632.0000 1.0000
30.7700 634.0000 1.0000
30.7800 646.0000 1.0000
30.7900 635.0000 1.0000
30.8000 685.0000 1.0000
30.8100 609.0000 1.0000
30.8200 596.0000 1.0000
30.8300 649.0000 1.0000
30.8400 650.0000 1.0000
30.8500 651.0000 1.0000
30.8600 659.0000 1.0000
30.8700 651.0000 1.0000
30.8800 662.0000 1.0000
30.8900 638.0000 1.0000
30.9000 656.0000 1.0000
30.9100 664.0000 1.0000
30.9200 640.0000 1.0000
30.9300 622.0000 1.0000
30.9400 634.0000 1.0000
30.9500 637.0000 1.0000
30.9600 634.0000 1.0000
30.9700 671.0000 1.0000
30.9800 639.0000 1.0000
30.9900 639.0000 1.0000
31.0000 651.0000 1.0000
31.0100 630.0000 1.0000
31.0200 653.0000 1.0000
31.0300 646.0000 1.0000
31.0400 668.0000 1.0000
31.0500 675.0000 1.0000
31.0600 664.0000 1.0000
31.0700 692.0000 1.0000
31.0800 658.0000 1.0000
31.0900 641.0000 1.0000
31.1000 668.0000 1.0000
31.1100 625.0000 1.0000
31.1200 658.0000 1.0000
31.1300 642.0000 1.0000
31.1400 663.0000 1.0000
31.1500 628.0000 1.0000
31.1600 654.0000 1.0000
31.1700 676.0000 1.0000
31.1800 675.0000 1.0000
31.1900 663.0000 1.0000
31.2000 658.0000 1.0000
31.2100 636.0000 1.0000
31.2200 609.0000 1.0000
31.2300 664.0000 1.0000
31.2400 649.0000 1.0000
31.2500 630.0000 1.0000
31.2600 648.0000 1.0000
31.2700 627.0000 1.0000
31.2800 601.0000 1.0000
31.2900 623.0000 1.0000
31.3000 600.0000 1.0000
31.3100 655.0000 1.0000
31.3200 632.0000 1.0000
31.3300 637.0000 1.0000
31.3400 625.0000 1.0000
31.3500 622.0000 1.0000
31.3600 616.0000 1.0000
31.3700 636.0000 1.0000
31.3800 658.0000 1.0000
31.3900 611.0000 1.0000
31.4000 606.0000 1.0000
31.4100 618.0000 1.0000
31.4200 616.0000 1.0000
31.4300 631.0000 1.0000
31.4400 641.0000 1.0000
31.4500 622.0000 1.0000
31.4600 644.0000 1.0000
31.4700 654.0000 1.0000
31.4800 651.0000 1.0000
31.4900 622.0000 1.0000
31.5000 637.0000 1.0000
31.5100 574.0000 1.0000
31.5200 623.0000 1.0000
31.5300 625.0000 1.0000
31.5400 672.0000 1.0000
31.5500 670.0000 1.0000
31.5600 642.0000 1.0000
31.5700 659.0000 1.0000
31.5800 560.0000 1.0000
31.5900 611.0000 1.0000
31.6000 622.0000 1.0000
31.6100 627.0000 1.0000
31.6200 653.0000 1.0000
31.6300 607.0000 1.0000
31.6400 620.0000 1.0000
31.6500 636.0000 1.0000
31.6600 615.0000 1.0000
31.6700 610.0000 1.0000
31.6800 667.0000 1.0000
31.6900 661.0000 1.0000
31.7000 614.0000 1.0000
31.7100 629.0000 1.0000
31.7200 636.0000 1.0000
31.7300 599.0000 1.0000
31.7400 617.0000 1.0000
31.7500 624.0000 1.0000
31.7600 605.0000 1.0000
31.7700 645.0000 1.0000
31.7800 664.0000 1.0000
31.7900 659.0000 1.0000
31.8000 619.0000 1.0000
31.8100 633.0000 1.0000
31.8200 630.0000 1.0000
31.8300 617.0000 1.0000
31.8400 618.0000 1.0000
31.8500 605.0000 1.0000
31.8600 621.0000 1.0000
31.8700 611.0000 1.0000
31.8800 624.0000 1.0000
31.8900 590.0000 1.0000
31.9000 592.0000 1.0000
31.9100 579.0000 1.0000
31.9200 624.0000 1.0000
31.9300 627.0000 1.0000
31.9400 624.0000 1.0000
31.9500 602.0000 1.0000
31.9600 592.0000 1.0000
31.9700 592.0000 1.0000
31.9800 658.0000 1.0000
31.9900 632.0000 1.0000
32.0000 629.0000 1.0000
32.0100 613.0000 1.0000
32.0200 602.0000 1.0000
32.0300 621.0000 1.0000
32.0400 611.0000 1.0000
32.0500 573.0000 1.0000
32.0600 570.0000 1.0000
32.0700 624.0000 1.0000
32.0800 597.0000 1.0000
32.0900 589.0000 1.0000
32.1000 598.0000 1.0000
32.1100 597.0000 1.0000
32.1200 642.0000 1.0000
32.1300 574.0000 1.0000
32.1400 639.0000 1.0000
32.1500 607.0000 1.0000
32.1600 584.0000 1.0000
32.1700 589.0000 1.0000
32.1800 585.0000 1.0000
32.1900 600.0000 1.0000
32.2000 626.0000 1.0000
32.2100 589.0000 1.0000
32.2200 612.0000 1.0000
32.2300 617.0000 1.0000
32.2400 576.0000 1.0000
32.2500 563.0000 1.0000
32.2600 582.0000 1.0000
32.2700 572.0000 1.0000
32.2800 588.0000 1.0000
32.2900 628.0000 1.0000
32.3000 652.0000 1.0000
32.3100 613.0000 1.0000
32.3200 571.0000 1.0000
32.3300 629.0000 1.0000
32.3400 596.0000 1.0000
32.3500 573.0000 1.0000
32.3600 574.0000 1.0000
32.3700 609.0000 1.0000
32.3800 589.0000 1.0000
32.3900 576.0000 1.0000
32.4000 633.0000 1.0000
32.4100 612.0000 1.0000
32.4200 576.0000 1.0000
32.4300 600.0000 1.0000
32.4400 620.0000 1.0000
32.4500 631.0000 1.0000
32.4600 634.0000 1.0000
32.4700 620.0000 1.0000
32.4800 621.0000 1.0000
32.4900 644.0000 1.0000
32.5000 634.0000 1.0000
32.5100 621.0000 1.0000
32.5200 595.0000 1.0000
32.5300 570.0000 1.0000
32.5400 603.0000 1.0000
32.5500 618.0000 1.0000
32.5600 599.0000 1.0000
32.5700 617.0000 1.0000
32.5800 638.0000 1.0000
32.5900 619.0000 1.0000
32.6000 615.0000 1.0000
32.6100 596.0000 1.0000
32.6200 631.0000 1.0000
32.6300 618.0000 1.0000
32.6400 604.0000 1.0000
32.6500 625.0000 1.0000
32.6600 606.0000 1.0000
32.6700 562.0000 1.0000
32.6800 585.0000 1.0000
32.6900 582.0000 1.0000
32.7000 588.0000 1.0000
32.7100 622.0000 1.0000
32.7200 652.0000 1.0000
32.7300 618.0000 1.0000
32.7400 605.0000 1.0000
32.7500 622.0000 1.0000
32.7600 608.0000 1.0000
32.7700 642.0000 1.0000
32.7800 629.0000 1.0000
32.7900 620.0000 1.0000
32.8000 613.0000 1.0000
32.8100 632.0000 1.0000
32.8200 599.0000 1.0000
32.8300 623.0000 1.0000
32.8400 608.0000 1.0000
32.8500 613.0000 1.0000
32.8600 609.0000 1.0000
32.8700 590.0000 1.0000
32.8800 573.0000 1.0000
32.8900 628.0000 1.0000
32.9000 656.0000 1.0000
32.9100 643.0000 1.0000
32.9200 600.0000 1.0000
32.9300 644.0000 1.0000
32.9400 578.0000 1.0000
32.9500 641.0000 1.0000
32.9600 646.0000 1.0000
32.9700 665.0000 1.0000
32.9800 622.0000 1.0000
32.9900 645.0000 1.0000
33.0000 690.0000 1.0000
33.0100 683.0000 1.0000
33.0200 679.0000 1.0000
33.0300 684.0000 1.0000
33.0400 657.0000 1.0000
33.0500 678.0000 1.0000
33.0600 690.0000 1.0000
33.0700 649.0000 1.0000
33.0800 692.0000 1.0000
33.0900 711.0000 1.0000
33.1000 669.0000 1.0000
33.1100 680.0000 1.0000
33.1200 678.0000 1.0000
33.1300 689.0000 1.0000
33.1400 690.0000 1.0000
33.1500 696.0000 1.0000
33.1600 676.0000 1.0000
33.1700 697.0000 1.0000
33.1800 652.0000 1.0000
33.1900 643.0000 1.0000
33.2000 646.0000 1.0000
33.2100 666.0000 1.0000
33.2200 667.0000 1.0000
33.2300 643.0000 1.0000
33.2400 679.0000 1.0000
33.2500 666.0000 1.0000
33.2600 629.0000 1.0000
33.2700 642.0000 1.0000
33.2800 674.0000 1.0000
33.2900 620.0000 1.0000
33.3000 632.0000 1.0000
33.3100 703.0000 1.0000
33.3200 680.0000 1.0000
33.3300 684.0000 1.0000
33.3400 641.0000 1.0000
33.3500 663.0000 1.0000
33.3600 679.0000 1.0000
33.3700 678.0000 1.0000
33.3800 705.0000 1.0000
33.3900 692.0000 1.0000
33.4000 685.0000 1.0000
33.4100 723.0000 1.0000
33.4200 753.0000 1.0000
33.4300 779.0000 1.0000
33.4400 749.0000 1.0000
33.4500 811.0000 1.0000
33.4600 862.0000 1.0000
33.4700 825.0000 1.0000
33.4800 846.0000 1.0000
33.4900 867.0000 1.0000
33.5000 888.0000 1.0000
33.5100 926.0000 1.0000
33.5200 1012.0000 1.0000
33.5300 1017.0000 1.0000
33.5400 1045.0000 1.0000
33.5500 1116.0000 1.0000
33.5600 1145.0000 1.0000
33.5700 1150.0000 1.0000
33.5800 1263.0000 1.0000
33.5900 1303.0000 1.0000
33.6000 1318.0000 1.0000
33.6100 1399.0000 1.0000
33.6200 1422.0000 1.0000
33.6300 1529.0000 1.0000
33.6400 1504.0000 1.0000
33.6500 1534.0000 1.0000
33.6600 1459.0000 1.0000
33.6700 1534.0000 1.0000
33.6800 1496.0000 1.0000
33.6900 1439.0000 1.0000
33.7000 1388.0000 1.0000
33.7100 1298.0000 1.0000
33.7200 1317.0000 1.0000
33.7300 1290.0000 1.0000
33.7400 1278.0000 1.0000
33.7500 1252.0000 1.0000
33.7600 1211.0000 1.0000
33.7700 1144.0000 1.0000
33.7800 1060.0000 1.0000
33.7900 1014.0000 1.0000
33.8000 1039.0000 1.0000
33.8100 928.0000 1.0000
33.8200 863.0000 1.0000
33.8300 863.0000 1.0000
33.8400 868.0000 1.0000
33.8500 839.0000 1.0000
33.8600 779.0000 1.0000
33.8700 777.0000 1.0000
33.8800 781.0000 1.0000
33.8900 764.0000 1.0000
33.9000 717.0000 1.0000
33.9100 715.0000 1.0000
33.9200 740.0000 1.0000
33.9300 754.0000 1.0000
33.9400 716.0000 1.0000
33.9500 733.0000 1.0000
33.9600 655.0000 1.0000
33.9700 634.0000 1.0000
33.9800 669.0000 1.0000
33.9900 683.0000 1.0000
34.0000 703.0000 1.0000
34.0100 646.0000 1.0000
34.0200 623.0000 1.0000
34.0300 660.0000 1.0000
34.0400 664.0000 1.0000
34.0500 660.0000 1.0000
34.0600 590.0000 1.0000
34.0700 586.0000 1.0000
34.0800 597.0000 1.0000
34.0900 605.0000 1.0000
34.1000 627.0000 1.0000
34.1100 628.0000 1.0000
34.1200 606.0000 1.0000
34.1300 633.0000 1.0000
34.1400 591.0000 1.0000
34.1500 588.0000 1.0000
34.1600 601.0000 1.0000
34.1700 603.0000 1.0000
34.1800 595.0000 1.0000
34.1900 570.0000 1.0000
34.2000 594.0000 1.0000
34.2100 581.0000 1.0000
34.2200 568.0000 1.0000
34.2300 611.0000 1.0000
34.2400 580.0000 1.0000
34.2500 569.0000 1.0000
34.2600 584.0000 1.0000
34.2700 546.0000 1.0000
34.2800 589.0000 1.0000
34.2900 564.0000 1.0000
34.3000 571.0000 1.0000
34.3100 576.0000 1.0000
34.3200 558.0000 1.0000
34.3300 581.0000 1.0000
34.3400 542.0000 1.0000
34.3500 556.0000 1.0000
34.3600 569.0000 1.0000
34.3700 572.0000 1.0000
34.3800 533.0000 1.0000
34.3900 569.0000 1.0000
34.4000 553.0000 1.0000
34.4100 549.0000 1.0000
34.4200 537.0000 1.0000
34.4300 556.0000 1.0000
34.4400 545.0000 1.0000
34.4500 566.0000 1.0000
34.4600 605.0000 1.0000
34.4700 546.0000 1.0000
34.4800 543.0000 1.0000
34.4900 568.0000 1.0000
34.5000 559.0000 1.0000
34.5100 555.0000 1.0000
34.5200 563.0000 1.0000
34.5300 521.0000 1.0000
34.5400 539.0000 1.0000
34.5500 527.0000 1.0000
34.5600 518.0000 1.0000
34.5700 506.0000 1.0000
34.5800 546.0000 1.0000
34.5900 525.0000 1.0000
34.6000 556.0000 1.0000
34.6100 566.0000 1.0000
34.6200 547.0000 1.0000
34.6300 534.0000 1.0000
34.6400 529.0000 1.0000
34.6500 529.0000 1.0000
34.6600 554.0000 1.0000
34.6700 550.0000 1.0000
34.6800 527.0000 1.0000
34.6900 521.0000 1.0000
34.7000 511.0000 1.0000
34.7100 540.0000 1.0000
34.7200 553.0000 1.0000
34.7300 523.0000 1.0000
34.7400 540.0000 1.0000
34.7500 550.0000 1.0000
34.7600 546.0000 1.0000
34.7700 542.0000 1.0000
34.7800 531.0000 1.0000
34.7900 535.0000 1.0000
34.8000 543.0000 1.0000
34.8100 529.0000 1.0000
34.8200 541.0000 1.0000
34.8300 509.0000 1.0000
34.8400 539.0000 1.0000
34.8500 532.0000 1.0000
34.8600 515.0000 1.0000
34.8700 524.0000 1.0000
34.8800 526.0000 1.0000
34.8900 530.0000 1.0000
34.9000 569.0000 1.0000
34.9100 542.0000 1.0000
34.9200 521.0000 1.0000
34.9300 503.0000 1.0000
34.9400 524.0000 1.0000
34.9500 518.0000 1.0000
34.9600 519.0000 1.0000
34.9700 522.0000 1.0000
34.9800 514.0000 1.0000
34.9900 502.0000 1.0000
35.0000 538.0000 1.0000
35.0100 528.0000 1.0000
35.0200 531.0000 1.0000
35.0300 510.0000 1.0000
35.0400 558.0000 1.0000
35.0500 538.0000 1.0000
35.0600 539.0000 1.0000
35.0700 508.0000 1.0000
35.0800 522.0000 1.0000
35.0900 544.0000 1.0000
35.1000 547.0000 1.0000
35.1100 499.0000 1.0000
35.1200 494.0000 1.0000
35.1300 525.0000 1.0000
35.1400 517.0000 1.0000
35.1500 492.0000 1.0000
35.1600 533.0000 1.0000
35.1700 558.0000 1.0000
35.1800 501.0000 1.0000
35.1900 513.0000 1.0000
35.2000 509.0000 1.0000
35.2100 505.0000 1.0000
35.2200 542.0000 1.0000
35.2300 538.0000 1.0000
35.2400 527.0000 1.0000
35.2500 568.0000 1.0000
35.2600 531.0000 1.0000
35.2700 477.0000 1.0000
35.2800 512.0000 1.0000
35.2900 527.0000 1.0000
35.3000 509.0000 1.0000
35.3100 558.0000 1.0000
35.3200 574.0000 1.0000
35.3300 574.0000 1.0000
35.3400 553.0000 1.0000
35.3500 535.0000 1.0000
35.3600 551.0000 1.0000
35.3700 566.0000 1.0000
35.3800 601.0000 1.0000
35.3900 649.0000 1.0000
35.4000 656.0000 1.0000
35.4100 665.0000 1.0000
35.4200 669.0000 1.0000
35.4300 689.0000 1.0000
35.4400 694.0000 1.0000
35.4500 670.0000 1.0000
35.4600 738.0000 1.0000
35.4700 812.0000 1.0000
35.4800 768.0000 1.0000
35.4900 803.0000 1.0000
35.5000 864.0000 1.0000
35.5100 881.0000 1.0000
35.5200 888.0000 1.0000
35.5300 974.0000 1.0000
35.5400 993.0000 1.0000
35.5500 994.0000 1.0000
35.5600 1042.0000 1.0000
35.5700 1013.0000 1.0000
35.5800 1054.0000 1.0000
35.5900 1015.0000 1.0000
35.6000 1039.0000 1.0000
35.6100 1020.0000 1.0000
35.6200 1028.0000 1.0000
35.6300 948.0000 1.0000
35.6400 906.0000 1.0000
35.6500 949.0000 1.0000
35.6600 867.0000 1.0000
35.6700 849.0000 1.0000
35.6800 865.0000 1.0000
35.6900 774.0000 1.0000
35.7000 756.0000 1.0000
35.7100 752.0000 1.0000
35.7200 724.0000 1.0000
35.7300 668.0000 1.0000
35.7400 668.0000 1.0000
35.7500 629.0000 1.0000
35.7600 577.0000 1.0000
35.7700 622.0000 1.0000
35.7800 623.0000 1.0000
35.7900 595.0000 1.0000
35.8000 552.0000 1.0000
35.8100 541.0000 1.0000
35.8200 560.0000 1.0000
35.8300 514.0000 1.0000
35.8400 540.0000 1.0000
35.8500 539.0000 1.0000
35.8600 513.0000 1.0000
35.8700 503.0000 1.0000
35.8800 539.0000 1.0000
35.8900 519.0000 1.0000
35.9000 520.0000 1.0000
35.9100 533.0000 1.0000
35.9200 526.0000 1.0000
35.9300 502.0000 1.0000
35.9400 494.0000 1.0000
35.9500 456.0000 1.0000
35.9600 478.0000 1.0000
35.9700 489.0000 1.0000
35.9800 504.0000 1.0000
35.9900 496.0000 1.0000
36.0000 489.0000 1.0000
36.0100 487.0000 1.0000
36.0200 492.0000 1.0000
36.0300 486.0000 1.0000
36.0400 477.0000 1.0000
36.0500 487.0000 1.0000
36.0600 517.0000 1.0000
36.0700 487.0000 1.0000
36.0800 516.0000 1.0000
36.0900 513.0000 1.0000
36.1000 485.0000 1.0000
36.1100 481.0000 1.0000
36.1200 502.0000 1.0000
36.1300 493.0000 1.0000
36.1400 515.0000 1.0000
36.1500 528.0000 1.0000
36.1600 475.0000 1.0000
36.1700 489.0000 1.0000
36.1800 514.0000 1.0000
36.1900 506.0000 1.0000
36.2000 470.0000 1.0000
36.2100 501.0000 1.0000
36.2200 490.0000 1.0000
36.2300 494.0000 1.0000
36.2400 515.0000 1.0000
36.2500 473.0000 1.0000
36.2600 481.0000 1.0000
36.2700 499.0000 1.0000
36.2800 526.0000 1.0000
36.2900 503.0000 1.0000
36.3000 495.0000 1.0000
36.3100 469.0000 1.0000
36.3200 500.0000 1.0000
36.3300 498.0000 1.0000
36.3400 462.0000 1.0000
36.3500 441.0000 1.0000
36.3600 485.0000 1.0000
36.3700 496.0000 1.0000
36.3800 465.0000 1.0000
36.3900 499.0000 1.0000
36.4000 475.0000 1.0000
36.4100 487.0000 1.0000
36.4200 489.0000 1.0000
36.4300 484.0000 1.0000
36.4400 480.0000 1.0000
36.4500 493.0000 1.0000
36.4600 512.0000 1.0000
36.4700 531.0000 1.0000
36.4800 487.0000 1.0000
36.4900 474.0000 1.0000
36.5000 489.0000 1.0000
36.5100 480.0000 1.0000
36.5200 502.0000 1.0000
36.5300 487.0000 1.0000
36.5400 469.0000 1.0000
36.5500 491.0000 1.0000
36.5600 505.0000 1.0000
36.5700 504.0000 1.0000
36.5800 465.0000 1.0000
36.5900 518.0000 1.0000
36.6000 484.0000 1.0000
36.6100 469.0000 1.0000
36.6200 459.0000 1.0000
36.6300 468.0000 1.0000
36.6400 485.0000 1.0000
36.6500 429.0000 1.0000
36.6600 482.0000 1.0000
36.6700 447.0000 1.0000
36.6800 508.0000 1.0000
36.6900 458.0000 1.0000
36.7000 435.0000 1.0000
36.7100 486.0000 1.0000
36.7200 491.0000 1.0000
36.7300 488.0000 1.0000
36.7400 515.0000 1.0000
36.7500 484.0000 1.0000
36.7600 492.0000 1.0000
36.7700 469.0000 1.0000
36.7800 500.0000 1.0000
36.7900 481.0000 1.0000
36.8000 422.0000 1.0000
36.8100 492.0000 1.0000
36.8200 529.0000 1.0000
36.8300 494.0000 1.0000
36.8400 460.0000 1.0000
36.8500 464.0000 1.0000
36.8600 506.0000 1.0000
36.8700 502.0000 1.0000
36.8800 470.0000 1.0000
36.8900 475.0000 1.0000
36.9000 482.0000 1.0000
36.9100 459.0000 1.0000
36.9200 491.0000 1.0000
36.9300 480.0000 1.0000
36.9400 493.0000 1.0000
36.9500 468.0000 1.0000
36.9600 479.0000 1.0000
36.9700 482.0000 1.0000
36.9800 449.0000 1.0000
36.9900 472.0000 1.0000
37.0000 482.0000 1.0000
37.0100 493.0000 1.0000
37.0200 490.0000 1.0000
37.0300 495.0000 1.0000
37.0400 489.0000 1.0000
37.0500 482.0000 1.0000
37.0600 494.0000 1.0000
37.0700 485.0000 1.0000
37.0800 495.0000 1.0000
37.0900 494.0000 1.0000
37.1000 476.0000 1.0000
37.1100 492.0000 1.0000
37.1200 489.0000 1.0000
37.1300 446.0000 1.0000
37.1400 462.0000 1.0000
37.1500 500.0000 1.0000
37.1600 483.0000 1.0000
37.1700 527.0000 1.0000
37.1800 490.0000 1.0000
37.1900 523.0000 1.0000
37.2000 504.0000 1.0000
37.2100 511.0000 1.0000
37.2200 489.0000 1.0000
37.2300 531.0000 1.0000
37.2400 532.0000 1.0000
37.2500 524.0000 1.0000
37.2600 530.0000 1.0000
37.2700 529.0000 1.0000
37.2800 550.0000 1.0000
37.2900 557.0000 1.0000
37.3000 519.0000 1.0000
37.3100 547.0000 1.0000
37.3200 523.0000 1.0000
37.3300 546.0000 1.0000
37.3400 571.0000 1.0000
37.3500 591.0000 1.0000
37.3600 604.0000 1.0000
37.3700 612.0000 1.0000
37.3800 600.0000 1.0000
37.3900 599.0000 1.0000
37.4000 640.0000 1.0000
37.4100 672.0000 1.0000
37.4200 654.0000 1.0000
37.4300 669.0000 1.0000
37.4400 719.0000 1.0000
37.4500 726.0000 1.0000
37.4600 750.0000 1.0000
37.4700 813.0000 1.0000
37.4800 821.0000 1.0000
37.4900 884.0000 1.0000
37.5000 939.0000 1.0000
37.5100 935.0000 1.0000
37.5200 961.0000 1.0000
37.5300 975.0000 1.0000
37.5400 1094.0000 1.0000
37.5500 1140.0000 1.0000
37.5600 1197.0000 1.0000
37.5700 1275.0000 1.0000
37.5800 1364.0000 1.0000
37.5900 1474.0000 1.0000
37.6000 1578.0000 1.0000
37.6100 1660.0000 1.0000
37.6200 1769.0000 1.0000
37.6300 1827.0000 1.0000
37.6400 1966.0000 1.0000
37.6500 2121.0000 1.0000
37.6600 2191.0000 1.0000
37.6700 2272.0000 1.0000
37.6800 2346.0000 1.0000
37.6900 2351.0000 1.0000
37.7000 2423.0000 1.0000
37.7100 2463.0000 1.0000
37.7200 2412.0000 1.0000
37.7300 2424.0000 1.0000
37.7400 2413.0000 1.0000
37.7500 2360.0000 1.0000
37.7600 2326.0000 1.0000
37.7700 2255.0000 1.0000
37.7800 2249.0000 1.0000
37.7900 2153.0000 1.0000
37.8000 2093.0000 1.0000
37.8100 1978.0000 1.0000
37.8200 1835.0000 1.0000
37.8300 1741.0000 1.0000
37.8400 1620.0000 1.0000
37.8500 1585.0000 1.0000
37.8600 1448.0000 1.0000
37.8700 1416.0000 1.0000
37.8800 1320.0000 1.0000
37.8900 1220.0000 1.0000
37.9000 1107.0000 1.0000
37.9100 1095.0000 1.0000
37.9200 987.0000 1.0000
37.9300 975.0000 1.0000
37.9400 920.0000 1.0000
37.9500 859.0000 1.0000
37.9600 868.0000 1.0000
37.9700 768.0000 1.0000
37.9800 701.0000 1.0000
37.9900 715.0000 1.0000
38.0000 733.0000 1.0000
38.0100 728.0000 1.0000
38.0200 690.0000 1.0000
38.0300 646.0000 1.0000
38.0400 653.0000 1.0000
38.0500 611.0000 1.0000
38.0600 613.0000 1.0000
38.0700 591.0000 1.0000
38.0800 561.0000 1.0000
38.0900 580.0000 1.0000
38.1000 551.0000 1.0000
38.1100 510.0000 1.0000
38.1200 524.0000 1.0000
38.1300 535.0000 1.0000
38.1400 524.0000 1.0000
38.1500 510.0000 1.0000
38.1600 495.0000 1.0000
38.1700 510.0000 1.0000
38.1800 517.0000 1.0000
38.1900 505.0000 1.0000
38.2000 478.0000 1.0000
38.2100 492.0000 1.0000
38.2200 493.0000 1.0000
38.2300 465.0000 1.0000
38.2400 497.0000 1.0000
38.2500 490.0000 1.0000
38.2600 479.0000 1.0000
38.2700 475.0000 1.0000
38.2800 467.0000 1.0000
38.2900 450.0000 1.0000
38.3000 460.0000 1.0000
38.3100 431.0000 1.0000
38.3200 451.0000 1.0000
38.3300 443.0000 1.0000
38.3400 480.0000 1.0000
38.3500 481.0000 1.0000
38.3600 455.0000 1.0000
38.3700 460.0000 1.0000
38.3800 456.0000 1.0000
38.3900 424.0000 1.0000
38.4000 442.0000 1.0000
38.4100 451.0000 1.0000
38.4200 440.0000 1.0000
38.4300 456.0000 1.0000
38.4400 458.0000 1.0000
38.4500 442.0000 1.0000
38.4600 453.0000 1.0000
38.4700 430.0000 1.0000
38.4800 448.0000 1.0000
38.4900 450.0000 1.0000
38.5000 429.0000 1.0000
38.5100 444.0000 1.0000
38.5200 434.0000 1.0000
38.5300 440.0000 1.0000
38.5400 462.0000 1.0000
38.5500 468.0000 1.0000
38.5600 467.0000 1.0000
38.5700 442.0000 1.0000
38.5800 451.0000 1.0000
38.5900 456.0000 1.0000
38.6000 448.0000 1.0000
38.6100 431.0000 1.0000
38.6200 454.0000 1.0000
38.6300 446.0000 1.0000
38.6400 458.0000 1.0000
38.6500 478.0000 1.0000
38.6600 459.0000 1.0000
38.6700 468.0000 1.0000
38.6800 478.0000 1.0000
38.6900 495.0000 1.0000
38.7000 486.0000 1.0000
38.7100 483.0000 1.0000
38.7200 471.0000 1.0000
38.7300 438.0000 1.0000
38.7400 481.0000 1.0000
38.7500 450.0000 1.0000
38.7600 462.0000 1.0000
38.7700 453.0000 1.0000
38.7800 423.0000 1.0000
38.7900 486.0000 1.0000
38.8000 452.0000 1.0000
38.8100 422.0000 1.0000
38.8200 434.0000 1.0000
38.8300 463.0000 1.0000
38.8400 469.0000 1.0000
38.8500 463.0000 1.0000
38.8600 449.0000 1.0000
38.8700 422.0000 1.0000
38.8800 429.0000 1.0000
38.8900 440.0000 1.0000
38.9000 440.0000 1.0000
38.9100 431.0000 1.0000
38.9200 465.0000 1.0000
38.9300 462.0000 1.0000
38.9400 399.0000 1.0000
38.9500 431.0000 1.0000
38.9600 505.0000 1.0000
38.9700 445.0000 1.0000
38.9800 436.0000 1.0000
38.9900 427.0000 1.0000
39.0000 421.0000 1.0000
39.0100 414.0000 1.0000
39.0200 438.0000 1.0000
39.0300 444.0000 1.0000
39.0400 411.0000 1.0000
39.0500 425.0000 1.0000
39.0600 430.0000 1.0000
39.0700 439.0000 1.0000
39.0800 399.0000 1.0000
39.0900 412.0000 1.0000
39.1000 399.0000 1.0000
39.1100 429.0000 1.0000
39.1200 435.0000 1.0000
39.1300 392.0000 1.0000
39.1400 431.0000 1.0000
39.1500 413.0000 1.0000
39.1600 415.0000 1.0000
39.1700 431.0000 1.0000
39.1800 411.0000 1.0000
39.1900 440.0000 1.0000
39.2000 422.0000 1.0000
39.2100 450.0000 1.0000
39.2200 432.0000 1.0000
39.2300 427.0000 1.0000
39.2400 408.0000 1.0000
39.2500 422.0000 1.0000
39.2600 419.0000 1.0000
39.2700 395.0000 1.0000
39.2800 403.0000 1.0000
39.2900 424.0000 1.0000
39.3000 407.0000 1.0000
39.3100 421.0000 1.0000
39.3200 412.0000 1.0000
39.3300 409.0000 1.0000
39.3400 425.0000 1.0000
39.3500 411.0000 1.0000
39.3600 419.0000 1.0000
39.3700 418.0000 1.0000
39.3800 425.0000 1.0000
39.3900 399.0000 1.0000
39.4000 393.0000 1.0000
39.4100 385.0000 1.0000
39.4200 385.0000 1.0000
39.4300 438.0000 1.0000
39.4400 404.0000 1.0000
39.4500 393.0000 1.0000
39.4600 429.0000 1.0000
39.4700 403.0000 1.0000
39.4800 403.0000 1.0000
39.4900 436.0000 1.0000
39.5000 409.0000 1.0000
39.5100 383.0000 1.0000
39.5200 391.0000 1.0000
39.5300 434.0000 1.0000
39.5400 395.0000 1.0000
39.5500 401.0000 1.0000
39.5600 392.0000 1.0000
39.5700 433.0000 1.0000
39.5800 404.0000 1.0000
39.5900 402.0000 1.0000
39.6000 376.0000 1.0000
39.6100 414.0000 1.0000
39.6200 440.0000 1.0000
39.6300 417.0000 1.0000
39.6400 409.0000 1.0000
39.6500 402.0000 1.0000
39.6600 428.0000 1.0000
39.6700 421.0000 1.0000
39.6800 448.0000 1.0000
39.6900 382.0000 1.0000
39.7000 404.0000 1.0000
39.7100 401.0000 1.0000
39.7200 420.0000 1.0000
39.7300 420.0000 1.0000
39.7400 400.0000 1.0000
39.7500 411.0000 1.0000
39.7600 429.0000 1.0000
39.7700 403.0000 1.0000
39.7800 378.0000 1.0000
39.7900 373.0000 1.0000
39.8000 395.0000 1.0000
39.8100 398.0000 1.0000
39.8200 423.0000 1.0000
39.8300 378.0000 1.0000
39.8400 378.0000 1.0000
39.8500 414.0000 1.0000
39.8600 385.0000 1.0000
39.8700 373.0000 1.0000
39.8800 381.0000 1.0000
39.8900 392.0000 1.0000
39.9000 435.0000 1.0000
39.9100 384.0000 1.0000
39.9200 417.0000 1.0000
39.9300 428.0000 1.0000
39.9400 400.0000 1.0000
39.9500 416.0000 1.0000
39.9600 433.0000 1.0000
39.9700 405.0000 1.0000
39.9800 397.0000 1.0000
39.9900 384.0000 1.0000
40.0000 400.0000 1.0000
40.0100 399.0000 1.0000
40.0200 393.0000 1.0000
40.0300 391.0000 1.0000
40.0400 423.0000 1.0000
40.0500 399.0000 1.0000
40.0600 391.0000 1.0000
40.0700 397.0000 1.0000
40.0800 423.0000 1.0000
40.0900 418.0000 1.0000
40.1000 400.0000 1.0000
40.1100 402.0000 1.0000
40.1200 400.0000 1.0000
40.1300 425.0000 1.0000
40.1400 403.0000 1.0000
40.1500 398.0000 1.0000
40.1600 415.0000 1.0000
40.1700 416.0000 1.0000
40.1800 420.0000 1.0000
40.1900 395.0000 1.0000
40.2000 372.0000 1.0000
40.2100 396.0000 1.0000
40.2200 399.0000 1.0000
40.2300 405.0000 1.0000
40.2400 434.0000 1.0000
40.2500 403.0000 1.0000
40.2600 356.0000 1.0000
40.2700 385.0000 1.0000
40.2800 406.0000 1.0000
40.2900 404.0000 1.0000
40.3000 405.0000 1.0000
40.3100 406.0000 1.0000
40.3200 416.0000 1.0000
40.3300 406.0000 1.0000
40.3400 420.0000 1.0000
40.3500 394.0000 1.0000
40.3600 412.0000 1.0000
40.3700 410.0000 1.0000
40.3800 375.0000 1.0000
40.3900 367.0000 1.0000
40.4000 378.0000 1.0000
40.4100 398.0000 1.0000
40.4200 414.0000 1.0000
40.4300 396.0000 1.0000
40.4400 407.0000 1.0000
40.4500 417.0000 1.0000
40.4600 424.0000 1.0000
40.4700 405.0000 1.0000
40.4800 405.0000 1.0000
40.4900 385.0000 1.0000
40.5000 396.0000 1.0000
40.5100 375.0000 1.0000
40.5200 378.0000 1.0000
40.5300 400.0000 1.0000
40.5400 375.0000 1.0000
40.5500 398.0000 1.0000
40.5600 362.0000 1.0000
40.5700 407.0000 1.0000
40.5800 388.0000 1.0000
40.5900 399.0000 1.0000
40.6000 410.0000 1.0000
40.6100 427.0000 1.0000
40.6200 393.0000 1.0000
40.6300 408.0000 1.0000
40.6400 377.0000 1.0000
40.6500 417.0000 1.0000
40.6600 383.0000 1.0000
40.6700 424.0000 1.0000
40.6800 382.0000 1.0000
40.6900 431.0000 1.0000
40.7000 408.0000 1.0000
40.7100 412.0000 1.0000
40.7200 398.0000 1.0000
40.7300 378.0000 1.0000
40.7400 411.0000 1.0000
40.7500 414.0000 1.0000
40.7600 409.0000 1.0000
40.7700 382.0000 1.0000
40.7800 397.0000 1.0000
40.7900 429.0000 1.0000
40.8000 405.0000 1.0000
40.8100 420.0000 1.0000
40.8200 389.0000 1.0000
40.8300 391.0000 1.0000
40.8400 429.0000 1.0000
40.8500 413.0000 1.0000
40.8600 397.0000 1.0000
40.8700 398.0000 1.0000
40.8800 391.0000 1.0000
40.8900 384.0000 1.0000
40.9000 420.0000 1.0000
40.9100 415.0000 1.0000
40.9200 413.0000 1.0000
40.9300 417.0000 1.0000
40.9400 391.0000 1.0000
40.9500 410.0000 1.0000
40.9600 392.0000 1.0000
40.9700 393.0000 1.0000
40.9800 393.0000 1.0000
40.9900 401.0000 1.0000
41.0000 377.0000 1.0000
41.0100 391.0000 1.0000
41.0200 382.0000 1.0000
41.0300 395.0000 1.0000
41.0400 401.0000 1.0000
41.0500 402.0000 1.0000
41.0600 376.0000 1.0000
41.0700 394.0000 1.0000
41.0800 425.0000 1.0000
41.0900 404.0000 1.0000
41.1000 401.0000 1.0000
41.1100 441.0000 1.0000
41.1200 393.0000 1.0000
41.1300 394.0000 1.0000
41.1400 370.0000 1.0000
41.1500 392.0000 1.0000
41.1600 416.0000 1.0000
41.1700 379.0000 1.0000
41.1800 376.0000 1.0000
41.1900 403.0000 1.0000
41.2000 402.0000 1.0000
41.2100 393.0000 1.0000
41.2200 371.0000 1.0000
41.2300 401.0000 1.0000
41.2400 385.0000 1.0000
41.2500 368.0000 1.0000
41.2600 384.0000 1.0000
41.2700 392.0000 1.0000
41.2800 388.0000 1.0000
41.2900 374.0000 1.0000
41.3000 388.0000 1.0000
41.3100 376.0000 1.0000
41.3200 368.0000 1.0000
41.3300 422.0000 1.0000
41.3400 387.0000 1.0000
41.3500 407.0000 1.0000
41.3600 401.0000 1.0000
41.3700 384.0000 1.0000
41.3800 373.0000 1.0000
41.3900 378.0000 1.0000
41.4000 367.0000 1.0000
41.4100 372.0000 1.0000
41.4200 397.0000 1.0000
41.4300 389.0000 1.0000
41.4400 367.0000 1.0000
41.4500 371.0000 1.0000
41.4600 405.0000 1.0000
41.4700 415.0000 1.0000
41.4800 411.0000 1.0000
41.4900 395.0000 1.0000
41.5000 384.0000 1.0000
41.5100 406.0000 1.0000
41.5200 390.0000 1.0000
41.5300 398.0000 1.0000
41.5400 410.0000 1.0000
41.5500 395.0000 1.0000
41.5600 382.0000 1.0000
41.5700 369.0000 1.0000
41.5800 401.0000 1.0000
41.5900 373.0000 1.0000
41.6000 402.0000 1.0000
41.6100 397.0000 1.0000
41.6200 420.0000 1.0000
41.6300 399.0000 1.0000
41.6400 403.0000 1.0000
41.6500 391.0000 1.0000
41.6600 398.0000 1.0000
41.6700 378.0000 1.0000
41.6800 360.0000 1.0000
41.6900 366.0000 1.0000
41.7000 393.0000 1.0000
41.7100 377.0000 1.0000
41.7200 345.0000 1.0000
41.7300 353.0000 1.0000
41.7400 406.0000 1.0000
41.7500 378.0000 1.0000
41.7600 377.0000 1.0000
41.7700 351.0000 1.0000
41.7800 384.0000 1.0000
41.7900 402.0000 1.0000
41.8000 373.0000 1.0000
41.8100 397.0000 1.0000
41.8200 397.0000 1.0000
41.8300 376.0000 1.0000
41.8400 376.0000 1.0000
41.8500 382.0000 1.0000
41.8600 372.0000 1.0000
41.8700 353.0000 1.0000
41.8800 400.0000 1.0000
41.8900 362.0000 1.0000
41.9000 400.0000 1.0000
41.9100 400.0000 1.0000
41.9200 357.0000 1.0000
41.9300 384.0000 1.0000
41.9400 389.0000 1.0000
41.9500 396.0000 1.0000
41.9600 396.0000 1.0000
41.9700 383.0000 1.0000
41.9800 386.0000 1.0000
41.9900 377.0000 1.0000
42.0000 419.0000 1.0000
42.0100 398.0000 1.0000
42.0200 403.0000 1.0000
42.0300 394.0000 1.0000
42.0400 362.0000 1.0000
42.0500 386.0000 1.0000
42.0600 399.0000 1.0000
42.0700 405.0000 1.0000
42.0800 383.0000 1.0000
42.0900 395.0000 1.0000
42.1000 398.0000 1.0000
42.1100 410.0000 1.0000
42.1200 373.0000 1.0000
42.1300 353.0000 1.0000
42.1400 389.0000 1.0000
42.1500 382.0000 1.0000
42.1600 382.0000 1.0000
42.1700 372.0000 1.0000
42.1800 398.0000 1.0000
42.1900 398.0000 1.0000
42.2000 383.0000 1.0000
42.2100 388.0000 1.0000
42.2200 390.0000 1.0000
42.2300 411.0000 1.0000
42.2400 365.0000 1.0000
42.2500 416.0000 1.0000
42.2600 352.0000 1.0000
42.2700 387.0000 1.0000
42.2800 392.0000 1.0000
42.2900 384.0000 1.0000
42.3000 411.0000 1.0000
42.3100 435.0000 1.0000
42.3200 396.0000 1.0000
42.3300 386.0000 1.0000
42.3400 410.0000 1.0000
42.3500 408.0000 1.0000
42.3600 414.0000 1.0000
42.3700 381.0000 1.0000
42.3800 438.0000 1.0000
42.3900 426.0000 1.0000
42.4000 431.0000 1.0000
42.4100 443.0000 1.0000
42.4200 429.0000 1.0000
42.4300 415.0000 1.0000
42.4400 455.0000 1.0000
42.4500 417.0000 1.0000
42.4600 445.0000 1.0000
42.4700 414.0000 1.0000
42.4800 393.0000 1.0000
42.4900 402.0000 1.0000
42.5000 443.0000 1.0000
42.5100 438.0000 1.0000
42.5200 420.0000 1.0000
42.5300 419.0000 1.0000
42.5400 413.0000 1.0000
42.5500 420.0000 1.0000
42.5600 396.0000 1.0000
42.5700 373.0000 1.0000
42.5800 429.0000 1.0000
42.5900 382.0000 1.0000
42.6000 373.0000 1.0000
42.6100 377.0000 1.0000
42.6200 403.0000 1.0000
42.6300 398.0000 1.0000
42.6400 359.0000 1.0000
42.6500 380.0000 1.0000
42.6600 417.0000 1.0000
42.6700 379.0000 1.0000
42.6800 402.0000 1.0000
42.6900 391.0000 1.0000
42.7000 392.0000 1.0000
42.7100 373.0000 1.0000
42.7200 377.0000 1.0000
42.7300 397.0000 1.0000
42.7400 378.0000 1.0000
42.7500 374.0000 1.0000
42.7600 384.0000 1.0000
42.7700 368.0000 1.0000
42.7800 370.0000 1.0000
42.7900 361.0000 1.0000
42.8000 379.0000 1.0000
42.8100 377.0000 1.0000
42.8200 366.0000 1.0000
42.8300 377.0000 1.0000
42.8400 374.0000 1.0000
42.8500 405.0000 1.0000
42.8600 379.0000 1.0000
42.8700 383.0000 1.0000
42.8800 392.0000 1.0000
42.8900 355.0000 1.0000
42.9000 336.0000 1.0000
42.9100 357.0000 1.0000
42.9200 390.0000 1.0000
42.9300 363.0000 1.0000
42.9400 393.0000 1.0000
42.9500 356.0000 1.0000
42.9600 377.0000 1.0000
42.9700 391.0000 1.0000
42.9800 375.0000 1.0000
42.9900 375.0000 1.0000
43.0000 373.0000 1.0000
43.0100 353.0000 1.0000
43.0200 365.0000 1.0000
43.0300 390.0000 1.0000
43.0400 397.0000 1.0000
43.0500 393.0000 1.0000
43.0600 386.0000 1.0000
43.0700 390.0000 1.0000
43.0800 380.0000 1.0000
43.0900 365.0000 1.0000
43.1000 382.0000 1.0000
43.1100 369.0000 1.0000
43.1200 402.0000 1.0000
43.1300 394.0000 1.0000
43.1400 386.0000 1.0000
43.1500 386.0000 1.0000
43.1600 379.0000 1.0000
43.1700 416.0000 1.0000
43.1800 371.0000 1.0000
43.1900 372.0000 1.0000
43.2000 399.0000 1.0000
43.2100 328.0000 1.0000
43.2200 392.0000 1.0000
43.2300 407.0000 1.0000
43.2400 393.0000 1.0000
43.2500 377.0000 1.0000
43.2600 357.0000 1.0000
43.2700 389.0000 1.0000
43.2800 408.0000 1.0000
43.2900 361.0000 1.0000
43.3000 367.0000 1.0000
43.3100 415.0000 1.0000
43.3200 410.0000 1.0000
43.3300 374.0000 1.0000
43.3400 378.0000 1.0000
43.3500 399.0000 1.0000
43.3600 395.0000 1.0000
43.3700 377.0000 1.0000
43.3800 379.0000 1.0000
43.3900 385.0000 1.0000
43.4000 413.0000 1.0000
43.4100 424.0000 1.0000
43.4200 384.0000 1.0000
43.4300 359.0000 1.0000
43.4400 381.0000 1.0000
43.4500 366.0000 1.0000
43.4600 355.0000 1.0000
43.4700 385.0000 1.0000
43.4800 390.0000 1.0000
43.4900 361.0000 1.0000
43.5000 360.0000 1.0000
43.5100 367.0000 1.0000
43.5200 385.0000 1.0000
43.5300 395.0000 1.0000
43.5400 402.0000 1.0000
43.5500 397.0000 1.0000
43.5600 369.0000 1.0000
43.5700 388.0000 1.0000
43.5800 424.0000 1.0000
43.5900 386.0000 1.0000
43.6000 360.0000 1.0000
43.6100 365.0000 1.0000
43.6200 387.0000 1.0000
43.6300 376.0000 1.0000
43.6400 369.0000 1.0000
43.6500 406.0000 1.0000
43.6600 398.0000 1.0000
43.6700 380.0000 1.0000
43.6800 373.0000 1.0000
43.6900 380.0000 1.0000
43.7000 392.0000 1.0000
43.7100 410.0000 1.0000
43.7200 382.0000 1.0000
43.7300 359.0000 1.0000
43.7400 399.0000 1.0000
43.7500 363.0000 1.0000
43.7600 367.0000 1.0000
43.7700 366.0000 1.0000
43.7800 392.0000 1.0000
43.7900 387.0000 1.0000
43.8000 363.0000 1.0000
43.8100 351.0000 1.0000
43.8200 379.0000 1.0000
43.8300 383.0000 1.0000
43.8400 365.0000 1.0000
43.8500 347.0000 1.0000
43.8600 361.0000 1.0000
43.8700 378.0000 1.0000
43.8800 367.0000 1.0000
43.8900 371.0000 1.0000
43.9000 360.0000 1.0000
43.9100 377.0000 1.0000
43.9200 359.0000 1.0000
43.9300 382.0000 1.0000
43.9400 381.0000 1.0000
43.9500 355.0000 1.0000
43.9600 354.0000 1.0000
43.9700 393.0000 1.0000
43.9800 355.0000 1.0000
43.9900 345.0000 1.0000
44.0000 364.0000 1.0000
44.0100 363.0000 1.0000
44.0200 344.0000 1.0000
44.0300 347.0000 1.0000
44.0400 371.0000 1.0000
44.0500 335.0000 1.0000
44.0600 405.0000 1.0000
44.0700 353.0000 1.0000
44.0800 380.0000 1.0000
44.0900 390.0000 1.0000
44.1000 381.0000 1.0000
44.1100 388.0000 1.0000
44.1200 334.0000 1.0000
44.1300 368.0000 1.0000
44.1400 340.0000 1.0000
44.1500 389.0000 1.0000
44.1600 368.0000 1.0000
44.1700 348.0000 1.0000
44.1800 355.0000 1.0000
44.1900 353.0000 1.0000
44.2000 346.0000 1.0000
44.2100 380.0000 1.0000
44.2200 374.0000 1.0000
44.2300 361.0000 1.0000
44.2400 350.0000 1.0000
44.2500 379.0000 1.0000
44.2600 397.0000 1.0000
44.2700 394.0000 1.0000
44.2800 393.0000 1.0000
44.2900 360.0000 1.0000
44.3000 392.0000 1.0000
44.3100 344.0000 1.0000
44.3200 370.0000 1.0000
44.3300 372.0000 1.0000
44.3400 373.0000 1.0000
44.3500 376.0000 1.0000
44.3600 349.0000 1.0000
44.3700 352.0000 1.0000
44.3800 361.0000 1.0000
44.3900 372.0000 1.0000
44.4000 371.0000 1.0000
44.4100 362.0000 1.0000
44.4200 365.0000 1.0000
44.4300 342.0000 1.0000
44.4400 364.0000 1.0000
44.4500 385.0000 1.0000
44.4600 394.0000 1.0000
44.4700 372.0000 1.0000
44.4800 367.0000 1.0000
44.4900 375.0000 1.0000
44.5000 358.0000 1.0000
44.5100 347.0000 1.0000
44.5200 348.0000 1.0000
44.5300 347.0000 1.0000
44.5400 366.0000 1.0000
44.5500 336.0000 1.0000
44.5600 349.0000 1.0000
44.5700 375.0000 1.0000
44.5800 333.0000 1.0000
44.5900 373.0000 1.0000
44.6000 355.0000 1.0000
44.6100 329.0000 1.0000
44.6200 380.0000 1.0000
44.6300 390.0000 1.0000
44.6400 395.0000 1.0000
44.6500 334.0000 1.0000
44.6600 359.0000 1.0000
44.6700 380.0000 1.0000
44.6800 323.0000 1.0000
44.6900 349.0000 1.0000
44.7000 379.0000 1.0000
44.7100 341.0000 1.0000
44.7200 356.0000 1.0000
44.7300 327.0000 1.0000
44.7400 374.0000 1.0000
44.7500 338.0000 1.0000
44.7600 409.0000 1.0000
44.7700 372.0000 1.0000
44.7800 362.0000 1.0000
44.7900 344.0000 1.0000
44.8000 378.0000 1.0000
44.8100 359.0000 1.0000
44.8200 361.0000 1.0000
44.8300 366.0000 1.0000
44.8400 368.0000 1.0000
44.8500 352.0000 1.0000
44.8600 360.0000 1.0000
44.8700 373.0000 1.0000
44.8800 349.0000 1.0000
44.8900 374.0000 1.0000
44.9000 336.0000 1.0000
44.9100 326.0000 1.0000
44.9200 364.0000 1.0000
44.9300 345.0000 1.0000
44.9400 322.0000 1.0000
44.9500 362.0000 1.0000
44.9600 377.0000 1.0000
44.9700 359.0000 1.0000
44.9800 350.0000 1.0000
44.9900 342.0000 1.0000
45.0000 363.0000 1.0000
45.0100 333.0000 1.0000
45.0200 353.0000 1.0000
45.0300 344.0000 1.0000
45.0400 333.0000 1.0000
45.0500 376.0000 1.0000
45.0600 347.0000 1.0000
45.0700 355.0000 1.0000
45.0800 340.0000 1.0000
45.0900 342.0000 1.0000
45.1000 330.0000 1.0000
45.1100 395.0000 1.0000
45.1200 366.0000 1.0000
45.1300 358.0000 1.0000
45.1400 335.0000 1.0000
45.1500 334.0000 1.0000
45.1600 326.0000 1.0000
45.1700 378.0000 1.0000
45.1800 369.0000 1.0000
45.1900 330.0000 1.0000
45.2000 353.0000 1.0000
45.2100 322.0000 1.0000
45.2200 347.0000 1.0000
45.2300 352.0000 1.0000
45.2400 351.0000 1.0000
45.2500 367.0000 1.0000
45.2600 343.0000 1.0000
45.2700 349.0000 1.0000
45.2800 342.0000 1.0000
45.2900 334.0000 1.0000
45.3000 349.0000 1.0000
45.3100 365.0000 1.0000
45.3200 329.0000 1.0000
45.3300 338.0000 1.0000
45.3400 369.0000 1.0000
45.3500 358.0000 1.0000
45.3600 337.0000 1.0000
45.3700 341.0000 1.0000
45.3800 376.0000 1.0000
45.3900 340.0000 1.0000
45.4000 357.0000 1.0000
45.4100 341.0000 1.0000
45.4200 332.0000 1.0000
45.4300 342.0000 1.0000
45.4400 356.0000 1.0000
45.4500 331.0000 1.0000
45.4600 341.0000 1.0000
45.4700 337.0000 1.0000
45.4800 336.0000 1.0000
45.4900 363.0000 1.0000
45.5000 355.0000 1.0000
45.5100 359.0000 1.0000
45.5200 345.0000 1.0000
45.5300 353.0000 1.0000
45.5400 338.0000 1.0000
45.5500 362.0000 1.0000
45.5600 326.0000 1.0000
45.5700 359.0000 1.0000
45.5800 344.0000 1.0000
45.5900 355.0000 1.0000
45.6000 327.0000 1.0000
45.6100 344.0000 1.0000
45.6200 367.0000 1.0000
45.6300 345.0000 1.0000
45.6400 346.0000 1.0000
45.6500 337.0000 1.0000
45.6600 341.0000 1.0000
45.6700 332.0000 1.0000
45.6800 323.0000 1.0000
45.6900 334.0000 1.0000
45.7000 339.0000 1.0000
45.7100 363.0000 1.0000
45.7200 356.0000 1.0000
45.7300 345.0000 1.0000
45.7400 378.0000 1.0000
45.7500 349.0000 1.0000
45.7600 374.0000 1.0000
45.7700 340.0000 1.0000
45.7800 361.0000 1.0000
45.7900 318.0000 1.0000
45.8000 352.0000 1.0000
45.8100 348.0000 1.0000
45.8200 338.0000 1.0000
45.8300 344.0000 1.0000
45.8400 340.0000 1.0000
45.8500 340.0000 1.0000
45.8600 376.0000 1.0000
45.8700 335.0000 1.0000
45.8800 348.0000 1.0000
45.8900 350.0000 1.0000
45.9000 385.0000 1.0000
45.9100 345.0000 1.0000
45.9200 363.0000 1.0000
45.9300 355.0000 1.0000
45.9400 364.0000 1.0000
45.9500 356.0000 1.0000
45.9600 370.0000 1.0000
45.9700 359.0000 1.0000
45.9800 359.0000 1.0000
45.9900 352.0000 1.0000
46.0000 345.0000 1.0000
46.0100 327.0000 1.0000
46.0200 362.0000 1.0000
46.0300 341.0000 1.0000
46.0400 346.0000 1.0000
46.0500 375.0000 1.0000
46.0600 368.0000 1.0000
46.0700 361.0000 1.0000
46.0800 350.0000 1.0000
46.0900 335.0000 1.0000
46.1000 349.0000 1.0000
46.1100 328.0000 1.0000
46.1200 330.0000 1.0000
46.1300 346.0000 1.0000
46.1400 350.0000 1.0000
46.1500 346.0000 1.0000
46.1600 314.0000 1.0000
46.1700 343.0000 1.0000
46.1800 378.0000 1.0000
46.1900 374.0000 1.0000
46.2000 358.0000 1.0000
46.2100 352.0000 1.0000
46.2200 358.0000 1.0000
46.2300 336.0000 1.0000
46.2400 363.0000 1.0000
46.2500 336.0000 1.0000
46.2600 355.0000 1.0000
46.2700 345.0000 1.0000
46.2800 344.0000 1.0000
46.2900 351.0000 1.0000
46.3000 347.0000 1.0000
46.3100 348.0000 1.0000
46.3200 319.0000 1.0000
46.3300 338.0000 1.0000
46.3400 338.0000 1.0000
46.3500 332.0000 1.0000
46.3600 348.0000 1.0000
46.3700 346.0000 1.0000
46.3800 343.0000 1.0000
46.3900 340.0000 1.0000
46.4000 325.0000 1.0000
46.4100 347.0000 1.0000
46.4200 363.0000 1.0000
46.4300 336.0000 1.0000
46.4400 354.0000 1.0000
46.4500 353.0000 1.0000
46.4600 365.0000 1.0000
46.4700 361.0000 1.0000
46.4800 326.0000 1.0000
46.4900 302.0000 1.0000
46.5000 343.0000 1.0000
46.5100 354.0000 1.0000
46.5200 345.0000 1.0000
46.5300 343.0000 1.0000
46.5400 361.0000 1.0000
46.5500 329.0000 1.0000
46.5600 332.0000 1.0000
46.5700 339.0000 1.0000
46.5800 367.0000 1.0000
46.5900 359.0000 1.0000
46.6000 303.0000 1.0000
46.6100 313.0000 1.0000
46.6200 326.0000 1.0000
46.6300 313.0000 1.0000
46.6400 353.0000 1.0000
46.6500 347.0000 1.0000
46.6600 329.0000 1.0000
46.6700 357.0000 1.0000
46.6800 326.0000 1.0000
46.6900 335.0000 1.0000
46.7000 347.0000 1.0000
46.7100 370.0000 1.0000
46.7200 348.0000 1.0000
46.7300 353.0000 1.0000
46.7400 326.0000 1.0000
46.7500 341.0000 1.0000
46.7600 352.0000 1.0000
46.7700 364.0000 1.0000
46.7800 343.0000 1.0000
46.7900 358.0000 1.0000
46.8000 325.0000 1.0000
46.8100 348.0000 1.0000
46.8200 363.0000 1.0000
46.8300 345.0000 1.0000
46.8400 326.0000 1.0000
46.8500 328.0000 1.0000
46.8600 377.0000 1.0000
46.8700 356.0000 1.0000
46.8800 321.0000 1.0000
46.8900 347.0000 1.0000
46.9000 333.0000 1.0000
46.9100 337.0000 1.0000
46.9200 334.0000 1.0000
46.9300 321.0000 1.0000
46.9400 351.0000 1.0000
46.9500 331.0000 1.0000
46.9600 332.0000 1.0000
46.9700 327.0000 1.0000
46.9800 328.0000 1.0000
46.9900 330.0000 1.0000
47.0000 347.0000 1.0000
47.0100 335.0000 1.0000
47.0200 328.0000 1.0000
47.0300 333.0000 1.0000
47.0400 337.0000 1.0000
47.0500 360.0000 1.0000
47.0600 349.0000 1.0000
47.0700 337.0000 1.0000
47.0800 319.0000 1.0000
47.0900 311.0000 1.0000
47.1000 335.0000 1.0000
47.1100 306.0000 1.0000
47.1200 319.0000 1.0000
47.1300 336.0000 1.0000
47.1400 341.0000 1.0000
47.1500 354.0000 1.0000
47.1600 349.0000 1.0000
47.1700 333.0000 1.0000
47.1800 319.0000 1.0000
47.1900 315.0000 1.0000
47.2000 339.0000 1.0000
47.2100 367.0000 1.0000
47.2200 364.0000 1.0000
47.2300 364.0000 1.0000
47.2400 344.0000 1.0000
47.2500 333.0000 1.0000
47.2600 364.0000 1.0000
47.2700 332.0000 1.0000
47.2800 301.0000 1.0000
47.2900 330.0000 1.0000
47.3000 316.0000 1.0000
47.3100 312.0000 1.0000
47.3200 338.0000 1.0000
47.3300 334.0000 1.0000
47.3400 319.0000 1.0000
47.3500 339.0000 1.0000
47.3600 336.0000 1.0000
47.3700 326.0000 1.0000
47.3800 311.0000 1.0000
47.3900 326.0000 1.0000
47.4000 351.0000 1.0000
47.4100 327.0000 1.0000
47.4200 323.0000 1.0000
47.4300 329.0000 1.0000
47.4400 325.0000 1.0000
47.4500 315.0000 1.0000
47.4600 343.0000 1.0000
47.4700 310.0000 1.0000
47.4800 344.0000 1.0000
47.4900 323.0000 1.0000
47.5000 312.0000 1.0000
47.5100 324.0000 1.0000
47.5200 328.0000 1.0000
47.5300 316.0000 1.0000
47.5400 336.0000 1.0000
47.5500 336.0000 1.0000
47.5600 341.0000 1.0000
47.5700 318.0000 1.0000
47.5800 338.0000 1.0000
47.5900 308.0000 1.0000
47.6000 294.0000 1.0000
47.6100 308.0000 1.0000
47.6200 329.0000 1.0000
47.6300 321.0000 1.0000
47.6400 339.0000 1.0000
47.6500 329.0000 1.0000
47.6600 311.0000 1.0000
47.6700 350.0000 1.0000
47.6800 325.0000 1.0000
47.6900 328.0000 1.0000
47.7000 292.0000 1.0000
47.7100 360.0000 1.0000
47.7200 314.0000 1.0000
47.7300 359.0000 1.0000
47.7400 322.0000 1.0000
47.7500 327.0000 1.0000
47.7600 337.0000 1.0000
47.7700 307.0000 1.0000
47.7800 318.0000 1.0000
47.7900 311.0000 1.0000
47.8000 317.0000 1.0000
47.8100 345.0000 1.0000
47.8200 297.0000 1.0000
47.8300 313.0000 1.0000
47.8400 336.0000 1.0000
47.8500 331.0000 1.0000
47.8600 365.0000 1.0000
47.8700 323.0000 1.0000
47.8800 318.0000 1.0000
47.8900 309.0000 1.0000
47.9000 344.0000 1.0000
47.9100 291.0000 1.0000
47.9200 340.0000 1.0000
47.9300 290.0000 1.0000
47.9400 294.0000 1.0000
47.9500 358.0000 1.0000
47.9600 330.0000 1.0000
47.9700 321.0000 1.0000
47.9800 307.0000 1.0000
47.9900 313.0000 1.0000
48.0000 307.0000 1.0000
48.0100 305.0000 1.0000
48.0200 324.0000 1.0000
48.0300 335.0000 1.0000
48.0400 331.0000 1.0000
48.0500 304.0000 1.0000
48.0600 333.0000 1.0000
48.0700 319.0000 1.0000
48.0800 363.0000 1.0000
48.0900 338.0000 1.0000
48.1000 316.0000 1.0000
48.1100 310.0000 1.0000
48.1200 322.0000 1.0000
48.1300 322.0000 1.0000
48.1400 334.0000 1.0000
48.1500 320.0000 1.0000
48.1600 333.0000 1.0000
48.1700 305.0000 1.0000
48.1800 338.0000 1.0000
48.1900 306.0000 1.0000
48.2000 318.0000 1.0000
48.2100 326.0000 1.0000
48.2200 308.0000 1.0000
48.2300 302.0000 1.0000
48.2400 326.0000 1.0000
48.2500 341.0000 1.0000
48.2600 308.0000 1.0000
48.2700 301.0000 1.0000
48.2800 336.0000 1.0000
48.2900 328.0000 1.0000
48.3000 332.0000 1.0000
48.3100 312.0000 1.0000
48.3200 309.0000 1.0000
48.3300 366.0000 1.0000
48.3400 318.0000 1.0000
48.3500 317.0000 1.0000
48.3600 313.0000 1.0000
48.3700 349.0000 1.0000
48.3800 303.0000 1.0000
48.3900 338.0000 1.0000
48.4000 301.0000 1.0000
48.4100 326.0000 1.0000
48.4200 327.0000 1.0000
48.4300 338.0000 1.0000
48.4400 322.0000 1.0000
48.4500 329.0000 1.0000
48.4600 351.0000 1.0000
48.4700 314.0000 1.0000
48.4800 311.0000 1.0000
48.4900 324.0000 1.0000
48.5000 302.0000 1.0000
48.5100 320.0000 1.0000
48.5200 328.0000 1.0000
48.5300 327.0000 1.0000
48.5400 291.0000 1.0000
48.5500 302.0000 1.0000
48.5600 322.0000 1.0000
48.5700 314.0000 1.0000
48.5800 290.0000 1.0000
48.5900 336.0000 1.0000
48.6000 331.0000 1.0000
48.6100 293.0000 1.0000
48.6200 306.0000 1.0000
48.6300 335.0000 1.0000
48.6400 323.0000 1.0000
48.6500 320.0000 1.0000
48.6600 279.0000 1.0000
48.6700 325.0000 1.0000
48.6800 292.0000 1.0000
48.6900 295.0000 1.0000
48.7000 304.0000 1.0000
48.7100 320.0000 1.0000
48.7200 298.0000 1.0000
48.7300 341.0000 1.0000
48.7400 328.0000 1.0000
48.7500 330.0000 1.0000
48.7600 312.0000 1.0000
48.7700 338.0000 1.0000
48.7800 322.0000 1.0000
48.7900 308.0000 1.0000
48.8000 333.0000 1.0000
48.8100 303.0000 1.0000
48.8200 344.0000 1.0000
48.8300 336.0000 1.0000
48.8400 338.0000 1.0000
48.8500 312.0000 1.0000
48.8600 314.0000 1.0000
48.8700 317.0000 1.0000
48.8800 304.0000 1.0000
48.8900 312.0000 1.0000
48.9000 298.0000 1.0000
48.9100 314.0000 1.0000
48.9200 305.0000 1.0000
48.9300 284.0000 1.0000
48.9400 296.0000 1.0000
48.9500 310.0000 1.0000
48.9600 312.0000 1.0000
48.9700 309.0000 1.0000
48.9800 286.0000 1.0000
48.9900 308.0000 1.0000
49.0000 296.0000 1.0000
49.0100 325.0000 1.0000
49.0200 313.0000 1.0000
49.0300 315.0000 1.0000
49.0400 299.0000 1.0000
49.0500 315.0000 1.0000
49.0600 283.0000 1.0000
49.0700 308.0000 1.0000
49.0800 282.0000 1.0000
49.0900 323.0000 1.0000
49.1000 318.0000 1.0000
49.1100 327.0000 1.0000
49.1200 314.0000 1.0000
49.1300 306.0000 1.0000
49.1400 312.0000 1.0000
49.1500 305.0000 1.0000
49.1600 331.0000 1.0000
49.1700 340.0000 1.0000
49.1800 319.0000 1.0000
49.1900 327.0000 1.0000
49.2000 335.0000 1.0000
49.2100 311.0000 1.0000
49.2200 281.0000 1.0000
49.2300 289.0000 1.0000
49.2400 317.0000 1.0000
49.2500 321.0000 1.0000
49.2600 324.0000 1.0000
49.2700 347.0000 1.0000
49.2800 310.0000 1.0000
49.2900 334.0000 1.0000
49.3000 336.0000 1.0000
49.3100 345.0000 1.0000
49.3200 317.0000 1.0000
49.3300 310.0000 1.0000
49.3400 330.0000 1.0000
49.3500 340.0000 1.0000
49.3600 320.0000 1.0000
49.3700 333.0000 1.0000
49.3800 352.0000 1.0000
49.3900 349.0000 1.0000
49.4000 324.0000 1.0000
49.4100 312.0000 1.0000
49.4200 334.0000 1.0000
49.4300 314.0000 1.0000
49.4400 338.0000 1.0000
49.4500 350.0000 1.0000
49.4600 342.0000 1.0000
49.4700 316.0000 1.0000
49.4800 308.0000 1.0000
49.4900 326.0000 1.0000
49.5000 329.0000 1.0000
49.5100 316.0000 1.0000
49.5200 335.0000 1.0000
49.5300 330.0000 1.0000
49.5400 353.0000 1.0000
49.5500 351.0000 1.0000
49.5600 329.0000 1.0000
49.5700 306.0000 1.0000
49.5800 318.0000 1.0000
49.5900 316.0000 1.0000
49.6000 295.0000 1.0000
49.6100 342.0000 1.0000
49.6200 365.0000 1.0000
49.6300 333.0000 1.0000
49.6400 337.0000 1.0000
49.6500 281.0000 1.0000
49.6600 321.0000 1.0000
49.6700 288.0000 1.0000
49.6800 334.0000 1.0000
49.6900 346.0000 1.0000
49.7000 340.0000 1.0000
49.7100 333.0000 1.0000
49.7200 348.0000 1.0000
49.7300 322.0000 1.0000
49.7400 316.0000 1.0000
49.7500 317.0000 1.0000
49.7600 308.0000 1.0000
49.7700 305.0000 1.0000
49.7800 320.0000 1.0000
49.7900 305.0000 1.0000
49.8000 299.0000 1.0000
49.8100 320.0000 1.0000
49.8200 313.0000 1.0000
49.8300 300.0000 1.0000
49.8400 285.0000 1.0000
49.8500 325.0000 1.0000
49.8600 364.0000 1.0000
49.8700 323.0000 1.0000
49.8800 322.0000 1.0000
49.8900 317.0000 1.0000
49.9000 331.0000 1.0000
49.9100 330.0000 1.0000
49.9200 316.0000 1.0000
49.9300 344.0000 1.0000
49.9400 319.0000 1.0000
49.9500 310.0000 1.0000
49.9600 311.0000 1.0000
49.9700 347.0000 1.0000
49.9800 305.0000 1.0000
49.9900 295.0000 1.0000
50.0000 280.0000 1.0000
50.0100 336.0000 1.0000
50.0200 332.0000 1.0000
50.0300 326.0000 1.0000
50.0400 311.0000 1.0000
50.0500 328.0000 1.0000
50.0600 326.0000 1.0000
50.0700 318.0000 1.0000
50.0800 300.0000 1.0000
50.0900 311.0000 1.0000
50.1000 312.0000 1.0000
50.1100 296.0000 1.0000
50.1200 331.0000 1.0000
50.1300 355.0000 1.0000
50.1400 334.0000 1.0000
50.1500 305.0000 1.0000
50.1600 333.0000 1.0000
50.1700 331.0000 1.0000
50.1800 336.0000 1.0000
50.1900 313.0000 1.0000
50.2000 308.0000 1.0000
50.2100 337.0000 1.0000
50.2200 335.0000 1.0000
50.2300 343.0000 1.0000
50.2400 332.0000 1.0000
50.2500 323.0000 1.0000
50.2600 333.0000 1.0000
50.2700 316.0000 1.0000
50.2800 319.0000 1.0000
50.2900 304.0000 1.0000
50.3000 340.0000 1.0000
50.3100 312.0000 1.0000
50.3200 317.0000 1.0000
50.3300 348.0000 1.0000
50.3400 298.0000 1.0000
50.3500 314.0000 1.0000
50.3600 307.0000 1.0000
50.3700 293.0000 1.0000
50.3800 301.0000 1.0000
50.3900 297.0000 1.0000
50.4000 305.0000 1.0000
50.4100 308.0000 1.0000
50.4200 332.0000 1.0000
50.4300 337.0000 1.0000
50.4400 333.0000 1.0000
50.4500 316.0000 1.0000
50.4600 307.0000 1.0000
50.4700 301.0000 1.0000
50.4800 363.0000 1.0000
50.4900 341.0000 1.0000
50.5000 309.0000 1.0000
50.5100 325.0000 1.0000
50.5200 321.0000 1.0000
50.5300 329.0000 1.0000
50.5400 326.0000 1.0000
50.5500 319.0000 1.0000
50.5600 337.0000 1.0000
50.5700 318.0000 1.0000
50.5800 331.0000 1.0000
50.5900 320.0000 1.0000
50.6000 327.0000 1.0000
50.6100 348.0000 1.0000
50.6200 313.0000 1.0000
50.6300 287.0000 1.0000
50.6400 289.0000 1.0000
50.6500 322.0000 1.0000
50.6600 339.0000 1.0000
50.6700 337.0000 1.0000
50.6800 322.0000 1.0000
50.6900 333.0000 1.0000
50.7000 326.0000 1.0000
50.7100 350.0000 1.0000
50.7200 339.0000 1.0000
50.7300 320.0000 1.0000
50.7400 314.0000 1.0000
50.7500 304.0000 1.0000
50.7600 330.0000 1.0000
50.7700 318.0000 1.0000
50.7800 301.0000 1.0000
50.7900 325.0000 1.0000
50.8000 315.0000 1.0000
50.8100 348.0000 1.0000
50.8200 340.0000 1.0000
50.8300 338.0000 1.0000
50.8400 343.0000 1.0000
50.8500 340.0000 1.0000
50.8600 314.0000 1.0000
50.8700 323.0000 1.0000
50.8800 365.0000 1.0000
50.8900 337.0000 1.0000
50.9000 333.0000 1.0000
50.9100 310.0000 1.0000
50.9200 321.0000 1.0000
50.9300 355.0000 1.0000
50.9400 330.0000 1.0000
50.9500 349.0000 1.0000
50.9600 324.0000 1.0000
50.9700 334.0000 1.0000
50.9800 321.0000 1.0000
50.9900 347.0000 1.0000
51.0000 350.0000 1.0000
51.0100 341.0000 1.0000
51.0200 365.0000 1.0000
51.0300 352.0000 1.0000
51.0400 340.0000 1.0000
51.0500 349.0000 1.0000
51.0600 387.0000 1.0000
51.0700 380.0000 1.0000
51.0800 369.0000 1.0000
51.0900 403.0000 1.0000
51.1000 386.0000 1.0000
51.1100 400.0000 1.0000
51.1200 410.0000 1.0000
51.1300 385.0000 1.0000
51.1400 389.0000 1.0000
51.1500 389.0000 1.0000
51.1600 399.0000 1.0000
51.1700 445.0000 1.0000
51.1800 447.0000 1.0000
51.1900 472.0000 1.0000
51.2000 485.0000 1.0000
51.2100 513.0000 1.0000
51.2200 497.0000 1.0000
51.2300 483.0000 1.0000
51.2400 563.0000 1.0000
51.2500 559.0000 1.0000
51.2600 571.0000 1.0000
51.2700 592.0000 1.0000
51.2800 625.0000 1.0000
51.2900 649.0000 1.0000
51.3000 706.0000 1.0000
51.3100 691.0000 1.0000
51.3200 762.0000 1.0000
51.3300 832.0000 1.0000
51.3400 873.0000 1.0000
51.3500 985.0000 1.0000
51.3600 1035.0000 1.0000
51.3700 1137.0000 1.0000
51.3800 1191.0000 1.0000
51.3900 1371.0000 1.0000
51.4000 1352.0000 1.0000
51.4100 1454.0000 1.0000
51.4200 1635.0000 1.0000
51.4300 1726.0000 1.0000
51.4400 1784.0000 1.0000
51.4500 1923.0000 1.0000
51.4600 1954.0000 1.0000
51.4700 2050.0000 1.0000
51.4800 2015.0000 1.0000
51.4900 2088.0000 1.0000
51.5000 2021.0000 1.0000
51.5100 2136.0000 1.0000
51.5200 2062.0000 1.0000
51.5300 1985.0000 1.0000
51.5400 1865.0000 1.0000
51.5500 1852.0000 1.0000
51.5600 1753.0000 1.0000
51.5700 1799.0000 1.0000
51.5800 1648.0000 1.0000
51.5900 1625.0000 1.0000
51.6000 1634.0000 1.0000
51.6100 1525.0000 1.0000
51.6200 1538.0000 1.0000
51.6300 1576.0000 1.0000
51.6400 1431.0000 1.0000
51.6500 1409.0000 1.0000
51.6600 1306.0000 1.0000
51.6700 1204.0000 1.0000
51.6800 1058.0000 1.0000
51.6900 1035.0000 1.0000
51.7000 931.0000 1.0000
51.7100 913.0000 1.0000
51.7200 827.0000 1.0000
51.7300 744.0000 1.0000
51.7400 735.0000 1.0000
51.7500 728.0000 1.0000
51.7600 624.0000 1.0000
51.7700 581.0000 1.0000
51.7800 598.0000 1.0000
51.7900 581.0000 1.0000
51.8000 562.0000 1.0000
51.8100 484.0000 1.0000
51.8200 468.0000 1.0000
51.8300 467.0000 1.0000
51.8400 454.0000 1.0000
51.8500 476.0000 1.0000
51.8600 426.0000 1.0000
51.8700 448.0000 1.0000
51.8800 459.0000 1.0000
51.8900 427.0000 1.0000
51.9000 405.0000 1.0000
51.9100 416.0000 1.0000
51.9200 398.0000 1.0000
51.9300 395.0000 1.0000
51.9400 416.0000 1.0000
51.9500 365.0000 1.0000
51.9600 384.0000 1.0000
51.9700 406.0000 1.0000
51.9800 388.0000 1.0000
51.9900 353.0000 1.0000
52.0000 365.0000 1.0000
52.0100 373.0000 1.0000
52.0200 358.0000 1.0000
52.0300 374.0000 1.0000
52.0400 363.0000 1.0000
52.0500 380.0000 1.0000
52.0600 376.0000 1.0000
52.0700 376.0000 1.0000
52.0800 356.0000 1.0000
52.0900 341.0000 1.0000
52.1000 335.0000 1.0000
52.1100 340.0000 1.0000
52.1200 346.0000 1.0000
52.1300 335.0000 1.0000
52.1400 348.0000 1.0000
52.1500 332.0000 1.0000
52.1600 387.0000 1.0000
52.1700 355.0000 1.0000
52.1800 322.0000 1.0000
52.1900 309.0000 1.0000
52.2000 351.0000 1.0000
52.2100 351.0000 1.0000
52.2200 343.0000 1.0000
52.2300 320.0000 1.0000
52.2400 308.0000 1.0000
52.2500 333.0000 1.0000
52.2600 344.0000 1.0000
52.2700 332.0000 1.0000
52.2800 331.0000 1.0000
52.2900 321.0000 1.0000
52.3000 353.0000 1.0000
52.3100 308.0000 1.0000
52.3200 320.0000 1.0000
52.3300 317.0000 1.0000
52.3400 306.0000 1.0000
52.3500 323.0000 1.0000
52.3600 305.0000 1.0000
52.3700 316.0000 1.0000
52.3800 316.0000 1.0000
52.3900 316.0000 1.0000
52.4000 334.0000 1.0000
52.4100 323.0000 1.0000
52.4200 303.0000 1.0000
52.4300 318.0000 1.0000
52.4400 283.0000 1.0000
52.4500 310.0000 1.0000
52.4600 324.0000 1.0000
52.4700 343.0000 1.0000
52.4800 318.0000 1.0000
52.4900 322.0000 1.0000
52.5000 332.0000 1.0000
52.5100 322.0000 1.0000
52.5200 329.0000 1.0000
52.5300 315.0000 1.0000
52.5400 305.0000 1.0000
52.5500 308.0000 1.0000
52.5600 305.0000 1.0000
52.5700 300.0000 1.0000
52.5800 307.0000 1.0000
52.5900 327.0000 1.0000
52.6000 334.0000 1.0000
52.6100 330.0000 1.0000
52.6200 321.0000 1.0000
52.6300 308.0000 1.0000
52.6400 287.0000 1.0000
52.6500 321.0000 1.0000
52.6600 288.0000 1.0000
52.6700 306.0000 1.0000
52.6800 312.0000 1.0000
52.6900 310.0000 1.0000
52.7000 323.0000 1.0000
52.7100 315.0000 1.0000
52.7200 298.0000 1.0000
52.7300 313.0000 1.0000
52.7400 326.0000 1.0000
52.7500 310.0000 1.0000
52.7600 279.0000 1.0000
52.7700 298.0000 1.0000
52.7800 302.0000 1.0000
52.7900 299.0000 1.0000
52.8000 321.0000 1.0000
52.8100 310.0000 1.0000
52.8200 294.0000 1.0000
52.8300 310.0000 1.0000
52.8400 305.0000 1.0000
52.8500 306.0000 1.0000
52.8600 336.0000 1.0000
52.8700 318.0000 1.0000
52.8800 323.0000 1.0000
52.8900 303.0000 1.0000
52.9000 300.0000 1.0000
52.9100 338.0000 1.0000
52.9200 299.0000 1.0000
52.9300 302.0000 1.0000
52.9400 306.0000 1.0000
52.9500 297.0000 1.0000
52.9600 301.0000 1.0000
52.9700 321.0000 1.0000
52.9800 292.0000 1.0000
52.9900 340.0000 1.0000
53.0000 329.0000 1.0000
53.0100 329.0000 1.0000
53.0200 301.0000 1.0000
53.0300 288.0000 1.0000
53.0400 301.0000 1.0000
53.0500 299.0000 1.0000
53.0600 310.0000 1.0000
53.0700 307.0000 1.0000
53.0800 301.0000 1.0000
53.0900 320.0000 1.0000
53.1000 308.0000 1.0000
53.1100 320.0000 1.0000
53.1200 317.0000 1.0000
53.1300 298.0000 1.0000
53.1400 286.0000 1.0000
53.1500 323.0000 1.0000
53.1600 299.0000 1.0000
53.1700 303.0000 1.0000
53.1800 332.0000 1.0000
53.1900 299.0000 1.0000
53.2000 308.0000 1.0000
53.2100 321.0000 1.0000
53.2200 306.0000 1.0000
53.2300 307.0000 1.0000
53.2400 281.0000 1.0000
53.2500 279.0000 1.0000
53.2600 336.0000 1.0000
53.2700 298.0000 1.0000
53.2800 326.0000 1.0000
53.2900 321.0000 1.0000
53.3000 325.0000 1.0000
53.3100 302.0000 1.0000
53.3200 310.0000 1.0000
53.3300 286.0000 1.0000
53.3400 337.0000 1.0000
53.3500 331.0000 1.0000
53.3600 296.0000 1.0000
53.3700 276.0000 1.0000
53.3800 281.0000 1.0000
53.3900 308.0000 1.0000
53.4000 290.0000 1.0000
53.4100 295.0000 1.0000
53.4200 311.0000 1.0000
53.4300 320.0000 1.0000
53.4400 314.0000 1.0000
53.4500 303.0000 1.0000
53.4600 308.0000 1.0000
53.4700 315.0000 1.0000
53.4800 315.0000 1.0000
53.4900 302.0000 1.0000
53.5000 284.0000 1.0000
53.5100 333.0000 1.0000
53.5200 311.0000 1.0000
53.5300 309.0000 1.0000
53.5400 275.0000 1.0000
53.5500 281.0000 1.0000
53.5600 312.0000 1.0000
53.5700 300.0000 1.0000
53.5800 280.0000 1.0000
53.5900 304.0000 1.0000
53.6000 284.0000 1.0000
53.6100 304.0000 1.0000
53.6200 289.0000 1.0000
53.6300 289.0000 1.0000
53.6400 305.0000 1.0000
53.6500 299.0000 1.0000
53.6600 302.0000 1.0000
53.6700 309.0000 1.0000
53.6800 319.0000 1.0000
53.6900 332.0000 1.0000
53.7000 330.0000 1.0000
53.7100 328.0000 1.0000
53.7200 325.0000 1.0000
53.7300 298.0000 1.0000
53.7400 341.0000 1.0000
53.7500 301.0000 1.0000
53.7600 328.0000 1.0000
53.7700 309.0000 1.0000
53.7800 297.0000 1.0000
53.7900 330.0000 1.0000
53.8000 328.0000 1.0000
53.8100 324.0000 1.0000
53.8200 299.0000 1.0000
53.8300 323.0000 1.0000
53.8400 313.0000 1.0000
53.8500 314.0000 1.0000
53.8600 314.0000 1.0000
53.8700 338.0000 1.0000
53.8800 299.0000 1.0000
53.8900 301.0000 1.0000
53.9000 312.0000 1.0000
53.9100 318.0000 1.0000
53.9200 314.0000 1.0000
53.9300 330.0000 1.0000
53.9400 320.0000 1.0000
53.9500 319.0000 1.0000
53.9600 307.0000 1.0000
53.9700 327.0000 1.0000
53.9800 340.0000 1.0000
53.9900 340.0000 1.0000
54.0000 305.0000 1.0000
54.0100 321.0000 1.0000
54.0200 333.0000 1.0000
54.0300 323.0000 1.0000
54.0400 326.0000 1.0000
54.0500 336.0000 1.0000
54.0600 323.0000 1.0000
54.0700 334.0000 1.0000
54.0800 340.0000 1.0000
54.0900 328.0000 1.0000
54.1000 325.0000 1.0000
54.1100 309.0000 1.0000
54.1200 345.0000 1.0000
54.1300 320.0000 1.0000
54.1400 311.0000 1.0000
54.1500 329.0000 1.0000
54.1600 326.0000 1.0000
54.1700 317.0000 1.0000
54.1800 320.0000 1.0000
54.1900 327.0000 1.0000
54.2000 301.0000 1.0000
54.2100 346.0000 1.0000
54.2200 337.0000 1.0000
54.2300 352.0000 1.0000
54.2400 328.0000 1.0000
54.2500 353.0000 1.0000
54.2600 331.0000 1.0000
54.2700 336.0000 1.0000
54.2800 346.0000 1.0000
54.2900 342.0000 1.0000
54.3000 353.0000 1.0000
54.3100 364.0000 1.0000
54.3200 363.0000 1.0000
54.3300 385.0000 1.0000
54.3400 371.0000 1.0000
54.3500 379.0000 1.0000
54.3600 358.0000 1.0000
54.3700 386.0000 1.0000
54.3800 402.0000 1.0000
54.3900 384.0000 1.0000
54.4000 373.0000 1.0000
54.4100 413.0000 1.0000
54.4200 412.0000 1.0000
54.4300 441.0000 1.0000
54.4400 458.0000 1.0000
54.4500 461.0000 1.0000
54.4600 450.0000 1.0000
54.4700 461.0000 1.0000
54.4800 451.0000 1.0000
54.4900 481.0000 1.0000
54.5000 491.0000 1.0000
54.5100 446.0000 1.0000
54.5200 457.0000 1.0000
54.5300 482.0000 1.0000
54.5400 485.0000 1.0000
54.5500 491.0000 1.0000
54.5600 467.0000 1.0000
54.5700 448.0000 1.0000
54.5800 453.0000 1.0000
54.5900 436.0000 1.0000
54.6000 425.0000 1.0000
54.6100 436.0000 1.0000
54.6200 414.0000 1.0000
54.6300 419.0000 1.0000
54.6400 438.0000 1.0000
54.6500 395.0000 1.0000
54.6600 388.0000 1.0000
54.6700 435.0000 1.0000
54.6800 423.0000 1.0000
54.6900 402.0000 1.0000
54.7000 404.0000 1.0000
54.7100 410.0000 1.0000
54.7200 380.0000 1.0000
54.7300 394.0000 1.0000
54.7400 373.0000 1.0000
54.7500 361.0000 1.0000
54.7600 383.0000 1.0000
54.7700 352.0000 1.0000
54.7800 349.0000 1.0000
54.7900 360.0000 1.0000
54.8000 332.0000 1.0000
54.8100 336.0000 1.0000
54.8200 326.0000 1.0000
54.8300 339.0000 1.0000
54.8400 338.0000 1.0000
54.8500 325.0000 1.0000
54.8600 316.0000 1.0000
54.8700 331.0000 1.0000
54.8800 338.0000 1.0000
54.8900 335.0000 1.0000
54.9000 344.0000 1.0000
54.9100 326.0000 1.0000
54.9200 298.0000 1.0000
54.9300 339.0000 1.0000
54.9400 317.0000 1.0000
54.9500 316.0000 1.0000
54.9600 321.0000 1.0000
54.9700 327.0000 1.0000
54.9800 334.0000 1.0000
54.9900 305.0000 1.0000
55.0000 297.0000 1.0000
55.0100 323.0000 1.0000
55.0200 328.0000 1.0000
55.0300 309.0000 1.0000
55.0400 295.0000 1.0000
55.0500 266.0000 1.0000
55.0600 310.0000 1.0000
55.0700 307.0000 1.0000
55.0800 322.0000 1.0000
55.0900 298.0000 1.0000
55.1000 326.0000 1.0000
55.1100 305.0000 1.0000
55.1200 288.0000 1.0000
55.1300 285.0000 1.0000
55.1400 271.0000 1.0000
55.1500 319.0000 1.0000
55.1600 312.0000 1.0000
55.1700 318.0000 1.0000
55.1800 302.0000 1.0000
55.1900 318.0000 1.0000
55.2000 297.0000 1.0000
55.2100 284.0000 1.0000
55.2200 313.0000 1.0000
55.2300 288.0000 1.0000
55.2400 307.0000 1.0000
55.2500 290.0000 1.0000
55.2600 328.0000 1.0000
55.2700 329.0000 1.0000
55.2800 301.0000 1.0000
55.2900 321.0000 1.0000
55.3000 311.0000 1.0000
55.3100 270.0000 1.0000
55.3200 274.0000 1.0000
55.3300 297.0000 1.0000
55.3400 278.0000 1.0000
55.3500 288.0000 1.0000
55.3600 296.0000 1.0000
55.3700 288.0000 1.0000
55.3800 278.0000 1.0000
55.3900 303.0000 1.0000
55.4000 302.0000 1.0000
55.4100 273.0000 1.0000
55.4200 271.0000 1.0000
55.4300 317.0000 1.0000
55.4400 313.0000 1.0000
55.4500 285.0000 1.0000
55.4600 301.0000 1.0000
55.4700 306.0000 1.0000
55.4800 283.0000 1.0000
55.4900 284.0000 1.0000
55.5000 274.0000 1.0000
55.5100 279.0000 1.0000
55.5200 310.0000 1.0000
55.5300 283.0000 1.0000
55.5400 278.0000 1.0000
55.5500 306.0000 1.0000
55.5600 280.0000 1.0000
55.5700 290.0000 1.0000
55.5800 289.0000 1.0000
55.5900 301.0000 1.0000
55.6000 263.0000 1.0000
55.6100 288.0000 1.0000
55.6200 283.0000 1.0000
55.6300 263.0000 1.0000
55.6400 297.0000 1.0000
55.6500 282.0000 1.0000
55.6600 291.0000 1.0000
55.6700 282.0000 1.0000
55.6800 277.0000 1.0000
55.6900 301.0000 1.0000
55.7000 295.0000 1.0000
55.7100 284.0000 1.0000
55.7200 298.0000 1.0000
55.7300 325.0000 1.0000
55.7400 290.0000 1.0000
55.7500 278.0000 1.0000
55.7600 316.0000 1.0000
55.7700 313.0000 1.0000
55.7800 299.0000 1.0000
55.7900 281.0000 1.0000
55.8000 291.0000 1.0000
55.8100 297.0000 1.0000
55.8200 291.0000 1.0000
55.8300 300.0000 1.0000
55.8400 301.0000 1.0000
55.8500 310.0000 1.0000
55.8600 294.0000 1.0000
55.8700 300.0000 1.0000
55.8800 311.0000 1.0000
55.8900 288.0000 1.0000
55.9000 280.0000 1.0000
55.9100 290.0000 1.0000
55.9200 302.0000 1.0000
55.9300 300.0000 1.0000
55.9400 270.0000 1.0000
55.9500 282.0000 1.0000
55.9600 289.0000 1.0000
55.9700 299.0000 1.0000
55.9800 288.0000 1.0000
55.9900 295.0000 1.0000
56.0000 298.0000 1.0000
56.0100 289.0000 1.0000
56.0200 287.0000 1.0000
56.0300 258.0000 1.0000
56.0400 309.0000 1.0000
56.0500 276.0000 1.0000
56.0600 268.0000 1.0000
56.0700 323.0000 1.0000
56.0800 293.0000 1.0000
56.0900 283.0000 1.0000
56.1000 299.0000 1.0000
56.1100 273.0000 1.0000
56.1200 289.0000 1.0000
56.1300 295.0000 1.0000
56.1400 319.0000 1.0000
56.1500 317.0000 1.0000
56.1600 280.0000 1.0000
56.1700 283.0000 1.0000
56.1800 282.0000 1.0000
56.1900 308.0000 1.0000
56.2000 271.0000 1.0000
56.2100 284.0000 1.0000
56.2200 284.0000 1.0000
56.2300 279.0000 1.0000
56.2400 275.0000 1.0000
56.2500 326.0000 1.0000
56.2600 288.0000 1.0000
56.2700 307.0000 1.0000
56.2800 292.0000 1.0000
56.2900 287.0000 1.0000
56.3000 296.0000 1.0000
56.3100 294.0000 1.0000
56.3200 273.0000 1.0000
56.3300 290.0000 1.0000
56.3400 264.0000 1.0000
56.3500 309.0000 1.0000
56.3600 276.0000 1.0000
56.3700 281.0000 1.0000
56.3800 297.0000 1.0000
56.3900 315.0000 1.0000
56.4000 310.0000 1.0000
56.4100 279.0000 1.0000
56.4200 294.0000 1.0000
56.4300 303.0000 1.0000
56.4400 295.0000 1.0000
56.4500 272.0000 1.0000
56.4600 294.0000 1.0000
56.4700 310.0000 1.0000
56.4800 281.0000 1.0000
56.4900 285.0000 1.0000
56.5000 330.0000 1.0000
56.5100 310.0000 1.0000
56.5200 288.0000 1.0000
56.5300 281.0000 1.0000
56.5400 293.0000 1.0000
56.5500 288.0000 1.0000
56.5600 295.0000 1.0000
56.5700 270.0000 1.0000
56.5800 284.0000 1.0000
56.5900 284.0000 1.0000
56.6000 300.0000 1.0000
56.6100 289.0000 1.0000
56.6200 286.0000 1.0000
56.6300 277.0000 1.0000
56.6400 306.0000 1.0000
56.6500 287.0000 1.0000
56.6600 310.0000 1.0000
56.6700 279.0000 1.0000
56.6800 299.0000 1.0000
56.6900 301.0000 1.0000
56.7000 297.0000 1.0000
56.7100 298.0000 1.0000
56.7200 279.0000 1.0000
56.7300 256.0000 1.0000
56.7400 292.0000 1.0000
56.7500 285.0000 1.0000
56.7600 276.0000 1.0000
56.7700 285.0000 1.0000
56.7800 304.0000 1.0000
56.7900 302.0000 1.0000
56.8000 278.0000 1.0000
56.8100 271.0000 1.0000
56.8200 303.0000 1.0000
56.8300 313.0000 1.0000
56.8400 264.0000 1.0000
56.8500 286.0000 1.0000
56.8600 295.0000 1.0000
56.8700 289.0000 1.0000
56.8800 265.0000 1.0000
56.8900 256.0000 1.0000
56.9000 283.0000 1.0000
56.9100 282.0000 1.0000
56.9200 272.0000 1.0000
56.9300 262.0000 1.0000
56.9400 291.0000 1.0000
56.9500 290.0000 1.0000
56.9600 299.0000 1.0000
56.9700 303.0000 1.0000
56.9800 287.0000 1.0000
56.9900 289.0000 1.0000
57.0000 283.0000 1.0000
57.0100 285.0000 1.0000
57.0200 282.0000 1.0000
57.0300 282.0000 1.0000
57.0400 274.0000 1.0000
57.0500 273.0000 1.0000
57.0600 269.0000 1.0000
57.0700 288.0000 1.0000
57.0800 329.0000 1.0000
57.0900 294.0000 1.0000
57.1000 287.0000 1.0000
57.1100 289.0000 1.0000
57.1200 286.0000 1.0000
57.1300 287.0000 1.0000
57.1400 291.0000 1.0000
57.1500 281.0000 1.0000
57.1600 288.0000 1.0000
57.1700 303.0000 1.0000
57.1800 306.0000 1.0000
57.1900 287.0000 1.0000
57.2000 276.0000 1.0000
57.2100 301.0000 1.0000
57.2200 284.0000 1.0000
57.2300 286.0000 1.0000
57.2400 280.0000 1.0000
57.2500 288.0000 1.0000
57.2600 265.0000 1.0000
57.2700 244.0000 1.0000
57.2800 289.0000 1.0000
57.2900 303.0000 1.0000
57.3000 275.0000 1.0000
57.3100 297.0000 1.0000
57.3200 296.0000 1.0000
57.3300 279.0000 1.0000
57.3400 278.0000 1.0000
57.3500 301.0000 1.0000
57.3600 277.0000 1.0000
57.3700 288.0000 1.0000
57.3800 293.0000 1.0000
57.3900 284.0000 1.0000
57.4000 278.0000 1.0000
57.4100 320.0000 1.0000
57.4200 308.0000 1.0000
57.4300 290.0000 1.0000
57.4400 285.0000 1.0000
57.4500 294.0000 1.0000
57.4600 288.0000 1.0000
57.4700 285.0000 1.0000
57.4800 280.0000 1.0000
57.4900 289.0000 1.0000
57.5000 284.0000 1.0000
57.5100 290.0000 1.0000
57.5200 281.0000 1.0000
57.5300 305.0000 1.0000
57.5400 338.0000 1.0000
57.5500 299.0000 1.0000
57.5600 294.0000 1.0000
57.5700 291.0000 1.0000
57.5800 281.0000 1.0000
57.5900 299.0000 1.0000
57.6000 299.0000 1.0000
57.6100 283.0000 1.0000
57.6200 312.0000 1.0000
57.6300 307.0000 1.0000
57.6400 292.0000 1.0000
57.6500 292.0000 1.0000
57.6600 301.0000 1.0000
57.6700 288.0000 1.0000
57.6800 288.0000 1.0000
57.6900 274.0000 1.0000
57.7000 283.0000 1.0000
57.7100 310.0000 1.0000
57.7200 303.0000 1.0000
57.7300 295.0000 1.0000
57.7400 314.0000 1.0000
57.7500 304.0000 1.0000
57.7600 297.0000 1.0000
57.7700 296.0000 1.0000
57.7800 304.0000 1.0000
57.7900 284.0000 1.0000
57.8000 328.0000 1.0000
57.8100 308.0000 1.0000
57.8200 289.0000 1.0000
57.8300 323.0000 1.0000
57.8400 290.0000 1.0000
57.8500 303.0000 1.0000
57.8600 271.0000 1.0000
57.8700 287.0000 1.0000
57.8800 287.0000 1.0000
57.8900 309.0000 1.0000
57.9000 261.0000 1.0000
57.9100 272.0000 1.0000
57.9200 264.0000 1.0000
57.9300 258.0000 1.0000
57.9400 279.0000 1.0000
57.9500 272.0000 1.0000
57.9600 282.0000 1.0000
57.9700 275.0000 1.0000
57.9800 271.0000 1.0000
57.9900 298.0000 1.0000
58.0000 281.0000 1.0000
58.0100 290.0000 1.0000
58.0200 289.0000 1.0000
58.0300 276.0000 1.0000
58.0400 295.0000 1.0000
58.0500 329.0000 1.0000
58.0600 293.0000 1.0000
58.0700 280.0000 1.0000
58.0800 288.0000 1.0000
58.0900 292.0000 1.0000
58.1000 301.0000 1.0000
58.1100 298.0000 1.0000
58.1200 309.0000 1.0000
58.1300 280.0000 1.0000
58.1400 310.0000 1.0000
58.1500 292.0000 1.0000
58.1600 260.0000 1.0000
58.1700 263.0000 1.0000
58.1800 262.0000 1.0000
58.1900 279.0000 1.0000
58.2000 295.0000 1.0000
58.2100 298.0000 1.0000
58.2200 287.0000 1.0000
58.2300 290.0000 1.0000
58.2400 288.0000 1.0000
58.2500 273.0000 1.0000
58.2600 287.0000 1.0000
58.2700 287.0000 1.0000
58.2800 287.0000 1.0000
58.2900 270.0000 1.0000
58.3000 301.0000 1.0000
58.3100 297.0000 1.0000
58.3200 306.0000 1.0000
58.3300 269.0000 1.0000
58.3400 274.0000 1.0000
58.3500 282.0000 1.0000
58.3600 279.0000 1.0000
58.3700 275.0000 1.0000
58.3800 301.0000 1.0000
58.3900 285.0000 1.0000
58.4000 296.0000 1.0000
58.4100 282.0000 1.0000
58.4200 282.0000 1.0000
58.4300 275.0000 1.0000
58.4400 304.0000 1.0000
58.4500 282.0000 1.0000
58.4600 303.0000 1.0000
58.4700 276.0000 1.0000
58.4800 288.0000 1.0000
58.4900 278.0000 1.0000
58.5000 324.0000 1.0000
58.5100 315.0000 1.0000
58.5200 307.0000 1.0000
58.5300 281.0000 1.0000
58.5400 287.0000 1.0000
58.5500 312.0000 1.0000
58.5600 280.0000 1.0000
58.5700 309.0000 1.0000
58.5800 275.0000 1.0000
58.5900 301.0000 1.0000
58.6000 306.0000 1.0000
58.6100 314.0000 1.0000
58.6200 307.0000 1.0000
58.6300 289.0000 1.0000
58.6400 284.0000 1.0000
58.6500 283.0000 1.0000
58.6600 284.0000 1.0000
58.6700 284.0000 1.0000
58.6800 272.0000 1.0000
58.6900 285.0000 1.0000
58.7000 295.0000 1.0000
58.7100 298.0000 1.0000
58.7200 274.0000 1.0000
58.7300 299.0000 1.0000
58.7400 275.0000 1.0000
58.7500 282.0000 1.0000
58.7600 308.0000 1.0000
58.7700 305.0000 1.0000
58.7800 295.0000 1.0000
58.7900 302.0000 1.0000
58.8000 263.0000 1.0000
58.8100 292.0000 1.0000
58.8200 271.0000 1.0000
58.8300 287.0000 1.0000
58.8400 275.0000 1.0000
58.8500 276.0000 1.0000
58.8600 267.0000 1.0000
58.8700 288.0000 1.0000
58.8800 285.0000 1.0000
58.8900 281.0000 1.0000
58.9000 288.0000 1.0000
58.9100 288.0000 1.0000
58.9200 254.0000 1.0000
58.9300 298.0000 1.0000
58.9400 314.0000 1.0000
58.9500 272.0000 1.0000
58.9600 248.0000 1.0000
58.9700 275.0000 1.0000
58.9800 284.0000 1.0000
58.9900 281.0000 1.0000
59.0000 319.0000 1.0000
59.0100 268.0000 1.0000
59.0200 285.0000 1.0000
59.0300 289.0000 1.0000
59.0400 315.0000 1.0000
59.0500 289.0000 1.0000
59.0600 307.0000 1.0000
59.0700 276.0000 1.0000
59.0800 299.0000 1.0000
59.0900 310.0000 1.0000
59.1000 254.0000 1.0000
59.1100 270.0000 1.0000
59.1200 269.0000 1.0000
59.1300 279.0000 1.0000
59.1400 271.0000 1.0000
59.1500 268.0000 1.0000
59.1600 284.0000 1.0000
59.1700 281.0000 1.0000
59.1800 287.0000 1.0000
59.1900 296.0000 1.0000
59.2000 281.0000 1.0000
59.2100 276.0000 1.0000
59.2200 286.0000 1.0000
59.2300 294.0000 1.0000
59.2400 273.0000 1.0000
59.2500 302.0000 1.0000
59.2600 286.0000 1.0000
59.2700 300.0000 1.0000
59.2800 284.0000 1.0000
59.2900 292.0000 1.0000
59.3000 309.0000 1.0000
59.3100 272.0000 1.0000
59.3200 259.0000 1.0000
59.3300 295.0000 1.0000
59.3400 256.0000 1.0000
59.3500 298.0000 1.0000
59.3600 275.0000 1.0000
59.3700 303.0000 1.0000
59.3800 276.0000 1.0000
59.3900 282.0000 1.0000
59.4000 277.0000 1.0000
59.4100 280.0000 1.0000
59.4200 276.0000 1.0000
59.4300 271.0000 1.0000
59.4400 305.0000 1.0000
59.4500 295.0000 1.0000
59.4600 297.0000 1.0000
59.4700 273.0000 1.0000
59.4800 271.0000 1.0000
59.4900 303.0000 1.0000
59.5000 293.0000 1.0000
59.5100 323.0000 1.0000
59.5200 308.0000 1.0000
59.5300 291.0000 1.0000
59.5400 295.0000 1.0000
59.5500 303.0000 1.0000
59.5600 295.0000 1.0000
59.5700 284.0000 1.0000
59.5800 310.0000 1.0000
59.5900 303.0000 1.0000
59.6000 288.0000 1.0000
59.6100 304.0000 1.0000
59.6200 293.0000 1.0000
59.6300 277.0000 1.0000
59.6400 290.0000 1.0000
59.6500 252.0000 1.0000
59.6600 277.0000 1.0000
59.6700 261.0000 1.0000
59.6800 261.0000 1.0000
59.6900 301.0000 1.0000
59.7000 307.0000 1.0000
59.7100 314.0000 1.0000
59.7200 296.0000 1.0000
59.7300 272.0000 1.0000
59.7400 275.0000 1.0000
59.7500 314.0000 1.0000
59.7600 296.0000 1.0000
59.7700 268.0000 1.0000
59.7800 286.0000 1.0000
59.7900 283.0000 1.0000
59.8000 279.0000 1.0000
59.8100 320.0000 1.0000
59.8200 303.0000 1.0000
59.8300 314.0000 1.0000
59.8400 255.0000 1.0000
59.8500 284.0000 1.0000
59.8600 277.0000 1.0000
59.8700 270.0000 1.0000
59.8800 277.0000 1.0000
59.8900 290.0000 1.0000
59.9000 293.0000 1.0000
59.9100 274.0000 1.0000
59.9200 295.0000 1.0000
59.9300 253.0000 1.0000
59.9400 275.0000 1.0000
59.9500 276.0000 1.0000
59.9600 304.0000 1.0000
59.9700 278.0000 1.0000
59.9800 283.0000 1.0000
59.9900 260.0000 1.0000
60.0000 271.0000 1.0000
60.0100 270.0000 1.0000
60.0200 277.0000 1.0000
60.0300 281.0000 1.0000
60.0400 270.0000 1.0000
60.0500 288.0000 1.0000
60.0600 300.0000 1.0000
60.0700 259.0000 1.0000
60.0800 242.0000 1.0000
60.0900 268.0000 1.0000
60.1000 278.0000 1.0000
60.1100 277.0000 1.0000
60.1200 246.0000 1.0000
60.1300 285.0000 1.0000
60.1400 271.0000 1.0000
60.1500 263.0000 1.0000
60.1600 264.0000 1.0000
60.1700 289.0000 1.0000
60.1800 263.0000 1.0000
60.1900 273.0000 1.0000
60.2000 287.0000 1.0000
60.2100 275.0000 1.0000
60.2200 279.0000 1.0000
60.2300 285.0000 1.0000
60.2400 281.0000 1.0000
60.2500 267.0000 1.0000
60.2600 295.0000 1.0000
60.2700 293.0000 1.0000
60.2800 284.0000 1.0000
60.2900 266.0000 1.0000
60.3000 293.0000 1.0000
60.3100 277.0000 1.0000
60.3200 283.0000 1.0000
60.3300 267.0000 1.0000
60.3400 285.0000 1.0000
60.3500 260.0000 1.0000
60.3600 283.0000 1.0000
60.3700 277.0000 1.0000
60.3800 302.0000 1.0000
60.3900 267.0000 1.0000
60.4000 294.0000 1.0000
60.4100 285.0000 1.0000
60.4200 305.0000 1.0000
60.4300 273.0000 1.0000
60.4400 263.0000 1.0000
60.4500 290.0000 1.0000
60.4600 286.0000 1.0000
60.4700 301.0000 1.0000
60.4800 300.0000 1.0000
60.4900 243.0000 1.0000
60.5000 307.0000 1.0000
60.5100 324.0000 1.0000
60.5200 292.0000 1.0000
60.5300 277.0000 1.0000
60.5400 305.0000 1.0000
60.5500 303.0000 1.0000
60.5600 290.0000 1.0000
60.5700 294.0000 1.0000
60.5800 282.0000 1.0000
60.5900 310.0000 1.0000
60.6000 290.0000 1.0000
60.6100 278.0000 1.0000
60.6200 301.0000 1.0000
60.6300 306.0000 1.0000
60.6400 264.0000 1.0000
60.6500 271.0000 1.0000
60.6600 283.0000 1.0000
60.6700 314.0000 1.0000
60.6800 278.0000 1.0000
60.6900 310.0000 1.0000
60.7000 288.0000 1.0000
60.7100 309.0000 1.0000
60.7200 291.0000 1.0000
60.7300 281.0000 1.0000
60.7400 278.0000 1.0000
60.7500 283.0000 1.0000
60.7600 291.0000 1.0000
60.7700 281.0000 1.0000
60.7800 328.0000 1.0000
60.7900 289.0000 1.0000
60.8000 309.0000 1.0000
60.8100 304.0000 1.0000
60.8200 292.0000 1.0000
60.8300 273.0000 1.0000
60.8400 291.0000 1.0000
60.8500 287.0000 1.0000
60.8600 304.0000 1.0000
60.8700 290.0000 1.0000
60.8800 308.0000 1.0000
60.8900 286.0000 1.0000
60.9000 268.0000 1.0000
60.9100 303.0000 1.0000
60.9200 261.0000 1.0000
60.9300 314.0000 1.0000
60.9400 324.0000 1.0000
60.9500 292.0000 1.0000
60.9600 295.0000 1.0000
60.9700 277.0000 1.0000
60.9800 320.0000 1.0000
60.9900 289.0000 1.0000
61.0000 289.0000 1.0000
61.0100 297.0000 1.0000
61.0200 303.0000 1.0000
61.0300 263.0000 1.0000
61.0400 301.0000 1.0000
61.0500 310.0000 1.0000
61.0600 313.0000 1.0000
61.0700 298.0000 1.0000
61.0800 288.0000 1.0000
61.0900 333.0000 1.0000
61.1000 312.0000 1.0000
61.1100 305.0000 1.0000
61.1200 320.0000 1.0000
61.1300 319.0000 1.0000
61.1400 319.0000 1.0000
61.1500 313.0000 1.0000
61.1600 313.0000 1.0000
61.1700 316.0000 1.0000
61.1800 322.0000 1.0000
61.1900 313.0000 1.0000
61.2000 315.0000 1.0000
61.2100 332.0000 1.0000
61.2200 341.0000 1.0000
61.2300 349.0000 1.0000
61.2400 346.0000 1.0000
61.2500 331.0000 1.0000
61.2600 361.0000 1.0000
61.2700 372.0000 1.0000
61.2800 354.0000 1.0000
61.2900 349.0000 1.0000
61.3000 344.0000 1.0000
61.3100 374.0000 1.0000
61.3200 396.0000 1.0000
61.3300 416.0000 1.0000
61.3400 443.0000 1.0000
61.3500 434.0000 1.0000
61.3600 426.0000 1.0000
61.3700 455.0000 1.0000
61.3800 457.0000 1.0000
61.3900 437.0000 1.0000
61.4000 459.0000 1.0000
61.4100 488.0000 1.0000
61.4200 498.0000 1.0000
61.4300 555.0000 1.0000
61.4400 527.0000 1.0000
61.4500 536.0000 1.0000
61.4600 573.0000 1.0000
61.4700 578.0000 1.0000
61.4800 555.0000 1.0000
61.4900 590.0000 1.0000
61.5000 576.0000 1.0000
61.5100 614.0000 1.0000
61.5200 603.0000 1.0000
61.5300 627.0000 1.0000
61.5400 617.0000 1.0000
61.5500 573.0000 1.0000
61.5600 611.0000 1.0000
61.5700 618.0000 1.0000
61.5800 623.0000 1.0000
61.5900 615.0000 1.0000
61.6000 597.0000 1.0000
61.6100 591.0000 1.0000
61.6200 648.0000 1.0000
61.6300 590.0000 1.0000
61.6400 602.0000 1.0000
61.6500 581.0000 1.0000
61.6600 600.0000 1.0000
61.6700 579.0000 1.0000
61.6800 559.0000 1.0000
61.6900 563.0000 1.0000
61.7000 501.0000 1.0000
61.7100 519.0000 1.0000
61.7200 530.0000 1.0000
61.7300 520.0000 1.0000
61.7400 495.0000 1.0000
61.7500 476.0000 1.0000
61.7600 452.0000 1.0000
61.7700 478.0000 1.0000
61.7800 469.0000 1.0000
61.7900 468.0000 1.0000
61.8000 476.0000 1.0000
61.8100 473.0000 1.0000
61.8200 418.0000 1.0000
61.8300 408.0000 1.0000
61.8400 443.0000 1.0000
61.8500 399.0000 1.0000
61.8600 398.0000 1.0000
61.8700 376.0000 1.0000
61.8800 356.0000 1.0000
61.8900 392.0000 1.0000
61.9000 389.0000 1.0000
61.9100 406.0000 1.0000
61.9200 368.0000 1.0000
61.9300 352.0000 1.0000
61.9400 367.0000 1.0000
61.9500 331.0000 1.0000
61.9600 350.0000 1.0000
61.9700 359.0000 1.0000
61.9800 343.0000 1.0000
61.9900 339.0000 1.0000
62.0000 350.0000 1.0000
62.0100 325.0000 1.0000
62.0200 341.0000 1.0000
62.0300 318.0000 1.0000
62.0400 333.0000 1.0000
62.0500 336.0000 1.0000
62.0600 307.0000 1.0000
62.0700 334.0000 1.0000
62.0800 306.0000 1.0000
62.0900 303.0000 1.0000
62.1000 296.0000 1.0000
62.1100 326.0000 1.0000
62.1200 332.0000 1.0000
62.1300 324.0000 1.0000
62.1400 320.0000 1.0000
62.1500 309.0000 1.0000
62.1600 303.0000 1.0000
62.1700 322.0000 1.0000
62.1800 310.0000 1.0000
62.1900 325.0000 1.0000
62.2000 302.0000 1.0000
62.2100 304.0000 1.0000
62.2200 336.0000 1.0000
62.2300 278.0000 1.0000
62.2400 295.0000 1.0000
62.2500 344.0000 1.0000
62.2600 297.0000 1.0000
62.2700 321.0000 1.0000
62.2800 314.0000 1.0000
62.2900 304.0000 1.0000
62.3000 310.0000 1.0000
62.3100 316.0000 1.0000
62.3200 298.0000 1.0000
62.3300 332.0000 1.0000
62.3400 316.0000 1.0000
62.3500 309.0000 1.0000
62.3600 285.0000 1.0000
62.3700 320.0000 1.0000
62.3800 309.0000 1.0000
62.3900 319.0000 1.0000
62.4000 315.0000 1.0000
62.4100 324.0000 1.0000
62.4200 336.0000 1.0000
62.4300 309.0000 1.0000
62.4400 331.0000 1.0000
62.4500 314.0000 1.0000
62.4600 271.0000 1.0000
62.4700 338.0000 1.0000
62.4800 332.0000 1.0000
62.4900 311.0000 1.0000
62.5000 321.0000 1.0000
62.5100 322.0000 1.0000
62.5200 320.0000 1.0000
62.5300 291.0000 1.0000
62.5400 308.0000 1.0000
62.5500 300.0000 1.0000
62.5600 295.0000 1.0000
62.5700 279.0000 1.0000
62.5800 327.0000 1.0000
62.5900 304.0000 1.0000
62.6000 269.0000 1.0000
62.6100 284.0000 1.0000
62.6200 316.0000 1.0000
62.6300 276.0000 1.0000
62.6400 304.0000 1.0000
62.6500 273.0000 1.0000
62.6600 299.0000 1.0000
62.6700 289.0000 1.0000
62.6800 293.0000 1.0000
62.6900 273.0000 1.0000
62.7000 293.0000 1.0000
62.7100 279.0000 1.0000
62.7200 290.0000 1.0000
62.7300 290.0000 1.0000
62.7400 270.0000 1.0000
62.7500 267.0000 1.0000
62.7600 268.0000 1.0000
62.7700 275.0000 1.0000
62.7800 292.0000 1.0000
62.7900 281.0000 1.0000
62.8000 308.0000 1.0000
62.8100 286.0000 1.0000
62.8200 260.0000 1.0000
62.8300 286.0000 1.0000
62.8400 300.0000 1.0000
62.8500 304.0000 1.0000
62.8600 301.0000 1.0000
62.8700 280.0000 1.0000
62.8800 288.0000 1.0000
62.8900 299.0000 1.0000
62.9000 292.0000 1.0000
62.9100 284.0000 1.0000
62.9200 284.0000 1.0000
62.9300 301.0000 1.0000
62.9400 304.0000 1.0000
62.9500 291.0000 1.0000
62.9600 301.0000 1.0000
62.9700 301.0000 1.0000
62.9800 284.0000 1.0000
62.9900 284.0000 1.0000
63.0000 253.0000 1.0000
63.0100 298.0000 1.0000
63.0200 295.0000 1.0000
63.0300 262.0000 1.0000
63.0400 269.0000 1.0000
63.0500 286.0000 1.0000
63.0600 257.0000 1.0000
63.0700 282.0000 1.0000
63.0800 312.0000 1.0000
63.0900 263.0000 1.0000
63.1000 291.0000 1.0000
63.1100 311.0000 1.0000
63.1200 279.0000 1.0000
63.1300 291.0000 1.0000
63.1400 287.0000 1.0000
63.1500 303.0000 1.0000
63.1600 290.0000 1.0000
63.1700 282.0000 1.0000
63.1800 269.0000 1.0000
63.1900 284.0000 1.0000
63.2000 268.0000 1.0000
63.2100 289.0000 1.0000
63.2200 294.0000 1.0000
63.2300 296.0000 1.0000
63.2400 287.0000 1.0000
63.2500 268.0000 1.0000
63.2600 286.0000 1.0000
63.2700 293.0000 1.0000
63.2800 270.0000 1.0000
63.2900 282.0000 1.0000
63.3000 299.0000 1.0000
63.3100 312.0000 1.0000
63.3200 287.0000 1.0000
63.3300 294.0000 1.0000
63.3400 287.0000 1.0000
63.3500 285.0000 1.0000
63.3600 269.0000 1.0000
63.3700 284.0000 1.0000
63.3800 288.0000 1.0000
63.3900 285.0000 1.0000
63.4000 294.0000 1.0000
63.4100 329.0000 1.0000
63.4200 280.0000 1.0000
63.4300 281.0000 1.0000
63.4400 279.0000 1.0000
63.4500 306.0000 1.0000
63.4600 302.0000 1.0000
63.4700 288.0000 1.0000
63.4800 296.0000 1.0000
63.4900 323.0000 1.0000
63.5000 279.0000 1.0000
63.5100 293.0000 1.0000
63.5200 284.0000 1.0000
63.5300 281.0000 1.0000
63.5400 294.0000 1.0000
63.5500 304.0000 1.0000
63.5600 321.0000 1.0000
63.5700 306.0000 1.0000
63.5800 272.0000 1.0000
63.5900 301.0000 1.0000
63.6000 297.0000 1.0000
63.6100 304.0000 1.0000
63.6200 309.0000 1.0000
63.6300 285.0000 1.0000
63.6400 290.0000 1.0000
63.6500 280.0000 1.0000
63.6600 271.0000 1.0000
63.6700 303.0000 1.0000
63.6800 335.0000 1.0000
63.6900 318.0000 1.0000
63.7000 322.0000 1.0000
63.7100 320.0000 1.0000
63.7200 308.0000 1.0000
63.7300 313.0000 1.0000
63.7400 301.0000 1.0000
63.7500 309.0000 1.0000
63.7600 345.0000 1.0000
63.7700 327.0000 1.0000
63.7800 358.0000 1.0000
63.7900 359.0000 1.0000
63.8000 361.0000 1.0000
63.8100 345.0000 1.0000
63.8200 364.0000 1.0000
63.8300 327.0000 1.0000
63.8400 374.0000 1.0000
63.8500 367.0000 1.0000
63.8600 401.0000 1.0000
63.8700 393.0000 1.0000
63.8800 407.0000 1.0000
63.8900 417.0000 1.0000
63.9000 425.0000 1.0000
63.9100 456.0000 1.0000
63.9200 443.0000 1.0000
63.9300 432.0000 1.0000
63.9400 441.0000 1.0000
63.9500 448.0000 1.0000
63.9600 441.0000 1.0000
63.9700 433.0000 1.0000
63.9800 416.0000 1.0000
63.9900 435.0000 1.0000
64.0000 461.0000 1.0000
64.0100 439.0000 1.0000
64.0200 418.0000 1.0000
64.0300 416.0000 1.0000
64.0400 427.0000 1.0000
64.0500 419.0000 1.0000
64.0600 420.0000 1.0000
64.0700 448.0000 1.0000
64.0800 407.0000 1.0000
64.0900 400.0000 1.0000
64.1000 410.0000 1.0000
64.1100 419.0000 1.0000
64.1200 416.0000 1.0000
64.1300 380.0000 1.0000
64.1400 369.0000 1.0000
64.1500 394.0000 1.0000
64.1600 396.0000 1.0000
64.1700 364.0000 1.0000
64.1800 356.0000 1.0000
64.1900 368.0000 1.0000
64.2000 341.0000 1.0000
64.2100 343.0000 1.0000
64.2200 344.0000 1.0000
64.2300 339.0000 1.0000
64.2400 325.0000 1.0000
64.2500 321.0000 1.0000
64.2600 329.0000 1.0000
64.2700 351.0000 1.0000
64.2800 342.0000 1.0000
64.2900 338.0000 1.0000
64.3000 375.0000 1.0000
64.3100 340.0000 1.0000
64.3200 339.0000 1.0000
64.3300 309.0000 1.0000
64.3400 331.0000 1.0000
64.3500 320.0000 1.0000
64.3600 323.0000 1.0000
64.3700 336.0000 1.0000
64.3800 323.0000 1.0000
64.3900 317.0000 1.0000
64.4000 283.0000 1.0000
64.4100 291.0000 1.0000
64.4200 311.0000 1.0000
64.4300 303.0000 1.0000
64.4400 315.0000 1.0000
64.4500 300.0000 1.0000
64.4600 305.0000 1.0000
64.4700 321.0000 1.0000
64.4800 293.0000 1.0000
64.4900 289.0000 1.0000
64.5000 312.0000 1.0000
64.5100 322.0000 1.0000
64.5200 317.0000 1.0000
64.5300 296.0000 1.0000
64.5400 327.0000 1.0000
64.5500 294.0000 1.0000
64.5600 295.0000 1.0000
64.5700 299.0000 1.0000
64.5800 302.0000 1.0000
64.5900 271.0000 1.0000
64.6000 303.0000 1.0000
64.6100 312.0000 1.0000
64.6200 314.0000 1.0000
64.6300 306.0000 1.0000
64.6400 292.0000 1.0000
64.6500 302.0000 1.0000
64.6600 292.0000 1.0000
64.6700 293.0000 1.0000
64.6800 296.0000 1.0000
64.6900 295.0000 1.0000
64.7000 295.0000 1.0000
64.7100 276.0000 1.0000
64.7200 306.0000 1.0000
64.7300 308.0000 1.0000
64.7400 319.0000 1.0000
64.7500 299.0000 1.0000
64.7600 310.0000 1.0000
64.7700 305.0000 1.0000
64.7800 307.0000 1.0000
64.7900 270.0000 1.0000
64.8000 281.0000 1.0000
64.8100 292.0000 1.0000
64.8200 318.0000 1.0000
64.8300 277.0000 1.0000
64.8400 276.0000 1.0000
64.8500 286.0000 1.0000
64.8600 275.0000 1.0000
64.8700 293.0000 1.0000
64.8800 314.0000 1.0000
64.8900 278.0000 1.0000
64.9000 311.0000 1.0000
64.9100 286.0000 1.0000
64.9200 282.0000 1.0000
64.9300 289.0000 1.0000
64.9400 318.0000 1.0000
64.9500 296.0000 1.0000
64.9600 281.0000 1.0000
64.9700 307.0000 1.0000
64.9800 326.0000 1.0000
64.9900 307.0000 1.0000
65.0000 321.0000 1.0000
65.0100 307.0000 1.0000
65.0200 294.0000 1.0000
65.0300 304.0000 1.0000
65.0400 327.0000 1.0000
65.0500 332.0000 1.0000
65.0600 308.0000 1.0000
65.0700 310.0000 1.0000
65.0800 310.0000 1.0000
65.0900 305.0000 1.0000
65.1000 334.0000 1.0000
65.1100 343.0000 1.0000
65.1200 322.0000 1.0000
65.1300 319.0000 1.0000
65.1400 321.0000 1.0000
65.1500 313.0000 1.0000
65.1600 327.0000 1.0000
65.1700 344.0000 1.0000
65.1800 354.0000 1.0000
65.1900 367.0000 1.0000
65.2000 383.0000 1.0000
65.2100 347.0000 1.0000
65.2200 354.0000 1.0000
65.2300 376.0000 1.0000
65.2400 371.0000 1.0000
65.2500 400.0000 1.0000
65.2600 393.0000 1.0000
65.2700 423.0000 1.0000
65.2800 448.0000 1.0000
65.2900 481.0000 1.0000
65.3000 444.0000 1.0000
65.3100 439.0000 1.0000
65.3200 498.0000 1.0000
65.3300 474.0000 1.0000
65.3400 506.0000 1.0000
65.3500 540.0000 1.0000
65.3600 608.0000 1.0000
65.3700 590.0000 1.0000
65.3800 570.0000 1.0000
65.3900 681.0000 1.0000
65.4000 648.0000 1.0000
65.4100 666.0000 1.0000
65.4200 692.0000 1.0000
65.4300 761.0000 1.0000
65.4400 802.0000 1.0000
65.4500 844.0000 1.0000
65.4600 854.0000 1.0000
65.4700 908.0000 1.0000
65.4800 882.0000 1.0000
65.4900 893.0000 1.0000
65.5000 944.0000 1.0000
65.5100 1003.0000 1.0000
65.5200 1052.0000 1.0000
65.5300 1033.0000 1.0000
65.5400 1024.0000 1.0000
65.5500 1053.0000 1.0000
65.5600 1095.0000 1.0000
65.5700 1087.0000 1.0000
65.5800 1039.0000 1.0000
65.5900 1000.0000 1.0000
65.6000 1061.0000 1.0000
65.6100 1029.0000 1.0000
65.6200 958.0000 1.0000
65.6300 982.0000 1.0000
65.6400 972.0000 1.0000
65.6500 929.0000 1.0000
65.6600 884.0000 1.0000
65.6700 863.0000 1.0000
65.6800 882.0000 1.0000
65.6900 828.0000 1.0000
65.7000 857.0000 1.0000
65.7100 843.0000 1.0000
65.7200 837.0000 1.0000
65.7300 829.0000 1.0000
65.7400 797.0000 1.0000
65.7500 792.0000 1.0000
65.7600 737.0000 1.0000
65.7700 686.0000 1.0000
65.7800 719.0000 1.0000
65.7900 669.0000 1.0000
65.8000 628.0000 1.0000
65.8100 575.0000 1.0000
65.8200 597.0000 1.0000
65.8300 561.0000 1.0000
65.8400 554.0000 1.0000
65.8500 489.0000 1.0000
65.8600 489.0000 1.0000
65.8700 460.0000 1.0000
65.8800 466.0000 1.0000
65.8900 472.0000 1.0000
65.9000 462.0000 1.0000
65.9100 389.0000 1.0000
65.9200 417.0000 1.0000
65.9300 434.0000 1.0000
65.9400 441.0000 1.0000
65.9500 391.0000 1.0000
65.9600 411.0000 1.0000
65.9700 400.0000 1.0000
65.9800 390.0000 1.0000
65.9900 358.0000 1.0000
66.0000 371.0000 1.0000
66.0100 360.0000 1.0000
66.0200 357.0000 1.0000
66.0300 330.0000 1.0000
66.0400 337.0000 1.0000
66.0500 328.0000 1.0000
66.0600 326.0000 1.0000
66.0700 331.0000 1.0000
66.0800 317.0000 1.0000
66.0900 314.0000 1.0000
66.1000 328.0000 1.0000
66.1100 309.0000 1.0000
66.1200 321.0000 1.0000
66.1300 320.0000 1.0000
66.1400 338.0000 1.0000
66.1500 314.0000 1.0000
66.1600 292.0000 1.0000
66.1700 297.0000 1.0000
66.1800 307.0000 1.0000
66.1900 319.0000 1.0000
66.2000 310.0000 1.0000
66.2100 282.0000 1.0000
66.2200 296.0000 1.0000
66.2300 285.0000 1.0000
66.2400 308.0000 1.0000
66.2500 291.0000 1.0000
66.2600 292.0000 1.0000
66.2700 300.0000 1.0000
66.2800 305.0000 1.0000
66.2900 323.0000 1.0000
66.3000 289.0000 1.0000
66.3100 276.0000 1.0000
66.3200 296.0000 1.0000
66.3300 273.0000 1.0000
66.3400 265.0000 1.0000
66.3500 268.0000 1.0000
66.3600 279.0000 1.0000
66.3700 285.0000 1.0000
66.3800 295.0000 1.0000
66.3900 262.0000 1.0000
66.4000 289.0000 1.0000
66.4100 296.0000 1.0000
66.4200 275.0000 1.0000
66.4300 261.0000 1.0000
66.4400 244.0000 1.0000
66.4500 263.0000 1.0000
66.4600 279.0000 1.0000
66.4700 251.0000 1.0000
66.4800 264.0000 1.0000
66.4900 272.0000 1.0000
66.5000 286.0000 1.0000
66.5100 296.0000 1.0000
66.5200 290.0000 1.0000
66.5300 284.0000 1.0000
66.5400 270.0000 1.0000
66.5500 263.0000 1.0000
66.5600 264.0000 1.0000
66.5700 240.0000 1.0000
66.5800 247.0000 1.0000
66.5900 266.0000 1.0000
66.6000 259.0000 1.0000
66.6100 264.0000 1.0000
66.6200 270.0000 1.0000
66.6300 261.0000 1.0000
66.6400 259.0000 1.0000
66.6500 287.0000 1.0000
66.6600 272.0000 1.0000
66.6700 276.0000 1.0000
66.6800 270.0000 1.0000
66.6900 288.0000 1.0000
66.7000 263.0000 1.0000
66.7100 268.0000 1.0000
66.7200 269.0000 1.0000
66.7300 283.0000 1.0000
66.7400 255.0000 1.0000
66.7500 235.0000 1.0000
66.7600 280.0000 1.0000
66.7700 275.0000 1.0000
66.7800 275.0000 1.0000
66.7900 299.0000 1.0000
66.8000 275.0000 1.0000
66.8100 286.0000 1.0000
66.8200 275.0000 1.0000
66.8300 269.0000 1.0000
66.8400 281.0000 1.0000
66.8500 284.0000 1.0000
66.8600 282.0000 1.0000
66.8700 293.0000 1.0000
66.8800 267.0000 1.0000
66.8900 274.0000 1.0000
66.9000 267.0000 1.0000
66.9100 266.0000 1.0000
66.9200 276.0000 1.0000
66.9300 283.0000 1.0000
66.9400 277.0000 1.0000
66.9500 258.0000 1.0000
66.9600 241.0000 1.0000
66.9700 262.0000 1.0000
66.9800 252.0000 1.0000
66.9900 287.0000 1.0000
67.0000 265.0000 1.0000
67.0100 267.0000 1.0000
67.0200 256.0000 1.0000
67.0300 268.0000 1.0000
67.0400 276.0000 1.0000
67.0500 254.0000 1.0000
67.0600 258.0000 1.0000
67.0700 276.0000 1.0000
67.0800 265.0000 1.0000
67.0900 275.0000 1.0000
67.1000 270.0000 1.0000
67.1100 268.0000 1.0000
67.1200 269.0000 1.0000
67.1300 269.0000 1.0000
67.1400 265.0000 1.0000
67.1500 263.0000 1.0000
67.1600 268.0000 1.0000
67.1700 244.0000 1.0000
67.1800 270.0000 1.0000
67.1900 252.0000 1.0000
67.2000 270.0000 1.0000
67.2100 261.0000 1.0000
67.2200 254.0000 1.0000
67.2300 266.0000 1.0000
67.2400 232.0000 1.0000
67.2500 263.0000 1.0000
67.2600 277.0000 1.0000
67.2700 273.0000 1.0000
67.2800 251.0000 1.0000
67.2900 265.0000 1.0000
67.3000 243.0000 1.0000
67.3100 267.0000 1.0000
67.3200 279.0000 1.0000
67.3300 259.0000 1.0000
67.3400 238.0000 1.0000
67.3500 225.0000 1.0000
67.3600 237.0000 1.0000
67.3700 274.0000 1.0000
67.3800 242.0000 1.0000
67.3900 281.0000 1.0000
67.4000 243.0000 1.0000
67.4100 267.0000 1.0000
67.4200 253.0000 1.0000
67.4300 243.0000 1.0000
67.4400 278.0000 1.0000
67.4500 263.0000 1.0000
67.4600 252.0000 1.0000
67.4700 257.0000 1.0000
67.4800 270.0000 1.0000
67.4900 277.0000 1.0000
67.5000 269.0000 1.0000
67.5100 260.0000 1.0000
67.5200 268.0000 1.0000
67.5300 269.0000 1.0000
67.5400 256.0000 1.0000
67.5500 274.0000 1.0000
67.5600 283.0000 1.0000
67.5700 251.0000 1.0000
67.5800 267.0000 1.0000
67.5900 272.0000 1.0000
67.6000 245.0000 1.0000
67.6100 256.0000 1.0000
67.6200 240.0000 1.0000
67.6300 267.0000 1.0000
67.6400 263.0000 1.0000
67.6500 261.0000 1.0000
67.6600 239.0000 1.0000
67.6700 276.0000 1.0000
67.6800 272.0000 1.0000
67.6900 255.0000 1.0000
67.7000 271.0000 1.0000
67.7100 284.0000 1.0000
67.7200 271.0000 1.0000
67.7300 263.0000 1.0000
67.7400 263.0000 1.0000
67.7500 252.0000 1.0000
67.7600 268.0000 1.0000
67.7700 285.0000 1.0000
67.7800 264.0000 1.0000
67.7900 242.0000 1.0000
67.8000 277.0000 1.0000
67.8100 269.0000 1.0000
67.8200 255.0000 1.0000
67.8300 260.0000 1.0000
67.8400 251.0000 1.0000
67.8500 248.0000 1.0000
67.8600 271.0000 1.0000
67.8700 256.0000 1.0000
67.8800 243.0000 1.0000
67.8900 252.0000 1.0000
67.9000 265.0000 1.0000
67.9100 257.0000 1.0000
67.9200 251.0000 1.0000
67.9300 270.0000 1.0000
67.9400 283.0000 1.0000
67.9500 267.0000 1.0000
67.9600 284.0000 1.0000
67.9700 261.0000 1.0000
67.9800 250.0000 1.0000
67.9900 251.0000 1.0000
68.0000 274.0000 1.0000
68.0100 254.0000 1.0000
68.0200 250.0000 1.0000
68.0300 246.0000 1.0000
68.0400 256.0000 1.0000
68.0500 241.0000 1.0000
68.0600 262.0000 1.0000
68.0700 245.0000 1.0000
68.0800 244.0000 1.0000
68.0900 233.0000 1.0000
68.1000 256.0000 1.0000
68.1100 265.0000 1.0000
68.1200 266.0000 1.0000
68.1300 245.0000 1.0000
68.1400 251.0000 1.0000
68.1500 248.0000 1.0000
68.1600 245.0000 1.0000
68.1700 260.0000 1.0000
68.1800 246.0000 1.0000
68.1900 246.0000 1.0000
68.2000 251.0000 1.0000
68.2100 261.0000 1.0000
68.2200 266.0000 1.0000
68.2300 248.0000 1.0000
68.2400 263.0000 1.0000
68.2500 267.0000 1.0000
68.2600 292.0000 1.0000
68.2700 250.0000 1.0000
68.2800 244.0000 1.0000
68.2900 258.0000 1.0000
68.3000 269.0000 1.0000
68.3100 238.0000 1.0000
68.3200 252.0000 1.0000
68.3300 238.0000 1.0000
68.3400 236.0000 1.0000
68.3500 243.0000 1.0000
68.3600 250.0000 1.0000
68.3700 297.0000 1.0000
68.3800 256.0000 1.0000
68.3900 253.0000 1.0000
68.4000 280.0000 1.0000
68.4100 256.0000 1.0000
68.4200 240.0000 1.0000
68.4300 252.0000 1.0000
68.4400 242.0000 1.0000
68.4500 276.0000 1.0000
68.4600 255.0000 1.0000
68.4700 276.0000 1.0000
68.4800 258.0000 1.0000
68.4900 233.0000 1.0000
68.5000 226.0000 1.0000
68.5100 267.0000 1.0000
68.5200 278.0000 1.0000
68.5300 249.0000 1.0000
68.5400 241.0000 1.0000
68.5500 235.0000 1.0000
68.5600 254.0000 1.0000
68.5700 251.0000 1.0000
68.5800 266.0000 1.0000
68.5900 265.0000 1.0000
68.6000 255.0000 1.0000
68.6100 248.0000 1.0000
68.6200 279.0000 1.0000
68.6300 243.0000 1.0000
68.6400 248.0000 1.0000
68.6500 252.0000 1.0000
68.6600 285.0000 1.0000
68.6700 251.0000 1.0000
68.6800 275.0000 1.0000
68.6900 269.0000 1.0000
68.7000 268.0000 1.0000
68.7100 242.0000 1.0000
68.7200 257.0000 1.0000
68.7300 251.0000 1.0000
68.7400 251.0000 1.0000
68.7500 234.0000 1.0000
68.7600 236.0000 1.0000
68.7700 263.0000 1.0000
68.7800 271.0000 1.0000
68.7900 261.0000 1.0000
68.8000 286.0000 1.0000
68.8100 268.0000 1.0000
68.8200 242.0000 1.0000
68.8300 232.0000 1.0000
68.8400 260.0000 1.0000
68.8500 247.0000 1.0000
68.8600 255.0000 1.0000
68.8700 268.0000 1.0000
68.8800 260.0000 1.0000
68.8900 283.0000 1.0000
68.9000 260.0000 1.0000
68.9100 253.0000 1.0000
68.9200 258.0000 1.0000
68.9300 247.0000 1.0000
68.9400 252.0000 1.0000
68.9500 244.0000 1.0000
68.9600 249.0000 1.0000
68.9700 244.0000 1.0000
68.9800 244.0000 1.0000
68.9900 253.0000 1.0000
69.0000 261.0000 1.0000
69.0100 253.0000 1.0000
69.0200 262.0000 1.0000
69.0300 266.0000 1.0000
69.0400 271.0000 1.0000
69.0500 271.0000 1.0000
69.0600 270.0000 1.0000
69.0700 273.0000 1.0000
69.0800 264.0000 1.0000
69.0900 237.0000 1.0000
69.1000 240.0000 1.0000
69.1100 252.0000 1.0000
69.1200 256.0000 1.0000
69.1300 243.0000 1.0000
69.1400 250.0000 1.0000
69.1500 273.0000 1.0000
69.1600 238.0000 1.0000
69.1700 233.0000 1.0000
69.1800 222.0000 1.0000
69.1900 237.0000 1.0000
69.2000 252.0000 1.0000
69.2100 242.0000 1.0000
69.2200 239.0000 1.0000
69.2300 259.0000 1.0000
69.2400 259.0000 1.0000
69.2500 250.0000 1.0000
69.2600 239.0000 1.0000
69.2700 272.0000 1.0000
69.2800 231.0000 1.0000
69.2900 236.0000 1.0000
69.3000 264.0000 1.0000
69.3100 263.0000 1.0000
69.3200 222.0000 1.0000
69.3300 251.0000 1.0000
69.3400 246.0000 1.0000
69.3500 243.0000 1.0000
69.3600 264.0000 1.0000
69.3700 256.0000 1.0000
69.3800 266.0000 1.0000
69.3900 254.0000 1.0000
69.4000 246.0000 1.0000
69.4100 254.0000 1.0000
69.4200 248.0000 1.0000
69.4300 246.0000 1.0000
69.4400 247.0000 1.0000
69.4500 232.0000 1.0000
69.4600 224.0000 1.0000
69.4700 232.0000 1.0000
69.4800 275.0000 1.0000
69.4900 249.0000 1.0000
69.5000 254.0000 1.0000
69.5100 246.0000 1.0000
69.5200 229.0000 1.0000
69.5300 233.0000 1.0000
69.5400 265.0000 1.0000
69.5500 258.0000 1.0000
69.5600 251.0000 1.0000
69.5700 206.0000 1.0000
69.5800 260.0000 1.0000
69.5900 268.0000 1.0000
69.6000 234.0000 1.0000
69.6100 241.0000 1.0000
69.6200 232.0000 1.0000
69.6300 221.0000 1.0000
69.6400 247.0000 1.0000
69.6500 253.0000 1.0000
69.6600 233.0000 1.0000
69.6700 229.0000 1.0000
69.6800 231.0000 1.0000
69.6900 244.0000 1.0000
69.7000 228.0000 1.0000
69.7100 238.0000 1.0000
69.7200 239.0000 1.0000
69.7300 226.0000 1.0000
69.7400 246.0000 1.0000
69.7500 255.0000 1.0000
69.7600 264.0000 1.0000
69.7700 256.0000 1.0000
69.7800 268.0000 1.0000
69.7900 240.0000 1.0000
69.8000 239.0000 1.0000
69.8100 270.0000 1.0000
69.8200 244.0000 1.0000
69.8300 214.0000 1.0000
69.8400 237.0000 1.0000
69.8500 234.0000 1.0000
69.8600 255.0000 1.0000
69.8700 244.0000 1.0000
69.8800 268.0000 1.0000
69.8900 245.0000 1.0000
69.9000 264.0000 1.0000
69.9100 250.0000 1.0000
69.9200 219.0000 1.0000
69.9300 249.0000 1.0000
69.9400 217.0000 1.0000
69.9500 227.0000 1.0000
69.9600 209.0000 1.0000
69.9700 226.0000 1.0000
69.9800 261.0000 1.0000
69.9900 269.0000 1.0000
70.0000 233.0000 1.0000
*RAS_INT_END
*RAS_TEMPERATURE_START
*RAS_TEMPERATURE_END
*RAS_DATA_END
