*RAS_DATA_START
*RAS_HEADER_START
*DISP_FMT_X "%.2f"
*DISP_FMT_Y "%.0f"
*DISP_FULLSCALE "14095.0000000000"
*DISP_LINE_COLOR "255.0000000000"
*DISP_LINE_STYLE "0.0000000000"
*DISP_LINE_WIDTH "0.2500000000"
*DISP_NOTE "測定データ-3"
*DISP_OFFSET_Y "0.0000000000"
*DISP_PEAKSEARCH_UNIT_Y "cps"
*DISP_RANGE_BOTTOM "0.0000000000"
*DISP_RANGE_LEFT "20.0000000000"
*DISP_RANGE_LOGCUTOFF "0.0100000000"
*DISP_RANGE_RIGHT "70.0000000000"
*DISP_RANGE_TOP "14095.0000000000"
*DISP_SCALE_MODE_Y "0.0000000000"
*DISP_TAB_NAME "2θ/θ"
*DISP_TITLE_Y "強度"
*DISP_UNIT_Y "cps"
*DISP_WINDOW_NAME "MSG_MACROENGINE"
*FILE_COMMENT " "
*FILE_MD5 ""
*FILE_MEMO " "
*FILE_OPERATOR "Administrator"
*FILE_SAMPLE " "
*FILE_TYPE "RAS_RAW"
*FILE_USERGROUP "システムマネージャ"
*FILE_VERSION "1.0000000000"
*HW_ATTACHMENT_ID "ATT0025"
*HW_ATTACHMENT_NAME "標準|Standard"
*HW_COUNTER_ID-0 "CUT0025"
*HW_COUNTER_ID-1 "CUT0020"
*HW_COUNTER_ID-2 "CUT0020"
*HW_COUNTER_ID-3 "CSL0021"
*HW_COUNTER_ID-4 "CMC0021"
*HW_COUNTER_NAME-0 "D/teX Ultra|D/teX Ultra"
*HW_COUNTER_NAME-1 "None|None"
*HW_COUNTER_NAME-2 "None|None"
*HW_COUNTER_NAME-3 "BBM|BBM"
*HW_COUNTER_NAME-4 "検出器モノクロメータ|Detector monochromator"
*HW_COUNTER_SELECT_NAME "D/teX Ultra|D/teX Ultra"
*HW_GONIOMETER_ID "GON0023"
*HW_GONIOMETER_NAME "SmartLab|SmartLab"
*HW_GONIOMETER_RADIUS-0 "90.0"
*HW_GONIOMETER_RADIUS-1 "114.0"
*HW_GONIOMETER_RADIUS-2 "190.0"
*HW_GONIOMETER_RADIUS-3 "300.0"
*HW_GONIOMETER_RADIUS-4 "187.0"
*HW_GONIOMETER_RADIUS-5 "300.0"
*HW_GONIOMETER_RADIUS-6 "113.0"
*HW_GONIOMETER_RADIUS-7 "331.0"
*HW_I_OPT_ID-0 "CBO0021"
*HW_I_OPT_ID-1 "ICR0023"
*HW_I_OPT_ID-2 "ISL0021"
*HW_I_OPT_ID-3 "ISO0021"
*HW_I_OPT_ID-4 "IAD0021"
*HW_I_OPT_ID-5 "IPR0001"
*HW_I_OPT_NAME-0 "CBOユニット|CBO unit"
*HW_I_OPT_NAME-1 "標準入射光学ユニット|Standard incident optical unit"
*HW_I_OPT_NAME-2 "標準入射スリットボックス|Standard incident slit box"
*HW_I_OPT_NAME-3 "入射平行スリット|Incident parallel slit"
*HW_I_OPT_NAME-4 "長手制限スリット|Length limiting slit"
*HW_I_OPT_NAME-5 "None|None"
*HW_R_ATTENUATER_AUTOMODE "0"
*HW_R_OPT_ID-0 "RSS0021"
*HW_R_OPT_ID-1 "RCR0023"
*HW_R_OPT_ID-2 "RSO0021"
*HW_R_OPT_ID-3 "RRS0021"
*HW_R_OPT_ID-4 "ATN0021"
*HW_R_OPT_ID-5 "RFL0021"
*HW_R_OPT_ID-6 "RAD0021"
*HW_R_OPT_NAME-0 "標準受光スリットボックス1|Standard receiving slit box # 1"
*HW_R_OPT_NAME-1 "標準受光光学ユニット1|Standard receiving unit # 1"
*HW_R_OPT_NAME-2 "標準受光光学ユニット2|Standard receiving optical unit # 2"
*HW_R_OPT_NAME-3 "標準受光スリットボックス2|Standard receiving slit box # 2"
*HW_R_OPT_NAME-4 "標準アッテネータ|Standard Attenuator"
*HW_R_OPT_NAME-5 "Cu Kβ|Cu K-beta"
*HW_R_OPT_NAME-6 "調整用受光スリット|Alignment receiving slit"
*HW_SAMPLE_HOLDER_ID "SMP0023"
*HW_SAMPLE_HOLDER_NAME "標準Zステージ|Standard Z stage"
*HW_XG_CURRENT_MAX "50"
*HW_XG_CURRENT_MIN "2"
*HW_XG_CURRENT_RESOLUTION "1"
*HW_XG_CURRENT_UNIT "mA"
*HW_XG_FOCUS "1mm x 10mm"
*HW_XG_FOCUS_TYPE "Normal"
*HW_XG_ID ""
*HW_XG_NAME "3kW 封入管(ID:1200)|3kW Sealed tube(ID:1200)"
*HW_XG_TARGET_ATOMIC_NUMBER "29.0000000000"
*HW_XG_TARGET_NAME "Cu"
*HW_XG_TYPE "Hermetic"
*HW_XG_VOLTAGE_MAX "60"
*HW_XG_VOLTAGE_MIN "20"
*HW_XG_VOLTAGE_RESOLUTION "1"
*HW_XG_VOLTAGE_UNIT "kV"
*HW_XG_WATT_MAX "1.500"
*HW_XG_WATT_UNIT "kW"
*HW_XG_WAVE_LENGTH_ALPHA1 "1.540593"
*HW_XG_WAVE_LENGTH_ALPHA2 "1.544414"
*HW_XG_WAVE_LENGTH_BETA "1.392250"
*MEAS_COND_AXIS_NAME-0 "2θ/θ"
*MEAS_COND_AXIS_NAME-1 "2θ"
*MEAS_COND_AXIS_NAME-2 "ω"
*MEAS_COND_AXIS_NAME-3 "Z"
*MEAS_COND_AXIS_NAME-4 "2θ/ω"
*MEAS_COND_AXIS_NAME-5 "θs"
*MEAS_COND_AXIS_NAME-6 "θd"
*MEAS_COND_AXIS_NAME-7 "Ts"
*MEAS_COND_AXIS_NAME-8 "CBO選択スリット"
*MEAS_COND_AXIS_NAME-9 "M"
*MEAS_COND_AXIS_NAME-10 "入射平行スリット"
*MEAS_COND_AXIS_NAME-11 "入射スリット"
*MEAS_COND_AXIS_NAME-12 ""
*MEAS_COND_AXIS_NAME-13 "Zs"
*MEAS_COND_AXIS_NAME-14 "入射光学素子"
*MEAS_COND_AXIS_NAME-15 "長手制限スリット"
*MEAS_COND_AXIS_NAME-16 "センタースリット"
*MEAS_COND_AXIS_NAME-17 "フィルター"
*MEAS_COND_AXIS_NAME-18 "受光スリット1"
*MEAS_COND_AXIS_NAME-19 "受光スリット2"
*MEAS_COND_AXIS_NAME-20 "受光光学素子"
*MEAS_COND_AXIS_NAME-21 "受光平行スリット"
*MEAS_COND_AXIS_NAME-22 "調整用受光スリット"
*MEAS_COND_AXIS_NAME-23 ""
*MEAS_COND_AXIS_NAME-24 ""
*MEAS_COND_AXIS_NAME-25 "Zd"
*MEAS_COND_AXIS_NAME-26 "アッテネータ"
*MEAS_COND_AXIS_NAME-27 "検出器モノクロメータ"
*MEAS_COND_AXIS_NAME-28 "モノクロメータスリット"
*MEAS_COND_AXIS_NAME-29 "プライマリビーム"
*MEAS_COND_AXIS_NAME-30 "PHA"
*MEAS_COND_AXIS_NAME_INTERNAL-0 "TwoThetaTheta"
*MEAS_COND_AXIS_NAME_INTERNAL-1 "TwoTheta"
*MEAS_COND_AXIS_NAME_INTERNAL-2 "Omega"
*MEAS_COND_AXIS_NAME_INTERNAL-3 "Z"
*MEAS_COND_AXIS_NAME_INTERNAL-4 "TwoThetaOmega"
*MEAS_COND_AXIS_NAME_INTERNAL-5 "ThetaS"
*MEAS_COND_AXIS_NAME_INTERNAL-6 "ThetaD"
*MEAS_COND_AXIS_NAME_INTERNAL-7 "Ts"
*MEAS_COND_AXIS_NAME_INTERNAL-8 "CBO"
*MEAS_COND_AXIS_NAME_INTERNAL-9 "CBO-M"
*MEAS_COND_AXIS_NAME_INTERNAL-10 "IncidentSollerSlit"
*MEAS_COND_AXIS_NAME_INTERNAL-11 "IncidentSlitBox"
*MEAS_COND_AXIS_NAME_INTERNAL-12 "IncidentSlitBox-_Axis"
*MEAS_COND_AXIS_NAME_INTERNAL-13 "Zs"
*MEAS_COND_AXIS_NAME_INTERNAL-14 "IncidentMonochromator"
*MEAS_COND_AXIS_NAME_INTERNAL-15 "IncidentAxdSlit"
*MEAS_COND_AXIS_NAME_INTERNAL-16 "CenterSlit"
*MEAS_COND_AXIS_NAME_INTERNAL-17 "Filter"
*MEAS_COND_AXIS_NAME_INTERNAL-18 "ReceivingSlitBox1"
*MEAS_COND_AXIS_NAME_INTERNAL-19 "ReceivingSlitBox2"
*MEAS_COND_AXIS_NAME_INTERNAL-20 "ReceivingOptics"
*MEAS_COND_AXIS_NAME_INTERNAL-21 "ReceivingSollerSlit"
*MEAS_COND_AXIS_NAME_INTERNAL-22 "ReceivingAxdSlit"
*MEAS_COND_AXIS_NAME_INTERNAL-23 "ReceivingSlitBox1-_Axis"
*MEAS_COND_AXIS_NAME_INTERNAL-24 "ReceivingSlitBox2-_Axis"
*MEAS_COND_AXIS_NAME_INTERNAL-25 "ReceivingSlitBox2-Zd"
*MEAS_COND_AXIS_NAME_INTERNAL-26 "Attenuator"
*MEAS_COND_AXIS_NAME_INTERNAL-27 "CounterMonochromator"
*MEAS_COND_AXIS_NAME_INTERNAL-28 "CounterSlit"
*MEAS_COND_AXIS_NAME_INTERNAL-29 "IncidentPrimary"
*MEAS_COND_AXIS_NAME_INTERNAL-30 "PHA"
*MEAS_COND_AXIS_NAME_MAGICNO-0 "83951616.0000000000"
*MEAS_COND_AXIS_NAME_MAGICNO-1 "268632064.0000000000"
*MEAS_COND_AXIS_NAME_MAGICNO-2 "268500992.0000000000"
*MEAS_COND_AXIS_NAME_MAGICNO-3 "285278208.0000000000"
*MEAS_COND_AXIS_NAME_MAGICNO-4 "83951616.0000000000"
*MEAS_COND_AXIS_NAME_MAGICNO-5 "131072.0000000000"
*MEAS_COND_AXIS_NAME_MAGICNO-6 "131072.0000000000"
*MEAS_COND_AXIS_NAME_MAGICNO-7 "318898176.0000000000"
*MEAS_COND_AXIS_NAME_MAGICNO-8 "20971521.0000000000"
*MEAS_COND_AXIS_NAME_MAGICNO-9 "285343744.0000000000"
*MEAS_COND_AXIS_NAME_MAGICNO-10 "20971521.0000000000"
*MEAS_COND_AXIS_NAME_MAGICNO-11 "22020097.0000000000"
*MEAS_COND_AXIS_NAME_MAGICNO-12 "25165824.0000000000"
*MEAS_COND_AXIS_NAME_MAGICNO-13 "318898176.0000000000"
*MEAS_COND_AXIS_NAME_MAGICNO-14 "1.0000000000"
*MEAS_COND_AXIS_NAME_MAGICNO-15 "20971521.0000000000"
*MEAS_COND_AXIS_NAME_MAGICNO-16 "20971521.0000000000"
*MEAS_COND_AXIS_NAME_MAGICNO-17 "20971521.0000000000"
*MEAS_COND_AXIS_NAME_MAGICNO-18 "23068673.0000000000"
*MEAS_COND_AXIS_NAME_MAGICNO-19 "23068673.0000000000"
*MEAS_COND_AXIS_NAME_MAGICNO-20 "20971521.0000000000"
*MEAS_COND_AXIS_NAME_MAGICNO-21 "20971521.0000000000"
*MEAS_COND_AXIS_NAME_MAGICNO-22 "20971521.0000000000"
*MEAS_COND_AXIS_NAME_MAGICNO-23 "25165824.0000000000"
*MEAS_COND_AXIS_NAME_MAGICNO-24 "25165824.0000000000"
*MEAS_COND_AXIS_NAME_MAGICNO-25 "285343744.0000000000"
*MEAS_COND_AXIS_NAME_MAGICNO-26 "17301505.0000000000"
*MEAS_COND_AXIS_NAME_MAGICNO-27 "20971521.0000000000"
*MEAS_COND_AXIS_NAME_MAGICNO-28 "20971521.0000000000"
*MEAS_COND_AXIS_NAME_MAGICNO-29 "20971521.0000000000"
*MEAS_COND_AXIS_NAME_MAGICNO-30 "0.0000000000"
*MEAS_COND_AXIS_OFFSET-0 "-"
*MEAS_COND_AXIS_OFFSET-1 "-0.0310000000"
*MEAS_COND_AXIS_OFFSET-2 "0.2529000000"
*MEAS_COND_AXIS_OFFSET-3 "-"
*MEAS_COND_AXIS_OFFSET-4 "-"
*MEAS_COND_AXIS_OFFSET-5 "0.2529000000"
*MEAS_COND_AXIS_OFFSET-6 "-0.2839000000"
*MEAS_COND_AXIS_OFFSET-7 "-"
*MEAS_COND_AXIS_OFFSET-8 "-"
*MEAS_COND_AXIS_OFFSET-9 "-"
*MEAS_COND_AXIS_OFFSET-10 "-"
*MEAS_COND_AXIS_OFFSET-11 "-"
*MEAS_COND_AXIS_OFFSET-12 "-"
*MEAS_COND_AXIS_OFFSET-13 "-"
*MEAS_COND_AXIS_OFFSET-14 "-"
*MEAS_COND_AXIS_OFFSET-15 "-"
*MEAS_COND_AXIS_OFFSET-16 "-"
*MEAS_COND_AXIS_OFFSET-17 "-"
*MEAS_COND_AXIS_OFFSET-18 "-"
*MEAS_COND_AXIS_OFFSET-19 "-"
*MEAS_COND_AXIS_OFFSET-20 "-"
*MEAS_COND_AXIS_OFFSET-21 "-"
*MEAS_COND_AXIS_OFFSET-22 "-"
*MEAS_COND_AXIS_OFFSET-23 "-"
*MEAS_COND_AXIS_OFFSET-24 "-"
*MEAS_COND_AXIS_OFFSET-25 "-"
*MEAS_COND_AXIS_OFFSET-26 "-"
*MEAS_COND_AXIS_OFFSET-27 "-"
*MEAS_COND_AXIS_OFFSET-28 "-"
*MEAS_COND_AXIS_OFFSET-29 "-"
*MEAS_COND_AXIS_OFFSET-30 "-"
*MEAS_COND_AXIS_POSITION-0 "0.0000000000"
*MEAS_COND_AXIS_POSITION-1 "0.0000000000"
*MEAS_COND_AXIS_POSITION-2 "0.0000000000"
*MEAS_COND_AXIS_POSITION-3 "-2.8813000000"
*MEAS_COND_AXIS_POSITION-4 "0.0000000000"
*MEAS_COND_AXIS_POSITION-5 "0.0000000000"
*MEAS_COND_AXIS_POSITION-6 "0.0000000000"
*MEAS_COND_AXIS_POSITION-7 "-0.7498700000"
*MEAS_COND_AXIS_POSITION-8 "BB"
*MEAS_COND_AXIS_POSITION-9 "0.0000000000"
*MEAS_COND_AXIS_POSITION-10 "Soller_slit_5.0deg"
*MEAS_COND_AXIS_POSITION-11 "2/3deg"
*MEAS_COND_AXIS_POSITION-12 "2.2088000000"
*MEAS_COND_AXIS_POSITION-13 "-0.6412500000"
*MEAS_COND_AXIS_POSITION-14 "0.0000000000"
*MEAS_COND_AXIS_POSITION-15 "10.0mm"
*MEAS_COND_AXIS_POSITION-16 "None"
*MEAS_COND_AXIS_POSITION-17 "Cu_K-beta"
*MEAS_COND_AXIS_POSITION-18 "13.000mm"
*MEAS_COND_AXIS_POSITION-19 "13.000mm"
*MEAS_COND_AXIS_POSITION-20 "No_unit"
*MEAS_COND_AXIS_POSITION-21 "Soller_slit_5.0deg"
*MEAS_COND_AXIS_POSITION-22 "None"
*MEAS_COND_AXIS_POSITION-23 "13.0000000000"
*MEAS_COND_AXIS_POSITION-24 "13.0000000000"
*MEAS_COND_AXIS_POSITION-25 "0.0281300000"
*MEAS_COND_AXIS_POSITION-26 "Open"
*MEAS_COND_AXIS_POSITION-27 "None"
*MEAS_COND_AXIS_POSITION-28 "None"
*MEAS_COND_AXIS_POSITION-29 "None"
*MEAS_COND_AXIS_POSITION-30 "38.0000000000"
*MEAS_COND_AXIS_UNIT-0 "deg"
*MEAS_COND_AXIS_UNIT-1 "deg"
*MEAS_COND_AXIS_UNIT-2 "deg"
*MEAS_COND_AXIS_UNIT-3 "mm"
*MEAS_COND_AXIS_UNIT-4 "deg"
*MEAS_COND_AXIS_UNIT-5 "deg"
*MEAS_COND_AXIS_UNIT-6 "deg"
*MEAS_COND_AXIS_UNIT-7 "mm"
*MEAS_COND_AXIS_UNIT-8 ""
*MEAS_COND_AXIS_UNIT-9 "pulse"
*MEAS_COND_AXIS_UNIT-10 ""
*MEAS_COND_AXIS_UNIT-11 ""
*MEAS_COND_AXIS_UNIT-12 "mm"
*MEAS_COND_AXIS_UNIT-13 "mm"
*MEAS_COND_AXIS_UNIT-14 ""
*MEAS_COND_AXIS_UNIT-15 ""
*MEAS_COND_AXIS_UNIT-16 ""
*MEAS_COND_AXIS_UNIT-17 ""
*MEAS_COND_AXIS_UNIT-18 ""
*MEAS_COND_AXIS_UNIT-19 ""
*MEAS_COND_AXIS_UNIT-20 ""
*MEAS_COND_AXIS_UNIT-21 ""
*MEAS_COND_AXIS_UNIT-22 ""
*MEAS_COND_AXIS_UNIT-23 "mm"
*MEAS_COND_AXIS_UNIT-24 "mm"
*MEAS_COND_AXIS_UNIT-25 "mm"
*MEAS_COND_AXIS_UNIT-26 ""
*MEAS_COND_AXIS_UNIT-27 ""
*MEAS_COND_AXIS_UNIT-28 ""
*MEAS_COND_AXIS_UNIT-29 ""
*MEAS_COND_AXIS_UNIT-30 "div"
*MEAS_COND_COUNTER_CNTLOSS_CORR "0.0000000000"
*MEAS_COND_COUNTER_PHABASE "38.0000000000"
*MEAS_COND_COUNTER_PHAWINDOW "16.0000000000"
*MEAS_COND_COUNTER_PHA_UNIT "div"
*MEAS_COND_COUNTER_TAUDIFF "30.0000000000"
*MEAS_COND_COUNTER_TAUINT "0.0000000000"
*MEAS_COND_IRRADIATION_MODE "OFF"
*MEAS_COND_IRRADIATION_WIDTH ""
*MEAS_COND_OPT_ATTR "集中法"
*MEAS_COND_OPT_NAME "@集中法"
*MEAS_COND_UNSYMMETRIC_MODE "OFF"
*MEAS_COND_XG_CURRENT "30.0000000000"
*MEAS_COND_XG_VOLTAGE "40.0000000000"
*MEAS_COND_XG_WAVE_TYPE "Ka"
*MEAS_DATA_COUNT "5001.0000000000"
*MEAS_SCAN_AXIS_X "2θ/θ"
*MEAS_SCAN_AXIS_X_INTERNAL "TwoThetaTheta"
*MEAS_SCAN_END_TIME "12/22/22 14:23:55"
*MEAS_SCAN_MODE "CONTINUOUS"
*MEAS_SCAN_MONITOR "0"
*MEAS_SCAN_RESOLUTION_X "0.0002"
*MEAS_SCAN_SPEED "2.5"
*MEAS_SCAN_SPEED_UNIT "deg/min"
*MEAS_SCAN_START "20.0000000000"
*MEAS_SCAN_START_TIME "12/22/22 14:02:31"
*MEAS_SCAN_STEP "0.0100000000"
*MEAS_SCAN_STOP "70.0000000000"
*MEAS_SCAN_UNIT_X "deg"
*MEAS_SCAN_UNIT_Y "counts"
*RAS_HEADER_END
*RAS_INT_START
20.0000 786.0000 1.0000
20.0100 805.0000 1.0000
20.0200 764.0000 1.0000
20.0300 783.0000 1.0000
20.0400 762.0000 1.0000
20.0500 793.0000 1.0000
20.0600 809.0000 1.0000
20.0700 808.0000 1.0000
20.0800 837.0000 1.0000
20.0900 818.0000 1.0000
20.1000 800.0000 1.0000
20.1100 812.0000 1.0000
20.1200 801.0000 1.0000
20.1300 842.0000 1.0000
20.1400 787.0000 1.0000
20.1500 826.0000 1.0000
20.1600 796.0000 1.0000
20.1700 806.0000 1.0000
20.1800 806.0000 1.0000
20.1900 765.0000 1.0000
20.2000 820.0000 1.0000
20.2100 813.0000 1.0000
20.2200 814.0000 1.0000
20.2300 776.0000 1.0000
20.2400 795.0000 1.0000
20.2500 805.0000 1.0000
20.2600 790.0000 1.0000
20.2700 786.0000 1.0000
20.2800 770.0000 1.0000
20.2900 826.0000 1.0000
20.3000 797.0000 1.0000
20.3100 855.0000 1.0000
20.3200 796.0000 1.0000
20.3300 826.0000 1.0000
20.3400 826.0000 1.0000
20.3500 842.0000 1.0000
20.3600 845.0000 1.0000
20.3700 816.0000 1.0000
20.3800 800.0000 1.0000
20.3900 751.0000 1.0000
20.4000 821.0000 1.0000
20.4100 840.0000 1.0000
20.4200 802.0000 1.0000
20.4300 827.0000 1.0000
20.4400 825.0000 1.0000
20.4500 857.0000 1.0000
20.4600 850.0000 1.0000
20.4700 844.0000 1.0000
20.4800 825.0000 1.0000
20.4900 795.0000 1.0000
20.5000 789.0000 1.0000
20.5100 809.0000 1.0000
20.5200 802.0000 1.0000
20.5300 773.0000 1.0000
20.5400 783.0000 1.0000
20.5500 814.0000 1.0000
20.5600 802.0000 1.0000
20.5700 825.0000 1.0000
20.5800 797.0000 1.0000
20.5900 811.0000 1.0000
20.6000 838.0000 1.0000
20.6100 811.0000 1.0000
20.6200 809.0000 1.0000
20.6300 797.0000 1.0000
20.6400 850.0000 1.0000
20.6500 806.0000 1.0000
20.6600 807.0000 1.0000
20.6700 830.0000 1.0000
20.6800 814.0000 1.0000
20.6900 789.0000 1.0000
20.7000 756.0000 1.0000
20.7100 809.0000 1.0000
20.7200 798.0000 1.0000
20.7300 830.0000 1.0000
20.7400 774.0000 1.0000
20.7500 748.0000 1.0000
20.7600 838.0000 1.0000
20.7700 814.0000 1.0000
20.7800 797.0000 1.0000
20.7900 857.0000 1.0000
20.8000 814.0000 1.0000
20.8100 819.0000 1.0000
20.8200 858.0000 1.0000
20.8300 777.0000 1.0000
20.8400 764.0000 1.0000
20.8500 812.0000 1.0000
20.8600 802.0000 1.0000
20.8700 806.0000 1.0000
20.8800 792.0000 1.0000
20.8900 805.0000 1.0000
20.9000 780.0000 1.0000
20.9100 779.0000 1.0000
20.9200 838.0000 1.0000
20.9300 799.0000 1.0000
20.9400 786.0000 1.0000
20.9500 788.0000 1.0000
20.9600 812.0000 1.0000
20.9700 814.0000 1.0000
20.9800 784.0000 1.0000
20.9900 778.0000 1.0000
21.0000 801.0000 1.0000
21.0100 827.0000 1.0000
21.0200 828.0000 1.0000
21.0300 852.0000 1.0000
21.0400 785.0000 1.0000
21.0500 858.0000 1.0000
21.0600 746.0000 1.0000
21.0700 780.0000 1.0000
21.0800 768.0000 1.0000
21.0900 783.0000 1.0000
21.1000 790.0000 1.0000
21.1100 817.0000 1.0000
21.1200 806.0000 1.0000
21.1300 821.0000 1.0000
21.1400 824.0000 1.0000
21.1500 814.0000 1.0000
21.1600 821.0000 1.0000
21.1700 836.0000 1.0000
21.1800 794.0000 1.0000
21.1900 806.0000 1.0000
21.2000 837.0000 1.0000
21.2100 822.0000 1.0000
21.2200 763.0000 1.0000
21.2300 779.0000 1.0000
21.2400 792.0000 1.0000
21.2500 841.0000 1.0000
21.2600 817.0000 1.0000
21.2700 796.0000 1.0000
21.2800 803.0000 1.0000
21.2900 766.0000 1.0000
21.3000 816.0000 1.0000
21.3100 849.0000 1.0000
21.3200 799.0000 1.0000
21.3300 791.0000 1.0000
21.3400 779.0000 1.0000
21.3500 827.0000 1.0000
21.3600 792.0000 1.0000
21.3700 787.0000 1.0000
21.3800 791.0000 1.0000
21.3900 808.0000 1.0000
21.4000 760.0000 1.0000
21.4100 838.0000 1.0000
21.4200 808.0000 1.0000
21.4300 797.0000 1.0000
21.4400 826.0000 1.0000
21.4500 776.0000 1.0000
21.4600 809.0000 1.0000
21.4700 831.0000 1.0000
21.4800 793.0000 1.0000
21.4900 774.0000 1.0000
21.5000 824.0000 1.0000
21.5100 784.0000 1.0000
21.5200 808.0000 1.0000
21.5300 804.0000 1.0000
21.5400 816.0000 1.0000
21.5500 820.0000 1.0000
21.5600 745.0000 1.0000
21.5700 789.0000 1.0000
21.5800 793.0000 1.0000
21.5900 775.0000 1.0000
21.6000 848.0000 1.0000
21.6100 821.0000 1.0000
21.6200 780.0000 1.0000
21.6300 822.0000 1.0000
21.6400 779.0000 1.0000
21.6500 792.0000 1.0000
21.6600 769.0000 1.0000
21.6700 792.0000 1.0000
21.6800 792.0000 1.0000
21.6900 764.0000 1.0000
21.7000 751.0000 1.0000
21.7100 776.0000 1.0000
21.7200 785.0000 1.0000
21.7300 795.0000 1.0000
21.7400 784.0000 1.0000
21.7500 816.0000 1.0000
21.7600 737.0000 1.0000
21.7700 782.0000 1.0000
21.7800 827.0000 1.0000
21.7900 795.0000 1.0000
21.8000 799.0000 1.0000
21.8100 827.0000 1.0000
21.8200 797.0000 1.0000
21.8300 760.0000 1.0000
21.8400 825.0000 1.0000
21.8500 805.0000 1.0000
21.8600 806.0000 1.0000
21.8700 790.0000 1.0000
21.8800 756.0000 1.0000
21.8900 794.0000 1.0000
21.9000 764.0000 1.0000
21.9100 788.0000 1.0000
21.9200 786.0000 1.0000
21.9300 796.0000 1.0000
21.9400 812.0000 1.0000
21.9500 780.0000 1.0000
21.9600 779.0000 1.0000
21.9700 749.0000 1.0000
21.9800 744.0000 1.0000
21.9900 794.0000 1.0000
22.0000 785.0000 1.0000
22.0100 776.0000 1.0000
22.0200 808.0000 1.0000
22.0300 777.0000 1.0000
22.0400 767.0000 1.0000
22.0500 799.0000 1.0000
22.0600 775.0000 1.0000
22.0700 791.0000 1.0000
22.0800 782.0000 1.0000
22.0900 791.0000 1.0000
22.1000 778.0000 1.0000
22.1100 813.0000 1.0000
22.1200 823.0000 1.0000
22.1300 766.0000 1.0000
22.1400 765.0000 1.0000
22.1500 765.0000 1.0000
22.1600 756.0000 1.0000
22.1700 725.0000 1.0000
22.1800 789.0000 1.0000
22.1900 842.0000 1.0000
22.2000 789.0000 1.0000
22.2100 773.0000 1.0000
22.2200 798.0000 1.0000
22.2300 865.0000 1.0000
22.2400 780.0000 1.0000
22.2500 775.0000 1.0000
22.2600 774.0000 1.0000
22.2700 775.0000 1.0000
22.2800 805.0000 1.0000
22.2900 784.0000 1.0000
22.3000 760.0000 1.0000
22.3100 804.0000 1.0000
22.3200 812.0000 1.0000
22.3300 824.0000 1.0000
22.3400 778.0000 1.0000
22.3500 729.0000 1.0000
22.3600 769.0000 1.0000
22.3700 784.0000 1.0000
22.3800 793.0000 1.0000
22.3900 773.0000 1.0000
22.4000 762.0000 1.0000
22.4100 798.0000 1.0000
22.4200 754.0000 1.0000
22.4300 779.0000 1.0000
22.4400 791.0000 1.0000
22.4500 803.0000 1.0000
22.4600 798.0000 1.0000
22.4700 788.0000 1.0000
22.4800 788.0000 1.0000
22.4900 803.0000 1.0000
22.5000 768.0000 1.0000
22.5100 820.0000 1.0000
22.5200 745.0000 1.0000
22.5300 772.0000 1.0000
22.5400 807.0000 1.0000
22.5500 795.0000 1.0000
22.5600 755.0000 1.0000
22.5700 830.0000 1.0000
22.5800 818.0000 1.0000
22.5900 793.0000 1.0000
22.6000 795.0000 1.0000
22.6100 790.0000 1.0000
22.6200 798.0000 1.0000
22.6300 792.0000 1.0000
22.6400 770.0000 1.0000
22.6500 795.0000 1.0000
22.6600 763.0000 1.0000
22.6700 793.0000 1.0000
22.6800 804.0000 1.0000
22.6900 824.0000 1.0000
22.7000 784.0000 1.0000
22.7100 763.0000 1.0000
22.7200 736.0000 1.0000
22.7300 754.0000 1.0000
22.7400 741.0000 1.0000
22.7500 814.0000 1.0000
22.7600 782.0000 1.0000
22.7700 772.0000 1.0000
22.7800 781.0000 1.0000
22.7900 797.0000 1.0000
22.8000 777.0000 1.0000
22.8100 753.0000 1.0000
22.8200 786.0000 1.0000
22.8300 775.0000 1.0000
22.8400 805.0000 1.0000
22.8500 790.0000 1.0000
22.8600 773.0000 1.0000
22.8700 791.0000 1.0000
22.8800 765.0000 1.0000
22.8900 789.0000 1.0000
22.9000 817.0000 1.0000
22.9100 792.0000 1.0000
22.9200 797.0000 1.0000
22.9300 760.0000 1.0000
22.9400 774.0000 1.0000
22.9500 742.0000 1.0000
22.9600 772.0000 1.0000
22.9700 787.0000 1.0000
22.9800 799.0000 1.0000
22.9900 726.0000 1.0000
23.0000 784.0000 1.0000
23.0100 773.0000 1.0000
23.0200 798.0000 1.0000
23.0300 785.0000 1.0000
23.0400 775.0000 1.0000
23.0500 751.0000 1.0000
23.0600 754.0000 1.0000
23.0700 761.0000 1.0000
23.0800 770.0000 1.0000
23.0900 771.0000 1.0000
23.1000 764.0000 1.0000
23.1100 798.0000 1.0000
23.1200 782.0000 1.0000
23.1300 752.0000 1.0000
23.1400 761.0000 1.0000
23.1500 801.0000 1.0000
23.1600 805.0000 1.0000
23.1700 813.0000 1.0000
23.1800 775.0000 1.0000
23.1900 778.0000 1.0000
23.2000 809.0000 1.0000
23.2100 761.0000 1.0000
23.2200 756.0000 1.0000
23.2300 790.0000 1.0000
23.2400 784.0000 1.0000
23.2500 764.0000 1.0000
23.2600 735.0000 1.0000
23.2700 778.0000 1.0000
23.2800 766.0000 1.0000
23.2900 759.0000 1.0000
23.3000 822.0000 1.0000
23.3100 771.0000 1.0000
23.3200 736.0000 1.0000
23.3300 748.0000 1.0000
23.3400 770.0000 1.0000
23.3500 756.0000 1.0000
23.3600 770.0000 1.0000
23.3700 808.0000 1.0000
23.3800 781.0000 1.0000
23.3900 729.0000 1.0000
23.4000 743.0000 1.0000
23.4100 771.0000 1.0000
23.4200 785.0000 1.0000
23.4300 798.0000 1.0000
23.4400 779.0000 1.0000
23.4500 753.0000 1.0000
23.4600 796.0000 1.0000
23.4700 733.0000 1.0000
23.4800 766.0000 1.0000
23.4900 754.0000 1.0000
23.5000 823.0000 1.0000
23.5100 801.0000 1.0000
23.5200 793.0000 1.0000
23.5300 797.0000 1.0000
23.5400 780.0000 1.0000
23.5500 774.0000 1.0000
23.5600 781.0000 1.0000
23.5700 781.0000 1.0000
23.5800 792.0000 1.0000
23.5900 786.0000 1.0000
23.6000 764.0000 1.0000
23.6100 795.0000 1.0000
23.6200 813.0000 1.0000
23.6300 783.0000 1.0000
23.6400 755.0000 1.0000
23.6500 777.0000 1.0000
23.6600 787.0000 1.0000
23.6700 803.0000 1.0000
23.6800 829.0000 1.0000
23.6900 764.0000 1.0000
23.7000 721.0000 1.0000
23.7100 790.0000 1.0000
23.7200 825.0000 1.0000
23.7300 796.0000 1.0000
23.7400 741.0000 1.0000
23.7500 719.0000 1.0000
23.7600 784.0000 1.0000
23.7700 784.0000 1.0000
23.7800 784.0000 1.0000
23.7900 816.0000 1.0000
23.8000 788.0000 1.0000
23.8100 777.0000 1.0000
23.8200 817.0000 1.0000
23.8300 761.0000 1.0000
23.8400 783.0000 1.0000
23.8500 730.0000 1.0000
23.8600 746.0000 1.0000
23.8700 787.0000 1.0000
23.8800 839.0000 1.0000
23.8900 797.0000 1.0000
23.9000 783.0000 1.0000
23.9100 764.0000 1.0000
23.9200 773.0000 1.0000
23.9300 788.0000 1.0000
23.9400 801.0000 1.0000
23.9500 780.0000 1.0000
23.9600 731.0000 1.0000
23.9700 803.0000 1.0000
23.9800 790.0000 1.0000
23.9900 787.0000 1.0000
24.0000 790.0000 1.0000
24.0100 773.0000 1.0000
24.0200 736.0000 1.0000
24.0300 754.0000 1.0000
24.0400 806.0000 1.0000
24.0500 810.0000 1.0000
24.0600 777.0000 1.0000
24.0700 788.0000 1.0000
24.0800 808.0000 1.0000
24.0900 807.0000 1.0000
24.1000 813.0000 1.0000
24.1100 805.0000 1.0000
24.1200 837.0000 1.0000
24.1300 811.0000 1.0000
24.1400 851.0000 1.0000
24.1500 800.0000 1.0000
24.1600 774.0000 1.0000
24.1700 790.0000 1.0000
24.1800 776.0000 1.0000
24.1900 819.0000 1.0000
24.2000 799.0000 1.0000
24.2100 785.0000 1.0000
24.2200 817.0000 1.0000
24.2300 819.0000 1.0000
24.2400 795.0000 1.0000
24.2500 779.0000 1.0000
24.2600 755.0000 1.0000
24.2700 767.0000 1.0000
24.2800 812.0000 1.0000
24.2900 783.0000 1.0000
24.3000 806.0000 1.0000
24.3100 783.0000 1.0000
24.3200 781.0000 1.0000
24.3300 790.0000 1.0000
24.3400 802.0000 1.0000
24.3500 766.0000 1.0000
24.3600 765.0000 1.0000
24.3700 754.0000 1.0000
24.3800 771.0000 1.0000
24.3900 713.0000 1.0000
24.4000 746.0000 1.0000
24.4100 764.0000 1.0000
24.4200 743.0000 1.0000
24.4300 778.0000 1.0000
24.4400 768.0000 1.0000
24.4500 793.0000 1.0000
24.4600 772.0000 1.0000
24.4700 810.0000 1.0000
24.4800 805.0000 1.0000
24.4900 759.0000 1.0000
24.5000 769.0000 1.0000
24.5100 766.0000 1.0000
24.5200 805.0000 1.0000
24.5300 743.0000 1.0000
24.5400 720.0000 1.0000
24.5500 753.0000 1.0000
24.5600 759.0000 1.0000
24.5700 765.0000 1.0000
24.5800 762.0000 1.0000
24.5900 774.0000 1.0000
24.6000 780.0000 1.0000
24.6100 777.0000 1.0000
24.6200 729.0000 1.0000
24.6300 774.0000 1.0000
24.6400 756.0000 1.0000
24.6500 791.0000 1.0000
24.6600 746.0000 1.0000
24.6700 788.0000 1.0000
24.6800 733.0000 1.0000
24.6900 720.0000 1.0000
24.7000 727.0000 1.0000
24.7100 719.0000 1.0000
24.7200 774.0000 1.0000
24.7300 776.0000 1.0000
24.7400 767.0000 1.0000
24.7500 757.0000 1.0000
24.7600 737.0000 1.0000
24.7700 741.0000 1.0000
24.7800 742.0000 1.0000
24.7900 748.0000 1.0000
24.8000 736.0000 1.0000
24.8100 768.0000 1.0000
24.8200 758.0000 1.0000
24.8300 746.0000 1.0000
24.8400 770.0000 1.0000
24.8500 737.0000 1.0000
24.8600 722.0000 1.0000
24.8700 740.0000 1.0000
24.8800 746.0000 1.0000
24.8900 736.0000 1.0000
24.9000 800.0000 1.0000
24.9100 726.0000 1.0000
24.9200 743.0000 1.0000
24.9300 732.0000 1.0000
24.9400 753.0000 1.0000
24.9500 754.0000 1.0000
24.9600 756.0000 1.0000
24.9700 771.0000 1.0000
24.9800 737.0000 1.0000
24.9900 794.0000 1.0000
25.0000 795.0000 1.0000
25.0100 717.0000 1.0000
25.0200 757.0000 1.0000
25.0300 779.0000 1.0000
25.0400 760.0000 1.0000
25.0500 746.0000 1.0000
25.0600 768.0000 1.0000
25.0700 730.0000 1.0000
25.0800 741.0000 1.0000
25.0900 748.0000 1.0000
25.1000 736.0000 1.0000
25.1100 758.0000 1.0000
25.1200 739.0000 1.0000
25.1300 721.0000 1.0000
25.1400 710.0000 1.0000
25.1500 787.0000 1.0000
25.1600 754.0000 1.0000
25.1700 770.0000 1.0000
25.1800 769.0000 1.0000
25.1900 739.0000 1.0000
25.2000 767.0000 1.0000
25.2100 741.0000 1.0000
25.2200 732.0000 1.0000
25.2300 744.0000 1.0000
25.2400 719.0000 1.0000
25.2500 761.0000 1.0000
25.2600 756.0000 1.0000
25.2700 779.0000 1.0000
25.2800 752.0000 1.0000
25.2900 768.0000 1.0000
25.3000 782.0000 1.0000
25.3100 776.0000 1.0000
25.3200 728.0000 1.0000
25.3300 713.0000 1.0000
25.3400 726.0000 1.0000
25.3500 745.0000 1.0000
25.3600 737.0000 1.0000
25.3700 735.0000 1.0000
25.3800 742.0000 1.0000
25.3900 749.0000 1.0000
25.4000 763.0000 1.0000
25.4100 772.0000 1.0000
25.4200 739.0000 1.0000
25.4300 800.0000 1.0000
25.4400 747.0000 1.0000
25.4500 767.0000 1.0000
25.4600 747.0000 1.0000
25.4700 777.0000 1.0000
25.4800 763.0000 1.0000
25.4900 753.0000 1.0000
25.5000 732.0000 1.0000
25.5100 758.0000 1.0000
25.5200 799.0000 1.0000
25.5300 779.0000 1.0000
25.5400 783.0000 1.0000
25.5500 711.0000 1.0000
25.5600 748.0000 1.0000
25.5700 822.0000 1.0000
25.5800 799.0000 1.0000
25.5900 784.0000 1.0000
25.6000 778.0000 1.0000
25.6100 749.0000 1.0000
25.6200 746.0000 1.0000
25.6300 744.0000 1.0000
25.6400 779.0000 1.0000
25.6500 762.0000 1.0000
25.6600 754.0000 1.0000
25.6700 782.0000 1.0000
25.6800 776.0000 1.0000
25.6900 742.0000 1.0000
25.7000 735.0000 1.0000
25.7100 776.0000 1.0000
25.7200 754.0000 1.0000
25.7300 767.0000 1.0000
25.7400 792.0000 1.0000
25.7500 779.0000 1.0000
25.7600 739.0000 1.0000
25.7700 767.0000 1.0000
25.7800 774.0000 1.0000
25.7900 789.0000 1.0000
25.8000 816.0000 1.0000
25.8100 800.0000 1.0000
25.8200 737.0000 1.0000
25.8300 745.0000 1.0000
25.8400 763.0000 1.0000
25.8500 805.0000 1.0000
25.8600 765.0000 1.0000
25.8700 799.0000 1.0000
25.8800 781.0000 1.0000
25.8900 783.0000 1.0000
25.9000 771.0000 1.0000
25.9100 757.0000 1.0000
25.9200 753.0000 1.0000
25.9300 837.0000 1.0000
25.9400 826.0000 1.0000
25.9500 810.0000 1.0000
25.9600 840.0000 1.0000
25.9700 826.0000 1.0000
25.9800 877.0000 1.0000
25.9900 848.0000 1.0000
26.0000 830.0000 1.0000
26.0100 843.0000 1.0000
26.0200 901.0000 1.0000
26.0300 877.0000 1.0000
26.0400 856.0000 1.0000
26.0500 887.0000 1.0000
26.0600 890.0000 1.0000
26.0700 931.0000 1.0000
26.0800 879.0000 1.0000
26.0900 896.0000 1.0000
26.1000 913.0000 1.0000
26.1100 958.0000 1.0000
26.1200 910.0000 1.0000
26.1300 907.0000 1.0000
26.1400 975.0000 1.0000
26.1500 928.0000 1.0000
26.1600 1008.0000 1.0000
26.1700 1005.0000 1.0000
26.1800 997.0000 1.0000
26.1900 1025.0000 1.0000
26.2000 1091.0000 1.0000
26.2100 1033.0000 1.0000
26.2200 1106.0000 1.0000
26.2300 1178.0000 1.0000
26.2400 1166.0000 1.0000
26.2500 1189.0000 1.0000
26.2600 1248.0000 1.0000
26.2700 1263.0000 1.0000
26.2800 1355.0000 1.0000
26.2900 1373.0000 1.0000
26.3000 1449.0000 1.0000
26.3100 1411.0000 1.0000
26.3200 1523.0000 1.0000
26.3300 1609.0000 1.0000
26.3400 1673.0000 1.0000
26.3500 1805.0000 1.0000
26.3600 1926.0000 1.0000
26.3700 2005.0000 1.0000
26.3800 2164.0000 1.0000
26.3900 2279.0000 1.0000
26.4000 2373.0000 1.0000
26.4100 2520.0000 1.0000
26.4200 2640.0000 1.0000
26.4300 2688.0000 1.0000
26.4400 2787.0000 1.0000
26.4500 2769.0000 1.0000
26.4600 2800.0000 1.0000
26.4700 2819.0000 1.0000
26.4800 2752.0000 1.0000
26.4900 2716.0000 1.0000
26.5000 2569.0000 1.0000
26.5100 2543.0000 1.0000
26.5200 2437.0000 1.0000
26.5300 2306.0000 1.0000
26.5400 2229.0000 1.0000
26.5500 2120.0000 1.0000
26.5600 1994.0000 1.0000
26.5700 1865.0000 1.0000
26.5800 1804.0000 1.0000
26.5900 1669.0000 1.0000
26.6000 1553.0000 1.0000
26.6100 1539.0000 1.0000
26.6200 1398.0000 1.0000
26.6300 1362.0000 1.0000
26.6400 1317.0000 1.0000
26.6500 1233.0000 1.0000
26.6600 1160.0000 1.0000
26.6700 1141.0000 1.0000
26.6800 1150.0000 1.0000
26.6900 1176.0000 1.0000
26.7000 1109.0000 1.0000
26.7100 1025.0000 1.0000
26.7200 968.0000 1.0000
26.7300 997.0000 1.0000
26.7400 967.0000 1.0000
26.7500 934.0000 1.0000
26.7600 950.0000 1.0000
26.7700 912.0000 1.0000
26.7800 870.0000 1.0000
26.7900 886.0000 1.0000
26.8000 909.0000 1.0000
26.8100 907.0000 1.0000
26.8200 876.0000 1.0000
26.8300 885.0000 1.0000
26.8400 842.0000 1.0000
26.8500 820.0000 1.0000
26.8600 829.0000 1.0000
26.8700 812.0000 1.0000
26.8800 770.0000 1.0000
26.8900 808.0000 1.0000
26.9000 806.0000 1.0000
26.9100 799.0000 1.0000
26.9200 786.0000 1.0000
26.9300 756.0000 1.0000
26.9400 764.0000 1.0000
26.9500 753.0000 1.0000
26.9600 781.0000 1.0000
26.9700 752.0000 1.0000
26.9800 786.0000 1.0000
26.9900 811.0000 1.0000
27.0000 759.0000 1.0000
27.0100 721.0000 1.0000
27.0200 741.0000 1.0000
27.0300 707.0000 1.0000
27.0400 744.0000 1.0000
27.0500 751.0000 1.0000
27.0600 738.0000 1.0000
27.0700 798.0000 1.0000
27.0800 751.0000 1.0000
27.0900 706.0000 1.0000
27.1000 733.0000 1.0000
27.1100 748.0000 1.0000
27.1200 757.0000 1.0000
27.1300 775.0000 1.0000
27.1400 733.0000 1.0000
27.1500 736.0000 1.0000
27.1600 756.0000 1.0000
27.1700 741.0000 1.0000
27.1800 760.0000 1.0000
27.1900 725.0000 1.0000
27.2000 735.0000 1.0000
27.2100 714.0000 1.0000
27.2200 753.0000 1.0000
27.2300 746.0000 1.0000
27.2400 725.0000 1.0000
27.2500 702.0000 1.0000
27.2600 732.0000 1.0000
27.2700 702.0000 1.0000
27.2800 700.0000 1.0000
27.2900 690.0000 1.0000
27.3000 719.0000 1.0000
27.3100 703.0000 1.0000
27.3200 730.0000 1.0000
27.3300 745.0000 1.0000
27.3400 722.0000 1.0000
27.3500 718.0000 1.0000
27.3600 749.0000 1.0000
27.3700 726.0000 1.0000
27.3800 657.0000 1.0000
27.3900 685.0000 1.0000
27.4000 701.0000 1.0000
27.4100 675.0000 1.0000
27.4200 742.0000 1.0000
27.4300 659.0000 1.0000
27.4400 727.0000 1.0000
27.4500 698.0000 1.0000
27.4600 703.0000 1.0000
27.4700 714.0000 1.0000
27.4800 645.0000 1.0000
27.4900 717.0000 1.0000
27.5000 717.0000 1.0000
27.5100 708.0000 1.0000
27.5200 755.0000 1.0000
27.5300 702.0000 1.0000
27.5400 668.0000 1.0000
27.5500 715.0000 1.0000
27.5600 699.0000 1.0000
27.5700 697.0000 1.0000
27.5800 715.0000 1.0000
27.5900 678.0000 1.0000
27.6000 669.0000 1.0000
27.6100 695.0000 1.0000
27.6200 680.0000 1.0000
27.6300 663.0000 1.0000
27.6400 684.0000 1.0000
27.6500 691.0000 1.0000
27.6600 686.0000 1.0000
27.6700 701.0000 1.0000
27.6800 677.0000 1.0000
27.6900 673.0000 1.0000
27.7000 708.0000 1.0000
27.7100 710.0000 1.0000
27.7200 701.0000 1.0000
27.7300 705.0000 1.0000
27.7400 695.0000 1.0000
27.7500 706.0000 1.0000
27.7600 705.0000 1.0000
27.7700 652.0000 1.0000
27.7800 657.0000 1.0000
27.7900 666.0000 1.0000
27.8000 659.0000 1.0000
27.8100 672.0000 1.0000
27.8200 694.0000 1.0000
27.8300 650.0000 1.0000
27.8400 671.0000 1.0000
27.8500 665.0000 1.0000
27.8600 667.0000 1.0000
27.8700 654.0000 1.0000
27.8800 652.0000 1.0000
27.8900 703.0000 1.0000
27.9000 691.0000 1.0000
27.9100 653.0000 1.0000
27.9200 688.0000 1.0000
27.9300 665.0000 1.0000
27.9400 634.0000 1.0000
27.9500 691.0000 1.0000
27.9600 688.0000 1.0000
27.9700 695.0000 1.0000
27.9800 671.0000 1.0000
27.9900 672.0000 1.0000
28.0000 655.0000 1.0000
28.0100 647.0000 1.0000
28.0200 667.0000 1.0000
28.0300 649.0000 1.0000
28.0400 667.0000 1.0000
28.0500 665.0000 1.0000
28.0600 666.0000 1.0000
28.0700 688.0000 1.0000
28.0800 672.0000 1.0000
28.0900 661.0000 1.0000
28.1000 683.0000 1.0000
28.1100 654.0000 1.0000
28.1200 642.0000 1.0000
28.1300 678.0000 1.0000
28.1400 654.0000 1.0000
28.1500 668.0000 1.0000
28.1600 649.0000 1.0000
28.1700 602.0000 1.0000
28.1800 674.0000 1.0000
28.1900 650.0000 1.0000
28.2000 665.0000 1.0000
28.2100 663.0000 1.0000
28.2200 681.0000 1.0000
28.2300 679.0000 1.0000
28.2400 666.0000 1.0000
28.2500 666.0000 1.0000
28.2600 670.0000 1.0000
28.2700 633.0000 1.0000
28.2800 642.0000 1.0000
28.2900 632.0000 1.0000
28.3000 622.0000 1.0000
28.3100 659.0000 1.0000
28.3200 651.0000 1.0000
28.3300 647.0000 1.0000
28.3400 655.0000 1.0000
28.3500 663.0000 1.0000
28.3600 668.0000 1.0000
28.3700 646.0000 1.0000
28.3800 626.0000 1.0000
28.3900 643.0000 1.0000
28.4000 663.0000 1.0000
28.4100 619.0000 1.0000
28.4200 617.0000 1.0000
28.4300 634.0000 1.0000
28.4400 665.0000 1.0000
28.4500 641.0000 1.0000
28.4600 653.0000 1.0000
28.4700 642.0000 1.0000
28.4800 606.0000 1.0000
28.4900 635.0000 1.0000
28.5000 620.0000 1.0000
28.5100 629.0000 1.0000
28.5200 650.0000 1.0000
28.5300 653.0000 1.0000
28.5400 650.0000 1.0000
28.5500 634.0000 1.0000
28.5600 665.0000 1.0000
28.5700 637.0000 1.0000
28.5800 645.0000 1.0000
28.5900 623.0000 1.0000
28.6000 648.0000 1.0000
28.6100 613.0000 1.0000
28.6200 650.0000 1.0000
28.6300 613.0000 1.0000
28.6400 586.0000 1.0000
28.6500 642.0000 1.0000
28.6600 632.0000 1.0000
28.6700 589.0000 1.0000
28.6800 639.0000 1.0000
28.6900 650.0000 1.0000
28.7000 644.0000 1.0000
28.7100 629.0000 1.0000
28.7200 636.0000 1.0000
28.7300 611.0000 1.0000
28.7400 617.0000 1.0000
28.7500 620.0000 1.0000
28.7600 611.0000 1.0000
28.7700 607.0000 1.0000
28.7800 655.0000 1.0000
28.7900 673.0000 1.0000
28.8000 611.0000 1.0000
28.8100 617.0000 1.0000
28.8200 646.0000 1.0000
28.8300 664.0000 1.0000
28.8400 642.0000 1.0000
28.8500 638.0000 1.0000
28.8600 620.0000 1.0000
28.8700 660.0000 1.0000
28.8800 634.0000 1.0000
28.8900 656.0000 1.0000
28.9000 648.0000 1.0000
28.9100 643.0000 1.0000
28.9200 617.0000 1.0000
28.9300 614.0000 1.0000
28.9400 618.0000 1.0000
28.9500 639.0000 1.0000
28.9600 656.0000 1.0000
28.9700 620.0000 1.0000
28.9800 683.0000 1.0000
28.9900 673.0000 1.0000
29.0000 621.0000 1.0000
29.0100 659.0000 1.0000
29.0200 612.0000 1.0000
29.0300 590.0000 1.0000
29.0400 640.0000 1.0000
29.0500 638.0000 1.0000
29.0600 654.0000 1.0000
29.0700 627.0000 1.0000
29.0800 616.0000 1.0000
29.0900 589.0000 1.0000
29.1000 585.0000 1.0000
29.1100 641.0000 1.0000
29.1200 630.0000 1.0000
29.1300 634.0000 1.0000
29.1400 637.0000 1.0000
29.1500 644.0000 1.0000
29.1600 586.0000 1.0000
29.1700 630.0000 1.0000
29.1800 582.0000 1.0000
29.1900 612.0000 1.0000
29.2000 590.0000 1.0000
29.2100 606.0000 1.0000
29.2200 627.0000 1.0000
29.2300 623.0000 1.0000
29.2400 604.0000 1.0000
29.2500 625.0000 1.0000
29.2600 610.0000 1.0000
29.2700 617.0000 1.0000
29.2800 599.0000 1.0000
29.2900 598.0000 1.0000
29.3000 607.0000 1.0000
29.3100 579.0000 1.0000
29.3200 597.0000 1.0000
29.3300 616.0000 1.0000
29.3400 607.0000 1.0000
29.3500 633.0000 1.0000
29.3600 664.0000 1.0000
29.3700 629.0000 1.0000
29.3800 629.0000 1.0000
29.3900 634.0000 1.0000
29.4000 609.0000 1.0000
29.4100 608.0000 1.0000
29.4200 645.0000 1.0000
29.4300 651.0000 1.0000
29.4400 636.0000 1.0000
29.4500 619.0000 1.0000
29.4600 612.0000 1.0000
29.4700 618.0000 1.0000
29.4800 607.0000 1.0000
29.4900 595.0000 1.0000
29.5000 578.0000 1.0000
29.5100 624.0000 1.0000
29.5200 611.0000 1.0000
29.5300 602.0000 1.0000
29.5400 597.0000 1.0000
29.5500 636.0000 1.0000
29.5600 620.0000 1.0000
29.5700 632.0000 1.0000
29.5800 627.0000 1.0000
29.5900 613.0000 1.0000
29.6000 607.0000 1.0000
29.6100 605.0000 1.0000
29.6200 608.0000 1.0000
29.6300 585.0000 1.0000
29.6400 623.0000 1.0000
29.6500 610.0000 1.0000
29.6600 594.0000 1.0000
29.6700 605.0000 1.0000
29.6800 618.0000 1.0000
29.6900 604.0000 1.0000
29.7000 622.0000 1.0000
29.7100 615.0000 1.0000
29.7200 576.0000 1.0000
29.7300 600.0000 1.0000
29.7400 614.0000 1.0000
29.7500 629.0000 1.0000
29.7600 637.0000 1.0000
29.7700 564.0000 1.0000
29.7800 606.0000 1.0000
29.7900 592.0000 1.0000
29.8000 606.0000 1.0000
29.8100 586.0000 1.0000
29.8200 616.0000 1.0000
29.8300 601.0000 1.0000
29.8400 593.0000 1.0000
29.8500 559.0000 1.0000
29.8600 610.0000 1.0000
29.8700 619.0000 1.0000
29.8800 599.0000 1.0000
29.8900 594.0000 1.0000
29.9000 634.0000 1.0000
29.9100 611.0000 1.0000
29.9200 585.0000 1.0000
29.9300 637.0000 1.0000
29.9400 558.0000 1.0000
29.9500 568.0000 1.0000
29.9600 593.0000 1.0000
29.9700 595.0000 1.0000
29.9800 605.0000 1.0000
29.9900 575.0000 1.0000
30.0000 581.0000 1.0000
30.0100 580.0000 1.0000
30.0200 583.0000 1.0000
30.0300 582.0000 1.0000
30.0400 605.0000 1.0000
30.0500 604.0000 1.0000
30.0600 575.0000 1.0000
30.0700 590.0000 1.0000
30.0800 563.0000 1.0000
30.0900 614.0000 1.0000
30.1000 600.0000 1.0000
30.1100 598.0000 1.0000
30.1200 554.0000 1.0000
30.1300 603.0000 1.0000
30.1400 612.0000 1.0000
30.1500 575.0000 1.0000
30.1600 596.0000 1.0000
30.1700 561.0000 1.0000
30.1800 576.0000 1.0000
30.1900 603.0000 1.0000
30.2000 608.0000 1.0000
30.2100 598.0000 1.0000
30.2200 598.0000 1.0000
30.2300 660.0000 1.0000
30.2400 623.0000 1.0000
30.2500 557.0000 1.0000
30.2600 576.0000 1.0000
30.2700 614.0000 1.0000
30.2800 636.0000 1.0000
30.2900 595.0000 1.0000
30.3000 625.0000 1.0000
30.3100 562.0000 1.0000
30.3200 596.0000 1.0000
30.3300 586.0000 1.0000
30.3400 633.0000 1.0000
30.3500 605.0000 1.0000
30.3600 612.0000 1.0000
30.3700 598.0000 1.0000
30.3800 572.0000 1.0000
30.3900 599.0000 1.0000
30.4000 599.0000 1.0000
30.4100 550.0000 1.0000
30.4200 552.0000 1.0000
30.4300 592.0000 1.0000
30.4400 585.0000 1.0000
30.4500 587.0000 1.0000
30.4600 586.0000 1.0000
30.4700 593.0000 1.0000
30.4800 599.0000 1.0000
30.4900 576.0000 1.0000
30.5000 585.0000 1.0000
30.5100 578.0000 1.0000
30.5200 575.0000 1.0000
30.5300 568.0000 1.0000
30.5400 582.0000 1.0000
30.5500 586.0000 1.0000
30.5600 605.0000 1.0000
30.5700 594.0000 1.0000
30.5800 583.0000 1.0000
30.5900 544.0000 1.0000
30.6000 591.0000 1.0000
30.6100 603.0000 1.0000
30.6200 565.0000 1.0000
30.6300 558.0000 1.0000
30.6400 541.0000 1.0000
30.6500 566.0000 1.0000
30.6600 562.0000 1.0000
30.6700 585.0000 1.0000
30.6800 599.0000 1.0000
30.6900 594.0000 1.0000
30.7000 574.0000 1.0000
30.7100 545.0000 1.0000
30.7200 607.0000 1.0000
30.7300 589.0000 1.0000
30.7400 568.0000 1.0000
30.7500 575.0000 1.0000
30.7600 598.0000 1.0000
30.7700 554.0000 1.0000
30.7800 548.0000 1.0000
30.7900 538.0000 1.0000
30.8000 553.0000 1.0000
30.8100 542.0000 1.0000
30.8200 563.0000 1.0000
30.8300 574.0000 1.0000
30.8400 601.0000 1.0000
30.8500 543.0000 1.0000
30.8600 545.0000 1.0000
30.8700 556.0000 1.0000
30.8800 581.0000 1.0000
30.8900 573.0000 1.0000
30.9000 567.0000 1.0000
30.9100 591.0000 1.0000
30.9200 590.0000 1.0000
30.9300 645.0000 1.0000
30.9400 573.0000 1.0000
30.9500 571.0000 1.0000
30.9600 566.0000 1.0000
30.9700 573.0000 1.0000
30.9800 586.0000 1.0000
30.9900 581.0000 1.0000
31.0000 592.0000 1.0000
31.0100 579.0000 1.0000
31.0200 586.0000 1.0000
31.0300 580.0000 1.0000
31.0400 561.0000 1.0000
31.0500 573.0000 1.0000
31.0600 606.0000 1.0000
31.0700 590.0000 1.0000
31.0800 560.0000 1.0000
31.0900 584.0000 1.0000
31.1000 602.0000 1.0000
31.1100 583.0000 1.0000
31.1200 584.0000 1.0000
31.1300 592.0000 1.0000
31.1400 577.0000 1.0000
31.1500 575.0000 1.0000
31.1600 634.0000 1.0000
31.1700 595.0000 1.0000
31.1800 603.0000 1.0000
31.1900 599.0000 1.0000
31.2000 608.0000 1.0000
31.2100 612.0000 1.0000
31.2200 599.0000 1.0000
31.2300 560.0000 1.0000
31.2400 557.0000 1.0000
31.2500 625.0000 1.0000
31.2600 566.0000 1.0000
31.2700 597.0000 1.0000
31.2800 570.0000 1.0000
31.2900 574.0000 1.0000
31.3000 601.0000 1.0000
31.3100 580.0000 1.0000
31.3200 602.0000 1.0000
31.3300 606.0000 1.0000
31.3400 592.0000 1.0000
31.3500 584.0000 1.0000
31.3600 594.0000 1.0000
31.3700 542.0000 1.0000
31.3800 583.0000 1.0000
31.3900 591.0000 1.0000
31.4000 571.0000 1.0000
31.4100 558.0000 1.0000
31.4200 587.0000 1.0000
31.4300 590.0000 1.0000
31.4400 614.0000 1.0000
31.4500 559.0000 1.0000
31.4600 610.0000 1.0000
31.4700 550.0000 1.0000
31.4800 550.0000 1.0000
31.4900 567.0000 1.0000
31.5000 606.0000 1.0000
31.5100 586.0000 1.0000
31.5200 546.0000 1.0000
31.5300 560.0000 1.0000
31.5400 537.0000 1.0000
31.5500 540.0000 1.0000
31.5600 545.0000 1.0000
31.5700 580.0000 1.0000
31.5800 548.0000 1.0000
31.5900 572.0000 1.0000
31.6000 542.0000 1.0000
31.6100 554.0000 1.0000
31.6200 527.0000 1.0000
31.6300 538.0000 1.0000
31.6400 563.0000 1.0000
31.6500 564.0000 1.0000
31.6600 552.0000 1.0000
31.6700 550.0000 1.0000
31.6800 567.0000 1.0000
31.6900 588.0000 1.0000
31.7000 558.0000 1.0000
31.7100 557.0000 1.0000
31.7200 526.0000 1.0000
31.7300 566.0000 1.0000
31.7400 565.0000 1.0000
31.7500 544.0000 1.0000
31.7600 572.0000 1.0000
31.7700 581.0000 1.0000
31.7800 552.0000 1.0000
31.7900 559.0000 1.0000
31.8000 541.0000 1.0000
31.8100 560.0000 1.0000
31.8200 554.0000 1.0000
31.8300 584.0000 1.0000
31.8400 557.0000 1.0000
31.8500 538.0000 1.0000
31.8600 592.0000 1.0000
31.8700 568.0000 1.0000
31.8800 550.0000 1.0000
31.8900 539.0000 1.0000
31.9000 548.0000 1.0000
31.9100 533.0000 1.0000
31.9200 546.0000 1.0000
31.9300 555.0000 1.0000
31.9400 543.0000 1.0000
31.9500 543.0000 1.0000
31.9600 554.0000 1.0000
31.9700 547.0000 1.0000
31.9800 613.0000 1.0000
31.9900 570.0000 1.0000
32.0000 563.0000 1.0000
32.0100 588.0000 1.0000
32.0200 556.0000 1.0000
32.0300 551.0000 1.0000
32.0400 521.0000 1.0000
32.0500 531.0000 1.0000
32.0600 559.0000 1.0000
32.0700 522.0000 1.0000
32.0800 516.0000 1.0000
32.0900 551.0000 1.0000
32.1000 515.0000 1.0000
32.1100 572.0000 1.0000
32.1200 559.0000 1.0000
32.1300 536.0000 1.0000
32.1400 519.0000 1.0000
32.1500 525.0000 1.0000
32.1600 563.0000 1.0000
32.1700 574.0000 1.0000
32.1800 534.0000 1.0000
32.1900 551.0000 1.0000
32.2000 535.0000 1.0000
32.2100 541.0000 1.0000
32.2200 530.0000 1.0000
32.2300 572.0000 1.0000
32.2400 604.0000 1.0000
32.2500 549.0000 1.0000
32.2600 563.0000 1.0000
32.2700 509.0000 1.0000
32.2800 533.0000 1.0000
32.2900 544.0000 1.0000
32.3000 553.0000 1.0000
32.3100 541.0000 1.0000
32.3200 563.0000 1.0000
32.3300 549.0000 1.0000
32.3400 531.0000 1.0000
32.3500 543.0000 1.0000
32.3600 522.0000 1.0000
32.3700 549.0000 1.0000
32.3800 542.0000 1.0000
32.3900 507.0000 1.0000
32.4000 550.0000 1.0000
32.4100 563.0000 1.0000
32.4200 547.0000 1.0000
32.4300 535.0000 1.0000
32.4400 500.0000 1.0000
32.4500 548.0000 1.0000
32.4600 502.0000 1.0000
32.4700 523.0000 1.0000
32.4800 557.0000 1.0000
32.4900 552.0000 1.0000
32.5000 525.0000 1.0000
32.5100 537.0000 1.0000
32.5200 530.0000 1.0000
32.5300 554.0000 1.0000
32.5400 531.0000 1.0000
32.5500 510.0000 1.0000
32.5600 508.0000 1.0000
32.5700 558.0000 1.0000
32.5800 536.0000 1.0000
32.5900 558.0000 1.0000
32.6000 566.0000 1.0000
32.6100 520.0000 1.0000
32.6200 542.0000 1.0000
32.6300 562.0000 1.0000
32.6400 522.0000 1.0000
32.6500 507.0000 1.0000
32.6600 507.0000 1.0000
32.6700 525.0000 1.0000
32.6800 550.0000 1.0000
32.6900 526.0000 1.0000
32.7000 538.0000 1.0000
32.7100 541.0000 1.0000
32.7200 532.0000 1.0000
32.7300 514.0000 1.0000
32.7400 534.0000 1.0000
32.7500 543.0000 1.0000
32.7600 555.0000 1.0000
32.7700 534.0000 1.0000
32.7800 521.0000 1.0000
32.7900 530.0000 1.0000
32.8000 535.0000 1.0000
32.8100 548.0000 1.0000
32.8200 552.0000 1.0000
32.8300 540.0000 1.0000
32.8400 536.0000 1.0000
32.8500 558.0000 1.0000
32.8600 564.0000 1.0000
32.8700 543.0000 1.0000
32.8800 537.0000 1.0000
32.8900 530.0000 1.0000
32.9000 539.0000 1.0000
32.9100 532.0000 1.0000
32.9200 537.0000 1.0000
32.9300 572.0000 1.0000
32.9400 517.0000 1.0000
32.9500 534.0000 1.0000
32.9600 528.0000 1.0000
32.9700 564.0000 1.0000
32.9800 545.0000 1.0000
32.9900 575.0000 1.0000
33.0000 587.0000 1.0000
33.0100 554.0000 1.0000
33.0200 567.0000 1.0000
33.0300 540.0000 1.0000
33.0400 580.0000 1.0000
33.0500 603.0000 1.0000
33.0600 608.0000 1.0000
33.0700 630.0000 1.0000
33.0800 599.0000 1.0000
33.0900 608.0000 1.0000
33.1000 588.0000 1.0000
33.1100 611.0000 1.0000
33.1200 623.0000 1.0000
33.1300 608.0000 1.0000
33.1400 637.0000 1.0000
33.1500 568.0000 1.0000
33.1600 568.0000 1.0000
33.1700 567.0000 1.0000
33.1800 610.0000 1.0000
33.1900 601.0000 1.0000
33.2000 625.0000 1.0000
33.2100 588.0000 1.0000
33.2200 602.0000 1.0000
33.2300 572.0000 1.0000
33.2400 599.0000 1.0000
33.2500 592.0000 1.0000
33.2600 565.0000 1.0000
33.2700 574.0000 1.0000
33.2800 633.0000 1.0000
33.2900 625.0000 1.0000
33.3000 623.0000 1.0000
33.3100 614.0000 1.0000
33.3200 566.0000 1.0000
33.3300 588.0000 1.0000
33.3400 616.0000 1.0000
33.3500 613.0000 1.0000
33.3600 587.0000 1.0000
33.3700 614.0000 1.0000
33.3800 584.0000 1.0000
33.3900 626.0000 1.0000
33.4000 669.0000 1.0000
33.4100 644.0000 1.0000
33.4200 658.0000 1.0000
33.4300 666.0000 1.0000
33.4400 656.0000 1.0000
33.4500 652.0000 1.0000
33.4600 728.0000 1.0000
33.4700 721.0000 1.0000
33.4800 741.0000 1.0000
33.4900 776.0000 1.0000
33.5000 804.0000 1.0000
33.5100 856.0000 1.0000
33.5200 863.0000 1.0000
33.5300 919.0000 1.0000
33.5400 933.0000 1.0000
33.5500 975.0000 1.0000
33.5600 995.0000 1.0000
33.5700 1030.0000 1.0000
33.5800 1078.0000 1.0000
33.5900 1182.0000 1.0000
33.6000 1191.0000 1.0000
33.6100 1282.0000 1.0000
33.6200 1323.0000 1.0000
33.6300 1364.0000 1.0000
33.6400 1384.0000 1.0000
33.6500 1368.0000 1.0000
33.6600 1397.0000 1.0000
33.6700 1458.0000 1.0000
33.6800 1448.0000 1.0000
33.6900 1388.0000 1.0000
33.7000 1376.0000 1.0000
33.7100 1342.0000 1.0000
33.7200 1314.0000 1.0000
33.7300 1267.0000 1.0000
33.7400 1231.0000 1.0000
33.7500 1211.0000 1.0000
33.7600 1129.0000 1.0000
33.7700 1119.0000 1.0000
33.7800 1066.0000 1.0000
33.7900 996.0000 1.0000
33.8000 912.0000 1.0000
33.8100 891.0000 1.0000
33.8200 867.0000 1.0000
33.8300 852.0000 1.0000
33.8400 840.0000 1.0000
33.8500 802.0000 1.0000
33.8600 780.0000 1.0000
33.8700 782.0000 1.0000
33.8800 749.0000 1.0000
33.8900 768.0000 1.0000
33.9000 711.0000 1.0000
33.9100 642.0000 1.0000
33.9200 683.0000 1.0000
33.9300 665.0000 1.0000
33.9400 614.0000 1.0000
33.9500 643.0000 1.0000
33.9600 616.0000 1.0000
33.9700 600.0000 1.0000
33.9800 578.0000 1.0000
33.9900 608.0000 1.0000
34.0000 619.0000 1.0000
34.0100 591.0000 1.0000
34.0200 559.0000 1.0000
34.0300 556.0000 1.0000
34.0400 602.0000 1.0000
34.0500 557.0000 1.0000
34.0600 562.0000 1.0000
34.0700 583.0000 1.0000
34.0800 562.0000 1.0000
34.0900 571.0000 1.0000
34.1000 546.0000 1.0000
34.1100 514.0000 1.0000
34.1200 512.0000 1.0000
34.1300 528.0000 1.0000
34.1400 529.0000 1.0000
34.1500 534.0000 1.0000
34.1600 523.0000 1.0000
34.1700 504.0000 1.0000
34.1800 524.0000 1.0000
34.1900 545.0000 1.0000
34.2000 548.0000 1.0000
34.2100 537.0000 1.0000
34.2200 518.0000 1.0000
34.2300 531.0000 1.0000
34.2400 503.0000 1.0000
34.2500 478.0000 1.0000
34.2600 540.0000 1.0000
34.2700 500.0000 1.0000
34.2800 517.0000 1.0000
34.2900 473.0000 1.0000
34.3000 512.0000 1.0000
34.3100 518.0000 1.0000
34.3200 508.0000 1.0000
34.3300 546.0000 1.0000
34.3400 517.0000 1.0000
34.3500 484.0000 1.0000
34.3600 495.0000 1.0000
34.3700 511.0000 1.0000
34.3800 486.0000 1.0000
34.3900 483.0000 1.0000
34.4000 493.0000 1.0000
34.4100 473.0000 1.0000
34.4200 519.0000 1.0000
34.4300 503.0000 1.0000
34.4400 505.0000 1.0000
34.4500 479.0000 1.0000
34.4600 492.0000 1.0000
34.4700 497.0000 1.0000
34.4800 501.0000 1.0000
34.4900 475.0000 1.0000
34.5000 474.0000 1.0000
34.5100 461.0000 1.0000
34.5200 497.0000 1.0000
34.5300 485.0000 1.0000
34.5400 464.0000 1.0000
34.5500 481.0000 1.0000
34.5600 465.0000 1.0000
34.5700 476.0000 1.0000
34.5800 486.0000 1.0000
34.5900 488.0000 1.0000
34.6000 481.0000 1.0000
34.6100 465.0000 1.0000
34.6200 480.0000 1.0000
34.6300 464.0000 1.0000
34.6400 464.0000 1.0000
34.6500 451.0000 1.0000
34.6600 479.0000 1.0000
34.6700 483.0000 1.0000
34.6800 471.0000 1.0000
34.6900 489.0000 1.0000
34.7000 496.0000 1.0000
34.7100 443.0000 1.0000
34.7200 480.0000 1.0000
34.7300 505.0000 1.0000
34.7400 461.0000 1.0000
34.7500 447.0000 1.0000
34.7600 458.0000 1.0000
34.7700 446.0000 1.0000
34.7800 488.0000 1.0000
34.7900 472.0000 1.0000
34.8000 491.0000 1.0000
34.8100 462.0000 1.0000
34.8200 445.0000 1.0000
34.8300 470.0000 1.0000
34.8400 481.0000 1.0000
34.8500 432.0000 1.0000
34.8600 467.0000 1.0000
34.8700 465.0000 1.0000
34.8800 471.0000 1.0000
34.8900 467.0000 1.0000
34.9000 488.0000 1.0000
34.9100 467.0000 1.0000
34.9200 454.0000 1.0000
34.9300 466.0000 1.0000
34.9400 489.0000 1.0000
34.9500 477.0000 1.0000
34.9600 488.0000 1.0000
34.9700 472.0000 1.0000
34.9800 453.0000 1.0000
34.9900 447.0000 1.0000
35.0000 431.0000 1.0000
35.0100 452.0000 1.0000
35.0200 451.0000 1.0000
35.0300 473.0000 1.0000
35.0400 486.0000 1.0000
35.0500 483.0000 1.0000
35.0600 472.0000 1.0000
35.0700 449.0000 1.0000
35.0800 469.0000 1.0000
35.0900 477.0000 1.0000
35.1000 479.0000 1.0000
35.1100 432.0000 1.0000
35.1200 430.0000 1.0000
35.1300 450.0000 1.0000
35.1400 442.0000 1.0000
35.1500 445.0000 1.0000
35.1600 428.0000 1.0000
35.1700 467.0000 1.0000
35.1800 506.0000 1.0000
35.1900 474.0000 1.0000
35.2000 446.0000 1.0000
35.2100 463.0000 1.0000
35.2200 463.0000 1.0000
35.2300 446.0000 1.0000
35.2400 445.0000 1.0000
35.2500 472.0000 1.0000
35.2600 443.0000 1.0000
35.2700 475.0000 1.0000
35.2800 441.0000 1.0000
35.2900 491.0000 1.0000
35.3000 453.0000 1.0000
35.3100 447.0000 1.0000
35.3200 464.0000 1.0000
35.3300 481.0000 1.0000
35.3400 491.0000 1.0000
35.3500 476.0000 1.0000
35.3600 516.0000 1.0000
35.3700 494.0000 1.0000
35.3800 475.0000 1.0000
35.3900 540.0000 1.0000
35.4000 504.0000 1.0000
35.4100 502.0000 1.0000
35.4200 528.0000 1.0000
35.4300 537.0000 1.0000
35.4400 499.0000 1.0000
35.4500 534.0000 1.0000
35.4600 581.0000 1.0000
35.4700 596.0000 1.0000
35.4800 555.0000 1.0000
35.4900 586.0000 1.0000
35.5000 612.0000 1.0000
35.5100 661.0000 1.0000
35.5200 693.0000 1.0000
35.5300 766.0000 1.0000
35.5400 754.0000 1.0000
35.5500 768.0000 1.0000
35.5600 785.0000 1.0000
35.5700 778.0000 1.0000
35.5800 799.0000 1.0000
35.5900 770.0000 1.0000
35.6000 829.0000 1.0000
35.6100 833.0000 1.0000
35.6200 736.0000 1.0000
35.6300 782.0000 1.0000
35.6400 737.0000 1.0000
35.6500 729.0000 1.0000
35.6600 681.0000 1.0000
35.6700 695.0000 1.0000
35.6800 715.0000 1.0000
35.6900 665.0000 1.0000
35.7000 617.0000 1.0000
35.7100 590.0000 1.0000
35.7200 604.0000 1.0000
35.7300 597.0000 1.0000
35.7400 583.0000 1.0000
35.7500 516.0000 1.0000
35.7600 522.0000 1.0000
35.7700 484.0000 1.0000
35.7800 493.0000 1.0000
35.7900 522.0000 1.0000
35.8000 470.0000 1.0000
35.8100 461.0000 1.0000
35.8200 470.0000 1.0000
35.8300 462.0000 1.0000
35.8400 454.0000 1.0000
35.8500 447.0000 1.0000
35.8600 457.0000 1.0000
35.8700 448.0000 1.0000
35.8800 431.0000 1.0000
35.8900 454.0000 1.0000
35.9000 427.0000 1.0000
35.9100 428.0000 1.0000
35.9200 451.0000 1.0000
35.9300 458.0000 1.0000
35.9400 444.0000 1.0000
35.9500 463.0000 1.0000
35.9600 405.0000 1.0000
35.9700 432.0000 1.0000
35.9800 442.0000 1.0000
35.9900 452.0000 1.0000
36.0000 411.0000 1.0000
36.0100 398.0000 1.0000
36.0200 424.0000 1.0000
36.0300 426.0000 1.0000
36.0400 444.0000 1.0000
36.0500 445.0000 1.0000
36.0600 423.0000 1.0000
36.0700 430.0000 1.0000
36.0800 423.0000 1.0000
36.0900 438.0000 1.0000
36.1000 441.0000 1.0000
36.1100 429.0000 1.0000
36.1200 418.0000 1.0000
36.1300 461.0000 1.0000
36.1400 461.0000 1.0000
36.1500 399.0000 1.0000
36.1600 410.0000 1.0000
36.1700 440.0000 1.0000
36.1800 422.0000 1.0000
36.1900 412.0000 1.0000
36.2000 422.0000 1.0000
36.2100 424.0000 1.0000
36.2200 420.0000 1.0000
36.2300 455.0000 1.0000
36.2400 415.0000 1.0000
36.2500 417.0000 1.0000
36.2600 414.0000 1.0000
36.2700 392.0000 1.0000
36.2800 403.0000 1.0000
36.2900 448.0000 1.0000
36.3000 448.0000 1.0000
36.3100 440.0000 1.0000
36.3200 427.0000 1.0000
36.3300 444.0000 1.0000
36.3400 417.0000 1.0000
36.3500 413.0000 1.0000
36.3600 421.0000 1.0000
36.3700 402.0000 1.0000
36.3800 461.0000 1.0000
36.3900 425.0000 1.0000
36.4000 417.0000 1.0000
36.4100 439.0000 1.0000
36.4200 431.0000 1.0000
36.4300 440.0000 1.0000
36.4400 409.0000 1.0000
36.4500 449.0000 1.0000
36.4600 421.0000 1.0000
36.4700 411.0000 1.0000
36.4800 428.0000 1.0000
36.4900 455.0000 1.0000
36.5000 408.0000 1.0000
36.5100 417.0000 1.0000
36.5200 436.0000 1.0000
36.5300 426.0000 1.0000
36.5400 448.0000 1.0000
36.5500 404.0000 1.0000
36.5600 409.0000 1.0000
36.5700 449.0000 1.0000
36.5800 441.0000 1.0000
36.5900 400.0000 1.0000
36.6000 380.0000 1.0000
36.6100 409.0000 1.0000
36.6200 399.0000 1.0000
36.6300 426.0000 1.0000
36.6400 450.0000 1.0000
36.6500 461.0000 1.0000
36.6600 401.0000 1.0000
36.6700 405.0000 1.0000
36.6800 428.0000 1.0000
36.6900 407.0000 1.0000
36.7000 425.0000 1.0000
36.7100 433.0000 1.0000
36.7200 423.0000 1.0000
36.7300 410.0000 1.0000
36.7400 418.0000 1.0000
36.7500 423.0000 1.0000
36.7600 453.0000 1.0000
36.7700 459.0000 1.0000
36.7800 425.0000 1.0000
36.7900 396.0000 1.0000
36.8000 415.0000 1.0000
36.8100 394.0000 1.0000
36.8200 413.0000 1.0000
36.8300 448.0000 1.0000
36.8400 399.0000 1.0000
36.8500 411.0000 1.0000
36.8600 427.0000 1.0000
36.8700 413.0000 1.0000
36.8800 405.0000 1.0000
36.8900 439.0000 1.0000
36.9000 410.0000 1.0000
36.9100 416.0000 1.0000
36.9200 415.0000 1.0000
36.9300 402.0000 1.0000
36.9400 430.0000 1.0000
36.9500 416.0000 1.0000
36.9600 406.0000 1.0000
36.9700 424.0000 1.0000
36.9800 451.0000 1.0000
36.9900 431.0000 1.0000
37.0000 426.0000 1.0000
37.0100 404.0000 1.0000
37.0200 412.0000 1.0000
37.0300 455.0000 1.0000
37.0400 472.0000 1.0000
37.0500 464.0000 1.0000
37.0600 436.0000 1.0000
37.0700 392.0000 1.0000
37.0800 444.0000 1.0000
37.0900 451.0000 1.0000
37.1000 422.0000 1.0000
37.1100 439.0000 1.0000
37.1200 412.0000 1.0000
37.1300 412.0000 1.0000
37.1400 421.0000 1.0000
37.1500 458.0000 1.0000
37.1600 428.0000 1.0000
37.1700 418.0000 1.0000
37.1800 445.0000 1.0000
37.1900 427.0000 1.0000
37.2000 452.0000 1.0000
37.2100 422.0000 1.0000
37.2200 440.0000 1.0000
37.2300 449.0000 1.0000
37.2400 443.0000 1.0000
37.2500 454.0000 1.0000
37.2600 466.0000 1.0000
37.2700 462.0000 1.0000
37.2800 462.0000 1.0000
37.2900 444.0000 1.0000
37.3000 459.0000 1.0000
37.3100 479.0000 1.0000
37.3200 478.0000 1.0000
37.3300 506.0000 1.0000
37.3400 505.0000 1.0000
37.3500 513.0000 1.0000
37.3600 517.0000 1.0000
37.3700 503.0000 1.0000
37.3800 485.0000 1.0000
37.3900 538.0000 1.0000
37.4000 543.0000 1.0000
37.4100 586.0000 1.0000
37.4200 595.0000 1.0000
37.4300 618.0000 1.0000
37.4400 651.0000 1.0000
37.4500 646.0000 1.0000
37.4600 646.0000 1.0000
37.4700 673.0000 1.0000
37.4800 698.0000 1.0000
37.4900 756.0000 1.0000
37.5000 706.0000 1.0000
37.5100 761.0000 1.0000
37.5200 838.0000 1.0000
37.5300 886.0000 1.0000
37.5400 900.0000 1.0000
37.5500 921.0000 1.0000
37.5600 1023.0000 1.0000
37.5700 1096.0000 1.0000
37.5800 1154.0000 1.0000
37.5900 1241.0000 1.0000
37.6000 1339.0000 1.0000
37.6100 1377.0000 1.0000
37.6200 1442.0000 1.0000
37.6300 1590.0000 1.0000
37.6400 1639.0000 1.0000
37.6500 1734.0000 1.0000
37.6600 1860.0000 1.0000
37.6700 1962.0000 1.0000
37.6800 2050.0000 1.0000
37.6900 2098.0000 1.0000
37.7000 2134.0000 1.0000
37.7100 2139.0000 1.0000
37.7200 2182.0000 1.0000
37.7300 2145.0000 1.0000
37.7400 2190.0000 1.0000
37.7500 2042.0000 1.0000
37.7600 2089.0000 1.0000
37.7700 2087.0000 1.0000
37.7800 1926.0000 1.0000
37.7900 1872.0000 1.0000
37.8000 1837.0000 1.0000
37.8100 1850.0000 1.0000
37.8200 1710.0000 1.0000
37.8300 1662.0000 1.0000
37.8400 1613.0000 1.0000
37.8500 1398.0000 1.0000
37.8600 1367.0000 1.0000
37.8700 1271.0000 1.0000
37.8800 1230.0000 1.0000
37.8900 1122.0000 1.0000
37.9000 1056.0000 1.0000
37.9100 1010.0000 1.0000
37.9200 992.0000 1.0000
37.9300 902.0000 1.0000
37.9400 857.0000 1.0000
37.9500 777.0000 1.0000
37.9600 795.0000 1.0000
37.9700 745.0000 1.0000
37.9800 670.0000 1.0000
37.9900 668.0000 1.0000
38.0000 614.0000 1.0000
38.0100 620.0000 1.0000
38.0200 583.0000 1.0000
38.0300 598.0000 1.0000
38.0400 608.0000 1.0000
38.0500 576.0000 1.0000
38.0600 545.0000 1.0000
38.0700 522.0000 1.0000
38.0800 527.0000 1.0000
38.0900 514.0000 1.0000
38.1000 484.0000 1.0000
38.1100 471.0000 1.0000
38.1200 464.0000 1.0000
38.1300 468.0000 1.0000
38.1400 486.0000 1.0000
38.1500 474.0000 1.0000
38.1600 458.0000 1.0000
38.1700 438.0000 1.0000
38.1800 451.0000 1.0000
38.1900 427.0000 1.0000
38.2000 415.0000 1.0000
38.2100 457.0000 1.0000
38.2200 419.0000 1.0000
38.2300 423.0000 1.0000
38.2400 428.0000 1.0000
38.2500 469.0000 1.0000
38.2600 411.0000 1.0000
38.2700 395.0000 1.0000
38.2800 417.0000 1.0000
38.2900 422.0000 1.0000
38.3000 410.0000 1.0000
38.3100 384.0000 1.0000
38.3200 389.0000 1.0000
38.3300 426.0000 1.0000
38.3400 389.0000 1.0000
38.3500 403.0000 1.0000
38.3600 426.0000 1.0000
38.3700 395.0000 1.0000
38.3800 424.0000 1.0000
38.3900 392.0000 1.0000
38.4000 377.0000 1.0000
38.4100 404.0000 1.0000
38.4200 392.0000 1.0000
38.4300 390.0000 1.0000
38.4400 342.0000 1.0000
38.4500 380.0000 1.0000
38.4600 397.0000 1.0000
38.4700 384.0000 1.0000
38.4800 386.0000 1.0000
38.4900 395.0000 1.0000
38.5000 429.0000 1.0000
38.5100 395.0000 1.0000
38.5200 395.0000 1.0000
38.5300 390.0000 1.0000
38.5400 357.0000 1.0000
38.5500 377.0000 1.0000
38.5600 393.0000 1.0000
38.5700 390.0000 1.0000
38.5800 399.0000 1.0000
38.5900 375.0000 1.0000
38.6000 387.0000 1.0000
38.6100 388.0000 1.0000
38.6200 413.0000 1.0000
38.6300 379.0000 1.0000
38.6400 380.0000 1.0000
38.6500 364.0000 1.0000
38.6600 387.0000 1.0000
38.6700 377.0000 1.0000
38.6800 363.0000 1.0000
38.6900 405.0000 1.0000
38.7000 385.0000 1.0000
38.7100 383.0000 1.0000
38.7200 380.0000 1.0000
38.7300 390.0000 1.0000
38.7400 395.0000 1.0000
38.7500 433.0000 1.0000
38.7600 410.0000 1.0000
38.7700 388.0000 1.0000
38.7800 408.0000 1.0000
38.7900 407.0000 1.0000
38.8000 404.0000 1.0000
38.8100 414.0000 1.0000
38.8200 376.0000 1.0000
38.8300 400.0000 1.0000
38.8400 383.0000 1.0000
38.8500 376.0000 1.0000
38.8600 420.0000 1.0000
38.8700 420.0000 1.0000
38.8800 364.0000 1.0000
38.8900 390.0000 1.0000
38.9000 386.0000 1.0000
38.9100 386.0000 1.0000
38.9200 371.0000 1.0000
38.9300 373.0000 1.0000
38.9400 396.0000 1.0000
38.9500 385.0000 1.0000
38.9600 376.0000 1.0000
38.9700 383.0000 1.0000
38.9800 368.0000 1.0000
38.9900 378.0000 1.0000
39.0000 375.0000 1.0000
39.0100 379.0000 1.0000
39.0200 342.0000 1.0000
39.0300 375.0000 1.0000
39.0400 340.0000 1.0000
39.0500 357.0000 1.0000
39.0600 357.0000 1.0000
39.0700 392.0000 1.0000
39.0800 375.0000 1.0000
39.0900 362.0000 1.0000
39.1000 358.0000 1.0000
39.1100 359.0000 1.0000
39.1200 335.0000 1.0000
39.1300 377.0000 1.0000
39.1400 365.0000 1.0000
39.1500 373.0000 1.0000
39.1600 381.0000 1.0000
39.1700 338.0000 1.0000
39.1800 355.0000 1.0000
39.1900 366.0000 1.0000
39.2000 379.0000 1.0000
39.2100 375.0000 1.0000
39.2200 367.0000 1.0000
39.2300 371.0000 1.0000
39.2400 373.0000 1.0000
39.2500 393.0000 1.0000
39.2600 369.0000 1.0000
39.2700 395.0000 1.0000
39.2800 379.0000 1.0000
39.2900 325.0000 1.0000
39.3000 355.0000 1.0000
39.3100 337.0000 1.0000
39.3200 342.0000 1.0000
39.3300 355.0000 1.0000
39.3400 350.0000 1.0000
39.3500 372.0000 1.0000
39.3600 357.0000 1.0000
39.3700 362.0000 1.0000
39.3800 363.0000 1.0000
39.3900 327.0000 1.0000
39.4000 332.0000 1.0000
39.4100 374.0000 1.0000
39.4200 327.0000 1.0000
39.4300 347.0000 1.0000
39.4400 350.0000 1.0000
39.4500 348.0000 1.0000
39.4600 368.0000 1.0000
39.4700 346.0000 1.0000
39.4800 370.0000 1.0000
39.4900 356.0000 1.0000
39.5000 374.0000 1.0000
39.5100 363.0000 1.0000
39.5200 367.0000 1.0000
39.5300 342.0000 1.0000
39.5400 346.0000 1.0000
39.5500 336.0000 1.0000
39.5600 357.0000 1.0000
39.5700 336.0000 1.0000
39.5800 334.0000 1.0000
39.5900 346.0000 1.0000
39.6000 345.0000 1.0000
39.6100 342.0000 1.0000
39.6200 370.0000 1.0000
39.6300 355.0000 1.0000
39.6400 351.0000 1.0000
39.6500 337.0000 1.0000
39.6600 327.0000 1.0000
39.6700 336.0000 1.0000
39.6800 347.0000 1.0000
39.6900 353.0000 1.0000
39.7000 352.0000 1.0000
39.7100 373.0000 1.0000
39.7200 335.0000 1.0000
39.7300 365.0000 1.0000
39.7400 346.0000 1.0000
39.7500 382.0000 1.0000
39.7600 371.0000 1.0000
39.7700 347.0000 1.0000
39.7800 353.0000 1.0000
39.7900 354.0000 1.0000
39.8000 364.0000 1.0000
39.8100 358.0000 1.0000
39.8200 314.0000 1.0000
39.8300 356.0000 1.0000
39.8400 350.0000 1.0000
39.8500 348.0000 1.0000
39.8600 331.0000 1.0000
39.8700 305.0000 1.0000
39.8800 340.0000 1.0000
39.8900 339.0000 1.0000
39.9000 344.0000 1.0000
39.9100 329.0000 1.0000
39.9200 346.0000 1.0000
39.9300 345.0000 1.0000
39.9400 342.0000 1.0000
39.9500 347.0000 1.0000
39.9600 333.0000 1.0000
39.9700 347.0000 1.0000
39.9800 342.0000 1.0000
39.9900 350.0000 1.0000
40.0000 355.0000 1.0000
40.0100 350.0000 1.0000
40.0200 337.0000 1.0000
40.0300 350.0000 1.0000
40.0400 357.0000 1.0000
40.0500 370.0000 1.0000
40.0600 366.0000 1.0000
40.0700 378.0000 1.0000
40.0800 351.0000 1.0000
40.0900 371.0000 1.0000
40.1000 346.0000 1.0000
40.1100 332.0000 1.0000
40.1200 327.0000 1.0000
40.1300 315.0000 1.0000
40.1400 354.0000 1.0000
40.1500 346.0000 1.0000
40.1600 347.0000 1.0000
40.1700 333.0000 1.0000
40.1800 348.0000 1.0000
40.1900 301.0000 1.0000
40.2000 327.0000 1.0000
40.2100 329.0000 1.0000
40.2200 328.0000 1.0000
40.2300 337.0000 1.0000
40.2400 337.0000 1.0000
40.2500 369.0000 1.0000
40.2600 388.0000 1.0000
40.2700 345.0000 1.0000
40.2800 357.0000 1.0000
40.2900 374.0000 1.0000
40.3000 360.0000 1.0000
40.3100 355.0000 1.0000
40.3200 360.0000 1.0000
40.3300 312.0000 1.0000
40.3400 328.0000 1.0000
40.3500 341.0000 1.0000
40.3600 371.0000 1.0000
40.3700 352.0000 1.0000
40.3800 356.0000 1.0000
40.3900 342.0000 1.0000
40.4000 361.0000 1.0000
40.4100 344.0000 1.0000
40.4200 329.0000 1.0000
40.4300 346.0000 1.0000
40.4400 342.0000 1.0000
40.4500 331.0000 1.0000
40.4600 317.0000 1.0000
40.4700 356.0000 1.0000
40.4800 354.0000 1.0000
40.4900 333.0000 1.0000
40.5000 316.0000 1.0000
40.5100 333.0000 1.0000
40.5200 344.0000 1.0000
40.5300 341.0000 1.0000
40.5400 336.0000 1.0000
40.5500 373.0000 1.0000
40.5600 327.0000 1.0000
40.5700 339.0000 1.0000
40.5800 345.0000 1.0000
40.5900 375.0000 1.0000
40.6000 351.0000 1.0000
40.6100 329.0000 1.0000
40.6200 342.0000 1.0000
40.6300 361.0000 1.0000
40.6400 361.0000 1.0000
40.6500 320.0000 1.0000
40.6600 324.0000 1.0000
40.6700 355.0000 1.0000
40.6800 378.0000 1.0000
40.6900 390.0000 1.0000
40.7000 364.0000 1.0000
40.7100 355.0000 1.0000
40.7200 321.0000 1.0000
40.7300 331.0000 1.0000
40.7400 366.0000 1.0000
40.7500 346.0000 1.0000
40.7600 302.0000 1.0000
40.7700 357.0000 1.0000
40.7800 370.0000 1.0000
40.7900 365.0000 1.0000
40.8000 369.0000 1.0000
40.8100 373.0000 1.0000
40.8200 370.0000 1.0000
40.8300 364.0000 1.0000
40.8400 360.0000 1.0000
40.8500 354.0000 1.0000
40.8600 367.0000 1.0000
40.8700 343.0000 1.0000
40.8800 339.0000 1.0000
40.8900 385.0000 1.0000
40.9000 373.0000 1.0000
40.9100 348.0000 1.0000
40.9200 376.0000 1.0000
40.9300 371.0000 1.0000
40.9400 322.0000 1.0000
40.9500 338.0000 1.0000
40.9600 354.0000 1.0000
40.9700 312.0000 1.0000
40.9800 368.0000 1.0000
40.9900 330.0000 1.0000
41.0000 339.0000 1.0000
41.0100 323.0000 1.0000
41.0200 322.0000 1.0000
41.0300 350.0000 1.0000
41.0400 351.0000 1.0000
41.0500 360.0000 1.0000
41.0600 356.0000 1.0000
41.0700 339.0000 1.0000
41.0800 328.0000 1.0000
41.0900 359.0000 1.0000
41.1000 343.0000 1.0000
41.1100 336.0000 1.0000
41.1200 344.0000 1.0000
41.1300 348.0000 1.0000
41.1400 338.0000 1.0000
41.1500 321.0000 1.0000
41.1600 336.0000 1.0000
41.1700 351.0000 1.0000
41.1800 308.0000 1.0000
41.1900 324.0000 1.0000
41.2000 329.0000 1.0000
41.2100 318.0000 1.0000
41.2200 357.0000 1.0000
41.2300 341.0000 1.0000
41.2400 328.0000 1.0000
41.2500 331.0000 1.0000
41.2600 316.0000 1.0000
41.2700 350.0000 1.0000
41.2800 338.0000 1.0000
41.2900 322.0000 1.0000
41.3000 311.0000 1.0000
41.3100 342.0000 1.0000
41.3200 349.0000 1.0000
41.3300 320.0000 1.0000
41.3400 330.0000 1.0000
41.3500 341.0000 1.0000
41.3600 359.0000 1.0000
41.3700 351.0000 1.0000
41.3800 369.0000 1.0000
41.3900 344.0000 1.0000
41.4000 325.0000 1.0000
41.4100 308.0000 1.0000
41.4200 315.0000 1.0000
41.4300 310.0000 1.0000
41.4400 322.0000 1.0000
41.4500 335.0000 1.0000
41.4600 318.0000 1.0000
41.4700 343.0000 1.0000
41.4800 347.0000 1.0000
41.4900 351.0000 1.0000
41.5000 328.0000 1.0000
41.5100 337.0000 1.0000
41.5200 317.0000 1.0000
41.5300 335.0000 1.0000
41.5400 331.0000 1.0000
41.5500 354.0000 1.0000
41.5600 356.0000 1.0000
41.5700 377.0000 1.0000
41.5800 330.0000 1.0000
41.5900 327.0000 1.0000
41.6000 326.0000 1.0000
41.6100 334.0000 1.0000
41.6200 339.0000 1.0000
41.6300 311.0000 1.0000
41.6400 315.0000 1.0000
41.6500 311.0000 1.0000
41.6600 342.0000 1.0000
41.6700 335.0000 1.0000
41.6800 329.0000 1.0000
41.6900 312.0000 1.0000
41.7000 336.0000 1.0000
41.7100 349.0000 1.0000
41.7200 314.0000 1.0000
41.7300 335.0000 1.0000
41.7400 335.0000 1.0000
41.7500 342.0000 1.0000
41.7600 337.0000 1.0000
41.7700 349.0000 1.0000
41.7800 327.0000 1.0000
41.7900 328.0000 1.0000
41.8000 323.0000 1.0000
41.8100 310.0000 1.0000
41.8200 333.0000 1.0000
41.8300 332.0000 1.0000
41.8400 343.0000 1.0000
41.8500 323.0000 1.0000
41.8600 343.0000 1.0000
41.8700 343.0000 1.0000
41.8800 330.0000 1.0000
41.8900 362.0000 1.0000
41.9000 333.0000 1.0000
41.9100 333.0000 1.0000
41.9200 344.0000 1.0000
41.9300 343.0000 1.0000
41.9400 352.0000 1.0000
41.9500 305.0000 1.0000
41.9600 310.0000 1.0000
41.9700 347.0000 1.0000
41.9800 343.0000 1.0000
41.9900 332.0000 1.0000
42.0000 323.0000 1.0000
42.0100 322.0000 1.0000
42.0200 352.0000 1.0000
42.0300 345.0000 1.0000
42.0400 313.0000 1.0000
42.0500 315.0000 1.0000
42.0600 327.0000 1.0000
42.0700 315.0000 1.0000
42.0800 345.0000 1.0000
42.0900 362.0000 1.0000
42.1000 330.0000 1.0000
42.1100 348.0000 1.0000
42.1200 344.0000 1.0000
42.1300 332.0000 1.0000
42.1400 315.0000 1.0000
42.1500 340.0000 1.0000
42.1600 341.0000 1.0000
42.1700 341.0000 1.0000
42.1800 348.0000 1.0000
42.1900 378.0000 1.0000
42.2000 342.0000 1.0000
42.2100 319.0000 1.0000
42.2200 331.0000 1.0000
42.2300 353.0000 1.0000
42.2400 314.0000 1.0000
42.2500 342.0000 1.0000
42.2600 337.0000 1.0000
42.2700 330.0000 1.0000
42.2800 349.0000 1.0000
42.2900 337.0000 1.0000
42.3000 360.0000 1.0000
42.3100 325.0000 1.0000
42.3200 329.0000 1.0000
42.3300 380.0000 1.0000
42.3400 352.0000 1.0000
42.3500 359.0000 1.0000
42.3600 387.0000 1.0000
42.3700 362.0000 1.0000
42.3800 365.0000 1.0000
42.3900 360.0000 1.0000
42.4000 353.0000 1.0000
42.4100 333.0000 1.0000
42.4200 355.0000 1.0000
42.4300 381.0000 1.0000
42.4400 378.0000 1.0000
42.4500 376.0000 1.0000
42.4600 377.0000 1.0000
42.4700 366.0000 1.0000
42.4800 364.0000 1.0000
42.4900 377.0000 1.0000
42.5000 337.0000 1.0000
42.5100 359.0000 1.0000
42.5200 347.0000 1.0000
42.5300 336.0000 1.0000
42.5400 360.0000 1.0000
42.5500 370.0000 1.0000
42.5600 326.0000 1.0000
42.5700 376.0000 1.0000
42.5800 326.0000 1.0000
42.5900 335.0000 1.0000
42.6000 360.0000 1.0000
42.6100 349.0000 1.0000
42.6200 337.0000 1.0000
42.6300 347.0000 1.0000
42.6400 341.0000 1.0000
42.6500 356.0000 1.0000
42.6600 347.0000 1.0000
42.6700 321.0000 1.0000
42.6800 336.0000 1.0000
42.6900 331.0000 1.0000
42.7000 304.0000 1.0000
42.7100 343.0000 1.0000
42.7200 297.0000 1.0000
42.7300 359.0000 1.0000
42.7400 325.0000 1.0000
42.7500 328.0000 1.0000
42.7600 315.0000 1.0000
42.7700 328.0000 1.0000
42.7800 328.0000 1.0000
42.7900 324.0000 1.0000
42.8000 327.0000 1.0000
42.8100 346.0000 1.0000
42.8200 336.0000 1.0000
42.8300 329.0000 1.0000
42.8400 329.0000 1.0000
42.8500 333.0000 1.0000
42.8600 304.0000 1.0000
42.8700 324.0000 1.0000
42.8800 317.0000 1.0000
42.8900 328.0000 1.0000
42.9000 347.0000 1.0000
42.9100 316.0000 1.0000
42.9200 347.0000 1.0000
42.9300 341.0000 1.0000
42.9400 309.0000 1.0000
42.9500 340.0000 1.0000
42.9600 357.0000 1.0000
42.9700 347.0000 1.0000
42.9800 356.0000 1.0000
42.9900 311.0000 1.0000
43.0000 340.0000 1.0000
43.0100 322.0000 1.0000
43.0200 332.0000 1.0000
43.0300 335.0000 1.0000
43.0400 338.0000 1.0000
43.0500 344.0000 1.0000
43.0600 310.0000 1.0000
43.0700 334.0000 1.0000
43.0800 323.0000 1.0000
43.0900 326.0000 1.0000
43.1000 344.0000 1.0000
43.1100 310.0000 1.0000
43.1200 317.0000 1.0000
43.1300 344.0000 1.0000
43.1400 306.0000 1.0000
43.1500 342.0000 1.0000
43.1600 307.0000 1.0000
43.1700 314.0000 1.0000
43.1800 299.0000 1.0000
43.1900 314.0000 1.0000
43.2000 340.0000 1.0000
43.2100 326.0000 1.0000
43.2200 341.0000 1.0000
43.2300 338.0000 1.0000
43.2400 329.0000 1.0000
43.2500 329.0000 1.0000
43.2600 335.0000 1.0000
43.2700 327.0000 1.0000
43.2800 360.0000 1.0000
43.2900 307.0000 1.0000
43.3000 306.0000 1.0000
43.3100 342.0000 1.0000
43.3200 351.0000 1.0000
43.3300 326.0000 1.0000
43.3400 336.0000 1.0000
43.3500 365.0000 1.0000
43.3600 320.0000 1.0000
43.3700 323.0000 1.0000
43.3800 346.0000 1.0000
43.3900 340.0000 1.0000
43.4000 342.0000 1.0000
43.4100 311.0000 1.0000
43.4200 328.0000 1.0000
43.4300 321.0000 1.0000
43.4400 303.0000 1.0000
43.4500 330.0000 1.0000
43.4600 297.0000 1.0000
43.4700 338.0000 1.0000
43.4800 349.0000 1.0000
43.4900 338.0000 1.0000
43.5000 333.0000 1.0000
43.5100 313.0000 1.0000
43.5200 317.0000 1.0000
43.5300 299.0000 1.0000
43.5400 307.0000 1.0000
43.5500 333.0000 1.0000
43.5600 306.0000 1.0000
43.5700 316.0000 1.0000
43.5800 327.0000 1.0000
43.5900 331.0000 1.0000
43.6000 317.0000 1.0000
43.6100 334.0000 1.0000
43.6200 331.0000 1.0000
43.6300 341.0000 1.0000
43.6400 355.0000 1.0000
43.6500 325.0000 1.0000
43.6600 338.0000 1.0000
43.6700 328.0000 1.0000
43.6800 296.0000 1.0000
43.6900 308.0000 1.0000
43.7000 323.0000 1.0000
43.7100 318.0000 1.0000
43.7200 335.0000 1.0000
43.7300 357.0000 1.0000
43.7400 339.0000 1.0000
43.7500 326.0000 1.0000
43.7600 307.0000 1.0000
43.7700 314.0000 1.0000
43.7800 327.0000 1.0000
43.7900 299.0000 1.0000
43.8000 307.0000 1.0000
43.8100 303.0000 1.0000
43.8200 319.0000 1.0000
43.8300 332.0000 1.0000
43.8400 310.0000 1.0000
43.8500 323.0000 1.0000
43.8600 316.0000 1.0000
43.8700 292.0000 1.0000
43.8800 297.0000 1.0000
43.8900 357.0000 1.0000
43.9000 320.0000 1.0000
43.9100 330.0000 1.0000
43.9200 317.0000 1.0000
43.9300 293.0000 1.0000
43.9400 321.0000 1.0000
43.9500 297.0000 1.0000
43.9600 300.0000 1.0000
43.9700 315.0000 1.0000
43.9800 307.0000 1.0000
43.9900 318.0000 1.0000
44.0000 313.0000 1.0000
44.0100 313.0000 1.0000
44.0200 302.0000 1.0000
44.0300 306.0000 1.0000
44.0400 316.0000 1.0000
44.0500 283.0000 1.0000
44.0600 299.0000 1.0000
44.0700 324.0000 1.0000
44.0800 346.0000 1.0000
44.0900 316.0000 1.0000
44.1000 314.0000 1.0000
44.1100 350.0000 1.0000
44.1200 331.0000 1.0000
44.1300 330.0000 1.0000
44.1400 316.0000 1.0000
44.1500 317.0000 1.0000
44.1600 301.0000 1.0000
44.1700 323.0000 1.0000
44.1800 297.0000 1.0000
44.1900 311.0000 1.0000
44.2000 298.0000 1.0000
44.2100 317.0000 1.0000
44.2200 310.0000 1.0000
44.2300 343.0000 1.0000
44.2400 331.0000 1.0000
44.2500 309.0000 1.0000
44.2600 339.0000 1.0000
44.2700 328.0000 1.0000
44.2800 322.0000 1.0000
44.2900 294.0000 1.0000
44.3000 313.0000 1.0000
44.3100 321.0000 1.0000
44.3200 323.0000 1.0000
44.3300 318.0000 1.0000
44.3400 342.0000 1.0000
44.3500 343.0000 1.0000
44.3600 357.0000 1.0000
44.3700 342.0000 1.0000
44.3800 314.0000 1.0000
44.3900 303.0000 1.0000
44.4000 320.0000 1.0000
44.4100 337.0000 1.0000
44.4200 317.0000 1.0000
44.4300 312.0000 1.0000
44.4400 340.0000 1.0000
44.4500 315.0000 1.0000
44.4600 320.0000 1.0000
44.4700 311.0000 1.0000
44.4800 288.0000 1.0000
44.4900 300.0000 1.0000
44.5000 306.0000 1.0000
44.5100 327.0000 1.0000
44.5200 301.0000 1.0000
44.5300 314.0000 1.0000
44.5400 325.0000 1.0000
44.5500 343.0000 1.0000
44.5600 304.0000 1.0000
44.5700 303.0000 1.0000
44.5800 316.0000 1.0000
44.5900 326.0000 1.0000
44.6000 337.0000 1.0000
44.6100 314.0000 1.0000
44.6200 305.0000 1.0000
44.6300 322.0000 1.0000
44.6400 325.0000 1.0000
44.6500 323.0000 1.0000
44.6600 299.0000 1.0000
44.6700 323.0000 1.0000
44.6800 305.0000 1.0000
44.6900 309.0000 1.0000
44.7000 310.0000 1.0000
44.7100 293.0000 1.0000
44.7200 293.0000 1.0000
44.7300 310.0000 1.0000
44.7400 308.0000 1.0000
44.7500 319.0000 1.0000
44.7600 303.0000 1.0000
44.7700 323.0000 1.0000
44.7800 318.0000 1.0000
44.7900 308.0000 1.0000
44.8000 302.0000 1.0000
44.8100 293.0000 1.0000
44.8200 320.0000 1.0000
44.8300 309.0000 1.0000
44.8400 325.0000 1.0000
44.8500 307.0000 1.0000
44.8600 298.0000 1.0000
44.8700 295.0000 1.0000
44.8800 327.0000 1.0000
44.8900 330.0000 1.0000
44.9000 316.0000 1.0000
44.9100 333.0000 1.0000
44.9200 308.0000 1.0000
44.9300 310.0000 1.0000
44.9400 319.0000 1.0000
44.9500 307.0000 1.0000
44.9600 314.0000 1.0000
44.9700 294.0000 1.0000
44.9800 291.0000 1.0000
44.9900 304.0000 1.0000
45.0000 311.0000 1.0000
45.0100 332.0000 1.0000
45.0200 301.0000 1.0000
45.0300 303.0000 1.0000
45.0400 312.0000 1.0000
45.0500 338.0000 1.0000
45.0600 334.0000 1.0000
45.0700 325.0000 1.0000
45.0800 295.0000 1.0000
45.0900 303.0000 1.0000
45.1000 320.0000 1.0000
45.1100 303.0000 1.0000
45.1200 305.0000 1.0000
45.1300 294.0000 1.0000
45.1400 323.0000 1.0000
45.1500 312.0000 1.0000
45.1600 300.0000 1.0000
45.1700 308.0000 1.0000
45.1800 327.0000 1.0000
45.1900 318.0000 1.0000
45.2000 299.0000 1.0000
45.2100 325.0000 1.0000
45.2200 280.0000 1.0000
45.2300 338.0000 1.0000
45.2400 307.0000 1.0000
45.2500 308.0000 1.0000
45.2600 332.0000 1.0000
45.2700 343.0000 1.0000
45.2800 313.0000 1.0000
45.2900 303.0000 1.0000
45.3000 290.0000 1.0000
45.3100 301.0000 1.0000
45.3200 304.0000 1.0000
45.3300 291.0000 1.0000
45.3400 310.0000 1.0000
45.3500 295.0000 1.0000
45.3600 299.0000 1.0000
45.3700 314.0000 1.0000
45.3800 286.0000 1.0000
45.3900 300.0000 1.0000
45.4000 291.0000 1.0000
45.4100 310.0000 1.0000
45.4200 326.0000 1.0000
45.4300 318.0000 1.0000
45.4400 295.0000 1.0000
45.4500 302.0000 1.0000
45.4600 303.0000 1.0000
45.4700 303.0000 1.0000
45.4800 298.0000 1.0000
45.4900 289.0000 1.0000
45.5000 311.0000 1.0000
45.5100 301.0000 1.0000
45.5200 299.0000 1.0000
45.5300 299.0000 1.0000
45.5400 325.0000 1.0000
45.5500 301.0000 1.0000
45.5600 302.0000 1.0000
45.5700 296.0000 1.0000
45.5800 299.0000 1.0000
45.5900 297.0000 1.0000
45.6000 313.0000 1.0000
45.6100 328.0000 1.0000
45.6200 303.0000 1.0000
45.6300 297.0000 1.0000
45.6400 301.0000 1.0000
45.6500 309.0000 1.0000
45.6600 300.0000 1.0000
45.6700 316.0000 1.0000
45.6800 298.0000 1.0000
45.6900 309.0000 1.0000
45.7000 328.0000 1.0000
45.7100 299.0000 1.0000
45.7200 297.0000 1.0000
45.7300 308.0000 1.0000
45.7400 302.0000 1.0000
45.7500 302.0000 1.0000
45.7600 284.0000 1.0000
45.7700 285.0000 1.0000
45.7800 290.0000 1.0000
45.7900 309.0000 1.0000
45.8000 288.0000 1.0000
45.8100 312.0000 1.0000
45.8200 299.0000 1.0000
45.8300 297.0000 1.0000
45.8400 268.0000 1.0000
45.8500 316.0000 1.0000
45.8600 298.0000 1.0000
45.8700 283.0000 1.0000
45.8800 296.0000 1.0000
45.8900 287.0000 1.0000
45.9000 290.0000 1.0000
45.9100 264.0000 1.0000
45.9200 290.0000 1.0000
45.9300 298.0000 1.0000
45.9400 269.0000 1.0000
45.9500 279.0000 1.0000
45.9600 328.0000 1.0000
45.9700 313.0000 1.0000
45.9800 284.0000 1.0000
45.9900 312.0000 1.0000
46.0000 305.0000 1.0000
46.0100 285.0000 1.0000
46.0200 303.0000 1.0000
46.0300 306.0000 1.0000
46.0400 301.0000 1.0000
46.0500 275.0000 1.0000
46.0600 284.0000 1.0000
46.0700 314.0000 1.0000
46.0800 315.0000 1.0000
46.0900 307.0000 1.0000
46.1000 319.0000 1.0000
46.1100 316.0000 1.0000
46.1200 307.0000 1.0000
46.1300 299.0000 1.0000
46.1400 299.0000 1.0000
46.1500 295.0000 1.0000
46.1600 293.0000 1.0000
46.1700 296.0000 1.0000
46.1800 305.0000 1.0000
46.1900 312.0000 1.0000
46.2000 311.0000 1.0000
46.2100 342.0000 1.0000
46.2200 323.0000 1.0000
46.2300 324.0000 1.0000
46.2400 303.0000 1.0000
46.2500 309.0000 1.0000
46.2600 317.0000 1.0000
46.2700 293.0000 1.0000
46.2800 325.0000 1.0000
46.2900 278.0000 1.0000
46.3000 300.0000 1.0000
46.3100 308.0000 1.0000
46.3200 297.0000 1.0000
46.3300 301.0000 1.0000
46.3400 316.0000 1.0000
46.3500 290.0000 1.0000
46.3600 303.0000 1.0000
46.3700 326.0000 1.0000
46.3800 329.0000 1.0000
46.3900 319.0000 1.0000
46.4000 300.0000 1.0000
46.4100 308.0000 1.0000
46.4200 300.0000 1.0000
46.4300 293.0000 1.0000
46.4400 294.0000 1.0000
46.4500 299.0000 1.0000
46.4600 307.0000 1.0000
46.4700 307.0000 1.0000
46.4800 305.0000 1.0000
46.4900 309.0000 1.0000
46.5000 295.0000 1.0000
46.5100 284.0000 1.0000
46.5200 282.0000 1.0000
46.5300 301.0000 1.0000
46.5400 297.0000 1.0000
46.5500 288.0000 1.0000
46.5600 313.0000 1.0000
46.5700 288.0000 1.0000
46.5800 289.0000 1.0000
46.5900 283.0000 1.0000
46.6000 290.0000 1.0000
46.6100 315.0000 1.0000
46.6200 322.0000 1.0000
46.6300 324.0000 1.0000
46.6400 298.0000 1.0000
46.6500 324.0000 1.0000
46.6600 291.0000 1.0000
46.6700 320.0000 1.0000
46.6800 303.0000 1.0000
46.6900 318.0000 1.0000
46.7000 289.0000 1.0000
46.7100 264.0000 1.0000
46.7200 308.0000 1.0000
46.7300 318.0000 1.0000
46.7400 276.0000 1.0000
46.7500 315.0000 1.0000
46.7600 276.0000 1.0000
46.7700 282.0000 1.0000
46.7800 279.0000 1.0000
46.7900 286.0000 1.0000
46.8000 311.0000 1.0000
46.8100 275.0000 1.0000
46.8200 271.0000 1.0000
46.8300 286.0000 1.0000
46.8400 265.0000 1.0000
46.8500 293.0000 1.0000
46.8600 290.0000 1.0000
46.8700 305.0000 1.0000
46.8800 296.0000 1.0000
46.8900 290.0000 1.0000
46.9000 279.0000 1.0000
46.9100 294.0000 1.0000
46.9200 306.0000 1.0000
46.9300 298.0000 1.0000
46.9400 309.0000 1.0000
46.9500 297.0000 1.0000
46.9600 302.0000 1.0000
46.9700 278.0000 1.0000
46.9800 309.0000 1.0000
46.9900 303.0000 1.0000
47.0000 280.0000 1.0000
47.0100 333.0000 1.0000
47.0200 301.0000 1.0000
47.0300 296.0000 1.0000
47.0400 316.0000 1.0000
47.0500 285.0000 1.0000
47.0600 285.0000 1.0000
47.0700 289.0000 1.0000
47.0800 292.0000 1.0000
47.0900 305.0000 1.0000
47.1000 310.0000 1.0000
47.1100 288.0000 1.0000
47.1200 271.0000 1.0000
47.1300 293.0000 1.0000
47.1400 314.0000 1.0000
47.1500 313.0000 1.0000
47.1600 296.0000 1.0000
47.1700 298.0000 1.0000
47.1800 291.0000 1.0000
47.1900 299.0000 1.0000
47.2000 280.0000 1.0000
47.2100 267.0000 1.0000
47.2200 291.0000 1.0000
47.2300 272.0000 1.0000
47.2400 285.0000 1.0000
47.2500 285.0000 1.0000
47.2600 299.0000 1.0000
47.2700 281.0000 1.0000
47.2800 269.0000 1.0000
47.2900 279.0000 1.0000
47.3000 288.0000 1.0000
47.3100 280.0000 1.0000
47.3200 300.0000 1.0000
47.3300 281.0000 1.0000
47.3400 310.0000 1.0000
47.3500 293.0000 1.0000
47.3600 281.0000 1.0000
47.3700 290.0000 1.0000
47.3800 275.0000 1.0000
47.3900 274.0000 1.0000
47.4000 296.0000 1.0000
47.4100 288.0000 1.0000
47.4200 274.0000 1.0000
47.4300 282.0000 1.0000
47.4400 254.0000 1.0000
47.4500 283.0000 1.0000
47.4600 295.0000 1.0000
47.4700 310.0000 1.0000
47.4800 298.0000 1.0000
47.4900 293.0000 1.0000
47.5000 289.0000 1.0000
47.5100 286.0000 1.0000
47.5200 303.0000 1.0000
47.5300 282.0000 1.0000
47.5400 287.0000 1.0000
47.5500 267.0000 1.0000
47.5600 307.0000 1.0000
47.5700 288.0000 1.0000
47.5800 281.0000 1.0000
47.5900 313.0000 1.0000
47.6000 295.0000 1.0000
47.6100 281.0000 1.0000
47.6200 265.0000 1.0000
47.6300 294.0000 1.0000
47.6400 297.0000 1.0000
47.6500 294.0000 1.0000
47.6600 284.0000 1.0000
47.6700 273.0000 1.0000
47.6800 270.0000 1.0000
47.6900 296.0000 1.0000
47.7000 275.0000 1.0000
47.7100 277.0000 1.0000
47.7200 290.0000 1.0000
47.7300 258.0000 1.0000
47.7400 263.0000 1.0000
47.7500 289.0000 1.0000
47.7600 292.0000 1.0000
47.7700 271.0000 1.0000
47.7800 292.0000 1.0000
47.7900 287.0000 1.0000
47.8000 274.0000 1.0000
47.8100 281.0000 1.0000
47.8200 280.0000 1.0000
47.8300 280.0000 1.0000
47.8400 300.0000 1.0000
47.8500 287.0000 1.0000
47.8600 274.0000 1.0000
47.8700 277.0000 1.0000
47.8800 285.0000 1.0000
47.8900 289.0000 1.0000
47.9000 288.0000 1.0000
47.9100 286.0000 1.0000
47.9200 280.0000 1.0000
47.9300 327.0000 1.0000
47.9400 295.0000 1.0000
47.9500 296.0000 1.0000
47.9600 294.0000 1.0000
47.9700 297.0000 1.0000
47.9800 294.0000 1.0000
47.9900 272.0000 1.0000
48.0000 286.0000 1.0000
48.0100 264.0000 1.0000
48.0200 281.0000 1.0000
48.0300 282.0000 1.0000
48.0400 283.0000 1.0000
48.0500 290.0000 1.0000
48.0600 279.0000 1.0000
48.0700 271.0000 1.0000
48.0800 282.0000 1.0000
48.0900 301.0000 1.0000
48.1000 287.0000 1.0000
48.1100 268.0000 1.0000
48.1200 334.0000 1.0000
48.1300 291.0000 1.0000
48.1400 295.0000 1.0000
48.1500 281.0000 1.0000
48.1600 276.0000 1.0000
48.1700 294.0000 1.0000
48.1800 300.0000 1.0000
48.1900 285.0000 1.0000
48.2000 291.0000 1.0000
48.2100 278.0000 1.0000
48.2200 277.0000 1.0000
48.2300 291.0000 1.0000
48.2400 294.0000 1.0000
48.2500 239.0000 1.0000
48.2600 281.0000 1.0000
48.2700 281.0000 1.0000
48.2800 280.0000 1.0000
48.2900 299.0000 1.0000
48.3000 281.0000 1.0000
48.3100 290.0000 1.0000
48.3200 275.0000 1.0000
48.3300 294.0000 1.0000
48.3400 285.0000 1.0000
48.3500 310.0000 1.0000
48.3600 274.0000 1.0000
48.3700 291.0000 1.0000
48.3800 273.0000 1.0000
48.3900 261.0000 1.0000
48.4000 295.0000 1.0000
48.4100 285.0000 1.0000
48.4200 283.0000 1.0000
48.4300 321.0000 1.0000
48.4400 290.0000 1.0000
48.4500 263.0000 1.0000
48.4600 284.0000 1.0000
48.4700 284.0000 1.0000
48.4800 287.0000 1.0000
48.4900 257.0000 1.0000
48.5000 266.0000 1.0000
48.5100 280.0000 1.0000
48.5200 304.0000 1.0000
48.5300 279.0000 1.0000
48.5400 292.0000 1.0000
48.5500 277.0000 1.0000
48.5600 293.0000 1.0000
48.5700 296.0000 1.0000
48.5800 271.0000 1.0000
48.5900 311.0000 1.0000
48.6000 305.0000 1.0000
48.6100 278.0000 1.0000
48.6200 275.0000 1.0000
48.6300 304.0000 1.0000
48.6400 295.0000 1.0000
48.6500 265.0000 1.0000
48.6600 297.0000 1.0000
48.6700 292.0000 1.0000
48.6800 310.0000 1.0000
48.6900 281.0000 1.0000
48.7000 293.0000 1.0000
48.7100 267.0000 1.0000
48.7200 279.0000 1.0000
48.7300 303.0000 1.0000
48.7400 285.0000 1.0000
48.7500 254.0000 1.0000
48.7600 294.0000 1.0000
48.7700 289.0000 1.0000
48.7800 299.0000 1.0000
48.7900 280.0000 1.0000
48.8000 284.0000 1.0000
48.8100 263.0000 1.0000
48.8200 276.0000 1.0000
48.8300 275.0000 1.0000
48.8400 296.0000 1.0000
48.8500 281.0000 1.0000
48.8600 284.0000 1.0000
48.8700 254.0000 1.0000
48.8800 276.0000 1.0000
48.8900 292.0000 1.0000
48.9000 289.0000 1.0000
48.9100 249.0000 1.0000
48.9200 291.0000 1.0000
48.9300 265.0000 1.0000
48.9400 295.0000 1.0000
48.9500 281.0000 1.0000
48.9600 285.0000 1.0000
48.9700 269.0000 1.0000
48.9800 308.0000 1.0000
48.9900 299.0000 1.0000
49.0000 290.0000 1.0000
49.0100 295.0000 1.0000
49.0200 272.0000 1.0000
49.0300 282.0000 1.0000
49.0400 292.0000 1.0000
49.0500 299.0000 1.0000
49.0600 270.0000 1.0000
49.0700 263.0000 1.0000
49.0800 270.0000 1.0000
49.0900 285.0000 1.0000
49.1000 285.0000 1.0000
49.1100 285.0000 1.0000
49.1200 263.0000 1.0000
49.1300 266.0000 1.0000
49.1400 284.0000 1.0000
49.1500 263.0000 1.0000
49.1600 256.0000 1.0000
49.1700 267.0000 1.0000
49.1800 295.0000 1.0000
49.1900 299.0000 1.0000
49.2000 280.0000 1.0000
49.2100 276.0000 1.0000
49.2200 270.0000 1.0000
49.2300 268.0000 1.0000
49.2400 279.0000 1.0000
49.2500 280.0000 1.0000
49.2600 308.0000 1.0000
49.2700 272.0000 1.0000
49.2800 272.0000 1.0000
49.2900 306.0000 1.0000
49.3000 285.0000 1.0000
49.3100 295.0000 1.0000
49.3200 284.0000 1.0000
49.3300 308.0000 1.0000
49.3400 283.0000 1.0000
49.3500 317.0000 1.0000
49.3600 306.0000 1.0000
49.3700 269.0000 1.0000
49.3800 284.0000 1.0000
49.3900 290.0000 1.0000
49.4000 315.0000 1.0000
49.4100 290.0000 1.0000
49.4200 292.0000 1.0000
49.4300 289.0000 1.0000
49.4400 277.0000 1.0000
49.4500 264.0000 1.0000
49.4600 280.0000 1.0000
49.4700 328.0000 1.0000
49.4800 300.0000 1.0000
49.4900 287.0000 1.0000
49.5000 293.0000 1.0000
49.5100 264.0000 1.0000
49.5200 277.0000 1.0000
49.5300 274.0000 1.0000
49.5400 288.0000 1.0000
49.5500 275.0000 1.0000
49.5600 281.0000 1.0000
49.5700 295.0000 1.0000
49.5800 307.0000 1.0000
49.5900 274.0000 1.0000
49.6000 291.0000 1.0000
49.6100 291.0000 1.0000
49.6200 291.0000 1.0000
49.6300 293.0000 1.0000
49.6400 271.0000 1.0000
49.6500 292.0000 1.0000
49.6600 327.0000 1.0000
49.6700 307.0000 1.0000
49.6800 291.0000 1.0000
49.6900 285.0000 1.0000
49.7000 291.0000 1.0000
49.7100 303.0000 1.0000
49.7200 278.0000 1.0000
49.7300 278.0000 1.0000
49.7400 288.0000 1.0000
49.7500 283.0000 1.0000
49.7600 314.0000 1.0000
49.7700 285.0000 1.0000
49.7800 280.0000 1.0000
49.7900 293.0000 1.0000
49.8000 277.0000 1.0000
49.8100 258.0000 1.0000
49.8200 261.0000 1.0000
49.8300 283.0000 1.0000
49.8400 279.0000 1.0000
49.8500 275.0000 1.0000
49.8600 284.0000 1.0000
49.8700 264.0000 1.0000
49.8800 269.0000 1.0000
49.8900 263.0000 1.0000
49.9000 307.0000 1.0000
49.9100 298.0000 1.0000
49.9200 299.0000 1.0000
49.9300 289.0000 1.0000
49.9400 291.0000 1.0000
49.9500 310.0000 1.0000
49.9600 266.0000 1.0000
49.9700 274.0000 1.0000
49.9800 291.0000 1.0000
49.9900 275.0000 1.0000
50.0000 309.0000 1.0000
50.0100 276.0000 1.0000
50.0200 301.0000 1.0000
50.0300 277.0000 1.0000
50.0400 268.0000 1.0000
50.0500 276.0000 1.0000
50.0600 291.0000 1.0000
50.0700 299.0000 1.0000
50.0800 279.0000 1.0000
50.0900 289.0000 1.0000
50.1000 303.0000 1.0000
50.1100 277.0000 1.0000
50.1200 292.0000 1.0000
50.1300 307.0000 1.0000
50.1400 301.0000 1.0000
50.1500 285.0000 1.0000
50.1600 283.0000 1.0000
50.1700 295.0000 1.0000
50.1800 261.0000 1.0000
50.1900 277.0000 1.0000
50.2000 295.0000 1.0000
50.2100 304.0000 1.0000
50.2200 276.0000 1.0000
50.2300 294.0000 1.0000
50.2400 324.0000 1.0000
50.2500 291.0000 1.0000
50.2600 272.0000 1.0000
50.2700 287.0000 1.0000
50.2800 289.0000 1.0000
50.2900 281.0000 1.0000
50.3000 286.0000 1.0000
50.3100 273.0000 1.0000
50.3200 295.0000 1.0000
50.3300 300.0000 1.0000
50.3400 318.0000 1.0000
50.3500 280.0000 1.0000
50.3600 309.0000 1.0000
50.3700 279.0000 1.0000
50.3800 294.0000 1.0000
50.3900 276.0000 1.0000
50.4000 277.0000 1.0000
50.4100 309.0000 1.0000
50.4200 266.0000 1.0000
50.4300 283.0000 1.0000
50.4400 288.0000 1.0000
50.4500 295.0000 1.0000
50.4600 282.0000 1.0000
50.4700 279.0000 1.0000
50.4800 302.0000 1.0000
50.4900 333.0000 1.0000
50.5000 287.0000 1.0000
50.5100 297.0000 1.0000
50.5200 301.0000 1.0000
50.5300 291.0000 1.0000
50.5400 302.0000 1.0000
50.5500 261.0000 1.0000
50.5600 283.0000 1.0000
50.5700 318.0000 1.0000
50.5800 307.0000 1.0000
50.5900 291.0000 1.0000
50.6000 295.0000 1.0000
50.6100 284.0000 1.0000
50.6200 303.0000 1.0000
50.6300 281.0000 1.0000
50.6400 295.0000 1.0000
50.6500 293.0000 1.0000
50.6600 280.0000 1.0000
50.6700 281.0000 1.0000
50.6800 285.0000 1.0000
50.6900 304.0000 1.0000
50.7000 308.0000 1.0000
50.7100 315.0000 1.0000
50.7200 308.0000 1.0000
50.7300 322.0000 1.0000
50.7400 312.0000 1.0000
50.7500 322.0000 1.0000
50.7600 296.0000 1.0000
50.7700 315.0000 1.0000
50.7800 315.0000 1.0000
50.7900 277.0000 1.0000
50.8000 307.0000 1.0000
50.8100 278.0000 1.0000
50.8200 315.0000 1.0000
50.8300 311.0000 1.0000
50.8400 309.0000 1.0000
50.8500 318.0000 1.0000
50.8600 295.0000 1.0000
50.8700 302.0000 1.0000
50.8800 277.0000 1.0000
50.8900 291.0000 1.0000
50.9000 290.0000 1.0000
50.9100 317.0000 1.0000
50.9200 325.0000 1.0000
50.9300 299.0000 1.0000
50.9400 295.0000 1.0000
50.9500 313.0000 1.0000
50.9600 292.0000 1.0000
50.9700 287.0000 1.0000
50.9800 313.0000 1.0000
50.9900 320.0000 1.0000
51.0000 356.0000 1.0000
51.0100 330.0000 1.0000
51.0200 352.0000 1.0000
51.0300 339.0000 1.0000
51.0400 313.0000 1.0000
51.0500 327.0000 1.0000
51.0600 343.0000 1.0000
51.0700 307.0000 1.0000
51.0800 334.0000 1.0000
51.0900 331.0000 1.0000
51.1000 340.0000 1.0000
51.1100 393.0000 1.0000
51.1200 345.0000 1.0000
51.1300 348.0000 1.0000
51.1400 384.0000 1.0000
51.1500 364.0000 1.0000
51.1600 401.0000 1.0000
51.1700 384.0000 1.0000
51.1800 415.0000 1.0000
51.1900 417.0000 1.0000
51.2000 403.0000 1.0000
51.2100 483.0000 1.0000
51.2200 468.0000 1.0000
51.2300 475.0000 1.0000
51.2400 452.0000 1.0000
51.2500 493.0000 1.0000
51.2600 538.0000 1.0000
51.2700 527.0000 1.0000
51.2800 616.0000 1.0000
51.2900 623.0000 1.0000
51.3000 632.0000 1.0000
51.3100 722.0000 1.0000
51.3200 732.0000 1.0000
51.3300 788.0000 1.0000
51.3400 864.0000 1.0000
51.3500 881.0000 1.0000
51.3600 944.0000 1.0000
51.3700 1029.0000 1.0000
51.3800 1094.0000 1.0000
51.3900 1187.0000 1.0000
51.4000 1307.0000 1.0000
51.4100 1342.0000 1.0000
51.4200 1482.0000 1.0000
51.4300 1627.0000 1.0000
51.4400 1654.0000 1.0000
51.4500 1838.0000 1.0000
51.4600 1937.0000 1.0000
51.4700 1993.0000 1.0000
51.4800 2095.0000 1.0000
51.4900 2123.0000 1.0000
51.5000 2107.0000 1.0000
51.5100 2127.0000 1.0000
51.5200 2005.0000 1.0000
51.5300 2039.0000 1.0000
51.5400 2067.0000 1.0000
51.5500 1979.0000 1.0000
51.5600 1869.0000 1.0000
51.5700 1784.0000 1.0000
51.5800 1733.0000 1.0000
51.5900 1687.0000 1.0000
51.6000 1652.0000 1.0000
51.6100 1643.0000 1.0000
51.6200 1567.0000 1.0000
51.6300 1511.0000 1.0000
51.6400 1531.0000 1.0000
51.6500 1380.0000 1.0000
51.6600 1291.0000 1.0000
51.6700 1206.0000 1.0000
51.6800 1196.0000 1.0000
51.6900 1144.0000 1.0000
51.7000 1028.0000 1.0000
51.7100 931.0000 1.0000
51.7200 817.0000 1.0000
51.7300 793.0000 1.0000
51.7400 761.0000 1.0000
51.7500 736.0000 1.0000
51.7600 708.0000 1.0000
51.7700 657.0000 1.0000
51.7800 631.0000 1.0000
51.7900 553.0000 1.0000
51.8000 540.0000 1.0000
51.8100 533.0000 1.0000
51.8200 490.0000 1.0000
51.8300 465.0000 1.0000
51.8400 489.0000 1.0000
51.8500 466.0000 1.0000
51.8600 445.0000 1.0000
51.8700 448.0000 1.0000
51.8800 470.0000 1.0000
51.8900 387.0000 1.0000
51.9000 413.0000 1.0000
51.9100 390.0000 1.0000
51.9200 369.0000 1.0000
51.9300 396.0000 1.0000
51.9400 379.0000 1.0000
51.9500 358.0000 1.0000
51.9600 338.0000 1.0000
51.9700 374.0000 1.0000
51.9800 363.0000 1.0000
51.9900 338.0000 1.0000
52.0000 344.0000 1.0000
52.0100 361.0000 1.0000
52.0200 370.0000 1.0000
52.0300 323.0000 1.0000
52.0400 341.0000 1.0000
52.0500 340.0000 1.0000
52.0600 320.0000 1.0000
52.0700 307.0000 1.0000
52.0800 328.0000 1.0000
52.0900 308.0000 1.0000
52.1000 335.0000 1.0000
52.1100 327.0000 1.0000
52.1200 313.0000 1.0000
52.1300 313.0000 1.0000
52.1400 311.0000 1.0000
52.1500 330.0000 1.0000
52.1600 295.0000 1.0000
52.1700 311.0000 1.0000
52.1800 292.0000 1.0000
52.1900 306.0000 1.0000
52.2000 320.0000 1.0000
52.2100 293.0000 1.0000
52.2200 289.0000 1.0000
52.2300 314.0000 1.0000
52.2400 288.0000 1.0000
52.2500 290.0000 1.0000
52.2600 299.0000 1.0000
52.2700 299.0000 1.0000
52.2800 309.0000 1.0000
52.2900 295.0000 1.0000
52.3000 310.0000 1.0000
52.3100 299.0000 1.0000
52.3200 322.0000 1.0000
52.3300 296.0000 1.0000
52.3400 296.0000 1.0000
52.3500 293.0000 1.0000
52.3600 314.0000 1.0000
52.3700 291.0000 1.0000
52.3800 291.0000 1.0000
52.3900 281.0000 1.0000
52.4000 286.0000 1.0000
52.4100 289.0000 1.0000
52.4200 279.0000 1.0000
52.4300 280.0000 1.0000
52.4400 293.0000 1.0000
52.4500 278.0000 1.0000
52.4600 280.0000 1.0000
52.4700 291.0000 1.0000
52.4800 298.0000 1.0000
52.4900 276.0000 1.0000
52.5000 286.0000 1.0000
52.5100 276.0000 1.0000
52.5200 270.0000 1.0000
52.5300 279.0000 1.0000
52.5400 289.0000 1.0000
52.5500 303.0000 1.0000
52.5600 283.0000 1.0000
52.5700 289.0000 1.0000
52.5800 279.0000 1.0000
52.5900 309.0000 1.0000
52.6000 301.0000 1.0000
52.6100 295.0000 1.0000
52.6200 313.0000 1.0000
52.6300 283.0000 1.0000
52.6400 291.0000 1.0000
52.6500 277.0000 1.0000
52.6600 290.0000 1.0000
52.6700 293.0000 1.0000
52.6800 277.0000 1.0000
52.6900 285.0000 1.0000
52.7000 270.0000 1.0000
52.7100 268.0000 1.0000
52.7200 289.0000 1.0000
52.7300 271.0000 1.0000
52.7400 280.0000 1.0000
52.7500 305.0000 1.0000
52.7600 275.0000 1.0000
52.7700 285.0000 1.0000
52.7800 295.0000 1.0000
52.7900 282.0000 1.0000
52.8000 269.0000 1.0000
52.8100 276.0000 1.0000
52.8200 273.0000 1.0000
52.8300 283.0000 1.0000
52.8400 279.0000 1.0000
52.8500 304.0000 1.0000
52.8600 278.0000 1.0000
52.8700 289.0000 1.0000
52.8800 277.0000 1.0000
52.8900 283.0000 1.0000
52.9000 248.0000 1.0000
52.9100 281.0000 1.0000
52.9200 303.0000 1.0000
52.9300 291.0000 1.0000
52.9400 292.0000 1.0000
52.9500 272.0000 1.0000
52.9600 263.0000 1.0000
52.9700 274.0000 1.0000
52.9800 244.0000 1.0000
52.9900 287.0000 1.0000
53.0000 267.0000 1.0000
53.0100 277.0000 1.0000
53.0200 279.0000 1.0000
53.0300 268.0000 1.0000
53.0400 294.0000 1.0000
53.0500 297.0000 1.0000
53.0600 285.0000 1.0000
53.0700 276.0000 1.0000
53.0800 293.0000 1.0000
53.0900 316.0000 1.0000
53.1000 271.0000 1.0000
53.1100 300.0000 1.0000
53.1200 278.0000 1.0000
53.1300 291.0000 1.0000
53.1400 279.0000 1.0000
53.1500 290.0000 1.0000
53.1600 279.0000 1.0000
53.1700 275.0000 1.0000
53.1800 274.0000 1.0000
53.1900 269.0000 1.0000
53.2000 267.0000 1.0000
53.2100 262.0000 1.0000
53.2200 260.0000 1.0000
53.2300 285.0000 1.0000
53.2400 299.0000 1.0000
53.2500 284.0000 1.0000
53.2600 273.0000 1.0000
53.2700 270.0000 1.0000
53.2800 271.0000 1.0000
53.2900 292.0000 1.0000
53.3000 268.0000 1.0000
53.3100 256.0000 1.0000
53.3200 272.0000 1.0000
53.3300 284.0000 1.0000
53.3400 292.0000 1.0000
53.3500 288.0000 1.0000
53.3600 262.0000 1.0000
53.3700 313.0000 1.0000
53.3800 276.0000 1.0000
53.3900 288.0000 1.0000
53.4000 264.0000 1.0000
53.4100 259.0000 1.0000
53.4200 271.0000 1.0000
53.4300 273.0000 1.0000
53.4400 281.0000 1.0000
53.4500 251.0000 1.0000
53.4600 269.0000 1.0000
53.4700 283.0000 1.0000
53.4800 290.0000 1.0000
53.4900 284.0000 1.0000
53.5000 260.0000 1.0000
53.5100 278.0000 1.0000
53.5200 274.0000 1.0000
53.5300 260.0000 1.0000
53.5400 270.0000 1.0000
53.5500 289.0000 1.0000
53.5600 280.0000 1.0000
53.5700 254.0000 1.0000
53.5800 279.0000 1.0000
53.5900 273.0000 1.0000
53.6000 285.0000 1.0000
53.6100 290.0000 1.0000
53.6200 286.0000 1.0000
53.6300 248.0000 1.0000
53.6400 271.0000 1.0000
53.6500 261.0000 1.0000
53.6600 273.0000 1.0000
53.6700 262.0000 1.0000
53.6800 294.0000 1.0000
53.6900 265.0000 1.0000
53.7000 270.0000 1.0000
53.7100 285.0000 1.0000
53.7200 294.0000 1.0000
53.7300 288.0000 1.0000
53.7400 303.0000 1.0000
53.7500 270.0000 1.0000
53.7600 279.0000 1.0000
53.7700 296.0000 1.0000
53.7800 286.0000 1.0000
53.7900 286.0000 1.0000
53.8000 267.0000 1.0000
53.8100 288.0000 1.0000
53.8200 266.0000 1.0000
53.8300 261.0000 1.0000
53.8400 285.0000 1.0000
53.8500 269.0000 1.0000
53.8600 283.0000 1.0000
53.8700 291.0000 1.0000
53.8800 266.0000 1.0000
53.8900 277.0000 1.0000
53.9000 289.0000 1.0000
53.9100 272.0000 1.0000
53.9200 280.0000 1.0000
53.9300 275.0000 1.0000
53.9400 263.0000 1.0000
53.9500 285.0000 1.0000
53.9600 300.0000 1.0000
53.9700 295.0000 1.0000
53.9800 282.0000 1.0000
53.9900 297.0000 1.0000
54.0000 314.0000 1.0000
54.0100 289.0000 1.0000
54.0200 307.0000 1.0000
54.0300 291.0000 1.0000
54.0400 328.0000 1.0000
54.0500 299.0000 1.0000
54.0600 305.0000 1.0000
54.0700 285.0000 1.0000
54.0800 283.0000 1.0000
54.0900 320.0000 1.0000
54.1000 294.0000 1.0000
54.1100 307.0000 1.0000
54.1200 290.0000 1.0000
54.1300 304.0000 1.0000
54.1400 267.0000 1.0000
54.1500 288.0000 1.0000
54.1600 277.0000 1.0000
54.1700 307.0000 1.0000
54.1800 299.0000 1.0000
54.1900 297.0000 1.0000
54.2000 299.0000 1.0000
54.2100 300.0000 1.0000
54.2200 300.0000 1.0000
54.2300 291.0000 1.0000
54.2400 286.0000 1.0000
54.2500 307.0000 1.0000
54.2600 312.0000 1.0000
54.2700 292.0000 1.0000
54.2800 272.0000 1.0000
54.2900 317.0000 1.0000
54.3000 325.0000 1.0000
54.3100 318.0000 1.0000
54.3200 331.0000 1.0000
54.3300 301.0000 1.0000
54.3400 291.0000 1.0000
54.3500 333.0000 1.0000
54.3600 309.0000 1.0000
54.3700 327.0000 1.0000
54.3800 366.0000 1.0000
54.3900 356.0000 1.0000
54.4000 378.0000 1.0000
54.4100 375.0000 1.0000
54.4200 355.0000 1.0000
54.4300 354.0000 1.0000
54.4400 355.0000 1.0000
54.4500 386.0000 1.0000
54.4600 385.0000 1.0000
54.4700 390.0000 1.0000
54.4800 382.0000 1.0000
54.4900 380.0000 1.0000
54.5000 416.0000 1.0000
54.5100 428.0000 1.0000
54.5200 412.0000 1.0000
54.5300 395.0000 1.0000
54.5400 404.0000 1.0000
54.5500 435.0000 1.0000
54.5600 424.0000 1.0000
54.5700 420.0000 1.0000
54.5800 402.0000 1.0000
54.5900 406.0000 1.0000
54.6000 403.0000 1.0000
54.6100 404.0000 1.0000
54.6200 418.0000 1.0000
54.6300 405.0000 1.0000
54.6400 398.0000 1.0000
54.6500 401.0000 1.0000
54.6600 367.0000 1.0000
54.6700 386.0000 1.0000
54.6800 370.0000 1.0000
54.6900 348.0000 1.0000
54.7000 374.0000 1.0000
54.7100 356.0000 1.0000
54.7200 363.0000 1.0000
54.7300 344.0000 1.0000
54.7400 359.0000 1.0000
54.7500 350.0000 1.0000
54.7600 336.0000 1.0000
54.7700 356.0000 1.0000
54.7800 311.0000 1.0000
54.7900 323.0000 1.0000
54.8000 316.0000 1.0000
54.8100 296.0000 1.0000
54.8200 306.0000 1.0000
54.8300 329.0000 1.0000
54.8400 293.0000 1.0000
54.8500 276.0000 1.0000
54.8600 303.0000 1.0000
54.8700 289.0000 1.0000
54.8800 297.0000 1.0000
54.8900 316.0000 1.0000
54.9000 274.0000 1.0000
54.9100 324.0000 1.0000
54.9200 269.0000 1.0000
54.9300 282.0000 1.0000
54.9400 308.0000 1.0000
54.9500 313.0000 1.0000
54.9600 280.0000 1.0000
54.9700 288.0000 1.0000
54.9800 267.0000 1.0000
54.9900 256.0000 1.0000
55.0000 257.0000 1.0000
55.0100 257.0000 1.0000
55.0200 282.0000 1.0000
55.0300 262.0000 1.0000
55.0400 273.0000 1.0000
55.0500 277.0000 1.0000
55.0600 273.0000 1.0000
55.0700 281.0000 1.0000
55.0800 269.0000 1.0000
55.0900 275.0000 1.0000
55.1000 277.0000 1.0000
55.1100 270.0000 1.0000
55.1200 271.0000 1.0000
55.1300 268.0000 1.0000
55.1400 269.0000 1.0000
55.1500 259.0000 1.0000
55.1600 269.0000 1.0000
55.1700 284.0000 1.0000
55.1800 276.0000 1.0000
55.1900 263.0000 1.0000
55.2000 269.0000 1.0000
55.2100 301.0000 1.0000
55.2200 276.0000 1.0000
55.2300 252.0000 1.0000
55.2400 271.0000 1.0000
55.2500 264.0000 1.0000
55.2600 280.0000 1.0000
55.2700 270.0000 1.0000
55.2800 268.0000 1.0000
55.2900 271.0000 1.0000
55.3000 275.0000 1.0000
55.3100 261.0000 1.0000
55.3200 278.0000 1.0000
55.3300 273.0000 1.0000
55.3400 263.0000 1.0000
55.3500 261.0000 1.0000
55.3600 263.0000 1.0000
55.3700 236.0000 1.0000
55.3800 272.0000 1.0000
55.3900 285.0000 1.0000
55.4000 267.0000 1.0000
55.4100 279.0000 1.0000
55.4200 254.0000 1.0000
55.4300 269.0000 1.0000
55.4400 289.0000 1.0000
55.4500 257.0000 1.0000
55.4600 247.0000 1.0000
55.4700 275.0000 1.0000
55.4800 277.0000 1.0000
55.4900 273.0000 1.0000
55.5000 290.0000 1.0000
55.5100 288.0000 1.0000
55.5200 257.0000 1.0000
55.5300 245.0000 1.0000
55.5400 266.0000 1.0000
55.5500 293.0000 1.0000
55.5600 261.0000 1.0000
55.5700 248.0000 1.0000
55.5800 246.0000 1.0000
55.5900 270.0000 1.0000
55.6000 238.0000 1.0000
55.6100 266.0000 1.0000
55.6200 285.0000 1.0000
55.6300 286.0000 1.0000
55.6400 263.0000 1.0000
55.6500 257.0000 1.0000
55.6600 274.0000 1.0000
55.6700 238.0000 1.0000
55.6800 260.0000 1.0000
55.6900 261.0000 1.0000
55.7000 265.0000 1.0000
55.7100 265.0000 1.0000
55.7200 245.0000 1.0000
55.7300 252.0000 1.0000
55.7400 249.0000 1.0000
55.7500 257.0000 1.0000
55.7600 264.0000 1.0000
55.7700 252.0000 1.0000
55.7800 251.0000 1.0000
55.7900 297.0000 1.0000
55.8000 244.0000 1.0000
55.8100 214.0000 1.0000
55.8200 272.0000 1.0000
55.8300 276.0000 1.0000
55.8400 278.0000 1.0000
55.8500 279.0000 1.0000
55.8600 254.0000 1.0000
55.8700 272.0000 1.0000
55.8800 293.0000 1.0000
55.8900 290.0000 1.0000
55.9000 274.0000 1.0000
55.9100 250.0000 1.0000
55.9200 255.0000 1.0000
55.9300 258.0000 1.0000
55.9400 251.0000 1.0000
55.9500 262.0000 1.0000
55.9600 233.0000 1.0000
55.9700 272.0000 1.0000
55.9800 250.0000 1.0000
55.9900 255.0000 1.0000
56.0000 257.0000 1.0000
56.0100 269.0000 1.0000
56.0200 251.0000 1.0000
56.0300 234.0000 1.0000
56.0400 241.0000 1.0000
56.0500 270.0000 1.0000
56.0600 264.0000 1.0000
56.0700 257.0000 1.0000
56.0800 249.0000 1.0000
56.0900 278.0000 1.0000
56.1000 269.0000 1.0000
56.1100 261.0000 1.0000
56.1200 239.0000 1.0000
56.1300 263.0000 1.0000
56.1400 244.0000 1.0000
56.1500 283.0000 1.0000
56.1600 296.0000 1.0000
56.1700 260.0000 1.0000
56.1800 269.0000 1.0000
56.1900 260.0000 1.0000
56.2000 261.0000 1.0000
56.2100 277.0000 1.0000
56.2200 241.0000 1.0000
56.2300 244.0000 1.0000
56.2400 260.0000 1.0000
56.2500 257.0000 1.0000
56.2600 242.0000 1.0000
56.2700 264.0000 1.0000
56.2800 256.0000 1.0000
56.2900 246.0000 1.0000
56.3000 251.0000 1.0000
56.3100 275.0000 1.0000
56.3200 256.0000 1.0000
56.3300 240.0000 1.0000
56.3400 265.0000 1.0000
56.3500 257.0000 1.0000
56.3600 260.0000 1.0000
56.3700 245.0000 1.0000
56.3800 244.0000 1.0000
56.3900 279.0000 1.0000
56.4000 294.0000 1.0000
56.4100 256.0000 1.0000
56.4200 267.0000 1.0000
56.4300 264.0000 1.0000
56.4400 251.0000 1.0000
56.4500 281.0000 1.0000
56.4600 312.0000 1.0000
56.4700 285.0000 1.0000
56.4800 253.0000 1.0000
56.4900 262.0000 1.0000
56.5000 268.0000 1.0000
56.5100 279.0000 1.0000
56.5200 267.0000 1.0000
56.5300 269.0000 1.0000
56.5400 287.0000 1.0000
56.5500 263.0000 1.0000
56.5600 267.0000 1.0000
56.5700 258.0000 1.0000
56.5800 240.0000 1.0000
56.5900 274.0000 1.0000
56.6000 282.0000 1.0000
56.6100 251.0000 1.0000
56.6200 253.0000 1.0000
56.6300 239.0000 1.0000
56.6400 286.0000 1.0000
56.6500 267.0000 1.0000
56.6600 240.0000 1.0000
56.6700 266.0000 1.0000
56.6800 279.0000 1.0000
56.6900 272.0000 1.0000
56.7000 240.0000 1.0000
56.7100 242.0000 1.0000
56.7200 227.0000 1.0000
56.7300 277.0000 1.0000
56.7400 267.0000 1.0000
56.7500 257.0000 1.0000
56.7600 270.0000 1.0000
56.7700 238.0000 1.0000
56.7800 259.0000 1.0000
56.7900 264.0000 1.0000
56.8000 252.0000 1.0000
56.8100 283.0000 1.0000
56.8200 244.0000 1.0000
56.8300 252.0000 1.0000
56.8400 269.0000 1.0000
56.8500 269.0000 1.0000
56.8600 268.0000 1.0000
56.8700 266.0000 1.0000
56.8800 266.0000 1.0000
56.8900 287.0000 1.0000
56.9000 273.0000 1.0000
56.9100 288.0000 1.0000
56.9200 247.0000 1.0000
56.9300 257.0000 1.0000
56.9400 264.0000 1.0000
56.9500 247.0000 1.0000
56.9600 265.0000 1.0000
56.9700 253.0000 1.0000
56.9800 271.0000 1.0000
56.9900 251.0000 1.0000
57.0000 253.0000 1.0000
57.0100 261.0000 1.0000
57.0200 254.0000 1.0000
57.0300 238.0000 1.0000
57.0400 248.0000 1.0000
57.0500 272.0000 1.0000
57.0600 277.0000 1.0000
57.0700 256.0000 1.0000
57.0800 234.0000 1.0000
57.0900 272.0000 1.0000
57.1000 252.0000 1.0000
57.1100 251.0000 1.0000
57.1200 278.0000 1.0000
57.1300 239.0000 1.0000
57.1400 252.0000 1.0000
57.1500 258.0000 1.0000
57.1600 247.0000 1.0000
57.1700 274.0000 1.0000
57.1800 278.0000 1.0000
57.1900 252.0000 1.0000
57.2000 272.0000 1.0000
57.2100 260.0000 1.0000
57.2200 240.0000 1.0000
57.2300 230.0000 1.0000
57.2400 257.0000 1.0000
57.2500 267.0000 1.0000
57.2600 259.0000 1.0000
57.2700 262.0000 1.0000
57.2800 250.0000 1.0000
57.2900 248.0000 1.0000
57.3000 265.0000 1.0000
57.3100 277.0000 1.0000
57.3200 299.0000 1.0000
57.3300 271.0000 1.0000
57.3400 254.0000 1.0000
57.3500 242.0000 1.0000
57.3600 247.0000 1.0000
57.3700 267.0000 1.0000
57.3800 263.0000 1.0000
57.3900 276.0000 1.0000
57.4000 276.0000 1.0000
57.4100 288.0000 1.0000
57.4200 248.0000 1.0000
57.4300 277.0000 1.0000
57.4400 290.0000 1.0000
57.4500 281.0000 1.0000
57.4600 281.0000 1.0000
57.4700 281.0000 1.0000
57.4800 270.0000 1.0000
57.4900 257.0000 1.0000
57.5000 262.0000 1.0000
57.5100 232.0000 1.0000
57.5200 259.0000 1.0000
57.5300 270.0000 1.0000
57.5400 300.0000 1.0000
57.5500 272.0000 1.0000
57.5600 253.0000 1.0000
57.5700 280.0000 1.0000
57.5800 276.0000 1.0000
57.5900 268.0000 1.0000
57.6000 248.0000 1.0000
57.6100 252.0000 1.0000
57.6200 270.0000 1.0000
57.6300 251.0000 1.0000
57.6400 264.0000 1.0000
57.6500 300.0000 1.0000
57.6600 275.0000 1.0000
57.6700 250.0000 1.0000
57.6800 265.0000 1.0000
57.6900 257.0000 1.0000
57.7000 265.0000 1.0000
57.7100 243.0000 1.0000
57.7200 278.0000 1.0000
57.7300 230.0000 1.0000
57.7400 271.0000 1.0000
57.7500 285.0000 1.0000
57.7600 269.0000 1.0000
57.7700 234.0000 1.0000
57.7800 261.0000 1.0000
57.7900 252.0000 1.0000
57.8000 248.0000 1.0000
57.8100 273.0000 1.0000
57.8200 273.0000 1.0000
57.8300 273.0000 1.0000
57.8400 284.0000 1.0000
57.8500 265.0000 1.0000
57.8600 238.0000 1.0000
57.8700 266.0000 1.0000
57.8800 269.0000 1.0000
57.8900 264.0000 1.0000
57.9000 247.0000 1.0000
57.9100 264.0000 1.0000
57.9200 283.0000 1.0000
57.9300 263.0000 1.0000
57.9400 241.0000 1.0000
57.9500 272.0000 1.0000
57.9600 254.0000 1.0000
57.9700 267.0000 1.0000
57.9800 278.0000 1.0000
57.9900 272.0000 1.0000
58.0000 255.0000 1.0000
58.0100 272.0000 1.0000
58.0200 277.0000 1.0000
58.0300 281.0000 1.0000
58.0400 276.0000 1.0000
58.0500 244.0000 1.0000
58.0600 277.0000 1.0000
58.0700 260.0000 1.0000
58.0800 247.0000 1.0000
58.0900 249.0000 1.0000
58.1000 221.0000 1.0000
58.1100 241.0000 1.0000
58.1200 248.0000 1.0000
58.1300 232.0000 1.0000
58.1400 243.0000 1.0000
58.1500 254.0000 1.0000
58.1600 280.0000 1.0000
58.1700 263.0000 1.0000
58.1800 257.0000 1.0000
58.1900 264.0000 1.0000
58.2000 274.0000 1.0000
58.2100 290.0000 1.0000
58.2200 253.0000 1.0000
58.2300 257.0000 1.0000
58.2400 267.0000 1.0000
58.2500 257.0000 1.0000
58.2600 263.0000 1.0000
58.2700 269.0000 1.0000
58.2800 271.0000 1.0000
58.2900 227.0000 1.0000
58.3000 270.0000 1.0000
58.3100 248.0000 1.0000
58.3200 251.0000 1.0000
58.3300 266.0000 1.0000
58.3400 269.0000 1.0000
58.3500 248.0000 1.0000
58.3600 228.0000 1.0000
58.3700 277.0000 1.0000
58.3800 262.0000 1.0000
58.3900 288.0000 1.0000
58.4000 265.0000 1.0000
58.4100 261.0000 1.0000
58.4200 275.0000 1.0000
58.4300 254.0000 1.0000
58.4400 242.0000 1.0000
58.4500 267.0000 1.0000
58.4600 238.0000 1.0000
58.4700 271.0000 1.0000
58.4800 247.0000 1.0000
58.4900 249.0000 1.0000
58.5000 280.0000 1.0000
58.5100 279.0000 1.0000
58.5200 291.0000 1.0000
58.5300 281.0000 1.0000
58.5400 281.0000 1.0000
58.5500 271.0000 1.0000
58.5600 245.0000 1.0000
58.5700 255.0000 1.0000
58.5800 291.0000 1.0000
58.5900 251.0000 1.0000
58.6000 240.0000 1.0000
58.6100 281.0000 1.0000
58.6200 278.0000 1.0000
58.6300 278.0000 1.0000
58.6400 260.0000 1.0000
58.6500 254.0000 1.0000
58.6600 266.0000 1.0000
58.6700 271.0000 1.0000
58.6800 240.0000 1.0000
58.6900 254.0000 1.0000
58.7000 245.0000 1.0000
58.7100 282.0000 1.0000
58.7200 265.0000 1.0000
58.7300 266.0000 1.0000
58.7400 239.0000 1.0000
58.7500 246.0000 1.0000
58.7600 257.0000 1.0000
58.7700 253.0000 1.0000
58.7800 271.0000 1.0000
58.7900 243.0000 1.0000
58.8000 274.0000 1.0000
58.8100 249.0000 1.0000
58.8200 229.0000 1.0000
58.8300 243.0000 1.0000
58.8400 269.0000 1.0000
58.8500 275.0000 1.0000
58.8600 274.0000 1.0000
58.8700 265.0000 1.0000
58.8800 264.0000 1.0000
58.8900 290.0000 1.0000
58.9000 243.0000 1.0000
58.9100 249.0000 1.0000
58.9200 259.0000 1.0000
58.9300 258.0000 1.0000
58.9400 252.0000 1.0000
58.9500 266.0000 1.0000
58.9600 267.0000 1.0000
58.9700 250.0000 1.0000
58.9800 247.0000 1.0000
58.9900 248.0000 1.0000
59.0000 240.0000 1.0000
59.0100 237.0000 1.0000
59.0200 232.0000 1.0000
59.0300 271.0000 1.0000
59.0400 261.0000 1.0000
59.0500 266.0000 1.0000
59.0600 280.0000 1.0000
59.0700 267.0000 1.0000
59.0800 252.0000 1.0000
59.0900 286.0000 1.0000
59.1000 243.0000 1.0000
59.1100 257.0000 1.0000
59.1200 269.0000 1.0000
59.1300 249.0000 1.0000
59.1400 269.0000 1.0000
59.1500 264.0000 1.0000
59.1600 268.0000 1.0000
59.1700 258.0000 1.0000
59.1800 246.0000 1.0000
59.1900 238.0000 1.0000
59.2000 257.0000 1.0000
59.2100 241.0000 1.0000
59.2200 273.0000 1.0000
59.2300 249.0000 1.0000
59.2400 278.0000 1.0000
59.2500 258.0000 1.0000
59.2600 270.0000 1.0000
59.2700 269.0000 1.0000
59.2800 238.0000 1.0000
59.2900 245.0000 1.0000
59.3000 259.0000 1.0000
59.3100 273.0000 1.0000
59.3200 250.0000 1.0000
59.3300 251.0000 1.0000
59.3400 260.0000 1.0000
59.3500 259.0000 1.0000
59.3600 265.0000 1.0000
59.3700 273.0000 1.0000
59.3800 269.0000 1.0000
59.3900 258.0000 1.0000
59.4000 264.0000 1.0000
59.4100 264.0000 1.0000
59.4200 284.0000 1.0000
59.4300 267.0000 1.0000
59.4400 263.0000 1.0000
59.4500 262.0000 1.0000
59.4600 283.0000 1.0000
59.4700 266.0000 1.0000
59.4800 241.0000 1.0000
59.4900 248.0000 1.0000
59.5000 255.0000 1.0000
59.5100 263.0000 1.0000
59.5200 265.0000 1.0000
59.5300 258.0000 1.0000
59.5400 259.0000 1.0000
59.5500 286.0000 1.0000
59.5600 266.0000 1.0000
59.5700 256.0000 1.0000
59.5800 265.0000 1.0000
59.5900 229.0000 1.0000
59.6000 244.0000 1.0000
59.6100 245.0000 1.0000
59.6200 252.0000 1.0000
59.6300 256.0000 1.0000
59.6400 285.0000 1.0000
59.6500 228.0000 1.0000
59.6600 269.0000 1.0000
59.6700 247.0000 1.0000
59.6800 246.0000 1.0000
59.6900 261.0000 1.0000
59.7000 245.0000 1.0000
59.7100 245.0000 1.0000
59.7200 219.0000 1.0000
59.7300 243.0000 1.0000
59.7400 249.0000 1.0000
59.7500 252.0000 1.0000
59.7600 237.0000 1.0000
59.7700 249.0000 1.0000
59.7800 244.0000 1.0000
59.7900 271.0000 1.0000
59.8000 248.0000 1.0000
59.8100 245.0000 1.0000
59.8200 257.0000 1.0000
59.8300 278.0000 1.0000
59.8400 293.0000 1.0000
59.8500 247.0000 1.0000
59.8600 252.0000 1.0000
59.8700 254.0000 1.0000
59.8800 242.0000 1.0000
59.8900 253.0000 1.0000
59.9000 248.0000 1.0000
59.9100 258.0000 1.0000
59.9200 279.0000 1.0000
59.9300 249.0000 1.0000
59.9400 270.0000 1.0000
59.9500 257.0000 1.0000
59.9600 252.0000 1.0000
59.9700 265.0000 1.0000
59.9800 273.0000 1.0000
59.9900 264.0000 1.0000
60.0000 248.0000 1.0000
60.0100 284.0000 1.0000
60.0200 240.0000 1.0000
60.0300 269.0000 1.0000
60.0400 232.0000 1.0000
60.0500 256.0000 1.0000
60.0600 260.0000 1.0000
60.0700 276.0000 1.0000
60.0800 261.0000 1.0000
60.0900 286.0000 1.0000
60.1000 274.0000 1.0000
60.1100 245.0000 1.0000
60.1200 246.0000 1.0000
60.1300 243.0000 1.0000
60.1400 255.0000 1.0000
60.1500 269.0000 1.0000
60.1600 244.0000 1.0000
60.1700 248.0000 1.0000
60.1800 290.0000 1.0000
60.1900 252.0000 1.0000
60.2000 261.0000 1.0000
60.2100 263.0000 1.0000
60.2200 238.0000 1.0000
60.2300 253.0000 1.0000
60.2400 247.0000 1.0000
60.2500 248.0000 1.0000
60.2600 255.0000 1.0000
60.2700 251.0000 1.0000
60.2800 258.0000 1.0000
60.2900 283.0000 1.0000
60.3000 240.0000 1.0000
60.3100 278.0000 1.0000
60.3200 254.0000 1.0000
60.3300 259.0000 1.0000
60.3400 243.0000 1.0000
60.3500 259.0000 1.0000
60.3600 269.0000 1.0000
60.3700 260.0000 1.0000
60.3800 242.0000 1.0000
60.3900 242.0000 1.0000
60.4000 240.0000 1.0000
60.4100 270.0000 1.0000
60.4200 263.0000 1.0000
60.4300 274.0000 1.0000
60.4400 229.0000 1.0000
60.4500 260.0000 1.0000
60.4600 250.0000 1.0000
60.4700 256.0000 1.0000
60.4800 235.0000 1.0000
60.4900 248.0000 1.0000
60.5000 260.0000 1.0000
60.5100 281.0000 1.0000
60.5200 247.0000 1.0000
60.5300 254.0000 1.0000
60.5400 274.0000 1.0000
60.5500 261.0000 1.0000
60.5600 243.0000 1.0000
60.5700 267.0000 1.0000
60.5800 262.0000 1.0000
60.5900 251.0000 1.0000
60.6000 249.0000 1.0000
60.6100 262.0000 1.0000
60.6200 272.0000 1.0000
60.6300 271.0000 1.0000
60.6400 242.0000 1.0000
60.6500 275.0000 1.0000
60.6600 225.0000 1.0000
60.6700 247.0000 1.0000
60.6800 275.0000 1.0000
60.6900 277.0000 1.0000
60.7000 266.0000 1.0000
60.7100 246.0000 1.0000
60.7200 229.0000 1.0000
60.7300 254.0000 1.0000
60.7400 263.0000 1.0000
60.7500 261.0000 1.0000
60.7600 254.0000 1.0000
60.7700 245.0000 1.0000
60.7800 262.0000 1.0000
60.7900 262.0000 1.0000
60.8000 256.0000 1.0000
60.8100 258.0000 1.0000
60.8200 250.0000 1.0000
60.8300 256.0000 1.0000
60.8400 261.0000 1.0000
60.8500 273.0000 1.0000
60.8600 263.0000 1.0000
60.8700 232.0000 1.0000
60.8800 252.0000 1.0000
60.8900 267.0000 1.0000
60.9000 262.0000 1.0000
60.9100 269.0000 1.0000
60.9200 263.0000 1.0000
60.9300 273.0000 1.0000
60.9400 256.0000 1.0000
60.9500 266.0000 1.0000
60.9600 281.0000 1.0000
60.9700 256.0000 1.0000
60.9800 259.0000 1.0000
60.9900 251.0000 1.0000
61.0000 242.0000 1.0000
61.0100 244.0000 1.0000
61.0200 275.0000 1.0000
61.0300 300.0000 1.0000
61.0400 267.0000 1.0000
61.0500 258.0000 1.0000
61.0600 279.0000 1.0000
61.0700 279.0000 1.0000
61.0800 259.0000 1.0000
61.0900 291.0000 1.0000
61.1000 296.0000 1.0000
61.1100 288.0000 1.0000
61.1200 291.0000 1.0000
61.1300 291.0000 1.0000
61.1400 298.0000 1.0000
61.1500 268.0000 1.0000
61.1600 298.0000 1.0000
61.1700 294.0000 1.0000
61.1800 275.0000 1.0000
61.1900 300.0000 1.0000
61.2000 296.0000 1.0000
61.2100 300.0000 1.0000
61.2200 303.0000 1.0000
61.2300 340.0000 1.0000
61.2400 323.0000 1.0000
61.2500 321.0000 1.0000
61.2600 335.0000 1.0000
61.2700 336.0000 1.0000
61.2800 341.0000 1.0000
61.2900 346.0000 1.0000
61.3000 339.0000 1.0000
61.3100 349.0000 1.0000
61.3200 366.0000 1.0000
61.3300 366.0000 1.0000
61.3400 371.0000 1.0000
61.3500 362.0000 1.0000
61.3600 383.0000 1.0000
61.3700 397.0000 1.0000
61.3800 438.0000 1.0000
61.3900 395.0000 1.0000
61.4000 414.0000 1.0000
61.4100 408.0000 1.0000
61.4200 436.0000 1.0000
61.4300 480.0000 1.0000
61.4400 470.0000 1.0000
61.4500 490.0000 1.0000
61.4600 495.0000 1.0000
61.4700 517.0000 1.0000
61.4800 511.0000 1.0000
61.4900 540.0000 1.0000
61.5000 515.0000 1.0000
61.5100 546.0000 1.0000
61.5200 522.0000 1.0000
61.5300 559.0000 1.0000
61.5400 574.0000 1.0000
61.5500 526.0000 1.0000
61.5600 529.0000 1.0000
61.5700 553.0000 1.0000
61.5800 551.0000 1.0000
61.5900 569.0000 1.0000
61.6000 546.0000 1.0000
61.6100 564.0000 1.0000
61.6200 551.0000 1.0000
61.6300 537.0000 1.0000
61.6400 549.0000 1.0000
61.6500 543.0000 1.0000
61.6600 496.0000 1.0000
61.6700 514.0000 1.0000
61.6800 513.0000 1.0000
61.6900 533.0000 1.0000
61.7000 509.0000 1.0000
61.7100 508.0000 1.0000
61.7200 450.0000 1.0000
61.7300 450.0000 1.0000
61.7400 445.0000 1.0000
61.7500 457.0000 1.0000
61.7600 444.0000 1.0000
61.7700 411.0000 1.0000
61.7800 408.0000 1.0000
61.7900 444.0000 1.0000
61.8000 379.0000 1.0000
61.8100 389.0000 1.0000
61.8200 380.0000 1.0000
61.8300 381.0000 1.0000
61.8400 381.0000 1.0000
61.8500 365.0000 1.0000
61.8600 358.0000 1.0000
61.8700 376.0000 1.0000
61.8800 354.0000 1.0000
61.8900 353.0000 1.0000
61.9000 333.0000 1.0000
61.9100 345.0000 1.0000
61.9200 342.0000 1.0000
61.9300 324.0000 1.0000
61.9400 307.0000 1.0000
61.9500 316.0000 1.0000
61.9600 325.0000 1.0000
61.9700 319.0000 1.0000
61.9800 310.0000 1.0000
61.9900 315.0000 1.0000
62.0000 325.0000 1.0000
62.0100 320.0000 1.0000
62.0200 314.0000 1.0000
62.0300 305.0000 1.0000
62.0400 312.0000 1.0000
62.0500 297.0000 1.0000
62.0600 312.0000 1.0000
62.0700 276.0000 1.0000
62.0800 292.0000 1.0000
62.0900 304.0000 1.0000
62.1000 262.0000 1.0000
62.1100 286.0000 1.0000
62.1200 288.0000 1.0000
62.1300 276.0000 1.0000
62.1400 269.0000 1.0000
62.1500 284.0000 1.0000
62.1600 283.0000 1.0000
62.1700 301.0000 1.0000
62.1800 268.0000 1.0000
62.1900 273.0000 1.0000
62.2000 285.0000 1.0000
62.2100 314.0000 1.0000
62.2200 292.0000 1.0000
62.2300 285.0000 1.0000
62.2400 295.0000 1.0000
62.2500 296.0000 1.0000
62.2600 288.0000 1.0000
62.2700 275.0000 1.0000
62.2800 294.0000 1.0000
62.2900 269.0000 1.0000
62.3000 284.0000 1.0000
62.3100 287.0000 1.0000
62.3200 267.0000 1.0000
62.3300 274.0000 1.0000
62.3400 302.0000 1.0000
62.3500 296.0000 1.0000
62.3600 272.0000 1.0000
62.3700 271.0000 1.0000
62.3800 273.0000 1.0000
62.3900 281.0000 1.0000
62.4000 266.0000 1.0000
62.4100 281.0000 1.0000
62.4200 280.0000 1.0000
62.4300 281.0000 1.0000
62.4400 283.0000 1.0000
62.4500 270.0000 1.0000
62.4600 285.0000 1.0000
62.4700 265.0000 1.0000
62.4800 273.0000 1.0000
62.4900 283.0000 1.0000
62.5000 321.0000 1.0000
62.5100 288.0000 1.0000
62.5200 277.0000 1.0000
62.5300 278.0000 1.0000
62.5400 291.0000 1.0000
62.5500 262.0000 1.0000
62.5600 287.0000 1.0000
62.5700 252.0000 1.0000
62.5800 290.0000 1.0000
62.5900 286.0000 1.0000
62.6000 277.0000 1.0000
62.6100 266.0000 1.0000
62.6200 263.0000 1.0000
62.6300 244.0000 1.0000
62.6400 268.0000 1.0000
62.6500 263.0000 1.0000
62.6600 280.0000 1.0000
62.6700 250.0000 1.0000
62.6800 257.0000 1.0000
62.6900 269.0000 1.0000
62.7000 257.0000 1.0000
62.7100 249.0000 1.0000
62.7200 273.0000 1.0000
62.7300 263.0000 1.0000
62.7400 249.0000 1.0000
62.7500 252.0000 1.0000
62.7600 270.0000 1.0000
62.7700 256.0000 1.0000
62.7800 271.0000 1.0000
62.7900 269.0000 1.0000
62.8000 242.0000 1.0000
62.8100 247.0000 1.0000
62.8200 270.0000 1.0000
62.8300 257.0000 1.0000
62.8400 238.0000 1.0000
62.8500 255.0000 1.0000
62.8600 285.0000 1.0000
62.8700 267.0000 1.0000
62.8800 260.0000 1.0000
62.8900 274.0000 1.0000
62.9000 253.0000 1.0000
62.9100 271.0000 1.0000
62.9200 256.0000 1.0000
62.9300 261.0000 1.0000
62.9400 243.0000 1.0000
62.9500 253.0000 1.0000
62.9600 251.0000 1.0000
62.9700 286.0000 1.0000
62.9800 233.0000 1.0000
62.9900 265.0000 1.0000
63.0000 274.0000 1.0000
63.0100 259.0000 1.0000
63.0200 269.0000 1.0000
63.0300 269.0000 1.0000
63.0400 261.0000 1.0000
63.0500 260.0000 1.0000
63.0600 237.0000 1.0000
63.0700 264.0000 1.0000
63.0800 247.0000 1.0000
63.0900 269.0000 1.0000
63.1000 253.0000 1.0000
63.1100 270.0000 1.0000
63.1200 257.0000 1.0000
63.1300 260.0000 1.0000
63.1400 247.0000 1.0000
63.1500 254.0000 1.0000
63.1600 262.0000 1.0000
63.1700 266.0000 1.0000
63.1800 271.0000 1.0000
63.1900 254.0000 1.0000
63.2000 294.0000 1.0000
63.2100 248.0000 1.0000
63.2200 248.0000 1.0000
63.2300 231.0000 1.0000
63.2400 243.0000 1.0000
63.2500 221.0000 1.0000
63.2600 232.0000 1.0000
63.2700 232.0000 1.0000
63.2800 269.0000 1.0000
63.2900 281.0000 1.0000
63.3000 257.0000 1.0000
63.3100 245.0000 1.0000
63.3200 264.0000 1.0000
63.3300 269.0000 1.0000
63.3400 246.0000 1.0000
63.3500 244.0000 1.0000
63.3600 238.0000 1.0000
63.3700 275.0000 1.0000
63.3800 272.0000 1.0000
63.3900 294.0000 1.0000
63.4000 262.0000 1.0000
63.4100 280.0000 1.0000
63.4200 262.0000 1.0000
63.4300 253.0000 1.0000
63.4400 257.0000 1.0000
63.4500 248.0000 1.0000
63.4600 293.0000 1.0000
63.4700 268.0000 1.0000
63.4800 249.0000 1.0000
63.4900 245.0000 1.0000
63.5000 256.0000 1.0000
63.5100 282.0000 1.0000
63.5200 289.0000 1.0000
63.5300 288.0000 1.0000
63.5400 264.0000 1.0000
63.5500 260.0000 1.0000
63.5600 259.0000 1.0000
63.5700 269.0000 1.0000
63.5800 273.0000 1.0000
63.5900 259.0000 1.0000
63.6000 261.0000 1.0000
63.6100 288.0000 1.0000
63.6200 285.0000 1.0000
63.6300 286.0000 1.0000
63.6400 266.0000 1.0000
63.6500 271.0000 1.0000
63.6600 258.0000 1.0000
63.6700 258.0000 1.0000
63.6800 270.0000 1.0000
63.6900 281.0000 1.0000
63.7000 267.0000 1.0000
63.7100 251.0000 1.0000
63.7200 280.0000 1.0000
63.7300 275.0000 1.0000
63.7400 309.0000 1.0000
63.7500 283.0000 1.0000
63.7600 267.0000 1.0000
63.7700 270.0000 1.0000
63.7800 292.0000 1.0000
63.7900 258.0000 1.0000
63.8000 298.0000 1.0000
63.8100 275.0000 1.0000
63.8200 283.0000 1.0000
63.8300 277.0000 1.0000
63.8400 314.0000 1.0000
63.8500 335.0000 1.0000
63.8600 339.0000 1.0000
63.8700 321.0000 1.0000
63.8800 341.0000 1.0000
63.8900 363.0000 1.0000
63.9000 333.0000 1.0000
63.9100 307.0000 1.0000
63.9200 348.0000 1.0000
63.9300 361.0000 1.0000
63.9400 378.0000 1.0000
63.9500 368.0000 1.0000
63.9600 354.0000 1.0000
63.9700 408.0000 1.0000
63.9800 376.0000 1.0000
63.9900 381.0000 1.0000
64.0000 364.0000 1.0000
64.0100 375.0000 1.0000
64.0200 371.0000 1.0000
64.0300 351.0000 1.0000
64.0400 345.0000 1.0000
64.0500 340.0000 1.0000
64.0600 342.0000 1.0000
64.0700 348.0000 1.0000
64.0800 353.0000 1.0000
64.0900 347.0000 1.0000
64.1000 355.0000 1.0000
64.1100 346.0000 1.0000
64.1200 314.0000 1.0000
64.1300 326.0000 1.0000
64.1400 344.0000 1.0000
64.1500 313.0000 1.0000
64.1600 333.0000 1.0000
64.1700 323.0000 1.0000
64.1800 310.0000 1.0000
64.1900 298.0000 1.0000
64.2000 312.0000 1.0000
64.2100 283.0000 1.0000
64.2200 314.0000 1.0000
64.2300 298.0000 1.0000
64.2400 312.0000 1.0000
64.2500 308.0000 1.0000
64.2600 285.0000 1.0000
64.2700 298.0000 1.0000
64.2800 295.0000 1.0000
64.2900 263.0000 1.0000
64.3000 265.0000 1.0000
64.3100 280.0000 1.0000
64.3200 290.0000 1.0000
64.3300 309.0000 1.0000
64.3400 298.0000 1.0000
64.3500 277.0000 1.0000
64.3600 252.0000 1.0000
64.3700 245.0000 1.0000
64.3800 238.0000 1.0000
64.3900 281.0000 1.0000
64.4000 286.0000 1.0000
64.4100 293.0000 1.0000
64.4200 294.0000 1.0000
64.4300 306.0000 1.0000
64.4400 321.0000 1.0000
64.4500 262.0000 1.0000
64.4600 295.0000 1.0000
64.4700 277.0000 1.0000
64.4800 283.0000 1.0000
64.4900 315.0000 1.0000
64.5000 278.0000 1.0000
64.5100 262.0000 1.0000
64.5200 253.0000 1.0000
64.5300 242.0000 1.0000
64.5400 243.0000 1.0000
64.5500 284.0000 1.0000
64.5600 263.0000 1.0000
64.5700 272.0000 1.0000
64.5800 245.0000 1.0000
64.5900 271.0000 1.0000
64.6000 275.0000 1.0000
64.6100 289.0000 1.0000
64.6200 265.0000 1.0000
64.6300 266.0000 1.0000
64.6400 304.0000 1.0000
64.6500 271.0000 1.0000
64.6600 264.0000 1.0000
64.6700 290.0000 1.0000
64.6800 253.0000 1.0000
64.6900 273.0000 1.0000
64.7000 260.0000 1.0000
64.7100 253.0000 1.0000
64.7200 244.0000 1.0000
64.7300 266.0000 1.0000
64.7400 268.0000 1.0000
64.7500 252.0000 1.0000
64.7600 248.0000 1.0000
64.7700 238.0000 1.0000
64.7800 249.0000 1.0000
64.7900 252.0000 1.0000
64.8000 269.0000 1.0000
64.8100 270.0000 1.0000
64.8200 282.0000 1.0000
64.8300 268.0000 1.0000
64.8400 283.0000 1.0000
64.8500 254.0000 1.0000
64.8600 291.0000 1.0000
64.8700 270.0000 1.0000
64.8800 284.0000 1.0000
64.8900 279.0000 1.0000
64.9000 292.0000 1.0000
64.9100 270.0000 1.0000
64.9200 261.0000 1.0000
64.9300 289.0000 1.0000
64.9400 276.0000 1.0000
64.9500 259.0000 1.0000
64.9600 272.0000 1.0000
64.9700 267.0000 1.0000
64.9800 295.0000 1.0000
64.9900 292.0000 1.0000
65.0000 280.0000 1.0000
65.0100 278.0000 1.0000
65.0200 299.0000 1.0000
65.0300 262.0000 1.0000
65.0400 292.0000 1.0000
65.0500 289.0000 1.0000
65.0600 292.0000 1.0000
65.0700 300.0000 1.0000
65.0800 272.0000 1.0000
65.0900 283.0000 1.0000
65.1000 285.0000 1.0000
65.1100 305.0000 1.0000
65.1200 320.0000 1.0000
65.1300 299.0000 1.0000
65.1400 302.0000 1.0000
65.1500 321.0000 1.0000
65.1600 296.0000 1.0000
65.1700 332.0000 1.0000
65.1800 306.0000 1.0000
65.1900 337.0000 1.0000
65.2000 344.0000 1.0000
65.2100 367.0000 1.0000
65.2200 355.0000 1.0000
65.2300 327.0000 1.0000
65.2400 343.0000 1.0000
65.2500 351.0000 1.0000
65.2600 356.0000 1.0000
65.2700 377.0000 1.0000
65.2800 391.0000 1.0000
65.2900 390.0000 1.0000
65.3000 402.0000 1.0000
65.3100 477.0000 1.0000
65.3200 463.0000 1.0000
65.3300 443.0000 1.0000
65.3400 473.0000 1.0000
65.3500 486.0000 1.0000
65.3600 568.0000 1.0000
65.3700 530.0000 1.0000
65.3800 556.0000 1.0000
65.3900 576.0000 1.0000
65.4000 640.0000 1.0000
65.4100 654.0000 1.0000
65.4200 664.0000 1.0000
65.4300 720.0000 1.0000
65.4400 728.0000 1.0000
65.4500 788.0000 1.0000
65.4600 814.0000 1.0000
65.4700 841.0000 1.0000
65.4800 865.0000 1.0000
65.4900 888.0000 1.0000
65.5000 964.0000 1.0000
65.5100 963.0000 1.0000
65.5200 986.0000 1.0000
65.5300 1033.0000 1.0000
65.5400 1011.0000 1.0000
65.5500 971.0000 1.0000
65.5600 988.0000 1.0000
65.5700 974.0000 1.0000
65.5800 1075.0000 1.0000
65.5900 1019.0000 1.0000
65.6000 1013.0000 1.0000
65.6100 1089.0000 1.0000
65.6200 974.0000 1.0000
65.6300 970.0000 1.0000
65.6400 898.0000 1.0000
65.6500 932.0000 1.0000
65.6600 905.0000 1.0000
65.6700 829.0000 1.0000
65.6800 871.0000 1.0000
65.6900 854.0000 1.0000
65.7000 824.0000 1.0000
65.7100 784.0000 1.0000
65.7200 790.0000 1.0000
65.7300 786.0000 1.0000
65.7400 773.0000 1.0000
65.7500 757.0000 1.0000
65.7600 703.0000 1.0000
65.7700 708.0000 1.0000
65.7800 671.0000 1.0000
65.7900 631.0000 1.0000
65.8000 627.0000 1.0000
65.8100 586.0000 1.0000
65.8200 608.0000 1.0000
65.8300 562.0000 1.0000
65.8400 533.0000 1.0000
65.8500 542.0000 1.0000
65.8600 506.0000 1.0000
65.8700 471.0000 1.0000
65.8800 397.0000 1.0000
65.8900 445.0000 1.0000
65.9000 425.0000 1.0000
65.9100 373.0000 1.0000
65.9200 394.0000 1.0000
65.9300 410.0000 1.0000
65.9400 401.0000 1.0000
65.9500 380.0000 1.0000
65.9600 373.0000 1.0000
65.9700 384.0000 1.0000
65.9800 350.0000 1.0000
65.9900 361.0000 1.0000
66.0000 331.0000 1.0000
66.0100 309.0000 1.0000
66.0200 343.0000 1.0000
66.0300 319.0000 1.0000
66.0400 331.0000 1.0000
66.0500 341.0000 1.0000
66.0600 278.0000 1.0000
66.0700 296.0000 1.0000
66.0800 294.0000 1.0000
66.0900 293.0000 1.0000
66.1000 305.0000 1.0000
66.1100 286.0000 1.0000
66.1200 298.0000 1.0000
66.1300 284.0000 1.0000
66.1400 279.0000 1.0000
66.1500 312.0000 1.0000
66.1600 294.0000 1.0000
66.1700 300.0000 1.0000
66.1800 303.0000 1.0000
66.1900 283.0000 1.0000
66.2000 263.0000 1.0000
66.2100 277.0000 1.0000
66.2200 266.0000 1.0000
66.2300 266.0000 1.0000
66.2400 267.0000 1.0000
66.2500 277.0000 1.0000
66.2600 256.0000 1.0000
66.2700 254.0000 1.0000
66.2800 242.0000 1.0000
66.2900 252.0000 1.0000
66.3000 261.0000 1.0000
66.3100 269.0000 1.0000
66.3200 268.0000 1.0000
66.3300 260.0000 1.0000
66.3400 244.0000 1.0000
66.3500 253.0000 1.0000
66.3600 274.0000 1.0000
66.3700 260.0000 1.0000
66.3800 247.0000 1.0000
66.3900 271.0000 1.0000
66.4000 268.0000 1.0000
66.4100 249.0000 1.0000
66.4200 252.0000 1.0000
66.4300 247.0000 1.0000
66.4400 258.0000 1.0000
66.4500 248.0000 1.0000
66.4600 273.0000 1.0000
66.4700 231.0000 1.0000
66.4800 253.0000 1.0000
66.4900 256.0000 1.0000
66.5000 281.0000 1.0000
66.5100 264.0000 1.0000
66.5200 256.0000 1.0000
66.5300 238.0000 1.0000
66.5400 252.0000 1.0000
66.5500 246.0000 1.0000
66.5600 250.0000 1.0000
66.5700 265.0000 1.0000
66.5800 262.0000 1.0000
66.5900 247.0000 1.0000
66.6000 264.0000 1.0000
66.6100 261.0000 1.0000
66.6200 238.0000 1.0000
66.6300 239.0000 1.0000
66.6400 255.0000 1.0000
66.6500 226.0000 1.0000
66.6600 229.0000 1.0000
66.6700 238.0000 1.0000
66.6800 251.0000 1.0000
66.6900 233.0000 1.0000
66.7000 235.0000 1.0000
66.7100 235.0000 1.0000
66.7200 257.0000 1.0000
66.7300 251.0000 1.0000
66.7400 260.0000 1.0000
66.7500 240.0000 1.0000
66.7600 231.0000 1.0000
66.7700 234.0000 1.0000
66.7800 239.0000 1.0000
66.7900 236.0000 1.0000
66.8000 255.0000 1.0000
66.8100 252.0000 1.0000
66.8200 213.0000 1.0000
66.8300 244.0000 1.0000
66.8400 244.0000 1.0000
66.8500 246.0000 1.0000
66.8600 247.0000 1.0000
66.8700 220.0000 1.0000
66.8800 242.0000 1.0000
66.8900 245.0000 1.0000
66.9000 246.0000 1.0000
66.9100 229.0000 1.0000
66.9200 229.0000 1.0000
66.9300 252.0000 1.0000
66.9400 245.0000 1.0000
66.9500 238.0000 1.0000
66.9600 243.0000 1.0000
66.9700 232.0000 1.0000
66.9800 242.0000 1.0000
66.9900 248.0000 1.0000
67.0000 251.0000 1.0000
67.0100 234.0000 1.0000
67.0200 256.0000 1.0000
67.0300 237.0000 1.0000
67.0400 232.0000 1.0000
67.0500 244.0000 1.0000
67.0600 237.0000 1.0000
67.0700 239.0000 1.0000
67.0800 250.0000 1.0000
67.0900 221.0000 1.0000
67.1000 246.0000 1.0000
67.1100 227.0000 1.0000
67.1200 258.0000 1.0000
67.1300 259.0000 1.0000
67.1400 241.0000 1.0000
67.1500 230.0000 1.0000
67.1600 230.0000 1.0000
67.1700 251.0000 1.0000
67.1800 247.0000 1.0000
67.1900 245.0000 1.0000
67.2000 244.0000 1.0000
67.2100 238.0000 1.0000
67.2200 235.0000 1.0000
67.2300 250.0000 1.0000
67.2400 227.0000 1.0000
67.2500 252.0000 1.0000
67.2600 240.0000 1.0000
67.2700 272.0000 1.0000
67.2800 238.0000 1.0000
67.2900 221.0000 1.0000
67.3000 235.0000 1.0000
67.3100 237.0000 1.0000
67.3200 227.0000 1.0000
67.3300 222.0000 1.0000
67.3400 221.0000 1.0000
67.3500 201.0000 1.0000
67.3600 213.0000 1.0000
67.3700 246.0000 1.0000
67.3800 239.0000 1.0000
67.3900 244.0000 1.0000
67.4000 237.0000 1.0000
67.4100 245.0000 1.0000
67.4200 270.0000 1.0000
67.4300 228.0000 1.0000
67.4400 231.0000 1.0000
67.4500 229.0000 1.0000
67.4600 234.0000 1.0000
67.4700 226.0000 1.0000
67.4800 246.0000 1.0000
67.4900 244.0000 1.0000
67.5000 253.0000 1.0000
67.5100 235.0000 1.0000
67.5200 241.0000 1.0000
67.5300 236.0000 1.0000
67.5400 242.0000 1.0000
67.5500 225.0000 1.0000
67.5600 230.0000 1.0000
67.5700 237.0000 1.0000
67.5800 220.0000 1.0000
67.5900 241.0000 1.0000
67.6000 231.0000 1.0000
67.6100 212.0000 1.0000
67.6200 223.0000 1.0000
67.6300 224.0000 1.0000
67.6400 233.0000 1.0000
67.6500 223.0000 1.0000
67.6600 219.0000 1.0000
67.6700 228.0000 1.0000
67.6800 219.0000 1.0000
67.6900 243.0000 1.0000
67.7000 236.0000 1.0000
67.7100 224.0000 1.0000
67.7200 229.0000 1.0000
67.7300 246.0000 1.0000
67.7400 215.0000 1.0000
67.7500 234.0000 1.0000
67.7600 230.0000 1.0000
67.7700 250.0000 1.0000
67.7800 203.0000 1.0000
67.7900 232.0000 1.0000
67.8000 230.0000 1.0000
67.8100 227.0000 1.0000
67.8200 249.0000 1.0000
67.8300 218.0000 1.0000
67.8400 216.0000 1.0000
67.8500 223.0000 1.0000
67.8600 245.0000 1.0000
67.8700 237.0000 1.0000
67.8800 240.0000 1.0000
67.8900 217.0000 1.0000
67.9000 237.0000 1.0000
67.9100 229.0000 1.0000
67.9200 213.0000 1.0000
67.9300 238.0000 1.0000
67.9400 237.0000 1.0000
67.9500 237.0000 1.0000
67.9600 232.0000 1.0000
67.9700 222.0000 1.0000
67.9800 219.0000 1.0000
67.9900 219.0000 1.0000
68.0000 219.0000 1.0000
68.0100 247.0000 1.0000
68.0200 233.0000 1.0000
68.0300 242.0000 1.0000
68.0400 231.0000 1.0000
68.0500 235.0000 1.0000
68.0600 219.0000 1.0000
68.0700 231.0000 1.0000
68.0800 200.0000 1.0000
68.0900 225.0000 1.0000
68.1000 234.0000 1.0000
68.1100 243.0000 1.0000
68.1200 235.0000 1.0000
68.1300 228.0000 1.0000
68.1400 209.0000 1.0000
68.1500 224.0000 1.0000
68.1600 226.0000 1.0000
68.1700 240.0000 1.0000
68.1800 235.0000 1.0000
68.1900 210.0000 1.0000
68.2000 216.0000 1.0000
68.2100 217.0000 1.0000
68.2200 218.0000 1.0000
68.2300 214.0000 1.0000
68.2400 241.0000 1.0000
68.2500 219.0000 1.0000
68.2600 247.0000 1.0000
68.2700 233.0000 1.0000
68.2800 213.0000 1.0000
68.2900 215.0000 1.0000
68.3000 217.0000 1.0000
68.3100 234.0000 1.0000
68.3200 200.0000 1.0000
68.3300 230.0000 1.0000
68.3400 245.0000 1.0000
68.3500 225.0000 1.0000
68.3600 230.0000 1.0000
68.3700 241.0000 1.0000
68.3800 239.0000 1.0000
68.3900 252.0000 1.0000
68.4000 228.0000 1.0000
68.4100 245.0000 1.0000
68.4200 230.0000 1.0000
68.4300 193.0000 1.0000
68.4400 209.0000 1.0000
68.4500 213.0000 1.0000
68.4600 231.0000 1.0000
68.4700 210.0000 1.0000
68.4800 230.0000 1.0000
68.4900 224.0000 1.0000
68.5000 246.0000 1.0000
68.5100 234.0000 1.0000
68.5200 228.0000 1.0000
68.5300 244.0000 1.0000
68.5400 194.0000 1.0000
68.5500 221.0000 1.0000
68.5600 216.0000 1.0000
68.5700 250.0000 1.0000
68.5800 231.0000 1.0000
68.5900 229.0000 1.0000
68.6000 217.0000 1.0000
68.6100 223.0000 1.0000
68.6200 216.0000 1.0000
68.6300 211.0000 1.0000
68.6400 215.0000 1.0000
68.6500 223.0000 1.0000
68.6600 209.0000 1.0000
68.6700 229.0000 1.0000
68.6800 239.0000 1.0000
68.6900 216.0000 1.0000
68.7000 222.0000 1.0000
68.7100 208.0000 1.0000
68.7200 229.0000 1.0000
68.7300 209.0000 1.0000
68.7400 230.0000 1.0000
68.7500 232.0000 1.0000
68.7600 248.0000 1.0000
68.7700 236.0000 1.0000
68.7800 242.0000 1.0000
68.7900 242.0000 1.0000
68.8000 253.0000 1.0000
68.8100 218.0000 1.0000
68.8200 252.0000 1.0000
68.8300 233.0000 1.0000
68.8400 246.0000 1.0000
68.8500 239.0000 1.0000
68.8600 231.0000 1.0000
68.8700 245.0000 1.0000
68.8800 244.0000 1.0000
68.8900 249.0000 1.0000
68.9000 236.0000 1.0000
68.9100 219.0000 1.0000
68.9200 223.0000 1.0000
68.9300 213.0000 1.0000
68.9400 238.0000 1.0000
68.9500 236.0000 1.0000
68.9600 215.0000 1.0000
68.9700 229.0000 1.0000
68.9800 228.0000 1.0000
68.9900 220.0000 1.0000
69.0000 237.0000 1.0000
69.0100 241.0000 1.0000
69.0200 218.0000 1.0000
69.0300 233.0000 1.0000
69.0400 238.0000 1.0000
69.0500 193.0000 1.0000
69.0600 218.0000 1.0000
69.0700 210.0000 1.0000
69.0800 233.0000 1.0000
69.0900 212.0000 1.0000
69.1000 205.0000 1.0000
69.1100 214.0000 1.0000
69.1200 222.0000 1.0000
69.1300 238.0000 1.0000
69.1400 266.0000 1.0000
69.1500 270.0000 1.0000
69.1600 221.0000 1.0000
69.1700 237.0000 1.0000
69.1800 230.0000 1.0000
69.1900 232.0000 1.0000
69.2000 209.0000 1.0000
69.2100 199.0000 1.0000
69.2200 238.0000 1.0000
69.2300 226.0000 1.0000
69.2400 193.0000 1.0000
69.2500 220.0000 1.0000
69.2600 209.0000 1.0000
69.2700 212.0000 1.0000
69.2800 217.0000 1.0000
69.2900 233.0000 1.0000
69.3000 212.0000 1.0000
69.3100 233.0000 1.0000
69.3200 227.0000 1.0000
69.3300 228.0000 1.0000
69.3400 215.0000 1.0000
69.3500 221.0000 1.0000
69.3600 201.0000 1.0000
69.3700 227.0000 1.0000
69.3800 225.0000 1.0000
69.3900 235.0000 1.0000
69.4000 229.0000 1.0000
69.4100 253.0000 1.0000
69.4200 236.0000 1.0000
69.4300 207.0000 1.0000
69.4400 238.0000 1.0000
69.4500 236.0000 1.0000
69.4600 225.0000 1.0000
69.4700 228.0000 1.0000
69.4800 220.0000 1.0000
69.4900 228.0000 1.0000
69.5000 214.0000 1.0000
69.5100 199.0000 1.0000
69.5200 215.0000 1.0000
69.5300 240.0000 1.0000
69.5400 227.0000 1.0000
69.5500 191.0000 1.0000
69.5600 195.0000 1.0000
69.5700 227.0000 1.0000
69.5800 239.0000 1.0000
69.5900 227.0000 1.0000
69.6000 242.0000 1.0000
69.6100 249.0000 1.0000
69.6200 245.0000 1.0000
69.6300 238.0000 1.0000
69.6400 225.0000 1.0000
69.6500 205.0000 1.0000
69.6600 214.0000 1.0000
69.6700 214.0000 1.0000
69.6800 180.0000 1.0000
69.6900 227.0000 1.0000
69.7000 218.0000 1.0000
69.7100 204.0000 1.0000
69.7200 227.0000 1.0000
69.7300 226.0000 1.0000
69.7400 217.0000 1.0000
69.7500 209.0000 1.0000
69.7600 223.0000 1.0000
69.7700 237.0000 1.0000
69.7800 236.0000 1.0000
69.7900 238.0000 1.0000
69.8000 216.0000 1.0000
69.8100 212.0000 1.0000
69.8200 232.0000 1.0000
69.8300 231.0000 1.0000
69.8400 210.0000 1.0000
69.8500 237.0000 1.0000
69.8600 225.0000 1.0000
69.8700 216.0000 1.0000
69.8800 198.0000 1.0000
69.8900 208.0000 1.0000
69.9000 234.0000 1.0000
69.9100 238.0000 1.0000
69.9200 218.0000 1.0000
69.9300 223.0000 1.0000
69.9400 230.0000 1.0000
69.9500 241.0000 1.0000
69.9600 231.0000 1.0000
69.9700 216.0000 1.0000
69.9800 209.0000 1.0000
69.9900 205.0000 1.0000
70.0000 224.0000 1.0000
*RAS_INT_END
*RAS_TEMPERATURE_START
*RAS_TEMPERATURE_END
*RAS_DATA_END
