*RAS_DATA_START
*RAS_HEADER_START
*DISP_FMT_X "%.2f"
*DISP_FMT_Y "%.0f"
*DISP_FULLSCALE "14440.0000000000"
*DISP_LINE_COLOR "255.0000000000"
*DISP_LINE_STYLE "0.0000000000"
*DISP_LINE_WIDTH "0.2500000000"
*DISP_NOTE "測定データ-5"
*DISP_OFFSET_Y "0.0000000000"
*DISP_PEAKSEARCH_UNIT_Y "cps"
*DISP_RANGE_BOTTOM "0.0000000000"
*DISP_RANGE_LEFT "20.0000000000"
*DISP_RANGE_LOGCUTOFF "0.0100000000"
*DISP_RANGE_RIGHT "70.0000000000"
*DISP_RANGE_TOP "14440.0000000000"
*DISP_SCALE_MODE_Y "0.0000000000"
*DISP_TAB_NAME "2θ/θ"
*DISP_TITLE_Y "強度"
*DISP_UNIT_Y "cps"
*DISP_WINDOW_NAME "MSG_MACROENGINE"
*FILE_COMMENT " "
*FILE_MD5 ""
*FILE_MEMO " "
*FILE_OPERATOR "Administrator"
*FILE_SAMPLE " "
*FILE_TYPE "RAS_RAW"
*FILE_USERGROUP "システムマネージャ"
*FILE_VERSION "1.0000000000"
*HW_ATTACHMENT_ID "ATT0025"
*HW_ATTACHMENT_NAME "標準|Standard"
*HW_COUNTER_ID-0 "CUT0025"
*HW_COUNTER_ID-1 "CUT0020"
*HW_COUNTER_ID-2 "CUT0020"
*HW_COUNTER_ID-3 "CSL0021"
*HW_COUNTER_ID-4 "CMC0021"
*HW_COUNTER_NAME-0 "D/teX Ultra|D/teX Ultra"
*HW_COUNTER_NAME-1 "None|None"
*HW_COUNTER_NAME-2 "None|None"
*HW_COUNTER_NAME-3 "BBM|BBM"
*HW_COUNTER_NAME-4 "検出器モノクロメータ|Detector monochromator"
*HW_COUNTER_SELECT_NAME "D/teX Ultra|D/teX Ultra"
*HW_GONIOMETER_ID "GON0023"
*HW_GONIOMETER_NAME "SmartLab|SmartLab"
*HW_GONIOMETER_RADIUS-0 "90.0"
*HW_GONIOMETER_RADIUS-1 "114.0"
*HW_GONIOMETER_RADIUS-2 "190.0"
*HW_GONIOMETER_RADIUS-3 "300.0"
*HW_GONIOMETER_RADIUS-4 "187.0"
*HW_GONIOMETER_RADIUS-5 "300.0"
*HW_GONIOMETER_RADIUS-6 "113.0"
*HW_GONIOMETER_RADIUS-7 "331.0"
*HW_I_OPT_ID-0 "CBO0021"
*HW_I_OPT_ID-1 "ICR0023"
*HW_I_OPT_ID-2 "ISL0021"
*HW_I_OPT_ID-3 "ISO0021"
*HW_I_OPT_ID-4 "IAD0021"
*HW_I_OPT_ID-5 "IPR0001"
*HW_I_OPT_NAME-0 "CBOユニット|CBO unit"
*HW_I_OPT_NAME-1 "標準入射光学ユニット|Standard incident optical unit"
*HW_I_OPT_NAME-2 "標準入射スリットボックス|Standard incident slit box"
*HW_I_OPT_NAME-3 "入射平行スリット|Incident parallel slit"
*HW_I_OPT_NAME-4 "長手制限スリット|Length limiting slit"
*HW_I_OPT_NAME-5 "None|None"
*HW_R_ATTENUATER_AUTOMODE "0"
*HW_R_OPT_ID-0 "RSS0021"
*HW_R_OPT_ID-1 "RCR0023"
*HW_R_OPT_ID-2 "RSO0021"
*HW_R_OPT_ID-3 "RRS0021"
*HW_R_OPT_ID-4 "ATN0021"
*HW_R_OPT_ID-5 "RFL0021"
*HW_R_OPT_ID-6 "RAD0021"
*HW_R_OPT_NAME-0 "標準受光スリットボックス1|Standard receiving slit box # 1"
*HW_R_OPT_NAME-1 "標準受光光学ユニット1|Standard receiving unit # 1"
*HW_R_OPT_NAME-2 "標準受光光学ユニット2|Standard receiving optical unit # 2"
*HW_R_OPT_NAME-3 "標準受光スリットボックス2|Standard receiving slit box # 2"
*HW_R_OPT_NAME-4 "標準アッテネータ|Standard Attenuator"
*HW_R_OPT_NAME-5 "Cu Kβ|Cu K-beta"
*HW_R_OPT_NAME-6 "調整用受光スリット|Alignment receiving slit"
*HW_SAMPLE_HOLDER_ID "SMP0023"
*HW_SAMPLE_HOLDER_NAME "標準Zステージ|Standard Z stage"
*HW_XG_CURRENT_MAX "50"
*HW_XG_CURRENT_MIN "2"
*HW_XG_CURRENT_RESOLUTION "1"
*HW_XG_CURRENT_UNIT "mA"
*HW_XG_FOCUS "1mm x 10mm"
*HW_XG_FOCUS_TYPE "Normal"
*HW_XG_ID ""
*HW_XG_NAME "3kW 封入管(ID:1200)|3kW Sealed tube(ID:1200)"
*HW_XG_TARGET_ATOMIC_NUMBER "29.0000000000"
*HW_XG_TARGET_NAME "Cu"
*HW_XG_TYPE "Hermetic"
*HW_XG_VOLTAGE_MAX "60"
*HW_XG_VOLTAGE_MIN "20"
*HW_XG_VOLTAGE_RESOLUTION "1"
*HW_XG_VOLTAGE_UNIT "kV"
*HW_XG_WATT_MAX "1.500"
*HW_XG_WATT_UNIT "kW"
*HW_XG_WAVE_LENGTH_ALPHA1 "1.540593"
*HW_XG_WAVE_LENGTH_ALPHA2 "1.544414"
*HW_XG_WAVE_LENGTH_BETA "1.392250"
*MEAS_COND_AXIS_NAME-0 "2θ/θ"
*MEAS_COND_AXIS_NAME-1 "2θ"
*MEAS_COND_AXIS_NAME-2 "ω"
*MEAS_COND_AXIS_NAME-3 "Z"
*MEAS_COND_AXIS_NAME-4 "2θ/ω"
*MEAS_COND_AXIS_NAME-5 "θs"
*MEAS_COND_AXIS_NAME-6 "θd"
*MEAS_COND_AXIS_NAME-7 "Ts"
*MEAS_COND_AXIS_NAME-8 "CBO選択スリット"
*MEAS_COND_AXIS_NAME-9 "M"
*MEAS_COND_AXIS_NAME-10 "入射平行スリット"
*MEAS_COND_AXIS_NAME-11 "入射スリット"
*MEAS_COND_AXIS_NAME-12 ""
*MEAS_COND_AXIS_NAME-13 "Zs"
*MEAS_COND_AXIS_NAME-14 "入射光学素子"
*MEAS_COND_AXIS_NAME-15 "長手制限スリット"
*MEAS_COND_AXIS_NAME-16 "センタースリット"
*MEAS_COND_AXIS_NAME-17 "フィルター"
*MEAS_COND_AXIS_NAME-18 "受光スリット1"
*MEAS_COND_AXIS_NAME-19 "受光スリット2"
*MEAS_COND_AXIS_NAME-20 "受光光学素子"
*MEAS_COND_AXIS_NAME-21 "受光平行スリット"
*MEAS_COND_AXIS_NAME-22 "調整用受光スリット"
*MEAS_COND_AXIS_NAME-23 ""
*MEAS_COND_AXIS_NAME-24 ""
*MEAS_COND_AXIS_NAME-25 "Zd"
*MEAS_COND_AXIS_NAME-26 "アッテネータ"
*MEAS_COND_AXIS_NAME-27 "検出器モノクロメータ"
*MEAS_COND_AXIS_NAME-28 "モノクロメータスリット"
*MEAS_COND_AXIS_NAME-29 "プライマリビーム"
*MEAS_COND_AXIS_NAME-30 "PHA"
*MEAS_COND_AXIS_NAME_INTERNAL-0 "TwoThetaTheta"
*MEAS_COND_AXIS_NAME_INTERNAL-1 "TwoTheta"
*MEAS_COND_AXIS_NAME_INTERNAL-2 "Omega"
*MEAS_COND_AXIS_NAME_INTERNAL-3 "Z"
*MEAS_COND_AXIS_NAME_INTERNAL-4 "TwoThetaOmega"
*MEAS_COND_AXIS_NAME_INTERNAL-5 "ThetaS"
*MEAS_COND_AXIS_NAME_INTERNAL-6 "ThetaD"
*MEAS_COND_AXIS_NAME_INTERNAL-7 "Ts"
*MEAS_COND_AXIS_NAME_INTERNAL-8 "CBO"
*MEAS_COND_AXIS_NAME_INTERNAL-9 "CBO-M"
*MEAS_COND_AXIS_NAME_INTERNAL-10 "IncidentSollerSlit"
*MEAS_COND_AXIS_NAME_INTERNAL-11 "IncidentSlitBox"
*MEAS_COND_AXIS_NAME_INTERNAL-12 "IncidentSlitBox-_Axis"
*MEAS_COND_AXIS_NAME_INTERNAL-13 "Zs"
*MEAS_COND_AXIS_NAME_INTERNAL-14 "IncidentMonochromator"
*MEAS_COND_AXIS_NAME_INTERNAL-15 "IncidentAxdSlit"
*MEAS_COND_AXIS_NAME_INTERNAL-16 "CenterSlit"
*MEAS_COND_AXIS_NAME_INTERNAL-17 "Filter"
*MEAS_COND_AXIS_NAME_INTERNAL-18 "ReceivingSlitBox1"
*MEAS_COND_AXIS_NAME_INTERNAL-19 "ReceivingSlitBox2"
*MEAS_COND_AXIS_NAME_INTERNAL-20 "ReceivingOptics"
*MEAS_COND_AXIS_NAME_INTERNAL-21 "ReceivingSollerSlit"
*MEAS_COND_AXIS_NAME_INTERNAL-22 "ReceivingAxdSlit"
*MEAS_COND_AXIS_NAME_INTERNAL-23 "ReceivingSlitBox1-_Axis"
*MEAS_COND_AXIS_NAME_INTERNAL-24 "ReceivingSlitBox2-_Axis"
*MEAS_COND_AXIS_NAME_INTERNAL-25 "ReceivingSlitBox2-Zd"
*MEAS_COND_AXIS_NAME_INTERNAL-26 "Attenuator"
*MEAS_COND_AXIS_NAME_INTERNAL-27 "CounterMonochromator"
*MEAS_COND_AXIS_NAME_INTERNAL-28 "CounterSlit"
*MEAS_COND_AXIS_NAME_INTERNAL-29 "IncidentPrimary"
*MEAS_COND_AXIS_NAME_INTERNAL-30 "PHA"
*MEAS_COND_AXIS_NAME_MAGICNO-0 "83951616.0000000000"
*MEAS_COND_AXIS_NAME_MAGICNO-1 "268632064.0000000000"
*MEAS_COND_AXIS_NAME_MAGICNO-2 "268500992.0000000000"
*MEAS_COND_AXIS_NAME_MAGICNO-3 "285278208.0000000000"
*MEAS_COND_AXIS_NAME_MAGICNO-4 "83951616.0000000000"
*MEAS_COND_AXIS_NAME_MAGICNO-5 "131072.0000000000"
*MEAS_COND_AXIS_NAME_MAGICNO-6 "131072.0000000000"
*MEAS_COND_AXIS_NAME_MAGICNO-7 "318898176.0000000000"
*MEAS_COND_AXIS_NAME_MAGICNO-8 "20971521.0000000000"
*MEAS_COND_AXIS_NAME_MAGICNO-9 "285343744.0000000000"
*MEAS_COND_AXIS_NAME_MAGICNO-10 "20971521.0000000000"
*MEAS_COND_AXIS_NAME_MAGICNO-11 "22020097.0000000000"
*MEAS_COND_AXIS_NAME_MAGICNO-12 "25165824.0000000000"
*MEAS_COND_AXIS_NAME_MAGICNO-13 "318898176.0000000000"
*MEAS_COND_AXIS_NAME_MAGICNO-14 "1.0000000000"
*MEAS_COND_AXIS_NAME_MAGICNO-15 "20971521.0000000000"
*MEAS_COND_AXIS_NAME_MAGICNO-16 "20971521.0000000000"
*MEAS_COND_AXIS_NAME_MAGICNO-17 "20971521.0000000000"
*MEAS_COND_AXIS_NAME_MAGICNO-18 "23068673.0000000000"
*MEAS_COND_AXIS_NAME_MAGICNO-19 "23068673.0000000000"
*MEAS_COND_AXIS_NAME_MAGICNO-20 "20971521.0000000000"
*MEAS_COND_AXIS_NAME_MAGICNO-21 "20971521.0000000000"
*MEAS_COND_AXIS_NAME_MAGICNO-22 "20971521.0000000000"
*MEAS_COND_AXIS_NAME_MAGICNO-23 "25165824.0000000000"
*MEAS_COND_AXIS_NAME_MAGICNO-24 "25165824.0000000000"
*MEAS_COND_AXIS_NAME_MAGICNO-25 "285343744.0000000000"
*MEAS_COND_AXIS_NAME_MAGICNO-26 "17301505.0000000000"
*MEAS_COND_AXIS_NAME_MAGICNO-27 "20971521.0000000000"
*MEAS_COND_AXIS_NAME_MAGICNO-28 "20971521.0000000000"
*MEAS_COND_AXIS_NAME_MAGICNO-29 "20971521.0000000000"
*MEAS_COND_AXIS_NAME_MAGICNO-30 "0.0000000000"
*MEAS_COND_AXIS_OFFSET-0 "-"
*MEAS_COND_AXIS_OFFSET-1 "-0.0310000000"
*MEAS_COND_AXIS_OFFSET-2 "0.1589000000"
*MEAS_COND_AXIS_OFFSET-3 "-"
*MEAS_COND_AXIS_OFFSET-4 "-"
*MEAS_COND_AXIS_OFFSET-5 "0.1589000000"
*MEAS_COND_AXIS_OFFSET-6 "-0.1899000000"
*MEAS_COND_AXIS_OFFSET-7 "-"
*MEAS_COND_AXIS_OFFSET-8 "-"
*MEAS_COND_AXIS_OFFSET-9 "-"
*MEAS_COND_AXIS_OFFSET-10 "-"
*MEAS_COND_AXIS_OFFSET-11 "-"
*MEAS_COND_AXIS_OFFSET-12 "-"
*MEAS_COND_AXIS_OFFSET-13 "-"
*MEAS_COND_AXIS_OFFSET-14 "-"
*MEAS_COND_AXIS_OFFSET-15 "-"
*MEAS_COND_AXIS_OFFSET-16 "-"
*MEAS_COND_AXIS_OFFSET-17 "-"
*MEAS_COND_AXIS_OFFSET-18 "-"
*MEAS_COND_AXIS_OFFSET-19 "-"
*MEAS_COND_AXIS_OFFSET-20 "-"
*MEAS_COND_AXIS_OFFSET-21 "-"
*MEAS_COND_AXIS_OFFSET-22 "-"
*MEAS_COND_AXIS_OFFSET-23 "-"
*MEAS_COND_AXIS_OFFSET-24 "-"
*MEAS_COND_AXIS_OFFSET-25 "-"
*MEAS_COND_AXIS_OFFSET-26 "-"
*MEAS_COND_AXIS_OFFSET-27 "-"
*MEAS_COND_AXIS_OFFSET-28 "-"
*MEAS_COND_AXIS_OFFSET-29 "-"
*MEAS_COND_AXIS_OFFSET-30 "-"
*MEAS_COND_AXIS_POSITION-0 "0.0000000000"
*MEAS_COND_AXIS_POSITION-1 "0.0000000000"
*MEAS_COND_AXIS_POSITION-2 "0.0000000000"
*MEAS_COND_AXIS_POSITION-3 "-2.9326600000"
*MEAS_COND_AXIS_POSITION-4 "0.0000000000"
*MEAS_COND_AXIS_POSITION-5 "0.0000000000"
*MEAS_COND_AXIS_POSITION-6 "0.0000000000"
*MEAS_COND_AXIS_POSITION-7 "-0.7498700000"
*MEAS_COND_AXIS_POSITION-8 "BB"
*MEAS_COND_AXIS_POSITION-9 "0.0000000000"
*MEAS_COND_AXIS_POSITION-10 "Soller_slit_5.0deg"
*MEAS_COND_AXIS_POSITION-11 "2/3deg"
*MEAS_COND_AXIS_POSITION-12 "2.2088000000"
*MEAS_COND_AXIS_POSITION-13 "-0.6412500000"
*MEAS_COND_AXIS_POSITION-14 "0.0000000000"
*MEAS_COND_AXIS_POSITION-15 "10.0mm"
*MEAS_COND_AXIS_POSITION-16 "None"
*MEAS_COND_AXIS_POSITION-17 "Cu_K-beta"
*MEAS_COND_AXIS_POSITION-18 "13.000mm"
*MEAS_COND_AXIS_POSITION-19 "13.000mm"
*MEAS_COND_AXIS_POSITION-20 "No_unit"
*MEAS_COND_AXIS_POSITION-21 "Soller_slit_5.0deg"
*MEAS_COND_AXIS_POSITION-22 "None"
*MEAS_COND_AXIS_POSITION-23 "13.0000000000"
*MEAS_COND_AXIS_POSITION-24 "13.0000000000"
*MEAS_COND_AXIS_POSITION-25 "0.0281300000"
*MEAS_COND_AXIS_POSITION-26 "Open"
*MEAS_COND_AXIS_POSITION-27 "None"
*MEAS_COND_AXIS_POSITION-28 "None"
*MEAS_COND_AXIS_POSITION-29 "None"
*MEAS_COND_AXIS_POSITION-30 "38.0000000000"
*MEAS_COND_AXIS_UNIT-0 "deg"
*MEAS_COND_AXIS_UNIT-1 "deg"
*MEAS_COND_AXIS_UNIT-2 "deg"
*MEAS_COND_AXIS_UNIT-3 "mm"
*MEAS_COND_AXIS_UNIT-4 "deg"
*MEAS_COND_AXIS_UNIT-5 "deg"
*MEAS_COND_AXIS_UNIT-6 "deg"
*MEAS_COND_AXIS_UNIT-7 "mm"
*MEAS_COND_AXIS_UNIT-8 ""
*MEAS_COND_AXIS_UNIT-9 "pulse"
*MEAS_COND_AXIS_UNIT-10 ""
*MEAS_COND_AXIS_UNIT-11 ""
*MEAS_COND_AXIS_UNIT-12 "mm"
*MEAS_COND_AXIS_UNIT-13 "mm"
*MEAS_COND_AXIS_UNIT-14 ""
*MEAS_COND_AXIS_UNIT-15 ""
*MEAS_COND_AXIS_UNIT-16 ""
*MEAS_COND_AXIS_UNIT-17 ""
*MEAS_COND_AXIS_UNIT-18 ""
*MEAS_COND_AXIS_UNIT-19 ""
*MEAS_COND_AXIS_UNIT-20 ""
*MEAS_COND_AXIS_UNIT-21 ""
*MEAS_COND_AXIS_UNIT-22 ""
*MEAS_COND_AXIS_UNIT-23 "mm"
*MEAS_COND_AXIS_UNIT-24 "mm"
*MEAS_COND_AXIS_UNIT-25 "mm"
*MEAS_COND_AXIS_UNIT-26 ""
*MEAS_COND_AXIS_UNIT-27 ""
*MEAS_COND_AXIS_UNIT-28 ""
*MEAS_COND_AXIS_UNIT-29 ""
*MEAS_COND_AXIS_UNIT-30 "div"
*MEAS_COND_COUNTER_CNTLOSS_CORR "0.0000000000"
*MEAS_COND_COUNTER_PHABASE "38.0000000000"
*MEAS_COND_COUNTER_PHAWINDOW "16.0000000000"
*MEAS_COND_COUNTER_PHA_UNIT "div"
*MEAS_COND_COUNTER_TAUDIFF "30.0000000000"
*MEAS_COND_COUNTER_TAUINT "0.0000000000"
*MEAS_COND_IRRADIATION_MODE "OFF"
*MEAS_COND_IRRADIATION_WIDTH ""
*MEAS_COND_OPT_ATTR "集中法"
*MEAS_COND_OPT_NAME "@集中法"
*MEAS_COND_UNSYMMETRIC_MODE "OFF"
*MEAS_COND_XG_CURRENT "30.0000000000"
*MEAS_COND_XG_VOLTAGE "40.0000000000"
*MEAS_COND_XG_WAVE_TYPE "Ka"
*MEAS_DATA_COUNT "5001.0000000000"
*MEAS_SCAN_AXIS_X "2θ/θ"
*MEAS_SCAN_AXIS_X_INTERNAL "TwoThetaTheta"
*MEAS_SCAN_END_TIME "12/13/22 12:10:10"
*MEAS_SCAN_MODE "CONTINUOUS"
*MEAS_SCAN_MONITOR "0"
*MEAS_SCAN_RESOLUTION_X "0.0002"
*MEAS_SCAN_SPEED "2.5"
*MEAS_SCAN_SPEED_UNIT "deg/min"
*MEAS_SCAN_START "20.0000000000"
*MEAS_SCAN_START_TIME "12/13/22 11:48:47"
*MEAS_SCAN_STEP "0.0100000000"
*MEAS_SCAN_STOP "70.0000000000"
*MEAS_SCAN_UNIT_X "deg"
*MEAS_SCAN_UNIT_Y "counts"
*RAS_HEADER_END
*RAS_INT_START
20.0000 821.0000 1.0000
20.0100 831.0000 1.0000
20.0200 847.0000 1.0000
20.0300 899.0000 1.0000
20.0400 864.0000 1.0000
20.0500 830.0000 1.0000
20.0600 803.0000 1.0000
20.0700 790.0000 1.0000
20.0800 862.0000 1.0000
20.0900 849.0000 1.0000
20.1000 819.0000 1.0000
20.1100 826.0000 1.0000
20.1200 837.0000 1.0000
20.1300 808.0000 1.0000
20.1400 829.0000 1.0000
20.1500 836.0000 1.0000
20.1600 864.0000 1.0000
20.1700 829.0000 1.0000
20.1800 830.0000 1.0000
20.1900 825.0000 1.0000
20.2000 855.0000 1.0000
20.2100 802.0000 1.0000
20.2200 843.0000 1.0000
20.2300 805.0000 1.0000
20.2400 802.0000 1.0000
20.2500 866.0000 1.0000
20.2600 830.0000 1.0000
20.2700 808.0000 1.0000
20.2800 836.0000 1.0000
20.2900 842.0000 1.0000
20.3000 833.0000 1.0000
20.3100 776.0000 1.0000
20.3200 854.0000 1.0000
20.3300 850.0000 1.0000
20.3400 842.0000 1.0000
20.3500 818.0000 1.0000
20.3600 818.0000 1.0000
20.3700 836.0000 1.0000
20.3800 807.0000 1.0000
20.3900 852.0000 1.0000
20.4000 801.0000 1.0000
20.4100 842.0000 1.0000
20.4200 883.0000 1.0000
20.4300 834.0000 1.0000
20.4400 851.0000 1.0000
20.4500 828.0000 1.0000
20.4600 821.0000 1.0000
20.4700 858.0000 1.0000
20.4800 805.0000 1.0000
20.4900 861.0000 1.0000
20.5000 836.0000 1.0000
20.5100 819.0000 1.0000
20.5200 806.0000 1.0000
20.5300 820.0000 1.0000
20.5400 813.0000 1.0000
20.5500 852.0000 1.0000
20.5600 814.0000 1.0000
20.5700 847.0000 1.0000
20.5800 803.0000 1.0000
20.5900 886.0000 1.0000
20.6000 837.0000 1.0000
20.6100 766.0000 1.0000
20.6200 796.0000 1.0000
20.6300 803.0000 1.0000
20.6400 865.0000 1.0000
20.6500 807.0000 1.0000
20.6600 819.0000 1.0000
20.6700 797.0000 1.0000
20.6800 824.0000 1.0000
20.6900 862.0000 1.0000
20.7000 845.0000 1.0000
20.7100 804.0000 1.0000
20.7200 821.0000 1.0000
20.7300 875.0000 1.0000
20.7400 827.0000 1.0000
20.7500 848.0000 1.0000
20.7600 835.0000 1.0000
20.7700 843.0000 1.0000
20.7800 823.0000 1.0000
20.7900 879.0000 1.0000
20.8000 881.0000 1.0000
20.8100 834.0000 1.0000
20.8200 838.0000 1.0000
20.8300 821.0000 1.0000
20.8400 857.0000 1.0000
20.8500 817.0000 1.0000
20.8600 877.0000 1.0000
20.8700 800.0000 1.0000
20.8800 838.0000 1.0000
20.8900 853.0000 1.0000
20.9000 818.0000 1.0000
20.9100 788.0000 1.0000
20.9200 802.0000 1.0000
20.9300 820.0000 1.0000
20.9400 821.0000 1.0000
20.9500 811.0000 1.0000
20.9600 788.0000 1.0000
20.9700 836.0000 1.0000
20.9800 846.0000 1.0000
20.9900 824.0000 1.0000
21.0000 871.0000 1.0000
21.0100 813.0000 1.0000
21.0200 783.0000 1.0000
21.0300 847.0000 1.0000
21.0400 845.0000 1.0000
21.0500 864.0000 1.0000
21.0600 850.0000 1.0000
21.0700 865.0000 1.0000
21.0800 850.0000 1.0000
21.0900 812.0000 1.0000
21.1000 798.0000 1.0000
21.1100 820.0000 1.0000
21.1200 858.0000 1.0000
21.1300 853.0000 1.0000
21.1400 838.0000 1.0000
21.1500 887.0000 1.0000
21.1600 823.0000 1.0000
21.1700 846.0000 1.0000
21.1800 816.0000 1.0000
21.1900 810.0000 1.0000
21.2000 845.0000 1.0000
21.2100 852.0000 1.0000
21.2200 824.0000 1.0000
21.2300 832.0000 1.0000
21.2400 881.0000 1.0000
21.2500 864.0000 1.0000
21.2600 829.0000 1.0000
21.2700 873.0000 1.0000
21.2800 834.0000 1.0000
21.2900 812.0000 1.0000
21.3000 848.0000 1.0000
21.3100 824.0000 1.0000
21.3200 835.0000 1.0000
21.3300 851.0000 1.0000
21.3400 852.0000 1.0000
21.3500 824.0000 1.0000
21.3600 872.0000 1.0000
21.3700 836.0000 1.0000
21.3800 876.0000 1.0000
21.3900 852.0000 1.0000
21.4000 838.0000 1.0000
21.4100 829.0000 1.0000
21.4200 796.0000 1.0000
21.4300 840.0000 1.0000
21.4400 874.0000 1.0000
21.4500 836.0000 1.0000
21.4600 863.0000 1.0000
21.4700 835.0000 1.0000
21.4800 837.0000 1.0000
21.4900 859.0000 1.0000
21.5000 782.0000 1.0000
21.5100 789.0000 1.0000
21.5200 830.0000 1.0000
21.5300 889.0000 1.0000
21.5400 808.0000 1.0000
21.5500 852.0000 1.0000
21.5600 809.0000 1.0000
21.5700 803.0000 1.0000
21.5800 836.0000 1.0000
21.5900 843.0000 1.0000
21.6000 856.0000 1.0000
21.6100 812.0000 1.0000
21.6200 830.0000 1.0000
21.6300 839.0000 1.0000
21.6400 819.0000 1.0000
21.6500 886.0000 1.0000
21.6600 790.0000 1.0000
21.6700 865.0000 1.0000
21.6800 837.0000 1.0000
21.6900 812.0000 1.0000
21.7000 857.0000 1.0000
21.7100 799.0000 1.0000
21.7200 852.0000 1.0000
21.7300 823.0000 1.0000
21.7400 830.0000 1.0000
21.7500 821.0000 1.0000
21.7600 856.0000 1.0000
21.7700 848.0000 1.0000
21.7800 811.0000 1.0000
21.7900 798.0000 1.0000
21.8000 804.0000 1.0000
21.8100 854.0000 1.0000
21.8200 864.0000 1.0000
21.8300 842.0000 1.0000
21.8400 836.0000 1.0000
21.8500 813.0000 1.0000
21.8600 802.0000 1.0000
21.8700 804.0000 1.0000
21.8800 851.0000 1.0000
21.8900 833.0000 1.0000
21.9000 848.0000 1.0000
21.9100 872.0000 1.0000
21.9200 840.0000 1.0000
21.9300 821.0000 1.0000
21.9400 824.0000 1.0000
21.9500 861.0000 1.0000
21.9600 876.0000 1.0000
21.9700 825.0000 1.0000
21.9800 828.0000 1.0000
21.9900 807.0000 1.0000
22.0000 831.0000 1.0000
22.0100 827.0000 1.0000
22.0200 806.0000 1.0000
22.0300 830.0000 1.0000
22.0400 853.0000 1.0000
22.0500 810.0000 1.0000
22.0600 789.0000 1.0000
22.0700 840.0000 1.0000
22.0800 861.0000 1.0000
22.0900 857.0000 1.0000
22.1000 844.0000 1.0000
22.1100 805.0000 1.0000
22.1200 814.0000 1.0000
22.1300 822.0000 1.0000
22.1400 854.0000 1.0000
22.1500 834.0000 1.0000
22.1600 879.0000 1.0000
22.1700 841.0000 1.0000
22.1800 833.0000 1.0000
22.1900 832.0000 1.0000
22.2000 842.0000 1.0000
22.2100 811.0000 1.0000
22.2200 828.0000 1.0000
22.2300 824.0000 1.0000
22.2400 872.0000 1.0000
22.2500 837.0000 1.0000
22.2600 831.0000 1.0000
22.2700 875.0000 1.0000
22.2800 817.0000 1.0000
22.2900 827.0000 1.0000
22.3000 826.0000 1.0000
22.3100 851.0000 1.0000
22.3200 835.0000 1.0000
22.3300 843.0000 1.0000
22.3400 858.0000 1.0000
22.3500 827.0000 1.0000
22.3600 874.0000 1.0000
22.3700 843.0000 1.0000
22.3800 845.0000 1.0000
22.3900 810.0000 1.0000
22.4000 839.0000 1.0000
22.4100 847.0000 1.0000
22.4200 855.0000 1.0000
22.4300 871.0000 1.0000
22.4400 829.0000 1.0000
22.4500 806.0000 1.0000
22.4600 814.0000 1.0000
22.4700 848.0000 1.0000
22.4800 808.0000 1.0000
22.4900 808.0000 1.0000
22.5000 855.0000 1.0000
22.5100 826.0000 1.0000
22.5200 840.0000 1.0000
22.5300 809.0000 1.0000
22.5400 821.0000 1.0000
22.5500 846.0000 1.0000
22.5600 851.0000 1.0000
22.5700 831.0000 1.0000
22.5800 815.0000 1.0000
22.5900 817.0000 1.0000
22.6000 826.0000 1.0000
22.6100 823.0000 1.0000
22.6200 872.0000 1.0000
22.6300 825.0000 1.0000
22.6400 761.0000 1.0000
22.6500 788.0000 1.0000
22.6600 801.0000 1.0000
22.6700 826.0000 1.0000
22.6800 804.0000 1.0000
22.6900 842.0000 1.0000
22.7000 850.0000 1.0000
22.7100 812.0000 1.0000
22.7200 858.0000 1.0000
22.7300 827.0000 1.0000
22.7400 810.0000 1.0000
22.7500 789.0000 1.0000
22.7600 821.0000 1.0000
22.7700 848.0000 1.0000
22.7800 826.0000 1.0000
22.7900 846.0000 1.0000
22.8000 838.0000 1.0000
22.8100 863.0000 1.0000
22.8200 854.0000 1.0000
22.8300 825.0000 1.0000
22.8400 803.0000 1.0000
22.8500 824.0000 1.0000
22.8600 828.0000 1.0000
22.8700 883.0000 1.0000
22.8800 851.0000 1.0000
22.8900 839.0000 1.0000
22.9000 816.0000 1.0000
22.9100 808.0000 1.0000
22.9200 842.0000 1.0000
22.9300 828.0000 1.0000
22.9400 824.0000 1.0000
22.9500 826.0000 1.0000
22.9600 809.0000 1.0000
22.9700 807.0000 1.0000
22.9800 787.0000 1.0000
22.9900 836.0000 1.0000
23.0000 771.0000 1.0000
23.0100 842.0000 1.0000
23.0200 826.0000 1.0000
23.0300 820.0000 1.0000
23.0400 829.0000 1.0000
23.0500 804.0000 1.0000
23.0600 786.0000 1.0000
23.0700 798.0000 1.0000
23.0800 791.0000 1.0000
23.0900 817.0000 1.0000
23.1000 798.0000 1.0000
23.1100 851.0000 1.0000
23.1200 830.0000 1.0000
23.1300 870.0000 1.0000
23.1400 811.0000 1.0000
23.1500 857.0000 1.0000
23.1600 831.0000 1.0000
23.1700 782.0000 1.0000
23.1800 831.0000 1.0000
23.1900 828.0000 1.0000
23.2000 790.0000 1.0000
23.2100 825.0000 1.0000
23.2200 816.0000 1.0000
23.2300 792.0000 1.0000
23.2400 835.0000 1.0000
23.2500 828.0000 1.0000
23.2600 800.0000 1.0000
23.2700 845.0000 1.0000
23.2800 812.0000 1.0000
23.2900 799.0000 1.0000
23.3000 825.0000 1.0000
23.3100 780.0000 1.0000
23.3200 805.0000 1.0000
23.3300 822.0000 1.0000
23.3400 782.0000 1.0000
23.3500 807.0000 1.0000
23.3600 845.0000 1.0000
23.3700 823.0000 1.0000
23.3800 814.0000 1.0000
23.3900 826.0000 1.0000
23.4000 871.0000 1.0000
23.4100 826.0000 1.0000
23.4200 810.0000 1.0000
23.4300 835.0000 1.0000
23.4400 795.0000 1.0000
23.4500 781.0000 1.0000
23.4600 769.0000 1.0000
23.4700 787.0000 1.0000
23.4800 809.0000 1.0000
23.4900 800.0000 1.0000
23.5000 899.0000 1.0000
23.5100 847.0000 1.0000
23.5200 792.0000 1.0000
23.5300 793.0000 1.0000
23.5400 813.0000 1.0000
23.5500 818.0000 1.0000
23.5600 813.0000 1.0000
23.5700 811.0000 1.0000
23.5800 773.0000 1.0000
23.5900 778.0000 1.0000
23.6000 776.0000 1.0000
23.6100 850.0000 1.0000
23.6200 779.0000 1.0000
23.6300 775.0000 1.0000
23.6400 777.0000 1.0000
23.6500 791.0000 1.0000
23.6600 821.0000 1.0000
23.6700 796.0000 1.0000
23.6800 771.0000 1.0000
23.6900 834.0000 1.0000
23.7000 843.0000 1.0000
23.7100 756.0000 1.0000
23.7200 843.0000 1.0000
23.7300 777.0000 1.0000
23.7400 829.0000 1.0000
23.7500 783.0000 1.0000
23.7600 810.0000 1.0000
23.7700 798.0000 1.0000
23.7800 846.0000 1.0000
23.7900 818.0000 1.0000
23.8000 800.0000 1.0000
23.8100 804.0000 1.0000
23.8200 831.0000 1.0000
23.8300 831.0000 1.0000
23.8400 819.0000 1.0000
23.8500 778.0000 1.0000
23.8600 863.0000 1.0000
23.8700 878.0000 1.0000
23.8800 875.0000 1.0000
23.8900 811.0000 1.0000
23.9000 831.0000 1.0000
23.9100 850.0000 1.0000
23.9200 825.0000 1.0000
23.9300 820.0000 1.0000
23.9400 776.0000 1.0000
23.9500 795.0000 1.0000
23.9600 797.0000 1.0000
23.9700 823.0000 1.0000
23.9800 819.0000 1.0000
23.9900 823.0000 1.0000
24.0000 842.0000 1.0000
24.0100 825.0000 1.0000
24.0200 852.0000 1.0000
24.0300 872.0000 1.0000
24.0400 887.0000 1.0000
24.0500 817.0000 1.0000
24.0600 844.0000 1.0000
24.0700 852.0000 1.0000
24.0800 852.0000 1.0000
24.0900 830.0000 1.0000
24.1000 883.0000 1.0000
24.1100 826.0000 1.0000
24.1200 872.0000 1.0000
24.1300 847.0000 1.0000
24.1400 836.0000 1.0000
24.1500 873.0000 1.0000
24.1600 854.0000 1.0000
24.1700 838.0000 1.0000
24.1800 873.0000 1.0000
24.1900 849.0000 1.0000
24.2000 826.0000 1.0000
24.2100 853.0000 1.0000
24.2200 865.0000 1.0000
24.2300 814.0000 1.0000
24.2400 853.0000 1.0000
24.2500 799.0000 1.0000
24.2600 801.0000 1.0000
24.2700 862.0000 1.0000
24.2800 867.0000 1.0000
24.2900 814.0000 1.0000
24.3000 850.0000 1.0000
24.3100 843.0000 1.0000
24.3200 858.0000 1.0000
24.3300 830.0000 1.0000
24.3400 851.0000 1.0000
24.3500 757.0000 1.0000
24.3600 860.0000 1.0000
24.3700 854.0000 1.0000
24.3800 849.0000 1.0000
24.3900 800.0000 1.0000
24.4000 805.0000 1.0000
24.4100 822.0000 1.0000
24.4200 801.0000 1.0000
24.4300 824.0000 1.0000
24.4400 803.0000 1.0000
24.4500 783.0000 1.0000
24.4600 805.0000 1.0000
24.4700 789.0000 1.0000
24.4800 853.0000 1.0000
24.4900 822.0000 1.0000
24.5000 812.0000 1.0000
24.5100 859.0000 1.0000
24.5200 811.0000 1.0000
24.5300 796.0000 1.0000
24.5400 810.0000 1.0000
24.5500 755.0000 1.0000
24.5600 794.0000 1.0000
24.5700 795.0000 1.0000
24.5800 774.0000 1.0000
24.5900 802.0000 1.0000
24.6000 796.0000 1.0000
24.6100 770.0000 1.0000
24.6200 820.0000 1.0000
24.6300 811.0000 1.0000
24.6400 784.0000 1.0000
24.6500 811.0000 1.0000
24.6600 790.0000 1.0000
24.6700 777.0000 1.0000
24.6800 805.0000 1.0000
24.6900 776.0000 1.0000
24.7000 806.0000 1.0000
24.7100 794.0000 1.0000
24.7200 770.0000 1.0000
24.7300 815.0000 1.0000
24.7400 793.0000 1.0000
24.7500 780.0000 1.0000
24.7600 782.0000 1.0000
24.7700 833.0000 1.0000
24.7800 830.0000 1.0000
24.7900 788.0000 1.0000
24.8000 823.0000 1.0000
24.8100 787.0000 1.0000
24.8200 778.0000 1.0000
24.8300 788.0000 1.0000
24.8400 818.0000 1.0000
24.8500 770.0000 1.0000
24.8600 786.0000 1.0000
24.8700 793.0000 1.0000
24.8800 804.0000 1.0000
24.8900 773.0000 1.0000
24.9000 770.0000 1.0000
24.9100 763.0000 1.0000
24.9200 747.0000 1.0000
24.9300 766.0000 1.0000
24.9400 789.0000 1.0000
24.9500 818.0000 1.0000
24.9600 760.0000 1.0000
24.9700 768.0000 1.0000
24.9800 762.0000 1.0000
24.9900 797.0000 1.0000
25.0000 804.0000 1.0000
25.0100 819.0000 1.0000
25.0200 771.0000 1.0000
25.0300 780.0000 1.0000
25.0400 790.0000 1.0000
25.0500 788.0000 1.0000
25.0600 791.0000 1.0000
25.0700 784.0000 1.0000
25.0800 820.0000 1.0000
25.0900 776.0000 1.0000
25.1000 782.0000 1.0000
25.1100 836.0000 1.0000
25.1200 788.0000 1.0000
25.1300 861.0000 1.0000
25.1400 818.0000 1.0000
25.1500 786.0000 1.0000
25.1600 817.0000 1.0000
25.1700 759.0000 1.0000
25.1800 749.0000 1.0000
25.1900 825.0000 1.0000
25.2000 796.0000 1.0000
25.2100 832.0000 1.0000
25.2200 800.0000 1.0000
25.2300 809.0000 1.0000
25.2400 790.0000 1.0000
25.2500 794.0000 1.0000
25.2600 796.0000 1.0000
25.2700 791.0000 1.0000
25.2800 804.0000 1.0000
25.2900 747.0000 1.0000
25.3000 815.0000 1.0000
25.3100 789.0000 1.0000
25.3200 801.0000 1.0000
25.3300 784.0000 1.0000
25.3400 755.0000 1.0000
25.3500 798.0000 1.0000
25.3600 784.0000 1.0000
25.3700 776.0000 1.0000
25.3800 771.0000 1.0000
25.3900 791.0000 1.0000
25.4000 780.0000 1.0000
25.4100 768.0000 1.0000
25.4200 790.0000 1.0000
25.4300 811.0000 1.0000
25.4400 828.0000 1.0000
25.4500 782.0000 1.0000
25.4600 738.0000 1.0000
25.4700 808.0000 1.0000
25.4800 765.0000 1.0000
25.4900 793.0000 1.0000
25.5000 772.0000 1.0000
25.5100 854.0000 1.0000
25.5200 781.0000 1.0000
25.5300 769.0000 1.0000
25.5400 772.0000 1.0000
25.5500 798.0000 1.0000
25.5600 802.0000 1.0000
25.5700 834.0000 1.0000
25.5800 844.0000 1.0000
25.5900 810.0000 1.0000
25.6000 806.0000 1.0000
25.6100 814.0000 1.0000
25.6200 825.0000 1.0000
25.6300 805.0000 1.0000
25.6400 814.0000 1.0000
25.6500 822.0000 1.0000
25.6600 835.0000 1.0000
25.6700 816.0000 1.0000
25.6800 821.0000 1.0000
25.6900 791.0000 1.0000
25.7000 796.0000 1.0000
25.7100 792.0000 1.0000
25.7200 774.0000 1.0000
25.7300 775.0000 1.0000
25.7400 778.0000 1.0000
25.7500 773.0000 1.0000
25.7600 774.0000 1.0000
25.7700 821.0000 1.0000
25.7800 783.0000 1.0000
25.7900 776.0000 1.0000
25.8000 808.0000 1.0000
25.8100 867.0000 1.0000
25.8200 818.0000 1.0000
25.8300 795.0000 1.0000
25.8400 798.0000 1.0000
25.8500 798.0000 1.0000
25.8600 852.0000 1.0000
25.8700 772.0000 1.0000
25.8800 812.0000 1.0000
25.8900 783.0000 1.0000
25.9000 810.0000 1.0000
25.9100 867.0000 1.0000
25.9200 793.0000 1.0000
25.9300 826.0000 1.0000
25.9400 838.0000 1.0000
25.9500 825.0000 1.0000
25.9600 824.0000 1.0000
25.9700 843.0000 1.0000
25.9800 857.0000 1.0000
25.9900 873.0000 1.0000
26.0000 856.0000 1.0000
26.0100 837.0000 1.0000
26.0200 894.0000 1.0000
26.0300 925.0000 1.0000
26.0400 902.0000 1.0000
26.0500 809.0000 1.0000
26.0600 890.0000 1.0000
26.0700 920.0000 1.0000
26.0800 933.0000 1.0000
26.0900 885.0000 1.0000
26.1000 906.0000 1.0000
26.1100 897.0000 1.0000
26.1200 941.0000 1.0000
26.1300 930.0000 1.0000
26.1400 941.0000 1.0000
26.1500 990.0000 1.0000
26.1600 975.0000 1.0000
26.1700 1007.0000 1.0000
26.1800 1065.0000 1.0000
26.1900 1069.0000 1.0000
26.2000 1121.0000 1.0000
26.2100 1060.0000 1.0000
26.2200 1122.0000 1.0000
26.2300 1148.0000 1.0000
26.2400 1134.0000 1.0000
26.2500 1225.0000 1.0000
26.2600 1278.0000 1.0000
26.2700 1328.0000 1.0000
26.2800 1367.0000 1.0000
26.2900 1362.0000 1.0000
26.3000 1466.0000 1.0000
26.3100 1558.0000 1.0000
26.3200 1608.0000 1.0000
26.3300 1628.0000 1.0000
26.3400 1695.0000 1.0000
26.3500 1808.0000 1.0000
26.3600 1927.0000 1.0000
26.3700 2001.0000 1.0000
26.3800 2177.0000 1.0000
26.3900 2256.0000 1.0000
26.4000 2409.0000 1.0000
26.4100 2544.0000 1.0000
26.4200 2590.0000 1.0000
26.4300 2689.0000 1.0000
26.4400 2863.0000 1.0000
26.4500 2886.0000 1.0000
26.4600 2888.0000 1.0000
26.4700 2879.0000 1.0000
26.4800 2760.0000 1.0000
26.4900 2711.0000 1.0000
26.5000 2649.0000 1.0000
26.5100 2477.0000 1.0000
26.5200 2430.0000 1.0000
26.5300 2331.0000 1.0000
26.5400 2156.0000 1.0000
26.5500 2090.0000 1.0000
26.5600 1950.0000 1.0000
26.5700 1825.0000 1.0000
26.5800 1788.0000 1.0000
26.5900 1683.0000 1.0000
26.6000 1568.0000 1.0000
26.6100 1491.0000 1.0000
26.6200 1405.0000 1.0000
26.6300 1390.0000 1.0000
26.6400 1389.0000 1.0000
26.6500 1265.0000 1.0000
26.6600 1274.0000 1.0000
26.6700 1197.0000 1.0000
26.6800 1168.0000 1.0000
26.6900 1125.0000 1.0000
26.7000 1077.0000 1.0000
26.7100 1044.0000 1.0000
26.7200 1043.0000 1.0000
26.7300 1023.0000 1.0000
26.7400 995.0000 1.0000
26.7500 962.0000 1.0000
26.7600 993.0000 1.0000
26.7700 977.0000 1.0000
26.7800 968.0000 1.0000
26.7900 917.0000 1.0000
26.8000 897.0000 1.0000
26.8100 965.0000 1.0000
26.8200 903.0000 1.0000
26.8300 891.0000 1.0000
26.8400 884.0000 1.0000
26.8500 861.0000 1.0000
26.8600 830.0000 1.0000
26.8700 875.0000 1.0000
26.8800 872.0000 1.0000
26.8900 855.0000 1.0000
26.9000 837.0000 1.0000
26.9100 776.0000 1.0000
26.9200 852.0000 1.0000
26.9300 810.0000 1.0000
26.9400 831.0000 1.0000
26.9500 812.0000 1.0000
26.9600 785.0000 1.0000
26.9700 844.0000 1.0000
26.9800 827.0000 1.0000
26.9900 782.0000 1.0000
27.0000 762.0000 1.0000
27.0100 800.0000 1.0000
27.0200 794.0000 1.0000
27.0300 796.0000 1.0000
27.0400 765.0000 1.0000
27.0500 795.0000 1.0000
27.0600 777.0000 1.0000
27.0700 804.0000 1.0000
27.0800 816.0000 1.0000
27.0900 724.0000 1.0000
27.1000 734.0000 1.0000
27.1100 774.0000 1.0000
27.1200 760.0000 1.0000
27.1300 773.0000 1.0000
27.1400 760.0000 1.0000
27.1500 747.0000 1.0000
27.1600 740.0000 1.0000
27.1700 751.0000 1.0000
27.1800 747.0000 1.0000
27.1900 751.0000 1.0000
27.2000 742.0000 1.0000
27.2100 758.0000 1.0000
27.2200 750.0000 1.0000
27.2300 745.0000 1.0000
27.2400 748.0000 1.0000
27.2500 770.0000 1.0000
27.2600 810.0000 1.0000
27.2700 732.0000 1.0000
27.2800 769.0000 1.0000
27.2900 735.0000 1.0000
27.3000 708.0000 1.0000
27.3100 709.0000 1.0000
27.3200 762.0000 1.0000
27.3300 741.0000 1.0000
27.3400 789.0000 1.0000
27.3500 712.0000 1.0000
27.3600 678.0000 1.0000
27.3700 698.0000 1.0000
27.3800 737.0000 1.0000
27.3900 741.0000 1.0000
27.4000 749.0000 1.0000
27.4100 741.0000 1.0000
27.4200 762.0000 1.0000
27.4300 774.0000 1.0000
27.4400 698.0000 1.0000
27.4500 745.0000 1.0000
27.4600 788.0000 1.0000
27.4700 767.0000 1.0000
27.4800 690.0000 1.0000
27.4900 718.0000 1.0000
27.5000 690.0000 1.0000
27.5100 697.0000 1.0000
27.5200 664.0000 1.0000
27.5300 742.0000 1.0000
27.5400 702.0000 1.0000
27.5500 731.0000 1.0000
27.5600 722.0000 1.0000
27.5700 752.0000 1.0000
27.5800 757.0000 1.0000
27.5900 697.0000 1.0000
27.6000 699.0000 1.0000
27.6100 718.0000 1.0000
27.6200 713.0000 1.0000
27.6300 666.0000 1.0000
27.6400 673.0000 1.0000
27.6500 696.0000 1.0000
27.6600 747.0000 1.0000
27.6700 683.0000 1.0000
27.6800 700.0000 1.0000
27.6900 683.0000 1.0000
27.7000 681.0000 1.0000
27.7100 735.0000 1.0000
27.7200 738.0000 1.0000
27.7300 671.0000 1.0000
27.7400 683.0000 1.0000
27.7500 715.0000 1.0000
27.7600 696.0000 1.0000
27.7700 721.0000 1.0000
27.7800 656.0000 1.0000
27.7900 707.0000 1.0000
27.8000 719.0000 1.0000
27.8100 718.0000 1.0000
27.8200 714.0000 1.0000
27.8300 669.0000 1.0000
27.8400 675.0000 1.0000
27.8500 700.0000 1.0000
27.8600 641.0000 1.0000
27.8700 684.0000 1.0000
27.8800 691.0000 1.0000
27.8900 696.0000 1.0000
27.9000 694.0000 1.0000
27.9100 725.0000 1.0000
27.9200 684.0000 1.0000
27.9300 693.0000 1.0000
27.9400 713.0000 1.0000
27.9500 716.0000 1.0000
27.9600 689.0000 1.0000
27.9700 670.0000 1.0000
27.9800 688.0000 1.0000
27.9900 704.0000 1.0000
28.0000 691.0000 1.0000
28.0100 701.0000 1.0000
28.0200 714.0000 1.0000
28.0300 714.0000 1.0000
28.0400 674.0000 1.0000
28.0500 676.0000 1.0000
28.0600 695.0000 1.0000
28.0700 663.0000 1.0000
28.0800 720.0000 1.0000
28.0900 732.0000 1.0000
28.1000 698.0000 1.0000
28.1100 702.0000 1.0000
28.1200 724.0000 1.0000
28.1300 699.0000 1.0000
28.1400 672.0000 1.0000
28.1500 670.0000 1.0000
28.1600 713.0000 1.0000
28.1700 714.0000 1.0000
28.1800 665.0000 1.0000
28.1900 694.0000 1.0000
28.2000 671.0000 1.0000
28.2100 689.0000 1.0000
28.2200 663.0000 1.0000
28.2300 655.0000 1.0000
28.2400 687.0000 1.0000
28.2500 694.0000 1.0000
28.2600 667.0000 1.0000
28.2700 690.0000 1.0000
28.2800 677.0000 1.0000
28.2900 683.0000 1.0000
28.3000 681.0000 1.0000
28.3100 659.0000 1.0000
28.3200 665.0000 1.0000
28.3300 691.0000 1.0000
28.3400 666.0000 1.0000
28.3500 648.0000 1.0000
28.3600 667.0000 1.0000
28.3700 664.0000 1.0000
28.3800 668.0000 1.0000
28.3900 664.0000 1.0000
28.4000 657.0000 1.0000
28.4100 660.0000 1.0000
28.4200 653.0000 1.0000
28.4300 638.0000 1.0000
28.4400 648.0000 1.0000
28.4500 721.0000 1.0000
28.4600 695.0000 1.0000
28.4700 649.0000 1.0000
28.4800 671.0000 1.0000
28.4900 668.0000 1.0000
28.5000 649.0000 1.0000
28.5100 717.0000 1.0000
28.5200 717.0000 1.0000
28.5300 641.0000 1.0000
28.5400 672.0000 1.0000
28.5500 649.0000 1.0000
28.5600 630.0000 1.0000
28.5700 694.0000 1.0000
28.5800 696.0000 1.0000
28.5900 706.0000 1.0000
28.6000 663.0000 1.0000
28.6100 694.0000 1.0000
28.6200 643.0000 1.0000
28.6300 655.0000 1.0000
28.6400 656.0000 1.0000
28.6500 686.0000 1.0000
28.6600 686.0000 1.0000
28.6700 644.0000 1.0000
28.6800 668.0000 1.0000
28.6900 700.0000 1.0000
28.7000 650.0000 1.0000
28.7100 673.0000 1.0000
28.7200 680.0000 1.0000
28.7300 644.0000 1.0000
28.7400 666.0000 1.0000
28.7500 666.0000 1.0000
28.7600 636.0000 1.0000
28.7700 632.0000 1.0000
28.7800 671.0000 1.0000
28.7900 664.0000 1.0000
28.8000 640.0000 1.0000
28.8100 641.0000 1.0000
28.8200 675.0000 1.0000
28.8300 655.0000 1.0000
28.8400 629.0000 1.0000
28.8500 634.0000 1.0000
28.8600 651.0000 1.0000
28.8700 649.0000 1.0000
28.8800 660.0000 1.0000
28.8900 657.0000 1.0000
28.9000 665.0000 1.0000
28.9100 670.0000 1.0000
28.9200 653.0000 1.0000
28.9300 644.0000 1.0000
28.9400 663.0000 1.0000
28.9500 652.0000 1.0000
28.9600 689.0000 1.0000
28.9700 688.0000 1.0000
28.9800 676.0000 1.0000
28.9900 668.0000 1.0000
29.0000 650.0000 1.0000
29.0100 607.0000 1.0000
29.0200 633.0000 1.0000
29.0300 621.0000 1.0000
29.0400 655.0000 1.0000
29.0500 618.0000 1.0000
29.0600 618.0000 1.0000
29.0700 590.0000 1.0000
29.0800 660.0000 1.0000
29.0900 661.0000 1.0000
29.1000 691.0000 1.0000
29.1100 638.0000 1.0000
29.1200 633.0000 1.0000
29.1300 665.0000 1.0000
29.1400 649.0000 1.0000
29.1500 655.0000 1.0000
29.1600 668.0000 1.0000
29.1700 640.0000 1.0000
29.1800 636.0000 1.0000
29.1900 629.0000 1.0000
29.2000 652.0000 1.0000
29.2100 605.0000 1.0000
29.2200 654.0000 1.0000
29.2300 660.0000 1.0000
29.2400 662.0000 1.0000
29.2500 675.0000 1.0000
29.2600 656.0000 1.0000
29.2700 696.0000 1.0000
29.2800 673.0000 1.0000
29.2900 667.0000 1.0000
29.3000 706.0000 1.0000
29.3100 647.0000 1.0000
29.3200 661.0000 1.0000
29.3300 620.0000 1.0000
29.3400 648.0000 1.0000
29.3500 615.0000 1.0000
29.3600 648.0000 1.0000
29.3700 617.0000 1.0000
29.3800 614.0000 1.0000
29.3900 630.0000 1.0000
29.4000 691.0000 1.0000
29.4100 647.0000 1.0000
29.4200 663.0000 1.0000
29.4300 612.0000 1.0000
29.4400 649.0000 1.0000
29.4500 647.0000 1.0000
29.4600 653.0000 1.0000
29.4700 633.0000 1.0000
29.4800 642.0000 1.0000
29.4900 649.0000 1.0000
29.5000 643.0000 1.0000
29.5100 631.0000 1.0000
29.5200 628.0000 1.0000
29.5300 615.0000 1.0000
29.5400 608.0000 1.0000
29.5500 613.0000 1.0000
29.5600 627.0000 1.0000
29.5700 644.0000 1.0000
29.5800 670.0000 1.0000
29.5900 635.0000 1.0000
29.6000 635.0000 1.0000
29.6100 629.0000 1.0000
29.6200 678.0000 1.0000
29.6300 645.0000 1.0000
29.6400 655.0000 1.0000
29.6500 632.0000 1.0000
29.6600 658.0000 1.0000
29.6700 645.0000 1.0000
29.6800 674.0000 1.0000
29.6900 631.0000 1.0000
29.7000 622.0000 1.0000
29.7100 655.0000 1.0000
29.7200 614.0000 1.0000
29.7300 608.0000 1.0000
29.7400 662.0000 1.0000
29.7500 613.0000 1.0000
29.7600 655.0000 1.0000
29.7700 597.0000 1.0000
29.7800 601.0000 1.0000
29.7900 661.0000 1.0000
29.8000 614.0000 1.0000
29.8100 604.0000 1.0000
29.8200 658.0000 1.0000
29.8300 658.0000 1.0000
29.8400 645.0000 1.0000
29.8500 636.0000 1.0000
29.8600 586.0000 1.0000
29.8700 602.0000 1.0000
29.8800 614.0000 1.0000
29.8900 614.0000 1.0000
29.9000 618.0000 1.0000
29.9100 620.0000 1.0000
29.9200 654.0000 1.0000
29.9300 639.0000 1.0000
29.9400 664.0000 1.0000
29.9500 622.0000 1.0000
29.9600 635.0000 1.0000
29.9700 699.0000 1.0000
29.9800 625.0000 1.0000
29.9900 599.0000 1.0000
30.0000 677.0000 1.0000
30.0100 654.0000 1.0000
30.0200 604.0000 1.0000
30.0300 614.0000 1.0000
30.0400 596.0000 1.0000
30.0500 625.0000 1.0000
30.0600 630.0000 1.0000
30.0700 629.0000 1.0000
30.0800 615.0000 1.0000
30.0900 629.0000 1.0000
30.1000 651.0000 1.0000
30.1100 647.0000 1.0000
30.1200 635.0000 1.0000
30.1300 636.0000 1.0000
30.1400 656.0000 1.0000
30.1500 613.0000 1.0000
30.1600 622.0000 1.0000
30.1700 576.0000 1.0000
30.1800 597.0000 1.0000
30.1900 611.0000 1.0000
30.2000 648.0000 1.0000
30.2100 660.0000 1.0000
30.2200 623.0000 1.0000
30.2300 614.0000 1.0000
30.2400 617.0000 1.0000
30.2500 630.0000 1.0000
30.2600 638.0000 1.0000
30.2700 638.0000 1.0000
30.2800 641.0000 1.0000
30.2900 628.0000 1.0000
30.3000 636.0000 1.0000
30.3100 620.0000 1.0000
30.3200 601.0000 1.0000
30.3300 665.0000 1.0000
30.3400 648.0000 1.0000
30.3500 605.0000 1.0000
30.3600 609.0000 1.0000
30.3700 629.0000 1.0000
30.3800 631.0000 1.0000
30.3900 590.0000 1.0000
30.4000 586.0000 1.0000
30.4100 580.0000 1.0000
30.4200 635.0000 1.0000
30.4300 603.0000 1.0000
30.4400 607.0000 1.0000
30.4500 631.0000 1.0000
30.4600 624.0000 1.0000
30.4700 609.0000 1.0000
30.4800 616.0000 1.0000
30.4900 623.0000 1.0000
30.5000 626.0000 1.0000
30.5100 619.0000 1.0000
30.5200 646.0000 1.0000
30.5300 626.0000 1.0000
30.5400 609.0000 1.0000
30.5500 626.0000 1.0000
30.5600 602.0000 1.0000
30.5700 598.0000 1.0000
30.5800 633.0000 1.0000
30.5900 597.0000 1.0000
30.6000 585.0000 1.0000
30.6100 600.0000 1.0000
30.6200 606.0000 1.0000
30.6300 613.0000 1.0000
30.6400 604.0000 1.0000
30.6500 650.0000 1.0000
30.6600 636.0000 1.0000
30.6700 650.0000 1.0000
30.6800 585.0000 1.0000
30.6900 602.0000 1.0000
30.7000 630.0000 1.0000
30.7100 615.0000 1.0000
30.7200 588.0000 1.0000
30.7300 607.0000 1.0000
30.7400 616.0000 1.0000
30.7500 610.0000 1.0000
30.7600 582.0000 1.0000
30.7700 600.0000 1.0000
30.7800 600.0000 1.0000
30.7900 591.0000 1.0000
30.8000 598.0000 1.0000
30.8100 583.0000 1.0000
30.8200 604.0000 1.0000
30.8300 615.0000 1.0000
30.8400 563.0000 1.0000
30.8500 599.0000 1.0000
30.8600 623.0000 1.0000
30.8700 592.0000 1.0000
30.8800 590.0000 1.0000
30.8900 626.0000 1.0000
30.9000 600.0000 1.0000
30.9100 595.0000 1.0000
30.9200 632.0000 1.0000
30.9300 618.0000 1.0000
30.9400 571.0000 1.0000
30.9500 618.0000 1.0000
30.9600 581.0000 1.0000
30.9700 574.0000 1.0000
30.9800 596.0000 1.0000
30.9900 609.0000 1.0000
31.0000 590.0000 1.0000
31.0100 606.0000 1.0000
31.0200 647.0000 1.0000
31.0300 601.0000 1.0000
31.0400 604.0000 1.0000
31.0500 604.0000 1.0000
31.0600 617.0000 1.0000
31.0700 631.0000 1.0000
31.0800 613.0000 1.0000
31.0900 643.0000 1.0000
31.1000 633.0000 1.0000
31.1100 609.0000 1.0000
31.1200 601.0000 1.0000
31.1300 619.0000 1.0000
31.1400 583.0000 1.0000
31.1500 601.0000 1.0000
31.1600 615.0000 1.0000
31.1700 622.0000 1.0000
31.1800 620.0000 1.0000
31.1900 617.0000 1.0000
31.2000 637.0000 1.0000
31.2100 610.0000 1.0000
31.2200 624.0000 1.0000
31.2300 603.0000 1.0000
31.2400 634.0000 1.0000
31.2500 590.0000 1.0000
31.2600 600.0000 1.0000
31.2700 642.0000 1.0000
31.2800 582.0000 1.0000
31.2900 591.0000 1.0000
31.3000 595.0000 1.0000
31.3100 569.0000 1.0000
31.3200 599.0000 1.0000
31.3300 597.0000 1.0000
31.3400 605.0000 1.0000
31.3500 624.0000 1.0000
31.3600 599.0000 1.0000
31.3700 585.0000 1.0000
31.3800 601.0000 1.0000
31.3900 600.0000 1.0000
31.4000 558.0000 1.0000
31.4100 621.0000 1.0000
31.4200 609.0000 1.0000
31.4300 598.0000 1.0000
31.4400 581.0000 1.0000
31.4500 594.0000 1.0000
31.4600 580.0000 1.0000
31.4700 596.0000 1.0000
31.4800 568.0000 1.0000
31.4900 592.0000 1.0000
31.5000 568.0000 1.0000
31.5100 598.0000 1.0000
31.5200 591.0000 1.0000
31.5300 583.0000 1.0000
31.5400 564.0000 1.0000
31.5500 587.0000 1.0000
31.5600 550.0000 1.0000
31.5700 569.0000 1.0000
31.5800 599.0000 1.0000
31.5900 572.0000 1.0000
31.6000 613.0000 1.0000
31.6100 637.0000 1.0000
31.6200 576.0000 1.0000
31.6300 564.0000 1.0000
31.6400 577.0000 1.0000
31.6500 594.0000 1.0000
31.6600 566.0000 1.0000
31.6700 518.0000 1.0000
31.6800 601.0000 1.0000
31.6900 591.0000 1.0000
31.7000 585.0000 1.0000
31.7100 568.0000 1.0000
31.7200 585.0000 1.0000
31.7300 592.0000 1.0000
31.7400 564.0000 1.0000
31.7500 598.0000 1.0000
31.7600 565.0000 1.0000
31.7700 581.0000 1.0000
31.7800 590.0000 1.0000
31.7900 582.0000 1.0000
31.8000 578.0000 1.0000
31.8100 576.0000 1.0000
31.8200 576.0000 1.0000
31.8300 592.0000 1.0000
31.8400 544.0000 1.0000
31.8500 546.0000 1.0000
31.8600 602.0000 1.0000
31.8700 584.0000 1.0000
31.8800 543.0000 1.0000
31.8900 567.0000 1.0000
31.9000 579.0000 1.0000
31.9100 534.0000 1.0000
31.9200 553.0000 1.0000
31.9300 540.0000 1.0000
31.9400 591.0000 1.0000
31.9500 559.0000 1.0000
31.9600 593.0000 1.0000
31.9700 575.0000 1.0000
31.9800 577.0000 1.0000
31.9900 547.0000 1.0000
32.0000 534.0000 1.0000
32.0100 566.0000 1.0000
32.0200 577.0000 1.0000
32.0300 528.0000 1.0000
32.0400 583.0000 1.0000
32.0500 574.0000 1.0000
32.0600 551.0000 1.0000
32.0700 598.0000 1.0000
32.0800 580.0000 1.0000
32.0900 578.0000 1.0000
32.1000 542.0000 1.0000
32.1100 575.0000 1.0000
32.1200 558.0000 1.0000
32.1300 550.0000 1.0000
32.1400 589.0000 1.0000
32.1500 570.0000 1.0000
32.1600 581.0000 1.0000
32.1700 586.0000 1.0000
32.1800 601.0000 1.0000
32.1900 607.0000 1.0000
32.2000 574.0000 1.0000
32.2100 563.0000 1.0000
32.2200 567.0000 1.0000
32.2300 526.0000 1.0000
32.2400 551.0000 1.0000
32.2500 540.0000 1.0000
32.2600 584.0000 1.0000
32.2700 593.0000 1.0000
32.2800 541.0000 1.0000
32.2900 568.0000 1.0000
32.3000 595.0000 1.0000
32.3100 557.0000 1.0000
32.3200 519.0000 1.0000
32.3300 508.0000 1.0000
32.3400 538.0000 1.0000
32.3500 545.0000 1.0000
32.3600 541.0000 1.0000
32.3700 561.0000 1.0000
32.3800 568.0000 1.0000
32.3900 587.0000 1.0000
32.4000 546.0000 1.0000
32.4100 592.0000 1.0000
32.4200 600.0000 1.0000
32.4300 649.0000 1.0000
32.4400 581.0000 1.0000
32.4500 570.0000 1.0000
32.4600 560.0000 1.0000
32.4700 553.0000 1.0000
32.4800 520.0000 1.0000
32.4900 555.0000 1.0000
32.5000 601.0000 1.0000
32.5100 530.0000 1.0000
32.5200 595.0000 1.0000
32.5300 563.0000 1.0000
32.5400 584.0000 1.0000
32.5500 537.0000 1.0000
32.5600 538.0000 1.0000
32.5700 564.0000 1.0000
32.5800 554.0000 1.0000
32.5900 573.0000 1.0000
32.6000 563.0000 1.0000
32.6100 538.0000 1.0000
32.6200 610.0000 1.0000
32.6300 552.0000 1.0000
32.6400 574.0000 1.0000
32.6500 562.0000 1.0000
32.6600 596.0000 1.0000
32.6700 560.0000 1.0000
32.6800 596.0000 1.0000
32.6900 588.0000 1.0000
32.7000 597.0000 1.0000
32.7100 574.0000 1.0000
32.7200 551.0000 1.0000
32.7300 565.0000 1.0000
32.7400 553.0000 1.0000
32.7500 573.0000 1.0000
32.7600 539.0000 1.0000
32.7700 545.0000 1.0000
32.7800 537.0000 1.0000
32.7900 583.0000 1.0000
32.8000 560.0000 1.0000
32.8100 611.0000 1.0000
32.8200 545.0000 1.0000
32.8300 581.0000 1.0000
32.8400 551.0000 1.0000
32.8500 559.0000 1.0000
32.8600 588.0000 1.0000
32.8700 576.0000 1.0000
32.8800 591.0000 1.0000
32.8900 584.0000 1.0000
32.9000 586.0000 1.0000
32.9100 617.0000 1.0000
32.9200 607.0000 1.0000
32.9300 579.0000 1.0000
32.9400 557.0000 1.0000
32.9500 595.0000 1.0000
32.9600 622.0000 1.0000
32.9700 620.0000 1.0000
32.9800 633.0000 1.0000
32.9900 636.0000 1.0000
33.0000 605.0000 1.0000
33.0100 607.0000 1.0000
33.0200 634.0000 1.0000
33.0300 631.0000 1.0000
33.0400 635.0000 1.0000
33.0500 648.0000 1.0000
33.0600 699.0000 1.0000
33.0700 636.0000 1.0000
33.0800 652.0000 1.0000
33.0900 681.0000 1.0000
33.1000 618.0000 1.0000
33.1100 680.0000 1.0000
33.1200 679.0000 1.0000
33.1300 698.0000 1.0000
33.1400 629.0000 1.0000
33.1500 649.0000 1.0000
33.1600 647.0000 1.0000
33.1700 647.0000 1.0000
33.1800 641.0000 1.0000
33.1900 645.0000 1.0000
33.2000 629.0000 1.0000
33.2100 633.0000 1.0000
33.2200 654.0000 1.0000
33.2300 614.0000 1.0000
33.2400 633.0000 1.0000
33.2500 643.0000 1.0000
33.2600 608.0000 1.0000
33.2700 631.0000 1.0000
33.2800 636.0000 1.0000
33.2900 613.0000 1.0000
33.3000 619.0000 1.0000
33.3100 629.0000 1.0000
33.3200 646.0000 1.0000
33.3300 643.0000 1.0000
33.3400 596.0000 1.0000
33.3500 621.0000 1.0000
33.3600 668.0000 1.0000
33.3700 593.0000 1.0000
33.3800 633.0000 1.0000
33.3900 644.0000 1.0000
33.4000 673.0000 1.0000
33.4100 668.0000 1.0000
33.4200 680.0000 1.0000
33.4300 690.0000 1.0000
33.4400 705.0000 1.0000
33.4500 711.0000 1.0000
33.4600 746.0000 1.0000
33.4700 736.0000 1.0000
33.4800 769.0000 1.0000
33.4900 801.0000 1.0000
33.5000 813.0000 1.0000
33.5100 823.0000 1.0000
33.5200 860.0000 1.0000
33.5300 927.0000 1.0000
33.5400 916.0000 1.0000
33.5500 938.0000 1.0000
33.5600 1008.0000 1.0000
33.5700 1088.0000 1.0000
33.5800 1080.0000 1.0000
33.5900 1142.0000 1.0000
33.6000 1190.0000 1.0000
33.6100 1277.0000 1.0000
33.6200 1308.0000 1.0000
33.6300 1359.0000 1.0000
33.6400 1294.0000 1.0000
33.6500 1375.0000 1.0000
33.6600 1320.0000 1.0000
33.6700 1348.0000 1.0000
33.6800 1385.0000 1.0000
33.6900 1390.0000 1.0000
33.7000 1311.0000 1.0000
33.7100 1280.0000 1.0000
33.7200 1262.0000 1.0000
33.7300 1237.0000 1.0000
33.7400 1177.0000 1.0000
33.7500 1159.0000 1.0000
33.7600 1121.0000 1.0000
33.7700 1074.0000 1.0000
33.7800 994.0000 1.0000
33.7900 933.0000 1.0000
33.8000 940.0000 1.0000
33.8100 917.0000 1.0000
33.8200 879.0000 1.0000
33.8300 879.0000 1.0000
33.8400 808.0000 1.0000
33.8500 787.0000 1.0000
33.8600 735.0000 1.0000
33.8700 755.0000 1.0000
33.8800 739.0000 1.0000
33.8900 733.0000 1.0000
33.9000 721.0000 1.0000
33.9100 688.0000 1.0000
33.9200 662.0000 1.0000
33.9300 606.0000 1.0000
33.9400 623.0000 1.0000
33.9500 640.0000 1.0000
33.9600 546.0000 1.0000
33.9700 602.0000 1.0000
33.9800 644.0000 1.0000
33.9900 617.0000 1.0000
34.0000 639.0000 1.0000
34.0100 614.0000 1.0000
34.0200 622.0000 1.0000
34.0300 611.0000 1.0000
34.0400 590.0000 1.0000
34.0500 593.0000 1.0000
34.0600 608.0000 1.0000
34.0700 573.0000 1.0000
34.0800 580.0000 1.0000
34.0900 578.0000 1.0000
34.1000 541.0000 1.0000
34.1100 551.0000 1.0000
34.1200 535.0000 1.0000
34.1300 550.0000 1.0000
34.1400 525.0000 1.0000
34.1500 583.0000 1.0000
34.1600 569.0000 1.0000
34.1700 553.0000 1.0000
34.1800 569.0000 1.0000
34.1900 553.0000 1.0000
34.2000 522.0000 1.0000
34.2100 519.0000 1.0000
34.2200 515.0000 1.0000
34.2300 552.0000 1.0000
34.2400 542.0000 1.0000
34.2500 563.0000 1.0000
34.2600 537.0000 1.0000
34.2700 536.0000 1.0000
34.2800 543.0000 1.0000
34.2900 558.0000 1.0000
34.3000 559.0000 1.0000
34.3100 531.0000 1.0000
34.3200 527.0000 1.0000
34.3300 583.0000 1.0000
34.3400 509.0000 1.0000
34.3500 525.0000 1.0000
34.3600 516.0000 1.0000
34.3700 519.0000 1.0000
34.3800 513.0000 1.0000
34.3900 497.0000 1.0000
34.4000 520.0000 1.0000
34.4100 494.0000 1.0000
34.4200 519.0000 1.0000
34.4300 527.0000 1.0000
34.4400 502.0000 1.0000
34.4500 502.0000 1.0000
34.4600 559.0000 1.0000
34.4700 521.0000 1.0000
34.4800 545.0000 1.0000
34.4900 509.0000 1.0000
34.5000 504.0000 1.0000
34.5100 545.0000 1.0000
34.5200 537.0000 1.0000
34.5300 529.0000 1.0000
34.5400 527.0000 1.0000
34.5500 493.0000 1.0000
34.5600 497.0000 1.0000
34.5700 515.0000 1.0000
34.5800 497.0000 1.0000
34.5900 488.0000 1.0000
34.6000 491.0000 1.0000
34.6100 505.0000 1.0000
34.6200 506.0000 1.0000
34.6300 480.0000 1.0000
34.6400 517.0000 1.0000
34.6500 503.0000 1.0000
34.6600 503.0000 1.0000
34.6700 503.0000 1.0000
34.6800 492.0000 1.0000
34.6900 484.0000 1.0000
34.7000 495.0000 1.0000
34.7100 477.0000 1.0000
34.7200 509.0000 1.0000
34.7300 492.0000 1.0000
34.7400 497.0000 1.0000
34.7500 496.0000 1.0000
34.7600 487.0000 1.0000
34.7700 497.0000 1.0000
34.7800 481.0000 1.0000
34.7900 481.0000 1.0000
34.8000 500.0000 1.0000
34.8100 496.0000 1.0000
34.8200 497.0000 1.0000
34.8300 471.0000 1.0000
34.8400 491.0000 1.0000
34.8500 477.0000 1.0000
34.8600 497.0000 1.0000
34.8700 482.0000 1.0000
34.8800 538.0000 1.0000
34.8900 526.0000 1.0000
34.9000 512.0000 1.0000
34.9100 483.0000 1.0000
34.9200 467.0000 1.0000
34.9300 503.0000 1.0000
34.9400 499.0000 1.0000
34.9500 501.0000 1.0000
34.9600 511.0000 1.0000
34.9700 502.0000 1.0000
34.9800 500.0000 1.0000
34.9900 452.0000 1.0000
35.0000 502.0000 1.0000
35.0100 512.0000 1.0000
35.0200 492.0000 1.0000
35.0300 472.0000 1.0000
35.0400 491.0000 1.0000
35.0500 457.0000 1.0000
35.0600 467.0000 1.0000
35.0700 496.0000 1.0000
35.0800 506.0000 1.0000
35.0900 519.0000 1.0000
35.1000 514.0000 1.0000
35.1100 472.0000 1.0000
35.1200 469.0000 1.0000
35.1300 473.0000 1.0000
35.1400 492.0000 1.0000
35.1500 475.0000 1.0000
35.1600 500.0000 1.0000
35.1700 441.0000 1.0000
35.1800 484.0000 1.0000
35.1900 471.0000 1.0000
35.2000 467.0000 1.0000
35.2100 448.0000 1.0000
35.2200 505.0000 1.0000
35.2300 495.0000 1.0000
35.2400 535.0000 1.0000
35.2500 521.0000 1.0000
35.2600 459.0000 1.0000
35.2700 490.0000 1.0000
35.2800 525.0000 1.0000
35.2900 543.0000 1.0000
35.3000 498.0000 1.0000
35.3100 511.0000 1.0000
35.3200 503.0000 1.0000
35.3300 517.0000 1.0000
35.3400 541.0000 1.0000
35.3500 531.0000 1.0000
35.3600 510.0000 1.0000
35.3700 540.0000 1.0000
35.3800 570.0000 1.0000
35.3900 614.0000 1.0000
35.4000 589.0000 1.0000
35.4100 578.0000 1.0000
35.4200 583.0000 1.0000
35.4300 585.0000 1.0000
35.4400 606.0000 1.0000
35.4500 614.0000 1.0000
35.4600 637.0000 1.0000
35.4700 706.0000 1.0000
35.4800 680.0000 1.0000
35.4900 716.0000 1.0000
35.5000 736.0000 1.0000
35.5100 795.0000 1.0000
35.5200 845.0000 1.0000
35.5300 826.0000 1.0000
35.5400 903.0000 1.0000
35.5500 895.0000 1.0000
35.5600 1000.0000 1.0000
35.5700 996.0000 1.0000
35.5800 1022.0000 1.0000
35.5900 944.0000 1.0000
35.6000 956.0000 1.0000
35.6100 941.0000 1.0000
35.6200 882.0000 1.0000
35.6300 899.0000 1.0000
35.6400 860.0000 1.0000
35.6500 813.0000 1.0000
35.6600 836.0000 1.0000
35.6700 770.0000 1.0000
35.6800 763.0000 1.0000
35.6900 785.0000 1.0000
35.7000 751.0000 1.0000
35.7100 715.0000 1.0000
35.7200 623.0000 1.0000
35.7300 588.0000 1.0000
35.7400 614.0000 1.0000
35.7500 570.0000 1.0000
35.7600 584.0000 1.0000
35.7700 567.0000 1.0000
35.7800 501.0000 1.0000
35.7900 466.0000 1.0000
35.8000 533.0000 1.0000
35.8100 496.0000 1.0000
35.8200 517.0000 1.0000
35.8300 503.0000 1.0000
35.8400 489.0000 1.0000
35.8500 482.0000 1.0000
35.8600 506.0000 1.0000
35.8700 474.0000 1.0000
35.8800 469.0000 1.0000
35.8900 459.0000 1.0000
35.9000 470.0000 1.0000
35.9100 491.0000 1.0000
35.9200 458.0000 1.0000
35.9300 503.0000 1.0000
35.9400 468.0000 1.0000
35.9500 479.0000 1.0000
35.9600 492.0000 1.0000
35.9700 460.0000 1.0000
35.9800 424.0000 1.0000
35.9900 462.0000 1.0000
36.0000 437.0000 1.0000
36.0100 462.0000 1.0000
36.0200 465.0000 1.0000
36.0300 443.0000 1.0000
36.0400 454.0000 1.0000
36.0500 438.0000 1.0000
36.0600 418.0000 1.0000
36.0700 470.0000 1.0000
36.0800 427.0000 1.0000
36.0900 439.0000 1.0000
36.1000 438.0000 1.0000
36.1100 486.0000 1.0000
36.1200 459.0000 1.0000
36.1300 458.0000 1.0000
36.1400 464.0000 1.0000
36.1500 418.0000 1.0000
36.1600 429.0000 1.0000
36.1700 461.0000 1.0000
36.1800 479.0000 1.0000
36.1900 425.0000 1.0000
36.2000 458.0000 1.0000
36.2100 461.0000 1.0000
36.2200 492.0000 1.0000
36.2300 458.0000 1.0000
36.2400 453.0000 1.0000
36.2500 426.0000 1.0000
36.2600 448.0000 1.0000
36.2700 486.0000 1.0000
36.2800 458.0000 1.0000
36.2900 429.0000 1.0000
36.3000 456.0000 1.0000
36.3100 476.0000 1.0000
36.3200 462.0000 1.0000
36.3300 435.0000 1.0000
36.3400 451.0000 1.0000
36.3500 448.0000 1.0000
36.3600 446.0000 1.0000
36.3700 440.0000 1.0000
36.3800 439.0000 1.0000
36.3900 415.0000 1.0000
36.4000 488.0000 1.0000
36.4100 449.0000 1.0000
36.4200 432.0000 1.0000
36.4300 461.0000 1.0000
36.4400 448.0000 1.0000
36.4500 439.0000 1.0000
36.4600 439.0000 1.0000
36.4700 469.0000 1.0000
36.4800 424.0000 1.0000
36.4900 450.0000 1.0000
36.5000 437.0000 1.0000
36.5100 437.0000 1.0000
36.5200 449.0000 1.0000
36.5300 424.0000 1.0000
36.5400 443.0000 1.0000
36.5500 424.0000 1.0000
36.5600 432.0000 1.0000
36.5700 433.0000 1.0000
36.5800 437.0000 1.0000
36.5900 447.0000 1.0000
36.6000 451.0000 1.0000
36.6100 472.0000 1.0000
36.6200 428.0000 1.0000
36.6300 476.0000 1.0000
36.6400 423.0000 1.0000
36.6500 443.0000 1.0000
36.6600 475.0000 1.0000
36.6700 440.0000 1.0000
36.6800 450.0000 1.0000
36.6900 463.0000 1.0000
36.7000 417.0000 1.0000
36.7100 466.0000 1.0000
36.7200 453.0000 1.0000
36.7300 414.0000 1.0000
36.7400 425.0000 1.0000
36.7500 450.0000 1.0000
36.7600 441.0000 1.0000
36.7700 445.0000 1.0000
36.7800 446.0000 1.0000
36.7900 453.0000 1.0000
36.8000 432.0000 1.0000
36.8100 431.0000 1.0000
36.8200 455.0000 1.0000
36.8300 456.0000 1.0000
36.8400 474.0000 1.0000
36.8500 406.0000 1.0000
36.8600 447.0000 1.0000
36.8700 441.0000 1.0000
36.8800 440.0000 1.0000
36.8900 460.0000 1.0000
36.9000 427.0000 1.0000
36.9100 439.0000 1.0000
36.9200 437.0000 1.0000
36.9300 446.0000 1.0000
36.9400 441.0000 1.0000
36.9500 492.0000 1.0000
36.9600 435.0000 1.0000
36.9700 446.0000 1.0000
36.9800 477.0000 1.0000
36.9900 409.0000 1.0000
37.0000 436.0000 1.0000
37.0100 429.0000 1.0000
37.0200 466.0000 1.0000
37.0300 448.0000 1.0000
37.0400 458.0000 1.0000
37.0500 443.0000 1.0000
37.0600 439.0000 1.0000
37.0700 457.0000 1.0000
37.0800 474.0000 1.0000
37.0900 441.0000 1.0000
37.1000 439.0000 1.0000
37.1100 453.0000 1.0000
37.1200 437.0000 1.0000
37.1300 432.0000 1.0000
37.1400 477.0000 1.0000
37.1500 448.0000 1.0000
37.1600 490.0000 1.0000
37.1700 501.0000 1.0000
37.1800 453.0000 1.0000
37.1900 482.0000 1.0000
37.2000 499.0000 1.0000
37.2100 489.0000 1.0000
37.2200 492.0000 1.0000
37.2300 466.0000 1.0000
37.2400 473.0000 1.0000
37.2500 506.0000 1.0000
37.2600 466.0000 1.0000
37.2700 476.0000 1.0000
37.2800 453.0000 1.0000
37.2900 472.0000 1.0000
37.3000 510.0000 1.0000
37.3100 489.0000 1.0000
37.3200 477.0000 1.0000
37.3300 510.0000 1.0000
37.3400 537.0000 1.0000
37.3500 516.0000 1.0000
37.3600 542.0000 1.0000
37.3700 559.0000 1.0000
37.3800 575.0000 1.0000
37.3900 525.0000 1.0000
37.4000 572.0000 1.0000
37.4100 608.0000 1.0000
37.4200 567.0000 1.0000
37.4300 611.0000 1.0000
37.4400 637.0000 1.0000
37.4500 707.0000 1.0000
37.4600 718.0000 1.0000
37.4700 739.0000 1.0000
37.4800 770.0000 1.0000
37.4900 805.0000 1.0000
37.5000 767.0000 1.0000
37.5100 853.0000 1.0000
37.5200 935.0000 1.0000
37.5300 917.0000 1.0000
37.5400 958.0000 1.0000
37.5500 1072.0000 1.0000
37.5600 1133.0000 1.0000
37.5700 1259.0000 1.0000
37.5800 1263.0000 1.0000
37.5900 1325.0000 1.0000
37.6000 1460.0000 1.0000
37.6100 1555.0000 1.0000
37.6200 1655.0000 1.0000
37.6300 1726.0000 1.0000
37.6400 1841.0000 1.0000
37.6500 1896.0000 1.0000
37.6600 2014.0000 1.0000
37.6700 2131.0000 1.0000
37.6800 2192.0000 1.0000
37.6900 2206.0000 1.0000
37.7000 2261.0000 1.0000
37.7100 2336.0000 1.0000
37.7200 2348.0000 1.0000
37.7300 2286.0000 1.0000
37.7400 2244.0000 1.0000
37.7500 2323.0000 1.0000
37.7600 2156.0000 1.0000
37.7700 2087.0000 1.0000
37.7800 2067.0000 1.0000
37.7900 1937.0000 1.0000
37.8000 1894.0000 1.0000
37.8100 1820.0000 1.0000
37.8200 1725.0000 1.0000
37.8300 1665.0000 1.0000
37.8400 1526.0000 1.0000
37.8500 1496.0000 1.0000
37.8600 1412.0000 1.0000
37.8700 1363.0000 1.0000
37.8800 1255.0000 1.0000
37.8900 1139.0000 1.0000
37.9000 993.0000 1.0000
37.9100 1040.0000 1.0000
37.9200 955.0000 1.0000
37.9300 873.0000 1.0000
37.9400 829.0000 1.0000
37.9500 788.0000 1.0000
37.9600 767.0000 1.0000
37.9700 746.0000 1.0000
37.9800 752.0000 1.0000
37.9900 685.0000 1.0000
38.0000 614.0000 1.0000
38.0100 615.0000 1.0000
38.0200 635.0000 1.0000
38.0300 611.0000 1.0000
38.0400 619.0000 1.0000
38.0500 584.0000 1.0000
38.0600 621.0000 1.0000
38.0700 584.0000 1.0000
38.0800 530.0000 1.0000
38.0900 522.0000 1.0000
38.1000 471.0000 1.0000
38.1100 474.0000 1.0000
38.1200 469.0000 1.0000
38.1300 478.0000 1.0000
38.1400 471.0000 1.0000
38.1500 474.0000 1.0000
38.1600 473.0000 1.0000
38.1700 459.0000 1.0000
38.1800 494.0000 1.0000
38.1900 472.0000 1.0000
38.2000 451.0000 1.0000
38.2100 422.0000 1.0000
38.2200 446.0000 1.0000
38.2300 444.0000 1.0000
38.2400 435.0000 1.0000
38.2500 453.0000 1.0000
38.2600 437.0000 1.0000
38.2700 428.0000 1.0000
38.2800 452.0000 1.0000
38.2900 432.0000 1.0000
38.3000 442.0000 1.0000
38.3100 430.0000 1.0000
38.3200 452.0000 1.0000
38.3300 428.0000 1.0000
38.3400 426.0000 1.0000
38.3500 443.0000 1.0000
38.3600 416.0000 1.0000
38.3700 433.0000 1.0000
38.3800 402.0000 1.0000
38.3900 418.0000 1.0000
38.4000 429.0000 1.0000
38.4100 414.0000 1.0000
38.4200 417.0000 1.0000
38.4300 398.0000 1.0000
38.4400 411.0000 1.0000
38.4500 405.0000 1.0000
38.4600 422.0000 1.0000
38.4700 437.0000 1.0000
38.4800 412.0000 1.0000
38.4900 427.0000 1.0000
38.5000 446.0000 1.0000
38.5100 418.0000 1.0000
38.5200 411.0000 1.0000
38.5300 402.0000 1.0000
38.5400 425.0000 1.0000
38.5500 421.0000 1.0000
38.5600 458.0000 1.0000
38.5700 411.0000 1.0000
38.5800 436.0000 1.0000
38.5900 420.0000 1.0000
38.6000 425.0000 1.0000
38.6100 409.0000 1.0000
38.6200 436.0000 1.0000
38.6300 397.0000 1.0000
38.6400 414.0000 1.0000
38.6500 400.0000 1.0000
38.6600 396.0000 1.0000
38.6700 404.0000 1.0000
38.6800 449.0000 1.0000
38.6900 409.0000 1.0000
38.7000 439.0000 1.0000
38.7100 433.0000 1.0000
38.7200 424.0000 1.0000
38.7300 451.0000 1.0000
38.7400 443.0000 1.0000
38.7500 426.0000 1.0000
38.7600 430.0000 1.0000
38.7700 412.0000 1.0000
38.7800 403.0000 1.0000
38.7900 389.0000 1.0000
38.8000 417.0000 1.0000
38.8100 422.0000 1.0000
38.8200 420.0000 1.0000
38.8300 430.0000 1.0000
38.8400 412.0000 1.0000
38.8500 397.0000 1.0000
38.8600 423.0000 1.0000
38.8700 424.0000 1.0000
38.8800 429.0000 1.0000
38.8900 410.0000 1.0000
38.9000 412.0000 1.0000
38.9100 431.0000 1.0000
38.9200 424.0000 1.0000
38.9300 442.0000 1.0000
38.9400 414.0000 1.0000
38.9500 429.0000 1.0000
38.9600 411.0000 1.0000
38.9700 381.0000 1.0000
38.9800 404.0000 1.0000
38.9900 425.0000 1.0000
39.0000 391.0000 1.0000
39.0100 392.0000 1.0000
39.0200 395.0000 1.0000
39.0300 406.0000 1.0000
39.0400 387.0000 1.0000
39.0500 393.0000 1.0000
39.0600 376.0000 1.0000
39.0700 365.0000 1.0000
39.0800 414.0000 1.0000
39.0900 410.0000 1.0000
39.1000 378.0000 1.0000
39.1100 373.0000 1.0000
39.1200 382.0000 1.0000
39.1300 391.0000 1.0000
39.1400 420.0000 1.0000
39.1500 391.0000 1.0000
39.1600 378.0000 1.0000
39.1700 399.0000 1.0000
39.1800 409.0000 1.0000
39.1900 387.0000 1.0000
39.2000 385.0000 1.0000
39.2100 385.0000 1.0000
39.2200 366.0000 1.0000
39.2300 403.0000 1.0000
39.2400 407.0000 1.0000
39.2500 386.0000 1.0000
39.2600 389.0000 1.0000
39.2700 371.0000 1.0000
39.2800 414.0000 1.0000
39.2900 401.0000 1.0000
39.3000 380.0000 1.0000
39.3100 402.0000 1.0000
39.3200 379.0000 1.0000
39.3300 369.0000 1.0000
39.3400 388.0000 1.0000
39.3500 386.0000 1.0000
39.3600 366.0000 1.0000
39.3700 335.0000 1.0000
39.3800 398.0000 1.0000
39.3900 401.0000 1.0000
39.4000 359.0000 1.0000
39.4100 378.0000 1.0000
39.4200 368.0000 1.0000
39.4300 357.0000 1.0000
39.4400 374.0000 1.0000
39.4500 353.0000 1.0000
39.4600 368.0000 1.0000
39.4700 368.0000 1.0000
39.4800 367.0000 1.0000
39.4900 360.0000 1.0000
39.5000 355.0000 1.0000
39.5100 383.0000 1.0000
39.5200 378.0000 1.0000
39.5300 382.0000 1.0000
39.5400 375.0000 1.0000
39.5500 404.0000 1.0000
39.5600 386.0000 1.0000
39.5700 395.0000 1.0000
39.5800 363.0000 1.0000
39.5900 364.0000 1.0000
39.6000 362.0000 1.0000
39.6100 403.0000 1.0000
39.6200 378.0000 1.0000
39.6300 365.0000 1.0000
39.6400 381.0000 1.0000
39.6500 339.0000 1.0000
39.6600 398.0000 1.0000
39.6700 408.0000 1.0000
39.6800 391.0000 1.0000
39.6900 386.0000 1.0000
39.7000 374.0000 1.0000
39.7100 344.0000 1.0000
39.7200 360.0000 1.0000
39.7300 350.0000 1.0000
39.7400 379.0000 1.0000
39.7500 377.0000 1.0000
39.7600 400.0000 1.0000
39.7700 399.0000 1.0000
39.7800 387.0000 1.0000
39.7900 356.0000 1.0000
39.8000 392.0000 1.0000
39.8100 356.0000 1.0000
39.8200 376.0000 1.0000
39.8300 374.0000 1.0000
39.8400 410.0000 1.0000
39.8500 365.0000 1.0000
39.8600 404.0000 1.0000
39.8700 374.0000 1.0000
39.8800 389.0000 1.0000
39.8900 368.0000 1.0000
39.9000 352.0000 1.0000
39.9100 358.0000 1.0000
39.9200 376.0000 1.0000
39.9300 369.0000 1.0000
39.9400 358.0000 1.0000
39.9500 345.0000 1.0000
39.9600 349.0000 1.0000
39.9700 364.0000 1.0000
39.9800 365.0000 1.0000
39.9900 384.0000 1.0000
40.0000 355.0000 1.0000
40.0100 367.0000 1.0000
40.0200 358.0000 1.0000
40.0300 349.0000 1.0000
40.0400 340.0000 1.0000
40.0500 356.0000 1.0000
40.0600 392.0000 1.0000
40.0700 378.0000 1.0000
40.0800 353.0000 1.0000
40.0900 362.0000 1.0000
40.1000 370.0000 1.0000
40.1100 342.0000 1.0000
40.1200 367.0000 1.0000
40.1300 376.0000 1.0000
40.1400 340.0000 1.0000
40.1500 355.0000 1.0000
40.1600 352.0000 1.0000
40.1700 357.0000 1.0000
40.1800 346.0000 1.0000
40.1900 360.0000 1.0000
40.2000 375.0000 1.0000
40.2100 374.0000 1.0000
40.2200 368.0000 1.0000
40.2300 387.0000 1.0000
40.2400 356.0000 1.0000
40.2500 369.0000 1.0000
40.2600 359.0000 1.0000
40.2700 386.0000 1.0000
40.2800 380.0000 1.0000
40.2900 346.0000 1.0000
40.3000 358.0000 1.0000
40.3100 372.0000 1.0000
40.3200 389.0000 1.0000
40.3300 368.0000 1.0000
40.3400 410.0000 1.0000
40.3500 373.0000 1.0000
40.3600 361.0000 1.0000
40.3700 352.0000 1.0000
40.3800 369.0000 1.0000
40.3900 368.0000 1.0000
40.4000 329.0000 1.0000
40.4100 357.0000 1.0000
40.4200 373.0000 1.0000
40.4300 349.0000 1.0000
40.4400 364.0000 1.0000
40.4500 376.0000 1.0000
40.4600 335.0000 1.0000
40.4700 349.0000 1.0000
40.4800 349.0000 1.0000
40.4900 352.0000 1.0000
40.5000 351.0000 1.0000
40.5100 383.0000 1.0000
40.5200 400.0000 1.0000
40.5300 409.0000 1.0000
40.5400 371.0000 1.0000
40.5500 384.0000 1.0000
40.5600 357.0000 1.0000
40.5700 383.0000 1.0000
40.5800 394.0000 1.0000
40.5900 353.0000 1.0000
40.6000 365.0000 1.0000
40.6100 401.0000 1.0000
40.6200 364.0000 1.0000
40.6300 374.0000 1.0000
40.6400 383.0000 1.0000
40.6500 420.0000 1.0000
40.6600 375.0000 1.0000
40.6700 402.0000 1.0000
40.6800 371.0000 1.0000
40.6900 351.0000 1.0000
40.7000 386.0000 1.0000
40.7100 381.0000 1.0000
40.7200 386.0000 1.0000
40.7300 393.0000 1.0000
40.7400 372.0000 1.0000
40.7500 393.0000 1.0000
40.7600 380.0000 1.0000
40.7700 390.0000 1.0000
40.7800 401.0000 1.0000
40.7900 362.0000 1.0000
40.8000 382.0000 1.0000
40.8100 393.0000 1.0000
40.8200 397.0000 1.0000
40.8300 374.0000 1.0000
40.8400 367.0000 1.0000
40.8500 382.0000 1.0000
40.8600 365.0000 1.0000
40.8700 349.0000 1.0000
40.8800 361.0000 1.0000
40.8900 408.0000 1.0000
40.9000 361.0000 1.0000
40.9100 368.0000 1.0000
40.9200 384.0000 1.0000
40.9300 394.0000 1.0000
40.9400 395.0000 1.0000
40.9500 389.0000 1.0000
40.9600 380.0000 1.0000
40.9700 365.0000 1.0000
40.9800 327.0000 1.0000
40.9900 340.0000 1.0000
41.0000 374.0000 1.0000
41.0100 387.0000 1.0000
41.0200 353.0000 1.0000
41.0300 364.0000 1.0000
41.0400 369.0000 1.0000
41.0500 367.0000 1.0000
41.0600 389.0000 1.0000
41.0700 346.0000 1.0000
41.0800 375.0000 1.0000
41.0900 361.0000 1.0000
41.1000 341.0000 1.0000
41.1100 370.0000 1.0000
41.1200 350.0000 1.0000
41.1300 342.0000 1.0000
41.1400 343.0000 1.0000
41.1500 382.0000 1.0000
41.1600 358.0000 1.0000
41.1700 361.0000 1.0000
41.1800 389.0000 1.0000
41.1900 383.0000 1.0000
41.2000 375.0000 1.0000
41.2100 346.0000 1.0000
41.2200 382.0000 1.0000
41.2300 377.0000 1.0000
41.2400 371.0000 1.0000
41.2500 372.0000 1.0000
41.2600 375.0000 1.0000
41.2700 379.0000 1.0000
41.2800 339.0000 1.0000
41.2900 350.0000 1.0000
41.3000 376.0000 1.0000
41.3100 365.0000 1.0000
41.3200 357.0000 1.0000
41.3300 394.0000 1.0000
41.3400 387.0000 1.0000
41.3500 354.0000 1.0000
41.3600 347.0000 1.0000
41.3700 357.0000 1.0000
41.3800 348.0000 1.0000
41.3900 353.0000 1.0000
41.4000 328.0000 1.0000
41.4100 349.0000 1.0000
41.4200 387.0000 1.0000
41.4300 370.0000 1.0000
41.4400 334.0000 1.0000
41.4500 364.0000 1.0000
41.4600 379.0000 1.0000
41.4700 370.0000 1.0000
41.4800 386.0000 1.0000
41.4900 365.0000 1.0000
41.5000 376.0000 1.0000
41.5100 365.0000 1.0000
41.5200 343.0000 1.0000
41.5300 367.0000 1.0000
41.5400 336.0000 1.0000
41.5500 350.0000 1.0000
41.5600 329.0000 1.0000
41.5700 348.0000 1.0000
41.5800 378.0000 1.0000
41.5900 359.0000 1.0000
41.6000 349.0000 1.0000
41.6100 339.0000 1.0000
41.6200 359.0000 1.0000
41.6300 351.0000 1.0000
41.6400 337.0000 1.0000
41.6500 366.0000 1.0000
41.6600 409.0000 1.0000
41.6700 379.0000 1.0000
41.6800 365.0000 1.0000
41.6900 351.0000 1.0000
41.7000 355.0000 1.0000
41.7100 378.0000 1.0000
41.7200 377.0000 1.0000
41.7300 348.0000 1.0000
41.7400 378.0000 1.0000
41.7500 364.0000 1.0000
41.7600 334.0000 1.0000
41.7700 358.0000 1.0000
41.7800 348.0000 1.0000
41.7900 365.0000 1.0000
41.8000 359.0000 1.0000
41.8100 374.0000 1.0000
41.8200 373.0000 1.0000
41.8300 387.0000 1.0000
41.8400 363.0000 1.0000
41.8500 377.0000 1.0000
41.8600 328.0000 1.0000
41.8700 338.0000 1.0000
41.8800 356.0000 1.0000
41.8900 335.0000 1.0000
41.9000 317.0000 1.0000
41.9100 377.0000 1.0000
41.9200 358.0000 1.0000
41.9300 352.0000 1.0000
41.9400 355.0000 1.0000
41.9500 337.0000 1.0000
41.9600 336.0000 1.0000
41.9700 343.0000 1.0000
41.9800 379.0000 1.0000
41.9900 368.0000 1.0000
42.0000 336.0000 1.0000
42.0100 343.0000 1.0000
42.0200 317.0000 1.0000
42.0300 343.0000 1.0000
42.0400 359.0000 1.0000
42.0500 355.0000 1.0000
42.0600 363.0000 1.0000
42.0700 373.0000 1.0000
42.0800 389.0000 1.0000
42.0900 356.0000 1.0000
42.1000 403.0000 1.0000
42.1100 375.0000 1.0000
42.1200 360.0000 1.0000
42.1300 329.0000 1.0000
42.1400 370.0000 1.0000
42.1500 345.0000 1.0000
42.1600 328.0000 1.0000
42.1700 349.0000 1.0000
42.1800 374.0000 1.0000
42.1900 352.0000 1.0000
42.2000 372.0000 1.0000
42.2100 346.0000 1.0000
42.2200 364.0000 1.0000
42.2300 357.0000 1.0000
42.2400 350.0000 1.0000
42.2500 382.0000 1.0000
42.2600 375.0000 1.0000
42.2700 335.0000 1.0000
42.2800 371.0000 1.0000
42.2900 375.0000 1.0000
42.3000 360.0000 1.0000
42.3100 376.0000 1.0000
42.3200 395.0000 1.0000
42.3300 374.0000 1.0000
42.3400 379.0000 1.0000
42.3500 375.0000 1.0000
42.3600 392.0000 1.0000
42.3700 388.0000 1.0000
42.3800 394.0000 1.0000
42.3900 361.0000 1.0000
42.4000 385.0000 1.0000
42.4100 393.0000 1.0000
42.4200 347.0000 1.0000
42.4300 391.0000 1.0000
42.4400 397.0000 1.0000
42.4500 410.0000 1.0000
42.4600 381.0000 1.0000
42.4700 383.0000 1.0000
42.4800 388.0000 1.0000
42.4900 377.0000 1.0000
42.5000 389.0000 1.0000
42.5100 380.0000 1.0000
42.5200 404.0000 1.0000
42.5300 388.0000 1.0000
42.5400 376.0000 1.0000
42.5500 365.0000 1.0000
42.5600 401.0000 1.0000
42.5700 374.0000 1.0000
42.5800 347.0000 1.0000
42.5900 349.0000 1.0000
42.6000 324.0000 1.0000
42.6100 334.0000 1.0000
42.6200 355.0000 1.0000
42.6300 373.0000 1.0000
42.6400 367.0000 1.0000
42.6500 376.0000 1.0000
42.6600 359.0000 1.0000
42.6700 356.0000 1.0000
42.6800 354.0000 1.0000
42.6900 370.0000 1.0000
42.7000 377.0000 1.0000
42.7100 355.0000 1.0000
42.7200 365.0000 1.0000
42.7300 346.0000 1.0000
42.7400 351.0000 1.0000
42.7500 337.0000 1.0000
42.7600 378.0000 1.0000
42.7700 346.0000 1.0000
42.7800 353.0000 1.0000
42.7900 332.0000 1.0000
42.8000 341.0000 1.0000
42.8100 358.0000 1.0000
42.8200 373.0000 1.0000
42.8300 342.0000 1.0000
42.8400 361.0000 1.0000
42.8500 374.0000 1.0000
42.8600 356.0000 1.0000
42.8700 355.0000 1.0000
42.8800 345.0000 1.0000
42.8900 327.0000 1.0000
42.9000 369.0000 1.0000
42.9100 357.0000 1.0000
42.9200 331.0000 1.0000
42.9300 323.0000 1.0000
42.9400 313.0000 1.0000
42.9500 352.0000 1.0000
42.9600 353.0000 1.0000
42.9700 336.0000 1.0000
42.9800 315.0000 1.0000
42.9900 395.0000 1.0000
43.0000 349.0000 1.0000
43.0100 332.0000 1.0000
43.0200 364.0000 1.0000
43.0300 321.0000 1.0000
43.0400 334.0000 1.0000
43.0500 345.0000 1.0000
43.0600 364.0000 1.0000
43.0700 332.0000 1.0000
43.0800 327.0000 1.0000
43.0900 338.0000 1.0000
43.1000 360.0000 1.0000
43.1100 364.0000 1.0000
43.1200 339.0000 1.0000
43.1300 343.0000 1.0000
43.1400 330.0000 1.0000
43.1500 306.0000 1.0000
43.1600 327.0000 1.0000
43.1700 375.0000 1.0000
43.1800 338.0000 1.0000
43.1900 346.0000 1.0000
43.2000 332.0000 1.0000
43.2100 338.0000 1.0000
43.2200 349.0000 1.0000
43.2300 346.0000 1.0000
43.2400 345.0000 1.0000
43.2500 339.0000 1.0000
43.2600 353.0000 1.0000
43.2700 348.0000 1.0000
43.2800 326.0000 1.0000
43.2900 365.0000 1.0000
43.3000 349.0000 1.0000
43.3100 334.0000 1.0000
43.3200 336.0000 1.0000
43.3300 350.0000 1.0000
43.3400 355.0000 1.0000
43.3500 322.0000 1.0000
43.3600 355.0000 1.0000
43.3700 359.0000 1.0000
43.3800 332.0000 1.0000
43.3900 357.0000 1.0000
43.4000 342.0000 1.0000
43.4100 335.0000 1.0000
43.4200 370.0000 1.0000
43.4300 352.0000 1.0000
43.4400 367.0000 1.0000
43.4500 367.0000 1.0000
43.4600 331.0000 1.0000
43.4700 386.0000 1.0000
43.4800 348.0000 1.0000
43.4900 343.0000 1.0000
43.5000 369.0000 1.0000
43.5100 353.0000 1.0000
43.5200 340.0000 1.0000
43.5300 346.0000 1.0000
43.5400 328.0000 1.0000
43.5500 366.0000 1.0000
43.5600 335.0000 1.0000
43.5700 324.0000 1.0000
43.5800 334.0000 1.0000
43.5900 353.0000 1.0000
43.6000 357.0000 1.0000
43.6100 358.0000 1.0000
43.6200 370.0000 1.0000
43.6300 327.0000 1.0000
43.6400 364.0000 1.0000
43.6500 371.0000 1.0000
43.6600 348.0000 1.0000
43.6700 342.0000 1.0000
43.6800 339.0000 1.0000
43.6900 341.0000 1.0000
43.7000 333.0000 1.0000
43.7100 335.0000 1.0000
43.7200 350.0000 1.0000
43.7300 340.0000 1.0000
43.7400 325.0000 1.0000
43.7500 337.0000 1.0000
43.7600 351.0000 1.0000
43.7700 346.0000 1.0000
43.7800 344.0000 1.0000
43.7900 323.0000 1.0000
43.8000 335.0000 1.0000
43.8100 328.0000 1.0000
43.8200 327.0000 1.0000
43.8300 314.0000 1.0000
43.8400 336.0000 1.0000
43.8500 352.0000 1.0000
43.8600 328.0000 1.0000
43.8700 342.0000 1.0000
43.8800 312.0000 1.0000
43.8900 324.0000 1.0000
43.9000 359.0000 1.0000
43.9100 372.0000 1.0000
43.9200 362.0000 1.0000
43.9300 334.0000 1.0000
43.9400 336.0000 1.0000
43.9500 321.0000 1.0000
43.9600 333.0000 1.0000
43.9700 324.0000 1.0000
43.9800 334.0000 1.0000
43.9900 334.0000 1.0000
44.0000 341.0000 1.0000
44.0100 350.0000 1.0000
44.0200 330.0000 1.0000
44.0300 320.0000 1.0000
44.0400 326.0000 1.0000
44.0500 316.0000 1.0000
44.0600 347.0000 1.0000
44.0700 348.0000 1.0000
44.0800 361.0000 1.0000
44.0900 329.0000 1.0000
44.1000 324.0000 1.0000
44.1100 300.0000 1.0000
44.1200 324.0000 1.0000
44.1300 329.0000 1.0000
44.1400 365.0000 1.0000
44.1500 332.0000 1.0000
44.1600 336.0000 1.0000
44.1700 334.0000 1.0000
44.1800 321.0000 1.0000
44.1900 348.0000 1.0000
44.2000 346.0000 1.0000
44.2100 320.0000 1.0000
44.2200 313.0000 1.0000
44.2300 301.0000 1.0000
44.2400 302.0000 1.0000
44.2500 321.0000 1.0000
44.2600 344.0000 1.0000
44.2700 336.0000 1.0000
44.2800 331.0000 1.0000
44.2900 323.0000 1.0000
44.3000 327.0000 1.0000
44.3100 304.0000 1.0000
44.3200 341.0000 1.0000
44.3300 333.0000 1.0000
44.3400 332.0000 1.0000
44.3500 319.0000 1.0000
44.3600 339.0000 1.0000
44.3700 306.0000 1.0000
44.3800 309.0000 1.0000
44.3900 308.0000 1.0000
44.4000 318.0000 1.0000
44.4100 314.0000 1.0000
44.4200 346.0000 1.0000
44.4300 342.0000 1.0000
44.4400 329.0000 1.0000
44.4500 296.0000 1.0000
44.4600 323.0000 1.0000
44.4700 338.0000 1.0000
44.4800 331.0000 1.0000
44.4900 339.0000 1.0000
44.5000 338.0000 1.0000
44.5100 341.0000 1.0000
44.5200 340.0000 1.0000
44.5300 324.0000 1.0000
44.5400 317.0000 1.0000
44.5500 340.0000 1.0000
44.5600 336.0000 1.0000
44.5700 333.0000 1.0000
44.5800 337.0000 1.0000
44.5900 323.0000 1.0000
44.6000 352.0000 1.0000
44.6100 337.0000 1.0000
44.6200 306.0000 1.0000
44.6300 326.0000 1.0000
44.6400 349.0000 1.0000
44.6500 328.0000 1.0000
44.6600 339.0000 1.0000
44.6700 300.0000 1.0000
44.6800 298.0000 1.0000
44.6900 320.0000 1.0000
44.7000 338.0000 1.0000
44.7100 323.0000 1.0000
44.7200 305.0000 1.0000
44.7300 333.0000 1.0000
44.7400 337.0000 1.0000
44.7500 333.0000 1.0000
44.7600 332.0000 1.0000
44.7700 323.0000 1.0000
44.7800 321.0000 1.0000
44.7900 308.0000 1.0000
44.8000 329.0000 1.0000
44.8100 328.0000 1.0000
44.8200 296.0000 1.0000
44.8300 327.0000 1.0000
44.8400 318.0000 1.0000
44.8500 325.0000 1.0000
44.8600 317.0000 1.0000
44.8700 320.0000 1.0000
44.8800 326.0000 1.0000
44.8900 323.0000 1.0000
44.9000 375.0000 1.0000
44.9100 343.0000 1.0000
44.9200 310.0000 1.0000
44.9300 336.0000 1.0000
44.9400 356.0000 1.0000
44.9500 315.0000 1.0000
44.9600 350.0000 1.0000
44.9700 329.0000 1.0000
44.9800 322.0000 1.0000
44.9900 337.0000 1.0000
45.0000 320.0000 1.0000
45.0100 322.0000 1.0000
45.0200 322.0000 1.0000
45.0300 311.0000 1.0000
45.0400 325.0000 1.0000
45.0500 304.0000 1.0000
45.0600 359.0000 1.0000
45.0700 329.0000 1.0000
45.0800 337.0000 1.0000
45.0900 317.0000 1.0000
45.1000 342.0000 1.0000
45.1100 306.0000 1.0000
45.1200 328.0000 1.0000
45.1300 356.0000 1.0000
45.1400 329.0000 1.0000
45.1500 336.0000 1.0000
45.1600 308.0000 1.0000
45.1700 340.0000 1.0000
45.1800 323.0000 1.0000
45.1900 328.0000 1.0000
45.2000 336.0000 1.0000
45.2100 358.0000 1.0000
45.2200 310.0000 1.0000
45.2300 325.0000 1.0000
45.2400 327.0000 1.0000
45.2500 311.0000 1.0000
45.2600 336.0000 1.0000
45.2700 346.0000 1.0000
45.2800 351.0000 1.0000
45.2900 332.0000 1.0000
45.3000 350.0000 1.0000
45.3100 329.0000 1.0000
45.3200 310.0000 1.0000
45.3300 313.0000 1.0000
45.3400 343.0000 1.0000
45.3500 340.0000 1.0000
45.3600 323.0000 1.0000
45.3700 327.0000 1.0000
45.3800 337.0000 1.0000
45.3900 318.0000 1.0000
45.4000 310.0000 1.0000
45.4100 350.0000 1.0000
45.4200 316.0000 1.0000
45.4300 328.0000 1.0000
45.4400 298.0000 1.0000
45.4500 311.0000 1.0000
45.4600 341.0000 1.0000
45.4700 339.0000 1.0000
45.4800 351.0000 1.0000
45.4900 363.0000 1.0000
45.5000 307.0000 1.0000
45.5100 345.0000 1.0000
45.5200 338.0000 1.0000
45.5300 345.0000 1.0000
45.5400 342.0000 1.0000
45.5500 303.0000 1.0000
45.5600 339.0000 1.0000
45.5700 325.0000 1.0000
45.5800 328.0000 1.0000
45.5900 314.0000 1.0000
45.6000 335.0000 1.0000
45.6100 344.0000 1.0000
45.6200 322.0000 1.0000
45.6300 312.0000 1.0000
45.6400 329.0000 1.0000
45.6500 295.0000 1.0000
45.6600 326.0000 1.0000
45.6700 319.0000 1.0000
45.6800 344.0000 1.0000
45.6900 346.0000 1.0000
45.7000 325.0000 1.0000
45.7100 341.0000 1.0000
45.7200 313.0000 1.0000
45.7300 327.0000 1.0000
45.7400 357.0000 1.0000
45.7500 353.0000 1.0000
45.7600 347.0000 1.0000
45.7700 335.0000 1.0000
45.7800 332.0000 1.0000
45.7900 323.0000 1.0000
45.8000 322.0000 1.0000
45.8100 312.0000 1.0000
45.8200 336.0000 1.0000
45.8300 345.0000 1.0000
45.8400 308.0000 1.0000
45.8500 296.0000 1.0000
45.8600 335.0000 1.0000
45.8700 304.0000 1.0000
45.8800 320.0000 1.0000
45.8900 308.0000 1.0000
45.9000 324.0000 1.0000
45.9100 317.0000 1.0000
45.9200 330.0000 1.0000
45.9300 322.0000 1.0000
45.9400 328.0000 1.0000
45.9500 308.0000 1.0000
45.9600 315.0000 1.0000
45.9700 340.0000 1.0000
45.9800 305.0000 1.0000
45.9900 341.0000 1.0000
46.0000 315.0000 1.0000
46.0100 304.0000 1.0000
46.0200 312.0000 1.0000
46.0300 315.0000 1.0000
46.0400 295.0000 1.0000
46.0500 329.0000 1.0000
46.0600 329.0000 1.0000
46.0700 304.0000 1.0000
46.0800 298.0000 1.0000
46.0900 312.0000 1.0000
46.1000 313.0000 1.0000
46.1100 310.0000 1.0000
46.1200 300.0000 1.0000
46.1300 320.0000 1.0000
46.1400 340.0000 1.0000
46.1500 327.0000 1.0000
46.1600 306.0000 1.0000
46.1700 323.0000 1.0000
46.1800 349.0000 1.0000
46.1900 326.0000 1.0000
46.2000 347.0000 1.0000
46.2100 325.0000 1.0000
46.2200 335.0000 1.0000
46.2300 327.0000 1.0000
46.2400 348.0000 1.0000
46.2500 322.0000 1.0000
46.2600 337.0000 1.0000
46.2700 361.0000 1.0000
46.2800 333.0000 1.0000
46.2900 328.0000 1.0000
46.3000 331.0000 1.0000
46.3100 306.0000 1.0000
46.3200 316.0000 1.0000
46.3300 320.0000 1.0000
46.3400 339.0000 1.0000
46.3500 312.0000 1.0000
46.3600 327.0000 1.0000
46.3700 323.0000 1.0000
46.3800 317.0000 1.0000
46.3900 305.0000 1.0000
46.4000 314.0000 1.0000
46.4100 301.0000 1.0000
46.4200 337.0000 1.0000
46.4300 302.0000 1.0000
46.4400 299.0000 1.0000
46.4500 326.0000 1.0000
46.4600 345.0000 1.0000
46.4700 312.0000 1.0000
46.4800 313.0000 1.0000
46.4900 311.0000 1.0000
46.5000 335.0000 1.0000
46.5100 350.0000 1.0000
46.5200 333.0000 1.0000
46.5300 319.0000 1.0000
46.5400 281.0000 1.0000
46.5500 328.0000 1.0000
46.5600 314.0000 1.0000
46.5700 352.0000 1.0000
46.5800 356.0000 1.0000
46.5900 312.0000 1.0000
46.6000 330.0000 1.0000
46.6100 340.0000 1.0000
46.6200 301.0000 1.0000
46.6300 297.0000 1.0000
46.6400 320.0000 1.0000
46.6500 322.0000 1.0000
46.6600 328.0000 1.0000
46.6700 313.0000 1.0000
46.6800 322.0000 1.0000
46.6900 310.0000 1.0000
46.7000 333.0000 1.0000
46.7100 324.0000 1.0000
46.7200 308.0000 1.0000
46.7300 321.0000 1.0000
46.7400 309.0000 1.0000
46.7500 322.0000 1.0000
46.7600 329.0000 1.0000
46.7700 307.0000 1.0000
46.7800 305.0000 1.0000
46.7900 314.0000 1.0000
46.8000 294.0000 1.0000
46.8100 318.0000 1.0000
46.8200 307.0000 1.0000
46.8300 309.0000 1.0000
46.8400 306.0000 1.0000
46.8500 310.0000 1.0000
46.8600 299.0000 1.0000
46.8700 286.0000 1.0000
46.8800 328.0000 1.0000
46.8900 310.0000 1.0000
46.9000 317.0000 1.0000
46.9100 338.0000 1.0000
46.9200 321.0000 1.0000
46.9300 310.0000 1.0000
46.9400 303.0000 1.0000
46.9500 315.0000 1.0000
46.9600 294.0000 1.0000
46.9700 305.0000 1.0000
46.9800 320.0000 1.0000
46.9900 338.0000 1.0000
47.0000 327.0000 1.0000
47.0100 303.0000 1.0000
47.0200 312.0000 1.0000
47.0300 335.0000 1.0000
47.0400 331.0000 1.0000
47.0500 335.0000 1.0000
47.0600 325.0000 1.0000
47.0700 304.0000 1.0000
47.0800 297.0000 1.0000
47.0900 275.0000 1.0000
47.1000 301.0000 1.0000
47.1100 326.0000 1.0000
47.1200 333.0000 1.0000
47.1300 318.0000 1.0000
47.1400 319.0000 1.0000
47.1500 305.0000 1.0000
47.1600 312.0000 1.0000
47.1700 329.0000 1.0000
47.1800 327.0000 1.0000
47.1900 295.0000 1.0000
47.2000 309.0000 1.0000
47.2100 282.0000 1.0000
47.2200 304.0000 1.0000
47.2300 302.0000 1.0000
47.2400 308.0000 1.0000
47.2500 285.0000 1.0000
47.2600 304.0000 1.0000
47.2700 324.0000 1.0000
47.2800 318.0000 1.0000
47.2900 311.0000 1.0000
47.3000 329.0000 1.0000
47.3100 319.0000 1.0000
47.3200 311.0000 1.0000
47.3300 302.0000 1.0000
47.3400 314.0000 1.0000
47.3500 318.0000 1.0000
47.3600 297.0000 1.0000
47.3700 302.0000 1.0000
47.3800 310.0000 1.0000
47.3900 317.0000 1.0000
47.4000 308.0000 1.0000
47.4100 305.0000 1.0000
47.4200 325.0000 1.0000
47.4300 306.0000 1.0000
47.4400 307.0000 1.0000
47.4500 318.0000 1.0000
47.4600 308.0000 1.0000
47.4700 314.0000 1.0000
47.4800 291.0000 1.0000
47.4900 302.0000 1.0000
47.5000 287.0000 1.0000
47.5100 305.0000 1.0000
47.5200 309.0000 1.0000
47.5300 323.0000 1.0000
47.5400 305.0000 1.0000
47.5500 299.0000 1.0000
47.5600 329.0000 1.0000
47.5700 302.0000 1.0000
47.5800 309.0000 1.0000
47.5900 283.0000 1.0000
47.6000 304.0000 1.0000
47.6100 325.0000 1.0000
47.6200 356.0000 1.0000
47.6300 318.0000 1.0000
47.6400 284.0000 1.0000
47.6500 298.0000 1.0000
47.6600 287.0000 1.0000
47.6700 294.0000 1.0000
47.6800 290.0000 1.0000
47.6900 313.0000 1.0000
47.7000 328.0000 1.0000
47.7100 323.0000 1.0000
47.7200 326.0000 1.0000
47.7300 310.0000 1.0000
47.7400 294.0000 1.0000
47.7500 291.0000 1.0000
47.7600 322.0000 1.0000
47.7700 303.0000 1.0000
47.7800 301.0000 1.0000
47.7900 295.0000 1.0000
47.8000 320.0000 1.0000
47.8100 318.0000 1.0000
47.8200 304.0000 1.0000
47.8300 306.0000 1.0000
47.8400 288.0000 1.0000
47.8500 284.0000 1.0000
47.8600 320.0000 1.0000
47.8700 292.0000 1.0000
47.8800 298.0000 1.0000
47.8900 305.0000 1.0000
47.9000 298.0000 1.0000
47.9100 327.0000 1.0000
47.9200 305.0000 1.0000
47.9300 283.0000 1.0000
47.9400 317.0000 1.0000
47.9500 274.0000 1.0000
47.9600 304.0000 1.0000
47.9700 358.0000 1.0000
47.9800 291.0000 1.0000
47.9900 302.0000 1.0000
48.0000 295.0000 1.0000
48.0100 299.0000 1.0000
48.0200 304.0000 1.0000
48.0300 319.0000 1.0000
48.0400 302.0000 1.0000
48.0500 309.0000 1.0000
48.0600 299.0000 1.0000
48.0700 293.0000 1.0000
48.0800 275.0000 1.0000
48.0900 306.0000 1.0000
48.1000 327.0000 1.0000
48.1100 320.0000 1.0000
48.1200 299.0000 1.0000
48.1300 302.0000 1.0000
48.1400 291.0000 1.0000
48.1500 285.0000 1.0000
48.1600 271.0000 1.0000
48.1700 302.0000 1.0000
48.1800 291.0000 1.0000
48.1900 299.0000 1.0000
48.2000 318.0000 1.0000
48.2100 294.0000 1.0000
48.2200 305.0000 1.0000
48.2300 304.0000 1.0000
48.2400 286.0000 1.0000
48.2500 318.0000 1.0000
48.2600 280.0000 1.0000
48.2700 306.0000 1.0000
48.2800 303.0000 1.0000
48.2900 299.0000 1.0000
48.3000 301.0000 1.0000
48.3100 318.0000 1.0000
48.3200 300.0000 1.0000
48.3300 296.0000 1.0000
48.3400 304.0000 1.0000
48.3500 289.0000 1.0000
48.3600 321.0000 1.0000
48.3700 304.0000 1.0000
48.3800 271.0000 1.0000
48.3900 303.0000 1.0000
48.4000 306.0000 1.0000
48.4100 275.0000 1.0000
48.4200 300.0000 1.0000
48.4300 274.0000 1.0000
48.4400 300.0000 1.0000
48.4500 300.0000 1.0000
48.4600 307.0000 1.0000
48.4700 292.0000 1.0000
48.4800 331.0000 1.0000
48.4900 289.0000 1.0000
48.5000 310.0000 1.0000
48.5100 311.0000 1.0000
48.5200 299.0000 1.0000
48.5300 302.0000 1.0000
48.5400 299.0000 1.0000
48.5500 298.0000 1.0000
48.5600 311.0000 1.0000
48.5700 278.0000 1.0000
48.5800 296.0000 1.0000
48.5900 305.0000 1.0000
48.6000 299.0000 1.0000
48.6100 289.0000 1.0000
48.6200 289.0000 1.0000
48.6300 298.0000 1.0000
48.6400 315.0000 1.0000
48.6500 323.0000 1.0000
48.6600 291.0000 1.0000
48.6700 308.0000 1.0000
48.6800 296.0000 1.0000
48.6900 307.0000 1.0000
48.7000 283.0000 1.0000
48.7100 295.0000 1.0000
48.7200 289.0000 1.0000
48.7300 301.0000 1.0000
48.7400 315.0000 1.0000
48.7500 314.0000 1.0000
48.7600 311.0000 1.0000
48.7700 295.0000 1.0000
48.7800 305.0000 1.0000
48.7900 311.0000 1.0000
48.8000 311.0000 1.0000
48.8100 324.0000 1.0000
48.8200 305.0000 1.0000
48.8300 290.0000 1.0000
48.8400 303.0000 1.0000
48.8500 301.0000 1.0000
48.8600 290.0000 1.0000
48.8700 295.0000 1.0000
48.8800 301.0000 1.0000
48.8900 278.0000 1.0000
48.9000 301.0000 1.0000
48.9100 269.0000 1.0000
48.9200 290.0000 1.0000
48.9300 291.0000 1.0000
48.9400 306.0000 1.0000
48.9500 312.0000 1.0000
48.9600 304.0000 1.0000
48.9700 300.0000 1.0000
48.9800 285.0000 1.0000
48.9900 301.0000 1.0000
49.0000 294.0000 1.0000
49.0100 300.0000 1.0000
49.0200 301.0000 1.0000
49.0300 294.0000 1.0000
49.0400 301.0000 1.0000
49.0500 312.0000 1.0000
49.0600 344.0000 1.0000
49.0700 332.0000 1.0000
49.0800 325.0000 1.0000
49.0900 299.0000 1.0000
49.1000 305.0000 1.0000
49.1100 317.0000 1.0000
49.1200 277.0000 1.0000
49.1300 298.0000 1.0000
49.1400 304.0000 1.0000
49.1500 280.0000 1.0000
49.1600 278.0000 1.0000
49.1700 320.0000 1.0000
49.1800 296.0000 1.0000
49.1900 302.0000 1.0000
49.2000 301.0000 1.0000
49.2100 313.0000 1.0000
49.2200 329.0000 1.0000
49.2300 296.0000 1.0000
49.2400 282.0000 1.0000
49.2500 313.0000 1.0000
49.2600 316.0000 1.0000
49.2700 317.0000 1.0000
49.2800 294.0000 1.0000
49.2900 289.0000 1.0000
49.3000 278.0000 1.0000
49.3100 293.0000 1.0000
49.3200 325.0000 1.0000
49.3300 356.0000 1.0000
49.3400 308.0000 1.0000
49.3500 333.0000 1.0000
49.3600 323.0000 1.0000
49.3700 333.0000 1.0000
49.3800 338.0000 1.0000
49.3900 353.0000 1.0000
49.4000 344.0000 1.0000
49.4100 351.0000 1.0000
49.4200 337.0000 1.0000
49.4300 320.0000 1.0000
49.4400 342.0000 1.0000
49.4500 314.0000 1.0000
49.4600 318.0000 1.0000
49.4700 337.0000 1.0000
49.4800 323.0000 1.0000
49.4900 349.0000 1.0000
49.5000 339.0000 1.0000
49.5100 314.0000 1.0000
49.5200 310.0000 1.0000
49.5300 310.0000 1.0000
49.5400 336.0000 1.0000
49.5500 325.0000 1.0000
49.5600 328.0000 1.0000
49.5700 287.0000 1.0000
49.5800 305.0000 1.0000
49.5900 338.0000 1.0000
49.6000 329.0000 1.0000
49.6100 316.0000 1.0000
49.6200 310.0000 1.0000
49.6300 310.0000 1.0000
49.6400 295.0000 1.0000
49.6500 308.0000 1.0000
49.6600 312.0000 1.0000
49.6700 312.0000 1.0000
49.6800 303.0000 1.0000
49.6900 293.0000 1.0000
49.7000 318.0000 1.0000
49.7100 309.0000 1.0000
49.7200 265.0000 1.0000
49.7300 295.0000 1.0000
49.7400 324.0000 1.0000
49.7500 312.0000 1.0000
49.7600 321.0000 1.0000
49.7700 288.0000 1.0000
49.7800 292.0000 1.0000
49.7900 301.0000 1.0000
49.8000 334.0000 1.0000
49.8100 290.0000 1.0000
49.8200 316.0000 1.0000
49.8300 306.0000 1.0000
49.8400 305.0000 1.0000
49.8500 328.0000 1.0000
49.8600 303.0000 1.0000
49.8700 316.0000 1.0000
49.8800 310.0000 1.0000
49.8900 288.0000 1.0000
49.9000 279.0000 1.0000
49.9100 306.0000 1.0000
49.9200 308.0000 1.0000
49.9300 315.0000 1.0000
49.9400 308.0000 1.0000
49.9500 312.0000 1.0000
49.9600 296.0000 1.0000
49.9700 303.0000 1.0000
49.9800 314.0000 1.0000
49.9900 285.0000 1.0000
50.0000 297.0000 1.0000
50.0100 320.0000 1.0000
50.0200 328.0000 1.0000
50.0300 315.0000 1.0000
50.0400 299.0000 1.0000
50.0500 279.0000 1.0000
50.0600 316.0000 1.0000
50.0700 324.0000 1.0000
50.0800 322.0000 1.0000
50.0900 289.0000 1.0000
50.1000 290.0000 1.0000
50.1100 298.0000 1.0000
50.1200 311.0000 1.0000
50.1300 300.0000 1.0000
50.1400 285.0000 1.0000
50.1500 307.0000 1.0000
50.1600 316.0000 1.0000
50.1700 301.0000 1.0000
50.1800 280.0000 1.0000
50.1900 282.0000 1.0000
50.2000 332.0000 1.0000
50.2100 301.0000 1.0000
50.2200 322.0000 1.0000
50.2300 294.0000 1.0000
50.2400 318.0000 1.0000
50.2500 320.0000 1.0000
50.2600 299.0000 1.0000
50.2700 284.0000 1.0000
50.2800 269.0000 1.0000
50.2900 314.0000 1.0000
50.3000 338.0000 1.0000
50.3100 304.0000 1.0000
50.3200 301.0000 1.0000
50.3300 321.0000 1.0000
50.3400 285.0000 1.0000
50.3500 307.0000 1.0000
50.3600 318.0000 1.0000
50.3700 291.0000 1.0000
50.3800 306.0000 1.0000
50.3900 316.0000 1.0000
50.4000 287.0000 1.0000
50.4100 324.0000 1.0000
50.4200 284.0000 1.0000
50.4300 310.0000 1.0000
50.4400 301.0000 1.0000
50.4500 304.0000 1.0000
50.4600 310.0000 1.0000
50.4700 308.0000 1.0000
50.4800 295.0000 1.0000
50.4900 291.0000 1.0000
50.5000 326.0000 1.0000
50.5100 301.0000 1.0000
50.5200 288.0000 1.0000
50.5300 314.0000 1.0000
50.5400 319.0000 1.0000
50.5500 294.0000 1.0000
50.5600 299.0000 1.0000
50.5700 330.0000 1.0000
50.5800 307.0000 1.0000
50.5900 317.0000 1.0000
50.6000 296.0000 1.0000
50.6100 311.0000 1.0000
50.6200 315.0000 1.0000
50.6300 308.0000 1.0000
50.6400 327.0000 1.0000
50.6500 313.0000 1.0000
50.6600 308.0000 1.0000
50.6700 342.0000 1.0000
50.6800 307.0000 1.0000
50.6900 277.0000 1.0000
50.7000 321.0000 1.0000
50.7100 302.0000 1.0000
50.7200 304.0000 1.0000
50.7300 311.0000 1.0000
50.7400 309.0000 1.0000
50.7500 315.0000 1.0000
50.7600 304.0000 1.0000
50.7700 330.0000 1.0000
50.7800 322.0000 1.0000
50.7900 301.0000 1.0000
50.8000 306.0000 1.0000
50.8100 299.0000 1.0000
50.8200 321.0000 1.0000
50.8300 291.0000 1.0000
50.8400 314.0000 1.0000
50.8500 322.0000 1.0000
50.8600 318.0000 1.0000
50.8700 314.0000 1.0000
50.8800 302.0000 1.0000
50.8900 293.0000 1.0000
50.9000 317.0000 1.0000
50.9100 325.0000 1.0000
50.9200 320.0000 1.0000
50.9300 331.0000 1.0000
50.9400 340.0000 1.0000
50.9500 329.0000 1.0000
50.9600 330.0000 1.0000
50.9700 327.0000 1.0000
50.9800 338.0000 1.0000
50.9900 357.0000 1.0000
51.0000 353.0000 1.0000
51.0100 372.0000 1.0000
51.0200 332.0000 1.0000
51.0300 353.0000 1.0000
51.0400 334.0000 1.0000
51.0500 342.0000 1.0000
51.0600 351.0000 1.0000
51.0700 339.0000 1.0000
51.0800 348.0000 1.0000
51.0900 354.0000 1.0000
51.1000 354.0000 1.0000
51.1100 420.0000 1.0000
51.1200 383.0000 1.0000
51.1300 372.0000 1.0000
51.1400 390.0000 1.0000
51.1500 403.0000 1.0000
51.1600 419.0000 1.0000
51.1700 438.0000 1.0000
51.1800 414.0000 1.0000
51.1900 437.0000 1.0000
51.2000 434.0000 1.0000
51.2100 455.0000 1.0000
51.2200 470.0000 1.0000
51.2300 481.0000 1.0000
51.2400 539.0000 1.0000
51.2500 519.0000 1.0000
51.2600 526.0000 1.0000
51.2700 594.0000 1.0000
51.2800 574.0000 1.0000
51.2900 626.0000 1.0000
51.3000 662.0000 1.0000
51.3100 659.0000 1.0000
51.3200 737.0000 1.0000
51.3300 810.0000 1.0000
51.3400 863.0000 1.0000
51.3500 978.0000 1.0000
51.3600 1034.0000 1.0000
51.3700 1104.0000 1.0000
51.3800 1117.0000 1.0000
51.3900 1224.0000 1.0000
51.4000 1366.0000 1.0000
51.4100 1409.0000 1.0000
51.4200 1548.0000 1.0000
51.4300 1663.0000 1.0000
51.4400 1772.0000 1.0000
51.4500 1782.0000 1.0000
51.4600 1915.0000 1.0000
51.4700 1966.0000 1.0000
51.4800 2048.0000 1.0000
51.4900 1981.0000 1.0000
51.5000 2001.0000 1.0000
51.5100 2055.0000 1.0000
51.5200 2021.0000 1.0000
51.5300 1943.0000 1.0000
51.5400 1862.0000 1.0000
51.5500 1814.0000 1.0000
51.5600 1773.0000 1.0000
51.5700 1684.0000 1.0000
51.5800 1679.0000 1.0000
51.5900 1553.0000 1.0000
51.6000 1514.0000 1.0000
51.6100 1491.0000 1.0000
51.6200 1418.0000 1.0000
51.6300 1414.0000 1.0000
51.6400 1307.0000 1.0000
51.6500 1264.0000 1.0000
51.6600 1203.0000 1.0000
51.6700 1130.0000 1.0000
51.6800 1057.0000 1.0000
51.6900 1007.0000 1.0000
51.7000 955.0000 1.0000
51.7100 887.0000 1.0000
51.7200 808.0000 1.0000
51.7300 726.0000 1.0000
51.7400 684.0000 1.0000
51.7500 658.0000 1.0000
51.7600 606.0000 1.0000
51.7700 612.0000 1.0000
51.7800 572.0000 1.0000
51.7900 543.0000 1.0000
51.8000 521.0000 1.0000
51.8100 488.0000 1.0000
51.8200 507.0000 1.0000
51.8300 441.0000 1.0000
51.8400 477.0000 1.0000
51.8500 431.0000 1.0000
51.8600 450.0000 1.0000
51.8700 441.0000 1.0000
51.8800 421.0000 1.0000
51.8900 405.0000 1.0000
51.9000 404.0000 1.0000
51.9100 390.0000 1.0000
51.9200 416.0000 1.0000
51.9300 396.0000 1.0000
51.9400 388.0000 1.0000
51.9500 397.0000 1.0000
51.9600 376.0000 1.0000
51.9700 384.0000 1.0000
51.9800 351.0000 1.0000
51.9900 355.0000 1.0000
52.0000 333.0000 1.0000
52.0100 338.0000 1.0000
52.0200 352.0000 1.0000
52.0300 356.0000 1.0000
52.0400 334.0000 1.0000
52.0500 343.0000 1.0000
52.0600 331.0000 1.0000
52.0700 354.0000 1.0000
52.0800 321.0000 1.0000
52.0900 327.0000 1.0000
52.1000 316.0000 1.0000
52.1100 327.0000 1.0000
52.1200 310.0000 1.0000
52.1300 366.0000 1.0000
52.1400 366.0000 1.0000
52.1500 365.0000 1.0000
52.1600 327.0000 1.0000
52.1700 293.0000 1.0000
52.1800 316.0000 1.0000
52.1900 333.0000 1.0000
52.2000 336.0000 1.0000
52.2100 334.0000 1.0000
52.2200 330.0000 1.0000
52.2300 295.0000 1.0000
52.2400 330.0000 1.0000
52.2500 345.0000 1.0000
52.2600 324.0000 1.0000
52.2700 298.0000 1.0000
52.2800 313.0000 1.0000
52.2900 317.0000 1.0000
52.3000 315.0000 1.0000
52.3100 299.0000 1.0000
52.3200 294.0000 1.0000
52.3300 299.0000 1.0000
52.3400 322.0000 1.0000
52.3500 324.0000 1.0000
52.3600 287.0000 1.0000
52.3700 317.0000 1.0000
52.3800 269.0000 1.0000
52.3900 315.0000 1.0000
52.4000 290.0000 1.0000
52.4100 322.0000 1.0000
52.4200 297.0000 1.0000
52.4300 308.0000 1.0000
52.4400 310.0000 1.0000
52.4500 301.0000 1.0000
52.4600 300.0000 1.0000
52.4700 282.0000 1.0000
52.4800 309.0000 1.0000
52.4900 336.0000 1.0000
52.5000 302.0000 1.0000
52.5100 333.0000 1.0000
52.5200 297.0000 1.0000
52.5300 301.0000 1.0000
52.5400 320.0000 1.0000
52.5500 286.0000 1.0000
52.5600 300.0000 1.0000
52.5700 313.0000 1.0000
52.5800 298.0000 1.0000
52.5900 317.0000 1.0000
52.6000 292.0000 1.0000
52.6100 295.0000 1.0000
52.6200 288.0000 1.0000
52.6300 314.0000 1.0000
52.6400 300.0000 1.0000
52.6500 300.0000 1.0000
52.6600 297.0000 1.0000
52.6700 312.0000 1.0000
52.6800 303.0000 1.0000
52.6900 327.0000 1.0000
52.7000 306.0000 1.0000
52.7100 291.0000 1.0000
52.7200 299.0000 1.0000
52.7300 308.0000 1.0000
52.7400 305.0000 1.0000
52.7500 315.0000 1.0000
52.7600 277.0000 1.0000
52.7700 291.0000 1.0000
52.7800 293.0000 1.0000
52.7900 268.0000 1.0000
52.8000 301.0000 1.0000
52.8100 290.0000 1.0000
52.8200 299.0000 1.0000
52.8300 286.0000 1.0000
52.8400 294.0000 1.0000
52.8500 281.0000 1.0000
52.8600 313.0000 1.0000
52.8700 295.0000 1.0000
52.8800 300.0000 1.0000
52.8900 281.0000 1.0000
52.9000 282.0000 1.0000
52.9100 319.0000 1.0000
52.9200 311.0000 1.0000
52.9300 317.0000 1.0000
52.9400 310.0000 1.0000
52.9500 315.0000 1.0000
52.9600 264.0000 1.0000
52.9700 308.0000 1.0000
52.9800 287.0000 1.0000
52.9900 292.0000 1.0000
53.0000 296.0000 1.0000
53.0100 302.0000 1.0000
53.0200 277.0000 1.0000
53.0300 278.0000 1.0000
53.0400 279.0000 1.0000
53.0500 304.0000 1.0000
53.0600 276.0000 1.0000
53.0700 292.0000 1.0000
53.0800 273.0000 1.0000
53.0900 277.0000 1.0000
53.1000 273.0000 1.0000
53.1100 283.0000 1.0000
53.1200 278.0000 1.0000
53.1300 286.0000 1.0000
53.1400 286.0000 1.0000
53.1500 295.0000 1.0000
53.1600 283.0000 1.0000
53.1700 261.0000 1.0000
53.1800 293.0000 1.0000
53.1900 304.0000 1.0000
53.2000 288.0000 1.0000
53.2100 275.0000 1.0000
53.2200 271.0000 1.0000
53.2300 270.0000 1.0000
53.2400 285.0000 1.0000
53.2500 297.0000 1.0000
53.2600 305.0000 1.0000
53.2700 295.0000 1.0000
53.2800 281.0000 1.0000
53.2900 272.0000 1.0000
53.3000 289.0000 1.0000
53.3100 316.0000 1.0000
53.3200 309.0000 1.0000
53.3300 288.0000 1.0000
53.3400 272.0000 1.0000
53.3500 286.0000 1.0000
53.3600 273.0000 1.0000
53.3700 281.0000 1.0000
53.3800 295.0000 1.0000
53.3900 271.0000 1.0000
53.4000 293.0000 1.0000
53.4100 310.0000 1.0000
53.4200 310.0000 1.0000
53.4300 311.0000 1.0000
53.4400 304.0000 1.0000
53.4500 304.0000 1.0000
53.4600 278.0000 1.0000
53.4700 295.0000 1.0000
53.4800 279.0000 1.0000
53.4900 304.0000 1.0000
53.5000 314.0000 1.0000
53.5100 286.0000 1.0000
53.5200 285.0000 1.0000
53.5300 278.0000 1.0000
53.5400 318.0000 1.0000
53.5500 281.0000 1.0000
53.5600 324.0000 1.0000
53.5700 295.0000 1.0000
53.5800 284.0000 1.0000
53.5900 278.0000 1.0000
53.6000 296.0000 1.0000
53.6100 297.0000 1.0000
53.6200 282.0000 1.0000
53.6300 271.0000 1.0000
53.6400 287.0000 1.0000
53.6500 277.0000 1.0000
53.6600 290.0000 1.0000
53.6700 270.0000 1.0000
53.6800 288.0000 1.0000
53.6900 291.0000 1.0000
53.7000 275.0000 1.0000
53.7100 264.0000 1.0000
53.7200 296.0000 1.0000
53.7300 291.0000 1.0000
53.7400 290.0000 1.0000
53.7500 275.0000 1.0000
53.7600 314.0000 1.0000
53.7700 253.0000 1.0000
53.7800 297.0000 1.0000
53.7900 305.0000 1.0000
53.8000 304.0000 1.0000
53.8100 288.0000 1.0000
53.8200 285.0000 1.0000
53.8300 298.0000 1.0000
53.8400 321.0000 1.0000
53.8500 292.0000 1.0000
53.8600 294.0000 1.0000
53.8700 271.0000 1.0000
53.8800 298.0000 1.0000
53.8900 309.0000 1.0000
53.9000 318.0000 1.0000
53.9100 322.0000 1.0000
53.9200 314.0000 1.0000
53.9300 316.0000 1.0000
53.9400 313.0000 1.0000
53.9500 313.0000 1.0000
53.9600 311.0000 1.0000
53.9700 304.0000 1.0000
53.9800 322.0000 1.0000
53.9900 324.0000 1.0000
54.0000 327.0000 1.0000
54.0100 308.0000 1.0000
54.0200 302.0000 1.0000
54.0300 328.0000 1.0000
54.0400 335.0000 1.0000
54.0500 330.0000 1.0000
54.0600 327.0000 1.0000
54.0700 338.0000 1.0000
54.0800 328.0000 1.0000
54.0900 317.0000 1.0000
54.1000 318.0000 1.0000
54.1100 314.0000 1.0000
54.1200 308.0000 1.0000
54.1300 356.0000 1.0000
54.1400 332.0000 1.0000
54.1500 332.0000 1.0000
54.1600 328.0000 1.0000
54.1700 303.0000 1.0000
54.1800 307.0000 1.0000
54.1900 315.0000 1.0000
54.2000 318.0000 1.0000
54.2100 319.0000 1.0000
54.2200 327.0000 1.0000
54.2300 322.0000 1.0000
54.2400 337.0000 1.0000
54.2500 359.0000 1.0000
54.2600 339.0000 1.0000
54.2700 326.0000 1.0000
54.2800 331.0000 1.0000
54.2900 314.0000 1.0000
54.3000 342.0000 1.0000
54.3100 351.0000 1.0000
54.3200 337.0000 1.0000
54.3300 352.0000 1.0000
54.3400 366.0000 1.0000
54.3500 335.0000 1.0000
54.3600 346.0000 1.0000
54.3700 377.0000 1.0000
54.3800 382.0000 1.0000
54.3900 365.0000 1.0000
54.4000 375.0000 1.0000
54.4100 399.0000 1.0000
54.4200 369.0000 1.0000
54.4300 381.0000 1.0000
54.4400 418.0000 1.0000
54.4500 419.0000 1.0000
54.4600 403.0000 1.0000
54.4700 418.0000 1.0000
54.4800 439.0000 1.0000
54.4900 412.0000 1.0000
54.5000 431.0000 1.0000
54.5100 418.0000 1.0000
54.5200 451.0000 1.0000
54.5300 469.0000 1.0000
54.5400 468.0000 1.0000
54.5500 407.0000 1.0000
54.5600 396.0000 1.0000
54.5700 403.0000 1.0000
54.5800 435.0000 1.0000
54.5900 426.0000 1.0000
54.6000 418.0000 1.0000
54.6100 382.0000 1.0000
54.6200 411.0000 1.0000
54.6300 397.0000 1.0000
54.6400 384.0000 1.0000
54.6500 430.0000 1.0000
54.6600 425.0000 1.0000
54.6700 399.0000 1.0000
54.6800 398.0000 1.0000
54.6900 370.0000 1.0000
54.7000 365.0000 1.0000
54.7100 353.0000 1.0000
54.7200 392.0000 1.0000
54.7300 346.0000 1.0000
54.7400 352.0000 1.0000
54.7500 354.0000 1.0000
54.7600 353.0000 1.0000
54.7700 324.0000 1.0000
54.7800 321.0000 1.0000
54.7900 303.0000 1.0000
54.8000 313.0000 1.0000
54.8100 307.0000 1.0000
54.8200 310.0000 1.0000
54.8300 329.0000 1.0000
54.8400 303.0000 1.0000
54.8500 317.0000 1.0000
54.8600 313.0000 1.0000
54.8700 280.0000 1.0000
54.8800 289.0000 1.0000
54.8900 272.0000 1.0000
54.9000 297.0000 1.0000
54.9100 298.0000 1.0000
54.9200 285.0000 1.0000
54.9300 302.0000 1.0000
54.9400 301.0000 1.0000
54.9500 295.0000 1.0000
54.9600 289.0000 1.0000
54.9700 276.0000 1.0000
54.9800 279.0000 1.0000
54.9900 313.0000 1.0000
55.0000 301.0000 1.0000
55.0100 286.0000 1.0000
55.0200 280.0000 1.0000
55.0300 299.0000 1.0000
55.0400 287.0000 1.0000
55.0500 325.0000 1.0000
55.0600 311.0000 1.0000
55.0700 300.0000 1.0000
55.0800 299.0000 1.0000
55.0900 271.0000 1.0000
55.1000 297.0000 1.0000
55.1100 303.0000 1.0000
55.1200 296.0000 1.0000
55.1300 312.0000 1.0000
55.1400 304.0000 1.0000
55.1500 281.0000 1.0000
55.1600 278.0000 1.0000
55.1700 288.0000 1.0000
55.1800 284.0000 1.0000
55.1900 267.0000 1.0000
55.2000 299.0000 1.0000
55.2100 293.0000 1.0000
55.2200 289.0000 1.0000
55.2300 301.0000 1.0000
55.2400 293.0000 1.0000
55.2500 283.0000 1.0000
55.2600 294.0000 1.0000
55.2700 265.0000 1.0000
55.2800 274.0000 1.0000
55.2900 271.0000 1.0000
55.3000 285.0000 1.0000
55.3100 285.0000 1.0000
55.3200 302.0000 1.0000
55.3300 291.0000 1.0000
55.3400 283.0000 1.0000
55.3500 272.0000 1.0000
55.3600 303.0000 1.0000
55.3700 305.0000 1.0000
55.3800 286.0000 1.0000
55.3900 276.0000 1.0000
55.4000 292.0000 1.0000
55.4100 261.0000 1.0000
55.4200 277.0000 1.0000
55.4300 276.0000 1.0000
55.4400 264.0000 1.0000
55.4500 281.0000 1.0000
55.4600 283.0000 1.0000
55.4700 285.0000 1.0000
55.4800 282.0000 1.0000
55.4900 250.0000 1.0000
55.5000 299.0000 1.0000
55.5100 274.0000 1.0000
55.5200 271.0000 1.0000
55.5300 275.0000 1.0000
55.5400 271.0000 1.0000
55.5500 286.0000 1.0000
55.5600 294.0000 1.0000
55.5700 292.0000 1.0000
55.5800 297.0000 1.0000
55.5900 297.0000 1.0000
55.6000 287.0000 1.0000
55.6100 286.0000 1.0000
55.6200 267.0000 1.0000
55.6300 297.0000 1.0000
55.6400 265.0000 1.0000
55.6500 257.0000 1.0000
55.6600 282.0000 1.0000
55.6700 271.0000 1.0000
55.6800 275.0000 1.0000
55.6900 257.0000 1.0000
55.7000 290.0000 1.0000
55.7100 299.0000 1.0000
55.7200 267.0000 1.0000
55.7300 275.0000 1.0000
55.7400 260.0000 1.0000
55.7500 267.0000 1.0000
55.7600 297.0000 1.0000
55.7700 276.0000 1.0000
55.7800 283.0000 1.0000
55.7900 295.0000 1.0000
55.8000 281.0000 1.0000
55.8100 298.0000 1.0000
55.8200 264.0000 1.0000
55.8300 267.0000 1.0000
55.8400 298.0000 1.0000
55.8500 269.0000 1.0000
55.8600 280.0000 1.0000
55.8700 264.0000 1.0000
55.8800 264.0000 1.0000
55.8900 269.0000 1.0000
55.9000 269.0000 1.0000
55.9100 286.0000 1.0000
55.9200 294.0000 1.0000
55.9300 266.0000 1.0000
55.9400 271.0000 1.0000
55.9500 268.0000 1.0000
55.9600 276.0000 1.0000
55.9700 276.0000 1.0000
55.9800 266.0000 1.0000
55.9900 286.0000 1.0000
56.0000 301.0000 1.0000
56.0100 282.0000 1.0000
56.0200 297.0000 1.0000
56.0300 255.0000 1.0000
56.0400 269.0000 1.0000
56.0500 274.0000 1.0000
56.0600 262.0000 1.0000
56.0700 265.0000 1.0000
56.0800 292.0000 1.0000
56.0900 266.0000 1.0000
56.1000 276.0000 1.0000
56.1100 266.0000 1.0000
56.1200 265.0000 1.0000
56.1300 262.0000 1.0000
56.1400 267.0000 1.0000
56.1500 248.0000 1.0000
56.1600 277.0000 1.0000
56.1700 271.0000 1.0000
56.1800 289.0000 1.0000
56.1900 282.0000 1.0000
56.2000 292.0000 1.0000
56.2100 262.0000 1.0000
56.2200 267.0000 1.0000
56.2300 275.0000 1.0000
56.2400 268.0000 1.0000
56.2500 285.0000 1.0000
56.2600 311.0000 1.0000
56.2700 274.0000 1.0000
56.2800 286.0000 1.0000
56.2900 294.0000 1.0000
56.3000 257.0000 1.0000
56.3100 291.0000 1.0000
56.3200 267.0000 1.0000
56.3300 273.0000 1.0000
56.3400 297.0000 1.0000
56.3500 281.0000 1.0000
56.3600 266.0000 1.0000
56.3700 300.0000 1.0000
56.3800 301.0000 1.0000
56.3900 263.0000 1.0000
56.4000 277.0000 1.0000
56.4100 239.0000 1.0000
56.4200 273.0000 1.0000
56.4300 267.0000 1.0000
56.4400 289.0000 1.0000
56.4500 301.0000 1.0000
56.4600 273.0000 1.0000
56.4700 269.0000 1.0000
56.4800 278.0000 1.0000
56.4900 295.0000 1.0000
56.5000 284.0000 1.0000
56.5100 296.0000 1.0000
56.5200 267.0000 1.0000
56.5300 282.0000 1.0000
56.5400 300.0000 1.0000
56.5500 279.0000 1.0000
56.5600 277.0000 1.0000
56.5700 294.0000 1.0000
56.5800 292.0000 1.0000
56.5900 278.0000 1.0000
56.6000 268.0000 1.0000
56.6100 301.0000 1.0000
56.6200 289.0000 1.0000
56.6300 262.0000 1.0000
56.6400 274.0000 1.0000
56.6500 272.0000 1.0000
56.6600 279.0000 1.0000
56.6700 281.0000 1.0000
56.6800 276.0000 1.0000
56.6900 275.0000 1.0000
56.7000 291.0000 1.0000
56.7100 304.0000 1.0000
56.7200 273.0000 1.0000
56.7300 274.0000 1.0000
56.7400 280.0000 1.0000
56.7500 269.0000 1.0000
56.7600 271.0000 1.0000
56.7700 278.0000 1.0000
56.7800 267.0000 1.0000
56.7900 292.0000 1.0000
56.8000 287.0000 1.0000
56.8100 260.0000 1.0000
56.8200 280.0000 1.0000
56.8300 265.0000 1.0000
56.8400 286.0000 1.0000
56.8500 286.0000 1.0000
56.8600 283.0000 1.0000
56.8700 254.0000 1.0000
56.8800 270.0000 1.0000
56.8900 272.0000 1.0000
56.9000 275.0000 1.0000
56.9100 302.0000 1.0000
56.9200 289.0000 1.0000
56.9300 256.0000 1.0000
56.9400 280.0000 1.0000
56.9500 280.0000 1.0000
56.9600 306.0000 1.0000
56.9700 286.0000 1.0000
56.9800 283.0000 1.0000
56.9900 275.0000 1.0000
57.0000 268.0000 1.0000
57.0100 266.0000 1.0000
57.0200 272.0000 1.0000
57.0300 268.0000 1.0000
57.0400 288.0000 1.0000
57.0500 287.0000 1.0000
57.0600 273.0000 1.0000
57.0700 231.0000 1.0000
57.0800 272.0000 1.0000
57.0900 263.0000 1.0000
57.1000 254.0000 1.0000
57.1100 277.0000 1.0000
57.1200 242.0000 1.0000
57.1300 262.0000 1.0000
57.1400 289.0000 1.0000
57.1500 279.0000 1.0000
57.1600 283.0000 1.0000
57.1700 295.0000 1.0000
57.1800 269.0000 1.0000
57.1900 272.0000 1.0000
57.2000 277.0000 1.0000
57.2100 257.0000 1.0000
57.2200 289.0000 1.0000
57.2300 287.0000 1.0000
57.2400 301.0000 1.0000
57.2500 269.0000 1.0000
57.2600 269.0000 1.0000
57.2700 280.0000 1.0000
57.2800 273.0000 1.0000
57.2900 297.0000 1.0000
57.3000 266.0000 1.0000
57.3100 247.0000 1.0000
57.3200 269.0000 1.0000
57.3300 293.0000 1.0000
57.3400 291.0000 1.0000
57.3500 290.0000 1.0000
57.3600 296.0000 1.0000
57.3700 265.0000 1.0000
57.3800 257.0000 1.0000
57.3900 267.0000 1.0000
57.4000 293.0000 1.0000
57.4100 258.0000 1.0000
57.4200 283.0000 1.0000
57.4300 281.0000 1.0000
57.4400 278.0000 1.0000
57.4500 316.0000 1.0000
57.4600 274.0000 1.0000
57.4700 266.0000 1.0000
57.4800 284.0000 1.0000
57.4900 288.0000 1.0000
57.5000 293.0000 1.0000
57.5100 278.0000 1.0000
57.5200 285.0000 1.0000
57.5300 294.0000 1.0000
57.5400 281.0000 1.0000
57.5500 307.0000 1.0000
57.5600 309.0000 1.0000
57.5700 289.0000 1.0000
57.5800 307.0000 1.0000
57.5900 277.0000 1.0000
57.6000 283.0000 1.0000
57.6100 284.0000 1.0000
57.6200 279.0000 1.0000
57.6300 288.0000 1.0000
57.6400 261.0000 1.0000
57.6500 286.0000 1.0000
57.6600 287.0000 1.0000
57.6700 287.0000 1.0000
57.6800 299.0000 1.0000
57.6900 273.0000 1.0000
57.7000 272.0000 1.0000
57.7100 267.0000 1.0000
57.7200 282.0000 1.0000
57.7300 264.0000 1.0000
57.7400 299.0000 1.0000
57.7500 251.0000 1.0000
57.7600 263.0000 1.0000
57.7700 276.0000 1.0000
57.7800 281.0000 1.0000
57.7900 270.0000 1.0000
57.8000 260.0000 1.0000
57.8100 300.0000 1.0000
57.8200 295.0000 1.0000
57.8300 282.0000 1.0000
57.8400 294.0000 1.0000
57.8500 278.0000 1.0000
57.8600 267.0000 1.0000
57.8700 288.0000 1.0000
57.8800 275.0000 1.0000
57.8900 282.0000 1.0000
57.9000 271.0000 1.0000
57.9100 277.0000 1.0000
57.9200 283.0000 1.0000
57.9300 271.0000 1.0000
57.9400 289.0000 1.0000
57.9500 257.0000 1.0000
57.9600 258.0000 1.0000
57.9700 277.0000 1.0000
57.9800 259.0000 1.0000
57.9900 273.0000 1.0000
58.0000 275.0000 1.0000
58.0100 268.0000 1.0000
58.0200 317.0000 1.0000
58.0300 279.0000 1.0000
58.0400 286.0000 1.0000
58.0500 292.0000 1.0000
58.0600 283.0000 1.0000
58.0700 252.0000 1.0000
58.0800 283.0000 1.0000
58.0900 276.0000 1.0000
58.1000 267.0000 1.0000
58.1100 277.0000 1.0000
58.1200 261.0000 1.0000
58.1300 277.0000 1.0000
58.1400 267.0000 1.0000
58.1500 269.0000 1.0000
58.1600 282.0000 1.0000
58.1700 283.0000 1.0000
58.1800 262.0000 1.0000
58.1900 268.0000 1.0000
58.2000 275.0000 1.0000
58.2100 273.0000 1.0000
58.2200 308.0000 1.0000
58.2300 272.0000 1.0000
58.2400 259.0000 1.0000
58.2500 284.0000 1.0000
58.2600 285.0000 1.0000
58.2700 279.0000 1.0000
58.2800 241.0000 1.0000
58.2900 254.0000 1.0000
58.3000 278.0000 1.0000
58.3100 265.0000 1.0000
58.3200 307.0000 1.0000
58.3300 284.0000 1.0000
58.3400 287.0000 1.0000
58.3500 282.0000 1.0000
58.3600 282.0000 1.0000
58.3700 273.0000 1.0000
58.3800 268.0000 1.0000
58.3900 249.0000 1.0000
58.4000 244.0000 1.0000
58.4100 253.0000 1.0000
58.4200 286.0000 1.0000
58.4300 258.0000 1.0000
58.4400 272.0000 1.0000
58.4500 251.0000 1.0000
58.4600 276.0000 1.0000
58.4700 267.0000 1.0000
58.4800 276.0000 1.0000
58.4900 271.0000 1.0000
58.5000 297.0000 1.0000
58.5100 284.0000 1.0000
58.5200 302.0000 1.0000
58.5300 271.0000 1.0000
58.5400 263.0000 1.0000
58.5500 285.0000 1.0000
58.5600 297.0000 1.0000
58.5700 274.0000 1.0000
58.5800 260.0000 1.0000
58.5900 300.0000 1.0000
58.6000 250.0000 1.0000
58.6100 278.0000 1.0000
58.6200 306.0000 1.0000
58.6300 279.0000 1.0000
58.6400 272.0000 1.0000
58.6500 266.0000 1.0000
58.6600 262.0000 1.0000
58.6700 276.0000 1.0000
58.6800 277.0000 1.0000
58.6900 271.0000 1.0000
58.7000 259.0000 1.0000
58.7100 247.0000 1.0000
58.7200 271.0000 1.0000
58.7300 295.0000 1.0000
58.7400 288.0000 1.0000
58.7500 286.0000 1.0000
58.7600 274.0000 1.0000
58.7700 288.0000 1.0000
58.7800 275.0000 1.0000
58.7900 259.0000 1.0000
58.8000 270.0000 1.0000
58.8100 252.0000 1.0000
58.8200 283.0000 1.0000
58.8300 270.0000 1.0000
58.8400 271.0000 1.0000
58.8500 256.0000 1.0000
58.8600 276.0000 1.0000
58.8700 271.0000 1.0000
58.8800 287.0000 1.0000
58.8900 283.0000 1.0000
58.9000 284.0000 1.0000
58.9100 279.0000 1.0000
58.9200 266.0000 1.0000
58.9300 249.0000 1.0000
58.9400 262.0000 1.0000
58.9500 287.0000 1.0000
58.9600 279.0000 1.0000
58.9700 274.0000 1.0000
58.9800 273.0000 1.0000
58.9900 251.0000 1.0000
59.0000 269.0000 1.0000
59.0100 270.0000 1.0000
59.0200 293.0000 1.0000
59.0300 279.0000 1.0000
59.0400 279.0000 1.0000
59.0500 276.0000 1.0000
59.0600 287.0000 1.0000
59.0700 266.0000 1.0000
59.0800 267.0000 1.0000
59.0900 291.0000 1.0000
59.1000 309.0000 1.0000
59.1100 279.0000 1.0000
59.1200 268.0000 1.0000
59.1300 273.0000 1.0000
59.1400 262.0000 1.0000
59.1500 288.0000 1.0000
59.1600 304.0000 1.0000
59.1700 312.0000 1.0000
59.1800 299.0000 1.0000
59.1900 277.0000 1.0000
59.2000 264.0000 1.0000
59.2100 277.0000 1.0000
59.2200 293.0000 1.0000
59.2300 278.0000 1.0000
59.2400 270.0000 1.0000
59.2500 259.0000 1.0000
59.2600 271.0000 1.0000
59.2700 304.0000 1.0000
59.2800 272.0000 1.0000
59.2900 279.0000 1.0000
59.3000 273.0000 1.0000
59.3100 263.0000 1.0000
59.3200 272.0000 1.0000
59.3300 277.0000 1.0000
59.3400 248.0000 1.0000
59.3500 286.0000 1.0000
59.3600 308.0000 1.0000
59.3700 262.0000 1.0000
59.3800 292.0000 1.0000
59.3900 270.0000 1.0000
59.4000 282.0000 1.0000
59.4100 279.0000 1.0000
59.4200 296.0000 1.0000
59.4300 254.0000 1.0000
59.4400 255.0000 1.0000
59.4500 239.0000 1.0000
59.4600 282.0000 1.0000
59.4700 271.0000 1.0000
59.4800 278.0000 1.0000
59.4900 263.0000 1.0000
59.5000 301.0000 1.0000
59.5100 258.0000 1.0000
59.5200 251.0000 1.0000
59.5300 283.0000 1.0000
59.5400 285.0000 1.0000
59.5500 262.0000 1.0000
59.5600 255.0000 1.0000
59.5700 258.0000 1.0000
59.5800 282.0000 1.0000
59.5900 269.0000 1.0000
59.6000 264.0000 1.0000
59.6100 256.0000 1.0000
59.6200 266.0000 1.0000
59.6300 286.0000 1.0000
59.6400 276.0000 1.0000
59.6500 288.0000 1.0000
59.6600 279.0000 1.0000
59.6700 269.0000 1.0000
59.6800 275.0000 1.0000
59.6900 287.0000 1.0000
59.7000 306.0000 1.0000
59.7100 287.0000 1.0000
59.7200 264.0000 1.0000
59.7300 272.0000 1.0000
59.7400 223.0000 1.0000
59.7500 248.0000 1.0000
59.7600 263.0000 1.0000
59.7700 267.0000 1.0000
59.7800 250.0000 1.0000
59.7900 280.0000 1.0000
59.8000 255.0000 1.0000
59.8100 269.0000 1.0000
59.8200 255.0000 1.0000
59.8300 301.0000 1.0000
59.8400 280.0000 1.0000
59.8500 274.0000 1.0000
59.8600 264.0000 1.0000
59.8700 271.0000 1.0000
59.8800 256.0000 1.0000
59.8900 225.0000 1.0000
59.9000 281.0000 1.0000
59.9100 257.0000 1.0000
59.9200 266.0000 1.0000
59.9300 271.0000 1.0000
59.9400 295.0000 1.0000
59.9500 274.0000 1.0000
59.9600 267.0000 1.0000
59.9700 262.0000 1.0000
59.9800 254.0000 1.0000
59.9900 273.0000 1.0000
60.0000 263.0000 1.0000
60.0100 250.0000 1.0000
60.0200 262.0000 1.0000
60.0300 282.0000 1.0000
60.0400 290.0000 1.0000
60.0500 254.0000 1.0000
60.0600 259.0000 1.0000
60.0700 254.0000 1.0000
60.0800 272.0000 1.0000
60.0900 266.0000 1.0000
60.1000 275.0000 1.0000
60.1100 273.0000 1.0000
60.1200 245.0000 1.0000
60.1300 281.0000 1.0000
60.1400 272.0000 1.0000
60.1500 304.0000 1.0000
60.1600 299.0000 1.0000
60.1700 297.0000 1.0000
60.1800 280.0000 1.0000
60.1900 280.0000 1.0000
60.2000 288.0000 1.0000
60.2100 259.0000 1.0000
60.2200 249.0000 1.0000
60.2300 275.0000 1.0000
60.2400 281.0000 1.0000
60.2500 278.0000 1.0000
60.2600 286.0000 1.0000
60.2700 290.0000 1.0000
60.2800 275.0000 1.0000
60.2900 283.0000 1.0000
60.3000 262.0000 1.0000
60.3100 285.0000 1.0000
60.3200 275.0000 1.0000
60.3300 280.0000 1.0000
60.3400 265.0000 1.0000
60.3500 293.0000 1.0000
60.3600 297.0000 1.0000
60.3700 279.0000 1.0000
60.3800 307.0000 1.0000
60.3900 266.0000 1.0000
60.4000 280.0000 1.0000
60.4100 258.0000 1.0000
60.4200 293.0000 1.0000
60.4300 274.0000 1.0000
60.4400 259.0000 1.0000
60.4500 280.0000 1.0000
60.4600 272.0000 1.0000
60.4700 266.0000 1.0000
60.4800 267.0000 1.0000
60.4900 276.0000 1.0000
60.5000 287.0000 1.0000
60.5100 284.0000 1.0000
60.5200 279.0000 1.0000
60.5300 274.0000 1.0000
60.5400 238.0000 1.0000
60.5500 266.0000 1.0000
60.5600 293.0000 1.0000
60.5700 235.0000 1.0000
60.5800 273.0000 1.0000
60.5900 259.0000 1.0000
60.6000 288.0000 1.0000
60.6100 291.0000 1.0000
60.6200 280.0000 1.0000
60.6300 275.0000 1.0000
60.6400 279.0000 1.0000
60.6500 265.0000 1.0000
60.6600 269.0000 1.0000
60.6700 256.0000 1.0000
60.6800 287.0000 1.0000
60.6900 270.0000 1.0000
60.7000 291.0000 1.0000
60.7100 264.0000 1.0000
60.7200 268.0000 1.0000
60.7300 260.0000 1.0000
60.7400 269.0000 1.0000
60.7500 260.0000 1.0000
60.7600 285.0000 1.0000
60.7700 292.0000 1.0000
60.7800 276.0000 1.0000
60.7900 267.0000 1.0000
60.8000 270.0000 1.0000
60.8100 277.0000 1.0000
60.8200 262.0000 1.0000
60.8300 276.0000 1.0000
60.8400 284.0000 1.0000
60.8500 260.0000 1.0000
60.8600 284.0000 1.0000
60.8700 288.0000 1.0000
60.8800 290.0000 1.0000
60.8900 254.0000 1.0000
60.9000 267.0000 1.0000
60.9100 278.0000 1.0000
60.9200 291.0000 1.0000
60.9300 280.0000 1.0000
60.9400 285.0000 1.0000
60.9500 302.0000 1.0000
60.9600 292.0000 1.0000
60.9700 324.0000 1.0000
60.9800 295.0000 1.0000
60.9900 296.0000 1.0000
61.0000 303.0000 1.0000
61.0100 282.0000 1.0000
61.0200 300.0000 1.0000
61.0300 274.0000 1.0000
61.0400 275.0000 1.0000
61.0500 275.0000 1.0000
61.0600 298.0000 1.0000
61.0700 332.0000 1.0000
61.0800 292.0000 1.0000
61.0900 292.0000 1.0000
61.1000 328.0000 1.0000
61.1100 329.0000 1.0000
61.1200 325.0000 1.0000
61.1300 310.0000 1.0000
61.1400 277.0000 1.0000
61.1500 300.0000 1.0000
61.1600 297.0000 1.0000
61.1700 282.0000 1.0000
61.1800 319.0000 1.0000
61.1900 307.0000 1.0000
61.2000 325.0000 1.0000
61.2100 346.0000 1.0000
61.2200 333.0000 1.0000
61.2300 364.0000 1.0000
61.2400 330.0000 1.0000
61.2500 354.0000 1.0000
61.2600 379.0000 1.0000
61.2700 377.0000 1.0000
61.2800 357.0000 1.0000
61.2900 351.0000 1.0000
61.3000 356.0000 1.0000
61.3100 357.0000 1.0000
61.3200 400.0000 1.0000
61.3300 415.0000 1.0000
61.3400 413.0000 1.0000
61.3500 429.0000 1.0000
61.3600 424.0000 1.0000
61.3700 454.0000 1.0000
61.3800 438.0000 1.0000
61.3900 463.0000 1.0000
61.4000 483.0000 1.0000
61.4100 484.0000 1.0000
61.4200 454.0000 1.0000
61.4300 489.0000 1.0000
61.4400 495.0000 1.0000
61.4500 537.0000 1.0000
61.4600 504.0000 1.0000
61.4700 541.0000 1.0000
61.4800 544.0000 1.0000
61.4900 542.0000 1.0000
61.5000 592.0000 1.0000
61.5100 530.0000 1.0000
61.5200 553.0000 1.0000
61.5300 592.0000 1.0000
61.5400 566.0000 1.0000
61.5500 576.0000 1.0000
61.5600 576.0000 1.0000
61.5700 618.0000 1.0000
61.5800 590.0000 1.0000
61.5900 588.0000 1.0000
61.6000 581.0000 1.0000
61.6100 571.0000 1.0000
61.6200 587.0000 1.0000
61.6300 569.0000 1.0000
61.6400 565.0000 1.0000
61.6500 532.0000 1.0000
61.6600 541.0000 1.0000
61.6700 583.0000 1.0000
61.6800 524.0000 1.0000
61.6900 545.0000 1.0000
61.7000 505.0000 1.0000
61.7100 516.0000 1.0000
61.7200 510.0000 1.0000
61.7300 494.0000 1.0000
61.7400 504.0000 1.0000
61.7500 481.0000 1.0000
61.7600 514.0000 1.0000
61.7700 456.0000 1.0000
61.7800 453.0000 1.0000
61.7900 442.0000 1.0000
61.8000 442.0000 1.0000
61.8100 426.0000 1.0000
61.8200 453.0000 1.0000
61.8300 422.0000 1.0000
61.8400 419.0000 1.0000
61.8500 373.0000 1.0000
61.8600 398.0000 1.0000
61.8700 377.0000 1.0000
61.8800 373.0000 1.0000
61.8900 378.0000 1.0000
61.9000 343.0000 1.0000
61.9100 370.0000 1.0000
61.9200 358.0000 1.0000
61.9300 348.0000 1.0000
61.9400 315.0000 1.0000
61.9500 320.0000 1.0000
61.9600 349.0000 1.0000
61.9700 324.0000 1.0000
61.9800 351.0000 1.0000
61.9900 339.0000 1.0000
62.0000 332.0000 1.0000
62.0100 342.0000 1.0000
62.0200 333.0000 1.0000
62.0300 316.0000 1.0000
62.0400 297.0000 1.0000
62.0500 336.0000 1.0000
62.0600 320.0000 1.0000
62.0700 324.0000 1.0000
62.0800 301.0000 1.0000
62.0900 287.0000 1.0000
62.1000 309.0000 1.0000
62.1100 298.0000 1.0000
62.1200 320.0000 1.0000
62.1300 293.0000 1.0000
62.1400 317.0000 1.0000
62.1500 299.0000 1.0000
62.1600 315.0000 1.0000
62.1700 288.0000 1.0000
62.1800 302.0000 1.0000
62.1900 293.0000 1.0000
62.2000 305.0000 1.0000
62.2100 289.0000 1.0000
62.2200 300.0000 1.0000
62.2300 292.0000 1.0000
62.2400 302.0000 1.0000
62.2500 310.0000 1.0000
62.2600 289.0000 1.0000
62.2700 270.0000 1.0000
62.2800 311.0000 1.0000
62.2900 317.0000 1.0000
62.3000 309.0000 1.0000
62.3100 292.0000 1.0000
62.3200 343.0000 1.0000
62.3300 308.0000 1.0000
62.3400 293.0000 1.0000
62.3500 315.0000 1.0000
62.3600 318.0000 1.0000
62.3700 324.0000 1.0000
62.3800 305.0000 1.0000
62.3900 298.0000 1.0000
62.4000 299.0000 1.0000
62.4100 313.0000 1.0000
62.4200 308.0000 1.0000
62.4300 315.0000 1.0000
62.4400 315.0000 1.0000
62.4500 334.0000 1.0000
62.4600 306.0000 1.0000
62.4700 307.0000 1.0000
62.4800 300.0000 1.0000
62.4900 289.0000 1.0000
62.5000 276.0000 1.0000
62.5100 267.0000 1.0000
62.5200 289.0000 1.0000
62.5300 297.0000 1.0000
62.5400 315.0000 1.0000
62.5500 316.0000 1.0000
62.5600 287.0000 1.0000
62.5700 292.0000 1.0000
62.5800 291.0000 1.0000
62.5900 316.0000 1.0000
62.6000 291.0000 1.0000
62.6100 265.0000 1.0000
62.6200 289.0000 1.0000
62.6300 293.0000 1.0000
62.6400 299.0000 1.0000
62.6500 264.0000 1.0000
62.6600 259.0000 1.0000
62.6700 282.0000 1.0000
62.6800 260.0000 1.0000
62.6900 267.0000 1.0000
62.7000 269.0000 1.0000
62.7100 277.0000 1.0000
62.7200 257.0000 1.0000
62.7300 273.0000 1.0000
62.7400 259.0000 1.0000
62.7500 282.0000 1.0000
62.7600 292.0000 1.0000
62.7700 263.0000 1.0000
62.7800 249.0000 1.0000
62.7900 251.0000 1.0000
62.8000 248.0000 1.0000
62.8100 262.0000 1.0000
62.8200 266.0000 1.0000
62.8300 270.0000 1.0000
62.8400 313.0000 1.0000
62.8500 282.0000 1.0000
62.8600 271.0000 1.0000
62.8700 273.0000 1.0000
62.8800 254.0000 1.0000
62.8900 266.0000 1.0000
62.9000 281.0000 1.0000
62.9100 280.0000 1.0000
62.9200 308.0000 1.0000
62.9300 271.0000 1.0000
62.9400 287.0000 1.0000
62.9500 263.0000 1.0000
62.9600 301.0000 1.0000
62.9700 297.0000 1.0000
62.9800 252.0000 1.0000
62.9900 268.0000 1.0000
63.0000 250.0000 1.0000
63.0100 267.0000 1.0000
63.0200 288.0000 1.0000
63.0300 286.0000 1.0000
63.0400 264.0000 1.0000
63.0500 276.0000 1.0000
63.0600 268.0000 1.0000
63.0700 280.0000 1.0000
63.0800 287.0000 1.0000
63.0900 259.0000 1.0000
63.1000 272.0000 1.0000
63.1100 276.0000 1.0000
63.1200 263.0000 1.0000
63.1300 309.0000 1.0000
63.1400 266.0000 1.0000
63.1500 278.0000 1.0000
63.1600 273.0000 1.0000
63.1700 282.0000 1.0000
63.1800 265.0000 1.0000
63.1900 254.0000 1.0000
63.2000 277.0000 1.0000
63.2100 287.0000 1.0000
63.2200 279.0000 1.0000
63.2300 280.0000 1.0000
63.2400 262.0000 1.0000
63.2500 255.0000 1.0000
63.2600 273.0000 1.0000
63.2700 314.0000 1.0000
63.2800 291.0000 1.0000
63.2900 299.0000 1.0000
63.3000 269.0000 1.0000
63.3100 272.0000 1.0000
63.3200 278.0000 1.0000
63.3300 306.0000 1.0000
63.3400 267.0000 1.0000
63.3500 274.0000 1.0000
63.3600 266.0000 1.0000
63.3700 267.0000 1.0000
63.3800 247.0000 1.0000
63.3900 270.0000 1.0000
63.4000 260.0000 1.0000
63.4100 275.0000 1.0000
63.4200 295.0000 1.0000
63.4300 265.0000 1.0000
63.4400 271.0000 1.0000
63.4500 241.0000 1.0000
63.4600 248.0000 1.0000
63.4700 248.0000 1.0000
63.4800 270.0000 1.0000
63.4900 252.0000 1.0000
63.5000 270.0000 1.0000
63.5100 252.0000 1.0000
63.5200 259.0000 1.0000
63.5300 271.0000 1.0000
63.5400 291.0000 1.0000
63.5500 284.0000 1.0000
63.5600 297.0000 1.0000
63.5700 263.0000 1.0000
63.5800 258.0000 1.0000
63.5900 281.0000 1.0000
63.6000 256.0000 1.0000
63.6100 278.0000 1.0000
63.6200 287.0000 1.0000
63.6300 306.0000 1.0000
63.6400 300.0000 1.0000
63.6500 310.0000 1.0000
63.6600 287.0000 1.0000
63.6700 275.0000 1.0000
63.6800 302.0000 1.0000
63.6900 290.0000 1.0000
63.7000 270.0000 1.0000
63.7100 302.0000 1.0000
63.7200 309.0000 1.0000
63.7300 301.0000 1.0000
63.7400 266.0000 1.0000
63.7500 332.0000 1.0000
63.7600 330.0000 1.0000
63.7700 320.0000 1.0000
63.7800 288.0000 1.0000
63.7900 318.0000 1.0000
63.8000 303.0000 1.0000
63.8100 327.0000 1.0000
63.8200 357.0000 1.0000
63.8300 322.0000 1.0000
63.8400 341.0000 1.0000
63.8500 365.0000 1.0000
63.8600 340.0000 1.0000
63.8700 394.0000 1.0000
63.8800 378.0000 1.0000
63.8900 380.0000 1.0000
63.9000 390.0000 1.0000
63.9100 393.0000 1.0000
63.9200 423.0000 1.0000
63.9300 446.0000 1.0000
63.9400 448.0000 1.0000
63.9500 494.0000 1.0000
63.9600 447.0000 1.0000
63.9700 422.0000 1.0000
63.9800 423.0000 1.0000
63.9900 456.0000 1.0000
64.0000 422.0000 1.0000
64.0100 412.0000 1.0000
64.0200 401.0000 1.0000
64.0300 398.0000 1.0000
64.0400 390.0000 1.0000
64.0500 364.0000 1.0000
64.0600 348.0000 1.0000
64.0700 362.0000 1.0000
64.0800 385.0000 1.0000
64.0900 397.0000 1.0000
64.1000 378.0000 1.0000
64.1100 404.0000 1.0000
64.1200 374.0000 1.0000
64.1300 367.0000 1.0000
64.1400 385.0000 1.0000
64.1500 370.0000 1.0000
64.1600 373.0000 1.0000
64.1700 377.0000 1.0000
64.1800 370.0000 1.0000
64.1900 312.0000 1.0000
64.2000 318.0000 1.0000
64.2100 324.0000 1.0000
64.2200 302.0000 1.0000
64.2300 299.0000 1.0000
64.2400 304.0000 1.0000
64.2500 295.0000 1.0000
64.2600 295.0000 1.0000
64.2700 306.0000 1.0000
64.2800 321.0000 1.0000
64.2900 290.0000 1.0000
64.3000 305.0000 1.0000
64.3100 292.0000 1.0000
64.3200 309.0000 1.0000
64.3300 278.0000 1.0000
64.3400 279.0000 1.0000
64.3500 292.0000 1.0000
64.3600 274.0000 1.0000
64.3700 286.0000 1.0000
64.3800 279.0000 1.0000
64.3900 263.0000 1.0000
64.4000 311.0000 1.0000
64.4100 280.0000 1.0000
64.4200 310.0000 1.0000
64.4300 280.0000 1.0000
64.4400 298.0000 1.0000
64.4500 290.0000 1.0000
64.4600 278.0000 1.0000
64.4700 282.0000 1.0000
64.4800 283.0000 1.0000
64.4900 282.0000 1.0000
64.5000 281.0000 1.0000
64.5100 272.0000 1.0000
64.5200 289.0000 1.0000
64.5300 298.0000 1.0000
64.5400 279.0000 1.0000
64.5500 267.0000 1.0000
64.5600 307.0000 1.0000
64.5700 299.0000 1.0000
64.5800 281.0000 1.0000
64.5900 270.0000 1.0000
64.6000 282.0000 1.0000
64.6100 294.0000 1.0000
64.6200 286.0000 1.0000
64.6300 265.0000 1.0000
64.6400 289.0000 1.0000
64.6500 291.0000 1.0000
64.6600 291.0000 1.0000
64.6700 285.0000 1.0000
64.6800 296.0000 1.0000
64.6900 293.0000 1.0000
64.7000 285.0000 1.0000
64.7100 280.0000 1.0000
64.7200 247.0000 1.0000
64.7300 273.0000 1.0000
64.7400 243.0000 1.0000
64.7500 273.0000 1.0000
64.7600 294.0000 1.0000
64.7700 293.0000 1.0000
64.7800 281.0000 1.0000
64.7900 270.0000 1.0000
64.8000 306.0000 1.0000
64.8100 285.0000 1.0000
64.8200 296.0000 1.0000
64.8300 291.0000 1.0000
64.8400 286.0000 1.0000
64.8500 260.0000 1.0000
64.8600 284.0000 1.0000
64.8700 287.0000 1.0000
64.8800 266.0000 1.0000
64.8900 306.0000 1.0000
64.9000 288.0000 1.0000
64.9100 296.0000 1.0000
64.9200 299.0000 1.0000
64.9300 298.0000 1.0000
64.9400 280.0000 1.0000
64.9500 292.0000 1.0000
64.9600 292.0000 1.0000
64.9700 290.0000 1.0000
64.9800 306.0000 1.0000
64.9900 311.0000 1.0000
65.0000 302.0000 1.0000
65.0100 299.0000 1.0000
65.0200 315.0000 1.0000
65.0300 291.0000 1.0000
65.0400 276.0000 1.0000
65.0500 272.0000 1.0000
65.0600 284.0000 1.0000
65.0700 307.0000 1.0000
65.0800 311.0000 1.0000
65.0900 319.0000 1.0000
65.1000 315.0000 1.0000
65.1100 293.0000 1.0000
65.1200 308.0000 1.0000
65.1300 316.0000 1.0000
65.1400 318.0000 1.0000
65.1500 306.0000 1.0000
65.1600 343.0000 1.0000
65.1700 332.0000 1.0000
65.1800 325.0000 1.0000
65.1900 347.0000 1.0000
65.2000 349.0000 1.0000
65.2100 385.0000 1.0000
65.2200 390.0000 1.0000
65.2300 384.0000 1.0000
65.2400 362.0000 1.0000
65.2500 390.0000 1.0000
65.2600 380.0000 1.0000
65.2700 385.0000 1.0000
65.2800 409.0000 1.0000
65.2900 434.0000 1.0000
65.3000 433.0000 1.0000
65.3100 428.0000 1.0000
65.3200 470.0000 1.0000
65.3300 475.0000 1.0000
65.3400 467.0000 1.0000
65.3500 510.0000 1.0000
65.3600 517.0000 1.0000
65.3700 536.0000 1.0000
65.3800 566.0000 1.0000
65.3900 596.0000 1.0000
65.4000 658.0000 1.0000
65.4100 694.0000 1.0000
65.4200 727.0000 1.0000
65.4300 722.0000 1.0000
65.4400 722.0000 1.0000
65.4500 783.0000 1.0000
65.4600 842.0000 1.0000
65.4700 865.0000 1.0000
65.4800 887.0000 1.0000
65.4900 980.0000 1.0000
65.5000 964.0000 1.0000
65.5100 964.0000 1.0000
65.5200 979.0000 1.0000
65.5300 1027.0000 1.0000
65.5400 998.0000 1.0000
65.5500 1019.0000 1.0000
65.5600 992.0000 1.0000
65.5700 1026.0000 1.0000
65.5800 1018.0000 1.0000
65.5900 958.0000 1.0000
65.6000 962.0000 1.0000
65.6100 938.0000 1.0000
65.6200 938.0000 1.0000
65.6300 953.0000 1.0000
65.6400 915.0000 1.0000
65.6500 876.0000 1.0000
65.6600 833.0000 1.0000
65.6700 904.0000 1.0000
65.6800 815.0000 1.0000
65.6900 783.0000 1.0000
65.7000 806.0000 1.0000
65.7100 825.0000 1.0000
65.7200 759.0000 1.0000
65.7300 767.0000 1.0000
65.7400 780.0000 1.0000
65.7500 729.0000 1.0000
65.7600 683.0000 1.0000
65.7700 664.0000 1.0000
65.7800 646.0000 1.0000
65.7900 644.0000 1.0000
65.8000 580.0000 1.0000
65.8100 594.0000 1.0000
65.8200 599.0000 1.0000
65.8300 512.0000 1.0000
65.8400 521.0000 1.0000
65.8500 489.0000 1.0000
65.8600 465.0000 1.0000
65.8700 460.0000 1.0000
65.8800 468.0000 1.0000
65.8900 448.0000 1.0000
65.9000 437.0000 1.0000
65.9100 427.0000 1.0000
65.9200 377.0000 1.0000
65.9300 357.0000 1.0000
65.9400 366.0000 1.0000
65.9500 377.0000 1.0000
65.9600 403.0000 1.0000
65.9700 363.0000 1.0000
65.9800 382.0000 1.0000
65.9900 342.0000 1.0000
66.0000 368.0000 1.0000
66.0100 334.0000 1.0000
66.0200 323.0000 1.0000
66.0300 310.0000 1.0000
66.0400 351.0000 1.0000
66.0500 327.0000 1.0000
66.0600 334.0000 1.0000
66.0700 303.0000 1.0000
66.0800 301.0000 1.0000
66.0900 297.0000 1.0000
66.1000 298.0000 1.0000
66.1100 305.0000 1.0000
66.1200 305.0000 1.0000
66.1300 270.0000 1.0000
66.1400 305.0000 1.0000
66.1500 298.0000 1.0000
66.1600 283.0000 1.0000
66.1700 305.0000 1.0000
66.1800 310.0000 1.0000
66.1900 271.0000 1.0000
66.2000 303.0000 1.0000
66.2100 298.0000 1.0000
66.2200 289.0000 1.0000
66.2300 273.0000 1.0000
66.2400 293.0000 1.0000
66.2500 282.0000 1.0000
66.2600 274.0000 1.0000
66.2700 268.0000 1.0000
66.2800 293.0000 1.0000
66.2900 306.0000 1.0000
66.3000 294.0000 1.0000
66.3100 293.0000 1.0000
66.3200 273.0000 1.0000
66.3300 259.0000 1.0000
66.3400 286.0000 1.0000
66.3500 288.0000 1.0000
66.3600 278.0000 1.0000
66.3700 282.0000 1.0000
66.3800 276.0000 1.0000
66.3900 285.0000 1.0000
66.4000 280.0000 1.0000
66.4100 286.0000 1.0000
66.4200 250.0000 1.0000
66.4300 267.0000 1.0000
66.4400 259.0000 1.0000
66.4500 250.0000 1.0000
66.4600 254.0000 1.0000
66.4700 259.0000 1.0000
66.4800 275.0000 1.0000
66.4900 295.0000 1.0000
66.5000 292.0000 1.0000
66.5100 265.0000 1.0000
66.5200 260.0000 1.0000
66.5300 267.0000 1.0000
66.5400 276.0000 1.0000
66.5500 243.0000 1.0000
66.5600 269.0000 1.0000
66.5700 278.0000 1.0000
66.5800 256.0000 1.0000
66.5900 232.0000 1.0000
66.6000 253.0000 1.0000
66.6100 286.0000 1.0000
66.6200 271.0000 1.0000
66.6300 269.0000 1.0000
66.6400 262.0000 1.0000
66.6500 249.0000 1.0000
66.6600 233.0000 1.0000
66.6700 253.0000 1.0000
66.6800 264.0000 1.0000
66.6900 249.0000 1.0000
66.7000 256.0000 1.0000
66.7100 291.0000 1.0000
66.7200 268.0000 1.0000
66.7300 248.0000 1.0000
66.7400 282.0000 1.0000
66.7500 271.0000 1.0000
66.7600 260.0000 1.0000
66.7700 269.0000 1.0000
66.7800 278.0000 1.0000
66.7900 264.0000 1.0000
66.8000 233.0000 1.0000
66.8100 248.0000 1.0000
66.8200 268.0000 1.0000
66.8300 270.0000 1.0000
66.8400 242.0000 1.0000
66.8500 262.0000 1.0000
66.8600 246.0000 1.0000
66.8700 270.0000 1.0000
66.8800 273.0000 1.0000
66.8900 271.0000 1.0000
66.9000 271.0000 1.0000
66.9100 262.0000 1.0000
66.9200 255.0000 1.0000
66.9300 272.0000 1.0000
66.9400 268.0000 1.0000
66.9500 246.0000 1.0000
66.9600 252.0000 1.0000
66.9700 254.0000 1.0000
66.9800 258.0000 1.0000
66.9900 273.0000 1.0000
67.0000 273.0000 1.0000
67.0100 269.0000 1.0000
67.0200 276.0000 1.0000
67.0300 256.0000 1.0000
67.0400 251.0000 1.0000
67.0500 276.0000 1.0000
67.0600 235.0000 1.0000
67.0700 254.0000 1.0000
67.0800 267.0000 1.0000
67.0900 232.0000 1.0000
67.1000 234.0000 1.0000
67.1100 258.0000 1.0000
67.1200 243.0000 1.0000
67.1300 228.0000 1.0000
67.1400 255.0000 1.0000
67.1500 250.0000 1.0000
67.1600 219.0000 1.0000
67.1700 243.0000 1.0000
67.1800 229.0000 1.0000
67.1900 240.0000 1.0000
67.2000 254.0000 1.0000
67.2100 260.0000 1.0000
67.2200 254.0000 1.0000
67.2300 257.0000 1.0000
67.2400 246.0000 1.0000
67.2500 243.0000 1.0000
67.2600 261.0000 1.0000
67.2700 265.0000 1.0000
67.2800 248.0000 1.0000
67.2900 237.0000 1.0000
67.3000 279.0000 1.0000
67.3100 246.0000 1.0000
67.3200 253.0000 1.0000
67.3300 259.0000 1.0000
67.3400 251.0000 1.0000
67.3500 236.0000 1.0000
67.3600 248.0000 1.0000
67.3700 246.0000 1.0000
67.3800 249.0000 1.0000
67.3900 219.0000 1.0000
67.4000 255.0000 1.0000
67.4100 242.0000 1.0000
67.4200 252.0000 1.0000
67.4300 249.0000 1.0000
67.4400 248.0000 1.0000
67.4500 240.0000 1.0000
67.4600 285.0000 1.0000
67.4700 270.0000 1.0000
67.4800 268.0000 1.0000
67.4900 256.0000 1.0000
67.5000 229.0000 1.0000
67.5100 270.0000 1.0000
67.5200 241.0000 1.0000
67.5300 241.0000 1.0000
67.5400 249.0000 1.0000
67.5500 232.0000 1.0000
67.5600 256.0000 1.0000
67.5700 247.0000 1.0000
67.5800 244.0000 1.0000
67.5900 227.0000 1.0000
67.6000 227.0000 1.0000
67.6100 249.0000 1.0000
67.6200 273.0000 1.0000
67.6300 263.0000 1.0000
67.6400 261.0000 1.0000
67.6500 232.0000 1.0000
67.6600 239.0000 1.0000
67.6700 257.0000 1.0000
67.6800 253.0000 1.0000
67.6900 235.0000 1.0000
67.7000 241.0000 1.0000
67.7100 243.0000 1.0000
67.7200 248.0000 1.0000
67.7300 269.0000 1.0000
67.7400 253.0000 1.0000
67.7500 245.0000 1.0000
67.7600 236.0000 1.0000
67.7700 237.0000 1.0000
67.7800 240.0000 1.0000
67.7900 242.0000 1.0000
67.8000 241.0000 1.0000
67.8100 252.0000 1.0000
67.8200 284.0000 1.0000
67.8300 259.0000 1.0000
67.8400 229.0000 1.0000
67.8500 253.0000 1.0000
67.8600 256.0000 1.0000
67.8700 263.0000 1.0000
67.8800 242.0000 1.0000
67.8900 235.0000 1.0000
67.9000 237.0000 1.0000
67.9100 234.0000 1.0000
67.9200 236.0000 1.0000
67.9300 255.0000 1.0000
67.9400 225.0000 1.0000
67.9500 241.0000 1.0000
67.9600 238.0000 1.0000
67.9700 257.0000 1.0000
67.9800 249.0000 1.0000
67.9900 235.0000 1.0000
68.0000 244.0000 1.0000
68.0100 249.0000 1.0000
68.0200 225.0000 1.0000
68.0300 213.0000 1.0000
68.0400 244.0000 1.0000
68.0500 224.0000 1.0000
68.0600 234.0000 1.0000
68.0700 235.0000 1.0000
68.0800 246.0000 1.0000
68.0900 229.0000 1.0000
68.1000 266.0000 1.0000
68.1100 275.0000 1.0000
68.1200 245.0000 1.0000
68.1300 260.0000 1.0000
68.1400 241.0000 1.0000
68.1500 245.0000 1.0000
68.1600 229.0000 1.0000
68.1700 237.0000 1.0000
68.1800 226.0000 1.0000
68.1900 259.0000 1.0000
68.2000 255.0000 1.0000
68.2100 235.0000 1.0000
68.2200 223.0000 1.0000
68.2300 228.0000 1.0000
68.2400 226.0000 1.0000
68.2500 219.0000 1.0000
68.2600 230.0000 1.0000
68.2700 240.0000 1.0000
68.2800 233.0000 1.0000
68.2900 242.0000 1.0000
68.3000 260.0000 1.0000
68.3100 227.0000 1.0000
68.3200 232.0000 1.0000
68.3300 249.0000 1.0000
68.3400 229.0000 1.0000
68.3500 246.0000 1.0000
68.3600 254.0000 1.0000
68.3700 239.0000 1.0000
68.3800 261.0000 1.0000
68.3900 255.0000 1.0000
68.4000 219.0000 1.0000
68.4100 247.0000 1.0000
68.4200 226.0000 1.0000
68.4300 240.0000 1.0000
68.4400 247.0000 1.0000
68.4500 238.0000 1.0000
68.4600 225.0000 1.0000
68.4700 233.0000 1.0000
68.4800 247.0000 1.0000
68.4900 250.0000 1.0000
68.5000 238.0000 1.0000
68.5100 238.0000 1.0000
68.5200 224.0000 1.0000
68.5300 234.0000 1.0000
68.5400 259.0000 1.0000
68.5500 235.0000 1.0000
68.5600 236.0000 1.0000
68.5700 245.0000 1.0000
68.5800 257.0000 1.0000
68.5900 233.0000 1.0000
68.6000 240.0000 1.0000
68.6100 254.0000 1.0000
68.6200 241.0000 1.0000
68.6300 247.0000 1.0000
68.6400 247.0000 1.0000
68.6500 236.0000 1.0000
68.6600 244.0000 1.0000
68.6700 236.0000 1.0000
68.6800 245.0000 1.0000
68.6900 250.0000 1.0000
68.7000 269.0000 1.0000
68.7100 230.0000 1.0000
68.7200 247.0000 1.0000
68.7300 243.0000 1.0000
68.7400 225.0000 1.0000
68.7500 253.0000 1.0000
68.7600 252.0000 1.0000
68.7700 280.0000 1.0000
68.7800 252.0000 1.0000
68.7900 232.0000 1.0000
68.8000 250.0000 1.0000
68.8100 244.0000 1.0000
68.8200 247.0000 1.0000
68.8300 270.0000 1.0000
68.8400 255.0000 1.0000
68.8500 244.0000 1.0000
68.8600 241.0000 1.0000
68.8700 280.0000 1.0000
68.8800 269.0000 1.0000
68.8900 237.0000 1.0000
68.9000 243.0000 1.0000
68.9100 239.0000 1.0000
68.9200 240.0000 1.0000
68.9300 248.0000 1.0000
68.9400 243.0000 1.0000
68.9500 236.0000 1.0000
68.9600 246.0000 1.0000
68.9700 226.0000 1.0000
68.9800 228.0000 1.0000
68.9900 249.0000 1.0000
69.0000 250.0000 1.0000
69.0100 255.0000 1.0000
69.0200 260.0000 1.0000
69.0300 266.0000 1.0000
69.0400 248.0000 1.0000
69.0500 244.0000 1.0000
69.0600 244.0000 1.0000
69.0700 244.0000 1.0000
69.0800 236.0000 1.0000
69.0900 258.0000 1.0000
69.1000 246.0000 1.0000
69.1100 248.0000 1.0000
69.1200 248.0000 1.0000
69.1300 238.0000 1.0000
69.1400 225.0000 1.0000
69.1500 225.0000 1.0000
69.1600 227.0000 1.0000
69.1700 230.0000 1.0000
69.1800 229.0000 1.0000
69.1900 244.0000 1.0000
69.2000 237.0000 1.0000
69.2100 244.0000 1.0000
69.2200 234.0000 1.0000
69.2300 236.0000 1.0000
69.2400 242.0000 1.0000
69.2500 237.0000 1.0000
69.2600 244.0000 1.0000
69.2700 228.0000 1.0000
69.2800 233.0000 1.0000
69.2900 233.0000 1.0000
69.3000 240.0000 1.0000
69.3100 241.0000 1.0000
69.3200 237.0000 1.0000
69.3300 226.0000 1.0000
69.3400 246.0000 1.0000
69.3500 227.0000 1.0000
69.3600 245.0000 1.0000
69.3700 246.0000 1.0000
69.3800 242.0000 1.0000
69.3900 226.0000 1.0000
69.4000 208.0000 1.0000
69.4100 233.0000 1.0000
69.4200 235.0000 1.0000
69.4300 223.0000 1.0000
69.4400 244.0000 1.0000
69.4500 263.0000 1.0000
69.4600 217.0000 1.0000
69.4700 233.0000 1.0000
69.4800 242.0000 1.0000
69.4900 205.0000 1.0000
69.5000 239.0000 1.0000
69.5100 222.0000 1.0000
69.5200 230.0000 1.0000
69.5300 208.0000 1.0000
69.5400 227.0000 1.0000
69.5500 269.0000 1.0000
69.5600 232.0000 1.0000
69.5700 235.0000 1.0000
69.5800 231.0000 1.0000
69.5900 232.0000 1.0000
69.6000 226.0000 1.0000
69.6100 224.0000 1.0000
69.6200 236.0000 1.0000
69.6300 227.0000 1.0000
69.6400 249.0000 1.0000
69.6500 231.0000 1.0000
69.6600 249.0000 1.0000
69.6700 241.0000 1.0000
69.6800 258.0000 1.0000
69.6900 247.0000 1.0000
69.7000 228.0000 1.0000
69.7100 249.0000 1.0000
69.7200 229.0000 1.0000
69.7300 233.0000 1.0000
69.7400 223.0000 1.0000
69.7500 250.0000 1.0000
69.7600 238.0000 1.0000
69.7700 249.0000 1.0000
69.7800 242.0000 1.0000
69.7900 242.0000 1.0000
69.8000 244.0000 1.0000
69.8100 232.0000 1.0000
69.8200 252.0000 1.0000
69.8300 235.0000 1.0000
69.8400 237.0000 1.0000
69.8500 233.0000 1.0000
69.8600 239.0000 1.0000
69.8700 234.0000 1.0000
69.8800 236.0000 1.0000
69.8900 227.0000 1.0000
69.9000 266.0000 1.0000
69.9100 243.0000 1.0000
69.9200 227.0000 1.0000
69.9300 240.0000 1.0000
69.9400 227.0000 1.0000
69.9500 230.0000 1.0000
69.9600 244.0000 1.0000
69.9700 231.0000 1.0000
69.9800 256.0000 1.0000
69.9900 242.0000 1.0000
70.0000 239.0000 1.0000
*RAS_INT_END
*RAS_TEMPERATURE_START
*RAS_TEMPERATURE_END
*RAS_DATA_END
