*RAS_DATA_START
*RAS_HEADER_START
*DISP_FMT_X "%.2f"
*DISP_FMT_Y "%.0f"
*DISP_FULLSCALE "14805.0000000000"
*DISP_LINE_COLOR "255.0000000000"
*DISP_LINE_STYLE "0.0000000000"
*DISP_LINE_WIDTH "0.2500000000"
*DISP_NOTE "測定データ-6"
*DISP_OFFSET_Y "0.0000000000"
*DISP_PEAKSEARCH_UNIT_Y "cps"
*DISP_RANGE_BOTTOM "0.0000000000"
*DISP_RANGE_LEFT "20.0000000000"
*DISP_RANGE_LOGCUTOFF "0.0100000000"
*DISP_RANGE_RIGHT "70.0000000000"
*DISP_RANGE_TOP "14805.0000000000"
*DISP_SCALE_MODE_Y "0.0000000000"
*DISP_TAB_NAME "2θ/θ"
*DISP_TITLE_Y "強度"
*DISP_UNIT_Y "cps"
*DISP_WINDOW_NAME "MSG_MACROENGINE"
*FILE_COMMENT " "
*FILE_MD5 ""
*FILE_MEMO " "
*FILE_OPERATOR "Administrator"
*FILE_SAMPLE " "
*FILE_TYPE "RAS_RAW"
*FILE_USERGROUP "システムマネージャ"
*FILE_VERSION "1.0000000000"
*HW_ATTACHMENT_ID "ATT0025"
*HW_ATTACHMENT_NAME "標準|Standard"
*HW_COUNTER_ID-0 "CUT0025"
*HW_COUNTER_ID-1 "CUT0020"
*HW_COUNTER_ID-2 "CUT0020"
*HW_COUNTER_ID-3 "CSL0021"
*HW_COUNTER_ID-4 "CMC0021"
*HW_COUNTER_NAME-0 "D/teX Ultra|D/teX Ultra"
*HW_COUNTER_NAME-1 "None|None"
*HW_COUNTER_NAME-2 "None|None"
*HW_COUNTER_NAME-3 "BBM|BBM"
*HW_COUNTER_NAME-4 "検出器モノクロメータ|Detector monochromator"
*HW_COUNTER_SELECT_NAME "D/teX Ultra|D/teX Ultra"
*HW_GONIOMETER_ID "GON0023"
*HW_GONIOMETER_NAME "SmartLab|SmartLab"
*HW_GONIOMETER_RADIUS-0 "90.0"
*HW_GONIOMETER_RADIUS-1 "114.0"
*HW_GONIOMETER_RADIUS-2 "190.0"
*HW_GONIOMETER_RADIUS-3 "300.0"
*HW_GONIOMETER_RADIUS-4 "187.0"
*HW_GONIOMETER_RADIUS-5 "300.0"
*HW_GONIOMETER_RADIUS-6 "113.0"
*HW_GONIOMETER_RADIUS-7 "331.0"
*HW_I_OPT_ID-0 "CBO0021"
*HW_I_OPT_ID-1 "ICR0023"
*HW_I_OPT_ID-2 "ISL0021"
*HW_I_OPT_ID-3 "ISO0021"
*HW_I_OPT_ID-4 "IAD0021"
*HW_I_OPT_ID-5 "IPR0001"
*HW_I_OPT_NAME-0 "CBOユニット|CBO unit"
*HW_I_OPT_NAME-1 "標準入射光学ユニット|Standard incident optical unit"
*HW_I_OPT_NAME-2 "標準入射スリットボックス|Standard incident slit box"
*HW_I_OPT_NAME-3 "入射平行スリット|Incident parallel slit"
*HW_I_OPT_NAME-4 "長手制限スリット|Length limiting slit"
*HW_I_OPT_NAME-5 "None|None"
*HW_R_ATTENUATER_AUTOMODE "0"
*HW_R_OPT_ID-0 "RSS0021"
*HW_R_OPT_ID-1 "RCR0023"
*HW_R_OPT_ID-2 "RSO0021"
*HW_R_OPT_ID-3 "RRS0021"
*HW_R_OPT_ID-4 "ATN0021"
*HW_R_OPT_ID-5 "RFL0021"
*HW_R_OPT_ID-6 "RAD0021"
*HW_R_OPT_NAME-0 "標準受光スリットボックス1|Standard receiving slit box # 1"
*HW_R_OPT_NAME-1 "標準受光光学ユニット1|Standard receiving unit # 1"
*HW_R_OPT_NAME-2 "標準受光光学ユニット2|Standard receiving optical unit # 2"
*HW_R_OPT_NAME-3 "標準受光スリットボックス2|Standard receiving slit box # 2"
*HW_R_OPT_NAME-4 "標準アッテネータ|Standard Attenuator"
*HW_R_OPT_NAME-5 "Cu Kβ|Cu K-beta"
*HW_R_OPT_NAME-6 "調整用受光スリット|Alignment receiving slit"
*HW_SAMPLE_HOLDER_ID "SMP0023"
*HW_SAMPLE_HOLDER_NAME "標準Zステージ|Standard Z stage"
*HW_XG_CURRENT_MAX "50"
*HW_XG_CURRENT_MIN "2"
*HW_XG_CURRENT_RESOLUTION "1"
*HW_XG_CURRENT_UNIT "mA"
*HW_XG_FOCUS "1mm x 10mm"
*HW_XG_FOCUS_TYPE "Normal"
*HW_XG_ID ""
*HW_XG_NAME "3kW 封入管(ID:1200)|3kW Sealed tube(ID:1200)"
*HW_XG_TARGET_ATOMIC_NUMBER "29.0000000000"
*HW_XG_TARGET_NAME "Cu"
*HW_XG_TYPE "Hermetic"
*HW_XG_VOLTAGE_MAX "60"
*HW_XG_VOLTAGE_MIN "20"
*HW_XG_VOLTAGE_RESOLUTION "1"
*HW_XG_VOLTAGE_UNIT "kV"
*HW_XG_WATT_MAX "1.500"
*HW_XG_WATT_UNIT "kW"
*HW_XG_WAVE_LENGTH_ALPHA1 "1.540593"
*HW_XG_WAVE_LENGTH_ALPHA2 "1.544414"
*HW_XG_WAVE_LENGTH_BETA "1.392250"
*MEAS_COND_AXIS_NAME-0 "2θ/θ"
*MEAS_COND_AXIS_NAME-1 "2θ"
*MEAS_COND_AXIS_NAME-2 "ω"
*MEAS_COND_AXIS_NAME-3 "Z"
*MEAS_COND_AXIS_NAME-4 "2θ/ω"
*MEAS_COND_AXIS_NAME-5 "θs"
*MEAS_COND_AXIS_NAME-6 "θd"
*MEAS_COND_AXIS_NAME-7 "Ts"
*MEAS_COND_AXIS_NAME-8 "CBO選択スリット"
*MEAS_COND_AXIS_NAME-9 "M"
*MEAS_COND_AXIS_NAME-10 "入射平行スリット"
*MEAS_COND_AXIS_NAME-11 "入射スリット"
*MEAS_COND_AXIS_NAME-12 ""
*MEAS_COND_AXIS_NAME-13 "Zs"
*MEAS_COND_AXIS_NAME-14 "入射光学素子"
*MEAS_COND_AXIS_NAME-15 "長手制限スリット"
*MEAS_COND_AXIS_NAME-16 "センタースリット"
*MEAS_COND_AXIS_NAME-17 "フィルター"
*MEAS_COND_AXIS_NAME-18 "受光スリット1"
*MEAS_COND_AXIS_NAME-19 "受光スリット2"
*MEAS_COND_AXIS_NAME-20 "受光光学素子"
*MEAS_COND_AXIS_NAME-21 "受光平行スリット"
*MEAS_COND_AXIS_NAME-22 "調整用受光スリット"
*MEAS_COND_AXIS_NAME-23 ""
*MEAS_COND_AXIS_NAME-24 ""
*MEAS_COND_AXIS_NAME-25 "Zd"
*MEAS_COND_AXIS_NAME-26 "アッテネータ"
*MEAS_COND_AXIS_NAME-27 "検出器モノクロメータ"
*MEAS_COND_AXIS_NAME-28 "モノクロメータスリット"
*MEAS_COND_AXIS_NAME-29 "プライマリビーム"
*MEAS_COND_AXIS_NAME-30 "PHA"
*MEAS_COND_AXIS_NAME_INTERNAL-0 "TwoThetaTheta"
*MEAS_COND_AXIS_NAME_INTERNAL-1 "TwoTheta"
*MEAS_COND_AXIS_NAME_INTERNAL-2 "Omega"
*MEAS_COND_AXIS_NAME_INTERNAL-3 "Z"
*MEAS_COND_AXIS_NAME_INTERNAL-4 "TwoThetaOmega"
*MEAS_COND_AXIS_NAME_INTERNAL-5 "ThetaS"
*MEAS_COND_AXIS_NAME_INTERNAL-6 "ThetaD"
*MEAS_COND_AXIS_NAME_INTERNAL-7 "Ts"
*MEAS_COND_AXIS_NAME_INTERNAL-8 "CBO"
*MEAS_COND_AXIS_NAME_INTERNAL-9 "CBO-M"
*MEAS_COND_AXIS_NAME_INTERNAL-10 "IncidentSollerSlit"
*MEAS_COND_AXIS_NAME_INTERNAL-11 "IncidentSlitBox"
*MEAS_COND_AXIS_NAME_INTERNAL-12 "IncidentSlitBox-_Axis"
*MEAS_COND_AXIS_NAME_INTERNAL-13 "Zs"
*MEAS_COND_AXIS_NAME_INTERNAL-14 "IncidentMonochromator"
*MEAS_COND_AXIS_NAME_INTERNAL-15 "IncidentAxdSlit"
*MEAS_COND_AXIS_NAME_INTERNAL-16 "CenterSlit"
*MEAS_COND_AXIS_NAME_INTERNAL-17 "Filter"
*MEAS_COND_AXIS_NAME_INTERNAL-18 "ReceivingSlitBox1"
*MEAS_COND_AXIS_NAME_INTERNAL-19 "ReceivingSlitBox2"
*MEAS_COND_AXIS_NAME_INTERNAL-20 "ReceivingOptics"
*MEAS_COND_AXIS_NAME_INTERNAL-21 "ReceivingSollerSlit"
*MEAS_COND_AXIS_NAME_INTERNAL-22 "ReceivingAxdSlit"
*MEAS_COND_AXIS_NAME_INTERNAL-23 "ReceivingSlitBox1-_Axis"
*MEAS_COND_AXIS_NAME_INTERNAL-24 "ReceivingSlitBox2-_Axis"
*MEAS_COND_AXIS_NAME_INTERNAL-25 "ReceivingSlitBox2-Zd"
*MEAS_COND_AXIS_NAME_INTERNAL-26 "Attenuator"
*MEAS_COND_AXIS_NAME_INTERNAL-27 "CounterMonochromator"
*MEAS_COND_AXIS_NAME_INTERNAL-28 "CounterSlit"
*MEAS_COND_AXIS_NAME_INTERNAL-29 "IncidentPrimary"
*MEAS_COND_AXIS_NAME_INTERNAL-30 "PHA"
*MEAS_COND_AXIS_NAME_MAGICNO-0 "83951616.0000000000"
*MEAS_COND_AXIS_NAME_MAGICNO-1 "268632064.0000000000"
*MEAS_COND_AXIS_NAME_MAGICNO-2 "268500992.0000000000"
*MEAS_COND_AXIS_NAME_MAGICNO-3 "285278208.0000000000"
*MEAS_COND_AXIS_NAME_MAGICNO-4 "83951616.0000000000"
*MEAS_COND_AXIS_NAME_MAGICNO-5 "131072.0000000000"
*MEAS_COND_AXIS_NAME_MAGICNO-6 "131072.0000000000"
*MEAS_COND_AXIS_NAME_MAGICNO-7 "318898176.0000000000"
*MEAS_COND_AXIS_NAME_MAGICNO-8 "20971521.0000000000"
*MEAS_COND_AXIS_NAME_MAGICNO-9 "285343744.0000000000"
*MEAS_COND_AXIS_NAME_MAGICNO-10 "20971521.0000000000"
*MEAS_COND_AXIS_NAME_MAGICNO-11 "22020097.0000000000"
*MEAS_COND_AXIS_NAME_MAGICNO-12 "25165824.0000000000"
*MEAS_COND_AXIS_NAME_MAGICNO-13 "318898176.0000000000"
*MEAS_COND_AXIS_NAME_MAGICNO-14 "1.0000000000"
*MEAS_COND_AXIS_NAME_MAGICNO-15 "20971521.0000000000"
*MEAS_COND_AXIS_NAME_MAGICNO-16 "20971521.0000000000"
*MEAS_COND_AXIS_NAME_MAGICNO-17 "20971521.0000000000"
*MEAS_COND_AXIS_NAME_MAGICNO-18 "23068673.0000000000"
*MEAS_COND_AXIS_NAME_MAGICNO-19 "23068673.0000000000"
*MEAS_COND_AXIS_NAME_MAGICNO-20 "20971521.0000000000"
*MEAS_COND_AXIS_NAME_MAGICNO-21 "20971521.0000000000"
*MEAS_COND_AXIS_NAME_MAGICNO-22 "20971521.0000000000"
*MEAS_COND_AXIS_NAME_MAGICNO-23 "25165824.0000000000"
*MEAS_COND_AXIS_NAME_MAGICNO-24 "25165824.0000000000"
*MEAS_COND_AXIS_NAME_MAGICNO-25 "285343744.0000000000"
*MEAS_COND_AXIS_NAME_MAGICNO-26 "17301505.0000000000"
*MEAS_COND_AXIS_NAME_MAGICNO-27 "20971521.0000000000"
*MEAS_COND_AXIS_NAME_MAGICNO-28 "20971521.0000000000"
*MEAS_COND_AXIS_NAME_MAGICNO-29 "20971521.0000000000"
*MEAS_COND_AXIS_NAME_MAGICNO-30 "0.0000000000"
*MEAS_COND_AXIS_OFFSET-0 "-"
*MEAS_COND_AXIS_OFFSET-1 "-0.0310000000"
*MEAS_COND_AXIS_OFFSET-2 "0.1589000000"
*MEAS_COND_AXIS_OFFSET-3 "-"
*MEAS_COND_AXIS_OFFSET-4 "-"
*MEAS_COND_AXIS_OFFSET-5 "0.1589000000"
*MEAS_COND_AXIS_OFFSET-6 "-0.1899000000"
*MEAS_COND_AXIS_OFFSET-7 "-"
*MEAS_COND_AXIS_OFFSET-8 "-"
*MEAS_COND_AXIS_OFFSET-9 "-"
*MEAS_COND_AXIS_OFFSET-10 "-"
*MEAS_COND_AXIS_OFFSET-11 "-"
*MEAS_COND_AXIS_OFFSET-12 "-"
*MEAS_COND_AXIS_OFFSET-13 "-"
*MEAS_COND_AXIS_OFFSET-14 "-"
*MEAS_COND_AXIS_OFFSET-15 "-"
*MEAS_COND_AXIS_OFFSET-16 "-"
*MEAS_COND_AXIS_OFFSET-17 "-"
*MEAS_COND_AXIS_OFFSET-18 "-"
*MEAS_COND_AXIS_OFFSET-19 "-"
*MEAS_COND_AXIS_OFFSET-20 "-"
*MEAS_COND_AXIS_OFFSET-21 "-"
*MEAS_COND_AXIS_OFFSET-22 "-"
*MEAS_COND_AXIS_OFFSET-23 "-"
*MEAS_COND_AXIS_OFFSET-24 "-"
*MEAS_COND_AXIS_OFFSET-25 "-"
*MEAS_COND_AXIS_OFFSET-26 "-"
*MEAS_COND_AXIS_OFFSET-27 "-"
*MEAS_COND_AXIS_OFFSET-28 "-"
*MEAS_COND_AXIS_OFFSET-29 "-"
*MEAS_COND_AXIS_OFFSET-30 "-"
*MEAS_COND_AXIS_POSITION-0 "0.0000000000"
*MEAS_COND_AXIS_POSITION-1 "0.0000000000"
*MEAS_COND_AXIS_POSITION-2 "0.0000000000"
*MEAS_COND_AXIS_POSITION-3 "-2.9326600000"
*MEAS_COND_AXIS_POSITION-4 "0.0000000000"
*MEAS_COND_AXIS_POSITION-5 "0.0000000000"
*MEAS_COND_AXIS_POSITION-6 "0.0000000000"
*MEAS_COND_AXIS_POSITION-7 "-0.7498700000"
*MEAS_COND_AXIS_POSITION-8 "BB"
*MEAS_COND_AXIS_POSITION-9 "0.0000000000"
*MEAS_COND_AXIS_POSITION-10 "Soller_slit_5.0deg"
*MEAS_COND_AXIS_POSITION-11 "2/3deg"
*MEAS_COND_AXIS_POSITION-12 "2.2088000000"
*MEAS_COND_AXIS_POSITION-13 "-0.6412500000"
*MEAS_COND_AXIS_POSITION-14 "0.0000000000"
*MEAS_COND_AXIS_POSITION-15 "10.0mm"
*MEAS_COND_AXIS_POSITION-16 "None"
*MEAS_COND_AXIS_POSITION-17 "Cu_K-beta"
*MEAS_COND_AXIS_POSITION-18 "13.000mm"
*MEAS_COND_AXIS_POSITION-19 "13.000mm"
*MEAS_COND_AXIS_POSITION-20 "No_unit"
*MEAS_COND_AXIS_POSITION-21 "Soller_slit_5.0deg"
*MEAS_COND_AXIS_POSITION-22 "None"
*MEAS_COND_AXIS_POSITION-23 "13.0000000000"
*MEAS_COND_AXIS_POSITION-24 "13.0000000000"
*MEAS_COND_AXIS_POSITION-25 "0.0281300000"
*MEAS_COND_AXIS_POSITION-26 "Open"
*MEAS_COND_AXIS_POSITION-27 "None"
*MEAS_COND_AXIS_POSITION-28 "None"
*MEAS_COND_AXIS_POSITION-29 "None"
*MEAS_COND_AXIS_POSITION-30 "38.0000000000"
*MEAS_COND_AXIS_UNIT-0 "deg"
*MEAS_COND_AXIS_UNIT-1 "deg"
*MEAS_COND_AXIS_UNIT-2 "deg"
*MEAS_COND_AXIS_UNIT-3 "mm"
*MEAS_COND_AXIS_UNIT-4 "deg"
*MEAS_COND_AXIS_UNIT-5 "deg"
*MEAS_COND_AXIS_UNIT-6 "deg"
*MEAS_COND_AXIS_UNIT-7 "mm"
*MEAS_COND_AXIS_UNIT-8 ""
*MEAS_COND_AXIS_UNIT-9 "pulse"
*MEAS_COND_AXIS_UNIT-10 ""
*MEAS_COND_AXIS_UNIT-11 ""
*MEAS_COND_AXIS_UNIT-12 "mm"
*MEAS_COND_AXIS_UNIT-13 "mm"
*MEAS_COND_AXIS_UNIT-14 ""
*MEAS_COND_AXIS_UNIT-15 ""
*MEAS_COND_AXIS_UNIT-16 ""
*MEAS_COND_AXIS_UNIT-17 ""
*MEAS_COND_AXIS_UNIT-18 ""
*MEAS_COND_AXIS_UNIT-19 ""
*MEAS_COND_AXIS_UNIT-20 ""
*MEAS_COND_AXIS_UNIT-21 ""
*MEAS_COND_AXIS_UNIT-22 ""
*MEAS_COND_AXIS_UNIT-23 "mm"
*MEAS_COND_AXIS_UNIT-24 "mm"
*MEAS_COND_AXIS_UNIT-25 "mm"
*MEAS_COND_AXIS_UNIT-26 ""
*MEAS_COND_AXIS_UNIT-27 ""
*MEAS_COND_AXIS_UNIT-28 ""
*MEAS_COND_AXIS_UNIT-29 ""
*MEAS_COND_AXIS_UNIT-30 "div"
*MEAS_COND_COUNTER_CNTLOSS_CORR "0.0000000000"
*MEAS_COND_COUNTER_PHABASE "38.0000000000"
*MEAS_COND_COUNTER_PHAWINDOW "16.0000000000"
*MEAS_COND_COUNTER_PHA_UNIT "div"
*MEAS_COND_COUNTER_TAUDIFF "30.0000000000"
*MEAS_COND_COUNTER_TAUINT "0.0000000000"
*MEAS_COND_IRRADIATION_MODE "OFF"
*MEAS_COND_IRRADIATION_WIDTH ""
*MEAS_COND_OPT_ATTR "集中法"
*MEAS_COND_OPT_NAME "@集中法"
*MEAS_COND_UNSYMMETRIC_MODE "OFF"
*MEAS_COND_XG_CURRENT "30.0000000000"
*MEAS_COND_XG_VOLTAGE "40.0000000000"
*MEAS_COND_XG_WAVE_TYPE "Ka"
*MEAS_DATA_COUNT "5001.0000000000"
*MEAS_SCAN_AXIS_X "2θ/θ"
*MEAS_SCAN_AXIS_X_INTERNAL "TwoThetaTheta"
*MEAS_SCAN_END_TIME "12/13/22 12:32:43"
*MEAS_SCAN_MODE "CONTINUOUS"
*MEAS_SCAN_MONITOR "0"
*MEAS_SCAN_RESOLUTION_X "0.0002"
*MEAS_SCAN_SPEED "2.5"
*MEAS_SCAN_SPEED_UNIT "deg/min"
*MEAS_SCAN_START "20.0000000000"
*MEAS_SCAN_START_TIME "12/13/22 12:11:19"
*MEAS_SCAN_STEP "0.0100000000"
*MEAS_SCAN_STOP "70.0000000000"
*MEAS_SCAN_UNIT_X "deg"
*MEAS_SCAN_UNIT_Y "counts"
*RAS_HEADER_END
*RAS_INT_START
20.0000 861.0000 1.0000
20.0100 845.0000 1.0000
20.0200 882.0000 1.0000
20.0300 860.0000 1.0000
20.0400 840.0000 1.0000
20.0500 827.0000 1.0000
20.0600 875.0000 1.0000
20.0700 876.0000 1.0000
20.0800 914.0000 1.0000
20.0900 881.0000 1.0000
20.1000 837.0000 1.0000
20.1100 845.0000 1.0000
20.1200 867.0000 1.0000
20.1300 849.0000 1.0000
20.1400 870.0000 1.0000
20.1500 858.0000 1.0000
20.1600 876.0000 1.0000
20.1700 838.0000 1.0000
20.1800 856.0000 1.0000
20.1900 854.0000 1.0000
20.2000 841.0000 1.0000
20.2100 878.0000 1.0000
20.2200 849.0000 1.0000
20.2300 848.0000 1.0000
20.2400 879.0000 1.0000
20.2500 859.0000 1.0000
20.2600 866.0000 1.0000
20.2700 855.0000 1.0000
20.2800 814.0000 1.0000
20.2900 826.0000 1.0000
20.3000 841.0000 1.0000
20.3100 861.0000 1.0000
20.3200 872.0000 1.0000
20.3300 870.0000 1.0000
20.3400 875.0000 1.0000
20.3500 889.0000 1.0000
20.3600 830.0000 1.0000
20.3700 817.0000 1.0000
20.3800 845.0000 1.0000
20.3900 848.0000 1.0000
20.4000 842.0000 1.0000
20.4100 846.0000 1.0000
20.4200 820.0000 1.0000
20.4300 856.0000 1.0000
20.4400 848.0000 1.0000
20.4500 848.0000 1.0000
20.4600 813.0000 1.0000
20.4700 889.0000 1.0000
20.4800 859.0000 1.0000
20.4900 883.0000 1.0000
20.5000 851.0000 1.0000
20.5100 893.0000 1.0000
20.5200 869.0000 1.0000
20.5300 847.0000 1.0000
20.5400 838.0000 1.0000
20.5500 854.0000 1.0000
20.5600 846.0000 1.0000
20.5700 846.0000 1.0000
20.5800 851.0000 1.0000
20.5900 829.0000 1.0000
20.6000 864.0000 1.0000
20.6100 829.0000 1.0000
20.6200 844.0000 1.0000
20.6300 864.0000 1.0000
20.6400 838.0000 1.0000
20.6500 854.0000 1.0000
20.6600 880.0000 1.0000
20.6700 900.0000 1.0000
20.6800 874.0000 1.0000
20.6900 882.0000 1.0000
20.7000 833.0000 1.0000
20.7100 846.0000 1.0000
20.7200 870.0000 1.0000
20.7300 837.0000 1.0000
20.7400 887.0000 1.0000
20.7500 875.0000 1.0000
20.7600 842.0000 1.0000
20.7700 886.0000 1.0000
20.7800 829.0000 1.0000
20.7900 867.0000 1.0000
20.8000 874.0000 1.0000
20.8100 825.0000 1.0000
20.8200 870.0000 1.0000
20.8300 876.0000 1.0000
20.8400 848.0000 1.0000
20.8500 828.0000 1.0000
20.8600 878.0000 1.0000
20.8700 868.0000 1.0000
20.8800 915.0000 1.0000
20.8900 874.0000 1.0000
20.9000 871.0000 1.0000
20.9100 871.0000 1.0000
20.9200 882.0000 1.0000
20.9300 860.0000 1.0000
20.9400 837.0000 1.0000
20.9500 859.0000 1.0000
20.9600 850.0000 1.0000
20.9700 865.0000 1.0000
20.9800 955.0000 1.0000
20.9900 826.0000 1.0000
21.0000 895.0000 1.0000
21.0100 868.0000 1.0000
21.0200 865.0000 1.0000
21.0300 845.0000 1.0000
21.0400 928.0000 1.0000
21.0500 856.0000 1.0000
21.0600 867.0000 1.0000
21.0700 860.0000 1.0000
21.0800 848.0000 1.0000
21.0900 851.0000 1.0000
21.1000 859.0000 1.0000
21.1100 852.0000 1.0000
21.1200 828.0000 1.0000
21.1300 881.0000 1.0000
21.1400 904.0000 1.0000
21.1500 861.0000 1.0000
21.1600 845.0000 1.0000
21.1700 900.0000 1.0000
21.1800 861.0000 1.0000
21.1900 874.0000 1.0000
21.2000 883.0000 1.0000
21.2100 873.0000 1.0000
21.2200 831.0000 1.0000
21.2300 823.0000 1.0000
21.2400 854.0000 1.0000
21.2500 854.0000 1.0000
21.2600 867.0000 1.0000
21.2700 852.0000 1.0000
21.2800 849.0000 1.0000
21.2900 852.0000 1.0000
21.3000 830.0000 1.0000
21.3100 836.0000 1.0000
21.3200 841.0000 1.0000
21.3300 854.0000 1.0000
21.3400 839.0000 1.0000
21.3500 823.0000 1.0000
21.3600 829.0000 1.0000
21.3700 840.0000 1.0000
21.3800 847.0000 1.0000
21.3900 862.0000 1.0000
21.4000 858.0000 1.0000
21.4100 884.0000 1.0000
21.4200 843.0000 1.0000
21.4300 880.0000 1.0000
21.4400 854.0000 1.0000
21.4500 833.0000 1.0000
21.4600 874.0000 1.0000
21.4700 790.0000 1.0000
21.4800 888.0000 1.0000
21.4900 822.0000 1.0000
21.5000 839.0000 1.0000
21.5100 828.0000 1.0000
21.5200 877.0000 1.0000
21.5300 853.0000 1.0000
21.5400 866.0000 1.0000
21.5500 897.0000 1.0000
21.5600 878.0000 1.0000
21.5700 831.0000 1.0000
21.5800 843.0000 1.0000
21.5900 844.0000 1.0000
21.6000 883.0000 1.0000
21.6100 858.0000 1.0000
21.6200 911.0000 1.0000
21.6300 876.0000 1.0000
21.6400 819.0000 1.0000
21.6500 857.0000 1.0000
21.6600 833.0000 1.0000
21.6700 871.0000 1.0000
21.6800 881.0000 1.0000
21.6900 865.0000 1.0000
21.7000 846.0000 1.0000
21.7100 842.0000 1.0000
21.7200 902.0000 1.0000
21.7300 853.0000 1.0000
21.7400 900.0000 1.0000
21.7500 862.0000 1.0000
21.7600 869.0000 1.0000
21.7700 876.0000 1.0000
21.7800 835.0000 1.0000
21.7900 865.0000 1.0000
21.8000 887.0000 1.0000
21.8100 844.0000 1.0000
21.8200 909.0000 1.0000
21.8300 926.0000 1.0000
21.8400 901.0000 1.0000
21.8500 834.0000 1.0000
21.8600 840.0000 1.0000
21.8700 840.0000 1.0000
21.8800 885.0000 1.0000
21.8900 822.0000 1.0000
21.9000 815.0000 1.0000
21.9100 824.0000 1.0000
21.9200 875.0000 1.0000
21.9300 886.0000 1.0000
21.9400 859.0000 1.0000
21.9500 818.0000 1.0000
21.9600 860.0000 1.0000
21.9700 874.0000 1.0000
21.9800 866.0000 1.0000
21.9900 840.0000 1.0000
22.0000 909.0000 1.0000
22.0100 856.0000 1.0000
22.0200 866.0000 1.0000
22.0300 855.0000 1.0000
22.0400 852.0000 1.0000
22.0500 887.0000 1.0000
22.0600 927.0000 1.0000
22.0700 847.0000 1.0000
22.0800 847.0000 1.0000
22.0900 880.0000 1.0000
22.1000 905.0000 1.0000
22.1100 888.0000 1.0000
22.1200 886.0000 1.0000
22.1300 869.0000 1.0000
22.1400 852.0000 1.0000
22.1500 832.0000 1.0000
22.1600 867.0000 1.0000
22.1700 822.0000 1.0000
22.1800 823.0000 1.0000
22.1900 890.0000 1.0000
22.2000 867.0000 1.0000
22.2100 834.0000 1.0000
22.2200 823.0000 1.0000
22.2300 816.0000 1.0000
22.2400 797.0000 1.0000
22.2500 861.0000 1.0000
22.2600 817.0000 1.0000
22.2700 916.0000 1.0000
22.2800 900.0000 1.0000
22.2900 845.0000 1.0000
22.3000 872.0000 1.0000
22.3100 893.0000 1.0000
22.3200 853.0000 1.0000
22.3300 872.0000 1.0000
22.3400 854.0000 1.0000
22.3500 889.0000 1.0000
22.3600 828.0000 1.0000
22.3700 834.0000 1.0000
22.3800 879.0000 1.0000
22.3900 820.0000 1.0000
22.4000 854.0000 1.0000
22.4100 837.0000 1.0000
22.4200 825.0000 1.0000
22.4300 861.0000 1.0000
22.4400 852.0000 1.0000
22.4500 864.0000 1.0000
22.4600 913.0000 1.0000
22.4700 814.0000 1.0000
22.4800 812.0000 1.0000
22.4900 855.0000 1.0000
22.5000 865.0000 1.0000
22.5100 877.0000 1.0000
22.5200 857.0000 1.0000
22.5300 805.0000 1.0000
22.5400 817.0000 1.0000
22.5500 826.0000 1.0000
22.5600 817.0000 1.0000
22.5700 822.0000 1.0000
22.5800 855.0000 1.0000
22.5900 871.0000 1.0000
22.6000 817.0000 1.0000
22.6100 873.0000 1.0000
22.6200 868.0000 1.0000
22.6300 825.0000 1.0000
22.6400 849.0000 1.0000
22.6500 833.0000 1.0000
22.6600 823.0000 1.0000
22.6700 807.0000 1.0000
22.6800 815.0000 1.0000
22.6900 849.0000 1.0000
22.7000 887.0000 1.0000
22.7100 821.0000 1.0000
22.7200 871.0000 1.0000
22.7300 801.0000 1.0000
22.7400 863.0000 1.0000
22.7500 859.0000 1.0000
22.7600 885.0000 1.0000
22.7700 867.0000 1.0000
22.7800 795.0000 1.0000
22.7900 853.0000 1.0000
22.8000 807.0000 1.0000
22.8100 851.0000 1.0000
22.8200 892.0000 1.0000
22.8300 862.0000 1.0000
22.8400 841.0000 1.0000
22.8500 805.0000 1.0000
22.8600 809.0000 1.0000
22.8700 818.0000 1.0000
22.8800 845.0000 1.0000
22.8900 856.0000 1.0000
22.9000 873.0000 1.0000
22.9100 809.0000 1.0000
22.9200 814.0000 1.0000
22.9300 813.0000 1.0000
22.9400 837.0000 1.0000
22.9500 842.0000 1.0000
22.9600 832.0000 1.0000
22.9700 796.0000 1.0000
22.9800 877.0000 1.0000
22.9900 831.0000 1.0000
23.0000 798.0000 1.0000
23.0100 862.0000 1.0000
23.0200 806.0000 1.0000
23.0300 845.0000 1.0000
23.0400 831.0000 1.0000
23.0500 853.0000 1.0000
23.0600 865.0000 1.0000
23.0700 881.0000 1.0000
23.0800 861.0000 1.0000
23.0900 841.0000 1.0000
23.1000 833.0000 1.0000
23.1100 849.0000 1.0000
23.1200 781.0000 1.0000
23.1300 817.0000 1.0000
23.1400 830.0000 1.0000
23.1500 809.0000 1.0000
23.1600 787.0000 1.0000
23.1700 857.0000 1.0000
23.1800 860.0000 1.0000
23.1900 840.0000 1.0000
23.2000 833.0000 1.0000
23.2100 878.0000 1.0000
23.2200 797.0000 1.0000
23.2300 864.0000 1.0000
23.2400 885.0000 1.0000
23.2500 847.0000 1.0000
23.2600 835.0000 1.0000
23.2700 833.0000 1.0000
23.2800 825.0000 1.0000
23.2900 858.0000 1.0000
23.3000 859.0000 1.0000
23.3100 832.0000 1.0000
23.3200 828.0000 1.0000
23.3300 799.0000 1.0000
23.3400 814.0000 1.0000
23.3500 816.0000 1.0000
23.3600 815.0000 1.0000
23.3700 866.0000 1.0000
23.3800 887.0000 1.0000
23.3900 853.0000 1.0000
23.4000 817.0000 1.0000
23.4100 795.0000 1.0000
23.4200 821.0000 1.0000
23.4300 812.0000 1.0000
23.4400 837.0000 1.0000
23.4500 813.0000 1.0000
23.4600 847.0000 1.0000
23.4700 845.0000 1.0000
23.4800 873.0000 1.0000
23.4900 858.0000 1.0000
23.5000 843.0000 1.0000
23.5100 836.0000 1.0000
23.5200 870.0000 1.0000
23.5300 831.0000 1.0000
23.5400 833.0000 1.0000
23.5500 848.0000 1.0000
23.5600 804.0000 1.0000
23.5700 830.0000 1.0000
23.5800 871.0000 1.0000
23.5900 861.0000 1.0000
23.6000 796.0000 1.0000
23.6100 847.0000 1.0000
23.6200 856.0000 1.0000
23.6300 848.0000 1.0000
23.6400 875.0000 1.0000
23.6500 868.0000 1.0000
23.6600 815.0000 1.0000
23.6700 811.0000 1.0000
23.6800 819.0000 1.0000
23.6900 821.0000 1.0000
23.7000 804.0000 1.0000
23.7100 816.0000 1.0000
23.7200 831.0000 1.0000
23.7300 837.0000 1.0000
23.7400 876.0000 1.0000
23.7500 848.0000 1.0000
23.7600 796.0000 1.0000
23.7700 820.0000 1.0000
23.7800 832.0000 1.0000
23.7900 848.0000 1.0000
23.8000 850.0000 1.0000
23.8100 828.0000 1.0000
23.8200 867.0000 1.0000
23.8300 901.0000 1.0000
23.8400 876.0000 1.0000
23.8500 835.0000 1.0000
23.8600 832.0000 1.0000
23.8700 861.0000 1.0000
23.8800 876.0000 1.0000
23.8900 858.0000 1.0000
23.9000 862.0000 1.0000
23.9100 846.0000 1.0000
23.9200 849.0000 1.0000
23.9300 813.0000 1.0000
23.9400 847.0000 1.0000
23.9500 846.0000 1.0000
23.9600 838.0000 1.0000
23.9700 861.0000 1.0000
23.9800 839.0000 1.0000
23.9900 834.0000 1.0000
24.0000 855.0000 1.0000
24.0100 891.0000 1.0000
24.0200 885.0000 1.0000
24.0300 873.0000 1.0000
24.0400 835.0000 1.0000
24.0500 827.0000 1.0000
24.0600 828.0000 1.0000
24.0700 874.0000 1.0000
24.0800 880.0000 1.0000
24.0900 874.0000 1.0000
24.1000 874.0000 1.0000
24.1100 926.0000 1.0000
24.1200 908.0000 1.0000
24.1300 944.0000 1.0000
24.1400 902.0000 1.0000
24.1500 949.0000 1.0000
24.1600 917.0000 1.0000
24.1700 898.0000 1.0000
24.1800 874.0000 1.0000
24.1900 911.0000 1.0000
24.2000 870.0000 1.0000
24.2100 837.0000 1.0000
24.2200 917.0000 1.0000
24.2300 888.0000 1.0000
24.2400 874.0000 1.0000
24.2500 877.0000 1.0000
24.2600 852.0000 1.0000
24.2700 846.0000 1.0000
24.2800 844.0000 1.0000
24.2900 862.0000 1.0000
24.3000 879.0000 1.0000
24.3100 887.0000 1.0000
24.3200 809.0000 1.0000
24.3300 805.0000 1.0000
24.3400 869.0000 1.0000
24.3500 888.0000 1.0000
24.3600 852.0000 1.0000
24.3700 831.0000 1.0000
24.3800 825.0000 1.0000
24.3900 875.0000 1.0000
24.4000 839.0000 1.0000
24.4100 854.0000 1.0000
24.4200 818.0000 1.0000
24.4300 857.0000 1.0000
24.4400 861.0000 1.0000
24.4500 850.0000 1.0000
24.4600 829.0000 1.0000
24.4700 893.0000 1.0000
24.4800 865.0000 1.0000
24.4900 819.0000 1.0000
24.5000 873.0000 1.0000
24.5100 862.0000 1.0000
24.5200 828.0000 1.0000
24.5300 822.0000 1.0000
24.5400 825.0000 1.0000
24.5500 850.0000 1.0000
24.5600 851.0000 1.0000
24.5700 829.0000 1.0000
24.5800 829.0000 1.0000
24.5900 835.0000 1.0000
24.6000 814.0000 1.0000
24.6100 845.0000 1.0000
24.6200 873.0000 1.0000
24.6300 815.0000 1.0000
24.6400 820.0000 1.0000
24.6500 891.0000 1.0000
24.6600 834.0000 1.0000
24.6700 844.0000 1.0000
24.6800 819.0000 1.0000
24.6900 834.0000 1.0000
24.7000 817.0000 1.0000
24.7100 785.0000 1.0000
24.7200 785.0000 1.0000
24.7300 821.0000 1.0000
24.7400 829.0000 1.0000
24.7500 819.0000 1.0000
24.7600 828.0000 1.0000
24.7700 796.0000 1.0000
24.7800 798.0000 1.0000
24.7900 835.0000 1.0000
24.8000 826.0000 1.0000
24.8100 824.0000 1.0000
24.8200 812.0000 1.0000
24.8300 796.0000 1.0000
24.8400 873.0000 1.0000
24.8500 830.0000 1.0000
24.8600 829.0000 1.0000
24.8700 811.0000 1.0000
24.8800 785.0000 1.0000
24.8900 799.0000 1.0000
24.9000 790.0000 1.0000
24.9100 787.0000 1.0000
24.9200 825.0000 1.0000
24.9300 867.0000 1.0000
24.9400 823.0000 1.0000
24.9500 823.0000 1.0000
24.9600 799.0000 1.0000
24.9700 829.0000 1.0000
24.9800 830.0000 1.0000
24.9900 828.0000 1.0000
25.0000 828.0000 1.0000
25.0100 836.0000 1.0000
25.0200 810.0000 1.0000
25.0300 810.0000 1.0000
25.0400 781.0000 1.0000
25.0500 838.0000 1.0000
25.0600 843.0000 1.0000
25.0700 820.0000 1.0000
25.0800 852.0000 1.0000
25.0900 823.0000 1.0000
25.1000 794.0000 1.0000
25.1100 822.0000 1.0000
25.1200 791.0000 1.0000
25.1300 819.0000 1.0000
25.1400 805.0000 1.0000
25.1500 757.0000 1.0000
25.1600 808.0000 1.0000
25.1700 816.0000 1.0000
25.1800 847.0000 1.0000
25.1900 814.0000 1.0000
25.2000 782.0000 1.0000
25.2100 821.0000 1.0000
25.2200 776.0000 1.0000
25.2300 771.0000 1.0000
25.2400 785.0000 1.0000
25.2500 817.0000 1.0000
25.2600 814.0000 1.0000
25.2700 850.0000 1.0000
25.2800 859.0000 1.0000
25.2900 818.0000 1.0000
25.3000 800.0000 1.0000
25.3100 777.0000 1.0000
25.3200 799.0000 1.0000
25.3300 776.0000 1.0000
25.3400 861.0000 1.0000
25.3500 786.0000 1.0000
25.3600 820.0000 1.0000
25.3700 838.0000 1.0000
25.3800 855.0000 1.0000
25.3900 819.0000 1.0000
25.4000 777.0000 1.0000
25.4100 778.0000 1.0000
25.4200 773.0000 1.0000
25.4300 790.0000 1.0000
25.4400 823.0000 1.0000
25.4500 787.0000 1.0000
25.4600 814.0000 1.0000
25.4700 844.0000 1.0000
25.4800 863.0000 1.0000
25.4900 823.0000 1.0000
25.5000 827.0000 1.0000
25.5100 834.0000 1.0000
25.5200 802.0000 1.0000
25.5300 812.0000 1.0000
25.5400 851.0000 1.0000
25.5500 839.0000 1.0000
25.5600 838.0000 1.0000
25.5700 835.0000 1.0000
25.5800 772.0000 1.0000
25.5900 798.0000 1.0000
25.6000 778.0000 1.0000
25.6100 793.0000 1.0000
25.6200 865.0000 1.0000
25.6300 838.0000 1.0000
25.6400 772.0000 1.0000
25.6500 815.0000 1.0000
25.6600 793.0000 1.0000
25.6700 840.0000 1.0000
25.6800 805.0000 1.0000
25.6900 800.0000 1.0000
25.7000 868.0000 1.0000
25.7100 857.0000 1.0000
25.7200 881.0000 1.0000
25.7300 819.0000 1.0000
25.7400 849.0000 1.0000
25.7500 794.0000 1.0000
25.7600 851.0000 1.0000
25.7700 848.0000 1.0000
25.7800 810.0000 1.0000
25.7900 811.0000 1.0000
25.8000 842.0000 1.0000
25.8100 815.0000 1.0000
25.8200 851.0000 1.0000
25.8300 808.0000 1.0000
25.8400 833.0000 1.0000
25.8500 864.0000 1.0000
25.8600 805.0000 1.0000
25.8700 813.0000 1.0000
25.8800 801.0000 1.0000
25.8900 807.0000 1.0000
25.9000 878.0000 1.0000
25.9100 883.0000 1.0000
25.9200 868.0000 1.0000
25.9300 836.0000 1.0000
25.9400 877.0000 1.0000
25.9500 894.0000 1.0000
25.9600 876.0000 1.0000
25.9700 837.0000 1.0000
25.9800 848.0000 1.0000
25.9900 880.0000 1.0000
26.0000 826.0000 1.0000
26.0100 915.0000 1.0000
26.0200 869.0000 1.0000
26.0300 889.0000 1.0000
26.0400 808.0000 1.0000
26.0500 874.0000 1.0000
26.0600 929.0000 1.0000
26.0700 904.0000 1.0000
26.0800 898.0000 1.0000
26.0900 912.0000 1.0000
26.1000 873.0000 1.0000
26.1100 935.0000 1.0000
26.1200 921.0000 1.0000
26.1300 948.0000 1.0000
26.1400 960.0000 1.0000
26.1500 986.0000 1.0000
26.1600 946.0000 1.0000
26.1700 994.0000 1.0000
26.1800 1019.0000 1.0000
26.1900 1014.0000 1.0000
26.2000 977.0000 1.0000
26.2100 1026.0000 1.0000
26.2200 1050.0000 1.0000
26.2300 1103.0000 1.0000
26.2400 1069.0000 1.0000
26.2500 1124.0000 1.0000
26.2600 1204.0000 1.0000
26.2700 1217.0000 1.0000
26.2800 1240.0000 1.0000
26.2900 1251.0000 1.0000
26.3000 1313.0000 1.0000
26.3100 1314.0000 1.0000
26.3200 1323.0000 1.0000
26.3300 1435.0000 1.0000
26.3400 1452.0000 1.0000
26.3500 1592.0000 1.0000
26.3600 1632.0000 1.0000
26.3700 1721.0000 1.0000
26.3800 1753.0000 1.0000
26.3900 1816.0000 1.0000
26.4000 1931.0000 1.0000
26.4100 2013.0000 1.0000
26.4200 2218.0000 1.0000
26.4300 2282.0000 1.0000
26.4400 2423.0000 1.0000
26.4500 2572.0000 1.0000
26.4600 2693.0000 1.0000
26.4700 2729.0000 1.0000
26.4800 2860.0000 1.0000
26.4900 2945.0000 1.0000
26.5000 2961.0000 1.0000
26.5100 2914.0000 1.0000
26.5200 2944.0000 1.0000
26.5300 2840.0000 1.0000
26.5400 2819.0000 1.0000
26.5500 2672.0000 1.0000
26.5600 2610.0000 1.0000
26.5700 2453.0000 1.0000
26.5800 2408.0000 1.0000
26.5900 2279.0000 1.0000
26.6000 2214.0000 1.0000
26.6100 2050.0000 1.0000
26.6200 1922.0000 1.0000
26.6300 1831.0000 1.0000
26.6400 1757.0000 1.0000
26.6500 1563.0000 1.0000
26.6600 1497.0000 1.0000
26.6700 1484.0000 1.0000
26.6800 1448.0000 1.0000
26.6900 1364.0000 1.0000
26.7000 1350.0000 1.0000
26.7100 1273.0000 1.0000
26.7200 1272.0000 1.0000
26.7300 1213.0000 1.0000
26.7400 1149.0000 1.0000
26.7500 1128.0000 1.0000
26.7600 1114.0000 1.0000
26.7700 1075.0000 1.0000
26.7800 1059.0000 1.0000
26.7900 1043.0000 1.0000
26.8000 1053.0000 1.0000
26.8100 1004.0000 1.0000
26.8200 981.0000 1.0000
26.8300 984.0000 1.0000
26.8400 897.0000 1.0000
26.8500 945.0000 1.0000
26.8600 966.0000 1.0000
26.8700 900.0000 1.0000
26.8800 897.0000 1.0000
26.8900 944.0000 1.0000
26.9000 884.0000 1.0000
26.9100 877.0000 1.0000
26.9200 940.0000 1.0000
26.9300 884.0000 1.0000
26.9400 818.0000 1.0000
26.9500 842.0000 1.0000
26.9600 813.0000 1.0000
26.9700 820.0000 1.0000
26.9800 794.0000 1.0000
26.9900 830.0000 1.0000
27.0000 839.0000 1.0000
27.0100 827.0000 1.0000
27.0200 836.0000 1.0000
27.0300 829.0000 1.0000
27.0400 828.0000 1.0000
27.0500 839.0000 1.0000
27.0600 793.0000 1.0000
27.0700 787.0000 1.0000
27.0800 832.0000 1.0000
27.0900 818.0000 1.0000
27.1000 821.0000 1.0000
27.1100 799.0000 1.0000
27.1200 803.0000 1.0000
27.1300 795.0000 1.0000
27.1400 792.0000 1.0000
27.1500 828.0000 1.0000
27.1600 813.0000 1.0000
27.1700 775.0000 1.0000
27.1800 790.0000 1.0000
27.1900 783.0000 1.0000
27.2000 799.0000 1.0000
27.2100 780.0000 1.0000
27.2200 758.0000 1.0000
27.2300 776.0000 1.0000
27.2400 794.0000 1.0000
27.2500 757.0000 1.0000
27.2600 826.0000 1.0000
27.2700 790.0000 1.0000
27.2800 781.0000 1.0000
27.2900 800.0000 1.0000
27.3000 742.0000 1.0000
27.3100 780.0000 1.0000
27.3200 792.0000 1.0000
27.3300 736.0000 1.0000
27.3400 734.0000 1.0000
27.3500 756.0000 1.0000
27.3600 801.0000 1.0000
27.3700 752.0000 1.0000
27.3800 742.0000 1.0000
27.3900 787.0000 1.0000
27.4000 760.0000 1.0000
27.4100 738.0000 1.0000
27.4200 755.0000 1.0000
27.4300 762.0000 1.0000
27.4400 796.0000 1.0000
27.4500 775.0000 1.0000
27.4600 765.0000 1.0000
27.4700 744.0000 1.0000
27.4800 747.0000 1.0000
27.4900 707.0000 1.0000
27.5000 733.0000 1.0000
27.5100 722.0000 1.0000
27.5200 760.0000 1.0000
27.5300 717.0000 1.0000
27.5400 760.0000 1.0000
27.5500 792.0000 1.0000
27.5600 775.0000 1.0000
27.5700 747.0000 1.0000
27.5800 747.0000 1.0000
27.5900 716.0000 1.0000
27.6000 730.0000 1.0000
27.6100 724.0000 1.0000
27.6200 760.0000 1.0000
27.6300 716.0000 1.0000
27.6400 725.0000 1.0000
27.6500 741.0000 1.0000
27.6600 760.0000 1.0000
27.6700 755.0000 1.0000
27.6800 739.0000 1.0000
27.6900 773.0000 1.0000
27.7000 691.0000 1.0000
27.7100 711.0000 1.0000
27.7200 710.0000 1.0000
27.7300 719.0000 1.0000
27.7400 763.0000 1.0000
27.7500 721.0000 1.0000
27.7600 748.0000 1.0000
27.7700 723.0000 1.0000
27.7800 729.0000 1.0000
27.7900 735.0000 1.0000
27.8000 789.0000 1.0000
27.8100 686.0000 1.0000
27.8200 721.0000 1.0000
27.8300 712.0000 1.0000
27.8400 723.0000 1.0000
27.8500 727.0000 1.0000
27.8600 715.0000 1.0000
27.8700 715.0000 1.0000
27.8800 718.0000 1.0000
27.8900 717.0000 1.0000
27.9000 704.0000 1.0000
27.9100 723.0000 1.0000
27.9200 726.0000 1.0000
27.9300 731.0000 1.0000
27.9400 693.0000 1.0000
27.9500 742.0000 1.0000
27.9600 760.0000 1.0000
27.9700 733.0000 1.0000
27.9800 774.0000 1.0000
27.9900 771.0000 1.0000
28.0000 723.0000 1.0000
28.0100 737.0000 1.0000
28.0200 668.0000 1.0000
28.0300 706.0000 1.0000
28.0400 711.0000 1.0000
28.0500 742.0000 1.0000
28.0600 722.0000 1.0000
28.0700 742.0000 1.0000
28.0800 737.0000 1.0000
28.0900 738.0000 1.0000
28.1000 681.0000 1.0000
28.1100 697.0000 1.0000
28.1200 735.0000 1.0000
28.1300 703.0000 1.0000
28.1400 710.0000 1.0000
28.1500 698.0000 1.0000
28.1600 735.0000 1.0000
28.1700 762.0000 1.0000
28.1800 717.0000 1.0000
28.1900 695.0000 1.0000
28.2000 701.0000 1.0000
28.2100 722.0000 1.0000
28.2200 696.0000 1.0000
28.2300 695.0000 1.0000
28.2400 699.0000 1.0000
28.2500 671.0000 1.0000
28.2600 697.0000 1.0000
28.2700 709.0000 1.0000
28.2800 698.0000 1.0000
28.2900 726.0000 1.0000
28.3000 687.0000 1.0000
28.3100 716.0000 1.0000
28.3200 700.0000 1.0000
28.3300 654.0000 1.0000
28.3400 712.0000 1.0000
28.3500 682.0000 1.0000
28.3600 700.0000 1.0000
28.3700 724.0000 1.0000
28.3800 753.0000 1.0000
28.3900 711.0000 1.0000
28.4000 674.0000 1.0000
28.4100 714.0000 1.0000
28.4200 727.0000 1.0000
28.4300 701.0000 1.0000
28.4400 704.0000 1.0000
28.4500 754.0000 1.0000
28.4600 720.0000 1.0000
28.4700 669.0000 1.0000
28.4800 737.0000 1.0000
28.4900 724.0000 1.0000
28.5000 683.0000 1.0000
28.5100 687.0000 1.0000
28.5200 699.0000 1.0000
28.5300 700.0000 1.0000
28.5400 680.0000 1.0000
28.5500 665.0000 1.0000
28.5600 685.0000 1.0000
28.5700 659.0000 1.0000
28.5800 711.0000 1.0000
28.5900 713.0000 1.0000
28.6000 742.0000 1.0000
28.6100 706.0000 1.0000
28.6200 720.0000 1.0000
28.6300 719.0000 1.0000
28.6400 710.0000 1.0000
28.6500 633.0000 1.0000
28.6600 709.0000 1.0000
28.6700 698.0000 1.0000
28.6800 723.0000 1.0000
28.6900 687.0000 1.0000
28.7000 697.0000 1.0000
28.7100 737.0000 1.0000
28.7200 680.0000 1.0000
28.7300 681.0000 1.0000
28.7400 724.0000 1.0000
28.7500 706.0000 1.0000
28.7600 674.0000 1.0000
28.7700 709.0000 1.0000
28.7800 670.0000 1.0000
28.7900 729.0000 1.0000
28.8000 727.0000 1.0000
28.8100 706.0000 1.0000
28.8200 656.0000 1.0000
28.8300 639.0000 1.0000
28.8400 715.0000 1.0000
28.8500 676.0000 1.0000
28.8600 676.0000 1.0000
28.8700 668.0000 1.0000
28.8800 692.0000 1.0000
28.8900 689.0000 1.0000
28.9000 677.0000 1.0000
28.9100 652.0000 1.0000
28.9200 699.0000 1.0000
28.9300 685.0000 1.0000
28.9400 663.0000 1.0000
28.9500 660.0000 1.0000
28.9600 699.0000 1.0000
28.9700 707.0000 1.0000
28.9800 731.0000 1.0000
28.9900 700.0000 1.0000
29.0000 703.0000 1.0000
29.0100 662.0000 1.0000
29.0200 658.0000 1.0000
29.0300 706.0000 1.0000
29.0400 699.0000 1.0000
29.0500 688.0000 1.0000
29.0600 670.0000 1.0000
29.0700 672.0000 1.0000
29.0800 638.0000 1.0000
29.0900 639.0000 1.0000
29.1000 684.0000 1.0000
29.1100 673.0000 1.0000
29.1200 720.0000 1.0000
29.1300 637.0000 1.0000
29.1400 679.0000 1.0000
29.1500 661.0000 1.0000
29.1600 678.0000 1.0000
29.1700 668.0000 1.0000
29.1800 706.0000 1.0000
29.1900 669.0000 1.0000
29.2000 666.0000 1.0000
29.2100 637.0000 1.0000
29.2200 664.0000 1.0000
29.2300 671.0000 1.0000
29.2400 649.0000 1.0000
29.2500 667.0000 1.0000
29.2600 708.0000 1.0000
29.2700 695.0000 1.0000
29.2800 676.0000 1.0000
29.2900 650.0000 1.0000
29.3000 665.0000 1.0000
29.3100 644.0000 1.0000
29.3200 697.0000 1.0000
29.3300 666.0000 1.0000
29.3400 671.0000 1.0000
29.3500 645.0000 1.0000
29.3600 641.0000 1.0000
29.3700 679.0000 1.0000
29.3800 658.0000 1.0000
29.3900 646.0000 1.0000
29.4000 658.0000 1.0000
29.4100 671.0000 1.0000
29.4200 689.0000 1.0000
29.4300 682.0000 1.0000
29.4400 674.0000 1.0000
29.4500 663.0000 1.0000
29.4600 665.0000 1.0000
29.4700 653.0000 1.0000
29.4800 697.0000 1.0000
29.4900 715.0000 1.0000
29.5000 701.0000 1.0000
29.5100 661.0000 1.0000
29.5200 692.0000 1.0000
29.5300 660.0000 1.0000
29.5400 690.0000 1.0000
29.5500 650.0000 1.0000
29.5600 656.0000 1.0000
29.5700 660.0000 1.0000
29.5800 675.0000 1.0000
29.5900 671.0000 1.0000
29.6000 678.0000 1.0000
29.6100 632.0000 1.0000
29.6200 651.0000 1.0000
29.6300 700.0000 1.0000
29.6400 683.0000 1.0000
29.6500 634.0000 1.0000
29.6600 633.0000 1.0000
29.6700 683.0000 1.0000
29.6800 658.0000 1.0000
29.6900 667.0000 1.0000
29.7000 688.0000 1.0000
29.7100 691.0000 1.0000
29.7200 669.0000 1.0000
29.7300 675.0000 1.0000
29.7400 639.0000 1.0000
29.7500 666.0000 1.0000
29.7600 686.0000 1.0000
29.7700 681.0000 1.0000
29.7800 690.0000 1.0000
29.7900 674.0000 1.0000
29.8000 666.0000 1.0000
29.8100 642.0000 1.0000
29.8200 632.0000 1.0000
29.8300 657.0000 1.0000
29.8400 670.0000 1.0000
29.8500 692.0000 1.0000
29.8600 661.0000 1.0000
29.8700 627.0000 1.0000
29.8800 643.0000 1.0000
29.8900 640.0000 1.0000
29.9000 618.0000 1.0000
29.9100 633.0000 1.0000
29.9200 701.0000 1.0000
29.9300 656.0000 1.0000
29.9400 651.0000 1.0000
29.9500 651.0000 1.0000
29.9600 612.0000 1.0000
29.9700 662.0000 1.0000
29.9800 663.0000 1.0000
29.9900 646.0000 1.0000
30.0000 647.0000 1.0000
30.0100 644.0000 1.0000
30.0200 674.0000 1.0000
30.0300 661.0000 1.0000
30.0400 678.0000 1.0000
30.0500 636.0000 1.0000
30.0600 664.0000 1.0000
30.0700 636.0000 1.0000
30.0800 630.0000 1.0000
30.0900 623.0000 1.0000
30.1000 640.0000 1.0000
30.1100 646.0000 1.0000
30.1200 641.0000 1.0000
30.1300 603.0000 1.0000
30.1400 668.0000 1.0000
30.1500 680.0000 1.0000
30.1600 666.0000 1.0000
30.1700 646.0000 1.0000
30.1800 640.0000 1.0000
30.1900 657.0000 1.0000
30.2000 633.0000 1.0000
30.2100 667.0000 1.0000
30.2200 633.0000 1.0000
30.2300 634.0000 1.0000
30.2400 679.0000 1.0000
30.2500 664.0000 1.0000
30.2600 627.0000 1.0000
30.2700 654.0000 1.0000
30.2800 690.0000 1.0000
30.2900 688.0000 1.0000
30.3000 691.0000 1.0000
30.3100 607.0000 1.0000
30.3200 599.0000 1.0000
30.3300 652.0000 1.0000
30.3400 653.0000 1.0000
30.3500 662.0000 1.0000
30.3600 640.0000 1.0000
30.3700 627.0000 1.0000
30.3800 627.0000 1.0000
30.3900 660.0000 1.0000
30.4000 657.0000 1.0000
30.4100 645.0000 1.0000
30.4200 618.0000 1.0000
30.4300 608.0000 1.0000
30.4400 656.0000 1.0000
30.4500 619.0000 1.0000
30.4600 630.0000 1.0000
30.4700 637.0000 1.0000
30.4800 605.0000 1.0000
30.4900 672.0000 1.0000
30.5000 631.0000 1.0000
30.5100 611.0000 1.0000
30.5200 614.0000 1.0000
30.5300 653.0000 1.0000
30.5400 645.0000 1.0000
30.5500 659.0000 1.0000
30.5600 625.0000 1.0000
30.5700 667.0000 1.0000
30.5800 650.0000 1.0000
30.5900 656.0000 1.0000
30.6000 662.0000 1.0000
30.6100 608.0000 1.0000
30.6200 676.0000 1.0000
30.6300 637.0000 1.0000
30.6400 655.0000 1.0000
30.6500 599.0000 1.0000
30.6600 650.0000 1.0000
30.6700 649.0000 1.0000
30.6800 652.0000 1.0000
30.6900 646.0000 1.0000
30.7000 654.0000 1.0000
30.7100 628.0000 1.0000
30.7200 698.0000 1.0000
30.7300 644.0000 1.0000
30.7400 641.0000 1.0000
30.7500 655.0000 1.0000
30.7600 665.0000 1.0000
30.7700 619.0000 1.0000
30.7800 624.0000 1.0000
30.7900 648.0000 1.0000
30.8000 616.0000 1.0000
30.8100 584.0000 1.0000
30.8200 607.0000 1.0000
30.8300 633.0000 1.0000
30.8400 618.0000 1.0000
30.8500 636.0000 1.0000
30.8600 615.0000 1.0000
30.8700 651.0000 1.0000
30.8800 562.0000 1.0000
30.8900 623.0000 1.0000
30.9000 628.0000 1.0000
30.9100 572.0000 1.0000
30.9200 624.0000 1.0000
30.9300 627.0000 1.0000
30.9400 637.0000 1.0000
30.9500 605.0000 1.0000
30.9600 615.0000 1.0000
30.9700 604.0000 1.0000
30.9800 603.0000 1.0000
30.9900 618.0000 1.0000
31.0000 640.0000 1.0000
31.0100 600.0000 1.0000
31.0200 645.0000 1.0000
31.0300 629.0000 1.0000
31.0400 623.0000 1.0000
31.0500 607.0000 1.0000
31.0600 586.0000 1.0000
31.0700 638.0000 1.0000
31.0800 679.0000 1.0000
31.0900 623.0000 1.0000
31.1000 611.0000 1.0000
31.1100 617.0000 1.0000
31.1200 631.0000 1.0000
31.1300 656.0000 1.0000
31.1400 626.0000 1.0000
31.1500 646.0000 1.0000
31.1600 607.0000 1.0000
31.1700 628.0000 1.0000
31.1800 681.0000 1.0000
31.1900 652.0000 1.0000
31.2000 613.0000 1.0000
31.2100 622.0000 1.0000
31.2200 670.0000 1.0000
31.2300 598.0000 1.0000
31.2400 654.0000 1.0000
31.2500 651.0000 1.0000
31.2600 634.0000 1.0000
31.2700 638.0000 1.0000
31.2800 639.0000 1.0000
31.2900 631.0000 1.0000
31.3000 632.0000 1.0000
31.3100 622.0000 1.0000
31.3200 668.0000 1.0000
31.3300 651.0000 1.0000
31.3400 624.0000 1.0000
31.3500 599.0000 1.0000
31.3600 638.0000 1.0000
31.3700 625.0000 1.0000
31.3800 651.0000 1.0000
31.3900 622.0000 1.0000
31.4000 644.0000 1.0000
31.4100 618.0000 1.0000
31.4200 610.0000 1.0000
31.4300 625.0000 1.0000
31.4400 633.0000 1.0000
31.4500 628.0000 1.0000
31.4600 599.0000 1.0000
31.4700 595.0000 1.0000
31.4800 642.0000 1.0000
31.4900 616.0000 1.0000
31.5000 585.0000 1.0000
31.5100 654.0000 1.0000
31.5200 588.0000 1.0000
31.5300 632.0000 1.0000
31.5400 626.0000 1.0000
31.5500 648.0000 1.0000
31.5600 626.0000 1.0000
31.5700 644.0000 1.0000
31.5800 586.0000 1.0000
31.5900 617.0000 1.0000
31.6000 643.0000 1.0000
31.6100 630.0000 1.0000
31.6200 625.0000 1.0000
31.6300 640.0000 1.0000
31.6400 590.0000 1.0000
31.6500 593.0000 1.0000
31.6600 616.0000 1.0000
31.6700 619.0000 1.0000
31.6800 578.0000 1.0000
31.6900 580.0000 1.0000
31.7000 596.0000 1.0000
31.7100 598.0000 1.0000
31.7200 594.0000 1.0000
31.7300 582.0000 1.0000
31.7400 614.0000 1.0000
31.7500 595.0000 1.0000
31.7600 578.0000 1.0000
31.7700 603.0000 1.0000
31.7800 603.0000 1.0000
31.7900 584.0000 1.0000
31.8000 602.0000 1.0000
31.8100 597.0000 1.0000
31.8200 590.0000 1.0000
31.8300 634.0000 1.0000
31.8400 553.0000 1.0000
31.8500 602.0000 1.0000
31.8600 573.0000 1.0000
31.8700 587.0000 1.0000
31.8800 594.0000 1.0000
31.8900 639.0000 1.0000
31.9000 558.0000 1.0000
31.9100 616.0000 1.0000
31.9200 605.0000 1.0000
31.9300 594.0000 1.0000
31.9400 610.0000 1.0000
31.9500 606.0000 1.0000
31.9600 620.0000 1.0000
31.9700 616.0000 1.0000
31.9800 581.0000 1.0000
31.9900 602.0000 1.0000
32.0000 619.0000 1.0000
32.0100 604.0000 1.0000
32.0200 600.0000 1.0000
32.0300 601.0000 1.0000
32.0400 625.0000 1.0000
32.0500 569.0000 1.0000
32.0600 586.0000 1.0000
32.0700 612.0000 1.0000
32.0800 622.0000 1.0000
32.0900 585.0000 1.0000
32.1000 573.0000 1.0000
32.1100 603.0000 1.0000
32.1200 583.0000 1.0000
32.1300 575.0000 1.0000
32.1400 599.0000 1.0000
32.1500 604.0000 1.0000
32.1600 604.0000 1.0000
32.1700 650.0000 1.0000
32.1800 598.0000 1.0000
32.1900 560.0000 1.0000
32.2000 542.0000 1.0000
32.2100 567.0000 1.0000
32.2200 583.0000 1.0000
32.2300 587.0000 1.0000
32.2400 638.0000 1.0000
32.2500 563.0000 1.0000
32.2600 571.0000 1.0000
32.2700 608.0000 1.0000
32.2800 580.0000 1.0000
32.2900 596.0000 1.0000
32.3000 589.0000 1.0000
32.3100 591.0000 1.0000
32.3200 601.0000 1.0000
32.3300 575.0000 1.0000
32.3400 587.0000 1.0000
32.3500 583.0000 1.0000
32.3600 600.0000 1.0000
32.3700 569.0000 1.0000
32.3800 583.0000 1.0000
32.3900 580.0000 1.0000
32.4000 588.0000 1.0000
32.4100 562.0000 1.0000
32.4200 551.0000 1.0000
32.4300 568.0000 1.0000
32.4400 625.0000 1.0000
32.4500 592.0000 1.0000
32.4600 624.0000 1.0000
32.4700 633.0000 1.0000
32.4800 591.0000 1.0000
32.4900 589.0000 1.0000
32.5000 597.0000 1.0000
32.5100 660.0000 1.0000
32.5200 581.0000 1.0000
32.5300 590.0000 1.0000
32.5400 590.0000 1.0000
32.5500 552.0000 1.0000
32.5600 589.0000 1.0000
32.5700 616.0000 1.0000
32.5800 563.0000 1.0000
32.5900 579.0000 1.0000
32.6000 584.0000 1.0000
32.6100 582.0000 1.0000
32.6200 570.0000 1.0000
32.6300 560.0000 1.0000
32.6400 580.0000 1.0000
32.6500 632.0000 1.0000
32.6600 587.0000 1.0000
32.6700 594.0000 1.0000
32.6800 607.0000 1.0000
32.6900 581.0000 1.0000
32.7000 567.0000 1.0000
32.7100 550.0000 1.0000
32.7200 587.0000 1.0000
32.7300 603.0000 1.0000
32.7400 540.0000 1.0000
32.7500 553.0000 1.0000
32.7600 580.0000 1.0000
32.7700 616.0000 1.0000
32.7800 602.0000 1.0000
32.7900 610.0000 1.0000
32.8000 561.0000 1.0000
32.8100 568.0000 1.0000
32.8200 577.0000 1.0000
32.8300 559.0000 1.0000
32.8400 612.0000 1.0000
32.8500 622.0000 1.0000
32.8600 577.0000 1.0000
32.8700 582.0000 1.0000
32.8800 573.0000 1.0000
32.8900 583.0000 1.0000
32.9000 593.0000 1.0000
32.9100 595.0000 1.0000
32.9200 627.0000 1.0000
32.9300 619.0000 1.0000
32.9400 604.0000 1.0000
32.9500 590.0000 1.0000
32.9600 588.0000 1.0000
32.9700 599.0000 1.0000
32.9800 602.0000 1.0000
32.9900 593.0000 1.0000
33.0000 614.0000 1.0000
33.0100 612.0000 1.0000
33.0200 634.0000 1.0000
33.0300 623.0000 1.0000
33.0400 610.0000 1.0000
33.0500 678.0000 1.0000
33.0600 637.0000 1.0000
33.0700 641.0000 1.0000
33.0800 656.0000 1.0000
33.0900 621.0000 1.0000
33.1000 700.0000 1.0000
33.1100 717.0000 1.0000
33.1200 729.0000 1.0000
33.1300 739.0000 1.0000
33.1400 709.0000 1.0000
33.1500 712.0000 1.0000
33.1600 742.0000 1.0000
33.1700 762.0000 1.0000
33.1800 763.0000 1.0000
33.1900 699.0000 1.0000
33.2000 735.0000 1.0000
33.2100 713.0000 1.0000
33.2200 668.0000 1.0000
33.2300 648.0000 1.0000
33.2400 717.0000 1.0000
33.2500 696.0000 1.0000
33.2600 637.0000 1.0000
33.2700 649.0000 1.0000
33.2800 680.0000 1.0000
33.2900 668.0000 1.0000
33.3000 665.0000 1.0000
33.3100 616.0000 1.0000
33.3200 658.0000 1.0000
33.3300 645.0000 1.0000
33.3400 655.0000 1.0000
33.3500 642.0000 1.0000
33.3600 663.0000 1.0000
33.3700 655.0000 1.0000
33.3800 667.0000 1.0000
33.3900 625.0000 1.0000
33.4000 624.0000 1.0000
33.4100 652.0000 1.0000
33.4200 690.0000 1.0000
33.4300 658.0000 1.0000
33.4400 685.0000 1.0000
33.4500 690.0000 1.0000
33.4600 691.0000 1.0000
33.4700 686.0000 1.0000
33.4800 700.0000 1.0000
33.4900 737.0000 1.0000
33.5000 737.0000 1.0000
33.5100 748.0000 1.0000
33.5200 779.0000 1.0000
33.5300 807.0000 1.0000
33.5400 816.0000 1.0000
33.5500 860.0000 1.0000
33.5600 862.0000 1.0000
33.5700 975.0000 1.0000
33.5800 920.0000 1.0000
33.5900 993.0000 1.0000
33.6000 1050.0000 1.0000
33.6100 1056.0000 1.0000
33.6200 1078.0000 1.0000
33.6300 1125.0000 1.0000
33.6400 1159.0000 1.0000
33.6500 1216.0000 1.0000
33.6600 1246.0000 1.0000
33.6700 1310.0000 1.0000
33.6800 1392.0000 1.0000
33.6900 1382.0000 1.0000
33.7000 1394.0000 1.0000
33.7100 1398.0000 1.0000
33.7200 1499.0000 1.0000
33.7300 1416.0000 1.0000
33.7400 1372.0000 1.0000
33.7500 1395.0000 1.0000
33.7600 1313.0000 1.0000
33.7700 1352.0000 1.0000
33.7800 1272.0000 1.0000
33.7900 1234.0000 1.0000
33.8000 1195.0000 1.0000
33.8100 1190.0000 1.0000
33.8200 1133.0000 1.0000
33.8300 1084.0000 1.0000
33.8400 1037.0000 1.0000
33.8500 921.0000 1.0000
33.8600 898.0000 1.0000
33.8700 853.0000 1.0000
33.8800 874.0000 1.0000
33.8900 864.0000 1.0000
33.9000 782.0000 1.0000
33.9100 759.0000 1.0000
33.9200 745.0000 1.0000
33.9300 738.0000 1.0000
33.9400 727.0000 1.0000
33.9500 747.0000 1.0000
33.9600 780.0000 1.0000
33.9700 681.0000 1.0000
33.9800 746.0000 1.0000
33.9900 646.0000 1.0000
34.0000 670.0000 1.0000
34.0100 672.0000 1.0000
34.0200 614.0000 1.0000
34.0300 600.0000 1.0000
34.0400 655.0000 1.0000
34.0500 652.0000 1.0000
34.0600 614.0000 1.0000
34.0700 634.0000 1.0000
34.0800 606.0000 1.0000
34.0900 621.0000 1.0000
34.1000 636.0000 1.0000
34.1100 643.0000 1.0000
34.1200 638.0000 1.0000
34.1300 582.0000 1.0000
34.1400 584.0000 1.0000
34.1500 553.0000 1.0000
34.1600 557.0000 1.0000
34.1700 572.0000 1.0000
34.1800 570.0000 1.0000
34.1900 574.0000 1.0000
34.2000 578.0000 1.0000
34.2100 547.0000 1.0000
34.2200 577.0000 1.0000
34.2300 589.0000 1.0000
34.2400 568.0000 1.0000
34.2500 559.0000 1.0000
34.2600 572.0000 1.0000
34.2700 562.0000 1.0000
34.2800 550.0000 1.0000
34.2900 550.0000 1.0000
34.3000 556.0000 1.0000
34.3100 537.0000 1.0000
34.3200 546.0000 1.0000
34.3300 564.0000 1.0000
34.3400 537.0000 1.0000
34.3500 548.0000 1.0000
34.3600 500.0000 1.0000
34.3700 520.0000 1.0000
34.3800 497.0000 1.0000
34.3900 539.0000 1.0000
34.4000 545.0000 1.0000
34.4100 549.0000 1.0000
34.4200 551.0000 1.0000
34.4300 541.0000 1.0000
34.4400 528.0000 1.0000
34.4500 537.0000 1.0000
34.4600 527.0000 1.0000
34.4700 548.0000 1.0000
34.4800 561.0000 1.0000
34.4900 542.0000 1.0000
34.5000 525.0000 1.0000
34.5100 562.0000 1.0000
34.5200 532.0000 1.0000
34.5300 526.0000 1.0000
34.5400 503.0000 1.0000
34.5500 509.0000 1.0000
34.5600 523.0000 1.0000
34.5700 522.0000 1.0000
34.5800 547.0000 1.0000
34.5900 535.0000 1.0000
34.6000 511.0000 1.0000
34.6100 509.0000 1.0000
34.6200 481.0000 1.0000
34.6300 531.0000 1.0000
34.6400 523.0000 1.0000
34.6500 543.0000 1.0000
34.6600 523.0000 1.0000
34.6700 499.0000 1.0000
34.6800 512.0000 1.0000
34.6900 466.0000 1.0000
34.7000 505.0000 1.0000
34.7100 526.0000 1.0000
34.7200 527.0000 1.0000
34.7300 522.0000 1.0000
34.7400 504.0000 1.0000
34.7500 545.0000 1.0000
34.7600 533.0000 1.0000
34.7700 515.0000 1.0000
34.7800 506.0000 1.0000
34.7900 544.0000 1.0000
34.8000 540.0000 1.0000
34.8100 514.0000 1.0000
34.8200 517.0000 1.0000
34.8300 529.0000 1.0000
34.8400 482.0000 1.0000
34.8500 495.0000 1.0000
34.8600 536.0000 1.0000
34.8700 524.0000 1.0000
34.8800 527.0000 1.0000
34.8900 518.0000 1.0000
34.9000 515.0000 1.0000
34.9100 499.0000 1.0000
34.9200 509.0000 1.0000
34.9300 487.0000 1.0000
34.9400 470.0000 1.0000
34.9500 524.0000 1.0000
34.9600 526.0000 1.0000
34.9700 506.0000 1.0000
34.9800 490.0000 1.0000
34.9900 529.0000 1.0000
35.0000 504.0000 1.0000
35.0100 502.0000 1.0000
35.0200 495.0000 1.0000
35.0300 480.0000 1.0000
35.0400 483.0000 1.0000
35.0500 494.0000 1.0000
35.0600 520.0000 1.0000
35.0700 481.0000 1.0000
35.0800 554.0000 1.0000
35.0900 528.0000 1.0000
35.1000 520.0000 1.0000
35.1100 508.0000 1.0000
35.1200 523.0000 1.0000
35.1300 479.0000 1.0000
35.1400 497.0000 1.0000
35.1500 467.0000 1.0000
35.1600 500.0000 1.0000
35.1700 456.0000 1.0000
35.1800 502.0000 1.0000
35.1900 506.0000 1.0000
35.2000 487.0000 1.0000
35.2100 512.0000 1.0000
35.2200 510.0000 1.0000
35.2300 501.0000 1.0000
35.2400 521.0000 1.0000
35.2500 506.0000 1.0000
35.2600 510.0000 1.0000
35.2700 476.0000 1.0000
35.2800 526.0000 1.0000
35.2900 527.0000 1.0000
35.3000 493.0000 1.0000
35.3100 516.0000 1.0000
35.3200 510.0000 1.0000
35.3300 502.0000 1.0000
35.3400 523.0000 1.0000
35.3500 517.0000 1.0000
35.3600 536.0000 1.0000
35.3700 539.0000 1.0000
35.3800 553.0000 1.0000
35.3900 514.0000 1.0000
35.4000 540.0000 1.0000
35.4100 549.0000 1.0000
35.4200 534.0000 1.0000
35.4300 563.0000 1.0000
35.4400 581.0000 1.0000
35.4500 568.0000 1.0000
35.4600 604.0000 1.0000
35.4700 623.0000 1.0000
35.4800 626.0000 1.0000
35.4900 627.0000 1.0000
35.5000 651.0000 1.0000
35.5100 640.0000 1.0000
35.5200 690.0000 1.0000
35.5300 709.0000 1.0000
35.5400 782.0000 1.0000
35.5500 787.0000 1.0000
35.5600 849.0000 1.0000
35.5700 851.0000 1.0000
35.5800 894.0000 1.0000
35.5900 947.0000 1.0000
35.6000 951.0000 1.0000
35.6100 1000.0000 1.0000
35.6200 1014.0000 1.0000
35.6300 989.0000 1.0000
35.6400 1004.0000 1.0000
35.6500 1004.0000 1.0000
35.6600 989.0000 1.0000
35.6700 976.0000 1.0000
35.6800 931.0000 1.0000
35.6900 902.0000 1.0000
35.7000 867.0000 1.0000
35.7100 806.0000 1.0000
35.7200 784.0000 1.0000
35.7300 830.0000 1.0000
35.7400 762.0000 1.0000
35.7500 723.0000 1.0000
35.7600 725.0000 1.0000
35.7700 677.0000 1.0000
35.7800 627.0000 1.0000
35.7900 592.0000 1.0000
35.8000 599.0000 1.0000
35.8100 535.0000 1.0000
35.8200 598.0000 1.0000
35.8300 570.0000 1.0000
35.8400 543.0000 1.0000
35.8500 523.0000 1.0000
35.8600 541.0000 1.0000
35.8700 505.0000 1.0000
35.8800 493.0000 1.0000
35.8900 512.0000 1.0000
35.9000 501.0000 1.0000
35.9100 515.0000 1.0000
35.9200 487.0000 1.0000
35.9300 501.0000 1.0000
35.9400 486.0000 1.0000
35.9500 485.0000 1.0000
35.9600 454.0000 1.0000
35.9700 489.0000 1.0000
35.9800 472.0000 1.0000
35.9900 472.0000 1.0000
36.0000 495.0000 1.0000
36.0100 515.0000 1.0000
36.0200 515.0000 1.0000
36.0300 513.0000 1.0000
36.0400 462.0000 1.0000
36.0500 457.0000 1.0000
36.0600 442.0000 1.0000
36.0700 475.0000 1.0000
36.0800 480.0000 1.0000
36.0900 484.0000 1.0000
36.1000 489.0000 1.0000
36.1100 464.0000 1.0000
36.1200 471.0000 1.0000
36.1300 450.0000 1.0000
36.1400 459.0000 1.0000
36.1500 481.0000 1.0000
36.1600 450.0000 1.0000
36.1700 493.0000 1.0000
36.1800 494.0000 1.0000
36.1900 482.0000 1.0000
36.2000 479.0000 1.0000
36.2100 493.0000 1.0000
36.2200 476.0000 1.0000
36.2300 464.0000 1.0000
36.2400 462.0000 1.0000
36.2500 488.0000 1.0000
36.2600 442.0000 1.0000
36.2700 433.0000 1.0000
36.2800 463.0000 1.0000
36.2900 441.0000 1.0000
36.3000 435.0000 1.0000
36.3100 504.0000 1.0000
36.3200 485.0000 1.0000
36.3300 448.0000 1.0000
36.3400 426.0000 1.0000
36.3500 444.0000 1.0000
36.3600 449.0000 1.0000
36.3700 437.0000 1.0000
36.3800 438.0000 1.0000
36.3900 468.0000 1.0000
36.4000 467.0000 1.0000
36.4100 476.0000 1.0000
36.4200 437.0000 1.0000
36.4300 457.0000 1.0000
36.4400 444.0000 1.0000
36.4500 472.0000 1.0000
36.4600 448.0000 1.0000
36.4700 466.0000 1.0000
36.4800 483.0000 1.0000
36.4900 462.0000 1.0000
36.5000 433.0000 1.0000
36.5100 463.0000 1.0000
36.5200 466.0000 1.0000
36.5300 467.0000 1.0000
36.5400 467.0000 1.0000
36.5500 465.0000 1.0000
36.5600 475.0000 1.0000
36.5700 468.0000 1.0000
36.5800 464.0000 1.0000
36.5900 477.0000 1.0000
36.6000 459.0000 1.0000
36.6100 457.0000 1.0000
36.6200 480.0000 1.0000
36.6300 459.0000 1.0000
36.6400 476.0000 1.0000
36.6500 491.0000 1.0000
36.6600 485.0000 1.0000
36.6700 455.0000 1.0000
36.6800 459.0000 1.0000
36.6900 482.0000 1.0000
36.7000 448.0000 1.0000
36.7100 452.0000 1.0000
36.7200 468.0000 1.0000
36.7300 448.0000 1.0000
36.7400 444.0000 1.0000
36.7500 485.0000 1.0000
36.7600 462.0000 1.0000
36.7700 425.0000 1.0000
36.7800 458.0000 1.0000
36.7900 490.0000 1.0000
36.8000 450.0000 1.0000
36.8100 489.0000 1.0000
36.8200 445.0000 1.0000
36.8300 482.0000 1.0000
36.8400 476.0000 1.0000
36.8500 466.0000 1.0000
36.8600 473.0000 1.0000
36.8700 481.0000 1.0000
36.8800 448.0000 1.0000
36.8900 462.0000 1.0000
36.9000 428.0000 1.0000
36.9100 432.0000 1.0000
36.9200 459.0000 1.0000
36.9300 470.0000 1.0000
36.9400 468.0000 1.0000
36.9500 455.0000 1.0000
36.9600 470.0000 1.0000
36.9700 444.0000 1.0000
36.9800 478.0000 1.0000
36.9900 455.0000 1.0000
37.0000 467.0000 1.0000
37.0100 455.0000 1.0000
37.0200 462.0000 1.0000
37.0300 470.0000 1.0000
37.0400 472.0000 1.0000
37.0500 460.0000 1.0000
37.0600 416.0000 1.0000
37.0700 455.0000 1.0000
37.0800 484.0000 1.0000
37.0900 495.0000 1.0000
37.1000 459.0000 1.0000
37.1100 446.0000 1.0000
37.1200 454.0000 1.0000
37.1300 475.0000 1.0000
37.1400 462.0000 1.0000
37.1500 479.0000 1.0000
37.1600 504.0000 1.0000
37.1700 505.0000 1.0000
37.1800 495.0000 1.0000
37.1900 482.0000 1.0000
37.2000 478.0000 1.0000
37.2100 509.0000 1.0000
37.2200 475.0000 1.0000
37.2300 469.0000 1.0000
37.2400 488.0000 1.0000
37.2500 490.0000 1.0000
37.2600 514.0000 1.0000
37.2700 494.0000 1.0000
37.2800 505.0000 1.0000
37.2900 500.0000 1.0000
37.3000 511.0000 1.0000
37.3100 500.0000 1.0000
37.3200 503.0000 1.0000
37.3300 513.0000 1.0000
37.3400 522.0000 1.0000
37.3500 517.0000 1.0000
37.3600 502.0000 1.0000
37.3700 546.0000 1.0000
37.3800 550.0000 1.0000
37.3900 557.0000 1.0000
37.4000 553.0000 1.0000
37.4100 574.0000 1.0000
37.4200 557.0000 1.0000
37.4300 565.0000 1.0000
37.4400 557.0000 1.0000
37.4500 617.0000 1.0000
37.4600 632.0000 1.0000
37.4700 600.0000 1.0000
37.4800 659.0000 1.0000
37.4900 674.0000 1.0000
37.5000 689.0000 1.0000
37.5100 709.0000 1.0000
37.5200 757.0000 1.0000
37.5300 765.0000 1.0000
37.5400 822.0000 1.0000
37.5500 852.0000 1.0000
37.5600 923.0000 1.0000
37.5700 952.0000 1.0000
37.5800 996.0000 1.0000
37.5900 1036.0000 1.0000
37.6000 1106.0000 1.0000
37.6100 1177.0000 1.0000
37.6200 1239.0000 1.0000
37.6300 1290.0000 1.0000
37.6400 1393.0000 1.0000
37.6500 1459.0000 1.0000
37.6600 1541.0000 1.0000
37.6700 1669.0000 1.0000
37.6800 1815.0000 1.0000
37.6900 1868.0000 1.0000
37.7000 1985.0000 1.0000
37.7100 2076.0000 1.0000
37.7200 2221.0000 1.0000
37.7300 2344.0000 1.0000
37.7400 2398.0000 1.0000
37.7500 2377.0000 1.0000
37.7600 2403.0000 1.0000
37.7700 2402.0000 1.0000
37.7800 2401.0000 1.0000
37.7900 2385.0000 1.0000
37.8000 2460.0000 1.0000
37.8100 2339.0000 1.0000
37.8200 2235.0000 1.0000
37.8300 2160.0000 1.0000
37.8400 2083.0000 1.0000
37.8500 1953.0000 1.0000
37.8600 1887.0000 1.0000
37.8700 1744.0000 1.0000
37.8800 1705.0000 1.0000
37.8900 1658.0000 1.0000
37.9000 1502.0000 1.0000
37.9100 1456.0000 1.0000
37.9200 1366.0000 1.0000
37.9300 1290.0000 1.0000
37.9400 1178.0000 1.0000
37.9500 1147.0000 1.0000
37.9600 1055.0000 1.0000
37.9700 1072.0000 1.0000
37.9800 999.0000 1.0000
37.9900 872.0000 1.0000
38.0000 872.0000 1.0000
38.0100 844.0000 1.0000
38.0200 758.0000 1.0000
38.0300 734.0000 1.0000
38.0400 748.0000 1.0000
38.0500 741.0000 1.0000
38.0600 655.0000 1.0000
38.0700 601.0000 1.0000
38.0800 676.0000 1.0000
38.0900 626.0000 1.0000
38.1000 555.0000 1.0000
38.1100 570.0000 1.0000
38.1200 560.0000 1.0000
38.1300 525.0000 1.0000
38.1400 574.0000 1.0000
38.1500 550.0000 1.0000
38.1600 527.0000 1.0000
38.1700 536.0000 1.0000
38.1800 493.0000 1.0000
38.1900 500.0000 1.0000
38.2000 522.0000 1.0000
38.2100 523.0000 1.0000
38.2200 459.0000 1.0000
38.2300 525.0000 1.0000
38.2400 471.0000 1.0000
38.2500 457.0000 1.0000
38.2600 479.0000 1.0000
38.2700 455.0000 1.0000
38.2800 459.0000 1.0000
38.2900 443.0000 1.0000
38.3000 431.0000 1.0000
38.3100 467.0000 1.0000
38.3200 429.0000 1.0000
38.3300 455.0000 1.0000
38.3400 444.0000 1.0000
38.3500 457.0000 1.0000
38.3600 451.0000 1.0000
38.3700 439.0000 1.0000
38.3800 439.0000 1.0000
38.3900 429.0000 1.0000
38.4000 442.0000 1.0000
38.4100 439.0000 1.0000
38.4200 440.0000 1.0000
38.4300 438.0000 1.0000
38.4400 431.0000 1.0000
38.4500 410.0000 1.0000
38.4600 417.0000 1.0000
38.4700 409.0000 1.0000
38.4800 415.0000 1.0000
38.4900 456.0000 1.0000
38.5000 411.0000 1.0000
38.5100 415.0000 1.0000
38.5200 441.0000 1.0000
38.5300 441.0000 1.0000
38.5400 420.0000 1.0000
38.5500 410.0000 1.0000
38.5600 436.0000 1.0000
38.5700 444.0000 1.0000
38.5800 430.0000 1.0000
38.5900 440.0000 1.0000
38.6000 430.0000 1.0000
38.6100 433.0000 1.0000
38.6200 460.0000 1.0000
38.6300 423.0000 1.0000
38.6400 406.0000 1.0000
38.6500 443.0000 1.0000
38.6600 418.0000 1.0000
38.6700 432.0000 1.0000
38.6800 433.0000 1.0000
38.6900 418.0000 1.0000
38.7000 427.0000 1.0000
38.7100 420.0000 1.0000
38.7200 428.0000 1.0000
38.7300 417.0000 1.0000
38.7400 399.0000 1.0000
38.7500 431.0000 1.0000
38.7600 458.0000 1.0000
38.7700 468.0000 1.0000
38.7800 461.0000 1.0000
38.7900 453.0000 1.0000
38.8000 464.0000 1.0000
38.8100 461.0000 1.0000
38.8200 448.0000 1.0000
38.8300 435.0000 1.0000
38.8400 427.0000 1.0000
38.8500 436.0000 1.0000
38.8600 432.0000 1.0000
38.8700 441.0000 1.0000
38.8800 448.0000 1.0000
38.8900 425.0000 1.0000
38.9000 411.0000 1.0000
38.9100 416.0000 1.0000
38.9200 443.0000 1.0000
38.9300 430.0000 1.0000
38.9400 434.0000 1.0000
38.9500 442.0000 1.0000
38.9600 449.0000 1.0000
38.9700 402.0000 1.0000
38.9800 397.0000 1.0000
38.9900 420.0000 1.0000
39.0000 438.0000 1.0000
39.0100 440.0000 1.0000
39.0200 395.0000 1.0000
39.0300 423.0000 1.0000
39.0400 428.0000 1.0000
39.0500 415.0000 1.0000
39.0600 389.0000 1.0000
39.0700 435.0000 1.0000
39.0800 399.0000 1.0000
39.0900 381.0000 1.0000
39.1000 375.0000 1.0000
39.1100 421.0000 1.0000
39.1200 457.0000 1.0000
39.1300 411.0000 1.0000
39.1400 395.0000 1.0000
39.1500 426.0000 1.0000
39.1600 433.0000 1.0000
39.1700 439.0000 1.0000
39.1800 414.0000 1.0000
39.1900 430.0000 1.0000
39.2000 427.0000 1.0000
39.2100 444.0000 1.0000
39.2200 361.0000 1.0000
39.2300 433.0000 1.0000
39.2400 398.0000 1.0000
39.2500 429.0000 1.0000
39.2600 395.0000 1.0000
39.2700 415.0000 1.0000
39.2800 380.0000 1.0000
39.2900 408.0000 1.0000
39.3000 388.0000 1.0000
39.3100 425.0000 1.0000
39.3200 434.0000 1.0000
39.3300 405.0000 1.0000
39.3400 413.0000 1.0000
39.3500 386.0000 1.0000
39.3600 376.0000 1.0000
39.3700 394.0000 1.0000
39.3800 410.0000 1.0000
39.3900 392.0000 1.0000
39.4000 412.0000 1.0000
39.4100 388.0000 1.0000
39.4200 370.0000 1.0000
39.4300 380.0000 1.0000
39.4400 412.0000 1.0000
39.4500 402.0000 1.0000
39.4600 406.0000 1.0000
39.4700 391.0000 1.0000
39.4800 374.0000 1.0000
39.4900 400.0000 1.0000
39.5000 378.0000 1.0000
39.5100 363.0000 1.0000
39.5200 398.0000 1.0000
39.5300 405.0000 1.0000
39.5400 406.0000 1.0000
39.5500 400.0000 1.0000
39.5600 392.0000 1.0000
39.5700 402.0000 1.0000
39.5800 383.0000 1.0000
39.5900 408.0000 1.0000
39.6000 368.0000 1.0000
39.6100 394.0000 1.0000
39.6200 371.0000 1.0000
39.6300 404.0000 1.0000
39.6400 400.0000 1.0000
39.6500 386.0000 1.0000
39.6600 408.0000 1.0000
39.6700 395.0000 1.0000
39.6800 385.0000 1.0000
39.6900 417.0000 1.0000
39.7000 389.0000 1.0000
39.7100 407.0000 1.0000
39.7200 390.0000 1.0000
39.7300 406.0000 1.0000
39.7400 403.0000 1.0000
39.7500 392.0000 1.0000
39.7600 384.0000 1.0000
39.7700 363.0000 1.0000
39.7800 376.0000 1.0000
39.7900 383.0000 1.0000
39.8000 397.0000 1.0000
39.8100 414.0000 1.0000
39.8200 388.0000 1.0000
39.8300 375.0000 1.0000
39.8400 374.0000 1.0000
39.8500 378.0000 1.0000
39.8600 378.0000 1.0000
39.8700 385.0000 1.0000
39.8800 356.0000 1.0000
39.8900 384.0000 1.0000
39.9000 362.0000 1.0000
39.9100 381.0000 1.0000
39.9200 384.0000 1.0000
39.9300 364.0000 1.0000
39.9400 397.0000 1.0000
39.9500 421.0000 1.0000
39.9600 372.0000 1.0000
39.9700 388.0000 1.0000
39.9800 360.0000 1.0000
39.9900 343.0000 1.0000
40.0000 394.0000 1.0000
40.0100 400.0000 1.0000
40.0200 365.0000 1.0000
40.0300 338.0000 1.0000
40.0400 346.0000 1.0000
40.0500 405.0000 1.0000
40.0600 422.0000 1.0000
40.0700 412.0000 1.0000
40.0800 399.0000 1.0000
40.0900 365.0000 1.0000
40.1000 407.0000 1.0000
40.1100 354.0000 1.0000
40.1200 387.0000 1.0000
40.1300 361.0000 1.0000
40.1400 406.0000 1.0000
40.1500 399.0000 1.0000
40.1600 377.0000 1.0000
40.1700 348.0000 1.0000
40.1800 393.0000 1.0000
40.1900 391.0000 1.0000
40.2000 362.0000 1.0000
40.2100 404.0000 1.0000
40.2200 388.0000 1.0000
40.2300 391.0000 1.0000
40.2400 379.0000 1.0000
40.2500 368.0000 1.0000
40.2600 397.0000 1.0000
40.2700 378.0000 1.0000
40.2800 395.0000 1.0000
40.2900 375.0000 1.0000
40.3000 363.0000 1.0000
40.3100 388.0000 1.0000
40.3200 383.0000 1.0000
40.3300 359.0000 1.0000
40.3400 403.0000 1.0000
40.3500 384.0000 1.0000
40.3600 413.0000 1.0000
40.3700 405.0000 1.0000
40.3800 390.0000 1.0000
40.3900 418.0000 1.0000
40.4000 407.0000 1.0000
40.4100 412.0000 1.0000
40.4200 375.0000 1.0000
40.4300 386.0000 1.0000
40.4400 378.0000 1.0000
40.4500 354.0000 1.0000
40.4600 397.0000 1.0000
40.4700 420.0000 1.0000
40.4800 388.0000 1.0000
40.4900 366.0000 1.0000
40.5000 393.0000 1.0000
40.5100 380.0000 1.0000
40.5200 398.0000 1.0000
40.5300 371.0000 1.0000
40.5400 377.0000 1.0000
40.5500 390.0000 1.0000
40.5600 368.0000 1.0000
40.5700 406.0000 1.0000
40.5800 398.0000 1.0000
40.5900 360.0000 1.0000
40.6000 382.0000 1.0000
40.6100 397.0000 1.0000
40.6200 379.0000 1.0000
40.6300 366.0000 1.0000
40.6400 349.0000 1.0000
40.6500 368.0000 1.0000
40.6600 369.0000 1.0000
40.6700 372.0000 1.0000
40.6800 402.0000 1.0000
40.6900 400.0000 1.0000
40.7000 366.0000 1.0000
40.7100 379.0000 1.0000
40.7200 403.0000 1.0000
40.7300 396.0000 1.0000
40.7400 398.0000 1.0000
40.7500 419.0000 1.0000
40.7600 400.0000 1.0000
40.7700 402.0000 1.0000
40.7800 406.0000 1.0000
40.7900 402.0000 1.0000
40.8000 361.0000 1.0000
40.8100 402.0000 1.0000
40.8200 385.0000 1.0000
40.8300 436.0000 1.0000
40.8400 423.0000 1.0000
40.8500 404.0000 1.0000
40.8600 406.0000 1.0000
40.8700 402.0000 1.0000
40.8800 403.0000 1.0000
40.8900 381.0000 1.0000
40.9000 392.0000 1.0000
40.9100 361.0000 1.0000
40.9200 366.0000 1.0000
40.9300 397.0000 1.0000
40.9400 370.0000 1.0000
40.9500 353.0000 1.0000
40.9600 389.0000 1.0000
40.9700 395.0000 1.0000
40.9800 363.0000 1.0000
40.9900 405.0000 1.0000
41.0000 392.0000 1.0000
41.0100 371.0000 1.0000
41.0200 382.0000 1.0000
41.0300 371.0000 1.0000
41.0400 391.0000 1.0000
41.0500 388.0000 1.0000
41.0600 397.0000 1.0000
41.0700 376.0000 1.0000
41.0800 359.0000 1.0000
41.0900 392.0000 1.0000
41.1000 374.0000 1.0000
41.1100 392.0000 1.0000
41.1200 384.0000 1.0000
41.1300 374.0000 1.0000
41.1400 399.0000 1.0000
41.1500 371.0000 1.0000
41.1600 359.0000 1.0000
41.1700 358.0000 1.0000
41.1800 369.0000 1.0000
41.1900 389.0000 1.0000
41.2000 392.0000 1.0000
41.2100 365.0000 1.0000
41.2200 372.0000 1.0000
41.2300 392.0000 1.0000
41.2400 396.0000 1.0000
41.2500 377.0000 1.0000
41.2600 358.0000 1.0000
41.2700 360.0000 1.0000
41.2800 381.0000 1.0000
41.2900 370.0000 1.0000
41.3000 367.0000 1.0000
41.3100 362.0000 1.0000
41.3200 374.0000 1.0000
41.3300 350.0000 1.0000
41.3400 363.0000 1.0000
41.3500 372.0000 1.0000
41.3600 387.0000 1.0000
41.3700 374.0000 1.0000
41.3800 376.0000 1.0000
41.3900 399.0000 1.0000
41.4000 381.0000 1.0000
41.4100 405.0000 1.0000
41.4200 381.0000 1.0000
41.4300 364.0000 1.0000
41.4400 371.0000 1.0000
41.4500 359.0000 1.0000
41.4600 357.0000 1.0000
41.4700 360.0000 1.0000
41.4800 387.0000 1.0000
41.4900 397.0000 1.0000
41.5000 373.0000 1.0000
41.5100 367.0000 1.0000
41.5200 376.0000 1.0000
41.5300 394.0000 1.0000
41.5400 363.0000 1.0000
41.5500 408.0000 1.0000
41.5600 369.0000 1.0000
41.5700 375.0000 1.0000
41.5800 380.0000 1.0000
41.5900 384.0000 1.0000
41.6000 410.0000 1.0000
41.6100 372.0000 1.0000
41.6200 346.0000 1.0000
41.6300 376.0000 1.0000
41.6400 364.0000 1.0000
41.6500 355.0000 1.0000
41.6600 351.0000 1.0000
41.6700 353.0000 1.0000
41.6800 363.0000 1.0000
41.6900 389.0000 1.0000
41.7000 342.0000 1.0000
41.7100 343.0000 1.0000
41.7200 377.0000 1.0000
41.7300 410.0000 1.0000
41.7400 365.0000 1.0000
41.7500 382.0000 1.0000
41.7600 365.0000 1.0000
41.7700 401.0000 1.0000
41.7800 385.0000 1.0000
41.7900 342.0000 1.0000
41.8000 360.0000 1.0000
41.8100 332.0000 1.0000
41.8200 349.0000 1.0000
41.8300 375.0000 1.0000
41.8400 360.0000 1.0000
41.8500 374.0000 1.0000
41.8600 355.0000 1.0000
41.8700 321.0000 1.0000
41.8800 380.0000 1.0000
41.8900 384.0000 1.0000
41.9000 357.0000 1.0000
41.9100 353.0000 1.0000
41.9200 366.0000 1.0000
41.9300 380.0000 1.0000
41.9400 366.0000 1.0000
41.9500 353.0000 1.0000
41.9600 375.0000 1.0000
41.9700 367.0000 1.0000
41.9800 339.0000 1.0000
41.9900 384.0000 1.0000
42.0000 364.0000 1.0000
42.0100 362.0000 1.0000
42.0200 374.0000 1.0000
42.0300 421.0000 1.0000
42.0400 375.0000 1.0000
42.0500 343.0000 1.0000
42.0600 333.0000 1.0000
42.0700 364.0000 1.0000
42.0800 388.0000 1.0000
42.0900 387.0000 1.0000
42.1000 348.0000 1.0000
42.1100 395.0000 1.0000
42.1200 348.0000 1.0000
42.1300 371.0000 1.0000
42.1400 393.0000 1.0000
42.1500 396.0000 1.0000
42.1600 380.0000 1.0000
42.1700 397.0000 1.0000
42.1800 388.0000 1.0000
42.1900 382.0000 1.0000
42.2000 361.0000 1.0000
42.2100 393.0000 1.0000
42.2200 386.0000 1.0000
42.2300 377.0000 1.0000
42.2400 361.0000 1.0000
42.2500 373.0000 1.0000
42.2600 413.0000 1.0000
42.2700 374.0000 1.0000
42.2800 378.0000 1.0000
42.2900 384.0000 1.0000
42.3000 378.0000 1.0000
42.3100 377.0000 1.0000
42.3200 351.0000 1.0000
42.3300 371.0000 1.0000
42.3400 389.0000 1.0000
42.3500 369.0000 1.0000
42.3600 362.0000 1.0000
42.3700 392.0000 1.0000
42.3800 397.0000 1.0000
42.3900 401.0000 1.0000
42.4000 422.0000 1.0000
42.4100 414.0000 1.0000
42.4200 385.0000 1.0000
42.4300 390.0000 1.0000
42.4400 379.0000 1.0000
42.4500 373.0000 1.0000
42.4600 386.0000 1.0000
42.4700 437.0000 1.0000
42.4800 408.0000 1.0000
42.4900 396.0000 1.0000
42.5000 404.0000 1.0000
42.5100 373.0000 1.0000
42.5200 421.0000 1.0000
42.5300 376.0000 1.0000
42.5400 403.0000 1.0000
42.5500 388.0000 1.0000
42.5600 401.0000 1.0000
42.5700 396.0000 1.0000
42.5800 379.0000 1.0000
42.5900 400.0000 1.0000
42.6000 391.0000 1.0000
42.6100 365.0000 1.0000
42.6200 404.0000 1.0000
42.6300 388.0000 1.0000
42.6400 373.0000 1.0000
42.6500 396.0000 1.0000
42.6600 396.0000 1.0000
42.6700 384.0000 1.0000
42.6800 395.0000 1.0000
42.6900 372.0000 1.0000
42.7000 386.0000 1.0000
42.7100 364.0000 1.0000
42.7200 360.0000 1.0000
42.7300 369.0000 1.0000
42.7400 395.0000 1.0000
42.7500 389.0000 1.0000
42.7600 358.0000 1.0000
42.7700 380.0000 1.0000
42.7800 383.0000 1.0000
42.7900 354.0000 1.0000
42.8000 379.0000 1.0000
42.8100 359.0000 1.0000
42.8200 393.0000 1.0000
42.8300 385.0000 1.0000
42.8400 382.0000 1.0000
42.8500 380.0000 1.0000
42.8600 365.0000 1.0000
42.8700 373.0000 1.0000
42.8800 396.0000 1.0000
42.8900 379.0000 1.0000
42.9000 362.0000 1.0000
42.9100 344.0000 1.0000
42.9200 345.0000 1.0000
42.9300 345.0000 1.0000
42.9400 387.0000 1.0000
42.9500 364.0000 1.0000
42.9600 373.0000 1.0000
42.9700 382.0000 1.0000
42.9800 383.0000 1.0000
42.9900 373.0000 1.0000
43.0000 355.0000 1.0000
43.0100 364.0000 1.0000
43.0200 370.0000 1.0000
43.0300 341.0000 1.0000
43.0400 364.0000 1.0000
43.0500 369.0000 1.0000
43.0600 365.0000 1.0000
43.0700 360.0000 1.0000
43.0800 353.0000 1.0000
43.0900 374.0000 1.0000
43.1000 340.0000 1.0000
43.1100 370.0000 1.0000
43.1200 328.0000 1.0000
43.1300 331.0000 1.0000
43.1400 353.0000 1.0000
43.1500 348.0000 1.0000
43.1600 361.0000 1.0000
43.1700 340.0000 1.0000
43.1800 362.0000 1.0000
43.1900 354.0000 1.0000
43.2000 371.0000 1.0000
43.2100 363.0000 1.0000
43.2200 361.0000 1.0000
43.2300 411.0000 1.0000
43.2400 374.0000 1.0000
43.2500 368.0000 1.0000
43.2600 370.0000 1.0000
43.2700 330.0000 1.0000
43.2800 333.0000 1.0000
43.2900 380.0000 1.0000
43.3000 334.0000 1.0000
43.3100 347.0000 1.0000
43.3200 356.0000 1.0000
43.3300 358.0000 1.0000
43.3400 374.0000 1.0000
43.3500 347.0000 1.0000
43.3600 360.0000 1.0000
43.3700 347.0000 1.0000
43.3800 357.0000 1.0000
43.3900 356.0000 1.0000
43.4000 363.0000 1.0000
43.4100 361.0000 1.0000
43.4200 373.0000 1.0000
43.4300 342.0000 1.0000
43.4400 392.0000 1.0000
43.4500 378.0000 1.0000
43.4600 390.0000 1.0000
43.4700 375.0000 1.0000
43.4800 356.0000 1.0000
43.4900 333.0000 1.0000
43.5000 350.0000 1.0000
43.5100 360.0000 1.0000
43.5200 371.0000 1.0000
43.5300 356.0000 1.0000
43.5400 341.0000 1.0000
43.5500 345.0000 1.0000
43.5600 357.0000 1.0000
43.5700 365.0000 1.0000
43.5800 375.0000 1.0000
43.5900 330.0000 1.0000
43.6000 374.0000 1.0000
43.6100 363.0000 1.0000
43.6200 362.0000 1.0000
43.6300 385.0000 1.0000
43.6400 355.0000 1.0000
43.6500 363.0000 1.0000
43.6600 365.0000 1.0000
43.6700 375.0000 1.0000
43.6800 327.0000 1.0000
43.6900 343.0000 1.0000
43.7000 341.0000 1.0000
43.7100 357.0000 1.0000
43.7200 340.0000 1.0000
43.7300 363.0000 1.0000
43.7400 375.0000 1.0000
43.7500 342.0000 1.0000
43.7600 348.0000 1.0000
43.7700 347.0000 1.0000
43.7800 348.0000 1.0000
43.7900 358.0000 1.0000
43.8000 322.0000 1.0000
43.8100 357.0000 1.0000
43.8200 329.0000 1.0000
43.8300 348.0000 1.0000
43.8400 377.0000 1.0000
43.8500 336.0000 1.0000
43.8600 357.0000 1.0000
43.8700 363.0000 1.0000
43.8800 379.0000 1.0000
43.8900 343.0000 1.0000
43.9000 346.0000 1.0000
43.9100 357.0000 1.0000
43.9200 381.0000 1.0000
43.9300 341.0000 1.0000
43.9400 354.0000 1.0000
43.9500 375.0000 1.0000
43.9600 374.0000 1.0000
43.9700 363.0000 1.0000
43.9800 366.0000 1.0000
43.9900 371.0000 1.0000
44.0000 365.0000 1.0000
44.0100 333.0000 1.0000
44.0200 353.0000 1.0000
44.0300 330.0000 1.0000
44.0400 362.0000 1.0000
44.0500 354.0000 1.0000
44.0600 373.0000 1.0000
44.0700 356.0000 1.0000
44.0800 343.0000 1.0000
44.0900 331.0000 1.0000
44.1000 332.0000 1.0000
44.1100 366.0000 1.0000
44.1200 356.0000 1.0000
44.1300 391.0000 1.0000
44.1400 361.0000 1.0000
44.1500 386.0000 1.0000
44.1600 353.0000 1.0000
44.1700 344.0000 1.0000
44.1800 347.0000 1.0000
44.1900 350.0000 1.0000
44.2000 326.0000 1.0000
44.2100 366.0000 1.0000
44.2200 348.0000 1.0000
44.2300 358.0000 1.0000
44.2400 359.0000 1.0000
44.2500 344.0000 1.0000
44.2600 374.0000 1.0000
44.2700 359.0000 1.0000
44.2800 353.0000 1.0000
44.2900 358.0000 1.0000
44.3000 388.0000 1.0000
44.3100 364.0000 1.0000
44.3200 340.0000 1.0000
44.3300 353.0000 1.0000
44.3400 370.0000 1.0000
44.3500 328.0000 1.0000
44.3600 373.0000 1.0000
44.3700 348.0000 1.0000
44.3800 336.0000 1.0000
44.3900 343.0000 1.0000
44.4000 354.0000 1.0000
44.4100 338.0000 1.0000
44.4200 347.0000 1.0000
44.4300 352.0000 1.0000
44.4400 349.0000 1.0000
44.4500 324.0000 1.0000
44.4600 336.0000 1.0000
44.4700 349.0000 1.0000
44.4800 315.0000 1.0000
44.4900 325.0000 1.0000
44.5000 360.0000 1.0000
44.5100 348.0000 1.0000
44.5200 330.0000 1.0000
44.5300 347.0000 1.0000
44.5400 384.0000 1.0000
44.5500 327.0000 1.0000
44.5600 345.0000 1.0000
44.5700 353.0000 1.0000
44.5800 340.0000 1.0000
44.5900 361.0000 1.0000
44.6000 337.0000 1.0000
44.6100 324.0000 1.0000
44.6200 308.0000 1.0000
44.6300 368.0000 1.0000
44.6400 359.0000 1.0000
44.6500 347.0000 1.0000
44.6600 349.0000 1.0000
44.6700 334.0000 1.0000
44.6800 354.0000 1.0000
44.6900 330.0000 1.0000
44.7000 360.0000 1.0000
44.7100 357.0000 1.0000
44.7200 344.0000 1.0000
44.7300 346.0000 1.0000
44.7400 340.0000 1.0000
44.7500 333.0000 1.0000
44.7600 322.0000 1.0000
44.7700 350.0000 1.0000
44.7800 355.0000 1.0000
44.7900 355.0000 1.0000
44.8000 339.0000 1.0000
44.8100 339.0000 1.0000
44.8200 373.0000 1.0000
44.8300 362.0000 1.0000
44.8400 318.0000 1.0000
44.8500 307.0000 1.0000
44.8600 342.0000 1.0000
44.8700 333.0000 1.0000
44.8800 344.0000 1.0000
44.8900 328.0000 1.0000
44.9000 342.0000 1.0000
44.9100 335.0000 1.0000
44.9200 317.0000 1.0000
44.9300 336.0000 1.0000
44.9400 326.0000 1.0000
44.9500 357.0000 1.0000
44.9600 363.0000 1.0000
44.9700 344.0000 1.0000
44.9800 386.0000 1.0000
44.9900 391.0000 1.0000
45.0000 340.0000 1.0000
45.0100 373.0000 1.0000
45.0200 344.0000 1.0000
45.0300 338.0000 1.0000
45.0400 340.0000 1.0000
45.0500 319.0000 1.0000
45.0600 343.0000 1.0000
45.0700 359.0000 1.0000
45.0800 364.0000 1.0000
45.0900 342.0000 1.0000
45.1000 322.0000 1.0000
45.1100 335.0000 1.0000
45.1200 337.0000 1.0000
45.1300 336.0000 1.0000
45.1400 327.0000 1.0000
45.1500 347.0000 1.0000
45.1600 346.0000 1.0000
45.1700 338.0000 1.0000
45.1800 332.0000 1.0000
45.1900 344.0000 1.0000
45.2000 305.0000 1.0000
45.2100 315.0000 1.0000
45.2200 363.0000 1.0000
45.2300 357.0000 1.0000
45.2400 311.0000 1.0000
45.2500 334.0000 1.0000
45.2600 335.0000 1.0000
45.2700 351.0000 1.0000
45.2800 318.0000 1.0000
45.2900 346.0000 1.0000
45.3000 356.0000 1.0000
45.3100 353.0000 1.0000
45.3200 338.0000 1.0000
45.3300 337.0000 1.0000
45.3400 328.0000 1.0000
45.3500 342.0000 1.0000
45.3600 349.0000 1.0000
45.3700 351.0000 1.0000
45.3800 341.0000 1.0000
45.3900 340.0000 1.0000
45.4000 360.0000 1.0000
45.4100 323.0000 1.0000
45.4200 311.0000 1.0000
45.4300 333.0000 1.0000
45.4400 328.0000 1.0000
45.4500 303.0000 1.0000
45.4600 346.0000 1.0000
45.4700 334.0000 1.0000
45.4800 356.0000 1.0000
45.4900 311.0000 1.0000
45.5000 327.0000 1.0000
45.5100 313.0000 1.0000
45.5200 328.0000 1.0000
45.5300 325.0000 1.0000
45.5400 344.0000 1.0000
45.5500 293.0000 1.0000
45.5600 336.0000 1.0000
45.5700 318.0000 1.0000
45.5800 339.0000 1.0000
45.5900 343.0000 1.0000
45.6000 352.0000 1.0000
45.6100 310.0000 1.0000
45.6200 324.0000 1.0000
45.6300 364.0000 1.0000
45.6400 352.0000 1.0000
45.6500 358.0000 1.0000
45.6600 349.0000 1.0000
45.6700 380.0000 1.0000
45.6800 324.0000 1.0000
45.6900 355.0000 1.0000
45.7000 330.0000 1.0000
45.7100 343.0000 1.0000
45.7200 363.0000 1.0000
45.7300 363.0000 1.0000
45.7400 364.0000 1.0000
45.7500 321.0000 1.0000
45.7600 352.0000 1.0000
45.7700 354.0000 1.0000
45.7800 328.0000 1.0000
45.7900 309.0000 1.0000
45.8000 347.0000 1.0000
45.8100 332.0000 1.0000
45.8200 347.0000 1.0000
45.8300 366.0000 1.0000
45.8400 338.0000 1.0000
45.8500 324.0000 1.0000
45.8600 335.0000 1.0000
45.8700 318.0000 1.0000
45.8800 328.0000 1.0000
45.8900 316.0000 1.0000
45.9000 348.0000 1.0000
45.9100 351.0000 1.0000
45.9200 311.0000 1.0000
45.9300 339.0000 1.0000
45.9400 349.0000 1.0000
45.9500 345.0000 1.0000
45.9600 311.0000 1.0000
45.9700 306.0000 1.0000
45.9800 300.0000 1.0000
45.9900 317.0000 1.0000
46.0000 329.0000 1.0000
46.0100 338.0000 1.0000
46.0200 326.0000 1.0000
46.0300 301.0000 1.0000
46.0400 332.0000 1.0000
46.0500 344.0000 1.0000
46.0600 313.0000 1.0000
46.0700 333.0000 1.0000
46.0800 331.0000 1.0000
46.0900 340.0000 1.0000
46.1000 355.0000 1.0000
46.1100 323.0000 1.0000
46.1200 351.0000 1.0000
46.1300 327.0000 1.0000
46.1400 304.0000 1.0000
46.1500 330.0000 1.0000
46.1600 332.0000 1.0000
46.1700 358.0000 1.0000
46.1800 345.0000 1.0000
46.1900 320.0000 1.0000
46.2000 358.0000 1.0000
46.2100 336.0000 1.0000
46.2200 355.0000 1.0000
46.2300 334.0000 1.0000
46.2400 340.0000 1.0000
46.2500 349.0000 1.0000
46.2600 329.0000 1.0000
46.2700 338.0000 1.0000
46.2800 323.0000 1.0000
46.2900 340.0000 1.0000
46.3000 351.0000 1.0000
46.3100 334.0000 1.0000
46.3200 328.0000 1.0000
46.3300 331.0000 1.0000
46.3400 354.0000 1.0000
46.3500 329.0000 1.0000
46.3600 320.0000 1.0000
46.3700 320.0000 1.0000
46.3800 315.0000 1.0000
46.3900 358.0000 1.0000
46.4000 337.0000 1.0000
46.4100 325.0000 1.0000
46.4200 338.0000 1.0000
46.4300 329.0000 1.0000
46.4400 311.0000 1.0000
46.4500 313.0000 1.0000
46.4600 325.0000 1.0000
46.4700 319.0000 1.0000
46.4800 316.0000 1.0000
46.4900 359.0000 1.0000
46.5000 328.0000 1.0000
46.5100 348.0000 1.0000
46.5200 316.0000 1.0000
46.5300 333.0000 1.0000
46.5400 304.0000 1.0000
46.5500 290.0000 1.0000
46.5600 341.0000 1.0000
46.5700 321.0000 1.0000
46.5800 326.0000 1.0000
46.5900 324.0000 1.0000
46.6000 323.0000 1.0000
46.6100 297.0000 1.0000
46.6200 329.0000 1.0000
46.6300 339.0000 1.0000
46.6400 307.0000 1.0000
46.6500 336.0000 1.0000
46.6600 308.0000 1.0000
46.6700 337.0000 1.0000
46.6800 326.0000 1.0000
46.6900 331.0000 1.0000
46.7000 329.0000 1.0000
46.7100 339.0000 1.0000
46.7200 326.0000 1.0000
46.7300 320.0000 1.0000
46.7400 329.0000 1.0000
46.7500 285.0000 1.0000
46.7600 346.0000 1.0000
46.7700 336.0000 1.0000
46.7800 312.0000 1.0000
46.7900 344.0000 1.0000
46.8000 315.0000 1.0000
46.8100 325.0000 1.0000
46.8200 306.0000 1.0000
46.8300 309.0000 1.0000
46.8400 305.0000 1.0000
46.8500 330.0000 1.0000
46.8600 310.0000 1.0000
46.8700 318.0000 1.0000
46.8800 331.0000 1.0000
46.8900 334.0000 1.0000
46.9000 327.0000 1.0000
46.9100 329.0000 1.0000
46.9200 352.0000 1.0000
46.9300 320.0000 1.0000
46.9400 346.0000 1.0000
46.9500 368.0000 1.0000
46.9600 315.0000 1.0000
46.9700 322.0000 1.0000
46.9800 313.0000 1.0000
46.9900 341.0000 1.0000
47.0000 342.0000 1.0000
47.0100 326.0000 1.0000
47.0200 341.0000 1.0000
47.0300 333.0000 1.0000
47.0400 353.0000 1.0000
47.0500 313.0000 1.0000
47.0600 330.0000 1.0000
47.0700 280.0000 1.0000
47.0800 327.0000 1.0000
47.0900 327.0000 1.0000
47.1000 302.0000 1.0000
47.1100 305.0000 1.0000
47.1200 316.0000 1.0000
47.1300 324.0000 1.0000
47.1400 332.0000 1.0000
47.1500 322.0000 1.0000
47.1600 311.0000 1.0000
47.1700 288.0000 1.0000
47.1800 281.0000 1.0000
47.1900 336.0000 1.0000
47.2000 324.0000 1.0000
47.2100 317.0000 1.0000
47.2200 337.0000 1.0000
47.2300 319.0000 1.0000
47.2400 328.0000 1.0000
47.2500 318.0000 1.0000
47.2600 303.0000 1.0000
47.2700 316.0000 1.0000
47.2800 333.0000 1.0000
47.2900 329.0000 1.0000
47.3000 320.0000 1.0000
47.3100 309.0000 1.0000
47.3200 331.0000 1.0000
47.3300 314.0000 1.0000
47.3400 306.0000 1.0000
47.3500 304.0000 1.0000
47.3600 297.0000 1.0000
47.3700 315.0000 1.0000
47.3800 325.0000 1.0000
47.3900 323.0000 1.0000
47.4000 301.0000 1.0000
47.4100 318.0000 1.0000
47.4200 284.0000 1.0000
47.4300 354.0000 1.0000
47.4400 325.0000 1.0000
47.4500 346.0000 1.0000
47.4600 327.0000 1.0000
47.4700 302.0000 1.0000
47.4800 307.0000 1.0000
47.4900 316.0000 1.0000
47.5000 299.0000 1.0000
47.5100 315.0000 1.0000
47.5200 312.0000 1.0000
47.5300 332.0000 1.0000
47.5400 296.0000 1.0000
47.5500 284.0000 1.0000
47.5600 318.0000 1.0000
47.5700 323.0000 1.0000
47.5800 279.0000 1.0000
47.5900 314.0000 1.0000
47.6000 330.0000 1.0000
47.6100 308.0000 1.0000
47.6200 336.0000 1.0000
47.6300 339.0000 1.0000
47.6400 331.0000 1.0000
47.6500 327.0000 1.0000
47.6600 333.0000 1.0000
47.6700 319.0000 1.0000
47.6800 321.0000 1.0000
47.6900 298.0000 1.0000
47.7000 307.0000 1.0000
47.7100 315.0000 1.0000
47.7200 324.0000 1.0000
47.7300 330.0000 1.0000
47.7400 271.0000 1.0000
47.7500 323.0000 1.0000
47.7600 317.0000 1.0000
47.7700 326.0000 1.0000
47.7800 310.0000 1.0000
47.7900 318.0000 1.0000
47.8000 320.0000 1.0000
47.8100 320.0000 1.0000
47.8200 342.0000 1.0000
47.8300 336.0000 1.0000
47.8400 326.0000 1.0000
47.8500 306.0000 1.0000
47.8600 289.0000 1.0000
47.8700 320.0000 1.0000
47.8800 328.0000 1.0000
47.8900 350.0000 1.0000
47.9000 330.0000 1.0000
47.9100 332.0000 1.0000
47.9200 322.0000 1.0000
47.9300 339.0000 1.0000
47.9400 322.0000 1.0000
47.9500 314.0000 1.0000
47.9600 320.0000 1.0000
47.9700 285.0000 1.0000
47.9800 340.0000 1.0000
47.9900 312.0000 1.0000
48.0000 340.0000 1.0000
48.0100 316.0000 1.0000
48.0200 295.0000 1.0000
48.0300 304.0000 1.0000
48.0400 276.0000 1.0000
48.0500 307.0000 1.0000
48.0600 354.0000 1.0000
48.0700 310.0000 1.0000
48.0800 337.0000 1.0000
48.0900 325.0000 1.0000
48.1000 327.0000 1.0000
48.1100 323.0000 1.0000
48.1200 339.0000 1.0000
48.1300 343.0000 1.0000
48.1400 312.0000 1.0000
48.1500 314.0000 1.0000
48.1600 290.0000 1.0000
48.1700 294.0000 1.0000
48.1800 308.0000 1.0000
48.1900 345.0000 1.0000
48.2000 316.0000 1.0000
48.2100 317.0000 1.0000
48.2200 310.0000 1.0000
48.2300 321.0000 1.0000
48.2400 305.0000 1.0000
48.2500 311.0000 1.0000
48.2600 281.0000 1.0000
48.2700 314.0000 1.0000
48.2800 308.0000 1.0000
48.2900 325.0000 1.0000
48.3000 295.0000 1.0000
48.3100 318.0000 1.0000
48.3200 302.0000 1.0000
48.3300 325.0000 1.0000
48.3400 338.0000 1.0000
48.3500 330.0000 1.0000
48.3600 340.0000 1.0000
48.3700 306.0000 1.0000
48.3800 304.0000 1.0000
48.3900 274.0000 1.0000
48.4000 318.0000 1.0000
48.4100 321.0000 1.0000
48.4200 293.0000 1.0000
48.4300 300.0000 1.0000
48.4400 300.0000 1.0000
48.4500 331.0000 1.0000
48.4600 307.0000 1.0000
48.4700 331.0000 1.0000
48.4800 274.0000 1.0000
48.4900 299.0000 1.0000
48.5000 310.0000 1.0000
48.5100 314.0000 1.0000
48.5200 313.0000 1.0000
48.5300 307.0000 1.0000
48.5400 316.0000 1.0000
48.5500 297.0000 1.0000
48.5600 297.0000 1.0000
48.5700 301.0000 1.0000
48.5800 303.0000 1.0000
48.5900 313.0000 1.0000
48.6000 319.0000 1.0000
48.6100 307.0000 1.0000
48.6200 342.0000 1.0000
48.6300 335.0000 1.0000
48.6400 291.0000 1.0000
48.6500 289.0000 1.0000
48.6600 313.0000 1.0000
48.6700 328.0000 1.0000
48.6800 310.0000 1.0000
48.6900 302.0000 1.0000
48.7000 303.0000 1.0000
48.7100 310.0000 1.0000
48.7200 290.0000 1.0000
48.7300 303.0000 1.0000
48.7400 302.0000 1.0000
48.7500 307.0000 1.0000
48.7600 316.0000 1.0000
48.7700 297.0000 1.0000
48.7800 286.0000 1.0000
48.7900 279.0000 1.0000
48.8000 296.0000 1.0000
48.8100 315.0000 1.0000
48.8200 294.0000 1.0000
48.8300 303.0000 1.0000
48.8400 310.0000 1.0000
48.8500 299.0000 1.0000
48.8600 302.0000 1.0000
48.8700 287.0000 1.0000
48.8800 288.0000 1.0000
48.8900 283.0000 1.0000
48.9000 294.0000 1.0000
48.9100 299.0000 1.0000
48.9200 308.0000 1.0000
48.9300 315.0000 1.0000
48.9400 316.0000 1.0000
48.9500 316.0000 1.0000
48.9600 306.0000 1.0000
48.9700 301.0000 1.0000
48.9800 327.0000 1.0000
48.9900 310.0000 1.0000
49.0000 323.0000 1.0000
49.0100 314.0000 1.0000
49.0200 312.0000 1.0000
49.0300 307.0000 1.0000
49.0400 309.0000 1.0000
49.0500 321.0000 1.0000
49.0600 322.0000 1.0000
49.0700 341.0000 1.0000
49.0800 315.0000 1.0000
49.0900 324.0000 1.0000
49.1000 322.0000 1.0000
49.1100 310.0000 1.0000
49.1200 317.0000 1.0000
49.1300 321.0000 1.0000
49.1400 323.0000 1.0000
49.1500 293.0000 1.0000
49.1600 307.0000 1.0000
49.1700 316.0000 1.0000
49.1800 333.0000 1.0000
49.1900 310.0000 1.0000
49.2000 344.0000 1.0000
49.2100 304.0000 1.0000
49.2200 329.0000 1.0000
49.2300 302.0000 1.0000
49.2400 303.0000 1.0000
49.2500 307.0000 1.0000
49.2600 300.0000 1.0000
49.2700 288.0000 1.0000
49.2800 310.0000 1.0000
49.2900 339.0000 1.0000
49.3000 343.0000 1.0000
49.3100 300.0000 1.0000
49.3200 282.0000 1.0000
49.3300 325.0000 1.0000
49.3400 328.0000 1.0000
49.3500 340.0000 1.0000
49.3600 325.0000 1.0000
49.3700 332.0000 1.0000
49.3800 343.0000 1.0000
49.3900 353.0000 1.0000
49.4000 366.0000 1.0000
49.4100 337.0000 1.0000
49.4200 328.0000 1.0000
49.4300 386.0000 1.0000
49.4400 354.0000 1.0000
49.4500 351.0000 1.0000
49.4600 381.0000 1.0000
49.4700 334.0000 1.0000
49.4800 355.0000 1.0000
49.4900 368.0000 1.0000
49.5000 315.0000 1.0000
49.5100 343.0000 1.0000
49.5200 309.0000 1.0000
49.5300 350.0000 1.0000
49.5400 357.0000 1.0000
49.5500 316.0000 1.0000
49.5600 348.0000 1.0000
49.5700 346.0000 1.0000
49.5800 336.0000 1.0000
49.5900 324.0000 1.0000
49.6000 326.0000 1.0000
49.6100 335.0000 1.0000
49.6200 340.0000 1.0000
49.6300 338.0000 1.0000
49.6400 305.0000 1.0000
49.6500 312.0000 1.0000
49.6600 340.0000 1.0000
49.6700 324.0000 1.0000
49.6800 320.0000 1.0000
49.6900 317.0000 1.0000
49.7000 331.0000 1.0000
49.7100 338.0000 1.0000
49.7200 323.0000 1.0000
49.7300 318.0000 1.0000
49.7400 321.0000 1.0000
49.7500 346.0000 1.0000
49.7600 319.0000 1.0000
49.7700 313.0000 1.0000
49.7800 327.0000 1.0000
49.7900 334.0000 1.0000
49.8000 314.0000 1.0000
49.8100 326.0000 1.0000
49.8200 333.0000 1.0000
49.8300 314.0000 1.0000
49.8400 289.0000 1.0000
49.8500 297.0000 1.0000
49.8600 323.0000 1.0000
49.8700 314.0000 1.0000
49.8800 319.0000 1.0000
49.8900 323.0000 1.0000
49.9000 300.0000 1.0000
49.9100 325.0000 1.0000
49.9200 311.0000 1.0000
49.9300 326.0000 1.0000
49.9400 317.0000 1.0000
49.9500 325.0000 1.0000
49.9600 304.0000 1.0000
49.9700 341.0000 1.0000
49.9800 336.0000 1.0000
49.9900 292.0000 1.0000
50.0000 322.0000 1.0000
50.0100 341.0000 1.0000
50.0200 306.0000 1.0000
50.0300 309.0000 1.0000
50.0400 331.0000 1.0000
50.0500 340.0000 1.0000
50.0600 314.0000 1.0000
50.0700 290.0000 1.0000
50.0800 299.0000 1.0000
50.0900 316.0000 1.0000
50.1000 291.0000 1.0000
50.1100 321.0000 1.0000
50.1200 336.0000 1.0000
50.1300 306.0000 1.0000
50.1400 301.0000 1.0000
50.1500 305.0000 1.0000
50.1600 318.0000 1.0000
50.1700 299.0000 1.0000
50.1800 295.0000 1.0000
50.1900 286.0000 1.0000
50.2000 287.0000 1.0000
50.2100 322.0000 1.0000
50.2200 345.0000 1.0000
50.2300 323.0000 1.0000
50.2400 315.0000 1.0000
50.2500 299.0000 1.0000
50.2600 309.0000 1.0000
50.2700 299.0000 1.0000
50.2800 307.0000 1.0000
50.2900 291.0000 1.0000
50.3000 313.0000 1.0000
50.3100 319.0000 1.0000
50.3200 306.0000 1.0000
50.3300 320.0000 1.0000
50.3400 332.0000 1.0000
50.3500 322.0000 1.0000
50.3600 328.0000 1.0000
50.3700 313.0000 1.0000
50.3800 293.0000 1.0000
50.3900 324.0000 1.0000
50.4000 339.0000 1.0000
50.4100 320.0000 1.0000
50.4200 326.0000 1.0000
50.4300 306.0000 1.0000
50.4400 291.0000 1.0000
50.4500 316.0000 1.0000
50.4600 305.0000 1.0000
50.4700 315.0000 1.0000
50.4800 289.0000 1.0000
50.4900 303.0000 1.0000
50.5000 324.0000 1.0000
50.5100 318.0000 1.0000
50.5200 353.0000 1.0000
50.5300 333.0000 1.0000
50.5400 299.0000 1.0000
50.5500 293.0000 1.0000
50.5600 315.0000 1.0000
50.5700 325.0000 1.0000
50.5800 319.0000 1.0000
50.5900 317.0000 1.0000
50.6000 322.0000 1.0000
50.6100 308.0000 1.0000
50.6200 318.0000 1.0000
50.6300 322.0000 1.0000
50.6400 308.0000 1.0000
50.6500 314.0000 1.0000
50.6600 320.0000 1.0000
50.6700 306.0000 1.0000
50.6800 317.0000 1.0000
50.6900 309.0000 1.0000
50.7000 330.0000 1.0000
50.7100 321.0000 1.0000
50.7200 297.0000 1.0000
50.7300 315.0000 1.0000
50.7400 311.0000 1.0000
50.7500 312.0000 1.0000
50.7600 308.0000 1.0000
50.7700 331.0000 1.0000
50.7800 328.0000 1.0000
50.7900 316.0000 1.0000
50.8000 310.0000 1.0000
50.8100 317.0000 1.0000
50.8200 333.0000 1.0000
50.8300 317.0000 1.0000
50.8400 318.0000 1.0000
50.8500 324.0000 1.0000
50.8600 323.0000 1.0000
50.8700 310.0000 1.0000
50.8800 322.0000 1.0000
50.8900 337.0000 1.0000
50.9000 305.0000 1.0000
50.9100 321.0000 1.0000
50.9200 314.0000 1.0000
50.9300 324.0000 1.0000
50.9400 326.0000 1.0000
50.9500 347.0000 1.0000
50.9600 331.0000 1.0000
50.9700 335.0000 1.0000
50.9800 310.0000 1.0000
50.9900 330.0000 1.0000
51.0000 347.0000 1.0000
51.0100 319.0000 1.0000
51.0200 335.0000 1.0000
51.0300 338.0000 1.0000
51.0400 340.0000 1.0000
51.0500 316.0000 1.0000
51.0600 364.0000 1.0000
51.0700 337.0000 1.0000
51.0800 334.0000 1.0000
51.0900 313.0000 1.0000
51.1000 345.0000 1.0000
51.1100 381.0000 1.0000
51.1200 383.0000 1.0000
51.1300 367.0000 1.0000
51.1400 380.0000 1.0000
51.1500 406.0000 1.0000
51.1600 418.0000 1.0000
51.1700 364.0000 1.0000
51.1800 381.0000 1.0000
51.1900 424.0000 1.0000
51.2000 417.0000 1.0000
51.2100 436.0000 1.0000
51.2200 435.0000 1.0000
51.2300 426.0000 1.0000
51.2400 454.0000 1.0000
51.2500 453.0000 1.0000
51.2600 467.0000 1.0000
51.2700 499.0000 1.0000
51.2800 508.0000 1.0000
51.2900 503.0000 1.0000
51.3000 559.0000 1.0000
51.3100 620.0000 1.0000
51.3200 598.0000 1.0000
51.3300 602.0000 1.0000
51.3400 641.0000 1.0000
51.3500 695.0000 1.0000
51.3600 752.0000 1.0000
51.3700 734.0000 1.0000
51.3800 816.0000 1.0000
51.3900 941.0000 1.0000
51.4000 964.0000 1.0000
51.4100 1047.0000 1.0000
51.4200 1149.0000 1.0000
51.4300 1240.0000 1.0000
51.4400 1296.0000 1.0000
51.4500 1391.0000 1.0000
51.4600 1500.0000 1.0000
51.4700 1651.0000 1.0000
51.4800 1748.0000 1.0000
51.4900 1888.0000 1.0000
51.5000 1893.0000 1.0000
51.5100 2012.0000 1.0000
51.5200 2082.0000 1.0000
51.5300 2098.0000 1.0000
51.5400 2097.0000 1.0000
51.5500 2135.0000 1.0000
51.5600 2086.0000 1.0000
51.5700 1992.0000 1.0000
51.5800 2042.0000 1.0000
51.5900 1946.0000 1.0000
51.6000 1821.0000 1.0000
51.6100 1813.0000 1.0000
51.6200 1708.0000 1.0000
51.6300 1667.0000 1.0000
51.6400 1701.0000 1.0000
51.6500 1647.0000 1.0000
51.6600 1578.0000 1.0000
51.6700 1458.0000 1.0000
51.6800 1403.0000 1.0000
51.6900 1415.0000 1.0000
51.7000 1323.0000 1.0000
51.7100 1196.0000 1.0000
51.7200 1161.0000 1.0000
51.7300 1057.0000 1.0000
51.7400 974.0000 1.0000
51.7500 921.0000 1.0000
51.7600 872.0000 1.0000
51.7700 797.0000 1.0000
51.7800 760.0000 1.0000
51.7900 722.0000 1.0000
51.8000 678.0000 1.0000
51.8100 695.0000 1.0000
51.8200 581.0000 1.0000
51.8300 575.0000 1.0000
51.8400 591.0000 1.0000
51.8500 531.0000 1.0000
51.8600 533.0000 1.0000
51.8700 480.0000 1.0000
51.8800 485.0000 1.0000
51.8900 485.0000 1.0000
51.9000 472.0000 1.0000
51.9100 444.0000 1.0000
51.9200 444.0000 1.0000
51.9300 432.0000 1.0000
51.9400 452.0000 1.0000
51.9500 457.0000 1.0000
51.9600 398.0000 1.0000
51.9700 411.0000 1.0000
51.9800 392.0000 1.0000
51.9900 381.0000 1.0000
52.0000 350.0000 1.0000
52.0100 382.0000 1.0000
52.0200 384.0000 1.0000
52.0300 407.0000 1.0000
52.0400 363.0000 1.0000
52.0500 349.0000 1.0000
52.0600 388.0000 1.0000
52.0700 351.0000 1.0000
52.0800 347.0000 1.0000
52.0900 357.0000 1.0000
52.1000 348.0000 1.0000
52.1100 358.0000 1.0000
52.1200 371.0000 1.0000
52.1300 360.0000 1.0000
52.1400 341.0000 1.0000
52.1500 328.0000 1.0000
52.1600 337.0000 1.0000
52.1700 341.0000 1.0000
52.1800 337.0000 1.0000
52.1900 337.0000 1.0000
52.2000 347.0000 1.0000
52.2100 341.0000 1.0000
52.2200 309.0000 1.0000
52.2300 315.0000 1.0000
52.2400 315.0000 1.0000
52.2500 323.0000 1.0000
52.2600 363.0000 1.0000
52.2700 345.0000 1.0000
52.2800 349.0000 1.0000
52.2900 346.0000 1.0000
52.3000 312.0000 1.0000
52.3100 309.0000 1.0000
52.3200 324.0000 1.0000
52.3300 323.0000 1.0000
52.3400 334.0000 1.0000
52.3500 320.0000 1.0000
52.3600 307.0000 1.0000
52.3700 335.0000 1.0000
52.3800 346.0000 1.0000
52.3900 331.0000 1.0000
52.4000 322.0000 1.0000
52.4100 330.0000 1.0000
52.4200 340.0000 1.0000
52.4300 317.0000 1.0000
52.4400 313.0000 1.0000
52.4500 318.0000 1.0000
52.4600 321.0000 1.0000
52.4700 306.0000 1.0000
52.4800 324.0000 1.0000
52.4900 309.0000 1.0000
52.5000 304.0000 1.0000
52.5100 302.0000 1.0000
52.5200 332.0000 1.0000
52.5300 326.0000 1.0000
52.5400 310.0000 1.0000
52.5500 315.0000 1.0000
52.5600 317.0000 1.0000
52.5700 347.0000 1.0000
52.5800 307.0000 1.0000
52.5900 291.0000 1.0000
52.6000 296.0000 1.0000
52.6100 322.0000 1.0000
52.6200 310.0000 1.0000
52.6300 347.0000 1.0000
52.6400 310.0000 1.0000
52.6500 307.0000 1.0000
52.6600 294.0000 1.0000
52.6700 290.0000 1.0000
52.6800 291.0000 1.0000
52.6900 310.0000 1.0000
52.7000 317.0000 1.0000
52.7100 296.0000 1.0000
52.7200 314.0000 1.0000
52.7300 313.0000 1.0000
52.7400 316.0000 1.0000
52.7500 301.0000 1.0000
52.7600 310.0000 1.0000
52.7700 321.0000 1.0000
52.7800 317.0000 1.0000
52.7900 312.0000 1.0000
52.8000 298.0000 1.0000
52.8100 292.0000 1.0000
52.8200 319.0000 1.0000
52.8300 300.0000 1.0000
52.8400 290.0000 1.0000
52.8500 317.0000 1.0000
52.8600 309.0000 1.0000
52.8700 293.0000 1.0000
52.8800 309.0000 1.0000
52.8900 301.0000 1.0000
52.9000 316.0000 1.0000
52.9100 302.0000 1.0000
52.9200 280.0000 1.0000
52.9300 298.0000 1.0000
52.9400 300.0000 1.0000
52.9500 310.0000 1.0000
52.9600 297.0000 1.0000
52.9700 290.0000 1.0000
52.9800 325.0000 1.0000
52.9900 295.0000 1.0000
53.0000 301.0000 1.0000
53.0100 302.0000 1.0000
53.0200 308.0000 1.0000
53.0300 305.0000 1.0000
53.0400 305.0000 1.0000
53.0500 300.0000 1.0000
53.0600 302.0000 1.0000
53.0700 279.0000 1.0000
53.0800 287.0000 1.0000
53.0900 293.0000 1.0000
53.1000 304.0000 1.0000
53.1100 318.0000 1.0000
53.1200 317.0000 1.0000
53.1300 332.0000 1.0000
53.1400 304.0000 1.0000
53.1500 321.0000 1.0000
53.1600 323.0000 1.0000
53.1700 320.0000 1.0000
53.1800 334.0000 1.0000
53.1900 297.0000 1.0000
53.2000 306.0000 1.0000
53.2100 283.0000 1.0000
53.2200 294.0000 1.0000
53.2300 330.0000 1.0000
53.2400 318.0000 1.0000
53.2500 310.0000 1.0000
53.2600 293.0000 1.0000
53.2700 293.0000 1.0000
53.2800 309.0000 1.0000
53.2900 304.0000 1.0000
53.3000 317.0000 1.0000
53.3100 300.0000 1.0000
53.3200 269.0000 1.0000
53.3300 306.0000 1.0000
53.3400 314.0000 1.0000
53.3500 300.0000 1.0000
53.3600 313.0000 1.0000
53.3700 304.0000 1.0000
53.3800 317.0000 1.0000
53.3900 300.0000 1.0000
53.4000 287.0000 1.0000
53.4100 289.0000 1.0000
53.4200 296.0000 1.0000
53.4300 278.0000 1.0000
53.4400 285.0000 1.0000
53.4500 304.0000 1.0000
53.4600 293.0000 1.0000
53.4700 317.0000 1.0000
53.4800 298.0000 1.0000
53.4900 298.0000 1.0000
53.5000 318.0000 1.0000
53.5100 312.0000 1.0000
53.5200 313.0000 1.0000
53.5300 315.0000 1.0000
53.5400 313.0000 1.0000
53.5500 287.0000 1.0000
53.5600 287.0000 1.0000
53.5700 315.0000 1.0000
53.5800 309.0000 1.0000
53.5900 310.0000 1.0000
53.6000 302.0000 1.0000
53.6100 316.0000 1.0000
53.6200 306.0000 1.0000
53.6300 312.0000 1.0000
53.6400 270.0000 1.0000
53.6500 321.0000 1.0000
53.6600 307.0000 1.0000
53.6700 327.0000 1.0000
53.6800 319.0000 1.0000
53.6900 320.0000 1.0000
53.7000 322.0000 1.0000
53.7100 316.0000 1.0000
53.7200 319.0000 1.0000
53.7300 292.0000 1.0000
53.7400 297.0000 1.0000
53.7500 270.0000 1.0000
53.7600 314.0000 1.0000
53.7700 309.0000 1.0000
53.7800 295.0000 1.0000
53.7900 292.0000 1.0000
53.8000 291.0000 1.0000
53.8100 329.0000 1.0000
53.8200 309.0000 1.0000
53.8300 298.0000 1.0000
53.8400 281.0000 1.0000
53.8500 310.0000 1.0000
53.8600 297.0000 1.0000
53.8700 296.0000 1.0000
53.8800 254.0000 1.0000
53.8900 308.0000 1.0000
53.9000 327.0000 1.0000
53.9100 297.0000 1.0000
53.9200 297.0000 1.0000
53.9300 328.0000 1.0000
53.9400 292.0000 1.0000
53.9500 297.0000 1.0000
53.9600 338.0000 1.0000
53.9700 332.0000 1.0000
53.9800 343.0000 1.0000
53.9900 313.0000 1.0000
54.0000 299.0000 1.0000
54.0100 327.0000 1.0000
54.0200 343.0000 1.0000
54.0300 306.0000 1.0000
54.0400 348.0000 1.0000
54.0500 359.0000 1.0000
54.0600 331.0000 1.0000
54.0700 336.0000 1.0000
54.0800 337.0000 1.0000
54.0900 327.0000 1.0000
54.1000 299.0000 1.0000
54.1100 330.0000 1.0000
54.1200 311.0000 1.0000
54.1300 310.0000 1.0000
54.1400 312.0000 1.0000
54.1500 317.0000 1.0000
54.1600 326.0000 1.0000
54.1700 329.0000 1.0000
54.1800 327.0000 1.0000
54.1900 343.0000 1.0000
54.2000 307.0000 1.0000
54.2100 337.0000 1.0000
54.2200 303.0000 1.0000
54.2300 351.0000 1.0000
54.2400 341.0000 1.0000
54.2500 329.0000 1.0000
54.2600 321.0000 1.0000
54.2700 321.0000 1.0000
54.2800 314.0000 1.0000
54.2900 338.0000 1.0000
54.3000 363.0000 1.0000
54.3100 325.0000 1.0000
54.3200 332.0000 1.0000
54.3300 372.0000 1.0000
54.3400 334.0000 1.0000
54.3500 349.0000 1.0000
54.3600 339.0000 1.0000
54.3700 365.0000 1.0000
54.3800 353.0000 1.0000
54.3900 353.0000 1.0000
54.4000 336.0000 1.0000
54.4100 384.0000 1.0000
54.4200 408.0000 1.0000
54.4300 373.0000 1.0000
54.4400 409.0000 1.0000
54.4500 421.0000 1.0000
54.4600 411.0000 1.0000
54.4700 418.0000 1.0000
54.4800 440.0000 1.0000
54.4900 432.0000 1.0000
54.5000 434.0000 1.0000
54.5100 431.0000 1.0000
54.5200 426.0000 1.0000
54.5300 467.0000 1.0000
54.5400 429.0000 1.0000
54.5500 449.0000 1.0000
54.5600 431.0000 1.0000
54.5700 428.0000 1.0000
54.5800 441.0000 1.0000
54.5900 431.0000 1.0000
54.6000 469.0000 1.0000
54.6100 444.0000 1.0000
54.6200 461.0000 1.0000
54.6300 447.0000 1.0000
54.6400 417.0000 1.0000
54.6500 430.0000 1.0000
54.6600 425.0000 1.0000
54.6700 438.0000 1.0000
54.6800 433.0000 1.0000
54.6900 424.0000 1.0000
54.7000 421.0000 1.0000
54.7100 440.0000 1.0000
54.7200 397.0000 1.0000
54.7300 390.0000 1.0000
54.7400 375.0000 1.0000
54.7500 381.0000 1.0000
54.7600 393.0000 1.0000
54.7700 372.0000 1.0000
54.7800 346.0000 1.0000
54.7900 357.0000 1.0000
54.8000 367.0000 1.0000
54.8100 359.0000 1.0000
54.8200 375.0000 1.0000
54.8300 372.0000 1.0000
54.8400 335.0000 1.0000
54.8500 363.0000 1.0000
54.8600 349.0000 1.0000
54.8700 359.0000 1.0000
54.8800 343.0000 1.0000
54.8900 346.0000 1.0000
54.9000 354.0000 1.0000
54.9100 330.0000 1.0000
54.9200 315.0000 1.0000
54.9300 331.0000 1.0000
54.9400 341.0000 1.0000
54.9500 296.0000 1.0000
54.9600 292.0000 1.0000
54.9700 312.0000 1.0000
54.9800 301.0000 1.0000
54.9900 320.0000 1.0000
55.0000 327.0000 1.0000
55.0100 299.0000 1.0000
55.0200 331.0000 1.0000
55.0300 319.0000 1.0000
55.0400 307.0000 1.0000
55.0500 326.0000 1.0000
55.0600 310.0000 1.0000
55.0700 296.0000 1.0000
55.0800 288.0000 1.0000
55.0900 273.0000 1.0000
55.1000 314.0000 1.0000
55.1100 317.0000 1.0000
55.1200 291.0000 1.0000
55.1300 295.0000 1.0000
55.1400 314.0000 1.0000
55.1500 331.0000 1.0000
55.1600 301.0000 1.0000
55.1700 288.0000 1.0000
55.1800 256.0000 1.0000
55.1900 285.0000 1.0000
55.2000 296.0000 1.0000
55.2100 303.0000 1.0000
55.2200 312.0000 1.0000
55.2300 280.0000 1.0000
55.2400 326.0000 1.0000
55.2500 298.0000 1.0000
55.2600 284.0000 1.0000
55.2700 268.0000 1.0000
55.2800 297.0000 1.0000
55.2900 283.0000 1.0000
55.3000 307.0000 1.0000
55.3100 289.0000 1.0000
55.3200 274.0000 1.0000
55.3300 295.0000 1.0000
55.3400 287.0000 1.0000
55.3500 291.0000 1.0000
55.3600 292.0000 1.0000
55.3700 303.0000 1.0000
55.3800 280.0000 1.0000
55.3900 281.0000 1.0000
55.4000 288.0000 1.0000
55.4100 304.0000 1.0000
55.4200 336.0000 1.0000
55.4300 300.0000 1.0000
55.4400 272.0000 1.0000
55.4500 296.0000 1.0000
55.4600 300.0000 1.0000
55.4700 290.0000 1.0000
55.4800 311.0000 1.0000
55.4900 273.0000 1.0000
55.5000 288.0000 1.0000
55.5100 290.0000 1.0000
55.5200 283.0000 1.0000
55.5300 298.0000 1.0000
55.5400 302.0000 1.0000
55.5500 279.0000 1.0000
55.5600 273.0000 1.0000
55.5700 275.0000 1.0000
55.5800 275.0000 1.0000
55.5900 286.0000 1.0000
55.6000 312.0000 1.0000
55.6100 312.0000 1.0000
55.6200 285.0000 1.0000
55.6300 279.0000 1.0000
55.6400 282.0000 1.0000
55.6500 315.0000 1.0000
55.6600 297.0000 1.0000
55.6700 266.0000 1.0000
55.6800 301.0000 1.0000
55.6900 317.0000 1.0000
55.7000 296.0000 1.0000
55.7100 293.0000 1.0000
55.7200 291.0000 1.0000
55.7300 273.0000 1.0000
55.7400 304.0000 1.0000
55.7500 280.0000 1.0000
55.7600 314.0000 1.0000
55.7700 291.0000 1.0000
55.7800 307.0000 1.0000
55.7900 296.0000 1.0000
55.8000 315.0000 1.0000
55.8100 280.0000 1.0000
55.8200 300.0000 1.0000
55.8300 305.0000 1.0000
55.8400 288.0000 1.0000
55.8500 298.0000 1.0000
55.8600 282.0000 1.0000
55.8700 300.0000 1.0000
55.8800 279.0000 1.0000
55.8900 286.0000 1.0000
55.9000 295.0000 1.0000
55.9100 258.0000 1.0000
55.9200 297.0000 1.0000
55.9300 257.0000 1.0000
55.9400 300.0000 1.0000
55.9500 283.0000 1.0000
55.9600 269.0000 1.0000
55.9700 283.0000 1.0000
55.9800 294.0000 1.0000
55.9900 258.0000 1.0000
56.0000 296.0000 1.0000
56.0100 297.0000 1.0000
56.0200 262.0000 1.0000
56.0300 270.0000 1.0000
56.0400 287.0000 1.0000
56.0500 309.0000 1.0000
56.0600 295.0000 1.0000
56.0700 313.0000 1.0000
56.0800 289.0000 1.0000
56.0900 287.0000 1.0000
56.1000 274.0000 1.0000
56.1100 287.0000 1.0000
56.1200 301.0000 1.0000
56.1300 276.0000 1.0000
56.1400 300.0000 1.0000
56.1500 283.0000 1.0000
56.1600 285.0000 1.0000
56.1700 282.0000 1.0000
56.1800 297.0000 1.0000
56.1900 284.0000 1.0000
56.2000 271.0000 1.0000
56.2100 290.0000 1.0000
56.2200 280.0000 1.0000
56.2300 279.0000 1.0000
56.2400 292.0000 1.0000
56.2500 282.0000 1.0000
56.2600 288.0000 1.0000
56.2700 304.0000 1.0000
56.2800 247.0000 1.0000
56.2900 272.0000 1.0000
56.3000 276.0000 1.0000
56.3100 276.0000 1.0000
56.3200 271.0000 1.0000
56.3300 302.0000 1.0000
56.3400 287.0000 1.0000
56.3500 301.0000 1.0000
56.3600 274.0000 1.0000
56.3700 279.0000 1.0000
56.3800 265.0000 1.0000
56.3900 275.0000 1.0000
56.4000 309.0000 1.0000
56.4100 290.0000 1.0000
56.4200 293.0000 1.0000
56.4300 266.0000 1.0000
56.4400 291.0000 1.0000
56.4500 293.0000 1.0000
56.4600 300.0000 1.0000
56.4700 273.0000 1.0000
56.4800 297.0000 1.0000
56.4900 246.0000 1.0000
56.5000 272.0000 1.0000
56.5100 291.0000 1.0000
56.5200 309.0000 1.0000
56.5300 307.0000 1.0000
56.5400 279.0000 1.0000
56.5500 304.0000 1.0000
56.5600 286.0000 1.0000
56.5700 282.0000 1.0000
56.5800 292.0000 1.0000
56.5900 285.0000 1.0000
56.6000 305.0000 1.0000
56.6100 265.0000 1.0000
56.6200 290.0000 1.0000
56.6300 301.0000 1.0000
56.6400 285.0000 1.0000
56.6500 279.0000 1.0000
56.6600 278.0000 1.0000
56.6700 267.0000 1.0000
56.6800 269.0000 1.0000
56.6900 286.0000 1.0000
56.7000 296.0000 1.0000
56.7100 274.0000 1.0000
56.7200 286.0000 1.0000
56.7300 277.0000 1.0000
56.7400 286.0000 1.0000
56.7500 310.0000 1.0000
56.7600 292.0000 1.0000
56.7700 283.0000 1.0000
56.7800 292.0000 1.0000
56.7900 311.0000 1.0000
56.8000 299.0000 1.0000
56.8100 300.0000 1.0000
56.8200 287.0000 1.0000
56.8300 284.0000 1.0000
56.8400 290.0000 1.0000
56.8500 297.0000 1.0000
56.8600 264.0000 1.0000
56.8700 275.0000 1.0000
56.8800 311.0000 1.0000
56.8900 287.0000 1.0000
56.9000 288.0000 1.0000
56.9100 272.0000 1.0000
56.9200 263.0000 1.0000
56.9300 277.0000 1.0000
56.9400 306.0000 1.0000
56.9500 258.0000 1.0000
56.9600 286.0000 1.0000
56.9700 283.0000 1.0000
56.9800 304.0000 1.0000
56.9900 279.0000 1.0000
57.0000 275.0000 1.0000
57.0100 290.0000 1.0000
57.0200 269.0000 1.0000
57.0300 279.0000 1.0000
57.0400 306.0000 1.0000
57.0500 290.0000 1.0000
57.0600 313.0000 1.0000
57.0700 275.0000 1.0000
57.0800 295.0000 1.0000
57.0900 307.0000 1.0000
57.1000 284.0000 1.0000
57.1100 294.0000 1.0000
57.1200 294.0000 1.0000
57.1300 295.0000 1.0000
57.1400 296.0000 1.0000
57.1500 279.0000 1.0000
57.1600 249.0000 1.0000
57.1700 284.0000 1.0000
57.1800 287.0000 1.0000
57.1900 294.0000 1.0000
57.2000 287.0000 1.0000
57.2100 286.0000 1.0000
57.2200 304.0000 1.0000
57.2300 260.0000 1.0000
57.2400 287.0000 1.0000
57.2500 292.0000 1.0000
57.2600 266.0000 1.0000
57.2700 309.0000 1.0000
57.2800 308.0000 1.0000
57.2900 271.0000 1.0000
57.3000 312.0000 1.0000
57.3100 290.0000 1.0000
57.3200 304.0000 1.0000
57.3300 296.0000 1.0000
57.3400 300.0000 1.0000
57.3500 282.0000 1.0000
57.3600 281.0000 1.0000
57.3700 298.0000 1.0000
57.3800 308.0000 1.0000
57.3900 309.0000 1.0000
57.4000 292.0000 1.0000
57.4100 313.0000 1.0000
57.4200 310.0000 1.0000
57.4300 264.0000 1.0000
57.4400 294.0000 1.0000
57.4500 287.0000 1.0000
57.4600 278.0000 1.0000
57.4700 307.0000 1.0000
57.4800 290.0000 1.0000
57.4900 314.0000 1.0000
57.5000 299.0000 1.0000
57.5100 298.0000 1.0000
57.5200 313.0000 1.0000
57.5300 294.0000 1.0000
57.5400 287.0000 1.0000
57.5500 288.0000 1.0000
57.5600 288.0000 1.0000
57.5700 313.0000 1.0000
57.5800 300.0000 1.0000
57.5900 307.0000 1.0000
57.6000 263.0000 1.0000
57.6100 279.0000 1.0000
57.6200 293.0000 1.0000
57.6300 270.0000 1.0000
57.6400 285.0000 1.0000
57.6500 292.0000 1.0000
57.6600 294.0000 1.0000
57.6700 268.0000 1.0000
57.6800 293.0000 1.0000
57.6900 311.0000 1.0000
57.7000 279.0000 1.0000
57.7100 285.0000 1.0000
57.7200 298.0000 1.0000
57.7300 266.0000 1.0000
57.7400 286.0000 1.0000
57.7500 284.0000 1.0000
57.7600 320.0000 1.0000
57.7700 294.0000 1.0000
57.7800 291.0000 1.0000
57.7900 297.0000 1.0000
57.8000 279.0000 1.0000
57.8100 288.0000 1.0000
57.8200 293.0000 1.0000
57.8300 289.0000 1.0000
57.8400 312.0000 1.0000
57.8500 287.0000 1.0000
57.8600 290.0000 1.0000
57.8700 294.0000 1.0000
57.8800 292.0000 1.0000
57.8900 306.0000 1.0000
57.9000 289.0000 1.0000
57.9100 297.0000 1.0000
57.9200 277.0000 1.0000
57.9300 262.0000 1.0000
57.9400 282.0000 1.0000
57.9500 301.0000 1.0000
57.9600 300.0000 1.0000
57.9700 264.0000 1.0000
57.9800 280.0000 1.0000
57.9900 290.0000 1.0000
58.0000 261.0000 1.0000
58.0100 302.0000 1.0000
58.0200 296.0000 1.0000
58.0300 281.0000 1.0000
58.0400 283.0000 1.0000
58.0500 275.0000 1.0000
58.0600 262.0000 1.0000
58.0700 286.0000 1.0000
58.0800 270.0000 1.0000
58.0900 282.0000 1.0000
58.1000 300.0000 1.0000
58.1100 265.0000 1.0000
58.1200 313.0000 1.0000
58.1300 277.0000 1.0000
58.1400 305.0000 1.0000
58.1500 282.0000 1.0000
58.1600 287.0000 1.0000
58.1700 298.0000 1.0000
58.1800 272.0000 1.0000
58.1900 290.0000 1.0000
58.2000 286.0000 1.0000
58.2100 271.0000 1.0000
58.2200 300.0000 1.0000
58.2300 290.0000 1.0000
58.2400 280.0000 1.0000
58.2500 261.0000 1.0000
58.2600 305.0000 1.0000
58.2700 263.0000 1.0000
58.2800 297.0000 1.0000
58.2900 282.0000 1.0000
58.3000 294.0000 1.0000
58.3100 279.0000 1.0000
58.3200 272.0000 1.0000
58.3300 289.0000 1.0000
58.3400 265.0000 1.0000
58.3500 261.0000 1.0000
58.3600 264.0000 1.0000
58.3700 289.0000 1.0000
58.3800 256.0000 1.0000
58.3900 294.0000 1.0000
58.4000 265.0000 1.0000
58.4100 283.0000 1.0000
58.4200 266.0000 1.0000
58.4300 291.0000 1.0000
58.4400 300.0000 1.0000
58.4500 307.0000 1.0000
58.4600 281.0000 1.0000
58.4700 273.0000 1.0000
58.4800 264.0000 1.0000
58.4900 291.0000 1.0000
58.5000 288.0000 1.0000
58.5100 265.0000 1.0000
58.5200 283.0000 1.0000
58.5300 292.0000 1.0000
58.5400 279.0000 1.0000
58.5500 276.0000 1.0000
58.5600 275.0000 1.0000
58.5700 268.0000 1.0000
58.5800 295.0000 1.0000
58.5900 274.0000 1.0000
58.6000 281.0000 1.0000
58.6100 292.0000 1.0000
58.6200 295.0000 1.0000
58.6300 288.0000 1.0000
58.6400 284.0000 1.0000
58.6500 285.0000 1.0000
58.6600 272.0000 1.0000
58.6700 271.0000 1.0000
58.6800 298.0000 1.0000
58.6900 307.0000 1.0000
58.7000 275.0000 1.0000
58.7100 287.0000 1.0000
58.7200 300.0000 1.0000
58.7300 274.0000 1.0000
58.7400 292.0000 1.0000
58.7500 293.0000 1.0000
58.7600 291.0000 1.0000
58.7700 295.0000 1.0000
58.7800 295.0000 1.0000
58.7900 286.0000 1.0000
58.8000 291.0000 1.0000
58.8100 299.0000 1.0000
58.8200 281.0000 1.0000
58.8300 297.0000 1.0000
58.8400 292.0000 1.0000
58.8500 282.0000 1.0000
58.8600 281.0000 1.0000
58.8700 298.0000 1.0000
58.8800 290.0000 1.0000
58.8900 290.0000 1.0000
58.9000 258.0000 1.0000
58.9100 273.0000 1.0000
58.9200 292.0000 1.0000
58.9300 296.0000 1.0000
58.9400 285.0000 1.0000
58.9500 284.0000 1.0000
58.9600 290.0000 1.0000
58.9700 296.0000 1.0000
58.9800 280.0000 1.0000
58.9900 265.0000 1.0000
59.0000 292.0000 1.0000
59.0100 282.0000 1.0000
59.0200 281.0000 1.0000
59.0300 285.0000 1.0000
59.0400 278.0000 1.0000
59.0500 283.0000 1.0000
59.0600 268.0000 1.0000
59.0700 316.0000 1.0000
59.0800 284.0000 1.0000
59.0900 286.0000 1.0000
59.1000 281.0000 1.0000
59.1100 262.0000 1.0000
59.1200 297.0000 1.0000
59.1300 274.0000 1.0000
59.1400 254.0000 1.0000
59.1500 263.0000 1.0000
59.1600 289.0000 1.0000
59.1700 281.0000 1.0000
59.1800 254.0000 1.0000
59.1900 292.0000 1.0000
59.2000 274.0000 1.0000
59.2100 294.0000 1.0000
59.2200 290.0000 1.0000
59.2300 293.0000 1.0000
59.2400 255.0000 1.0000
59.2500 255.0000 1.0000
59.2600 269.0000 1.0000
59.2700 278.0000 1.0000
59.2800 279.0000 1.0000
59.2900 262.0000 1.0000
59.3000 270.0000 1.0000
59.3100 268.0000 1.0000
59.3200 244.0000 1.0000
59.3300 271.0000 1.0000
59.3400 304.0000 1.0000
59.3500 260.0000 1.0000
59.3600 292.0000 1.0000
59.3700 284.0000 1.0000
59.3800 281.0000 1.0000
59.3900 267.0000 1.0000
59.4000 273.0000 1.0000
59.4100 301.0000 1.0000
59.4200 306.0000 1.0000
59.4300 281.0000 1.0000
59.4400 298.0000 1.0000
59.4500 274.0000 1.0000
59.4600 253.0000 1.0000
59.4700 289.0000 1.0000
59.4800 280.0000 1.0000
59.4900 281.0000 1.0000
59.5000 281.0000 1.0000
59.5100 269.0000 1.0000
59.5200 252.0000 1.0000
59.5300 272.0000 1.0000
59.5400 299.0000 1.0000
59.5500 266.0000 1.0000
59.5600 279.0000 1.0000
59.5700 292.0000 1.0000
59.5800 290.0000 1.0000
59.5900 326.0000 1.0000
59.6000 289.0000 1.0000
59.6100 283.0000 1.0000
59.6200 263.0000 1.0000
59.6300 278.0000 1.0000
59.6400 278.0000 1.0000
59.6500 256.0000 1.0000
59.6600 296.0000 1.0000
59.6700 282.0000 1.0000
59.6800 283.0000 1.0000
59.6900 290.0000 1.0000
59.7000 300.0000 1.0000
59.7100 299.0000 1.0000
59.7200 290.0000 1.0000
59.7300 268.0000 1.0000
59.7400 281.0000 1.0000
59.7500 294.0000 1.0000
59.7600 272.0000 1.0000
59.7700 277.0000 1.0000
59.7800 259.0000 1.0000
59.7900 280.0000 1.0000
59.8000 270.0000 1.0000
59.8100 289.0000 1.0000
59.8200 288.0000 1.0000
59.8300 291.0000 1.0000
59.8400 323.0000 1.0000
59.8500 288.0000 1.0000
59.8600 277.0000 1.0000
59.8700 286.0000 1.0000
59.8800 297.0000 1.0000
59.8900 286.0000 1.0000
59.9000 304.0000 1.0000
59.9100 287.0000 1.0000
59.9200 300.0000 1.0000
59.9300 286.0000 1.0000
59.9400 290.0000 1.0000
59.9500 283.0000 1.0000
59.9600 283.0000 1.0000
59.9700 282.0000 1.0000
59.9800 318.0000 1.0000
59.9900 284.0000 1.0000
60.0000 324.0000 1.0000
60.0100 288.0000 1.0000
60.0200 275.0000 1.0000
60.0300 256.0000 1.0000
60.0400 264.0000 1.0000
60.0500 295.0000 1.0000
60.0600 305.0000 1.0000
60.0700 271.0000 1.0000
60.0800 270.0000 1.0000
60.0900 270.0000 1.0000
60.1000 283.0000 1.0000
60.1100 279.0000 1.0000
60.1200 281.0000 1.0000
60.1300 281.0000 1.0000
60.1400 280.0000 1.0000
60.1500 284.0000 1.0000
60.1600 281.0000 1.0000
60.1700 286.0000 1.0000
60.1800 290.0000 1.0000
60.1900 277.0000 1.0000
60.2000 257.0000 1.0000
60.2100 277.0000 1.0000
60.2200 317.0000 1.0000
60.2300 280.0000 1.0000
60.2400 289.0000 1.0000
60.2500 289.0000 1.0000
60.2600 311.0000 1.0000
60.2700 290.0000 1.0000
60.2800 304.0000 1.0000
60.2900 287.0000 1.0000
60.3000 285.0000 1.0000
60.3100 267.0000 1.0000
60.3200 271.0000 1.0000
60.3300 270.0000 1.0000
60.3400 267.0000 1.0000
60.3500 279.0000 1.0000
60.3600 289.0000 1.0000
60.3700 253.0000 1.0000
60.3800 265.0000 1.0000
60.3900 284.0000 1.0000
60.4000 273.0000 1.0000
60.4100 291.0000 1.0000
60.4200 317.0000 1.0000
60.4300 309.0000 1.0000
60.4400 277.0000 1.0000
60.4500 296.0000 1.0000
60.4600 262.0000 1.0000
60.4700 285.0000 1.0000
60.4800 318.0000 1.0000
60.4900 322.0000 1.0000
60.5000 293.0000 1.0000
60.5100 300.0000 1.0000
60.5200 241.0000 1.0000
60.5300 306.0000 1.0000
60.5400 309.0000 1.0000
60.5500 285.0000 1.0000
60.5600 297.0000 1.0000
60.5700 270.0000 1.0000
60.5800 303.0000 1.0000
60.5900 267.0000 1.0000
60.6000 318.0000 1.0000
60.6100 305.0000 1.0000
60.6200 293.0000 1.0000
60.6300 281.0000 1.0000
60.6400 309.0000 1.0000
60.6500 313.0000 1.0000
60.6600 307.0000 1.0000
60.6700 293.0000 1.0000
60.6800 261.0000 1.0000
60.6900 275.0000 1.0000
60.7000 273.0000 1.0000
60.7100 287.0000 1.0000
60.7200 281.0000 1.0000
60.7300 268.0000 1.0000
60.7400 289.0000 1.0000
60.7500 312.0000 1.0000
60.7600 281.0000 1.0000
60.7700 281.0000 1.0000
60.7800 305.0000 1.0000
60.7900 290.0000 1.0000
60.8000 284.0000 1.0000
60.8100 287.0000 1.0000
60.8200 266.0000 1.0000
60.8300 288.0000 1.0000
60.8400 320.0000 1.0000
60.8500 295.0000 1.0000
60.8600 289.0000 1.0000
60.8700 290.0000 1.0000
60.8800 287.0000 1.0000
60.8900 290.0000 1.0000
60.9000 290.0000 1.0000
60.9100 297.0000 1.0000
60.9200 284.0000 1.0000
60.9300 291.0000 1.0000
60.9400 297.0000 1.0000
60.9500 281.0000 1.0000
60.9600 268.0000 1.0000
60.9700 283.0000 1.0000
60.9800 324.0000 1.0000
60.9900 284.0000 1.0000
61.0000 308.0000 1.0000
61.0100 285.0000 1.0000
61.0200 293.0000 1.0000
61.0300 299.0000 1.0000
61.0400 278.0000 1.0000
61.0500 289.0000 1.0000
61.0600 288.0000 1.0000
61.0700 291.0000 1.0000
61.0800 327.0000 1.0000
61.0900 302.0000 1.0000
61.1000 294.0000 1.0000
61.1100 292.0000 1.0000
61.1200 297.0000 1.0000
61.1300 311.0000 1.0000
61.1400 320.0000 1.0000
61.1500 325.0000 1.0000
61.1600 311.0000 1.0000
61.1700 326.0000 1.0000
61.1800 311.0000 1.0000
61.1900 318.0000 1.0000
61.2000 323.0000 1.0000
61.2100 318.0000 1.0000
61.2200 315.0000 1.0000
61.2300 316.0000 1.0000
61.2400 334.0000 1.0000
61.2500 335.0000 1.0000
61.2600 296.0000 1.0000
61.2700 346.0000 1.0000
61.2800 335.0000 1.0000
61.2900 383.0000 1.0000
61.3000 390.0000 1.0000
61.3100 364.0000 1.0000
61.3200 366.0000 1.0000
61.3300 380.0000 1.0000
61.3400 388.0000 1.0000
61.3500 386.0000 1.0000
61.3600 428.0000 1.0000
61.3700 384.0000 1.0000
61.3800 398.0000 1.0000
61.3900 445.0000 1.0000
61.4000 467.0000 1.0000
61.4100 430.0000 1.0000
61.4200 448.0000 1.0000
61.4300 478.0000 1.0000
61.4400 418.0000 1.0000
61.4500 511.0000 1.0000
61.4600 495.0000 1.0000
61.4700 479.0000 1.0000
61.4800 548.0000 1.0000
61.4900 518.0000 1.0000
61.5000 598.0000 1.0000
61.5100 598.0000 1.0000
61.5200 557.0000 1.0000
61.5300 579.0000 1.0000
61.5400 610.0000 1.0000
61.5500 600.0000 1.0000
61.5600 597.0000 1.0000
61.5700 617.0000 1.0000
61.5800 633.0000 1.0000
61.5900 576.0000 1.0000
61.6000 610.0000 1.0000
61.6100 594.0000 1.0000
61.6200 584.0000 1.0000
61.6300 606.0000 1.0000
61.6400 613.0000 1.0000
61.6500 662.0000 1.0000
61.6600 613.0000 1.0000
61.6700 631.0000 1.0000
61.6800 589.0000 1.0000
61.6900 566.0000 1.0000
61.7000 582.0000 1.0000
61.7100 562.0000 1.0000
61.7200 600.0000 1.0000
61.7300 579.0000 1.0000
61.7400 568.0000 1.0000
61.7500 523.0000 1.0000
61.7600 534.0000 1.0000
61.7700 521.0000 1.0000
61.7800 493.0000 1.0000
61.7900 497.0000 1.0000
61.8000 492.0000 1.0000
61.8100 493.0000 1.0000
61.8200 466.0000 1.0000
61.8300 450.0000 1.0000
61.8400 424.0000 1.0000
61.8500 436.0000 1.0000
61.8600 442.0000 1.0000
61.8700 402.0000 1.0000
61.8800 431.0000 1.0000
61.8900 404.0000 1.0000
61.9000 430.0000 1.0000
61.9100 411.0000 1.0000
61.9200 386.0000 1.0000
61.9300 401.0000 1.0000
61.9400 384.0000 1.0000
61.9500 327.0000 1.0000
61.9600 358.0000 1.0000
61.9700 379.0000 1.0000
61.9800 376.0000 1.0000
61.9900 347.0000 1.0000
62.0000 360.0000 1.0000
62.0100 395.0000 1.0000
62.0200 348.0000 1.0000
62.0300 369.0000 1.0000
62.0400 379.0000 1.0000
62.0500 326.0000 1.0000
62.0600 326.0000 1.0000
62.0700 303.0000 1.0000
62.0800 357.0000 1.0000
62.0900 323.0000 1.0000
62.1000 320.0000 1.0000
62.1100 337.0000 1.0000
62.1200 343.0000 1.0000
62.1300 334.0000 1.0000
62.1400 321.0000 1.0000
62.1500 302.0000 1.0000
62.1600 319.0000 1.0000
62.1700 328.0000 1.0000
62.1800 318.0000 1.0000
62.1900 279.0000 1.0000
62.2000 330.0000 1.0000
62.2100 329.0000 1.0000
62.2200 318.0000 1.0000
62.2300 314.0000 1.0000
62.2400 339.0000 1.0000
62.2500 329.0000 1.0000
62.2600 302.0000 1.0000
62.2700 322.0000 1.0000
62.2800 296.0000 1.0000
62.2900 297.0000 1.0000
62.3000 286.0000 1.0000
62.3100 323.0000 1.0000
62.3200 312.0000 1.0000
62.3300 324.0000 1.0000
62.3400 347.0000 1.0000
62.3500 306.0000 1.0000
62.3600 326.0000 1.0000
62.3700 322.0000 1.0000
62.3800 313.0000 1.0000
62.3900 313.0000 1.0000
62.4000 319.0000 1.0000
62.4100 318.0000 1.0000
62.4200 322.0000 1.0000
62.4300 328.0000 1.0000
62.4400 331.0000 1.0000
62.4500 317.0000 1.0000
62.4600 315.0000 1.0000
62.4700 334.0000 1.0000
62.4800 327.0000 1.0000
62.4900 338.0000 1.0000
62.5000 321.0000 1.0000
62.5100 325.0000 1.0000
62.5200 299.0000 1.0000
62.5300 319.0000 1.0000
62.5400 315.0000 1.0000
62.5500 306.0000 1.0000
62.5600 303.0000 1.0000
62.5700 295.0000 1.0000
62.5800 302.0000 1.0000
62.5900 329.0000 1.0000
62.6000 297.0000 1.0000
62.6100 297.0000 1.0000
62.6200 318.0000 1.0000
62.6300 295.0000 1.0000
62.6400 306.0000 1.0000
62.6500 307.0000 1.0000
62.6600 308.0000 1.0000
62.6700 309.0000 1.0000
62.6800 323.0000 1.0000
62.6900 283.0000 1.0000
62.7000 277.0000 1.0000
62.7100 289.0000 1.0000
62.7200 307.0000 1.0000
62.7300 302.0000 1.0000
62.7400 286.0000 1.0000
62.7500 288.0000 1.0000
62.7600 300.0000 1.0000
62.7700 282.0000 1.0000
62.7800 294.0000 1.0000
62.7900 300.0000 1.0000
62.8000 290.0000 1.0000
62.8100 283.0000 1.0000
62.8200 303.0000 1.0000
62.8300 284.0000 1.0000
62.8400 274.0000 1.0000
62.8500 280.0000 1.0000
62.8600 297.0000 1.0000
62.8700 251.0000 1.0000
62.8800 291.0000 1.0000
62.8900 282.0000 1.0000
62.9000 299.0000 1.0000
62.9100 249.0000 1.0000
62.9200 269.0000 1.0000
62.9300 274.0000 1.0000
62.9400 271.0000 1.0000
62.9500 275.0000 1.0000
62.9600 277.0000 1.0000
62.9700 269.0000 1.0000
62.9800 308.0000 1.0000
62.9900 287.0000 1.0000
63.0000 283.0000 1.0000
63.0100 303.0000 1.0000
63.0200 284.0000 1.0000
63.0300 286.0000 1.0000
63.0400 274.0000 1.0000
63.0500 304.0000 1.0000
63.0600 298.0000 1.0000
63.0700 309.0000 1.0000
63.0800 317.0000 1.0000
63.0900 288.0000 1.0000
63.1000 268.0000 1.0000
63.1100 260.0000 1.0000
63.1200 268.0000 1.0000
63.1300 256.0000 1.0000
63.1400 279.0000 1.0000
63.1500 257.0000 1.0000
63.1600 293.0000 1.0000
63.1700 313.0000 1.0000
63.1800 302.0000 1.0000
63.1900 284.0000 1.0000
63.2000 280.0000 1.0000
63.2100 276.0000 1.0000
63.2200 284.0000 1.0000
63.2300 281.0000 1.0000
63.2400 277.0000 1.0000
63.2500 273.0000 1.0000
63.2600 279.0000 1.0000
63.2700 278.0000 1.0000
63.2800 280.0000 1.0000
63.2900 271.0000 1.0000
63.3000 252.0000 1.0000
63.3100 269.0000 1.0000
63.3200 281.0000 1.0000
63.3300 239.0000 1.0000
63.3400 283.0000 1.0000
63.3500 287.0000 1.0000
63.3600 274.0000 1.0000
63.3700 316.0000 1.0000
63.3800 287.0000 1.0000
63.3900 260.0000 1.0000
63.4000 278.0000 1.0000
63.4100 290.0000 1.0000
63.4200 293.0000 1.0000
63.4300 330.0000 1.0000
63.4400 288.0000 1.0000
63.4500 302.0000 1.0000
63.4600 291.0000 1.0000
63.4700 269.0000 1.0000
63.4800 255.0000 1.0000
63.4900 286.0000 1.0000
63.5000 293.0000 1.0000
63.5100 282.0000 1.0000
63.5200 284.0000 1.0000
63.5300 281.0000 1.0000
63.5400 274.0000 1.0000
63.5500 302.0000 1.0000
63.5600 296.0000 1.0000
63.5700 296.0000 1.0000
63.5800 265.0000 1.0000
63.5900 275.0000 1.0000
63.6000 301.0000 1.0000
63.6100 257.0000 1.0000
63.6200 304.0000 1.0000
63.6300 292.0000 1.0000
63.6400 294.0000 1.0000
63.6500 310.0000 1.0000
63.6600 300.0000 1.0000
63.6700 292.0000 1.0000
63.6800 292.0000 1.0000
63.6900 289.0000 1.0000
63.7000 318.0000 1.0000
63.7100 309.0000 1.0000
63.7200 289.0000 1.0000
63.7300 303.0000 1.0000
63.7400 298.0000 1.0000
63.7500 299.0000 1.0000
63.7600 271.0000 1.0000
63.7700 298.0000 1.0000
63.7800 286.0000 1.0000
63.7900 278.0000 1.0000
63.8000 281.0000 1.0000
63.8100 308.0000 1.0000
63.8200 294.0000 1.0000
63.8300 308.0000 1.0000
63.8400 333.0000 1.0000
63.8500 365.0000 1.0000
63.8600 366.0000 1.0000
63.8700 354.0000 1.0000
63.8800 315.0000 1.0000
63.8900 343.0000 1.0000
63.9000 324.0000 1.0000
63.9100 369.0000 1.0000
63.9200 390.0000 1.0000
63.9300 433.0000 1.0000
63.9400 429.0000 1.0000
63.9500 456.0000 1.0000
63.9600 456.0000 1.0000
63.9700 467.0000 1.0000
63.9800 452.0000 1.0000
63.9900 477.0000 1.0000
64.0000 449.0000 1.0000
64.0100 451.0000 1.0000
64.0200 445.0000 1.0000
64.0300 429.0000 1.0000
64.0400 448.0000 1.0000
64.0500 412.0000 1.0000
64.0600 431.0000 1.0000
64.0700 409.0000 1.0000
64.0800 385.0000 1.0000
64.0900 396.0000 1.0000
64.1000 438.0000 1.0000
64.1100 388.0000 1.0000
64.1200 365.0000 1.0000
64.1300 415.0000 1.0000
64.1400 411.0000 1.0000
64.1500 369.0000 1.0000
64.1600 367.0000 1.0000
64.1700 404.0000 1.0000
64.1800 389.0000 1.0000
64.1900 370.0000 1.0000
64.2000 376.0000 1.0000
64.2100 368.0000 1.0000
64.2200 351.0000 1.0000
64.2300 353.0000 1.0000
64.2400 351.0000 1.0000
64.2500 324.0000 1.0000
64.2600 359.0000 1.0000
64.2700 352.0000 1.0000
64.2800 335.0000 1.0000
64.2900 307.0000 1.0000
64.3000 285.0000 1.0000
64.3100 321.0000 1.0000
64.3200 335.0000 1.0000
64.3300 326.0000 1.0000
64.3400 317.0000 1.0000
64.3500 317.0000 1.0000
64.3600 304.0000 1.0000
64.3700 322.0000 1.0000
64.3800 323.0000 1.0000
64.3900 316.0000 1.0000
64.4000 298.0000 1.0000
64.4100 299.0000 1.0000
64.4200 297.0000 1.0000
64.4300 309.0000 1.0000
64.4400 323.0000 1.0000
64.4500 318.0000 1.0000
64.4600 292.0000 1.0000
64.4700 314.0000 1.0000
64.4800 316.0000 1.0000
64.4900 284.0000 1.0000
64.5000 288.0000 1.0000
64.5100 270.0000 1.0000
64.5200 300.0000 1.0000
64.5300 291.0000 1.0000
64.5400 297.0000 1.0000
64.5500 297.0000 1.0000
64.5600 276.0000 1.0000
64.5700 305.0000 1.0000
64.5800 292.0000 1.0000
64.5900 328.0000 1.0000
64.6000 287.0000 1.0000
64.6100 292.0000 1.0000
64.6200 278.0000 1.0000
64.6300 246.0000 1.0000
64.6400 300.0000 1.0000
64.6500 285.0000 1.0000
64.6600 306.0000 1.0000
64.6700 271.0000 1.0000
64.6800 289.0000 1.0000
64.6900 286.0000 1.0000
64.7000 259.0000 1.0000
64.7100 284.0000 1.0000
64.7200 290.0000 1.0000
64.7300 280.0000 1.0000
64.7400 306.0000 1.0000
64.7500 272.0000 1.0000
64.7600 289.0000 1.0000
64.7700 285.0000 1.0000
64.7800 336.0000 1.0000
64.7900 281.0000 1.0000
64.8000 281.0000 1.0000
64.8100 300.0000 1.0000
64.8200 270.0000 1.0000
64.8300 301.0000 1.0000
64.8400 296.0000 1.0000
64.8500 286.0000 1.0000
64.8600 308.0000 1.0000
64.8700 314.0000 1.0000
64.8800 290.0000 1.0000
64.8900 262.0000 1.0000
64.9000 288.0000 1.0000
64.9100 331.0000 1.0000
64.9200 303.0000 1.0000
64.9300 302.0000 1.0000
64.9400 309.0000 1.0000
64.9500 320.0000 1.0000
64.9600 314.0000 1.0000
64.9700 296.0000 1.0000
64.9800 307.0000 1.0000
64.9900 291.0000 1.0000
65.0000 305.0000 1.0000
65.0100 316.0000 1.0000
65.0200 320.0000 1.0000
65.0300 310.0000 1.0000
65.0400 298.0000 1.0000
65.0500 307.0000 1.0000
65.0600 289.0000 1.0000
65.0700 294.0000 1.0000
65.0800 294.0000 1.0000
65.0900 312.0000 1.0000
65.1000 323.0000 1.0000
65.1100 331.0000 1.0000
65.1200 338.0000 1.0000
65.1300 300.0000 1.0000
65.1400 316.0000 1.0000
65.1500 321.0000 1.0000
65.1600 314.0000 1.0000
65.1700 316.0000 1.0000
65.1800 317.0000 1.0000
65.1900 316.0000 1.0000
65.2000 331.0000 1.0000
65.2100 354.0000 1.0000
65.2200 362.0000 1.0000
65.2300 396.0000 1.0000
65.2400 336.0000 1.0000
65.2500 330.0000 1.0000
65.2600 382.0000 1.0000
65.2700 382.0000 1.0000
65.2800 367.0000 1.0000
65.2900 363.0000 1.0000
65.3000 403.0000 1.0000
65.3100 415.0000 1.0000
65.3200 410.0000 1.0000
65.3300 404.0000 1.0000
65.3400 437.0000 1.0000
65.3500 460.0000 1.0000
65.3600 449.0000 1.0000
65.3700 506.0000 1.0000
65.3800 484.0000 1.0000
65.3900 537.0000 1.0000
65.4000 536.0000 1.0000
65.4100 541.0000 1.0000
65.4200 598.0000 1.0000
65.4300 623.0000 1.0000
65.4400 645.0000 1.0000
65.4500 676.0000 1.0000
65.4600 706.0000 1.0000
65.4700 724.0000 1.0000
65.4800 800.0000 1.0000
65.4900 816.0000 1.0000
65.5000 885.0000 1.0000
65.5100 873.0000 1.0000
65.5200 929.0000 1.0000
65.5300 968.0000 1.0000
65.5400 991.0000 1.0000
65.5500 1024.0000 1.0000
65.5600 1013.0000 1.0000
65.5700 1052.0000 1.0000
65.5800 1051.0000 1.0000
65.5900 1103.0000 1.0000
65.6000 1016.0000 1.0000
65.6100 1040.0000 1.0000
65.6200 981.0000 1.0000
65.6300 1037.0000 1.0000
65.6400 1010.0000 1.0000
65.6500 957.0000 1.0000
65.6600 991.0000 1.0000
65.6700 947.0000 1.0000
65.6800 958.0000 1.0000
65.6900 910.0000 1.0000
65.7000 902.0000 1.0000
65.7100 896.0000 1.0000
65.7200 874.0000 1.0000
65.7300 847.0000 1.0000
65.7400 884.0000 1.0000
65.7500 879.0000 1.0000
65.7600 828.0000 1.0000
65.7700 850.0000 1.0000
65.7800 776.0000 1.0000
65.7900 733.0000 1.0000
65.8000 690.0000 1.0000
65.8100 720.0000 1.0000
65.8200 696.0000 1.0000
65.8300 650.0000 1.0000
65.8400 599.0000 1.0000
65.8500 590.0000 1.0000
65.8600 581.0000 1.0000
65.8700 566.0000 1.0000
65.8800 521.0000 1.0000
65.8900 533.0000 1.0000
65.9000 517.0000 1.0000
65.9100 469.0000 1.0000
65.9200 491.0000 1.0000
65.9300 445.0000 1.0000
65.9400 457.0000 1.0000
65.9500 418.0000 1.0000
65.9600 430.0000 1.0000
65.9700 403.0000 1.0000
65.9800 387.0000 1.0000
65.9900 407.0000 1.0000
66.0000 382.0000 1.0000
66.0100 337.0000 1.0000
66.0200 367.0000 1.0000
66.0300 365.0000 1.0000
66.0400 366.0000 1.0000
66.0500 382.0000 1.0000
66.0600 352.0000 1.0000
66.0700 351.0000 1.0000
66.0800 352.0000 1.0000
66.0900 353.0000 1.0000
66.1000 299.0000 1.0000
66.1100 326.0000 1.0000
66.1200 334.0000 1.0000
66.1300 351.0000 1.0000
66.1400 305.0000 1.0000
66.1500 344.0000 1.0000
66.1600 295.0000 1.0000
66.1700 293.0000 1.0000
66.1800 330.0000 1.0000
66.1900 304.0000 1.0000
66.2000 308.0000 1.0000
66.2100 321.0000 1.0000
66.2200 293.0000 1.0000
66.2300 283.0000 1.0000
66.2400 282.0000 1.0000
66.2500 315.0000 1.0000
66.2600 295.0000 1.0000
66.2700 293.0000 1.0000
66.2800 285.0000 1.0000
66.2900 290.0000 1.0000
66.3000 299.0000 1.0000
66.3100 296.0000 1.0000
66.3200 291.0000 1.0000
66.3300 285.0000 1.0000
66.3400 284.0000 1.0000
66.3500 297.0000 1.0000
66.3600 314.0000 1.0000
66.3700 281.0000 1.0000
66.3800 296.0000 1.0000
66.3900 275.0000 1.0000
66.4000 261.0000 1.0000
66.4100 269.0000 1.0000
66.4200 281.0000 1.0000
66.4300 291.0000 1.0000
66.4400 305.0000 1.0000
66.4500 280.0000 1.0000
66.4600 276.0000 1.0000
66.4700 278.0000 1.0000
66.4800 278.0000 1.0000
66.4900 283.0000 1.0000
66.5000 277.0000 1.0000
66.5100 274.0000 1.0000
66.5200 274.0000 1.0000
66.5300 271.0000 1.0000
66.5400 291.0000 1.0000
66.5500 271.0000 1.0000
66.5600 260.0000 1.0000
66.5700 282.0000 1.0000
66.5800 278.0000 1.0000
66.5900 274.0000 1.0000
66.6000 266.0000 1.0000
66.6100 259.0000 1.0000
66.6200 260.0000 1.0000
66.6300 257.0000 1.0000
66.6400 260.0000 1.0000
66.6500 276.0000 1.0000
66.6600 265.0000 1.0000
66.6700 268.0000 1.0000
66.6800 272.0000 1.0000
66.6900 263.0000 1.0000
66.7000 235.0000 1.0000
66.7100 279.0000 1.0000
66.7200 281.0000 1.0000
66.7300 254.0000 1.0000
66.7400 246.0000 1.0000
66.7500 262.0000 1.0000
66.7600 265.0000 1.0000
66.7700 256.0000 1.0000
66.7800 268.0000 1.0000
66.7900 262.0000 1.0000
66.8000 262.0000 1.0000
66.8100 290.0000 1.0000
66.8200 271.0000 1.0000
66.8300 242.0000 1.0000
66.8400 240.0000 1.0000
66.8500 273.0000 1.0000
66.8600 278.0000 1.0000
66.8700 264.0000 1.0000
66.8800 289.0000 1.0000
66.8900 252.0000 1.0000
66.9000 269.0000 1.0000
66.9100 279.0000 1.0000
66.9200 259.0000 1.0000
66.9300 255.0000 1.0000
66.9400 223.0000 1.0000
66.9500 297.0000 1.0000
66.9600 280.0000 1.0000
66.9700 233.0000 1.0000
66.9800 256.0000 1.0000
66.9900 261.0000 1.0000
67.0000 284.0000 1.0000
67.0100 265.0000 1.0000
67.0200 265.0000 1.0000
67.0300 232.0000 1.0000
67.0400 233.0000 1.0000
67.0500 251.0000 1.0000
67.0600 251.0000 1.0000
67.0700 249.0000 1.0000
67.0800 265.0000 1.0000
67.0900 266.0000 1.0000
67.1000 284.0000 1.0000
67.1100 275.0000 1.0000
67.1200 255.0000 1.0000
67.1300 251.0000 1.0000
67.1400 248.0000 1.0000
67.1500 243.0000 1.0000
67.1600 248.0000 1.0000
67.1700 269.0000 1.0000
67.1800 244.0000 1.0000
67.1900 270.0000 1.0000
67.2000 254.0000 1.0000
67.2100 248.0000 1.0000
67.2200 243.0000 1.0000
67.2300 232.0000 1.0000
67.2400 250.0000 1.0000
67.2500 245.0000 1.0000
67.2600 260.0000 1.0000
67.2700 244.0000 1.0000
67.2800 269.0000 1.0000
67.2900 275.0000 1.0000
67.3000 249.0000 1.0000
67.3100 250.0000 1.0000
67.3200 257.0000 1.0000
67.3300 252.0000 1.0000
67.3400 235.0000 1.0000
67.3500 260.0000 1.0000
67.3600 273.0000 1.0000
67.3700 271.0000 1.0000
67.3800 240.0000 1.0000
67.3900 278.0000 1.0000
67.4000 242.0000 1.0000
67.4100 234.0000 1.0000
67.4200 253.0000 1.0000
67.4300 256.0000 1.0000
67.4400 257.0000 1.0000
67.4500 265.0000 1.0000
67.4600 294.0000 1.0000
67.4700 277.0000 1.0000
67.4800 282.0000 1.0000
67.4900 254.0000 1.0000
67.5000 235.0000 1.0000
67.5100 242.0000 1.0000
67.5200 247.0000 1.0000
67.5300 211.0000 1.0000
67.5400 242.0000 1.0000
67.5500 264.0000 1.0000
67.5600 258.0000 1.0000
67.5700 244.0000 1.0000
67.5800 251.0000 1.0000
67.5900 274.0000 1.0000
67.6000 241.0000 1.0000
67.6100 250.0000 1.0000
67.6200 282.0000 1.0000
67.6300 251.0000 1.0000
67.6400 242.0000 1.0000
67.6500 278.0000 1.0000
67.6600 263.0000 1.0000
67.6700 258.0000 1.0000
67.6800 258.0000 1.0000
67.6900 249.0000 1.0000
67.7000 254.0000 1.0000
67.7100 274.0000 1.0000
67.7200 259.0000 1.0000
67.7300 241.0000 1.0000
67.7400 266.0000 1.0000
67.7500 222.0000 1.0000
67.7600 271.0000 1.0000
67.7700 266.0000 1.0000
67.7800 251.0000 1.0000
67.7900 269.0000 1.0000
67.8000 246.0000 1.0000
67.8100 250.0000 1.0000
67.8200 241.0000 1.0000
67.8300 254.0000 1.0000
67.8400 263.0000 1.0000
67.8500 277.0000 1.0000
67.8600 229.0000 1.0000
67.8700 257.0000 1.0000
67.8800 251.0000 1.0000
67.8900 269.0000 1.0000
67.9000 247.0000 1.0000
67.9100 268.0000 1.0000
67.9200 236.0000 1.0000
67.9300 246.0000 1.0000
67.9400 259.0000 1.0000
67.9500 272.0000 1.0000
67.9600 278.0000 1.0000
67.9700 263.0000 1.0000
67.9800 250.0000 1.0000
67.9900 243.0000 1.0000
68.0000 255.0000 1.0000
68.0100 265.0000 1.0000
68.0200 245.0000 1.0000
68.0300 239.0000 1.0000
68.0400 298.0000 1.0000
68.0500 280.0000 1.0000
68.0600 259.0000 1.0000
68.0700 229.0000 1.0000
68.0800 265.0000 1.0000
68.0900 251.0000 1.0000
68.1000 247.0000 1.0000
68.1100 260.0000 1.0000
68.1200 254.0000 1.0000
68.1300 273.0000 1.0000
68.1400 226.0000 1.0000
68.1500 249.0000 1.0000
68.1600 265.0000 1.0000
68.1700 261.0000 1.0000
68.1800 232.0000 1.0000
68.1900 245.0000 1.0000
68.2000 254.0000 1.0000
68.2100 239.0000 1.0000
68.2200 220.0000 1.0000
68.2300 239.0000 1.0000
68.2400 257.0000 1.0000
68.2500 248.0000 1.0000
68.2600 243.0000 1.0000
68.2700 263.0000 1.0000
68.2800 277.0000 1.0000
68.2900 263.0000 1.0000
68.3000 272.0000 1.0000
68.3100 236.0000 1.0000
68.3200 229.0000 1.0000
68.3300 257.0000 1.0000
68.3400 271.0000 1.0000
68.3500 252.0000 1.0000
68.3600 265.0000 1.0000
68.3700 228.0000 1.0000
68.3800 257.0000 1.0000
68.3900 234.0000 1.0000
68.4000 261.0000 1.0000
68.4100 245.0000 1.0000
68.4200 267.0000 1.0000
68.4300 246.0000 1.0000
68.4400 237.0000 1.0000
68.4500 234.0000 1.0000
68.4600 249.0000 1.0000
68.4700 250.0000 1.0000
68.4800 244.0000 1.0000
68.4900 264.0000 1.0000
68.5000 266.0000 1.0000
68.5100 274.0000 1.0000
68.5200 254.0000 1.0000
68.5300 260.0000 1.0000
68.5400 255.0000 1.0000
68.5500 240.0000 1.0000
68.5600 256.0000 1.0000
68.5700 228.0000 1.0000
68.5800 255.0000 1.0000
68.5900 230.0000 1.0000
68.6000 251.0000 1.0000
68.6100 239.0000 1.0000
68.6200 259.0000 1.0000
68.6300 268.0000 1.0000
68.6400 247.0000 1.0000
68.6500 275.0000 1.0000
68.6600 278.0000 1.0000
68.6700 274.0000 1.0000
68.6800 258.0000 1.0000
68.6900 248.0000 1.0000
68.7000 261.0000 1.0000
68.7100 259.0000 1.0000
68.7200 270.0000 1.0000
68.7300 254.0000 1.0000
68.7400 263.0000 1.0000
68.7500 246.0000 1.0000
68.7600 254.0000 1.0000
68.7700 260.0000 1.0000
68.7800 246.0000 1.0000
68.7900 295.0000 1.0000
68.8000 253.0000 1.0000
68.8100 263.0000 1.0000
68.8200 235.0000 1.0000
68.8300 264.0000 1.0000
68.8400 259.0000 1.0000
68.8500 242.0000 1.0000
68.8600 230.0000 1.0000
68.8700 250.0000 1.0000
68.8800 232.0000 1.0000
68.8900 240.0000 1.0000
68.9000 267.0000 1.0000
68.9100 245.0000 1.0000
68.9200 249.0000 1.0000
68.9300 246.0000 1.0000
68.9400 230.0000 1.0000
68.9500 236.0000 1.0000
68.9600 243.0000 1.0000
68.9700 263.0000 1.0000
68.9800 280.0000 1.0000
68.9900 250.0000 1.0000
69.0000 257.0000 1.0000
69.0100 287.0000 1.0000
69.0200 259.0000 1.0000
69.0300 260.0000 1.0000
69.0400 259.0000 1.0000
69.0500 255.0000 1.0000
69.0600 258.0000 1.0000
69.0700 251.0000 1.0000
69.0800 261.0000 1.0000
69.0900 251.0000 1.0000
69.1000 250.0000 1.0000
69.1100 259.0000 1.0000
69.1200 231.0000 1.0000
69.1300 266.0000 1.0000
69.1400 243.0000 1.0000
69.1500 241.0000 1.0000
69.1600 285.0000 1.0000
69.1700 234.0000 1.0000
69.1800 273.0000 1.0000
69.1900 257.0000 1.0000
69.2000 264.0000 1.0000
69.2100 255.0000 1.0000
69.2200 252.0000 1.0000
69.2300 225.0000 1.0000
69.2400 242.0000 1.0000
69.2500 236.0000 1.0000
69.2600 249.0000 1.0000
69.2700 256.0000 1.0000
69.2800 250.0000 1.0000
69.2900 243.0000 1.0000
69.3000 233.0000 1.0000
69.3100 251.0000 1.0000
69.3200 236.0000 1.0000
69.3300 242.0000 1.0000
69.3400 242.0000 1.0000
69.3500 230.0000 1.0000
69.3600 224.0000 1.0000
69.3700 242.0000 1.0000
69.3800 258.0000 1.0000
69.3900 264.0000 1.0000
69.4000 255.0000 1.0000
69.4100 247.0000 1.0000
69.4200 267.0000 1.0000
69.4300 229.0000 1.0000
69.4400 236.0000 1.0000
69.4500 272.0000 1.0000
69.4600 229.0000 1.0000
69.4700 247.0000 1.0000
69.4800 242.0000 1.0000
69.4900 249.0000 1.0000
69.5000 252.0000 1.0000
69.5100 264.0000 1.0000
69.5200 237.0000 1.0000
69.5300 281.0000 1.0000
69.5400 262.0000 1.0000
69.5500 249.0000 1.0000
69.5600 229.0000 1.0000
69.5700 218.0000 1.0000
69.5800 212.0000 1.0000
69.5900 246.0000 1.0000
69.6000 270.0000 1.0000
69.6100 247.0000 1.0000
69.6200 227.0000 1.0000
69.6300 245.0000 1.0000
69.6400 256.0000 1.0000
69.6500 217.0000 1.0000
69.6600 255.0000 1.0000
69.6700 244.0000 1.0000
69.6800 237.0000 1.0000
69.6900 247.0000 1.0000
69.7000 265.0000 1.0000
69.7100 265.0000 1.0000
69.7200 239.0000 1.0000
69.7300 203.0000 1.0000
69.7400 244.0000 1.0000
69.7500 240.0000 1.0000
69.7600 232.0000 1.0000
69.7700 247.0000 1.0000
69.7800 239.0000 1.0000
69.7900 246.0000 1.0000
69.8000 226.0000 1.0000
69.8100 240.0000 1.0000
69.8200 258.0000 1.0000
69.8300 259.0000 1.0000
69.8400 241.0000 1.0000
69.8500 230.0000 1.0000
69.8600 226.0000 1.0000
69.8700 238.0000 1.0000
69.8800 213.0000 1.0000
69.8900 221.0000 1.0000
69.9000 241.0000 1.0000
69.9100 249.0000 1.0000
69.9200 231.0000 1.0000
69.9300 228.0000 1.0000
69.9400 247.0000 1.0000
69.9500 244.0000 1.0000
69.9600 265.0000 1.0000
69.9700 236.0000 1.0000
69.9800 233.0000 1.0000
69.9900 275.0000 1.0000
70.0000 236.0000 1.0000
*RAS_INT_END
*RAS_TEMPERATURE_START
*RAS_TEMPERATURE_END
*RAS_DATA_END
