*RAS_DATA_START
*RAS_HEADER_START
*DISP_FMT_X "%.2f"
*DISP_FMT_Y "%.0f"
*DISP_FULLSCALE "13790.0000000000"
*DISP_LINE_COLOR "255.0000000000"
*DISP_LINE_STYLE "0.0000000000"
*DISP_LINE_WIDTH "0.2500000000"
*DISP_NOTE "測定データ-5"
*DISP_OFFSET_Y "0.0000000000"
*DISP_PEAKSEARCH_UNIT_Y "cps"
*DISP_RANGE_BOTTOM "0.0000000000"
*DISP_RANGE_LEFT "20.0000000000"
*DISP_RANGE_LOGCUTOFF "0.0100000000"
*DISP_RANGE_RIGHT "70.0000000000"
*DISP_RANGE_TOP "13790.0000000000"
*DISP_SCALE_MODE_Y "0.0000000000"
*DISP_TAB_NAME "2θ/θ"
*DISP_TITLE_Y "強度"
*DISP_UNIT_Y "cps"
*DISP_WINDOW_NAME "MSG_MACROENGINE"
*FILE_COMMENT " "
*FILE_MD5 ""
*FILE_MEMO " "
*FILE_OPERATOR "Administrator"
*FILE_SAMPLE " "
*FILE_TYPE "RAS_RAW"
*FILE_USERGROUP "システムマネージャ"
*FILE_VERSION "1.0000000000"
*HW_ATTACHMENT_ID "ATT0025"
*HW_ATTACHMENT_NAME "標準|Standard"
*HW_COUNTER_ID-0 "CUT0025"
*HW_COUNTER_ID-1 "CUT0020"
*HW_COUNTER_ID-2 "CUT0020"
*HW_COUNTER_ID-3 "CSL0021"
*HW_COUNTER_ID-4 "CMC0021"
*HW_COUNTER_NAME-0 "D/teX Ultra|D/teX Ultra"
*HW_COUNTER_NAME-1 "None|None"
*HW_COUNTER_NAME-2 "None|None"
*HW_COUNTER_NAME-3 "BBM|BBM"
*HW_COUNTER_NAME-4 "検出器モノクロメータ|Detector monochromator"
*HW_COUNTER_SELECT_NAME "D/teX Ultra|D/teX Ultra"
*HW_GONIOMETER_ID "GON0023"
*HW_GONIOMETER_NAME "SmartLab|SmartLab"
*HW_GONIOMETER_RADIUS-0 "90.0"
*HW_GONIOMETER_RADIUS-1 "114.0"
*HW_GONIOMETER_RADIUS-2 "190.0"
*HW_GONIOMETER_RADIUS-3 "300.0"
*HW_GONIOMETER_RADIUS-4 "187.0"
*HW_GONIOMETER_RADIUS-5 "300.0"
*HW_GONIOMETER_RADIUS-6 "113.0"
*HW_GONIOMETER_RADIUS-7 "331.0"
*HW_I_OPT_ID-0 "CBO0021"
*HW_I_OPT_ID-1 "ICR0023"
*HW_I_OPT_ID-2 "ISL0021"
*HW_I_OPT_ID-3 "ISO0021"
*HW_I_OPT_ID-4 "IAD0021"
*HW_I_OPT_ID-5 "IPR0001"
*HW_I_OPT_NAME-0 "CBOユニット|CBO unit"
*HW_I_OPT_NAME-1 "標準入射光学ユニット|Standard incident optical unit"
*HW_I_OPT_NAME-2 "標準入射スリットボックス|Standard incident slit box"
*HW_I_OPT_NAME-3 "入射平行スリット|Incident parallel slit"
*HW_I_OPT_NAME-4 "長手制限スリット|Length limiting slit"
*HW_I_OPT_NAME-5 "None|None"
*HW_R_ATTENUATER_AUTOMODE "0"
*HW_R_OPT_ID-0 "RSS0021"
*HW_R_OPT_ID-1 "RCR0023"
*HW_R_OPT_ID-2 "RSO0021"
*HW_R_OPT_ID-3 "RRS0021"
*HW_R_OPT_ID-4 "ATN0021"
*HW_R_OPT_ID-5 "RFL0021"
*HW_R_OPT_ID-6 "RAD0021"
*HW_R_OPT_NAME-0 "標準受光スリットボックス1|Standard receiving slit box # 1"
*HW_R_OPT_NAME-1 "標準受光光学ユニット1|Standard receiving unit # 1"
*HW_R_OPT_NAME-2 "標準受光光学ユニット2|Standard receiving optical unit # 2"
*HW_R_OPT_NAME-3 "標準受光スリットボックス2|Standard receiving slit box # 2"
*HW_R_OPT_NAME-4 "標準アッテネータ|Standard Attenuator"
*HW_R_OPT_NAME-5 "Cu Kβ|Cu K-beta"
*HW_R_OPT_NAME-6 "調整用受光スリット|Alignment receiving slit"
*HW_SAMPLE_HOLDER_ID "SMP0023"
*HW_SAMPLE_HOLDER_NAME "標準Zステージ|Standard Z stage"
*HW_XG_CURRENT_MAX "50"
*HW_XG_CURRENT_MIN "2"
*HW_XG_CURRENT_RESOLUTION "1"
*HW_XG_CURRENT_UNIT "mA"
*HW_XG_FOCUS "1mm x 10mm"
*HW_XG_FOCUS_TYPE "Normal"
*HW_XG_ID ""
*HW_XG_NAME "3kW 封入管(ID:1200)|3kW Sealed tube(ID:1200)"
*HW_XG_TARGET_ATOMIC_NUMBER "29.0000000000"
*HW_XG_TARGET_NAME "Cu"
*HW_XG_TYPE "Hermetic"
*HW_XG_VOLTAGE_MAX "60"
*HW_XG_VOLTAGE_MIN "20"
*HW_XG_VOLTAGE_RESOLUTION "1"
*HW_XG_VOLTAGE_UNIT "kV"
*HW_XG_WATT_MAX "1.500"
*HW_XG_WATT_UNIT "kW"
*HW_XG_WAVE_LENGTH_ALPHA1 "1.540593"
*HW_XG_WAVE_LENGTH_ALPHA2 "1.544414"
*HW_XG_WAVE_LENGTH_BETA "1.392250"
*MEAS_COND_AXIS_NAME-0 "2θ/θ"
*MEAS_COND_AXIS_NAME-1 "2θ"
*MEAS_COND_AXIS_NAME-2 "ω"
*MEAS_COND_AXIS_NAME-3 "Z"
*MEAS_COND_AXIS_NAME-4 "2θ/ω"
*MEAS_COND_AXIS_NAME-5 "θs"
*MEAS_COND_AXIS_NAME-6 "θd"
*MEAS_COND_AXIS_NAME-7 "Ts"
*MEAS_COND_AXIS_NAME-8 "CBO選択スリット"
*MEAS_COND_AXIS_NAME-9 "M"
*MEAS_COND_AXIS_NAME-10 "入射平行スリット"
*MEAS_COND_AXIS_NAME-11 "入射スリット"
*MEAS_COND_AXIS_NAME-12 ""
*MEAS_COND_AXIS_NAME-13 "Zs"
*MEAS_COND_AXIS_NAME-14 "入射光学素子"
*MEAS_COND_AXIS_NAME-15 "長手制限スリット"
*MEAS_COND_AXIS_NAME-16 "センタースリット"
*MEAS_COND_AXIS_NAME-17 "フィルター"
*MEAS_COND_AXIS_NAME-18 "受光スリット1"
*MEAS_COND_AXIS_NAME-19 "受光スリット2"
*MEAS_COND_AXIS_NAME-20 "受光光学素子"
*MEAS_COND_AXIS_NAME-21 "受光平行スリット"
*MEAS_COND_AXIS_NAME-22 "調整用受光スリット"
*MEAS_COND_AXIS_NAME-23 ""
*MEAS_COND_AXIS_NAME-24 ""
*MEAS_COND_AXIS_NAME-25 "Zd"
*MEAS_COND_AXIS_NAME-26 "アッテネータ"
*MEAS_COND_AXIS_NAME-27 "検出器モノクロメータ"
*MEAS_COND_AXIS_NAME-28 "モノクロメータスリット"
*MEAS_COND_AXIS_NAME-29 "プライマリビーム"
*MEAS_COND_AXIS_NAME-30 "PHA"
*MEAS_COND_AXIS_NAME_INTERNAL-0 "TwoThetaTheta"
*MEAS_COND_AXIS_NAME_INTERNAL-1 "TwoTheta"
*MEAS_COND_AXIS_NAME_INTERNAL-2 "Omega"
*MEAS_COND_AXIS_NAME_INTERNAL-3 "Z"
*MEAS_COND_AXIS_NAME_INTERNAL-4 "TwoThetaOmega"
*MEAS_COND_AXIS_NAME_INTERNAL-5 "ThetaS"
*MEAS_COND_AXIS_NAME_INTERNAL-6 "ThetaD"
*MEAS_COND_AXIS_NAME_INTERNAL-7 "Ts"
*MEAS_COND_AXIS_NAME_INTERNAL-8 "CBO"
*MEAS_COND_AXIS_NAME_INTERNAL-9 "CBO-M"
*MEAS_COND_AXIS_NAME_INTERNAL-10 "IncidentSollerSlit"
*MEAS_COND_AXIS_NAME_INTERNAL-11 "IncidentSlitBox"
*MEAS_COND_AXIS_NAME_INTERNAL-12 "IncidentSlitBox-_Axis"
*MEAS_COND_AXIS_NAME_INTERNAL-13 "Zs"
*MEAS_COND_AXIS_NAME_INTERNAL-14 "IncidentMonochromator"
*MEAS_COND_AXIS_NAME_INTERNAL-15 "IncidentAxdSlit"
*MEAS_COND_AXIS_NAME_INTERNAL-16 "CenterSlit"
*MEAS_COND_AXIS_NAME_INTERNAL-17 "Filter"
*MEAS_COND_AXIS_NAME_INTERNAL-18 "ReceivingSlitBox1"
*MEAS_COND_AXIS_NAME_INTERNAL-19 "ReceivingSlitBox2"
*MEAS_COND_AXIS_NAME_INTERNAL-20 "ReceivingOptics"
*MEAS_COND_AXIS_NAME_INTERNAL-21 "ReceivingSollerSlit"
*MEAS_COND_AXIS_NAME_INTERNAL-22 "ReceivingAxdSlit"
*MEAS_COND_AXIS_NAME_INTERNAL-23 "ReceivingSlitBox1-_Axis"
*MEAS_COND_AXIS_NAME_INTERNAL-24 "ReceivingSlitBox2-_Axis"
*MEAS_COND_AXIS_NAME_INTERNAL-25 "ReceivingSlitBox2-Zd"
*MEAS_COND_AXIS_NAME_INTERNAL-26 "Attenuator"
*MEAS_COND_AXIS_NAME_INTERNAL-27 "CounterMonochromator"
*MEAS_COND_AXIS_NAME_INTERNAL-28 "CounterSlit"
*MEAS_COND_AXIS_NAME_INTERNAL-29 "IncidentPrimary"
*MEAS_COND_AXIS_NAME_INTERNAL-30 "PHA"
*MEAS_COND_AXIS_NAME_MAGICNO-0 "83951616.0000000000"
*MEAS_COND_AXIS_NAME_MAGICNO-1 "268632064.0000000000"
*MEAS_COND_AXIS_NAME_MAGICNO-2 "268500992.0000000000"
*MEAS_COND_AXIS_NAME_MAGICNO-3 "285278208.0000000000"
*MEAS_COND_AXIS_NAME_MAGICNO-4 "83951616.0000000000"
*MEAS_COND_AXIS_NAME_MAGICNO-5 "131072.0000000000"
*MEAS_COND_AXIS_NAME_MAGICNO-6 "131072.0000000000"
*MEAS_COND_AXIS_NAME_MAGICNO-7 "318898176.0000000000"
*MEAS_COND_AXIS_NAME_MAGICNO-8 "20971521.0000000000"
*MEAS_COND_AXIS_NAME_MAGICNO-9 "285343744.0000000000"
*MEAS_COND_AXIS_NAME_MAGICNO-10 "20971521.0000000000"
*MEAS_COND_AXIS_NAME_MAGICNO-11 "22020097.0000000000"
*MEAS_COND_AXIS_NAME_MAGICNO-12 "25165824.0000000000"
*MEAS_COND_AXIS_NAME_MAGICNO-13 "318898176.0000000000"
*MEAS_COND_AXIS_NAME_MAGICNO-14 "1.0000000000"
*MEAS_COND_AXIS_NAME_MAGICNO-15 "20971521.0000000000"
*MEAS_COND_AXIS_NAME_MAGICNO-16 "20971521.0000000000"
*MEAS_COND_AXIS_NAME_MAGICNO-17 "20971521.0000000000"
*MEAS_COND_AXIS_NAME_MAGICNO-18 "23068673.0000000000"
*MEAS_COND_AXIS_NAME_MAGICNO-19 "23068673.0000000000"
*MEAS_COND_AXIS_NAME_MAGICNO-20 "20971521.0000000000"
*MEAS_COND_AXIS_NAME_MAGICNO-21 "20971521.0000000000"
*MEAS_COND_AXIS_NAME_MAGICNO-22 "20971521.0000000000"
*MEAS_COND_AXIS_NAME_MAGICNO-23 "25165824.0000000000"
*MEAS_COND_AXIS_NAME_MAGICNO-24 "25165824.0000000000"
*MEAS_COND_AXIS_NAME_MAGICNO-25 "285343744.0000000000"
*MEAS_COND_AXIS_NAME_MAGICNO-26 "17301505.0000000000"
*MEAS_COND_AXIS_NAME_MAGICNO-27 "20971521.0000000000"
*MEAS_COND_AXIS_NAME_MAGICNO-28 "20971521.0000000000"
*MEAS_COND_AXIS_NAME_MAGICNO-29 "20971521.0000000000"
*MEAS_COND_AXIS_NAME_MAGICNO-30 "0.0000000000"
*MEAS_COND_AXIS_OFFSET-0 "-"
*MEAS_COND_AXIS_OFFSET-1 "-0.0310000000"
*MEAS_COND_AXIS_OFFSET-2 "0.5143000000"
*MEAS_COND_AXIS_OFFSET-3 "-"
*MEAS_COND_AXIS_OFFSET-4 "-"
*MEAS_COND_AXIS_OFFSET-5 "0.5143000000"
*MEAS_COND_AXIS_OFFSET-6 "-0.5453000000"
*MEAS_COND_AXIS_OFFSET-7 "-"
*MEAS_COND_AXIS_OFFSET-8 "-"
*MEAS_COND_AXIS_OFFSET-9 "-"
*MEAS_COND_AXIS_OFFSET-10 "-"
*MEAS_COND_AXIS_OFFSET-11 "-"
*MEAS_COND_AXIS_OFFSET-12 "-"
*MEAS_COND_AXIS_OFFSET-13 "-"
*MEAS_COND_AXIS_OFFSET-14 "-"
*MEAS_COND_AXIS_OFFSET-15 "-"
*MEAS_COND_AXIS_OFFSET-16 "-"
*MEAS_COND_AXIS_OFFSET-17 "-"
*MEAS_COND_AXIS_OFFSET-18 "-"
*MEAS_COND_AXIS_OFFSET-19 "-"
*MEAS_COND_AXIS_OFFSET-20 "-"
*MEAS_COND_AXIS_OFFSET-21 "-"
*MEAS_COND_AXIS_OFFSET-22 "-"
*MEAS_COND_AXIS_OFFSET-23 "-"
*MEAS_COND_AXIS_OFFSET-24 "-"
*MEAS_COND_AXIS_OFFSET-25 "-"
*MEAS_COND_AXIS_OFFSET-26 "-"
*MEAS_COND_AXIS_OFFSET-27 "-"
*MEAS_COND_AXIS_OFFSET-28 "-"
*MEAS_COND_AXIS_OFFSET-29 "-"
*MEAS_COND_AXIS_OFFSET-30 "-"
*MEAS_COND_AXIS_POSITION-0 "0.0000000000"
*MEAS_COND_AXIS_POSITION-1 "0.0000000000"
*MEAS_COND_AXIS_POSITION-2 "0.0000000000"
*MEAS_COND_AXIS_POSITION-3 "-2.9061800000"
*MEAS_COND_AXIS_POSITION-4 "0.0000000000"
*MEAS_COND_AXIS_POSITION-5 "0.0000000000"
*MEAS_COND_AXIS_POSITION-6 "0.0000000000"
*MEAS_COND_AXIS_POSITION-7 "-0.7498700000"
*MEAS_COND_AXIS_POSITION-8 "BB"
*MEAS_COND_AXIS_POSITION-9 "0.0000000000"
*MEAS_COND_AXIS_POSITION-10 "Soller_slit_5.0deg"
*MEAS_COND_AXIS_POSITION-11 "2/3deg"
*MEAS_COND_AXIS_POSITION-12 "2.2088000000"
*MEAS_COND_AXIS_POSITION-13 "-0.6412500000"
*MEAS_COND_AXIS_POSITION-14 "0.0000000000"
*MEAS_COND_AXIS_POSITION-15 "10.0mm"
*MEAS_COND_AXIS_POSITION-16 "None"
*MEAS_COND_AXIS_POSITION-17 "Cu_K-beta"
*MEAS_COND_AXIS_POSITION-18 "13.000mm"
*MEAS_COND_AXIS_POSITION-19 "13.000mm"
*MEAS_COND_AXIS_POSITION-20 "No_unit"
*MEAS_COND_AXIS_POSITION-21 "Soller_slit_5.0deg"
*MEAS_COND_AXIS_POSITION-22 "None"
*MEAS_COND_AXIS_POSITION-23 "13.0000000000"
*MEAS_COND_AXIS_POSITION-24 "13.0000000000"
*MEAS_COND_AXIS_POSITION-25 "0.0281300000"
*MEAS_COND_AXIS_POSITION-26 "Open"
*MEAS_COND_AXIS_POSITION-27 "None"
*MEAS_COND_AXIS_POSITION-28 "None"
*MEAS_COND_AXIS_POSITION-29 "None"
*MEAS_COND_AXIS_POSITION-30 "38.0000000000"
*MEAS_COND_AXIS_UNIT-0 "deg"
*MEAS_COND_AXIS_UNIT-1 "deg"
*MEAS_COND_AXIS_UNIT-2 "deg"
*MEAS_COND_AXIS_UNIT-3 "mm"
*MEAS_COND_AXIS_UNIT-4 "deg"
*MEAS_COND_AXIS_UNIT-5 "deg"
*MEAS_COND_AXIS_UNIT-6 "deg"
*MEAS_COND_AXIS_UNIT-7 "mm"
*MEAS_COND_AXIS_UNIT-8 ""
*MEAS_COND_AXIS_UNIT-9 "pulse"
*MEAS_COND_AXIS_UNIT-10 ""
*MEAS_COND_AXIS_UNIT-11 ""
*MEAS_COND_AXIS_UNIT-12 "mm"
*MEAS_COND_AXIS_UNIT-13 "mm"
*MEAS_COND_AXIS_UNIT-14 ""
*MEAS_COND_AXIS_UNIT-15 ""
*MEAS_COND_AXIS_UNIT-16 ""
*MEAS_COND_AXIS_UNIT-17 ""
*MEAS_COND_AXIS_UNIT-18 ""
*MEAS_COND_AXIS_UNIT-19 ""
*MEAS_COND_AXIS_UNIT-20 ""
*MEAS_COND_AXIS_UNIT-21 ""
*MEAS_COND_AXIS_UNIT-22 ""
*MEAS_COND_AXIS_UNIT-23 "mm"
*MEAS_COND_AXIS_UNIT-24 "mm"
*MEAS_COND_AXIS_UNIT-25 "mm"
*MEAS_COND_AXIS_UNIT-26 ""
*MEAS_COND_AXIS_UNIT-27 ""
*MEAS_COND_AXIS_UNIT-28 ""
*MEAS_COND_AXIS_UNIT-29 ""
*MEAS_COND_AXIS_UNIT-30 "div"
*MEAS_COND_COUNTER_CNTLOSS_CORR "0.0000000000"
*MEAS_COND_COUNTER_PHABASE "38.0000000000"
*MEAS_COND_COUNTER_PHAWINDOW "16.0000000000"
*MEAS_COND_COUNTER_PHA_UNIT "div"
*MEAS_COND_COUNTER_TAUDIFF "30.0000000000"
*MEAS_COND_COUNTER_TAUINT "0.0000000000"
*MEAS_COND_IRRADIATION_MODE "OFF"
*MEAS_COND_IRRADIATION_WIDTH ""
*MEAS_COND_OPT_ATTR "集中法"
*MEAS_COND_OPT_NAME "@集中法"
*MEAS_COND_UNSYMMETRIC_MODE "OFF"
*MEAS_COND_XG_CURRENT "30.0000000000"
*MEAS_COND_XG_VOLTAGE "40.0000000000"
*MEAS_COND_XG_WAVE_TYPE "Ka"
*MEAS_DATA_COUNT "5001.0000000000"
*MEAS_SCAN_AXIS_X "2θ/θ"
*MEAS_SCAN_AXIS_X_INTERNAL "TwoThetaTheta"
*MEAS_SCAN_END_TIME "12/20/22 19:46:35"
*MEAS_SCAN_MODE "CONTINUOUS"
*MEAS_SCAN_MONITOR "0"
*MEAS_SCAN_RESOLUTION_X "0.0002"
*MEAS_SCAN_SPEED "2.5"
*MEAS_SCAN_SPEED_UNIT "deg/min"
*MEAS_SCAN_START "20.0000000000"
*MEAS_SCAN_START_TIME "12/20/22 19:25:12"
*MEAS_SCAN_STEP "0.0100000000"
*MEAS_SCAN_STOP "70.0000000000"
*MEAS_SCAN_UNIT_X "deg"
*MEAS_SCAN_UNIT_Y "counts"
*RAS_HEADER_END
*RAS_INT_START
20.0000 864.0000 1.0000
20.0100 864.0000 1.0000
20.0200 861.0000 1.0000
20.0300 879.0000 1.0000
20.0400 901.0000 1.0000
20.0500 871.0000 1.0000
20.0600 900.0000 1.0000
20.0700 894.0000 1.0000
20.0800 887.0000 1.0000
20.0900 872.0000 1.0000
20.1000 833.0000 1.0000
20.1100 861.0000 1.0000
20.1200 891.0000 1.0000
20.1300 877.0000 1.0000
20.1400 867.0000 1.0000
20.1500 830.0000 1.0000
20.1600 839.0000 1.0000
20.1700 858.0000 1.0000
20.1800 842.0000 1.0000
20.1900 882.0000 1.0000
20.2000 868.0000 1.0000
20.2100 916.0000 1.0000
20.2200 850.0000 1.0000
20.2300 895.0000 1.0000
20.2400 866.0000 1.0000
20.2500 859.0000 1.0000
20.2600 856.0000 1.0000
20.2700 821.0000 1.0000
20.2800 846.0000 1.0000
20.2900 875.0000 1.0000
20.3000 876.0000 1.0000
20.3100 882.0000 1.0000
20.3200 873.0000 1.0000
20.3300 855.0000 1.0000
20.3400 886.0000 1.0000
20.3500 865.0000 1.0000
20.3600 876.0000 1.0000
20.3700 900.0000 1.0000
20.3800 859.0000 1.0000
20.3900 871.0000 1.0000
20.4000 861.0000 1.0000
20.4100 866.0000 1.0000
20.4200 848.0000 1.0000
20.4300 835.0000 1.0000
20.4400 832.0000 1.0000
20.4500 868.0000 1.0000
20.4600 885.0000 1.0000
20.4700 857.0000 1.0000
20.4800 887.0000 1.0000
20.4900 883.0000 1.0000
20.5000 869.0000 1.0000
20.5100 874.0000 1.0000
20.5200 810.0000 1.0000
20.5300 886.0000 1.0000
20.5400 921.0000 1.0000
20.5500 849.0000 1.0000
20.5600 844.0000 1.0000
20.5700 872.0000 1.0000
20.5800 859.0000 1.0000
20.5900 873.0000 1.0000
20.6000 935.0000 1.0000
20.6100 893.0000 1.0000
20.6200 913.0000 1.0000
20.6300 867.0000 1.0000
20.6400 846.0000 1.0000
20.6500 903.0000 1.0000
20.6600 844.0000 1.0000
20.6700 877.0000 1.0000
20.6800 850.0000 1.0000
20.6900 880.0000 1.0000
20.7000 877.0000 1.0000
20.7100 903.0000 1.0000
20.7200 814.0000 1.0000
20.7300 863.0000 1.0000
20.7400 915.0000 1.0000
20.7500 911.0000 1.0000
20.7600 878.0000 1.0000
20.7700 878.0000 1.0000
20.7800 863.0000 1.0000
20.7900 887.0000 1.0000
20.8000 840.0000 1.0000
20.8100 848.0000 1.0000
20.8200 867.0000 1.0000
20.8300 848.0000 1.0000
20.8400 867.0000 1.0000
20.8500 854.0000 1.0000
20.8600 890.0000 1.0000
20.8700 848.0000 1.0000
20.8800 888.0000 1.0000
20.8900 898.0000 1.0000
20.9000 903.0000 1.0000
20.9100 891.0000 1.0000
20.9200 885.0000 1.0000
20.9300 859.0000 1.0000
20.9400 809.0000 1.0000
20.9500 854.0000 1.0000
20.9600 809.0000 1.0000
20.9700 847.0000 1.0000
20.9800 885.0000 1.0000
20.9900 853.0000 1.0000
21.0000 882.0000 1.0000
21.0100 874.0000 1.0000
21.0200 895.0000 1.0000
21.0300 853.0000 1.0000
21.0400 909.0000 1.0000
21.0500 896.0000 1.0000
21.0600 867.0000 1.0000
21.0700 888.0000 1.0000
21.0800 842.0000 1.0000
21.0900 847.0000 1.0000
21.1000 899.0000 1.0000
21.1100 855.0000 1.0000
21.1200 857.0000 1.0000
21.1300 859.0000 1.0000
21.1400 879.0000 1.0000
21.1500 844.0000 1.0000
21.1600 907.0000 1.0000
21.1700 875.0000 1.0000
21.1800 863.0000 1.0000
21.1900 865.0000 1.0000
21.2000 867.0000 1.0000
21.2100 899.0000 1.0000
21.2200 818.0000 1.0000
21.2300 838.0000 1.0000
21.2400 885.0000 1.0000
21.2500 855.0000 1.0000
21.2600 852.0000 1.0000
21.2700 851.0000 1.0000
21.2800 827.0000 1.0000
21.2900 877.0000 1.0000
21.3000 872.0000 1.0000
21.3100 860.0000 1.0000
21.3200 875.0000 1.0000
21.3300 853.0000 1.0000
21.3400 877.0000 1.0000
21.3500 877.0000 1.0000
21.3600 837.0000 1.0000
21.3700 832.0000 1.0000
21.3800 829.0000 1.0000
21.3900 816.0000 1.0000
21.4000 896.0000 1.0000
21.4100 880.0000 1.0000
21.4200 886.0000 1.0000
21.4300 879.0000 1.0000
21.4400 845.0000 1.0000
21.4500 855.0000 1.0000
21.4600 874.0000 1.0000
21.4700 898.0000 1.0000
21.4800 819.0000 1.0000
21.4900 830.0000 1.0000
21.5000 815.0000 1.0000
21.5100 881.0000 1.0000
21.5200 848.0000 1.0000
21.5300 878.0000 1.0000
21.5400 888.0000 1.0000
21.5500 842.0000 1.0000
21.5600 831.0000 1.0000
21.5700 809.0000 1.0000
21.5800 832.0000 1.0000
21.5900 877.0000 1.0000
21.6000 880.0000 1.0000
21.6100 842.0000 1.0000
21.6200 852.0000 1.0000
21.6300 868.0000 1.0000
21.6400 873.0000 1.0000
21.6500 825.0000 1.0000
21.6600 870.0000 1.0000
21.6700 874.0000 1.0000
21.6800 840.0000 1.0000
21.6900 845.0000 1.0000
21.7000 860.0000 1.0000
21.7100 838.0000 1.0000
21.7200 851.0000 1.0000
21.7300 862.0000 1.0000
21.7400 833.0000 1.0000
21.7500 882.0000 1.0000
21.7600 864.0000 1.0000
21.7700 832.0000 1.0000
21.7800 835.0000 1.0000
21.7900 831.0000 1.0000
21.8000 873.0000 1.0000
21.8100 876.0000 1.0000
21.8200 892.0000 1.0000
21.8300 876.0000 1.0000
21.8400 844.0000 1.0000
21.8500 850.0000 1.0000
21.8600 838.0000 1.0000
21.8700 889.0000 1.0000
21.8800 840.0000 1.0000
21.8900 883.0000 1.0000
21.9000 852.0000 1.0000
21.9100 848.0000 1.0000
21.9200 858.0000 1.0000
21.9300 868.0000 1.0000
21.9400 854.0000 1.0000
21.9500 868.0000 1.0000
21.9600 847.0000 1.0000
21.9700 828.0000 1.0000
21.9800 860.0000 1.0000
21.9900 858.0000 1.0000
22.0000 837.0000 1.0000
22.0100 863.0000 1.0000
22.0200 826.0000 1.0000
22.0300 890.0000 1.0000
22.0400 859.0000 1.0000
22.0500 854.0000 1.0000
22.0600 879.0000 1.0000
22.0700 873.0000 1.0000
22.0800 864.0000 1.0000
22.0900 844.0000 1.0000
22.1000 829.0000 1.0000
22.1100 852.0000 1.0000
22.1200 859.0000 1.0000
22.1300 835.0000 1.0000
22.1400 836.0000 1.0000
22.1500 840.0000 1.0000
22.1600 865.0000 1.0000
22.1700 829.0000 1.0000
22.1800 874.0000 1.0000
22.1900 859.0000 1.0000
22.2000 851.0000 1.0000
22.2100 830.0000 1.0000
22.2200 846.0000 1.0000
22.2300 869.0000 1.0000
22.2400 829.0000 1.0000
22.2500 825.0000 1.0000
22.2600 839.0000 1.0000
22.2700 861.0000 1.0000
22.2800 871.0000 1.0000
22.2900 859.0000 1.0000
22.3000 821.0000 1.0000
22.3100 836.0000 1.0000
22.3200 882.0000 1.0000
22.3300 897.0000 1.0000
22.3400 889.0000 1.0000
22.3500 900.0000 1.0000
22.3600 837.0000 1.0000
22.3700 839.0000 1.0000
22.3800 866.0000 1.0000
22.3900 834.0000 1.0000
22.4000 852.0000 1.0000
22.4100 830.0000 1.0000
22.4200 846.0000 1.0000
22.4300 879.0000 1.0000
22.4400 814.0000 1.0000
22.4500 808.0000 1.0000
22.4600 841.0000 1.0000
22.4700 827.0000 1.0000
22.4800 830.0000 1.0000
22.4900 804.0000 1.0000
22.5000 871.0000 1.0000
22.5100 863.0000 1.0000
22.5200 859.0000 1.0000
22.5300 835.0000 1.0000
22.5400 849.0000 1.0000
22.5500 852.0000 1.0000
22.5600 838.0000 1.0000
22.5700 787.0000 1.0000
22.5800 833.0000 1.0000
22.5900 841.0000 1.0000
22.6000 890.0000 1.0000
22.6100 812.0000 1.0000
22.6200 823.0000 1.0000
22.6300 870.0000 1.0000
22.6400 777.0000 1.0000
22.6500 831.0000 1.0000
22.6600 839.0000 1.0000
22.6700 844.0000 1.0000
22.6800 825.0000 1.0000
22.6900 794.0000 1.0000
22.7000 851.0000 1.0000
22.7100 906.0000 1.0000
22.7200 886.0000 1.0000
22.7300 812.0000 1.0000
22.7400 824.0000 1.0000
22.7500 838.0000 1.0000
22.7600 814.0000 1.0000
22.7700 784.0000 1.0000
22.7800 836.0000 1.0000
22.7900 857.0000 1.0000
22.8000 848.0000 1.0000
22.8100 851.0000 1.0000
22.8200 821.0000 1.0000
22.8300 809.0000 1.0000
22.8400 852.0000 1.0000
22.8500 817.0000 1.0000
22.8600 816.0000 1.0000
22.8700 889.0000 1.0000
22.8800 860.0000 1.0000
22.8900 871.0000 1.0000
22.9000 851.0000 1.0000
22.9100 830.0000 1.0000
22.9200 864.0000 1.0000
22.9300 835.0000 1.0000
22.9400 775.0000 1.0000
22.9500 795.0000 1.0000
22.9600 818.0000 1.0000
22.9700 824.0000 1.0000
22.9800 820.0000 1.0000
22.9900 816.0000 1.0000
23.0000 820.0000 1.0000
23.0100 867.0000 1.0000
23.0200 807.0000 1.0000
23.0300 807.0000 1.0000
23.0400 845.0000 1.0000
23.0500 789.0000 1.0000
23.0600 848.0000 1.0000
23.0700 872.0000 1.0000
23.0800 808.0000 1.0000
23.0900 812.0000 1.0000
23.1000 867.0000 1.0000
23.1100 829.0000 1.0000
23.1200 843.0000 1.0000
23.1300 874.0000 1.0000
23.1400 832.0000 1.0000
23.1500 877.0000 1.0000
23.1600 857.0000 1.0000
23.1700 845.0000 1.0000
23.1800 823.0000 1.0000
23.1900 795.0000 1.0000
23.2000 851.0000 1.0000
23.2100 848.0000 1.0000
23.2200 790.0000 1.0000
23.2300 829.0000 1.0000
23.2400 807.0000 1.0000
23.2500 830.0000 1.0000
23.2600 819.0000 1.0000
23.2700 845.0000 1.0000
23.2800 864.0000 1.0000
23.2900 807.0000 1.0000
23.3000 842.0000 1.0000
23.3100 810.0000 1.0000
23.3200 781.0000 1.0000
23.3300 829.0000 1.0000
23.3400 810.0000 1.0000
23.3500 773.0000 1.0000
23.3600 845.0000 1.0000
23.3700 823.0000 1.0000
23.3800 755.0000 1.0000
23.3900 796.0000 1.0000
23.4000 842.0000 1.0000
23.4100 837.0000 1.0000
23.4200 856.0000 1.0000
23.4300 866.0000 1.0000
23.4400 865.0000 1.0000
23.4500 837.0000 1.0000
23.4600 817.0000 1.0000
23.4700 824.0000 1.0000
23.4800 824.0000 1.0000
23.4900 850.0000 1.0000
23.5000 845.0000 1.0000
23.5100 843.0000 1.0000
23.5200 778.0000 1.0000
23.5300 813.0000 1.0000
23.5400 817.0000 1.0000
23.5500 866.0000 1.0000
23.5600 793.0000 1.0000
23.5700 782.0000 1.0000
23.5800 826.0000 1.0000
23.5900 838.0000 1.0000
23.6000 850.0000 1.0000
23.6100 822.0000 1.0000
23.6200 811.0000 1.0000
23.6300 819.0000 1.0000
23.6400 853.0000 1.0000
23.6500 869.0000 1.0000
23.6600 831.0000 1.0000
23.6700 794.0000 1.0000
23.6800 796.0000 1.0000
23.6900 843.0000 1.0000
23.7000 815.0000 1.0000
23.7100 818.0000 1.0000
23.7200 854.0000 1.0000
23.7300 837.0000 1.0000
23.7400 840.0000 1.0000
23.7500 800.0000 1.0000
23.7600 840.0000 1.0000
23.7700 877.0000 1.0000
23.7800 866.0000 1.0000
23.7900 813.0000 1.0000
23.8000 832.0000 1.0000
23.8100 812.0000 1.0000
23.8200 857.0000 1.0000
23.8300 825.0000 1.0000
23.8400 821.0000 1.0000
23.8500 818.0000 1.0000
23.8600 841.0000 1.0000
23.8700 812.0000 1.0000
23.8800 837.0000 1.0000
23.8900 886.0000 1.0000
23.9000 881.0000 1.0000
23.9100 788.0000 1.0000
23.9200 862.0000 1.0000
23.9300 853.0000 1.0000
23.9400 866.0000 1.0000
23.9500 843.0000 1.0000
23.9600 853.0000 1.0000
23.9700 872.0000 1.0000
23.9800 858.0000 1.0000
23.9900 852.0000 1.0000
24.0000 830.0000 1.0000
24.0100 823.0000 1.0000
24.0200 885.0000 1.0000
24.0300 871.0000 1.0000
24.0400 895.0000 1.0000
24.0500 888.0000 1.0000
24.0600 887.0000 1.0000
24.0700 908.0000 1.0000
24.0800 819.0000 1.0000
24.0900 909.0000 1.0000
24.1000 861.0000 1.0000
24.1100 873.0000 1.0000
24.1200 907.0000 1.0000
24.1300 880.0000 1.0000
24.1400 904.0000 1.0000
24.1500 872.0000 1.0000
24.1600 828.0000 1.0000
24.1700 883.0000 1.0000
24.1800 866.0000 1.0000
24.1900 880.0000 1.0000
24.2000 888.0000 1.0000
24.2100 846.0000 1.0000
24.2200 827.0000 1.0000
24.2300 871.0000 1.0000
24.2400 850.0000 1.0000
24.2500 836.0000 1.0000
24.2600 879.0000 1.0000
24.2700 891.0000 1.0000
24.2800 863.0000 1.0000
24.2900 831.0000 1.0000
24.3000 832.0000 1.0000
24.3100 852.0000 1.0000
24.3200 845.0000 1.0000
24.3300 854.0000 1.0000
24.3400 845.0000 1.0000
24.3500 866.0000 1.0000
24.3600 845.0000 1.0000
24.3700 763.0000 1.0000
24.3800 856.0000 1.0000
24.3900 797.0000 1.0000
24.4000 772.0000 1.0000
24.4100 835.0000 1.0000
24.4200 786.0000 1.0000
24.4300 850.0000 1.0000
24.4400 866.0000 1.0000
24.4500 829.0000 1.0000
24.4600 835.0000 1.0000
24.4700 840.0000 1.0000
24.4800 817.0000 1.0000
24.4900 805.0000 1.0000
24.5000 832.0000 1.0000
24.5100 742.0000 1.0000
24.5200 785.0000 1.0000
24.5300 853.0000 1.0000
24.5400 835.0000 1.0000
24.5500 805.0000 1.0000
24.5600 788.0000 1.0000
24.5700 783.0000 1.0000
24.5800 857.0000 1.0000
24.5900 840.0000 1.0000
24.6000 812.0000 1.0000
24.6100 791.0000 1.0000
24.6200 850.0000 1.0000
24.6300 841.0000 1.0000
24.6400 813.0000 1.0000
24.6500 798.0000 1.0000
24.6600 838.0000 1.0000
24.6700 794.0000 1.0000
24.6800 847.0000 1.0000
24.6900 805.0000 1.0000
24.7000 807.0000 1.0000
24.7100 800.0000 1.0000
24.7200 836.0000 1.0000
24.7300 831.0000 1.0000
24.7400 796.0000 1.0000
24.7500 814.0000 1.0000
24.7600 797.0000 1.0000
24.7700 799.0000 1.0000
24.7800 787.0000 1.0000
24.7900 802.0000 1.0000
24.8000 806.0000 1.0000
24.8100 811.0000 1.0000
24.8200 830.0000 1.0000
24.8300 781.0000 1.0000
24.8400 831.0000 1.0000
24.8500 789.0000 1.0000
24.8600 797.0000 1.0000
24.8700 815.0000 1.0000
24.8800 784.0000 1.0000
24.8900 787.0000 1.0000
24.9000 751.0000 1.0000
24.9100 763.0000 1.0000
24.9200 818.0000 1.0000
24.9300 801.0000 1.0000
24.9400 840.0000 1.0000
24.9500 825.0000 1.0000
24.9600 848.0000 1.0000
24.9700 815.0000 1.0000
24.9800 829.0000 1.0000
24.9900 807.0000 1.0000
25.0000 813.0000 1.0000
25.0100 801.0000 1.0000
25.0200 816.0000 1.0000
25.0300 780.0000 1.0000
25.0400 782.0000 1.0000
25.0500 815.0000 1.0000
25.0600 793.0000 1.0000
25.0700 817.0000 1.0000
25.0800 782.0000 1.0000
25.0900 787.0000 1.0000
25.1000 842.0000 1.0000
25.1100 770.0000 1.0000
25.1200 780.0000 1.0000
25.1300 756.0000 1.0000
25.1400 779.0000 1.0000
25.1500 819.0000 1.0000
25.1600 758.0000 1.0000
25.1700 799.0000 1.0000
25.1800 782.0000 1.0000
25.1900 738.0000 1.0000
25.2000 812.0000 1.0000
25.2100 813.0000 1.0000
25.2200 791.0000 1.0000
25.2300 782.0000 1.0000
25.2400 779.0000 1.0000
25.2500 779.0000 1.0000
25.2600 841.0000 1.0000
25.2700 776.0000 1.0000
25.2800 794.0000 1.0000
25.2900 771.0000 1.0000
25.3000 822.0000 1.0000
25.3100 789.0000 1.0000
25.3200 811.0000 1.0000
25.3300 800.0000 1.0000
25.3400 751.0000 1.0000
25.3500 757.0000 1.0000
25.3600 783.0000 1.0000
25.3700 818.0000 1.0000
25.3800 831.0000 1.0000
25.3900 826.0000 1.0000
25.4000 828.0000 1.0000
25.4100 793.0000 1.0000
25.4200 785.0000 1.0000
25.4300 831.0000 1.0000
25.4400 827.0000 1.0000
25.4500 820.0000 1.0000
25.4600 794.0000 1.0000
25.4700 775.0000 1.0000
25.4800 817.0000 1.0000
25.4900 779.0000 1.0000
25.5000 787.0000 1.0000
25.5100 813.0000 1.0000
25.5200 795.0000 1.0000
25.5300 839.0000 1.0000
25.5400 852.0000 1.0000
25.5500 822.0000 1.0000
25.5600 812.0000 1.0000
25.5700 824.0000 1.0000
25.5800 804.0000 1.0000
25.5900 787.0000 1.0000
25.6000 815.0000 1.0000
25.6100 782.0000 1.0000
25.6200 782.0000 1.0000
25.6300 839.0000 1.0000
25.6400 833.0000 1.0000
25.6500 816.0000 1.0000
25.6600 852.0000 1.0000
25.6700 833.0000 1.0000
25.6800 805.0000 1.0000
25.6900 818.0000 1.0000
25.7000 771.0000 1.0000
25.7100 829.0000 1.0000
25.7200 813.0000 1.0000
25.7300 791.0000 1.0000
25.7400 816.0000 1.0000
25.7500 790.0000 1.0000
25.7600 807.0000 1.0000
25.7700 767.0000 1.0000
25.7800 808.0000 1.0000
25.7900 862.0000 1.0000
25.8000 818.0000 1.0000
25.8100 825.0000 1.0000
25.8200 792.0000 1.0000
25.8300 821.0000 1.0000
25.8400 857.0000 1.0000
25.8500 844.0000 1.0000
25.8600 818.0000 1.0000
25.8700 807.0000 1.0000
25.8800 849.0000 1.0000
25.8900 838.0000 1.0000
25.9000 857.0000 1.0000
25.9100 830.0000 1.0000
25.9200 809.0000 1.0000
25.9300 855.0000 1.0000
25.9400 855.0000 1.0000
25.9500 834.0000 1.0000
25.9600 851.0000 1.0000
25.9700 866.0000 1.0000
25.9800 834.0000 1.0000
25.9900 869.0000 1.0000
26.0000 829.0000 1.0000
26.0100 872.0000 1.0000
26.0200 850.0000 1.0000
26.0300 860.0000 1.0000
26.0400 925.0000 1.0000
26.0500 937.0000 1.0000
26.0600 906.0000 1.0000
26.0700 911.0000 1.0000
26.0800 966.0000 1.0000
26.0900 937.0000 1.0000
26.1000 952.0000 1.0000
26.1100 919.0000 1.0000
26.1200 973.0000 1.0000
26.1300 967.0000 1.0000
26.1400 1004.0000 1.0000
26.1500 991.0000 1.0000
26.1600 1029.0000 1.0000
26.1700 1048.0000 1.0000
26.1800 1038.0000 1.0000
26.1900 1060.0000 1.0000
26.2000 1035.0000 1.0000
26.2100 1116.0000 1.0000
26.2200 1154.0000 1.0000
26.2300 1187.0000 1.0000
26.2400 1210.0000 1.0000
26.2500 1250.0000 1.0000
26.2600 1285.0000 1.0000
26.2700 1295.0000 1.0000
26.2800 1406.0000 1.0000
26.2900 1419.0000 1.0000
26.3000 1470.0000 1.0000
26.3100 1534.0000 1.0000
26.3200 1549.0000 1.0000
26.3300 1604.0000 1.0000
26.3400 1700.0000 1.0000
26.3500 1876.0000 1.0000
26.3600 1948.0000 1.0000
26.3700 2030.0000 1.0000
26.3800 2121.0000 1.0000
26.3900 2330.0000 1.0000
26.4000 2444.0000 1.0000
26.4100 2518.0000 1.0000
26.4200 2540.0000 1.0000
26.4300 2667.0000 1.0000
26.4400 2749.0000 1.0000
26.4500 2714.0000 1.0000
26.4600 2758.0000 1.0000
26.4700 2682.0000 1.0000
26.4800 2621.0000 1.0000
26.4900 2556.0000 1.0000
26.5000 2480.0000 1.0000
26.5100 2386.0000 1.0000
26.5200 2327.0000 1.0000
26.5300 2167.0000 1.0000
26.5400 2033.0000 1.0000
26.5500 1923.0000 1.0000
26.5600 1855.0000 1.0000
26.5700 1696.0000 1.0000
26.5800 1631.0000 1.0000
26.5900 1560.0000 1.0000
26.6000 1513.0000 1.0000
26.6100 1410.0000 1.0000
26.6200 1372.0000 1.0000
26.6300 1312.0000 1.0000
26.6400 1249.0000 1.0000
26.6500 1188.0000 1.0000
26.6600 1175.0000 1.0000
26.6700 1180.0000 1.0000
26.6800 1158.0000 1.0000
26.6900 1100.0000 1.0000
26.7000 1063.0000 1.0000
26.7100 998.0000 1.0000
26.7200 984.0000 1.0000
26.7300 1014.0000 1.0000
26.7400 965.0000 1.0000
26.7500 1011.0000 1.0000
26.7600 1021.0000 1.0000
26.7700 939.0000 1.0000
26.7800 965.0000 1.0000
26.7900 937.0000 1.0000
26.8000 961.0000 1.0000
26.8100 940.0000 1.0000
26.8200 861.0000 1.0000
26.8300 843.0000 1.0000
26.8400 847.0000 1.0000
26.8500 869.0000 1.0000
26.8600 899.0000 1.0000
26.8700 853.0000 1.0000
26.8800 874.0000 1.0000
26.8900 848.0000 1.0000
26.9000 817.0000 1.0000
26.9100 839.0000 1.0000
26.9200 834.0000 1.0000
26.9300 876.0000 1.0000
26.9400 823.0000 1.0000
26.9500 812.0000 1.0000
26.9600 851.0000 1.0000
26.9700 842.0000 1.0000
26.9800 809.0000 1.0000
26.9900 785.0000 1.0000
27.0000 778.0000 1.0000
27.0100 790.0000 1.0000
27.0200 792.0000 1.0000
27.0300 779.0000 1.0000
27.0400 778.0000 1.0000
27.0500 789.0000 1.0000
27.0600 762.0000 1.0000
27.0700 775.0000 1.0000
27.0800 830.0000 1.0000
27.0900 792.0000 1.0000
27.1000 782.0000 1.0000
27.1100 754.0000 1.0000
27.1200 804.0000 1.0000
27.1300 731.0000 1.0000
27.1400 759.0000 1.0000
27.1500 751.0000 1.0000
27.1600 721.0000 1.0000
27.1700 767.0000 1.0000
27.1800 766.0000 1.0000
27.1900 779.0000 1.0000
27.2000 772.0000 1.0000
27.2100 790.0000 1.0000
27.2200 760.0000 1.0000
27.2300 809.0000 1.0000
27.2400 767.0000 1.0000
27.2500 796.0000 1.0000
27.2600 739.0000 1.0000
27.2700 759.0000 1.0000
27.2800 742.0000 1.0000
27.2900 766.0000 1.0000
27.3000 727.0000 1.0000
27.3100 771.0000 1.0000
27.3200 785.0000 1.0000
27.3300 736.0000 1.0000
27.3400 742.0000 1.0000
27.3500 758.0000 1.0000
27.3600 713.0000 1.0000
27.3700 770.0000 1.0000
27.3800 750.0000 1.0000
27.3900 719.0000 1.0000
27.4000 717.0000 1.0000
27.4100 749.0000 1.0000
27.4200 722.0000 1.0000
27.4300 763.0000 1.0000
27.4400 754.0000 1.0000
27.4500 714.0000 1.0000
27.4600 727.0000 1.0000
27.4700 714.0000 1.0000
27.4800 744.0000 1.0000
27.4900 730.0000 1.0000
27.5000 771.0000 1.0000
27.5100 707.0000 1.0000
27.5200 745.0000 1.0000
27.5300 723.0000 1.0000
27.5400 745.0000 1.0000
27.5500 793.0000 1.0000
27.5600 747.0000 1.0000
27.5700 718.0000 1.0000
27.5800 705.0000 1.0000
27.5900 752.0000 1.0000
27.6000 721.0000 1.0000
27.6100 734.0000 1.0000
27.6200 768.0000 1.0000
27.6300 683.0000 1.0000
27.6400 768.0000 1.0000
27.6500 770.0000 1.0000
27.6600 697.0000 1.0000
27.6700 709.0000 1.0000
27.6800 735.0000 1.0000
27.6900 718.0000 1.0000
27.7000 705.0000 1.0000
27.7100 680.0000 1.0000
27.7200 712.0000 1.0000
27.7300 688.0000 1.0000
27.7400 728.0000 1.0000
27.7500 681.0000 1.0000
27.7600 728.0000 1.0000
27.7700 702.0000 1.0000
27.7800 715.0000 1.0000
27.7900 723.0000 1.0000
27.8000 729.0000 1.0000
27.8100 653.0000 1.0000
27.8200 670.0000 1.0000
27.8300 712.0000 1.0000
27.8400 690.0000 1.0000
27.8500 729.0000 1.0000
27.8600 726.0000 1.0000
27.8700 686.0000 1.0000
27.8800 728.0000 1.0000
27.8900 753.0000 1.0000
27.9000 740.0000 1.0000
27.9100 717.0000 1.0000
27.9200 670.0000 1.0000
27.9300 686.0000 1.0000
27.9400 696.0000 1.0000
27.9500 745.0000 1.0000
27.9600 728.0000 1.0000
27.9700 713.0000 1.0000
27.9800 698.0000 1.0000
27.9900 703.0000 1.0000
28.0000 726.0000 1.0000
28.0100 674.0000 1.0000
28.0200 701.0000 1.0000
28.0300 703.0000 1.0000
28.0400 696.0000 1.0000
28.0500 695.0000 1.0000
28.0600 691.0000 1.0000
28.0700 705.0000 1.0000
28.0800 723.0000 1.0000
28.0900 681.0000 1.0000
28.1000 702.0000 1.0000
28.1100 697.0000 1.0000
28.1200 676.0000 1.0000
28.1300 689.0000 1.0000
28.1400 701.0000 1.0000
28.1500 687.0000 1.0000
28.1600 713.0000 1.0000
28.1700 727.0000 1.0000
28.1800 720.0000 1.0000
28.1900 738.0000 1.0000
28.2000 784.0000 1.0000
28.2100 712.0000 1.0000
28.2200 708.0000 1.0000
28.2300 747.0000 1.0000
28.2400 742.0000 1.0000
28.2500 666.0000 1.0000
28.2600 679.0000 1.0000
28.2700 707.0000 1.0000
28.2800 707.0000 1.0000
28.2900 703.0000 1.0000
28.3000 670.0000 1.0000
28.3100 690.0000 1.0000
28.3200 718.0000 1.0000
28.3300 693.0000 1.0000
28.3400 653.0000 1.0000
28.3500 708.0000 1.0000
28.3600 691.0000 1.0000
28.3700 694.0000 1.0000
28.3800 675.0000 1.0000
28.3900 747.0000 1.0000
28.4000 686.0000 1.0000
28.4100 676.0000 1.0000
28.4200 684.0000 1.0000
28.4300 704.0000 1.0000
28.4400 710.0000 1.0000
28.4500 726.0000 1.0000
28.4600 721.0000 1.0000
28.4700 659.0000 1.0000
28.4800 653.0000 1.0000
28.4900 715.0000 1.0000
28.5000 701.0000 1.0000
28.5100 708.0000 1.0000
28.5200 698.0000 1.0000
28.5300 705.0000 1.0000
28.5400 679.0000 1.0000
28.5500 694.0000 1.0000
28.5600 702.0000 1.0000
28.5700 751.0000 1.0000
28.5800 690.0000 1.0000
28.5900 653.0000 1.0000
28.6000 656.0000 1.0000
28.6100 694.0000 1.0000
28.6200 713.0000 1.0000
28.6300 710.0000 1.0000
28.6400 710.0000 1.0000
28.6500 659.0000 1.0000
28.6600 696.0000 1.0000
28.6700 679.0000 1.0000
28.6800 693.0000 1.0000
28.6900 648.0000 1.0000
28.7000 662.0000 1.0000
28.7100 703.0000 1.0000
28.7200 681.0000 1.0000
28.7300 693.0000 1.0000
28.7400 682.0000 1.0000
28.7500 669.0000 1.0000
28.7600 697.0000 1.0000
28.7700 668.0000 1.0000
28.7800 696.0000 1.0000
28.7900 692.0000 1.0000
28.8000 662.0000 1.0000
28.8100 662.0000 1.0000
28.8200 653.0000 1.0000
28.8300 674.0000 1.0000
28.8400 649.0000 1.0000
28.8500 659.0000 1.0000
28.8600 692.0000 1.0000
28.8700 689.0000 1.0000
28.8800 682.0000 1.0000
28.8900 654.0000 1.0000
28.9000 667.0000 1.0000
28.9100 634.0000 1.0000
28.9200 665.0000 1.0000
28.9300 702.0000 1.0000
28.9400 689.0000 1.0000
28.9500 697.0000 1.0000
28.9600 657.0000 1.0000
28.9700 680.0000 1.0000
28.9800 677.0000 1.0000
28.9900 645.0000 1.0000
29.0000 650.0000 1.0000
29.0100 661.0000 1.0000
29.0200 674.0000 1.0000
29.0300 638.0000 1.0000
29.0400 669.0000 1.0000
29.0500 666.0000 1.0000
29.0600 672.0000 1.0000
29.0700 651.0000 1.0000
29.0800 663.0000 1.0000
29.0900 697.0000 1.0000
29.1000 654.0000 1.0000
29.1100 671.0000 1.0000
29.1200 645.0000 1.0000
29.1300 661.0000 1.0000
29.1400 658.0000 1.0000
29.1500 681.0000 1.0000
29.1600 666.0000 1.0000
29.1700 649.0000 1.0000
29.1800 672.0000 1.0000
29.1900 625.0000 1.0000
29.2000 690.0000 1.0000
29.2100 645.0000 1.0000
29.2200 659.0000 1.0000
29.2300 672.0000 1.0000
29.2400 653.0000 1.0000
29.2500 681.0000 1.0000
29.2600 670.0000 1.0000
29.2700 691.0000 1.0000
29.2800 677.0000 1.0000
29.2900 641.0000 1.0000
29.3000 661.0000 1.0000
29.3100 661.0000 1.0000
29.3200 621.0000 1.0000
29.3300 681.0000 1.0000
29.3400 651.0000 1.0000
29.3500 640.0000 1.0000
29.3600 629.0000 1.0000
29.3700 645.0000 1.0000
29.3800 635.0000 1.0000
29.3900 682.0000 1.0000
29.4000 650.0000 1.0000
29.4100 653.0000 1.0000
29.4200 680.0000 1.0000
29.4300 647.0000 1.0000
29.4400 612.0000 1.0000
29.4500 659.0000 1.0000
29.4600 684.0000 1.0000
29.4700 620.0000 1.0000
29.4800 623.0000 1.0000
29.4900 663.0000 1.0000
29.5000 637.0000 1.0000
29.5100 636.0000 1.0000
29.5200 643.0000 1.0000
29.5300 656.0000 1.0000
29.5400 635.0000 1.0000
29.5500 688.0000 1.0000
29.5600 688.0000 1.0000
29.5700 653.0000 1.0000
29.5800 652.0000 1.0000
29.5900 654.0000 1.0000
29.6000 625.0000 1.0000
29.6100 634.0000 1.0000
29.6200 659.0000 1.0000
29.6300 649.0000 1.0000
29.6400 649.0000 1.0000
29.6500 649.0000 1.0000
29.6600 662.0000 1.0000
29.6700 692.0000 1.0000
29.6800 657.0000 1.0000
29.6900 675.0000 1.0000
29.7000 671.0000 1.0000
29.7100 639.0000 1.0000
29.7200 674.0000 1.0000
29.7300 646.0000 1.0000
29.7400 660.0000 1.0000
29.7500 646.0000 1.0000
29.7600 635.0000 1.0000
29.7700 633.0000 1.0000
29.7800 617.0000 1.0000
29.7900 624.0000 1.0000
29.8000 634.0000 1.0000
29.8100 688.0000 1.0000
29.8200 626.0000 1.0000
29.8300 684.0000 1.0000
29.8400 677.0000 1.0000
29.8500 658.0000 1.0000
29.8600 672.0000 1.0000
29.8700 666.0000 1.0000
29.8800 629.0000 1.0000
29.8900 620.0000 1.0000
29.9000 642.0000 1.0000
29.9100 654.0000 1.0000
29.9200 650.0000 1.0000
29.9300 642.0000 1.0000
29.9400 628.0000 1.0000
29.9500 614.0000 1.0000
29.9600 654.0000 1.0000
29.9700 637.0000 1.0000
29.9800 608.0000 1.0000
29.9900 640.0000 1.0000
30.0000 668.0000 1.0000
30.0100 606.0000 1.0000
30.0200 619.0000 1.0000
30.0300 638.0000 1.0000
30.0400 683.0000 1.0000
30.0500 669.0000 1.0000
30.0600 642.0000 1.0000
30.0700 663.0000 1.0000
30.0800 669.0000 1.0000
30.0900 618.0000 1.0000
30.1000 635.0000 1.0000
30.1100 638.0000 1.0000
30.1200 673.0000 1.0000
30.1300 668.0000 1.0000
30.1400 634.0000 1.0000
30.1500 674.0000 1.0000
30.1600 647.0000 1.0000
30.1700 593.0000 1.0000
30.1800 675.0000 1.0000
30.1900 622.0000 1.0000
30.2000 627.0000 1.0000
30.2100 639.0000 1.0000
30.2200 656.0000 1.0000
30.2300 638.0000 1.0000
30.2400 609.0000 1.0000
30.2500 581.0000 1.0000
30.2600 638.0000 1.0000
30.2700 664.0000 1.0000
30.2800 636.0000 1.0000
30.2900 659.0000 1.0000
30.3000 624.0000 1.0000
30.3100 609.0000 1.0000
30.3200 625.0000 1.0000
30.3300 626.0000 1.0000
30.3400 629.0000 1.0000
30.3500 621.0000 1.0000
30.3600 643.0000 1.0000
30.3700 623.0000 1.0000
30.3800 621.0000 1.0000
30.3900 608.0000 1.0000
30.4000 648.0000 1.0000
30.4100 665.0000 1.0000
30.4200 618.0000 1.0000
30.4300 598.0000 1.0000
30.4400 643.0000 1.0000
30.4500 608.0000 1.0000
30.4600 633.0000 1.0000
30.4700 684.0000 1.0000
30.4800 615.0000 1.0000
30.4900 628.0000 1.0000
30.5000 623.0000 1.0000
30.5100 645.0000 1.0000
30.5200 622.0000 1.0000
30.5300 638.0000 1.0000
30.5400 634.0000 1.0000
30.5500 668.0000 1.0000
30.5600 629.0000 1.0000
30.5700 627.0000 1.0000
30.5800 662.0000 1.0000
30.5900 632.0000 1.0000
30.6000 640.0000 1.0000
30.6100 629.0000 1.0000
30.6200 612.0000 1.0000
30.6300 666.0000 1.0000
30.6400 637.0000 1.0000
30.6500 595.0000 1.0000
30.6600 652.0000 1.0000
30.6700 637.0000 1.0000
30.6800 626.0000 1.0000
30.6900 634.0000 1.0000
30.7000 626.0000 1.0000
30.7100 622.0000 1.0000
30.7200 635.0000 1.0000
30.7300 643.0000 1.0000
30.7400 626.0000 1.0000
30.7500 615.0000 1.0000
30.7600 638.0000 1.0000
30.7700 609.0000 1.0000
30.7800 628.0000 1.0000
30.7900 585.0000 1.0000
30.8000 627.0000 1.0000
30.8100 613.0000 1.0000
30.8200 629.0000 1.0000
30.8300 610.0000 1.0000
30.8400 609.0000 1.0000
30.8500 656.0000 1.0000
30.8600 650.0000 1.0000
30.8700 630.0000 1.0000
30.8800 652.0000 1.0000
30.8900 610.0000 1.0000
30.9000 635.0000 1.0000
30.9100 587.0000 1.0000
30.9200 629.0000 1.0000
30.9300 609.0000 1.0000
30.9400 575.0000 1.0000
30.9500 605.0000 1.0000
30.9600 595.0000 1.0000
30.9700 610.0000 1.0000
30.9800 581.0000 1.0000
30.9900 611.0000 1.0000
31.0000 573.0000 1.0000
31.0100 645.0000 1.0000
31.0200 630.0000 1.0000
31.0300 652.0000 1.0000
31.0400 672.0000 1.0000
31.0500 619.0000 1.0000
31.0600 596.0000 1.0000
31.0700 607.0000 1.0000
31.0800 615.0000 1.0000
31.0900 635.0000 1.0000
31.1000 622.0000 1.0000
31.1100 653.0000 1.0000
31.1200 627.0000 1.0000
31.1300 618.0000 1.0000
31.1400 637.0000 1.0000
31.1500 619.0000 1.0000
31.1600 639.0000 1.0000
31.1700 638.0000 1.0000
31.1800 647.0000 1.0000
31.1900 642.0000 1.0000
31.2000 604.0000 1.0000
31.2100 636.0000 1.0000
31.2200 632.0000 1.0000
31.2300 617.0000 1.0000
31.2400 629.0000 1.0000
31.2500 575.0000 1.0000
31.2600 625.0000 1.0000
31.2700 619.0000 1.0000
31.2800 643.0000 1.0000
31.2900 612.0000 1.0000
31.3000 572.0000 1.0000
31.3100 633.0000 1.0000
31.3200 629.0000 1.0000
31.3300 623.0000 1.0000
31.3400 603.0000 1.0000
31.3500 599.0000 1.0000
31.3600 599.0000 1.0000
31.3700 607.0000 1.0000
31.3800 608.0000 1.0000
31.3900 591.0000 1.0000
31.4000 593.0000 1.0000
31.4100 603.0000 1.0000
31.4200 589.0000 1.0000
31.4300 559.0000 1.0000
31.4400 628.0000 1.0000
31.4500 638.0000 1.0000
31.4600 576.0000 1.0000
31.4700 619.0000 1.0000
31.4800 639.0000 1.0000
31.4900 617.0000 1.0000
31.5000 588.0000 1.0000
31.5100 587.0000 1.0000
31.5200 613.0000 1.0000
31.5300 596.0000 1.0000
31.5400 598.0000 1.0000
31.5500 587.0000 1.0000
31.5600 585.0000 1.0000
31.5700 581.0000 1.0000
31.5800 605.0000 1.0000
31.5900 607.0000 1.0000
31.6000 584.0000 1.0000
31.6100 583.0000 1.0000
31.6200 587.0000 1.0000
31.6300 572.0000 1.0000
31.6400 647.0000 1.0000
31.6500 583.0000 1.0000
31.6600 598.0000 1.0000
31.6700 596.0000 1.0000
31.6800 595.0000 1.0000
31.6900 609.0000 1.0000
31.7000 589.0000 1.0000
31.7100 611.0000 1.0000
31.7200 602.0000 1.0000
31.7300 628.0000 1.0000
31.7400 610.0000 1.0000
31.7500 607.0000 1.0000
31.7600 622.0000 1.0000
31.7700 634.0000 1.0000
31.7800 614.0000 1.0000
31.7900 577.0000 1.0000
31.8000 589.0000 1.0000
31.8100 586.0000 1.0000
31.8200 632.0000 1.0000
31.8300 620.0000 1.0000
31.8400 628.0000 1.0000
31.8500 567.0000 1.0000
31.8600 569.0000 1.0000
31.8700 586.0000 1.0000
31.8800 620.0000 1.0000
31.8900 607.0000 1.0000
31.9000 561.0000 1.0000
31.9100 586.0000 1.0000
31.9200 575.0000 1.0000
31.9300 602.0000 1.0000
31.9400 579.0000 1.0000
31.9500 575.0000 1.0000
31.9600 578.0000 1.0000
31.9700 572.0000 1.0000
31.9800 564.0000 1.0000
31.9900 610.0000 1.0000
32.0000 609.0000 1.0000
32.0100 589.0000 1.0000
32.0200 587.0000 1.0000
32.0300 599.0000 1.0000
32.0400 568.0000 1.0000
32.0500 616.0000 1.0000
32.0600 634.0000 1.0000
32.0700 554.0000 1.0000
32.0800 598.0000 1.0000
32.0900 589.0000 1.0000
32.1000 588.0000 1.0000
32.1100 631.0000 1.0000
32.1200 600.0000 1.0000
32.1300 594.0000 1.0000
32.1400 555.0000 1.0000
32.1500 595.0000 1.0000
32.1600 612.0000 1.0000
32.1700 573.0000 1.0000
32.1800 579.0000 1.0000
32.1900 587.0000 1.0000
32.2000 536.0000 1.0000
32.2100 565.0000 1.0000
32.2200 576.0000 1.0000
32.2300 556.0000 1.0000
32.2400 565.0000 1.0000
32.2500 582.0000 1.0000
32.2600 623.0000 1.0000
32.2700 569.0000 1.0000
32.2800 576.0000 1.0000
32.2900 604.0000 1.0000
32.3000 593.0000 1.0000
32.3100 551.0000 1.0000
32.3200 612.0000 1.0000
32.3300 553.0000 1.0000
32.3400 584.0000 1.0000
32.3500 554.0000 1.0000
32.3600 584.0000 1.0000
32.3700 544.0000 1.0000
32.3800 609.0000 1.0000
32.3900 585.0000 1.0000
32.4000 587.0000 1.0000
32.4100 559.0000 1.0000
32.4200 558.0000 1.0000
32.4300 554.0000 1.0000
32.4400 579.0000 1.0000
32.4500 544.0000 1.0000
32.4600 601.0000 1.0000
32.4700 564.0000 1.0000
32.4800 571.0000 1.0000
32.4900 555.0000 1.0000
32.5000 558.0000 1.0000
32.5100 589.0000 1.0000
32.5200 565.0000 1.0000
32.5300 608.0000 1.0000
32.5400 557.0000 1.0000
32.5500 564.0000 1.0000
32.5600 606.0000 1.0000
32.5700 594.0000 1.0000
32.5800 557.0000 1.0000
32.5900 585.0000 1.0000
32.6000 588.0000 1.0000
32.6100 564.0000 1.0000
32.6200 576.0000 1.0000
32.6300 559.0000 1.0000
32.6400 589.0000 1.0000
32.6500 581.0000 1.0000
32.6600 578.0000 1.0000
32.6700 568.0000 1.0000
32.6800 576.0000 1.0000
32.6900 581.0000 1.0000
32.7000 603.0000 1.0000
32.7100 587.0000 1.0000
32.7200 557.0000 1.0000
32.7300 552.0000 1.0000
32.7400 567.0000 1.0000
32.7500 589.0000 1.0000
32.7600 587.0000 1.0000
32.7700 602.0000 1.0000
32.7800 575.0000 1.0000
32.7900 597.0000 1.0000
32.8000 563.0000 1.0000
32.8100 555.0000 1.0000
32.8200 600.0000 1.0000
32.8300 607.0000 1.0000
32.8400 624.0000 1.0000
32.8500 608.0000 1.0000
32.8600 651.0000 1.0000
32.8700 614.0000 1.0000
32.8800 616.0000 1.0000
32.8900 608.0000 1.0000
32.9000 610.0000 1.0000
32.9100 586.0000 1.0000
32.9200 637.0000 1.0000
32.9300 636.0000 1.0000
32.9400 625.0000 1.0000
32.9500 621.0000 1.0000
32.9600 661.0000 1.0000
32.9700 670.0000 1.0000
32.9800 649.0000 1.0000
32.9900 622.0000 1.0000
33.0000 636.0000 1.0000
33.0100 680.0000 1.0000
33.0200 713.0000 1.0000
33.0300 710.0000 1.0000
33.0400 718.0000 1.0000
33.0500 701.0000 1.0000
33.0600 737.0000 1.0000
33.0700 714.0000 1.0000
33.0800 727.0000 1.0000
33.0900 702.0000 1.0000
33.1000 716.0000 1.0000
33.1100 715.0000 1.0000
33.1200 703.0000 1.0000
33.1300 785.0000 1.0000
33.1400 755.0000 1.0000
33.1500 718.0000 1.0000
33.1600 675.0000 1.0000
33.1700 707.0000 1.0000
33.1800 713.0000 1.0000
33.1900 681.0000 1.0000
33.2000 705.0000 1.0000
33.2100 697.0000 1.0000
33.2200 677.0000 1.0000
33.2300 651.0000 1.0000
33.2400 697.0000 1.0000
33.2500 641.0000 1.0000
33.2600 672.0000 1.0000
33.2700 611.0000 1.0000
33.2800 654.0000 1.0000
33.2900 602.0000 1.0000
33.3000 650.0000 1.0000
33.3100 677.0000 1.0000
33.3200 695.0000 1.0000
33.3300 675.0000 1.0000
33.3400 737.0000 1.0000
33.3500 684.0000 1.0000
33.3600 634.0000 1.0000
33.3700 677.0000 1.0000
33.3800 672.0000 1.0000
33.3900 705.0000 1.0000
33.4000 689.0000 1.0000
33.4100 689.0000 1.0000
33.4200 709.0000 1.0000
33.4300 725.0000 1.0000
33.4400 740.0000 1.0000
33.4500 712.0000 1.0000
33.4600 729.0000 1.0000
33.4700 817.0000 1.0000
33.4800 813.0000 1.0000
33.4900 767.0000 1.0000
33.5000 833.0000 1.0000
33.5100 847.0000 1.0000
33.5200 878.0000 1.0000
33.5300 944.0000 1.0000
33.5400 937.0000 1.0000
33.5500 955.0000 1.0000
33.5600 1016.0000 1.0000
33.5700 1054.0000 1.0000
33.5800 1089.0000 1.0000
33.5900 1189.0000 1.0000
33.6000 1188.0000 1.0000
33.6100 1247.0000 1.0000
33.6200 1306.0000 1.0000
33.6300 1357.0000 1.0000
33.6400 1348.0000 1.0000
33.6500 1408.0000 1.0000
33.6600 1434.0000 1.0000
33.6700 1430.0000 1.0000
33.6800 1348.0000 1.0000
33.6900 1293.0000 1.0000
33.7000 1338.0000 1.0000
33.7100 1273.0000 1.0000
33.7200 1256.0000 1.0000
33.7300 1216.0000 1.0000
33.7400 1160.0000 1.0000
33.7500 1133.0000 1.0000
33.7600 1131.0000 1.0000
33.7700 1025.0000 1.0000
33.7800 973.0000 1.0000
33.7900 949.0000 1.0000
33.8000 944.0000 1.0000
33.8100 948.0000 1.0000
33.8200 849.0000 1.0000
33.8300 844.0000 1.0000
33.8400 860.0000 1.0000
33.8500 798.0000 1.0000
33.8600 781.0000 1.0000
33.8700 721.0000 1.0000
33.8800 731.0000 1.0000
33.8900 732.0000 1.0000
33.9000 725.0000 1.0000
33.9100 697.0000 1.0000
33.9200 682.0000 1.0000
33.9300 696.0000 1.0000
33.9400 666.0000 1.0000
33.9500 602.0000 1.0000
33.9600 646.0000 1.0000
33.9700 666.0000 1.0000
33.9800 599.0000 1.0000
33.9900 594.0000 1.0000
34.0000 627.0000 1.0000
34.0100 592.0000 1.0000
34.0200 615.0000 1.0000
34.0300 594.0000 1.0000
34.0400 598.0000 1.0000
34.0500 604.0000 1.0000
34.0600 560.0000 1.0000
34.0700 569.0000 1.0000
34.0800 563.0000 1.0000
34.0900 533.0000 1.0000
34.1000 521.0000 1.0000
34.1100 548.0000 1.0000
34.1200 562.0000 1.0000
34.1300 553.0000 1.0000
34.1400 564.0000 1.0000
34.1500 557.0000 1.0000
34.1600 536.0000 1.0000
34.1700 532.0000 1.0000
34.1800 563.0000 1.0000
34.1900 581.0000 1.0000
34.2000 558.0000 1.0000
34.2100 541.0000 1.0000
34.2200 523.0000 1.0000
34.2300 512.0000 1.0000
34.2400 532.0000 1.0000
34.2500 532.0000 1.0000
34.2600 549.0000 1.0000
34.2700 515.0000 1.0000
34.2800 503.0000 1.0000
34.2900 517.0000 1.0000
34.3000 513.0000 1.0000
34.3100 556.0000 1.0000
34.3200 520.0000 1.0000
34.3300 525.0000 1.0000
34.3400 540.0000 1.0000
34.3500 550.0000 1.0000
34.3600 493.0000 1.0000
34.3700 502.0000 1.0000
34.3800 500.0000 1.0000
34.3900 491.0000 1.0000
34.4000 520.0000 1.0000
34.4100 526.0000 1.0000
34.4200 531.0000 1.0000
34.4300 546.0000 1.0000
34.4400 486.0000 1.0000
34.4500 507.0000 1.0000
34.4600 489.0000 1.0000
34.4700 493.0000 1.0000
34.4800 515.0000 1.0000
34.4900 527.0000 1.0000
34.5000 526.0000 1.0000
34.5100 481.0000 1.0000
34.5200 497.0000 1.0000
34.5300 463.0000 1.0000
34.5400 475.0000 1.0000
34.5500 478.0000 1.0000
34.5600 519.0000 1.0000
34.5700 542.0000 1.0000
34.5800 477.0000 1.0000
34.5900 456.0000 1.0000
34.6000 530.0000 1.0000
34.6100 497.0000 1.0000
34.6200 502.0000 1.0000
34.6300 494.0000 1.0000
34.6400 511.0000 1.0000
34.6500 465.0000 1.0000
34.6600 478.0000 1.0000
34.6700 505.0000 1.0000
34.6800 502.0000 1.0000
34.6900 483.0000 1.0000
34.7000 501.0000 1.0000
34.7100 501.0000 1.0000
34.7200 470.0000 1.0000
34.7300 486.0000 1.0000
34.7400 488.0000 1.0000
34.7500 496.0000 1.0000
34.7600 515.0000 1.0000
34.7700 481.0000 1.0000
34.7800 466.0000 1.0000
34.7900 477.0000 1.0000
34.8000 492.0000 1.0000
34.8100 527.0000 1.0000
34.8200 483.0000 1.0000
34.8300 515.0000 1.0000
34.8400 499.0000 1.0000
34.8500 497.0000 1.0000
34.8600 460.0000 1.0000
34.8700 529.0000 1.0000
34.8800 530.0000 1.0000
34.8900 499.0000 1.0000
34.9000 468.0000 1.0000
34.9100 470.0000 1.0000
34.9200 537.0000 1.0000
34.9300 471.0000 1.0000
34.9400 466.0000 1.0000
34.9500 478.0000 1.0000
34.9600 471.0000 1.0000
34.9700 515.0000 1.0000
34.9800 491.0000 1.0000
34.9900 510.0000 1.0000
35.0000 475.0000 1.0000
35.0100 479.0000 1.0000
35.0200 482.0000 1.0000
35.0300 469.0000 1.0000
35.0400 461.0000 1.0000
35.0500 459.0000 1.0000
35.0600 448.0000 1.0000
35.0700 489.0000 1.0000
35.0800 513.0000 1.0000
35.0900 482.0000 1.0000
35.1000 469.0000 1.0000
35.1100 480.0000 1.0000
35.1200 513.0000 1.0000
35.1300 471.0000 1.0000
35.1400 470.0000 1.0000
35.1500 490.0000 1.0000
35.1600 497.0000 1.0000
35.1700 516.0000 1.0000
35.1800 499.0000 1.0000
35.1900 489.0000 1.0000
35.2000 466.0000 1.0000
35.2100 479.0000 1.0000
35.2200 506.0000 1.0000
35.2300 513.0000 1.0000
35.2400 495.0000 1.0000
35.2500 518.0000 1.0000
35.2600 521.0000 1.0000
35.2700 488.0000 1.0000
35.2800 485.0000 1.0000
35.2900 454.0000 1.0000
35.3000 532.0000 1.0000
35.3100 517.0000 1.0000
35.3200 497.0000 1.0000
35.3300 499.0000 1.0000
35.3400 544.0000 1.0000
35.3500 578.0000 1.0000
35.3600 527.0000 1.0000
35.3700 524.0000 1.0000
35.3800 573.0000 1.0000
35.3900 559.0000 1.0000
35.4000 579.0000 1.0000
35.4100 575.0000 1.0000
35.4200 596.0000 1.0000
35.4300 584.0000 1.0000
35.4400 605.0000 1.0000
35.4500 619.0000 1.0000
35.4600 643.0000 1.0000
35.4700 598.0000 1.0000
35.4800 664.0000 1.0000
35.4900 663.0000 1.0000
35.5000 715.0000 1.0000
35.5100 724.0000 1.0000
35.5200 759.0000 1.0000
35.5300 730.0000 1.0000
35.5400 784.0000 1.0000
35.5500 805.0000 1.0000
35.5600 816.0000 1.0000
35.5700 783.0000 1.0000
35.5800 853.0000 1.0000
35.5900 814.0000 1.0000
35.6000 811.0000 1.0000
35.6100 836.0000 1.0000
35.6200 817.0000 1.0000
35.6300 756.0000 1.0000
35.6400 755.0000 1.0000
35.6500 742.0000 1.0000
35.6600 722.0000 1.0000
35.6700 713.0000 1.0000
35.6800 676.0000 1.0000
35.6900 657.0000 1.0000
35.7000 657.0000 1.0000
35.7100 632.0000 1.0000
35.7200 597.0000 1.0000
35.7300 657.0000 1.0000
35.7400 610.0000 1.0000
35.7500 559.0000 1.0000
35.7600 547.0000 1.0000
35.7700 579.0000 1.0000
35.7800 573.0000 1.0000
35.7900 532.0000 1.0000
35.8000 509.0000 1.0000
35.8100 519.0000 1.0000
35.8200 506.0000 1.0000
35.8300 505.0000 1.0000
35.8400 517.0000 1.0000
35.8500 498.0000 1.0000
35.8600 468.0000 1.0000
35.8700 454.0000 1.0000
35.8800 434.0000 1.0000
35.8900 495.0000 1.0000
35.9000 462.0000 1.0000
35.9100 445.0000 1.0000
35.9200 454.0000 1.0000
35.9300 449.0000 1.0000
35.9400 507.0000 1.0000
35.9500 453.0000 1.0000
35.9600 452.0000 1.0000
35.9700 475.0000 1.0000
35.9800 444.0000 1.0000
35.9900 461.0000 1.0000
36.0000 448.0000 1.0000
36.0100 453.0000 1.0000
36.0200 437.0000 1.0000
36.0300 451.0000 1.0000
36.0400 462.0000 1.0000
36.0500 426.0000 1.0000
36.0600 468.0000 1.0000
36.0700 478.0000 1.0000
36.0800 459.0000 1.0000
36.0900 448.0000 1.0000
36.1000 443.0000 1.0000
36.1100 452.0000 1.0000
36.1200 430.0000 1.0000
36.1300 472.0000 1.0000
36.1400 470.0000 1.0000
36.1500 448.0000 1.0000
36.1600 439.0000 1.0000
36.1700 443.0000 1.0000
36.1800 451.0000 1.0000
36.1900 428.0000 1.0000
36.2000 431.0000 1.0000
36.2100 453.0000 1.0000
36.2200 435.0000 1.0000
36.2300 477.0000 1.0000
36.2400 414.0000 1.0000
36.2500 428.0000 1.0000
36.2600 453.0000 1.0000
36.2700 422.0000 1.0000
36.2800 440.0000 1.0000
36.2900 440.0000 1.0000
36.3000 452.0000 1.0000
36.3100 467.0000 1.0000
36.3200 474.0000 1.0000
36.3300 439.0000 1.0000
36.3400 417.0000 1.0000
36.3500 457.0000 1.0000
36.3600 451.0000 1.0000
36.3700 410.0000 1.0000
36.3800 423.0000 1.0000
36.3900 440.0000 1.0000
36.4000 448.0000 1.0000
36.4100 413.0000 1.0000
36.4200 463.0000 1.0000
36.4300 425.0000 1.0000
36.4400 449.0000 1.0000
36.4500 474.0000 1.0000
36.4600 467.0000 1.0000
36.4700 463.0000 1.0000
36.4800 478.0000 1.0000
36.4900 454.0000 1.0000
36.5000 442.0000 1.0000
36.5100 454.0000 1.0000
36.5200 478.0000 1.0000
36.5300 433.0000 1.0000
36.5400 435.0000 1.0000
36.5500 425.0000 1.0000
36.5600 434.0000 1.0000
36.5700 435.0000 1.0000
36.5800 456.0000 1.0000
36.5900 436.0000 1.0000
36.6000 413.0000 1.0000
36.6100 437.0000 1.0000
36.6200 463.0000 1.0000
36.6300 413.0000 1.0000
36.6400 445.0000 1.0000
36.6500 440.0000 1.0000
36.6600 499.0000 1.0000
36.6700 457.0000 1.0000
36.6800 429.0000 1.0000
36.6900 425.0000 1.0000
36.7000 424.0000 1.0000
36.7100 386.0000 1.0000
36.7200 431.0000 1.0000
36.7300 437.0000 1.0000
36.7400 431.0000 1.0000
36.7500 448.0000 1.0000
36.7600 433.0000 1.0000
36.7700 439.0000 1.0000
36.7800 442.0000 1.0000
36.7900 467.0000 1.0000
36.8000 462.0000 1.0000
36.8100 419.0000 1.0000
36.8200 412.0000 1.0000
36.8300 442.0000 1.0000
36.8400 488.0000 1.0000
36.8500 446.0000 1.0000
36.8600 456.0000 1.0000
36.8700 477.0000 1.0000
36.8800 494.0000 1.0000
36.8900 415.0000 1.0000
36.9000 418.0000 1.0000
36.9100 445.0000 1.0000
36.9200 427.0000 1.0000
36.9300 422.0000 1.0000
36.9400 431.0000 1.0000
36.9500 453.0000 1.0000
36.9600 418.0000 1.0000
36.9700 409.0000 1.0000
36.9800 456.0000 1.0000
36.9900 440.0000 1.0000
37.0000 449.0000 1.0000
37.0100 427.0000 1.0000
37.0200 462.0000 1.0000
37.0300 414.0000 1.0000
37.0400 448.0000 1.0000
37.0500 439.0000 1.0000
37.0600 451.0000 1.0000
37.0700 459.0000 1.0000
37.0800 427.0000 1.0000
37.0900 443.0000 1.0000
37.1000 447.0000 1.0000
37.1100 467.0000 1.0000
37.1200 442.0000 1.0000
37.1300 458.0000 1.0000
37.1400 461.0000 1.0000
37.1500 444.0000 1.0000
37.1600 452.0000 1.0000
37.1700 452.0000 1.0000
37.1800 448.0000 1.0000
37.1900 475.0000 1.0000
37.2000 491.0000 1.0000
37.2100 460.0000 1.0000
37.2200 476.0000 1.0000
37.2300 464.0000 1.0000
37.2400 467.0000 1.0000
37.2500 484.0000 1.0000
37.2600 502.0000 1.0000
37.2700 518.0000 1.0000
37.2800 479.0000 1.0000
37.2900 506.0000 1.0000
37.3000 472.0000 1.0000
37.3100 491.0000 1.0000
37.3200 556.0000 1.0000
37.3300 549.0000 1.0000
37.3400 559.0000 1.0000
37.3500 526.0000 1.0000
37.3600 562.0000 1.0000
37.3700 539.0000 1.0000
37.3800 561.0000 1.0000
37.3900 571.0000 1.0000
37.4000 560.0000 1.0000
37.4100 559.0000 1.0000
37.4200 608.0000 1.0000
37.4300 619.0000 1.0000
37.4400 673.0000 1.0000
37.4500 680.0000 1.0000
37.4600 654.0000 1.0000
37.4700 676.0000 1.0000
37.4800 715.0000 1.0000
37.4900 756.0000 1.0000
37.5000 807.0000 1.0000
37.5100 793.0000 1.0000
37.5200 850.0000 1.0000
37.5300 931.0000 1.0000
37.5400 915.0000 1.0000
37.5500 1017.0000 1.0000
37.5600 1037.0000 1.0000
37.5700 1124.0000 1.0000
37.5800 1186.0000 1.0000
37.5900 1256.0000 1.0000
37.6000 1360.0000 1.0000
37.6100 1410.0000 1.0000
37.6200 1502.0000 1.0000
37.6300 1519.0000 1.0000
37.6400 1700.0000 1.0000
37.6500 1754.0000 1.0000
37.6600 1845.0000 1.0000
37.6700 1884.0000 1.0000
37.6800 1975.0000 1.0000
37.6900 2011.0000 1.0000
37.7000 2100.0000 1.0000
37.7100 2097.0000 1.0000
37.7200 2107.0000 1.0000
37.7300 2102.0000 1.0000
37.7400 2070.0000 1.0000
37.7500 1982.0000 1.0000
37.7600 1965.0000 1.0000
37.7700 1933.0000 1.0000
37.7800 1855.0000 1.0000
37.7900 1827.0000 1.0000
37.8000 1800.0000 1.0000
37.8100 1643.0000 1.0000
37.8200 1593.0000 1.0000
37.8300 1511.0000 1.0000
37.8400 1400.0000 1.0000
37.8500 1401.0000 1.0000
37.8600 1247.0000 1.0000
37.8700 1211.0000 1.0000
37.8800 1097.0000 1.0000
37.8900 1041.0000 1.0000
37.9000 992.0000 1.0000
37.9100 917.0000 1.0000
37.9200 883.0000 1.0000
37.9300 864.0000 1.0000
37.9400 835.0000 1.0000
37.9500 773.0000 1.0000
37.9600 732.0000 1.0000
37.9700 719.0000 1.0000
37.9800 658.0000 1.0000
37.9900 642.0000 1.0000
38.0000 592.0000 1.0000
38.0100 616.0000 1.0000
38.0200 618.0000 1.0000
38.0300 602.0000 1.0000
38.0400 580.0000 1.0000
38.0500 536.0000 1.0000
38.0600 536.0000 1.0000
38.0700 513.0000 1.0000
38.0800 534.0000 1.0000
38.0900 529.0000 1.0000
38.1000 500.0000 1.0000
38.1100 485.0000 1.0000
38.1200 485.0000 1.0000
38.1300 488.0000 1.0000
38.1400 495.0000 1.0000
38.1500 452.0000 1.0000
38.1600 439.0000 1.0000
38.1700 457.0000 1.0000
38.1800 451.0000 1.0000
38.1900 444.0000 1.0000
38.2000 442.0000 1.0000
38.2100 451.0000 1.0000
38.2200 435.0000 1.0000
38.2300 445.0000 1.0000
38.2400 456.0000 1.0000
38.2500 434.0000 1.0000
38.2600 418.0000 1.0000
38.2700 414.0000 1.0000
38.2800 401.0000 1.0000
38.2900 399.0000 1.0000
38.3000 399.0000 1.0000
38.3100 415.0000 1.0000
38.3200 417.0000 1.0000
38.3300 436.0000 1.0000
38.3400 415.0000 1.0000
38.3500 434.0000 1.0000
38.3600 396.0000 1.0000
38.3700 405.0000 1.0000
38.3800 415.0000 1.0000
38.3900 397.0000 1.0000
38.4000 416.0000 1.0000
38.4100 410.0000 1.0000
38.4200 438.0000 1.0000
38.4300 410.0000 1.0000
38.4400 374.0000 1.0000
38.4500 389.0000 1.0000
38.4600 395.0000 1.0000
38.4700 420.0000 1.0000
38.4800 459.0000 1.0000
38.4900 408.0000 1.0000
38.5000 425.0000 1.0000
38.5100 423.0000 1.0000
38.5200 420.0000 1.0000
38.5300 388.0000 1.0000
38.5400 383.0000 1.0000
38.5500 403.0000 1.0000
38.5600 412.0000 1.0000
38.5700 403.0000 1.0000
38.5800 416.0000 1.0000
38.5900 432.0000 1.0000
38.6000 396.0000 1.0000
38.6100 362.0000 1.0000
38.6200 402.0000 1.0000
38.6300 431.0000 1.0000
38.6400 431.0000 1.0000
38.6500 427.0000 1.0000
38.6600 405.0000 1.0000
38.6700 407.0000 1.0000
38.6800 399.0000 1.0000
38.6900 398.0000 1.0000
38.7000 438.0000 1.0000
38.7100 439.0000 1.0000
38.7200 401.0000 1.0000
38.7300 438.0000 1.0000
38.7400 445.0000 1.0000
38.7500 389.0000 1.0000
38.7600 428.0000 1.0000
38.7700 415.0000 1.0000
38.7800 428.0000 1.0000
38.7900 418.0000 1.0000
38.8000 421.0000 1.0000
38.8100 413.0000 1.0000
38.8200 411.0000 1.0000
38.8300 440.0000 1.0000
38.8400 437.0000 1.0000
38.8500 413.0000 1.0000
38.8600 434.0000 1.0000
38.8700 405.0000 1.0000
38.8800 392.0000 1.0000
38.8900 425.0000 1.0000
38.9000 401.0000 1.0000
38.9100 425.0000 1.0000
38.9200 392.0000 1.0000
38.9300 399.0000 1.0000
38.9400 422.0000 1.0000
38.9500 403.0000 1.0000
38.9600 400.0000 1.0000
38.9700 421.0000 1.0000
38.9800 403.0000 1.0000
38.9900 396.0000 1.0000
39.0000 377.0000 1.0000
39.0100 401.0000 1.0000
39.0200 393.0000 1.0000
39.0300 412.0000 1.0000
39.0400 408.0000 1.0000
39.0500 372.0000 1.0000
39.0600 384.0000 1.0000
39.0700 355.0000 1.0000
39.0800 379.0000 1.0000
39.0900 391.0000 1.0000
39.1000 368.0000 1.0000
39.1100 394.0000 1.0000
39.1200 393.0000 1.0000
39.1300 378.0000 1.0000
39.1400 394.0000 1.0000
39.1500 370.0000 1.0000
39.1600 371.0000 1.0000
39.1700 408.0000 1.0000
39.1800 430.0000 1.0000
39.1900 388.0000 1.0000
39.2000 403.0000 1.0000
39.2100 384.0000 1.0000
39.2200 373.0000 1.0000
39.2300 383.0000 1.0000
39.2400 360.0000 1.0000
39.2500 369.0000 1.0000
39.2600 379.0000 1.0000
39.2700 416.0000 1.0000
39.2800 393.0000 1.0000
39.2900 400.0000 1.0000
39.3000 383.0000 1.0000
39.3100 373.0000 1.0000
39.3200 390.0000 1.0000
39.3300 370.0000 1.0000
39.3400 392.0000 1.0000
39.3500 395.0000 1.0000
39.3600 390.0000 1.0000
39.3700 395.0000 1.0000
39.3800 357.0000 1.0000
39.3900 382.0000 1.0000
39.4000 376.0000 1.0000
39.4100 325.0000 1.0000
39.4200 389.0000 1.0000
39.4300 390.0000 1.0000
39.4400 373.0000 1.0000
39.4500 363.0000 1.0000
39.4600 388.0000 1.0000
39.4700 377.0000 1.0000
39.4800 371.0000 1.0000
39.4900 385.0000 1.0000
39.5000 368.0000 1.0000
39.5100 382.0000 1.0000
39.5200 350.0000 1.0000
39.5300 403.0000 1.0000
39.5400 361.0000 1.0000
39.5500 383.0000 1.0000
39.5600 395.0000 1.0000
39.5700 346.0000 1.0000
39.5800 371.0000 1.0000
39.5900 396.0000 1.0000
39.6000 380.0000 1.0000
39.6100 383.0000 1.0000
39.6200 397.0000 1.0000
39.6300 374.0000 1.0000
39.6400 333.0000 1.0000
39.6500 355.0000 1.0000
39.6600 359.0000 1.0000
39.6700 352.0000 1.0000
39.6800 383.0000 1.0000
39.6900 364.0000 1.0000
39.7000 366.0000 1.0000
39.7100 401.0000 1.0000
39.7200 382.0000 1.0000
39.7300 377.0000 1.0000
39.7400 355.0000 1.0000
39.7500 374.0000 1.0000
39.7600 396.0000 1.0000
39.7700 358.0000 1.0000
39.7800 380.0000 1.0000
39.7900 396.0000 1.0000
39.8000 369.0000 1.0000
39.8100 368.0000 1.0000
39.8200 370.0000 1.0000
39.8300 410.0000 1.0000
39.8400 387.0000 1.0000
39.8500 386.0000 1.0000
39.8600 362.0000 1.0000
39.8700 407.0000 1.0000
39.8800 372.0000 1.0000
39.8900 377.0000 1.0000
39.9000 381.0000 1.0000
39.9100 374.0000 1.0000
39.9200 370.0000 1.0000
39.9300 358.0000 1.0000
39.9400 369.0000 1.0000
39.9500 344.0000 1.0000
39.9600 394.0000 1.0000
39.9700 376.0000 1.0000
39.9800 373.0000 1.0000
39.9900 366.0000 1.0000
40.0000 384.0000 1.0000
40.0100 404.0000 1.0000
40.0200 370.0000 1.0000
40.0300 355.0000 1.0000
40.0400 379.0000 1.0000
40.0500 373.0000 1.0000
40.0600 379.0000 1.0000
40.0700 372.0000 1.0000
40.0800 402.0000 1.0000
40.0900 340.0000 1.0000
40.1000 364.0000 1.0000
40.1100 384.0000 1.0000
40.1200 353.0000 1.0000
40.1300 356.0000 1.0000
40.1400 379.0000 1.0000
40.1500 369.0000 1.0000
40.1600 373.0000 1.0000
40.1700 383.0000 1.0000
40.1800 327.0000 1.0000
40.1900 348.0000 1.0000
40.2000 365.0000 1.0000
40.2100 358.0000 1.0000
40.2200 364.0000 1.0000
40.2300 376.0000 1.0000
40.2400 384.0000 1.0000
40.2500 371.0000 1.0000
40.2600 380.0000 1.0000
40.2700 353.0000 1.0000
40.2800 347.0000 1.0000
40.2900 367.0000 1.0000
40.3000 405.0000 1.0000
40.3100 366.0000 1.0000
40.3200 383.0000 1.0000
40.3300 393.0000 1.0000
40.3400 350.0000 1.0000
40.3500 380.0000 1.0000
40.3600 339.0000 1.0000
40.3700 359.0000 1.0000
40.3800 408.0000 1.0000
40.3900 367.0000 1.0000
40.4000 367.0000 1.0000
40.4100 396.0000 1.0000
40.4200 346.0000 1.0000
40.4300 364.0000 1.0000
40.4400 362.0000 1.0000
40.4500 359.0000 1.0000
40.4600 366.0000 1.0000
40.4700 368.0000 1.0000
40.4800 345.0000 1.0000
40.4900 363.0000 1.0000
40.5000 384.0000 1.0000
40.5100 428.0000 1.0000
40.5200 393.0000 1.0000
40.5300 372.0000 1.0000
40.5400 357.0000 1.0000
40.5500 371.0000 1.0000
40.5600 366.0000 1.0000
40.5700 363.0000 1.0000
40.5800 399.0000 1.0000
40.5900 377.0000 1.0000
40.6000 339.0000 1.0000
40.6100 355.0000 1.0000
40.6200 367.0000 1.0000
40.6300 335.0000 1.0000
40.6400 336.0000 1.0000
40.6500 420.0000 1.0000
40.6600 358.0000 1.0000
40.6700 376.0000 1.0000
40.6800 386.0000 1.0000
40.6900 367.0000 1.0000
40.7000 369.0000 1.0000
40.7100 388.0000 1.0000
40.7200 350.0000 1.0000
40.7300 394.0000 1.0000
40.7400 379.0000 1.0000
40.7500 411.0000 1.0000
40.7600 409.0000 1.0000
40.7700 377.0000 1.0000
40.7800 405.0000 1.0000
40.7900 394.0000 1.0000
40.8000 377.0000 1.0000
40.8100 384.0000 1.0000
40.8200 399.0000 1.0000
40.8300 402.0000 1.0000
40.8400 423.0000 1.0000
40.8500 400.0000 1.0000
40.8600 391.0000 1.0000
40.8700 397.0000 1.0000
40.8800 353.0000 1.0000
40.8900 375.0000 1.0000
40.9000 384.0000 1.0000
40.9100 409.0000 1.0000
40.9200 393.0000 1.0000
40.9300 367.0000 1.0000
40.9400 398.0000 1.0000
40.9500 375.0000 1.0000
40.9600 376.0000 1.0000
40.9700 412.0000 1.0000
40.9800 371.0000 1.0000
40.9900 377.0000 1.0000
41.0000 397.0000 1.0000
41.0100 364.0000 1.0000
41.0200 371.0000 1.0000
41.0300 375.0000 1.0000
41.0400 353.0000 1.0000
41.0500 361.0000 1.0000
41.0600 391.0000 1.0000
41.0700 365.0000 1.0000
41.0800 381.0000 1.0000
41.0900 363.0000 1.0000
41.1000 332.0000 1.0000
41.1100 393.0000 1.0000
41.1200 382.0000 1.0000
41.1300 362.0000 1.0000
41.1400 346.0000 1.0000
41.1500 390.0000 1.0000
41.1600 381.0000 1.0000
41.1700 375.0000 1.0000
41.1800 367.0000 1.0000
41.1900 368.0000 1.0000
41.2000 361.0000 1.0000
41.2100 361.0000 1.0000
41.2200 371.0000 1.0000
41.2300 353.0000 1.0000
41.2400 356.0000 1.0000
41.2500 342.0000 1.0000
41.2600 393.0000 1.0000
41.2700 359.0000 1.0000
41.2800 341.0000 1.0000
41.2900 372.0000 1.0000
41.3000 378.0000 1.0000
41.3100 362.0000 1.0000
41.3200 366.0000 1.0000
41.3300 361.0000 1.0000
41.3400 342.0000 1.0000
41.3500 373.0000 1.0000
41.3600 340.0000 1.0000
41.3700 357.0000 1.0000
41.3800 358.0000 1.0000
41.3900 392.0000 1.0000
41.4000 335.0000 1.0000
41.4100 363.0000 1.0000
41.4200 373.0000 1.0000
41.4300 371.0000 1.0000
41.4400 369.0000 1.0000
41.4500 365.0000 1.0000
41.4600 377.0000 1.0000
41.4700 361.0000 1.0000
41.4800 344.0000 1.0000
41.4900 371.0000 1.0000
41.5000 365.0000 1.0000
41.5100 383.0000 1.0000
41.5200 359.0000 1.0000
41.5300 365.0000 1.0000
41.5400 354.0000 1.0000
41.5500 356.0000 1.0000
41.5600 368.0000 1.0000
41.5700 353.0000 1.0000
41.5800 347.0000 1.0000
41.5900 350.0000 1.0000
41.6000 367.0000 1.0000
41.6100 365.0000 1.0000
41.6200 377.0000 1.0000
41.6300 380.0000 1.0000
41.6400 360.0000 1.0000
41.6500 342.0000 1.0000
41.6600 364.0000 1.0000
41.6700 376.0000 1.0000
41.6800 343.0000 1.0000
41.6900 352.0000 1.0000
41.7000 353.0000 1.0000
41.7100 346.0000 1.0000
41.7200 334.0000 1.0000
41.7300 366.0000 1.0000
41.7400 374.0000 1.0000
41.7500 356.0000 1.0000
41.7600 357.0000 1.0000
41.7700 386.0000 1.0000
41.7800 367.0000 1.0000
41.7900 384.0000 1.0000
41.8000 383.0000 1.0000
41.8100 388.0000 1.0000
41.8200 374.0000 1.0000
41.8300 406.0000 1.0000
41.8400 386.0000 1.0000
41.8500 308.0000 1.0000
41.8600 349.0000 1.0000
41.8700 384.0000 1.0000
41.8800 341.0000 1.0000
41.8900 362.0000 1.0000
41.9000 360.0000 1.0000
41.9100 384.0000 1.0000
41.9200 343.0000 1.0000
41.9300 376.0000 1.0000
41.9400 356.0000 1.0000
41.9500 368.0000 1.0000
41.9600 330.0000 1.0000
41.9700 351.0000 1.0000
41.9800 325.0000 1.0000
41.9900 370.0000 1.0000
42.0000 384.0000 1.0000
42.0100 350.0000 1.0000
42.0200 366.0000 1.0000
42.0300 360.0000 1.0000
42.0400 333.0000 1.0000
42.0500 342.0000 1.0000
42.0600 363.0000 1.0000
42.0700 339.0000 1.0000
42.0800 352.0000 1.0000
42.0900 346.0000 1.0000
42.1000 312.0000 1.0000
42.1100 379.0000 1.0000
42.1200 342.0000 1.0000
42.1300 368.0000 1.0000
42.1400 364.0000 1.0000
42.1500 351.0000 1.0000
42.1600 353.0000 1.0000
42.1700 371.0000 1.0000
42.1800 348.0000 1.0000
42.1900 350.0000 1.0000
42.2000 358.0000 1.0000
42.2100 378.0000 1.0000
42.2200 385.0000 1.0000
42.2300 332.0000 1.0000
42.2400 370.0000 1.0000
42.2500 362.0000 1.0000
42.2600 340.0000 1.0000
42.2700 356.0000 1.0000
42.2800 371.0000 1.0000
42.2900 390.0000 1.0000
42.3000 362.0000 1.0000
42.3100 357.0000 1.0000
42.3200 380.0000 1.0000
42.3300 383.0000 1.0000
42.3400 374.0000 1.0000
42.3500 382.0000 1.0000
42.3600 391.0000 1.0000
42.3700 388.0000 1.0000
42.3800 374.0000 1.0000
42.3900 391.0000 1.0000
42.4000 400.0000 1.0000
42.4100 396.0000 1.0000
42.4200 411.0000 1.0000
42.4300 386.0000 1.0000
42.4400 378.0000 1.0000
42.4500 404.0000 1.0000
42.4600 380.0000 1.0000
42.4700 392.0000 1.0000
42.4800 351.0000 1.0000
42.4900 431.0000 1.0000
42.5000 408.0000 1.0000
42.5100 406.0000 1.0000
42.5200 384.0000 1.0000
42.5300 401.0000 1.0000
42.5400 366.0000 1.0000
42.5500 377.0000 1.0000
42.5600 392.0000 1.0000
42.5700 358.0000 1.0000
42.5800 377.0000 1.0000
42.5900 366.0000 1.0000
42.6000 363.0000 1.0000
42.6100 371.0000 1.0000
42.6200 375.0000 1.0000
42.6300 374.0000 1.0000
42.6400 390.0000 1.0000
42.6500 375.0000 1.0000
42.6600 338.0000 1.0000
42.6700 370.0000 1.0000
42.6800 371.0000 1.0000
42.6900 323.0000 1.0000
42.7000 368.0000 1.0000
42.7100 376.0000 1.0000
42.7200 340.0000 1.0000
42.7300 341.0000 1.0000
42.7400 364.0000 1.0000
42.7500 350.0000 1.0000
42.7600 344.0000 1.0000
42.7700 352.0000 1.0000
42.7800 344.0000 1.0000
42.7900 342.0000 1.0000
42.8000 328.0000 1.0000
42.8100 341.0000 1.0000
42.8200 357.0000 1.0000
42.8300 335.0000 1.0000
42.8400 351.0000 1.0000
42.8500 353.0000 1.0000
42.8600 327.0000 1.0000
42.8700 307.0000 1.0000
42.8800 338.0000 1.0000
42.8900 350.0000 1.0000
42.9000 341.0000 1.0000
42.9100 365.0000 1.0000
42.9200 346.0000 1.0000
42.9300 347.0000 1.0000
42.9400 359.0000 1.0000
42.9500 358.0000 1.0000
42.9600 357.0000 1.0000
42.9700 360.0000 1.0000
42.9800 356.0000 1.0000
42.9900 347.0000 1.0000
43.0000 342.0000 1.0000
43.0100 362.0000 1.0000
43.0200 348.0000 1.0000
43.0300 340.0000 1.0000
43.0400 353.0000 1.0000
43.0500 349.0000 1.0000
43.0600 376.0000 1.0000
43.0700 316.0000 1.0000
43.0800 333.0000 1.0000
43.0900 327.0000 1.0000
43.1000 340.0000 1.0000
43.1100 316.0000 1.0000
43.1200 310.0000 1.0000
43.1300 349.0000 1.0000
43.1400 337.0000 1.0000
43.1500 354.0000 1.0000
43.1600 319.0000 1.0000
43.1700 333.0000 1.0000
43.1800 338.0000 1.0000
43.1900 360.0000 1.0000
43.2000 350.0000 1.0000
43.2100 349.0000 1.0000
43.2200 331.0000 1.0000
43.2300 326.0000 1.0000
43.2400 339.0000 1.0000
43.2500 352.0000 1.0000
43.2600 374.0000 1.0000
43.2700 362.0000 1.0000
43.2800 324.0000 1.0000
43.2900 329.0000 1.0000
43.3000 320.0000 1.0000
43.3100 321.0000 1.0000
43.3200 345.0000 1.0000
43.3300 367.0000 1.0000
43.3400 357.0000 1.0000
43.3500 355.0000 1.0000
43.3600 370.0000 1.0000
43.3700 346.0000 1.0000
43.3800 325.0000 1.0000
43.3900 339.0000 1.0000
43.4000 347.0000 1.0000
43.4100 351.0000 1.0000
43.4200 345.0000 1.0000
43.4300 360.0000 1.0000
43.4400 358.0000 1.0000
43.4500 344.0000 1.0000
43.4600 373.0000 1.0000
43.4700 352.0000 1.0000
43.4800 357.0000 1.0000
43.4900 351.0000 1.0000
43.5000 359.0000 1.0000
43.5100 349.0000 1.0000
43.5200 327.0000 1.0000
43.5300 377.0000 1.0000
43.5400 368.0000 1.0000
43.5500 338.0000 1.0000
43.5600 336.0000 1.0000
43.5700 375.0000 1.0000
43.5800 375.0000 1.0000
43.5900 376.0000 1.0000
43.6000 325.0000 1.0000
43.6100 359.0000 1.0000
43.6200 357.0000 1.0000
43.6300 361.0000 1.0000
43.6400 335.0000 1.0000
43.6500 373.0000 1.0000
43.6600 334.0000 1.0000
43.6700 373.0000 1.0000
43.6800 320.0000 1.0000
43.6900 334.0000 1.0000
43.7000 355.0000 1.0000
43.7100 300.0000 1.0000
43.7200 312.0000 1.0000
43.7300 341.0000 1.0000
43.7400 383.0000 1.0000
43.7500 360.0000 1.0000
43.7600 348.0000 1.0000
43.7700 339.0000 1.0000
43.7800 329.0000 1.0000
43.7900 336.0000 1.0000
43.8000 347.0000 1.0000
43.8100 364.0000 1.0000
43.8200 342.0000 1.0000
43.8300 323.0000 1.0000
43.8400 352.0000 1.0000
43.8500 352.0000 1.0000
43.8600 361.0000 1.0000
43.8700 368.0000 1.0000
43.8800 358.0000 1.0000
43.8900 334.0000 1.0000
43.9000 373.0000 1.0000
43.9100 354.0000 1.0000
43.9200 329.0000 1.0000
43.9300 357.0000 1.0000
43.9400 352.0000 1.0000
43.9500 364.0000 1.0000
43.9600 320.0000 1.0000
43.9700 330.0000 1.0000
43.9800 351.0000 1.0000
43.9900 313.0000 1.0000
44.0000 354.0000 1.0000
44.0100 337.0000 1.0000
44.0200 344.0000 1.0000
44.0300 337.0000 1.0000
44.0400 349.0000 1.0000
44.0500 351.0000 1.0000
44.0600 328.0000 1.0000
44.0700 338.0000 1.0000
44.0800 367.0000 1.0000
44.0900 324.0000 1.0000
44.1000 343.0000 1.0000
44.1100 340.0000 1.0000
44.1200 314.0000 1.0000
44.1300 333.0000 1.0000
44.1400 334.0000 1.0000
44.1500 338.0000 1.0000
44.1600 316.0000 1.0000
44.1700 306.0000 1.0000
44.1800 355.0000 1.0000
44.1900 361.0000 1.0000
44.2000 333.0000 1.0000
44.2100 340.0000 1.0000
44.2200 325.0000 1.0000
44.2300 338.0000 1.0000
44.2400 321.0000 1.0000
44.2500 320.0000 1.0000
44.2600 335.0000 1.0000
44.2700 347.0000 1.0000
44.2800 335.0000 1.0000
44.2900 345.0000 1.0000
44.3000 353.0000 1.0000
44.3100 334.0000 1.0000
44.3200 303.0000 1.0000
44.3300 319.0000 1.0000
44.3400 361.0000 1.0000
44.3500 351.0000 1.0000
44.3600 305.0000 1.0000
44.3700 314.0000 1.0000
44.3800 315.0000 1.0000
44.3900 315.0000 1.0000
44.4000 345.0000 1.0000
44.4100 323.0000 1.0000
44.4200 321.0000 1.0000
44.4300 332.0000 1.0000
44.4400 344.0000 1.0000
44.4500 345.0000 1.0000
44.4600 346.0000 1.0000
44.4700 362.0000 1.0000
44.4800 359.0000 1.0000
44.4900 368.0000 1.0000
44.5000 350.0000 1.0000
44.5100 336.0000 1.0000
44.5200 326.0000 1.0000
44.5300 320.0000 1.0000
44.5400 321.0000 1.0000
44.5500 336.0000 1.0000
44.5600 324.0000 1.0000
44.5700 334.0000 1.0000
44.5800 312.0000 1.0000
44.5900 357.0000 1.0000
44.6000 342.0000 1.0000
44.6100 341.0000 1.0000
44.6200 313.0000 1.0000
44.6300 317.0000 1.0000
44.6400 341.0000 1.0000
44.6500 309.0000 1.0000
44.6600 345.0000 1.0000
44.6700 337.0000 1.0000
44.6800 334.0000 1.0000
44.6900 329.0000 1.0000
44.7000 312.0000 1.0000
44.7100 310.0000 1.0000
44.7200 326.0000 1.0000
44.7300 333.0000 1.0000
44.7400 347.0000 1.0000
44.7500 347.0000 1.0000
44.7600 350.0000 1.0000
44.7700 340.0000 1.0000
44.7800 347.0000 1.0000
44.7900 337.0000 1.0000
44.8000 331.0000 1.0000
44.8100 314.0000 1.0000
44.8200 322.0000 1.0000
44.8300 314.0000 1.0000
44.8400 330.0000 1.0000
44.8500 330.0000 1.0000
44.8600 325.0000 1.0000
44.8700 323.0000 1.0000
44.8800 343.0000 1.0000
44.8900 325.0000 1.0000
44.9000 317.0000 1.0000
44.9100 332.0000 1.0000
44.9200 340.0000 1.0000
44.9300 324.0000 1.0000
44.9400 340.0000 1.0000
44.9500 327.0000 1.0000
44.9600 327.0000 1.0000
44.9700 324.0000 1.0000
44.9800 327.0000 1.0000
44.9900 314.0000 1.0000
45.0000 360.0000 1.0000
45.0100 331.0000 1.0000
45.0200 317.0000 1.0000
45.0300 312.0000 1.0000
45.0400 312.0000 1.0000
45.0500 302.0000 1.0000
45.0600 293.0000 1.0000
45.0700 318.0000 1.0000
45.0800 338.0000 1.0000
45.0900 304.0000 1.0000
45.1000 312.0000 1.0000
45.1100 319.0000 1.0000
45.1200 335.0000 1.0000
45.1300 308.0000 1.0000
45.1400 328.0000 1.0000
45.1500 311.0000 1.0000
45.1600 304.0000 1.0000
45.1700 310.0000 1.0000
45.1800 323.0000 1.0000
45.1900 341.0000 1.0000
45.2000 324.0000 1.0000
45.2100 311.0000 1.0000
45.2200 322.0000 1.0000
45.2300 362.0000 1.0000
45.2400 335.0000 1.0000
45.2500 311.0000 1.0000
45.2600 321.0000 1.0000
45.2700 308.0000 1.0000
45.2800 332.0000 1.0000
45.2900 346.0000 1.0000
45.3000 342.0000 1.0000
45.3100 313.0000 1.0000
45.3200 314.0000 1.0000
45.3300 337.0000 1.0000
45.3400 324.0000 1.0000
45.3500 326.0000 1.0000
45.3600 360.0000 1.0000
45.3700 319.0000 1.0000
45.3800 308.0000 1.0000
45.3900 319.0000 1.0000
45.4000 321.0000 1.0000
45.4100 302.0000 1.0000
45.4200 347.0000 1.0000
45.4300 308.0000 1.0000
45.4400 331.0000 1.0000
45.4500 326.0000 1.0000
45.4600 319.0000 1.0000
45.4700 352.0000 1.0000
45.4800 318.0000 1.0000
45.4900 305.0000 1.0000
45.5000 327.0000 1.0000
45.5100 323.0000 1.0000
45.5200 318.0000 1.0000
45.5300 321.0000 1.0000
45.5400 306.0000 1.0000
45.5500 334.0000 1.0000
45.5600 303.0000 1.0000
45.5700 324.0000 1.0000
45.5800 335.0000 1.0000
45.5900 345.0000 1.0000
45.6000 331.0000 1.0000
45.6100 320.0000 1.0000
45.6200 320.0000 1.0000
45.6300 346.0000 1.0000
45.6400 297.0000 1.0000
45.6500 325.0000 1.0000
45.6600 322.0000 1.0000
45.6700 333.0000 1.0000
45.6800 317.0000 1.0000
45.6900 311.0000 1.0000
45.7000 326.0000 1.0000
45.7100 329.0000 1.0000
45.7200 312.0000 1.0000
45.7300 331.0000 1.0000
45.7400 313.0000 1.0000
45.7500 352.0000 1.0000
45.7600 312.0000 1.0000
45.7700 315.0000 1.0000
45.7800 312.0000 1.0000
45.7900 299.0000 1.0000
45.8000 356.0000 1.0000
45.8100 337.0000 1.0000
45.8200 345.0000 1.0000
45.8300 329.0000 1.0000
45.8400 323.0000 1.0000
45.8500 337.0000 1.0000
45.8600 302.0000 1.0000
45.8700 290.0000 1.0000
45.8800 331.0000 1.0000
45.8900 333.0000 1.0000
45.9000 341.0000 1.0000
45.9100 318.0000 1.0000
45.9200 295.0000 1.0000
45.9300 362.0000 1.0000
45.9400 334.0000 1.0000
45.9500 336.0000 1.0000
45.9600 320.0000 1.0000
45.9700 304.0000 1.0000
45.9800 321.0000 1.0000
45.9900 295.0000 1.0000
46.0000 336.0000 1.0000
46.0100 314.0000 1.0000
46.0200 308.0000 1.0000
46.0300 301.0000 1.0000
46.0400 330.0000 1.0000
46.0500 335.0000 1.0000
46.0600 317.0000 1.0000
46.0700 291.0000 1.0000
46.0800 339.0000 1.0000
46.0900 340.0000 1.0000
46.1000 332.0000 1.0000
46.1100 342.0000 1.0000
46.1200 330.0000 1.0000
46.1300 360.0000 1.0000
46.1400 334.0000 1.0000
46.1500 312.0000 1.0000
46.1600 327.0000 1.0000
46.1700 327.0000 1.0000
46.1800 348.0000 1.0000
46.1900 348.0000 1.0000
46.2000 324.0000 1.0000
46.2100 314.0000 1.0000
46.2200 300.0000 1.0000
46.2300 348.0000 1.0000
46.2400 337.0000 1.0000
46.2500 359.0000 1.0000
46.2600 332.0000 1.0000
46.2700 344.0000 1.0000
46.2800 330.0000 1.0000
46.2900 278.0000 1.0000
46.3000 337.0000 1.0000
46.3100 341.0000 1.0000
46.3200 308.0000 1.0000
46.3300 333.0000 1.0000
46.3400 334.0000 1.0000
46.3500 314.0000 1.0000
46.3600 320.0000 1.0000
46.3700 311.0000 1.0000
46.3800 303.0000 1.0000
46.3900 292.0000 1.0000
46.4000 309.0000 1.0000
46.4100 314.0000 1.0000
46.4200 319.0000 1.0000
46.4300 300.0000 1.0000
46.4400 312.0000 1.0000
46.4500 296.0000 1.0000
46.4600 328.0000 1.0000
46.4700 352.0000 1.0000
46.4800 327.0000 1.0000
46.4900 302.0000 1.0000
46.5000 287.0000 1.0000
46.5100 352.0000 1.0000
46.5200 309.0000 1.0000
46.5300 293.0000 1.0000
46.5400 322.0000 1.0000
46.5500 326.0000 1.0000
46.5600 328.0000 1.0000
46.5700 313.0000 1.0000
46.5800 301.0000 1.0000
46.5900 308.0000 1.0000
46.6000 297.0000 1.0000
46.6100 326.0000 1.0000
46.6200 312.0000 1.0000
46.6300 300.0000 1.0000
46.6400 298.0000 1.0000
46.6500 336.0000 1.0000
46.6600 319.0000 1.0000
46.6700 314.0000 1.0000
46.6800 316.0000 1.0000
46.6900 320.0000 1.0000
46.7000 304.0000 1.0000
46.7100 275.0000 1.0000
46.7200 307.0000 1.0000
46.7300 327.0000 1.0000
46.7400 331.0000 1.0000
46.7500 314.0000 1.0000
46.7600 323.0000 1.0000
46.7700 321.0000 1.0000
46.7800 321.0000 1.0000
46.7900 308.0000 1.0000
46.8000 329.0000 1.0000
46.8100 326.0000 1.0000
46.8200 306.0000 1.0000
46.8300 288.0000 1.0000
46.8400 295.0000 1.0000
46.8500 310.0000 1.0000
46.8600 315.0000 1.0000
46.8700 315.0000 1.0000
46.8800 285.0000 1.0000
46.8900 317.0000 1.0000
46.9000 305.0000 1.0000
46.9100 334.0000 1.0000
46.9200 312.0000 1.0000
46.9300 297.0000 1.0000
46.9400 324.0000 1.0000
46.9500 345.0000 1.0000
46.9600 309.0000 1.0000
46.9700 321.0000 1.0000
46.9800 324.0000 1.0000
46.9900 308.0000 1.0000
47.0000 344.0000 1.0000
47.0100 302.0000 1.0000
47.0200 335.0000 1.0000
47.0300 313.0000 1.0000
47.0400 313.0000 1.0000
47.0500 301.0000 1.0000
47.0600 316.0000 1.0000
47.0700 316.0000 1.0000
47.0800 304.0000 1.0000
47.0900 299.0000 1.0000
47.1000 300.0000 1.0000
47.1100 307.0000 1.0000
47.1200 310.0000 1.0000
47.1300 329.0000 1.0000
47.1400 340.0000 1.0000
47.1500 337.0000 1.0000
47.1600 309.0000 1.0000
47.1700 295.0000 1.0000
47.1800 321.0000 1.0000
47.1900 318.0000 1.0000
47.2000 303.0000 1.0000
47.2100 312.0000 1.0000
47.2200 330.0000 1.0000
47.2300 313.0000 1.0000
47.2400 279.0000 1.0000
47.2500 308.0000 1.0000
47.2600 318.0000 1.0000
47.2700 357.0000 1.0000
47.2800 311.0000 1.0000
47.2900 301.0000 1.0000
47.3000 297.0000 1.0000
47.3100 296.0000 1.0000
47.3200 305.0000 1.0000
47.3300 302.0000 1.0000
47.3400 296.0000 1.0000
47.3500 279.0000 1.0000
47.3600 306.0000 1.0000
47.3700 319.0000 1.0000
47.3800 312.0000 1.0000
47.3900 304.0000 1.0000
47.4000 319.0000 1.0000
47.4100 312.0000 1.0000
47.4200 297.0000 1.0000
47.4300 300.0000 1.0000
47.4400 296.0000 1.0000
47.4500 299.0000 1.0000
47.4600 313.0000 1.0000
47.4700 311.0000 1.0000
47.4800 302.0000 1.0000
47.4900 301.0000 1.0000
47.5000 304.0000 1.0000
47.5100 301.0000 1.0000
47.5200 292.0000 1.0000
47.5300 287.0000 1.0000
47.5400 283.0000 1.0000
47.5500 318.0000 1.0000
47.5600 301.0000 1.0000
47.5700 320.0000 1.0000
47.5800 322.0000 1.0000
47.5900 328.0000 1.0000
47.6000 326.0000 1.0000
47.6100 310.0000 1.0000
47.6200 306.0000 1.0000
47.6300 296.0000 1.0000
47.6400 298.0000 1.0000
47.6500 311.0000 1.0000
47.6600 304.0000 1.0000
47.6700 282.0000 1.0000
47.6800 300.0000 1.0000
47.6900 323.0000 1.0000
47.7000 315.0000 1.0000
47.7100 331.0000 1.0000
47.7200 315.0000 1.0000
47.7300 314.0000 1.0000
47.7400 329.0000 1.0000
47.7500 345.0000 1.0000
47.7600 297.0000 1.0000
47.7700 300.0000 1.0000
47.7800 319.0000 1.0000
47.7900 295.0000 1.0000
47.8000 311.0000 1.0000
47.8100 309.0000 1.0000
47.8200 293.0000 1.0000
47.8300 292.0000 1.0000
47.8400 311.0000 1.0000
47.8500 264.0000 1.0000
47.8600 304.0000 1.0000
47.8700 296.0000 1.0000
47.8800 292.0000 1.0000
47.8900 281.0000 1.0000
47.9000 326.0000 1.0000
47.9100 294.0000 1.0000
47.9200 315.0000 1.0000
47.9300 299.0000 1.0000
47.9400 304.0000 1.0000
47.9500 297.0000 1.0000
47.9600 303.0000 1.0000
47.9700 294.0000 1.0000
47.9800 318.0000 1.0000
47.9900 297.0000 1.0000
48.0000 301.0000 1.0000
48.0100 312.0000 1.0000
48.0200 331.0000 1.0000
48.0300 327.0000 1.0000
48.0400 326.0000 1.0000
48.0500 293.0000 1.0000
48.0600 285.0000 1.0000
48.0700 289.0000 1.0000
48.0800 301.0000 1.0000
48.0900 311.0000 1.0000
48.1000 280.0000 1.0000
48.1100 315.0000 1.0000
48.1200 297.0000 1.0000
48.1300 281.0000 1.0000
48.1400 330.0000 1.0000
48.1500 277.0000 1.0000
48.1600 300.0000 1.0000
48.1700 308.0000 1.0000
48.1800 301.0000 1.0000
48.1900 322.0000 1.0000
48.2000 317.0000 1.0000
48.2100 331.0000 1.0000
48.2200 341.0000 1.0000
48.2300 290.0000 1.0000
48.2400 303.0000 1.0000
48.2500 325.0000 1.0000
48.2600 322.0000 1.0000
48.2700 283.0000 1.0000
48.2800 319.0000 1.0000
48.2900 311.0000 1.0000
48.3000 322.0000 1.0000
48.3100 305.0000 1.0000
48.3200 329.0000 1.0000
48.3300 292.0000 1.0000
48.3400 293.0000 1.0000
48.3500 308.0000 1.0000
48.3600 301.0000 1.0000
48.3700 304.0000 1.0000
48.3800 291.0000 1.0000
48.3900 283.0000 1.0000
48.4000 275.0000 1.0000
48.4100 291.0000 1.0000
48.4200 302.0000 1.0000
48.4300 326.0000 1.0000
48.4400 314.0000 1.0000
48.4500 295.0000 1.0000
48.4600 288.0000 1.0000
48.4700 268.0000 1.0000
48.4800 290.0000 1.0000
48.4900 300.0000 1.0000
48.5000 281.0000 1.0000
48.5100 319.0000 1.0000
48.5200 304.0000 1.0000
48.5300 272.0000 1.0000
48.5400 288.0000 1.0000
48.5500 300.0000 1.0000
48.5600 282.0000 1.0000
48.5700 302.0000 1.0000
48.5800 304.0000 1.0000
48.5900 281.0000 1.0000
48.6000 286.0000 1.0000
48.6100 313.0000 1.0000
48.6200 310.0000 1.0000
48.6300 306.0000 1.0000
48.6400 321.0000 1.0000
48.6500 307.0000 1.0000
48.6600 314.0000 1.0000
48.6700 292.0000 1.0000
48.6800 297.0000 1.0000
48.6900 289.0000 1.0000
48.7000 309.0000 1.0000
48.7100 293.0000 1.0000
48.7200 294.0000 1.0000
48.7300 314.0000 1.0000
48.7400 309.0000 1.0000
48.7500 305.0000 1.0000
48.7600 285.0000 1.0000
48.7700 278.0000 1.0000
48.7800 292.0000 1.0000
48.7900 308.0000 1.0000
48.8000 310.0000 1.0000
48.8100 305.0000 1.0000
48.8200 273.0000 1.0000
48.8300 305.0000 1.0000
48.8400 295.0000 1.0000
48.8500 276.0000 1.0000
48.8600 286.0000 1.0000
48.8700 310.0000 1.0000
48.8800 306.0000 1.0000
48.8900 306.0000 1.0000
48.9000 328.0000 1.0000
48.9100 301.0000 1.0000
48.9200 281.0000 1.0000
48.9300 324.0000 1.0000
48.9400 307.0000 1.0000
48.9500 318.0000 1.0000
48.9600 280.0000 1.0000
48.9700 306.0000 1.0000
48.9800 330.0000 1.0000
48.9900 309.0000 1.0000
49.0000 274.0000 1.0000
49.0100 309.0000 1.0000
49.0200 313.0000 1.0000
49.0300 306.0000 1.0000
49.0400 310.0000 1.0000
49.0500 311.0000 1.0000
49.0600 304.0000 1.0000
49.0700 322.0000 1.0000
49.0800 298.0000 1.0000
49.0900 266.0000 1.0000
49.1000 266.0000 1.0000
49.1100 306.0000 1.0000
49.1200 308.0000 1.0000
49.1300 314.0000 1.0000
49.1400 303.0000 1.0000
49.1500 315.0000 1.0000
49.1600 298.0000 1.0000
49.1700 273.0000 1.0000
49.1800 297.0000 1.0000
49.1900 312.0000 1.0000
49.2000 304.0000 1.0000
49.2100 288.0000 1.0000
49.2200 283.0000 1.0000
49.2300 292.0000 1.0000
49.2400 301.0000 1.0000
49.2500 299.0000 1.0000
49.2600 306.0000 1.0000
49.2700 300.0000 1.0000
49.2800 315.0000 1.0000
49.2900 324.0000 1.0000
49.3000 336.0000 1.0000
49.3100 349.0000 1.0000
49.3200 312.0000 1.0000
49.3300 338.0000 1.0000
49.3400 335.0000 1.0000
49.3500 349.0000 1.0000
49.3600 340.0000 1.0000
49.3700 309.0000 1.0000
49.3800 335.0000 1.0000
49.3900 310.0000 1.0000
49.4000 331.0000 1.0000
49.4100 350.0000 1.0000
49.4200 328.0000 1.0000
49.4300 329.0000 1.0000
49.4400 315.0000 1.0000
49.4500 339.0000 1.0000
49.4600 350.0000 1.0000
49.4700 326.0000 1.0000
49.4800 322.0000 1.0000
49.4900 331.0000 1.0000
49.5000 326.0000 1.0000
49.5100 323.0000 1.0000
49.5200 322.0000 1.0000
49.5300 320.0000 1.0000
49.5400 335.0000 1.0000
49.5500 311.0000 1.0000
49.5600 315.0000 1.0000
49.5700 310.0000 1.0000
49.5800 296.0000 1.0000
49.5900 303.0000 1.0000
49.6000 319.0000 1.0000
49.6100 309.0000 1.0000
49.6200 327.0000 1.0000
49.6300 331.0000 1.0000
49.6400 314.0000 1.0000
49.6500 309.0000 1.0000
49.6600 328.0000 1.0000
49.6700 323.0000 1.0000
49.6800 319.0000 1.0000
49.6900 299.0000 1.0000
49.7000 351.0000 1.0000
49.7100 312.0000 1.0000
49.7200 300.0000 1.0000
49.7300 304.0000 1.0000
49.7400 309.0000 1.0000
49.7500 308.0000 1.0000
49.7600 296.0000 1.0000
49.7700 312.0000 1.0000
49.7800 333.0000 1.0000
49.7900 337.0000 1.0000
49.8000 323.0000 1.0000
49.8100 316.0000 1.0000
49.8200 306.0000 1.0000
49.8300 299.0000 1.0000
49.8400 320.0000 1.0000
49.8500 322.0000 1.0000
49.8600 311.0000 1.0000
49.8700 335.0000 1.0000
49.8800 299.0000 1.0000
49.8900 297.0000 1.0000
49.9000 327.0000 1.0000
49.9100 288.0000 1.0000
49.9200 308.0000 1.0000
49.9300 310.0000 1.0000
49.9400 290.0000 1.0000
49.9500 312.0000 1.0000
49.9600 348.0000 1.0000
49.9700 292.0000 1.0000
49.9800 297.0000 1.0000
49.9900 299.0000 1.0000
50.0000 290.0000 1.0000
50.0100 280.0000 1.0000
50.0200 298.0000 1.0000
50.0300 285.0000 1.0000
50.0400 307.0000 1.0000
50.0500 319.0000 1.0000
50.0600 322.0000 1.0000
50.0700 286.0000 1.0000
50.0800 292.0000 1.0000
50.0900 312.0000 1.0000
50.1000 322.0000 1.0000
50.1100 322.0000 1.0000
50.1200 299.0000 1.0000
50.1300 309.0000 1.0000
50.1400 307.0000 1.0000
50.1500 298.0000 1.0000
50.1600 328.0000 1.0000
50.1700 311.0000 1.0000
50.1800 309.0000 1.0000
50.1900 290.0000 1.0000
50.2000 294.0000 1.0000
50.2100 296.0000 1.0000
50.2200 310.0000 1.0000
50.2300 322.0000 1.0000
50.2400 310.0000 1.0000
50.2500 280.0000 1.0000
50.2600 303.0000 1.0000
50.2700 299.0000 1.0000
50.2800 292.0000 1.0000
50.2900 305.0000 1.0000
50.3000 295.0000 1.0000
50.3100 306.0000 1.0000
50.3200 316.0000 1.0000
50.3300 310.0000 1.0000
50.3400 295.0000 1.0000
50.3500 317.0000 1.0000
50.3600 318.0000 1.0000
50.3700 324.0000 1.0000
50.3800 326.0000 1.0000
50.3900 316.0000 1.0000
50.4000 310.0000 1.0000
50.4100 315.0000 1.0000
50.4200 315.0000 1.0000
50.4300 262.0000 1.0000
50.4400 310.0000 1.0000
50.4500 303.0000 1.0000
50.4600 299.0000 1.0000
50.4700 291.0000 1.0000
50.4800 283.0000 1.0000
50.4900 283.0000 1.0000
50.5000 319.0000 1.0000
50.5100 305.0000 1.0000
50.5200 317.0000 1.0000
50.5300 326.0000 1.0000
50.5400 301.0000 1.0000
50.5500 315.0000 1.0000
50.5600 310.0000 1.0000
50.5700 305.0000 1.0000
50.5800 276.0000 1.0000
50.5900 326.0000 1.0000
50.6000 317.0000 1.0000
50.6100 331.0000 1.0000
50.6200 296.0000 1.0000
50.6300 313.0000 1.0000
50.6400 301.0000 1.0000
50.6500 311.0000 1.0000
50.6600 290.0000 1.0000
50.6700 303.0000 1.0000
50.6800 304.0000 1.0000
50.6900 286.0000 1.0000
50.7000 324.0000 1.0000
50.7100 328.0000 1.0000
50.7200 309.0000 1.0000
50.7300 337.0000 1.0000
50.7400 316.0000 1.0000
50.7500 293.0000 1.0000
50.7600 323.0000 1.0000
50.7700 328.0000 1.0000
50.7800 301.0000 1.0000
50.7900 313.0000 1.0000
50.8000 316.0000 1.0000
50.8100 327.0000 1.0000
50.8200 310.0000 1.0000
50.8300 305.0000 1.0000
50.8400 316.0000 1.0000
50.8500 322.0000 1.0000
50.8600 325.0000 1.0000
50.8700 307.0000 1.0000
50.8800 332.0000 1.0000
50.8900 331.0000 1.0000
50.9000 297.0000 1.0000
50.9100 306.0000 1.0000
50.9200 297.0000 1.0000
50.9300 341.0000 1.0000
50.9400 337.0000 1.0000
50.9500 334.0000 1.0000
50.9600 339.0000 1.0000
50.9700 326.0000 1.0000
50.9800 352.0000 1.0000
50.9900 342.0000 1.0000
51.0000 315.0000 1.0000
51.0100 329.0000 1.0000
51.0200 340.0000 1.0000
51.0300 314.0000 1.0000
51.0400 364.0000 1.0000
51.0500 363.0000 1.0000
51.0600 374.0000 1.0000
51.0700 350.0000 1.0000
51.0800 360.0000 1.0000
51.0900 345.0000 1.0000
51.1000 366.0000 1.0000
51.1100 340.0000 1.0000
51.1200 365.0000 1.0000
51.1300 369.0000 1.0000
51.1400 369.0000 1.0000
51.1500 396.0000 1.0000
51.1600 434.0000 1.0000
51.1700 441.0000 1.0000
51.1800 390.0000 1.0000
51.1900 448.0000 1.0000
51.2000 458.0000 1.0000
51.2100 504.0000 1.0000
51.2200 509.0000 1.0000
51.2300 508.0000 1.0000
51.2400 509.0000 1.0000
51.2500 542.0000 1.0000
51.2600 532.0000 1.0000
51.2700 561.0000 1.0000
51.2800 598.0000 1.0000
51.2900 601.0000 1.0000
51.3000 618.0000 1.0000
51.3100 684.0000 1.0000
51.3200 781.0000 1.0000
51.3300 807.0000 1.0000
51.3400 866.0000 1.0000
51.3500 916.0000 1.0000
51.3600 942.0000 1.0000
51.3700 1024.0000 1.0000
51.3800 1110.0000 1.0000
51.3900 1217.0000 1.0000
51.4000 1338.0000 1.0000
51.4100 1357.0000 1.0000
51.4200 1468.0000 1.0000
51.4300 1627.0000 1.0000
51.4400 1809.0000 1.0000
51.4500 1831.0000 1.0000
51.4600 1916.0000 1.0000
51.4700 1983.0000 1.0000
51.4800 1978.0000 1.0000
51.4900 1979.0000 1.0000
51.5000 1956.0000 1.0000
51.5100 1985.0000 1.0000
51.5200 1977.0000 1.0000
51.5300 1914.0000 1.0000
51.5400 1867.0000 1.0000
51.5500 1801.0000 1.0000
51.5600 1739.0000 1.0000
51.5700 1637.0000 1.0000
51.5800 1607.0000 1.0000
51.5900 1555.0000 1.0000
51.6000 1516.0000 1.0000
51.6100 1489.0000 1.0000
51.6200 1467.0000 1.0000
51.6300 1386.0000 1.0000
51.6400 1374.0000 1.0000
51.6500 1255.0000 1.0000
51.6600 1228.0000 1.0000
51.6700 1102.0000 1.0000
51.6800 1142.0000 1.0000
51.6900 1031.0000 1.0000
51.7000 947.0000 1.0000
51.7100 879.0000 1.0000
51.7200 791.0000 1.0000
51.7300 728.0000 1.0000
51.7400 715.0000 1.0000
51.7500 682.0000 1.0000
51.7600 653.0000 1.0000
51.7700 630.0000 1.0000
51.7800 530.0000 1.0000
51.7900 539.0000 1.0000
51.8000 546.0000 1.0000
51.8100 508.0000 1.0000
51.8200 495.0000 1.0000
51.8300 489.0000 1.0000
51.8400 476.0000 1.0000
51.8500 448.0000 1.0000
51.8600 458.0000 1.0000
51.8700 416.0000 1.0000
51.8800 414.0000 1.0000
51.8900 427.0000 1.0000
51.9000 385.0000 1.0000
51.9100 403.0000 1.0000
51.9200 369.0000 1.0000
51.9300 373.0000 1.0000
51.9400 413.0000 1.0000
51.9500 381.0000 1.0000
51.9600 354.0000 1.0000
51.9700 375.0000 1.0000
51.9800 367.0000 1.0000
51.9900 355.0000 1.0000
52.0000 358.0000 1.0000
52.0100 381.0000 1.0000
52.0200 376.0000 1.0000
52.0300 338.0000 1.0000
52.0400 327.0000 1.0000
52.0500 293.0000 1.0000
52.0600 346.0000 1.0000
52.0700 330.0000 1.0000
52.0800 360.0000 1.0000
52.0900 348.0000 1.0000
52.1000 345.0000 1.0000
52.1100 330.0000 1.0000
52.1200 321.0000 1.0000
52.1300 313.0000 1.0000
52.1400 328.0000 1.0000
52.1500 342.0000 1.0000
52.1600 345.0000 1.0000
52.1700 307.0000 1.0000
52.1800 333.0000 1.0000
52.1900 321.0000 1.0000
52.2000 328.0000 1.0000
52.2100 317.0000 1.0000
52.2200 299.0000 1.0000
52.2300 342.0000 1.0000
52.2400 349.0000 1.0000
52.2500 320.0000 1.0000
52.2600 305.0000 1.0000
52.2700 316.0000 1.0000
52.2800 328.0000 1.0000
52.2900 328.0000 1.0000
52.3000 335.0000 1.0000
52.3100 294.0000 1.0000
52.3200 323.0000 1.0000
52.3300 319.0000 1.0000
52.3400 315.0000 1.0000
52.3500 294.0000 1.0000
52.3600 308.0000 1.0000
52.3700 311.0000 1.0000
52.3800 298.0000 1.0000
52.3900 302.0000 1.0000
52.4000 320.0000 1.0000
52.4100 305.0000 1.0000
52.4200 317.0000 1.0000
52.4300 300.0000 1.0000
52.4400 335.0000 1.0000
52.4500 302.0000 1.0000
52.4600 290.0000 1.0000
52.4700 278.0000 1.0000
52.4800 294.0000 1.0000
52.4900 292.0000 1.0000
52.5000 289.0000 1.0000
52.5100 339.0000 1.0000
52.5200 285.0000 1.0000
52.5300 284.0000 1.0000
52.5400 303.0000 1.0000
52.5500 267.0000 1.0000
52.5600 302.0000 1.0000
52.5700 295.0000 1.0000
52.5800 312.0000 1.0000
52.5900 339.0000 1.0000
52.6000 311.0000 1.0000
52.6100 311.0000 1.0000
52.6200 318.0000 1.0000
52.6300 274.0000 1.0000
52.6400 310.0000 1.0000
52.6500 303.0000 1.0000
52.6600 292.0000 1.0000
52.6700 295.0000 1.0000
52.6800 303.0000 1.0000
52.6900 321.0000 1.0000
52.7000 303.0000 1.0000
52.7100 274.0000 1.0000
52.7200 294.0000 1.0000
52.7300 333.0000 1.0000
52.7400 323.0000 1.0000
52.7500 319.0000 1.0000
52.7600 290.0000 1.0000
52.7700 321.0000 1.0000
52.7800 321.0000 1.0000
52.7900 322.0000 1.0000
52.8000 277.0000 1.0000
52.8100 308.0000 1.0000
52.8200 286.0000 1.0000
52.8300 279.0000 1.0000
52.8400 302.0000 1.0000
52.8500 316.0000 1.0000
52.8600 300.0000 1.0000
52.8700 283.0000 1.0000
52.8800 274.0000 1.0000
52.8900 274.0000 1.0000
52.9000 301.0000 1.0000
52.9100 280.0000 1.0000
52.9200 279.0000 1.0000
52.9300 297.0000 1.0000
52.9400 280.0000 1.0000
52.9500 290.0000 1.0000
52.9600 289.0000 1.0000
52.9700 296.0000 1.0000
52.9800 296.0000 1.0000
52.9900 288.0000 1.0000
53.0000 299.0000 1.0000
53.0100 297.0000 1.0000
53.0200 287.0000 1.0000
53.0300 298.0000 1.0000
53.0400 297.0000 1.0000
53.0500 297.0000 1.0000
53.0600 303.0000 1.0000
53.0700 297.0000 1.0000
53.0800 304.0000 1.0000
53.0900 309.0000 1.0000
53.1000 291.0000 1.0000
53.1100 275.0000 1.0000
53.1200 276.0000 1.0000
53.1300 285.0000 1.0000
53.1400 271.0000 1.0000
53.1500 328.0000 1.0000
53.1600 307.0000 1.0000
53.1700 306.0000 1.0000
53.1800 295.0000 1.0000
53.1900 303.0000 1.0000
53.2000 274.0000 1.0000
53.2100 272.0000 1.0000
53.2200 305.0000 1.0000
53.2300 326.0000 1.0000
53.2400 277.0000 1.0000
53.2500 305.0000 1.0000
53.2600 291.0000 1.0000
53.2700 295.0000 1.0000
53.2800 283.0000 1.0000
53.2900 288.0000 1.0000
53.3000 293.0000 1.0000
53.3100 288.0000 1.0000
53.3200 285.0000 1.0000
53.3300 286.0000 1.0000
53.3400 289.0000 1.0000
53.3500 282.0000 1.0000
53.3600 294.0000 1.0000
53.3700 306.0000 1.0000
53.3800 281.0000 1.0000
53.3900 291.0000 1.0000
53.4000 292.0000 1.0000
53.4100 277.0000 1.0000
53.4200 273.0000 1.0000
53.4300 283.0000 1.0000
53.4400 306.0000 1.0000
53.4500 306.0000 1.0000
53.4600 303.0000 1.0000
53.4700 305.0000 1.0000
53.4800 300.0000 1.0000
53.4900 290.0000 1.0000
53.5000 302.0000 1.0000
53.5100 314.0000 1.0000
53.5200 315.0000 1.0000
53.5300 307.0000 1.0000
53.5400 287.0000 1.0000
53.5500 280.0000 1.0000
53.5600 295.0000 1.0000
53.5700 311.0000 1.0000
53.5800 302.0000 1.0000
53.5900 304.0000 1.0000
53.6000 282.0000 1.0000
53.6100 297.0000 1.0000
53.6200 273.0000 1.0000
53.6300 300.0000 1.0000
53.6400 332.0000 1.0000
53.6500 309.0000 1.0000
53.6600 296.0000 1.0000
53.6700 300.0000 1.0000
53.6800 297.0000 1.0000
53.6900 286.0000 1.0000
53.7000 305.0000 1.0000
53.7100 299.0000 1.0000
53.7200 303.0000 1.0000
53.7300 312.0000 1.0000
53.7400 284.0000 1.0000
53.7500 287.0000 1.0000
53.7600 316.0000 1.0000
53.7700 327.0000 1.0000
53.7800 309.0000 1.0000
53.7900 299.0000 1.0000
53.8000 314.0000 1.0000
53.8100 319.0000 1.0000
53.8200 305.0000 1.0000
53.8300 306.0000 1.0000
53.8400 312.0000 1.0000
53.8500 282.0000 1.0000
53.8600 297.0000 1.0000
53.8700 305.0000 1.0000
53.8800 331.0000 1.0000
53.8900 327.0000 1.0000
53.9000 294.0000 1.0000
53.9100 321.0000 1.0000
53.9200 289.0000 1.0000
53.9300 317.0000 1.0000
53.9400 328.0000 1.0000
53.9500 328.0000 1.0000
53.9600 310.0000 1.0000
53.9700 342.0000 1.0000
53.9800 310.0000 1.0000
53.9900 323.0000 1.0000
54.0000 329.0000 1.0000
54.0100 333.0000 1.0000
54.0200 331.0000 1.0000
54.0300 340.0000 1.0000
54.0400 325.0000 1.0000
54.0500 332.0000 1.0000
54.0600 322.0000 1.0000
54.0700 347.0000 1.0000
54.0800 325.0000 1.0000
54.0900 343.0000 1.0000
54.1000 317.0000 1.0000
54.1100 311.0000 1.0000
54.1200 352.0000 1.0000
54.1300 333.0000 1.0000
54.1400 318.0000 1.0000
54.1500 321.0000 1.0000
54.1600 348.0000 1.0000
54.1700 357.0000 1.0000
54.1800 322.0000 1.0000
54.1900 336.0000 1.0000
54.2000 330.0000 1.0000
54.2100 354.0000 1.0000
54.2200 311.0000 1.0000
54.2300 336.0000 1.0000
54.2400 291.0000 1.0000
54.2500 330.0000 1.0000
54.2600 308.0000 1.0000
54.2700 335.0000 1.0000
54.2800 338.0000 1.0000
54.2900 326.0000 1.0000
54.3000 324.0000 1.0000
54.3100 321.0000 1.0000
54.3200 320.0000 1.0000
54.3300 319.0000 1.0000
54.3400 342.0000 1.0000
54.3500 357.0000 1.0000
54.3600 339.0000 1.0000
54.3700 355.0000 1.0000
54.3800 382.0000 1.0000
54.3900 379.0000 1.0000
54.4000 329.0000 1.0000
54.4100 341.0000 1.0000
54.4200 387.0000 1.0000
54.4300 397.0000 1.0000
54.4400 423.0000 1.0000
54.4500 416.0000 1.0000
54.4600 416.0000 1.0000
54.4700 442.0000 1.0000
54.4800 420.0000 1.0000
54.4900 398.0000 1.0000
54.5000 421.0000 1.0000
54.5100 438.0000 1.0000
54.5200 412.0000 1.0000
54.5300 440.0000 1.0000
54.5400 444.0000 1.0000
54.5500 448.0000 1.0000
54.5600 393.0000 1.0000
54.5700 416.0000 1.0000
54.5800 421.0000 1.0000
54.5900 394.0000 1.0000
54.6000 399.0000 1.0000
54.6100 392.0000 1.0000
54.6200 390.0000 1.0000
54.6300 426.0000 1.0000
54.6400 423.0000 1.0000
54.6500 399.0000 1.0000
54.6600 364.0000 1.0000
54.6700 398.0000 1.0000
54.6800 398.0000 1.0000
54.6900 401.0000 1.0000
54.7000 402.0000 1.0000
54.7100 353.0000 1.0000
54.7200 362.0000 1.0000
54.7300 352.0000 1.0000
54.7400 374.0000 1.0000
54.7500 350.0000 1.0000
54.7600 347.0000 1.0000
54.7700 353.0000 1.0000
54.7800 366.0000 1.0000
54.7900 341.0000 1.0000
54.8000 349.0000 1.0000
54.8100 341.0000 1.0000
54.8200 327.0000 1.0000
54.8300 326.0000 1.0000
54.8400 317.0000 1.0000
54.8500 312.0000 1.0000
54.8600 313.0000 1.0000
54.8700 307.0000 1.0000
54.8800 298.0000 1.0000
54.8900 292.0000 1.0000
54.9000 302.0000 1.0000
54.9100 279.0000 1.0000
54.9200 306.0000 1.0000
54.9300 315.0000 1.0000
54.9400 274.0000 1.0000
54.9500 291.0000 1.0000
54.9600 282.0000 1.0000
54.9700 291.0000 1.0000
54.9800 307.0000 1.0000
54.9900 287.0000 1.0000
55.0000 313.0000 1.0000
55.0100 332.0000 1.0000
55.0200 302.0000 1.0000
55.0300 320.0000 1.0000
55.0400 308.0000 1.0000
55.0500 279.0000 1.0000
55.0600 292.0000 1.0000
55.0700 310.0000 1.0000
55.0800 274.0000 1.0000
55.0900 275.0000 1.0000
55.1000 291.0000 1.0000
55.1100 298.0000 1.0000
55.1200 287.0000 1.0000
55.1300 293.0000 1.0000
55.1400 281.0000 1.0000
55.1500 287.0000 1.0000
55.1600 304.0000 1.0000
55.1700 285.0000 1.0000
55.1800 276.0000 1.0000
55.1900 299.0000 1.0000
55.2000 305.0000 1.0000
55.2100 297.0000 1.0000
55.2200 270.0000 1.0000
55.2300 281.0000 1.0000
55.2400 273.0000 1.0000
55.2500 314.0000 1.0000
55.2600 294.0000 1.0000
55.2700 290.0000 1.0000
55.2800 300.0000 1.0000
55.2900 289.0000 1.0000
55.3000 294.0000 1.0000
55.3100 299.0000 1.0000
55.3200 289.0000 1.0000
55.3300 289.0000 1.0000
55.3400 281.0000 1.0000
55.3500 284.0000 1.0000
55.3600 299.0000 1.0000
55.3700 316.0000 1.0000
55.3800 255.0000 1.0000
55.3900 284.0000 1.0000
55.4000 292.0000 1.0000
55.4100 289.0000 1.0000
55.4200 279.0000 1.0000
55.4300 314.0000 1.0000
55.4400 306.0000 1.0000
55.4500 268.0000 1.0000
55.4600 288.0000 1.0000
55.4700 290.0000 1.0000
55.4800 312.0000 1.0000
55.4900 296.0000 1.0000
55.5000 288.0000 1.0000
55.5100 263.0000 1.0000
55.5200 273.0000 1.0000
55.5300 266.0000 1.0000
55.5400 289.0000 1.0000
55.5500 289.0000 1.0000
55.5600 287.0000 1.0000
55.5700 277.0000 1.0000
55.5800 274.0000 1.0000
55.5900 265.0000 1.0000
55.6000 254.0000 1.0000
55.6100 259.0000 1.0000
55.6200 296.0000 1.0000
55.6300 252.0000 1.0000
55.6400 285.0000 1.0000
55.6500 293.0000 1.0000
55.6600 285.0000 1.0000
55.6700 269.0000 1.0000
55.6800 268.0000 1.0000
55.6900 291.0000 1.0000
55.7000 258.0000 1.0000
55.7100 252.0000 1.0000
55.7200 283.0000 1.0000
55.7300 284.0000 1.0000
55.7400 283.0000 1.0000
55.7500 273.0000 1.0000
55.7600 277.0000 1.0000
55.7700 277.0000 1.0000
55.7800 305.0000 1.0000
55.7900 286.0000 1.0000
55.8000 267.0000 1.0000
55.8100 283.0000 1.0000
55.8200 284.0000 1.0000
55.8300 288.0000 1.0000
55.8400 269.0000 1.0000
55.8500 258.0000 1.0000
55.8600 277.0000 1.0000
55.8700 279.0000 1.0000
55.8800 264.0000 1.0000
55.8900 300.0000 1.0000
55.9000 287.0000 1.0000
55.9100 277.0000 1.0000
55.9200 254.0000 1.0000
55.9300 269.0000 1.0000
55.9400 267.0000 1.0000
55.9500 294.0000 1.0000
55.9600 282.0000 1.0000
55.9700 272.0000 1.0000
55.9800 303.0000 1.0000
55.9900 309.0000 1.0000
56.0000 285.0000 1.0000
56.0100 268.0000 1.0000
56.0200 311.0000 1.0000
56.0300 278.0000 1.0000
56.0400 292.0000 1.0000
56.0500 270.0000 1.0000
56.0600 278.0000 1.0000
56.0700 278.0000 1.0000
56.0800 277.0000 1.0000
56.0900 260.0000 1.0000
56.1000 275.0000 1.0000
56.1100 304.0000 1.0000
56.1200 296.0000 1.0000
56.1300 261.0000 1.0000
56.1400 296.0000 1.0000
56.1500 294.0000 1.0000
56.1600 273.0000 1.0000
56.1700 262.0000 1.0000
56.1800 286.0000 1.0000
56.1900 297.0000 1.0000
56.2000 278.0000 1.0000
56.2100 280.0000 1.0000
56.2200 317.0000 1.0000
56.2300 282.0000 1.0000
56.2400 285.0000 1.0000
56.2500 272.0000 1.0000
56.2600 288.0000 1.0000
56.2700 278.0000 1.0000
56.2800 272.0000 1.0000
56.2900 277.0000 1.0000
56.3000 277.0000 1.0000
56.3100 277.0000 1.0000
56.3200 260.0000 1.0000
56.3300 309.0000 1.0000
56.3400 284.0000 1.0000
56.3500 293.0000 1.0000
56.3600 278.0000 1.0000
56.3700 273.0000 1.0000
56.3800 270.0000 1.0000
56.3900 285.0000 1.0000
56.4000 278.0000 1.0000
56.4100 267.0000 1.0000
56.4200 272.0000 1.0000
56.4300 260.0000 1.0000
56.4400 255.0000 1.0000
56.4500 286.0000 1.0000
56.4600 290.0000 1.0000
56.4700 295.0000 1.0000
56.4800 269.0000 1.0000
56.4900 274.0000 1.0000
56.5000 263.0000 1.0000
56.5100 260.0000 1.0000
56.5200 277.0000 1.0000
56.5300 287.0000 1.0000
56.5400 257.0000 1.0000
56.5500 292.0000 1.0000
56.5600 289.0000 1.0000
56.5700 279.0000 1.0000
56.5800 262.0000 1.0000
56.5900 278.0000 1.0000
56.6000 304.0000 1.0000
56.6100 298.0000 1.0000
56.6200 271.0000 1.0000
56.6300 285.0000 1.0000
56.6400 298.0000 1.0000
56.6500 305.0000 1.0000
56.6600 257.0000 1.0000
56.6700 290.0000 1.0000
56.6800 276.0000 1.0000
56.6900 270.0000 1.0000
56.7000 270.0000 1.0000
56.7100 270.0000 1.0000
56.7200 277.0000 1.0000
56.7300 265.0000 1.0000
56.7400 279.0000 1.0000
56.7500 279.0000 1.0000
56.7600 284.0000 1.0000
56.7700 273.0000 1.0000
56.7800 288.0000 1.0000
56.7900 295.0000 1.0000
56.8000 274.0000 1.0000
56.8100 312.0000 1.0000
56.8200 284.0000 1.0000
56.8300 267.0000 1.0000
56.8400 294.0000 1.0000
56.8500 282.0000 1.0000
56.8600 266.0000 1.0000
56.8700 280.0000 1.0000
56.8800 291.0000 1.0000
56.8900 251.0000 1.0000
56.9000 288.0000 1.0000
56.9100 289.0000 1.0000
56.9200 271.0000 1.0000
56.9300 279.0000 1.0000
56.9400 261.0000 1.0000
56.9500 254.0000 1.0000
56.9600 279.0000 1.0000
56.9700 263.0000 1.0000
56.9800 268.0000 1.0000
56.9900 292.0000 1.0000
57.0000 289.0000 1.0000
57.0100 269.0000 1.0000
57.0200 283.0000 1.0000
57.0300 267.0000 1.0000
57.0400 260.0000 1.0000
57.0500 281.0000 1.0000
57.0600 270.0000 1.0000
57.0700 281.0000 1.0000
57.0800 274.0000 1.0000
57.0900 275.0000 1.0000
57.1000 276.0000 1.0000
57.1100 268.0000 1.0000
57.1200 259.0000 1.0000
57.1300 284.0000 1.0000
57.1400 259.0000 1.0000
57.1500 259.0000 1.0000
57.1600 248.0000 1.0000
57.1700 274.0000 1.0000
57.1800 279.0000 1.0000
57.1900 287.0000 1.0000
57.2000 267.0000 1.0000
57.2100 286.0000 1.0000
57.2200 270.0000 1.0000
57.2300 276.0000 1.0000
57.2400 296.0000 1.0000
57.2500 276.0000 1.0000
57.2600 291.0000 1.0000
57.2700 286.0000 1.0000
57.2800 263.0000 1.0000
57.2900 272.0000 1.0000
57.3000 266.0000 1.0000
57.3100 277.0000 1.0000
57.3200 272.0000 1.0000
57.3300 259.0000 1.0000
57.3400 310.0000 1.0000
57.3500 275.0000 1.0000
57.3600 303.0000 1.0000
57.3700 283.0000 1.0000
57.3800 310.0000 1.0000
57.3900 289.0000 1.0000
57.4000 272.0000 1.0000
57.4100 289.0000 1.0000
57.4200 301.0000 1.0000
57.4300 294.0000 1.0000
57.4400 257.0000 1.0000
57.4500 282.0000 1.0000
57.4600 312.0000 1.0000
57.4700 279.0000 1.0000
57.4800 279.0000 1.0000
57.4900 268.0000 1.0000
57.5000 288.0000 1.0000
57.5100 272.0000 1.0000
57.5200 288.0000 1.0000
57.5300 286.0000 1.0000
57.5400 265.0000 1.0000
57.5500 284.0000 1.0000
57.5600 285.0000 1.0000
57.5700 283.0000 1.0000
57.5800 263.0000 1.0000
57.5900 290.0000 1.0000
57.6000 278.0000 1.0000
57.6100 297.0000 1.0000
57.6200 301.0000 1.0000
57.6300 292.0000 1.0000
57.6400 228.0000 1.0000
57.6500 271.0000 1.0000
57.6600 281.0000 1.0000
57.6700 262.0000 1.0000
57.6800 289.0000 1.0000
57.6900 281.0000 1.0000
57.7000 294.0000 1.0000
57.7100 278.0000 1.0000
57.7200 274.0000 1.0000
57.7300 255.0000 1.0000
57.7400 271.0000 1.0000
57.7500 283.0000 1.0000
57.7600 317.0000 1.0000
57.7700 294.0000 1.0000
57.7800 297.0000 1.0000
57.7900 279.0000 1.0000
57.8000 282.0000 1.0000
57.8100 307.0000 1.0000
57.8200 265.0000 1.0000
57.8300 290.0000 1.0000
57.8400 305.0000 1.0000
57.8500 309.0000 1.0000
57.8600 297.0000 1.0000
57.8700 270.0000 1.0000
57.8800 277.0000 1.0000
57.8900 253.0000 1.0000
57.9000 273.0000 1.0000
57.9100 279.0000 1.0000
57.9200 281.0000 1.0000
57.9300 276.0000 1.0000
57.9400 257.0000 1.0000
57.9500 268.0000 1.0000
57.9600 262.0000 1.0000
57.9700 260.0000 1.0000
57.9800 283.0000 1.0000
57.9900 290.0000 1.0000
58.0000 290.0000 1.0000
58.0100 295.0000 1.0000
58.0200 295.0000 1.0000
58.0300 293.0000 1.0000
58.0400 267.0000 1.0000
58.0500 278.0000 1.0000
58.0600 271.0000 1.0000
58.0700 285.0000 1.0000
58.0800 280.0000 1.0000
58.0900 274.0000 1.0000
58.1000 281.0000 1.0000
58.1100 258.0000 1.0000
58.1200 283.0000 1.0000
58.1300 260.0000 1.0000
58.1400 250.0000 1.0000
58.1500 274.0000 1.0000
58.1600 280.0000 1.0000
58.1700 273.0000 1.0000
58.1800 277.0000 1.0000
58.1900 300.0000 1.0000
58.2000 271.0000 1.0000
58.2100 271.0000 1.0000
58.2200 253.0000 1.0000
58.2300 284.0000 1.0000
58.2400 286.0000 1.0000
58.2500 275.0000 1.0000
58.2600 263.0000 1.0000
58.2700 279.0000 1.0000
58.2800 265.0000 1.0000
58.2900 267.0000 1.0000
58.3000 258.0000 1.0000
58.3100 281.0000 1.0000
58.3200 273.0000 1.0000
58.3300 244.0000 1.0000
58.3400 272.0000 1.0000
58.3500 271.0000 1.0000
58.3600 264.0000 1.0000
58.3700 267.0000 1.0000
58.3800 284.0000 1.0000
58.3900 275.0000 1.0000
58.4000 268.0000 1.0000
58.4100 265.0000 1.0000
58.4200 276.0000 1.0000
58.4300 276.0000 1.0000
58.4400 276.0000 1.0000
58.4500 287.0000 1.0000
58.4600 283.0000 1.0000
58.4700 276.0000 1.0000
58.4800 266.0000 1.0000
58.4900 280.0000 1.0000
58.5000 295.0000 1.0000
58.5100 277.0000 1.0000
58.5200 280.0000 1.0000
58.5300 284.0000 1.0000
58.5400 268.0000 1.0000
58.5500 257.0000 1.0000
58.5600 297.0000 1.0000
58.5700 310.0000 1.0000
58.5800 283.0000 1.0000
58.5900 278.0000 1.0000
58.6000 290.0000 1.0000
58.6100 280.0000 1.0000
58.6200 276.0000 1.0000
58.6300 290.0000 1.0000
58.6400 287.0000 1.0000
58.6500 277.0000 1.0000
58.6600 267.0000 1.0000
58.6700 267.0000 1.0000
58.6800 266.0000 1.0000
58.6900 262.0000 1.0000
58.7000 258.0000 1.0000
58.7100 272.0000 1.0000
58.7200 264.0000 1.0000
58.7300 293.0000 1.0000
58.7400 282.0000 1.0000
58.7500 264.0000 1.0000
58.7600 283.0000 1.0000
58.7700 288.0000 1.0000
58.7800 286.0000 1.0000
58.7900 240.0000 1.0000
58.8000 281.0000 1.0000
58.8100 300.0000 1.0000
58.8200 285.0000 1.0000
58.8300 282.0000 1.0000
58.8400 273.0000 1.0000
58.8500 284.0000 1.0000
58.8600 292.0000 1.0000
58.8700 310.0000 1.0000
58.8800 267.0000 1.0000
58.8900 289.0000 1.0000
58.9000 279.0000 1.0000
58.9100 259.0000 1.0000
58.9200 294.0000 1.0000
58.9300 294.0000 1.0000
58.9400 273.0000 1.0000
58.9500 281.0000 1.0000
58.9600 290.0000 1.0000
58.9700 276.0000 1.0000
58.9800 267.0000 1.0000
58.9900 278.0000 1.0000
59.0000 278.0000 1.0000
59.0100 261.0000 1.0000
59.0200 270.0000 1.0000
59.0300 280.0000 1.0000
59.0400 267.0000 1.0000
59.0500 283.0000 1.0000
59.0600 275.0000 1.0000
59.0700 301.0000 1.0000
59.0800 280.0000 1.0000
59.0900 274.0000 1.0000
59.1000 257.0000 1.0000
59.1100 255.0000 1.0000
59.1200 242.0000 1.0000
59.1300 251.0000 1.0000
59.1400 268.0000 1.0000
59.1500 264.0000 1.0000
59.1600 259.0000 1.0000
59.1700 249.0000 1.0000
59.1800 242.0000 1.0000
59.1900 277.0000 1.0000
59.2000 282.0000 1.0000
59.2100 295.0000 1.0000
59.2200 280.0000 1.0000
59.2300 273.0000 1.0000
59.2400 287.0000 1.0000
59.2500 287.0000 1.0000
59.2600 262.0000 1.0000
59.2700 279.0000 1.0000
59.2800 288.0000 1.0000
59.2900 296.0000 1.0000
59.3000 294.0000 1.0000
59.3100 269.0000 1.0000
59.3200 251.0000 1.0000
59.3300 282.0000 1.0000
59.3400 257.0000 1.0000
59.3500 272.0000 1.0000
59.3600 273.0000 1.0000
59.3700 259.0000 1.0000
59.3800 258.0000 1.0000
59.3900 254.0000 1.0000
59.4000 278.0000 1.0000
59.4100 265.0000 1.0000
59.4200 260.0000 1.0000
59.4300 250.0000 1.0000
59.4400 312.0000 1.0000
59.4500 275.0000 1.0000
59.4600 268.0000 1.0000
59.4700 279.0000 1.0000
59.4800 279.0000 1.0000
59.4900 246.0000 1.0000
59.5000 268.0000 1.0000
59.5100 298.0000 1.0000
59.5200 265.0000 1.0000
59.5300 256.0000 1.0000
59.5400 265.0000 1.0000
59.5500 287.0000 1.0000
59.5600 294.0000 1.0000
59.5700 288.0000 1.0000
59.5800 264.0000 1.0000
59.5900 271.0000 1.0000
59.6000 269.0000 1.0000
59.6100 245.0000 1.0000
59.6200 269.0000 1.0000
59.6300 270.0000 1.0000
59.6400 269.0000 1.0000
59.6500 285.0000 1.0000
59.6600 278.0000 1.0000
59.6700 259.0000 1.0000
59.6800 269.0000 1.0000
59.6900 267.0000 1.0000
59.7000 273.0000 1.0000
59.7100 268.0000 1.0000
59.7200 272.0000 1.0000
59.7300 308.0000 1.0000
59.7400 288.0000 1.0000
59.7500 267.0000 1.0000
59.7600 269.0000 1.0000
59.7700 263.0000 1.0000
59.7800 241.0000 1.0000
59.7900 260.0000 1.0000
59.8000 278.0000 1.0000
59.8100 293.0000 1.0000
59.8200 294.0000 1.0000
59.8300 281.0000 1.0000
59.8400 263.0000 1.0000
59.8500 274.0000 1.0000
59.8600 249.0000 1.0000
59.8700 271.0000 1.0000
59.8800 277.0000 1.0000
59.8900 267.0000 1.0000
59.9000 295.0000 1.0000
59.9100 268.0000 1.0000
59.9200 251.0000 1.0000
59.9300 261.0000 1.0000
59.9400 261.0000 1.0000
59.9500 278.0000 1.0000
59.9600 282.0000 1.0000
59.9700 256.0000 1.0000
59.9800 271.0000 1.0000
59.9900 277.0000 1.0000
60.0000 241.0000 1.0000
60.0100 269.0000 1.0000
60.0200 255.0000 1.0000
60.0300 246.0000 1.0000
60.0400 301.0000 1.0000
60.0500 279.0000 1.0000
60.0600 270.0000 1.0000
60.0700 252.0000 1.0000
60.0800 294.0000 1.0000
60.0900 283.0000 1.0000
60.1000 272.0000 1.0000
60.1100 261.0000 1.0000
60.1200 278.0000 1.0000
60.1300 276.0000 1.0000
60.1400 263.0000 1.0000
60.1500 271.0000 1.0000
60.1600 276.0000 1.0000
60.1700 270.0000 1.0000
60.1800 307.0000 1.0000
60.1900 258.0000 1.0000
60.2000 251.0000 1.0000
60.2100 288.0000 1.0000
60.2200 258.0000 1.0000
60.2300 285.0000 1.0000
60.2400 289.0000 1.0000
60.2500 277.0000 1.0000
60.2600 288.0000 1.0000
60.2700 281.0000 1.0000
60.2800 275.0000 1.0000
60.2900 278.0000 1.0000
60.3000 276.0000 1.0000
60.3100 246.0000 1.0000
60.3200 279.0000 1.0000
60.3300 274.0000 1.0000
60.3400 264.0000 1.0000
60.3500 266.0000 1.0000
60.3600 296.0000 1.0000
60.3700 270.0000 1.0000
60.3800 267.0000 1.0000
60.3900 251.0000 1.0000
60.4000 256.0000 1.0000
60.4100 304.0000 1.0000
60.4200 301.0000 1.0000
60.4300 296.0000 1.0000
60.4400 305.0000 1.0000
60.4500 255.0000 1.0000
60.4600 264.0000 1.0000
60.4700 277.0000 1.0000
60.4800 265.0000 1.0000
60.4900 268.0000 1.0000
60.5000 264.0000 1.0000
60.5100 285.0000 1.0000
60.5200 272.0000 1.0000
60.5300 275.0000 1.0000
60.5400 284.0000 1.0000
60.5500 270.0000 1.0000
60.5600 290.0000 1.0000
60.5700 295.0000 1.0000
60.5800 262.0000 1.0000
60.5900 262.0000 1.0000
60.6000 285.0000 1.0000
60.6100 301.0000 1.0000
60.6200 270.0000 1.0000
60.6300 263.0000 1.0000
60.6400 269.0000 1.0000
60.6500 264.0000 1.0000
60.6600 272.0000 1.0000
60.6700 283.0000 1.0000
60.6800 258.0000 1.0000
60.6900 281.0000 1.0000
60.7000 284.0000 1.0000
60.7100 301.0000 1.0000
60.7200 297.0000 1.0000
60.7300 294.0000 1.0000
60.7400 292.0000 1.0000
60.7500 305.0000 1.0000
60.7600 311.0000 1.0000
60.7700 305.0000 1.0000
60.7800 292.0000 1.0000
60.7900 288.0000 1.0000
60.8000 271.0000 1.0000
60.8100 292.0000 1.0000
60.8200 284.0000 1.0000
60.8300 280.0000 1.0000
60.8400 273.0000 1.0000
60.8500 259.0000 1.0000
60.8600 300.0000 1.0000
60.8700 274.0000 1.0000
60.8800 276.0000 1.0000
60.8900 256.0000 1.0000
60.9000 262.0000 1.0000
60.9100 285.0000 1.0000
60.9200 272.0000 1.0000
60.9300 290.0000 1.0000
60.9400 267.0000 1.0000
60.9500 291.0000 1.0000
60.9600 295.0000 1.0000
60.9700 301.0000 1.0000
60.9800 279.0000 1.0000
60.9900 279.0000 1.0000
61.0000 280.0000 1.0000
61.0100 268.0000 1.0000
61.0200 278.0000 1.0000
61.0300 255.0000 1.0000
61.0400 266.0000 1.0000
61.0500 290.0000 1.0000
61.0600 311.0000 1.0000
61.0700 304.0000 1.0000
61.0800 304.0000 1.0000
61.0900 304.0000 1.0000
61.1000 287.0000 1.0000
61.1100 302.0000 1.0000
61.1200 266.0000 1.0000
61.1300 308.0000 1.0000
61.1400 309.0000 1.0000
61.1500 318.0000 1.0000
61.1600 308.0000 1.0000
61.1700 312.0000 1.0000
61.1800 308.0000 1.0000
61.1900 310.0000 1.0000
61.2000 319.0000 1.0000
61.2100 321.0000 1.0000
61.2200 289.0000 1.0000
61.2300 314.0000 1.0000
61.2400 337.0000 1.0000
61.2500 313.0000 1.0000
61.2600 313.0000 1.0000
61.2700 324.0000 1.0000
61.2800 351.0000 1.0000
61.2900 350.0000 1.0000
61.3000 356.0000 1.0000
61.3100 377.0000 1.0000
61.3200 381.0000 1.0000
61.3300 399.0000 1.0000
61.3400 433.0000 1.0000
61.3500 418.0000 1.0000
61.3600 417.0000 1.0000
61.3700 410.0000 1.0000
61.3800 422.0000 1.0000
61.3900 436.0000 1.0000
61.4000 458.0000 1.0000
61.4100 450.0000 1.0000
61.4200 474.0000 1.0000
61.4300 500.0000 1.0000
61.4400 495.0000 1.0000
61.4500 513.0000 1.0000
61.4600 476.0000 1.0000
61.4700 487.0000 1.0000
61.4800 532.0000 1.0000
61.4900 518.0000 1.0000
61.5000 536.0000 1.0000
61.5100 563.0000 1.0000
61.5200 574.0000 1.0000
61.5300 560.0000 1.0000
61.5400 574.0000 1.0000
61.5500 589.0000 1.0000
61.5600 604.0000 1.0000
61.5700 558.0000 1.0000
61.5800 560.0000 1.0000
61.5900 543.0000 1.0000
61.6000 553.0000 1.0000
61.6100 584.0000 1.0000
61.6200 558.0000 1.0000
61.6300 528.0000 1.0000
61.6400 573.0000 1.0000
61.6500 531.0000 1.0000
61.6600 522.0000 1.0000
61.6700 524.0000 1.0000
61.6800 482.0000 1.0000
61.6900 510.0000 1.0000
61.7000 479.0000 1.0000
61.7100 498.0000 1.0000
61.7200 476.0000 1.0000
61.7300 489.0000 1.0000
61.7400 453.0000 1.0000
61.7500 462.0000 1.0000
61.7600 437.0000 1.0000
61.7700 432.0000 1.0000
61.7800 414.0000 1.0000
61.7900 448.0000 1.0000
61.8000 416.0000 1.0000
61.8100 390.0000 1.0000
61.8200 399.0000 1.0000
61.8300 403.0000 1.0000
61.8400 409.0000 1.0000
61.8500 398.0000 1.0000
61.8600 388.0000 1.0000
61.8700 379.0000 1.0000
61.8800 378.0000 1.0000
61.8900 349.0000 1.0000
61.9000 382.0000 1.0000
61.9100 350.0000 1.0000
61.9200 329.0000 1.0000
61.9300 351.0000 1.0000
61.9400 356.0000 1.0000
61.9500 326.0000 1.0000
61.9600 345.0000 1.0000
61.9700 343.0000 1.0000
61.9800 322.0000 1.0000
61.9900 352.0000 1.0000
62.0000 311.0000 1.0000
62.0100 327.0000 1.0000
62.0200 321.0000 1.0000
62.0300 312.0000 1.0000
62.0400 327.0000 1.0000
62.0500 335.0000 1.0000
62.0600 302.0000 1.0000
62.0700 312.0000 1.0000
62.0800 304.0000 1.0000
62.0900 321.0000 1.0000
62.1000 292.0000 1.0000
62.1100 296.0000 1.0000
62.1200 319.0000 1.0000
62.1300 314.0000 1.0000
62.1400 313.0000 1.0000
62.1500 292.0000 1.0000
62.1600 295.0000 1.0000
62.1700 304.0000 1.0000
62.1800 269.0000 1.0000
62.1900 303.0000 1.0000
62.2000 283.0000 1.0000
62.2100 299.0000 1.0000
62.2200 282.0000 1.0000
62.2300 303.0000 1.0000
62.2400 289.0000 1.0000
62.2500 294.0000 1.0000
62.2600 320.0000 1.0000
62.2700 302.0000 1.0000
62.2800 307.0000 1.0000
62.2900 295.0000 1.0000
62.3000 303.0000 1.0000
62.3100 283.0000 1.0000
62.3200 280.0000 1.0000
62.3300 288.0000 1.0000
62.3400 306.0000 1.0000
62.3500 319.0000 1.0000
62.3600 311.0000 1.0000
62.3700 295.0000 1.0000
62.3800 302.0000 1.0000
62.3900 316.0000 1.0000
62.4000 314.0000 1.0000
62.4100 330.0000 1.0000
62.4200 293.0000 1.0000
62.4300 285.0000 1.0000
62.4400 310.0000 1.0000
62.4500 316.0000 1.0000
62.4600 316.0000 1.0000
62.4700 321.0000 1.0000
62.4800 311.0000 1.0000
62.4900 320.0000 1.0000
62.5000 295.0000 1.0000
62.5100 285.0000 1.0000
62.5200 309.0000 1.0000
62.5300 288.0000 1.0000
62.5400 321.0000 1.0000
62.5500 298.0000 1.0000
62.5600 282.0000 1.0000
62.5700 292.0000 1.0000
62.5800 298.0000 1.0000
62.5900 282.0000 1.0000
62.6000 270.0000 1.0000
62.6100 266.0000 1.0000
62.6200 264.0000 1.0000
62.6300 272.0000 1.0000
62.6400 308.0000 1.0000
62.6500 279.0000 1.0000
62.6600 272.0000 1.0000
62.6700 273.0000 1.0000
62.6800 302.0000 1.0000
62.6900 295.0000 1.0000
62.7000 276.0000 1.0000
62.7100 259.0000 1.0000
62.7200 286.0000 1.0000
62.7300 257.0000 1.0000
62.7400 278.0000 1.0000
62.7500 281.0000 1.0000
62.7600 288.0000 1.0000
62.7700 282.0000 1.0000
62.7800 279.0000 1.0000
62.7900 257.0000 1.0000
62.8000 266.0000 1.0000
62.8100 298.0000 1.0000
62.8200 287.0000 1.0000
62.8300 288.0000 1.0000
62.8400 256.0000 1.0000
62.8500 264.0000 1.0000
62.8600 288.0000 1.0000
62.8700 265.0000 1.0000
62.8800 304.0000 1.0000
62.8900 274.0000 1.0000
62.9000 266.0000 1.0000
62.9100 298.0000 1.0000
62.9200 295.0000 1.0000
62.9300 281.0000 1.0000
62.9400 265.0000 1.0000
62.9500 278.0000 1.0000
62.9600 266.0000 1.0000
62.9700 282.0000 1.0000
62.9800 271.0000 1.0000
62.9900 293.0000 1.0000
63.0000 267.0000 1.0000
63.0100 289.0000 1.0000
63.0200 258.0000 1.0000
63.0300 254.0000 1.0000
63.0400 259.0000 1.0000
63.0500 262.0000 1.0000
63.0600 276.0000 1.0000
63.0700 272.0000 1.0000
63.0800 263.0000 1.0000
63.0900 258.0000 1.0000
63.1000 248.0000 1.0000
63.1100 262.0000 1.0000
63.1200 257.0000 1.0000
63.1300 282.0000 1.0000
63.1400 257.0000 1.0000
63.1500 221.0000 1.0000
63.1600 263.0000 1.0000
63.1700 277.0000 1.0000
63.1800 304.0000 1.0000
63.1900 271.0000 1.0000
63.2000 275.0000 1.0000
63.2100 274.0000 1.0000
63.2200 281.0000 1.0000
63.2300 272.0000 1.0000
63.2400 257.0000 1.0000
63.2500 283.0000 1.0000
63.2600 255.0000 1.0000
63.2700 285.0000 1.0000
63.2800 269.0000 1.0000
63.2900 288.0000 1.0000
63.3000 285.0000 1.0000
63.3100 273.0000 1.0000
63.3200 264.0000 1.0000
63.3300 288.0000 1.0000
63.3400 318.0000 1.0000
63.3500 294.0000 1.0000
63.3600 287.0000 1.0000
63.3700 275.0000 1.0000
63.3800 298.0000 1.0000
63.3900 286.0000 1.0000
63.4000 283.0000 1.0000
63.4100 274.0000 1.0000
63.4200 258.0000 1.0000
63.4300 289.0000 1.0000
63.4400 275.0000 1.0000
63.4500 272.0000 1.0000
63.4600 268.0000 1.0000
63.4700 279.0000 1.0000
63.4800 263.0000 1.0000
63.4900 315.0000 1.0000
63.5000 275.0000 1.0000
63.5100 302.0000 1.0000
63.5200 291.0000 1.0000
63.5300 282.0000 1.0000
63.5400 282.0000 1.0000
63.5500 262.0000 1.0000
63.5600 282.0000 1.0000
63.5700 297.0000 1.0000
63.5800 279.0000 1.0000
63.5900 313.0000 1.0000
63.6000 281.0000 1.0000
63.6100 271.0000 1.0000
63.6200 293.0000 1.0000
63.6300 262.0000 1.0000
63.6400 301.0000 1.0000
63.6500 298.0000 1.0000
63.6600 293.0000 1.0000
63.6700 306.0000 1.0000
63.6800 321.0000 1.0000
63.6900 296.0000 1.0000
63.7000 310.0000 1.0000
63.7100 300.0000 1.0000
63.7200 309.0000 1.0000
63.7300 311.0000 1.0000
63.7400 318.0000 1.0000
63.7500 297.0000 1.0000
63.7600 317.0000 1.0000
63.7700 299.0000 1.0000
63.7800 294.0000 1.0000
63.7900 302.0000 1.0000
63.8000 330.0000 1.0000
63.8100 334.0000 1.0000
63.8200 312.0000 1.0000
63.8300 332.0000 1.0000
63.8400 367.0000 1.0000
63.8500 363.0000 1.0000
63.8600 342.0000 1.0000
63.8700 325.0000 1.0000
63.8800 335.0000 1.0000
63.8900 344.0000 1.0000
63.9000 381.0000 1.0000
63.9100 393.0000 1.0000
63.9200 372.0000 1.0000
63.9300 397.0000 1.0000
63.9400 435.0000 1.0000
63.9500 402.0000 1.0000
63.9600 407.0000 1.0000
63.9700 371.0000 1.0000
63.9800 356.0000 1.0000
63.9900 380.0000 1.0000
64.0000 373.0000 1.0000
64.0100 374.0000 1.0000
64.0200 370.0000 1.0000
64.0300 363.0000 1.0000
64.0400 353.0000 1.0000
64.0500 357.0000 1.0000
64.0600 360.0000 1.0000
64.0700 388.0000 1.0000
64.0800 347.0000 1.0000
64.0900 358.0000 1.0000
64.1000 367.0000 1.0000
64.1100 383.0000 1.0000
64.1200 375.0000 1.0000
64.1300 359.0000 1.0000
64.1400 386.0000 1.0000
64.1500 355.0000 1.0000
64.1600 382.0000 1.0000
64.1700 365.0000 1.0000
64.1800 355.0000 1.0000
64.1900 334.0000 1.0000
64.2000 388.0000 1.0000
64.2100 335.0000 1.0000
64.2200 326.0000 1.0000
64.2300 320.0000 1.0000
64.2400 321.0000 1.0000
64.2500 315.0000 1.0000
64.2600 331.0000 1.0000
64.2700 321.0000 1.0000
64.2800 315.0000 1.0000
64.2900 310.0000 1.0000
64.3000 342.0000 1.0000
64.3100 307.0000 1.0000
64.3200 311.0000 1.0000
64.3300 318.0000 1.0000
64.3400 302.0000 1.0000
64.3500 290.0000 1.0000
64.3600 312.0000 1.0000
64.3700 315.0000 1.0000
64.3800 301.0000 1.0000
64.3900 286.0000 1.0000
64.4000 311.0000 1.0000
64.4100 315.0000 1.0000
64.4200 287.0000 1.0000
64.4300 292.0000 1.0000
64.4400 274.0000 1.0000
64.4500 281.0000 1.0000
64.4600 289.0000 1.0000
64.4700 291.0000 1.0000
64.4800 288.0000 1.0000
64.4900 289.0000 1.0000
64.5000 293.0000 1.0000
64.5100 291.0000 1.0000
64.5200 303.0000 1.0000
64.5300 267.0000 1.0000
64.5400 264.0000 1.0000
64.5500 274.0000 1.0000
64.5600 312.0000 1.0000
64.5700 308.0000 1.0000
64.5800 287.0000 1.0000
64.5900 304.0000 1.0000
64.6000 287.0000 1.0000
64.6100 270.0000 1.0000
64.6200 279.0000 1.0000
64.6300 300.0000 1.0000
64.6400 296.0000 1.0000
64.6500 283.0000 1.0000
64.6600 295.0000 1.0000
64.6700 307.0000 1.0000
64.6800 303.0000 1.0000
64.6900 281.0000 1.0000
64.7000 269.0000 1.0000
64.7100 254.0000 1.0000
64.7200 291.0000 1.0000
64.7300 283.0000 1.0000
64.7400 307.0000 1.0000
64.7500 297.0000 1.0000
64.7600 283.0000 1.0000
64.7700 268.0000 1.0000
64.7800 280.0000 1.0000
64.7900 284.0000 1.0000
64.8000 280.0000 1.0000
64.8100 320.0000 1.0000
64.8200 280.0000 1.0000
64.8300 267.0000 1.0000
64.8400 262.0000 1.0000
64.8500 288.0000 1.0000
64.8600 302.0000 1.0000
64.8700 276.0000 1.0000
64.8800 252.0000 1.0000
64.8900 287.0000 1.0000
64.9000 295.0000 1.0000
64.9100 295.0000 1.0000
64.9200 300.0000 1.0000
64.9300 302.0000 1.0000
64.9400 306.0000 1.0000
64.9500 287.0000 1.0000
64.9600 311.0000 1.0000
64.9700 287.0000 1.0000
64.9800 290.0000 1.0000
64.9900 308.0000 1.0000
65.0000 297.0000 1.0000
65.0100 308.0000 1.0000
65.0200 313.0000 1.0000
65.0300 313.0000 1.0000
65.0400 315.0000 1.0000
65.0500 298.0000 1.0000
65.0600 283.0000 1.0000
65.0700 298.0000 1.0000
65.0800 313.0000 1.0000
65.0900 328.0000 1.0000
65.1000 307.0000 1.0000
65.1100 319.0000 1.0000
65.1200 303.0000 1.0000
65.1300 338.0000 1.0000
65.1400 307.0000 1.0000
65.1500 333.0000 1.0000
65.1600 327.0000 1.0000
65.1700 360.0000 1.0000
65.1800 335.0000 1.0000
65.1900 346.0000 1.0000
65.2000 357.0000 1.0000
65.2100 329.0000 1.0000
65.2200 372.0000 1.0000
65.2300 375.0000 1.0000
65.2400 365.0000 1.0000
65.2500 388.0000 1.0000
65.2600 376.0000 1.0000
65.2700 358.0000 1.0000
65.2800 423.0000 1.0000
65.2900 467.0000 1.0000
65.3000 404.0000 1.0000
65.3100 438.0000 1.0000
65.3200 453.0000 1.0000
65.3300 474.0000 1.0000
65.3400 491.0000 1.0000
65.3500 532.0000 1.0000
65.3600 526.0000 1.0000
65.3700 562.0000 1.0000
65.3800 566.0000 1.0000
65.3900 619.0000 1.0000
65.4000 648.0000 1.0000
65.4100 629.0000 1.0000
65.4200 695.0000 1.0000
65.4300 737.0000 1.0000
65.4400 737.0000 1.0000
65.4500 690.0000 1.0000
65.4600 780.0000 1.0000
65.4700 803.0000 1.0000
65.4800 848.0000 1.0000
65.4900 897.0000 1.0000
65.5000 958.0000 1.0000
65.5100 923.0000 1.0000
65.5200 991.0000 1.0000
65.5300 982.0000 1.0000
65.5400 982.0000 1.0000
65.5500 1000.0000 1.0000
65.5600 1008.0000 1.0000
65.5700 980.0000 1.0000
65.5800 1004.0000 1.0000
65.5900 1032.0000 1.0000
65.6000 994.0000 1.0000
65.6100 919.0000 1.0000
65.6200 927.0000 1.0000
65.6300 899.0000 1.0000
65.6400 856.0000 1.0000
65.6500 860.0000 1.0000
65.6600 859.0000 1.0000
65.6700 860.0000 1.0000
65.6800 803.0000 1.0000
65.6900 792.0000 1.0000
65.7000 773.0000 1.0000
65.7100 794.0000 1.0000
65.7200 768.0000 1.0000
65.7300 802.0000 1.0000
65.7400 721.0000 1.0000
65.7500 676.0000 1.0000
65.7600 672.0000 1.0000
65.7700 690.0000 1.0000
65.7800 649.0000 1.0000
65.7900 633.0000 1.0000
65.8000 636.0000 1.0000
65.8100 569.0000 1.0000
65.8200 575.0000 1.0000
65.8300 538.0000 1.0000
65.8400 521.0000 1.0000
65.8500 485.0000 1.0000
65.8600 475.0000 1.0000
65.8700 468.0000 1.0000
65.8800 451.0000 1.0000
65.8900 444.0000 1.0000
65.9000 452.0000 1.0000
65.9100 420.0000 1.0000
65.9200 373.0000 1.0000
65.9300 384.0000 1.0000
65.9400 381.0000 1.0000
65.9500 409.0000 1.0000
65.9600 380.0000 1.0000
65.9700 374.0000 1.0000
65.9800 378.0000 1.0000
65.9900 358.0000 1.0000
66.0000 337.0000 1.0000
66.0100 326.0000 1.0000
66.0200 340.0000 1.0000
66.0300 362.0000 1.0000
66.0400 321.0000 1.0000
66.0500 329.0000 1.0000
66.0600 330.0000 1.0000
66.0700 321.0000 1.0000
66.0800 313.0000 1.0000
66.0900 313.0000 1.0000
66.1000 327.0000 1.0000
66.1100 315.0000 1.0000
66.1200 287.0000 1.0000
66.1300 301.0000 1.0000
66.1400 316.0000 1.0000
66.1500 281.0000 1.0000
66.1600 266.0000 1.0000
66.1700 267.0000 1.0000
66.1800 279.0000 1.0000
66.1900 288.0000 1.0000
66.2000 315.0000 1.0000
66.2100 289.0000 1.0000
66.2200 259.0000 1.0000
66.2300 283.0000 1.0000
66.2400 290.0000 1.0000
66.2500 280.0000 1.0000
66.2600 276.0000 1.0000
66.2700 289.0000 1.0000
66.2800 276.0000 1.0000
66.2900 276.0000 1.0000
66.3000 282.0000 1.0000
66.3100 289.0000 1.0000
66.3200 275.0000 1.0000
66.3300 309.0000 1.0000
66.3400 259.0000 1.0000
66.3500 257.0000 1.0000
66.3600 280.0000 1.0000
66.3700 280.0000 1.0000
66.3800 274.0000 1.0000
66.3900 255.0000 1.0000
66.4000 252.0000 1.0000
66.4100 278.0000 1.0000
66.4200 250.0000 1.0000
66.4300 259.0000 1.0000
66.4400 253.0000 1.0000
66.4500 243.0000 1.0000
66.4600 260.0000 1.0000
66.4700 280.0000 1.0000
66.4800 245.0000 1.0000
66.4900 270.0000 1.0000
66.5000 275.0000 1.0000
66.5100 294.0000 1.0000
66.5200 282.0000 1.0000
66.5300 267.0000 1.0000
66.5400 259.0000 1.0000
66.5500 281.0000 1.0000
66.5600 282.0000 1.0000
66.5700 244.0000 1.0000
66.5800 258.0000 1.0000
66.5900 272.0000 1.0000
66.6000 262.0000 1.0000
66.6100 265.0000 1.0000
66.6200 262.0000 1.0000
66.6300 269.0000 1.0000
66.6400 273.0000 1.0000
66.6500 272.0000 1.0000
66.6600 270.0000 1.0000
66.6700 244.0000 1.0000
66.6800 254.0000 1.0000
66.6900 252.0000 1.0000
66.7000 264.0000 1.0000
66.7100 284.0000 1.0000
66.7200 255.0000 1.0000
66.7300 243.0000 1.0000
66.7400 257.0000 1.0000
66.7500 261.0000 1.0000
66.7600 254.0000 1.0000
66.7700 232.0000 1.0000
66.7800 249.0000 1.0000
66.7900 224.0000 1.0000
66.8000 249.0000 1.0000
66.8100 271.0000 1.0000
66.8200 226.0000 1.0000
66.8300 269.0000 1.0000
66.8400 270.0000 1.0000
66.8500 251.0000 1.0000
66.8600 266.0000 1.0000
66.8700 239.0000 1.0000
66.8800 257.0000 1.0000
66.8900 256.0000 1.0000
66.9000 261.0000 1.0000
66.9100 280.0000 1.0000
66.9200 243.0000 1.0000
66.9300 246.0000 1.0000
66.9400 267.0000 1.0000
66.9500 249.0000 1.0000
66.9600 250.0000 1.0000
66.9700 255.0000 1.0000
66.9800 248.0000 1.0000
66.9900 240.0000 1.0000
67.0000 246.0000 1.0000
67.0100 219.0000 1.0000
67.0200 227.0000 1.0000
67.0300 255.0000 1.0000
67.0400 254.0000 1.0000
67.0500 251.0000 1.0000
67.0600 244.0000 1.0000
67.0700 228.0000 1.0000
67.0800 254.0000 1.0000
67.0900 258.0000 1.0000
67.1000 245.0000 1.0000
67.1100 257.0000 1.0000
67.1200 248.0000 1.0000
67.1300 246.0000 1.0000
67.1400 242.0000 1.0000
67.1500 241.0000 1.0000
67.1600 256.0000 1.0000
67.1700 251.0000 1.0000
67.1800 222.0000 1.0000
67.1900 243.0000 1.0000
67.2000 238.0000 1.0000
67.2100 250.0000 1.0000
67.2200 269.0000 1.0000
67.2300 275.0000 1.0000
67.2400 267.0000 1.0000
67.2500 247.0000 1.0000
67.2600 228.0000 1.0000
67.2700 225.0000 1.0000
67.2800 275.0000 1.0000
67.2900 273.0000 1.0000
67.3000 258.0000 1.0000
67.3100 248.0000 1.0000
67.3200 247.0000 1.0000
67.3300 241.0000 1.0000
67.3400 246.0000 1.0000
67.3500 248.0000 1.0000
67.3600 240.0000 1.0000
67.3700 244.0000 1.0000
67.3800 248.0000 1.0000
67.3900 247.0000 1.0000
67.4000 253.0000 1.0000
67.4100 274.0000 1.0000
67.4200 248.0000 1.0000
67.4300 249.0000 1.0000
67.4400 248.0000 1.0000
67.4500 239.0000 1.0000
67.4600 230.0000 1.0000
67.4700 230.0000 1.0000
67.4800 241.0000 1.0000
67.4900 244.0000 1.0000
67.5000 267.0000 1.0000
67.5100 252.0000 1.0000
67.5200 242.0000 1.0000
67.5300 245.0000 1.0000
67.5400 254.0000 1.0000
67.5500 269.0000 1.0000
67.5600 271.0000 1.0000
67.5700 266.0000 1.0000
67.5800 248.0000 1.0000
67.5900 225.0000 1.0000
67.6000 239.0000 1.0000
67.6100 230.0000 1.0000
67.6200 245.0000 1.0000
67.6300 224.0000 1.0000
67.6400 271.0000 1.0000
67.6500 242.0000 1.0000
67.6600 221.0000 1.0000
67.6700 246.0000 1.0000
67.6800 262.0000 1.0000
67.6900 282.0000 1.0000
67.7000 233.0000 1.0000
67.7100 269.0000 1.0000
67.7200 271.0000 1.0000
67.7300 271.0000 1.0000
67.7400 235.0000 1.0000
67.7500 251.0000 1.0000
67.7600 273.0000 1.0000
67.7700 251.0000 1.0000
67.7800 271.0000 1.0000
67.7900 258.0000 1.0000
67.8000 227.0000 1.0000
67.8100 225.0000 1.0000
67.8200 223.0000 1.0000
67.8300 240.0000 1.0000
67.8400 259.0000 1.0000
67.8500 245.0000 1.0000
67.8600 259.0000 1.0000
67.8700 256.0000 1.0000
67.8800 259.0000 1.0000
67.8900 260.0000 1.0000
67.9000 264.0000 1.0000
67.9100 242.0000 1.0000
67.9200 227.0000 1.0000
67.9300 262.0000 1.0000
67.9400 221.0000 1.0000
67.9500 239.0000 1.0000
67.9600 258.0000 1.0000
67.9700 241.0000 1.0000
67.9800 250.0000 1.0000
67.9900 237.0000 1.0000
68.0000 228.0000 1.0000
68.0100 217.0000 1.0000
68.0200 228.0000 1.0000
68.0300 247.0000 1.0000
68.0400 238.0000 1.0000
68.0500 254.0000 1.0000
68.0600 254.0000 1.0000
68.0700 252.0000 1.0000
68.0800 238.0000 1.0000
68.0900 238.0000 1.0000
68.1000 215.0000 1.0000
68.1100 238.0000 1.0000
68.1200 252.0000 1.0000
68.1300 234.0000 1.0000
68.1400 238.0000 1.0000
68.1500 216.0000 1.0000
68.1600 224.0000 1.0000
68.1700 227.0000 1.0000
68.1800 227.0000 1.0000
68.1900 226.0000 1.0000
68.2000 252.0000 1.0000
68.2100 255.0000 1.0000
68.2200 254.0000 1.0000
68.2300 245.0000 1.0000
68.2400 245.0000 1.0000
68.2500 238.0000 1.0000
68.2600 248.0000 1.0000
68.2700 266.0000 1.0000
68.2800 254.0000 1.0000
68.2900 225.0000 1.0000
68.3000 233.0000 1.0000
68.3100 236.0000 1.0000
68.3200 228.0000 1.0000
68.3300 225.0000 1.0000
68.3400 246.0000 1.0000
68.3500 231.0000 1.0000
68.3600 250.0000 1.0000
68.3700 250.0000 1.0000
68.3800 234.0000 1.0000
68.3900 272.0000 1.0000
68.4000 259.0000 1.0000
68.4100 233.0000 1.0000
68.4200 246.0000 1.0000
68.4300 244.0000 1.0000
68.4400 252.0000 1.0000
68.4500 244.0000 1.0000
68.4600 236.0000 1.0000
68.4700 235.0000 1.0000
68.4800 248.0000 1.0000
68.4900 245.0000 1.0000
68.5000 254.0000 1.0000
68.5100 270.0000 1.0000
68.5200 244.0000 1.0000
68.5300 224.0000 1.0000
68.5400 233.0000 1.0000
68.5500 246.0000 1.0000
68.5600 232.0000 1.0000
68.5700 246.0000 1.0000
68.5800 261.0000 1.0000
68.5900 237.0000 1.0000
68.6000 232.0000 1.0000
68.6100 235.0000 1.0000
68.6200 241.0000 1.0000
68.6300 256.0000 1.0000
68.6400 249.0000 1.0000
68.6500 240.0000 1.0000
68.6600 235.0000 1.0000
68.6700 238.0000 1.0000
68.6800 222.0000 1.0000
68.6900 230.0000 1.0000
68.7000 221.0000 1.0000
68.7100 220.0000 1.0000
68.7200 242.0000 1.0000
68.7300 235.0000 1.0000
68.7400 282.0000 1.0000
68.7500 228.0000 1.0000
68.7600 270.0000 1.0000
68.7700 246.0000 1.0000
68.7800 236.0000 1.0000
68.7900 242.0000 1.0000
68.8000 247.0000 1.0000
68.8100 243.0000 1.0000
68.8200 255.0000 1.0000
68.8300 242.0000 1.0000
68.8400 244.0000 1.0000
68.8500 241.0000 1.0000
68.8600 244.0000 1.0000
68.8700 252.0000 1.0000
68.8800 257.0000 1.0000
68.8900 264.0000 1.0000
68.9000 256.0000 1.0000
68.9100 268.0000 1.0000
68.9200 260.0000 1.0000
68.9300 226.0000 1.0000
68.9400 232.0000 1.0000
68.9500 243.0000 1.0000
68.9600 249.0000 1.0000
68.9700 243.0000 1.0000
68.9800 255.0000 1.0000
68.9900 226.0000 1.0000
69.0000 256.0000 1.0000
69.0100 251.0000 1.0000
69.0200 264.0000 1.0000
69.0300 253.0000 1.0000
69.0400 245.0000 1.0000
69.0500 246.0000 1.0000
69.0600 252.0000 1.0000
69.0700 249.0000 1.0000
69.0800 220.0000 1.0000
69.0900 237.0000 1.0000
69.1000 268.0000 1.0000
69.1100 251.0000 1.0000
69.1200 250.0000 1.0000
69.1300 233.0000 1.0000
69.1400 236.0000 1.0000
69.1500 230.0000 1.0000
69.1600 257.0000 1.0000
69.1700 252.0000 1.0000
69.1800 220.0000 1.0000
69.1900 220.0000 1.0000
69.2000 239.0000 1.0000
69.2100 255.0000 1.0000
69.2200 231.0000 1.0000
69.2300 238.0000 1.0000
69.2400 235.0000 1.0000
69.2500 239.0000 1.0000
69.2600 248.0000 1.0000
69.2700 258.0000 1.0000
69.2800 244.0000 1.0000
69.2900 249.0000 1.0000
69.3000 243.0000 1.0000
69.3100 243.0000 1.0000
69.3200 245.0000 1.0000
69.3300 239.0000 1.0000
69.3400 271.0000 1.0000
69.3500 248.0000 1.0000
69.3600 229.0000 1.0000
69.3700 246.0000 1.0000
69.3800 251.0000 1.0000
69.3900 259.0000 1.0000
69.4000 251.0000 1.0000
69.4100 270.0000 1.0000
69.4200 224.0000 1.0000
69.4300 243.0000 1.0000
69.4400 221.0000 1.0000
69.4500 238.0000 1.0000
69.4600 265.0000 1.0000
69.4700 237.0000 1.0000
69.4800 243.0000 1.0000
69.4900 255.0000 1.0000
69.5000 250.0000 1.0000
69.5100 249.0000 1.0000
69.5200 223.0000 1.0000
69.5300 240.0000 1.0000
69.5400 245.0000 1.0000
69.5500 232.0000 1.0000
69.5600 245.0000 1.0000
69.5700 253.0000 1.0000
69.5800 224.0000 1.0000
69.5900 217.0000 1.0000
69.6000 234.0000 1.0000
69.6100 226.0000 1.0000
69.6200 241.0000 1.0000
69.6300 223.0000 1.0000
69.6400 235.0000 1.0000
69.6500 244.0000 1.0000
69.6600 230.0000 1.0000
69.6700 231.0000 1.0000
69.6800 229.0000 1.0000
69.6900 248.0000 1.0000
69.7000 235.0000 1.0000
69.7100 247.0000 1.0000
69.7200 227.0000 1.0000
69.7300 226.0000 1.0000
69.7400 239.0000 1.0000
69.7500 235.0000 1.0000
69.7600 225.0000 1.0000
69.7700 222.0000 1.0000
69.7800 239.0000 1.0000
69.7900 249.0000 1.0000
69.8000 234.0000 1.0000
69.8100 248.0000 1.0000
69.8200 239.0000 1.0000
69.8300 232.0000 1.0000
69.8400 229.0000 1.0000
69.8500 219.0000 1.0000
69.8600 237.0000 1.0000
69.8700 236.0000 1.0000
69.8800 220.0000 1.0000
69.8900 238.0000 1.0000
69.9000 225.0000 1.0000
69.9100 250.0000 1.0000
69.9200 251.0000 1.0000
69.9300 213.0000 1.0000
69.9400 238.0000 1.0000
69.9500 220.0000 1.0000
69.9600 224.0000 1.0000
69.9700 264.0000 1.0000
69.9800 235.0000 1.0000
69.9900 250.0000 1.0000
70.0000 228.0000 1.0000
*RAS_INT_END
*RAS_TEMPERATURE_START
*RAS_TEMPERATURE_END
*RAS_DATA_END
