*RAS_DATA_START
*RAS_HEADER_START
*DISP_FMT_X "%.2f"
*DISP_FMT_Y "%.0f"
*DISP_FULLSCALE "13620.0000000000"
*DISP_LINE_COLOR "255.0000000000"
*DISP_LINE_STYLE "0.0000000000"
*DISP_LINE_WIDTH "0.2500000000"
*DISP_NOTE "測定データ-1"
*DISP_OFFSET_Y "0.0000000000"
*DISP_PEAKSEARCH_UNIT_Y "cps"
*DISP_RANGE_BOTTOM "0.0000000000"
*DISP_RANGE_LEFT "20.0000000000"
*DISP_RANGE_LOGCUTOFF "0.0100000000"
*DISP_RANGE_RIGHT "70.0000000000"
*DISP_RANGE_TOP "13620.0000000000"
*DISP_SCALE_MODE_Y "0.0000000000"
*DISP_TAB_NAME "2θ/θ"
*DISP_TITLE_Y "強度"
*DISP_UNIT_Y "cps"
*DISP_WINDOW_NAME "MSG_MACROENGINE"
*FILE_COMMENT " "
*FILE_MD5 ""
*FILE_MEMO " "
*FILE_OPERATOR "Administrator"
*FILE_SAMPLE " "
*FILE_TYPE "RAS_RAW"
*FILE_USERGROUP "システムマネージャ"
*FILE_VERSION "1.0000000000"
*HW_ATTACHMENT_ID "ATT0025"
*HW_ATTACHMENT_NAME "標準|Standard"
*HW_COUNTER_ID-0 "CUT0025"
*HW_COUNTER_ID-1 "CUT0020"
*HW_COUNTER_ID-2 "CUT0020"
*HW_COUNTER_ID-3 "CSL0021"
*HW_COUNTER_ID-4 "CMC0021"
*HW_COUNTER_NAME-0 "D/teX Ultra|D/teX Ultra"
*HW_COUNTER_NAME-1 "None|None"
*HW_COUNTER_NAME-2 "None|None"
*HW_COUNTER_NAME-3 "BBM|BBM"
*HW_COUNTER_NAME-4 "検出器モノクロメータ|Detector monochromator"
*HW_COUNTER_SELECT_NAME "D/teX Ultra|D/teX Ultra"
*HW_GONIOMETER_ID "GON0023"
*HW_GONIOMETER_NAME "SmartLab|SmartLab"
*HW_GONIOMETER_RADIUS-0 "90.0"
*HW_GONIOMETER_RADIUS-1 "114.0"
*HW_GONIOMETER_RADIUS-2 "190.0"
*HW_GONIOMETER_RADIUS-3 "300.0"
*HW_GONIOMETER_RADIUS-4 "187.0"
*HW_GONIOMETER_RADIUS-5 "300.0"
*HW_GONIOMETER_RADIUS-6 "113.0"
*HW_GONIOMETER_RADIUS-7 "331.0"
*HW_I_OPT_ID-0 "CBO0021"
*HW_I_OPT_ID-1 "ICR0023"
*HW_I_OPT_ID-2 "ISL0021"
*HW_I_OPT_ID-3 "ISO0021"
*HW_I_OPT_ID-4 "IAD0021"
*HW_I_OPT_ID-5 "IPR0001"
*HW_I_OPT_NAME-0 "CBOユニット|CBO unit"
*HW_I_OPT_NAME-1 "標準入射光学ユニット|Standard incident optical unit"
*HW_I_OPT_NAME-2 "標準入射スリットボックス|Standard incident slit box"
*HW_I_OPT_NAME-3 "入射平行スリット|Incident parallel slit"
*HW_I_OPT_NAME-4 "長手制限スリット|Length limiting slit"
*HW_I_OPT_NAME-5 "None|None"
*HW_R_ATTENUATER_AUTOMODE "0"
*HW_R_OPT_ID-0 "RSS0021"
*HW_R_OPT_ID-1 "RCR0023"
*HW_R_OPT_ID-2 "RSO0021"
*HW_R_OPT_ID-3 "RRS0021"
*HW_R_OPT_ID-4 "ATN0021"
*HW_R_OPT_ID-5 "RFL0021"
*HW_R_OPT_ID-6 "RAD0021"
*HW_R_OPT_NAME-0 "標準受光スリットボックス1|Standard receiving slit box # 1"
*HW_R_OPT_NAME-1 "標準受光光学ユニット1|Standard receiving unit # 1"
*HW_R_OPT_NAME-2 "標準受光光学ユニット2|Standard receiving optical unit # 2"
*HW_R_OPT_NAME-3 "標準受光スリットボックス2|Standard receiving slit box # 2"
*HW_R_OPT_NAME-4 "標準アッテネータ|Standard Attenuator"
*HW_R_OPT_NAME-5 "Cu Kβ|Cu K-beta"
*HW_R_OPT_NAME-6 "調整用受光スリット|Alignment receiving slit"
*HW_SAMPLE_HOLDER_ID "SMP0023"
*HW_SAMPLE_HOLDER_NAME "標準Zステージ|Standard Z stage"
*HW_XG_CURRENT_MAX "50"
*HW_XG_CURRENT_MIN "2"
*HW_XG_CURRENT_RESOLUTION "1"
*HW_XG_CURRENT_UNIT "mA"
*HW_XG_FOCUS "1mm x 10mm"
*HW_XG_FOCUS_TYPE "Normal"
*HW_XG_ID ""
*HW_XG_NAME "3kW 封入管(ID:1200)|3kW Sealed tube(ID:1200)"
*HW_XG_TARGET_ATOMIC_NUMBER "29.0000000000"
*HW_XG_TARGET_NAME "Cu"
*HW_XG_TYPE "Hermetic"
*HW_XG_VOLTAGE_MAX "60"
*HW_XG_VOLTAGE_MIN "20"
*HW_XG_VOLTAGE_RESOLUTION "1"
*HW_XG_VOLTAGE_UNIT "kV"
*HW_XG_WATT_MAX "1.500"
*HW_XG_WATT_UNIT "kW"
*HW_XG_WAVE_LENGTH_ALPHA1 "1.540593"
*HW_XG_WAVE_LENGTH_ALPHA2 "1.544414"
*HW_XG_WAVE_LENGTH_BETA "1.392250"
*MEAS_COND_AXIS_NAME-0 "2θ/θ"
*MEAS_COND_AXIS_NAME-1 "2θ"
*MEAS_COND_AXIS_NAME-2 "ω"
*MEAS_COND_AXIS_NAME-3 "Z"
*MEAS_COND_AXIS_NAME-4 "2θ/ω"
*MEAS_COND_AXIS_NAME-5 "θs"
*MEAS_COND_AXIS_NAME-6 "θd"
*MEAS_COND_AXIS_NAME-7 "Ts"
*MEAS_COND_AXIS_NAME-8 "CBO選択スリット"
*MEAS_COND_AXIS_NAME-9 "M"
*MEAS_COND_AXIS_NAME-10 "入射平行スリット"
*MEAS_COND_AXIS_NAME-11 "入射スリット"
*MEAS_COND_AXIS_NAME-12 ""
*MEAS_COND_AXIS_NAME-13 "Zs"
*MEAS_COND_AXIS_NAME-14 "入射光学素子"
*MEAS_COND_AXIS_NAME-15 "長手制限スリット"
*MEAS_COND_AXIS_NAME-16 "センタースリット"
*MEAS_COND_AXIS_NAME-17 "フィルター"
*MEAS_COND_AXIS_NAME-18 "受光スリット1"
*MEAS_COND_AXIS_NAME-19 "受光スリット2"
*MEAS_COND_AXIS_NAME-20 "受光光学素子"
*MEAS_COND_AXIS_NAME-21 "受光平行スリット"
*MEAS_COND_AXIS_NAME-22 "調整用受光スリット"
*MEAS_COND_AXIS_NAME-23 ""
*MEAS_COND_AXIS_NAME-24 ""
*MEAS_COND_AXIS_NAME-25 "Zd"
*MEAS_COND_AXIS_NAME-26 "アッテネータ"
*MEAS_COND_AXIS_NAME-27 "検出器モノクロメータ"
*MEAS_COND_AXIS_NAME-28 "モノクロメータスリット"
*MEAS_COND_AXIS_NAME-29 "プライマリビーム"
*MEAS_COND_AXIS_NAME-30 "PHA"
*MEAS_COND_AXIS_NAME_INTERNAL-0 "TwoThetaTheta"
*MEAS_COND_AXIS_NAME_INTERNAL-1 "TwoTheta"
*MEAS_COND_AXIS_NAME_INTERNAL-2 "Omega"
*MEAS_COND_AXIS_NAME_INTERNAL-3 "Z"
*MEAS_COND_AXIS_NAME_INTERNAL-4 "TwoThetaOmega"
*MEAS_COND_AXIS_NAME_INTERNAL-5 "ThetaS"
*MEAS_COND_AXIS_NAME_INTERNAL-6 "ThetaD"
*MEAS_COND_AXIS_NAME_INTERNAL-7 "Ts"
*MEAS_COND_AXIS_NAME_INTERNAL-8 "CBO"
*MEAS_COND_AXIS_NAME_INTERNAL-9 "CBO-M"
*MEAS_COND_AXIS_NAME_INTERNAL-10 "IncidentSollerSlit"
*MEAS_COND_AXIS_NAME_INTERNAL-11 "IncidentSlitBox"
*MEAS_COND_AXIS_NAME_INTERNAL-12 "IncidentSlitBox-_Axis"
*MEAS_COND_AXIS_NAME_INTERNAL-13 "Zs"
*MEAS_COND_AXIS_NAME_INTERNAL-14 "IncidentMonochromator"
*MEAS_COND_AXIS_NAME_INTERNAL-15 "IncidentAxdSlit"
*MEAS_COND_AXIS_NAME_INTERNAL-16 "CenterSlit"
*MEAS_COND_AXIS_NAME_INTERNAL-17 "Filter"
*MEAS_COND_AXIS_NAME_INTERNAL-18 "ReceivingSlitBox1"
*MEAS_COND_AXIS_NAME_INTERNAL-19 "ReceivingSlitBox2"
*MEAS_COND_AXIS_NAME_INTERNAL-20 "ReceivingOptics"
*MEAS_COND_AXIS_NAME_INTERNAL-21 "ReceivingSollerSlit"
*MEAS_COND_AXIS_NAME_INTERNAL-22 "ReceivingAxdSlit"
*MEAS_COND_AXIS_NAME_INTERNAL-23 "ReceivingSlitBox1-_Axis"
*MEAS_COND_AXIS_NAME_INTERNAL-24 "ReceivingSlitBox2-_Axis"
*MEAS_COND_AXIS_NAME_INTERNAL-25 "ReceivingSlitBox2-Zd"
*MEAS_COND_AXIS_NAME_INTERNAL-26 "Attenuator"
*MEAS_COND_AXIS_NAME_INTERNAL-27 "CounterMonochromator"
*MEAS_COND_AXIS_NAME_INTERNAL-28 "CounterSlit"
*MEAS_COND_AXIS_NAME_INTERNAL-29 "IncidentPrimary"
*MEAS_COND_AXIS_NAME_INTERNAL-30 "PHA"
*MEAS_COND_AXIS_NAME_MAGICNO-0 "83951616.0000000000"
*MEAS_COND_AXIS_NAME_MAGICNO-1 "268632064.0000000000"
*MEAS_COND_AXIS_NAME_MAGICNO-2 "268500992.0000000000"
*MEAS_COND_AXIS_NAME_MAGICNO-3 "285278208.0000000000"
*MEAS_COND_AXIS_NAME_MAGICNO-4 "83951616.0000000000"
*MEAS_COND_AXIS_NAME_MAGICNO-5 "131072.0000000000"
*MEAS_COND_AXIS_NAME_MAGICNO-6 "131072.0000000000"
*MEAS_COND_AXIS_NAME_MAGICNO-7 "318898176.0000000000"
*MEAS_COND_AXIS_NAME_MAGICNO-8 "20971521.0000000000"
*MEAS_COND_AXIS_NAME_MAGICNO-9 "285343744.0000000000"
*MEAS_COND_AXIS_NAME_MAGICNO-10 "20971521.0000000000"
*MEAS_COND_AXIS_NAME_MAGICNO-11 "22020097.0000000000"
*MEAS_COND_AXIS_NAME_MAGICNO-12 "25165824.0000000000"
*MEAS_COND_AXIS_NAME_MAGICNO-13 "318898176.0000000000"
*MEAS_COND_AXIS_NAME_MAGICNO-14 "1.0000000000"
*MEAS_COND_AXIS_NAME_MAGICNO-15 "20971521.0000000000"
*MEAS_COND_AXIS_NAME_MAGICNO-16 "20971521.0000000000"
*MEAS_COND_AXIS_NAME_MAGICNO-17 "20971521.0000000000"
*MEAS_COND_AXIS_NAME_MAGICNO-18 "23068673.0000000000"
*MEAS_COND_AXIS_NAME_MAGICNO-19 "23068673.0000000000"
*MEAS_COND_AXIS_NAME_MAGICNO-20 "20971521.0000000000"
*MEAS_COND_AXIS_NAME_MAGICNO-21 "20971521.0000000000"
*MEAS_COND_AXIS_NAME_MAGICNO-22 "20971521.0000000000"
*MEAS_COND_AXIS_NAME_MAGICNO-23 "25165824.0000000000"
*MEAS_COND_AXIS_NAME_MAGICNO-24 "25165824.0000000000"
*MEAS_COND_AXIS_NAME_MAGICNO-25 "285343744.0000000000"
*MEAS_COND_AXIS_NAME_MAGICNO-26 "17301505.0000000000"
*MEAS_COND_AXIS_NAME_MAGICNO-27 "20971521.0000000000"
*MEAS_COND_AXIS_NAME_MAGICNO-28 "20971521.0000000000"
*MEAS_COND_AXIS_NAME_MAGICNO-29 "20971521.0000000000"
*MEAS_COND_AXIS_NAME_MAGICNO-30 "0.0000000000"
*MEAS_COND_AXIS_OFFSET-0 "-"
*MEAS_COND_AXIS_OFFSET-1 "-0.0310000000"
*MEAS_COND_AXIS_OFFSET-2 "0.3957000000"
*MEAS_COND_AXIS_OFFSET-3 "-"
*MEAS_COND_AXIS_OFFSET-4 "-"
*MEAS_COND_AXIS_OFFSET-5 "0.3957000000"
*MEAS_COND_AXIS_OFFSET-6 "-0.4267000000"
*MEAS_COND_AXIS_OFFSET-7 "-"
*MEAS_COND_AXIS_OFFSET-8 "-"
*MEAS_COND_AXIS_OFFSET-9 "-"
*MEAS_COND_AXIS_OFFSET-10 "-"
*MEAS_COND_AXIS_OFFSET-11 "-"
*MEAS_COND_AXIS_OFFSET-12 "-"
*MEAS_COND_AXIS_OFFSET-13 "-"
*MEAS_COND_AXIS_OFFSET-14 "-"
*MEAS_COND_AXIS_OFFSET-15 "-"
*MEAS_COND_AXIS_OFFSET-16 "-"
*MEAS_COND_AXIS_OFFSET-17 "-"
*MEAS_COND_AXIS_OFFSET-18 "-"
*MEAS_COND_AXIS_OFFSET-19 "-"
*MEAS_COND_AXIS_OFFSET-20 "-"
*MEAS_COND_AXIS_OFFSET-21 "-"
*MEAS_COND_AXIS_OFFSET-22 "-"
*MEAS_COND_AXIS_OFFSET-23 "-"
*MEAS_COND_AXIS_OFFSET-24 "-"
*MEAS_COND_AXIS_OFFSET-25 "-"
*MEAS_COND_AXIS_OFFSET-26 "-"
*MEAS_COND_AXIS_OFFSET-27 "-"
*MEAS_COND_AXIS_OFFSET-28 "-"
*MEAS_COND_AXIS_OFFSET-29 "-"
*MEAS_COND_AXIS_OFFSET-30 "-"
*MEAS_COND_AXIS_POSITION-0 "0.0000000000"
*MEAS_COND_AXIS_POSITION-1 "0.0000000000"
*MEAS_COND_AXIS_POSITION-2 "0.0000000000"
*MEAS_COND_AXIS_POSITION-3 "-2.9849600000"
*MEAS_COND_AXIS_POSITION-4 "0.0000000000"
*MEAS_COND_AXIS_POSITION-5 "0.0000000000"
*MEAS_COND_AXIS_POSITION-6 "0.0000000000"
*MEAS_COND_AXIS_POSITION-7 "-0.7498700000"
*MEAS_COND_AXIS_POSITION-8 "BB"
*MEAS_COND_AXIS_POSITION-9 "0.0000000000"
*MEAS_COND_AXIS_POSITION-10 "Soller_slit_5.0deg"
*MEAS_COND_AXIS_POSITION-11 "2/3deg"
*MEAS_COND_AXIS_POSITION-12 "2.2088000000"
*MEAS_COND_AXIS_POSITION-13 "-0.6412500000"
*MEAS_COND_AXIS_POSITION-14 "0.0000000000"
*MEAS_COND_AXIS_POSITION-15 "10.0mm"
*MEAS_COND_AXIS_POSITION-16 "None"
*MEAS_COND_AXIS_POSITION-17 "Cu_K-beta"
*MEAS_COND_AXIS_POSITION-18 "13.000mm"
*MEAS_COND_AXIS_POSITION-19 "13.000mm"
*MEAS_COND_AXIS_POSITION-20 "No_unit"
*MEAS_COND_AXIS_POSITION-21 "Soller_slit_5.0deg"
*MEAS_COND_AXIS_POSITION-22 "None"
*MEAS_COND_AXIS_POSITION-23 "13.0000000000"
*MEAS_COND_AXIS_POSITION-24 "13.0000000000"
*MEAS_COND_AXIS_POSITION-25 "0.0281300000"
*MEAS_COND_AXIS_POSITION-26 "Open"
*MEAS_COND_AXIS_POSITION-27 "None"
*MEAS_COND_AXIS_POSITION-28 "None"
*MEAS_COND_AXIS_POSITION-29 "None"
*MEAS_COND_AXIS_POSITION-30 "38.0000000000"
*MEAS_COND_AXIS_UNIT-0 "deg"
*MEAS_COND_AXIS_UNIT-1 "deg"
*MEAS_COND_AXIS_UNIT-2 "deg"
*MEAS_COND_AXIS_UNIT-3 "mm"
*MEAS_COND_AXIS_UNIT-4 "deg"
*MEAS_COND_AXIS_UNIT-5 "deg"
*MEAS_COND_AXIS_UNIT-6 "deg"
*MEAS_COND_AXIS_UNIT-7 "mm"
*MEAS_COND_AXIS_UNIT-8 ""
*MEAS_COND_AXIS_UNIT-9 "pulse"
*MEAS_COND_AXIS_UNIT-10 ""
*MEAS_COND_AXIS_UNIT-11 ""
*MEAS_COND_AXIS_UNIT-12 "mm"
*MEAS_COND_AXIS_UNIT-13 "mm"
*MEAS_COND_AXIS_UNIT-14 ""
*MEAS_COND_AXIS_UNIT-15 ""
*MEAS_COND_AXIS_UNIT-16 ""
*MEAS_COND_AXIS_UNIT-17 ""
*MEAS_COND_AXIS_UNIT-18 ""
*MEAS_COND_AXIS_UNIT-19 ""
*MEAS_COND_AXIS_UNIT-20 ""
*MEAS_COND_AXIS_UNIT-21 ""
*MEAS_COND_AXIS_UNIT-22 ""
*MEAS_COND_AXIS_UNIT-23 "mm"
*MEAS_COND_AXIS_UNIT-24 "mm"
*MEAS_COND_AXIS_UNIT-25 "mm"
*MEAS_COND_AXIS_UNIT-26 ""
*MEAS_COND_AXIS_UNIT-27 ""
*MEAS_COND_AXIS_UNIT-28 ""
*MEAS_COND_AXIS_UNIT-29 ""
*MEAS_COND_AXIS_UNIT-30 "div"
*MEAS_COND_COUNTER_CNTLOSS_CORR "0.0000000000"
*MEAS_COND_COUNTER_PHABASE "38.0000000000"
*MEAS_COND_COUNTER_PHAWINDOW "16.0000000000"
*MEAS_COND_COUNTER_PHA_UNIT "div"
*MEAS_COND_COUNTER_TAUDIFF "30.0000000000"
*MEAS_COND_COUNTER_TAUINT "0.0000000000"
*MEAS_COND_IRRADIATION_MODE "OFF"
*MEAS_COND_IRRADIATION_WIDTH ""
*MEAS_COND_OPT_ATTR "集中法"
*MEAS_COND_OPT_NAME "@集中法"
*MEAS_COND_UNSYMMETRIC_MODE "OFF"
*MEAS_COND_XG_CURRENT "30.0000000000"
*MEAS_COND_XG_VOLTAGE "40.0000000000"
*MEAS_COND_XG_WAVE_TYPE "Ka"
*MEAS_DATA_COUNT "5001.0000000000"
*MEAS_SCAN_AXIS_X "2θ/θ"
*MEAS_SCAN_AXIS_X_INTERNAL "TwoThetaTheta"
*MEAS_SCAN_END_TIME "02/07/24 18:59:56"
*MEAS_SCAN_MODE "CONTINUOUS"
*MEAS_SCAN_MONITOR "0"
*MEAS_SCAN_RESOLUTION_X "0.0002"
*MEAS_SCAN_SPEED "2.5"
*MEAS_SCAN_SPEED_UNIT "deg/min"
*MEAS_SCAN_START "20.0000000000"
*MEAS_SCAN_START_TIME "02/07/24 18:38:32"
*MEAS_SCAN_STEP "0.0100000000"
*MEAS_SCAN_STOP "70.0000000000"
*MEAS_SCAN_UNIT_X "deg"
*MEAS_SCAN_UNIT_Y "counts"
*RAS_HEADER_END
*RAS_INT_START
20.0000 756.0000 1.0000
20.0100 806.0000 1.0000
20.0200 774.0000 1.0000
20.0300 756.0000 1.0000
20.0400 800.0000 1.0000
20.0500 818.0000 1.0000
20.0600 796.0000 1.0000
20.0700 735.0000 1.0000
20.0800 789.0000 1.0000
20.0900 742.0000 1.0000
20.1000 754.0000 1.0000
20.1100 726.0000 1.0000
20.1200 717.0000 1.0000
20.1300 812.0000 1.0000
20.1400 778.0000 1.0000
20.1500 771.0000 1.0000
20.1600 758.0000 1.0000
20.1700 755.0000 1.0000
20.1800 783.0000 1.0000
20.1900 749.0000 1.0000
20.2000 764.0000 1.0000
20.2100 749.0000 1.0000
20.2200 747.0000 1.0000
20.2300 756.0000 1.0000
20.2400 782.0000 1.0000
20.2500 791.0000 1.0000
20.2600 767.0000 1.0000
20.2700 780.0000 1.0000
20.2800 789.0000 1.0000
20.2900 771.0000 1.0000
20.3000 774.0000 1.0000
20.3100 790.0000 1.0000
20.3200 748.0000 1.0000
20.3300 765.0000 1.0000
20.3400 812.0000 1.0000
20.3500 751.0000 1.0000
20.3600 777.0000 1.0000
20.3700 753.0000 1.0000
20.3800 768.0000 1.0000
20.3900 788.0000 1.0000
20.4000 774.0000 1.0000
20.4100 778.0000 1.0000
20.4200 823.0000 1.0000
20.4300 786.0000 1.0000
20.4400 758.0000 1.0000
20.4500 779.0000 1.0000
20.4600 754.0000 1.0000
20.4700 749.0000 1.0000
20.4800 791.0000 1.0000
20.4900 754.0000 1.0000
20.5000 742.0000 1.0000
20.5100 734.0000 1.0000
20.5200 784.0000 1.0000
20.5300 720.0000 1.0000
20.5400 775.0000 1.0000
20.5500 756.0000 1.0000
20.5600 779.0000 1.0000
20.5700 779.0000 1.0000
20.5800 780.0000 1.0000
20.5900 769.0000 1.0000
20.6000 767.0000 1.0000
20.6100 812.0000 1.0000
20.6200 738.0000 1.0000
20.6300 788.0000 1.0000
20.6400 796.0000 1.0000
20.6500 750.0000 1.0000
20.6600 764.0000 1.0000
20.6700 756.0000 1.0000
20.6800 726.0000 1.0000
20.6900 785.0000 1.0000
20.7000 724.0000 1.0000
20.7100 737.0000 1.0000
20.7200 750.0000 1.0000
20.7300 798.0000 1.0000
20.7400 763.0000 1.0000
20.7500 711.0000 1.0000
20.7600 752.0000 1.0000
20.7700 790.0000 1.0000
20.7800 770.0000 1.0000
20.7900 751.0000 1.0000
20.8000 728.0000 1.0000
20.8100 812.0000 1.0000
20.8200 684.0000 1.0000
20.8300 767.0000 1.0000
20.8400 797.0000 1.0000
20.8500 725.0000 1.0000
20.8600 745.0000 1.0000
20.8700 761.0000 1.0000
20.8800 762.0000 1.0000
20.8900 779.0000 1.0000
20.9000 759.0000 1.0000
20.9100 745.0000 1.0000
20.9200 774.0000 1.0000
20.9300 829.0000 1.0000
20.9400 787.0000 1.0000
20.9500 756.0000 1.0000
20.9600 749.0000 1.0000
20.9700 791.0000 1.0000
20.9800 756.0000 1.0000
20.9900 805.0000 1.0000
21.0000 776.0000 1.0000
21.0100 753.0000 1.0000
21.0200 782.0000 1.0000
21.0300 797.0000 1.0000
21.0400 795.0000 1.0000
21.0500 835.0000 1.0000
21.0600 781.0000 1.0000
21.0700 738.0000 1.0000
21.0800 731.0000 1.0000
21.0900 807.0000 1.0000
21.1000 797.0000 1.0000
21.1100 748.0000 1.0000
21.1200 732.0000 1.0000
21.1300 754.0000 1.0000
21.1400 788.0000 1.0000
21.1500 760.0000 1.0000
21.1600 750.0000 1.0000
21.1700 771.0000 1.0000
21.1800 756.0000 1.0000
21.1900 761.0000 1.0000
21.2000 779.0000 1.0000
21.2100 723.0000 1.0000
21.2200 748.0000 1.0000
21.2300 757.0000 1.0000
21.2400 806.0000 1.0000
21.2500 779.0000 1.0000
21.2600 702.0000 1.0000
21.2700 774.0000 1.0000
21.2800 787.0000 1.0000
21.2900 775.0000 1.0000
21.3000 782.0000 1.0000
21.3100 731.0000 1.0000
21.3200 755.0000 1.0000
21.3300 747.0000 1.0000
21.3400 774.0000 1.0000
21.3500 845.0000 1.0000
21.3600 779.0000 1.0000
21.3700 753.0000 1.0000
21.3800 786.0000 1.0000
21.3900 727.0000 1.0000
21.4000 781.0000 1.0000
21.4100 758.0000 1.0000
21.4200 745.0000 1.0000
21.4300 706.0000 1.0000
21.4400 745.0000 1.0000
21.4500 761.0000 1.0000
21.4600 754.0000 1.0000
21.4700 756.0000 1.0000
21.4800 773.0000 1.0000
21.4900 799.0000 1.0000
21.5000 783.0000 1.0000
21.5100 743.0000 1.0000
21.5200 749.0000 1.0000
21.5300 739.0000 1.0000
21.5400 757.0000 1.0000
21.5500 792.0000 1.0000
21.5600 782.0000 1.0000
21.5700 785.0000 1.0000
21.5800 783.0000 1.0000
21.5900 767.0000 1.0000
21.6000 748.0000 1.0000
21.6100 737.0000 1.0000
21.6200 782.0000 1.0000
21.6300 741.0000 1.0000
21.6400 775.0000 1.0000
21.6500 815.0000 1.0000
21.6600 768.0000 1.0000
21.6700 739.0000 1.0000
21.6800 794.0000 1.0000
21.6900 768.0000 1.0000
21.7000 773.0000 1.0000
21.7100 759.0000 1.0000
21.7200 795.0000 1.0000
21.7300 790.0000 1.0000
21.7400 774.0000 1.0000
21.7500 739.0000 1.0000
21.7600 758.0000 1.0000
21.7700 720.0000 1.0000
21.7800 784.0000 1.0000
21.7900 771.0000 1.0000
21.8000 745.0000 1.0000
21.8100 777.0000 1.0000
21.8200 715.0000 1.0000
21.8300 759.0000 1.0000
21.8400 727.0000 1.0000
21.8500 791.0000 1.0000
21.8600 781.0000 1.0000
21.8700 719.0000 1.0000
21.8800 746.0000 1.0000
21.8900 765.0000 1.0000
21.9000 754.0000 1.0000
21.9100 762.0000 1.0000
21.9200 750.0000 1.0000
21.9300 791.0000 1.0000
21.9400 729.0000 1.0000
21.9500 718.0000 1.0000
21.9600 713.0000 1.0000
21.9700 780.0000 1.0000
21.9800 752.0000 1.0000
21.9900 715.0000 1.0000
22.0000 752.0000 1.0000
22.0100 738.0000 1.0000
22.0200 701.0000 1.0000
22.0300 727.0000 1.0000
22.0400 810.0000 1.0000
22.0500 760.0000 1.0000
22.0600 760.0000 1.0000
22.0700 741.0000 1.0000
22.0800 740.0000 1.0000
22.0900 746.0000 1.0000
22.1000 788.0000 1.0000
22.1100 797.0000 1.0000
22.1200 745.0000 1.0000
22.1300 782.0000 1.0000
22.1400 745.0000 1.0000
22.1500 723.0000 1.0000
22.1600 702.0000 1.0000
22.1700 757.0000 1.0000
22.1800 737.0000 1.0000
22.1900 728.0000 1.0000
22.2000 782.0000 1.0000
22.2100 742.0000 1.0000
22.2200 794.0000 1.0000
22.2300 756.0000 1.0000
22.2400 810.0000 1.0000
22.2500 771.0000 1.0000
22.2600 770.0000 1.0000
22.2700 740.0000 1.0000
22.2800 741.0000 1.0000
22.2900 777.0000 1.0000
22.3000 775.0000 1.0000
22.3100 741.0000 1.0000
22.3200 782.0000 1.0000
22.3300 742.0000 1.0000
22.3400 719.0000 1.0000
22.3500 737.0000 1.0000
22.3600 761.0000 1.0000
22.3700 719.0000 1.0000
22.3800 790.0000 1.0000
22.3900 736.0000 1.0000
22.4000 733.0000 1.0000
22.4100 753.0000 1.0000
22.4200 738.0000 1.0000
22.4300 739.0000 1.0000
22.4400 766.0000 1.0000
22.4500 734.0000 1.0000
22.4600 729.0000 1.0000
22.4700 749.0000 1.0000
22.4800 731.0000 1.0000
22.4900 727.0000 1.0000
22.5000 761.0000 1.0000
22.5100 756.0000 1.0000
22.5200 734.0000 1.0000
22.5300 733.0000 1.0000
22.5400 778.0000 1.0000
22.5500 768.0000 1.0000
22.5600 776.0000 1.0000
22.5700 727.0000 1.0000
22.5800 735.0000 1.0000
22.5900 713.0000 1.0000
22.6000 758.0000 1.0000
22.6100 768.0000 1.0000
22.6200 735.0000 1.0000
22.6300 712.0000 1.0000
22.6400 729.0000 1.0000
22.6500 776.0000 1.0000
22.6600 765.0000 1.0000
22.6700 703.0000 1.0000
22.6800 761.0000 1.0000
22.6900 788.0000 1.0000
22.7000 787.0000 1.0000
22.7100 725.0000 1.0000
22.7200 740.0000 1.0000
22.7300 749.0000 1.0000
22.7400 725.0000 1.0000
22.7500 758.0000 1.0000
22.7600 782.0000 1.0000
22.7700 697.0000 1.0000
22.7800 730.0000 1.0000
22.7900 766.0000 1.0000
22.8000 787.0000 1.0000
22.8100 740.0000 1.0000
22.8200 739.0000 1.0000
22.8300 739.0000 1.0000
22.8400 733.0000 1.0000
22.8500 744.0000 1.0000
22.8600 691.0000 1.0000
22.8700 738.0000 1.0000
22.8800 739.0000 1.0000
22.8900 739.0000 1.0000
22.9000 715.0000 1.0000
22.9100 720.0000 1.0000
22.9200 707.0000 1.0000
22.9300 727.0000 1.0000
22.9400 682.0000 1.0000
22.9500 731.0000 1.0000
22.9600 721.0000 1.0000
22.9700 742.0000 1.0000
22.9800 715.0000 1.0000
22.9900 749.0000 1.0000
23.0000 753.0000 1.0000
23.0100 769.0000 1.0000
23.0200 767.0000 1.0000
23.0300 727.0000 1.0000
23.0400 708.0000 1.0000
23.0500 742.0000 1.0000
23.0600 748.0000 1.0000
23.0700 785.0000 1.0000
23.0800 723.0000 1.0000
23.0900 721.0000 1.0000
23.1000 739.0000 1.0000
23.1100 734.0000 1.0000
23.1200 706.0000 1.0000
23.1300 746.0000 1.0000
23.1400 742.0000 1.0000
23.1500 699.0000 1.0000
23.1600 739.0000 1.0000
23.1700 701.0000 1.0000
23.1800 731.0000 1.0000
23.1900 748.0000 1.0000
23.2000 727.0000 1.0000
23.2100 731.0000 1.0000
23.2200 757.0000 1.0000
23.2300 800.0000 1.0000
23.2400 725.0000 1.0000
23.2500 712.0000 1.0000
23.2600 737.0000 1.0000
23.2700 733.0000 1.0000
23.2800 743.0000 1.0000
23.2900 747.0000 1.0000
23.3000 738.0000 1.0000
23.3100 713.0000 1.0000
23.3200 722.0000 1.0000
23.3300 762.0000 1.0000
23.3400 740.0000 1.0000
23.3500 742.0000 1.0000
23.3600 735.0000 1.0000
23.3700 751.0000 1.0000
23.3800 713.0000 1.0000
23.3900 732.0000 1.0000
23.4000 724.0000 1.0000
23.4100 730.0000 1.0000
23.4200 743.0000 1.0000
23.4300 707.0000 1.0000
23.4400 665.0000 1.0000
23.4500 710.0000 1.0000
23.4600 754.0000 1.0000
23.4700 772.0000 1.0000
23.4800 735.0000 1.0000
23.4900 764.0000 1.0000
23.5000 712.0000 1.0000
23.5100 711.0000 1.0000
23.5200 748.0000 1.0000
23.5300 700.0000 1.0000
23.5400 723.0000 1.0000
23.5500 744.0000 1.0000
23.5600 744.0000 1.0000
23.5700 735.0000 1.0000
23.5800 744.0000 1.0000
23.5900 727.0000 1.0000
23.6000 760.0000 1.0000
23.6100 781.0000 1.0000
23.6200 697.0000 1.0000
23.6300 748.0000 1.0000
23.6400 744.0000 1.0000
23.6500 765.0000 1.0000
23.6600 742.0000 1.0000
23.6700 760.0000 1.0000
23.6800 745.0000 1.0000
23.6900 749.0000 1.0000
23.7000 726.0000 1.0000
23.7100 756.0000 1.0000
23.7200 785.0000 1.0000
23.7300 762.0000 1.0000
23.7400 728.0000 1.0000
23.7500 731.0000 1.0000
23.7600 743.0000 1.0000
23.7700 693.0000 1.0000
23.7800 713.0000 1.0000
23.7900 738.0000 1.0000
23.8000 749.0000 1.0000
23.8100 735.0000 1.0000
23.8200 735.0000 1.0000
23.8300 767.0000 1.0000
23.8400 759.0000 1.0000
23.8500 738.0000 1.0000
23.8600 782.0000 1.0000
23.8700 768.0000 1.0000
23.8800 722.0000 1.0000
23.8900 714.0000 1.0000
23.9000 764.0000 1.0000
23.9100 735.0000 1.0000
23.9200 753.0000 1.0000
23.9300 743.0000 1.0000
23.9400 794.0000 1.0000
23.9500 821.0000 1.0000
23.9600 819.0000 1.0000
23.9700 778.0000 1.0000
23.9800 835.0000 1.0000
23.9900 855.0000 1.0000
24.0000 822.0000 1.0000
24.0100 837.0000 1.0000
24.0200 833.0000 1.0000
24.0300 859.0000 1.0000
24.0400 860.0000 1.0000
24.0500 877.0000 1.0000
24.0600 882.0000 1.0000
24.0700 869.0000 1.0000
24.0800 881.0000 1.0000
24.0900 905.0000 1.0000
24.1000 861.0000 1.0000
24.1100 866.0000 1.0000
24.1200 856.0000 1.0000
24.1300 861.0000 1.0000
24.1400 848.0000 1.0000
24.1500 805.0000 1.0000
24.1600 802.0000 1.0000
24.1700 773.0000 1.0000
24.1800 802.0000 1.0000
24.1900 776.0000 1.0000
24.2000 786.0000 1.0000
24.2100 788.0000 1.0000
24.2200 794.0000 1.0000
24.2300 780.0000 1.0000
24.2400 776.0000 1.0000
24.2500 734.0000 1.0000
24.2600 726.0000 1.0000
24.2700 775.0000 1.0000
24.2800 752.0000 1.0000
24.2900 732.0000 1.0000
24.3000 714.0000 1.0000
24.3100 729.0000 1.0000
24.3200 723.0000 1.0000
24.3300 740.0000 1.0000
24.3400 703.0000 1.0000
24.3500 729.0000 1.0000
24.3600 764.0000 1.0000
24.3700 695.0000 1.0000
24.3800 706.0000 1.0000
24.3900 753.0000 1.0000
24.4000 723.0000 1.0000
24.4100 747.0000 1.0000
24.4200 779.0000 1.0000
24.4300 710.0000 1.0000
24.4400 711.0000 1.0000
24.4500 744.0000 1.0000
24.4600 721.0000 1.0000
24.4700 720.0000 1.0000
24.4800 745.0000 1.0000
24.4900 760.0000 1.0000
24.5000 716.0000 1.0000
24.5100 681.0000 1.0000
24.5200 745.0000 1.0000
24.5300 701.0000 1.0000
24.5400 713.0000 1.0000
24.5500 723.0000 1.0000
24.5600 729.0000 1.0000
24.5700 659.0000 1.0000
24.5800 687.0000 1.0000
24.5900 722.0000 1.0000
24.6000 698.0000 1.0000
24.6100 689.0000 1.0000
24.6200 741.0000 1.0000
24.6300 759.0000 1.0000
24.6400 684.0000 1.0000
24.6500 689.0000 1.0000
24.6600 723.0000 1.0000
24.6700 685.0000 1.0000
24.6800 722.0000 1.0000
24.6900 702.0000 1.0000
24.7000 732.0000 1.0000
24.7100 699.0000 1.0000
24.7200 730.0000 1.0000
24.7300 737.0000 1.0000
24.7400 719.0000 1.0000
24.7500 723.0000 1.0000
24.7600 717.0000 1.0000
24.7700 689.0000 1.0000
24.7800 723.0000 1.0000
24.7900 705.0000 1.0000
24.8000 703.0000 1.0000
24.8100 742.0000 1.0000
24.8200 658.0000 1.0000
24.8300 689.0000 1.0000
24.8400 711.0000 1.0000
24.8500 729.0000 1.0000
24.8600 724.0000 1.0000
24.8700 716.0000 1.0000
24.8800 730.0000 1.0000
24.8900 680.0000 1.0000
24.9000 707.0000 1.0000
24.9100 664.0000 1.0000
24.9200 680.0000 1.0000
24.9300 710.0000 1.0000
24.9400 716.0000 1.0000
24.9500 712.0000 1.0000
24.9600 675.0000 1.0000
24.9700 701.0000 1.0000
24.9800 755.0000 1.0000
24.9900 754.0000 1.0000
25.0000 722.0000 1.0000
25.0100 700.0000 1.0000
25.0200 766.0000 1.0000
25.0300 675.0000 1.0000
25.0400 665.0000 1.0000
25.0500 685.0000 1.0000
25.0600 699.0000 1.0000
25.0700 764.0000 1.0000
25.0800 711.0000 1.0000
25.0900 720.0000 1.0000
25.1000 681.0000 1.0000
25.1100 676.0000 1.0000
25.1200 699.0000 1.0000
25.1300 695.0000 1.0000
25.1400 715.0000 1.0000
25.1500 711.0000 1.0000
25.1600 740.0000 1.0000
25.1700 701.0000 1.0000
25.1800 696.0000 1.0000
25.1900 717.0000 1.0000
25.2000 710.0000 1.0000
25.2100 690.0000 1.0000
25.2200 685.0000 1.0000
25.2300 688.0000 1.0000
25.2400 695.0000 1.0000
25.2500 714.0000 1.0000
25.2600 683.0000 1.0000
25.2700 690.0000 1.0000
25.2800 700.0000 1.0000
25.2900 693.0000 1.0000
25.3000 688.0000 1.0000
25.3100 683.0000 1.0000
25.3200 693.0000 1.0000
25.3300 725.0000 1.0000
25.3400 693.0000 1.0000
25.3500 710.0000 1.0000
25.3600 699.0000 1.0000
25.3700 690.0000 1.0000
25.3800 699.0000 1.0000
25.3900 688.0000 1.0000
25.4000 704.0000 1.0000
25.4100 698.0000 1.0000
25.4200 701.0000 1.0000
25.4300 710.0000 1.0000
25.4400 713.0000 1.0000
25.4500 680.0000 1.0000
25.4600 669.0000 1.0000
25.4700 718.0000 1.0000
25.4800 721.0000 1.0000
25.4900 734.0000 1.0000
25.5000 674.0000 1.0000
25.5100 710.0000 1.0000
25.5200 752.0000 1.0000
25.5300 690.0000 1.0000
25.5400 719.0000 1.0000
25.5500 731.0000 1.0000
25.5600 727.0000 1.0000
25.5700 688.0000 1.0000
25.5800 665.0000 1.0000
25.5900 714.0000 1.0000
25.6000 689.0000 1.0000
25.6100 740.0000 1.0000
25.6200 719.0000 1.0000
25.6300 755.0000 1.0000
25.6400 690.0000 1.0000
25.6500 723.0000 1.0000
25.6600 652.0000 1.0000
25.6700 701.0000 1.0000
25.6800 748.0000 1.0000
25.6900 704.0000 1.0000
25.7000 766.0000 1.0000
25.7100 721.0000 1.0000
25.7200 674.0000 1.0000
25.7300 736.0000 1.0000
25.7400 706.0000 1.0000
25.7500 720.0000 1.0000
25.7600 711.0000 1.0000
25.7700 738.0000 1.0000
25.7800 745.0000 1.0000
25.7900 703.0000 1.0000
25.8000 729.0000 1.0000
25.8100 695.0000 1.0000
25.8200 740.0000 1.0000
25.8300 711.0000 1.0000
25.8400 723.0000 1.0000
25.8500 726.0000 1.0000
25.8600 714.0000 1.0000
25.8700 701.0000 1.0000
25.8800 714.0000 1.0000
25.8900 769.0000 1.0000
25.9000 729.0000 1.0000
25.9100 728.0000 1.0000
25.9200 727.0000 1.0000
25.9300 733.0000 1.0000
25.9400 742.0000 1.0000
25.9500 753.0000 1.0000
25.9600 703.0000 1.0000
25.9700 719.0000 1.0000
25.9800 706.0000 1.0000
25.9900 763.0000 1.0000
26.0000 719.0000 1.0000
26.0100 764.0000 1.0000
26.0200 724.0000 1.0000
26.0300 753.0000 1.0000
26.0400 742.0000 1.0000
26.0500 756.0000 1.0000
26.0600 745.0000 1.0000
26.0700 791.0000 1.0000
26.0800 761.0000 1.0000
26.0900 771.0000 1.0000
26.1000 755.0000 1.0000
26.1100 784.0000 1.0000
26.1200 830.0000 1.0000
26.1300 803.0000 1.0000
26.1400 791.0000 1.0000
26.1500 774.0000 1.0000
26.1600 871.0000 1.0000
26.1700 854.0000 1.0000
26.1800 816.0000 1.0000
26.1900 878.0000 1.0000
26.2000 858.0000 1.0000
26.2100 892.0000 1.0000
26.2200 908.0000 1.0000
26.2300 911.0000 1.0000
26.2400 890.0000 1.0000
26.2500 969.0000 1.0000
26.2600 936.0000 1.0000
26.2700 941.0000 1.0000
26.2800 979.0000 1.0000
26.2900 1027.0000 1.0000
26.3000 1025.0000 1.0000
26.3100 1045.0000 1.0000
26.3200 1103.0000 1.0000
26.3300 1098.0000 1.0000
26.3400 1109.0000 1.0000
26.3500 1196.0000 1.0000
26.3600 1171.0000 1.0000
26.3700 1196.0000 1.0000
26.3800 1198.0000 1.0000
26.3900 1284.0000 1.0000
26.4000 1284.0000 1.0000
26.4100 1313.0000 1.0000
26.4200 1349.0000 1.0000
26.4300 1316.0000 1.0000
26.4400 1273.0000 1.0000
26.4500 1278.0000 1.0000
26.4600 1311.0000 1.0000
26.4700 1300.0000 1.0000
26.4800 1242.0000 1.0000
26.4900 1285.0000 1.0000
26.5000 1211.0000 1.0000
26.5100 1246.0000 1.0000
26.5200 1138.0000 1.0000
26.5300 1185.0000 1.0000
26.5400 1145.0000 1.0000
26.5500 1096.0000 1.0000
26.5600 1076.0000 1.0000
26.5700 1052.0000 1.0000
26.5800 1087.0000 1.0000
26.5900 982.0000 1.0000
26.6000 979.0000 1.0000
26.6100 934.0000 1.0000
26.6200 964.0000 1.0000
26.6300 936.0000 1.0000
26.6400 940.0000 1.0000
26.6500 904.0000 1.0000
26.6600 878.0000 1.0000
26.6700 888.0000 1.0000
26.6800 875.0000 1.0000
26.6900 877.0000 1.0000
26.7000 873.0000 1.0000
26.7100 888.0000 1.0000
26.7200 788.0000 1.0000
26.7300 824.0000 1.0000
26.7400 781.0000 1.0000
26.7500 793.0000 1.0000
26.7600 805.0000 1.0000
26.7700 791.0000 1.0000
26.7800 822.0000 1.0000
26.7900 778.0000 1.0000
26.8000 758.0000 1.0000
26.8100 769.0000 1.0000
26.8200 756.0000 1.0000
26.8300 724.0000 1.0000
26.8400 729.0000 1.0000
26.8500 725.0000 1.0000
26.8600 740.0000 1.0000
26.8700 750.0000 1.0000
26.8800 717.0000 1.0000
26.8900 700.0000 1.0000
26.9000 712.0000 1.0000
26.9100 730.0000 1.0000
26.9200 702.0000 1.0000
26.9300 700.0000 1.0000
26.9400 698.0000 1.0000
26.9500 701.0000 1.0000
26.9600 712.0000 1.0000
26.9700 715.0000 1.0000
26.9800 726.0000 1.0000
26.9900 668.0000 1.0000
27.0000 661.0000 1.0000
27.0100 693.0000 1.0000
27.0200 712.0000 1.0000
27.0300 647.0000 1.0000
27.0400 667.0000 1.0000
27.0500 686.0000 1.0000
27.0600 659.0000 1.0000
27.0700 694.0000 1.0000
27.0800 688.0000 1.0000
27.0900 698.0000 1.0000
27.1000 687.0000 1.0000
27.1100 661.0000 1.0000
27.1200 685.0000 1.0000
27.1300 687.0000 1.0000
27.1400 673.0000 1.0000
27.1500 686.0000 1.0000
27.1600 707.0000 1.0000
27.1700 675.0000 1.0000
27.1800 678.0000 1.0000
27.1900 670.0000 1.0000
27.2000 669.0000 1.0000
27.2100 680.0000 1.0000
27.2200 672.0000 1.0000
27.2300 655.0000 1.0000
27.2400 663.0000 1.0000
27.2500 639.0000 1.0000
27.2600 650.0000 1.0000
27.2700 670.0000 1.0000
27.2800 637.0000 1.0000
27.2900 660.0000 1.0000
27.3000 675.0000 1.0000
27.3100 639.0000 1.0000
27.3200 684.0000 1.0000
27.3300 649.0000 1.0000
27.3400 620.0000 1.0000
27.3500 601.0000 1.0000
27.3600 655.0000 1.0000
27.3700 655.0000 1.0000
27.3800 610.0000 1.0000
27.3900 611.0000 1.0000
27.4000 692.0000 1.0000
27.4100 611.0000 1.0000
27.4200 658.0000 1.0000
27.4300 698.0000 1.0000
27.4400 609.0000 1.0000
27.4500 656.0000 1.0000
27.4600 652.0000 1.0000
27.4700 664.0000 1.0000
27.4800 689.0000 1.0000
27.4900 688.0000 1.0000
27.5000 663.0000 1.0000
27.5100 633.0000 1.0000
27.5200 639.0000 1.0000
27.5300 645.0000 1.0000
27.5400 651.0000 1.0000
27.5500 624.0000 1.0000
27.5600 652.0000 1.0000
27.5700 666.0000 1.0000
27.5800 606.0000 1.0000
27.5900 617.0000 1.0000
27.6000 591.0000 1.0000
27.6100 631.0000 1.0000
27.6200 615.0000 1.0000
27.6300 637.0000 1.0000
27.6400 606.0000 1.0000
27.6500 642.0000 1.0000
27.6600 648.0000 1.0000
27.6700 683.0000 1.0000
27.6800 658.0000 1.0000
27.6900 618.0000 1.0000
27.7000 616.0000 1.0000
27.7100 602.0000 1.0000
27.7200 640.0000 1.0000
27.7300 702.0000 1.0000
27.7400 599.0000 1.0000
27.7500 642.0000 1.0000
27.7600 680.0000 1.0000
27.7700 641.0000 1.0000
27.7800 640.0000 1.0000
27.7900 629.0000 1.0000
27.8000 635.0000 1.0000
27.8100 626.0000 1.0000
27.8200 619.0000 1.0000
27.8300 616.0000 1.0000
27.8400 670.0000 1.0000
27.8500 619.0000 1.0000
27.8600 641.0000 1.0000
27.8700 645.0000 1.0000
27.8800 639.0000 1.0000
27.8900 624.0000 1.0000
27.9000 579.0000 1.0000
27.9100 608.0000 1.0000
27.9200 629.0000 1.0000
27.9300 623.0000 1.0000
27.9400 664.0000 1.0000
27.9500 634.0000 1.0000
27.9600 646.0000 1.0000
27.9700 626.0000 1.0000
27.9800 598.0000 1.0000
27.9900 647.0000 1.0000
28.0000 647.0000 1.0000
28.0100 643.0000 1.0000
28.0200 612.0000 1.0000
28.0300 588.0000 1.0000
28.0400 591.0000 1.0000
28.0500 632.0000 1.0000
28.0600 661.0000 1.0000
28.0700 629.0000 1.0000
28.0800 618.0000 1.0000
28.0900 611.0000 1.0000
28.1000 619.0000 1.0000
28.1100 605.0000 1.0000
28.1200 607.0000 1.0000
28.1300 650.0000 1.0000
28.1400 633.0000 1.0000
28.1500 638.0000 1.0000
28.1600 604.0000 1.0000
28.1700 616.0000 1.0000
28.1800 599.0000 1.0000
28.1900 661.0000 1.0000
28.2000 600.0000 1.0000
28.2100 621.0000 1.0000
28.2200 600.0000 1.0000
28.2300 627.0000 1.0000
28.2400 598.0000 1.0000
28.2500 612.0000 1.0000
28.2600 609.0000 1.0000
28.2700 606.0000 1.0000
28.2800 655.0000 1.0000
28.2900 583.0000 1.0000
28.3000 601.0000 1.0000
28.3100 624.0000 1.0000
28.3200 630.0000 1.0000
28.3300 615.0000 1.0000
28.3400 581.0000 1.0000
28.3500 606.0000 1.0000
28.3600 603.0000 1.0000
28.3700 652.0000 1.0000
28.3800 591.0000 1.0000
28.3900 606.0000 1.0000
28.4000 585.0000 1.0000
28.4100 582.0000 1.0000
28.4200 595.0000 1.0000
28.4300 597.0000 1.0000
28.4400 621.0000 1.0000
28.4500 639.0000 1.0000
28.4600 619.0000 1.0000
28.4700 646.0000 1.0000
28.4800 626.0000 1.0000
28.4900 606.0000 1.0000
28.5000 631.0000 1.0000
28.5100 567.0000 1.0000
28.5200 580.0000 1.0000
28.5300 645.0000 1.0000
28.5400 595.0000 1.0000
28.5500 580.0000 1.0000
28.5600 632.0000 1.0000
28.5700 605.0000 1.0000
28.5800 607.0000 1.0000
28.5900 612.0000 1.0000
28.6000 606.0000 1.0000
28.6100 612.0000 1.0000
28.6200 599.0000 1.0000
28.6300 592.0000 1.0000
28.6400 631.0000 1.0000
28.6500 622.0000 1.0000
28.6600 598.0000 1.0000
28.6700 613.0000 1.0000
28.6800 626.0000 1.0000
28.6900 613.0000 1.0000
28.7000 614.0000 1.0000
28.7100 578.0000 1.0000
28.7200 621.0000 1.0000
28.7300 626.0000 1.0000
28.7400 617.0000 1.0000
28.7500 596.0000 1.0000
28.7600 592.0000 1.0000
28.7700 606.0000 1.0000
28.7800 589.0000 1.0000
28.7900 595.0000 1.0000
28.8000 593.0000 1.0000
28.8100 567.0000 1.0000
28.8200 615.0000 1.0000
28.8300 565.0000 1.0000
28.8400 585.0000 1.0000
28.8500 590.0000 1.0000
28.8600 546.0000 1.0000
28.8700 630.0000 1.0000
28.8800 642.0000 1.0000
28.8900 587.0000 1.0000
28.9000 616.0000 1.0000
28.9100 607.0000 1.0000
28.9200 593.0000 1.0000
28.9300 568.0000 1.0000
28.9400 565.0000 1.0000
28.9500 582.0000 1.0000
28.9600 615.0000 1.0000
28.9700 559.0000 1.0000
28.9800 611.0000 1.0000
28.9900 599.0000 1.0000
29.0000 617.0000 1.0000
29.0100 573.0000 1.0000
29.0200 600.0000 1.0000
29.0300 578.0000 1.0000
29.0400 612.0000 1.0000
29.0500 592.0000 1.0000
29.0600 566.0000 1.0000
29.0700 560.0000 1.0000
29.0800 606.0000 1.0000
29.0900 592.0000 1.0000
29.1000 605.0000 1.0000
29.1100 635.0000 1.0000
29.1200 618.0000 1.0000
29.1300 590.0000 1.0000
29.1400 595.0000 1.0000
29.1500 608.0000 1.0000
29.1600 606.0000 1.0000
29.1700 580.0000 1.0000
29.1800 597.0000 1.0000
29.1900 573.0000 1.0000
29.2000 569.0000 1.0000
29.2100 604.0000 1.0000
29.2200 554.0000 1.0000
29.2300 602.0000 1.0000
29.2400 547.0000 1.0000
29.2500 656.0000 1.0000
29.2600 566.0000 1.0000
29.2700 575.0000 1.0000
29.2800 547.0000 1.0000
29.2900 591.0000 1.0000
29.3000 598.0000 1.0000
29.3100 584.0000 1.0000
29.3200 549.0000 1.0000
29.3300 565.0000 1.0000
29.3400 599.0000 1.0000
29.3500 616.0000 1.0000
29.3600 583.0000 1.0000
29.3700 558.0000 1.0000
29.3800 558.0000 1.0000
29.3900 574.0000 1.0000
29.4000 605.0000 1.0000
29.4100 596.0000 1.0000
29.4200 597.0000 1.0000
29.4300 605.0000 1.0000
29.4400 562.0000 1.0000
29.4500 562.0000 1.0000
29.4600 594.0000 1.0000
29.4700 554.0000 1.0000
29.4800 592.0000 1.0000
29.4900 593.0000 1.0000
29.5000 605.0000 1.0000
29.5100 583.0000 1.0000
29.5200 611.0000 1.0000
29.5300 592.0000 1.0000
29.5400 573.0000 1.0000
29.5500 586.0000 1.0000
29.5600 593.0000 1.0000
29.5700 579.0000 1.0000
29.5800 589.0000 1.0000
29.5900 571.0000 1.0000
29.6000 557.0000 1.0000
29.6100 590.0000 1.0000
29.6200 600.0000 1.0000
29.6300 602.0000 1.0000
29.6400 587.0000 1.0000
29.6500 609.0000 1.0000
29.6600 606.0000 1.0000
29.6700 583.0000 1.0000
29.6800 552.0000 1.0000
29.6900 616.0000 1.0000
29.7000 568.0000 1.0000
29.7100 543.0000 1.0000
29.7200 564.0000 1.0000
29.7300 584.0000 1.0000
29.7400 634.0000 1.0000
29.7500 581.0000 1.0000
29.7600 614.0000 1.0000
29.7700 576.0000 1.0000
29.7800 580.0000 1.0000
29.7900 561.0000 1.0000
29.8000 553.0000 1.0000
29.8100 590.0000 1.0000
29.8200 599.0000 1.0000
29.8300 563.0000 1.0000
29.8400 548.0000 1.0000
29.8500 569.0000 1.0000
29.8600 581.0000 1.0000
29.8700 573.0000 1.0000
29.8800 566.0000 1.0000
29.8900 582.0000 1.0000
29.9000 589.0000 1.0000
29.9100 564.0000 1.0000
29.9200 600.0000 1.0000
29.9300 598.0000 1.0000
29.9400 578.0000 1.0000
29.9500 558.0000 1.0000
29.9600 545.0000 1.0000
29.9700 553.0000 1.0000
29.9800 537.0000 1.0000
29.9900 574.0000 1.0000
30.0000 555.0000 1.0000
30.0100 586.0000 1.0000
30.0200 557.0000 1.0000
30.0300 585.0000 1.0000
30.0400 577.0000 1.0000
30.0500 587.0000 1.0000
30.0600 576.0000 1.0000
30.0700 553.0000 1.0000
30.0800 602.0000 1.0000
30.0900 599.0000 1.0000
30.1000 597.0000 1.0000
30.1100 595.0000 1.0000
30.1200 560.0000 1.0000
30.1300 577.0000 1.0000
30.1400 595.0000 1.0000
30.1500 539.0000 1.0000
30.1600 590.0000 1.0000
30.1700 559.0000 1.0000
30.1800 612.0000 1.0000
30.1900 570.0000 1.0000
30.2000 573.0000 1.0000
30.2100 551.0000 1.0000
30.2200 550.0000 1.0000
30.2300 553.0000 1.0000
30.2400 564.0000 1.0000
30.2500 524.0000 1.0000
30.2600 571.0000 1.0000
30.2700 563.0000 1.0000
30.2800 531.0000 1.0000
30.2900 552.0000 1.0000
30.3000 560.0000 1.0000
30.3100 591.0000 1.0000
30.3200 563.0000 1.0000
30.3300 568.0000 1.0000
30.3400 610.0000 1.0000
30.3500 549.0000 1.0000
30.3600 550.0000 1.0000
30.3700 602.0000 1.0000
30.3800 559.0000 1.0000
30.3900 584.0000 1.0000
30.4000 526.0000 1.0000
30.4100 572.0000 1.0000
30.4200 565.0000 1.0000
30.4300 572.0000 1.0000
30.4400 602.0000 1.0000
30.4500 544.0000 1.0000
30.4600 516.0000 1.0000
30.4700 579.0000 1.0000
30.4800 547.0000 1.0000
30.4900 516.0000 1.0000
30.5000 559.0000 1.0000
30.5100 553.0000 1.0000
30.5200 590.0000 1.0000
30.5300 558.0000 1.0000
30.5400 561.0000 1.0000
30.5500 597.0000 1.0000
30.5600 610.0000 1.0000
30.5700 589.0000 1.0000
30.5800 585.0000 1.0000
30.5900 575.0000 1.0000
30.6000 566.0000 1.0000
30.6100 545.0000 1.0000
30.6200 559.0000 1.0000
30.6300 536.0000 1.0000
30.6400 560.0000 1.0000
30.6500 551.0000 1.0000
30.6600 557.0000 1.0000
30.6700 544.0000 1.0000
30.6800 539.0000 1.0000
30.6900 523.0000 1.0000
30.7000 585.0000 1.0000
30.7100 599.0000 1.0000
30.7200 561.0000 1.0000
30.7300 549.0000 1.0000
30.7400 546.0000 1.0000
30.7500 544.0000 1.0000
30.7600 560.0000 1.0000
30.7700 569.0000 1.0000
30.7800 550.0000 1.0000
30.7900 568.0000 1.0000
30.8000 531.0000 1.0000
30.8100 556.0000 1.0000
30.8200 532.0000 1.0000
30.8300 582.0000 1.0000
30.8400 513.0000 1.0000
30.8500 532.0000 1.0000
30.8600 539.0000 1.0000
30.8700 536.0000 1.0000
30.8800 571.0000 1.0000
30.8900 553.0000 1.0000
30.9000 570.0000 1.0000
30.9100 572.0000 1.0000
30.9200 590.0000 1.0000
30.9300 524.0000 1.0000
30.9400 550.0000 1.0000
30.9500 561.0000 1.0000
30.9600 600.0000 1.0000
30.9700 607.0000 1.0000
30.9800 537.0000 1.0000
30.9900 513.0000 1.0000
31.0000 560.0000 1.0000
31.0100 555.0000 1.0000
31.0200 563.0000 1.0000
31.0300 532.0000 1.0000
31.0400 556.0000 1.0000
31.0500 553.0000 1.0000
31.0600 576.0000 1.0000
31.0700 581.0000 1.0000
31.0800 560.0000 1.0000
31.0900 568.0000 1.0000
31.1000 576.0000 1.0000
31.1100 559.0000 1.0000
31.1200 588.0000 1.0000
31.1300 568.0000 1.0000
31.1400 583.0000 1.0000
31.1500 565.0000 1.0000
31.1600 602.0000 1.0000
31.1700 543.0000 1.0000
31.1800 563.0000 1.0000
31.1900 540.0000 1.0000
31.2000 547.0000 1.0000
31.2100 549.0000 1.0000
31.2200 586.0000 1.0000
31.2300 531.0000 1.0000
31.2400 542.0000 1.0000
31.2500 564.0000 1.0000
31.2600 595.0000 1.0000
31.2700 549.0000 1.0000
31.2800 546.0000 1.0000
31.2900 550.0000 1.0000
31.3000 565.0000 1.0000
31.3100 606.0000 1.0000
31.3200 576.0000 1.0000
31.3300 534.0000 1.0000
31.3400 575.0000 1.0000
31.3500 570.0000 1.0000
31.3600 592.0000 1.0000
31.3700 550.0000 1.0000
31.3800 558.0000 1.0000
31.3900 538.0000 1.0000
31.4000 543.0000 1.0000
31.4100 539.0000 1.0000
31.4200 562.0000 1.0000
31.4300 542.0000 1.0000
31.4400 564.0000 1.0000
31.4500 514.0000 1.0000
31.4600 541.0000 1.0000
31.4700 544.0000 1.0000
31.4800 562.0000 1.0000
31.4900 569.0000 1.0000
31.5000 587.0000 1.0000
31.5100 596.0000 1.0000
31.5200 559.0000 1.0000
31.5300 528.0000 1.0000
31.5400 534.0000 1.0000
31.5500 528.0000 1.0000
31.5600 547.0000 1.0000
31.5700 541.0000 1.0000
31.5800 546.0000 1.0000
31.5900 506.0000 1.0000
31.6000 544.0000 1.0000
31.6100 588.0000 1.0000
31.6200 571.0000 1.0000
31.6300 529.0000 1.0000
31.6400 516.0000 1.0000
31.6500 546.0000 1.0000
31.6600 535.0000 1.0000
31.6700 577.0000 1.0000
31.6800 524.0000 1.0000
31.6900 538.0000 1.0000
31.7000 562.0000 1.0000
31.7100 547.0000 1.0000
31.7200 550.0000 1.0000
31.7300 504.0000 1.0000
31.7400 524.0000 1.0000
31.7500 574.0000 1.0000
31.7600 545.0000 1.0000
31.7700 543.0000 1.0000
31.7800 575.0000 1.0000
31.7900 549.0000 1.0000
31.8000 518.0000 1.0000
31.8100 522.0000 1.0000
31.8200 556.0000 1.0000
31.8300 550.0000 1.0000
31.8400 536.0000 1.0000
31.8500 542.0000 1.0000
31.8600 506.0000 1.0000
31.8700 588.0000 1.0000
31.8800 546.0000 1.0000
31.8900 539.0000 1.0000
31.9000 477.0000 1.0000
31.9100 513.0000 1.0000
31.9200 568.0000 1.0000
31.9300 545.0000 1.0000
31.9400 551.0000 1.0000
31.9500 567.0000 1.0000
31.9600 524.0000 1.0000
31.9700 505.0000 1.0000
31.9800 546.0000 1.0000
31.9900 548.0000 1.0000
32.0000 537.0000 1.0000
32.0100 530.0000 1.0000
32.0200 530.0000 1.0000
32.0300 546.0000 1.0000
32.0400 553.0000 1.0000
32.0500 517.0000 1.0000
32.0600 523.0000 1.0000
32.0700 516.0000 1.0000
32.0800 518.0000 1.0000
32.0900 525.0000 1.0000
32.1000 526.0000 1.0000
32.1100 515.0000 1.0000
32.1200 541.0000 1.0000
32.1300 547.0000 1.0000
32.1400 513.0000 1.0000
32.1500 525.0000 1.0000
32.1600 550.0000 1.0000
32.1700 545.0000 1.0000
32.1800 571.0000 1.0000
32.1900 545.0000 1.0000
32.2000 543.0000 1.0000
32.2100 539.0000 1.0000
32.2200 558.0000 1.0000
32.2300 541.0000 1.0000
32.2400 502.0000 1.0000
32.2500 517.0000 1.0000
32.2600 513.0000 1.0000
32.2700 550.0000 1.0000
32.2800 532.0000 1.0000
32.2900 518.0000 1.0000
32.3000 538.0000 1.0000
32.3100 524.0000 1.0000
32.3200 534.0000 1.0000
32.3300 509.0000 1.0000
32.3400 519.0000 1.0000
32.3500 526.0000 1.0000
32.3600 510.0000 1.0000
32.3700 538.0000 1.0000
32.3800 546.0000 1.0000
32.3900 526.0000 1.0000
32.4000 530.0000 1.0000
32.4100 537.0000 1.0000
32.4200 503.0000 1.0000
32.4300 482.0000 1.0000
32.4400 527.0000 1.0000
32.4500 516.0000 1.0000
32.4600 547.0000 1.0000
32.4700 518.0000 1.0000
32.4800 511.0000 1.0000
32.4900 505.0000 1.0000
32.5000 508.0000 1.0000
32.5100 508.0000 1.0000
32.5200 509.0000 1.0000
32.5300 539.0000 1.0000
32.5400 531.0000 1.0000
32.5500 552.0000 1.0000
32.5600 528.0000 1.0000
32.5700 531.0000 1.0000
32.5800 490.0000 1.0000
32.5900 536.0000 1.0000
32.6000 566.0000 1.0000
32.6100 572.0000 1.0000
32.6200 538.0000 1.0000
32.6300 529.0000 1.0000
32.6400 530.0000 1.0000
32.6500 551.0000 1.0000
32.6600 544.0000 1.0000
32.6700 530.0000 1.0000
32.6800 564.0000 1.0000
32.6900 559.0000 1.0000
32.7000 525.0000 1.0000
32.7100 534.0000 1.0000
32.7200 541.0000 1.0000
32.7300 513.0000 1.0000
32.7400 483.0000 1.0000
32.7500 553.0000 1.0000
32.7600 519.0000 1.0000
32.7700 526.0000 1.0000
32.7800 561.0000 1.0000
32.7900 495.0000 1.0000
32.8000 537.0000 1.0000
32.8100 506.0000 1.0000
32.8200 523.0000 1.0000
32.8300 546.0000 1.0000
32.8400 535.0000 1.0000
32.8500 495.0000 1.0000
32.8600 546.0000 1.0000
32.8700 558.0000 1.0000
32.8800 565.0000 1.0000
32.8900 545.0000 1.0000
32.9000 552.0000 1.0000
32.9100 563.0000 1.0000
32.9200 548.0000 1.0000
32.9300 583.0000 1.0000
32.9400 607.0000 1.0000
32.9500 594.0000 1.0000
32.9600 610.0000 1.0000
32.9700 611.0000 1.0000
32.9800 604.0000 1.0000
32.9900 617.0000 1.0000
33.0000 636.0000 1.0000
33.0100 632.0000 1.0000
33.0200 663.0000 1.0000
33.0300 681.0000 1.0000
33.0400 679.0000 1.0000
33.0500 699.0000 1.0000
33.0600 722.0000 1.0000
33.0700 728.0000 1.0000
33.0800 715.0000 1.0000
33.0900 773.0000 1.0000
33.1000 707.0000 1.0000
33.1100 736.0000 1.0000
33.1200 677.0000 1.0000
33.1300 714.0000 1.0000
33.1400 719.0000 1.0000
33.1500 737.0000 1.0000
33.1600 710.0000 1.0000
33.1700 691.0000 1.0000
33.1800 690.0000 1.0000
33.1900 678.0000 1.0000
33.2000 659.0000 1.0000
33.2100 699.0000 1.0000
33.2200 673.0000 1.0000
33.2300 655.0000 1.0000
33.2400 628.0000 1.0000
33.2500 595.0000 1.0000
33.2600 598.0000 1.0000
33.2700 621.0000 1.0000
33.2800 609.0000 1.0000
33.2900 548.0000 1.0000
33.3000 567.0000 1.0000
33.3100 558.0000 1.0000
33.3200 559.0000 1.0000
33.3300 612.0000 1.0000
33.3400 573.0000 1.0000
33.3500 566.0000 1.0000
33.3600 580.0000 1.0000
33.3700 552.0000 1.0000
33.3800 575.0000 1.0000
33.3900 614.0000 1.0000
33.4000 594.0000 1.0000
33.4100 561.0000 1.0000
33.4200 565.0000 1.0000
33.4300 541.0000 1.0000
33.4400 579.0000 1.0000
33.4500 542.0000 1.0000
33.4600 570.0000 1.0000
33.4700 607.0000 1.0000
33.4800 639.0000 1.0000
33.4900 590.0000 1.0000
33.5000 579.0000 1.0000
33.5100 606.0000 1.0000
33.5200 659.0000 1.0000
33.5300 668.0000 1.0000
33.5400 630.0000 1.0000
33.5500 640.0000 1.0000
33.5600 654.0000 1.0000
33.5700 625.0000 1.0000
33.5800 642.0000 1.0000
33.5900 695.0000 1.0000
33.6000 662.0000 1.0000
33.6100 654.0000 1.0000
33.6200 664.0000 1.0000
33.6300 692.0000 1.0000
33.6400 694.0000 1.0000
33.6500 667.0000 1.0000
33.6600 681.0000 1.0000
33.6700 693.0000 1.0000
33.6800 698.0000 1.0000
33.6900 664.0000 1.0000
33.7000 632.0000 1.0000
33.7100 691.0000 1.0000
33.7200 640.0000 1.0000
33.7300 663.0000 1.0000
33.7400 669.0000 1.0000
33.7500 667.0000 1.0000
33.7600 681.0000 1.0000
33.7700 614.0000 1.0000
33.7800 624.0000 1.0000
33.7900 624.0000 1.0000
33.8000 602.0000 1.0000
33.8100 636.0000 1.0000
33.8200 636.0000 1.0000
33.8300 632.0000 1.0000
33.8400 578.0000 1.0000
33.8500 609.0000 1.0000
33.8600 591.0000 1.0000
33.8700 598.0000 1.0000
33.8800 551.0000 1.0000
33.8900 587.0000 1.0000
33.9000 607.0000 1.0000
33.9100 604.0000 1.0000
33.9200 580.0000 1.0000
33.9300 561.0000 1.0000
33.9400 557.0000 1.0000
33.9500 520.0000 1.0000
33.9600 562.0000 1.0000
33.9700 551.0000 1.0000
33.9800 560.0000 1.0000
33.9900 534.0000 1.0000
34.0000 553.0000 1.0000
34.0100 508.0000 1.0000
34.0200 536.0000 1.0000
34.0300 559.0000 1.0000
34.0400 548.0000 1.0000
34.0500 501.0000 1.0000
34.0600 517.0000 1.0000
34.0700 542.0000 1.0000
34.0800 518.0000 1.0000
34.0900 514.0000 1.0000
34.1000 474.0000 1.0000
34.1100 521.0000 1.0000
34.1200 534.0000 1.0000
34.1300 469.0000 1.0000
34.1400 509.0000 1.0000
34.1500 507.0000 1.0000
34.1600 502.0000 1.0000
34.1700 482.0000 1.0000
34.1800 491.0000 1.0000
34.1900 511.0000 1.0000
34.2000 535.0000 1.0000
34.2100 517.0000 1.0000
34.2200 521.0000 1.0000
34.2300 499.0000 1.0000
34.2400 478.0000 1.0000
34.2500 463.0000 1.0000
34.2600 485.0000 1.0000
34.2700 466.0000 1.0000
34.2800 458.0000 1.0000
34.2900 495.0000 1.0000
34.3000 512.0000 1.0000
34.3100 485.0000 1.0000
34.3200 462.0000 1.0000
34.3300 476.0000 1.0000
34.3400 469.0000 1.0000
34.3500 490.0000 1.0000
34.3600 474.0000 1.0000
34.3700 503.0000 1.0000
34.3800 481.0000 1.0000
34.3900 485.0000 1.0000
34.4000 495.0000 1.0000
34.4100 472.0000 1.0000
34.4200 450.0000 1.0000
34.4300 510.0000 1.0000
34.4400 467.0000 1.0000
34.4500 447.0000 1.0000
34.4600 484.0000 1.0000
34.4700 456.0000 1.0000
34.4800 462.0000 1.0000
34.4900 475.0000 1.0000
34.5000 486.0000 1.0000
34.5100 473.0000 1.0000
34.5200 470.0000 1.0000
34.5300 468.0000 1.0000
34.5400 471.0000 1.0000
34.5500 470.0000 1.0000
34.5600 461.0000 1.0000
34.5700 450.0000 1.0000
34.5800 439.0000 1.0000
34.5900 458.0000 1.0000
34.6000 468.0000 1.0000
34.6100 447.0000 1.0000
34.6200 475.0000 1.0000
34.6300 445.0000 1.0000
34.6400 474.0000 1.0000
34.6500 459.0000 1.0000
34.6600 485.0000 1.0000
34.6700 459.0000 1.0000
34.6800 468.0000 1.0000
34.6900 470.0000 1.0000
34.7000 507.0000 1.0000
34.7100 464.0000 1.0000
34.7200 451.0000 1.0000
34.7300 465.0000 1.0000
34.7400 518.0000 1.0000
34.7500 481.0000 1.0000
34.7600 466.0000 1.0000
34.7700 478.0000 1.0000
34.7800 490.0000 1.0000
34.7900 455.0000 1.0000
34.8000 481.0000 1.0000
34.8100 466.0000 1.0000
34.8200 444.0000 1.0000
34.8300 492.0000 1.0000
34.8400 449.0000 1.0000
34.8500 438.0000 1.0000
34.8600 464.0000 1.0000
34.8700 462.0000 1.0000
34.8800 473.0000 1.0000
34.8900 462.0000 1.0000
34.9000 464.0000 1.0000
34.9100 485.0000 1.0000
34.9200 451.0000 1.0000
34.9300 460.0000 1.0000
34.9400 476.0000 1.0000
34.9500 485.0000 1.0000
34.9600 483.0000 1.0000
34.9700 457.0000 1.0000
34.9800 476.0000 1.0000
34.9900 481.0000 1.0000
35.0000 481.0000 1.0000
35.0100 469.0000 1.0000
35.0200 477.0000 1.0000
35.0300 473.0000 1.0000
35.0400 460.0000 1.0000
35.0500 450.0000 1.0000
35.0600 482.0000 1.0000
35.0700 444.0000 1.0000
35.0800 481.0000 1.0000
35.0900 481.0000 1.0000
35.1000 476.0000 1.0000
35.1100 461.0000 1.0000
35.1200 496.0000 1.0000
35.1300 475.0000 1.0000
35.1400 491.0000 1.0000
35.1500 458.0000 1.0000
35.1600 443.0000 1.0000
35.1700 449.0000 1.0000
35.1800 495.0000 1.0000
35.1900 518.0000 1.0000
35.2000 498.0000 1.0000
35.2100 505.0000 1.0000
35.2200 488.0000 1.0000
35.2300 514.0000 1.0000
35.2400 491.0000 1.0000
35.2500 476.0000 1.0000
35.2600 486.0000 1.0000
35.2700 539.0000 1.0000
35.2800 500.0000 1.0000
35.2900 493.0000 1.0000
35.3000 489.0000 1.0000
35.3100 513.0000 1.0000
35.3200 535.0000 1.0000
35.3300 521.0000 1.0000
35.3400 519.0000 1.0000
35.3500 574.0000 1.0000
35.3600 598.0000 1.0000
35.3700 575.0000 1.0000
35.3800 610.0000 1.0000
35.3900 549.0000 1.0000
35.4000 617.0000 1.0000
35.4100 664.0000 1.0000
35.4200 649.0000 1.0000
35.4300 643.0000 1.0000
35.4400 702.0000 1.0000
35.4500 754.0000 1.0000
35.4600 770.0000 1.0000
35.4700 798.0000 1.0000
35.4800 823.0000 1.0000
35.4900 879.0000 1.0000
35.5000 887.0000 1.0000
35.5100 946.0000 1.0000
35.5200 939.0000 1.0000
35.5300 997.0000 1.0000
35.5400 988.0000 1.0000
35.5500 1027.0000 1.0000
35.5600 1051.0000 1.0000
35.5700 1086.0000 1.0000
35.5800 1081.0000 1.0000
35.5900 1060.0000 1.0000
35.6000 1044.0000 1.0000
35.6100 1040.0000 1.0000
35.6200 985.0000 1.0000
35.6300 1011.0000 1.0000
35.6400 959.0000 1.0000
35.6500 926.0000 1.0000
35.6600 889.0000 1.0000
35.6700 865.0000 1.0000
35.6800 838.0000 1.0000
35.6900 779.0000 1.0000
35.7000 785.0000 1.0000
35.7100 793.0000 1.0000
35.7200 728.0000 1.0000
35.7300 699.0000 1.0000
35.7400 664.0000 1.0000
35.7500 637.0000 1.0000
35.7600 599.0000 1.0000
35.7700 585.0000 1.0000
35.7800 579.0000 1.0000
35.7900 574.0000 1.0000
35.8000 561.0000 1.0000
35.8100 530.0000 1.0000
35.8200 519.0000 1.0000
35.8300 516.0000 1.0000
35.8400 520.0000 1.0000
35.8500 506.0000 1.0000
35.8600 476.0000 1.0000
35.8700 455.0000 1.0000
35.8800 479.0000 1.0000
35.8900 477.0000 1.0000
35.9000 444.0000 1.0000
35.9100 450.0000 1.0000
35.9200 474.0000 1.0000
35.9300 459.0000 1.0000
35.9400 457.0000 1.0000
35.9500 442.0000 1.0000
35.9600 427.0000 1.0000
35.9700 445.0000 1.0000
35.9800 437.0000 1.0000
35.9900 448.0000 1.0000
36.0000 448.0000 1.0000
36.0100 470.0000 1.0000
36.0200 427.0000 1.0000
36.0300 424.0000 1.0000
36.0400 434.0000 1.0000
36.0500 439.0000 1.0000
36.0600 409.0000 1.0000
36.0700 437.0000 1.0000
36.0800 456.0000 1.0000
36.0900 436.0000 1.0000
36.1000 436.0000 1.0000
36.1100 447.0000 1.0000
36.1200 447.0000 1.0000
36.1300 433.0000 1.0000
36.1400 429.0000 1.0000
36.1500 452.0000 1.0000
36.1600 396.0000 1.0000
36.1700 454.0000 1.0000
36.1800 403.0000 1.0000
36.1900 412.0000 1.0000
36.2000 409.0000 1.0000
36.2100 433.0000 1.0000
36.2200 430.0000 1.0000
36.2300 439.0000 1.0000
36.2400 434.0000 1.0000
36.2500 390.0000 1.0000
36.2600 449.0000 1.0000
36.2700 441.0000 1.0000
36.2800 459.0000 1.0000
36.2900 420.0000 1.0000
36.3000 449.0000 1.0000
36.3100 447.0000 1.0000
36.3200 405.0000 1.0000
36.3300 427.0000 1.0000
36.3400 406.0000 1.0000
36.3500 413.0000 1.0000
36.3600 455.0000 1.0000
36.3700 430.0000 1.0000
36.3800 416.0000 1.0000
36.3900 422.0000 1.0000
36.4000 447.0000 1.0000
36.4100 495.0000 1.0000
36.4200 432.0000 1.0000
36.4300 426.0000 1.0000
36.4400 443.0000 1.0000
36.4500 442.0000 1.0000
36.4600 425.0000 1.0000
36.4700 413.0000 1.0000
36.4800 455.0000 1.0000
36.4900 468.0000 1.0000
36.5000 413.0000 1.0000
36.5100 423.0000 1.0000
36.5200 440.0000 1.0000
36.5300 433.0000 1.0000
36.5400 442.0000 1.0000
36.5500 428.0000 1.0000
36.5600 422.0000 1.0000
36.5700 439.0000 1.0000
36.5800 430.0000 1.0000
36.5900 447.0000 1.0000
36.6000 454.0000 1.0000
36.6100 425.0000 1.0000
36.6200 416.0000 1.0000
36.6300 440.0000 1.0000
36.6400 443.0000 1.0000
36.6500 411.0000 1.0000
36.6600 410.0000 1.0000
36.6700 451.0000 1.0000
36.6800 445.0000 1.0000
36.6900 424.0000 1.0000
36.7000 437.0000 1.0000
36.7100 435.0000 1.0000
36.7200 438.0000 1.0000
36.7300 448.0000 1.0000
36.7400 457.0000 1.0000
36.7500 464.0000 1.0000
36.7600 451.0000 1.0000
36.7700 426.0000 1.0000
36.7800 424.0000 1.0000
36.7900 433.0000 1.0000
36.8000 450.0000 1.0000
36.8100 445.0000 1.0000
36.8200 445.0000 1.0000
36.8300 430.0000 1.0000
36.8400 438.0000 1.0000
36.8500 425.0000 1.0000
36.8600 448.0000 1.0000
36.8700 407.0000 1.0000
36.8800 437.0000 1.0000
36.8900 450.0000 1.0000
36.9000 448.0000 1.0000
36.9100 482.0000 1.0000
36.9200 418.0000 1.0000
36.9300 445.0000 1.0000
36.9400 433.0000 1.0000
36.9500 447.0000 1.0000
36.9600 458.0000 1.0000
36.9700 457.0000 1.0000
36.9800 439.0000 1.0000
36.9900 454.0000 1.0000
37.0000 465.0000 1.0000
37.0100 475.0000 1.0000
37.0200 482.0000 1.0000
37.0300 485.0000 1.0000
37.0400 469.0000 1.0000
37.0500 448.0000 1.0000
37.0600 491.0000 1.0000
37.0700 460.0000 1.0000
37.0800 470.0000 1.0000
37.0900 453.0000 1.0000
37.1000 470.0000 1.0000
37.1100 435.0000 1.0000
37.1200 448.0000 1.0000
37.1300 462.0000 1.0000
37.1400 446.0000 1.0000
37.1500 456.0000 1.0000
37.1600 459.0000 1.0000
37.1700 484.0000 1.0000
37.1800 515.0000 1.0000
37.1900 474.0000 1.0000
37.2000 497.0000 1.0000
37.2100 506.0000 1.0000
37.2200 529.0000 1.0000
37.2300 509.0000 1.0000
37.2400 495.0000 1.0000
37.2500 496.0000 1.0000
37.2600 491.0000 1.0000
37.2700 552.0000 1.0000
37.2800 526.0000 1.0000
37.2900 533.0000 1.0000
37.3000 549.0000 1.0000
37.3100 563.0000 1.0000
37.3200 541.0000 1.0000
37.3300 528.0000 1.0000
37.3400 539.0000 1.0000
37.3500 599.0000 1.0000
37.3600 591.0000 1.0000
37.3700 597.0000 1.0000
37.3800 606.0000 1.0000
37.3900 638.0000 1.0000
37.4000 668.0000 1.0000
37.4100 653.0000 1.0000
37.4200 719.0000 1.0000
37.4300 720.0000 1.0000
37.4400 717.0000 1.0000
37.4500 731.0000 1.0000
37.4600 813.0000 1.0000
37.4700 840.0000 1.0000
37.4800 888.0000 1.0000
37.4900 908.0000 1.0000
37.5000 926.0000 1.0000
37.5100 1005.0000 1.0000
37.5200 1064.0000 1.0000
37.5300 1074.0000 1.0000
37.5400 1158.0000 1.0000
37.5500 1161.0000 1.0000
37.5600 1260.0000 1.0000
37.5700 1340.0000 1.0000
37.5800 1388.0000 1.0000
37.5900 1437.0000 1.0000
37.6000 1544.0000 1.0000
37.6100 1707.0000 1.0000
37.6200 1800.0000 1.0000
37.6300 1865.0000 1.0000
37.6400 2051.0000 1.0000
37.6500 2119.0000 1.0000
37.6600 2158.0000 1.0000
37.6700 2345.0000 1.0000
37.6800 2423.0000 1.0000
37.6900 2534.0000 1.0000
37.7000 2603.0000 1.0000
37.7100 2605.0000 1.0000
37.7200 2695.0000 1.0000
37.7300 2694.0000 1.0000
37.7400 2683.0000 1.0000
37.7500 2661.0000 1.0000
37.7600 2724.0000 1.0000
37.7700 2643.0000 1.0000
37.7800 2482.0000 1.0000
37.7900 2459.0000 1.0000
37.8000 2377.0000 1.0000
37.8100 2345.0000 1.0000
37.8200 2191.0000 1.0000
37.8300 2124.0000 1.0000
37.8400 1989.0000 1.0000
37.8500 1875.0000 1.0000
37.8600 1825.0000 1.0000
37.8700 1673.0000 1.0000
37.8800 1490.0000 1.0000
37.8900 1488.0000 1.0000
37.9000 1373.0000 1.0000
37.9100 1297.0000 1.0000
37.9200 1233.0000 1.0000
37.9300 1122.0000 1.0000
37.9400 1047.0000 1.0000
37.9500 1038.0000 1.0000
37.9600 1016.0000 1.0000
37.9700 966.0000 1.0000
37.9800 906.0000 1.0000
37.9900 859.0000 1.0000
38.0000 809.0000 1.0000
38.0100 805.0000 1.0000
38.0200 775.0000 1.0000
38.0300 718.0000 1.0000
38.0400 687.0000 1.0000
38.0500 643.0000 1.0000
38.0600 638.0000 1.0000
38.0700 612.0000 1.0000
38.0800 599.0000 1.0000
38.0900 603.0000 1.0000
38.1000 575.0000 1.0000
38.1100 571.0000 1.0000
38.1200 568.0000 1.0000
38.1300 514.0000 1.0000
38.1400 583.0000 1.0000
38.1500 542.0000 1.0000
38.1600 510.0000 1.0000
38.1700 493.0000 1.0000
38.1800 513.0000 1.0000
38.1900 498.0000 1.0000
38.2000 475.0000 1.0000
38.2100 492.0000 1.0000
38.2200 480.0000 1.0000
38.2300 458.0000 1.0000
38.2400 449.0000 1.0000
38.2500 438.0000 1.0000
38.2600 487.0000 1.0000
38.2700 457.0000 1.0000
38.2800 445.0000 1.0000
38.2900 419.0000 1.0000
38.3000 476.0000 1.0000
38.3100 457.0000 1.0000
38.3200 431.0000 1.0000
38.3300 438.0000 1.0000
38.3400 423.0000 1.0000
38.3500 423.0000 1.0000
38.3600 434.0000 1.0000
38.3700 409.0000 1.0000
38.3800 400.0000 1.0000
38.3900 435.0000 1.0000
38.4000 449.0000 1.0000
38.4100 411.0000 1.0000
38.4200 412.0000 1.0000
38.4300 448.0000 1.0000
38.4400 439.0000 1.0000
38.4500 416.0000 1.0000
38.4600 368.0000 1.0000
38.4700 406.0000 1.0000
38.4800 384.0000 1.0000
38.4900 357.0000 1.0000
38.5000 408.0000 1.0000
38.5100 413.0000 1.0000
38.5200 412.0000 1.0000
38.5300 395.0000 1.0000
38.5400 422.0000 1.0000
38.5500 419.0000 1.0000
38.5600 403.0000 1.0000
38.5700 401.0000 1.0000
38.5800 424.0000 1.0000
38.5900 385.0000 1.0000
38.6000 388.0000 1.0000
38.6100 400.0000 1.0000
38.6200 413.0000 1.0000
38.6300 406.0000 1.0000
38.6400 398.0000 1.0000
38.6500 386.0000 1.0000
38.6600 377.0000 1.0000
38.6700 406.0000 1.0000
38.6800 398.0000 1.0000
38.6900 381.0000 1.0000
38.7000 391.0000 1.0000
38.7100 400.0000 1.0000
38.7200 405.0000 1.0000
38.7300 409.0000 1.0000
38.7400 411.0000 1.0000
38.7500 399.0000 1.0000
38.7600 397.0000 1.0000
38.7700 385.0000 1.0000
38.7800 411.0000 1.0000
38.7900 373.0000 1.0000
38.8000 414.0000 1.0000
38.8100 398.0000 1.0000
38.8200 397.0000 1.0000
38.8300 370.0000 1.0000
38.8400 387.0000 1.0000
38.8500 382.0000 1.0000
38.8600 374.0000 1.0000
38.8700 379.0000 1.0000
38.8800 403.0000 1.0000
38.8900 406.0000 1.0000
38.9000 409.0000 1.0000
38.9100 362.0000 1.0000
38.9200 396.0000 1.0000
38.9300 386.0000 1.0000
38.9400 407.0000 1.0000
38.9500 384.0000 1.0000
38.9600 391.0000 1.0000
38.9700 385.0000 1.0000
38.9800 390.0000 1.0000
38.9900 418.0000 1.0000
39.0000 385.0000 1.0000
39.0100 378.0000 1.0000
39.0200 388.0000 1.0000
39.0300 393.0000 1.0000
39.0400 362.0000 1.0000
39.0500 408.0000 1.0000
39.0600 392.0000 1.0000
39.0700 386.0000 1.0000
39.0800 376.0000 1.0000
39.0900 368.0000 1.0000
39.1000 372.0000 1.0000
39.1100 407.0000 1.0000
39.1200 381.0000 1.0000
39.1300 367.0000 1.0000
39.1400 387.0000 1.0000
39.1500 402.0000 1.0000
39.1600 402.0000 1.0000
39.1700 387.0000 1.0000
39.1800 384.0000 1.0000
39.1900 387.0000 1.0000
39.2000 382.0000 1.0000
39.2100 377.0000 1.0000
39.2200 346.0000 1.0000
39.2300 359.0000 1.0000
39.2400 384.0000 1.0000
39.2500 381.0000 1.0000
39.2600 387.0000 1.0000
39.2700 351.0000 1.0000
39.2800 370.0000 1.0000
39.2900 381.0000 1.0000
39.3000 368.0000 1.0000
39.3100 353.0000 1.0000
39.3200 392.0000 1.0000
39.3300 368.0000 1.0000
39.3400 355.0000 1.0000
39.3500 376.0000 1.0000
39.3600 382.0000 1.0000
39.3700 363.0000 1.0000
39.3800 380.0000 1.0000
39.3900 341.0000 1.0000
39.4000 393.0000 1.0000
39.4100 371.0000 1.0000
39.4200 372.0000 1.0000
39.4300 357.0000 1.0000
39.4400 355.0000 1.0000
39.4500 381.0000 1.0000
39.4600 384.0000 1.0000
39.4700 406.0000 1.0000
39.4800 391.0000 1.0000
39.4900 373.0000 1.0000
39.5000 376.0000 1.0000
39.5100 374.0000 1.0000
39.5200 387.0000 1.0000
39.5300 347.0000 1.0000
39.5400 384.0000 1.0000
39.5500 364.0000 1.0000
39.5600 348.0000 1.0000
39.5700 375.0000 1.0000
39.5800 374.0000 1.0000
39.5900 348.0000 1.0000
39.6000 375.0000 1.0000
39.6100 370.0000 1.0000
39.6200 379.0000 1.0000
39.6300 362.0000 1.0000
39.6400 372.0000 1.0000
39.6500 354.0000 1.0000
39.6600 352.0000 1.0000
39.6700 376.0000 1.0000
39.6800 367.0000 1.0000
39.6900 379.0000 1.0000
39.7000 393.0000 1.0000
39.7100 350.0000 1.0000
39.7200 384.0000 1.0000
39.7300 364.0000 1.0000
39.7400 348.0000 1.0000
39.7500 377.0000 1.0000
39.7600 342.0000 1.0000
39.7700 365.0000 1.0000
39.7800 346.0000 1.0000
39.7900 346.0000 1.0000
39.8000 350.0000 1.0000
39.8100 344.0000 1.0000
39.8200 357.0000 1.0000
39.8300 362.0000 1.0000
39.8400 386.0000 1.0000
39.8500 348.0000 1.0000
39.8600 378.0000 1.0000
39.8700 358.0000 1.0000
39.8800 345.0000 1.0000
39.8900 383.0000 1.0000
39.9000 386.0000 1.0000
39.9100 414.0000 1.0000
39.9200 367.0000 1.0000
39.9300 373.0000 1.0000
39.9400 356.0000 1.0000
39.9500 385.0000 1.0000
39.9600 373.0000 1.0000
39.9700 369.0000 1.0000
39.9800 345.0000 1.0000
39.9900 351.0000 1.0000
40.0000 355.0000 1.0000
40.0100 354.0000 1.0000
40.0200 356.0000 1.0000
40.0300 352.0000 1.0000
40.0400 364.0000 1.0000
40.0500 350.0000 1.0000
40.0600 336.0000 1.0000
40.0700 364.0000 1.0000
40.0800 358.0000 1.0000
40.0900 350.0000 1.0000
40.1000 331.0000 1.0000
40.1100 375.0000 1.0000
40.1200 378.0000 1.0000
40.1300 368.0000 1.0000
40.1400 375.0000 1.0000
40.1500 331.0000 1.0000
40.1600 334.0000 1.0000
40.1700 359.0000 1.0000
40.1800 361.0000 1.0000
40.1900 342.0000 1.0000
40.2000 361.0000 1.0000
40.2100 344.0000 1.0000
40.2200 359.0000 1.0000
40.2300 339.0000 1.0000
40.2400 321.0000 1.0000
40.2500 346.0000 1.0000
40.2600 365.0000 1.0000
40.2700 371.0000 1.0000
40.2800 365.0000 1.0000
40.2900 372.0000 1.0000
40.3000 361.0000 1.0000
40.3100 357.0000 1.0000
40.3200 337.0000 1.0000
40.3300 345.0000 1.0000
40.3400 367.0000 1.0000
40.3500 364.0000 1.0000
40.3600 344.0000 1.0000
40.3700 351.0000 1.0000
40.3800 366.0000 1.0000
40.3900 329.0000 1.0000
40.4000 371.0000 1.0000
40.4100 348.0000 1.0000
40.4200 351.0000 1.0000
40.4300 351.0000 1.0000
40.4400 365.0000 1.0000
40.4500 380.0000 1.0000
40.4600 348.0000 1.0000
40.4700 382.0000 1.0000
40.4800 385.0000 1.0000
40.4900 362.0000 1.0000
40.5000 358.0000 1.0000
40.5100 377.0000 1.0000
40.5200 378.0000 1.0000
40.5300 353.0000 1.0000
40.5400 382.0000 1.0000
40.5500 358.0000 1.0000
40.5600 348.0000 1.0000
40.5700 382.0000 1.0000
40.5800 390.0000 1.0000
40.5900 343.0000 1.0000
40.6000 381.0000 1.0000
40.6100 370.0000 1.0000
40.6200 393.0000 1.0000
40.6300 350.0000 1.0000
40.6400 374.0000 1.0000
40.6500 342.0000 1.0000
40.6600 388.0000 1.0000
40.6700 403.0000 1.0000
40.6800 380.0000 1.0000
40.6900 402.0000 1.0000
40.7000 377.0000 1.0000
40.7100 391.0000 1.0000
40.7200 380.0000 1.0000
40.7300 381.0000 1.0000
40.7400 410.0000 1.0000
40.7500 441.0000 1.0000
40.7600 432.0000 1.0000
40.7700 391.0000 1.0000
40.7800 367.0000 1.0000
40.7900 411.0000 1.0000
40.8000 413.0000 1.0000
40.8100 435.0000 1.0000
40.8200 422.0000 1.0000
40.8300 410.0000 1.0000
40.8400 426.0000 1.0000
40.8500 425.0000 1.0000
40.8600 431.0000 1.0000
40.8700 426.0000 1.0000
40.8800 398.0000 1.0000
40.8900 397.0000 1.0000
40.9000 411.0000 1.0000
40.9100 381.0000 1.0000
40.9200 401.0000 1.0000
40.9300 382.0000 1.0000
40.9400 380.0000 1.0000
40.9500 393.0000 1.0000
40.9600 392.0000 1.0000
40.9700 411.0000 1.0000
40.9800 393.0000 1.0000
40.9900 395.0000 1.0000
41.0000 389.0000 1.0000
41.0100 368.0000 1.0000
41.0200 370.0000 1.0000
41.0300 352.0000 1.0000
41.0400 372.0000 1.0000
41.0500 394.0000 1.0000
41.0600 394.0000 1.0000
41.0700 380.0000 1.0000
41.0800 336.0000 1.0000
41.0900 360.0000 1.0000
41.1000 389.0000 1.0000
41.1100 345.0000 1.0000
41.1200 385.0000 1.0000
41.1300 373.0000 1.0000
41.1400 361.0000 1.0000
41.1500 346.0000 1.0000
41.1600 339.0000 1.0000
41.1700 362.0000 1.0000
41.1800 372.0000 1.0000
41.1900 386.0000 1.0000
41.2000 398.0000 1.0000
41.2100 360.0000 1.0000
41.2200 338.0000 1.0000
41.2300 366.0000 1.0000
41.2400 347.0000 1.0000
41.2500 368.0000 1.0000
41.2600 323.0000 1.0000
41.2700 362.0000 1.0000
41.2800 357.0000 1.0000
41.2900 356.0000 1.0000
41.3000 343.0000 1.0000
41.3100 343.0000 1.0000
41.3200 393.0000 1.0000
41.3300 348.0000 1.0000
41.3400 348.0000 1.0000
41.3500 355.0000 1.0000
41.3600 366.0000 1.0000
41.3700 382.0000 1.0000
41.3800 349.0000 1.0000
41.3900 314.0000 1.0000
41.4000 325.0000 1.0000
41.4100 346.0000 1.0000
41.4200 362.0000 1.0000
41.4300 317.0000 1.0000
41.4400 345.0000 1.0000
41.4500 350.0000 1.0000
41.4600 363.0000 1.0000
41.4700 359.0000 1.0000
41.4800 340.0000 1.0000
41.4900 323.0000 1.0000
41.5000 335.0000 1.0000
41.5100 343.0000 1.0000
41.5200 316.0000 1.0000
41.5300 309.0000 1.0000
41.5400 340.0000 1.0000
41.5500 343.0000 1.0000
41.5600 339.0000 1.0000
41.5700 346.0000 1.0000
41.5800 348.0000 1.0000
41.5900 347.0000 1.0000
41.6000 342.0000 1.0000
41.6100 335.0000 1.0000
41.6200 327.0000 1.0000
41.6300 352.0000 1.0000
41.6400 332.0000 1.0000
41.6500 359.0000 1.0000
41.6600 325.0000 1.0000
41.6700 352.0000 1.0000
41.6800 335.0000 1.0000
41.6900 380.0000 1.0000
41.7000 366.0000 1.0000
41.7100 365.0000 1.0000
41.7200 346.0000 1.0000
41.7300 339.0000 1.0000
41.7400 371.0000 1.0000
41.7500 348.0000 1.0000
41.7600 350.0000 1.0000
41.7700 324.0000 1.0000
41.7800 350.0000 1.0000
41.7900 343.0000 1.0000
41.8000 352.0000 1.0000
41.8100 341.0000 1.0000
41.8200 326.0000 1.0000
41.8300 337.0000 1.0000
41.8400 362.0000 1.0000
41.8500 380.0000 1.0000
41.8600 364.0000 1.0000
41.8700 326.0000 1.0000
41.8800 321.0000 1.0000
41.8900 319.0000 1.0000
41.9000 348.0000 1.0000
41.9100 340.0000 1.0000
41.9200 327.0000 1.0000
41.9300 337.0000 1.0000
41.9400 338.0000 1.0000
41.9500 360.0000 1.0000
41.9600 354.0000 1.0000
41.9700 344.0000 1.0000
41.9800 349.0000 1.0000
41.9900 361.0000 1.0000
42.0000 348.0000 1.0000
42.0100 332.0000 1.0000
42.0200 347.0000 1.0000
42.0300 337.0000 1.0000
42.0400 354.0000 1.0000
42.0500 346.0000 1.0000
42.0600 350.0000 1.0000
42.0700 350.0000 1.0000
42.0800 333.0000 1.0000
42.0900 339.0000 1.0000
42.1000 337.0000 1.0000
42.1100 356.0000 1.0000
42.1200 324.0000 1.0000
42.1300 340.0000 1.0000
42.1400 328.0000 1.0000
42.1500 325.0000 1.0000
42.1600 366.0000 1.0000
42.1700 397.0000 1.0000
42.1800 364.0000 1.0000
42.1900 332.0000 1.0000
42.2000 344.0000 1.0000
42.2100 348.0000 1.0000
42.2200 305.0000 1.0000
42.2300 366.0000 1.0000
42.2400 368.0000 1.0000
42.2500 327.0000 1.0000
42.2600 338.0000 1.0000
42.2700 363.0000 1.0000
42.2800 337.0000 1.0000
42.2900 376.0000 1.0000
42.3000 369.0000 1.0000
42.3100 347.0000 1.0000
42.3200 367.0000 1.0000
42.3300 337.0000 1.0000
42.3400 349.0000 1.0000
42.3500 330.0000 1.0000
42.3600 352.0000 1.0000
42.3700 392.0000 1.0000
42.3800 357.0000 1.0000
42.3900 361.0000 1.0000
42.4000 330.0000 1.0000
42.4100 357.0000 1.0000
42.4200 380.0000 1.0000
42.4300 335.0000 1.0000
42.4400 350.0000 1.0000
42.4500 361.0000 1.0000
42.4600 380.0000 1.0000
42.4700 376.0000 1.0000
42.4800 344.0000 1.0000
42.4900 367.0000 1.0000
42.5000 365.0000 1.0000
42.5100 350.0000 1.0000
42.5200 361.0000 1.0000
42.5300 346.0000 1.0000
42.5400 374.0000 1.0000
42.5500 378.0000 1.0000
42.5600 362.0000 1.0000
42.5700 334.0000 1.0000
42.5800 333.0000 1.0000
42.5900 351.0000 1.0000
42.6000 338.0000 1.0000
42.6100 343.0000 1.0000
42.6200 350.0000 1.0000
42.6300 336.0000 1.0000
42.6400 343.0000 1.0000
42.6500 358.0000 1.0000
42.6600 367.0000 1.0000
42.6700 309.0000 1.0000
42.6800 331.0000 1.0000
42.6900 328.0000 1.0000
42.7000 326.0000 1.0000
42.7100 322.0000 1.0000
42.7200 328.0000 1.0000
42.7300 353.0000 1.0000
42.7400 362.0000 1.0000
42.7500 388.0000 1.0000
42.7600 360.0000 1.0000
42.7700 344.0000 1.0000
42.7800 333.0000 1.0000
42.7900 341.0000 1.0000
42.8000 316.0000 1.0000
42.8100 349.0000 1.0000
42.8200 328.0000 1.0000
42.8300 317.0000 1.0000
42.8400 332.0000 1.0000
42.8500 312.0000 1.0000
42.8600 322.0000 1.0000
42.8700 356.0000 1.0000
42.8800 367.0000 1.0000
42.8900 332.0000 1.0000
42.9000 342.0000 1.0000
42.9100 321.0000 1.0000
42.9200 347.0000 1.0000
42.9300 380.0000 1.0000
42.9400 373.0000 1.0000
42.9500 314.0000 1.0000
42.9600 342.0000 1.0000
42.9700 367.0000 1.0000
42.9800 350.0000 1.0000
42.9900 339.0000 1.0000
43.0000 331.0000 1.0000
43.0100 324.0000 1.0000
43.0200 367.0000 1.0000
43.0300 355.0000 1.0000
43.0400 330.0000 1.0000
43.0500 333.0000 1.0000
43.0600 333.0000 1.0000
43.0700 342.0000 1.0000
43.0800 336.0000 1.0000
43.0900 370.0000 1.0000
43.1000 330.0000 1.0000
43.1100 338.0000 1.0000
43.1200 341.0000 1.0000
43.1300 337.0000 1.0000
43.1400 343.0000 1.0000
43.1500 337.0000 1.0000
43.1600 333.0000 1.0000
43.1700 332.0000 1.0000
43.1800 348.0000 1.0000
43.1900 321.0000 1.0000
43.2000 343.0000 1.0000
43.2100 334.0000 1.0000
43.2200 332.0000 1.0000
43.2300 341.0000 1.0000
43.2400 308.0000 1.0000
43.2500 347.0000 1.0000
43.2600 350.0000 1.0000
43.2700 354.0000 1.0000
43.2800 332.0000 1.0000
43.2900 350.0000 1.0000
43.3000 351.0000 1.0000
43.3100 351.0000 1.0000
43.3200 347.0000 1.0000
43.3300 341.0000 1.0000
43.3400 335.0000 1.0000
43.3500 333.0000 1.0000
43.3600 322.0000 1.0000
43.3700 316.0000 1.0000
43.3800 334.0000 1.0000
43.3900 340.0000 1.0000
43.4000 363.0000 1.0000
43.4100 354.0000 1.0000
43.4200 321.0000 1.0000
43.4300 343.0000 1.0000
43.4400 323.0000 1.0000
43.4500 330.0000 1.0000
43.4600 343.0000 1.0000
43.4700 359.0000 1.0000
43.4800 368.0000 1.0000
43.4900 342.0000 1.0000
43.5000 344.0000 1.0000
43.5100 315.0000 1.0000
43.5200 336.0000 1.0000
43.5300 370.0000 1.0000
43.5400 334.0000 1.0000
43.5500 350.0000 1.0000
43.5600 341.0000 1.0000
43.5700 352.0000 1.0000
43.5800 364.0000 1.0000
43.5900 326.0000 1.0000
43.6000 342.0000 1.0000
43.6100 304.0000 1.0000
43.6200 350.0000 1.0000
43.6300 359.0000 1.0000
43.6400 338.0000 1.0000
43.6500 357.0000 1.0000
43.6600 331.0000 1.0000
43.6700 340.0000 1.0000
43.6800 321.0000 1.0000
43.6900 333.0000 1.0000
43.7000 305.0000 1.0000
43.7100 325.0000 1.0000
43.7200 320.0000 1.0000
43.7300 340.0000 1.0000
43.7400 325.0000 1.0000
43.7500 356.0000 1.0000
43.7600 341.0000 1.0000
43.7700 331.0000 1.0000
43.7800 371.0000 1.0000
43.7900 358.0000 1.0000
43.8000 352.0000 1.0000
43.8100 328.0000 1.0000
43.8200 327.0000 1.0000
43.8300 329.0000 1.0000
43.8400 332.0000 1.0000
43.8500 341.0000 1.0000
43.8600 315.0000 1.0000
43.8700 334.0000 1.0000
43.8800 325.0000 1.0000
43.8900 326.0000 1.0000
43.9000 309.0000 1.0000
43.9100 297.0000 1.0000
43.9200 342.0000 1.0000
43.9300 344.0000 1.0000
43.9400 318.0000 1.0000
43.9500 311.0000 1.0000
43.9600 337.0000 1.0000
43.9700 343.0000 1.0000
43.9800 307.0000 1.0000
43.9900 333.0000 1.0000
44.0000 330.0000 1.0000
44.0100 332.0000 1.0000
44.0200 335.0000 1.0000
44.0300 378.0000 1.0000
44.0400 330.0000 1.0000
44.0500 342.0000 1.0000
44.0600 326.0000 1.0000
44.0700 338.0000 1.0000
44.0800 310.0000 1.0000
44.0900 363.0000 1.0000
44.1000 363.0000 1.0000
44.1100 349.0000 1.0000
44.1200 304.0000 1.0000
44.1300 329.0000 1.0000
44.1400 337.0000 1.0000
44.1500 320.0000 1.0000
44.1600 338.0000 1.0000
44.1700 327.0000 1.0000
44.1800 320.0000 1.0000
44.1900 323.0000 1.0000
44.2000 336.0000 1.0000
44.2100 324.0000 1.0000
44.2200 324.0000 1.0000
44.2300 350.0000 1.0000
44.2400 325.0000 1.0000
44.2500 322.0000 1.0000
44.2600 350.0000 1.0000
44.2700 330.0000 1.0000
44.2800 304.0000 1.0000
44.2900 307.0000 1.0000
44.3000 335.0000 1.0000
44.3100 337.0000 1.0000
44.3200 347.0000 1.0000
44.3300 320.0000 1.0000
44.3400 329.0000 1.0000
44.3500 337.0000 1.0000
44.3600 356.0000 1.0000
44.3700 327.0000 1.0000
44.3800 324.0000 1.0000
44.3900 340.0000 1.0000
44.4000 327.0000 1.0000
44.4100 326.0000 1.0000
44.4200 311.0000 1.0000
44.4300 297.0000 1.0000
44.4400 292.0000 1.0000
44.4500 325.0000 1.0000
44.4600 312.0000 1.0000
44.4700 328.0000 1.0000
44.4800 340.0000 1.0000
44.4900 324.0000 1.0000
44.5000 321.0000 1.0000
44.5100 309.0000 1.0000
44.5200 334.0000 1.0000
44.5300 330.0000 1.0000
44.5400 323.0000 1.0000
44.5500 299.0000 1.0000
44.5600 315.0000 1.0000
44.5700 318.0000 1.0000
44.5800 305.0000 1.0000
44.5900 307.0000 1.0000
44.6000 309.0000 1.0000
44.6100 298.0000 1.0000
44.6200 332.0000 1.0000
44.6300 341.0000 1.0000
44.6400 308.0000 1.0000
44.6500 337.0000 1.0000
44.6600 354.0000 1.0000
44.6700 342.0000 1.0000
44.6800 303.0000 1.0000
44.6900 342.0000 1.0000
44.7000 340.0000 1.0000
44.7100 315.0000 1.0000
44.7200 315.0000 1.0000
44.7300 319.0000 1.0000
44.7400 310.0000 1.0000
44.7500 323.0000 1.0000
44.7600 318.0000 1.0000
44.7700 320.0000 1.0000
44.7800 306.0000 1.0000
44.7900 313.0000 1.0000
44.8000 326.0000 1.0000
44.8100 364.0000 1.0000
44.8200 330.0000 1.0000
44.8300 320.0000 1.0000
44.8400 307.0000 1.0000
44.8500 331.0000 1.0000
44.8600 363.0000 1.0000
44.8700 330.0000 1.0000
44.8800 296.0000 1.0000
44.8900 312.0000 1.0000
44.9000 356.0000 1.0000
44.9100 328.0000 1.0000
44.9200 318.0000 1.0000
44.9300 309.0000 1.0000
44.9400 287.0000 1.0000
44.9500 289.0000 1.0000
44.9600 345.0000 1.0000
44.9700 340.0000 1.0000
44.9800 314.0000 1.0000
44.9900 345.0000 1.0000
45.0000 340.0000 1.0000
45.0100 303.0000 1.0000
45.0200 307.0000 1.0000
45.0300 317.0000 1.0000
45.0400 307.0000 1.0000
45.0500 306.0000 1.0000
45.0600 334.0000 1.0000
45.0700 292.0000 1.0000
45.0800 317.0000 1.0000
45.0900 319.0000 1.0000
45.1000 283.0000 1.0000
45.1100 308.0000 1.0000
45.1200 331.0000 1.0000
45.1300 323.0000 1.0000
45.1400 323.0000 1.0000
45.1500 328.0000 1.0000
45.1600 311.0000 1.0000
45.1700 313.0000 1.0000
45.1800 318.0000 1.0000
45.1900 307.0000 1.0000
45.2000 325.0000 1.0000
45.2100 344.0000 1.0000
45.2200 306.0000 1.0000
45.2300 298.0000 1.0000
45.2400 292.0000 1.0000
45.2500 332.0000 1.0000
45.2600 309.0000 1.0000
45.2700 344.0000 1.0000
45.2800 301.0000 1.0000
45.2900 308.0000 1.0000
45.3000 298.0000 1.0000
45.3100 305.0000 1.0000
45.3200 292.0000 1.0000
45.3300 307.0000 1.0000
45.3400 348.0000 1.0000
45.3500 337.0000 1.0000
45.3600 287.0000 1.0000
45.3700 304.0000 1.0000
45.3800 312.0000 1.0000
45.3900 307.0000 1.0000
45.4000 311.0000 1.0000
45.4100 277.0000 1.0000
45.4200 328.0000 1.0000
45.4300 305.0000 1.0000
45.4400 324.0000 1.0000
45.4500 331.0000 1.0000
45.4600 311.0000 1.0000
45.4700 299.0000 1.0000
45.4800 302.0000 1.0000
45.4900 302.0000 1.0000
45.5000 323.0000 1.0000
45.5100 329.0000 1.0000
45.5200 313.0000 1.0000
45.5300 313.0000 1.0000
45.5400 309.0000 1.0000
45.5500 316.0000 1.0000
45.5600 323.0000 1.0000
45.5700 285.0000 1.0000
45.5800 306.0000 1.0000
45.5900 290.0000 1.0000
45.6000 296.0000 1.0000
45.6100 305.0000 1.0000
45.6200 320.0000 1.0000
45.6300 301.0000 1.0000
45.6400 331.0000 1.0000
45.6500 309.0000 1.0000
45.6600 304.0000 1.0000
45.6700 310.0000 1.0000
45.6800 319.0000 1.0000
45.6900 316.0000 1.0000
45.7000 327.0000 1.0000
45.7100 308.0000 1.0000
45.7200 305.0000 1.0000
45.7300 314.0000 1.0000
45.7400 304.0000 1.0000
45.7500 300.0000 1.0000
45.7600 335.0000 1.0000
45.7700 291.0000 1.0000
45.7800 277.0000 1.0000
45.7900 339.0000 1.0000
45.8000 315.0000 1.0000
45.8100 298.0000 1.0000
45.8200 309.0000 1.0000
45.8300 340.0000 1.0000
45.8400 319.0000 1.0000
45.8500 323.0000 1.0000
45.8600 302.0000 1.0000
45.8700 318.0000 1.0000
45.8800 321.0000 1.0000
45.8900 312.0000 1.0000
45.9000 321.0000 1.0000
45.9100 302.0000 1.0000
45.9200 301.0000 1.0000
45.9300 328.0000 1.0000
45.9400 317.0000 1.0000
45.9500 307.0000 1.0000
45.9600 309.0000 1.0000
45.9700 291.0000 1.0000
45.9800 306.0000 1.0000
45.9900 325.0000 1.0000
46.0000 342.0000 1.0000
46.0100 346.0000 1.0000
46.0200 329.0000 1.0000
46.0300 311.0000 1.0000
46.0400 282.0000 1.0000
46.0500 331.0000 1.0000
46.0600 337.0000 1.0000
46.0700 322.0000 1.0000
46.0800 308.0000 1.0000
46.0900 284.0000 1.0000
46.1000 310.0000 1.0000
46.1100 315.0000 1.0000
46.1200 298.0000 1.0000
46.1300 326.0000 1.0000
46.1400 308.0000 1.0000
46.1500 279.0000 1.0000
46.1600 331.0000 1.0000
46.1700 312.0000 1.0000
46.1800 307.0000 1.0000
46.1900 324.0000 1.0000
46.2000 322.0000 1.0000
46.2100 338.0000 1.0000
46.2200 324.0000 1.0000
46.2300 303.0000 1.0000
46.2400 298.0000 1.0000
46.2500 304.0000 1.0000
46.2600 305.0000 1.0000
46.2700 335.0000 1.0000
46.2800 311.0000 1.0000
46.2900 322.0000 1.0000
46.3000 312.0000 1.0000
46.3100 313.0000 1.0000
46.3200 334.0000 1.0000
46.3300 309.0000 1.0000
46.3400 335.0000 1.0000
46.3500 317.0000 1.0000
46.3600 306.0000 1.0000
46.3700 309.0000 1.0000
46.3800 299.0000 1.0000
46.3900 293.0000 1.0000
46.4000 303.0000 1.0000
46.4100 305.0000 1.0000
46.4200 293.0000 1.0000
46.4300 313.0000 1.0000
46.4400 295.0000 1.0000
46.4500 302.0000 1.0000
46.4600 321.0000 1.0000
46.4700 326.0000 1.0000
46.4800 303.0000 1.0000
46.4900 292.0000 1.0000
46.5000 303.0000 1.0000
46.5100 291.0000 1.0000
46.5200 317.0000 1.0000
46.5300 311.0000 1.0000
46.5400 303.0000 1.0000
46.5500 312.0000 1.0000
46.5600 298.0000 1.0000
46.5700 332.0000 1.0000
46.5800 269.0000 1.0000
46.5900 287.0000 1.0000
46.6000 295.0000 1.0000
46.6100 294.0000 1.0000
46.6200 304.0000 1.0000
46.6300 323.0000 1.0000
46.6400 302.0000 1.0000
46.6500 300.0000 1.0000
46.6600 313.0000 1.0000
46.6700 322.0000 1.0000
46.6800 270.0000 1.0000
46.6900 312.0000 1.0000
46.7000 299.0000 1.0000
46.7100 272.0000 1.0000
46.7200 321.0000 1.0000
46.7300 318.0000 1.0000
46.7400 330.0000 1.0000
46.7500 303.0000 1.0000
46.7600 312.0000 1.0000
46.7700 263.0000 1.0000
46.7800 294.0000 1.0000
46.7900 293.0000 1.0000
46.8000 320.0000 1.0000
46.8100 334.0000 1.0000
46.8200 289.0000 1.0000
46.8300 291.0000 1.0000
46.8400 296.0000 1.0000
46.8500 288.0000 1.0000
46.8600 297.0000 1.0000
46.8700 303.0000 1.0000
46.8800 303.0000 1.0000
46.8900 269.0000 1.0000
46.9000 281.0000 1.0000
46.9100 320.0000 1.0000
46.9200 298.0000 1.0000
46.9300 308.0000 1.0000
46.9400 283.0000 1.0000
46.9500 290.0000 1.0000
46.9600 306.0000 1.0000
46.9700 295.0000 1.0000
46.9800 335.0000 1.0000
46.9900 288.0000 1.0000
47.0000 280.0000 1.0000
47.0100 314.0000 1.0000
47.0200 300.0000 1.0000
47.0300 298.0000 1.0000
47.0400 309.0000 1.0000
47.0500 336.0000 1.0000
47.0600 305.0000 1.0000
47.0700 276.0000 1.0000
47.0800 317.0000 1.0000
47.0900 289.0000 1.0000
47.1000 296.0000 1.0000
47.1100 301.0000 1.0000
47.1200 330.0000 1.0000
47.1300 309.0000 1.0000
47.1400 330.0000 1.0000
47.1500 310.0000 1.0000
47.1600 295.0000 1.0000
47.1700 288.0000 1.0000
47.1800 301.0000 1.0000
47.1900 324.0000 1.0000
47.2000 306.0000 1.0000
47.2100 313.0000 1.0000
47.2200 320.0000 1.0000
47.2300 325.0000 1.0000
47.2400 324.0000 1.0000
47.2500 287.0000 1.0000
47.2600 299.0000 1.0000
47.2700 326.0000 1.0000
47.2800 295.0000 1.0000
47.2900 320.0000 1.0000
47.3000 268.0000 1.0000
47.3100 292.0000 1.0000
47.3200 296.0000 1.0000
47.3300 296.0000 1.0000
47.3400 292.0000 1.0000
47.3500 314.0000 1.0000
47.3600 292.0000 1.0000
47.3700 299.0000 1.0000
47.3800 312.0000 1.0000
47.3900 300.0000 1.0000
47.4000 301.0000 1.0000
47.4100 305.0000 1.0000
47.4200 285.0000 1.0000
47.4300 307.0000 1.0000
47.4400 268.0000 1.0000
47.4500 306.0000 1.0000
47.4600 278.0000 1.0000
47.4700 314.0000 1.0000
47.4800 293.0000 1.0000
47.4900 302.0000 1.0000
47.5000 292.0000 1.0000
47.5100 295.0000 1.0000
47.5200 309.0000 1.0000
47.5300 305.0000 1.0000
47.5400 311.0000 1.0000
47.5500 306.0000 1.0000
47.5600 288.0000 1.0000
47.5700 281.0000 1.0000
47.5800 302.0000 1.0000
47.5900 292.0000 1.0000
47.6000 321.0000 1.0000
47.6100 303.0000 1.0000
47.6200 275.0000 1.0000
47.6300 306.0000 1.0000
47.6400 310.0000 1.0000
47.6500 297.0000 1.0000
47.6600 303.0000 1.0000
47.6700 289.0000 1.0000
47.6800 324.0000 1.0000
47.6900 299.0000 1.0000
47.7000 295.0000 1.0000
47.7100 308.0000 1.0000
47.7200 309.0000 1.0000
47.7300 322.0000 1.0000
47.7400 303.0000 1.0000
47.7500 294.0000 1.0000
47.7600 319.0000 1.0000
47.7700 306.0000 1.0000
47.7800 275.0000 1.0000
47.7900 290.0000 1.0000
47.8000 277.0000 1.0000
47.8100 318.0000 1.0000
47.8200 306.0000 1.0000
47.8300 292.0000 1.0000
47.8400 276.0000 1.0000
47.8500 281.0000 1.0000
47.8600 283.0000 1.0000
47.8700 316.0000 1.0000
47.8800 299.0000 1.0000
47.8900 277.0000 1.0000
47.9000 286.0000 1.0000
47.9100 300.0000 1.0000
47.9200 312.0000 1.0000
47.9300 341.0000 1.0000
47.9400 310.0000 1.0000
47.9500 309.0000 1.0000
47.9600 297.0000 1.0000
47.9700 303.0000 1.0000
47.9800 319.0000 1.0000
47.9900 285.0000 1.0000
48.0000 273.0000 1.0000
48.0100 299.0000 1.0000
48.0200 290.0000 1.0000
48.0300 301.0000 1.0000
48.0400 299.0000 1.0000
48.0500 308.0000 1.0000
48.0600 320.0000 1.0000
48.0700 282.0000 1.0000
48.0800 288.0000 1.0000
48.0900 295.0000 1.0000
48.1000 314.0000 1.0000
48.1100 273.0000 1.0000
48.1200 280.0000 1.0000
48.1300 300.0000 1.0000
48.1400 295.0000 1.0000
48.1500 301.0000 1.0000
48.1600 288.0000 1.0000
48.1700 304.0000 1.0000
48.1800 293.0000 1.0000
48.1900 312.0000 1.0000
48.2000 279.0000 1.0000
48.2100 304.0000 1.0000
48.2200 293.0000 1.0000
48.2300 302.0000 1.0000
48.2400 269.0000 1.0000
48.2500 287.0000 1.0000
48.2600 295.0000 1.0000
48.2700 291.0000 1.0000
48.2800 296.0000 1.0000
48.2900 274.0000 1.0000
48.3000 286.0000 1.0000
48.3100 316.0000 1.0000
48.3200 318.0000 1.0000
48.3300 284.0000 1.0000
48.3400 336.0000 1.0000
48.3500 308.0000 1.0000
48.3600 299.0000 1.0000
48.3700 315.0000 1.0000
48.3800 276.0000 1.0000
48.3900 290.0000 1.0000
48.4000 304.0000 1.0000
48.4100 288.0000 1.0000
48.4200 296.0000 1.0000
48.4300 281.0000 1.0000
48.4400 286.0000 1.0000
48.4500 283.0000 1.0000
48.4600 295.0000 1.0000
48.4700 309.0000 1.0000
48.4800 301.0000 1.0000
48.4900 275.0000 1.0000
48.5000 277.0000 1.0000
48.5100 306.0000 1.0000
48.5200 322.0000 1.0000
48.5300 295.0000 1.0000
48.5400 307.0000 1.0000
48.5500 287.0000 1.0000
48.5600 314.0000 1.0000
48.5700 281.0000 1.0000
48.5800 304.0000 1.0000
48.5900 296.0000 1.0000
48.6000 274.0000 1.0000
48.6100 298.0000 1.0000
48.6200 280.0000 1.0000
48.6300 301.0000 1.0000
48.6400 290.0000 1.0000
48.6500 289.0000 1.0000
48.6600 311.0000 1.0000
48.6700 281.0000 1.0000
48.6800 298.0000 1.0000
48.6900 294.0000 1.0000
48.7000 295.0000 1.0000
48.7100 298.0000 1.0000
48.7200 320.0000 1.0000
48.7300 286.0000 1.0000
48.7400 285.0000 1.0000
48.7500 322.0000 1.0000
48.7600 289.0000 1.0000
48.7700 275.0000 1.0000
48.7800 258.0000 1.0000
48.7900 293.0000 1.0000
48.8000 321.0000 1.0000
48.8100 290.0000 1.0000
48.8200 310.0000 1.0000
48.8300 301.0000 1.0000
48.8400 305.0000 1.0000
48.8500 300.0000 1.0000
48.8600 281.0000 1.0000
48.8700 317.0000 1.0000
48.8800 275.0000 1.0000
48.8900 275.0000 1.0000
48.9000 310.0000 1.0000
48.9100 285.0000 1.0000
48.9200 284.0000 1.0000
48.9300 274.0000 1.0000
48.9400 313.0000 1.0000
48.9500 288.0000 1.0000
48.9600 300.0000 1.0000
48.9700 315.0000 1.0000
48.9800 282.0000 1.0000
48.9900 304.0000 1.0000
49.0000 265.0000 1.0000
49.0100 280.0000 1.0000
49.0200 272.0000 1.0000
49.0300 310.0000 1.0000
49.0400 279.0000 1.0000
49.0500 316.0000 1.0000
49.0600 296.0000 1.0000
49.0700 284.0000 1.0000
49.0800 299.0000 1.0000
49.0900 303.0000 1.0000
49.1000 288.0000 1.0000
49.1100 291.0000 1.0000
49.1200 291.0000 1.0000
49.1300 299.0000 1.0000
49.1400 308.0000 1.0000
49.1500 297.0000 1.0000
49.1600 324.0000 1.0000
49.1700 328.0000 1.0000
49.1800 313.0000 1.0000
49.1900 310.0000 1.0000
49.2000 281.0000 1.0000
49.2100 295.0000 1.0000
49.2200 318.0000 1.0000
49.2300 332.0000 1.0000
49.2400 325.0000 1.0000
49.2500 325.0000 1.0000
49.2600 311.0000 1.0000
49.2700 335.0000 1.0000
49.2800 322.0000 1.0000
49.2900 338.0000 1.0000
49.3000 310.0000 1.0000
49.3100 309.0000 1.0000
49.3200 330.0000 1.0000
49.3300 369.0000 1.0000
49.3400 327.0000 1.0000
49.3500 359.0000 1.0000
49.3600 350.0000 1.0000
49.3700 356.0000 1.0000
49.3800 367.0000 1.0000
49.3900 369.0000 1.0000
49.4000 349.0000 1.0000
49.4100 367.0000 1.0000
49.4200 374.0000 1.0000
49.4300 331.0000 1.0000
49.4400 341.0000 1.0000
49.4500 322.0000 1.0000
49.4600 370.0000 1.0000
49.4700 355.0000 1.0000
49.4800 347.0000 1.0000
49.4900 366.0000 1.0000
49.5000 334.0000 1.0000
49.5100 339.0000 1.0000
49.5200 352.0000 1.0000
49.5300 353.0000 1.0000
49.5400 363.0000 1.0000
49.5500 345.0000 1.0000
49.5600 332.0000 1.0000
49.5700 328.0000 1.0000
49.5800 328.0000 1.0000
49.5900 315.0000 1.0000
49.6000 317.0000 1.0000
49.6100 330.0000 1.0000
49.6200 324.0000 1.0000
49.6300 321.0000 1.0000
49.6400 359.0000 1.0000
49.6500 294.0000 1.0000
49.6600 331.0000 1.0000
49.6700 323.0000 1.0000
49.6800 295.0000 1.0000
49.6900 303.0000 1.0000
49.7000 311.0000 1.0000
49.7100 298.0000 1.0000
49.7200 298.0000 1.0000
49.7300 302.0000 1.0000
49.7400 313.0000 1.0000
49.7500 310.0000 1.0000
49.7600 304.0000 1.0000
49.7700 292.0000 1.0000
49.7800 302.0000 1.0000
49.7900 296.0000 1.0000
49.8000 318.0000 1.0000
49.8100 318.0000 1.0000
49.8200 310.0000 1.0000
49.8300 289.0000 1.0000
49.8400 285.0000 1.0000
49.8500 288.0000 1.0000
49.8600 275.0000 1.0000
49.8700 301.0000 1.0000
49.8800 304.0000 1.0000
49.8900 292.0000 1.0000
49.9000 278.0000 1.0000
49.9100 325.0000 1.0000
49.9200 299.0000 1.0000
49.9300 315.0000 1.0000
49.9400 275.0000 1.0000
49.9500 291.0000 1.0000
49.9600 318.0000 1.0000
49.9700 292.0000 1.0000
49.9800 332.0000 1.0000
49.9900 271.0000 1.0000
50.0000 269.0000 1.0000
50.0100 279.0000 1.0000
50.0200 287.0000 1.0000
50.0300 302.0000 1.0000
50.0400 323.0000 1.0000
50.0500 273.0000 1.0000
50.0600 299.0000 1.0000
50.0700 294.0000 1.0000
50.0800 262.0000 1.0000
50.0900 273.0000 1.0000
50.1000 289.0000 1.0000
50.1100 281.0000 1.0000
50.1200 283.0000 1.0000
50.1300 297.0000 1.0000
50.1400 268.0000 1.0000
50.1500 274.0000 1.0000
50.1600 265.0000 1.0000
50.1700 268.0000 1.0000
50.1800 294.0000 1.0000
50.1900 313.0000 1.0000
50.2000 314.0000 1.0000
50.2100 316.0000 1.0000
50.2200 313.0000 1.0000
50.2300 275.0000 1.0000
50.2400 324.0000 1.0000
50.2500 290.0000 1.0000
50.2600 301.0000 1.0000
50.2700 314.0000 1.0000
50.2800 289.0000 1.0000
50.2900 291.0000 1.0000
50.3000 287.0000 1.0000
50.3100 279.0000 1.0000
50.3200 303.0000 1.0000
50.3300 312.0000 1.0000
50.3400 306.0000 1.0000
50.3500 308.0000 1.0000
50.3600 277.0000 1.0000
50.3700 276.0000 1.0000
50.3800 299.0000 1.0000
50.3900 299.0000 1.0000
50.4000 302.0000 1.0000
50.4100 285.0000 1.0000
50.4200 272.0000 1.0000
50.4300 306.0000 1.0000
50.4400 279.0000 1.0000
50.4500 316.0000 1.0000
50.4600 288.0000 1.0000
50.4700 290.0000 1.0000
50.4800 275.0000 1.0000
50.4900 277.0000 1.0000
50.5000 284.0000 1.0000
50.5100 305.0000 1.0000
50.5200 289.0000 1.0000
50.5300 283.0000 1.0000
50.5400 282.0000 1.0000
50.5500 291.0000 1.0000
50.5600 278.0000 1.0000
50.5700 294.0000 1.0000
50.5800 288.0000 1.0000
50.5900 292.0000 1.0000
50.6000 298.0000 1.0000
50.6100 296.0000 1.0000
50.6200 297.0000 1.0000
50.6300 263.0000 1.0000
50.6400 273.0000 1.0000
50.6500 305.0000 1.0000
50.6600 297.0000 1.0000
50.6700 274.0000 1.0000
50.6800 275.0000 1.0000
50.6900 272.0000 1.0000
50.7000 301.0000 1.0000
50.7100 316.0000 1.0000
50.7200 302.0000 1.0000
50.7300 303.0000 1.0000
50.7400 304.0000 1.0000
50.7500 295.0000 1.0000
50.7600 268.0000 1.0000
50.7700 296.0000 1.0000
50.7800 265.0000 1.0000
50.7900 301.0000 1.0000
50.8000 294.0000 1.0000
50.8100 289.0000 1.0000
50.8200 278.0000 1.0000
50.8300 309.0000 1.0000
50.8400 301.0000 1.0000
50.8500 300.0000 1.0000
50.8600 293.0000 1.0000
50.8700 312.0000 1.0000
50.8800 271.0000 1.0000
50.8900 319.0000 1.0000
50.9000 308.0000 1.0000
50.9100 298.0000 1.0000
50.9200 323.0000 1.0000
50.9300 290.0000 1.0000
50.9400 315.0000 1.0000
50.9500 335.0000 1.0000
50.9600 326.0000 1.0000
50.9700 275.0000 1.0000
50.9800 315.0000 1.0000
50.9900 294.0000 1.0000
51.0000 316.0000 1.0000
51.0100 317.0000 1.0000
51.0200 306.0000 1.0000
51.0300 310.0000 1.0000
51.0400 311.0000 1.0000
51.0500 298.0000 1.0000
51.0600 303.0000 1.0000
51.0700 330.0000 1.0000
51.0800 301.0000 1.0000
51.0900 295.0000 1.0000
51.1000 297.0000 1.0000
51.1100 342.0000 1.0000
51.1200 350.0000 1.0000
51.1300 354.0000 1.0000
51.1400 387.0000 1.0000
51.1500 368.0000 1.0000
51.1600 350.0000 1.0000
51.1700 361.0000 1.0000
51.1800 383.0000 1.0000
51.1900 398.0000 1.0000
51.2000 357.0000 1.0000
51.2100 400.0000 1.0000
51.2200 377.0000 1.0000
51.2300 381.0000 1.0000
51.2400 423.0000 1.0000
51.2500 426.0000 1.0000
51.2600 392.0000 1.0000
51.2700 456.0000 1.0000
51.2800 480.0000 1.0000
51.2900 455.0000 1.0000
51.3000 466.0000 1.0000
51.3100 486.0000 1.0000
51.3200 561.0000 1.0000
51.3300 547.0000 1.0000
51.3400 556.0000 1.0000
51.3500 575.0000 1.0000
51.3600 593.0000 1.0000
51.3700 608.0000 1.0000
51.3800 651.0000 1.0000
51.3900 708.0000 1.0000
51.4000 730.0000 1.0000
51.4100 715.0000 1.0000
51.4200 803.0000 1.0000
51.4300 837.0000 1.0000
51.4400 868.0000 1.0000
51.4500 843.0000 1.0000
51.4600 854.0000 1.0000
51.4700 865.0000 1.0000
51.4800 844.0000 1.0000
51.4900 882.0000 1.0000
51.5000 815.0000 1.0000
51.5100 859.0000 1.0000
51.5200 846.0000 1.0000
51.5300 841.0000 1.0000
51.5400 786.0000 1.0000
51.5500 771.0000 1.0000
51.5600 743.0000 1.0000
51.5700 713.0000 1.0000
51.5800 774.0000 1.0000
51.5900 734.0000 1.0000
51.6000 725.0000 1.0000
51.6100 686.0000 1.0000
51.6200 697.0000 1.0000
51.6300 631.0000 1.0000
51.6400 646.0000 1.0000
51.6500 602.0000 1.0000
51.6600 575.0000 1.0000
51.6700 543.0000 1.0000
51.6800 547.0000 1.0000
51.6900 514.0000 1.0000
51.7000 467.0000 1.0000
51.7100 449.0000 1.0000
51.7200 466.0000 1.0000
51.7300 475.0000 1.0000
51.7400 490.0000 1.0000
51.7500 438.0000 1.0000
51.7600 440.0000 1.0000
51.7700 385.0000 1.0000
51.7800 400.0000 1.0000
51.7900 380.0000 1.0000
51.8000 370.0000 1.0000
51.8100 389.0000 1.0000
51.8200 371.0000 1.0000
51.8300 369.0000 1.0000
51.8400 372.0000 1.0000
51.8500 372.0000 1.0000
51.8600 367.0000 1.0000
51.8700 344.0000 1.0000
51.8800 364.0000 1.0000
51.8900 344.0000 1.0000
51.9000 331.0000 1.0000
51.9100 318.0000 1.0000
51.9200 296.0000 1.0000
51.9300 337.0000 1.0000
51.9400 298.0000 1.0000
51.9500 305.0000 1.0000
51.9600 302.0000 1.0000
51.9700 317.0000 1.0000
51.9800 315.0000 1.0000
51.9900 305.0000 1.0000
52.0000 296.0000 1.0000
52.0100 305.0000 1.0000
52.0200 258.0000 1.0000
52.0300 286.0000 1.0000
52.0400 293.0000 1.0000
52.0500 308.0000 1.0000
52.0600 356.0000 1.0000
52.0700 294.0000 1.0000
52.0800 303.0000 1.0000
52.0900 308.0000 1.0000
52.1000 290.0000 1.0000
52.1100 290.0000 1.0000
52.1200 300.0000 1.0000
52.1300 318.0000 1.0000
52.1400 309.0000 1.0000
52.1500 287.0000 1.0000
52.1600 284.0000 1.0000
52.1700 294.0000 1.0000
52.1800 276.0000 1.0000
52.1900 297.0000 1.0000
52.2000 284.0000 1.0000
52.2100 302.0000 1.0000
52.2200 308.0000 1.0000
52.2300 328.0000 1.0000
52.2400 302.0000 1.0000
52.2500 295.0000 1.0000
52.2600 301.0000 1.0000
52.2700 299.0000 1.0000
52.2800 293.0000 1.0000
52.2900 292.0000 1.0000
52.3000 290.0000 1.0000
52.3100 252.0000 1.0000
52.3200 320.0000 1.0000
52.3300 286.0000 1.0000
52.3400 289.0000 1.0000
52.3500 282.0000 1.0000
52.3600 286.0000 1.0000
52.3700 298.0000 1.0000
52.3800 271.0000 1.0000
52.3900 291.0000 1.0000
52.4000 297.0000 1.0000
52.4100 314.0000 1.0000
52.4200 277.0000 1.0000
52.4300 270.0000 1.0000
52.4400 295.0000 1.0000
52.4500 285.0000 1.0000
52.4600 272.0000 1.0000
52.4700 292.0000 1.0000
52.4800 301.0000 1.0000
52.4900 264.0000 1.0000
52.5000 274.0000 1.0000
52.5100 299.0000 1.0000
52.5200 284.0000 1.0000
52.5300 288.0000 1.0000
52.5400 250.0000 1.0000
52.5500 277.0000 1.0000
52.5600 274.0000 1.0000
52.5700 268.0000 1.0000
52.5800 275.0000 1.0000
52.5900 269.0000 1.0000
52.6000 286.0000 1.0000
52.6100 315.0000 1.0000
52.6200 317.0000 1.0000
52.6300 262.0000 1.0000
52.6400 259.0000 1.0000
52.6500 307.0000 1.0000
52.6600 265.0000 1.0000
52.6700 274.0000 1.0000
52.6800 303.0000 1.0000
52.6900 311.0000 1.0000
52.7000 287.0000 1.0000
52.7100 276.0000 1.0000
52.7200 276.0000 1.0000
52.7300 273.0000 1.0000
52.7400 267.0000 1.0000
52.7500 275.0000 1.0000
52.7600 284.0000 1.0000
52.7700 280.0000 1.0000
52.7800 289.0000 1.0000
52.7900 288.0000 1.0000
52.8000 297.0000 1.0000
52.8100 304.0000 1.0000
52.8200 270.0000 1.0000
52.8300 300.0000 1.0000
52.8400 266.0000 1.0000
52.8500 300.0000 1.0000
52.8600 264.0000 1.0000
52.8700 297.0000 1.0000
52.8800 278.0000 1.0000
52.8900 276.0000 1.0000
52.9000 268.0000 1.0000
52.9100 277.0000 1.0000
52.9200 280.0000 1.0000
52.9300 294.0000 1.0000
52.9400 272.0000 1.0000
52.9500 270.0000 1.0000
52.9600 255.0000 1.0000
52.9700 254.0000 1.0000
52.9800 258.0000 1.0000
52.9900 269.0000 1.0000
53.0000 281.0000 1.0000
53.0100 263.0000 1.0000
53.0200 269.0000 1.0000
53.0300 277.0000 1.0000
53.0400 281.0000 1.0000
53.0500 280.0000 1.0000
53.0600 261.0000 1.0000
53.0700 300.0000 1.0000
53.0800 280.0000 1.0000
53.0900 265.0000 1.0000
53.1000 296.0000 1.0000
53.1100 280.0000 1.0000
53.1200 272.0000 1.0000
53.1300 290.0000 1.0000
53.1400 261.0000 1.0000
53.1500 287.0000 1.0000
53.1600 258.0000 1.0000
53.1700 284.0000 1.0000
53.1800 274.0000 1.0000
53.1900 292.0000 1.0000
53.2000 304.0000 1.0000
53.2100 294.0000 1.0000
53.2200 278.0000 1.0000
53.2300 302.0000 1.0000
53.2400 266.0000 1.0000
53.2500 296.0000 1.0000
53.2600 304.0000 1.0000
53.2700 291.0000 1.0000
53.2800 265.0000 1.0000
53.2900 270.0000 1.0000
53.3000 280.0000 1.0000
53.3100 286.0000 1.0000
53.3200 251.0000 1.0000
53.3300 274.0000 1.0000
53.3400 271.0000 1.0000
53.3500 269.0000 1.0000
53.3600 253.0000 1.0000
53.3700 284.0000 1.0000
53.3800 248.0000 1.0000
53.3900 261.0000 1.0000
53.4000 279.0000 1.0000
53.4100 270.0000 1.0000
53.4200 306.0000 1.0000
53.4300 280.0000 1.0000
53.4400 282.0000 1.0000
53.4500 285.0000 1.0000
53.4600 302.0000 1.0000
53.4700 291.0000 1.0000
53.4800 264.0000 1.0000
53.4900 271.0000 1.0000
53.5000 275.0000 1.0000
53.5100 283.0000 1.0000
53.5200 273.0000 1.0000
53.5300 312.0000 1.0000
53.5400 284.0000 1.0000
53.5500 261.0000 1.0000
53.5600 254.0000 1.0000
53.5700 301.0000 1.0000
53.5800 278.0000 1.0000
53.5900 295.0000 1.0000
53.6000 276.0000 1.0000
53.6100 265.0000 1.0000
53.6200 261.0000 1.0000
53.6300 302.0000 1.0000
53.6400 286.0000 1.0000
53.6500 288.0000 1.0000
53.6600 290.0000 1.0000
53.6700 311.0000 1.0000
53.6800 297.0000 1.0000
53.6900 298.0000 1.0000
53.7000 270.0000 1.0000
53.7100 273.0000 1.0000
53.7200 289.0000 1.0000
53.7300 297.0000 1.0000
53.7400 295.0000 1.0000
53.7500 312.0000 1.0000
53.7600 280.0000 1.0000
53.7700 278.0000 1.0000
53.7800 266.0000 1.0000
53.7900 286.0000 1.0000
53.8000 308.0000 1.0000
53.8100 297.0000 1.0000
53.8200 280.0000 1.0000
53.8300 293.0000 1.0000
53.8400 302.0000 1.0000
53.8500 326.0000 1.0000
53.8600 288.0000 1.0000
53.8700 318.0000 1.0000
53.8800 310.0000 1.0000
53.8900 290.0000 1.0000
53.9000 318.0000 1.0000
53.9100 339.0000 1.0000
53.9200 335.0000 1.0000
53.9300 310.0000 1.0000
53.9400 312.0000 1.0000
53.9500 328.0000 1.0000
53.9600 325.0000 1.0000
53.9700 314.0000 1.0000
53.9800 327.0000 1.0000
53.9900 307.0000 1.0000
54.0000 324.0000 1.0000
54.0100 338.0000 1.0000
54.0200 348.0000 1.0000
54.0300 337.0000 1.0000
54.0400 345.0000 1.0000
54.0500 344.0000 1.0000
54.0600 312.0000 1.0000
54.0700 305.0000 1.0000
54.0800 298.0000 1.0000
54.0900 350.0000 1.0000
54.1000 334.0000 1.0000
54.1100 312.0000 1.0000
54.1200 336.0000 1.0000
54.1300 332.0000 1.0000
54.1400 330.0000 1.0000
54.1500 357.0000 1.0000
54.1600 317.0000 1.0000
54.1700 306.0000 1.0000
54.1800 327.0000 1.0000
54.1900 336.0000 1.0000
54.2000 315.0000 1.0000
54.2100 314.0000 1.0000
54.2200 294.0000 1.0000
54.2300 314.0000 1.0000
54.2400 327.0000 1.0000
54.2500 325.0000 1.0000
54.2600 301.0000 1.0000
54.2700 343.0000 1.0000
54.2800 296.0000 1.0000
54.2900 298.0000 1.0000
54.3000 307.0000 1.0000
54.3100 307.0000 1.0000
54.3200 328.0000 1.0000
54.3300 341.0000 1.0000
54.3400 317.0000 1.0000
54.3500 342.0000 1.0000
54.3600 306.0000 1.0000
54.3700 333.0000 1.0000
54.3800 308.0000 1.0000
54.3900 345.0000 1.0000
54.4000 305.0000 1.0000
54.4100 326.0000 1.0000
54.4200 325.0000 1.0000
54.4300 340.0000 1.0000
54.4400 347.0000 1.0000
54.4500 335.0000 1.0000
54.4600 318.0000 1.0000
54.4700 344.0000 1.0000
54.4800 339.0000 1.0000
54.4900 326.0000 1.0000
54.5000 329.0000 1.0000
54.5100 322.0000 1.0000
54.5200 319.0000 1.0000
54.5300 322.0000 1.0000
54.5400 346.0000 1.0000
54.5500 335.0000 1.0000
54.5600 304.0000 1.0000
54.5700 325.0000 1.0000
54.5800 320.0000 1.0000
54.5900 309.0000 1.0000
54.6000 338.0000 1.0000
54.6100 335.0000 1.0000
54.6200 315.0000 1.0000
54.6300 319.0000 1.0000
54.6400 294.0000 1.0000
54.6500 323.0000 1.0000
54.6600 313.0000 1.0000
54.6700 308.0000 1.0000
54.6800 314.0000 1.0000
54.6900 311.0000 1.0000
54.7000 307.0000 1.0000
54.7100 298.0000 1.0000
54.7200 289.0000 1.0000
54.7300 288.0000 1.0000
54.7400 272.0000 1.0000
54.7500 280.0000 1.0000
54.7600 300.0000 1.0000
54.7700 296.0000 1.0000
54.7800 279.0000 1.0000
54.7900 282.0000 1.0000
54.8000 315.0000 1.0000
54.8100 251.0000 1.0000
54.8200 273.0000 1.0000
54.8300 267.0000 1.0000
54.8400 284.0000 1.0000
54.8500 293.0000 1.0000
54.8600 263.0000 1.0000
54.8700 270.0000 1.0000
54.8800 270.0000 1.0000
54.8900 309.0000 1.0000
54.9000 297.0000 1.0000
54.9100 273.0000 1.0000
54.9200 281.0000 1.0000
54.9300 264.0000 1.0000
54.9400 305.0000 1.0000
54.9500 291.0000 1.0000
54.9600 297.0000 1.0000
54.9700 295.0000 1.0000
54.9800 282.0000 1.0000
54.9900 283.0000 1.0000
55.0000 279.0000 1.0000
55.0100 269.0000 1.0000
55.0200 277.0000 1.0000
55.0300 268.0000 1.0000
55.0400 298.0000 1.0000
55.0500 274.0000 1.0000
55.0600 281.0000 1.0000
55.0700 265.0000 1.0000
55.0800 279.0000 1.0000
55.0900 250.0000 1.0000
55.1000 289.0000 1.0000
55.1100 265.0000 1.0000
55.1200 287.0000 1.0000
55.1300 294.0000 1.0000
55.1400 282.0000 1.0000
55.1500 266.0000 1.0000
55.1600 292.0000 1.0000
55.1700 297.0000 1.0000
55.1800 270.0000 1.0000
55.1900 266.0000 1.0000
55.2000 242.0000 1.0000
55.2100 262.0000 1.0000
55.2200 271.0000 1.0000
55.2300 279.0000 1.0000
55.2400 284.0000 1.0000
55.2500 268.0000 1.0000
55.2600 260.0000 1.0000
55.2700 265.0000 1.0000
55.2800 249.0000 1.0000
55.2900 261.0000 1.0000
55.3000 255.0000 1.0000
55.3100 271.0000 1.0000
55.3200 263.0000 1.0000
55.3300 261.0000 1.0000
55.3400 260.0000 1.0000
55.3500 269.0000 1.0000
55.3600 257.0000 1.0000
55.3700 260.0000 1.0000
55.3800 272.0000 1.0000
55.3900 270.0000 1.0000
55.4000 263.0000 1.0000
55.4100 265.0000 1.0000
55.4200 270.0000 1.0000
55.4300 285.0000 1.0000
55.4400 297.0000 1.0000
55.4500 270.0000 1.0000
55.4600 255.0000 1.0000
55.4700 283.0000 1.0000
55.4800 277.0000 1.0000
55.4900 304.0000 1.0000
55.5000 280.0000 1.0000
55.5100 266.0000 1.0000
55.5200 257.0000 1.0000
55.5300 271.0000 1.0000
55.5400 267.0000 1.0000
55.5500 279.0000 1.0000
55.5600 258.0000 1.0000
55.5700 257.0000 1.0000
55.5800 293.0000 1.0000
55.5900 269.0000 1.0000
55.6000 285.0000 1.0000
55.6100 271.0000 1.0000
55.6200 232.0000 1.0000
55.6300 245.0000 1.0000
55.6400 276.0000 1.0000
55.6500 282.0000 1.0000
55.6600 251.0000 1.0000
55.6700 260.0000 1.0000
55.6800 272.0000 1.0000
55.6900 264.0000 1.0000
55.7000 290.0000 1.0000
55.7100 250.0000 1.0000
55.7200 286.0000 1.0000
55.7300 258.0000 1.0000
55.7400 259.0000 1.0000
55.7500 268.0000 1.0000
55.7600 286.0000 1.0000
55.7700 258.0000 1.0000
55.7800 272.0000 1.0000
55.7900 282.0000 1.0000
55.8000 268.0000 1.0000
55.8100 275.0000 1.0000
55.8200 267.0000 1.0000
55.8300 258.0000 1.0000
55.8400 269.0000 1.0000
55.8500 268.0000 1.0000
55.8600 246.0000 1.0000
55.8700 277.0000 1.0000
55.8800 251.0000 1.0000
55.8900 269.0000 1.0000
55.9000 285.0000 1.0000
55.9100 286.0000 1.0000
55.9200 290.0000 1.0000
55.9300 255.0000 1.0000
55.9400 271.0000 1.0000
55.9500 263.0000 1.0000
55.9600 272.0000 1.0000
55.9700 269.0000 1.0000
55.9800 255.0000 1.0000
55.9900 281.0000 1.0000
56.0000 249.0000 1.0000
56.0100 272.0000 1.0000
56.0200 247.0000 1.0000
56.0300 273.0000 1.0000
56.0400 275.0000 1.0000
56.0500 268.0000 1.0000
56.0600 276.0000 1.0000
56.0700 272.0000 1.0000
56.0800 272.0000 1.0000
56.0900 262.0000 1.0000
56.1000 247.0000 1.0000
56.1100 261.0000 1.0000
56.1200 274.0000 1.0000
56.1300 253.0000 1.0000
56.1400 270.0000 1.0000
56.1500 247.0000 1.0000
56.1600 277.0000 1.0000
56.1700 268.0000 1.0000
56.1800 244.0000 1.0000
56.1900 281.0000 1.0000
56.2000 260.0000 1.0000
56.2100 274.0000 1.0000
56.2200 251.0000 1.0000
56.2300 259.0000 1.0000
56.2400 252.0000 1.0000
56.2500 265.0000 1.0000
56.2600 275.0000 1.0000
56.2700 261.0000 1.0000
56.2800 266.0000 1.0000
56.2900 251.0000 1.0000
56.3000 285.0000 1.0000
56.3100 254.0000 1.0000
56.3200 262.0000 1.0000
56.3300 270.0000 1.0000
56.3400 249.0000 1.0000
56.3500 278.0000 1.0000
56.3600 269.0000 1.0000
56.3700 264.0000 1.0000
56.3800 282.0000 1.0000
56.3900 256.0000 1.0000
56.4000 267.0000 1.0000
56.4100 265.0000 1.0000
56.4200 266.0000 1.0000
56.4300 277.0000 1.0000
56.4400 279.0000 1.0000
56.4500 266.0000 1.0000
56.4600 268.0000 1.0000
56.4700 266.0000 1.0000
56.4800 278.0000 1.0000
56.4900 263.0000 1.0000
56.5000 259.0000 1.0000
56.5100 262.0000 1.0000
56.5200 252.0000 1.0000
56.5300 252.0000 1.0000
56.5400 251.0000 1.0000
56.5500 242.0000 1.0000
56.5600 265.0000 1.0000
56.5700 280.0000 1.0000
56.5800 274.0000 1.0000
56.5900 246.0000 1.0000
56.6000 267.0000 1.0000
56.6100 256.0000 1.0000
56.6200 234.0000 1.0000
56.6300 243.0000 1.0000
56.6400 265.0000 1.0000
56.6500 252.0000 1.0000
56.6600 268.0000 1.0000
56.6700 280.0000 1.0000
56.6800 271.0000 1.0000
56.6900 280.0000 1.0000
56.7000 252.0000 1.0000
56.7100 282.0000 1.0000
56.7200 246.0000 1.0000
56.7300 249.0000 1.0000
56.7400 268.0000 1.0000
56.7500 268.0000 1.0000
56.7600 282.0000 1.0000
56.7700 284.0000 1.0000
56.7800 261.0000 1.0000
56.7900 282.0000 1.0000
56.8000 273.0000 1.0000
56.8100 257.0000 1.0000
56.8200 276.0000 1.0000
56.8300 243.0000 1.0000
56.8400 257.0000 1.0000
56.8500 255.0000 1.0000
56.8600 246.0000 1.0000
56.8700 266.0000 1.0000
56.8800 245.0000 1.0000
56.8900 245.0000 1.0000
56.9000 258.0000 1.0000
56.9100 263.0000 1.0000
56.9200 285.0000 1.0000
56.9300 271.0000 1.0000
56.9400 261.0000 1.0000
56.9500 267.0000 1.0000
56.9600 254.0000 1.0000
56.9700 264.0000 1.0000
56.9800 261.0000 1.0000
56.9900 241.0000 1.0000
57.0000 277.0000 1.0000
57.0100 259.0000 1.0000
57.0200 252.0000 1.0000
57.0300 264.0000 1.0000
57.0400 263.0000 1.0000
57.0500 274.0000 1.0000
57.0600 275.0000 1.0000
57.0700 286.0000 1.0000
57.0800 299.0000 1.0000
57.0900 259.0000 1.0000
57.1000 302.0000 1.0000
57.1100 254.0000 1.0000
57.1200 276.0000 1.0000
57.1300 285.0000 1.0000
57.1400 279.0000 1.0000
57.1500 259.0000 1.0000
57.1600 262.0000 1.0000
57.1700 269.0000 1.0000
57.1800 267.0000 1.0000
57.1900 267.0000 1.0000
57.2000 249.0000 1.0000
57.2100 308.0000 1.0000
57.2200 266.0000 1.0000
57.2300 280.0000 1.0000
57.2400 283.0000 1.0000
57.2500 267.0000 1.0000
57.2600 280.0000 1.0000
57.2700 288.0000 1.0000
57.2800 256.0000 1.0000
57.2900 264.0000 1.0000
57.3000 302.0000 1.0000
57.3100 274.0000 1.0000
57.3200 254.0000 1.0000
57.3300 238.0000 1.0000
57.3400 281.0000 1.0000
57.3500 268.0000 1.0000
57.3600 262.0000 1.0000
57.3700 287.0000 1.0000
57.3800 305.0000 1.0000
57.3900 278.0000 1.0000
57.4000 273.0000 1.0000
57.4100 292.0000 1.0000
57.4200 264.0000 1.0000
57.4300 274.0000 1.0000
57.4400 281.0000 1.0000
57.4500 284.0000 1.0000
57.4600 276.0000 1.0000
57.4700 276.0000 1.0000
57.4800 285.0000 1.0000
57.4900 294.0000 1.0000
57.5000 271.0000 1.0000
57.5100 266.0000 1.0000
57.5200 258.0000 1.0000
57.5300 274.0000 1.0000
57.5400 287.0000 1.0000
57.5500 268.0000 1.0000
57.5600 258.0000 1.0000
57.5700 276.0000 1.0000
57.5800 276.0000 1.0000
57.5900 260.0000 1.0000
57.6000 293.0000 1.0000
57.6100 290.0000 1.0000
57.6200 273.0000 1.0000
57.6300 260.0000 1.0000
57.6400 291.0000 1.0000
57.6500 274.0000 1.0000
57.6600 269.0000 1.0000
57.6700 276.0000 1.0000
57.6800 270.0000 1.0000
57.6900 264.0000 1.0000
57.7000 276.0000 1.0000
57.7100 277.0000 1.0000
57.7200 278.0000 1.0000
57.7300 263.0000 1.0000
57.7400 275.0000 1.0000
57.7500 261.0000 1.0000
57.7600 272.0000 1.0000
57.7700 240.0000 1.0000
57.7800 267.0000 1.0000
57.7900 254.0000 1.0000
57.8000 254.0000 1.0000
57.8100 263.0000 1.0000
57.8200 247.0000 1.0000
57.8300 261.0000 1.0000
57.8400 271.0000 1.0000
57.8500 259.0000 1.0000
57.8600 261.0000 1.0000
57.8700 258.0000 1.0000
57.8800 274.0000 1.0000
57.8900 267.0000 1.0000
57.9000 262.0000 1.0000
57.9100 260.0000 1.0000
57.9200 269.0000 1.0000
57.9300 256.0000 1.0000
57.9400 253.0000 1.0000
57.9500 265.0000 1.0000
57.9600 263.0000 1.0000
57.9700 256.0000 1.0000
57.9800 272.0000 1.0000
57.9900 254.0000 1.0000
58.0000 283.0000 1.0000
58.0100 252.0000 1.0000
58.0200 238.0000 1.0000
58.0300 262.0000 1.0000
58.0400 270.0000 1.0000
58.0500 257.0000 1.0000
58.0600 265.0000 1.0000
58.0700 249.0000 1.0000
58.0800 265.0000 1.0000
58.0900 268.0000 1.0000
58.1000 278.0000 1.0000
58.1100 248.0000 1.0000
58.1200 290.0000 1.0000
58.1300 240.0000 1.0000
58.1400 250.0000 1.0000
58.1500 246.0000 1.0000
58.1600 253.0000 1.0000
58.1700 265.0000 1.0000
58.1800 274.0000 1.0000
58.1900 291.0000 1.0000
58.2000 286.0000 1.0000
58.2100 259.0000 1.0000
58.2200 292.0000 1.0000
58.2300 248.0000 1.0000
58.2400 255.0000 1.0000
58.2500 272.0000 1.0000
58.2600 259.0000 1.0000
58.2700 245.0000 1.0000
58.2800 232.0000 1.0000
58.2900 280.0000 1.0000
58.3000 287.0000 1.0000
58.3100 264.0000 1.0000
58.3200 253.0000 1.0000
58.3300 268.0000 1.0000
58.3400 259.0000 1.0000
58.3500 258.0000 1.0000
58.3600 252.0000 1.0000
58.3700 276.0000 1.0000
58.3800 252.0000 1.0000
58.3900 248.0000 1.0000
58.4000 263.0000 1.0000
58.4100 264.0000 1.0000
58.4200 264.0000 1.0000
58.4300 262.0000 1.0000
58.4400 273.0000 1.0000
58.4500 270.0000 1.0000
58.4600 281.0000 1.0000
58.4700 269.0000 1.0000
58.4800 284.0000 1.0000
58.4900 280.0000 1.0000
58.5000 275.0000 1.0000
58.5100 255.0000 1.0000
58.5200 247.0000 1.0000
58.5300 238.0000 1.0000
58.5400 258.0000 1.0000
58.5500 233.0000 1.0000
58.5600 275.0000 1.0000
58.5700 255.0000 1.0000
58.5800 263.0000 1.0000
58.5900 252.0000 1.0000
58.6000 263.0000 1.0000
58.6100 269.0000 1.0000
58.6200 243.0000 1.0000
58.6300 263.0000 1.0000
58.6400 271.0000 1.0000
58.6500 259.0000 1.0000
58.6600 257.0000 1.0000
58.6700 254.0000 1.0000
58.6800 250.0000 1.0000
58.6900 239.0000 1.0000
58.7000 248.0000 1.0000
58.7100 266.0000 1.0000
58.7200 271.0000 1.0000
58.7300 258.0000 1.0000
58.7400 265.0000 1.0000
58.7500 270.0000 1.0000
58.7600 258.0000 1.0000
58.7700 263.0000 1.0000
58.7800 249.0000 1.0000
58.7900 260.0000 1.0000
58.8000 255.0000 1.0000
58.8100 280.0000 1.0000
58.8200 277.0000 1.0000
58.8300 252.0000 1.0000
58.8400 263.0000 1.0000
58.8500 280.0000 1.0000
58.8600 236.0000 1.0000
58.8700 259.0000 1.0000
58.8800 269.0000 1.0000
58.8900 254.0000 1.0000
58.9000 261.0000 1.0000
58.9100 274.0000 1.0000
58.9200 266.0000 1.0000
58.9300 253.0000 1.0000
58.9400 266.0000 1.0000
58.9500 246.0000 1.0000
58.9600 256.0000 1.0000
58.9700 264.0000 1.0000
58.9800 266.0000 1.0000
58.9900 249.0000 1.0000
59.0000 239.0000 1.0000
59.0100 251.0000 1.0000
59.0200 257.0000 1.0000
59.0300 251.0000 1.0000
59.0400 285.0000 1.0000
59.0500 254.0000 1.0000
59.0600 266.0000 1.0000
59.0700 251.0000 1.0000
59.0800 258.0000 1.0000
59.0900 260.0000 1.0000
59.1000 247.0000 1.0000
59.1100 239.0000 1.0000
59.1200 255.0000 1.0000
59.1300 270.0000 1.0000
59.1400 248.0000 1.0000
59.1500 256.0000 1.0000
59.1600 227.0000 1.0000
59.1700 274.0000 1.0000
59.1800 234.0000 1.0000
59.1900 250.0000 1.0000
59.2000 242.0000 1.0000
59.2100 260.0000 1.0000
59.2200 232.0000 1.0000
59.2300 271.0000 1.0000
59.2400 235.0000 1.0000
59.2500 270.0000 1.0000
59.2600 246.0000 1.0000
59.2700 264.0000 1.0000
59.2800 261.0000 1.0000
59.2900 276.0000 1.0000
59.3000 276.0000 1.0000
59.3100 271.0000 1.0000
59.3200 290.0000 1.0000
59.3300 285.0000 1.0000
59.3400 283.0000 1.0000
59.3500 269.0000 1.0000
59.3600 271.0000 1.0000
59.3700 278.0000 1.0000
59.3800 254.0000 1.0000
59.3900 261.0000 1.0000
59.4000 284.0000 1.0000
59.4100 278.0000 1.0000
59.4200 280.0000 1.0000
59.4300 286.0000 1.0000
59.4400 280.0000 1.0000
59.4500 266.0000 1.0000
59.4600 259.0000 1.0000
59.4700 281.0000 1.0000
59.4800 243.0000 1.0000
59.4900 273.0000 1.0000
59.5000 254.0000 1.0000
59.5100 270.0000 1.0000
59.5200 229.0000 1.0000
59.5300 244.0000 1.0000
59.5400 259.0000 1.0000
59.5500 275.0000 1.0000
59.5600 264.0000 1.0000
59.5700 291.0000 1.0000
59.5800 251.0000 1.0000
59.5900 256.0000 1.0000
59.6000 295.0000 1.0000
59.6100 228.0000 1.0000
59.6200 234.0000 1.0000
59.6300 241.0000 1.0000
59.6400 248.0000 1.0000
59.6500 258.0000 1.0000
59.6600 265.0000 1.0000
59.6700 265.0000 1.0000
59.6800 270.0000 1.0000
59.6900 263.0000 1.0000
59.7000 270.0000 1.0000
59.7100 250.0000 1.0000
59.7200 239.0000 1.0000
59.7300 251.0000 1.0000
59.7400 264.0000 1.0000
59.7500 268.0000 1.0000
59.7600 271.0000 1.0000
59.7700 274.0000 1.0000
59.7800 245.0000 1.0000
59.7900 251.0000 1.0000
59.8000 259.0000 1.0000
59.8100 269.0000 1.0000
59.8200 268.0000 1.0000
59.8300 266.0000 1.0000
59.8400 263.0000 1.0000
59.8500 287.0000 1.0000
59.8600 272.0000 1.0000
59.8700 261.0000 1.0000
59.8800 240.0000 1.0000
59.8900 255.0000 1.0000
59.9000 261.0000 1.0000
59.9100 271.0000 1.0000
59.9200 266.0000 1.0000
59.9300 265.0000 1.0000
59.9400 264.0000 1.0000
59.9500 269.0000 1.0000
59.9600 252.0000 1.0000
59.9700 247.0000 1.0000
59.9800 224.0000 1.0000
59.9900 242.0000 1.0000
60.0000 252.0000 1.0000
60.0100 286.0000 1.0000
60.0200 262.0000 1.0000
60.0300 275.0000 1.0000
60.0400 272.0000 1.0000
60.0500 262.0000 1.0000
60.0600 264.0000 1.0000
60.0700 280.0000 1.0000
60.0800 282.0000 1.0000
60.0900 293.0000 1.0000
60.1000 266.0000 1.0000
60.1100 239.0000 1.0000
60.1200 250.0000 1.0000
60.1300 246.0000 1.0000
60.1400 258.0000 1.0000
60.1500 272.0000 1.0000
60.1600 253.0000 1.0000
60.1700 255.0000 1.0000
60.1800 269.0000 1.0000
60.1900 272.0000 1.0000
60.2000 271.0000 1.0000
60.2100 252.0000 1.0000
60.2200 264.0000 1.0000
60.2300 244.0000 1.0000
60.2400 245.0000 1.0000
60.2500 258.0000 1.0000
60.2600 238.0000 1.0000
60.2700 255.0000 1.0000
60.2800 232.0000 1.0000
60.2900 227.0000 1.0000
60.3000 243.0000 1.0000
60.3100 271.0000 1.0000
60.3200 256.0000 1.0000
60.3300 267.0000 1.0000
60.3400 253.0000 1.0000
60.3500 232.0000 1.0000
60.3600 242.0000 1.0000
60.3700 272.0000 1.0000
60.3800 256.0000 1.0000
60.3900 284.0000 1.0000
60.4000 283.0000 1.0000
60.4100 259.0000 1.0000
60.4200 280.0000 1.0000
60.4300 280.0000 1.0000
60.4400 261.0000 1.0000
60.4500 269.0000 1.0000
60.4600 255.0000 1.0000
60.4700 246.0000 1.0000
60.4800 257.0000 1.0000
60.4900 249.0000 1.0000
60.5000 265.0000 1.0000
60.5100 259.0000 1.0000
60.5200 296.0000 1.0000
60.5300 292.0000 1.0000
60.5400 262.0000 1.0000
60.5500 259.0000 1.0000
60.5600 280.0000 1.0000
60.5700 233.0000 1.0000
60.5800 276.0000 1.0000
60.5900 289.0000 1.0000
60.6000 251.0000 1.0000
60.6100 250.0000 1.0000
60.6200 250.0000 1.0000
60.6300 271.0000 1.0000
60.6400 262.0000 1.0000
60.6500 259.0000 1.0000
60.6600 270.0000 1.0000
60.6700 289.0000 1.0000
60.6800 290.0000 1.0000
60.6900 263.0000 1.0000
60.7000 284.0000 1.0000
60.7100 280.0000 1.0000
60.7200 288.0000 1.0000
60.7300 279.0000 1.0000
60.7400 271.0000 1.0000
60.7500 283.0000 1.0000
60.7600 245.0000 1.0000
60.7700 255.0000 1.0000
60.7800 273.0000 1.0000
60.7900 252.0000 1.0000
60.8000 284.0000 1.0000
60.8100 286.0000 1.0000
60.8200 276.0000 1.0000
60.8300 271.0000 1.0000
60.8400 242.0000 1.0000
60.8500 251.0000 1.0000
60.8600 264.0000 1.0000
60.8700 271.0000 1.0000
60.8800 280.0000 1.0000
60.8900 292.0000 1.0000
60.9000 265.0000 1.0000
60.9100 270.0000 1.0000
60.9200 277.0000 1.0000
60.9300 279.0000 1.0000
60.9400 300.0000 1.0000
60.9500 277.0000 1.0000
60.9600 291.0000 1.0000
60.9700 307.0000 1.0000
60.9800 292.0000 1.0000
60.9900 282.0000 1.0000
61.0000 295.0000 1.0000
61.0100 296.0000 1.0000
61.0200 306.0000 1.0000
61.0300 293.0000 1.0000
61.0400 296.0000 1.0000
61.0500 297.0000 1.0000
61.0600 280.0000 1.0000
61.0700 276.0000 1.0000
61.0800 295.0000 1.0000
61.0900 274.0000 1.0000
61.1000 280.0000 1.0000
61.1100 291.0000 1.0000
61.1200 282.0000 1.0000
61.1300 298.0000 1.0000
61.1400 277.0000 1.0000
61.1500 304.0000 1.0000
61.1600 282.0000 1.0000
61.1700 310.0000 1.0000
61.1800 316.0000 1.0000
61.1900 304.0000 1.0000
61.2000 300.0000 1.0000
61.2100 320.0000 1.0000
61.2200 290.0000 1.0000
61.2300 317.0000 1.0000
61.2400 327.0000 1.0000
61.2500 312.0000 1.0000
61.2600 343.0000 1.0000
61.2700 343.0000 1.0000
61.2800 370.0000 1.0000
61.2900 357.0000 1.0000
61.3000 339.0000 1.0000
61.3100 350.0000 1.0000
61.3200 365.0000 1.0000
61.3300 360.0000 1.0000
61.3400 399.0000 1.0000
61.3500 396.0000 1.0000
61.3600 395.0000 1.0000
61.3700 411.0000 1.0000
61.3800 436.0000 1.0000
61.3900 413.0000 1.0000
61.4000 403.0000 1.0000
61.4100 461.0000 1.0000
61.4200 424.0000 1.0000
61.4300 452.0000 1.0000
61.4400 449.0000 1.0000
61.4500 453.0000 1.0000
61.4600 481.0000 1.0000
61.4700 510.0000 1.0000
61.4800 462.0000 1.0000
61.4900 494.0000 1.0000
61.5000 509.0000 1.0000
61.5100 492.0000 1.0000
61.5200 461.0000 1.0000
61.5300 512.0000 1.0000
61.5400 510.0000 1.0000
61.5500 524.0000 1.0000
61.5600 535.0000 1.0000
61.5700 533.0000 1.0000
61.5800 493.0000 1.0000
61.5900 506.0000 1.0000
61.6000 521.0000 1.0000
61.6100 497.0000 1.0000
61.6200 514.0000 1.0000
61.6300 547.0000 1.0000
61.6400 499.0000 1.0000
61.6500 510.0000 1.0000
61.6600 479.0000 1.0000
61.6700 482.0000 1.0000
61.6800 503.0000 1.0000
61.6900 464.0000 1.0000
61.7000 502.0000 1.0000
61.7100 493.0000 1.0000
61.7200 471.0000 1.0000
61.7300 479.0000 1.0000
61.7400 434.0000 1.0000
61.7500 467.0000 1.0000
61.7600 443.0000 1.0000
61.7700 430.0000 1.0000
61.7800 456.0000 1.0000
61.7900 427.0000 1.0000
61.8000 427.0000 1.0000
61.8100 419.0000 1.0000
61.8200 401.0000 1.0000
61.8300 400.0000 1.0000
61.8400 410.0000 1.0000
61.8500 399.0000 1.0000
61.8600 392.0000 1.0000
61.8700 386.0000 1.0000
61.8800 408.0000 1.0000
61.8900 368.0000 1.0000
61.9000 363.0000 1.0000
61.9100 398.0000 1.0000
61.9200 359.0000 1.0000
61.9300 342.0000 1.0000
61.9400 346.0000 1.0000
61.9500 355.0000 1.0000
61.9600 339.0000 1.0000
61.9700 341.0000 1.0000
61.9800 292.0000 1.0000
61.9900 338.0000 1.0000
62.0000 331.0000 1.0000
62.0100 312.0000 1.0000
62.0200 313.0000 1.0000
62.0300 356.0000 1.0000
62.0400 351.0000 1.0000
62.0500 339.0000 1.0000
62.0600 339.0000 1.0000
62.0700 336.0000 1.0000
62.0800 323.0000 1.0000
62.0900 316.0000 1.0000
62.1000 326.0000 1.0000
62.1100 310.0000 1.0000
62.1200 291.0000 1.0000
62.1300 297.0000 1.0000
62.1400 324.0000 1.0000
62.1500 312.0000 1.0000
62.1600 310.0000 1.0000
62.1700 289.0000 1.0000
62.1800 314.0000 1.0000
62.1900 299.0000 1.0000
62.2000 322.0000 1.0000
62.2100 316.0000 1.0000
62.2200 296.0000 1.0000
62.2300 300.0000 1.0000
62.2400 330.0000 1.0000
62.2500 309.0000 1.0000
62.2600 272.0000 1.0000
62.2700 281.0000 1.0000
62.2800 324.0000 1.0000
62.2900 346.0000 1.0000
62.3000 330.0000 1.0000
62.3100 313.0000 1.0000
62.3200 335.0000 1.0000
62.3300 331.0000 1.0000
62.3400 342.0000 1.0000
62.3500 325.0000 1.0000
62.3600 350.0000 1.0000
62.3700 345.0000 1.0000
62.3800 352.0000 1.0000
62.3900 323.0000 1.0000
62.4000 313.0000 1.0000
62.4100 332.0000 1.0000
62.4200 321.0000 1.0000
62.4300 322.0000 1.0000
62.4400 349.0000 1.0000
62.4500 304.0000 1.0000
62.4600 312.0000 1.0000
62.4700 335.0000 1.0000
62.4800 301.0000 1.0000
62.4900 337.0000 1.0000
62.5000 314.0000 1.0000
62.5100 335.0000 1.0000
62.5200 350.0000 1.0000
62.5300 328.0000 1.0000
62.5400 314.0000 1.0000
62.5500 296.0000 1.0000
62.5600 330.0000 1.0000
62.5700 320.0000 1.0000
62.5800 321.0000 1.0000
62.5900 289.0000 1.0000
62.6000 314.0000 1.0000
62.6100 289.0000 1.0000
62.6200 329.0000 1.0000
62.6300 319.0000 1.0000
62.6400 289.0000 1.0000
62.6500 290.0000 1.0000
62.6600 283.0000 1.0000
62.6700 280.0000 1.0000
62.6800 278.0000 1.0000
62.6900 267.0000 1.0000
62.7000 270.0000 1.0000
62.7100 296.0000 1.0000
62.7200 302.0000 1.0000
62.7300 281.0000 1.0000
62.7400 280.0000 1.0000
62.7500 303.0000 1.0000
62.7600 257.0000 1.0000
62.7700 302.0000 1.0000
62.7800 268.0000 1.0000
62.7900 244.0000 1.0000
62.8000 298.0000 1.0000
62.8100 244.0000 1.0000
62.8200 259.0000 1.0000
62.8300 260.0000 1.0000
62.8400 272.0000 1.0000
62.8500 273.0000 1.0000
62.8600 278.0000 1.0000
62.8700 303.0000 1.0000
62.8800 249.0000 1.0000
62.8900 265.0000 1.0000
62.9000 277.0000 1.0000
62.9100 281.0000 1.0000
62.9200 261.0000 1.0000
62.9300 262.0000 1.0000
62.9400 272.0000 1.0000
62.9500 258.0000 1.0000
62.9600 254.0000 1.0000
62.9700 273.0000 1.0000
62.9800 288.0000 1.0000
62.9900 276.0000 1.0000
63.0000 271.0000 1.0000
63.0100 242.0000 1.0000
63.0200 277.0000 1.0000
63.0300 234.0000 1.0000
63.0400 267.0000 1.0000
63.0500 273.0000 1.0000
63.0600 251.0000 1.0000
63.0700 269.0000 1.0000
63.0800 247.0000 1.0000
63.0900 268.0000 1.0000
63.1000 273.0000 1.0000
63.1100 266.0000 1.0000
63.1200 285.0000 1.0000
63.1300 290.0000 1.0000
63.1400 267.0000 1.0000
63.1500 272.0000 1.0000
63.1600 260.0000 1.0000
63.1700 289.0000 1.0000
63.1800 242.0000 1.0000
63.1900 274.0000 1.0000
63.2000 260.0000 1.0000
63.2100 264.0000 1.0000
63.2200 248.0000 1.0000
63.2300 269.0000 1.0000
63.2400 257.0000 1.0000
63.2500 251.0000 1.0000
63.2600 265.0000 1.0000
63.2700 280.0000 1.0000
63.2800 287.0000 1.0000
63.2900 246.0000 1.0000
63.3000 258.0000 1.0000
63.3100 262.0000 1.0000
63.3200 280.0000 1.0000
63.3300 267.0000 1.0000
63.3400 264.0000 1.0000
63.3500 271.0000 1.0000
63.3600 248.0000 1.0000
63.3700 269.0000 1.0000
63.3800 283.0000 1.0000
63.3900 284.0000 1.0000
63.4000 276.0000 1.0000
63.4100 249.0000 1.0000
63.4200 272.0000 1.0000
63.4300 268.0000 1.0000
63.4400 243.0000 1.0000
63.4500 255.0000 1.0000
63.4600 298.0000 1.0000
63.4700 259.0000 1.0000
63.4800 255.0000 1.0000
63.4900 272.0000 1.0000
63.5000 241.0000 1.0000
63.5100 267.0000 1.0000
63.5200 291.0000 1.0000
63.5300 278.0000 1.0000
63.5400 279.0000 1.0000
63.5500 295.0000 1.0000
63.5600 296.0000 1.0000
63.5700 303.0000 1.0000
63.5800 261.0000 1.0000
63.5900 276.0000 1.0000
63.6000 253.0000 1.0000
63.6100 276.0000 1.0000
63.6200 277.0000 1.0000
63.6300 258.0000 1.0000
63.6400 235.0000 1.0000
63.6500 286.0000 1.0000
63.6600 288.0000 1.0000
63.6700 286.0000 1.0000
63.6800 271.0000 1.0000
63.6900 281.0000 1.0000
63.7000 264.0000 1.0000
63.7100 279.0000 1.0000
63.7200 266.0000 1.0000
63.7300 263.0000 1.0000
63.7400 265.0000 1.0000
63.7500 277.0000 1.0000
63.7600 278.0000 1.0000
63.7700 293.0000 1.0000
63.7800 272.0000 1.0000
63.7900 276.0000 1.0000
63.8000 300.0000 1.0000
63.8100 315.0000 1.0000
63.8200 320.0000 1.0000
63.8300 315.0000 1.0000
63.8400 302.0000 1.0000
63.8500 321.0000 1.0000
63.8600 313.0000 1.0000
63.8700 318.0000 1.0000
63.8800 347.0000 1.0000
63.8900 344.0000 1.0000
63.9000 339.0000 1.0000
63.9100 343.0000 1.0000
63.9200 339.0000 1.0000
63.9300 316.0000 1.0000
63.9400 352.0000 1.0000
63.9500 376.0000 1.0000
63.9600 378.0000 1.0000
63.9700 329.0000 1.0000
63.9800 350.0000 1.0000
63.9900 354.0000 1.0000
64.0000 360.0000 1.0000
64.0100 352.0000 1.0000
64.0200 352.0000 1.0000
64.0300 333.0000 1.0000
64.0400 337.0000 1.0000
64.0500 318.0000 1.0000
64.0600 342.0000 1.0000
64.0700 346.0000 1.0000
64.0800 333.0000 1.0000
64.0900 293.0000 1.0000
64.1000 363.0000 1.0000
64.1100 333.0000 1.0000
64.1200 346.0000 1.0000
64.1300 336.0000 1.0000
64.1400 295.0000 1.0000
64.1500 298.0000 1.0000
64.1600 300.0000 1.0000
64.1700 319.0000 1.0000
64.1800 317.0000 1.0000
64.1900 319.0000 1.0000
64.2000 314.0000 1.0000
64.2100 295.0000 1.0000
64.2200 297.0000 1.0000
64.2300 296.0000 1.0000
64.2400 333.0000 1.0000
64.2500 276.0000 1.0000
64.2600 302.0000 1.0000
64.2700 309.0000 1.0000
64.2800 300.0000 1.0000
64.2900 308.0000 1.0000
64.3000 269.0000 1.0000
64.3100 282.0000 1.0000
64.3200 286.0000 1.0000
64.3300 278.0000 1.0000
64.3400 306.0000 1.0000
64.3500 281.0000 1.0000
64.3600 272.0000 1.0000
64.3700 287.0000 1.0000
64.3800 281.0000 1.0000
64.3900 250.0000 1.0000
64.4000 274.0000 1.0000
64.4100 259.0000 1.0000
64.4200 289.0000 1.0000
64.4300 274.0000 1.0000
64.4400 262.0000 1.0000
64.4500 271.0000 1.0000
64.4600 257.0000 1.0000
64.4700 269.0000 1.0000
64.4800 261.0000 1.0000
64.4900 283.0000 1.0000
64.5000 265.0000 1.0000
64.5100 298.0000 1.0000
64.5200 272.0000 1.0000
64.5300 227.0000 1.0000
64.5400 267.0000 1.0000
64.5500 263.0000 1.0000
64.5600 262.0000 1.0000
64.5700 257.0000 1.0000
64.5800 273.0000 1.0000
64.5900 267.0000 1.0000
64.6000 288.0000 1.0000
64.6100 298.0000 1.0000
64.6200 269.0000 1.0000
64.6300 275.0000 1.0000
64.6400 260.0000 1.0000
64.6500 265.0000 1.0000
64.6600 253.0000 1.0000
64.6700 259.0000 1.0000
64.6800 253.0000 1.0000
64.6900 263.0000 1.0000
64.7000 286.0000 1.0000
64.7100 291.0000 1.0000
64.7200 287.0000 1.0000
64.7300 301.0000 1.0000
64.7400 283.0000 1.0000
64.7500 264.0000 1.0000
64.7600 257.0000 1.0000
64.7700 260.0000 1.0000
64.7800 280.0000 1.0000
64.7900 304.0000 1.0000
64.8000 290.0000 1.0000
64.8100 272.0000 1.0000
64.8200 297.0000 1.0000
64.8300 286.0000 1.0000
64.8400 282.0000 1.0000
64.8500 261.0000 1.0000
64.8600 295.0000 1.0000
64.8700 258.0000 1.0000
64.8800 255.0000 1.0000
64.8900 279.0000 1.0000
64.9000 281.0000 1.0000
64.9100 287.0000 1.0000
64.9200 290.0000 1.0000
64.9300 292.0000 1.0000
64.9400 295.0000 1.0000
64.9500 307.0000 1.0000
64.9600 290.0000 1.0000
64.9700 312.0000 1.0000
64.9800 283.0000 1.0000
64.9900 287.0000 1.0000
65.0000 296.0000 1.0000
65.0100 305.0000 1.0000
65.0200 305.0000 1.0000
65.0300 301.0000 1.0000
65.0400 336.0000 1.0000
65.0500 282.0000 1.0000
65.0600 304.0000 1.0000
65.0700 302.0000 1.0000
65.0800 299.0000 1.0000
65.0900 315.0000 1.0000
65.1000 345.0000 1.0000
65.1100 321.0000 1.0000
65.1200 321.0000 1.0000
65.1300 324.0000 1.0000
65.1400 312.0000 1.0000
65.1500 314.0000 1.0000
65.1600 312.0000 1.0000
65.1700 349.0000 1.0000
65.1800 347.0000 1.0000
65.1900 337.0000 1.0000
65.2000 348.0000 1.0000
65.2100 346.0000 1.0000
65.2200 351.0000 1.0000
65.2300 374.0000 1.0000
65.2400 362.0000 1.0000
65.2500 376.0000 1.0000
65.2600 385.0000 1.0000
65.2700 376.0000 1.0000
65.2800 370.0000 1.0000
65.2900 399.0000 1.0000
65.3000 420.0000 1.0000
65.3100 406.0000 1.0000
65.3200 422.0000 1.0000
65.3300 483.0000 1.0000
65.3400 490.0000 1.0000
65.3500 476.0000 1.0000
65.3600 524.0000 1.0000
65.3700 539.0000 1.0000
65.3800 569.0000 1.0000
65.3900 567.0000 1.0000
65.4000 626.0000 1.0000
65.4100 678.0000 1.0000
65.4200 676.0000 1.0000
65.4300 660.0000 1.0000
65.4400 687.0000 1.0000
65.4500 722.0000 1.0000
65.4600 733.0000 1.0000
65.4700 742.0000 1.0000
65.4800 719.0000 1.0000
65.4900 759.0000 1.0000
65.5000 781.0000 1.0000
65.5100 788.0000 1.0000
65.5200 732.0000 1.0000
65.5300 774.0000 1.0000
65.5400 788.0000 1.0000
65.5500 743.0000 1.0000
65.5600 778.0000 1.0000
65.5700 756.0000 1.0000
65.5800 760.0000 1.0000
65.5900 730.0000 1.0000
65.6000 718.0000 1.0000
65.6100 680.0000 1.0000
65.6200 655.0000 1.0000
65.6300 675.0000 1.0000
65.6400 656.0000 1.0000
65.6500 620.0000 1.0000
65.6600 644.0000 1.0000
65.6700 634.0000 1.0000
65.6800 645.0000 1.0000
65.6900 647.0000 1.0000
65.7000 620.0000 1.0000
65.7100 559.0000 1.0000
65.7200 574.0000 1.0000
65.7300 541.0000 1.0000
65.7400 553.0000 1.0000
65.7500 560.0000 1.0000
65.7600 500.0000 1.0000
65.7700 488.0000 1.0000
65.7800 489.0000 1.0000
65.7900 453.0000 1.0000
65.8000 446.0000 1.0000
65.8100 470.0000 1.0000
65.8200 434.0000 1.0000
65.8300 417.0000 1.0000
65.8400 375.0000 1.0000
65.8500 417.0000 1.0000
65.8600 389.0000 1.0000
65.8700 346.0000 1.0000
65.8800 369.0000 1.0000
65.8900 372.0000 1.0000
65.9000 364.0000 1.0000
65.9100 368.0000 1.0000
65.9200 335.0000 1.0000
65.9300 332.0000 1.0000
65.9400 334.0000 1.0000
65.9500 351.0000 1.0000
65.9600 349.0000 1.0000
65.9700 318.0000 1.0000
65.9800 311.0000 1.0000
65.9900 313.0000 1.0000
66.0000 327.0000 1.0000
66.0100 292.0000 1.0000
66.0200 286.0000 1.0000
66.0300 309.0000 1.0000
66.0400 302.0000 1.0000
66.0500 329.0000 1.0000
66.0600 321.0000 1.0000
66.0700 305.0000 1.0000
66.0800 297.0000 1.0000
66.0900 309.0000 1.0000
66.1000 284.0000 1.0000
66.1100 284.0000 1.0000
66.1200 322.0000 1.0000
66.1300 293.0000 1.0000
66.1400 302.0000 1.0000
66.1500 285.0000 1.0000
66.1600 288.0000 1.0000
66.1700 264.0000 1.0000
66.1800 310.0000 1.0000
66.1900 307.0000 1.0000
66.2000 283.0000 1.0000
66.2100 262.0000 1.0000
66.2200 294.0000 1.0000
66.2300 285.0000 1.0000
66.2400 267.0000 1.0000
66.2500 262.0000 1.0000
66.2600 274.0000 1.0000
66.2700 286.0000 1.0000
66.2800 249.0000 1.0000
66.2900 255.0000 1.0000
66.3000 266.0000 1.0000
66.3100 239.0000 1.0000
66.3200 269.0000 1.0000
66.3300 263.0000 1.0000
66.3400 252.0000 1.0000
66.3500 265.0000 1.0000
66.3600 246.0000 1.0000
66.3700 264.0000 1.0000
66.3800 260.0000 1.0000
66.3900 253.0000 1.0000
66.4000 271.0000 1.0000
66.4100 268.0000 1.0000
66.4200 238.0000 1.0000
66.4300 241.0000 1.0000
66.4400 242.0000 1.0000
66.4500 260.0000 1.0000
66.4600 280.0000 1.0000
66.4700 222.0000 1.0000
66.4800 252.0000 1.0000
66.4900 251.0000 1.0000
66.5000 258.0000 1.0000
66.5100 235.0000 1.0000
66.5200 263.0000 1.0000
66.5300 243.0000 1.0000
66.5400 246.0000 1.0000
66.5500 246.0000 1.0000
66.5600 257.0000 1.0000
66.5700 238.0000 1.0000
66.5800 254.0000 1.0000
66.5900 261.0000 1.0000
66.6000 265.0000 1.0000
66.6100 244.0000 1.0000
66.6200 243.0000 1.0000
66.6300 213.0000 1.0000
66.6400 251.0000 1.0000
66.6500 268.0000 1.0000
66.6600 268.0000 1.0000
66.6700 290.0000 1.0000
66.6800 256.0000 1.0000
66.6900 265.0000 1.0000
66.7000 258.0000 1.0000
66.7100 248.0000 1.0000
66.7200 226.0000 1.0000
66.7300 268.0000 1.0000
66.7400 240.0000 1.0000
66.7500 245.0000 1.0000
66.7600 242.0000 1.0000
66.7700 257.0000 1.0000
66.7800 255.0000 1.0000
66.7900 241.0000 1.0000
66.8000 257.0000 1.0000
66.8100 251.0000 1.0000
66.8200 257.0000 1.0000
66.8300 259.0000 1.0000
66.8400 261.0000 1.0000
66.8500 264.0000 1.0000
66.8600 252.0000 1.0000
66.8700 220.0000 1.0000
66.8800 235.0000 1.0000
66.8900 245.0000 1.0000
66.9000 247.0000 1.0000
66.9100 264.0000 1.0000
66.9200 262.0000 1.0000
66.9300 243.0000 1.0000
66.9400 227.0000 1.0000
66.9500 246.0000 1.0000
66.9600 260.0000 1.0000
66.9700 257.0000 1.0000
66.9800 235.0000 1.0000
66.9900 237.0000 1.0000
67.0000 251.0000 1.0000
67.0100 246.0000 1.0000
67.0200 236.0000 1.0000
67.0300 248.0000 1.0000
67.0400 239.0000 1.0000
67.0500 246.0000 1.0000
67.0600 251.0000 1.0000
67.0700 259.0000 1.0000
67.0800 259.0000 1.0000
67.0900 236.0000 1.0000
67.1000 277.0000 1.0000
67.1100 234.0000 1.0000
67.1200 261.0000 1.0000
67.1300 246.0000 1.0000
67.1400 235.0000 1.0000
67.1500 231.0000 1.0000
67.1600 242.0000 1.0000
67.1700 266.0000 1.0000
67.1800 248.0000 1.0000
67.1900 253.0000 1.0000
67.2000 257.0000 1.0000
67.2100 235.0000 1.0000
67.2200 238.0000 1.0000
67.2300 229.0000 1.0000
67.2400 224.0000 1.0000
67.2500 242.0000 1.0000
67.2600 226.0000 1.0000
67.2700 192.0000 1.0000
67.2800 228.0000 1.0000
67.2900 262.0000 1.0000
67.3000 239.0000 1.0000
67.3100 250.0000 1.0000
67.3200 238.0000 1.0000
67.3300 247.0000 1.0000
67.3400 232.0000 1.0000
67.3500 250.0000 1.0000
67.3600 253.0000 1.0000
67.3700 247.0000 1.0000
67.3800 275.0000 1.0000
67.3900 222.0000 1.0000
67.4000 230.0000 1.0000
67.4100 240.0000 1.0000
67.4200 226.0000 1.0000
67.4300 235.0000 1.0000
67.4400 237.0000 1.0000
67.4500 236.0000 1.0000
67.4600 229.0000 1.0000
67.4700 236.0000 1.0000
67.4800 255.0000 1.0000
67.4900 238.0000 1.0000
67.5000 230.0000 1.0000
67.5100 235.0000 1.0000
67.5200 203.0000 1.0000
67.5300 237.0000 1.0000
67.5400 231.0000 1.0000
67.5500 247.0000 1.0000
67.5600 249.0000 1.0000
67.5700 257.0000 1.0000
67.5800 236.0000 1.0000
67.5900 226.0000 1.0000
67.6000 217.0000 1.0000
67.6100 240.0000 1.0000
67.6200 238.0000 1.0000
67.6300 241.0000 1.0000
67.6400 231.0000 1.0000
67.6500 210.0000 1.0000
67.6600 241.0000 1.0000
67.6700 221.0000 1.0000
67.6800 237.0000 1.0000
67.6900 226.0000 1.0000
67.7000 220.0000 1.0000
67.7100 238.0000 1.0000
67.7200 249.0000 1.0000
67.7300 246.0000 1.0000
67.7400 231.0000 1.0000
67.7500 238.0000 1.0000
67.7600 258.0000 1.0000
67.7700 231.0000 1.0000
67.7800 234.0000 1.0000
67.7900 221.0000 1.0000
67.8000 257.0000 1.0000
67.8100 220.0000 1.0000
67.8200 222.0000 1.0000
67.8300 225.0000 1.0000
67.8400 270.0000 1.0000
67.8500 234.0000 1.0000
67.8600 241.0000 1.0000
67.8700 226.0000 1.0000
67.8800 251.0000 1.0000
67.8900 253.0000 1.0000
67.9000 252.0000 1.0000
67.9100 241.0000 1.0000
67.9200 246.0000 1.0000
67.9300 221.0000 1.0000
67.9400 236.0000 1.0000
67.9500 233.0000 1.0000
67.9600 199.0000 1.0000
67.9700 243.0000 1.0000
67.9800 233.0000 1.0000
67.9900 262.0000 1.0000
68.0000 214.0000 1.0000
68.0100 256.0000 1.0000
68.0200 236.0000 1.0000
68.0300 227.0000 1.0000
68.0400 244.0000 1.0000
68.0500 238.0000 1.0000
68.0600 234.0000 1.0000
68.0700 243.0000 1.0000
68.0800 247.0000 1.0000
68.0900 234.0000 1.0000
68.1000 223.0000 1.0000
68.1100 226.0000 1.0000
68.1200 239.0000 1.0000
68.1300 222.0000 1.0000
68.1400 236.0000 1.0000
68.1500 231.0000 1.0000
68.1600 226.0000 1.0000
68.1700 244.0000 1.0000
68.1800 229.0000 1.0000
68.1900 259.0000 1.0000
68.2000 260.0000 1.0000
68.2100 242.0000 1.0000
68.2200 240.0000 1.0000
68.2300 216.0000 1.0000
68.2400 229.0000 1.0000
68.2500 237.0000 1.0000
68.2600 240.0000 1.0000
68.2700 246.0000 1.0000
68.2800 233.0000 1.0000
68.2900 239.0000 1.0000
68.3000 241.0000 1.0000
68.3100 230.0000 1.0000
68.3200 249.0000 1.0000
68.3300 224.0000 1.0000
68.3400 226.0000 1.0000
68.3500 259.0000 1.0000
68.3600 250.0000 1.0000
68.3700 226.0000 1.0000
68.3800 245.0000 1.0000
68.3900 239.0000 1.0000
68.4000 238.0000 1.0000
68.4100 216.0000 1.0000
68.4200 257.0000 1.0000
68.4300 229.0000 1.0000
68.4400 228.0000 1.0000
68.4500 232.0000 1.0000
68.4600 229.0000 1.0000
68.4700 245.0000 1.0000
68.4800 236.0000 1.0000
68.4900 226.0000 1.0000
68.5000 248.0000 1.0000
68.5100 236.0000 1.0000
68.5200 233.0000 1.0000
68.5300 246.0000 1.0000
68.5400 216.0000 1.0000
68.5500 225.0000 1.0000
68.5600 227.0000 1.0000
68.5700 219.0000 1.0000
68.5800 232.0000 1.0000
68.5900 242.0000 1.0000
68.6000 232.0000 1.0000
68.6100 221.0000 1.0000
68.6200 246.0000 1.0000
68.6300 246.0000 1.0000
68.6400 226.0000 1.0000
68.6500 241.0000 1.0000
68.6600 237.0000 1.0000
68.6700 212.0000 1.0000
68.6800 227.0000 1.0000
68.6900 209.0000 1.0000
68.7000 203.0000 1.0000
68.7100 216.0000 1.0000
68.7200 228.0000 1.0000
68.7300 228.0000 1.0000
68.7400 250.0000 1.0000
68.7500 233.0000 1.0000
68.7600 223.0000 1.0000
68.7700 223.0000 1.0000
68.7800 219.0000 1.0000
68.7900 254.0000 1.0000
68.8000 247.0000 1.0000
68.8100 243.0000 1.0000
68.8200 249.0000 1.0000
68.8300 221.0000 1.0000
68.8400 226.0000 1.0000
68.8500 230.0000 1.0000
68.8600 221.0000 1.0000
68.8700 242.0000 1.0000
68.8800 238.0000 1.0000
68.8900 254.0000 1.0000
68.9000 233.0000 1.0000
68.9100 218.0000 1.0000
68.9200 245.0000 1.0000
68.9300 229.0000 1.0000
68.9400 242.0000 1.0000
68.9500 245.0000 1.0000
68.9600 229.0000 1.0000
68.9700 243.0000 1.0000
68.9800 217.0000 1.0000
68.9900 221.0000 1.0000
69.0000 238.0000 1.0000
69.0100 242.0000 1.0000
69.0200 209.0000 1.0000
69.0300 248.0000 1.0000
69.0400 212.0000 1.0000
69.0500 220.0000 1.0000
69.0600 224.0000 1.0000
69.0700 246.0000 1.0000
69.0800 230.0000 1.0000
69.0900 212.0000 1.0000
69.1000 228.0000 1.0000
69.1100 243.0000 1.0000
69.1200 232.0000 1.0000
69.1300 222.0000 1.0000
69.1400 222.0000 1.0000
69.1500 254.0000 1.0000
69.1600 222.0000 1.0000
69.1700 233.0000 1.0000
69.1800 230.0000 1.0000
69.1900 229.0000 1.0000
69.2000 216.0000 1.0000
69.2100 241.0000 1.0000
69.2200 226.0000 1.0000
69.2300 221.0000 1.0000
69.2400 235.0000 1.0000
69.2500 236.0000 1.0000
69.2600 213.0000 1.0000
69.2700 202.0000 1.0000
69.2800 212.0000 1.0000
69.2900 240.0000 1.0000
69.3000 219.0000 1.0000
69.3100 231.0000 1.0000
69.3200 222.0000 1.0000
69.3300 228.0000 1.0000
69.3400 207.0000 1.0000
69.3500 206.0000 1.0000
69.3600 235.0000 1.0000
69.3700 224.0000 1.0000
69.3800 229.0000 1.0000
69.3900 223.0000 1.0000
69.4000 230.0000 1.0000
69.4100 246.0000 1.0000
69.4200 226.0000 1.0000
69.4300 217.0000 1.0000
69.4400 211.0000 1.0000
69.4500 249.0000 1.0000
69.4600 238.0000 1.0000
69.4700 214.0000 1.0000
69.4800 227.0000 1.0000
69.4900 211.0000 1.0000
69.5000 226.0000 1.0000
69.5100 239.0000 1.0000
69.5200 222.0000 1.0000
69.5300 236.0000 1.0000
69.5400 265.0000 1.0000
69.5500 219.0000 1.0000
69.5600 229.0000 1.0000
69.5700 231.0000 1.0000
69.5800 211.0000 1.0000
69.5900 220.0000 1.0000
69.6000 218.0000 1.0000
69.6100 206.0000 1.0000
69.6200 225.0000 1.0000
69.6300 227.0000 1.0000
69.6400 244.0000 1.0000
69.6500 218.0000 1.0000
69.6600 208.0000 1.0000
69.6700 252.0000 1.0000
69.6800 226.0000 1.0000
69.6900 225.0000 1.0000
69.7000 218.0000 1.0000
69.7100 224.0000 1.0000
69.7200 240.0000 1.0000
69.7300 231.0000 1.0000
69.7400 213.0000 1.0000
69.7500 216.0000 1.0000
69.7600 237.0000 1.0000
69.7700 244.0000 1.0000
69.7800 249.0000 1.0000
69.7900 240.0000 1.0000
69.8000 221.0000 1.0000
69.8100 232.0000 1.0000
69.8200 212.0000 1.0000
69.8300 236.0000 1.0000
69.8400 229.0000 1.0000
69.8500 234.0000 1.0000
69.8600 220.0000 1.0000
69.8700 225.0000 1.0000
69.8800 242.0000 1.0000
69.8900 227.0000 1.0000
69.9000 225.0000 1.0000
69.9100 222.0000 1.0000
69.9200 207.0000 1.0000
69.9300 212.0000 1.0000
69.9400 216.0000 1.0000
69.9500 243.0000 1.0000
69.9600 220.0000 1.0000
69.9700 236.0000 1.0000
69.9800 230.0000 1.0000
69.9900 238.0000 1.0000
70.0000 244.0000 1.0000
*RAS_INT_END
*RAS_TEMPERATURE_START
*RAS_TEMPERATURE_END
*RAS_DATA_END
