*RAS_DATA_START
*RAS_HEADER_START
*DISP_FMT_X "%.2f"
*DISP_FMT_Y "%.0f"
*DISP_FULLSCALE "12665.0000000000"
*DISP_LINE_COLOR "255.0000000000"
*DISP_LINE_STYLE "0.0000000000"
*DISP_LINE_WIDTH "0.2500000000"
*DISP_NOTE "測定データ-4"
*DISP_OFFSET_Y "0.0000000000"
*DISP_PEAKSEARCH_UNIT_Y "cps"
*DISP_RANGE_BOTTOM "0.0000000000"
*DISP_RANGE_LEFT "20.0000000000"
*DISP_RANGE_LOGCUTOFF "0.0100000000"
*DISP_RANGE_RIGHT "70.0000000000"
*DISP_RANGE_TOP "12665.0000000000"
*DISP_SCALE_MODE_Y "0.0000000000"
*DISP_TAB_NAME "2θ/θ"
*DISP_TITLE_Y "強度"
*DISP_UNIT_Y "cps"
*DISP_WINDOW_NAME "MSG_MACROENGINE"
*FILE_COMMENT " "
*FILE_MD5 ""
*FILE_MEMO " "
*FILE_OPERATOR "Administrator"
*FILE_SAMPLE " "
*FILE_TYPE "RAS_RAW"
*FILE_USERGROUP "システムマネージャ"
*FILE_VERSION "1.0000000000"
*HW_ATTACHMENT_ID "ATT0025"
*HW_ATTACHMENT_NAME "標準|Standard"
*HW_COUNTER_ID-0 "CUT0025"
*HW_COUNTER_ID-1 "CUT0020"
*HW_COUNTER_ID-2 "CUT0020"
*HW_COUNTER_ID-3 "CSL0021"
*HW_COUNTER_ID-4 "CMC0021"
*HW_COUNTER_NAME-0 "D/teX Ultra|D/teX Ultra"
*HW_COUNTER_NAME-1 "None|None"
*HW_COUNTER_NAME-2 "None|None"
*HW_COUNTER_NAME-3 "BBM|BBM"
*HW_COUNTER_NAME-4 "検出器モノクロメータ|Detector monochromator"
*HW_COUNTER_SELECT_NAME "D/teX Ultra|D/teX Ultra"
*HW_GONIOMETER_ID "GON0023"
*HW_GONIOMETER_NAME "SmartLab|SmartLab"
*HW_GONIOMETER_RADIUS-0 "90.0"
*HW_GONIOMETER_RADIUS-1 "114.0"
*HW_GONIOMETER_RADIUS-2 "190.0"
*HW_GONIOMETER_RADIUS-3 "300.0"
*HW_GONIOMETER_RADIUS-4 "187.0"
*HW_GONIOMETER_RADIUS-5 "300.0"
*HW_GONIOMETER_RADIUS-6 "113.0"
*HW_GONIOMETER_RADIUS-7 "331.0"
*HW_I_OPT_ID-0 "CBO0021"
*HW_I_OPT_ID-1 "ICR0023"
*HW_I_OPT_ID-2 "ISL0021"
*HW_I_OPT_ID-3 "ISO0021"
*HW_I_OPT_ID-4 "IAD0021"
*HW_I_OPT_ID-5 "IPR0001"
*HW_I_OPT_NAME-0 "CBOユニット|CBO unit"
*HW_I_OPT_NAME-1 "標準入射光学ユニット|Standard incident optical unit"
*HW_I_OPT_NAME-2 "標準入射スリットボックス|Standard incident slit box"
*HW_I_OPT_NAME-3 "入射平行スリット|Incident parallel slit"
*HW_I_OPT_NAME-4 "長手制限スリット|Length limiting slit"
*HW_I_OPT_NAME-5 "None|None"
*HW_R_ATTENUATER_AUTOMODE "0"
*HW_R_OPT_ID-0 "RSS0021"
*HW_R_OPT_ID-1 "RCR0023"
*HW_R_OPT_ID-2 "RSO0021"
*HW_R_OPT_ID-3 "RRS0021"
*HW_R_OPT_ID-4 "ATN0021"
*HW_R_OPT_ID-5 "RFL0021"
*HW_R_OPT_ID-6 "RAD0021"
*HW_R_OPT_NAME-0 "標準受光スリットボックス1|Standard receiving slit box # 1"
*HW_R_OPT_NAME-1 "標準受光光学ユニット1|Standard receiving unit # 1"
*HW_R_OPT_NAME-2 "標準受光光学ユニット2|Standard receiving optical unit # 2"
*HW_R_OPT_NAME-3 "標準受光スリットボックス2|Standard receiving slit box # 2"
*HW_R_OPT_NAME-4 "標準アッテネータ|Standard Attenuator"
*HW_R_OPT_NAME-5 "Cu Kβ|Cu K-beta"
*HW_R_OPT_NAME-6 "調整用受光スリット|Alignment receiving slit"
*HW_SAMPLE_HOLDER_ID "SMP0023"
*HW_SAMPLE_HOLDER_NAME "標準Zステージ|Standard Z stage"
*HW_XG_CURRENT_MAX "50"
*HW_XG_CURRENT_MIN "2"
*HW_XG_CURRENT_RESOLUTION "1"
*HW_XG_CURRENT_UNIT "mA"
*HW_XG_FOCUS "1mm x 10mm"
*HW_XG_FOCUS_TYPE "Normal"
*HW_XG_ID ""
*HW_XG_NAME "3kW 封入管(ID:1200)|3kW Sealed tube(ID:1200)"
*HW_XG_TARGET_ATOMIC_NUMBER "29.0000000000"
*HW_XG_TARGET_NAME "Cu"
*HW_XG_TYPE "Hermetic"
*HW_XG_VOLTAGE_MAX "60"
*HW_XG_VOLTAGE_MIN "20"
*HW_XG_VOLTAGE_RESOLUTION "1"
*HW_XG_VOLTAGE_UNIT "kV"
*HW_XG_WATT_MAX "1.500"
*HW_XG_WATT_UNIT "kW"
*HW_XG_WAVE_LENGTH_ALPHA1 "1.540593"
*HW_XG_WAVE_LENGTH_ALPHA2 "1.544414"
*HW_XG_WAVE_LENGTH_BETA "1.392250"
*MEAS_COND_AXIS_NAME-0 "2θ/θ"
*MEAS_COND_AXIS_NAME-1 "2θ"
*MEAS_COND_AXIS_NAME-2 "ω"
*MEAS_COND_AXIS_NAME-3 "Z"
*MEAS_COND_AXIS_NAME-4 "2θ/ω"
*MEAS_COND_AXIS_NAME-5 "θs"
*MEAS_COND_AXIS_NAME-6 "θd"
*MEAS_COND_AXIS_NAME-7 "Ts"
*MEAS_COND_AXIS_NAME-8 "CBO選択スリット"
*MEAS_COND_AXIS_NAME-9 "M"
*MEAS_COND_AXIS_NAME-10 "入射平行スリット"
*MEAS_COND_AXIS_NAME-11 "入射スリット"
*MEAS_COND_AXIS_NAME-12 ""
*MEAS_COND_AXIS_NAME-13 "Zs"
*MEAS_COND_AXIS_NAME-14 "入射光学素子"
*MEAS_COND_AXIS_NAME-15 "長手制限スリット"
*MEAS_COND_AXIS_NAME-16 "センタースリット"
*MEAS_COND_AXIS_NAME-17 "フィルター"
*MEAS_COND_AXIS_NAME-18 "受光スリット1"
*MEAS_COND_AXIS_NAME-19 "受光スリット2"
*MEAS_COND_AXIS_NAME-20 "受光光学素子"
*MEAS_COND_AXIS_NAME-21 "受光平行スリット"
*MEAS_COND_AXIS_NAME-22 "調整用受光スリット"
*MEAS_COND_AXIS_NAME-23 ""
*MEAS_COND_AXIS_NAME-24 ""
*MEAS_COND_AXIS_NAME-25 "Zd"
*MEAS_COND_AXIS_NAME-26 "アッテネータ"
*MEAS_COND_AXIS_NAME-27 "検出器モノクロメータ"
*MEAS_COND_AXIS_NAME-28 "モノクロメータスリット"
*MEAS_COND_AXIS_NAME-29 "プライマリビーム"
*MEAS_COND_AXIS_NAME-30 "PHA"
*MEAS_COND_AXIS_NAME_INTERNAL-0 "TwoThetaTheta"
*MEAS_COND_AXIS_NAME_INTERNAL-1 "TwoTheta"
*MEAS_COND_AXIS_NAME_INTERNAL-2 "Omega"
*MEAS_COND_AXIS_NAME_INTERNAL-3 "Z"
*MEAS_COND_AXIS_NAME_INTERNAL-4 "TwoThetaOmega"
*MEAS_COND_AXIS_NAME_INTERNAL-5 "ThetaS"
*MEAS_COND_AXIS_NAME_INTERNAL-6 "ThetaD"
*MEAS_COND_AXIS_NAME_INTERNAL-7 "Ts"
*MEAS_COND_AXIS_NAME_INTERNAL-8 "CBO"
*MEAS_COND_AXIS_NAME_INTERNAL-9 "CBO-M"
*MEAS_COND_AXIS_NAME_INTERNAL-10 "IncidentSollerSlit"
*MEAS_COND_AXIS_NAME_INTERNAL-11 "IncidentSlitBox"
*MEAS_COND_AXIS_NAME_INTERNAL-12 "IncidentSlitBox-_Axis"
*MEAS_COND_AXIS_NAME_INTERNAL-13 "Zs"
*MEAS_COND_AXIS_NAME_INTERNAL-14 "IncidentMonochromator"
*MEAS_COND_AXIS_NAME_INTERNAL-15 "IncidentAxdSlit"
*MEAS_COND_AXIS_NAME_INTERNAL-16 "CenterSlit"
*MEAS_COND_AXIS_NAME_INTERNAL-17 "Filter"
*MEAS_COND_AXIS_NAME_INTERNAL-18 "ReceivingSlitBox1"
*MEAS_COND_AXIS_NAME_INTERNAL-19 "ReceivingSlitBox2"
*MEAS_COND_AXIS_NAME_INTERNAL-20 "ReceivingOptics"
*MEAS_COND_AXIS_NAME_INTERNAL-21 "ReceivingSollerSlit"
*MEAS_COND_AXIS_NAME_INTERNAL-22 "ReceivingAxdSlit"
*MEAS_COND_AXIS_NAME_INTERNAL-23 "ReceivingSlitBox1-_Axis"
*MEAS_COND_AXIS_NAME_INTERNAL-24 "ReceivingSlitBox2-_Axis"
*MEAS_COND_AXIS_NAME_INTERNAL-25 "ReceivingSlitBox2-Zd"
*MEAS_COND_AXIS_NAME_INTERNAL-26 "Attenuator"
*MEAS_COND_AXIS_NAME_INTERNAL-27 "CounterMonochromator"
*MEAS_COND_AXIS_NAME_INTERNAL-28 "CounterSlit"
*MEAS_COND_AXIS_NAME_INTERNAL-29 "IncidentPrimary"
*MEAS_COND_AXIS_NAME_INTERNAL-30 "PHA"
*MEAS_COND_AXIS_NAME_MAGICNO-0 "83951616.0000000000"
*MEAS_COND_AXIS_NAME_MAGICNO-1 "268632064.0000000000"
*MEAS_COND_AXIS_NAME_MAGICNO-2 "268500992.0000000000"
*MEAS_COND_AXIS_NAME_MAGICNO-3 "285278208.0000000000"
*MEAS_COND_AXIS_NAME_MAGICNO-4 "83951616.0000000000"
*MEAS_COND_AXIS_NAME_MAGICNO-5 "131072.0000000000"
*MEAS_COND_AXIS_NAME_MAGICNO-6 "131072.0000000000"
*MEAS_COND_AXIS_NAME_MAGICNO-7 "318898176.0000000000"
*MEAS_COND_AXIS_NAME_MAGICNO-8 "20971521.0000000000"
*MEAS_COND_AXIS_NAME_MAGICNO-9 "285343744.0000000000"
*MEAS_COND_AXIS_NAME_MAGICNO-10 "20971521.0000000000"
*MEAS_COND_AXIS_NAME_MAGICNO-11 "22020097.0000000000"
*MEAS_COND_AXIS_NAME_MAGICNO-12 "25165824.0000000000"
*MEAS_COND_AXIS_NAME_MAGICNO-13 "318898176.0000000000"
*MEAS_COND_AXIS_NAME_MAGICNO-14 "1.0000000000"
*MEAS_COND_AXIS_NAME_MAGICNO-15 "20971521.0000000000"
*MEAS_COND_AXIS_NAME_MAGICNO-16 "20971521.0000000000"
*MEAS_COND_AXIS_NAME_MAGICNO-17 "20971521.0000000000"
*MEAS_COND_AXIS_NAME_MAGICNO-18 "23068673.0000000000"
*MEAS_COND_AXIS_NAME_MAGICNO-19 "23068673.0000000000"
*MEAS_COND_AXIS_NAME_MAGICNO-20 "20971521.0000000000"
*MEAS_COND_AXIS_NAME_MAGICNO-21 "20971521.0000000000"
*MEAS_COND_AXIS_NAME_MAGICNO-22 "20971521.0000000000"
*MEAS_COND_AXIS_NAME_MAGICNO-23 "25165824.0000000000"
*MEAS_COND_AXIS_NAME_MAGICNO-24 "25165824.0000000000"
*MEAS_COND_AXIS_NAME_MAGICNO-25 "285343744.0000000000"
*MEAS_COND_AXIS_NAME_MAGICNO-26 "17301505.0000000000"
*MEAS_COND_AXIS_NAME_MAGICNO-27 "20971521.0000000000"
*MEAS_COND_AXIS_NAME_MAGICNO-28 "20971521.0000000000"
*MEAS_COND_AXIS_NAME_MAGICNO-29 "20971521.0000000000"
*MEAS_COND_AXIS_NAME_MAGICNO-30 "0.0000000000"
*MEAS_COND_AXIS_OFFSET-0 "-"
*MEAS_COND_AXIS_OFFSET-1 "-0.0310000000"
*MEAS_COND_AXIS_OFFSET-2 "0.5143000000"
*MEAS_COND_AXIS_OFFSET-3 "-"
*MEAS_COND_AXIS_OFFSET-4 "-"
*MEAS_COND_AXIS_OFFSET-5 "0.5143000000"
*MEAS_COND_AXIS_OFFSET-6 "-0.5453000000"
*MEAS_COND_AXIS_OFFSET-7 "-"
*MEAS_COND_AXIS_OFFSET-8 "-"
*MEAS_COND_AXIS_OFFSET-9 "-"
*MEAS_COND_AXIS_OFFSET-10 "-"
*MEAS_COND_AXIS_OFFSET-11 "-"
*MEAS_COND_AXIS_OFFSET-12 "-"
*MEAS_COND_AXIS_OFFSET-13 "-"
*MEAS_COND_AXIS_OFFSET-14 "-"
*MEAS_COND_AXIS_OFFSET-15 "-"
*MEAS_COND_AXIS_OFFSET-16 "-"
*MEAS_COND_AXIS_OFFSET-17 "-"
*MEAS_COND_AXIS_OFFSET-18 "-"
*MEAS_COND_AXIS_OFFSET-19 "-"
*MEAS_COND_AXIS_OFFSET-20 "-"
*MEAS_COND_AXIS_OFFSET-21 "-"
*MEAS_COND_AXIS_OFFSET-22 "-"
*MEAS_COND_AXIS_OFFSET-23 "-"
*MEAS_COND_AXIS_OFFSET-24 "-"
*MEAS_COND_AXIS_OFFSET-25 "-"
*MEAS_COND_AXIS_OFFSET-26 "-"
*MEAS_COND_AXIS_OFFSET-27 "-"
*MEAS_COND_AXIS_OFFSET-28 "-"
*MEAS_COND_AXIS_OFFSET-29 "-"
*MEAS_COND_AXIS_OFFSET-30 "-"
*MEAS_COND_AXIS_POSITION-0 "0.0000000000"
*MEAS_COND_AXIS_POSITION-1 "0.0000000000"
*MEAS_COND_AXIS_POSITION-2 "0.0000000000"
*MEAS_COND_AXIS_POSITION-3 "-2.9061800000"
*MEAS_COND_AXIS_POSITION-4 "0.0000000000"
*MEAS_COND_AXIS_POSITION-5 "0.0000000000"
*MEAS_COND_AXIS_POSITION-6 "0.0000000000"
*MEAS_COND_AXIS_POSITION-7 "-0.7498700000"
*MEAS_COND_AXIS_POSITION-8 "BB"
*MEAS_COND_AXIS_POSITION-9 "0.0000000000"
*MEAS_COND_AXIS_POSITION-10 "Soller_slit_5.0deg"
*MEAS_COND_AXIS_POSITION-11 "2/3deg"
*MEAS_COND_AXIS_POSITION-12 "2.2088000000"
*MEAS_COND_AXIS_POSITION-13 "-0.6412500000"
*MEAS_COND_AXIS_POSITION-14 "0.0000000000"
*MEAS_COND_AXIS_POSITION-15 "10.0mm"
*MEAS_COND_AXIS_POSITION-16 "None"
*MEAS_COND_AXIS_POSITION-17 "Cu_K-beta"
*MEAS_COND_AXIS_POSITION-18 "13.000mm"
*MEAS_COND_AXIS_POSITION-19 "13.000mm"
*MEAS_COND_AXIS_POSITION-20 "No_unit"
*MEAS_COND_AXIS_POSITION-21 "Soller_slit_5.0deg"
*MEAS_COND_AXIS_POSITION-22 "None"
*MEAS_COND_AXIS_POSITION-23 "13.0000000000"
*MEAS_COND_AXIS_POSITION-24 "13.0000000000"
*MEAS_COND_AXIS_POSITION-25 "0.0281300000"
*MEAS_COND_AXIS_POSITION-26 "Open"
*MEAS_COND_AXIS_POSITION-27 "None"
*MEAS_COND_AXIS_POSITION-28 "None"
*MEAS_COND_AXIS_POSITION-29 "None"
*MEAS_COND_AXIS_POSITION-30 "38.0000000000"
*MEAS_COND_AXIS_UNIT-0 "deg"
*MEAS_COND_AXIS_UNIT-1 "deg"
*MEAS_COND_AXIS_UNIT-2 "deg"
*MEAS_COND_AXIS_UNIT-3 "mm"
*MEAS_COND_AXIS_UNIT-4 "deg"
*MEAS_COND_AXIS_UNIT-5 "deg"
*MEAS_COND_AXIS_UNIT-6 "deg"
*MEAS_COND_AXIS_UNIT-7 "mm"
*MEAS_COND_AXIS_UNIT-8 ""
*MEAS_COND_AXIS_UNIT-9 "pulse"
*MEAS_COND_AXIS_UNIT-10 ""
*MEAS_COND_AXIS_UNIT-11 ""
*MEAS_COND_AXIS_UNIT-12 "mm"
*MEAS_COND_AXIS_UNIT-13 "mm"
*MEAS_COND_AXIS_UNIT-14 ""
*MEAS_COND_AXIS_UNIT-15 ""
*MEAS_COND_AXIS_UNIT-16 ""
*MEAS_COND_AXIS_UNIT-17 ""
*MEAS_COND_AXIS_UNIT-18 ""
*MEAS_COND_AXIS_UNIT-19 ""
*MEAS_COND_AXIS_UNIT-20 ""
*MEAS_COND_AXIS_UNIT-21 ""
*MEAS_COND_AXIS_UNIT-22 ""
*MEAS_COND_AXIS_UNIT-23 "mm"
*MEAS_COND_AXIS_UNIT-24 "mm"
*MEAS_COND_AXIS_UNIT-25 "mm"
*MEAS_COND_AXIS_UNIT-26 ""
*MEAS_COND_AXIS_UNIT-27 ""
*MEAS_COND_AXIS_UNIT-28 ""
*MEAS_COND_AXIS_UNIT-29 ""
*MEAS_COND_AXIS_UNIT-30 "div"
*MEAS_COND_COUNTER_CNTLOSS_CORR "0.0000000000"
*MEAS_COND_COUNTER_PHABASE "38.0000000000"
*MEAS_COND_COUNTER_PHAWINDOW "16.0000000000"
*MEAS_COND_COUNTER_PHA_UNIT "div"
*MEAS_COND_COUNTER_TAUDIFF "30.0000000000"
*MEAS_COND_COUNTER_TAUINT "0.0000000000"
*MEAS_COND_IRRADIATION_MODE "OFF"
*MEAS_COND_IRRADIATION_WIDTH ""
*MEAS_COND_OPT_ATTR "集中法"
*MEAS_COND_OPT_NAME "@集中法"
*MEAS_COND_UNSYMMETRIC_MODE "OFF"
*MEAS_COND_XG_CURRENT "30.0000000000"
*MEAS_COND_XG_VOLTAGE "40.0000000000"
*MEAS_COND_XG_WAVE_TYPE "Ka"
*MEAS_DATA_COUNT "5001.0000000000"
*MEAS_SCAN_AXIS_X "2θ/θ"
*MEAS_SCAN_AXIS_X_INTERNAL "TwoThetaTheta"
*MEAS_SCAN_END_TIME "12/20/22 19:24:06"
*MEAS_SCAN_MODE "CONTINUOUS"
*MEAS_SCAN_MONITOR "0"
*MEAS_SCAN_RESOLUTION_X "0.0002"
*MEAS_SCAN_SPEED "2.5"
*MEAS_SCAN_SPEED_UNIT "deg/min"
*MEAS_SCAN_START "20.0000000000"
*MEAS_SCAN_START_TIME "12/20/22 19:02:41"
*MEAS_SCAN_STEP "0.0100000000"
*MEAS_SCAN_STOP "70.0000000000"
*MEAS_SCAN_UNIT_X "deg"
*MEAS_SCAN_UNIT_Y "counts"
*RAS_HEADER_END
*RAS_INT_START
20.0000 813.0000 1.0000
20.0100 837.0000 1.0000
20.0200 793.0000 1.0000
20.0300 834.0000 1.0000
20.0400 833.0000 1.0000
20.0500 824.0000 1.0000
20.0600 819.0000 1.0000
20.0700 847.0000 1.0000
20.0800 824.0000 1.0000
20.0900 796.0000 1.0000
20.1000 859.0000 1.0000
20.1100 821.0000 1.0000
20.1200 827.0000 1.0000
20.1300 789.0000 1.0000
20.1400 841.0000 1.0000
20.1500 870.0000 1.0000
20.1600 864.0000 1.0000
20.1700 864.0000 1.0000
20.1800 842.0000 1.0000
20.1900 842.0000 1.0000
20.2000 854.0000 1.0000
20.2100 809.0000 1.0000
20.2200 841.0000 1.0000
20.2300 845.0000 1.0000
20.2400 787.0000 1.0000
20.2500 789.0000 1.0000
20.2600 808.0000 1.0000
20.2700 803.0000 1.0000
20.2800 818.0000 1.0000
20.2900 825.0000 1.0000
20.3000 798.0000 1.0000
20.3100 806.0000 1.0000
20.3200 840.0000 1.0000
20.3300 858.0000 1.0000
20.3400 833.0000 1.0000
20.3500 843.0000 1.0000
20.3600 852.0000 1.0000
20.3700 874.0000 1.0000
20.3800 833.0000 1.0000
20.3900 841.0000 1.0000
20.4000 801.0000 1.0000
20.4100 813.0000 1.0000
20.4200 823.0000 1.0000
20.4300 799.0000 1.0000
20.4400 848.0000 1.0000
20.4500 806.0000 1.0000
20.4600 811.0000 1.0000
20.4700 799.0000 1.0000
20.4800 778.0000 1.0000
20.4900 847.0000 1.0000
20.5000 869.0000 1.0000
20.5100 804.0000 1.0000
20.5200 814.0000 1.0000
20.5300 794.0000 1.0000
20.5400 836.0000 1.0000
20.5500 803.0000 1.0000
20.5600 824.0000 1.0000
20.5700 766.0000 1.0000
20.5800 831.0000 1.0000
20.5900 819.0000 1.0000
20.6000 831.0000 1.0000
20.6100 834.0000 1.0000
20.6200 838.0000 1.0000
20.6300 850.0000 1.0000
20.6400 867.0000 1.0000
20.6500 827.0000 1.0000
20.6600 874.0000 1.0000
20.6700 812.0000 1.0000
20.6800 807.0000 1.0000
20.6900 830.0000 1.0000
20.7000 824.0000 1.0000
20.7100 800.0000 1.0000
20.7200 816.0000 1.0000
20.7300 798.0000 1.0000
20.7400 826.0000 1.0000
20.7500 801.0000 1.0000
20.7600 796.0000 1.0000
20.7700 819.0000 1.0000
20.7800 797.0000 1.0000
20.7900 824.0000 1.0000
20.8000 846.0000 1.0000
20.8100 796.0000 1.0000
20.8200 836.0000 1.0000
20.8300 845.0000 1.0000
20.8400 824.0000 1.0000
20.8500 777.0000 1.0000
20.8600 805.0000 1.0000
20.8700 829.0000 1.0000
20.8800 816.0000 1.0000
20.8900 841.0000 1.0000
20.9000 843.0000 1.0000
20.9100 795.0000 1.0000
20.9200 832.0000 1.0000
20.9300 828.0000 1.0000
20.9400 800.0000 1.0000
20.9500 788.0000 1.0000
20.9600 836.0000 1.0000
20.9700 851.0000 1.0000
20.9800 869.0000 1.0000
20.9900 837.0000 1.0000
21.0000 820.0000 1.0000
21.0100 851.0000 1.0000
21.0200 811.0000 1.0000
21.0300 768.0000 1.0000
21.0400 785.0000 1.0000
21.0500 813.0000 1.0000
21.0600 839.0000 1.0000
21.0700 828.0000 1.0000
21.0800 797.0000 1.0000
21.0900 789.0000 1.0000
21.1000 803.0000 1.0000
21.1100 810.0000 1.0000
21.1200 838.0000 1.0000
21.1300 822.0000 1.0000
21.1400 846.0000 1.0000
21.1500 823.0000 1.0000
21.1600 796.0000 1.0000
21.1700 799.0000 1.0000
21.1800 820.0000 1.0000
21.1900 803.0000 1.0000
21.2000 890.0000 1.0000
21.2100 805.0000 1.0000
21.2200 823.0000 1.0000
21.2300 813.0000 1.0000
21.2400 769.0000 1.0000
21.2500 820.0000 1.0000
21.2600 814.0000 1.0000
21.2700 829.0000 1.0000
21.2800 841.0000 1.0000
21.2900 846.0000 1.0000
21.3000 831.0000 1.0000
21.3100 809.0000 1.0000
21.3200 827.0000 1.0000
21.3300 795.0000 1.0000
21.3400 823.0000 1.0000
21.3500 802.0000 1.0000
21.3600 789.0000 1.0000
21.3700 797.0000 1.0000
21.3800 762.0000 1.0000
21.3900 837.0000 1.0000
21.4000 823.0000 1.0000
21.4100 788.0000 1.0000
21.4200 761.0000 1.0000
21.4300 759.0000 1.0000
21.4400 801.0000 1.0000
21.4500 848.0000 1.0000
21.4600 832.0000 1.0000
21.4700 822.0000 1.0000
21.4800 775.0000 1.0000
21.4900 807.0000 1.0000
21.5000 808.0000 1.0000
21.5100 770.0000 1.0000
21.5200 840.0000 1.0000
21.5300 836.0000 1.0000
21.5400 840.0000 1.0000
21.5500 806.0000 1.0000
21.5600 825.0000 1.0000
21.5700 804.0000 1.0000
21.5800 813.0000 1.0000
21.5900 780.0000 1.0000
21.6000 796.0000 1.0000
21.6100 754.0000 1.0000
21.6200 804.0000 1.0000
21.6300 804.0000 1.0000
21.6400 810.0000 1.0000
21.6500 840.0000 1.0000
21.6600 821.0000 1.0000
21.6700 828.0000 1.0000
21.6800 847.0000 1.0000
21.6900 839.0000 1.0000
21.7000 855.0000 1.0000
21.7100 806.0000 1.0000
21.7200 818.0000 1.0000
21.7300 835.0000 1.0000
21.7400 806.0000 1.0000
21.7500 775.0000 1.0000
21.7600 775.0000 1.0000
21.7700 775.0000 1.0000
21.7800 765.0000 1.0000
21.7900 765.0000 1.0000
21.8000 800.0000 1.0000
21.8100 808.0000 1.0000
21.8200 814.0000 1.0000
21.8300 774.0000 1.0000
21.8400 823.0000 1.0000
21.8500 806.0000 1.0000
21.8600 817.0000 1.0000
21.8700 774.0000 1.0000
21.8800 823.0000 1.0000
21.8900 865.0000 1.0000
21.9000 839.0000 1.0000
21.9100 770.0000 1.0000
21.9200 776.0000 1.0000
21.9300 807.0000 1.0000
21.9400 791.0000 1.0000
21.9500 806.0000 1.0000
21.9600 819.0000 1.0000
21.9700 792.0000 1.0000
21.9800 808.0000 1.0000
21.9900 786.0000 1.0000
22.0000 823.0000 1.0000
22.0100 820.0000 1.0000
22.0200 816.0000 1.0000
22.0300 806.0000 1.0000
22.0400 737.0000 1.0000
22.0500 779.0000 1.0000
22.0600 810.0000 1.0000
22.0700 769.0000 1.0000
22.0800 810.0000 1.0000
22.0900 839.0000 1.0000
22.1000 825.0000 1.0000
22.1100 814.0000 1.0000
22.1200 833.0000 1.0000
22.1300 820.0000 1.0000
22.1400 809.0000 1.0000
22.1500 786.0000 1.0000
22.1600 815.0000 1.0000
22.1700 790.0000 1.0000
22.1800 834.0000 1.0000
22.1900 838.0000 1.0000
22.2000 773.0000 1.0000
22.2100 790.0000 1.0000
22.2200 825.0000 1.0000
22.2300 758.0000 1.0000
22.2400 804.0000 1.0000
22.2500 823.0000 1.0000
22.2600 812.0000 1.0000
22.2700 753.0000 1.0000
22.2800 770.0000 1.0000
22.2900 788.0000 1.0000
22.3000 797.0000 1.0000
22.3100 768.0000 1.0000
22.3200 821.0000 1.0000
22.3300 793.0000 1.0000
22.3400 812.0000 1.0000
22.3500 850.0000 1.0000
22.3600 810.0000 1.0000
22.3700 745.0000 1.0000
22.3800 770.0000 1.0000
22.3900 851.0000 1.0000
22.4000 811.0000 1.0000
22.4100 777.0000 1.0000
22.4200 767.0000 1.0000
22.4300 819.0000 1.0000
22.4400 771.0000 1.0000
22.4500 798.0000 1.0000
22.4600 770.0000 1.0000
22.4700 778.0000 1.0000
22.4800 802.0000 1.0000
22.4900 804.0000 1.0000
22.5000 820.0000 1.0000
22.5100 769.0000 1.0000
22.5200 794.0000 1.0000
22.5300 790.0000 1.0000
22.5400 804.0000 1.0000
22.5500 815.0000 1.0000
22.5600 739.0000 1.0000
22.5700 773.0000 1.0000
22.5800 817.0000 1.0000
22.5900 821.0000 1.0000
22.6000 802.0000 1.0000
22.6100 758.0000 1.0000
22.6200 795.0000 1.0000
22.6300 810.0000 1.0000
22.6400 812.0000 1.0000
22.6500 797.0000 1.0000
22.6600 795.0000 1.0000
22.6700 794.0000 1.0000
22.6800 792.0000 1.0000
22.6900 833.0000 1.0000
22.7000 798.0000 1.0000
22.7100 761.0000 1.0000
22.7200 764.0000 1.0000
22.7300 792.0000 1.0000
22.7400 799.0000 1.0000
22.7500 794.0000 1.0000
22.7600 796.0000 1.0000
22.7700 759.0000 1.0000
22.7800 784.0000 1.0000
22.7900 799.0000 1.0000
22.8000 810.0000 1.0000
22.8100 778.0000 1.0000
22.8200 814.0000 1.0000
22.8300 762.0000 1.0000
22.8400 802.0000 1.0000
22.8500 816.0000 1.0000
22.8600 838.0000 1.0000
22.8700 789.0000 1.0000
22.8800 794.0000 1.0000
22.8900 784.0000 1.0000
22.9000 785.0000 1.0000
22.9100 792.0000 1.0000
22.9200 796.0000 1.0000
22.9300 785.0000 1.0000
22.9400 830.0000 1.0000
22.9500 806.0000 1.0000
22.9600 729.0000 1.0000
22.9700 760.0000 1.0000
22.9800 773.0000 1.0000
22.9900 764.0000 1.0000
23.0000 803.0000 1.0000
23.0100 827.0000 1.0000
23.0200 805.0000 1.0000
23.0300 793.0000 1.0000
23.0400 801.0000 1.0000
23.0500 754.0000 1.0000
23.0600 763.0000 1.0000
23.0700 797.0000 1.0000
23.0800 826.0000 1.0000
23.0900 810.0000 1.0000
23.1000 804.0000 1.0000
23.1100 804.0000 1.0000
23.1200 751.0000 1.0000
23.1300 769.0000 1.0000
23.1400 816.0000 1.0000
23.1500 780.0000 1.0000
23.1600 769.0000 1.0000
23.1700 745.0000 1.0000
23.1800 766.0000 1.0000
23.1900 768.0000 1.0000
23.2000 780.0000 1.0000
23.2100 787.0000 1.0000
23.2200 760.0000 1.0000
23.2300 791.0000 1.0000
23.2400 803.0000 1.0000
23.2500 786.0000 1.0000
23.2600 782.0000 1.0000
23.2700 841.0000 1.0000
23.2800 798.0000 1.0000
23.2900 727.0000 1.0000
23.3000 740.0000 1.0000
23.3100 799.0000 1.0000
23.3200 767.0000 1.0000
23.3300 808.0000 1.0000
23.3400 746.0000 1.0000
23.3500 764.0000 1.0000
23.3600 796.0000 1.0000
23.3700 784.0000 1.0000
23.3800 738.0000 1.0000
23.3900 817.0000 1.0000
23.4000 808.0000 1.0000
23.4100 750.0000 1.0000
23.4200 794.0000 1.0000
23.4300 762.0000 1.0000
23.4400 766.0000 1.0000
23.4500 772.0000 1.0000
23.4600 782.0000 1.0000
23.4700 818.0000 1.0000
23.4800 807.0000 1.0000
23.4900 774.0000 1.0000
23.5000 775.0000 1.0000
23.5100 795.0000 1.0000
23.5200 783.0000 1.0000
23.5300 793.0000 1.0000
23.5400 753.0000 1.0000
23.5500 800.0000 1.0000
23.5600 784.0000 1.0000
23.5700 794.0000 1.0000
23.5800 728.0000 1.0000
23.5900 820.0000 1.0000
23.6000 815.0000 1.0000
23.6100 801.0000 1.0000
23.6200 750.0000 1.0000
23.6300 748.0000 1.0000
23.6400 766.0000 1.0000
23.6500 793.0000 1.0000
23.6600 712.0000 1.0000
23.6700 808.0000 1.0000
23.6800 857.0000 1.0000
23.6900 785.0000 1.0000
23.7000 782.0000 1.0000
23.7100 802.0000 1.0000
23.7200 789.0000 1.0000
23.7300 826.0000 1.0000
23.7400 756.0000 1.0000
23.7500 786.0000 1.0000
23.7600 789.0000 1.0000
23.7700 819.0000 1.0000
23.7800 803.0000 1.0000
23.7900 786.0000 1.0000
23.8000 761.0000 1.0000
23.8100 788.0000 1.0000
23.8200 766.0000 1.0000
23.8300 747.0000 1.0000
23.8400 820.0000 1.0000
23.8500 816.0000 1.0000
23.8600 820.0000 1.0000
23.8700 798.0000 1.0000
23.8800 777.0000 1.0000
23.8900 808.0000 1.0000
23.9000 751.0000 1.0000
23.9100 798.0000 1.0000
23.9200 792.0000 1.0000
23.9300 855.0000 1.0000
23.9400 797.0000 1.0000
23.9500 766.0000 1.0000
23.9600 790.0000 1.0000
23.9700 789.0000 1.0000
23.9800 850.0000 1.0000
23.9900 835.0000 1.0000
24.0000 839.0000 1.0000
24.0100 829.0000 1.0000
24.0200 798.0000 1.0000
24.0300 782.0000 1.0000
24.0400 789.0000 1.0000
24.0500 822.0000 1.0000
24.0600 851.0000 1.0000
24.0700 794.0000 1.0000
24.0800 831.0000 1.0000
24.0900 821.0000 1.0000
24.1000 877.0000 1.0000
24.1100 838.0000 1.0000
24.1200 790.0000 1.0000
24.1300 815.0000 1.0000
24.1400 809.0000 1.0000
24.1500 769.0000 1.0000
24.1600 795.0000 1.0000
24.1700 821.0000 1.0000
24.1800 806.0000 1.0000
24.1900 795.0000 1.0000
24.2000 803.0000 1.0000
24.2100 777.0000 1.0000
24.2200 803.0000 1.0000
24.2300 806.0000 1.0000
24.2400 845.0000 1.0000
24.2500 825.0000 1.0000
24.2600 745.0000 1.0000
24.2700 745.0000 1.0000
24.2800 806.0000 1.0000
24.2900 742.0000 1.0000
24.3000 762.0000 1.0000
24.3100 798.0000 1.0000
24.3200 793.0000 1.0000
24.3300 771.0000 1.0000
24.3400 737.0000 1.0000
24.3500 822.0000 1.0000
24.3600 841.0000 1.0000
24.3700 752.0000 1.0000
24.3800 772.0000 1.0000
24.3900 805.0000 1.0000
24.4000 820.0000 1.0000
24.4100 773.0000 1.0000
24.4200 789.0000 1.0000
24.4300 742.0000 1.0000
24.4400 793.0000 1.0000
24.4500 750.0000 1.0000
24.4600 726.0000 1.0000
24.4700 734.0000 1.0000
24.4800 780.0000 1.0000
24.4900 770.0000 1.0000
24.5000 730.0000 1.0000
24.5100 772.0000 1.0000
24.5200 752.0000 1.0000
24.5300 732.0000 1.0000
24.5400 777.0000 1.0000
24.5500 792.0000 1.0000
24.5600 748.0000 1.0000
24.5700 753.0000 1.0000
24.5800 752.0000 1.0000
24.5900 782.0000 1.0000
24.6000 752.0000 1.0000
24.6100 756.0000 1.0000
24.6200 786.0000 1.0000
24.6300 763.0000 1.0000
24.6400 754.0000 1.0000
24.6500 819.0000 1.0000
24.6600 772.0000 1.0000
24.6700 773.0000 1.0000
24.6800 752.0000 1.0000
24.6900 784.0000 1.0000
24.7000 794.0000 1.0000
24.7100 768.0000 1.0000
24.7200 761.0000 1.0000
24.7300 777.0000 1.0000
24.7400 765.0000 1.0000
24.7500 798.0000 1.0000
24.7600 781.0000 1.0000
24.7700 776.0000 1.0000
24.7800 732.0000 1.0000
24.7900 807.0000 1.0000
24.8000 727.0000 1.0000
24.8100 760.0000 1.0000
24.8200 757.0000 1.0000
24.8300 754.0000 1.0000
24.8400 757.0000 1.0000
24.8500 752.0000 1.0000
24.8600 771.0000 1.0000
24.8700 757.0000 1.0000
24.8800 769.0000 1.0000
24.8900 776.0000 1.0000
24.9000 746.0000 1.0000
24.9100 749.0000 1.0000
24.9200 768.0000 1.0000
24.9300 729.0000 1.0000
24.9400 778.0000 1.0000
24.9500 780.0000 1.0000
24.9600 758.0000 1.0000
24.9700 761.0000 1.0000
24.9800 707.0000 1.0000
24.9900 773.0000 1.0000
25.0000 725.0000 1.0000
25.0100 735.0000 1.0000
25.0200 757.0000 1.0000
25.0300 772.0000 1.0000
25.0400 752.0000 1.0000
25.0500 736.0000 1.0000
25.0600 762.0000 1.0000
25.0700 755.0000 1.0000
25.0800 713.0000 1.0000
25.0900 711.0000 1.0000
25.1000 780.0000 1.0000
25.1100 794.0000 1.0000
25.1200 765.0000 1.0000
25.1300 791.0000 1.0000
25.1400 777.0000 1.0000
25.1500 730.0000 1.0000
25.1600 743.0000 1.0000
25.1700 765.0000 1.0000
25.1800 721.0000 1.0000
25.1900 764.0000 1.0000
25.2000 810.0000 1.0000
25.2100 740.0000 1.0000
25.2200 737.0000 1.0000
25.2300 764.0000 1.0000
25.2400 747.0000 1.0000
25.2500 733.0000 1.0000
25.2600 744.0000 1.0000
25.2700 761.0000 1.0000
25.2800 723.0000 1.0000
25.2900 811.0000 1.0000
25.3000 761.0000 1.0000
25.3100 763.0000 1.0000
25.3200 753.0000 1.0000
25.3300 767.0000 1.0000
25.3400 784.0000 1.0000
25.3500 774.0000 1.0000
25.3600 763.0000 1.0000
25.3700 785.0000 1.0000
25.3800 791.0000 1.0000
25.3900 737.0000 1.0000
25.4000 732.0000 1.0000
25.4100 750.0000 1.0000
25.4200 813.0000 1.0000
25.4300 747.0000 1.0000
25.4400 723.0000 1.0000
25.4500 738.0000 1.0000
25.4600 714.0000 1.0000
25.4700 760.0000 1.0000
25.4800 733.0000 1.0000
25.4900 729.0000 1.0000
25.5000 709.0000 1.0000
25.5100 750.0000 1.0000
25.5200 774.0000 1.0000
25.5300 745.0000 1.0000
25.5400 761.0000 1.0000
25.5500 724.0000 1.0000
25.5600 728.0000 1.0000
25.5700 731.0000 1.0000
25.5800 755.0000 1.0000
25.5900 795.0000 1.0000
25.6000 740.0000 1.0000
25.6100 765.0000 1.0000
25.6200 786.0000 1.0000
25.6300 736.0000 1.0000
25.6400 780.0000 1.0000
25.6500 798.0000 1.0000
25.6600 740.0000 1.0000
25.6700 771.0000 1.0000
25.6800 801.0000 1.0000
25.6900 778.0000 1.0000
25.7000 827.0000 1.0000
25.7100 814.0000 1.0000
25.7200 790.0000 1.0000
25.7300 818.0000 1.0000
25.7400 758.0000 1.0000
25.7500 750.0000 1.0000
25.7600 707.0000 1.0000
25.7700 760.0000 1.0000
25.7800 751.0000 1.0000
25.7900 805.0000 1.0000
25.8000 755.0000 1.0000
25.8100 743.0000 1.0000
25.8200 793.0000 1.0000
25.8300 755.0000 1.0000
25.8400 776.0000 1.0000
25.8500 768.0000 1.0000
25.8600 809.0000 1.0000
25.8700 801.0000 1.0000
25.8800 806.0000 1.0000
25.8900 781.0000 1.0000
25.9000 804.0000 1.0000
25.9100 763.0000 1.0000
25.9200 759.0000 1.0000
25.9300 794.0000 1.0000
25.9400 845.0000 1.0000
25.9500 803.0000 1.0000
25.9600 787.0000 1.0000
25.9700 813.0000 1.0000
25.9800 831.0000 1.0000
25.9900 861.0000 1.0000
26.0000 831.0000 1.0000
26.0100 897.0000 1.0000
26.0200 849.0000 1.0000
26.0300 841.0000 1.0000
26.0400 861.0000 1.0000
26.0500 857.0000 1.0000
26.0600 841.0000 1.0000
26.0700 880.0000 1.0000
26.0800 842.0000 1.0000
26.0900 867.0000 1.0000
26.1000 856.0000 1.0000
26.1100 923.0000 1.0000
26.1200 918.0000 1.0000
26.1300 947.0000 1.0000
26.1400 965.0000 1.0000
26.1500 983.0000 1.0000
26.1600 994.0000 1.0000
26.1700 978.0000 1.0000
26.1800 979.0000 1.0000
26.1900 1025.0000 1.0000
26.2000 1077.0000 1.0000
26.2100 1076.0000 1.0000
26.2200 1095.0000 1.0000
26.2300 1173.0000 1.0000
26.2400 1151.0000 1.0000
26.2500 1170.0000 1.0000
26.2600 1197.0000 1.0000
26.2700 1298.0000 1.0000
26.2800 1305.0000 1.0000
26.2900 1412.0000 1.0000
26.3000 1450.0000 1.0000
26.3100 1537.0000 1.0000
26.3200 1606.0000 1.0000
26.3300 1665.0000 1.0000
26.3400 1680.0000 1.0000
26.3500 1861.0000 1.0000
26.3600 1943.0000 1.0000
26.3700 2028.0000 1.0000
26.3800 2189.0000 1.0000
26.3900 2234.0000 1.0000
26.4000 2344.0000 1.0000
26.4100 2375.0000 1.0000
26.4200 2466.0000 1.0000
26.4300 2469.0000 1.0000
26.4400 2533.0000 1.0000
26.4500 2494.0000 1.0000
26.4600 2470.0000 1.0000
26.4700 2412.0000 1.0000
26.4800 2411.0000 1.0000
26.4900 2278.0000 1.0000
26.5000 2176.0000 1.0000
26.5100 2141.0000 1.0000
26.5200 1958.0000 1.0000
26.5300 1957.0000 1.0000
26.5400 1833.0000 1.0000
26.5500 1711.0000 1.0000
26.5600 1641.0000 1.0000
26.5700 1554.0000 1.0000
26.5800 1567.0000 1.0000
26.5900 1480.0000 1.0000
26.6000 1364.0000 1.0000
26.6100 1281.0000 1.0000
26.6200 1274.0000 1.0000
26.6300 1245.0000 1.0000
26.6400 1143.0000 1.0000
26.6500 1169.0000 1.0000
26.6600 1138.0000 1.0000
26.6700 1070.0000 1.0000
26.6800 1048.0000 1.0000
26.6900 1011.0000 1.0000
26.7000 1012.0000 1.0000
26.7100 1028.0000 1.0000
26.7200 1005.0000 1.0000
26.7300 929.0000 1.0000
26.7400 949.0000 1.0000
26.7500 927.0000 1.0000
26.7600 909.0000 1.0000
26.7700 901.0000 1.0000
26.7800 843.0000 1.0000
26.7900 851.0000 1.0000
26.8000 852.0000 1.0000
26.8100 840.0000 1.0000
26.8200 867.0000 1.0000
26.8300 847.0000 1.0000
26.8400 825.0000 1.0000
26.8500 788.0000 1.0000
26.8600 850.0000 1.0000
26.8700 886.0000 1.0000
26.8800 808.0000 1.0000
26.8900 791.0000 1.0000
26.9000 846.0000 1.0000
26.9100 844.0000 1.0000
26.9200 839.0000 1.0000
26.9300 734.0000 1.0000
26.9400 747.0000 1.0000
26.9500 782.0000 1.0000
26.9600 748.0000 1.0000
26.9700 782.0000 1.0000
26.9800 797.0000 1.0000
26.9900 769.0000 1.0000
27.0000 801.0000 1.0000
27.0100 759.0000 1.0000
27.0200 781.0000 1.0000
27.0300 757.0000 1.0000
27.0400 773.0000 1.0000
27.0500 743.0000 1.0000
27.0600 771.0000 1.0000
27.0700 772.0000 1.0000
27.0800 778.0000 1.0000
27.0900 753.0000 1.0000
27.1000 769.0000 1.0000
27.1100 750.0000 1.0000
27.1200 764.0000 1.0000
27.1300 782.0000 1.0000
27.1400 735.0000 1.0000
27.1500 710.0000 1.0000
27.1600 770.0000 1.0000
27.1700 727.0000 1.0000
27.1800 768.0000 1.0000
27.1900 759.0000 1.0000
27.2000 740.0000 1.0000
27.2100 771.0000 1.0000
27.2200 746.0000 1.0000
27.2300 751.0000 1.0000
27.2400 745.0000 1.0000
27.2500 743.0000 1.0000
27.2600 708.0000 1.0000
27.2700 692.0000 1.0000
27.2800 729.0000 1.0000
27.2900 719.0000 1.0000
27.3000 682.0000 1.0000
27.3100 689.0000 1.0000
27.3200 700.0000 1.0000
27.3300 723.0000 1.0000
27.3400 713.0000 1.0000
27.3500 739.0000 1.0000
27.3600 704.0000 1.0000
27.3700 670.0000 1.0000
27.3800 715.0000 1.0000
27.3900 719.0000 1.0000
27.4000 711.0000 1.0000
27.4100 715.0000 1.0000
27.4200 707.0000 1.0000
27.4300 694.0000 1.0000
27.4400 681.0000 1.0000
27.4500 706.0000 1.0000
27.4600 690.0000 1.0000
27.4700 702.0000 1.0000
27.4800 742.0000 1.0000
27.4900 689.0000 1.0000
27.5000 705.0000 1.0000
27.5100 702.0000 1.0000
27.5200 703.0000 1.0000
27.5300 692.0000 1.0000
27.5400 704.0000 1.0000
27.5500 711.0000 1.0000
27.5600 695.0000 1.0000
27.5700 728.0000 1.0000
27.5800 684.0000 1.0000
27.5900 679.0000 1.0000
27.6000 703.0000 1.0000
27.6100 741.0000 1.0000
27.6200 734.0000 1.0000
27.6300 676.0000 1.0000
27.6400 701.0000 1.0000
27.6500 698.0000 1.0000
27.6600 710.0000 1.0000
27.6700 691.0000 1.0000
27.6800 668.0000 1.0000
27.6900 660.0000 1.0000
27.7000 686.0000 1.0000
27.7100 643.0000 1.0000
27.7200 697.0000 1.0000
27.7300 730.0000 1.0000
27.7400 682.0000 1.0000
27.7500 675.0000 1.0000
27.7600 677.0000 1.0000
27.7700 661.0000 1.0000
27.7800 706.0000 1.0000
27.7900 697.0000 1.0000
27.8000 680.0000 1.0000
27.8100 700.0000 1.0000
27.8200 741.0000 1.0000
27.8300 687.0000 1.0000
27.8400 671.0000 1.0000
27.8500 707.0000 1.0000
27.8600 664.0000 1.0000
27.8700 692.0000 1.0000
27.8800 701.0000 1.0000
27.8900 653.0000 1.0000
27.9000 672.0000 1.0000
27.9100 635.0000 1.0000
27.9200 629.0000 1.0000
27.9300 689.0000 1.0000
27.9400 688.0000 1.0000
27.9500 681.0000 1.0000
27.9600 721.0000 1.0000
27.9700 693.0000 1.0000
27.9800 668.0000 1.0000
27.9900 682.0000 1.0000
28.0000 665.0000 1.0000
28.0100 645.0000 1.0000
28.0200 703.0000 1.0000
28.0300 652.0000 1.0000
28.0400 715.0000 1.0000
28.0500 673.0000 1.0000
28.0600 698.0000 1.0000
28.0700 715.0000 1.0000
28.0800 665.0000 1.0000
28.0900 678.0000 1.0000
28.1000 668.0000 1.0000
28.1100 706.0000 1.0000
28.1200 720.0000 1.0000
28.1300 700.0000 1.0000
28.1400 647.0000 1.0000
28.1500 672.0000 1.0000
28.1600 633.0000 1.0000
28.1700 692.0000 1.0000
28.1800 704.0000 1.0000
28.1900 656.0000 1.0000
28.2000 629.0000 1.0000
28.2100 650.0000 1.0000
28.2200 666.0000 1.0000
28.2300 680.0000 1.0000
28.2400 682.0000 1.0000
28.2500 679.0000 1.0000
28.2600 656.0000 1.0000
28.2700 708.0000 1.0000
28.2800 703.0000 1.0000
28.2900 676.0000 1.0000
28.3000 670.0000 1.0000
28.3100 684.0000 1.0000
28.3200 657.0000 1.0000
28.3300 689.0000 1.0000
28.3400 661.0000 1.0000
28.3500 678.0000 1.0000
28.3600 687.0000 1.0000
28.3700 649.0000 1.0000
28.3800 656.0000 1.0000
28.3900 673.0000 1.0000
28.4000 657.0000 1.0000
28.4100 632.0000 1.0000
28.4200 641.0000 1.0000
28.4300 622.0000 1.0000
28.4400 670.0000 1.0000
28.4500 683.0000 1.0000
28.4600 624.0000 1.0000
28.4700 632.0000 1.0000
28.4800 630.0000 1.0000
28.4900 663.0000 1.0000
28.5000 655.0000 1.0000
28.5100 615.0000 1.0000
28.5200 667.0000 1.0000
28.5300 638.0000 1.0000
28.5400 636.0000 1.0000
28.5500 654.0000 1.0000
28.5600 707.0000 1.0000
28.5700 645.0000 1.0000
28.5800 676.0000 1.0000
28.5900 671.0000 1.0000
28.6000 652.0000 1.0000
28.6100 641.0000 1.0000
28.6200 646.0000 1.0000
28.6300 630.0000 1.0000
28.6400 643.0000 1.0000
28.6500 651.0000 1.0000
28.6600 666.0000 1.0000
28.6700 672.0000 1.0000
28.6800 639.0000 1.0000
28.6900 663.0000 1.0000
28.7000 654.0000 1.0000
28.7100 684.0000 1.0000
28.7200 679.0000 1.0000
28.7300 638.0000 1.0000
28.7400 656.0000 1.0000
28.7500 653.0000 1.0000
28.7600 666.0000 1.0000
28.7700 657.0000 1.0000
28.7800 640.0000 1.0000
28.7900 634.0000 1.0000
28.8000 637.0000 1.0000
28.8100 705.0000 1.0000
28.8200 661.0000 1.0000
28.8300 629.0000 1.0000
28.8400 648.0000 1.0000
28.8500 625.0000 1.0000
28.8600 637.0000 1.0000
28.8700 675.0000 1.0000
28.8800 689.0000 1.0000
28.8900 625.0000 1.0000
28.9000 634.0000 1.0000
28.9100 628.0000 1.0000
28.9200 644.0000 1.0000
28.9300 689.0000 1.0000
28.9400 663.0000 1.0000
28.9500 649.0000 1.0000
28.9600 689.0000 1.0000
28.9700 660.0000 1.0000
28.9800 654.0000 1.0000
28.9900 640.0000 1.0000
29.0000 634.0000 1.0000
29.0100 656.0000 1.0000
29.0200 638.0000 1.0000
29.0300 675.0000 1.0000
29.0400 663.0000 1.0000
29.0500 649.0000 1.0000
29.0600 669.0000 1.0000
29.0700 671.0000 1.0000
29.0800 692.0000 1.0000
29.0900 642.0000 1.0000
29.1000 650.0000 1.0000
29.1100 634.0000 1.0000
29.1200 625.0000 1.0000
29.1300 671.0000 1.0000
29.1400 647.0000 1.0000
29.1500 664.0000 1.0000
29.1600 677.0000 1.0000
29.1700 644.0000 1.0000
29.1800 599.0000 1.0000
29.1900 583.0000 1.0000
29.2000 627.0000 1.0000
29.2100 697.0000 1.0000
29.2200 669.0000 1.0000
29.2300 647.0000 1.0000
29.2400 647.0000 1.0000
29.2500 646.0000 1.0000
29.2600 622.0000 1.0000
29.2700 648.0000 1.0000
29.2800 651.0000 1.0000
29.2900 610.0000 1.0000
29.3000 607.0000 1.0000
29.3100 601.0000 1.0000
29.3200 654.0000 1.0000
29.3300 641.0000 1.0000
29.3400 638.0000 1.0000
29.3500 633.0000 1.0000
29.3600 633.0000 1.0000
29.3700 652.0000 1.0000
29.3800 640.0000 1.0000
29.3900 585.0000 1.0000
29.4000 600.0000 1.0000
29.4100 628.0000 1.0000
29.4200 659.0000 1.0000
29.4300 617.0000 1.0000
29.4400 647.0000 1.0000
29.4500 660.0000 1.0000
29.4600 654.0000 1.0000
29.4700 624.0000 1.0000
29.4800 653.0000 1.0000
29.4900 637.0000 1.0000
29.5000 610.0000 1.0000
29.5100 600.0000 1.0000
29.5200 645.0000 1.0000
29.5300 617.0000 1.0000
29.5400 650.0000 1.0000
29.5500 635.0000 1.0000
29.5600 633.0000 1.0000
29.5700 640.0000 1.0000
29.5800 624.0000 1.0000
29.5900 627.0000 1.0000
29.6000 623.0000 1.0000
29.6100 609.0000 1.0000
29.6200 641.0000 1.0000
29.6300 640.0000 1.0000
29.6400 616.0000 1.0000
29.6500 637.0000 1.0000
29.6600 625.0000 1.0000
29.6700 638.0000 1.0000
29.6800 600.0000 1.0000
29.6900 598.0000 1.0000
29.7000 605.0000 1.0000
29.7100 621.0000 1.0000
29.7200 603.0000 1.0000
29.7300 675.0000 1.0000
29.7400 595.0000 1.0000
29.7500 622.0000 1.0000
29.7600 644.0000 1.0000
29.7700 616.0000 1.0000
29.7800 629.0000 1.0000
29.7900 644.0000 1.0000
29.8000 631.0000 1.0000
29.8100 612.0000 1.0000
29.8200 586.0000 1.0000
29.8300 600.0000 1.0000
29.8400 641.0000 1.0000
29.8500 657.0000 1.0000
29.8600 632.0000 1.0000
29.8700 604.0000 1.0000
29.8800 611.0000 1.0000
29.8900 606.0000 1.0000
29.9000 615.0000 1.0000
29.9100 612.0000 1.0000
29.9200 611.0000 1.0000
29.9300 616.0000 1.0000
29.9400 651.0000 1.0000
29.9500 611.0000 1.0000
29.9600 669.0000 1.0000
29.9700 662.0000 1.0000
29.9800 562.0000 1.0000
29.9900 615.0000 1.0000
30.0000 615.0000 1.0000
30.0100 635.0000 1.0000
30.0200 599.0000 1.0000
30.0300 624.0000 1.0000
30.0400 659.0000 1.0000
30.0500 623.0000 1.0000
30.0600 617.0000 1.0000
30.0700 615.0000 1.0000
30.0800 618.0000 1.0000
30.0900 644.0000 1.0000
30.1000 623.0000 1.0000
30.1100 647.0000 1.0000
30.1200 624.0000 1.0000
30.1300 622.0000 1.0000
30.1400 616.0000 1.0000
30.1500 620.0000 1.0000
30.1600 623.0000 1.0000
30.1700 613.0000 1.0000
30.1800 611.0000 1.0000
30.1900 617.0000 1.0000
30.2000 610.0000 1.0000
30.2100 601.0000 1.0000
30.2200 632.0000 1.0000
30.2300 622.0000 1.0000
30.2400 630.0000 1.0000
30.2500 657.0000 1.0000
30.2600 577.0000 1.0000
30.2700 623.0000 1.0000
30.2800 628.0000 1.0000
30.2900 600.0000 1.0000
30.3000 626.0000 1.0000
30.3100 600.0000 1.0000
30.3200 603.0000 1.0000
30.3300 616.0000 1.0000
30.3400 658.0000 1.0000
30.3500 581.0000 1.0000
30.3600 595.0000 1.0000
30.3700 609.0000 1.0000
30.3800 621.0000 1.0000
30.3900 598.0000 1.0000
30.4000 613.0000 1.0000
30.4100 608.0000 1.0000
30.4200 551.0000 1.0000
30.4300 570.0000 1.0000
30.4400 618.0000 1.0000
30.4500 655.0000 1.0000
30.4600 654.0000 1.0000
30.4700 585.0000 1.0000
30.4800 611.0000 1.0000
30.4900 600.0000 1.0000
30.5000 608.0000 1.0000
30.5100 615.0000 1.0000
30.5200 580.0000 1.0000
30.5300 582.0000 1.0000
30.5400 610.0000 1.0000
30.5500 601.0000 1.0000
30.5600 602.0000 1.0000
30.5700 590.0000 1.0000
30.5800 632.0000 1.0000
30.5900 635.0000 1.0000
30.6000 604.0000 1.0000
30.6100 653.0000 1.0000
30.6200 613.0000 1.0000
30.6300 574.0000 1.0000
30.6400 606.0000 1.0000
30.6500 548.0000 1.0000
30.6600 601.0000 1.0000
30.6700 589.0000 1.0000
30.6800 618.0000 1.0000
30.6900 626.0000 1.0000
30.7000 592.0000 1.0000
30.7100 574.0000 1.0000
30.7200 549.0000 1.0000
30.7300 610.0000 1.0000
30.7400 551.0000 1.0000
30.7500 554.0000 1.0000
30.7600 549.0000 1.0000
30.7700 594.0000 1.0000
30.7800 606.0000 1.0000
30.7900 630.0000 1.0000
30.8000 604.0000 1.0000
30.8100 594.0000 1.0000
30.8200 613.0000 1.0000
30.8300 603.0000 1.0000
30.8400 588.0000 1.0000
30.8500 592.0000 1.0000
30.8600 563.0000 1.0000
30.8700 582.0000 1.0000
30.8800 578.0000 1.0000
30.8900 607.0000 1.0000
30.9000 556.0000 1.0000
30.9100 559.0000 1.0000
30.9200 600.0000 1.0000
30.9300 583.0000 1.0000
30.9400 562.0000 1.0000
30.9500 636.0000 1.0000
30.9600 604.0000 1.0000
30.9700 595.0000 1.0000
30.9800 617.0000 1.0000
30.9900 600.0000 1.0000
31.0000 622.0000 1.0000
31.0100 591.0000 1.0000
31.0200 599.0000 1.0000
31.0300 608.0000 1.0000
31.0400 590.0000 1.0000
31.0500 644.0000 1.0000
31.0600 572.0000 1.0000
31.0700 630.0000 1.0000
31.0800 576.0000 1.0000
31.0900 615.0000 1.0000
31.1000 609.0000 1.0000
31.1100 669.0000 1.0000
31.1200 594.0000 1.0000
31.1300 620.0000 1.0000
31.1400 636.0000 1.0000
31.1500 558.0000 1.0000
31.1600 560.0000 1.0000
31.1700 606.0000 1.0000
31.1800 602.0000 1.0000
31.1900 608.0000 1.0000
31.2000 604.0000 1.0000
31.2100 596.0000 1.0000
31.2200 589.0000 1.0000
31.2300 582.0000 1.0000
31.2400 611.0000 1.0000
31.2500 603.0000 1.0000
31.2600 611.0000 1.0000
31.2700 531.0000 1.0000
31.2800 604.0000 1.0000
31.2900 592.0000 1.0000
31.3000 620.0000 1.0000
31.3100 591.0000 1.0000
31.3200 586.0000 1.0000
31.3300 635.0000 1.0000
31.3400 565.0000 1.0000
31.3500 604.0000 1.0000
31.3600 610.0000 1.0000
31.3700 565.0000 1.0000
31.3800 565.0000 1.0000
31.3900 589.0000 1.0000
31.4000 596.0000 1.0000
31.4100 585.0000 1.0000
31.4200 609.0000 1.0000
31.4300 598.0000 1.0000
31.4400 608.0000 1.0000
31.4500 601.0000 1.0000
31.4600 618.0000 1.0000
31.4700 614.0000 1.0000
31.4800 571.0000 1.0000
31.4900 581.0000 1.0000
31.5000 565.0000 1.0000
31.5100 587.0000 1.0000
31.5200 592.0000 1.0000
31.5300 574.0000 1.0000
31.5400 593.0000 1.0000
31.5500 577.0000 1.0000
31.5600 604.0000 1.0000
31.5700 582.0000 1.0000
31.5800 586.0000 1.0000
31.5900 565.0000 1.0000
31.6000 593.0000 1.0000
31.6100 597.0000 1.0000
31.6200 630.0000 1.0000
31.6300 574.0000 1.0000
31.6400 566.0000 1.0000
31.6500 580.0000 1.0000
31.6600 583.0000 1.0000
31.6700 584.0000 1.0000
31.6800 600.0000 1.0000
31.6900 580.0000 1.0000
31.7000 599.0000 1.0000
31.7100 586.0000 1.0000
31.7200 555.0000 1.0000
31.7300 560.0000 1.0000
31.7400 538.0000 1.0000
31.7500 563.0000 1.0000
31.7600 564.0000 1.0000
31.7700 576.0000 1.0000
31.7800 562.0000 1.0000
31.7900 543.0000 1.0000
31.8000 583.0000 1.0000
31.8100 594.0000 1.0000
31.8200 548.0000 1.0000
31.8300 549.0000 1.0000
31.8400 544.0000 1.0000
31.8500 591.0000 1.0000
31.8600 572.0000 1.0000
31.8700 589.0000 1.0000
31.8800 550.0000 1.0000
31.8900 589.0000 1.0000
31.9000 552.0000 1.0000
31.9100 532.0000 1.0000
31.9200 553.0000 1.0000
31.9300 580.0000 1.0000
31.9400 565.0000 1.0000
31.9500 578.0000 1.0000
31.9600 593.0000 1.0000
31.9700 577.0000 1.0000
31.9800 538.0000 1.0000
31.9900 529.0000 1.0000
32.0000 552.0000 1.0000
32.0100 590.0000 1.0000
32.0200 618.0000 1.0000
32.0300 615.0000 1.0000
32.0400 563.0000 1.0000
32.0500 551.0000 1.0000
32.0600 549.0000 1.0000
32.0700 571.0000 1.0000
32.0800 580.0000 1.0000
32.0900 531.0000 1.0000
32.1000 589.0000 1.0000
32.1100 592.0000 1.0000
32.1200 589.0000 1.0000
32.1300 552.0000 1.0000
32.1400 522.0000 1.0000
32.1500 568.0000 1.0000
32.1600 572.0000 1.0000
32.1700 549.0000 1.0000
32.1800 600.0000 1.0000
32.1900 574.0000 1.0000
32.2000 579.0000 1.0000
32.2100 559.0000 1.0000
32.2200 545.0000 1.0000
32.2300 586.0000 1.0000
32.2400 531.0000 1.0000
32.2500 567.0000 1.0000
32.2600 585.0000 1.0000
32.2700 553.0000 1.0000
32.2800 567.0000 1.0000
32.2900 582.0000 1.0000
32.3000 559.0000 1.0000
32.3100 551.0000 1.0000
32.3200 556.0000 1.0000
32.3300 560.0000 1.0000
32.3400 529.0000 1.0000
32.3500 566.0000 1.0000
32.3600 532.0000 1.0000
32.3700 557.0000 1.0000
32.3800 585.0000 1.0000
32.3900 554.0000 1.0000
32.4000 590.0000 1.0000
32.4100 585.0000 1.0000
32.4200 566.0000 1.0000
32.4300 546.0000 1.0000
32.4400 574.0000 1.0000
32.4500 534.0000 1.0000
32.4600 575.0000 1.0000
32.4700 601.0000 1.0000
32.4800 555.0000 1.0000
32.4900 546.0000 1.0000
32.5000 588.0000 1.0000
32.5100 552.0000 1.0000
32.5200 540.0000 1.0000
32.5300 562.0000 1.0000
32.5400 543.0000 1.0000
32.5500 543.0000 1.0000
32.5600 542.0000 1.0000
32.5700 553.0000 1.0000
32.5800 547.0000 1.0000
32.5900 560.0000 1.0000
32.6000 548.0000 1.0000
32.6100 560.0000 1.0000
32.6200 554.0000 1.0000
32.6300 557.0000 1.0000
32.6400 570.0000 1.0000
32.6500 568.0000 1.0000
32.6600 538.0000 1.0000
32.6700 631.0000 1.0000
32.6800 583.0000 1.0000
32.6900 561.0000 1.0000
32.7000 551.0000 1.0000
32.7100 570.0000 1.0000
32.7200 569.0000 1.0000
32.7300 579.0000 1.0000
32.7400 550.0000 1.0000
32.7500 558.0000 1.0000
32.7600 545.0000 1.0000
32.7700 597.0000 1.0000
32.7800 559.0000 1.0000
32.7900 608.0000 1.0000
32.8000 568.0000 1.0000
32.8100 594.0000 1.0000
32.8200 583.0000 1.0000
32.8300 563.0000 1.0000
32.8400 524.0000 1.0000
32.8500 569.0000 1.0000
32.8600 541.0000 1.0000
32.8700 552.0000 1.0000
32.8800 618.0000 1.0000
32.8900 591.0000 1.0000
32.9000 560.0000 1.0000
32.9100 596.0000 1.0000
32.9200 573.0000 1.0000
32.9300 562.0000 1.0000
32.9400 568.0000 1.0000
32.9500 613.0000 1.0000
32.9600 621.0000 1.0000
32.9700 606.0000 1.0000
32.9800 652.0000 1.0000
32.9900 621.0000 1.0000
33.0000 629.0000 1.0000
33.0100 665.0000 1.0000
33.0200 631.0000 1.0000
33.0300 659.0000 1.0000
33.0400 662.0000 1.0000
33.0500 655.0000 1.0000
33.0600 663.0000 1.0000
33.0700 681.0000 1.0000
33.0800 703.0000 1.0000
33.0900 671.0000 1.0000
33.1000 678.0000 1.0000
33.1100 701.0000 1.0000
33.1200 685.0000 1.0000
33.1300 690.0000 1.0000
33.1400 715.0000 1.0000
33.1500 665.0000 1.0000
33.1600 656.0000 1.0000
33.1700 678.0000 1.0000
33.1800 694.0000 1.0000
33.1900 666.0000 1.0000
33.2000 668.0000 1.0000
33.2100 669.0000 1.0000
33.2200 676.0000 1.0000
33.2300 672.0000 1.0000
33.2400 657.0000 1.0000
33.2500 624.0000 1.0000
33.2600 639.0000 1.0000
33.2700 601.0000 1.0000
33.2800 635.0000 1.0000
33.2900 660.0000 1.0000
33.3000 625.0000 1.0000
33.3100 623.0000 1.0000
33.3200 601.0000 1.0000
33.3300 656.0000 1.0000
33.3400 636.0000 1.0000
33.3500 683.0000 1.0000
33.3600 675.0000 1.0000
33.3700 654.0000 1.0000
33.3800 682.0000 1.0000
33.3900 648.0000 1.0000
33.4000 664.0000 1.0000
33.4100 697.0000 1.0000
33.4200 710.0000 1.0000
33.4300 744.0000 1.0000
33.4400 692.0000 1.0000
33.4500 728.0000 1.0000
33.4600 793.0000 1.0000
33.4700 796.0000 1.0000
33.4800 839.0000 1.0000
33.4900 814.0000 1.0000
33.5000 817.0000 1.0000
33.5100 880.0000 1.0000
33.5200 864.0000 1.0000
33.5300 897.0000 1.0000
33.5400 926.0000 1.0000
33.5500 981.0000 1.0000
33.5600 1045.0000 1.0000
33.5700 1078.0000 1.0000
33.5800 1059.0000 1.0000
33.5900 1143.0000 1.0000
33.6000 1189.0000 1.0000
33.6100 1258.0000 1.0000
33.6200 1311.0000 1.0000
33.6300 1299.0000 1.0000
33.6400 1375.0000 1.0000
33.6500 1410.0000 1.0000
33.6600 1367.0000 1.0000
33.6700 1322.0000 1.0000
33.6800 1275.0000 1.0000
33.6900 1230.0000 1.0000
33.7000 1257.0000 1.0000
33.7100 1237.0000 1.0000
33.7200 1197.0000 1.0000
33.7300 1128.0000 1.0000
33.7400 1125.0000 1.0000
33.7500 1086.0000 1.0000
33.7600 1029.0000 1.0000
33.7700 993.0000 1.0000
33.7800 960.0000 1.0000
33.7900 892.0000 1.0000
33.8000 883.0000 1.0000
33.8100 828.0000 1.0000
33.8200 833.0000 1.0000
33.8300 792.0000 1.0000
33.8400 772.0000 1.0000
33.8500 742.0000 1.0000
33.8600 737.0000 1.0000
33.8700 737.0000 1.0000
33.8800 715.0000 1.0000
33.8900 715.0000 1.0000
33.9000 751.0000 1.0000
33.9100 662.0000 1.0000
33.9200 678.0000 1.0000
33.9300 629.0000 1.0000
33.9400 648.0000 1.0000
33.9500 653.0000 1.0000
33.9600 648.0000 1.0000
33.9700 567.0000 1.0000
33.9800 567.0000 1.0000
33.9900 607.0000 1.0000
34.0000 604.0000 1.0000
34.0100 622.0000 1.0000
34.0200 589.0000 1.0000
34.0300 587.0000 1.0000
34.0400 587.0000 1.0000
34.0500 557.0000 1.0000
34.0600 590.0000 1.0000
34.0700 571.0000 1.0000
34.0800 599.0000 1.0000
34.0900 601.0000 1.0000
34.1000 558.0000 1.0000
34.1100 549.0000 1.0000
34.1200 558.0000 1.0000
34.1300 558.0000 1.0000
34.1400 574.0000 1.0000
34.1500 505.0000 1.0000
34.1600 542.0000 1.0000
34.1700 578.0000 1.0000
34.1800 525.0000 1.0000
34.1900 513.0000 1.0000
34.2000 554.0000 1.0000
34.2100 547.0000 1.0000
34.2200 529.0000 1.0000
34.2300 523.0000 1.0000
34.2400 570.0000 1.0000
34.2500 537.0000 1.0000
34.2600 539.0000 1.0000
34.2700 535.0000 1.0000
34.2800 554.0000 1.0000
34.2900 508.0000 1.0000
34.3000 524.0000 1.0000
34.3100 535.0000 1.0000
34.3200 542.0000 1.0000
34.3300 500.0000 1.0000
34.3400 530.0000 1.0000
34.3500 503.0000 1.0000
34.3600 558.0000 1.0000
34.3700 548.0000 1.0000
34.3800 503.0000 1.0000
34.3900 496.0000 1.0000
34.4000 504.0000 1.0000
34.4100 524.0000 1.0000
34.4200 541.0000 1.0000
34.4300 526.0000 1.0000
34.4400 519.0000 1.0000
34.4500 517.0000 1.0000
34.4600 484.0000 1.0000
34.4700 556.0000 1.0000
34.4800 545.0000 1.0000
34.4900 482.0000 1.0000
34.5000 508.0000 1.0000
34.5100 478.0000 1.0000
34.5200 519.0000 1.0000
34.5300 529.0000 1.0000
34.5400 488.0000 1.0000
34.5500 504.0000 1.0000
34.5600 517.0000 1.0000
34.5700 490.0000 1.0000
34.5800 478.0000 1.0000
34.5900 506.0000 1.0000
34.6000 529.0000 1.0000
34.6100 485.0000 1.0000
34.6200 449.0000 1.0000
34.6300 467.0000 1.0000
34.6400 491.0000 1.0000
34.6500 487.0000 1.0000
34.6600 474.0000 1.0000
34.6700 491.0000 1.0000
34.6800 551.0000 1.0000
34.6900 527.0000 1.0000
34.7000 503.0000 1.0000
34.7100 523.0000 1.0000
34.7200 503.0000 1.0000
34.7300 495.0000 1.0000
34.7400 481.0000 1.0000
34.7500 513.0000 1.0000
34.7600 545.0000 1.0000
34.7700 484.0000 1.0000
34.7800 494.0000 1.0000
34.7900 501.0000 1.0000
34.8000 513.0000 1.0000
34.8100 453.0000 1.0000
34.8200 458.0000 1.0000
34.8300 492.0000 1.0000
34.8400 466.0000 1.0000
34.8500 480.0000 1.0000
34.8600 515.0000 1.0000
34.8700 466.0000 1.0000
34.8800 497.0000 1.0000
34.8900 490.0000 1.0000
34.9000 476.0000 1.0000
34.9100 544.0000 1.0000
34.9200 493.0000 1.0000
34.9300 507.0000 1.0000
34.9400 478.0000 1.0000
34.9500 471.0000 1.0000
34.9600 504.0000 1.0000
34.9700 502.0000 1.0000
34.9800 489.0000 1.0000
34.9900 488.0000 1.0000
35.0000 456.0000 1.0000
35.0100 450.0000 1.0000
35.0200 493.0000 1.0000
35.0300 494.0000 1.0000
35.0400 484.0000 1.0000
35.0500 501.0000 1.0000
35.0600 520.0000 1.0000
35.0700 456.0000 1.0000
35.0800 485.0000 1.0000
35.0900 495.0000 1.0000
35.1000 499.0000 1.0000
35.1100 499.0000 1.0000
35.1200 511.0000 1.0000
35.1300 472.0000 1.0000
35.1400 478.0000 1.0000
35.1500 465.0000 1.0000
35.1600 422.0000 1.0000
35.1700 470.0000 1.0000
35.1800 486.0000 1.0000
35.1900 504.0000 1.0000
35.2000 514.0000 1.0000
35.2100 501.0000 1.0000
35.2200 511.0000 1.0000
35.2300 465.0000 1.0000
35.2400 525.0000 1.0000
35.2500 510.0000 1.0000
35.2600 504.0000 1.0000
35.2700 518.0000 1.0000
35.2800 492.0000 1.0000
35.2900 523.0000 1.0000
35.3000 516.0000 1.0000
35.3100 523.0000 1.0000
35.3200 498.0000 1.0000
35.3300 514.0000 1.0000
35.3400 555.0000 1.0000
35.3500 548.0000 1.0000
35.3600 558.0000 1.0000
35.3700 541.0000 1.0000
35.3800 545.0000 1.0000
35.3900 570.0000 1.0000
35.4000 598.0000 1.0000
35.4100 583.0000 1.0000
35.4200 570.0000 1.0000
35.4300 648.0000 1.0000
35.4400 635.0000 1.0000
35.4500 617.0000 1.0000
35.4600 625.0000 1.0000
35.4700 704.0000 1.0000
35.4800 713.0000 1.0000
35.4900 723.0000 1.0000
35.5000 749.0000 1.0000
35.5100 814.0000 1.0000
35.5200 838.0000 1.0000
35.5300 855.0000 1.0000
35.5400 831.0000 1.0000
35.5500 897.0000 1.0000
35.5600 853.0000 1.0000
35.5700 886.0000 1.0000
35.5800 887.0000 1.0000
35.5900 917.0000 1.0000
35.6000 864.0000 1.0000
35.6100 853.0000 1.0000
35.6200 906.0000 1.0000
35.6300 854.0000 1.0000
35.6400 773.0000 1.0000
35.6500 779.0000 1.0000
35.6600 793.0000 1.0000
35.6700 745.0000 1.0000
35.6800 714.0000 1.0000
35.6900 718.0000 1.0000
35.7000 702.0000 1.0000
35.7100 671.0000 1.0000
35.7200 649.0000 1.0000
35.7300 608.0000 1.0000
35.7400 605.0000 1.0000
35.7500 566.0000 1.0000
35.7600 550.0000 1.0000
35.7700 531.0000 1.0000
35.7800 564.0000 1.0000
35.7900 517.0000 1.0000
35.8000 517.0000 1.0000
35.8100 482.0000 1.0000
35.8200 451.0000 1.0000
35.8300 474.0000 1.0000
35.8400 465.0000 1.0000
35.8500 461.0000 1.0000
35.8600 476.0000 1.0000
35.8700 465.0000 1.0000
35.8800 483.0000 1.0000
35.8900 453.0000 1.0000
35.9000 440.0000 1.0000
35.9100 469.0000 1.0000
35.9200 464.0000 1.0000
35.9300 463.0000 1.0000
35.9400 465.0000 1.0000
35.9500 475.0000 1.0000
35.9600 459.0000 1.0000
35.9700 458.0000 1.0000
35.9800 461.0000 1.0000
35.9900 480.0000 1.0000
36.0000 443.0000 1.0000
36.0100 436.0000 1.0000
36.0200 459.0000 1.0000
36.0300 456.0000 1.0000
36.0400 445.0000 1.0000
36.0500 455.0000 1.0000
36.0600 471.0000 1.0000
36.0700 470.0000 1.0000
36.0800 457.0000 1.0000
36.0900 467.0000 1.0000
36.1000 449.0000 1.0000
36.1100 437.0000 1.0000
36.1200 455.0000 1.0000
36.1300 446.0000 1.0000
36.1400 490.0000 1.0000
36.1500 425.0000 1.0000
36.1600 434.0000 1.0000
36.1700 457.0000 1.0000
36.1800 445.0000 1.0000
36.1900 418.0000 1.0000
36.2000 418.0000 1.0000
36.2100 439.0000 1.0000
36.2200 435.0000 1.0000
36.2300 466.0000 1.0000
36.2400 458.0000 1.0000
36.2500 468.0000 1.0000
36.2600 443.0000 1.0000
36.2700 440.0000 1.0000
36.2800 456.0000 1.0000
36.2900 457.0000 1.0000
36.3000 478.0000 1.0000
36.3100 476.0000 1.0000
36.3200 450.0000 1.0000
36.3300 482.0000 1.0000
36.3400 476.0000 1.0000
36.3500 437.0000 1.0000
36.3600 427.0000 1.0000
36.3700 477.0000 1.0000
36.3800 460.0000 1.0000
36.3900 441.0000 1.0000
36.4000 421.0000 1.0000
36.4100 431.0000 1.0000
36.4200 432.0000 1.0000
36.4300 447.0000 1.0000
36.4400 447.0000 1.0000
36.4500 428.0000 1.0000
36.4600 444.0000 1.0000
36.4700 424.0000 1.0000
36.4800 459.0000 1.0000
36.4900 430.0000 1.0000
36.5000 449.0000 1.0000
36.5100 449.0000 1.0000
36.5200 408.0000 1.0000
36.5300 440.0000 1.0000
36.5400 461.0000 1.0000
36.5500 438.0000 1.0000
36.5600 453.0000 1.0000
36.5700 441.0000 1.0000
36.5800 421.0000 1.0000
36.5900 439.0000 1.0000
36.6000 463.0000 1.0000
36.6100 430.0000 1.0000
36.6200 462.0000 1.0000
36.6300 448.0000 1.0000
36.6400 441.0000 1.0000
36.6500 434.0000 1.0000
36.6600 434.0000 1.0000
36.6700 477.0000 1.0000
36.6800 452.0000 1.0000
36.6900 442.0000 1.0000
36.7000 426.0000 1.0000
36.7100 435.0000 1.0000
36.7200 439.0000 1.0000
36.7300 422.0000 1.0000
36.7400 470.0000 1.0000
36.7500 494.0000 1.0000
36.7600 455.0000 1.0000
36.7700 447.0000 1.0000
36.7800 456.0000 1.0000
36.7900 478.0000 1.0000
36.8000 436.0000 1.0000
36.8100 447.0000 1.0000
36.8200 419.0000 1.0000
36.8300 444.0000 1.0000
36.8400 428.0000 1.0000
36.8500 460.0000 1.0000
36.8600 444.0000 1.0000
36.8700 466.0000 1.0000
36.8800 458.0000 1.0000
36.8900 503.0000 1.0000
36.9000 428.0000 1.0000
36.9100 412.0000 1.0000
36.9200 460.0000 1.0000
36.9300 431.0000 1.0000
36.9400 460.0000 1.0000
36.9500 436.0000 1.0000
36.9600 464.0000 1.0000
36.9700 442.0000 1.0000
36.9800 456.0000 1.0000
36.9900 414.0000 1.0000
37.0000 466.0000 1.0000
37.0100 438.0000 1.0000
37.0200 445.0000 1.0000
37.0300 463.0000 1.0000
37.0400 458.0000 1.0000
37.0500 486.0000 1.0000
37.0600 462.0000 1.0000
37.0700 447.0000 1.0000
37.0800 410.0000 1.0000
37.0900 440.0000 1.0000
37.1000 466.0000 1.0000
37.1100 462.0000 1.0000
37.1200 454.0000 1.0000
37.1300 446.0000 1.0000
37.1400 451.0000 1.0000
37.1500 480.0000 1.0000
37.1600 470.0000 1.0000
37.1700 462.0000 1.0000
37.1800 485.0000 1.0000
37.1900 472.0000 1.0000
37.2000 472.0000 1.0000
37.2100 473.0000 1.0000
37.2200 476.0000 1.0000
37.2300 477.0000 1.0000
37.2400 470.0000 1.0000
37.2500 510.0000 1.0000
37.2600 470.0000 1.0000
37.2700 515.0000 1.0000
37.2800 509.0000 1.0000
37.2900 490.0000 1.0000
37.3000 507.0000 1.0000
37.3100 507.0000 1.0000
37.3200 493.0000 1.0000
37.3300 560.0000 1.0000
37.3400 560.0000 1.0000
37.3500 562.0000 1.0000
37.3600 536.0000 1.0000
37.3700 537.0000 1.0000
37.3800 583.0000 1.0000
37.3900 598.0000 1.0000
37.4000 615.0000 1.0000
37.4100 622.0000 1.0000
37.4200 672.0000 1.0000
37.4300 676.0000 1.0000
37.4400 709.0000 1.0000
37.4500 692.0000 1.0000
37.4600 736.0000 1.0000
37.4700 758.0000 1.0000
37.4800 795.0000 1.0000
37.4900 770.0000 1.0000
37.5000 861.0000 1.0000
37.5100 947.0000 1.0000
37.5200 942.0000 1.0000
37.5300 1025.0000 1.0000
37.5400 1007.0000 1.0000
37.5500 1098.0000 1.0000
37.5600 1169.0000 1.0000
37.5700 1266.0000 1.0000
37.5800 1343.0000 1.0000
37.5900 1387.0000 1.0000
37.6000 1472.0000 1.0000
37.6100 1577.0000 1.0000
37.6200 1646.0000 1.0000
37.6300 1762.0000 1.0000
37.6400 1848.0000 1.0000
37.6500 1953.0000 1.0000
37.6600 1992.0000 1.0000
37.6700 2034.0000 1.0000
37.6800 2163.0000 1.0000
37.6900 2134.0000 1.0000
37.7000 2195.0000 1.0000
37.7100 2215.0000 1.0000
37.7200 2161.0000 1.0000
37.7300 2145.0000 1.0000
37.7400 2143.0000 1.0000
37.7500 2109.0000 1.0000
37.7600 2109.0000 1.0000
37.7700 1999.0000 1.0000
37.7800 1934.0000 1.0000
37.7900 1848.0000 1.0000
37.8000 1731.0000 1.0000
37.8100 1660.0000 1.0000
37.8200 1602.0000 1.0000
37.8300 1453.0000 1.0000
37.8400 1455.0000 1.0000
37.8500 1392.0000 1.0000
37.8600 1355.0000 1.0000
37.8700 1260.0000 1.0000
37.8800 1172.0000 1.0000
37.8900 1080.0000 1.0000
37.9000 1021.0000 1.0000
37.9100 983.0000 1.0000
37.9200 883.0000 1.0000
37.9300 839.0000 1.0000
37.9400 828.0000 1.0000
37.9500 777.0000 1.0000
37.9600 753.0000 1.0000
37.9700 722.0000 1.0000
37.9800 668.0000 1.0000
37.9900 672.0000 1.0000
38.0000 630.0000 1.0000
38.0100 610.0000 1.0000
38.0200 603.0000 1.0000
38.0300 604.0000 1.0000
38.0400 607.0000 1.0000
38.0500 557.0000 1.0000
38.0600 541.0000 1.0000
38.0700 531.0000 1.0000
38.0800 498.0000 1.0000
38.0900 529.0000 1.0000
38.1000 509.0000 1.0000
38.1100 500.0000 1.0000
38.1200 484.0000 1.0000
38.1300 462.0000 1.0000
38.1400 470.0000 1.0000
38.1500 486.0000 1.0000
38.1600 501.0000 1.0000
38.1700 481.0000 1.0000
38.1800 487.0000 1.0000
38.1900 460.0000 1.0000
38.2000 459.0000 1.0000
38.2100 447.0000 1.0000
38.2200 473.0000 1.0000
38.2300 428.0000 1.0000
38.2400 413.0000 1.0000
38.2500 480.0000 1.0000
38.2600 422.0000 1.0000
38.2700 423.0000 1.0000
38.2800 423.0000 1.0000
38.2900 440.0000 1.0000
38.3000 430.0000 1.0000
38.3100 426.0000 1.0000
38.3200 443.0000 1.0000
38.3300 442.0000 1.0000
38.3400 433.0000 1.0000
38.3500 417.0000 1.0000
38.3600 419.0000 1.0000
38.3700 444.0000 1.0000
38.3800 422.0000 1.0000
38.3900 429.0000 1.0000
38.4000 417.0000 1.0000
38.4100 419.0000 1.0000
38.4200 393.0000 1.0000
38.4300 431.0000 1.0000
38.4400 409.0000 1.0000
38.4500 412.0000 1.0000
38.4600 409.0000 1.0000
38.4700 403.0000 1.0000
38.4800 451.0000 1.0000
38.4900 407.0000 1.0000
38.5000 404.0000 1.0000
38.5100 401.0000 1.0000
38.5200 408.0000 1.0000
38.5300 421.0000 1.0000
38.5400 379.0000 1.0000
38.5500 399.0000 1.0000
38.5600 417.0000 1.0000
38.5700 417.0000 1.0000
38.5800 404.0000 1.0000
38.5900 435.0000 1.0000
38.6000 423.0000 1.0000
38.6100 402.0000 1.0000
38.6200 391.0000 1.0000
38.6300 402.0000 1.0000
38.6400 405.0000 1.0000
38.6500 408.0000 1.0000
38.6600 416.0000 1.0000
38.6700 422.0000 1.0000
38.6800 400.0000 1.0000
38.6900 419.0000 1.0000
38.7000 419.0000 1.0000
38.7100 409.0000 1.0000
38.7200 437.0000 1.0000
38.7300 382.0000 1.0000
38.7400 383.0000 1.0000
38.7500 405.0000 1.0000
38.7600 412.0000 1.0000
38.7700 440.0000 1.0000
38.7800 418.0000 1.0000
38.7900 414.0000 1.0000
38.8000 383.0000 1.0000
38.8100 394.0000 1.0000
38.8200 376.0000 1.0000
38.8300 401.0000 1.0000
38.8400 424.0000 1.0000
38.8500 410.0000 1.0000
38.8600 414.0000 1.0000
38.8700 432.0000 1.0000
38.8800 426.0000 1.0000
38.8900 428.0000 1.0000
38.9000 414.0000 1.0000
38.9100 396.0000 1.0000
38.9200 389.0000 1.0000
38.9300 405.0000 1.0000
38.9400 398.0000 1.0000
38.9500 392.0000 1.0000
38.9600 362.0000 1.0000
38.9700 381.0000 1.0000
38.9800 415.0000 1.0000
38.9900 436.0000 1.0000
39.0000 416.0000 1.0000
39.0100 414.0000 1.0000
39.0200 404.0000 1.0000
39.0300 399.0000 1.0000
39.0400 419.0000 1.0000
39.0500 395.0000 1.0000
39.0600 391.0000 1.0000
39.0700 416.0000 1.0000
39.0800 423.0000 1.0000
39.0900 401.0000 1.0000
39.1000 427.0000 1.0000
39.1100 394.0000 1.0000
39.1200 408.0000 1.0000
39.1300 399.0000 1.0000
39.1400 381.0000 1.0000
39.1500 406.0000 1.0000
39.1600 403.0000 1.0000
39.1700 386.0000 1.0000
39.1800 398.0000 1.0000
39.1900 382.0000 1.0000
39.2000 382.0000 1.0000
39.2100 394.0000 1.0000
39.2200 372.0000 1.0000
39.2300 391.0000 1.0000
39.2400 392.0000 1.0000
39.2500 388.0000 1.0000
39.2600 363.0000 1.0000
39.2700 404.0000 1.0000
39.2800 388.0000 1.0000
39.2900 356.0000 1.0000
39.3000 405.0000 1.0000
39.3100 373.0000 1.0000
39.3200 359.0000 1.0000
39.3300 371.0000 1.0000
39.3400 375.0000 1.0000
39.3500 405.0000 1.0000
39.3600 380.0000 1.0000
39.3700 360.0000 1.0000
39.3800 362.0000 1.0000
39.3900 375.0000 1.0000
39.4000 370.0000 1.0000
39.4100 412.0000 1.0000
39.4200 375.0000 1.0000
39.4300 370.0000 1.0000
39.4400 348.0000 1.0000
39.4500 371.0000 1.0000
39.4600 362.0000 1.0000
39.4700 386.0000 1.0000
39.4800 423.0000 1.0000
39.4900 356.0000 1.0000
39.5000 396.0000 1.0000
39.5100 370.0000 1.0000
39.5200 403.0000 1.0000
39.5300 376.0000 1.0000
39.5400 363.0000 1.0000
39.5500 378.0000 1.0000
39.5600 413.0000 1.0000
39.5700 379.0000 1.0000
39.5800 385.0000 1.0000
39.5900 398.0000 1.0000
39.6000 374.0000 1.0000
39.6100 382.0000 1.0000
39.6200 376.0000 1.0000
39.6300 399.0000 1.0000
39.6400 399.0000 1.0000
39.6500 368.0000 1.0000
39.6600 360.0000 1.0000
39.6700 349.0000 1.0000
39.6800 375.0000 1.0000
39.6900 362.0000 1.0000
39.7000 368.0000 1.0000
39.7100 391.0000 1.0000
39.7200 343.0000 1.0000
39.7300 378.0000 1.0000
39.7400 372.0000 1.0000
39.7500 368.0000 1.0000
39.7600 370.0000 1.0000
39.7700 373.0000 1.0000
39.7800 360.0000 1.0000
39.7900 377.0000 1.0000
39.8000 384.0000 1.0000
39.8100 375.0000 1.0000
39.8200 399.0000 1.0000
39.8300 360.0000 1.0000
39.8400 361.0000 1.0000
39.8500 372.0000 1.0000
39.8600 341.0000 1.0000
39.8700 352.0000 1.0000
39.8800 378.0000 1.0000
39.8900 403.0000 1.0000
39.9000 357.0000 1.0000
39.9100 361.0000 1.0000
39.9200 376.0000 1.0000
39.9300 385.0000 1.0000
39.9400 380.0000 1.0000
39.9500 410.0000 1.0000
39.9600 388.0000 1.0000
39.9700 386.0000 1.0000
39.9800 357.0000 1.0000
39.9900 389.0000 1.0000
40.0000 393.0000 1.0000
40.0100 363.0000 1.0000
40.0200 396.0000 1.0000
40.0300 388.0000 1.0000
40.0400 351.0000 1.0000
40.0500 359.0000 1.0000
40.0600 381.0000 1.0000
40.0700 361.0000 1.0000
40.0800 392.0000 1.0000
40.0900 363.0000 1.0000
40.1000 385.0000 1.0000
40.1100 390.0000 1.0000
40.1200 360.0000 1.0000
40.1300 355.0000 1.0000
40.1400 362.0000 1.0000
40.1500 373.0000 1.0000
40.1600 369.0000 1.0000
40.1700 374.0000 1.0000
40.1800 373.0000 1.0000
40.1900 335.0000 1.0000
40.2000 373.0000 1.0000
40.2100 362.0000 1.0000
40.2200 394.0000 1.0000
40.2300 367.0000 1.0000
40.2400 349.0000 1.0000
40.2500 360.0000 1.0000
40.2600 360.0000 1.0000
40.2700 364.0000 1.0000
40.2800 373.0000 1.0000
40.2900 382.0000 1.0000
40.3000 378.0000 1.0000
40.3100 361.0000 1.0000
40.3200 391.0000 1.0000
40.3300 351.0000 1.0000
40.3400 378.0000 1.0000
40.3500 371.0000 1.0000
40.3600 377.0000 1.0000
40.3700 385.0000 1.0000
40.3800 337.0000 1.0000
40.3900 393.0000 1.0000
40.4000 348.0000 1.0000
40.4100 368.0000 1.0000
40.4200 375.0000 1.0000
40.4300 370.0000 1.0000
40.4400 360.0000 1.0000
40.4500 381.0000 1.0000
40.4600 390.0000 1.0000
40.4700 371.0000 1.0000
40.4800 365.0000 1.0000
40.4900 386.0000 1.0000
40.5000 393.0000 1.0000
40.5100 374.0000 1.0000
40.5200 378.0000 1.0000
40.5300 347.0000 1.0000
40.5400 381.0000 1.0000
40.5500 373.0000 1.0000
40.5600 355.0000 1.0000
40.5700 384.0000 1.0000
40.5800 375.0000 1.0000
40.5900 358.0000 1.0000
40.6000 384.0000 1.0000
40.6100 371.0000 1.0000
40.6200 382.0000 1.0000
40.6300 351.0000 1.0000
40.6400 346.0000 1.0000
40.6500 380.0000 1.0000
40.6600 392.0000 1.0000
40.6700 360.0000 1.0000
40.6800 388.0000 1.0000
40.6900 391.0000 1.0000
40.7000 366.0000 1.0000
40.7100 373.0000 1.0000
40.7200 405.0000 1.0000
40.7300 390.0000 1.0000
40.7400 403.0000 1.0000
40.7500 393.0000 1.0000
40.7600 382.0000 1.0000
40.7700 382.0000 1.0000
40.7800 379.0000 1.0000
40.7900 407.0000 1.0000
40.8000 412.0000 1.0000
40.8100 408.0000 1.0000
40.8200 376.0000 1.0000
40.8300 410.0000 1.0000
40.8400 375.0000 1.0000
40.8500 382.0000 1.0000
40.8600 398.0000 1.0000
40.8700 365.0000 1.0000
40.8800 374.0000 1.0000
40.8900 381.0000 1.0000
40.9000 374.0000 1.0000
40.9100 389.0000 1.0000
40.9200 371.0000 1.0000
40.9300 374.0000 1.0000
40.9400 362.0000 1.0000
40.9500 391.0000 1.0000
40.9600 376.0000 1.0000
40.9700 354.0000 1.0000
40.9800 377.0000 1.0000
40.9900 350.0000 1.0000
41.0000 351.0000 1.0000
41.0100 351.0000 1.0000
41.0200 346.0000 1.0000
41.0300 365.0000 1.0000
41.0400 374.0000 1.0000
41.0500 365.0000 1.0000
41.0600 376.0000 1.0000
41.0700 367.0000 1.0000
41.0800 351.0000 1.0000
41.0900 358.0000 1.0000
41.1000 353.0000 1.0000
41.1100 361.0000 1.0000
41.1200 391.0000 1.0000
41.1300 404.0000 1.0000
41.1400 373.0000 1.0000
41.1500 364.0000 1.0000
41.1600 368.0000 1.0000
41.1700 374.0000 1.0000
41.1800 369.0000 1.0000
41.1900 384.0000 1.0000
41.2000 391.0000 1.0000
41.2100 357.0000 1.0000
41.2200 361.0000 1.0000
41.2300 348.0000 1.0000
41.2400 383.0000 1.0000
41.2500 375.0000 1.0000
41.2600 359.0000 1.0000
41.2700 423.0000 1.0000
41.2800 389.0000 1.0000
41.2900 355.0000 1.0000
41.3000 388.0000 1.0000
41.3100 338.0000 1.0000
41.3200 371.0000 1.0000
41.3300 343.0000 1.0000
41.3400 357.0000 1.0000
41.3500 355.0000 1.0000
41.3600 395.0000 1.0000
41.3700 361.0000 1.0000
41.3800 351.0000 1.0000
41.3900 351.0000 1.0000
41.4000 394.0000 1.0000
41.4100 400.0000 1.0000
41.4200 381.0000 1.0000
41.4300 367.0000 1.0000
41.4400 353.0000 1.0000
41.4500 366.0000 1.0000
41.4600 370.0000 1.0000
41.4700 335.0000 1.0000
41.4800 333.0000 1.0000
41.4900 382.0000 1.0000
41.5000 382.0000 1.0000
41.5100 342.0000 1.0000
41.5200 322.0000 1.0000
41.5300 368.0000 1.0000
41.5400 368.0000 1.0000
41.5500 352.0000 1.0000
41.5600 388.0000 1.0000
41.5700 362.0000 1.0000
41.5800 371.0000 1.0000
41.5900 347.0000 1.0000
41.6000 375.0000 1.0000
41.6100 352.0000 1.0000
41.6200 336.0000 1.0000
41.6300 359.0000 1.0000
41.6400 377.0000 1.0000
41.6500 363.0000 1.0000
41.6600 373.0000 1.0000
41.6700 359.0000 1.0000
41.6800 374.0000 1.0000
41.6900 367.0000 1.0000
41.7000 350.0000 1.0000
41.7100 379.0000 1.0000
41.7200 370.0000 1.0000
41.7300 371.0000 1.0000
41.7400 357.0000 1.0000
41.7500 364.0000 1.0000
41.7600 372.0000 1.0000
41.7700 366.0000 1.0000
41.7800 367.0000 1.0000
41.7900 370.0000 1.0000
41.8000 345.0000 1.0000
41.8100 371.0000 1.0000
41.8200 361.0000 1.0000
41.8300 394.0000 1.0000
41.8400 363.0000 1.0000
41.8500 368.0000 1.0000
41.8600 349.0000 1.0000
41.8700 360.0000 1.0000
41.8800 370.0000 1.0000
41.8900 382.0000 1.0000
41.9000 370.0000 1.0000
41.9100 366.0000 1.0000
41.9200 368.0000 1.0000
41.9300 351.0000 1.0000
41.9400 369.0000 1.0000
41.9500 383.0000 1.0000
41.9600 339.0000 1.0000
41.9700 357.0000 1.0000
41.9800 380.0000 1.0000
41.9900 353.0000 1.0000
42.0000 374.0000 1.0000
42.0100 355.0000 1.0000
42.0200 374.0000 1.0000
42.0300 379.0000 1.0000
42.0400 358.0000 1.0000
42.0500 320.0000 1.0000
42.0600 375.0000 1.0000
42.0700 334.0000 1.0000
42.0800 349.0000 1.0000
42.0900 379.0000 1.0000
42.1000 360.0000 1.0000
42.1100 353.0000 1.0000
42.1200 332.0000 1.0000
42.1300 347.0000 1.0000
42.1400 345.0000 1.0000
42.1500 343.0000 1.0000
42.1600 367.0000 1.0000
42.1700 381.0000 1.0000
42.1800 389.0000 1.0000
42.1900 357.0000 1.0000
42.2000 365.0000 1.0000
42.2100 365.0000 1.0000
42.2200 363.0000 1.0000
42.2300 347.0000 1.0000
42.2400 353.0000 1.0000
42.2500 363.0000 1.0000
42.2600 363.0000 1.0000
42.2700 360.0000 1.0000
42.2800 381.0000 1.0000
42.2900 352.0000 1.0000
42.3000 369.0000 1.0000
42.3100 370.0000 1.0000
42.3200 366.0000 1.0000
42.3300 361.0000 1.0000
42.3400 376.0000 1.0000
42.3500 393.0000 1.0000
42.3600 381.0000 1.0000
42.3700 391.0000 1.0000
42.3800 398.0000 1.0000
42.3900 377.0000 1.0000
42.4000 388.0000 1.0000
42.4100 429.0000 1.0000
42.4200 366.0000 1.0000
42.4300 361.0000 1.0000
42.4400 395.0000 1.0000
42.4500 354.0000 1.0000
42.4600 394.0000 1.0000
42.4700 356.0000 1.0000
42.4800 378.0000 1.0000
42.4900 411.0000 1.0000
42.5000 361.0000 1.0000
42.5100 380.0000 1.0000
42.5200 366.0000 1.0000
42.5300 406.0000 1.0000
42.5400 337.0000 1.0000
42.5500 366.0000 1.0000
42.5600 375.0000 1.0000
42.5700 370.0000 1.0000
42.5800 357.0000 1.0000
42.5900 364.0000 1.0000
42.6000 377.0000 1.0000
42.6100 342.0000 1.0000
42.6200 351.0000 1.0000
42.6300 345.0000 1.0000
42.6400 345.0000 1.0000
42.6500 320.0000 1.0000
42.6600 364.0000 1.0000
42.6700 379.0000 1.0000
42.6800 372.0000 1.0000
42.6900 354.0000 1.0000
42.7000 337.0000 1.0000
42.7100 347.0000 1.0000
42.7200 323.0000 1.0000
42.7300 378.0000 1.0000
42.7400 362.0000 1.0000
42.7500 344.0000 1.0000
42.7600 345.0000 1.0000
42.7700 374.0000 1.0000
42.7800 341.0000 1.0000
42.7900 339.0000 1.0000
42.8000 349.0000 1.0000
42.8100 353.0000 1.0000
42.8200 370.0000 1.0000
42.8300 348.0000 1.0000
42.8400 334.0000 1.0000
42.8500 334.0000 1.0000
42.8600 334.0000 1.0000
42.8700 349.0000 1.0000
42.8800 353.0000 1.0000
42.8900 347.0000 1.0000
42.9000 346.0000 1.0000
42.9100 307.0000 1.0000
42.9200 347.0000 1.0000
42.9300 362.0000 1.0000
42.9400 348.0000 1.0000
42.9500 348.0000 1.0000
42.9600 371.0000 1.0000
42.9700 352.0000 1.0000
42.9800 337.0000 1.0000
42.9900 374.0000 1.0000
43.0000 371.0000 1.0000
43.0100 354.0000 1.0000
43.0200 357.0000 1.0000
43.0300 384.0000 1.0000
43.0400 352.0000 1.0000
43.0500 336.0000 1.0000
43.0600 336.0000 1.0000
43.0700 337.0000 1.0000
43.0800 335.0000 1.0000
43.0900 330.0000 1.0000
43.1000 348.0000 1.0000
43.1100 364.0000 1.0000
43.1200 355.0000 1.0000
43.1300 354.0000 1.0000
43.1400 359.0000 1.0000
43.1500 344.0000 1.0000
43.1600 364.0000 1.0000
43.1700 327.0000 1.0000
43.1800 348.0000 1.0000
43.1900 349.0000 1.0000
43.2000 359.0000 1.0000
43.2100 333.0000 1.0000
43.2200 344.0000 1.0000
43.2300 320.0000 1.0000
43.2400 355.0000 1.0000
43.2500 329.0000 1.0000
43.2600 357.0000 1.0000
43.2700 360.0000 1.0000
43.2800 383.0000 1.0000
43.2900 373.0000 1.0000
43.3000 356.0000 1.0000
43.3100 351.0000 1.0000
43.3200 362.0000 1.0000
43.3300 349.0000 1.0000
43.3400 331.0000 1.0000
43.3500 328.0000 1.0000
43.3600 362.0000 1.0000
43.3700 359.0000 1.0000
43.3800 355.0000 1.0000
43.3900 324.0000 1.0000
43.4000 336.0000 1.0000
43.4100 361.0000 1.0000
43.4200 386.0000 1.0000
43.4300 378.0000 1.0000
43.4400 375.0000 1.0000
43.4500 381.0000 1.0000
43.4600 347.0000 1.0000
43.4700 360.0000 1.0000
43.4800 341.0000 1.0000
43.4900 343.0000 1.0000
43.5000 331.0000 1.0000
43.5100 355.0000 1.0000
43.5200 366.0000 1.0000
43.5300 373.0000 1.0000
43.5400 360.0000 1.0000
43.5500 354.0000 1.0000
43.5600 371.0000 1.0000
43.5700 362.0000 1.0000
43.5800 361.0000 1.0000
43.5900 339.0000 1.0000
43.6000 319.0000 1.0000
43.6100 363.0000 1.0000
43.6200 376.0000 1.0000
43.6300 361.0000 1.0000
43.6400 369.0000 1.0000
43.6500 344.0000 1.0000
43.6600 361.0000 1.0000
43.6700 359.0000 1.0000
43.6800 339.0000 1.0000
43.6900 343.0000 1.0000
43.7000 361.0000 1.0000
43.7100 367.0000 1.0000
43.7200 389.0000 1.0000
43.7300 352.0000 1.0000
43.7400 355.0000 1.0000
43.7500 357.0000 1.0000
43.7600 347.0000 1.0000
43.7700 358.0000 1.0000
43.7800 342.0000 1.0000
43.7900 346.0000 1.0000
43.8000 346.0000 1.0000
43.8100 338.0000 1.0000
43.8200 346.0000 1.0000
43.8300 331.0000 1.0000
43.8400 337.0000 1.0000
43.8500 321.0000 1.0000
43.8600 344.0000 1.0000
43.8700 359.0000 1.0000
43.8800 354.0000 1.0000
43.8900 363.0000 1.0000
43.9000 335.0000 1.0000
43.9100 313.0000 1.0000
43.9200 312.0000 1.0000
43.9300 315.0000 1.0000
43.9400 331.0000 1.0000
43.9500 339.0000 1.0000
43.9600 337.0000 1.0000
43.9700 332.0000 1.0000
43.9800 348.0000 1.0000
43.9900 340.0000 1.0000
44.0000 310.0000 1.0000
44.0100 306.0000 1.0000
44.0200 343.0000 1.0000
44.0300 331.0000 1.0000
44.0400 316.0000 1.0000
44.0500 329.0000 1.0000
44.0600 328.0000 1.0000
44.0700 353.0000 1.0000
44.0800 367.0000 1.0000
44.0900 337.0000 1.0000
44.1000 327.0000 1.0000
44.1100 350.0000 1.0000
44.1200 342.0000 1.0000
44.1300 337.0000 1.0000
44.1400 335.0000 1.0000
44.1500 343.0000 1.0000
44.1600 338.0000 1.0000
44.1700 319.0000 1.0000
44.1800 360.0000 1.0000
44.1900 331.0000 1.0000
44.2000 318.0000 1.0000
44.2100 337.0000 1.0000
44.2200 340.0000 1.0000
44.2300 318.0000 1.0000
44.2400 333.0000 1.0000
44.2500 337.0000 1.0000
44.2600 335.0000 1.0000
44.2700 324.0000 1.0000
44.2800 326.0000 1.0000
44.2900 363.0000 1.0000
44.3000 329.0000 1.0000
44.3100 353.0000 1.0000
44.3200 328.0000 1.0000
44.3300 370.0000 1.0000
44.3400 362.0000 1.0000
44.3500 316.0000 1.0000
44.3600 340.0000 1.0000
44.3700 343.0000 1.0000
44.3800 311.0000 1.0000
44.3900 323.0000 1.0000
44.4000 320.0000 1.0000
44.4100 331.0000 1.0000
44.4200 308.0000 1.0000
44.4300 387.0000 1.0000
44.4400 339.0000 1.0000
44.4500 339.0000 1.0000
44.4600 324.0000 1.0000
44.4700 325.0000 1.0000
44.4800 323.0000 1.0000
44.4900 313.0000 1.0000
44.5000 334.0000 1.0000
44.5100 344.0000 1.0000
44.5200 346.0000 1.0000
44.5300 348.0000 1.0000
44.5400 348.0000 1.0000
44.5500 342.0000 1.0000
44.5600 338.0000 1.0000
44.5700 331.0000 1.0000
44.5800 329.0000 1.0000
44.5900 339.0000 1.0000
44.6000 350.0000 1.0000
44.6100 303.0000 1.0000
44.6200 376.0000 1.0000
44.6300 326.0000 1.0000
44.6400 315.0000 1.0000
44.6500 334.0000 1.0000
44.6600 341.0000 1.0000
44.6700 331.0000 1.0000
44.6800 332.0000 1.0000
44.6900 348.0000 1.0000
44.7000 334.0000 1.0000
44.7100 348.0000 1.0000
44.7200 326.0000 1.0000
44.7300 348.0000 1.0000
44.7400 313.0000 1.0000
44.7500 305.0000 1.0000
44.7600 322.0000 1.0000
44.7700 307.0000 1.0000
44.7800 334.0000 1.0000
44.7900 324.0000 1.0000
44.8000 321.0000 1.0000
44.8100 323.0000 1.0000
44.8200 337.0000 1.0000
44.8300 326.0000 1.0000
44.8400 337.0000 1.0000
44.8500 360.0000 1.0000
44.8600 345.0000 1.0000
44.8700 325.0000 1.0000
44.8800 315.0000 1.0000
44.8900 331.0000 1.0000
44.9000 360.0000 1.0000
44.9100 311.0000 1.0000
44.9200 351.0000 1.0000
44.9300 308.0000 1.0000
44.9400 313.0000 1.0000
44.9500 314.0000 1.0000
44.9600 314.0000 1.0000
44.9700 365.0000 1.0000
44.9800 345.0000 1.0000
44.9900 323.0000 1.0000
45.0000 338.0000 1.0000
45.0100 332.0000 1.0000
45.0200 317.0000 1.0000
45.0300 353.0000 1.0000
45.0400 336.0000 1.0000
45.0500 318.0000 1.0000
45.0600 340.0000 1.0000
45.0700 341.0000 1.0000
45.0800 337.0000 1.0000
45.0900 343.0000 1.0000
45.1000 338.0000 1.0000
45.1100 312.0000 1.0000
45.1200 321.0000 1.0000
45.1300 296.0000 1.0000
45.1400 338.0000 1.0000
45.1500 363.0000 1.0000
45.1600 308.0000 1.0000
45.1700 336.0000 1.0000
45.1800 378.0000 1.0000
45.1900 330.0000 1.0000
45.2000 330.0000 1.0000
45.2100 364.0000 1.0000
45.2200 341.0000 1.0000
45.2300 341.0000 1.0000
45.2400 343.0000 1.0000
45.2500 350.0000 1.0000
45.2600 313.0000 1.0000
45.2700 305.0000 1.0000
45.2800 344.0000 1.0000
45.2900 341.0000 1.0000
45.3000 330.0000 1.0000
45.3100 351.0000 1.0000
45.3200 338.0000 1.0000
45.3300 327.0000 1.0000
45.3400 347.0000 1.0000
45.3500 341.0000 1.0000
45.3600 346.0000 1.0000
45.3700 333.0000 1.0000
45.3800 297.0000 1.0000
45.3900 312.0000 1.0000
45.4000 326.0000 1.0000
45.4100 330.0000 1.0000
45.4200 323.0000 1.0000
45.4300 350.0000 1.0000
45.4400 329.0000 1.0000
45.4500 319.0000 1.0000
45.4600 339.0000 1.0000
45.4700 320.0000 1.0000
45.4800 334.0000 1.0000
45.4900 330.0000 1.0000
45.5000 343.0000 1.0000
45.5100 314.0000 1.0000
45.5200 333.0000 1.0000
45.5300 324.0000 1.0000
45.5400 337.0000 1.0000
45.5500 346.0000 1.0000
45.5600 369.0000 1.0000
45.5700 316.0000 1.0000
45.5800 326.0000 1.0000
45.5900 320.0000 1.0000
45.6000 352.0000 1.0000
45.6100 336.0000 1.0000
45.6200 321.0000 1.0000
45.6300 321.0000 1.0000
45.6400 319.0000 1.0000
45.6500 314.0000 1.0000
45.6600 332.0000 1.0000
45.6700 312.0000 1.0000
45.6800 327.0000 1.0000
45.6900 317.0000 1.0000
45.7000 313.0000 1.0000
45.7100 320.0000 1.0000
45.7200 323.0000 1.0000
45.7300 281.0000 1.0000
45.7400 306.0000 1.0000
45.7500 289.0000 1.0000
45.7600 320.0000 1.0000
45.7700 333.0000 1.0000
45.7800 323.0000 1.0000
45.7900 327.0000 1.0000
45.8000 309.0000 1.0000
45.8100 319.0000 1.0000
45.8200 319.0000 1.0000
45.8300 338.0000 1.0000
45.8400 330.0000 1.0000
45.8500 338.0000 1.0000
45.8600 348.0000 1.0000
45.8700 350.0000 1.0000
45.8800 303.0000 1.0000
45.8900 328.0000 1.0000
45.9000 305.0000 1.0000
45.9100 298.0000 1.0000
45.9200 309.0000 1.0000
45.9300 309.0000 1.0000
45.9400 320.0000 1.0000
45.9500 313.0000 1.0000
45.9600 314.0000 1.0000
45.9700 319.0000 1.0000
45.9800 335.0000 1.0000
45.9900 330.0000 1.0000
46.0000 340.0000 1.0000
46.0100 331.0000 1.0000
46.0200 317.0000 1.0000
46.0300 344.0000 1.0000
46.0400 327.0000 1.0000
46.0500 311.0000 1.0000
46.0600 285.0000 1.0000
46.0700 296.0000 1.0000
46.0800 306.0000 1.0000
46.0900 319.0000 1.0000
46.1000 357.0000 1.0000
46.1100 304.0000 1.0000
46.1200 316.0000 1.0000
46.1300 336.0000 1.0000
46.1400 344.0000 1.0000
46.1500 351.0000 1.0000
46.1600 328.0000 1.0000
46.1700 325.0000 1.0000
46.1800 318.0000 1.0000
46.1900 329.0000 1.0000
46.2000 327.0000 1.0000
46.2100 334.0000 1.0000
46.2200 284.0000 1.0000
46.2300 316.0000 1.0000
46.2400 346.0000 1.0000
46.2500 339.0000 1.0000
46.2600 323.0000 1.0000
46.2700 331.0000 1.0000
46.2800 301.0000 1.0000
46.2900 318.0000 1.0000
46.3000 293.0000 1.0000
46.3100 305.0000 1.0000
46.3200 327.0000 1.0000
46.3300 336.0000 1.0000
46.3400 310.0000 1.0000
46.3500 310.0000 1.0000
46.3600 333.0000 1.0000
46.3700 329.0000 1.0000
46.3800 312.0000 1.0000
46.3900 324.0000 1.0000
46.4000 321.0000 1.0000
46.4100 321.0000 1.0000
46.4200 323.0000 1.0000
46.4300 332.0000 1.0000
46.4400 304.0000 1.0000
46.4500 306.0000 1.0000
46.4600 303.0000 1.0000
46.4700 333.0000 1.0000
46.4800 326.0000 1.0000
46.4900 329.0000 1.0000
46.5000 349.0000 1.0000
46.5100 329.0000 1.0000
46.5200 306.0000 1.0000
46.5300 330.0000 1.0000
46.5400 320.0000 1.0000
46.5500 306.0000 1.0000
46.5600 309.0000 1.0000
46.5700 322.0000 1.0000
46.5800 327.0000 1.0000
46.5900 315.0000 1.0000
46.6000 325.0000 1.0000
46.6100 318.0000 1.0000
46.6200 330.0000 1.0000
46.6300 322.0000 1.0000
46.6400 305.0000 1.0000
46.6500 327.0000 1.0000
46.6600 316.0000 1.0000
46.6700 336.0000 1.0000
46.6800 293.0000 1.0000
46.6900 304.0000 1.0000
46.7000 311.0000 1.0000
46.7100 314.0000 1.0000
46.7200 352.0000 1.0000
46.7300 332.0000 1.0000
46.7400 318.0000 1.0000
46.7500 295.0000 1.0000
46.7600 287.0000 1.0000
46.7700 289.0000 1.0000
46.7800 311.0000 1.0000
46.7900 308.0000 1.0000
46.8000 315.0000 1.0000
46.8100 310.0000 1.0000
46.8200 314.0000 1.0000
46.8300 318.0000 1.0000
46.8400 322.0000 1.0000
46.8500 321.0000 1.0000
46.8600 289.0000 1.0000
46.8700 324.0000 1.0000
46.8800 327.0000 1.0000
46.8900 294.0000 1.0000
46.9000 293.0000 1.0000
46.9100 304.0000 1.0000
46.9200 310.0000 1.0000
46.9300 311.0000 1.0000
46.9400 322.0000 1.0000
46.9500 307.0000 1.0000
46.9600 294.0000 1.0000
46.9700 289.0000 1.0000
46.9800 327.0000 1.0000
46.9900 330.0000 1.0000
47.0000 337.0000 1.0000
47.0100 312.0000 1.0000
47.0200 327.0000 1.0000
47.0300 306.0000 1.0000
47.0400 342.0000 1.0000
47.0500 326.0000 1.0000
47.0600 324.0000 1.0000
47.0700 306.0000 1.0000
47.0800 316.0000 1.0000
47.0900 326.0000 1.0000
47.1000 303.0000 1.0000
47.1100 305.0000 1.0000
47.1200 295.0000 1.0000
47.1300 331.0000 1.0000
47.1400 300.0000 1.0000
47.1500 322.0000 1.0000
47.1600 293.0000 1.0000
47.1700 323.0000 1.0000
47.1800 287.0000 1.0000
47.1900 318.0000 1.0000
47.2000 339.0000 1.0000
47.2100 306.0000 1.0000
47.2200 314.0000 1.0000
47.2300 328.0000 1.0000
47.2400 324.0000 1.0000
47.2500 299.0000 1.0000
47.2600 311.0000 1.0000
47.2700 293.0000 1.0000
47.2800 301.0000 1.0000
47.2900 300.0000 1.0000
47.3000 309.0000 1.0000
47.3100 305.0000 1.0000
47.3200 318.0000 1.0000
47.3300 323.0000 1.0000
47.3400 312.0000 1.0000
47.3500 311.0000 1.0000
47.3600 314.0000 1.0000
47.3700 337.0000 1.0000
47.3800 302.0000 1.0000
47.3900 312.0000 1.0000
47.4000 290.0000 1.0000
47.4100 325.0000 1.0000
47.4200 322.0000 1.0000
47.4300 285.0000 1.0000
47.4400 274.0000 1.0000
47.4500 312.0000 1.0000
47.4600 315.0000 1.0000
47.4700 318.0000 1.0000
47.4800 317.0000 1.0000
47.4900 317.0000 1.0000
47.5000 296.0000 1.0000
47.5100 318.0000 1.0000
47.5200 309.0000 1.0000
47.5300 325.0000 1.0000
47.5400 326.0000 1.0000
47.5500 284.0000 1.0000
47.5600 312.0000 1.0000
47.5700 344.0000 1.0000
47.5800 324.0000 1.0000
47.5900 328.0000 1.0000
47.6000 283.0000 1.0000
47.6100 311.0000 1.0000
47.6200 307.0000 1.0000
47.6300 290.0000 1.0000
47.6400 301.0000 1.0000
47.6500 314.0000 1.0000
47.6600 316.0000 1.0000
47.6700 327.0000 1.0000
47.6800 314.0000 1.0000
47.6900 267.0000 1.0000
47.7000 319.0000 1.0000
47.7100 300.0000 1.0000
47.7200 299.0000 1.0000
47.7300 312.0000 1.0000
47.7400 302.0000 1.0000
47.7500 309.0000 1.0000
47.7600 321.0000 1.0000
47.7700 299.0000 1.0000
47.7800 284.0000 1.0000
47.7900 309.0000 1.0000
47.8000 303.0000 1.0000
47.8100 301.0000 1.0000
47.8200 296.0000 1.0000
47.8300 331.0000 1.0000
47.8400 326.0000 1.0000
47.8500 298.0000 1.0000
47.8600 275.0000 1.0000
47.8700 311.0000 1.0000
47.8800 355.0000 1.0000
47.8900 311.0000 1.0000
47.9000 284.0000 1.0000
47.9100 307.0000 1.0000
47.9200 294.0000 1.0000
47.9300 298.0000 1.0000
47.9400 297.0000 1.0000
47.9500 330.0000 1.0000
47.9600 292.0000 1.0000
47.9700 309.0000 1.0000
47.9800 290.0000 1.0000
47.9900 322.0000 1.0000
48.0000 279.0000 1.0000
48.0100 285.0000 1.0000
48.0200 314.0000 1.0000
48.0300 310.0000 1.0000
48.0400 287.0000 1.0000
48.0500 302.0000 1.0000
48.0600 314.0000 1.0000
48.0700 297.0000 1.0000
48.0800 304.0000 1.0000
48.0900 316.0000 1.0000
48.1000 332.0000 1.0000
48.1100 295.0000 1.0000
48.1200 293.0000 1.0000
48.1300 312.0000 1.0000
48.1400 312.0000 1.0000
48.1500 275.0000 1.0000
48.1600 294.0000 1.0000
48.1700 300.0000 1.0000
48.1800 322.0000 1.0000
48.1900 280.0000 1.0000
48.2000 267.0000 1.0000
48.2100 285.0000 1.0000
48.2200 291.0000 1.0000
48.2300 305.0000 1.0000
48.2400 319.0000 1.0000
48.2500 309.0000 1.0000
48.2600 311.0000 1.0000
48.2700 294.0000 1.0000
48.2800 293.0000 1.0000
48.2900 279.0000 1.0000
48.3000 298.0000 1.0000
48.3100 292.0000 1.0000
48.3200 295.0000 1.0000
48.3300 296.0000 1.0000
48.3400 329.0000 1.0000
48.3500 299.0000 1.0000
48.3600 310.0000 1.0000
48.3700 307.0000 1.0000
48.3800 293.0000 1.0000
48.3900 319.0000 1.0000
48.4000 274.0000 1.0000
48.4100 307.0000 1.0000
48.4200 315.0000 1.0000
48.4300 312.0000 1.0000
48.4400 299.0000 1.0000
48.4500 296.0000 1.0000
48.4600 291.0000 1.0000
48.4700 306.0000 1.0000
48.4800 299.0000 1.0000
48.4900 307.0000 1.0000
48.5000 317.0000 1.0000
48.5100 299.0000 1.0000
48.5200 290.0000 1.0000
48.5300 299.0000 1.0000
48.5400 287.0000 1.0000
48.5500 290.0000 1.0000
48.5600 283.0000 1.0000
48.5700 312.0000 1.0000
48.5800 282.0000 1.0000
48.5900 311.0000 1.0000
48.6000 306.0000 1.0000
48.6100 294.0000 1.0000
48.6200 311.0000 1.0000
48.6300 317.0000 1.0000
48.6400 299.0000 1.0000
48.6500 304.0000 1.0000
48.6600 295.0000 1.0000
48.6700 293.0000 1.0000
48.6800 295.0000 1.0000
48.6900 286.0000 1.0000
48.7000 287.0000 1.0000
48.7100 291.0000 1.0000
48.7200 305.0000 1.0000
48.7300 294.0000 1.0000
48.7400 310.0000 1.0000
48.7500 298.0000 1.0000
48.7600 334.0000 1.0000
48.7700 313.0000 1.0000
48.7800 309.0000 1.0000
48.7900 293.0000 1.0000
48.8000 291.0000 1.0000
48.8100 310.0000 1.0000
48.8200 307.0000 1.0000
48.8300 298.0000 1.0000
48.8400 312.0000 1.0000
48.8500 296.0000 1.0000
48.8600 292.0000 1.0000
48.8700 301.0000 1.0000
48.8800 286.0000 1.0000
48.8900 319.0000 1.0000
48.9000 309.0000 1.0000
48.9100 305.0000 1.0000
48.9200 297.0000 1.0000
48.9300 305.0000 1.0000
48.9400 291.0000 1.0000
48.9500 271.0000 1.0000
48.9600 310.0000 1.0000
48.9700 296.0000 1.0000
48.9800 305.0000 1.0000
48.9900 327.0000 1.0000
49.0000 301.0000 1.0000
49.0100 299.0000 1.0000
49.0200 294.0000 1.0000
49.0300 298.0000 1.0000
49.0400 288.0000 1.0000
49.0500 291.0000 1.0000
49.0600 279.0000 1.0000
49.0700 285.0000 1.0000
49.0800 300.0000 1.0000
49.0900 296.0000 1.0000
49.1000 320.0000 1.0000
49.1100 309.0000 1.0000
49.1200 307.0000 1.0000
49.1300 288.0000 1.0000
49.1400 299.0000 1.0000
49.1500 288.0000 1.0000
49.1600 320.0000 1.0000
49.1700 315.0000 1.0000
49.1800 332.0000 1.0000
49.1900 288.0000 1.0000
49.2000 310.0000 1.0000
49.2100 299.0000 1.0000
49.2200 334.0000 1.0000
49.2300 313.0000 1.0000
49.2400 324.0000 1.0000
49.2500 327.0000 1.0000
49.2600 339.0000 1.0000
49.2700 319.0000 1.0000
49.2800 303.0000 1.0000
49.2900 306.0000 1.0000
49.3000 320.0000 1.0000
49.3100 331.0000 1.0000
49.3200 289.0000 1.0000
49.3300 309.0000 1.0000
49.3400 323.0000 1.0000
49.3500 350.0000 1.0000
49.3600 331.0000 1.0000
49.3700 298.0000 1.0000
49.3800 303.0000 1.0000
49.3900 303.0000 1.0000
49.4000 325.0000 1.0000
49.4100 299.0000 1.0000
49.4200 358.0000 1.0000
49.4300 330.0000 1.0000
49.4400 348.0000 1.0000
49.4500 311.0000 1.0000
49.4600 329.0000 1.0000
49.4700 326.0000 1.0000
49.4800 323.0000 1.0000
49.4900 314.0000 1.0000
49.5000 329.0000 1.0000
49.5100 309.0000 1.0000
49.5200 336.0000 1.0000
49.5300 332.0000 1.0000
49.5400 305.0000 1.0000
49.5500 328.0000 1.0000
49.5600 291.0000 1.0000
49.5700 334.0000 1.0000
49.5800 322.0000 1.0000
49.5900 320.0000 1.0000
49.6000 323.0000 1.0000
49.6100 297.0000 1.0000
49.6200 318.0000 1.0000
49.6300 318.0000 1.0000
49.6400 314.0000 1.0000
49.6500 312.0000 1.0000
49.6600 316.0000 1.0000
49.6700 331.0000 1.0000
49.6800 314.0000 1.0000
49.6900 304.0000 1.0000
49.7000 297.0000 1.0000
49.7100 310.0000 1.0000
49.7200 324.0000 1.0000
49.7300 312.0000 1.0000
49.7400 307.0000 1.0000
49.7500 294.0000 1.0000
49.7600 304.0000 1.0000
49.7700 285.0000 1.0000
49.7800 296.0000 1.0000
49.7900 278.0000 1.0000
49.8000 318.0000 1.0000
49.8100 324.0000 1.0000
49.8200 290.0000 1.0000
49.8300 314.0000 1.0000
49.8400 323.0000 1.0000
49.8500 304.0000 1.0000
49.8600 308.0000 1.0000
49.8700 296.0000 1.0000
49.8800 333.0000 1.0000
49.8900 311.0000 1.0000
49.9000 308.0000 1.0000
49.9100 320.0000 1.0000
49.9200 297.0000 1.0000
49.9300 290.0000 1.0000
49.9400 311.0000 1.0000
49.9500 291.0000 1.0000
49.9600 316.0000 1.0000
49.9700 289.0000 1.0000
49.9800 304.0000 1.0000
49.9900 294.0000 1.0000
50.0000 299.0000 1.0000
50.0100 318.0000 1.0000
50.0200 333.0000 1.0000
50.0300 310.0000 1.0000
50.0400 286.0000 1.0000
50.0500 335.0000 1.0000
50.0600 300.0000 1.0000
50.0700 289.0000 1.0000
50.0800 293.0000 1.0000
50.0900 310.0000 1.0000
50.1000 301.0000 1.0000
50.1100 317.0000 1.0000
50.1200 303.0000 1.0000
50.1300 314.0000 1.0000
50.1400 329.0000 1.0000
50.1500 320.0000 1.0000
50.1600 298.0000 1.0000
50.1700 306.0000 1.0000
50.1800 323.0000 1.0000
50.1900 314.0000 1.0000
50.2000 283.0000 1.0000
50.2100 289.0000 1.0000
50.2200 319.0000 1.0000
50.2300 311.0000 1.0000
50.2400 294.0000 1.0000
50.2500 293.0000 1.0000
50.2600 340.0000 1.0000
50.2700 323.0000 1.0000
50.2800 341.0000 1.0000
50.2900 314.0000 1.0000
50.3000 298.0000 1.0000
50.3100 301.0000 1.0000
50.3200 319.0000 1.0000
50.3300 281.0000 1.0000
50.3400 297.0000 1.0000
50.3500 300.0000 1.0000
50.3600 271.0000 1.0000
50.3700 280.0000 1.0000
50.3800 278.0000 1.0000
50.3900 304.0000 1.0000
50.4000 324.0000 1.0000
50.4100 310.0000 1.0000
50.4200 307.0000 1.0000
50.4300 286.0000 1.0000
50.4400 301.0000 1.0000
50.4500 296.0000 1.0000
50.4600 273.0000 1.0000
50.4700 303.0000 1.0000
50.4800 321.0000 1.0000
50.4900 286.0000 1.0000
50.5000 313.0000 1.0000
50.5100 315.0000 1.0000
50.5200 313.0000 1.0000
50.5300 322.0000 1.0000
50.5400 299.0000 1.0000
50.5500 301.0000 1.0000
50.5600 289.0000 1.0000
50.5700 299.0000 1.0000
50.5800 312.0000 1.0000
50.5900 315.0000 1.0000
50.6000 309.0000 1.0000
50.6100 297.0000 1.0000
50.6200 298.0000 1.0000
50.6300 307.0000 1.0000
50.6400 323.0000 1.0000
50.6500 331.0000 1.0000
50.6600 293.0000 1.0000
50.6700 327.0000 1.0000
50.6800 308.0000 1.0000
50.6900 295.0000 1.0000
50.7000 301.0000 1.0000
50.7100 315.0000 1.0000
50.7200 318.0000 1.0000
50.7300 311.0000 1.0000
50.7400 304.0000 1.0000
50.7500 338.0000 1.0000
50.7600 311.0000 1.0000
50.7700 298.0000 1.0000
50.7800 299.0000 1.0000
50.7900 320.0000 1.0000
50.8000 322.0000 1.0000
50.8100 302.0000 1.0000
50.8200 336.0000 1.0000
50.8300 303.0000 1.0000
50.8400 326.0000 1.0000
50.8500 301.0000 1.0000
50.8600 305.0000 1.0000
50.8700 298.0000 1.0000
50.8800 329.0000 1.0000
50.8900 332.0000 1.0000
50.9000 290.0000 1.0000
50.9100 305.0000 1.0000
50.9200 339.0000 1.0000
50.9300 332.0000 1.0000
50.9400 318.0000 1.0000
50.9500 323.0000 1.0000
50.9600 332.0000 1.0000
50.9700 329.0000 1.0000
50.9800 350.0000 1.0000
50.9900 316.0000 1.0000
51.0000 344.0000 1.0000
51.0100 330.0000 1.0000
51.0200 347.0000 1.0000
51.0300 329.0000 1.0000
51.0400 327.0000 1.0000
51.0500 318.0000 1.0000
51.0600 344.0000 1.0000
51.0700 328.0000 1.0000
51.0800 386.0000 1.0000
51.0900 354.0000 1.0000
51.1000 369.0000 1.0000
51.1100 368.0000 1.0000
51.1200 380.0000 1.0000
51.1300 381.0000 1.0000
51.1400 392.0000 1.0000
51.1500 420.0000 1.0000
51.1600 423.0000 1.0000
51.1700 407.0000 1.0000
51.1800 449.0000 1.0000
51.1900 446.0000 1.0000
51.2000 451.0000 1.0000
51.2100 478.0000 1.0000
51.2200 475.0000 1.0000
51.2300 531.0000 1.0000
51.2400 530.0000 1.0000
51.2500 510.0000 1.0000
51.2600 552.0000 1.0000
51.2700 626.0000 1.0000
51.2800 655.0000 1.0000
51.2900 653.0000 1.0000
51.3000 644.0000 1.0000
51.3100 731.0000 1.0000
51.3200 771.0000 1.0000
51.3300 861.0000 1.0000
51.3400 919.0000 1.0000
51.3500 937.0000 1.0000
51.3600 1027.0000 1.0000
51.3700 1104.0000 1.0000
51.3800 1255.0000 1.0000
51.3900 1369.0000 1.0000
51.4000 1455.0000 1.0000
51.4100 1536.0000 1.0000
51.4200 1643.0000 1.0000
51.4300 1734.0000 1.0000
51.4400 1723.0000 1.0000
51.4500 1882.0000 1.0000
51.4600 1931.0000 1.0000
51.4700 1983.0000 1.0000
51.4800 1954.0000 1.0000
51.4900 2040.0000 1.0000
51.5000 2071.0000 1.0000
51.5100 1912.0000 1.0000
51.5200 1944.0000 1.0000
51.5300 1913.0000 1.0000
51.5400 1751.0000 1.0000
51.5500 1749.0000 1.0000
51.5600 1669.0000 1.0000
51.5700 1700.0000 1.0000
51.5800 1528.0000 1.0000
51.5900 1499.0000 1.0000
51.6000 1513.0000 1.0000
51.6100 1423.0000 1.0000
51.6200 1405.0000 1.0000
51.6300 1363.0000 1.0000
51.6400 1255.0000 1.0000
51.6500 1229.0000 1.0000
51.6600 1153.0000 1.0000
51.6700 1099.0000 1.0000
51.6800 977.0000 1.0000
51.6900 936.0000 1.0000
51.7000 889.0000 1.0000
51.7100 846.0000 1.0000
51.7200 724.0000 1.0000
51.7300 693.0000 1.0000
51.7400 711.0000 1.0000
51.7500 620.0000 1.0000
51.7600 630.0000 1.0000
51.7700 580.0000 1.0000
51.7800 551.0000 1.0000
51.7900 498.0000 1.0000
51.8000 498.0000 1.0000
51.8100 488.0000 1.0000
51.8200 490.0000 1.0000
51.8300 500.0000 1.0000
51.8400 457.0000 1.0000
51.8500 439.0000 1.0000
51.8600 417.0000 1.0000
51.8700 441.0000 1.0000
51.8800 400.0000 1.0000
51.8900 418.0000 1.0000
51.9000 386.0000 1.0000
51.9100 408.0000 1.0000
51.9200 422.0000 1.0000
51.9300 401.0000 1.0000
51.9400 405.0000 1.0000
51.9500 368.0000 1.0000
51.9600 369.0000 1.0000
51.9700 362.0000 1.0000
51.9800 362.0000 1.0000
51.9900 385.0000 1.0000
52.0000 370.0000 1.0000
52.0100 368.0000 1.0000
52.0200 352.0000 1.0000
52.0300 332.0000 1.0000
52.0400 328.0000 1.0000
52.0500 321.0000 1.0000
52.0600 341.0000 1.0000
52.0700 350.0000 1.0000
52.0800 317.0000 1.0000
52.0900 333.0000 1.0000
52.1000 350.0000 1.0000
52.1100 355.0000 1.0000
52.1200 349.0000 1.0000
52.1300 315.0000 1.0000
52.1400 335.0000 1.0000
52.1500 353.0000 1.0000
52.1600 312.0000 1.0000
52.1700 320.0000 1.0000
52.1800 302.0000 1.0000
52.1900 320.0000 1.0000
52.2000 315.0000 1.0000
52.2100 306.0000 1.0000
52.2200 348.0000 1.0000
52.2300 316.0000 1.0000
52.2400 307.0000 1.0000
52.2500 315.0000 1.0000
52.2600 297.0000 1.0000
52.2700 307.0000 1.0000
52.2800 330.0000 1.0000
52.2900 274.0000 1.0000
52.3000 304.0000 1.0000
52.3100 322.0000 1.0000
52.3200 344.0000 1.0000
52.3300 297.0000 1.0000
52.3400 326.0000 1.0000
52.3500 315.0000 1.0000
52.3600 327.0000 1.0000
52.3700 339.0000 1.0000
52.3800 292.0000 1.0000
52.3900 278.0000 1.0000
52.4000 289.0000 1.0000
52.4100 284.0000 1.0000
52.4200 299.0000 1.0000
52.4300 307.0000 1.0000
52.4400 297.0000 1.0000
52.4500 314.0000 1.0000
52.4600 311.0000 1.0000
52.4700 305.0000 1.0000
52.4800 324.0000 1.0000
52.4900 301.0000 1.0000
52.5000 310.0000 1.0000
52.5100 293.0000 1.0000
52.5200 278.0000 1.0000
52.5300 280.0000 1.0000
52.5400 302.0000 1.0000
52.5500 286.0000 1.0000
52.5600 311.0000 1.0000
52.5700 324.0000 1.0000
52.5800 293.0000 1.0000
52.5900 313.0000 1.0000
52.6000 307.0000 1.0000
52.6100 305.0000 1.0000
52.6200 307.0000 1.0000
52.6300 322.0000 1.0000
52.6400 302.0000 1.0000
52.6500 293.0000 1.0000
52.6600 284.0000 1.0000
52.6700 274.0000 1.0000
52.6800 302.0000 1.0000
52.6900 310.0000 1.0000
52.7000 306.0000 1.0000
52.7100 287.0000 1.0000
52.7200 292.0000 1.0000
52.7300 294.0000 1.0000
52.7400 311.0000 1.0000
52.7500 287.0000 1.0000
52.7600 300.0000 1.0000
52.7700 301.0000 1.0000
52.7800 295.0000 1.0000
52.7900 310.0000 1.0000
52.8000 276.0000 1.0000
52.8100 286.0000 1.0000
52.8200 285.0000 1.0000
52.8300 319.0000 1.0000
52.8400 329.0000 1.0000
52.8500 262.0000 1.0000
52.8600 280.0000 1.0000
52.8700 288.0000 1.0000
52.8800 290.0000 1.0000
52.8900 292.0000 1.0000
52.9000 302.0000 1.0000
52.9100 287.0000 1.0000
52.9200 290.0000 1.0000
52.9300 294.0000 1.0000
52.9400 291.0000 1.0000
52.9500 277.0000 1.0000
52.9600 303.0000 1.0000
52.9700 303.0000 1.0000
52.9800 316.0000 1.0000
52.9900 290.0000 1.0000
53.0000 294.0000 1.0000
53.0100 300.0000 1.0000
53.0200 295.0000 1.0000
53.0300 278.0000 1.0000
53.0400 306.0000 1.0000
53.0500 288.0000 1.0000
53.0600 297.0000 1.0000
53.0700 313.0000 1.0000
53.0800 294.0000 1.0000
53.0900 293.0000 1.0000
53.1000 296.0000 1.0000
53.1100 290.0000 1.0000
53.1200 282.0000 1.0000
53.1300 301.0000 1.0000
53.1400 298.0000 1.0000
53.1500 281.0000 1.0000
53.1600 264.0000 1.0000
53.1700 306.0000 1.0000
53.1800 278.0000 1.0000
53.1900 291.0000 1.0000
53.2000 269.0000 1.0000
53.2100 304.0000 1.0000
53.2200 321.0000 1.0000
53.2300 319.0000 1.0000
53.2400 288.0000 1.0000
53.2500 318.0000 1.0000
53.2600 293.0000 1.0000
53.2700 311.0000 1.0000
53.2800 285.0000 1.0000
53.2900 301.0000 1.0000
53.3000 280.0000 1.0000
53.3100 287.0000 1.0000
53.3200 287.0000 1.0000
53.3300 301.0000 1.0000
53.3400 291.0000 1.0000
53.3500 269.0000 1.0000
53.3600 270.0000 1.0000
53.3700 267.0000 1.0000
53.3800 269.0000 1.0000
53.3900 288.0000 1.0000
53.4000 303.0000 1.0000
53.4100 292.0000 1.0000
53.4200 282.0000 1.0000
53.4300 283.0000 1.0000
53.4400 300.0000 1.0000
53.4500 320.0000 1.0000
53.4600 293.0000 1.0000
53.4700 310.0000 1.0000
53.4800 295.0000 1.0000
53.4900 303.0000 1.0000
53.5000 285.0000 1.0000
53.5100 296.0000 1.0000
53.5200 301.0000 1.0000
53.5300 309.0000 1.0000
53.5400 313.0000 1.0000
53.5500 299.0000 1.0000
53.5600 289.0000 1.0000
53.5700 258.0000 1.0000
53.5800 291.0000 1.0000
53.5900 314.0000 1.0000
53.6000 312.0000 1.0000
53.6100 296.0000 1.0000
53.6200 270.0000 1.0000
53.6300 290.0000 1.0000
53.6400 300.0000 1.0000
53.6500 309.0000 1.0000
53.6600 296.0000 1.0000
53.6700 301.0000 1.0000
53.6800 332.0000 1.0000
53.6900 288.0000 1.0000
53.7000 316.0000 1.0000
53.7100 323.0000 1.0000
53.7200 298.0000 1.0000
53.7300 256.0000 1.0000
53.7400 290.0000 1.0000
53.7500 312.0000 1.0000
53.7600 307.0000 1.0000
53.7700 296.0000 1.0000
53.7800 274.0000 1.0000
53.7900 302.0000 1.0000
53.8000 302.0000 1.0000
53.8100 295.0000 1.0000
53.8200 303.0000 1.0000
53.8300 323.0000 1.0000
53.8400 285.0000 1.0000
53.8500 328.0000 1.0000
53.8600 318.0000 1.0000
53.8700 287.0000 1.0000
53.8800 296.0000 1.0000
53.8900 309.0000 1.0000
53.9000 324.0000 1.0000
53.9100 294.0000 1.0000
53.9200 337.0000 1.0000
53.9300 329.0000 1.0000
53.9400 295.0000 1.0000
53.9500 327.0000 1.0000
53.9600 312.0000 1.0000
53.9700 340.0000 1.0000
53.9800 301.0000 1.0000
53.9900 311.0000 1.0000
54.0000 306.0000 1.0000
54.0100 314.0000 1.0000
54.0200 315.0000 1.0000
54.0300 304.0000 1.0000
54.0400 311.0000 1.0000
54.0500 313.0000 1.0000
54.0600 313.0000 1.0000
54.0700 314.0000 1.0000
54.0800 337.0000 1.0000
54.0900 363.0000 1.0000
54.1000 350.0000 1.0000
54.1100 348.0000 1.0000
54.1200 329.0000 1.0000
54.1300 338.0000 1.0000
54.1400 338.0000 1.0000
54.1500 327.0000 1.0000
54.1600 342.0000 1.0000
54.1700 319.0000 1.0000
54.1800 343.0000 1.0000
54.1900 324.0000 1.0000
54.2000 349.0000 1.0000
54.2100 334.0000 1.0000
54.2200 334.0000 1.0000
54.2300 339.0000 1.0000
54.2400 335.0000 1.0000
54.2500 323.0000 1.0000
54.2600 324.0000 1.0000
54.2700 318.0000 1.0000
54.2800 323.0000 1.0000
54.2900 307.0000 1.0000
54.3000 320.0000 1.0000
54.3100 318.0000 1.0000
54.3200 356.0000 1.0000
54.3300 352.0000 1.0000
54.3400 362.0000 1.0000
54.3500 368.0000 1.0000
54.3600 364.0000 1.0000
54.3700 394.0000 1.0000
54.3800 375.0000 1.0000
54.3900 372.0000 1.0000
54.4000 386.0000 1.0000
54.4100 392.0000 1.0000
54.4200 358.0000 1.0000
54.4300 396.0000 1.0000
54.4400 405.0000 1.0000
54.4500 402.0000 1.0000
54.4600 414.0000 1.0000
54.4700 408.0000 1.0000
54.4800 427.0000 1.0000
54.4900 449.0000 1.0000
54.5000 388.0000 1.0000
54.5100 411.0000 1.0000
54.5200 413.0000 1.0000
54.5300 427.0000 1.0000
54.5400 452.0000 1.0000
54.5500 438.0000 1.0000
54.5600 393.0000 1.0000
54.5700 412.0000 1.0000
54.5800 421.0000 1.0000
54.5900 394.0000 1.0000
54.6000 370.0000 1.0000
54.6100 394.0000 1.0000
54.6200 435.0000 1.0000
54.6300 428.0000 1.0000
54.6400 378.0000 1.0000
54.6500 408.0000 1.0000
54.6600 391.0000 1.0000
54.6700 379.0000 1.0000
54.6800 373.0000 1.0000
54.6900 357.0000 1.0000
54.7000 371.0000 1.0000
54.7100 345.0000 1.0000
54.7200 363.0000 1.0000
54.7300 372.0000 1.0000
54.7400 323.0000 1.0000
54.7500 329.0000 1.0000
54.7600 327.0000 1.0000
54.7700 338.0000 1.0000
54.7800 357.0000 1.0000
54.7900 312.0000 1.0000
54.8000 308.0000 1.0000
54.8100 313.0000 1.0000
54.8200 304.0000 1.0000
54.8300 316.0000 1.0000
54.8400 296.0000 1.0000
54.8500 319.0000 1.0000
54.8600 308.0000 1.0000
54.8700 304.0000 1.0000
54.8800 319.0000 1.0000
54.8900 293.0000 1.0000
54.9000 311.0000 1.0000
54.9100 325.0000 1.0000
54.9200 324.0000 1.0000
54.9300 312.0000 1.0000
54.9400 307.0000 1.0000
54.9500 300.0000 1.0000
54.9600 281.0000 1.0000
54.9700 299.0000 1.0000
54.9800 275.0000 1.0000
54.9900 294.0000 1.0000
55.0000 277.0000 1.0000
55.0100 309.0000 1.0000
55.0200 284.0000 1.0000
55.0300 290.0000 1.0000
55.0400 308.0000 1.0000
55.0500 302.0000 1.0000
55.0600 280.0000 1.0000
55.0700 287.0000 1.0000
55.0800 311.0000 1.0000
55.0900 273.0000 1.0000
55.1000 285.0000 1.0000
55.1100 280.0000 1.0000
55.1200 279.0000 1.0000
55.1300 273.0000 1.0000
55.1400 307.0000 1.0000
55.1500 279.0000 1.0000
55.1600 304.0000 1.0000
55.1700 294.0000 1.0000
55.1800 278.0000 1.0000
55.1900 271.0000 1.0000
55.2000 285.0000 1.0000
55.2100 276.0000 1.0000
55.2200 283.0000 1.0000
55.2300 283.0000 1.0000
55.2400 295.0000 1.0000
55.2500 273.0000 1.0000
55.2600 303.0000 1.0000
55.2700 291.0000 1.0000
55.2800 274.0000 1.0000
55.2900 281.0000 1.0000
55.3000 276.0000 1.0000
55.3100 291.0000 1.0000
55.3200 286.0000 1.0000
55.3300 290.0000 1.0000
55.3400 308.0000 1.0000
55.3500 276.0000 1.0000
55.3600 277.0000 1.0000
55.3700 304.0000 1.0000
55.3800 258.0000 1.0000
55.3900 292.0000 1.0000
55.4000 277.0000 1.0000
55.4100 311.0000 1.0000
55.4200 274.0000 1.0000
55.4300 277.0000 1.0000
55.4400 300.0000 1.0000
55.4500 303.0000 1.0000
55.4600 287.0000 1.0000
55.4700 266.0000 1.0000
55.4800 310.0000 1.0000
55.4900 300.0000 1.0000
55.5000 272.0000 1.0000
55.5100 278.0000 1.0000
55.5200 274.0000 1.0000
55.5300 286.0000 1.0000
55.5400 286.0000 1.0000
55.5500 312.0000 1.0000
55.5600 276.0000 1.0000
55.5700 258.0000 1.0000
55.5800 274.0000 1.0000
55.5900 269.0000 1.0000
55.6000 266.0000 1.0000
55.6100 262.0000 1.0000
55.6200 275.0000 1.0000
55.6300 262.0000 1.0000
55.6400 273.0000 1.0000
55.6500 290.0000 1.0000
55.6600 298.0000 1.0000
55.6700 276.0000 1.0000
55.6800 294.0000 1.0000
55.6900 301.0000 1.0000
55.7000 280.0000 1.0000
55.7100 279.0000 1.0000
55.7200 278.0000 1.0000
55.7300 273.0000 1.0000
55.7400 281.0000 1.0000
55.7500 287.0000 1.0000
55.7600 281.0000 1.0000
55.7700 261.0000 1.0000
55.7800 276.0000 1.0000
55.7900 291.0000 1.0000
55.8000 273.0000 1.0000
55.8100 279.0000 1.0000
55.8200 276.0000 1.0000
55.8300 287.0000 1.0000
55.8400 288.0000 1.0000
55.8500 271.0000 1.0000
55.8600 271.0000 1.0000
55.8700 279.0000 1.0000
55.8800 279.0000 1.0000
55.8900 285.0000 1.0000
55.9000 285.0000 1.0000
55.9100 281.0000 1.0000
55.9200 265.0000 1.0000
55.9300 269.0000 1.0000
55.9400 278.0000 1.0000
55.9500 266.0000 1.0000
55.9600 293.0000 1.0000
55.9700 301.0000 1.0000
55.9800 278.0000 1.0000
55.9900 258.0000 1.0000
56.0000 274.0000 1.0000
56.0100 303.0000 1.0000
56.0200 262.0000 1.0000
56.0300 279.0000 1.0000
56.0400 281.0000 1.0000
56.0500 282.0000 1.0000
56.0600 286.0000 1.0000
56.0700 297.0000 1.0000
56.0800 290.0000 1.0000
56.0900 270.0000 1.0000
56.1000 271.0000 1.0000
56.1100 282.0000 1.0000
56.1200 284.0000 1.0000
56.1300 271.0000 1.0000
56.1400 282.0000 1.0000
56.1500 275.0000 1.0000
56.1600 284.0000 1.0000
56.1700 263.0000 1.0000
56.1800 268.0000 1.0000
56.1900 273.0000 1.0000
56.2000 263.0000 1.0000
56.2100 259.0000 1.0000
56.2200 253.0000 1.0000
56.2300 265.0000 1.0000
56.2400 279.0000 1.0000
56.2500 283.0000 1.0000
56.2600 274.0000 1.0000
56.2700 302.0000 1.0000
56.2800 306.0000 1.0000
56.2900 289.0000 1.0000
56.3000 270.0000 1.0000
56.3100 296.0000 1.0000
56.3200 261.0000 1.0000
56.3300 301.0000 1.0000
56.3400 261.0000 1.0000
56.3500 267.0000 1.0000
56.3600 266.0000 1.0000
56.3700 269.0000 1.0000
56.3800 295.0000 1.0000
56.3900 297.0000 1.0000
56.4000 301.0000 1.0000
56.4100 291.0000 1.0000
56.4200 292.0000 1.0000
56.4300 270.0000 1.0000
56.4400 259.0000 1.0000
56.4500 248.0000 1.0000
56.4600 271.0000 1.0000
56.4700 269.0000 1.0000
56.4800 281.0000 1.0000
56.4900 290.0000 1.0000
56.5000 280.0000 1.0000
56.5100 295.0000 1.0000
56.5200 308.0000 1.0000
56.5300 283.0000 1.0000
56.5400 267.0000 1.0000
56.5500 293.0000 1.0000
56.5600 299.0000 1.0000
56.5700 288.0000 1.0000
56.5800 285.0000 1.0000
56.5900 282.0000 1.0000
56.6000 281.0000 1.0000
56.6100 271.0000 1.0000
56.6200 258.0000 1.0000
56.6300 281.0000 1.0000
56.6400 284.0000 1.0000
56.6500 289.0000 1.0000
56.6600 306.0000 1.0000
56.6700 273.0000 1.0000
56.6800 293.0000 1.0000
56.6900 269.0000 1.0000
56.7000 276.0000 1.0000
56.7100 260.0000 1.0000
56.7200 292.0000 1.0000
56.7300 269.0000 1.0000
56.7400 266.0000 1.0000
56.7500 273.0000 1.0000
56.7600 283.0000 1.0000
56.7700 263.0000 1.0000
56.7800 297.0000 1.0000
56.7900 306.0000 1.0000
56.8000 234.0000 1.0000
56.8100 257.0000 1.0000
56.8200 295.0000 1.0000
56.8300 298.0000 1.0000
56.8400 270.0000 1.0000
56.8500 282.0000 1.0000
56.8600 264.0000 1.0000
56.8700 287.0000 1.0000
56.8800 269.0000 1.0000
56.8900 284.0000 1.0000
56.9000 289.0000 1.0000
56.9100 272.0000 1.0000
56.9200 271.0000 1.0000
56.9300 295.0000 1.0000
56.9400 283.0000 1.0000
56.9500 278.0000 1.0000
56.9600 284.0000 1.0000
56.9700 290.0000 1.0000
56.9800 297.0000 1.0000
56.9900 266.0000 1.0000
57.0000 267.0000 1.0000
57.0100 278.0000 1.0000
57.0200 252.0000 1.0000
57.0300 277.0000 1.0000
57.0400 288.0000 1.0000
57.0500 277.0000 1.0000
57.0600 288.0000 1.0000
57.0700 273.0000 1.0000
57.0800 291.0000 1.0000
57.0900 305.0000 1.0000
57.1000 285.0000 1.0000
57.1100 268.0000 1.0000
57.1200 272.0000 1.0000
57.1300 313.0000 1.0000
57.1400 271.0000 1.0000
57.1500 288.0000 1.0000
57.1600 271.0000 1.0000
57.1700 270.0000 1.0000
57.1800 280.0000 1.0000
57.1900 270.0000 1.0000
57.2000 265.0000 1.0000
57.2100 297.0000 1.0000
57.2200 306.0000 1.0000
57.2300 270.0000 1.0000
57.2400 297.0000 1.0000
57.2500 298.0000 1.0000
57.2600 270.0000 1.0000
57.2700 272.0000 1.0000
57.2800 294.0000 1.0000
57.2900 283.0000 1.0000
57.3000 260.0000 1.0000
57.3100 261.0000 1.0000
57.3200 288.0000 1.0000
57.3300 270.0000 1.0000
57.3400 279.0000 1.0000
57.3500 289.0000 1.0000
57.3600 266.0000 1.0000
57.3700 262.0000 1.0000
57.3800 290.0000 1.0000
57.3900 276.0000 1.0000
57.4000 285.0000 1.0000
57.4100 275.0000 1.0000
57.4200 280.0000 1.0000
57.4300 272.0000 1.0000
57.4400 278.0000 1.0000
57.4500 288.0000 1.0000
57.4600 248.0000 1.0000
57.4700 289.0000 1.0000
57.4800 284.0000 1.0000
57.4900 279.0000 1.0000
57.5000 277.0000 1.0000
57.5100 268.0000 1.0000
57.5200 302.0000 1.0000
57.5300 293.0000 1.0000
57.5400 281.0000 1.0000
57.5500 273.0000 1.0000
57.5600 272.0000 1.0000
57.5700 274.0000 1.0000
57.5800 292.0000 1.0000
57.5900 300.0000 1.0000
57.6000 290.0000 1.0000
57.6100 300.0000 1.0000
57.6200 291.0000 1.0000
57.6300 243.0000 1.0000
57.6400 265.0000 1.0000
57.6500 277.0000 1.0000
57.6600 287.0000 1.0000
57.6700 277.0000 1.0000
57.6800 289.0000 1.0000
57.6900 299.0000 1.0000
57.7000 288.0000 1.0000
57.7100 291.0000 1.0000
57.7200 279.0000 1.0000
57.7300 309.0000 1.0000
57.7400 313.0000 1.0000
57.7500 265.0000 1.0000
57.7600 281.0000 1.0000
57.7700 299.0000 1.0000
57.7800 312.0000 1.0000
57.7900 274.0000 1.0000
57.8000 277.0000 1.0000
57.8100 266.0000 1.0000
57.8200 275.0000 1.0000
57.8300 287.0000 1.0000
57.8400 279.0000 1.0000
57.8500 298.0000 1.0000
57.8600 306.0000 1.0000
57.8700 272.0000 1.0000
57.8800 267.0000 1.0000
57.8900 283.0000 1.0000
57.9000 293.0000 1.0000
57.9100 276.0000 1.0000
57.9200 276.0000 1.0000
57.9300 273.0000 1.0000
57.9400 280.0000 1.0000
57.9500 280.0000 1.0000
57.9600 285.0000 1.0000
57.9700 254.0000 1.0000
57.9800 272.0000 1.0000
57.9900 279.0000 1.0000
58.0000 302.0000 1.0000
58.0100 304.0000 1.0000
58.0200 246.0000 1.0000
58.0300 252.0000 1.0000
58.0400 262.0000 1.0000
58.0500 271.0000 1.0000
58.0600 299.0000 1.0000
58.0700 261.0000 1.0000
58.0800 267.0000 1.0000
58.0900 279.0000 1.0000
58.1000 264.0000 1.0000
58.1100 282.0000 1.0000
58.1200 298.0000 1.0000
58.1300 297.0000 1.0000
58.1400 297.0000 1.0000
58.1500 288.0000 1.0000
58.1600 272.0000 1.0000
58.1700 271.0000 1.0000
58.1800 275.0000 1.0000
58.1900 265.0000 1.0000
58.2000 259.0000 1.0000
58.2100 283.0000 1.0000
58.2200 280.0000 1.0000
58.2300 272.0000 1.0000
58.2400 295.0000 1.0000
58.2500 246.0000 1.0000
58.2600 284.0000 1.0000
58.2700 302.0000 1.0000
58.2800 274.0000 1.0000
58.2900 268.0000 1.0000
58.3000 276.0000 1.0000
58.3100 292.0000 1.0000
58.3200 275.0000 1.0000
58.3300 270.0000 1.0000
58.3400 276.0000 1.0000
58.3500 278.0000 1.0000
58.3600 265.0000 1.0000
58.3700 255.0000 1.0000
58.3800 275.0000 1.0000
58.3900 267.0000 1.0000
58.4000 287.0000 1.0000
58.4100 297.0000 1.0000
58.4200 289.0000 1.0000
58.4300 266.0000 1.0000
58.4400 276.0000 1.0000
58.4500 280.0000 1.0000
58.4600 288.0000 1.0000
58.4700 259.0000 1.0000
58.4800 266.0000 1.0000
58.4900 262.0000 1.0000
58.5000 306.0000 1.0000
58.5100 271.0000 1.0000
58.5200 281.0000 1.0000
58.5300 271.0000 1.0000
58.5400 273.0000 1.0000
58.5500 313.0000 1.0000
58.5600 250.0000 1.0000
58.5700 285.0000 1.0000
58.5800 278.0000 1.0000
58.5900 273.0000 1.0000
58.6000 261.0000 1.0000
58.6100 269.0000 1.0000
58.6200 274.0000 1.0000
58.6300 255.0000 1.0000
58.6400 261.0000 1.0000
58.6500 302.0000 1.0000
58.6600 287.0000 1.0000
58.6700 313.0000 1.0000
58.6800 294.0000 1.0000
58.6900 259.0000 1.0000
58.7000 287.0000 1.0000
58.7100 267.0000 1.0000
58.7200 268.0000 1.0000
58.7300 275.0000 1.0000
58.7400 248.0000 1.0000
58.7500 279.0000 1.0000
58.7600 274.0000 1.0000
58.7700 276.0000 1.0000
58.7800 286.0000 1.0000
58.7900 267.0000 1.0000
58.8000 279.0000 1.0000
58.8100 261.0000 1.0000
58.8200 307.0000 1.0000
58.8300 250.0000 1.0000
58.8400 280.0000 1.0000
58.8500 272.0000 1.0000
58.8600 261.0000 1.0000
58.8700 270.0000 1.0000
58.8800 282.0000 1.0000
58.8900 276.0000 1.0000
58.9000 279.0000 1.0000
58.9100 267.0000 1.0000
58.9200 264.0000 1.0000
58.9300 275.0000 1.0000
58.9400 268.0000 1.0000
58.9500 265.0000 1.0000
58.9600 269.0000 1.0000
58.9700 277.0000 1.0000
58.9800 293.0000 1.0000
58.9900 245.0000 1.0000
59.0000 260.0000 1.0000
59.0100 296.0000 1.0000
59.0200 275.0000 1.0000
59.0300 296.0000 1.0000
59.0400 292.0000 1.0000
59.0500 276.0000 1.0000
59.0600 299.0000 1.0000
59.0700 256.0000 1.0000
59.0800 260.0000 1.0000
59.0900 247.0000 1.0000
59.1000 289.0000 1.0000
59.1100 269.0000 1.0000
59.1200 284.0000 1.0000
59.1300 274.0000 1.0000
59.1400 265.0000 1.0000
59.1500 244.0000 1.0000
59.1600 270.0000 1.0000
59.1700 269.0000 1.0000
59.1800 278.0000 1.0000
59.1900 267.0000 1.0000
59.2000 297.0000 1.0000
59.2100 281.0000 1.0000
59.2200 251.0000 1.0000
59.2300 290.0000 1.0000
59.2400 277.0000 1.0000
59.2500 278.0000 1.0000
59.2600 268.0000 1.0000
59.2700 239.0000 1.0000
59.2800 287.0000 1.0000
59.2900 270.0000 1.0000
59.3000 270.0000 1.0000
59.3100 285.0000 1.0000
59.3200 288.0000 1.0000
59.3300 298.0000 1.0000
59.3400 309.0000 1.0000
59.3500 282.0000 1.0000
59.3600 288.0000 1.0000
59.3700 276.0000 1.0000
59.3800 291.0000 1.0000
59.3900 314.0000 1.0000
59.4000 298.0000 1.0000
59.4100 274.0000 1.0000
59.4200 290.0000 1.0000
59.4300 273.0000 1.0000
59.4400 254.0000 1.0000
59.4500 246.0000 1.0000
59.4600 228.0000 1.0000
59.4700 263.0000 1.0000
59.4800 261.0000 1.0000
59.4900 269.0000 1.0000
59.5000 282.0000 1.0000
59.5100 257.0000 1.0000
59.5200 260.0000 1.0000
59.5300 277.0000 1.0000
59.5400 248.0000 1.0000
59.5500 291.0000 1.0000
59.5600 278.0000 1.0000
59.5700 267.0000 1.0000
59.5800 299.0000 1.0000
59.5900 242.0000 1.0000
59.6000 290.0000 1.0000
59.6100 254.0000 1.0000
59.6200 267.0000 1.0000
59.6300 270.0000 1.0000
59.6400 274.0000 1.0000
59.6500 275.0000 1.0000
59.6600 289.0000 1.0000
59.6700 276.0000 1.0000
59.6800 259.0000 1.0000
59.6900 263.0000 1.0000
59.7000 259.0000 1.0000
59.7100 277.0000 1.0000
59.7200 280.0000 1.0000
59.7300 253.0000 1.0000
59.7400 276.0000 1.0000
59.7500 281.0000 1.0000
59.7600 275.0000 1.0000
59.7700 282.0000 1.0000
59.7800 299.0000 1.0000
59.7900 282.0000 1.0000
59.8000 272.0000 1.0000
59.8100 265.0000 1.0000
59.8200 260.0000 1.0000
59.8300 319.0000 1.0000
59.8400 277.0000 1.0000
59.8500 266.0000 1.0000
59.8600 270.0000 1.0000
59.8700 265.0000 1.0000
59.8800 276.0000 1.0000
59.8900 268.0000 1.0000
59.9000 267.0000 1.0000
59.9100 269.0000 1.0000
59.9200 266.0000 1.0000
59.9300 267.0000 1.0000
59.9400 276.0000 1.0000
59.9500 270.0000 1.0000
59.9600 259.0000 1.0000
59.9700 272.0000 1.0000
59.9800 276.0000 1.0000
59.9900 268.0000 1.0000
60.0000 279.0000 1.0000
60.0100 278.0000 1.0000
60.0200 266.0000 1.0000
60.0300 281.0000 1.0000
60.0400 277.0000 1.0000
60.0500 271.0000 1.0000
60.0600 270.0000 1.0000
60.0700 247.0000 1.0000
60.0800 268.0000 1.0000
60.0900 276.0000 1.0000
60.1000 255.0000 1.0000
60.1100 270.0000 1.0000
60.1200 291.0000 1.0000
60.1300 278.0000 1.0000
60.1400 279.0000 1.0000
60.1500 303.0000 1.0000
60.1600 279.0000 1.0000
60.1700 257.0000 1.0000
60.1800 261.0000 1.0000
60.1900 264.0000 1.0000
60.2000 281.0000 1.0000
60.2100 263.0000 1.0000
60.2200 248.0000 1.0000
60.2300 239.0000 1.0000
60.2400 263.0000 1.0000
60.2500 291.0000 1.0000
60.2600 281.0000 1.0000
60.2700 265.0000 1.0000
60.2800 291.0000 1.0000
60.2900 281.0000 1.0000
60.3000 262.0000 1.0000
60.3100 280.0000 1.0000
60.3200 261.0000 1.0000
60.3300 280.0000 1.0000
60.3400 263.0000 1.0000
60.3500 281.0000 1.0000
60.3600 272.0000 1.0000
60.3700 294.0000 1.0000
60.3800 270.0000 1.0000
60.3900 238.0000 1.0000
60.4000 246.0000 1.0000
60.4100 253.0000 1.0000
60.4200 258.0000 1.0000
60.4300 266.0000 1.0000
60.4400 292.0000 1.0000
60.4500 288.0000 1.0000
60.4600 277.0000 1.0000
60.4700 271.0000 1.0000
60.4800 291.0000 1.0000
60.4900 287.0000 1.0000
60.5000 250.0000 1.0000
60.5100 252.0000 1.0000
60.5200 251.0000 1.0000
60.5300 285.0000 1.0000
60.5400 319.0000 1.0000
60.5500 254.0000 1.0000
60.5600 265.0000 1.0000
60.5700 278.0000 1.0000
60.5800 292.0000 1.0000
60.5900 294.0000 1.0000
60.6000 288.0000 1.0000
60.6100 293.0000 1.0000
60.6200 285.0000 1.0000
60.6300 291.0000 1.0000
60.6400 291.0000 1.0000
60.6500 290.0000 1.0000
60.6600 281.0000 1.0000
60.6700 278.0000 1.0000
60.6800 280.0000 1.0000
60.6900 258.0000 1.0000
60.7000 263.0000 1.0000
60.7100 278.0000 1.0000
60.7200 263.0000 1.0000
60.7300 300.0000 1.0000
60.7400 287.0000 1.0000
60.7500 234.0000 1.0000
60.7600 273.0000 1.0000
60.7700 295.0000 1.0000
60.7800 303.0000 1.0000
60.7900 299.0000 1.0000
60.8000 264.0000 1.0000
60.8100 298.0000 1.0000
60.8200 282.0000 1.0000
60.8300 291.0000 1.0000
60.8400 277.0000 1.0000
60.8500 293.0000 1.0000
60.8600 262.0000 1.0000
60.8700 264.0000 1.0000
60.8800 280.0000 1.0000
60.8900 285.0000 1.0000
60.9000 264.0000 1.0000
60.9100 292.0000 1.0000
60.9200 291.0000 1.0000
60.9300 289.0000 1.0000
60.9400 280.0000 1.0000
60.9500 284.0000 1.0000
60.9600 277.0000 1.0000
60.9700 286.0000 1.0000
60.9800 288.0000 1.0000
60.9900 284.0000 1.0000
61.0000 288.0000 1.0000
61.0100 285.0000 1.0000
61.0200 286.0000 1.0000
61.0300 288.0000 1.0000
61.0400 289.0000 1.0000
61.0500 289.0000 1.0000
61.0600 295.0000 1.0000
61.0700 278.0000 1.0000
61.0800 302.0000 1.0000
61.0900 287.0000 1.0000
61.1000 295.0000 1.0000
61.1100 338.0000 1.0000
61.1200 310.0000 1.0000
61.1300 297.0000 1.0000
61.1400 298.0000 1.0000
61.1500 303.0000 1.0000
61.1600 342.0000 1.0000
61.1700 332.0000 1.0000
61.1800 333.0000 1.0000
61.1900 312.0000 1.0000
61.2000 328.0000 1.0000
61.2100 332.0000 1.0000
61.2200 324.0000 1.0000
61.2300 343.0000 1.0000
61.2400 339.0000 1.0000
61.2500 329.0000 1.0000
61.2600 369.0000 1.0000
61.2700 377.0000 1.0000
61.2800 357.0000 1.0000
61.2900 378.0000 1.0000
61.3000 372.0000 1.0000
61.3100 371.0000 1.0000
61.3200 410.0000 1.0000
61.3300 390.0000 1.0000
61.3400 412.0000 1.0000
61.3500 392.0000 1.0000
61.3600 420.0000 1.0000
61.3700 457.0000 1.0000
61.3800 413.0000 1.0000
61.3900 462.0000 1.0000
61.4000 480.0000 1.0000
61.4100 490.0000 1.0000
61.4200 480.0000 1.0000
61.4300 513.0000 1.0000
61.4400 537.0000 1.0000
61.4500 574.0000 1.0000
61.4600 547.0000 1.0000
61.4700 571.0000 1.0000
61.4800 531.0000 1.0000
61.4900 550.0000 1.0000
61.5000 594.0000 1.0000
61.5100 586.0000 1.0000
61.5200 550.0000 1.0000
61.5300 531.0000 1.0000
61.5400 531.0000 1.0000
61.5500 562.0000 1.0000
61.5600 552.0000 1.0000
61.5700 538.0000 1.0000
61.5800 583.0000 1.0000
61.5900 562.0000 1.0000
61.6000 551.0000 1.0000
61.6100 562.0000 1.0000
61.6200 555.0000 1.0000
61.6300 557.0000 1.0000
61.6400 516.0000 1.0000
61.6500 544.0000 1.0000
61.6600 530.0000 1.0000
61.6700 512.0000 1.0000
61.6800 518.0000 1.0000
61.6900 482.0000 1.0000
61.7000 467.0000 1.0000
61.7100 469.0000 1.0000
61.7200 485.0000 1.0000
61.7300 454.0000 1.0000
61.7400 456.0000 1.0000
61.7500 455.0000 1.0000
61.7600 440.0000 1.0000
61.7700 437.0000 1.0000
61.7800 432.0000 1.0000
61.7900 453.0000 1.0000
61.8000 424.0000 1.0000
61.8100 414.0000 1.0000
61.8200 422.0000 1.0000
61.8300 395.0000 1.0000
61.8400 361.0000 1.0000
61.8500 365.0000 1.0000
61.8600 384.0000 1.0000
61.8700 376.0000 1.0000
61.8800 362.0000 1.0000
61.8900 363.0000 1.0000
61.9000 364.0000 1.0000
61.9100 366.0000 1.0000
61.9200 354.0000 1.0000
61.9300 373.0000 1.0000
61.9400 369.0000 1.0000
61.9500 338.0000 1.0000
61.9600 327.0000 1.0000
61.9700 374.0000 1.0000
61.9800 325.0000 1.0000
61.9900 342.0000 1.0000
62.0000 337.0000 1.0000
62.0100 319.0000 1.0000
62.0200 343.0000 1.0000
62.0300 318.0000 1.0000
62.0400 319.0000 1.0000
62.0500 306.0000 1.0000
62.0600 319.0000 1.0000
62.0700 321.0000 1.0000
62.0800 302.0000 1.0000
62.0900 318.0000 1.0000
62.1000 314.0000 1.0000
62.1100 327.0000 1.0000
62.1200 282.0000 1.0000
62.1300 266.0000 1.0000
62.1400 303.0000 1.0000
62.1500 326.0000 1.0000
62.1600 309.0000 1.0000
62.1700 280.0000 1.0000
62.1800 266.0000 1.0000
62.1900 283.0000 1.0000
62.2000 301.0000 1.0000
62.2100 293.0000 1.0000
62.2200 289.0000 1.0000
62.2300 267.0000 1.0000
62.2400 290.0000 1.0000
62.2500 293.0000 1.0000
62.2600 306.0000 1.0000
62.2700 295.0000 1.0000
62.2800 284.0000 1.0000
62.2900 311.0000 1.0000
62.3000 310.0000 1.0000
62.3100 327.0000 1.0000
62.3200 307.0000 1.0000
62.3300 299.0000 1.0000
62.3400 312.0000 1.0000
62.3500 326.0000 1.0000
62.3600 351.0000 1.0000
62.3700 307.0000 1.0000
62.3800 288.0000 1.0000
62.3900 292.0000 1.0000
62.4000 304.0000 1.0000
62.4100 307.0000 1.0000
62.4200 340.0000 1.0000
62.4300 306.0000 1.0000
62.4400 316.0000 1.0000
62.4500 290.0000 1.0000
62.4600 288.0000 1.0000
62.4700 301.0000 1.0000
62.4800 314.0000 1.0000
62.4900 306.0000 1.0000
62.5000 307.0000 1.0000
62.5100 305.0000 1.0000
62.5200 284.0000 1.0000
62.5300 280.0000 1.0000
62.5400 300.0000 1.0000
62.5500 279.0000 1.0000
62.5600 272.0000 1.0000
62.5700 265.0000 1.0000
62.5800 295.0000 1.0000
62.5900 310.0000 1.0000
62.6000 284.0000 1.0000
62.6100 305.0000 1.0000
62.6200 286.0000 1.0000
62.6300 297.0000 1.0000
62.6400 281.0000 1.0000
62.6500 270.0000 1.0000
62.6600 274.0000 1.0000
62.6700 272.0000 1.0000
62.6800 290.0000 1.0000
62.6900 287.0000 1.0000
62.7000 291.0000 1.0000
62.7100 295.0000 1.0000
62.7200 271.0000 1.0000
62.7300 294.0000 1.0000
62.7400 288.0000 1.0000
62.7500 280.0000 1.0000
62.7600 304.0000 1.0000
62.7700 262.0000 1.0000
62.7800 273.0000 1.0000
62.7900 282.0000 1.0000
62.8000 306.0000 1.0000
62.8100 286.0000 1.0000
62.8200 290.0000 1.0000
62.8300 296.0000 1.0000
62.8400 291.0000 1.0000
62.8500 265.0000 1.0000
62.8600 275.0000 1.0000
62.8700 269.0000 1.0000
62.8800 252.0000 1.0000
62.8900 270.0000 1.0000
62.9000 278.0000 1.0000
62.9100 271.0000 1.0000
62.9200 283.0000 1.0000
62.9300 294.0000 1.0000
62.9400 287.0000 1.0000
62.9500 263.0000 1.0000
62.9600 282.0000 1.0000
62.9700 260.0000 1.0000
62.9800 273.0000 1.0000
62.9900 246.0000 1.0000
63.0000 259.0000 1.0000
63.0100 269.0000 1.0000
63.0200 275.0000 1.0000
63.0300 280.0000 1.0000
63.0400 284.0000 1.0000
63.0500 257.0000 1.0000
63.0600 249.0000 1.0000
63.0700 294.0000 1.0000
63.0800 289.0000 1.0000
63.0900 290.0000 1.0000
63.1000 293.0000 1.0000
63.1100 277.0000 1.0000
63.1200 269.0000 1.0000
63.1300 257.0000 1.0000
63.1400 283.0000 1.0000
63.1500 291.0000 1.0000
63.1600 247.0000 1.0000
63.1700 263.0000 1.0000
63.1800 279.0000 1.0000
63.1900 257.0000 1.0000
63.2000 265.0000 1.0000
63.2100 273.0000 1.0000
63.2200 270.0000 1.0000
63.2300 277.0000 1.0000
63.2400 272.0000 1.0000
63.2500 276.0000 1.0000
63.2600 261.0000 1.0000
63.2700 267.0000 1.0000
63.2800 274.0000 1.0000
63.2900 269.0000 1.0000
63.3000 250.0000 1.0000
63.3100 276.0000 1.0000
63.3200 251.0000 1.0000
63.3300 285.0000 1.0000
63.3400 274.0000 1.0000
63.3500 290.0000 1.0000
63.3600 276.0000 1.0000
63.3700 274.0000 1.0000
63.3800 262.0000 1.0000
63.3900 248.0000 1.0000
63.4000 282.0000 1.0000
63.4100 269.0000 1.0000
63.4200 254.0000 1.0000
63.4300 268.0000 1.0000
63.4400 273.0000 1.0000
63.4500 303.0000 1.0000
63.4600 285.0000 1.0000
63.4700 305.0000 1.0000
63.4800 260.0000 1.0000
63.4900 251.0000 1.0000
63.5000 261.0000 1.0000
63.5100 287.0000 1.0000
63.5200 286.0000 1.0000
63.5300 278.0000 1.0000
63.5400 273.0000 1.0000
63.5500 252.0000 1.0000
63.5600 279.0000 1.0000
63.5700 297.0000 1.0000
63.5800 283.0000 1.0000
63.5900 309.0000 1.0000
63.6000 290.0000 1.0000
63.6100 276.0000 1.0000
63.6200 290.0000 1.0000
63.6300 304.0000 1.0000
63.6400 276.0000 1.0000
63.6500 297.0000 1.0000
63.6600 273.0000 1.0000
63.6700 267.0000 1.0000
63.6800 300.0000 1.0000
63.6900 293.0000 1.0000
63.7000 292.0000 1.0000
63.7100 318.0000 1.0000
63.7200 323.0000 1.0000
63.7300 326.0000 1.0000
63.7400 323.0000 1.0000
63.7500 325.0000 1.0000
63.7600 315.0000 1.0000
63.7700 289.0000 1.0000
63.7800 329.0000 1.0000
63.7900 318.0000 1.0000
63.8000 325.0000 1.0000
63.8100 339.0000 1.0000
63.8200 312.0000 1.0000
63.8300 343.0000 1.0000
63.8400 378.0000 1.0000
63.8500 378.0000 1.0000
63.8600 348.0000 1.0000
63.8700 371.0000 1.0000
63.8800 400.0000 1.0000
63.8900 398.0000 1.0000
63.9000 408.0000 1.0000
63.9100 393.0000 1.0000
63.9200 395.0000 1.0000
63.9300 421.0000 1.0000
63.9400 422.0000 1.0000
63.9500 418.0000 1.0000
63.9600 432.0000 1.0000
63.9700 388.0000 1.0000
63.9800 410.0000 1.0000
63.9900 394.0000 1.0000
64.0000 422.0000 1.0000
64.0100 390.0000 1.0000
64.0200 396.0000 1.0000
64.0300 414.0000 1.0000
64.0400 411.0000 1.0000
64.0500 418.0000 1.0000
64.0600 396.0000 1.0000
64.0700 360.0000 1.0000
64.0800 411.0000 1.0000
64.0900 401.0000 1.0000
64.1000 369.0000 1.0000
64.1100 385.0000 1.0000
64.1200 363.0000 1.0000
64.1300 345.0000 1.0000
64.1400 355.0000 1.0000
64.1500 351.0000 1.0000
64.1600 388.0000 1.0000
64.1700 354.0000 1.0000
64.1800 349.0000 1.0000
64.1900 339.0000 1.0000
64.2000 334.0000 1.0000
64.2100 326.0000 1.0000
64.2200 331.0000 1.0000
64.2300 311.0000 1.0000
64.2400 350.0000 1.0000
64.2500 303.0000 1.0000
64.2600 301.0000 1.0000
64.2700 314.0000 1.0000
64.2800 291.0000 1.0000
64.2900 316.0000 1.0000
64.3000 315.0000 1.0000
64.3100 279.0000 1.0000
64.3200 319.0000 1.0000
64.3300 300.0000 1.0000
64.3400 297.0000 1.0000
64.3500 314.0000 1.0000
64.3600 283.0000 1.0000
64.3700 297.0000 1.0000
64.3800 306.0000 1.0000
64.3900 291.0000 1.0000
64.4000 307.0000 1.0000
64.4100 297.0000 1.0000
64.4200 276.0000 1.0000
64.4300 277.0000 1.0000
64.4400 299.0000 1.0000
64.4500 307.0000 1.0000
64.4600 292.0000 1.0000
64.4700 292.0000 1.0000
64.4800 293.0000 1.0000
64.4900 296.0000 1.0000
64.5000 302.0000 1.0000
64.5100 277.0000 1.0000
64.5200 311.0000 1.0000
64.5300 283.0000 1.0000
64.5400 283.0000 1.0000
64.5500 284.0000 1.0000
64.5600 293.0000 1.0000
64.5700 290.0000 1.0000
64.5800 274.0000 1.0000
64.5900 290.0000 1.0000
64.6000 284.0000 1.0000
64.6100 286.0000 1.0000
64.6200 282.0000 1.0000
64.6300 276.0000 1.0000
64.6400 273.0000 1.0000
64.6500 261.0000 1.0000
64.6600 277.0000 1.0000
64.6700 260.0000 1.0000
64.6800 272.0000 1.0000
64.6900 268.0000 1.0000
64.7000 279.0000 1.0000
64.7100 294.0000 1.0000
64.7200 263.0000 1.0000
64.7300 271.0000 1.0000
64.7400 281.0000 1.0000
64.7500 257.0000 1.0000
64.7600 291.0000 1.0000
64.7700 283.0000 1.0000
64.7800 278.0000 1.0000
64.7900 290.0000 1.0000
64.8000 294.0000 1.0000
64.8100 318.0000 1.0000
64.8200 292.0000 1.0000
64.8300 261.0000 1.0000
64.8400 263.0000 1.0000
64.8500 267.0000 1.0000
64.8600 292.0000 1.0000
64.8700 291.0000 1.0000
64.8800 281.0000 1.0000
64.8900 278.0000 1.0000
64.9000 284.0000 1.0000
64.9100 317.0000 1.0000
64.9200 321.0000 1.0000
64.9300 302.0000 1.0000
64.9400 288.0000 1.0000
64.9500 284.0000 1.0000
64.9600 303.0000 1.0000
64.9700 309.0000 1.0000
64.9800 291.0000 1.0000
64.9900 300.0000 1.0000
65.0000 283.0000 1.0000
65.0100 297.0000 1.0000
65.0200 323.0000 1.0000
65.0300 306.0000 1.0000
65.0400 299.0000 1.0000
65.0500 304.0000 1.0000
65.0600 336.0000 1.0000
65.0700 300.0000 1.0000
65.0800 303.0000 1.0000
65.0900 320.0000 1.0000
65.1000 302.0000 1.0000
65.1100 302.0000 1.0000
65.1200 335.0000 1.0000
65.1300 303.0000 1.0000
65.1400 340.0000 1.0000
65.1500 339.0000 1.0000
65.1600 336.0000 1.0000
65.1700 335.0000 1.0000
65.1800 337.0000 1.0000
65.1900 362.0000 1.0000
65.2000 357.0000 1.0000
65.2100 369.0000 1.0000
65.2200 354.0000 1.0000
65.2300 371.0000 1.0000
65.2400 397.0000 1.0000
65.2500 375.0000 1.0000
65.2600 417.0000 1.0000
65.2700 431.0000 1.0000
65.2800 407.0000 1.0000
65.2900 474.0000 1.0000
65.3000 441.0000 1.0000
65.3100 456.0000 1.0000
65.3200 485.0000 1.0000
65.3300 498.0000 1.0000
65.3400 527.0000 1.0000
65.3500 537.0000 1.0000
65.3600 552.0000 1.0000
65.3700 600.0000 1.0000
65.3800 627.0000 1.0000
65.3900 676.0000 1.0000
65.4000 659.0000 1.0000
65.4100 692.0000 1.0000
65.4200 731.0000 1.0000
65.4300 746.0000 1.0000
65.4400 789.0000 1.0000
65.4500 821.0000 1.0000
65.4600 871.0000 1.0000
65.4700 841.0000 1.0000
65.4800 911.0000 1.0000
65.4900 901.0000 1.0000
65.5000 956.0000 1.0000
65.5100 971.0000 1.0000
65.5200 1032.0000 1.0000
65.5300 1046.0000 1.0000
65.5400 1047.0000 1.0000
65.5500 1062.0000 1.0000
65.5600 1026.0000 1.0000
65.5700 1000.0000 1.0000
65.5800 1045.0000 1.0000
65.5900 972.0000 1.0000
65.6000 980.0000 1.0000
65.6100 939.0000 1.0000
65.6200 1000.0000 1.0000
65.6300 895.0000 1.0000
65.6400 907.0000 1.0000
65.6500 874.0000 1.0000
65.6600 829.0000 1.0000
65.6700 861.0000 1.0000
65.6800 813.0000 1.0000
65.6900 832.0000 1.0000
65.7000 789.0000 1.0000
65.7100 794.0000 1.0000
65.7200 768.0000 1.0000
65.7300 785.0000 1.0000
65.7400 791.0000 1.0000
65.7500 742.0000 1.0000
65.7600 712.0000 1.0000
65.7700 706.0000 1.0000
65.7800 632.0000 1.0000
65.7900 626.0000 1.0000
65.8000 623.0000 1.0000
65.8100 556.0000 1.0000
65.8200 557.0000 1.0000
65.8300 527.0000 1.0000
65.8400 514.0000 1.0000
65.8500 508.0000 1.0000
65.8600 497.0000 1.0000
65.8700 453.0000 1.0000
65.8800 428.0000 1.0000
65.8900 430.0000 1.0000
65.9000 426.0000 1.0000
65.9100 392.0000 1.0000
65.9200 390.0000 1.0000
65.9300 388.0000 1.0000
65.9400 369.0000 1.0000
65.9500 388.0000 1.0000
65.9600 382.0000 1.0000
65.9700 367.0000 1.0000
65.9800 389.0000 1.0000
65.9900 367.0000 1.0000
66.0000 343.0000 1.0000
66.0100 352.0000 1.0000
66.0200 357.0000 1.0000
66.0300 339.0000 1.0000
66.0400 336.0000 1.0000
66.0500 338.0000 1.0000
66.0600 317.0000 1.0000
66.0700 300.0000 1.0000
66.0800 301.0000 1.0000
66.0900 327.0000 1.0000
66.1000 318.0000 1.0000
66.1100 312.0000 1.0000
66.1200 307.0000 1.0000
66.1300 311.0000 1.0000
66.1400 320.0000 1.0000
66.1500 318.0000 1.0000
66.1600 289.0000 1.0000
66.1700 296.0000 1.0000
66.1800 292.0000 1.0000
66.1900 257.0000 1.0000
66.2000 287.0000 1.0000
66.2100 274.0000 1.0000
66.2200 255.0000 1.0000
66.2300 295.0000 1.0000
66.2400 275.0000 1.0000
66.2500 267.0000 1.0000
66.2600 273.0000 1.0000
66.2700 286.0000 1.0000
66.2800 282.0000 1.0000
66.2900 261.0000 1.0000
66.3000 285.0000 1.0000
66.3100 267.0000 1.0000
66.3200 282.0000 1.0000
66.3300 288.0000 1.0000
66.3400 264.0000 1.0000
66.3500 257.0000 1.0000
66.3600 282.0000 1.0000
66.3700 271.0000 1.0000
66.3800 266.0000 1.0000
66.3900 258.0000 1.0000
66.4000 253.0000 1.0000
66.4100 264.0000 1.0000
66.4200 267.0000 1.0000
66.4300 289.0000 1.0000
66.4400 282.0000 1.0000
66.4500 294.0000 1.0000
66.4600 235.0000 1.0000
66.4700 269.0000 1.0000
66.4800 260.0000 1.0000
66.4900 242.0000 1.0000
66.5000 247.0000 1.0000
66.5100 283.0000 1.0000
66.5200 268.0000 1.0000
66.5300 273.0000 1.0000
66.5400 259.0000 1.0000
66.5500 241.0000 1.0000
66.5600 250.0000 1.0000
66.5700 251.0000 1.0000
66.5800 273.0000 1.0000
66.5900 244.0000 1.0000
66.6000 254.0000 1.0000
66.6100 267.0000 1.0000
66.6200 265.0000 1.0000
66.6300 267.0000 1.0000
66.6400 241.0000 1.0000
66.6500 253.0000 1.0000
66.6600 271.0000 1.0000
66.6700 272.0000 1.0000
66.6800 285.0000 1.0000
66.6900 272.0000 1.0000
66.7000 279.0000 1.0000
66.7100 259.0000 1.0000
66.7200 261.0000 1.0000
66.7300 242.0000 1.0000
66.7400 269.0000 1.0000
66.7500 288.0000 1.0000
66.7600 266.0000 1.0000
66.7700 269.0000 1.0000
66.7800 264.0000 1.0000
66.7900 236.0000 1.0000
66.8000 260.0000 1.0000
66.8100 241.0000 1.0000
66.8200 262.0000 1.0000
66.8300 254.0000 1.0000
66.8400 259.0000 1.0000
66.8500 236.0000 1.0000
66.8600 226.0000 1.0000
66.8700 265.0000 1.0000
66.8800 262.0000 1.0000
66.8900 243.0000 1.0000
66.9000 253.0000 1.0000
66.9100 260.0000 1.0000
66.9200 245.0000 1.0000
66.9300 256.0000 1.0000
66.9400 260.0000 1.0000
66.9500 272.0000 1.0000
66.9600 252.0000 1.0000
66.9700 292.0000 1.0000
66.9800 274.0000 1.0000
66.9900 262.0000 1.0000
67.0000 250.0000 1.0000
67.0100 252.0000 1.0000
67.0200 272.0000 1.0000
67.0300 263.0000 1.0000
67.0400 230.0000 1.0000
67.0500 249.0000 1.0000
67.0600 248.0000 1.0000
67.0700 249.0000 1.0000
67.0800 253.0000 1.0000
67.0900 253.0000 1.0000
67.1000 237.0000 1.0000
67.1100 269.0000 1.0000
67.1200 242.0000 1.0000
67.1300 243.0000 1.0000
67.1400 267.0000 1.0000
67.1500 234.0000 1.0000
67.1600 259.0000 1.0000
67.1700 268.0000 1.0000
67.1800 250.0000 1.0000
67.1900 246.0000 1.0000
67.2000 243.0000 1.0000
67.2100 241.0000 1.0000
67.2200 270.0000 1.0000
67.2300 244.0000 1.0000
67.2400 267.0000 1.0000
67.2500 259.0000 1.0000
67.2600 253.0000 1.0000
67.2700 253.0000 1.0000
67.2800 240.0000 1.0000
67.2900 256.0000 1.0000
67.3000 255.0000 1.0000
67.3100 243.0000 1.0000
67.3200 249.0000 1.0000
67.3300 259.0000 1.0000
67.3400 275.0000 1.0000
67.3500 260.0000 1.0000
67.3600 273.0000 1.0000
67.3700 237.0000 1.0000
67.3800 229.0000 1.0000
67.3900 239.0000 1.0000
67.4000 247.0000 1.0000
67.4100 243.0000 1.0000
67.4200 276.0000 1.0000
67.4300 251.0000 1.0000
67.4400 235.0000 1.0000
67.4500 249.0000 1.0000
67.4600 248.0000 1.0000
67.4700 258.0000 1.0000
67.4800 252.0000 1.0000
67.4900 259.0000 1.0000
67.5000 248.0000 1.0000
67.5100 246.0000 1.0000
67.5200 252.0000 1.0000
67.5300 260.0000 1.0000
67.5400 243.0000 1.0000
67.5500 243.0000 1.0000
67.5600 237.0000 1.0000
67.5700 252.0000 1.0000
67.5800 245.0000 1.0000
67.5900 231.0000 1.0000
67.6000 263.0000 1.0000
67.6100 253.0000 1.0000
67.6200 237.0000 1.0000
67.6300 257.0000 1.0000
67.6400 261.0000 1.0000
67.6500 245.0000 1.0000
67.6600 233.0000 1.0000
67.6700 269.0000 1.0000
67.6800 270.0000 1.0000
67.6900 245.0000 1.0000
67.7000 252.0000 1.0000
67.7100 247.0000 1.0000
67.7200 256.0000 1.0000
67.7300 242.0000 1.0000
67.7400 271.0000 1.0000
67.7500 223.0000 1.0000
67.7600 265.0000 1.0000
67.7700 227.0000 1.0000
67.7800 268.0000 1.0000
67.7900 232.0000 1.0000
67.8000 247.0000 1.0000
67.8100 273.0000 1.0000
67.8200 259.0000 1.0000
67.8300 248.0000 1.0000
67.8400 255.0000 1.0000
67.8500 262.0000 1.0000
67.8600 247.0000 1.0000
67.8700 250.0000 1.0000
67.8800 236.0000 1.0000
67.8900 213.0000 1.0000
67.9000 259.0000 1.0000
67.9100 265.0000 1.0000
67.9200 265.0000 1.0000
67.9300 259.0000 1.0000
67.9400 242.0000 1.0000
67.9500 258.0000 1.0000
67.9600 275.0000 1.0000
67.9700 280.0000 1.0000
67.9800 258.0000 1.0000
67.9900 256.0000 1.0000
68.0000 230.0000 1.0000
68.0100 239.0000 1.0000
68.0200 248.0000 1.0000
68.0300 260.0000 1.0000
68.0400 254.0000 1.0000
68.0500 267.0000 1.0000
68.0600 272.0000 1.0000
68.0700 254.0000 1.0000
68.0800 279.0000 1.0000
68.0900 239.0000 1.0000
68.1000 225.0000 1.0000
68.1100 250.0000 1.0000
68.1200 231.0000 1.0000
68.1300 273.0000 1.0000
68.1400 270.0000 1.0000
68.1500 238.0000 1.0000
68.1600 232.0000 1.0000
68.1700 254.0000 1.0000
68.1800 263.0000 1.0000
68.1900 230.0000 1.0000
68.2000 237.0000 1.0000
68.2100 239.0000 1.0000
68.2200 262.0000 1.0000
68.2300 244.0000 1.0000
68.2400 236.0000 1.0000
68.2500 245.0000 1.0000
68.2600 235.0000 1.0000
68.2700 271.0000 1.0000
68.2800 247.0000 1.0000
68.2900 254.0000 1.0000
68.3000 233.0000 1.0000
68.3100 235.0000 1.0000
68.3200 250.0000 1.0000
68.3300 236.0000 1.0000
68.3400 230.0000 1.0000
68.3500 246.0000 1.0000
68.3600 230.0000 1.0000
68.3700 222.0000 1.0000
68.3800 249.0000 1.0000
68.3900 242.0000 1.0000
68.4000 234.0000 1.0000
68.4100 255.0000 1.0000
68.4200 247.0000 1.0000
68.4300 238.0000 1.0000
68.4400 251.0000 1.0000
68.4500 241.0000 1.0000
68.4600 242.0000 1.0000
68.4700 241.0000 1.0000
68.4800 230.0000 1.0000
68.4900 245.0000 1.0000
68.5000 239.0000 1.0000
68.5100 244.0000 1.0000
68.5200 281.0000 1.0000
68.5300 237.0000 1.0000
68.5400 229.0000 1.0000
68.5500 222.0000 1.0000
68.5600 241.0000 1.0000
68.5700 247.0000 1.0000
68.5800 269.0000 1.0000
68.5900 260.0000 1.0000
68.6000 252.0000 1.0000
68.6100 229.0000 1.0000
68.6200 245.0000 1.0000
68.6300 246.0000 1.0000
68.6400 272.0000 1.0000
68.6500 233.0000 1.0000
68.6600 268.0000 1.0000
68.6700 231.0000 1.0000
68.6800 232.0000 1.0000
68.6900 262.0000 1.0000
68.7000 261.0000 1.0000
68.7100 257.0000 1.0000
68.7200 251.0000 1.0000
68.7300 232.0000 1.0000
68.7400 256.0000 1.0000
68.7500 266.0000 1.0000
68.7600 243.0000 1.0000
68.7700 223.0000 1.0000
68.7800 251.0000 1.0000
68.7900 227.0000 1.0000
68.8000 237.0000 1.0000
68.8100 241.0000 1.0000
68.8200 251.0000 1.0000
68.8300 236.0000 1.0000
68.8400 227.0000 1.0000
68.8500 247.0000 1.0000
68.8600 246.0000 1.0000
68.8700 254.0000 1.0000
68.8800 251.0000 1.0000
68.8900 238.0000 1.0000
68.9000 267.0000 1.0000
68.9100 244.0000 1.0000
68.9200 233.0000 1.0000
68.9300 239.0000 1.0000
68.9400 245.0000 1.0000
68.9500 232.0000 1.0000
68.9600 241.0000 1.0000
68.9700 241.0000 1.0000
68.9800 225.0000 1.0000
68.9900 250.0000 1.0000
69.0000 227.0000 1.0000
69.0100 237.0000 1.0000
69.0200 245.0000 1.0000
69.0300 270.0000 1.0000
69.0400 247.0000 1.0000
69.0500 250.0000 1.0000
69.0600 238.0000 1.0000
69.0700 247.0000 1.0000
69.0800 271.0000 1.0000
69.0900 243.0000 1.0000
69.1000 229.0000 1.0000
69.1100 255.0000 1.0000
69.1200 265.0000 1.0000
69.1300 267.0000 1.0000
69.1400 253.0000 1.0000
69.1500 249.0000 1.0000
69.1600 212.0000 1.0000
69.1700 217.0000 1.0000
69.1800 249.0000 1.0000
69.1900 229.0000 1.0000
69.2000 220.0000 1.0000
69.2100 232.0000 1.0000
69.2200 217.0000 1.0000
69.2300 247.0000 1.0000
69.2400 233.0000 1.0000
69.2500 224.0000 1.0000
69.2600 231.0000 1.0000
69.2700 221.0000 1.0000
69.2800 238.0000 1.0000
69.2900 252.0000 1.0000
69.3000 236.0000 1.0000
69.3100 261.0000 1.0000
69.3200 235.0000 1.0000
69.3300 223.0000 1.0000
69.3400 232.0000 1.0000
69.3500 237.0000 1.0000
69.3600 244.0000 1.0000
69.3700 268.0000 1.0000
69.3800 269.0000 1.0000
69.3900 230.0000 1.0000
69.4000 217.0000 1.0000
69.4100 254.0000 1.0000
69.4200 238.0000 1.0000
69.4300 232.0000 1.0000
69.4400 222.0000 1.0000
69.4500 235.0000 1.0000
69.4600 263.0000 1.0000
69.4700 233.0000 1.0000
69.4800 232.0000 1.0000
69.4900 226.0000 1.0000
69.5000 226.0000 1.0000
69.5100 238.0000 1.0000
69.5200 256.0000 1.0000
69.5300 237.0000 1.0000
69.5400 241.0000 1.0000
69.5500 244.0000 1.0000
69.5600 253.0000 1.0000
69.5700 246.0000 1.0000
69.5800 222.0000 1.0000
69.5900 250.0000 1.0000
69.6000 239.0000 1.0000
69.6100 225.0000 1.0000
69.6200 236.0000 1.0000
69.6300 245.0000 1.0000
69.6400 227.0000 1.0000
69.6500 209.0000 1.0000
69.6600 234.0000 1.0000
69.6700 244.0000 1.0000
69.6800 237.0000 1.0000
69.6900 229.0000 1.0000
69.7000 226.0000 1.0000
69.7100 239.0000 1.0000
69.7200 242.0000 1.0000
69.7300 259.0000 1.0000
69.7400 236.0000 1.0000
69.7500 231.0000 1.0000
69.7600 224.0000 1.0000
69.7700 222.0000 1.0000
69.7800 208.0000 1.0000
69.7900 231.0000 1.0000
69.8000 224.0000 1.0000
69.8100 210.0000 1.0000
69.8200 240.0000 1.0000
69.8300 225.0000 1.0000
69.8400 226.0000 1.0000
69.8500 237.0000 1.0000
69.8600 242.0000 1.0000
69.8700 286.0000 1.0000
69.8800 248.0000 1.0000
69.8900 257.0000 1.0000
69.9000 202.0000 1.0000
69.9100 248.0000 1.0000
69.9200 225.0000 1.0000
69.9300 239.0000 1.0000
69.9400 233.0000 1.0000
69.9500 224.0000 1.0000
69.9600 249.0000 1.0000
69.9700 240.0000 1.0000
69.9800 257.0000 1.0000
69.9900 236.0000 1.0000
70.0000 228.0000 1.0000
*RAS_INT_END
*RAS_TEMPERATURE_START
*RAS_TEMPERATURE_END
*RAS_DATA_END
