*RAS_DATA_START
*RAS_HEADER_START
*DISP_FMT_X "%.2f"
*DISP_FMT_Y "%.0f"
*DISP_FULLSCALE "12800.0000000000"
*DISP_LINE_COLOR "255.0000000000"
*DISP_LINE_STYLE "0.0000000000"
*DISP_LINE_WIDTH "0.2500000000"
*DISP_NOTE "測定データ-6"
*DISP_OFFSET_Y "0.0000000000"
*DISP_PEAKSEARCH_UNIT_Y "cps"
*DISP_RANGE_BOTTOM "0.0000000000"
*DISP_RANGE_LEFT "20.0000000000"
*DISP_RANGE_LOGCUTOFF "0.0100000000"
*DISP_RANGE_RIGHT "70.0000000000"
*DISP_RANGE_TOP "12800.0000000000"
*DISP_SCALE_MODE_Y "0.0000000000"
*DISP_TAB_NAME "2θ/θ"
*DISP_TITLE_Y "強度"
*DISP_UNIT_Y "cps"
*DISP_WINDOW_NAME "MSG_MACROENGINE"
*FILE_COMMENT " "
*FILE_MD5 ""
*FILE_MEMO " "
*FILE_OPERATOR "Administrator"
*FILE_SAMPLE " "
*FILE_TYPE "RAS_RAW"
*FILE_USERGROUP "システムマネージャ"
*FILE_VERSION "1.0000000000"
*HW_ATTACHMENT_ID "ATT0025"
*HW_ATTACHMENT_NAME "標準|Standard"
*HW_COUNTER_ID-0 "CUT0025"
*HW_COUNTER_ID-1 "CUT0020"
*HW_COUNTER_ID-2 "CUT0020"
*HW_COUNTER_ID-3 "CSL0021"
*HW_COUNTER_ID-4 "CMC0021"
*HW_COUNTER_NAME-0 "D/teX Ultra|D/teX Ultra"
*HW_COUNTER_NAME-1 "None|None"
*HW_COUNTER_NAME-2 "None|None"
*HW_COUNTER_NAME-3 "BBM|BBM"
*HW_COUNTER_NAME-4 "検出器モノクロメータ|Detector monochromator"
*HW_COUNTER_SELECT_NAME "D/teX Ultra|D/teX Ultra"
*HW_GONIOMETER_ID "GON0023"
*HW_GONIOMETER_NAME "SmartLab|SmartLab"
*HW_GONIOMETER_RADIUS-0 "90.0"
*HW_GONIOMETER_RADIUS-1 "114.0"
*HW_GONIOMETER_RADIUS-2 "190.0"
*HW_GONIOMETER_RADIUS-3 "300.0"
*HW_GONIOMETER_RADIUS-4 "187.0"
*HW_GONIOMETER_RADIUS-5 "300.0"
*HW_GONIOMETER_RADIUS-6 "113.0"
*HW_GONIOMETER_RADIUS-7 "331.0"
*HW_I_OPT_ID-0 "CBO0021"
*HW_I_OPT_ID-1 "ICR0023"
*HW_I_OPT_ID-2 "ISL0021"
*HW_I_OPT_ID-3 "ISO0021"
*HW_I_OPT_ID-4 "IAD0021"
*HW_I_OPT_ID-5 "IPR0001"
*HW_I_OPT_NAME-0 "CBOユニット|CBO unit"
*HW_I_OPT_NAME-1 "標準入射光学ユニット|Standard incident optical unit"
*HW_I_OPT_NAME-2 "標準入射スリットボックス|Standard incident slit box"
*HW_I_OPT_NAME-3 "入射平行スリット|Incident parallel slit"
*HW_I_OPT_NAME-4 "長手制限スリット|Length limiting slit"
*HW_I_OPT_NAME-5 "None|None"
*HW_R_ATTENUATER_AUTOMODE "0"
*HW_R_OPT_ID-0 "RSS0021"
*HW_R_OPT_ID-1 "RCR0023"
*HW_R_OPT_ID-2 "RSO0021"
*HW_R_OPT_ID-3 "RRS0021"
*HW_R_OPT_ID-4 "ATN0021"
*HW_R_OPT_ID-5 "RFL0021"
*HW_R_OPT_ID-6 "RAD0021"
*HW_R_OPT_NAME-0 "標準受光スリットボックス1|Standard receiving slit box # 1"
*HW_R_OPT_NAME-1 "標準受光光学ユニット1|Standard receiving unit # 1"
*HW_R_OPT_NAME-2 "標準受光光学ユニット2|Standard receiving optical unit # 2"
*HW_R_OPT_NAME-3 "標準受光スリットボックス2|Standard receiving slit box # 2"
*HW_R_OPT_NAME-4 "標準アッテネータ|Standard Attenuator"
*HW_R_OPT_NAME-5 "Cu Kβ|Cu K-beta"
*HW_R_OPT_NAME-6 "調整用受光スリット|Alignment receiving slit"
*HW_SAMPLE_HOLDER_ID "SMP0023"
*HW_SAMPLE_HOLDER_NAME "標準Zステージ|Standard Z stage"
*HW_XG_CURRENT_MAX "50"
*HW_XG_CURRENT_MIN "2"
*HW_XG_CURRENT_RESOLUTION "1"
*HW_XG_CURRENT_UNIT "mA"
*HW_XG_FOCUS "1mm x 10mm"
*HW_XG_FOCUS_TYPE "Normal"
*HW_XG_ID ""
*HW_XG_NAME "3kW 封入管(ID:1200)|3kW Sealed tube(ID:1200)"
*HW_XG_TARGET_ATOMIC_NUMBER "29.0000000000"
*HW_XG_TARGET_NAME "Cu"
*HW_XG_TYPE "Hermetic"
*HW_XG_VOLTAGE_MAX "60"
*HW_XG_VOLTAGE_MIN "20"
*HW_XG_VOLTAGE_RESOLUTION "1"
*HW_XG_VOLTAGE_UNIT "kV"
*HW_XG_WATT_MAX "1.500"
*HW_XG_WATT_UNIT "kW"
*HW_XG_WAVE_LENGTH_ALPHA1 "1.540593"
*HW_XG_WAVE_LENGTH_ALPHA2 "1.544414"
*HW_XG_WAVE_LENGTH_BETA "1.392250"
*MEAS_COND_AXIS_NAME-0 "2θ/θ"
*MEAS_COND_AXIS_NAME-1 "2θ"
*MEAS_COND_AXIS_NAME-2 "ω"
*MEAS_COND_AXIS_NAME-3 "Z"
*MEAS_COND_AXIS_NAME-4 "2θ/ω"
*MEAS_COND_AXIS_NAME-5 "θs"
*MEAS_COND_AXIS_NAME-6 "θd"
*MEAS_COND_AXIS_NAME-7 "Ts"
*MEAS_COND_AXIS_NAME-8 "CBO選択スリット"
*MEAS_COND_AXIS_NAME-9 "M"
*MEAS_COND_AXIS_NAME-10 "入射平行スリット"
*MEAS_COND_AXIS_NAME-11 "入射スリット"
*MEAS_COND_AXIS_NAME-12 ""
*MEAS_COND_AXIS_NAME-13 "Zs"
*MEAS_COND_AXIS_NAME-14 "入射光学素子"
*MEAS_COND_AXIS_NAME-15 "長手制限スリット"
*MEAS_COND_AXIS_NAME-16 "センタースリット"
*MEAS_COND_AXIS_NAME-17 "フィルター"
*MEAS_COND_AXIS_NAME-18 "受光スリット1"
*MEAS_COND_AXIS_NAME-19 "受光スリット2"
*MEAS_COND_AXIS_NAME-20 "受光光学素子"
*MEAS_COND_AXIS_NAME-21 "受光平行スリット"
*MEAS_COND_AXIS_NAME-22 "調整用受光スリット"
*MEAS_COND_AXIS_NAME-23 ""
*MEAS_COND_AXIS_NAME-24 ""
*MEAS_COND_AXIS_NAME-25 "Zd"
*MEAS_COND_AXIS_NAME-26 "アッテネータ"
*MEAS_COND_AXIS_NAME-27 "検出器モノクロメータ"
*MEAS_COND_AXIS_NAME-28 "モノクロメータスリット"
*MEAS_COND_AXIS_NAME-29 "プライマリビーム"
*MEAS_COND_AXIS_NAME-30 "PHA"
*MEAS_COND_AXIS_NAME_INTERNAL-0 "TwoThetaTheta"
*MEAS_COND_AXIS_NAME_INTERNAL-1 "TwoTheta"
*MEAS_COND_AXIS_NAME_INTERNAL-2 "Omega"
*MEAS_COND_AXIS_NAME_INTERNAL-3 "Z"
*MEAS_COND_AXIS_NAME_INTERNAL-4 "TwoThetaOmega"
*MEAS_COND_AXIS_NAME_INTERNAL-5 "ThetaS"
*MEAS_COND_AXIS_NAME_INTERNAL-6 "ThetaD"
*MEAS_COND_AXIS_NAME_INTERNAL-7 "Ts"
*MEAS_COND_AXIS_NAME_INTERNAL-8 "CBO"
*MEAS_COND_AXIS_NAME_INTERNAL-9 "CBO-M"
*MEAS_COND_AXIS_NAME_INTERNAL-10 "IncidentSollerSlit"
*MEAS_COND_AXIS_NAME_INTERNAL-11 "IncidentSlitBox"
*MEAS_COND_AXIS_NAME_INTERNAL-12 "IncidentSlitBox-_Axis"
*MEAS_COND_AXIS_NAME_INTERNAL-13 "Zs"
*MEAS_COND_AXIS_NAME_INTERNAL-14 "IncidentMonochromator"
*MEAS_COND_AXIS_NAME_INTERNAL-15 "IncidentAxdSlit"
*MEAS_COND_AXIS_NAME_INTERNAL-16 "CenterSlit"
*MEAS_COND_AXIS_NAME_INTERNAL-17 "Filter"
*MEAS_COND_AXIS_NAME_INTERNAL-18 "ReceivingSlitBox1"
*MEAS_COND_AXIS_NAME_INTERNAL-19 "ReceivingSlitBox2"
*MEAS_COND_AXIS_NAME_INTERNAL-20 "ReceivingOptics"
*MEAS_COND_AXIS_NAME_INTERNAL-21 "ReceivingSollerSlit"
*MEAS_COND_AXIS_NAME_INTERNAL-22 "ReceivingAxdSlit"
*MEAS_COND_AXIS_NAME_INTERNAL-23 "ReceivingSlitBox1-_Axis"
*MEAS_COND_AXIS_NAME_INTERNAL-24 "ReceivingSlitBox2-_Axis"
*MEAS_COND_AXIS_NAME_INTERNAL-25 "ReceivingSlitBox2-Zd"
*MEAS_COND_AXIS_NAME_INTERNAL-26 "Attenuator"
*MEAS_COND_AXIS_NAME_INTERNAL-27 "CounterMonochromator"
*MEAS_COND_AXIS_NAME_INTERNAL-28 "CounterSlit"
*MEAS_COND_AXIS_NAME_INTERNAL-29 "IncidentPrimary"
*MEAS_COND_AXIS_NAME_INTERNAL-30 "PHA"
*MEAS_COND_AXIS_NAME_MAGICNO-0 "83951616.0000000000"
*MEAS_COND_AXIS_NAME_MAGICNO-1 "268632064.0000000000"
*MEAS_COND_AXIS_NAME_MAGICNO-2 "268500992.0000000000"
*MEAS_COND_AXIS_NAME_MAGICNO-3 "285278208.0000000000"
*MEAS_COND_AXIS_NAME_MAGICNO-4 "83951616.0000000000"
*MEAS_COND_AXIS_NAME_MAGICNO-5 "131072.0000000000"
*MEAS_COND_AXIS_NAME_MAGICNO-6 "131072.0000000000"
*MEAS_COND_AXIS_NAME_MAGICNO-7 "318898176.0000000000"
*MEAS_COND_AXIS_NAME_MAGICNO-8 "20971521.0000000000"
*MEAS_COND_AXIS_NAME_MAGICNO-9 "285343744.0000000000"
*MEAS_COND_AXIS_NAME_MAGICNO-10 "20971521.0000000000"
*MEAS_COND_AXIS_NAME_MAGICNO-11 "22020097.0000000000"
*MEAS_COND_AXIS_NAME_MAGICNO-12 "25165824.0000000000"
*MEAS_COND_AXIS_NAME_MAGICNO-13 "318898176.0000000000"
*MEAS_COND_AXIS_NAME_MAGICNO-14 "1.0000000000"
*MEAS_COND_AXIS_NAME_MAGICNO-15 "20971521.0000000000"
*MEAS_COND_AXIS_NAME_MAGICNO-16 "20971521.0000000000"
*MEAS_COND_AXIS_NAME_MAGICNO-17 "20971521.0000000000"
*MEAS_COND_AXIS_NAME_MAGICNO-18 "23068673.0000000000"
*MEAS_COND_AXIS_NAME_MAGICNO-19 "23068673.0000000000"
*MEAS_COND_AXIS_NAME_MAGICNO-20 "20971521.0000000000"
*MEAS_COND_AXIS_NAME_MAGICNO-21 "20971521.0000000000"
*MEAS_COND_AXIS_NAME_MAGICNO-22 "20971521.0000000000"
*MEAS_COND_AXIS_NAME_MAGICNO-23 "25165824.0000000000"
*MEAS_COND_AXIS_NAME_MAGICNO-24 "25165824.0000000000"
*MEAS_COND_AXIS_NAME_MAGICNO-25 "285343744.0000000000"
*MEAS_COND_AXIS_NAME_MAGICNO-26 "17301505.0000000000"
*MEAS_COND_AXIS_NAME_MAGICNO-27 "20971521.0000000000"
*MEAS_COND_AXIS_NAME_MAGICNO-28 "20971521.0000000000"
*MEAS_COND_AXIS_NAME_MAGICNO-29 "20971521.0000000000"
*MEAS_COND_AXIS_NAME_MAGICNO-30 "0.0000000000"
*MEAS_COND_AXIS_OFFSET-0 "-"
*MEAS_COND_AXIS_OFFSET-1 "-0.0310000000"
*MEAS_COND_AXIS_OFFSET-2 "0.5143000000"
*MEAS_COND_AXIS_OFFSET-3 "-"
*MEAS_COND_AXIS_OFFSET-4 "-"
*MEAS_COND_AXIS_OFFSET-5 "0.5143000000"
*MEAS_COND_AXIS_OFFSET-6 "-0.5453000000"
*MEAS_COND_AXIS_OFFSET-7 "-"
*MEAS_COND_AXIS_OFFSET-8 "-"
*MEAS_COND_AXIS_OFFSET-9 "-"
*MEAS_COND_AXIS_OFFSET-10 "-"
*MEAS_COND_AXIS_OFFSET-11 "-"
*MEAS_COND_AXIS_OFFSET-12 "-"
*MEAS_COND_AXIS_OFFSET-13 "-"
*MEAS_COND_AXIS_OFFSET-14 "-"
*MEAS_COND_AXIS_OFFSET-15 "-"
*MEAS_COND_AXIS_OFFSET-16 "-"
*MEAS_COND_AXIS_OFFSET-17 "-"
*MEAS_COND_AXIS_OFFSET-18 "-"
*MEAS_COND_AXIS_OFFSET-19 "-"
*MEAS_COND_AXIS_OFFSET-20 "-"
*MEAS_COND_AXIS_OFFSET-21 "-"
*MEAS_COND_AXIS_OFFSET-22 "-"
*MEAS_COND_AXIS_OFFSET-23 "-"
*MEAS_COND_AXIS_OFFSET-24 "-"
*MEAS_COND_AXIS_OFFSET-25 "-"
*MEAS_COND_AXIS_OFFSET-26 "-"
*MEAS_COND_AXIS_OFFSET-27 "-"
*MEAS_COND_AXIS_OFFSET-28 "-"
*MEAS_COND_AXIS_OFFSET-29 "-"
*MEAS_COND_AXIS_OFFSET-30 "-"
*MEAS_COND_AXIS_POSITION-0 "0.0000000000"
*MEAS_COND_AXIS_POSITION-1 "0.0000000000"
*MEAS_COND_AXIS_POSITION-2 "0.0000000000"
*MEAS_COND_AXIS_POSITION-3 "-2.9061800000"
*MEAS_COND_AXIS_POSITION-4 "0.0000000000"
*MEAS_COND_AXIS_POSITION-5 "0.0000000000"
*MEAS_COND_AXIS_POSITION-6 "0.0000000000"
*MEAS_COND_AXIS_POSITION-7 "-0.7498700000"
*MEAS_COND_AXIS_POSITION-8 "BB"
*MEAS_COND_AXIS_POSITION-9 "0.0000000000"
*MEAS_COND_AXIS_POSITION-10 "Soller_slit_5.0deg"
*MEAS_COND_AXIS_POSITION-11 "2/3deg"
*MEAS_COND_AXIS_POSITION-12 "2.2088000000"
*MEAS_COND_AXIS_POSITION-13 "-0.6412500000"
*MEAS_COND_AXIS_POSITION-14 "0.0000000000"
*MEAS_COND_AXIS_POSITION-15 "10.0mm"
*MEAS_COND_AXIS_POSITION-16 "None"
*MEAS_COND_AXIS_POSITION-17 "Cu_K-beta"
*MEAS_COND_AXIS_POSITION-18 "13.000mm"
*MEAS_COND_AXIS_POSITION-19 "13.000mm"
*MEAS_COND_AXIS_POSITION-20 "No_unit"
*MEAS_COND_AXIS_POSITION-21 "Soller_slit_5.0deg"
*MEAS_COND_AXIS_POSITION-22 "None"
*MEAS_COND_AXIS_POSITION-23 "13.0000000000"
*MEAS_COND_AXIS_POSITION-24 "13.0000000000"
*MEAS_COND_AXIS_POSITION-25 "0.0281300000"
*MEAS_COND_AXIS_POSITION-26 "Open"
*MEAS_COND_AXIS_POSITION-27 "None"
*MEAS_COND_AXIS_POSITION-28 "None"
*MEAS_COND_AXIS_POSITION-29 "None"
*MEAS_COND_AXIS_POSITION-30 "38.0000000000"
*MEAS_COND_AXIS_UNIT-0 "deg"
*MEAS_COND_AXIS_UNIT-1 "deg"
*MEAS_COND_AXIS_UNIT-2 "deg"
*MEAS_COND_AXIS_UNIT-3 "mm"
*MEAS_COND_AXIS_UNIT-4 "deg"
*MEAS_COND_AXIS_UNIT-5 "deg"
*MEAS_COND_AXIS_UNIT-6 "deg"
*MEAS_COND_AXIS_UNIT-7 "mm"
*MEAS_COND_AXIS_UNIT-8 ""
*MEAS_COND_AXIS_UNIT-9 "pulse"
*MEAS_COND_AXIS_UNIT-10 ""
*MEAS_COND_AXIS_UNIT-11 ""
*MEAS_COND_AXIS_UNIT-12 "mm"
*MEAS_COND_AXIS_UNIT-13 "mm"
*MEAS_COND_AXIS_UNIT-14 ""
*MEAS_COND_AXIS_UNIT-15 ""
*MEAS_COND_AXIS_UNIT-16 ""
*MEAS_COND_AXIS_UNIT-17 ""
*MEAS_COND_AXIS_UNIT-18 ""
*MEAS_COND_AXIS_UNIT-19 ""
*MEAS_COND_AXIS_UNIT-20 ""
*MEAS_COND_AXIS_UNIT-21 ""
*MEAS_COND_AXIS_UNIT-22 ""
*MEAS_COND_AXIS_UNIT-23 "mm"
*MEAS_COND_AXIS_UNIT-24 "mm"
*MEAS_COND_AXIS_UNIT-25 "mm"
*MEAS_COND_AXIS_UNIT-26 ""
*MEAS_COND_AXIS_UNIT-27 ""
*MEAS_COND_AXIS_UNIT-28 ""
*MEAS_COND_AXIS_UNIT-29 ""
*MEAS_COND_AXIS_UNIT-30 "div"
*MEAS_COND_COUNTER_CNTLOSS_CORR "0.0000000000"
*MEAS_COND_COUNTER_PHABASE "38.0000000000"
*MEAS_COND_COUNTER_PHAWINDOW "16.0000000000"
*MEAS_COND_COUNTER_PHA_UNIT "div"
*MEAS_COND_COUNTER_TAUDIFF "30.0000000000"
*MEAS_COND_COUNTER_TAUINT "0.0000000000"
*MEAS_COND_IRRADIATION_MODE "OFF"
*MEAS_COND_IRRADIATION_WIDTH ""
*MEAS_COND_OPT_ATTR "集中法"
*MEAS_COND_OPT_NAME "@集中法"
*MEAS_COND_UNSYMMETRIC_MODE "OFF"
*MEAS_COND_XG_CURRENT "30.0000000000"
*MEAS_COND_XG_VOLTAGE "40.0000000000"
*MEAS_COND_XG_WAVE_TYPE "Ka"
*MEAS_DATA_COUNT "5001.0000000000"
*MEAS_SCAN_AXIS_X "2θ/θ"
*MEAS_SCAN_AXIS_X_INTERNAL "TwoThetaTheta"
*MEAS_SCAN_END_TIME "12/20/22 20:09:11"
*MEAS_SCAN_MODE "CONTINUOUS"
*MEAS_SCAN_MONITOR "0"
*MEAS_SCAN_RESOLUTION_X "0.0002"
*MEAS_SCAN_SPEED "2.5"
*MEAS_SCAN_SPEED_UNIT "deg/min"
*MEAS_SCAN_START "20.0000000000"
*MEAS_SCAN_START_TIME "12/20/22 19:47:48"
*MEAS_SCAN_STEP "0.0100000000"
*MEAS_SCAN_STOP "70.0000000000"
*MEAS_SCAN_UNIT_X "deg"
*MEAS_SCAN_UNIT_Y "counts"
*RAS_HEADER_END
*RAS_INT_START
20.0000 862.0000 1.0000
20.0100 834.0000 1.0000
20.0200 833.0000 1.0000
20.0300 828.0000 1.0000
20.0400 811.0000 1.0000
20.0500 820.0000 1.0000
20.0600 873.0000 1.0000
20.0700 882.0000 1.0000
20.0800 840.0000 1.0000
20.0900 834.0000 1.0000
20.1000 863.0000 1.0000
20.1100 840.0000 1.0000
20.1200 837.0000 1.0000
20.1300 835.0000 1.0000
20.1400 854.0000 1.0000
20.1500 880.0000 1.0000
20.1600 798.0000 1.0000
20.1700 833.0000 1.0000
20.1800 872.0000 1.0000
20.1900 845.0000 1.0000
20.2000 862.0000 1.0000
20.2100 841.0000 1.0000
20.2200 882.0000 1.0000
20.2300 826.0000 1.0000
20.2400 853.0000 1.0000
20.2500 890.0000 1.0000
20.2600 823.0000 1.0000
20.2700 829.0000 1.0000
20.2800 914.0000 1.0000
20.2900 843.0000 1.0000
20.3000 833.0000 1.0000
20.3100 835.0000 1.0000
20.3200 831.0000 1.0000
20.3300 865.0000 1.0000
20.3400 846.0000 1.0000
20.3500 856.0000 1.0000
20.3600 841.0000 1.0000
20.3700 890.0000 1.0000
20.3800 845.0000 1.0000
20.3900 839.0000 1.0000
20.4000 855.0000 1.0000
20.4100 879.0000 1.0000
20.4200 914.0000 1.0000
20.4300 788.0000 1.0000
20.4400 856.0000 1.0000
20.4500 836.0000 1.0000
20.4600 856.0000 1.0000
20.4700 863.0000 1.0000
20.4800 863.0000 1.0000
20.4900 866.0000 1.0000
20.5000 875.0000 1.0000
20.5100 846.0000 1.0000
20.5200 851.0000 1.0000
20.5300 861.0000 1.0000
20.5400 862.0000 1.0000
20.5500 900.0000 1.0000
20.5600 891.0000 1.0000
20.5700 840.0000 1.0000
20.5800 835.0000 1.0000
20.5900 811.0000 1.0000
20.6000 879.0000 1.0000
20.6100 880.0000 1.0000
20.6200 854.0000 1.0000
20.6300 865.0000 1.0000
20.6400 866.0000 1.0000
20.6500 841.0000 1.0000
20.6600 860.0000 1.0000
20.6700 852.0000 1.0000
20.6800 861.0000 1.0000
20.6900 859.0000 1.0000
20.7000 835.0000 1.0000
20.7100 843.0000 1.0000
20.7200 827.0000 1.0000
20.7300 824.0000 1.0000
20.7400 832.0000 1.0000
20.7500 858.0000 1.0000
20.7600 840.0000 1.0000
20.7700 819.0000 1.0000
20.7800 848.0000 1.0000
20.7900 862.0000 1.0000
20.8000 880.0000 1.0000
20.8100 855.0000 1.0000
20.8200 880.0000 1.0000
20.8300 866.0000 1.0000
20.8400 874.0000 1.0000
20.8500 899.0000 1.0000
20.8600 874.0000 1.0000
20.8700 811.0000 1.0000
20.8800 842.0000 1.0000
20.8900 837.0000 1.0000
20.9000 832.0000 1.0000
20.9100 853.0000 1.0000
20.9200 811.0000 1.0000
20.9300 839.0000 1.0000
20.9400 858.0000 1.0000
20.9500 841.0000 1.0000
20.9600 842.0000 1.0000
20.9700 853.0000 1.0000
20.9800 857.0000 1.0000
20.9900 881.0000 1.0000
21.0000 871.0000 1.0000
21.0100 841.0000 1.0000
21.0200 873.0000 1.0000
21.0300 832.0000 1.0000
21.0400 813.0000 1.0000
21.0500 857.0000 1.0000
21.0600 807.0000 1.0000
21.0700 873.0000 1.0000
21.0800 853.0000 1.0000
21.0900 798.0000 1.0000
21.1000 828.0000 1.0000
21.1100 906.0000 1.0000
21.1200 846.0000 1.0000
21.1300 852.0000 1.0000
21.1400 857.0000 1.0000
21.1500 842.0000 1.0000
21.1600 778.0000 1.0000
21.1700 818.0000 1.0000
21.1800 848.0000 1.0000
21.1900 874.0000 1.0000
21.2000 848.0000 1.0000
21.2100 877.0000 1.0000
21.2200 888.0000 1.0000
21.2300 819.0000 1.0000
21.2400 816.0000 1.0000
21.2500 837.0000 1.0000
21.2600 842.0000 1.0000
21.2700 807.0000 1.0000
21.2800 834.0000 1.0000
21.2900 842.0000 1.0000
21.3000 831.0000 1.0000
21.3100 817.0000 1.0000
21.3200 809.0000 1.0000
21.3300 872.0000 1.0000
21.3400 833.0000 1.0000
21.3500 857.0000 1.0000
21.3600 815.0000 1.0000
21.3700 789.0000 1.0000
21.3800 816.0000 1.0000
21.3900 835.0000 1.0000
21.4000 872.0000 1.0000
21.4100 852.0000 1.0000
21.4200 833.0000 1.0000
21.4300 844.0000 1.0000
21.4400 878.0000 1.0000
21.4500 858.0000 1.0000
21.4600 821.0000 1.0000
21.4700 829.0000 1.0000
21.4800 891.0000 1.0000
21.4900 824.0000 1.0000
21.5000 811.0000 1.0000
21.5100 855.0000 1.0000
21.5200 864.0000 1.0000
21.5300 812.0000 1.0000
21.5400 881.0000 1.0000
21.5500 854.0000 1.0000
21.5600 867.0000 1.0000
21.5700 847.0000 1.0000
21.5800 846.0000 1.0000
21.5900 869.0000 1.0000
21.6000 813.0000 1.0000
21.6100 847.0000 1.0000
21.6200 847.0000 1.0000
21.6300 799.0000 1.0000
21.6400 839.0000 1.0000
21.6500 845.0000 1.0000
21.6600 836.0000 1.0000
21.6700 863.0000 1.0000
21.6800 808.0000 1.0000
21.6900 820.0000 1.0000
21.7000 836.0000 1.0000
21.7100 832.0000 1.0000
21.7200 836.0000 1.0000
21.7300 824.0000 1.0000
21.7400 862.0000 1.0000
21.7500 813.0000 1.0000
21.7600 854.0000 1.0000
21.7700 828.0000 1.0000
21.7800 851.0000 1.0000
21.7900 838.0000 1.0000
21.8000 848.0000 1.0000
21.8100 834.0000 1.0000
21.8200 823.0000 1.0000
21.8300 836.0000 1.0000
21.8400 811.0000 1.0000
21.8500 822.0000 1.0000
21.8600 828.0000 1.0000
21.8700 872.0000 1.0000
21.8800 853.0000 1.0000
21.8900 835.0000 1.0000
21.9000 837.0000 1.0000
21.9100 849.0000 1.0000
21.9200 810.0000 1.0000
21.9300 826.0000 1.0000
21.9400 883.0000 1.0000
21.9500 860.0000 1.0000
21.9600 884.0000 1.0000
21.9700 852.0000 1.0000
21.9800 893.0000 1.0000
21.9900 918.0000 1.0000
22.0000 857.0000 1.0000
22.0100 850.0000 1.0000
22.0200 867.0000 1.0000
22.0300 814.0000 1.0000
22.0400 844.0000 1.0000
22.0500 880.0000 1.0000
22.0600 827.0000 1.0000
22.0700 814.0000 1.0000
22.0800 810.0000 1.0000
22.0900 854.0000 1.0000
22.1000 795.0000 1.0000
22.1100 802.0000 1.0000
22.1200 829.0000 1.0000
22.1300 815.0000 1.0000
22.1400 800.0000 1.0000
22.1500 837.0000 1.0000
22.1600 854.0000 1.0000
22.1700 847.0000 1.0000
22.1800 816.0000 1.0000
22.1900 847.0000 1.0000
22.2000 834.0000 1.0000
22.2100 833.0000 1.0000
22.2200 839.0000 1.0000
22.2300 829.0000 1.0000
22.2400 861.0000 1.0000
22.2500 785.0000 1.0000
22.2600 803.0000 1.0000
22.2700 819.0000 1.0000
22.2800 826.0000 1.0000
22.2900 829.0000 1.0000
22.3000 773.0000 1.0000
22.3100 832.0000 1.0000
22.3200 842.0000 1.0000
22.3300 869.0000 1.0000
22.3400 798.0000 1.0000
22.3500 842.0000 1.0000
22.3600 839.0000 1.0000
22.3700 814.0000 1.0000
22.3800 850.0000 1.0000
22.3900 838.0000 1.0000
22.4000 846.0000 1.0000
22.4100 772.0000 1.0000
22.4200 828.0000 1.0000
22.4300 863.0000 1.0000
22.4400 831.0000 1.0000
22.4500 795.0000 1.0000
22.4600 819.0000 1.0000
22.4700 827.0000 1.0000
22.4800 806.0000 1.0000
22.4900 841.0000 1.0000
22.5000 838.0000 1.0000
22.5100 792.0000 1.0000
22.5200 833.0000 1.0000
22.5300 845.0000 1.0000
22.5400 833.0000 1.0000
22.5500 845.0000 1.0000
22.5600 842.0000 1.0000
22.5700 846.0000 1.0000
22.5800 813.0000 1.0000
22.5900 854.0000 1.0000
22.6000 812.0000 1.0000
22.6100 843.0000 1.0000
22.6200 792.0000 1.0000
22.6300 835.0000 1.0000
22.6400 838.0000 1.0000
22.6500 807.0000 1.0000
22.6600 864.0000 1.0000
22.6700 789.0000 1.0000
22.6800 797.0000 1.0000
22.6900 830.0000 1.0000
22.7000 820.0000 1.0000
22.7100 846.0000 1.0000
22.7200 837.0000 1.0000
22.7300 792.0000 1.0000
22.7400 829.0000 1.0000
22.7500 837.0000 1.0000
22.7600 839.0000 1.0000
22.7700 823.0000 1.0000
22.7800 812.0000 1.0000
22.7900 812.0000 1.0000
22.8000 807.0000 1.0000
22.8100 804.0000 1.0000
22.8200 818.0000 1.0000
22.8300 833.0000 1.0000
22.8400 797.0000 1.0000
22.8500 837.0000 1.0000
22.8600 813.0000 1.0000
22.8700 792.0000 1.0000
22.8800 772.0000 1.0000
22.8900 773.0000 1.0000
22.9000 796.0000 1.0000
22.9100 828.0000 1.0000
22.9200 801.0000 1.0000
22.9300 815.0000 1.0000
22.9400 841.0000 1.0000
22.9500 833.0000 1.0000
22.9600 879.0000 1.0000
22.9700 819.0000 1.0000
22.9800 828.0000 1.0000
22.9900 782.0000 1.0000
23.0000 794.0000 1.0000
23.0100 827.0000 1.0000
23.0200 833.0000 1.0000
23.0300 813.0000 1.0000
23.0400 773.0000 1.0000
23.0500 838.0000 1.0000
23.0600 855.0000 1.0000
23.0700 841.0000 1.0000
23.0800 831.0000 1.0000
23.0900 900.0000 1.0000
23.1000 813.0000 1.0000
23.1100 834.0000 1.0000
23.1200 803.0000 1.0000
23.1300 816.0000 1.0000
23.1400 813.0000 1.0000
23.1500 794.0000 1.0000
23.1600 830.0000 1.0000
23.1700 781.0000 1.0000
23.1800 794.0000 1.0000
23.1900 788.0000 1.0000
23.2000 821.0000 1.0000
23.2100 833.0000 1.0000
23.2200 800.0000 1.0000
23.2300 789.0000 1.0000
23.2400 805.0000 1.0000
23.2500 777.0000 1.0000
23.2600 757.0000 1.0000
23.2700 817.0000 1.0000
23.2800 822.0000 1.0000
23.2900 812.0000 1.0000
23.3000 810.0000 1.0000
23.3100 799.0000 1.0000
23.3200 818.0000 1.0000
23.3300 780.0000 1.0000
23.3400 829.0000 1.0000
23.3500 832.0000 1.0000
23.3600 779.0000 1.0000
23.3700 839.0000 1.0000
23.3800 807.0000 1.0000
23.3900 834.0000 1.0000
23.4000 802.0000 1.0000
23.4100 813.0000 1.0000
23.4200 822.0000 1.0000
23.4300 819.0000 1.0000
23.4400 813.0000 1.0000
23.4500 800.0000 1.0000
23.4600 796.0000 1.0000
23.4700 846.0000 1.0000
23.4800 875.0000 1.0000
23.4900 785.0000 1.0000
23.5000 813.0000 1.0000
23.5100 817.0000 1.0000
23.5200 822.0000 1.0000
23.5300 864.0000 1.0000
23.5400 862.0000 1.0000
23.5500 819.0000 1.0000
23.5600 801.0000 1.0000
23.5700 789.0000 1.0000
23.5800 828.0000 1.0000
23.5900 812.0000 1.0000
23.6000 842.0000 1.0000
23.6100 775.0000 1.0000
23.6200 859.0000 1.0000
23.6300 820.0000 1.0000
23.6400 833.0000 1.0000
23.6500 816.0000 1.0000
23.6600 804.0000 1.0000
23.6700 814.0000 1.0000
23.6800 859.0000 1.0000
23.6900 877.0000 1.0000
23.7000 800.0000 1.0000
23.7100 810.0000 1.0000
23.7200 820.0000 1.0000
23.7300 835.0000 1.0000
23.7400 827.0000 1.0000
23.7500 801.0000 1.0000
23.7600 813.0000 1.0000
23.7700 798.0000 1.0000
23.7800 799.0000 1.0000
23.7900 802.0000 1.0000
23.8000 859.0000 1.0000
23.8100 812.0000 1.0000
23.8200 816.0000 1.0000
23.8300 843.0000 1.0000
23.8400 853.0000 1.0000
23.8500 839.0000 1.0000
23.8600 793.0000 1.0000
23.8700 826.0000 1.0000
23.8800 855.0000 1.0000
23.8900 872.0000 1.0000
23.9000 859.0000 1.0000
23.9100 877.0000 1.0000
23.9200 816.0000 1.0000
23.9300 823.0000 1.0000
23.9400 847.0000 1.0000
23.9500 833.0000 1.0000
23.9600 811.0000 1.0000
23.9700 827.0000 1.0000
23.9800 880.0000 1.0000
23.9900 825.0000 1.0000
24.0000 830.0000 1.0000
24.0100 890.0000 1.0000
24.0200 825.0000 1.0000
24.0300 861.0000 1.0000
24.0400 914.0000 1.0000
24.0500 897.0000 1.0000
24.0600 909.0000 1.0000
24.0700 881.0000 1.0000
24.0800 860.0000 1.0000
24.0900 862.0000 1.0000
24.1000 870.0000 1.0000
24.1100 899.0000 1.0000
24.1200 855.0000 1.0000
24.1300 847.0000 1.0000
24.1400 872.0000 1.0000
24.1500 875.0000 1.0000
24.1600 841.0000 1.0000
24.1700 827.0000 1.0000
24.1800 882.0000 1.0000
24.1900 864.0000 1.0000
24.2000 866.0000 1.0000
24.2100 814.0000 1.0000
24.2200 833.0000 1.0000
24.2300 882.0000 1.0000
24.2400 839.0000 1.0000
24.2500 801.0000 1.0000
24.2600 852.0000 1.0000
24.2700 864.0000 1.0000
24.2800 802.0000 1.0000
24.2900 808.0000 1.0000
24.3000 817.0000 1.0000
24.3100 820.0000 1.0000
24.3200 851.0000 1.0000
24.3300 832.0000 1.0000
24.3400 789.0000 1.0000
24.3500 819.0000 1.0000
24.3600 803.0000 1.0000
24.3700 823.0000 1.0000
24.3800 789.0000 1.0000
24.3900 794.0000 1.0000
24.4000 824.0000 1.0000
24.4100 799.0000 1.0000
24.4200 820.0000 1.0000
24.4300 851.0000 1.0000
24.4400 770.0000 1.0000
24.4500 779.0000 1.0000
24.4600 815.0000 1.0000
24.4700 800.0000 1.0000
24.4800 776.0000 1.0000
24.4900 827.0000 1.0000
24.5000 776.0000 1.0000
24.5100 813.0000 1.0000
24.5200 773.0000 1.0000
24.5300 796.0000 1.0000
24.5400 847.0000 1.0000
24.5500 805.0000 1.0000
24.5600 795.0000 1.0000
24.5700 777.0000 1.0000
24.5800 817.0000 1.0000
24.5900 760.0000 1.0000
24.6000 794.0000 1.0000
24.6100 813.0000 1.0000
24.6200 846.0000 1.0000
24.6300 819.0000 1.0000
24.6400 825.0000 1.0000
24.6500 795.0000 1.0000
24.6600 803.0000 1.0000
24.6700 823.0000 1.0000
24.6800 814.0000 1.0000
24.6900 766.0000 1.0000
24.7000 785.0000 1.0000
24.7100 811.0000 1.0000
24.7200 768.0000 1.0000
24.7300 742.0000 1.0000
24.7400 791.0000 1.0000
24.7500 822.0000 1.0000
24.7600 794.0000 1.0000
24.7700 819.0000 1.0000
24.7800 800.0000 1.0000
24.7900 777.0000 1.0000
24.8000 760.0000 1.0000
24.8100 732.0000 1.0000
24.8200 798.0000 1.0000
24.8300 806.0000 1.0000
24.8400 774.0000 1.0000
24.8500 779.0000 1.0000
24.8600 814.0000 1.0000
24.8700 768.0000 1.0000
24.8800 797.0000 1.0000
24.8900 778.0000 1.0000
24.9000 795.0000 1.0000
24.9100 801.0000 1.0000
24.9200 793.0000 1.0000
24.9300 802.0000 1.0000
24.9400 813.0000 1.0000
24.9500 740.0000 1.0000
24.9600 798.0000 1.0000
24.9700 751.0000 1.0000
24.9800 796.0000 1.0000
24.9900 767.0000 1.0000
25.0000 835.0000 1.0000
25.0100 793.0000 1.0000
25.0200 767.0000 1.0000
25.0300 778.0000 1.0000
25.0400 785.0000 1.0000
25.0500 798.0000 1.0000
25.0600 795.0000 1.0000
25.0700 782.0000 1.0000
25.0800 742.0000 1.0000
25.0900 782.0000 1.0000
25.1000 825.0000 1.0000
25.1100 802.0000 1.0000
25.1200 801.0000 1.0000
25.1300 826.0000 1.0000
25.1400 788.0000 1.0000
25.1500 758.0000 1.0000
25.1600 739.0000 1.0000
25.1700 772.0000 1.0000
25.1800 755.0000 1.0000
25.1900 748.0000 1.0000
25.2000 771.0000 1.0000
25.2100 791.0000 1.0000
25.2200 792.0000 1.0000
25.2300 777.0000 1.0000
25.2400 756.0000 1.0000
25.2500 801.0000 1.0000
25.2600 785.0000 1.0000
25.2700 819.0000 1.0000
25.2800 740.0000 1.0000
25.2900 740.0000 1.0000
25.3000 794.0000 1.0000
25.3100 772.0000 1.0000
25.3200 753.0000 1.0000
25.3300 800.0000 1.0000
25.3400 770.0000 1.0000
25.3500 767.0000 1.0000
25.3600 832.0000 1.0000
25.3700 775.0000 1.0000
25.3800 763.0000 1.0000
25.3900 743.0000 1.0000
25.4000 780.0000 1.0000
25.4100 788.0000 1.0000
25.4200 794.0000 1.0000
25.4300 815.0000 1.0000
25.4400 815.0000 1.0000
25.4500 751.0000 1.0000
25.4600 756.0000 1.0000
25.4700 793.0000 1.0000
25.4800 797.0000 1.0000
25.4900 822.0000 1.0000
25.5000 772.0000 1.0000
25.5100 809.0000 1.0000
25.5200 817.0000 1.0000
25.5300 786.0000 1.0000
25.5400 777.0000 1.0000
25.5500 785.0000 1.0000
25.5600 798.0000 1.0000
25.5700 778.0000 1.0000
25.5800 845.0000 1.0000
25.5900 801.0000 1.0000
25.6000 787.0000 1.0000
25.6100 807.0000 1.0000
25.6200 830.0000 1.0000
25.6300 830.0000 1.0000
25.6400 824.0000 1.0000
25.6500 816.0000 1.0000
25.6600 834.0000 1.0000
25.6700 816.0000 1.0000
25.6800 792.0000 1.0000
25.6900 794.0000 1.0000
25.7000 726.0000 1.0000
25.7100 763.0000 1.0000
25.7200 854.0000 1.0000
25.7300 762.0000 1.0000
25.7400 804.0000 1.0000
25.7500 801.0000 1.0000
25.7600 836.0000 1.0000
25.7700 780.0000 1.0000
25.7800 798.0000 1.0000
25.7900 803.0000 1.0000
25.8000 795.0000 1.0000
25.8100 829.0000 1.0000
25.8200 796.0000 1.0000
25.8300 811.0000 1.0000
25.8400 780.0000 1.0000
25.8500 831.0000 1.0000
25.8600 779.0000 1.0000
25.8700 808.0000 1.0000
25.8800 786.0000 1.0000
25.8900 820.0000 1.0000
25.9000 799.0000 1.0000
25.9100 822.0000 1.0000
25.9200 791.0000 1.0000
25.9300 860.0000 1.0000
25.9400 807.0000 1.0000
25.9500 834.0000 1.0000
25.9600 824.0000 1.0000
25.9700 840.0000 1.0000
25.9800 856.0000 1.0000
25.9900 846.0000 1.0000
26.0000 866.0000 1.0000
26.0100 869.0000 1.0000
26.0200 852.0000 1.0000
26.0300 823.0000 1.0000
26.0400 875.0000 1.0000
26.0500 891.0000 1.0000
26.0600 848.0000 1.0000
26.0700 927.0000 1.0000
26.0800 906.0000 1.0000
26.0900 929.0000 1.0000
26.1000 920.0000 1.0000
26.1100 953.0000 1.0000
26.1200 924.0000 1.0000
26.1300 986.0000 1.0000
26.1400 1021.0000 1.0000
26.1500 1015.0000 1.0000
26.1600 991.0000 1.0000
26.1700 1005.0000 1.0000
26.1800 1037.0000 1.0000
26.1900 1079.0000 1.0000
26.2000 1095.0000 1.0000
26.2100 1133.0000 1.0000
26.2200 1143.0000 1.0000
26.2300 1213.0000 1.0000
26.2400 1173.0000 1.0000
26.2500 1279.0000 1.0000
26.2600 1292.0000 1.0000
26.2700 1349.0000 1.0000
26.2800 1308.0000 1.0000
26.2900 1353.0000 1.0000
26.3000 1427.0000 1.0000
26.3100 1455.0000 1.0000
26.3200 1564.0000 1.0000
26.3300 1717.0000 1.0000
26.3400 1720.0000 1.0000
26.3500 1803.0000 1.0000
26.3600 1929.0000 1.0000
26.3700 1983.0000 1.0000
26.3800 2145.0000 1.0000
26.3900 2266.0000 1.0000
26.4000 2305.0000 1.0000
26.4100 2421.0000 1.0000
26.4200 2495.0000 1.0000
26.4300 2470.0000 1.0000
26.4400 2560.0000 1.0000
26.4500 2494.0000 1.0000
26.4600 2525.0000 1.0000
26.4700 2446.0000 1.0000
26.4800 2361.0000 1.0000
26.4900 2331.0000 1.0000
26.5000 2269.0000 1.0000
26.5100 2224.0000 1.0000
26.5200 2063.0000 1.0000
26.5300 1947.0000 1.0000
26.5400 1814.0000 1.0000
26.5500 1844.0000 1.0000
26.5600 1704.0000 1.0000
26.5700 1607.0000 1.0000
26.5800 1473.0000 1.0000
26.5900 1422.0000 1.0000
26.6000 1410.0000 1.0000
26.6100 1285.0000 1.0000
26.6200 1277.0000 1.0000
26.6300 1239.0000 1.0000
26.6400 1243.0000 1.0000
26.6500 1161.0000 1.0000
26.6600 1179.0000 1.0000
26.6700 1161.0000 1.0000
26.6800 1130.0000 1.0000
26.6900 1086.0000 1.0000
26.7000 1063.0000 1.0000
26.7100 974.0000 1.0000
26.7200 1010.0000 1.0000
26.7300 959.0000 1.0000
26.7400 984.0000 1.0000
26.7500 936.0000 1.0000
26.7600 887.0000 1.0000
26.7700 960.0000 1.0000
26.7800 978.0000 1.0000
26.7900 951.0000 1.0000
26.8000 891.0000 1.0000
26.8100 853.0000 1.0000
26.8200 852.0000 1.0000
26.8300 878.0000 1.0000
26.8400 865.0000 1.0000
26.8500 848.0000 1.0000
26.8600 887.0000 1.0000
26.8700 830.0000 1.0000
26.8800 846.0000 1.0000
26.8900 845.0000 1.0000
26.9000 762.0000 1.0000
26.9100 796.0000 1.0000
26.9200 781.0000 1.0000
26.9300 800.0000 1.0000
26.9400 829.0000 1.0000
26.9500 800.0000 1.0000
26.9600 759.0000 1.0000
26.9700 800.0000 1.0000
26.9800 753.0000 1.0000
26.9900 794.0000 1.0000
27.0000 791.0000 1.0000
27.0100 770.0000 1.0000
27.0200 753.0000 1.0000
27.0300 781.0000 1.0000
27.0400 778.0000 1.0000
27.0500 769.0000 1.0000
27.0600 775.0000 1.0000
27.0700 782.0000 1.0000
27.0800 777.0000 1.0000
27.0900 777.0000 1.0000
27.1000 743.0000 1.0000
27.1100 755.0000 1.0000
27.1200 759.0000 1.0000
27.1300 801.0000 1.0000
27.1400 747.0000 1.0000
27.1500 744.0000 1.0000
27.1600 726.0000 1.0000
27.1700 759.0000 1.0000
27.1800 762.0000 1.0000
27.1900 768.0000 1.0000
27.2000 715.0000 1.0000
27.2100 735.0000 1.0000
27.2200 729.0000 1.0000
27.2300 695.0000 1.0000
27.2400 718.0000 1.0000
27.2500 716.0000 1.0000
27.2600 733.0000 1.0000
27.2700 734.0000 1.0000
27.2800 731.0000 1.0000
27.2900 741.0000 1.0000
27.3000 739.0000 1.0000
27.3100 767.0000 1.0000
27.3200 795.0000 1.0000
27.3300 717.0000 1.0000
27.3400 743.0000 1.0000
27.3500 756.0000 1.0000
27.3600 755.0000 1.0000
27.3700 763.0000 1.0000
27.3800 752.0000 1.0000
27.3900 727.0000 1.0000
27.4000 749.0000 1.0000
27.4100 747.0000 1.0000
27.4200 743.0000 1.0000
27.4300 727.0000 1.0000
27.4400 711.0000 1.0000
27.4500 718.0000 1.0000
27.4600 735.0000 1.0000
27.4700 717.0000 1.0000
27.4800 698.0000 1.0000
27.4900 693.0000 1.0000
27.5000 709.0000 1.0000
27.5100 720.0000 1.0000
27.5200 697.0000 1.0000
27.5300 736.0000 1.0000
27.5400 690.0000 1.0000
27.5500 699.0000 1.0000
27.5600 710.0000 1.0000
27.5700 726.0000 1.0000
27.5800 690.0000 1.0000
27.5900 676.0000 1.0000
27.6000 700.0000 1.0000
27.6100 685.0000 1.0000
27.6200 721.0000 1.0000
27.6300 704.0000 1.0000
27.6400 695.0000 1.0000
27.6500 695.0000 1.0000
27.6600 719.0000 1.0000
27.6700 704.0000 1.0000
27.6800 730.0000 1.0000
27.6900 721.0000 1.0000
27.7000 674.0000 1.0000
27.7100 689.0000 1.0000
27.7200 718.0000 1.0000
27.7300 734.0000 1.0000
27.7400 725.0000 1.0000
27.7500 702.0000 1.0000
27.7600 658.0000 1.0000
27.7700 721.0000 1.0000
27.7800 724.0000 1.0000
27.7900 723.0000 1.0000
27.8000 703.0000 1.0000
27.8100 694.0000 1.0000
27.8200 718.0000 1.0000
27.8300 686.0000 1.0000
27.8400 658.0000 1.0000
27.8500 654.0000 1.0000
27.8600 699.0000 1.0000
27.8700 704.0000 1.0000
27.8800 703.0000 1.0000
27.8900 703.0000 1.0000
27.9000 650.0000 1.0000
27.9100 697.0000 1.0000
27.9200 685.0000 1.0000
27.9300 650.0000 1.0000
27.9400 656.0000 1.0000
27.9500 677.0000 1.0000
27.9600 674.0000 1.0000
27.9700 694.0000 1.0000
27.9800 709.0000 1.0000
27.9900 712.0000 1.0000
28.0000 716.0000 1.0000
28.0100 682.0000 1.0000
28.0200 736.0000 1.0000
28.0300 702.0000 1.0000
28.0400 673.0000 1.0000
28.0500 665.0000 1.0000
28.0600 660.0000 1.0000
28.0700 668.0000 1.0000
28.0800 658.0000 1.0000
28.0900 686.0000 1.0000
28.1000 696.0000 1.0000
28.1100 769.0000 1.0000
28.1200 670.0000 1.0000
28.1300 657.0000 1.0000
28.1400 721.0000 1.0000
28.1500 682.0000 1.0000
28.1600 662.0000 1.0000
28.1700 663.0000 1.0000
28.1800 664.0000 1.0000
28.1900 703.0000 1.0000
28.2000 701.0000 1.0000
28.2100 662.0000 1.0000
28.2200 682.0000 1.0000
28.2300 654.0000 1.0000
28.2400 656.0000 1.0000
28.2500 679.0000 1.0000
28.2600 685.0000 1.0000
28.2700 684.0000 1.0000
28.2800 672.0000 1.0000
28.2900 681.0000 1.0000
28.3000 666.0000 1.0000
28.3100 676.0000 1.0000
28.3200 702.0000 1.0000
28.3300 654.0000 1.0000
28.3400 702.0000 1.0000
28.3500 673.0000 1.0000
28.3600 691.0000 1.0000
28.3700 676.0000 1.0000
28.3800 711.0000 1.0000
28.3900 677.0000 1.0000
28.4000 681.0000 1.0000
28.4100 658.0000 1.0000
28.4200 684.0000 1.0000
28.4300 672.0000 1.0000
28.4400 693.0000 1.0000
28.4500 695.0000 1.0000
28.4600 687.0000 1.0000
28.4700 674.0000 1.0000
28.4800 681.0000 1.0000
28.4900 705.0000 1.0000
28.5000 686.0000 1.0000
28.5100 707.0000 1.0000
28.5200 659.0000 1.0000
28.5300 675.0000 1.0000
28.5400 649.0000 1.0000
28.5500 634.0000 1.0000
28.5600 639.0000 1.0000
28.5700 627.0000 1.0000
28.5800 684.0000 1.0000
28.5900 674.0000 1.0000
28.6000 663.0000 1.0000
28.6100 674.0000 1.0000
28.6200 613.0000 1.0000
28.6300 703.0000 1.0000
28.6400 679.0000 1.0000
28.6500 663.0000 1.0000
28.6600 673.0000 1.0000
28.6700 681.0000 1.0000
28.6800 680.0000 1.0000
28.6900 690.0000 1.0000
28.7000 635.0000 1.0000
28.7100 668.0000 1.0000
28.7200 695.0000 1.0000
28.7300 660.0000 1.0000
28.7400 688.0000 1.0000
28.7500 621.0000 1.0000
28.7600 648.0000 1.0000
28.7700 665.0000 1.0000
28.7800 622.0000 1.0000
28.7900 645.0000 1.0000
28.8000 602.0000 1.0000
28.8100 653.0000 1.0000
28.8200 694.0000 1.0000
28.8300 669.0000 1.0000
28.8400 622.0000 1.0000
28.8500 618.0000 1.0000
28.8600 612.0000 1.0000
28.8700 658.0000 1.0000
28.8800 643.0000 1.0000
28.8900 664.0000 1.0000
28.9000 665.0000 1.0000
28.9100 700.0000 1.0000
28.9200 658.0000 1.0000
28.9300 676.0000 1.0000
28.9400 696.0000 1.0000
28.9500 645.0000 1.0000
28.9600 645.0000 1.0000
28.9700 639.0000 1.0000
28.9800 643.0000 1.0000
28.9900 639.0000 1.0000
29.0000 655.0000 1.0000
29.0100 647.0000 1.0000
29.0200 645.0000 1.0000
29.0300 638.0000 1.0000
29.0400 616.0000 1.0000
29.0500 648.0000 1.0000
29.0600 673.0000 1.0000
29.0700 642.0000 1.0000
29.0800 661.0000 1.0000
29.0900 672.0000 1.0000
29.1000 688.0000 1.0000
29.1100 631.0000 1.0000
29.1200 647.0000 1.0000
29.1300 652.0000 1.0000
29.1400 658.0000 1.0000
29.1500 630.0000 1.0000
29.1600 635.0000 1.0000
29.1700 665.0000 1.0000
29.1800 660.0000 1.0000
29.1900 630.0000 1.0000
29.2000 610.0000 1.0000
29.2100 650.0000 1.0000
29.2200 650.0000 1.0000
29.2300 658.0000 1.0000
29.2400 647.0000 1.0000
29.2500 617.0000 1.0000
29.2600 637.0000 1.0000
29.2700 635.0000 1.0000
29.2800 652.0000 1.0000
29.2900 674.0000 1.0000
29.3000 633.0000 1.0000
29.3100 628.0000 1.0000
29.3200 606.0000 1.0000
29.3300 636.0000 1.0000
29.3400 624.0000 1.0000
29.3500 644.0000 1.0000
29.3600 638.0000 1.0000
29.3700 658.0000 1.0000
29.3800 640.0000 1.0000
29.3900 627.0000 1.0000
29.4000 637.0000 1.0000
29.4100 680.0000 1.0000
29.4200 630.0000 1.0000
29.4300 655.0000 1.0000
29.4400 598.0000 1.0000
29.4500 659.0000 1.0000
29.4600 669.0000 1.0000
29.4700 646.0000 1.0000
29.4800 652.0000 1.0000
29.4900 687.0000 1.0000
29.5000 666.0000 1.0000
29.5100 667.0000 1.0000
29.5200 651.0000 1.0000
29.5300 664.0000 1.0000
29.5400 648.0000 1.0000
29.5500 632.0000 1.0000
29.5600 586.0000 1.0000
29.5700 641.0000 1.0000
29.5800 610.0000 1.0000
29.5900 618.0000 1.0000
29.6000 647.0000 1.0000
29.6100 655.0000 1.0000
29.6200 611.0000 1.0000
29.6300 599.0000 1.0000
29.6400 619.0000 1.0000
29.6500 621.0000 1.0000
29.6600 613.0000 1.0000
29.6700 634.0000 1.0000
29.6800 655.0000 1.0000
29.6900 630.0000 1.0000
29.7000 633.0000 1.0000
29.7100 615.0000 1.0000
29.7200 610.0000 1.0000
29.7300 650.0000 1.0000
29.7400 660.0000 1.0000
29.7500 639.0000 1.0000
29.7600 650.0000 1.0000
29.7700 649.0000 1.0000
29.7800 609.0000 1.0000
29.7900 667.0000 1.0000
29.8000 614.0000 1.0000
29.8100 576.0000 1.0000
29.8200 624.0000 1.0000
29.8300 601.0000 1.0000
29.8400 672.0000 1.0000
29.8500 655.0000 1.0000
29.8600 651.0000 1.0000
29.8700 603.0000 1.0000
29.8800 651.0000 1.0000
29.8900 634.0000 1.0000
29.9000 654.0000 1.0000
29.9100 654.0000 1.0000
29.9200 633.0000 1.0000
29.9300 619.0000 1.0000
29.9400 650.0000 1.0000
29.9500 633.0000 1.0000
29.9600 619.0000 1.0000
29.9700 632.0000 1.0000
29.9800 641.0000 1.0000
29.9900 611.0000 1.0000
30.0000 603.0000 1.0000
30.0100 641.0000 1.0000
30.0200 631.0000 1.0000
30.0300 640.0000 1.0000
30.0400 617.0000 1.0000
30.0500 617.0000 1.0000
30.0600 604.0000 1.0000
30.0700 623.0000 1.0000
30.0800 669.0000 1.0000
30.0900 606.0000 1.0000
30.1000 574.0000 1.0000
30.1100 603.0000 1.0000
30.1200 631.0000 1.0000
30.1300 613.0000 1.0000
30.1400 633.0000 1.0000
30.1500 637.0000 1.0000
30.1600 632.0000 1.0000
30.1700 645.0000 1.0000
30.1800 645.0000 1.0000
30.1900 626.0000 1.0000
30.2000 677.0000 1.0000
30.2100 635.0000 1.0000
30.2200 593.0000 1.0000
30.2300 622.0000 1.0000
30.2400 671.0000 1.0000
30.2500 592.0000 1.0000
30.2600 610.0000 1.0000
30.2700 626.0000 1.0000
30.2800 617.0000 1.0000
30.2900 629.0000 1.0000
30.3000 594.0000 1.0000
30.3100 606.0000 1.0000
30.3200 647.0000 1.0000
30.3300 625.0000 1.0000
30.3400 622.0000 1.0000
30.3500 598.0000 1.0000
30.3600 637.0000 1.0000
30.3700 618.0000 1.0000
30.3800 646.0000 1.0000
30.3900 607.0000 1.0000
30.4000 638.0000 1.0000
30.4100 614.0000 1.0000
30.4200 635.0000 1.0000
30.4300 622.0000 1.0000
30.4400 600.0000 1.0000
30.4500 596.0000 1.0000
30.4600 616.0000 1.0000
30.4700 628.0000 1.0000
30.4800 609.0000 1.0000
30.4900 564.0000 1.0000
30.5000 584.0000 1.0000
30.5100 659.0000 1.0000
30.5200 602.0000 1.0000
30.5300 619.0000 1.0000
30.5400 636.0000 1.0000
30.5500 590.0000 1.0000
30.5600 618.0000 1.0000
30.5700 631.0000 1.0000
30.5800 608.0000 1.0000
30.5900 571.0000 1.0000
30.6000 593.0000 1.0000
30.6100 590.0000 1.0000
30.6200 603.0000 1.0000
30.6300 610.0000 1.0000
30.6400 584.0000 1.0000
30.6500 634.0000 1.0000
30.6600 615.0000 1.0000
30.6700 596.0000 1.0000
30.6800 597.0000 1.0000
30.6900 590.0000 1.0000
30.7000 568.0000 1.0000
30.7100 620.0000 1.0000
30.7200 592.0000 1.0000
30.7300 577.0000 1.0000
30.7400 637.0000 1.0000
30.7500 609.0000 1.0000
30.7600 603.0000 1.0000
30.7700 583.0000 1.0000
30.7800 609.0000 1.0000
30.7900 625.0000 1.0000
30.8000 612.0000 1.0000
30.8100 592.0000 1.0000
30.8200 617.0000 1.0000
30.8300 613.0000 1.0000
30.8400 608.0000 1.0000
30.8500 614.0000 1.0000
30.8600 619.0000 1.0000
30.8700 597.0000 1.0000
30.8800 604.0000 1.0000
30.8900 602.0000 1.0000
30.9000 618.0000 1.0000
30.9100 575.0000 1.0000
30.9200 603.0000 1.0000
30.9300 579.0000 1.0000
30.9400 646.0000 1.0000
30.9500 613.0000 1.0000
30.9600 631.0000 1.0000
30.9700 642.0000 1.0000
30.9800 615.0000 1.0000
30.9900 592.0000 1.0000
31.0000 634.0000 1.0000
31.0100 612.0000 1.0000
31.0200 628.0000 1.0000
31.0300 615.0000 1.0000
31.0400 558.0000 1.0000
31.0500 598.0000 1.0000
31.0600 604.0000 1.0000
31.0700 598.0000 1.0000
31.0800 634.0000 1.0000
31.0900 650.0000 1.0000
31.1000 632.0000 1.0000
31.1100 620.0000 1.0000
31.1200 636.0000 1.0000
31.1300 621.0000 1.0000
31.1400 622.0000 1.0000
31.1500 617.0000 1.0000
31.1600 596.0000 1.0000
31.1700 632.0000 1.0000
31.1800 564.0000 1.0000
31.1900 613.0000 1.0000
31.2000 618.0000 1.0000
31.2100 617.0000 1.0000
31.2200 605.0000 1.0000
31.2300 586.0000 1.0000
31.2400 602.0000 1.0000
31.2500 592.0000 1.0000
31.2600 626.0000 1.0000
31.2700 634.0000 1.0000
31.2800 582.0000 1.0000
31.2900 599.0000 1.0000
31.3000 596.0000 1.0000
31.3100 579.0000 1.0000
31.3200 621.0000 1.0000
31.3300 566.0000 1.0000
31.3400 590.0000 1.0000
31.3500 573.0000 1.0000
31.3600 565.0000 1.0000
31.3700 629.0000 1.0000
31.3800 588.0000 1.0000
31.3900 556.0000 1.0000
31.4000 603.0000 1.0000
31.4100 605.0000 1.0000
31.4200 634.0000 1.0000
31.4300 639.0000 1.0000
31.4400 586.0000 1.0000
31.4500 583.0000 1.0000
31.4600 576.0000 1.0000
31.4700 583.0000 1.0000
31.4800 563.0000 1.0000
31.4900 585.0000 1.0000
31.5000 577.0000 1.0000
31.5100 562.0000 1.0000
31.5200 581.0000 1.0000
31.5300 596.0000 1.0000
31.5400 548.0000 1.0000
31.5500 579.0000 1.0000
31.5600 574.0000 1.0000
31.5700 568.0000 1.0000
31.5800 613.0000 1.0000
31.5900 593.0000 1.0000
31.6000 585.0000 1.0000
31.6100 630.0000 1.0000
31.6200 586.0000 1.0000
31.6300 540.0000 1.0000
31.6400 546.0000 1.0000
31.6500 576.0000 1.0000
31.6600 588.0000 1.0000
31.6700 628.0000 1.0000
31.6800 587.0000 1.0000
31.6900 601.0000 1.0000
31.7000 576.0000 1.0000
31.7100 551.0000 1.0000
31.7200 608.0000 1.0000
31.7300 593.0000 1.0000
31.7400 594.0000 1.0000
31.7500 578.0000 1.0000
31.7600 594.0000 1.0000
31.7700 579.0000 1.0000
31.7800 619.0000 1.0000
31.7900 560.0000 1.0000
31.8000 551.0000 1.0000
31.8100 575.0000 1.0000
31.8200 610.0000 1.0000
31.8300 594.0000 1.0000
31.8400 590.0000 1.0000
31.8500 613.0000 1.0000
31.8600 567.0000 1.0000
31.8700 590.0000 1.0000
31.8800 563.0000 1.0000
31.8900 599.0000 1.0000
31.9000 570.0000 1.0000
31.9100 537.0000 1.0000
31.9200 547.0000 1.0000
31.9300 578.0000 1.0000
31.9400 543.0000 1.0000
31.9500 560.0000 1.0000
31.9600 566.0000 1.0000
31.9700 580.0000 1.0000
31.9800 569.0000 1.0000
31.9900 550.0000 1.0000
32.0000 602.0000 1.0000
32.0100 594.0000 1.0000
32.0200 604.0000 1.0000
32.0300 569.0000 1.0000
32.0400 615.0000 1.0000
32.0500 552.0000 1.0000
32.0600 542.0000 1.0000
32.0700 575.0000 1.0000
32.0800 577.0000 1.0000
32.0900 585.0000 1.0000
32.1000 562.0000 1.0000
32.1100 575.0000 1.0000
32.1200 552.0000 1.0000
32.1300 560.0000 1.0000
32.1400 608.0000 1.0000
32.1500 584.0000 1.0000
32.1600 578.0000 1.0000
32.1700 563.0000 1.0000
32.1800 591.0000 1.0000
32.1900 574.0000 1.0000
32.2000 570.0000 1.0000
32.2100 545.0000 1.0000
32.2200 563.0000 1.0000
32.2300 542.0000 1.0000
32.2400 540.0000 1.0000
32.2500 560.0000 1.0000
32.2600 608.0000 1.0000
32.2700 563.0000 1.0000
32.2800 574.0000 1.0000
32.2900 537.0000 1.0000
32.3000 590.0000 1.0000
32.3100 589.0000 1.0000
32.3200 603.0000 1.0000
32.3300 576.0000 1.0000
32.3400 545.0000 1.0000
32.3500 560.0000 1.0000
32.3600 573.0000 1.0000
32.3700 599.0000 1.0000
32.3800 587.0000 1.0000
32.3900 569.0000 1.0000
32.4000 539.0000 1.0000
32.4100 550.0000 1.0000
32.4200 560.0000 1.0000
32.4300 563.0000 1.0000
32.4400 602.0000 1.0000
32.4500 601.0000 1.0000
32.4600 610.0000 1.0000
32.4700 557.0000 1.0000
32.4800 559.0000 1.0000
32.4900 558.0000 1.0000
32.5000 601.0000 1.0000
32.5100 543.0000 1.0000
32.5200 561.0000 1.0000
32.5300 559.0000 1.0000
32.5400 556.0000 1.0000
32.5500 562.0000 1.0000
32.5600 573.0000 1.0000
32.5700 605.0000 1.0000
32.5800 573.0000 1.0000
32.5900 555.0000 1.0000
32.6000 562.0000 1.0000
32.6100 585.0000 1.0000
32.6200 563.0000 1.0000
32.6300 523.0000 1.0000
32.6400 533.0000 1.0000
32.6500 623.0000 1.0000
32.6600 588.0000 1.0000
32.6700 578.0000 1.0000
32.6800 573.0000 1.0000
32.6900 558.0000 1.0000
32.7000 590.0000 1.0000
32.7100 592.0000 1.0000
32.7200 638.0000 1.0000
32.7300 579.0000 1.0000
32.7400 575.0000 1.0000
32.7500 582.0000 1.0000
32.7600 573.0000 1.0000
32.7700 569.0000 1.0000
32.7800 583.0000 1.0000
32.7900 585.0000 1.0000
32.8000 582.0000 1.0000
32.8100 603.0000 1.0000
32.8200 624.0000 1.0000
32.8300 592.0000 1.0000
32.8400 573.0000 1.0000
32.8500 590.0000 1.0000
32.8600 605.0000 1.0000
32.8700 607.0000 1.0000
32.8800 629.0000 1.0000
32.8900 678.0000 1.0000
32.9000 648.0000 1.0000
32.9100 633.0000 1.0000
32.9200 656.0000 1.0000
32.9300 640.0000 1.0000
32.9400 621.0000 1.0000
32.9500 651.0000 1.0000
32.9600 718.0000 1.0000
32.9700 640.0000 1.0000
32.9800 653.0000 1.0000
32.9900 709.0000 1.0000
33.0000 663.0000 1.0000
33.0100 701.0000 1.0000
33.0200 677.0000 1.0000
33.0300 757.0000 1.0000
33.0400 667.0000 1.0000
33.0500 725.0000 1.0000
33.0600 723.0000 1.0000
33.0700 758.0000 1.0000
33.0800 731.0000 1.0000
33.0900 732.0000 1.0000
33.1000 723.0000 1.0000
33.1100 699.0000 1.0000
33.1200 727.0000 1.0000
33.1300 749.0000 1.0000
33.1400 734.0000 1.0000
33.1500 744.0000 1.0000
33.1600 726.0000 1.0000
33.1700 717.0000 1.0000
33.1800 711.0000 1.0000
33.1900 671.0000 1.0000
33.2000 656.0000 1.0000
33.2100 648.0000 1.0000
33.2200 702.0000 1.0000
33.2300 665.0000 1.0000
33.2400 668.0000 1.0000
33.2500 724.0000 1.0000
33.2600 683.0000 1.0000
33.2700 688.0000 1.0000
33.2800 665.0000 1.0000
33.2900 657.0000 1.0000
33.3000 663.0000 1.0000
33.3100 672.0000 1.0000
33.3200 673.0000 1.0000
33.3300 660.0000 1.0000
33.3400 700.0000 1.0000
33.3500 712.0000 1.0000
33.3600 681.0000 1.0000
33.3700 715.0000 1.0000
33.3800 672.0000 1.0000
33.3900 691.0000 1.0000
33.4000 696.0000 1.0000
33.4100 695.0000 1.0000
33.4200 722.0000 1.0000
33.4300 721.0000 1.0000
33.4400 722.0000 1.0000
33.4500 780.0000 1.0000
33.4600 738.0000 1.0000
33.4700 778.0000 1.0000
33.4800 831.0000 1.0000
33.4900 833.0000 1.0000
33.5000 833.0000 1.0000
33.5100 852.0000 1.0000
33.5200 833.0000 1.0000
33.5300 898.0000 1.0000
33.5400 916.0000 1.0000
33.5500 965.0000 1.0000
33.5600 1004.0000 1.0000
33.5700 1088.0000 1.0000
33.5800 1067.0000 1.0000
33.5900 1145.0000 1.0000
33.6000 1243.0000 1.0000
33.6100 1231.0000 1.0000
33.6200 1258.0000 1.0000
33.6300 1310.0000 1.0000
33.6400 1333.0000 1.0000
33.6500 1349.0000 1.0000
33.6600 1299.0000 1.0000
33.6700 1322.0000 1.0000
33.6800 1294.0000 1.0000
33.6900 1288.0000 1.0000
33.7000 1204.0000 1.0000
33.7100 1208.0000 1.0000
33.7200 1190.0000 1.0000
33.7300 1120.0000 1.0000
33.7400 1086.0000 1.0000
33.7500 1089.0000 1.0000
33.7600 1020.0000 1.0000
33.7700 971.0000 1.0000
33.7800 947.0000 1.0000
33.7900 871.0000 1.0000
33.8000 887.0000 1.0000
33.8100 826.0000 1.0000
33.8200 795.0000 1.0000
33.8300 793.0000 1.0000
33.8400 808.0000 1.0000
33.8500 772.0000 1.0000
33.8600 698.0000 1.0000
33.8700 748.0000 1.0000
33.8800 729.0000 1.0000
33.8900 745.0000 1.0000
33.9000 666.0000 1.0000
33.9100 703.0000 1.0000
33.9200 686.0000 1.0000
33.9300 666.0000 1.0000
33.9400 681.0000 1.0000
33.9500 679.0000 1.0000
33.9600 662.0000 1.0000
33.9700 648.0000 1.0000
33.9800 613.0000 1.0000
33.9900 606.0000 1.0000
34.0000 622.0000 1.0000
34.0100 629.0000 1.0000
34.0200 609.0000 1.0000
34.0300 605.0000 1.0000
34.0400 559.0000 1.0000
34.0500 588.0000 1.0000
34.0600 572.0000 1.0000
34.0700 613.0000 1.0000
34.0800 597.0000 1.0000
34.0900 608.0000 1.0000
34.1000 588.0000 1.0000
34.1100 565.0000 1.0000
34.1200 540.0000 1.0000
34.1300 575.0000 1.0000
34.1400 570.0000 1.0000
34.1500 574.0000 1.0000
34.1600 566.0000 1.0000
34.1700 529.0000 1.0000
34.1800 535.0000 1.0000
34.1900 518.0000 1.0000
34.2000 544.0000 1.0000
34.2100 523.0000 1.0000
34.2200 544.0000 1.0000
34.2300 559.0000 1.0000
34.2400 526.0000 1.0000
34.2500 549.0000 1.0000
34.2600 565.0000 1.0000
34.2700 529.0000 1.0000
34.2800 540.0000 1.0000
34.2900 530.0000 1.0000
34.3000 511.0000 1.0000
34.3100 544.0000 1.0000
34.3200 551.0000 1.0000
34.3300 536.0000 1.0000
34.3400 544.0000 1.0000
34.3500 579.0000 1.0000
34.3600 544.0000 1.0000
34.3700 524.0000 1.0000
34.3800 538.0000 1.0000
34.3900 521.0000 1.0000
34.4000 499.0000 1.0000
34.4100 517.0000 1.0000
34.4200 532.0000 1.0000
34.4300 503.0000 1.0000
34.4400 530.0000 1.0000
34.4500 483.0000 1.0000
34.4600 492.0000 1.0000
34.4700 507.0000 1.0000
34.4800 506.0000 1.0000
34.4900 480.0000 1.0000
34.5000 520.0000 1.0000
34.5100 510.0000 1.0000
34.5200 511.0000 1.0000
34.5300 531.0000 1.0000
34.5400 536.0000 1.0000
34.5500 478.0000 1.0000
34.5600 516.0000 1.0000
34.5700 483.0000 1.0000
34.5800 498.0000 1.0000
34.5900 508.0000 1.0000
34.6000 478.0000 1.0000
34.6100 514.0000 1.0000
34.6200 494.0000 1.0000
34.6300 527.0000 1.0000
34.6400 539.0000 1.0000
34.6500 562.0000 1.0000
34.6600 480.0000 1.0000
34.6700 488.0000 1.0000
34.6800 511.0000 1.0000
34.6900 515.0000 1.0000
34.7000 466.0000 1.0000
34.7100 490.0000 1.0000
34.7200 453.0000 1.0000
34.7300 520.0000 1.0000
34.7400 493.0000 1.0000
34.7500 511.0000 1.0000
34.7600 489.0000 1.0000
34.7700 505.0000 1.0000
34.7800 464.0000 1.0000
34.7900 508.0000 1.0000
34.8000 490.0000 1.0000
34.8100 474.0000 1.0000
34.8200 462.0000 1.0000
34.8300 482.0000 1.0000
34.8400 475.0000 1.0000
34.8500 494.0000 1.0000
34.8600 505.0000 1.0000
34.8700 483.0000 1.0000
34.8800 491.0000 1.0000
34.8900 483.0000 1.0000
34.9000 512.0000 1.0000
34.9100 547.0000 1.0000
34.9200 514.0000 1.0000
34.9300 511.0000 1.0000
34.9400 506.0000 1.0000
34.9500 518.0000 1.0000
34.9600 507.0000 1.0000
34.9700 495.0000 1.0000
34.9800 491.0000 1.0000
34.9900 538.0000 1.0000
35.0000 476.0000 1.0000
35.0100 503.0000 1.0000
35.0200 486.0000 1.0000
35.0300 493.0000 1.0000
35.0400 488.0000 1.0000
35.0500 504.0000 1.0000
35.0600 479.0000 1.0000
35.0700 490.0000 1.0000
35.0800 499.0000 1.0000
35.0900 474.0000 1.0000
35.1000 516.0000 1.0000
35.1100 468.0000 1.0000
35.1200 450.0000 1.0000
35.1300 477.0000 1.0000
35.1400 474.0000 1.0000
35.1500 506.0000 1.0000
35.1600 470.0000 1.0000
35.1700 503.0000 1.0000
35.1800 475.0000 1.0000
35.1900 498.0000 1.0000
35.2000 519.0000 1.0000
35.2100 512.0000 1.0000
35.2200 528.0000 1.0000
35.2300 513.0000 1.0000
35.2400 481.0000 1.0000
35.2500 495.0000 1.0000
35.2600 534.0000 1.0000
35.2700 500.0000 1.0000
35.2800 501.0000 1.0000
35.2900 500.0000 1.0000
35.3000 582.0000 1.0000
35.3100 524.0000 1.0000
35.3200 520.0000 1.0000
35.3300 539.0000 1.0000
35.3400 532.0000 1.0000
35.3500 528.0000 1.0000
35.3600 525.0000 1.0000
35.3700 596.0000 1.0000
35.3800 559.0000 1.0000
35.3900 546.0000 1.0000
35.4000 574.0000 1.0000
35.4100 553.0000 1.0000
35.4200 586.0000 1.0000
35.4300 608.0000 1.0000
35.4400 579.0000 1.0000
35.4500 583.0000 1.0000
35.4600 606.0000 1.0000
35.4700 630.0000 1.0000
35.4800 643.0000 1.0000
35.4900 625.0000 1.0000
35.5000 673.0000 1.0000
35.5100 668.0000 1.0000
35.5200 667.0000 1.0000
35.5300 664.0000 1.0000
35.5400 679.0000 1.0000
35.5500 704.0000 1.0000
35.5600 757.0000 1.0000
35.5700 713.0000 1.0000
35.5800 714.0000 1.0000
35.5900 717.0000 1.0000
35.6000 698.0000 1.0000
35.6100 688.0000 1.0000
35.6200 683.0000 1.0000
35.6300 687.0000 1.0000
35.6400 635.0000 1.0000
35.6500 676.0000 1.0000
35.6600 631.0000 1.0000
35.6700 588.0000 1.0000
35.6800 629.0000 1.0000
35.6900 623.0000 1.0000
35.7000 595.0000 1.0000
35.7100 601.0000 1.0000
35.7200 616.0000 1.0000
35.7300 593.0000 1.0000
35.7400 562.0000 1.0000
35.7500 574.0000 1.0000
35.7600 574.0000 1.0000
35.7700 545.0000 1.0000
35.7800 544.0000 1.0000
35.7900 566.0000 1.0000
35.8000 554.0000 1.0000
35.8100 530.0000 1.0000
35.8200 481.0000 1.0000
35.8300 469.0000 1.0000
35.8400 476.0000 1.0000
35.8500 505.0000 1.0000
35.8600 442.0000 1.0000
35.8700 527.0000 1.0000
35.8800 516.0000 1.0000
35.8900 504.0000 1.0000
35.9000 506.0000 1.0000
35.9100 494.0000 1.0000
35.9200 496.0000 1.0000
35.9300 489.0000 1.0000
35.9400 466.0000 1.0000
35.9500 445.0000 1.0000
35.9600 441.0000 1.0000
35.9700 462.0000 1.0000
35.9800 438.0000 1.0000
35.9900 488.0000 1.0000
36.0000 462.0000 1.0000
36.0100 497.0000 1.0000
36.0200 491.0000 1.0000
36.0300 491.0000 1.0000
36.0400 488.0000 1.0000
36.0500 479.0000 1.0000
36.0600 498.0000 1.0000
36.0700 453.0000 1.0000
36.0800 418.0000 1.0000
36.0900 482.0000 1.0000
36.1000 425.0000 1.0000
36.1100 423.0000 1.0000
36.1200 454.0000 1.0000
36.1300 462.0000 1.0000
36.1400 454.0000 1.0000
36.1500 452.0000 1.0000
36.1600 469.0000 1.0000
36.1700 441.0000 1.0000
36.1800 456.0000 1.0000
36.1900 454.0000 1.0000
36.2000 442.0000 1.0000
36.2100 477.0000 1.0000
36.2200 435.0000 1.0000
36.2300 442.0000 1.0000
36.2400 420.0000 1.0000
36.2500 445.0000 1.0000
36.2600 453.0000 1.0000
36.2700 468.0000 1.0000
36.2800 479.0000 1.0000
36.2900 488.0000 1.0000
36.3000 480.0000 1.0000
36.3100 459.0000 1.0000
36.3200 448.0000 1.0000
36.3300 439.0000 1.0000
36.3400 467.0000 1.0000
36.3500 458.0000 1.0000
36.3600 452.0000 1.0000
36.3700 445.0000 1.0000
36.3800 470.0000 1.0000
36.3900 419.0000 1.0000
36.4000 466.0000 1.0000
36.4100 458.0000 1.0000
36.4200 461.0000 1.0000
36.4300 461.0000 1.0000
36.4400 433.0000 1.0000
36.4500 440.0000 1.0000
36.4600 455.0000 1.0000
36.4700 456.0000 1.0000
36.4800 454.0000 1.0000
36.4900 493.0000 1.0000
36.5000 470.0000 1.0000
36.5100 436.0000 1.0000
36.5200 441.0000 1.0000
36.5300 459.0000 1.0000
36.5400 460.0000 1.0000
36.5500 472.0000 1.0000
36.5600 436.0000 1.0000
36.5700 452.0000 1.0000
36.5800 461.0000 1.0000
36.5900 453.0000 1.0000
36.6000 478.0000 1.0000
36.6100 421.0000 1.0000
36.6200 447.0000 1.0000
36.6300 458.0000 1.0000
36.6400 475.0000 1.0000
36.6500 423.0000 1.0000
36.6600 455.0000 1.0000
36.6700 425.0000 1.0000
36.6800 428.0000 1.0000
36.6900 472.0000 1.0000
36.7000 469.0000 1.0000
36.7100 445.0000 1.0000
36.7200 443.0000 1.0000
36.7300 461.0000 1.0000
36.7400 459.0000 1.0000
36.7500 452.0000 1.0000
36.7600 458.0000 1.0000
36.7700 432.0000 1.0000
36.7800 476.0000 1.0000
36.7900 447.0000 1.0000
36.8000 479.0000 1.0000
36.8100 475.0000 1.0000
36.8200 458.0000 1.0000
36.8300 458.0000 1.0000
36.8400 430.0000 1.0000
36.8500 408.0000 1.0000
36.8600 424.0000 1.0000
36.8700 459.0000 1.0000
36.8800 451.0000 1.0000
36.8900 437.0000 1.0000
36.9000 457.0000 1.0000
36.9100 471.0000 1.0000
36.9200 458.0000 1.0000
36.9300 455.0000 1.0000
36.9400 424.0000 1.0000
36.9500 460.0000 1.0000
36.9600 429.0000 1.0000
36.9700 455.0000 1.0000
36.9800 416.0000 1.0000
36.9900 451.0000 1.0000
37.0000 453.0000 1.0000
37.0100 444.0000 1.0000
37.0200 438.0000 1.0000
37.0300 442.0000 1.0000
37.0400 421.0000 1.0000
37.0500 445.0000 1.0000
37.0600 471.0000 1.0000
37.0700 424.0000 1.0000
37.0800 456.0000 1.0000
37.0900 450.0000 1.0000
37.1000 428.0000 1.0000
37.1100 480.0000 1.0000
37.1200 436.0000 1.0000
37.1300 440.0000 1.0000
37.1400 480.0000 1.0000
37.1500 475.0000 1.0000
37.1600 486.0000 1.0000
37.1700 451.0000 1.0000
37.1800 460.0000 1.0000
37.1900 451.0000 1.0000
37.2000 458.0000 1.0000
37.2100 485.0000 1.0000
37.2200 480.0000 1.0000
37.2300 487.0000 1.0000
37.2400 463.0000 1.0000
37.2500 476.0000 1.0000
37.2600 461.0000 1.0000
37.2700 467.0000 1.0000
37.2800 522.0000 1.0000
37.2900 491.0000 1.0000
37.3000 506.0000 1.0000
37.3100 492.0000 1.0000
37.3200 500.0000 1.0000
37.3300 550.0000 1.0000
37.3400 550.0000 1.0000
37.3500 543.0000 1.0000
37.3600 545.0000 1.0000
37.3700 568.0000 1.0000
37.3800 566.0000 1.0000
37.3900 615.0000 1.0000
37.4000 585.0000 1.0000
37.4100 603.0000 1.0000
37.4200 642.0000 1.0000
37.4300 656.0000 1.0000
37.4400 655.0000 1.0000
37.4500 679.0000 1.0000
37.4600 654.0000 1.0000
37.4700 740.0000 1.0000
37.4800 839.0000 1.0000
37.4900 796.0000 1.0000
37.5000 798.0000 1.0000
37.5100 870.0000 1.0000
37.5200 883.0000 1.0000
37.5300 985.0000 1.0000
37.5400 1026.0000 1.0000
37.5500 1054.0000 1.0000
37.5600 1147.0000 1.0000
37.5700 1176.0000 1.0000
37.5800 1285.0000 1.0000
37.5900 1350.0000 1.0000
37.6000 1404.0000 1.0000
37.6100 1512.0000 1.0000
37.6200 1600.0000 1.0000
37.6300 1685.0000 1.0000
37.6400 1714.0000 1.0000
37.6500 1824.0000 1.0000
37.6600 1922.0000 1.0000
37.6700 1996.0000 1.0000
37.6800 2144.0000 1.0000
37.6900 2036.0000 1.0000
37.7000 2110.0000 1.0000
37.7100 2141.0000 1.0000
37.7200 2090.0000 1.0000
37.7300 2008.0000 1.0000
37.7400 2103.0000 1.0000
37.7500 2097.0000 1.0000
37.7600 1949.0000 1.0000
37.7700 1977.0000 1.0000
37.7800 1900.0000 1.0000
37.7900 1817.0000 1.0000
37.8000 1734.0000 1.0000
37.8100 1674.0000 1.0000
37.8200 1577.0000 1.0000
37.8300 1536.0000 1.0000
37.8400 1407.0000 1.0000
37.8500 1324.0000 1.0000
37.8600 1270.0000 1.0000
37.8700 1211.0000 1.0000
37.8800 1124.0000 1.0000
37.8900 1080.0000 1.0000
37.9000 980.0000 1.0000
37.9100 975.0000 1.0000
37.9200 911.0000 1.0000
37.9300 855.0000 1.0000
37.9400 846.0000 1.0000
37.9500 794.0000 1.0000
37.9600 765.0000 1.0000
37.9700 738.0000 1.0000
37.9800 673.0000 1.0000
37.9900 670.0000 1.0000
38.0000 680.0000 1.0000
38.0100 645.0000 1.0000
38.0200 616.0000 1.0000
38.0300 620.0000 1.0000
38.0400 571.0000 1.0000
38.0500 578.0000 1.0000
38.0600 531.0000 1.0000
38.0700 496.0000 1.0000
38.0800 503.0000 1.0000
38.0900 542.0000 1.0000
38.1000 520.0000 1.0000
38.1100 486.0000 1.0000
38.1200 507.0000 1.0000
38.1300 485.0000 1.0000
38.1400 492.0000 1.0000
38.1500 480.0000 1.0000
38.1600 491.0000 1.0000
38.1700 467.0000 1.0000
38.1800 446.0000 1.0000
38.1900 504.0000 1.0000
38.2000 440.0000 1.0000
38.2100 485.0000 1.0000
38.2200 447.0000 1.0000
38.2300 424.0000 1.0000
38.2400 443.0000 1.0000
38.2500 438.0000 1.0000
38.2600 446.0000 1.0000
38.2700 450.0000 1.0000
38.2800 459.0000 1.0000
38.2900 419.0000 1.0000
38.3000 422.0000 1.0000
38.3100 413.0000 1.0000
38.3200 425.0000 1.0000
38.3300 397.0000 1.0000
38.3400 432.0000 1.0000
38.3500 405.0000 1.0000
38.3600 430.0000 1.0000
38.3700 422.0000 1.0000
38.3800 434.0000 1.0000
38.3900 411.0000 1.0000
38.4000 438.0000 1.0000
38.4100 415.0000 1.0000
38.4200 396.0000 1.0000
38.4300 401.0000 1.0000
38.4400 425.0000 1.0000
38.4500 429.0000 1.0000
38.4600 422.0000 1.0000
38.4700 437.0000 1.0000
38.4800 469.0000 1.0000
38.4900 439.0000 1.0000
38.5000 390.0000 1.0000
38.5100 408.0000 1.0000
38.5200 431.0000 1.0000
38.5300 417.0000 1.0000
38.5400 421.0000 1.0000
38.5500 395.0000 1.0000
38.5600 402.0000 1.0000
38.5700 416.0000 1.0000
38.5800 399.0000 1.0000
38.5900 446.0000 1.0000
38.6000 457.0000 1.0000
38.6100 427.0000 1.0000
38.6200 407.0000 1.0000
38.6300 439.0000 1.0000
38.6400 431.0000 1.0000
38.6500 388.0000 1.0000
38.6600 398.0000 1.0000
38.6700 426.0000 1.0000
38.6800 397.0000 1.0000
38.6900 409.0000 1.0000
38.7000 424.0000 1.0000
38.7100 429.0000 1.0000
38.7200 396.0000 1.0000
38.7300 415.0000 1.0000
38.7400 439.0000 1.0000
38.7500 407.0000 1.0000
38.7600 424.0000 1.0000
38.7700 417.0000 1.0000
38.7800 409.0000 1.0000
38.7900 425.0000 1.0000
38.8000 425.0000 1.0000
38.8100 402.0000 1.0000
38.8200 391.0000 1.0000
38.8300 399.0000 1.0000
38.8400 476.0000 1.0000
38.8500 406.0000 1.0000
38.8600 429.0000 1.0000
38.8700 435.0000 1.0000
38.8800 422.0000 1.0000
38.8900 397.0000 1.0000
38.9000 399.0000 1.0000
38.9100 434.0000 1.0000
38.9200 423.0000 1.0000
38.9300 397.0000 1.0000
38.9400 410.0000 1.0000
38.9500 388.0000 1.0000
38.9600 418.0000 1.0000
38.9700 384.0000 1.0000
38.9800 407.0000 1.0000
38.9900 385.0000 1.0000
39.0000 395.0000 1.0000
39.0100 392.0000 1.0000
39.0200 395.0000 1.0000
39.0300 408.0000 1.0000
39.0400 390.0000 1.0000
39.0500 397.0000 1.0000
39.0600 404.0000 1.0000
39.0700 436.0000 1.0000
39.0800 401.0000 1.0000
39.0900 387.0000 1.0000
39.1000 401.0000 1.0000
39.1100 389.0000 1.0000
39.1200 405.0000 1.0000
39.1300 403.0000 1.0000
39.1400 379.0000 1.0000
39.1500 402.0000 1.0000
39.1600 398.0000 1.0000
39.1700 369.0000 1.0000
39.1800 387.0000 1.0000
39.1900 389.0000 1.0000
39.2000 379.0000 1.0000
39.2100 398.0000 1.0000
39.2200 385.0000 1.0000
39.2300 392.0000 1.0000
39.2400 403.0000 1.0000
39.2500 398.0000 1.0000
39.2600 361.0000 1.0000
39.2700 377.0000 1.0000
39.2800 392.0000 1.0000
39.2900 396.0000 1.0000
39.3000 397.0000 1.0000
39.3100 366.0000 1.0000
39.3200 390.0000 1.0000
39.3300 395.0000 1.0000
39.3400 373.0000 1.0000
39.3500 390.0000 1.0000
39.3600 370.0000 1.0000
39.3700 368.0000 1.0000
39.3800 363.0000 1.0000
39.3900 357.0000 1.0000
39.4000 414.0000 1.0000
39.4100 385.0000 1.0000
39.4200 380.0000 1.0000
39.4300 404.0000 1.0000
39.4400 385.0000 1.0000
39.4500 405.0000 1.0000
39.4600 351.0000 1.0000
39.4700 347.0000 1.0000
39.4800 380.0000 1.0000
39.4900 375.0000 1.0000
39.5000 391.0000 1.0000
39.5100 380.0000 1.0000
39.5200 395.0000 1.0000
39.5300 385.0000 1.0000
39.5400 382.0000 1.0000
39.5500 378.0000 1.0000
39.5600 390.0000 1.0000
39.5700 403.0000 1.0000
39.5800 401.0000 1.0000
39.5900 412.0000 1.0000
39.6000 374.0000 1.0000
39.6100 377.0000 1.0000
39.6200 375.0000 1.0000
39.6300 366.0000 1.0000
39.6400 361.0000 1.0000
39.6500 354.0000 1.0000
39.6600 395.0000 1.0000
39.6700 384.0000 1.0000
39.6800 387.0000 1.0000
39.6900 389.0000 1.0000
39.7000 380.0000 1.0000
39.7100 376.0000 1.0000
39.7200 385.0000 1.0000
39.7300 371.0000 1.0000
39.7400 420.0000 1.0000
39.7500 372.0000 1.0000
39.7600 359.0000 1.0000
39.7700 357.0000 1.0000
39.7800 385.0000 1.0000
39.7900 379.0000 1.0000
39.8000 373.0000 1.0000
39.8100 384.0000 1.0000
39.8200 376.0000 1.0000
39.8300 347.0000 1.0000
39.8400 354.0000 1.0000
39.8500 396.0000 1.0000
39.8600 360.0000 1.0000
39.8700 375.0000 1.0000
39.8800 381.0000 1.0000
39.8900 390.0000 1.0000
39.9000 398.0000 1.0000
39.9100 382.0000 1.0000
39.9200 384.0000 1.0000
39.9300 384.0000 1.0000
39.9400 360.0000 1.0000
39.9500 361.0000 1.0000
39.9600 381.0000 1.0000
39.9700 384.0000 1.0000
39.9800 424.0000 1.0000
39.9900 374.0000 1.0000
40.0000 382.0000 1.0000
40.0100 368.0000 1.0000
40.0200 355.0000 1.0000
40.0300 344.0000 1.0000
40.0400 369.0000 1.0000
40.0500 380.0000 1.0000
40.0600 364.0000 1.0000
40.0700 378.0000 1.0000
40.0800 392.0000 1.0000
40.0900 356.0000 1.0000
40.1000 346.0000 1.0000
40.1100 344.0000 1.0000
40.1200 384.0000 1.0000
40.1300 366.0000 1.0000
40.1400 393.0000 1.0000
40.1500 362.0000 1.0000
40.1600 378.0000 1.0000
40.1700 388.0000 1.0000
40.1800 375.0000 1.0000
40.1900 410.0000 1.0000
40.2000 384.0000 1.0000
40.2100 376.0000 1.0000
40.2200 393.0000 1.0000
40.2300 376.0000 1.0000
40.2400 390.0000 1.0000
40.2500 353.0000 1.0000
40.2600 382.0000 1.0000
40.2700 364.0000 1.0000
40.2800 370.0000 1.0000
40.2900 358.0000 1.0000
40.3000 371.0000 1.0000
40.3100 387.0000 1.0000
40.3200 352.0000 1.0000
40.3300 357.0000 1.0000
40.3400 352.0000 1.0000
40.3500 348.0000 1.0000
40.3600 383.0000 1.0000
40.3700 360.0000 1.0000
40.3800 353.0000 1.0000
40.3900 380.0000 1.0000
40.4000 381.0000 1.0000
40.4100 373.0000 1.0000
40.4200 388.0000 1.0000
40.4300 336.0000 1.0000
40.4400 353.0000 1.0000
40.4500 354.0000 1.0000
40.4600 396.0000 1.0000
40.4700 363.0000 1.0000
40.4800 372.0000 1.0000
40.4900 356.0000 1.0000
40.5000 368.0000 1.0000
40.5100 376.0000 1.0000
40.5200 390.0000 1.0000
40.5300 383.0000 1.0000
40.5400 382.0000 1.0000
40.5500 376.0000 1.0000
40.5600 344.0000 1.0000
40.5700 379.0000 1.0000
40.5800 401.0000 1.0000
40.5900 393.0000 1.0000
40.6000 385.0000 1.0000
40.6100 377.0000 1.0000
40.6200 356.0000 1.0000
40.6300 370.0000 1.0000
40.6400 401.0000 1.0000
40.6500 406.0000 1.0000
40.6600 375.0000 1.0000
40.6700 374.0000 1.0000
40.6800 393.0000 1.0000
40.6900 395.0000 1.0000
40.7000 425.0000 1.0000
40.7100 401.0000 1.0000
40.7200 381.0000 1.0000
40.7300 422.0000 1.0000
40.7400 412.0000 1.0000
40.7500 418.0000 1.0000
40.7600 398.0000 1.0000
40.7700 400.0000 1.0000
40.7800 389.0000 1.0000
40.7900 391.0000 1.0000
40.8000 383.0000 1.0000
40.8100 413.0000 1.0000
40.8200 408.0000 1.0000
40.8300 422.0000 1.0000
40.8400 382.0000 1.0000
40.8500 384.0000 1.0000
40.8600 424.0000 1.0000
40.8700 409.0000 1.0000
40.8800 387.0000 1.0000
40.8900 376.0000 1.0000
40.9000 426.0000 1.0000
40.9100 396.0000 1.0000
40.9200 396.0000 1.0000
40.9300 388.0000 1.0000
40.9400 368.0000 1.0000
40.9500 409.0000 1.0000
40.9600 386.0000 1.0000
40.9700 363.0000 1.0000
40.9800 415.0000 1.0000
40.9900 387.0000 1.0000
41.0000 407.0000 1.0000
41.0100 382.0000 1.0000
41.0200 403.0000 1.0000
41.0300 391.0000 1.0000
41.0400 361.0000 1.0000
41.0500 379.0000 1.0000
41.0600 378.0000 1.0000
41.0700 406.0000 1.0000
41.0800 369.0000 1.0000
41.0900 400.0000 1.0000
41.1000 355.0000 1.0000
41.1100 339.0000 1.0000
41.1200 377.0000 1.0000
41.1300 404.0000 1.0000
41.1400 379.0000 1.0000
41.1500 395.0000 1.0000
41.1600 394.0000 1.0000
41.1700 364.0000 1.0000
41.1800 365.0000 1.0000
41.1900 405.0000 1.0000
41.2000 407.0000 1.0000
41.2100 359.0000 1.0000
41.2200 394.0000 1.0000
41.2300 383.0000 1.0000
41.2400 364.0000 1.0000
41.2500 383.0000 1.0000
41.2600 366.0000 1.0000
41.2700 375.0000 1.0000
41.2800 367.0000 1.0000
41.2900 355.0000 1.0000
41.3000 347.0000 1.0000
41.3100 372.0000 1.0000
41.3200 380.0000 1.0000
41.3300 375.0000 1.0000
41.3400 363.0000 1.0000
41.3500 355.0000 1.0000
41.3600 351.0000 1.0000
41.3700 377.0000 1.0000
41.3800 383.0000 1.0000
41.3900 336.0000 1.0000
41.4000 335.0000 1.0000
41.4100 337.0000 1.0000
41.4200 355.0000 1.0000
41.4300 362.0000 1.0000
41.4400 354.0000 1.0000
41.4500 335.0000 1.0000
41.4600 338.0000 1.0000
41.4700 371.0000 1.0000
41.4800 378.0000 1.0000
41.4900 371.0000 1.0000
41.5000 360.0000 1.0000
41.5100 367.0000 1.0000
41.5200 351.0000 1.0000
41.5300 365.0000 1.0000
41.5400 346.0000 1.0000
41.5500 357.0000 1.0000
41.5600 357.0000 1.0000
41.5700 338.0000 1.0000
41.5800 346.0000 1.0000
41.5900 321.0000 1.0000
41.6000 345.0000 1.0000
41.6100 350.0000 1.0000
41.6200 375.0000 1.0000
41.6300 394.0000 1.0000
41.6400 355.0000 1.0000
41.6500 351.0000 1.0000
41.6600 405.0000 1.0000
41.6700 358.0000 1.0000
41.6800 338.0000 1.0000
41.6900 353.0000 1.0000
41.7000 356.0000 1.0000
41.7100 359.0000 1.0000
41.7200 357.0000 1.0000
41.7300 352.0000 1.0000
41.7400 361.0000 1.0000
41.7500 373.0000 1.0000
41.7600 345.0000 1.0000
41.7700 380.0000 1.0000
41.7800 347.0000 1.0000
41.7900 358.0000 1.0000
41.8000 369.0000 1.0000
41.8100 358.0000 1.0000
41.8200 360.0000 1.0000
41.8300 362.0000 1.0000
41.8400 347.0000 1.0000
41.8500 356.0000 1.0000
41.8600 358.0000 1.0000
41.8700 364.0000 1.0000
41.8800 374.0000 1.0000
41.8900 340.0000 1.0000
41.9000 366.0000 1.0000
41.9100 341.0000 1.0000
41.9200 368.0000 1.0000
41.9300 320.0000 1.0000
41.9400 350.0000 1.0000
41.9500 361.0000 1.0000
41.9600 359.0000 1.0000
41.9700 352.0000 1.0000
41.9800 359.0000 1.0000
41.9900 358.0000 1.0000
42.0000 369.0000 1.0000
42.0100 371.0000 1.0000
42.0200 389.0000 1.0000
42.0300 362.0000 1.0000
42.0400 353.0000 1.0000
42.0500 361.0000 1.0000
42.0600 347.0000 1.0000
42.0700 318.0000 1.0000
42.0800 347.0000 1.0000
42.0900 367.0000 1.0000
42.1000 378.0000 1.0000
42.1100 331.0000 1.0000
42.1200 367.0000 1.0000
42.1300 376.0000 1.0000
42.1400 336.0000 1.0000
42.1500 338.0000 1.0000
42.1600 355.0000 1.0000
42.1700 378.0000 1.0000
42.1800 332.0000 1.0000
42.1900 366.0000 1.0000
42.2000 358.0000 1.0000
42.2100 355.0000 1.0000
42.2200 363.0000 1.0000
42.2300 393.0000 1.0000
42.2400 364.0000 1.0000
42.2500 358.0000 1.0000
42.2600 360.0000 1.0000
42.2700 389.0000 1.0000
42.2800 393.0000 1.0000
42.2900 393.0000 1.0000
42.3000 381.0000 1.0000
42.3100 372.0000 1.0000
42.3200 367.0000 1.0000
42.3300 371.0000 1.0000
42.3400 401.0000 1.0000
42.3500 418.0000 1.0000
42.3600 409.0000 1.0000
42.3700 398.0000 1.0000
42.3800 375.0000 1.0000
42.3900 374.0000 1.0000
42.4000 371.0000 1.0000
42.4100 353.0000 1.0000
42.4200 369.0000 1.0000
42.4300 394.0000 1.0000
42.4400 381.0000 1.0000
42.4500 392.0000 1.0000
42.4600 376.0000 1.0000
42.4700 348.0000 1.0000
42.4800 366.0000 1.0000
42.4900 367.0000 1.0000
42.5000 385.0000 1.0000
42.5100 378.0000 1.0000
42.5200 372.0000 1.0000
42.5300 379.0000 1.0000
42.5400 351.0000 1.0000
42.5500 368.0000 1.0000
42.5600 383.0000 1.0000
42.5700 358.0000 1.0000
42.5800 395.0000 1.0000
42.5900 403.0000 1.0000
42.6000 378.0000 1.0000
42.6100 363.0000 1.0000
42.6200 368.0000 1.0000
42.6300 368.0000 1.0000
42.6400 374.0000 1.0000
42.6500 350.0000 1.0000
42.6600 346.0000 1.0000
42.6700 348.0000 1.0000
42.6800 347.0000 1.0000
42.6900 376.0000 1.0000
42.7000 357.0000 1.0000
42.7100 375.0000 1.0000
42.7200 340.0000 1.0000
42.7300 368.0000 1.0000
42.7400 344.0000 1.0000
42.7500 354.0000 1.0000
42.7600 354.0000 1.0000
42.7700 367.0000 1.0000
42.7800 350.0000 1.0000
42.7900 359.0000 1.0000
42.8000 359.0000 1.0000
42.8100 345.0000 1.0000
42.8200 313.0000 1.0000
42.8300 352.0000 1.0000
42.8400 366.0000 1.0000
42.8500 336.0000 1.0000
42.8600 346.0000 1.0000
42.8700 337.0000 1.0000
42.8800 342.0000 1.0000
42.8900 357.0000 1.0000
42.9000 322.0000 1.0000
42.9100 337.0000 1.0000
42.9200 349.0000 1.0000
42.9300 352.0000 1.0000
42.9400 379.0000 1.0000
42.9500 367.0000 1.0000
42.9600 393.0000 1.0000
42.9700 349.0000 1.0000
42.9800 380.0000 1.0000
42.9900 383.0000 1.0000
43.0000 350.0000 1.0000
43.0100 357.0000 1.0000
43.0200 353.0000 1.0000
43.0300 373.0000 1.0000
43.0400 374.0000 1.0000
43.0500 339.0000 1.0000
43.0600 340.0000 1.0000
43.0700 339.0000 1.0000
43.0800 338.0000 1.0000
43.0900 374.0000 1.0000
43.1000 339.0000 1.0000
43.1100 346.0000 1.0000
43.1200 333.0000 1.0000
43.1300 363.0000 1.0000
43.1400 360.0000 1.0000
43.1500 352.0000 1.0000
43.1600 317.0000 1.0000
43.1700 326.0000 1.0000
43.1800 336.0000 1.0000
43.1900 330.0000 1.0000
43.2000 358.0000 1.0000
43.2100 335.0000 1.0000
43.2200 328.0000 1.0000
43.2300 356.0000 1.0000
43.2400 349.0000 1.0000
43.2500 370.0000 1.0000
43.2600 365.0000 1.0000
43.2700 365.0000 1.0000
43.2800 327.0000 1.0000
43.2900 369.0000 1.0000
43.3000 334.0000 1.0000
43.3100 335.0000 1.0000
43.3200 335.0000 1.0000
43.3300 328.0000 1.0000
43.3400 346.0000 1.0000
43.3500 377.0000 1.0000
43.3600 375.0000 1.0000
43.3700 340.0000 1.0000
43.3800 332.0000 1.0000
43.3900 362.0000 1.0000
43.4000 351.0000 1.0000
43.4100 364.0000 1.0000
43.4200 363.0000 1.0000
43.4300 346.0000 1.0000
43.4400 365.0000 1.0000
43.4500 334.0000 1.0000
43.4600 381.0000 1.0000
43.4700 354.0000 1.0000
43.4800 348.0000 1.0000
43.4900 339.0000 1.0000
43.5000 371.0000 1.0000
43.5100 352.0000 1.0000
43.5200 356.0000 1.0000
43.5300 376.0000 1.0000
43.5400 352.0000 1.0000
43.5500 343.0000 1.0000
43.5600 369.0000 1.0000
43.5700 341.0000 1.0000
43.5800 354.0000 1.0000
43.5900 344.0000 1.0000
43.6000 384.0000 1.0000
43.6100 368.0000 1.0000
43.6200 366.0000 1.0000
43.6300 368.0000 1.0000
43.6400 353.0000 1.0000
43.6500 336.0000 1.0000
43.6600 353.0000 1.0000
43.6700 347.0000 1.0000
43.6800 344.0000 1.0000
43.6900 383.0000 1.0000
43.7000 373.0000 1.0000
43.7100 357.0000 1.0000
43.7200 345.0000 1.0000
43.7300 356.0000 1.0000
43.7400 358.0000 1.0000
43.7500 365.0000 1.0000
43.7600 335.0000 1.0000
43.7700 342.0000 1.0000
43.7800 345.0000 1.0000
43.7900 345.0000 1.0000
43.8000 353.0000 1.0000
43.8100 346.0000 1.0000
43.8200 357.0000 1.0000
43.8300 363.0000 1.0000
43.8400 334.0000 1.0000
43.8500 337.0000 1.0000
43.8600 341.0000 1.0000
43.8700 353.0000 1.0000
43.8800 328.0000 1.0000
43.8900 326.0000 1.0000
43.9000 330.0000 1.0000
43.9100 372.0000 1.0000
43.9200 360.0000 1.0000
43.9300 357.0000 1.0000
43.9400 346.0000 1.0000
43.9500 354.0000 1.0000
43.9600 340.0000 1.0000
43.9700 326.0000 1.0000
43.9800 344.0000 1.0000
43.9900 357.0000 1.0000
44.0000 341.0000 1.0000
44.0100 349.0000 1.0000
44.0200 323.0000 1.0000
44.0300 330.0000 1.0000
44.0400 344.0000 1.0000
44.0500 339.0000 1.0000
44.0600 294.0000 1.0000
44.0700 302.0000 1.0000
44.0800 353.0000 1.0000
44.0900 346.0000 1.0000
44.1000 350.0000 1.0000
44.1100 337.0000 1.0000
44.1200 334.0000 1.0000
44.1300 358.0000 1.0000
44.1400 357.0000 1.0000
44.1500 318.0000 1.0000
44.1600 334.0000 1.0000
44.1700 326.0000 1.0000
44.1800 324.0000 1.0000
44.1900 369.0000 1.0000
44.2000 347.0000 1.0000
44.2100 349.0000 1.0000
44.2200 343.0000 1.0000
44.2300 334.0000 1.0000
44.2400 354.0000 1.0000
44.2500 312.0000 1.0000
44.2600 374.0000 1.0000
44.2700 344.0000 1.0000
44.2800 341.0000 1.0000
44.2900 341.0000 1.0000
44.3000 338.0000 1.0000
44.3100 332.0000 1.0000
44.3200 357.0000 1.0000
44.3300 356.0000 1.0000
44.3400 359.0000 1.0000
44.3500 307.0000 1.0000
44.3600 312.0000 1.0000
44.3700 324.0000 1.0000
44.3800 315.0000 1.0000
44.3900 329.0000 1.0000
44.4000 332.0000 1.0000
44.4100 322.0000 1.0000
44.4200 328.0000 1.0000
44.4300 331.0000 1.0000
44.4400 318.0000 1.0000
44.4500 372.0000 1.0000
44.4600 369.0000 1.0000
44.4700 357.0000 1.0000
44.4800 346.0000 1.0000
44.4900 359.0000 1.0000
44.5000 321.0000 1.0000
44.5100 345.0000 1.0000
44.5200 315.0000 1.0000
44.5300 308.0000 1.0000
44.5400 338.0000 1.0000
44.5500 344.0000 1.0000
44.5600 342.0000 1.0000
44.5700 344.0000 1.0000
44.5800 339.0000 1.0000
44.5900 340.0000 1.0000
44.6000 373.0000 1.0000
44.6100 342.0000 1.0000
44.6200 358.0000 1.0000
44.6300 359.0000 1.0000
44.6400 333.0000 1.0000
44.6500 363.0000 1.0000
44.6600 389.0000 1.0000
44.6700 335.0000 1.0000
44.6800 316.0000 1.0000
44.6900 350.0000 1.0000
44.7000 333.0000 1.0000
44.7100 344.0000 1.0000
44.7200 330.0000 1.0000
44.7300 315.0000 1.0000
44.7400 356.0000 1.0000
44.7500 337.0000 1.0000
44.7600 345.0000 1.0000
44.7700 321.0000 1.0000
44.7800 312.0000 1.0000
44.7900 319.0000 1.0000
44.8000 307.0000 1.0000
44.8100 335.0000 1.0000
44.8200 319.0000 1.0000
44.8300 358.0000 1.0000
44.8400 346.0000 1.0000
44.8500 314.0000 1.0000
44.8600 322.0000 1.0000
44.8700 332.0000 1.0000
44.8800 357.0000 1.0000
44.8900 351.0000 1.0000
44.9000 340.0000 1.0000
44.9100 312.0000 1.0000
44.9200 361.0000 1.0000
44.9300 327.0000 1.0000
44.9400 314.0000 1.0000
44.9500 349.0000 1.0000
44.9600 336.0000 1.0000
44.9700 331.0000 1.0000
44.9800 324.0000 1.0000
44.9900 324.0000 1.0000
45.0000 333.0000 1.0000
45.0100 341.0000 1.0000
45.0200 318.0000 1.0000
45.0300 327.0000 1.0000
45.0400 366.0000 1.0000
45.0500 350.0000 1.0000
45.0600 326.0000 1.0000
45.0700 387.0000 1.0000
45.0800 341.0000 1.0000
45.0900 339.0000 1.0000
45.1000 321.0000 1.0000
45.1100 321.0000 1.0000
45.1200 314.0000 1.0000
45.1300 312.0000 1.0000
45.1400 330.0000 1.0000
45.1500 339.0000 1.0000
45.1600 323.0000 1.0000
45.1700 327.0000 1.0000
45.1800 330.0000 1.0000
45.1900 333.0000 1.0000
45.2000 314.0000 1.0000
45.2100 330.0000 1.0000
45.2200 334.0000 1.0000
45.2300 312.0000 1.0000
45.2400 316.0000 1.0000
45.2500 339.0000 1.0000
45.2600 321.0000 1.0000
45.2700 308.0000 1.0000
45.2800 319.0000 1.0000
45.2900 324.0000 1.0000
45.3000 342.0000 1.0000
45.3100 310.0000 1.0000
45.3200 308.0000 1.0000
45.3300 298.0000 1.0000
45.3400 325.0000 1.0000
45.3500 341.0000 1.0000
45.3600 330.0000 1.0000
45.3700 341.0000 1.0000
45.3800 364.0000 1.0000
45.3900 343.0000 1.0000
45.4000 359.0000 1.0000
45.4100 356.0000 1.0000
45.4200 328.0000 1.0000
45.4300 316.0000 1.0000
45.4400 295.0000 1.0000
45.4500 303.0000 1.0000
45.4600 315.0000 1.0000
45.4700 339.0000 1.0000
45.4800 341.0000 1.0000
45.4900 356.0000 1.0000
45.5000 327.0000 1.0000
45.5100 315.0000 1.0000
45.5200 324.0000 1.0000
45.5300 312.0000 1.0000
45.5400 348.0000 1.0000
45.5500 350.0000 1.0000
45.5600 327.0000 1.0000
45.5700 319.0000 1.0000
45.5800 341.0000 1.0000
45.5900 297.0000 1.0000
45.6000 330.0000 1.0000
45.6100 347.0000 1.0000
45.6200 344.0000 1.0000
45.6300 322.0000 1.0000
45.6400 333.0000 1.0000
45.6500 325.0000 1.0000
45.6600 315.0000 1.0000
45.6700 295.0000 1.0000
45.6800 295.0000 1.0000
45.6900 316.0000 1.0000
45.7000 322.0000 1.0000
45.7100 310.0000 1.0000
45.7200 321.0000 1.0000
45.7300 323.0000 1.0000
45.7400 321.0000 1.0000
45.7500 346.0000 1.0000
45.7600 346.0000 1.0000
45.7700 327.0000 1.0000
45.7800 343.0000 1.0000
45.7900 326.0000 1.0000
45.8000 333.0000 1.0000
45.8100 333.0000 1.0000
45.8200 356.0000 1.0000
45.8300 313.0000 1.0000
45.8400 303.0000 1.0000
45.8500 314.0000 1.0000
45.8600 316.0000 1.0000
45.8700 327.0000 1.0000
45.8800 311.0000 1.0000
45.8900 319.0000 1.0000
45.9000 324.0000 1.0000
45.9100 331.0000 1.0000
45.9200 356.0000 1.0000
45.9300 308.0000 1.0000
45.9400 309.0000 1.0000
45.9500 324.0000 1.0000
45.9600 323.0000 1.0000
45.9700 333.0000 1.0000
45.9800 332.0000 1.0000
45.9900 336.0000 1.0000
46.0000 329.0000 1.0000
46.0100 311.0000 1.0000
46.0200 333.0000 1.0000
46.0300 337.0000 1.0000
46.0400 343.0000 1.0000
46.0500 313.0000 1.0000
46.0600 355.0000 1.0000
46.0700 338.0000 1.0000
46.0800 333.0000 1.0000
46.0900 339.0000 1.0000
46.1000 340.0000 1.0000
46.1100 289.0000 1.0000
46.1200 341.0000 1.0000
46.1300 340.0000 1.0000
46.1400 334.0000 1.0000
46.1500 356.0000 1.0000
46.1600 344.0000 1.0000
46.1700 353.0000 1.0000
46.1800 354.0000 1.0000
46.1900 336.0000 1.0000
46.2000 346.0000 1.0000
46.2100 338.0000 1.0000
46.2200 322.0000 1.0000
46.2300 339.0000 1.0000
46.2400 307.0000 1.0000
46.2500 356.0000 1.0000
46.2600 325.0000 1.0000
46.2700 305.0000 1.0000
46.2800 337.0000 1.0000
46.2900 331.0000 1.0000
46.3000 325.0000 1.0000
46.3100 354.0000 1.0000
46.3200 318.0000 1.0000
46.3300 326.0000 1.0000
46.3400 315.0000 1.0000
46.3500 331.0000 1.0000
46.3600 341.0000 1.0000
46.3700 339.0000 1.0000
46.3800 339.0000 1.0000
46.3900 320.0000 1.0000
46.4000 311.0000 1.0000
46.4100 323.0000 1.0000
46.4200 311.0000 1.0000
46.4300 335.0000 1.0000
46.4400 304.0000 1.0000
46.4500 312.0000 1.0000
46.4600 320.0000 1.0000
46.4700 311.0000 1.0000
46.4800 314.0000 1.0000
46.4900 351.0000 1.0000
46.5000 303.0000 1.0000
46.5100 325.0000 1.0000
46.5200 288.0000 1.0000
46.5300 296.0000 1.0000
46.5400 296.0000 1.0000
46.5500 283.0000 1.0000
46.5600 314.0000 1.0000
46.5700 317.0000 1.0000
46.5800 296.0000 1.0000
46.5900 294.0000 1.0000
46.6000 342.0000 1.0000
46.6100 324.0000 1.0000
46.6200 352.0000 1.0000
46.6300 341.0000 1.0000
46.6400 326.0000 1.0000
46.6500 316.0000 1.0000
46.6600 344.0000 1.0000
46.6700 353.0000 1.0000
46.6800 311.0000 1.0000
46.6900 329.0000 1.0000
46.7000 333.0000 1.0000
46.7100 333.0000 1.0000
46.7200 328.0000 1.0000
46.7300 306.0000 1.0000
46.7400 311.0000 1.0000
46.7500 303.0000 1.0000
46.7600 318.0000 1.0000
46.7700 335.0000 1.0000
46.7800 340.0000 1.0000
46.7900 319.0000 1.0000
46.8000 294.0000 1.0000
46.8100 316.0000 1.0000
46.8200 323.0000 1.0000
46.8300 318.0000 1.0000
46.8400 294.0000 1.0000
46.8500 302.0000 1.0000
46.8600 311.0000 1.0000
46.8700 318.0000 1.0000
46.8800 331.0000 1.0000
46.8900 289.0000 1.0000
46.9000 312.0000 1.0000
46.9100 303.0000 1.0000
46.9200 345.0000 1.0000
46.9300 298.0000 1.0000
46.9400 293.0000 1.0000
46.9500 306.0000 1.0000
46.9600 305.0000 1.0000
46.9700 321.0000 1.0000
46.9800 314.0000 1.0000
46.9900 298.0000 1.0000
47.0000 321.0000 1.0000
47.0100 336.0000 1.0000
47.0200 314.0000 1.0000
47.0300 314.0000 1.0000
47.0400 305.0000 1.0000
47.0500 317.0000 1.0000
47.0600 327.0000 1.0000
47.0700 314.0000 1.0000
47.0800 328.0000 1.0000
47.0900 312.0000 1.0000
47.1000 336.0000 1.0000
47.1100 318.0000 1.0000
47.1200 324.0000 1.0000
47.1300 347.0000 1.0000
47.1400 293.0000 1.0000
47.1500 299.0000 1.0000
47.1600 318.0000 1.0000
47.1700 326.0000 1.0000
47.1800 322.0000 1.0000
47.1900 312.0000 1.0000
47.2000 340.0000 1.0000
47.2100 334.0000 1.0000
47.2200 333.0000 1.0000
47.2300 294.0000 1.0000
47.2400 276.0000 1.0000
47.2500 292.0000 1.0000
47.2600 326.0000 1.0000
47.2700 313.0000 1.0000
47.2800 334.0000 1.0000
47.2900 308.0000 1.0000
47.3000 327.0000 1.0000
47.3100 316.0000 1.0000
47.3200 318.0000 1.0000
47.3300 329.0000 1.0000
47.3400 327.0000 1.0000
47.3500 300.0000 1.0000
47.3600 326.0000 1.0000
47.3700 322.0000 1.0000
47.3800 323.0000 1.0000
47.3900 307.0000 1.0000
47.4000 307.0000 1.0000
47.4100 321.0000 1.0000
47.4200 322.0000 1.0000
47.4300 318.0000 1.0000
47.4400 336.0000 1.0000
47.4500 325.0000 1.0000
47.4600 325.0000 1.0000
47.4700 305.0000 1.0000
47.4800 320.0000 1.0000
47.4900 319.0000 1.0000
47.5000 323.0000 1.0000
47.5100 303.0000 1.0000
47.5200 310.0000 1.0000
47.5300 324.0000 1.0000
47.5400 334.0000 1.0000
47.5500 314.0000 1.0000
47.5600 294.0000 1.0000
47.5700 309.0000 1.0000
47.5800 297.0000 1.0000
47.5900 312.0000 1.0000
47.6000 314.0000 1.0000
47.6100 316.0000 1.0000
47.6200 312.0000 1.0000
47.6300 309.0000 1.0000
47.6400 317.0000 1.0000
47.6500 311.0000 1.0000
47.6600 313.0000 1.0000
47.6700 293.0000 1.0000
47.6800 279.0000 1.0000
47.6900 293.0000 1.0000
47.7000 294.0000 1.0000
47.7100 327.0000 1.0000
47.7200 311.0000 1.0000
47.7300 333.0000 1.0000
47.7400 322.0000 1.0000
47.7500 318.0000 1.0000
47.7600 299.0000 1.0000
47.7700 330.0000 1.0000
47.7800 294.0000 1.0000
47.7900 289.0000 1.0000
47.8000 304.0000 1.0000
47.8100 331.0000 1.0000
47.8200 347.0000 1.0000
47.8300 323.0000 1.0000
47.8400 315.0000 1.0000
47.8500 308.0000 1.0000
47.8600 342.0000 1.0000
47.8700 339.0000 1.0000
47.8800 346.0000 1.0000
47.8900 336.0000 1.0000
47.9000 331.0000 1.0000
47.9100 324.0000 1.0000
47.9200 329.0000 1.0000
47.9300 328.0000 1.0000
47.9400 327.0000 1.0000
47.9500 328.0000 1.0000
47.9600 307.0000 1.0000
47.9700 286.0000 1.0000
47.9800 305.0000 1.0000
47.9900 321.0000 1.0000
48.0000 302.0000 1.0000
48.0100 294.0000 1.0000
48.0200 300.0000 1.0000
48.0300 316.0000 1.0000
48.0400 305.0000 1.0000
48.0500 333.0000 1.0000
48.0600 304.0000 1.0000
48.0700 310.0000 1.0000
48.0800 320.0000 1.0000
48.0900 306.0000 1.0000
48.1000 308.0000 1.0000
48.1100 294.0000 1.0000
48.1200 290.0000 1.0000
48.1300 303.0000 1.0000
48.1400 319.0000 1.0000
48.1500 305.0000 1.0000
48.1600 307.0000 1.0000
48.1700 352.0000 1.0000
48.1800 290.0000 1.0000
48.1900 345.0000 1.0000
48.2000 336.0000 1.0000
48.2100 281.0000 1.0000
48.2200 294.0000 1.0000
48.2300 319.0000 1.0000
48.2400 306.0000 1.0000
48.2500 271.0000 1.0000
48.2600 290.0000 1.0000
48.2700 306.0000 1.0000
48.2800 295.0000 1.0000
48.2900 292.0000 1.0000
48.3000 316.0000 1.0000
48.3100 309.0000 1.0000
48.3200 271.0000 1.0000
48.3300 301.0000 1.0000
48.3400 313.0000 1.0000
48.3500 290.0000 1.0000
48.3600 311.0000 1.0000
48.3700 292.0000 1.0000
48.3800 272.0000 1.0000
48.3900 286.0000 1.0000
48.4000 294.0000 1.0000
48.4100 293.0000 1.0000
48.4200 298.0000 1.0000
48.4300 283.0000 1.0000
48.4400 311.0000 1.0000
48.4500 301.0000 1.0000
48.4600 310.0000 1.0000
48.4700 264.0000 1.0000
48.4800 289.0000 1.0000
48.4900 285.0000 1.0000
48.5000 308.0000 1.0000
48.5100 302.0000 1.0000
48.5200 301.0000 1.0000
48.5300 297.0000 1.0000
48.5400 291.0000 1.0000
48.5500 296.0000 1.0000
48.5600 303.0000 1.0000
48.5700 322.0000 1.0000
48.5800 307.0000 1.0000
48.5900 305.0000 1.0000
48.6000 314.0000 1.0000
48.6100 313.0000 1.0000
48.6200 296.0000 1.0000
48.6300 277.0000 1.0000
48.6400 329.0000 1.0000
48.6500 317.0000 1.0000
48.6600 313.0000 1.0000
48.6700 297.0000 1.0000
48.6800 317.0000 1.0000
48.6900 304.0000 1.0000
48.7000 309.0000 1.0000
48.7100 316.0000 1.0000
48.7200 321.0000 1.0000
48.7300 297.0000 1.0000
48.7400 303.0000 1.0000
48.7500 317.0000 1.0000
48.7600 306.0000 1.0000
48.7700 309.0000 1.0000
48.7800 314.0000 1.0000
48.7900 314.0000 1.0000
48.8000 304.0000 1.0000
48.8100 329.0000 1.0000
48.8200 294.0000 1.0000
48.8300 283.0000 1.0000
48.8400 301.0000 1.0000
48.8500 280.0000 1.0000
48.8600 301.0000 1.0000
48.8700 304.0000 1.0000
48.8800 292.0000 1.0000
48.8900 313.0000 1.0000
48.9000 305.0000 1.0000
48.9100 290.0000 1.0000
48.9200 336.0000 1.0000
48.9300 309.0000 1.0000
48.9400 300.0000 1.0000
48.9500 296.0000 1.0000
48.9600 340.0000 1.0000
48.9700 320.0000 1.0000
48.9800 309.0000 1.0000
48.9900 327.0000 1.0000
49.0000 292.0000 1.0000
49.0100 279.0000 1.0000
49.0200 311.0000 1.0000
49.0300 297.0000 1.0000
49.0400 312.0000 1.0000
49.0500 303.0000 1.0000
49.0600 294.0000 1.0000
49.0700 352.0000 1.0000
49.0800 307.0000 1.0000
49.0900 326.0000 1.0000
49.1000 324.0000 1.0000
49.1100 314.0000 1.0000
49.1200 310.0000 1.0000
49.1300 332.0000 1.0000
49.1400 303.0000 1.0000
49.1500 295.0000 1.0000
49.1600 311.0000 1.0000
49.1700 304.0000 1.0000
49.1800 303.0000 1.0000
49.1900 305.0000 1.0000
49.2000 324.0000 1.0000
49.2100 340.0000 1.0000
49.2200 342.0000 1.0000
49.2300 311.0000 1.0000
49.2400 292.0000 1.0000
49.2500 314.0000 1.0000
49.2600 335.0000 1.0000
49.2700 327.0000 1.0000
49.2800 309.0000 1.0000
49.2900 304.0000 1.0000
49.3000 318.0000 1.0000
49.3100 348.0000 1.0000
49.3200 352.0000 1.0000
49.3300 330.0000 1.0000
49.3400 327.0000 1.0000
49.3500 362.0000 1.0000
49.3600 343.0000 1.0000
49.3700 331.0000 1.0000
49.3800 325.0000 1.0000
49.3900 363.0000 1.0000
49.4000 332.0000 1.0000
49.4100 381.0000 1.0000
49.4200 361.0000 1.0000
49.4300 333.0000 1.0000
49.4400 371.0000 1.0000
49.4500 358.0000 1.0000
49.4600 350.0000 1.0000
49.4700 333.0000 1.0000
49.4800 336.0000 1.0000
49.4900 340.0000 1.0000
49.5000 377.0000 1.0000
49.5100 339.0000 1.0000
49.5200 325.0000 1.0000
49.5300 372.0000 1.0000
49.5400 342.0000 1.0000
49.5500 333.0000 1.0000
49.5600 345.0000 1.0000
49.5700 347.0000 1.0000
49.5800 334.0000 1.0000
49.5900 320.0000 1.0000
49.6000 301.0000 1.0000
49.6100 324.0000 1.0000
49.6200 321.0000 1.0000
49.6300 347.0000 1.0000
49.6400 330.0000 1.0000
49.6500 288.0000 1.0000
49.6600 347.0000 1.0000
49.6700 334.0000 1.0000
49.6800 328.0000 1.0000
49.6900 328.0000 1.0000
49.7000 315.0000 1.0000
49.7100 311.0000 1.0000
49.7200 316.0000 1.0000
49.7300 329.0000 1.0000
49.7400 327.0000 1.0000
49.7500 327.0000 1.0000
49.7600 315.0000 1.0000
49.7700 294.0000 1.0000
49.7800 294.0000 1.0000
49.7900 321.0000 1.0000
49.8000 294.0000 1.0000
49.8100 307.0000 1.0000
49.8200 278.0000 1.0000
49.8300 317.0000 1.0000
49.8400 327.0000 1.0000
49.8500 302.0000 1.0000
49.8600 308.0000 1.0000
49.8700 326.0000 1.0000
49.8800 314.0000 1.0000
49.8900 314.0000 1.0000
49.9000 313.0000 1.0000
49.9100 303.0000 1.0000
49.9200 302.0000 1.0000
49.9300 307.0000 1.0000
49.9400 328.0000 1.0000
49.9500 323.0000 1.0000
49.9600 286.0000 1.0000
49.9700 314.0000 1.0000
49.9800 286.0000 1.0000
49.9900 299.0000 1.0000
50.0000 334.0000 1.0000
50.0100 308.0000 1.0000
50.0200 313.0000 1.0000
50.0300 321.0000 1.0000
50.0400 286.0000 1.0000
50.0500 301.0000 1.0000
50.0600 310.0000 1.0000
50.0700 316.0000 1.0000
50.0800 307.0000 1.0000
50.0900 334.0000 1.0000
50.1000 306.0000 1.0000
50.1100 311.0000 1.0000
50.1200 322.0000 1.0000
50.1300 315.0000 1.0000
50.1400 325.0000 1.0000
50.1500 322.0000 1.0000
50.1600 326.0000 1.0000
50.1700 300.0000 1.0000
50.1800 307.0000 1.0000
50.1900 318.0000 1.0000
50.2000 299.0000 1.0000
50.2100 304.0000 1.0000
50.2200 321.0000 1.0000
50.2300 277.0000 1.0000
50.2400 318.0000 1.0000
50.2500 304.0000 1.0000
50.2600 303.0000 1.0000
50.2700 319.0000 1.0000
50.2800 323.0000 1.0000
50.2900 298.0000 1.0000
50.3000 327.0000 1.0000
50.3100 321.0000 1.0000
50.3200 310.0000 1.0000
50.3300 319.0000 1.0000
50.3400 305.0000 1.0000
50.3500 332.0000 1.0000
50.3600 328.0000 1.0000
50.3700 314.0000 1.0000
50.3800 315.0000 1.0000
50.3900 318.0000 1.0000
50.4000 319.0000 1.0000
50.4100 298.0000 1.0000
50.4200 303.0000 1.0000
50.4300 309.0000 1.0000
50.4400 318.0000 1.0000
50.4500 286.0000 1.0000
50.4600 320.0000 1.0000
50.4700 315.0000 1.0000
50.4800 309.0000 1.0000
50.4900 312.0000 1.0000
50.5000 314.0000 1.0000
50.5100 300.0000 1.0000
50.5200 329.0000 1.0000
50.5300 301.0000 1.0000
50.5400 332.0000 1.0000
50.5500 311.0000 1.0000
50.5600 302.0000 1.0000
50.5700 325.0000 1.0000
50.5800 316.0000 1.0000
50.5900 313.0000 1.0000
50.6000 335.0000 1.0000
50.6100 292.0000 1.0000
50.6200 316.0000 1.0000
50.6300 293.0000 1.0000
50.6400 308.0000 1.0000
50.6500 325.0000 1.0000
50.6600 303.0000 1.0000
50.6700 286.0000 1.0000
50.6800 309.0000 1.0000
50.6900 324.0000 1.0000
50.7000 336.0000 1.0000
50.7100 327.0000 1.0000
50.7200 285.0000 1.0000
50.7300 325.0000 1.0000
50.7400 330.0000 1.0000
50.7500 295.0000 1.0000
50.7600 292.0000 1.0000
50.7700 282.0000 1.0000
50.7800 308.0000 1.0000
50.7900 297.0000 1.0000
50.8000 287.0000 1.0000
50.8100 342.0000 1.0000
50.8200 318.0000 1.0000
50.8300 296.0000 1.0000
50.8400 323.0000 1.0000
50.8500 295.0000 1.0000
50.8600 326.0000 1.0000
50.8700 338.0000 1.0000
50.8800 336.0000 1.0000
50.8900 319.0000 1.0000
50.9000 343.0000 1.0000
50.9100 314.0000 1.0000
50.9200 321.0000 1.0000
50.9300 344.0000 1.0000
50.9400 307.0000 1.0000
50.9500 326.0000 1.0000
50.9600 315.0000 1.0000
50.9700 355.0000 1.0000
50.9800 346.0000 1.0000
50.9900 352.0000 1.0000
51.0000 343.0000 1.0000
51.0100 369.0000 1.0000
51.0200 350.0000 1.0000
51.0300 320.0000 1.0000
51.0400 336.0000 1.0000
51.0500 350.0000 1.0000
51.0600 337.0000 1.0000
51.0700 340.0000 1.0000
51.0800 359.0000 1.0000
51.0900 367.0000 1.0000
51.1000 368.0000 1.0000
51.1100 378.0000 1.0000
51.1200 369.0000 1.0000
51.1300 368.0000 1.0000
51.1400 423.0000 1.0000
51.1500 377.0000 1.0000
51.1600 431.0000 1.0000
51.1700 423.0000 1.0000
51.1800 416.0000 1.0000
51.1900 432.0000 1.0000
51.2000 471.0000 1.0000
51.2100 473.0000 1.0000
51.2200 466.0000 1.0000
51.2300 474.0000 1.0000
51.2400 511.0000 1.0000
51.2500 593.0000 1.0000
51.2600 557.0000 1.0000
51.2700 583.0000 1.0000
51.2800 622.0000 1.0000
51.2900 620.0000 1.0000
51.3000 647.0000 1.0000
51.3100 708.0000 1.0000
51.3200 757.0000 1.0000
51.3300 857.0000 1.0000
51.3400 889.0000 1.0000
51.3500 957.0000 1.0000
51.3600 1053.0000 1.0000
51.3700 1106.0000 1.0000
51.3800 1178.0000 1.0000
51.3900 1256.0000 1.0000
51.4000 1358.0000 1.0000
51.4100 1453.0000 1.0000
51.4200 1554.0000 1.0000
51.4300 1636.0000 1.0000
51.4400 1708.0000 1.0000
51.4500 1783.0000 1.0000
51.4600 1880.0000 1.0000
51.4700 1932.0000 1.0000
51.4800 1995.0000 1.0000
51.4900 1968.0000 1.0000
51.5000 1967.0000 1.0000
51.5100 1926.0000 1.0000
51.5200 1915.0000 1.0000
51.5300 1849.0000 1.0000
51.5400 1774.0000 1.0000
51.5500 1685.0000 1.0000
51.5600 1635.0000 1.0000
51.5700 1596.0000 1.0000
51.5800 1522.0000 1.0000
51.5900 1478.0000 1.0000
51.6000 1415.0000 1.0000
51.6100 1435.0000 1.0000
51.6200 1430.0000 1.0000
51.6300 1290.0000 1.0000
51.6400 1311.0000 1.0000
51.6500 1225.0000 1.0000
51.6600 1114.0000 1.0000
51.6700 1090.0000 1.0000
51.6800 1036.0000 1.0000
51.6900 951.0000 1.0000
51.7000 866.0000 1.0000
51.7100 797.0000 1.0000
51.7200 741.0000 1.0000
51.7300 742.0000 1.0000
51.7400 665.0000 1.0000
51.7500 628.0000 1.0000
51.7600 577.0000 1.0000
51.7700 583.0000 1.0000
51.7800 554.0000 1.0000
51.7900 531.0000 1.0000
51.8000 498.0000 1.0000
51.8100 481.0000 1.0000
51.8200 471.0000 1.0000
51.8300 466.0000 1.0000
51.8400 469.0000 1.0000
51.8500 460.0000 1.0000
51.8600 450.0000 1.0000
51.8700 418.0000 1.0000
51.8800 438.0000 1.0000
51.8900 412.0000 1.0000
51.9000 399.0000 1.0000
51.9100 361.0000 1.0000
51.9200 402.0000 1.0000
51.9300 352.0000 1.0000
51.9400 394.0000 1.0000
51.9500 385.0000 1.0000
51.9600 355.0000 1.0000
51.9700 375.0000 1.0000
51.9800 395.0000 1.0000
51.9900 367.0000 1.0000
52.0000 387.0000 1.0000
52.0100 339.0000 1.0000
52.0200 355.0000 1.0000
52.0300 359.0000 1.0000
52.0400 340.0000 1.0000
52.0500 356.0000 1.0000
52.0600 352.0000 1.0000
52.0700 366.0000 1.0000
52.0800 354.0000 1.0000
52.0900 363.0000 1.0000
52.1000 354.0000 1.0000
52.1100 348.0000 1.0000
52.1200 317.0000 1.0000
52.1300 350.0000 1.0000
52.1400 314.0000 1.0000
52.1500 347.0000 1.0000
52.1600 326.0000 1.0000
52.1700 313.0000 1.0000
52.1800 320.0000 1.0000
52.1900 343.0000 1.0000
52.2000 329.0000 1.0000
52.2100 311.0000 1.0000
52.2200 321.0000 1.0000
52.2300 299.0000 1.0000
52.2400 310.0000 1.0000
52.2500 314.0000 1.0000
52.2600 303.0000 1.0000
52.2700 296.0000 1.0000
52.2800 285.0000 1.0000
52.2900 295.0000 1.0000
52.3000 305.0000 1.0000
52.3100 341.0000 1.0000
52.3200 312.0000 1.0000
52.3300 288.0000 1.0000
52.3400 290.0000 1.0000
52.3500 295.0000 1.0000
52.3600 323.0000 1.0000
52.3700 325.0000 1.0000
52.3800 309.0000 1.0000
52.3900 330.0000 1.0000
52.4000 330.0000 1.0000
52.4100 307.0000 1.0000
52.4200 312.0000 1.0000
52.4300 297.0000 1.0000
52.4400 333.0000 1.0000
52.4500 319.0000 1.0000
52.4600 323.0000 1.0000
52.4700 331.0000 1.0000
52.4800 327.0000 1.0000
52.4900 275.0000 1.0000
52.5000 299.0000 1.0000
52.5100 337.0000 1.0000
52.5200 325.0000 1.0000
52.5300 325.0000 1.0000
52.5400 325.0000 1.0000
52.5500 342.0000 1.0000
52.5600 303.0000 1.0000
52.5700 313.0000 1.0000
52.5800 286.0000 1.0000
52.5900 293.0000 1.0000
52.6000 332.0000 1.0000
52.6100 311.0000 1.0000
52.6200 322.0000 1.0000
52.6300 274.0000 1.0000
52.6400 315.0000 1.0000
52.6500 301.0000 1.0000
52.6600 289.0000 1.0000
52.6700 289.0000 1.0000
52.6800 303.0000 1.0000
52.6900 276.0000 1.0000
52.7000 305.0000 1.0000
52.7100 329.0000 1.0000
52.7200 305.0000 1.0000
52.7300 309.0000 1.0000
52.7400 278.0000 1.0000
52.7500 330.0000 1.0000
52.7600 319.0000 1.0000
52.7700 310.0000 1.0000
52.7800 298.0000 1.0000
52.7900 302.0000 1.0000
52.8000 282.0000 1.0000
52.8100 325.0000 1.0000
52.8200 294.0000 1.0000
52.8300 310.0000 1.0000
52.8400 313.0000 1.0000
52.8500 292.0000 1.0000
52.8600 293.0000 1.0000
52.8700 297.0000 1.0000
52.8800 325.0000 1.0000
52.8900 278.0000 1.0000
52.9000 265.0000 1.0000
52.9100 284.0000 1.0000
52.9200 261.0000 1.0000
52.9300 266.0000 1.0000
52.9400 274.0000 1.0000
52.9500 265.0000 1.0000
52.9600 295.0000 1.0000
52.9700 324.0000 1.0000
52.9800 325.0000 1.0000
52.9900 296.0000 1.0000
53.0000 295.0000 1.0000
53.0100 292.0000 1.0000
53.0200 295.0000 1.0000
53.0300 282.0000 1.0000
53.0400 318.0000 1.0000
53.0500 301.0000 1.0000
53.0600 276.0000 1.0000
53.0700 301.0000 1.0000
53.0800 317.0000 1.0000
53.0900 291.0000 1.0000
53.1000 324.0000 1.0000
53.1100 302.0000 1.0000
53.1200 281.0000 1.0000
53.1300 300.0000 1.0000
53.1400 323.0000 1.0000
53.1500 285.0000 1.0000
53.1600 282.0000 1.0000
53.1700 284.0000 1.0000
53.1800 310.0000 1.0000
53.1900 305.0000 1.0000
53.2000 313.0000 1.0000
53.2100 322.0000 1.0000
53.2200 308.0000 1.0000
53.2300 294.0000 1.0000
53.2400 292.0000 1.0000
53.2500 317.0000 1.0000
53.2600 316.0000 1.0000
53.2700 337.0000 1.0000
53.2800 306.0000 1.0000
53.2900 297.0000 1.0000
53.3000 304.0000 1.0000
53.3100 302.0000 1.0000
53.3200 294.0000 1.0000
53.3300 290.0000 1.0000
53.3400 290.0000 1.0000
53.3500 295.0000 1.0000
53.3600 279.0000 1.0000
53.3700 287.0000 1.0000
53.3800 281.0000 1.0000
53.3900 299.0000 1.0000
53.4000 290.0000 1.0000
53.4100 305.0000 1.0000
53.4200 303.0000 1.0000
53.4300 296.0000 1.0000
53.4400 278.0000 1.0000
53.4500 285.0000 1.0000
53.4600 300.0000 1.0000
53.4700 271.0000 1.0000
53.4800 295.0000 1.0000
53.4900 294.0000 1.0000
53.5000 292.0000 1.0000
53.5100 310.0000 1.0000
53.5200 270.0000 1.0000
53.5300 268.0000 1.0000
53.5400 279.0000 1.0000
53.5500 307.0000 1.0000
53.5600 277.0000 1.0000
53.5700 299.0000 1.0000
53.5800 261.0000 1.0000
53.5900 282.0000 1.0000
53.6000 284.0000 1.0000
53.6100 322.0000 1.0000
53.6200 311.0000 1.0000
53.6300 301.0000 1.0000
53.6400 303.0000 1.0000
53.6500 308.0000 1.0000
53.6600 298.0000 1.0000
53.6700 302.0000 1.0000
53.6800 290.0000 1.0000
53.6900 321.0000 1.0000
53.7000 284.0000 1.0000
53.7100 305.0000 1.0000
53.7200 331.0000 1.0000
53.7300 308.0000 1.0000
53.7400 302.0000 1.0000
53.7500 306.0000 1.0000
53.7600 293.0000 1.0000
53.7700 310.0000 1.0000
53.7800 324.0000 1.0000
53.7900 320.0000 1.0000
53.8000 333.0000 1.0000
53.8100 312.0000 1.0000
53.8200 301.0000 1.0000
53.8300 349.0000 1.0000
53.8400 321.0000 1.0000
53.8500 308.0000 1.0000
53.8600 357.0000 1.0000
53.8700 293.0000 1.0000
53.8800 320.0000 1.0000
53.8900 329.0000 1.0000
53.9000 316.0000 1.0000
53.9100 343.0000 1.0000
53.9200 336.0000 1.0000
53.9300 332.0000 1.0000
53.9400 332.0000 1.0000
53.9500 300.0000 1.0000
53.9600 328.0000 1.0000
53.9700 318.0000 1.0000
53.9800 338.0000 1.0000
53.9900 319.0000 1.0000
54.0000 367.0000 1.0000
54.0100 336.0000 1.0000
54.0200 358.0000 1.0000
54.0300 337.0000 1.0000
54.0400 350.0000 1.0000
54.0500 352.0000 1.0000
54.0600 351.0000 1.0000
54.0700 343.0000 1.0000
54.0800 335.0000 1.0000
54.0900 368.0000 1.0000
54.1000 330.0000 1.0000
54.1100 366.0000 1.0000
54.1200 349.0000 1.0000
54.1300 333.0000 1.0000
54.1400 358.0000 1.0000
54.1500 332.0000 1.0000
54.1600 331.0000 1.0000
54.1700 343.0000 1.0000
54.1800 329.0000 1.0000
54.1900 331.0000 1.0000
54.2000 318.0000 1.0000
54.2100 313.0000 1.0000
54.2200 324.0000 1.0000
54.2300 332.0000 1.0000
54.2400 320.0000 1.0000
54.2500 347.0000 1.0000
54.2600 329.0000 1.0000
54.2700 346.0000 1.0000
54.2800 344.0000 1.0000
54.2900 348.0000 1.0000
54.3000 311.0000 1.0000
54.3100 351.0000 1.0000
54.3200 356.0000 1.0000
54.3300 369.0000 1.0000
54.3400 382.0000 1.0000
54.3500 356.0000 1.0000
54.3600 369.0000 1.0000
54.3700 341.0000 1.0000
54.3800 351.0000 1.0000
54.3900 363.0000 1.0000
54.4000 364.0000 1.0000
54.4100 347.0000 1.0000
54.4200 359.0000 1.0000
54.4300 419.0000 1.0000
54.4400 399.0000 1.0000
54.4500 388.0000 1.0000
54.4600 398.0000 1.0000
54.4700 426.0000 1.0000
54.4800 414.0000 1.0000
54.4900 415.0000 1.0000
54.5000 432.0000 1.0000
54.5100 429.0000 1.0000
54.5200 408.0000 1.0000
54.5300 428.0000 1.0000
54.5400 437.0000 1.0000
54.5500 416.0000 1.0000
54.5600 400.0000 1.0000
54.5700 415.0000 1.0000
54.5800 416.0000 1.0000
54.5900 422.0000 1.0000
54.6000 434.0000 1.0000
54.6100 422.0000 1.0000
54.6200 400.0000 1.0000
54.6300 396.0000 1.0000
54.6400 369.0000 1.0000
54.6500 391.0000 1.0000
54.6600 353.0000 1.0000
54.6700 373.0000 1.0000
54.6800 359.0000 1.0000
54.6900 404.0000 1.0000
54.7000 397.0000 1.0000
54.7100 380.0000 1.0000
54.7200 344.0000 1.0000
54.7300 349.0000 1.0000
54.7400 350.0000 1.0000
54.7500 327.0000 1.0000
54.7600 367.0000 1.0000
54.7700 327.0000 1.0000
54.7800 358.0000 1.0000
54.7900 361.0000 1.0000
54.8000 345.0000 1.0000
54.8100 350.0000 1.0000
54.8200 305.0000 1.0000
54.8300 326.0000 1.0000
54.8400 308.0000 1.0000
54.8500 346.0000 1.0000
54.8600 290.0000 1.0000
54.8700 338.0000 1.0000
54.8800 336.0000 1.0000
54.8900 315.0000 1.0000
54.9000 283.0000 1.0000
54.9100 278.0000 1.0000
54.9200 320.0000 1.0000
54.9300 317.0000 1.0000
54.9400 297.0000 1.0000
54.9500 319.0000 1.0000
54.9600 300.0000 1.0000
54.9700 304.0000 1.0000
54.9800 301.0000 1.0000
54.9900 297.0000 1.0000
55.0000 320.0000 1.0000
55.0100 291.0000 1.0000
55.0200 303.0000 1.0000
55.0300 320.0000 1.0000
55.0400 304.0000 1.0000
55.0500 275.0000 1.0000
55.0600 309.0000 1.0000
55.0700 310.0000 1.0000
55.0800 331.0000 1.0000
55.0900 286.0000 1.0000
55.1000 275.0000 1.0000
55.1100 289.0000 1.0000
55.1200 282.0000 1.0000
55.1300 294.0000 1.0000
55.1400 290.0000 1.0000
55.1500 286.0000 1.0000
55.1600 283.0000 1.0000
55.1700 257.0000 1.0000
55.1800 307.0000 1.0000
55.1900 268.0000 1.0000
55.2000 287.0000 1.0000
55.2100 289.0000 1.0000
55.2200 306.0000 1.0000
55.2300 279.0000 1.0000
55.2400 308.0000 1.0000
55.2500 319.0000 1.0000
55.2600 296.0000 1.0000
55.2700 290.0000 1.0000
55.2800 295.0000 1.0000
55.2900 294.0000 1.0000
55.3000 302.0000 1.0000
55.3100 277.0000 1.0000
55.3200 292.0000 1.0000
55.3300 284.0000 1.0000
55.3400 303.0000 1.0000
55.3500 268.0000 1.0000
55.3600 284.0000 1.0000
55.3700 286.0000 1.0000
55.3800 311.0000 1.0000
55.3900 255.0000 1.0000
55.4000 289.0000 1.0000
55.4100 280.0000 1.0000
55.4200 270.0000 1.0000
55.4300 272.0000 1.0000
55.4400 285.0000 1.0000
55.4500 284.0000 1.0000
55.4600 262.0000 1.0000
55.4700 285.0000 1.0000
55.4800 314.0000 1.0000
55.4900 258.0000 1.0000
55.5000 255.0000 1.0000
55.5100 247.0000 1.0000
55.5200 275.0000 1.0000
55.5300 298.0000 1.0000
55.5400 308.0000 1.0000
55.5500 318.0000 1.0000
55.5600 288.0000 1.0000
55.5700 302.0000 1.0000
55.5800 272.0000 1.0000
55.5900 271.0000 1.0000
55.6000 263.0000 1.0000
55.6100 301.0000 1.0000
55.6200 278.0000 1.0000
55.6300 259.0000 1.0000
55.6400 293.0000 1.0000
55.6500 300.0000 1.0000
55.6600 313.0000 1.0000
55.6700 297.0000 1.0000
55.6800 273.0000 1.0000
55.6900 303.0000 1.0000
55.7000 283.0000 1.0000
55.7100 294.0000 1.0000
55.7200 281.0000 1.0000
55.7300 264.0000 1.0000
55.7400 278.0000 1.0000
55.7500 253.0000 1.0000
55.7600 294.0000 1.0000
55.7700 268.0000 1.0000
55.7800 279.0000 1.0000
55.7900 282.0000 1.0000
55.8000 277.0000 1.0000
55.8100 259.0000 1.0000
55.8200 296.0000 1.0000
55.8300 283.0000 1.0000
55.8400 278.0000 1.0000
55.8500 285.0000 1.0000
55.8600 282.0000 1.0000
55.8700 307.0000 1.0000
55.8800 311.0000 1.0000
55.8900 280.0000 1.0000
55.9000 299.0000 1.0000
55.9100 273.0000 1.0000
55.9200 257.0000 1.0000
55.9300 266.0000 1.0000
55.9400 264.0000 1.0000
55.9500 297.0000 1.0000
55.9600 283.0000 1.0000
55.9700 279.0000 1.0000
55.9800 269.0000 1.0000
55.9900 290.0000 1.0000
56.0000 277.0000 1.0000
56.0100 278.0000 1.0000
56.0200 286.0000 1.0000
56.0300 262.0000 1.0000
56.0400 285.0000 1.0000
56.0500 284.0000 1.0000
56.0600 261.0000 1.0000
56.0700 281.0000 1.0000
56.0800 308.0000 1.0000
56.0900 301.0000 1.0000
56.1000 332.0000 1.0000
56.1100 273.0000 1.0000
56.1200 278.0000 1.0000
56.1300 272.0000 1.0000
56.1400 277.0000 1.0000
56.1500 258.0000 1.0000
56.1600 273.0000 1.0000
56.1700 273.0000 1.0000
56.1800 288.0000 1.0000
56.1900 261.0000 1.0000
56.2000 264.0000 1.0000
56.2100 270.0000 1.0000
56.2200 261.0000 1.0000
56.2300 287.0000 1.0000
56.2400 277.0000 1.0000
56.2500 269.0000 1.0000
56.2600 304.0000 1.0000
56.2700 268.0000 1.0000
56.2800 282.0000 1.0000
56.2900 268.0000 1.0000
56.3000 256.0000 1.0000
56.3100 288.0000 1.0000
56.3200 294.0000 1.0000
56.3300 277.0000 1.0000
56.3400 279.0000 1.0000
56.3500 273.0000 1.0000
56.3600 274.0000 1.0000
56.3700 278.0000 1.0000
56.3800 274.0000 1.0000
56.3900 289.0000 1.0000
56.4000 279.0000 1.0000
56.4100 277.0000 1.0000
56.4200 291.0000 1.0000
56.4300 289.0000 1.0000
56.4400 287.0000 1.0000
56.4500 266.0000 1.0000
56.4600 291.0000 1.0000
56.4700 274.0000 1.0000
56.4800 269.0000 1.0000
56.4900 273.0000 1.0000
56.5000 264.0000 1.0000
56.5100 302.0000 1.0000
56.5200 265.0000 1.0000
56.5300 285.0000 1.0000
56.5400 294.0000 1.0000
56.5500 263.0000 1.0000
56.5600 255.0000 1.0000
56.5700 273.0000 1.0000
56.5800 285.0000 1.0000
56.5900 288.0000 1.0000
56.6000 285.0000 1.0000
56.6100 289.0000 1.0000
56.6200 283.0000 1.0000
56.6300 275.0000 1.0000
56.6400 315.0000 1.0000
56.6500 302.0000 1.0000
56.6600 290.0000 1.0000
56.6700 284.0000 1.0000
56.6800 270.0000 1.0000
56.6900 266.0000 1.0000
56.7000 270.0000 1.0000
56.7100 265.0000 1.0000
56.7200 254.0000 1.0000
56.7300 286.0000 1.0000
56.7400 291.0000 1.0000
56.7500 284.0000 1.0000
56.7600 270.0000 1.0000
56.7700 301.0000 1.0000
56.7800 292.0000 1.0000
56.7900 258.0000 1.0000
56.8000 285.0000 1.0000
56.8100 281.0000 1.0000
56.8200 304.0000 1.0000
56.8300 292.0000 1.0000
56.8400 259.0000 1.0000
56.8500 264.0000 1.0000
56.8600 278.0000 1.0000
56.8700 273.0000 1.0000
56.8800 281.0000 1.0000
56.8900 268.0000 1.0000
56.9000 274.0000 1.0000
56.9100 264.0000 1.0000
56.9200 253.0000 1.0000
56.9300 288.0000 1.0000
56.9400 278.0000 1.0000
56.9500 289.0000 1.0000
56.9600 297.0000 1.0000
56.9700 275.0000 1.0000
56.9800 289.0000 1.0000
56.9900 273.0000 1.0000
57.0000 276.0000 1.0000
57.0100 264.0000 1.0000
57.0200 279.0000 1.0000
57.0300 277.0000 1.0000
57.0400 280.0000 1.0000
57.0500 308.0000 1.0000
57.0600 298.0000 1.0000
57.0700 295.0000 1.0000
57.0800 245.0000 1.0000
57.0900 257.0000 1.0000
57.1000 244.0000 1.0000
57.1100 288.0000 1.0000
57.1200 290.0000 1.0000
57.1300 282.0000 1.0000
57.1400 287.0000 1.0000
57.1500 280.0000 1.0000
57.1600 297.0000 1.0000
57.1700 295.0000 1.0000
57.1800 294.0000 1.0000
57.1900 268.0000 1.0000
57.2000 300.0000 1.0000
57.2100 294.0000 1.0000
57.2200 286.0000 1.0000
57.2300 284.0000 1.0000
57.2400 278.0000 1.0000
57.2500 300.0000 1.0000
57.2600 298.0000 1.0000
57.2700 288.0000 1.0000
57.2800 252.0000 1.0000
57.2900 289.0000 1.0000
57.3000 264.0000 1.0000
57.3100 299.0000 1.0000
57.3200 246.0000 1.0000
57.3300 282.0000 1.0000
57.3400 284.0000 1.0000
57.3500 297.0000 1.0000
57.3600 305.0000 1.0000
57.3700 307.0000 1.0000
57.3800 309.0000 1.0000
57.3900 287.0000 1.0000
57.4000 287.0000 1.0000
57.4100 306.0000 1.0000
57.4200 277.0000 1.0000
57.4300 271.0000 1.0000
57.4400 286.0000 1.0000
57.4500 289.0000 1.0000
57.4600 291.0000 1.0000
57.4700 280.0000 1.0000
57.4800 301.0000 1.0000
57.4900 285.0000 1.0000
57.5000 286.0000 1.0000
57.5100 310.0000 1.0000
57.5200 310.0000 1.0000
57.5300 292.0000 1.0000
57.5400 281.0000 1.0000
57.5500 257.0000 1.0000
57.5600 275.0000 1.0000
57.5700 288.0000 1.0000
57.5800 289.0000 1.0000
57.5900 318.0000 1.0000
57.6000 310.0000 1.0000
57.6100 266.0000 1.0000
57.6200 269.0000 1.0000
57.6300 289.0000 1.0000
57.6400 324.0000 1.0000
57.6500 313.0000 1.0000
57.6600 289.0000 1.0000
57.6700 295.0000 1.0000
57.6800 281.0000 1.0000
57.6900 282.0000 1.0000
57.7000 254.0000 1.0000
57.7100 296.0000 1.0000
57.7200 288.0000 1.0000
57.7300 279.0000 1.0000
57.7400 278.0000 1.0000
57.7500 284.0000 1.0000
57.7600 294.0000 1.0000
57.7700 280.0000 1.0000
57.7800 294.0000 1.0000
57.7900 291.0000 1.0000
57.8000 299.0000 1.0000
57.8100 236.0000 1.0000
57.8200 292.0000 1.0000
57.8300 287.0000 1.0000
57.8400 282.0000 1.0000
57.8500 292.0000 1.0000
57.8600 288.0000 1.0000
57.8700 308.0000 1.0000
57.8800 293.0000 1.0000
57.8900 268.0000 1.0000
57.9000 258.0000 1.0000
57.9100 268.0000 1.0000
57.9200 288.0000 1.0000
57.9300 292.0000 1.0000
57.9400 273.0000 1.0000
57.9500 273.0000 1.0000
57.9600 257.0000 1.0000
57.9700 287.0000 1.0000
57.9800 298.0000 1.0000
57.9900 288.0000 1.0000
58.0000 291.0000 1.0000
58.0100 287.0000 1.0000
58.0200 303.0000 1.0000
58.0300 271.0000 1.0000
58.0400 282.0000 1.0000
58.0500 262.0000 1.0000
58.0600 267.0000 1.0000
58.0700 288.0000 1.0000
58.0800 280.0000 1.0000
58.0900 268.0000 1.0000
58.1000 286.0000 1.0000
58.1100 282.0000 1.0000
58.1200 292.0000 1.0000
58.1300 285.0000 1.0000
58.1400 283.0000 1.0000
58.1500 270.0000 1.0000
58.1600 272.0000 1.0000
58.1700 293.0000 1.0000
58.1800 292.0000 1.0000
58.1900 269.0000 1.0000
58.2000 278.0000 1.0000
58.2100 284.0000 1.0000
58.2200 282.0000 1.0000
58.2300 250.0000 1.0000
58.2400 277.0000 1.0000
58.2500 272.0000 1.0000
58.2600 278.0000 1.0000
58.2700 270.0000 1.0000
58.2800 283.0000 1.0000
58.2900 299.0000 1.0000
58.3000 270.0000 1.0000
58.3100 285.0000 1.0000
58.3200 261.0000 1.0000
58.3300 259.0000 1.0000
58.3400 264.0000 1.0000
58.3500 277.0000 1.0000
58.3600 298.0000 1.0000
58.3700 260.0000 1.0000
58.3800 267.0000 1.0000
58.3900 293.0000 1.0000
58.4000 277.0000 1.0000
58.4100 293.0000 1.0000
58.4200 270.0000 1.0000
58.4300 291.0000 1.0000
58.4400 261.0000 1.0000
58.4500 262.0000 1.0000
58.4600 289.0000 1.0000
58.4700 285.0000 1.0000
58.4800 277.0000 1.0000
58.4900 277.0000 1.0000
58.5000 267.0000 1.0000
58.5100 265.0000 1.0000
58.5200 238.0000 1.0000
58.5300 286.0000 1.0000
58.5400 277.0000 1.0000
58.5500 279.0000 1.0000
58.5600 276.0000 1.0000
58.5700 299.0000 1.0000
58.5800 277.0000 1.0000
58.5900 292.0000 1.0000
58.6000 276.0000 1.0000
58.6100 290.0000 1.0000
58.6200 297.0000 1.0000
58.6300 268.0000 1.0000
58.6400 275.0000 1.0000
58.6500 296.0000 1.0000
58.6600 268.0000 1.0000
58.6700 298.0000 1.0000
58.6800 295.0000 1.0000
58.6900 288.0000 1.0000
58.7000 284.0000 1.0000
58.7100 269.0000 1.0000
58.7200 286.0000 1.0000
58.7300 283.0000 1.0000
58.7400 288.0000 1.0000
58.7500 286.0000 1.0000
58.7600 247.0000 1.0000
58.7700 256.0000 1.0000
58.7800 284.0000 1.0000
58.7900 273.0000 1.0000
58.8000 268.0000 1.0000
58.8100 287.0000 1.0000
58.8200 272.0000 1.0000
58.8300 283.0000 1.0000
58.8400 277.0000 1.0000
58.8500 280.0000 1.0000
58.8600 273.0000 1.0000
58.8700 295.0000 1.0000
58.8800 279.0000 1.0000
58.8900 287.0000 1.0000
58.9000 314.0000 1.0000
58.9100 293.0000 1.0000
58.9200 262.0000 1.0000
58.9300 289.0000 1.0000
58.9400 300.0000 1.0000
58.9500 255.0000 1.0000
58.9600 275.0000 1.0000
58.9700 267.0000 1.0000
58.9800 275.0000 1.0000
58.9900 283.0000 1.0000
59.0000 283.0000 1.0000
59.0100 284.0000 1.0000
59.0200 272.0000 1.0000
59.0300 280.0000 1.0000
59.0400 250.0000 1.0000
59.0500 252.0000 1.0000
59.0600 263.0000 1.0000
59.0700 273.0000 1.0000
59.0800 283.0000 1.0000
59.0900 265.0000 1.0000
59.1000 284.0000 1.0000
59.1100 253.0000 1.0000
59.1200 283.0000 1.0000
59.1300 259.0000 1.0000
59.1400 271.0000 1.0000
59.1500 289.0000 1.0000
59.1600 277.0000 1.0000
59.1700 279.0000 1.0000
59.1800 273.0000 1.0000
59.1900 303.0000 1.0000
59.2000 285.0000 1.0000
59.2100 279.0000 1.0000
59.2200 259.0000 1.0000
59.2300 266.0000 1.0000
59.2400 266.0000 1.0000
59.2500 293.0000 1.0000
59.2600 278.0000 1.0000
59.2700 274.0000 1.0000
59.2800 277.0000 1.0000
59.2900 273.0000 1.0000
59.3000 261.0000 1.0000
59.3100 307.0000 1.0000
59.3200 270.0000 1.0000
59.3300 277.0000 1.0000
59.3400 264.0000 1.0000
59.3500 273.0000 1.0000
59.3600 268.0000 1.0000
59.3700 256.0000 1.0000
59.3800 266.0000 1.0000
59.3900 270.0000 1.0000
59.4000 247.0000 1.0000
59.4100 275.0000 1.0000
59.4200 298.0000 1.0000
59.4300 308.0000 1.0000
59.4400 296.0000 1.0000
59.4500 296.0000 1.0000
59.4600 257.0000 1.0000
59.4700 292.0000 1.0000
59.4800 287.0000 1.0000
59.4900 288.0000 1.0000
59.5000 289.0000 1.0000
59.5100 303.0000 1.0000
59.5200 275.0000 1.0000
59.5300 288.0000 1.0000
59.5400 248.0000 1.0000
59.5500 282.0000 1.0000
59.5600 283.0000 1.0000
59.5700 244.0000 1.0000
59.5800 270.0000 1.0000
59.5900 263.0000 1.0000
59.6000 270.0000 1.0000
59.6100 287.0000 1.0000
59.6200 286.0000 1.0000
59.6300 273.0000 1.0000
59.6400 281.0000 1.0000
59.6500 269.0000 1.0000
59.6600 280.0000 1.0000
59.6700 285.0000 1.0000
59.6800 283.0000 1.0000
59.6900 277.0000 1.0000
59.7000 257.0000 1.0000
59.7100 265.0000 1.0000
59.7200 278.0000 1.0000
59.7300 293.0000 1.0000
59.7400 275.0000 1.0000
59.7500 278.0000 1.0000
59.7600 275.0000 1.0000
59.7700 279.0000 1.0000
59.7800 267.0000 1.0000
59.7900 272.0000 1.0000
59.8000 285.0000 1.0000
59.8100 279.0000 1.0000
59.8200 271.0000 1.0000
59.8300 289.0000 1.0000
59.8400 258.0000 1.0000
59.8500 297.0000 1.0000
59.8600 266.0000 1.0000
59.8700 265.0000 1.0000
59.8800 271.0000 1.0000
59.8900 275.0000 1.0000
59.9000 265.0000 1.0000
59.9100 266.0000 1.0000
59.9200 261.0000 1.0000
59.9300 300.0000 1.0000
59.9400 326.0000 1.0000
59.9500 254.0000 1.0000
59.9600 277.0000 1.0000
59.9700 268.0000 1.0000
59.9800 271.0000 1.0000
59.9900 263.0000 1.0000
60.0000 281.0000 1.0000
60.0100 307.0000 1.0000
60.0200 272.0000 1.0000
60.0300 301.0000 1.0000
60.0400 261.0000 1.0000
60.0500 286.0000 1.0000
60.0600 266.0000 1.0000
60.0700 260.0000 1.0000
60.0800 286.0000 1.0000
60.0900 297.0000 1.0000
60.1000 271.0000 1.0000
60.1100 273.0000 1.0000
60.1200 290.0000 1.0000
60.1300 268.0000 1.0000
60.1400 294.0000 1.0000
60.1500 275.0000 1.0000
60.1600 279.0000 1.0000
60.1700 247.0000 1.0000
60.1800 279.0000 1.0000
60.1900 287.0000 1.0000
60.2000 278.0000 1.0000
60.2100 279.0000 1.0000
60.2200 261.0000 1.0000
60.2300 280.0000 1.0000
60.2400 289.0000 1.0000
60.2500 277.0000 1.0000
60.2600 269.0000 1.0000
60.2700 261.0000 1.0000
60.2800 286.0000 1.0000
60.2900 284.0000 1.0000
60.3000 273.0000 1.0000
60.3100 272.0000 1.0000
60.3200 261.0000 1.0000
60.3300 283.0000 1.0000
60.3400 270.0000 1.0000
60.3500 255.0000 1.0000
60.3600 274.0000 1.0000
60.3700 266.0000 1.0000
60.3800 282.0000 1.0000
60.3900 276.0000 1.0000
60.4000 279.0000 1.0000
60.4100 271.0000 1.0000
60.4200 258.0000 1.0000
60.4300 269.0000 1.0000
60.4400 289.0000 1.0000
60.4500 282.0000 1.0000
60.4600 265.0000 1.0000
60.4700 264.0000 1.0000
60.4800 267.0000 1.0000
60.4900 285.0000 1.0000
60.5000 276.0000 1.0000
60.5100 297.0000 1.0000
60.5200 281.0000 1.0000
60.5300 240.0000 1.0000
60.5400 275.0000 1.0000
60.5500 278.0000 1.0000
60.5600 261.0000 1.0000
60.5700 258.0000 1.0000
60.5800 270.0000 1.0000
60.5900 293.0000 1.0000
60.6000 285.0000 1.0000
60.6100 266.0000 1.0000
60.6200 264.0000 1.0000
60.6300 258.0000 1.0000
60.6400 271.0000 1.0000
60.6500 280.0000 1.0000
60.6600 293.0000 1.0000
60.6700 267.0000 1.0000
60.6800 277.0000 1.0000
60.6900 273.0000 1.0000
60.7000 288.0000 1.0000
60.7100 283.0000 1.0000
60.7200 290.0000 1.0000
60.7300 269.0000 1.0000
60.7400 299.0000 1.0000
60.7500 312.0000 1.0000
60.7600 306.0000 1.0000
60.7700 318.0000 1.0000
60.7800 298.0000 1.0000
60.7900 289.0000 1.0000
60.8000 271.0000 1.0000
60.8100 265.0000 1.0000
60.8200 296.0000 1.0000
60.8300 259.0000 1.0000
60.8400 264.0000 1.0000
60.8500 286.0000 1.0000
60.8600 291.0000 1.0000
60.8700 279.0000 1.0000
60.8800 281.0000 1.0000
60.8900 281.0000 1.0000
60.9000 255.0000 1.0000
60.9100 271.0000 1.0000
60.9200 269.0000 1.0000
60.9300 294.0000 1.0000
60.9400 306.0000 1.0000
60.9500 293.0000 1.0000
60.9600 292.0000 1.0000
60.9700 321.0000 1.0000
60.9800 274.0000 1.0000
60.9900 280.0000 1.0000
61.0000 256.0000 1.0000
61.0100 298.0000 1.0000
61.0200 291.0000 1.0000
61.0300 292.0000 1.0000
61.0400 283.0000 1.0000
61.0500 293.0000 1.0000
61.0600 297.0000 1.0000
61.0700 307.0000 1.0000
61.0800 278.0000 1.0000
61.0900 280.0000 1.0000
61.1000 304.0000 1.0000
61.1100 302.0000 1.0000
61.1200 310.0000 1.0000
61.1300 316.0000 1.0000
61.1400 327.0000 1.0000
61.1500 322.0000 1.0000
61.1600 303.0000 1.0000
61.1700 291.0000 1.0000
61.1800 311.0000 1.0000
61.1900 334.0000 1.0000
61.2000 333.0000 1.0000
61.2100 335.0000 1.0000
61.2200 321.0000 1.0000
61.2300 343.0000 1.0000
61.2400 350.0000 1.0000
61.2500 354.0000 1.0000
61.2600 341.0000 1.0000
61.2700 338.0000 1.0000
61.2800 333.0000 1.0000
61.2900 372.0000 1.0000
61.3000 378.0000 1.0000
61.3100 354.0000 1.0000
61.3200 377.0000 1.0000
61.3300 421.0000 1.0000
61.3400 420.0000 1.0000
61.3500 420.0000 1.0000
61.3600 393.0000 1.0000
61.3700 407.0000 1.0000
61.3800 439.0000 1.0000
61.3900 465.0000 1.0000
61.4000 482.0000 1.0000
61.4100 491.0000 1.0000
61.4200 481.0000 1.0000
61.4300 508.0000 1.0000
61.4400 502.0000 1.0000
61.4500 505.0000 1.0000
61.4600 497.0000 1.0000
61.4700 539.0000 1.0000
61.4800 557.0000 1.0000
61.4900 526.0000 1.0000
61.5000 543.0000 1.0000
61.5100 532.0000 1.0000
61.5200 528.0000 1.0000
61.5300 552.0000 1.0000
61.5400 538.0000 1.0000
61.5500 559.0000 1.0000
61.5600 574.0000 1.0000
61.5700 551.0000 1.0000
61.5800 532.0000 1.0000
61.5900 556.0000 1.0000
61.6000 514.0000 1.0000
61.6100 540.0000 1.0000
61.6200 541.0000 1.0000
61.6300 537.0000 1.0000
61.6400 518.0000 1.0000
61.6500 518.0000 1.0000
61.6600 540.0000 1.0000
61.6700 526.0000 1.0000
61.6800 518.0000 1.0000
61.6900 527.0000 1.0000
61.7000 505.0000 1.0000
61.7100 499.0000 1.0000
61.7200 487.0000 1.0000
61.7300 472.0000 1.0000
61.7400 444.0000 1.0000
61.7500 476.0000 1.0000
61.7600 477.0000 1.0000
61.7700 446.0000 1.0000
61.7800 443.0000 1.0000
61.7900 415.0000 1.0000
61.8000 399.0000 1.0000
61.8100 394.0000 1.0000
61.8200 429.0000 1.0000
61.8300 391.0000 1.0000
61.8400 365.0000 1.0000
61.8500 394.0000 1.0000
61.8600 396.0000 1.0000
61.8700 372.0000 1.0000
61.8800 367.0000 1.0000
61.8900 356.0000 1.0000
61.9000 371.0000 1.0000
61.9100 336.0000 1.0000
61.9200 368.0000 1.0000
61.9300 335.0000 1.0000
61.9400 350.0000 1.0000
61.9500 329.0000 1.0000
61.9600 328.0000 1.0000
61.9700 349.0000 1.0000
61.9800 343.0000 1.0000
61.9900 344.0000 1.0000
62.0000 318.0000 1.0000
62.0100 332.0000 1.0000
62.0200 297.0000 1.0000
62.0300 323.0000 1.0000
62.0400 312.0000 1.0000
62.0500 317.0000 1.0000
62.0600 309.0000 1.0000
62.0700 334.0000 1.0000
62.0800 303.0000 1.0000
62.0900 335.0000 1.0000
62.1000 300.0000 1.0000
62.1100 291.0000 1.0000
62.1200 320.0000 1.0000
62.1300 319.0000 1.0000
62.1400 301.0000 1.0000
62.1500 320.0000 1.0000
62.1600 324.0000 1.0000
62.1700 309.0000 1.0000
62.1800 295.0000 1.0000
62.1900 292.0000 1.0000
62.2000 271.0000 1.0000
62.2100 311.0000 1.0000
62.2200 325.0000 1.0000
62.2300 295.0000 1.0000
62.2400 311.0000 1.0000
62.2500 300.0000 1.0000
62.2600 321.0000 1.0000
62.2700 295.0000 1.0000
62.2800 297.0000 1.0000
62.2900 303.0000 1.0000
62.3000 322.0000 1.0000
62.3100 315.0000 1.0000
62.3200 306.0000 1.0000
62.3300 326.0000 1.0000
62.3400 307.0000 1.0000
62.3500 308.0000 1.0000
62.3600 278.0000 1.0000
62.3700 311.0000 1.0000
62.3800 302.0000 1.0000
62.3900 317.0000 1.0000
62.4000 302.0000 1.0000
62.4100 292.0000 1.0000
62.4200 324.0000 1.0000
62.4300 308.0000 1.0000
62.4400 299.0000 1.0000
62.4500 291.0000 1.0000
62.4600 307.0000 1.0000
62.4700 294.0000 1.0000
62.4800 296.0000 1.0000
62.4900 312.0000 1.0000
62.5000 305.0000 1.0000
62.5100 322.0000 1.0000
62.5200 304.0000 1.0000
62.5300 283.0000 1.0000
62.5400 290.0000 1.0000
62.5500 305.0000 1.0000
62.5600 284.0000 1.0000
62.5700 307.0000 1.0000
62.5800 330.0000 1.0000
62.5900 306.0000 1.0000
62.6000 267.0000 1.0000
62.6100 279.0000 1.0000
62.6200 301.0000 1.0000
62.6300 309.0000 1.0000
62.6400 274.0000 1.0000
62.6500 279.0000 1.0000
62.6600 278.0000 1.0000
62.6700 292.0000 1.0000
62.6800 306.0000 1.0000
62.6900 312.0000 1.0000
62.7000 263.0000 1.0000
62.7100 283.0000 1.0000
62.7200 293.0000 1.0000
62.7300 303.0000 1.0000
62.7400 288.0000 1.0000
62.7500 252.0000 1.0000
62.7600 275.0000 1.0000
62.7700 268.0000 1.0000
62.7800 271.0000 1.0000
62.7900 285.0000 1.0000
62.8000 292.0000 1.0000
62.8100 265.0000 1.0000
62.8200 289.0000 1.0000
62.8300 297.0000 1.0000
62.8400 279.0000 1.0000
62.8500 297.0000 1.0000
62.8600 282.0000 1.0000
62.8700 285.0000 1.0000
62.8800 261.0000 1.0000
62.8900 228.0000 1.0000
62.9000 271.0000 1.0000
62.9100 256.0000 1.0000
62.9200 273.0000 1.0000
62.9300 254.0000 1.0000
62.9400 281.0000 1.0000
62.9500 250.0000 1.0000
62.9600 259.0000 1.0000
62.9700 258.0000 1.0000
62.9800 262.0000 1.0000
62.9900 271.0000 1.0000
63.0000 269.0000 1.0000
63.0100 301.0000 1.0000
63.0200 257.0000 1.0000
63.0300 259.0000 1.0000
63.0400 276.0000 1.0000
63.0500 248.0000 1.0000
63.0600 254.0000 1.0000
63.0700 263.0000 1.0000
63.0800 245.0000 1.0000
63.0900 289.0000 1.0000
63.1000 261.0000 1.0000
63.1100 267.0000 1.0000
63.1200 263.0000 1.0000
63.1300 293.0000 1.0000
63.1400 286.0000 1.0000
63.1500 247.0000 1.0000
63.1600 282.0000 1.0000
63.1700 287.0000 1.0000
63.1800 267.0000 1.0000
63.1900 290.0000 1.0000
63.2000 289.0000 1.0000
63.2100 269.0000 1.0000
63.2200 263.0000 1.0000
63.2300 285.0000 1.0000
63.2400 281.0000 1.0000
63.2500 249.0000 1.0000
63.2600 272.0000 1.0000
63.2700 271.0000 1.0000
63.2800 267.0000 1.0000
63.2900 294.0000 1.0000
63.3000 280.0000 1.0000
63.3100 286.0000 1.0000
63.3200 270.0000 1.0000
63.3300 272.0000 1.0000
63.3400 292.0000 1.0000
63.3500 290.0000 1.0000
63.3600 278.0000 1.0000
63.3700 261.0000 1.0000
63.3800 315.0000 1.0000
63.3900 274.0000 1.0000
63.4000 277.0000 1.0000
63.4100 289.0000 1.0000
63.4200 276.0000 1.0000
63.4300 259.0000 1.0000
63.4400 297.0000 1.0000
63.4500 287.0000 1.0000
63.4600 281.0000 1.0000
63.4700 281.0000 1.0000
63.4800 256.0000 1.0000
63.4900 262.0000 1.0000
63.5000 272.0000 1.0000
63.5100 281.0000 1.0000
63.5200 278.0000 1.0000
63.5300 296.0000 1.0000
63.5400 285.0000 1.0000
63.5500 276.0000 1.0000
63.5600 290.0000 1.0000
63.5700 281.0000 1.0000
63.5800 293.0000 1.0000
63.5900 277.0000 1.0000
63.6000 274.0000 1.0000
63.6100 285.0000 1.0000
63.6200 295.0000 1.0000
63.6300 326.0000 1.0000
63.6400 283.0000 1.0000
63.6500 282.0000 1.0000
63.6600 295.0000 1.0000
63.6700 299.0000 1.0000
63.6800 299.0000 1.0000
63.6900 328.0000 1.0000
63.7000 294.0000 1.0000
63.7100 281.0000 1.0000
63.7200 307.0000 1.0000
63.7300 321.0000 1.0000
63.7400 322.0000 1.0000
63.7500 305.0000 1.0000
63.7600 347.0000 1.0000
63.7700 311.0000 1.0000
63.7800 310.0000 1.0000
63.7900 326.0000 1.0000
63.8000 318.0000 1.0000
63.8100 343.0000 1.0000
63.8200 314.0000 1.0000
63.8300 317.0000 1.0000
63.8400 344.0000 1.0000
63.8500 353.0000 1.0000
63.8600 311.0000 1.0000
63.8700 303.0000 1.0000
63.8800 367.0000 1.0000
63.8900 327.0000 1.0000
63.9000 353.0000 1.0000
63.9100 312.0000 1.0000
63.9200 328.0000 1.0000
63.9300 310.0000 1.0000
63.9400 332.0000 1.0000
63.9500 338.0000 1.0000
63.9600 340.0000 1.0000
63.9700 364.0000 1.0000
63.9800 313.0000 1.0000
63.9900 335.0000 1.0000
64.0000 363.0000 1.0000
64.0100 391.0000 1.0000
64.0200 385.0000 1.0000
64.0300 332.0000 1.0000
64.0400 363.0000 1.0000
64.0500 357.0000 1.0000
64.0600 309.0000 1.0000
64.0700 345.0000 1.0000
64.0800 334.0000 1.0000
64.0900 344.0000 1.0000
64.1000 351.0000 1.0000
64.1100 336.0000 1.0000
64.1200 319.0000 1.0000
64.1300 326.0000 1.0000
64.1400 320.0000 1.0000
64.1500 338.0000 1.0000
64.1600 335.0000 1.0000
64.1700 319.0000 1.0000
64.1800 319.0000 1.0000
64.1900 327.0000 1.0000
64.2000 349.0000 1.0000
64.2100 313.0000 1.0000
64.2200 310.0000 1.0000
64.2300 304.0000 1.0000
64.2400 313.0000 1.0000
64.2500 313.0000 1.0000
64.2600 305.0000 1.0000
64.2700 314.0000 1.0000
64.2800 306.0000 1.0000
64.2900 321.0000 1.0000
64.3000 329.0000 1.0000
64.3100 303.0000 1.0000
64.3200 324.0000 1.0000
64.3300 301.0000 1.0000
64.3400 322.0000 1.0000
64.3500 258.0000 1.0000
64.3600 290.0000 1.0000
64.3700 315.0000 1.0000
64.3800 301.0000 1.0000
64.3900 300.0000 1.0000
64.4000 314.0000 1.0000
64.4100 326.0000 1.0000
64.4200 299.0000 1.0000
64.4300 315.0000 1.0000
64.4400 293.0000 1.0000
64.4500 283.0000 1.0000
64.4600 300.0000 1.0000
64.4700 285.0000 1.0000
64.4800 314.0000 1.0000
64.4900 291.0000 1.0000
64.5000 314.0000 1.0000
64.5100 264.0000 1.0000
64.5200 287.0000 1.0000
64.5300 292.0000 1.0000
64.5400 288.0000 1.0000
64.5500 269.0000 1.0000
64.5600 292.0000 1.0000
64.5700 303.0000 1.0000
64.5800 317.0000 1.0000
64.5900 286.0000 1.0000
64.6000 263.0000 1.0000
64.6100 284.0000 1.0000
64.6200 278.0000 1.0000
64.6300 284.0000 1.0000
64.6400 282.0000 1.0000
64.6500 281.0000 1.0000
64.6600 268.0000 1.0000
64.6700 271.0000 1.0000
64.6800 274.0000 1.0000
64.6900 298.0000 1.0000
64.7000 277.0000 1.0000
64.7100 295.0000 1.0000
64.7200 298.0000 1.0000
64.7300 281.0000 1.0000
64.7400 282.0000 1.0000
64.7500 314.0000 1.0000
64.7600 317.0000 1.0000
64.7700 292.0000 1.0000
64.7800 269.0000 1.0000
64.7900 290.0000 1.0000
64.8000 300.0000 1.0000
64.8100 257.0000 1.0000
64.8200 286.0000 1.0000
64.8300 268.0000 1.0000
64.8400 284.0000 1.0000
64.8500 274.0000 1.0000
64.8600 263.0000 1.0000
64.8700 302.0000 1.0000
64.8800 273.0000 1.0000
64.8900 274.0000 1.0000
64.9000 318.0000 1.0000
64.9100 271.0000 1.0000
64.9200 290.0000 1.0000
64.9300 305.0000 1.0000
64.9400 292.0000 1.0000
64.9500 269.0000 1.0000
64.9600 271.0000 1.0000
64.9700 280.0000 1.0000
64.9800 277.0000 1.0000
64.9900 276.0000 1.0000
65.0000 312.0000 1.0000
65.0100 297.0000 1.0000
65.0200 333.0000 1.0000
65.0300 295.0000 1.0000
65.0400 325.0000 1.0000
65.0500 308.0000 1.0000
65.0600 329.0000 1.0000
65.0700 354.0000 1.0000
65.0800 295.0000 1.0000
65.0900 303.0000 1.0000
65.1000 314.0000 1.0000
65.1100 346.0000 1.0000
65.1200 332.0000 1.0000
65.1300 338.0000 1.0000
65.1400 335.0000 1.0000
65.1500 354.0000 1.0000
65.1600 338.0000 1.0000
65.1700 335.0000 1.0000
65.1800 394.0000 1.0000
65.1900 333.0000 1.0000
65.2000 342.0000 1.0000
65.2100 370.0000 1.0000
65.2200 364.0000 1.0000
65.2300 399.0000 1.0000
65.2400 363.0000 1.0000
65.2500 377.0000 1.0000
65.2600 375.0000 1.0000
65.2700 381.0000 1.0000
65.2800 412.0000 1.0000
65.2900 404.0000 1.0000
65.3000 468.0000 1.0000
65.3100 463.0000 1.0000
65.3200 522.0000 1.0000
65.3300 524.0000 1.0000
65.3400 538.0000 1.0000
65.3500 560.0000 1.0000
65.3600 574.0000 1.0000
65.3700 554.0000 1.0000
65.3800 575.0000 1.0000
65.3900 608.0000 1.0000
65.4000 616.0000 1.0000
65.4100 682.0000 1.0000
65.4200 689.0000 1.0000
65.4300 771.0000 1.0000
65.4400 761.0000 1.0000
65.4500 808.0000 1.0000
65.4600 844.0000 1.0000
65.4700 840.0000 1.0000
65.4800 849.0000 1.0000
65.4900 901.0000 1.0000
65.5000 933.0000 1.0000
65.5100 933.0000 1.0000
65.5200 943.0000 1.0000
65.5300 938.0000 1.0000
65.5400 1016.0000 1.0000
65.5500 1055.0000 1.0000
65.5600 1012.0000 1.0000
65.5700 999.0000 1.0000
65.5800 1065.0000 1.0000
65.5900 1011.0000 1.0000
65.6000 979.0000 1.0000
65.6100 933.0000 1.0000
65.6200 930.0000 1.0000
65.6300 881.0000 1.0000
65.6400 838.0000 1.0000
65.6500 837.0000 1.0000
65.6600 830.0000 1.0000
65.6700 810.0000 1.0000
65.6800 850.0000 1.0000
65.6900 836.0000 1.0000
65.7000 813.0000 1.0000
65.7100 810.0000 1.0000
65.7200 749.0000 1.0000
65.7300 768.0000 1.0000
65.7400 742.0000 1.0000
65.7500 745.0000 1.0000
65.7600 689.0000 1.0000
65.7700 674.0000 1.0000
65.7800 658.0000 1.0000
65.7900 621.0000 1.0000
65.8000 650.0000 1.0000
65.8100 555.0000 1.0000
65.8200 539.0000 1.0000
65.8300 510.0000 1.0000
65.8400 531.0000 1.0000
65.8500 525.0000 1.0000
65.8600 490.0000 1.0000
65.8700 463.0000 1.0000
65.8800 440.0000 1.0000
65.8900 429.0000 1.0000
65.9000 418.0000 1.0000
65.9100 405.0000 1.0000
65.9200 422.0000 1.0000
65.9300 395.0000 1.0000
65.9400 394.0000 1.0000
65.9500 413.0000 1.0000
65.9600 402.0000 1.0000
65.9700 403.0000 1.0000
65.9800 347.0000 1.0000
65.9900 352.0000 1.0000
66.0000 354.0000 1.0000
66.0100 375.0000 1.0000
66.0200 332.0000 1.0000
66.0300 342.0000 1.0000
66.0400 316.0000 1.0000
66.0500 359.0000 1.0000
66.0600 330.0000 1.0000
66.0700 312.0000 1.0000
66.0800 290.0000 1.0000
66.0900 325.0000 1.0000
66.1000 321.0000 1.0000
66.1100 288.0000 1.0000
66.1200 311.0000 1.0000
66.1300 311.0000 1.0000
66.1400 291.0000 1.0000
66.1500 281.0000 1.0000
66.1600 312.0000 1.0000
66.1700 285.0000 1.0000
66.1800 287.0000 1.0000
66.1900 276.0000 1.0000
66.2000 265.0000 1.0000
66.2100 261.0000 1.0000
66.2200 292.0000 1.0000
66.2300 300.0000 1.0000
66.2400 288.0000 1.0000
66.2500 280.0000 1.0000
66.2600 259.0000 1.0000
66.2700 290.0000 1.0000
66.2800 283.0000 1.0000
66.2900 261.0000 1.0000
66.3000 277.0000 1.0000
66.3100 283.0000 1.0000
66.3200 260.0000 1.0000
66.3300 258.0000 1.0000
66.3400 268.0000 1.0000
66.3500 280.0000 1.0000
66.3600 282.0000 1.0000
66.3700 276.0000 1.0000
66.3800 281.0000 1.0000
66.3900 267.0000 1.0000
66.4000 289.0000 1.0000
66.4100 286.0000 1.0000
66.4200 276.0000 1.0000
66.4300 272.0000 1.0000
66.4400 239.0000 1.0000
66.4500 271.0000 1.0000
66.4600 268.0000 1.0000
66.4700 250.0000 1.0000
66.4800 229.0000 1.0000
66.4900 250.0000 1.0000
66.5000 263.0000 1.0000
66.5100 270.0000 1.0000
66.5200 258.0000 1.0000
66.5300 288.0000 1.0000
66.5400 281.0000 1.0000
66.5500 269.0000 1.0000
66.5600 263.0000 1.0000
66.5700 254.0000 1.0000
66.5800 254.0000 1.0000
66.5900 252.0000 1.0000
66.6000 264.0000 1.0000
66.6100 276.0000 1.0000
66.6200 273.0000 1.0000
66.6300 275.0000 1.0000
66.6400 268.0000 1.0000
66.6500 270.0000 1.0000
66.6600 257.0000 1.0000
66.6700 277.0000 1.0000
66.6800 244.0000 1.0000
66.6900 267.0000 1.0000
66.7000 243.0000 1.0000
66.7100 263.0000 1.0000
66.7200 245.0000 1.0000
66.7300 263.0000 1.0000
66.7400 244.0000 1.0000
66.7500 251.0000 1.0000
66.7600 274.0000 1.0000
66.7700 277.0000 1.0000
66.7800 247.0000 1.0000
66.7900 266.0000 1.0000
66.8000 255.0000 1.0000
66.8100 248.0000 1.0000
66.8200 260.0000 1.0000
66.8300 250.0000 1.0000
66.8400 262.0000 1.0000
66.8500 274.0000 1.0000
66.8600 266.0000 1.0000
66.8700 266.0000 1.0000
66.8800 257.0000 1.0000
66.8900 293.0000 1.0000
66.9000 258.0000 1.0000
66.9100 251.0000 1.0000
66.9200 246.0000 1.0000
66.9300 255.0000 1.0000
66.9400 269.0000 1.0000
66.9500 270.0000 1.0000
66.9600 252.0000 1.0000
66.9700 257.0000 1.0000
66.9800 235.0000 1.0000
66.9900 237.0000 1.0000
67.0000 245.0000 1.0000
67.0100 265.0000 1.0000
67.0200 253.0000 1.0000
67.0300 264.0000 1.0000
67.0400 274.0000 1.0000
67.0500 253.0000 1.0000
67.0600 250.0000 1.0000
67.0700 236.0000 1.0000
67.0800 274.0000 1.0000
67.0900 261.0000 1.0000
67.1000 247.0000 1.0000
67.1100 253.0000 1.0000
67.1200 251.0000 1.0000
67.1300 278.0000 1.0000
67.1400 237.0000 1.0000
67.1500 268.0000 1.0000
67.1600 249.0000 1.0000
67.1700 253.0000 1.0000
67.1800 252.0000 1.0000
67.1900 246.0000 1.0000
67.2000 255.0000 1.0000
67.2100 230.0000 1.0000
67.2200 269.0000 1.0000
67.2300 253.0000 1.0000
67.2400 261.0000 1.0000
67.2500 240.0000 1.0000
67.2600 282.0000 1.0000
67.2700 259.0000 1.0000
67.2800 257.0000 1.0000
67.2900 285.0000 1.0000
67.3000 255.0000 1.0000
67.3100 265.0000 1.0000
67.3200 242.0000 1.0000
67.3300 242.0000 1.0000
67.3400 245.0000 1.0000
67.3500 233.0000 1.0000
67.3600 241.0000 1.0000
67.3700 270.0000 1.0000
67.3800 243.0000 1.0000
67.3900 263.0000 1.0000
67.4000 262.0000 1.0000
67.4100 237.0000 1.0000
67.4200 257.0000 1.0000
67.4300 247.0000 1.0000
67.4400 259.0000 1.0000
67.4500 242.0000 1.0000
67.4600 238.0000 1.0000
67.4700 262.0000 1.0000
67.4800 257.0000 1.0000
67.4900 243.0000 1.0000
67.5000 233.0000 1.0000
67.5100 250.0000 1.0000
67.5200 253.0000 1.0000
67.5300 269.0000 1.0000
67.5400 251.0000 1.0000
67.5500 249.0000 1.0000
67.5600 242.0000 1.0000
67.5700 276.0000 1.0000
67.5800 249.0000 1.0000
67.5900 271.0000 1.0000
67.6000 264.0000 1.0000
67.6100 241.0000 1.0000
67.6200 260.0000 1.0000
67.6300 270.0000 1.0000
67.6400 272.0000 1.0000
67.6500 237.0000 1.0000
67.6600 253.0000 1.0000
67.6700 244.0000 1.0000
67.6800 240.0000 1.0000
67.6900 248.0000 1.0000
67.7000 260.0000 1.0000
67.7100 257.0000 1.0000
67.7200 265.0000 1.0000
67.7300 257.0000 1.0000
67.7400 236.0000 1.0000
67.7500 243.0000 1.0000
67.7600 259.0000 1.0000
67.7700 253.0000 1.0000
67.7800 253.0000 1.0000
67.7900 249.0000 1.0000
67.8000 258.0000 1.0000
67.8100 244.0000 1.0000
67.8200 244.0000 1.0000
67.8300 239.0000 1.0000
67.8400 250.0000 1.0000
67.8500 238.0000 1.0000
67.8600 224.0000 1.0000
67.8700 227.0000 1.0000
67.8800 257.0000 1.0000
67.8900 248.0000 1.0000
67.9000 240.0000 1.0000
67.9100 239.0000 1.0000
67.9200 258.0000 1.0000
67.9300 238.0000 1.0000
67.9400 244.0000 1.0000
67.9500 264.0000 1.0000
67.9600 244.0000 1.0000
67.9700 249.0000 1.0000
67.9800 248.0000 1.0000
67.9900 251.0000 1.0000
68.0000 276.0000 1.0000
68.0100 257.0000 1.0000
68.0200 272.0000 1.0000
68.0300 239.0000 1.0000
68.0400 235.0000 1.0000
68.0500 236.0000 1.0000
68.0600 230.0000 1.0000
68.0700 251.0000 1.0000
68.0800 250.0000 1.0000
68.0900 267.0000 1.0000
68.1000 260.0000 1.0000
68.1100 227.0000 1.0000
68.1200 239.0000 1.0000
68.1300 252.0000 1.0000
68.1400 273.0000 1.0000
68.1500 245.0000 1.0000
68.1600 231.0000 1.0000
68.1700 230.0000 1.0000
68.1800 269.0000 1.0000
68.1900 254.0000 1.0000
68.2000 257.0000 1.0000
68.2100 242.0000 1.0000
68.2200 249.0000 1.0000
68.2300 219.0000 1.0000
68.2400 238.0000 1.0000
68.2500 267.0000 1.0000
68.2600 255.0000 1.0000
68.2700 237.0000 1.0000
68.2800 239.0000 1.0000
68.2900 255.0000 1.0000
68.3000 253.0000 1.0000
68.3100 236.0000 1.0000
68.3200 250.0000 1.0000
68.3300 238.0000 1.0000
68.3400 251.0000 1.0000
68.3500 238.0000 1.0000
68.3600 229.0000 1.0000
68.3700 220.0000 1.0000
68.3800 244.0000 1.0000
68.3900 228.0000 1.0000
68.4000 250.0000 1.0000
68.4100 265.0000 1.0000
68.4200 237.0000 1.0000
68.4300 236.0000 1.0000
68.4400 260.0000 1.0000
68.4500 224.0000 1.0000
68.4600 240.0000 1.0000
68.4700 254.0000 1.0000
68.4800 220.0000 1.0000
68.4900 259.0000 1.0000
68.5000 255.0000 1.0000
68.5100 263.0000 1.0000
68.5200 250.0000 1.0000
68.5300 221.0000 1.0000
68.5400 271.0000 1.0000
68.5500 238.0000 1.0000
68.5600 243.0000 1.0000
68.5700 227.0000 1.0000
68.5800 228.0000 1.0000
68.5900 260.0000 1.0000
68.6000 240.0000 1.0000
68.6100 249.0000 1.0000
68.6200 277.0000 1.0000
68.6300 227.0000 1.0000
68.6400 231.0000 1.0000
68.6500 228.0000 1.0000
68.6600 224.0000 1.0000
68.6700 242.0000 1.0000
68.6800 234.0000 1.0000
68.6900 242.0000 1.0000
68.7000 227.0000 1.0000
68.7100 251.0000 1.0000
68.7200 258.0000 1.0000
68.7300 246.0000 1.0000
68.7400 239.0000 1.0000
68.7500 259.0000 1.0000
68.7600 247.0000 1.0000
68.7700 249.0000 1.0000
68.7800 255.0000 1.0000
68.7900 247.0000 1.0000
68.8000 244.0000 1.0000
68.8100 230.0000 1.0000
68.8200 246.0000 1.0000
68.8300 251.0000 1.0000
68.8400 252.0000 1.0000
68.8500 246.0000 1.0000
68.8600 250.0000 1.0000
68.8700 251.0000 1.0000
68.8800 240.0000 1.0000
68.8900 258.0000 1.0000
68.9000 277.0000 1.0000
68.9100 242.0000 1.0000
68.9200 240.0000 1.0000
68.9300 250.0000 1.0000
68.9400 225.0000 1.0000
68.9500 252.0000 1.0000
68.9600 242.0000 1.0000
68.9700 228.0000 1.0000
68.9800 243.0000 1.0000
68.9900 226.0000 1.0000
69.0000 222.0000 1.0000
69.0100 222.0000 1.0000
69.0200 233.0000 1.0000
69.0300 237.0000 1.0000
69.0400 231.0000 1.0000
69.0500 245.0000 1.0000
69.0600 266.0000 1.0000
69.0700 260.0000 1.0000
69.0800 248.0000 1.0000
69.0900 242.0000 1.0000
69.1000 245.0000 1.0000
69.1100 235.0000 1.0000
69.1200 237.0000 1.0000
69.1300 252.0000 1.0000
69.1400 227.0000 1.0000
69.1500 249.0000 1.0000
69.1600 249.0000 1.0000
69.1700 231.0000 1.0000
69.1800 267.0000 1.0000
69.1900 244.0000 1.0000
69.2000 249.0000 1.0000
69.2100 252.0000 1.0000
69.2200 243.0000 1.0000
69.2300 248.0000 1.0000
69.2400 247.0000 1.0000
69.2500 234.0000 1.0000
69.2600 226.0000 1.0000
69.2700 229.0000 1.0000
69.2800 256.0000 1.0000
69.2900 228.0000 1.0000
69.3000 219.0000 1.0000
69.3100 231.0000 1.0000
69.3200 248.0000 1.0000
69.3300 256.0000 1.0000
69.3400 244.0000 1.0000
69.3500 238.0000 1.0000
69.3600 262.0000 1.0000
69.3700 251.0000 1.0000
69.3800 252.0000 1.0000
69.3900 260.0000 1.0000
69.4000 254.0000 1.0000
69.4100 267.0000 1.0000
69.4200 270.0000 1.0000
69.4300 263.0000 1.0000
69.4400 260.0000 1.0000
69.4500 210.0000 1.0000
69.4600 234.0000 1.0000
69.4700 235.0000 1.0000
69.4800 252.0000 1.0000
69.4900 237.0000 1.0000
69.5000 254.0000 1.0000
69.5100 235.0000 1.0000
69.5200 227.0000 1.0000
69.5300 258.0000 1.0000
69.5400 240.0000 1.0000
69.5500 248.0000 1.0000
69.5600 239.0000 1.0000
69.5700 246.0000 1.0000
69.5800 238.0000 1.0000
69.5900 246.0000 1.0000
69.6000 232.0000 1.0000
69.6100 248.0000 1.0000
69.6200 243.0000 1.0000
69.6300 248.0000 1.0000
69.6400 226.0000 1.0000
69.6500 219.0000 1.0000
69.6600 239.0000 1.0000
69.6700 227.0000 1.0000
69.6800 225.0000 1.0000
69.6900 243.0000 1.0000
69.7000 241.0000 1.0000
69.7100 221.0000 1.0000
69.7200 218.0000 1.0000
69.7300 231.0000 1.0000
69.7400 264.0000 1.0000
69.7500 237.0000 1.0000
69.7600 236.0000 1.0000
69.7700 220.0000 1.0000
69.7800 228.0000 1.0000
69.7900 227.0000 1.0000
69.8000 252.0000 1.0000
69.8100 248.0000 1.0000
69.8200 250.0000 1.0000
69.8300 231.0000 1.0000
69.8400 229.0000 1.0000
69.8500 257.0000 1.0000
69.8600 254.0000 1.0000
69.8700 236.0000 1.0000
69.8800 254.0000 1.0000
69.8900 221.0000 1.0000
69.9000 225.0000 1.0000
69.9100 244.0000 1.0000
69.9200 258.0000 1.0000
69.9300 224.0000 1.0000
69.9400 239.0000 1.0000
69.9500 262.0000 1.0000
69.9600 242.0000 1.0000
69.9700 239.0000 1.0000
69.9800 234.0000 1.0000
69.9900 235.0000 1.0000
70.0000 225.0000 1.0000
*RAS_INT_END
*RAS_TEMPERATURE_START
*RAS_TEMPERATURE_END
*RAS_DATA_END
