*RAS_DATA_START
*RAS_HEADER_START
*DISP_FMT_X "%.2f"
*DISP_FMT_Y "%.0f"
*DISP_FULLSCALE "14195.0000000000"
*DISP_LINE_COLOR "255.0000000000"
*DISP_LINE_STYLE "0.0000000000"
*DISP_LINE_WIDTH "0.2500000000"
*DISP_NOTE "測定データ-2"
*DISP_OFFSET_Y "0.0000000000"
*DISP_PEAKSEARCH_UNIT_Y "cps"
*DISP_RANGE_BOTTOM "0.0000000000"
*DISP_RANGE_LEFT "20.0000000000"
*DISP_RANGE_LOGCUTOFF "0.0100000000"
*DISP_RANGE_RIGHT "70.0000000000"
*DISP_RANGE_TOP "14195.0000000000"
*DISP_SCALE_MODE_Y "0.0000000000"
*DISP_TAB_NAME "2θ/θ"
*DISP_TITLE_Y "強度"
*DISP_UNIT_Y "cps"
*DISP_WINDOW_NAME "MSG_MACROENGINE"
*FILE_COMMENT " "
*FILE_MD5 ""
*FILE_MEMO " "
*FILE_OPERATOR "Administrator"
*FILE_SAMPLE " "
*FILE_TYPE "RAS_RAW"
*FILE_USERGROUP "システムマネージャ"
*FILE_VERSION "1.0000000000"
*HW_ATTACHMENT_ID "ATT0025"
*HW_ATTACHMENT_NAME "標準|Standard"
*HW_COUNTER_ID-0 "CUT0025"
*HW_COUNTER_ID-1 "CUT0020"
*HW_COUNTER_ID-2 "CUT0020"
*HW_COUNTER_ID-3 "CSL0021"
*HW_COUNTER_ID-4 "CMC0021"
*HW_COUNTER_NAME-0 "D/teX Ultra|D/teX Ultra"
*HW_COUNTER_NAME-1 "None|None"
*HW_COUNTER_NAME-2 "None|None"
*HW_COUNTER_NAME-3 "BBM|BBM"
*HW_COUNTER_NAME-4 "検出器モノクロメータ|Detector monochromator"
*HW_COUNTER_SELECT_NAME "D/teX Ultra|D/teX Ultra"
*HW_GONIOMETER_ID "GON0023"
*HW_GONIOMETER_NAME "SmartLab|SmartLab"
*HW_GONIOMETER_RADIUS-0 "90.0"
*HW_GONIOMETER_RADIUS-1 "114.0"
*HW_GONIOMETER_RADIUS-2 "190.0"
*HW_GONIOMETER_RADIUS-3 "300.0"
*HW_GONIOMETER_RADIUS-4 "187.0"
*HW_GONIOMETER_RADIUS-5 "300.0"
*HW_GONIOMETER_RADIUS-6 "113.0"
*HW_GONIOMETER_RADIUS-7 "331.0"
*HW_I_OPT_ID-0 "CBO0021"
*HW_I_OPT_ID-1 "ICR0023"
*HW_I_OPT_ID-2 "ISL0021"
*HW_I_OPT_ID-3 "ISO0021"
*HW_I_OPT_ID-4 "IAD0021"
*HW_I_OPT_ID-5 "IPR0001"
*HW_I_OPT_NAME-0 "CBOユニット|CBO unit"
*HW_I_OPT_NAME-1 "標準入射光学ユニット|Standard incident optical unit"
*HW_I_OPT_NAME-2 "標準入射スリットボックス|Standard incident slit box"
*HW_I_OPT_NAME-3 "入射平行スリット|Incident parallel slit"
*HW_I_OPT_NAME-4 "長手制限スリット|Length limiting slit"
*HW_I_OPT_NAME-5 "None|None"
*HW_R_ATTENUATER_AUTOMODE "0"
*HW_R_OPT_ID-0 "RSS0021"
*HW_R_OPT_ID-1 "RCR0023"
*HW_R_OPT_ID-2 "RSO0021"
*HW_R_OPT_ID-3 "RRS0021"
*HW_R_OPT_ID-4 "ATN0021"
*HW_R_OPT_ID-5 "RFL0021"
*HW_R_OPT_ID-6 "RAD0021"
*HW_R_OPT_NAME-0 "標準受光スリットボックス1|Standard receiving slit box # 1"
*HW_R_OPT_NAME-1 "標準受光光学ユニット1|Standard receiving unit # 1"
*HW_R_OPT_NAME-2 "標準受光光学ユニット2|Standard receiving optical unit # 2"
*HW_R_OPT_NAME-3 "標準受光スリットボックス2|Standard receiving slit box # 2"
*HW_R_OPT_NAME-4 "標準アッテネータ|Standard Attenuator"
*HW_R_OPT_NAME-5 "Cu Kβ|Cu K-beta"
*HW_R_OPT_NAME-6 "調整用受光スリット|Alignment receiving slit"
*HW_SAMPLE_HOLDER_ID "SMP0023"
*HW_SAMPLE_HOLDER_NAME "標準Zステージ|Standard Z stage"
*HW_XG_CURRENT_MAX "50"
*HW_XG_CURRENT_MIN "2"
*HW_XG_CURRENT_RESOLUTION "1"
*HW_XG_CURRENT_UNIT "mA"
*HW_XG_FOCUS "1mm x 10mm"
*HW_XG_FOCUS_TYPE "Normal"
*HW_XG_ID ""
*HW_XG_NAME "3kW 封入管(ID:1200)|3kW Sealed tube(ID:1200)"
*HW_XG_TARGET_ATOMIC_NUMBER "29.0000000000"
*HW_XG_TARGET_NAME "Cu"
*HW_XG_TYPE "Hermetic"
*HW_XG_VOLTAGE_MAX "60"
*HW_XG_VOLTAGE_MIN "20"
*HW_XG_VOLTAGE_RESOLUTION "1"
*HW_XG_VOLTAGE_UNIT "kV"
*HW_XG_WATT_MAX "1.500"
*HW_XG_WATT_UNIT "kW"
*HW_XG_WAVE_LENGTH_ALPHA1 "1.540593"
*HW_XG_WAVE_LENGTH_ALPHA2 "1.544414"
*HW_XG_WAVE_LENGTH_BETA "1.392250"
*MEAS_COND_AXIS_NAME-0 "2θ/θ"
*MEAS_COND_AXIS_NAME-1 "2θ"
*MEAS_COND_AXIS_NAME-2 "ω"
*MEAS_COND_AXIS_NAME-3 "Z"
*MEAS_COND_AXIS_NAME-4 "2θ/ω"
*MEAS_COND_AXIS_NAME-5 "θs"
*MEAS_COND_AXIS_NAME-6 "θd"
*MEAS_COND_AXIS_NAME-7 "Ts"
*MEAS_COND_AXIS_NAME-8 "CBO選択スリット"
*MEAS_COND_AXIS_NAME-9 "M"
*MEAS_COND_AXIS_NAME-10 "入射平行スリット"
*MEAS_COND_AXIS_NAME-11 "入射スリット"
*MEAS_COND_AXIS_NAME-12 ""
*MEAS_COND_AXIS_NAME-13 "Zs"
*MEAS_COND_AXIS_NAME-14 "入射光学素子"
*MEAS_COND_AXIS_NAME-15 "長手制限スリット"
*MEAS_COND_AXIS_NAME-16 "センタースリット"
*MEAS_COND_AXIS_NAME-17 "フィルター"
*MEAS_COND_AXIS_NAME-18 "受光スリット1"
*MEAS_COND_AXIS_NAME-19 "受光スリット2"
*MEAS_COND_AXIS_NAME-20 "受光光学素子"
*MEAS_COND_AXIS_NAME-21 "受光平行スリット"
*MEAS_COND_AXIS_NAME-22 "調整用受光スリット"
*MEAS_COND_AXIS_NAME-23 ""
*MEAS_COND_AXIS_NAME-24 ""
*MEAS_COND_AXIS_NAME-25 "Zd"
*MEAS_COND_AXIS_NAME-26 "アッテネータ"
*MEAS_COND_AXIS_NAME-27 "検出器モノクロメータ"
*MEAS_COND_AXIS_NAME-28 "モノクロメータスリット"
*MEAS_COND_AXIS_NAME-29 "プライマリビーム"
*MEAS_COND_AXIS_NAME-30 "PHA"
*MEAS_COND_AXIS_NAME_INTERNAL-0 "TwoThetaTheta"
*MEAS_COND_AXIS_NAME_INTERNAL-1 "TwoTheta"
*MEAS_COND_AXIS_NAME_INTERNAL-2 "Omega"
*MEAS_COND_AXIS_NAME_INTERNAL-3 "Z"
*MEAS_COND_AXIS_NAME_INTERNAL-4 "TwoThetaOmega"
*MEAS_COND_AXIS_NAME_INTERNAL-5 "ThetaS"
*MEAS_COND_AXIS_NAME_INTERNAL-6 "ThetaD"
*MEAS_COND_AXIS_NAME_INTERNAL-7 "Ts"
*MEAS_COND_AXIS_NAME_INTERNAL-8 "CBO"
*MEAS_COND_AXIS_NAME_INTERNAL-9 "CBO-M"
*MEAS_COND_AXIS_NAME_INTERNAL-10 "IncidentSollerSlit"
*MEAS_COND_AXIS_NAME_INTERNAL-11 "IncidentSlitBox"
*MEAS_COND_AXIS_NAME_INTERNAL-12 "IncidentSlitBox-_Axis"
*MEAS_COND_AXIS_NAME_INTERNAL-13 "Zs"
*MEAS_COND_AXIS_NAME_INTERNAL-14 "IncidentMonochromator"
*MEAS_COND_AXIS_NAME_INTERNAL-15 "IncidentAxdSlit"
*MEAS_COND_AXIS_NAME_INTERNAL-16 "CenterSlit"
*MEAS_COND_AXIS_NAME_INTERNAL-17 "Filter"
*MEAS_COND_AXIS_NAME_INTERNAL-18 "ReceivingSlitBox1"
*MEAS_COND_AXIS_NAME_INTERNAL-19 "ReceivingSlitBox2"
*MEAS_COND_AXIS_NAME_INTERNAL-20 "ReceivingOptics"
*MEAS_COND_AXIS_NAME_INTERNAL-21 "ReceivingSollerSlit"
*MEAS_COND_AXIS_NAME_INTERNAL-22 "ReceivingAxdSlit"
*MEAS_COND_AXIS_NAME_INTERNAL-23 "ReceivingSlitBox1-_Axis"
*MEAS_COND_AXIS_NAME_INTERNAL-24 "ReceivingSlitBox2-_Axis"
*MEAS_COND_AXIS_NAME_INTERNAL-25 "ReceivingSlitBox2-Zd"
*MEAS_COND_AXIS_NAME_INTERNAL-26 "Attenuator"
*MEAS_COND_AXIS_NAME_INTERNAL-27 "CounterMonochromator"
*MEAS_COND_AXIS_NAME_INTERNAL-28 "CounterSlit"
*MEAS_COND_AXIS_NAME_INTERNAL-29 "IncidentPrimary"
*MEAS_COND_AXIS_NAME_INTERNAL-30 "PHA"
*MEAS_COND_AXIS_NAME_MAGICNO-0 "83951616.0000000000"
*MEAS_COND_AXIS_NAME_MAGICNO-1 "268632064.0000000000"
*MEAS_COND_AXIS_NAME_MAGICNO-2 "268500992.0000000000"
*MEAS_COND_AXIS_NAME_MAGICNO-3 "285278208.0000000000"
*MEAS_COND_AXIS_NAME_MAGICNO-4 "83951616.0000000000"
*MEAS_COND_AXIS_NAME_MAGICNO-5 "131072.0000000000"
*MEAS_COND_AXIS_NAME_MAGICNO-6 "131072.0000000000"
*MEAS_COND_AXIS_NAME_MAGICNO-7 "318898176.0000000000"
*MEAS_COND_AXIS_NAME_MAGICNO-8 "20971521.0000000000"
*MEAS_COND_AXIS_NAME_MAGICNO-9 "285343744.0000000000"
*MEAS_COND_AXIS_NAME_MAGICNO-10 "20971521.0000000000"
*MEAS_COND_AXIS_NAME_MAGICNO-11 "22020097.0000000000"
*MEAS_COND_AXIS_NAME_MAGICNO-12 "25165824.0000000000"
*MEAS_COND_AXIS_NAME_MAGICNO-13 "318898176.0000000000"
*MEAS_COND_AXIS_NAME_MAGICNO-14 "1.0000000000"
*MEAS_COND_AXIS_NAME_MAGICNO-15 "20971521.0000000000"
*MEAS_COND_AXIS_NAME_MAGICNO-16 "20971521.0000000000"
*MEAS_COND_AXIS_NAME_MAGICNO-17 "20971521.0000000000"
*MEAS_COND_AXIS_NAME_MAGICNO-18 "23068673.0000000000"
*MEAS_COND_AXIS_NAME_MAGICNO-19 "23068673.0000000000"
*MEAS_COND_AXIS_NAME_MAGICNO-20 "20971521.0000000000"
*MEAS_COND_AXIS_NAME_MAGICNO-21 "20971521.0000000000"
*MEAS_COND_AXIS_NAME_MAGICNO-22 "20971521.0000000000"
*MEAS_COND_AXIS_NAME_MAGICNO-23 "25165824.0000000000"
*MEAS_COND_AXIS_NAME_MAGICNO-24 "25165824.0000000000"
*MEAS_COND_AXIS_NAME_MAGICNO-25 "285343744.0000000000"
*MEAS_COND_AXIS_NAME_MAGICNO-26 "17301505.0000000000"
*MEAS_COND_AXIS_NAME_MAGICNO-27 "20971521.0000000000"
*MEAS_COND_AXIS_NAME_MAGICNO-28 "20971521.0000000000"
*MEAS_COND_AXIS_NAME_MAGICNO-29 "20971521.0000000000"
*MEAS_COND_AXIS_NAME_MAGICNO-30 "0.0000000000"
*MEAS_COND_AXIS_OFFSET-0 "-"
*MEAS_COND_AXIS_OFFSET-1 "-0.0310000000"
*MEAS_COND_AXIS_OFFSET-2 "0.3957000000"
*MEAS_COND_AXIS_OFFSET-3 "-"
*MEAS_COND_AXIS_OFFSET-4 "-"
*MEAS_COND_AXIS_OFFSET-5 "0.3957000000"
*MEAS_COND_AXIS_OFFSET-6 "-0.4267000000"
*MEAS_COND_AXIS_OFFSET-7 "-"
*MEAS_COND_AXIS_OFFSET-8 "-"
*MEAS_COND_AXIS_OFFSET-9 "-"
*MEAS_COND_AXIS_OFFSET-10 "-"
*MEAS_COND_AXIS_OFFSET-11 "-"
*MEAS_COND_AXIS_OFFSET-12 "-"
*MEAS_COND_AXIS_OFFSET-13 "-"
*MEAS_COND_AXIS_OFFSET-14 "-"
*MEAS_COND_AXIS_OFFSET-15 "-"
*MEAS_COND_AXIS_OFFSET-16 "-"
*MEAS_COND_AXIS_OFFSET-17 "-"
*MEAS_COND_AXIS_OFFSET-18 "-"
*MEAS_COND_AXIS_OFFSET-19 "-"
*MEAS_COND_AXIS_OFFSET-20 "-"
*MEAS_COND_AXIS_OFFSET-21 "-"
*MEAS_COND_AXIS_OFFSET-22 "-"
*MEAS_COND_AXIS_OFFSET-23 "-"
*MEAS_COND_AXIS_OFFSET-24 "-"
*MEAS_COND_AXIS_OFFSET-25 "-"
*MEAS_COND_AXIS_OFFSET-26 "-"
*MEAS_COND_AXIS_OFFSET-27 "-"
*MEAS_COND_AXIS_OFFSET-28 "-"
*MEAS_COND_AXIS_OFFSET-29 "-"
*MEAS_COND_AXIS_OFFSET-30 "-"
*MEAS_COND_AXIS_POSITION-0 "0.0000000000"
*MEAS_COND_AXIS_POSITION-1 "0.0000000000"
*MEAS_COND_AXIS_POSITION-2 "0.0000000000"
*MEAS_COND_AXIS_POSITION-3 "-2.9849600000"
*MEAS_COND_AXIS_POSITION-4 "0.0000000000"
*MEAS_COND_AXIS_POSITION-5 "0.0000000000"
*MEAS_COND_AXIS_POSITION-6 "0.0000000000"
*MEAS_COND_AXIS_POSITION-7 "-0.7498700000"
*MEAS_COND_AXIS_POSITION-8 "BB"
*MEAS_COND_AXIS_POSITION-9 "0.0000000000"
*MEAS_COND_AXIS_POSITION-10 "Soller_slit_5.0deg"
*MEAS_COND_AXIS_POSITION-11 "2/3deg"
*MEAS_COND_AXIS_POSITION-12 "2.2088000000"
*MEAS_COND_AXIS_POSITION-13 "-0.6412500000"
*MEAS_COND_AXIS_POSITION-14 "0.0000000000"
*MEAS_COND_AXIS_POSITION-15 "10.0mm"
*MEAS_COND_AXIS_POSITION-16 "None"
*MEAS_COND_AXIS_POSITION-17 "Cu_K-beta"
*MEAS_COND_AXIS_POSITION-18 "13.000mm"
*MEAS_COND_AXIS_POSITION-19 "13.000mm"
*MEAS_COND_AXIS_POSITION-20 "No_unit"
*MEAS_COND_AXIS_POSITION-21 "Soller_slit_5.0deg"
*MEAS_COND_AXIS_POSITION-22 "None"
*MEAS_COND_AXIS_POSITION-23 "13.0000000000"
*MEAS_COND_AXIS_POSITION-24 "13.0000000000"
*MEAS_COND_AXIS_POSITION-25 "0.0281300000"
*MEAS_COND_AXIS_POSITION-26 "Open"
*MEAS_COND_AXIS_POSITION-27 "None"
*MEAS_COND_AXIS_POSITION-28 "None"
*MEAS_COND_AXIS_POSITION-29 "None"
*MEAS_COND_AXIS_POSITION-30 "38.0000000000"
*MEAS_COND_AXIS_UNIT-0 "deg"
*MEAS_COND_AXIS_UNIT-1 "deg"
*MEAS_COND_AXIS_UNIT-2 "deg"
*MEAS_COND_AXIS_UNIT-3 "mm"
*MEAS_COND_AXIS_UNIT-4 "deg"
*MEAS_COND_AXIS_UNIT-5 "deg"
*MEAS_COND_AXIS_UNIT-6 "deg"
*MEAS_COND_AXIS_UNIT-7 "mm"
*MEAS_COND_AXIS_UNIT-8 ""
*MEAS_COND_AXIS_UNIT-9 "pulse"
*MEAS_COND_AXIS_UNIT-10 ""
*MEAS_COND_AXIS_UNIT-11 ""
*MEAS_COND_AXIS_UNIT-12 "mm"
*MEAS_COND_AXIS_UNIT-13 "mm"
*MEAS_COND_AXIS_UNIT-14 ""
*MEAS_COND_AXIS_UNIT-15 ""
*MEAS_COND_AXIS_UNIT-16 ""
*MEAS_COND_AXIS_UNIT-17 ""
*MEAS_COND_AXIS_UNIT-18 ""
*MEAS_COND_AXIS_UNIT-19 ""
*MEAS_COND_AXIS_UNIT-20 ""
*MEAS_COND_AXIS_UNIT-21 ""
*MEAS_COND_AXIS_UNIT-22 ""
*MEAS_COND_AXIS_UNIT-23 "mm"
*MEAS_COND_AXIS_UNIT-24 "mm"
*MEAS_COND_AXIS_UNIT-25 "mm"
*MEAS_COND_AXIS_UNIT-26 ""
*MEAS_COND_AXIS_UNIT-27 ""
*MEAS_COND_AXIS_UNIT-28 ""
*MEAS_COND_AXIS_UNIT-29 ""
*MEAS_COND_AXIS_UNIT-30 "div"
*MEAS_COND_COUNTER_CNTLOSS_CORR "0.0000000000"
*MEAS_COND_COUNTER_PHABASE "38.0000000000"
*MEAS_COND_COUNTER_PHAWINDOW "16.0000000000"
*MEAS_COND_COUNTER_PHA_UNIT "div"
*MEAS_COND_COUNTER_TAUDIFF "30.0000000000"
*MEAS_COND_COUNTER_TAUINT "0.0000000000"
*MEAS_COND_IRRADIATION_MODE "OFF"
*MEAS_COND_IRRADIATION_WIDTH ""
*MEAS_COND_OPT_ATTR "集中法"
*MEAS_COND_OPT_NAME "@集中法"
*MEAS_COND_UNSYMMETRIC_MODE "OFF"
*MEAS_COND_XG_CURRENT "30.0000000000"
*MEAS_COND_XG_VOLTAGE "40.0000000000"
*MEAS_COND_XG_WAVE_TYPE "Ka"
*MEAS_DATA_COUNT "5001.0000000000"
*MEAS_SCAN_AXIS_X "2θ/θ"
*MEAS_SCAN_AXIS_X_INTERNAL "TwoThetaTheta"
*MEAS_SCAN_END_TIME "02/07/24 19:22:24"
*MEAS_SCAN_MODE "CONTINUOUS"
*MEAS_SCAN_MONITOR "0"
*MEAS_SCAN_RESOLUTION_X "0.0002"
*MEAS_SCAN_SPEED "2.5"
*MEAS_SCAN_SPEED_UNIT "deg/min"
*MEAS_SCAN_START "20.0000000000"
*MEAS_SCAN_START_TIME "02/07/24 19:00:59"
*MEAS_SCAN_STEP "0.0100000000"
*MEAS_SCAN_STOP "70.0000000000"
*MEAS_SCAN_UNIT_X "deg"
*MEAS_SCAN_UNIT_Y "counts"
*RAS_HEADER_END
*RAS_INT_START
20.0000 752.0000 1.0000
20.0100 791.0000 1.0000
20.0200 790.0000 1.0000
20.0300 816.0000 1.0000
20.0400 793.0000 1.0000
20.0500 813.0000 1.0000
20.0600 813.0000 1.0000
20.0700 781.0000 1.0000
20.0800 843.0000 1.0000
20.0900 848.0000 1.0000
20.1000 809.0000 1.0000
20.1100 788.0000 1.0000
20.1200 783.0000 1.0000
20.1300 798.0000 1.0000
20.1400 800.0000 1.0000
20.1500 770.0000 1.0000
20.1600 778.0000 1.0000
20.1700 793.0000 1.0000
20.1800 806.0000 1.0000
20.1900 861.0000 1.0000
20.2000 824.0000 1.0000
20.2100 793.0000 1.0000
20.2200 768.0000 1.0000
20.2300 805.0000 1.0000
20.2400 814.0000 1.0000
20.2500 786.0000 1.0000
20.2600 781.0000 1.0000
20.2700 810.0000 1.0000
20.2800 810.0000 1.0000
20.2900 820.0000 1.0000
20.3000 815.0000 1.0000
20.3100 843.0000 1.0000
20.3200 860.0000 1.0000
20.3300 834.0000 1.0000
20.3400 797.0000 1.0000
20.3500 783.0000 1.0000
20.3600 810.0000 1.0000
20.3700 836.0000 1.0000
20.3800 831.0000 1.0000
20.3900 789.0000 1.0000
20.4000 788.0000 1.0000
20.4100 861.0000 1.0000
20.4200 785.0000 1.0000
20.4300 752.0000 1.0000
20.4400 800.0000 1.0000
20.4500 776.0000 1.0000
20.4600 838.0000 1.0000
20.4700 756.0000 1.0000
20.4800 819.0000 1.0000
20.4900 845.0000 1.0000
20.5000 766.0000 1.0000
20.5100 778.0000 1.0000
20.5200 797.0000 1.0000
20.5300 789.0000 1.0000
20.5400 802.0000 1.0000
20.5500 824.0000 1.0000
20.5600 815.0000 1.0000
20.5700 817.0000 1.0000
20.5800 819.0000 1.0000
20.5900 809.0000 1.0000
20.6000 822.0000 1.0000
20.6100 768.0000 1.0000
20.6200 793.0000 1.0000
20.6300 826.0000 1.0000
20.6400 792.0000 1.0000
20.6500 820.0000 1.0000
20.6600 785.0000 1.0000
20.6700 799.0000 1.0000
20.6800 804.0000 1.0000
20.6900 762.0000 1.0000
20.7000 807.0000 1.0000
20.7100 787.0000 1.0000
20.7200 798.0000 1.0000
20.7300 807.0000 1.0000
20.7400 809.0000 1.0000
20.7500 780.0000 1.0000
20.7600 809.0000 1.0000
20.7700 837.0000 1.0000
20.7800 802.0000 1.0000
20.7900 794.0000 1.0000
20.8000 795.0000 1.0000
20.8100 809.0000 1.0000
20.8200 804.0000 1.0000
20.8300 773.0000 1.0000
20.8400 751.0000 1.0000
20.8500 851.0000 1.0000
20.8600 789.0000 1.0000
20.8700 805.0000 1.0000
20.8800 842.0000 1.0000
20.8900 841.0000 1.0000
20.9000 825.0000 1.0000
20.9100 802.0000 1.0000
20.9200 788.0000 1.0000
20.9300 831.0000 1.0000
20.9400 770.0000 1.0000
20.9500 791.0000 1.0000
20.9600 812.0000 1.0000
20.9700 814.0000 1.0000
20.9800 768.0000 1.0000
20.9900 771.0000 1.0000
21.0000 838.0000 1.0000
21.0100 832.0000 1.0000
21.0200 775.0000 1.0000
21.0300 775.0000 1.0000
21.0400 793.0000 1.0000
21.0500 752.0000 1.0000
21.0600 767.0000 1.0000
21.0700 788.0000 1.0000
21.0800 793.0000 1.0000
21.0900 825.0000 1.0000
21.1000 752.0000 1.0000
21.1100 817.0000 1.0000
21.1200 784.0000 1.0000
21.1300 841.0000 1.0000
21.1400 816.0000 1.0000
21.1500 806.0000 1.0000
21.1600 810.0000 1.0000
21.1700 814.0000 1.0000
21.1800 787.0000 1.0000
21.1900 811.0000 1.0000
21.2000 753.0000 1.0000
21.2100 797.0000 1.0000
21.2200 844.0000 1.0000
21.2300 827.0000 1.0000
21.2400 819.0000 1.0000
21.2500 792.0000 1.0000
21.2600 770.0000 1.0000
21.2700 801.0000 1.0000
21.2800 765.0000 1.0000
21.2900 807.0000 1.0000
21.3000 783.0000 1.0000
21.3100 818.0000 1.0000
21.3200 838.0000 1.0000
21.3300 833.0000 1.0000
21.3400 846.0000 1.0000
21.3500 826.0000 1.0000
21.3600 825.0000 1.0000
21.3700 799.0000 1.0000
21.3800 820.0000 1.0000
21.3900 781.0000 1.0000
21.4000 798.0000 1.0000
21.4100 812.0000 1.0000
21.4200 835.0000 1.0000
21.4300 804.0000 1.0000
21.4400 754.0000 1.0000
21.4500 762.0000 1.0000
21.4600 801.0000 1.0000
21.4700 844.0000 1.0000
21.4800 768.0000 1.0000
21.4900 782.0000 1.0000
21.5000 802.0000 1.0000
21.5100 787.0000 1.0000
21.5200 828.0000 1.0000
21.5300 757.0000 1.0000
21.5400 772.0000 1.0000
21.5500 797.0000 1.0000
21.5600 753.0000 1.0000
21.5700 816.0000 1.0000
21.5800 828.0000 1.0000
21.5900 806.0000 1.0000
21.6000 786.0000 1.0000
21.6100 790.0000 1.0000
21.6200 830.0000 1.0000
21.6300 778.0000 1.0000
21.6400 787.0000 1.0000
21.6500 785.0000 1.0000
21.6600 786.0000 1.0000
21.6700 836.0000 1.0000
21.6800 823.0000 1.0000
21.6900 754.0000 1.0000
21.7000 748.0000 1.0000
21.7100 776.0000 1.0000
21.7200 806.0000 1.0000
21.7300 791.0000 1.0000
21.7400 821.0000 1.0000
21.7500 794.0000 1.0000
21.7600 780.0000 1.0000
21.7700 786.0000 1.0000
21.7800 762.0000 1.0000
21.7900 832.0000 1.0000
21.8000 776.0000 1.0000
21.8100 791.0000 1.0000
21.8200 794.0000 1.0000
21.8300 783.0000 1.0000
21.8400 802.0000 1.0000
21.8500 785.0000 1.0000
21.8600 816.0000 1.0000
21.8700 808.0000 1.0000
21.8800 792.0000 1.0000
21.8900 775.0000 1.0000
21.9000 744.0000 1.0000
21.9100 763.0000 1.0000
21.9200 783.0000 1.0000
21.9300 808.0000 1.0000
21.9400 793.0000 1.0000
21.9500 772.0000 1.0000
21.9600 786.0000 1.0000
21.9700 766.0000 1.0000
21.9800 755.0000 1.0000
21.9900 792.0000 1.0000
22.0000 843.0000 1.0000
22.0100 764.0000 1.0000
22.0200 823.0000 1.0000
22.0300 816.0000 1.0000
22.0400 799.0000 1.0000
22.0500 751.0000 1.0000
22.0600 818.0000 1.0000
22.0700 782.0000 1.0000
22.0800 822.0000 1.0000
22.0900 812.0000 1.0000
22.1000 757.0000 1.0000
22.1100 757.0000 1.0000
22.1200 795.0000 1.0000
22.1300 783.0000 1.0000
22.1400 785.0000 1.0000
22.1500 766.0000 1.0000
22.1600 753.0000 1.0000
22.1700 792.0000 1.0000
22.1800 802.0000 1.0000
22.1900 781.0000 1.0000
22.2000 795.0000 1.0000
22.2100 745.0000 1.0000
22.2200 764.0000 1.0000
22.2300 785.0000 1.0000
22.2400 774.0000 1.0000
22.2500 771.0000 1.0000
22.2600 806.0000 1.0000
22.2700 800.0000 1.0000
22.2800 774.0000 1.0000
22.2900 786.0000 1.0000
22.3000 764.0000 1.0000
22.3100 765.0000 1.0000
22.3200 766.0000 1.0000
22.3300 805.0000 1.0000
22.3400 772.0000 1.0000
22.3500 785.0000 1.0000
22.3600 775.0000 1.0000
22.3700 783.0000 1.0000
22.3800 803.0000 1.0000
22.3900 814.0000 1.0000
22.4000 790.0000 1.0000
22.4100 807.0000 1.0000
22.4200 809.0000 1.0000
22.4300 763.0000 1.0000
22.4400 780.0000 1.0000
22.4500 840.0000 1.0000
22.4600 802.0000 1.0000
22.4700 784.0000 1.0000
22.4800 778.0000 1.0000
22.4900 765.0000 1.0000
22.5000 785.0000 1.0000
22.5100 832.0000 1.0000
22.5200 759.0000 1.0000
22.5300 742.0000 1.0000
22.5400 748.0000 1.0000
22.5500 756.0000 1.0000
22.5600 778.0000 1.0000
22.5700 765.0000 1.0000
22.5800 760.0000 1.0000
22.5900 743.0000 1.0000
22.6000 800.0000 1.0000
22.6100 790.0000 1.0000
22.6200 766.0000 1.0000
22.6300 763.0000 1.0000
22.6400 747.0000 1.0000
22.6500 768.0000 1.0000
22.6600 823.0000 1.0000
22.6700 782.0000 1.0000
22.6800 767.0000 1.0000
22.6900 768.0000 1.0000
22.7000 762.0000 1.0000
22.7100 806.0000 1.0000
22.7200 790.0000 1.0000
22.7300 817.0000 1.0000
22.7400 733.0000 1.0000
22.7500 780.0000 1.0000
22.7600 780.0000 1.0000
22.7700 778.0000 1.0000
22.7800 761.0000 1.0000
22.7900 773.0000 1.0000
22.8000 703.0000 1.0000
22.8100 751.0000 1.0000
22.8200 764.0000 1.0000
22.8300 777.0000 1.0000
22.8400 742.0000 1.0000
22.8500 814.0000 1.0000
22.8600 782.0000 1.0000
22.8700 800.0000 1.0000
22.8800 779.0000 1.0000
22.8900 805.0000 1.0000
22.9000 786.0000 1.0000
22.9100 820.0000 1.0000
22.9200 781.0000 1.0000
22.9300 768.0000 1.0000
22.9400 792.0000 1.0000
22.9500 784.0000 1.0000
22.9600 737.0000 1.0000
22.9700 737.0000 1.0000
22.9800 767.0000 1.0000
22.9900 751.0000 1.0000
23.0000 786.0000 1.0000
23.0100 782.0000 1.0000
23.0200 707.0000 1.0000
23.0300 748.0000 1.0000
23.0400 770.0000 1.0000
23.0500 757.0000 1.0000
23.0600 747.0000 1.0000
23.0700 765.0000 1.0000
23.0800 751.0000 1.0000
23.0900 808.0000 1.0000
23.1000 751.0000 1.0000
23.1100 789.0000 1.0000
23.1200 794.0000 1.0000
23.1300 759.0000 1.0000
23.1400 770.0000 1.0000
23.1500 751.0000 1.0000
23.1600 739.0000 1.0000
23.1700 774.0000 1.0000
23.1800 758.0000 1.0000
23.1900 776.0000 1.0000
23.2000 782.0000 1.0000
23.2100 774.0000 1.0000
23.2200 776.0000 1.0000
23.2300 792.0000 1.0000
23.2400 795.0000 1.0000
23.2500 792.0000 1.0000
23.2600 778.0000 1.0000
23.2700 726.0000 1.0000
23.2800 781.0000 1.0000
23.2900 771.0000 1.0000
23.3000 775.0000 1.0000
23.3100 798.0000 1.0000
23.3200 756.0000 1.0000
23.3300 813.0000 1.0000
23.3400 744.0000 1.0000
23.3500 739.0000 1.0000
23.3600 768.0000 1.0000
23.3700 753.0000 1.0000
23.3800 741.0000 1.0000
23.3900 742.0000 1.0000
23.4000 773.0000 1.0000
23.4100 752.0000 1.0000
23.4200 735.0000 1.0000
23.4300 747.0000 1.0000
23.4400 792.0000 1.0000
23.4500 787.0000 1.0000
23.4600 772.0000 1.0000
23.4700 754.0000 1.0000
23.4800 790.0000 1.0000
23.4900 796.0000 1.0000
23.5000 785.0000 1.0000
23.5100 753.0000 1.0000
23.5200 762.0000 1.0000
23.5300 772.0000 1.0000
23.5400 777.0000 1.0000
23.5500 738.0000 1.0000
23.5600 712.0000 1.0000
23.5700 768.0000 1.0000
23.5800 743.0000 1.0000
23.5900 766.0000 1.0000
23.6000 800.0000 1.0000
23.6100 733.0000 1.0000
23.6200 773.0000 1.0000
23.6300 738.0000 1.0000
23.6400 757.0000 1.0000
23.6500 777.0000 1.0000
23.6600 779.0000 1.0000
23.6700 751.0000 1.0000
23.6800 798.0000 1.0000
23.6900 764.0000 1.0000
23.7000 766.0000 1.0000
23.7100 793.0000 1.0000
23.7200 778.0000 1.0000
23.7300 785.0000 1.0000
23.7400 789.0000 1.0000
23.7500 776.0000 1.0000
23.7600 749.0000 1.0000
23.7700 744.0000 1.0000
23.7800 756.0000 1.0000
23.7900 744.0000 1.0000
23.8000 774.0000 1.0000
23.8100 801.0000 1.0000
23.8200 803.0000 1.0000
23.8300 746.0000 1.0000
23.8400 753.0000 1.0000
23.8500 775.0000 1.0000
23.8600 792.0000 1.0000
23.8700 777.0000 1.0000
23.8800 741.0000 1.0000
23.8900 808.0000 1.0000
23.9000 780.0000 1.0000
23.9100 828.0000 1.0000
23.9200 795.0000 1.0000
23.9300 808.0000 1.0000
23.9400 784.0000 1.0000
23.9500 841.0000 1.0000
23.9600 842.0000 1.0000
23.9700 865.0000 1.0000
23.9800 849.0000 1.0000
23.9900 859.0000 1.0000
24.0000 934.0000 1.0000
24.0100 799.0000 1.0000
24.0200 830.0000 1.0000
24.0300 849.0000 1.0000
24.0400 867.0000 1.0000
24.0500 890.0000 1.0000
24.0600 897.0000 1.0000
24.0700 925.0000 1.0000
24.0800 927.0000 1.0000
24.0900 944.0000 1.0000
24.1000 893.0000 1.0000
24.1100 887.0000 1.0000
24.1200 877.0000 1.0000
24.1300 914.0000 1.0000
24.1400 883.0000 1.0000
24.1500 878.0000 1.0000
24.1600 867.0000 1.0000
24.1700 866.0000 1.0000
24.1800 809.0000 1.0000
24.1900 828.0000 1.0000
24.2000 823.0000 1.0000
24.2100 815.0000 1.0000
24.2200 829.0000 1.0000
24.2300 773.0000 1.0000
24.2400 773.0000 1.0000
24.2500 806.0000 1.0000
24.2600 780.0000 1.0000
24.2700 748.0000 1.0000
24.2800 812.0000 1.0000
24.2900 795.0000 1.0000
24.3000 782.0000 1.0000
24.3100 793.0000 1.0000
24.3200 766.0000 1.0000
24.3300 774.0000 1.0000
24.3400 759.0000 1.0000
24.3500 756.0000 1.0000
24.3600 740.0000 1.0000
24.3700 742.0000 1.0000
24.3800 748.0000 1.0000
24.3900 833.0000 1.0000
24.4000 765.0000 1.0000
24.4100 756.0000 1.0000
24.4200 757.0000 1.0000
24.4300 751.0000 1.0000
24.4400 687.0000 1.0000
24.4500 776.0000 1.0000
24.4600 774.0000 1.0000
24.4700 764.0000 1.0000
24.4800 767.0000 1.0000
24.4900 711.0000 1.0000
24.5000 760.0000 1.0000
24.5100 719.0000 1.0000
24.5200 752.0000 1.0000
24.5300 788.0000 1.0000
24.5400 745.0000 1.0000
24.5500 729.0000 1.0000
24.5600 746.0000 1.0000
24.5700 732.0000 1.0000
24.5800 737.0000 1.0000
24.5900 744.0000 1.0000
24.6000 766.0000 1.0000
24.6100 792.0000 1.0000
24.6200 718.0000 1.0000
24.6300 767.0000 1.0000
24.6400 707.0000 1.0000
24.6500 732.0000 1.0000
24.6600 737.0000 1.0000
24.6700 733.0000 1.0000
24.6800 726.0000 1.0000
24.6900 712.0000 1.0000
24.7000 767.0000 1.0000
24.7100 685.0000 1.0000
24.7200 779.0000 1.0000
24.7300 747.0000 1.0000
24.7400 754.0000 1.0000
24.7500 758.0000 1.0000
24.7600 764.0000 1.0000
24.7700 698.0000 1.0000
24.7800 735.0000 1.0000
24.7900 747.0000 1.0000
24.8000 732.0000 1.0000
24.8100 762.0000 1.0000
24.8200 756.0000 1.0000
24.8300 712.0000 1.0000
24.8400 728.0000 1.0000
24.8500 740.0000 1.0000
24.8600 730.0000 1.0000
24.8700 718.0000 1.0000
24.8800 751.0000 1.0000
24.8900 749.0000 1.0000
24.9000 732.0000 1.0000
24.9100 707.0000 1.0000
24.9200 725.0000 1.0000
24.9300 778.0000 1.0000
24.9400 703.0000 1.0000
24.9500 724.0000 1.0000
24.9600 730.0000 1.0000
24.9700 695.0000 1.0000
24.9800 710.0000 1.0000
24.9900 732.0000 1.0000
25.0000 689.0000 1.0000
25.0100 717.0000 1.0000
25.0200 687.0000 1.0000
25.0300 739.0000 1.0000
25.0400 743.0000 1.0000
25.0500 726.0000 1.0000
25.0600 722.0000 1.0000
25.0700 757.0000 1.0000
25.0800 687.0000 1.0000
25.0900 728.0000 1.0000
25.1000 738.0000 1.0000
25.1100 771.0000 1.0000
25.1200 722.0000 1.0000
25.1300 739.0000 1.0000
25.1400 748.0000 1.0000
25.1500 797.0000 1.0000
25.1600 740.0000 1.0000
25.1700 705.0000 1.0000
25.1800 703.0000 1.0000
25.1900 731.0000 1.0000
25.2000 744.0000 1.0000
25.2100 727.0000 1.0000
25.2200 715.0000 1.0000
25.2300 692.0000 1.0000
25.2400 732.0000 1.0000
25.2500 728.0000 1.0000
25.2600 737.0000 1.0000
25.2700 711.0000 1.0000
25.2800 690.0000 1.0000
25.2900 733.0000 1.0000
25.3000 738.0000 1.0000
25.3100 743.0000 1.0000
25.3200 716.0000 1.0000
25.3300 767.0000 1.0000
25.3400 762.0000 1.0000
25.3500 736.0000 1.0000
25.3600 726.0000 1.0000
25.3700 702.0000 1.0000
25.3800 721.0000 1.0000
25.3900 780.0000 1.0000
25.4000 715.0000 1.0000
25.4100 757.0000 1.0000
25.4200 714.0000 1.0000
25.4300 697.0000 1.0000
25.4400 706.0000 1.0000
25.4500 762.0000 1.0000
25.4600 741.0000 1.0000
25.4700 779.0000 1.0000
25.4800 710.0000 1.0000
25.4900 726.0000 1.0000
25.5000 728.0000 1.0000
25.5100 722.0000 1.0000
25.5200 775.0000 1.0000
25.5300 747.0000 1.0000
25.5400 730.0000 1.0000
25.5500 714.0000 1.0000
25.5600 719.0000 1.0000
25.5700 734.0000 1.0000
25.5800 704.0000 1.0000
25.5900 738.0000 1.0000
25.6000 773.0000 1.0000
25.6100 760.0000 1.0000
25.6200 742.0000 1.0000
25.6300 699.0000 1.0000
25.6400 747.0000 1.0000
25.6500 707.0000 1.0000
25.6600 706.0000 1.0000
25.6700 728.0000 1.0000
25.6800 687.0000 1.0000
25.6900 715.0000 1.0000
25.7000 671.0000 1.0000
25.7100 716.0000 1.0000
25.7200 765.0000 1.0000
25.7300 729.0000 1.0000
25.7400 748.0000 1.0000
25.7500 724.0000 1.0000
25.7600 755.0000 1.0000
25.7700 743.0000 1.0000
25.7800 783.0000 1.0000
25.7900 764.0000 1.0000
25.8000 757.0000 1.0000
25.8100 755.0000 1.0000
25.8200 773.0000 1.0000
25.8300 715.0000 1.0000
25.8400 757.0000 1.0000
25.8500 739.0000 1.0000
25.8600 736.0000 1.0000
25.8700 754.0000 1.0000
25.8800 768.0000 1.0000
25.8900 748.0000 1.0000
25.9000 738.0000 1.0000
25.9100 764.0000 1.0000
25.9200 728.0000 1.0000
25.9300 733.0000 1.0000
25.9400 780.0000 1.0000
25.9500 741.0000 1.0000
25.9600 744.0000 1.0000
25.9700 743.0000 1.0000
25.9800 742.0000 1.0000
25.9900 758.0000 1.0000
26.0000 785.0000 1.0000
26.0100 810.0000 1.0000
26.0200 783.0000 1.0000
26.0300 772.0000 1.0000
26.0400 742.0000 1.0000
26.0500 799.0000 1.0000
26.0600 816.0000 1.0000
26.0700 787.0000 1.0000
26.0800 795.0000 1.0000
26.0900 788.0000 1.0000
26.1000 841.0000 1.0000
26.1100 812.0000 1.0000
26.1200 836.0000 1.0000
26.1300 825.0000 1.0000
26.1400 872.0000 1.0000
26.1500 862.0000 1.0000
26.1600 803.0000 1.0000
26.1700 826.0000 1.0000
26.1800 870.0000 1.0000
26.1900 877.0000 1.0000
26.2000 930.0000 1.0000
26.2100 892.0000 1.0000
26.2200 938.0000 1.0000
26.2300 921.0000 1.0000
26.2400 938.0000 1.0000
26.2500 955.0000 1.0000
26.2600 974.0000 1.0000
26.2700 948.0000 1.0000
26.2800 997.0000 1.0000
26.2900 1019.0000 1.0000
26.3000 1070.0000 1.0000
26.3100 1076.0000 1.0000
26.3200 1069.0000 1.0000
26.3300 1101.0000 1.0000
26.3400 1137.0000 1.0000
26.3500 1188.0000 1.0000
26.3600 1142.0000 1.0000
26.3700 1244.0000 1.0000
26.3800 1285.0000 1.0000
26.3900 1249.0000 1.0000
26.4000 1243.0000 1.0000
26.4100 1262.0000 1.0000
26.4200 1272.0000 1.0000
26.4300 1385.0000 1.0000
26.4400 1336.0000 1.0000
26.4500 1339.0000 1.0000
26.4600 1323.0000 1.0000
26.4700 1279.0000 1.0000
26.4800 1294.0000 1.0000
26.4900 1322.0000 1.0000
26.5000 1293.0000 1.0000
26.5100 1209.0000 1.0000
26.5200 1193.0000 1.0000
26.5300 1192.0000 1.0000
26.5400 1145.0000 1.0000
26.5500 1134.0000 1.0000
26.5600 1145.0000 1.0000
26.5700 1073.0000 1.0000
26.5800 1104.0000 1.0000
26.5900 1083.0000 1.0000
26.6000 1057.0000 1.0000
26.6100 994.0000 1.0000
26.6200 1011.0000 1.0000
26.6300 935.0000 1.0000
26.6400 900.0000 1.0000
26.6500 924.0000 1.0000
26.6600 948.0000 1.0000
26.6700 921.0000 1.0000
26.6800 870.0000 1.0000
26.6900 871.0000 1.0000
26.7000 813.0000 1.0000
26.7100 815.0000 1.0000
26.7200 823.0000 1.0000
26.7300 830.0000 1.0000
26.7400 798.0000 1.0000
26.7500 831.0000 1.0000
26.7600 833.0000 1.0000
26.7700 792.0000 1.0000
26.7800 787.0000 1.0000
26.7900 814.0000 1.0000
26.8000 781.0000 1.0000
26.8100 796.0000 1.0000
26.8200 759.0000 1.0000
26.8300 757.0000 1.0000
26.8400 756.0000 1.0000
26.8500 760.0000 1.0000
26.8600 760.0000 1.0000
26.8700 777.0000 1.0000
26.8800 781.0000 1.0000
26.8900 743.0000 1.0000
26.9000 696.0000 1.0000
26.9100 736.0000 1.0000
26.9200 717.0000 1.0000
26.9300 726.0000 1.0000
26.9400 747.0000 1.0000
26.9500 722.0000 1.0000
26.9600 723.0000 1.0000
26.9700 720.0000 1.0000
26.9800 708.0000 1.0000
26.9900 705.0000 1.0000
27.0000 740.0000 1.0000
27.0100 737.0000 1.0000
27.0200 707.0000 1.0000
27.0300 735.0000 1.0000
27.0400 738.0000 1.0000
27.0500 754.0000 1.0000
27.0600 710.0000 1.0000
27.0700 687.0000 1.0000
27.0800 694.0000 1.0000
27.0900 708.0000 1.0000
27.1000 713.0000 1.0000
27.1100 696.0000 1.0000
27.1200 728.0000 1.0000
27.1300 705.0000 1.0000
27.1400 708.0000 1.0000
27.1500 675.0000 1.0000
27.1600 682.0000 1.0000
27.1700 689.0000 1.0000
27.1800 660.0000 1.0000
27.1900 679.0000 1.0000
27.2000 674.0000 1.0000
27.2100 709.0000 1.0000
27.2200 706.0000 1.0000
27.2300 678.0000 1.0000
27.2400 753.0000 1.0000
27.2500 717.0000 1.0000
27.2600 697.0000 1.0000
27.2700 692.0000 1.0000
27.2800 732.0000 1.0000
27.2900 698.0000 1.0000
27.3000 670.0000 1.0000
27.3100 716.0000 1.0000
27.3200 675.0000 1.0000
27.3300 676.0000 1.0000
27.3400 656.0000 1.0000
27.3500 685.0000 1.0000
27.3600 692.0000 1.0000
27.3700 678.0000 1.0000
27.3800 659.0000 1.0000
27.3900 646.0000 1.0000
27.4000 689.0000 1.0000
27.4100 683.0000 1.0000
27.4200 694.0000 1.0000
27.4300 659.0000 1.0000
27.4400 677.0000 1.0000
27.4500 656.0000 1.0000
27.4600 703.0000 1.0000
27.4700 695.0000 1.0000
27.4800 676.0000 1.0000
27.4900 648.0000 1.0000
27.5000 660.0000 1.0000
27.5100 674.0000 1.0000
27.5200 692.0000 1.0000
27.5300 668.0000 1.0000
27.5400 633.0000 1.0000
27.5500 684.0000 1.0000
27.5600 666.0000 1.0000
27.5700 644.0000 1.0000
27.5800 647.0000 1.0000
27.5900 668.0000 1.0000
27.6000 640.0000 1.0000
27.6100 639.0000 1.0000
27.6200 627.0000 1.0000
27.6300 646.0000 1.0000
27.6400 670.0000 1.0000
27.6500 665.0000 1.0000
27.6600 638.0000 1.0000
27.6700 644.0000 1.0000
27.6800 665.0000 1.0000
27.6900 606.0000 1.0000
27.7000 622.0000 1.0000
27.7100 651.0000 1.0000
27.7200 683.0000 1.0000
27.7300 705.0000 1.0000
27.7400 674.0000 1.0000
27.7500 649.0000 1.0000
27.7600 668.0000 1.0000
27.7700 668.0000 1.0000
27.7800 626.0000 1.0000
27.7900 644.0000 1.0000
27.8000 671.0000 1.0000
27.8100 675.0000 1.0000
27.8200 628.0000 1.0000
27.8300 620.0000 1.0000
27.8400 654.0000 1.0000
27.8500 630.0000 1.0000
27.8600 682.0000 1.0000
27.8700 644.0000 1.0000
27.8800 669.0000 1.0000
27.8900 657.0000 1.0000
27.9000 641.0000 1.0000
27.9100 660.0000 1.0000
27.9200 653.0000 1.0000
27.9300 633.0000 1.0000
27.9400 625.0000 1.0000
27.9500 642.0000 1.0000
27.9600 670.0000 1.0000
27.9700 636.0000 1.0000
27.9800 673.0000 1.0000
27.9900 638.0000 1.0000
28.0000 646.0000 1.0000
28.0100 661.0000 1.0000
28.0200 662.0000 1.0000
28.0300 663.0000 1.0000
28.0400 669.0000 1.0000
28.0500 649.0000 1.0000
28.0600 650.0000 1.0000
28.0700 614.0000 1.0000
28.0800 617.0000 1.0000
28.0900 619.0000 1.0000
28.1000 658.0000 1.0000
28.1100 646.0000 1.0000
28.1200 646.0000 1.0000
28.1300 626.0000 1.0000
28.1400 669.0000 1.0000
28.1500 647.0000 1.0000
28.1600 606.0000 1.0000
28.1700 649.0000 1.0000
28.1800 666.0000 1.0000
28.1900 673.0000 1.0000
28.2000 648.0000 1.0000
28.2100 682.0000 1.0000
28.2200 654.0000 1.0000
28.2300 618.0000 1.0000
28.2400 667.0000 1.0000
28.2500 663.0000 1.0000
28.2600 676.0000 1.0000
28.2700 640.0000 1.0000
28.2800 643.0000 1.0000
28.2900 656.0000 1.0000
28.3000 649.0000 1.0000
28.3100 683.0000 1.0000
28.3200 668.0000 1.0000
28.3300 639.0000 1.0000
28.3400 672.0000 1.0000
28.3500 618.0000 1.0000
28.3600 596.0000 1.0000
28.3700 650.0000 1.0000
28.3800 620.0000 1.0000
28.3900 630.0000 1.0000
28.4000 609.0000 1.0000
28.4100 617.0000 1.0000
28.4200 681.0000 1.0000
28.4300 679.0000 1.0000
28.4400 614.0000 1.0000
28.4500 609.0000 1.0000
28.4600 634.0000 1.0000
28.4700 643.0000 1.0000
28.4800 634.0000 1.0000
28.4900 646.0000 1.0000
28.5000 610.0000 1.0000
28.5100 630.0000 1.0000
28.5200 630.0000 1.0000
28.5300 610.0000 1.0000
28.5400 687.0000 1.0000
28.5500 677.0000 1.0000
28.5600 615.0000 1.0000
28.5700 653.0000 1.0000
28.5800 623.0000 1.0000
28.5900 644.0000 1.0000
28.6000 632.0000 1.0000
28.6100 620.0000 1.0000
28.6200 651.0000 1.0000
28.6300 640.0000 1.0000
28.6400 645.0000 1.0000
28.6500 612.0000 1.0000
28.6600 672.0000 1.0000
28.6700 613.0000 1.0000
28.6800 636.0000 1.0000
28.6900 636.0000 1.0000
28.7000 641.0000 1.0000
28.7100 575.0000 1.0000
28.7200 575.0000 1.0000
28.7300 594.0000 1.0000
28.7400 580.0000 1.0000
28.7500 611.0000 1.0000
28.7600 598.0000 1.0000
28.7700 589.0000 1.0000
28.7800 615.0000 1.0000
28.7900 606.0000 1.0000
28.8000 578.0000 1.0000
28.8100 606.0000 1.0000
28.8200 615.0000 1.0000
28.8300 567.0000 1.0000
28.8400 591.0000 1.0000
28.8500 602.0000 1.0000
28.8600 624.0000 1.0000
28.8700 632.0000 1.0000
28.8800 618.0000 1.0000
28.8900 592.0000 1.0000
28.9000 589.0000 1.0000
28.9100 646.0000 1.0000
28.9200 617.0000 1.0000
28.9300 628.0000 1.0000
28.9400 638.0000 1.0000
28.9500 634.0000 1.0000
28.9600 581.0000 1.0000
28.9700 622.0000 1.0000
28.9800 589.0000 1.0000
28.9900 628.0000 1.0000
29.0000 603.0000 1.0000
29.0100 592.0000 1.0000
29.0200 643.0000 1.0000
29.0300 652.0000 1.0000
29.0400 628.0000 1.0000
29.0500 637.0000 1.0000
29.0600 595.0000 1.0000
29.0700 611.0000 1.0000
29.0800 590.0000 1.0000
29.0900 611.0000 1.0000
29.1000 614.0000 1.0000
29.1100 571.0000 1.0000
29.1200 594.0000 1.0000
29.1300 632.0000 1.0000
29.1400 615.0000 1.0000
29.1500 574.0000 1.0000
29.1600 637.0000 1.0000
29.1700 637.0000 1.0000
29.1800 659.0000 1.0000
29.1900 595.0000 1.0000
29.2000 609.0000 1.0000
29.2100 584.0000 1.0000
29.2200 578.0000 1.0000
29.2300 593.0000 1.0000
29.2400 625.0000 1.0000
29.2500 615.0000 1.0000
29.2600 621.0000 1.0000
29.2700 598.0000 1.0000
29.2800 643.0000 1.0000
29.2900 619.0000 1.0000
29.3000 581.0000 1.0000
29.3100 609.0000 1.0000
29.3200 590.0000 1.0000
29.3300 587.0000 1.0000
29.3400 567.0000 1.0000
29.3500 594.0000 1.0000
29.3600 634.0000 1.0000
29.3700 620.0000 1.0000
29.3800 590.0000 1.0000
29.3900 591.0000 1.0000
29.4000 573.0000 1.0000
29.4100 581.0000 1.0000
29.4200 605.0000 1.0000
29.4300 625.0000 1.0000
29.4400 599.0000 1.0000
29.4500 601.0000 1.0000
29.4600 597.0000 1.0000
29.4700 566.0000 1.0000
29.4800 621.0000 1.0000
29.4900 627.0000 1.0000
29.5000 621.0000 1.0000
29.5100 625.0000 1.0000
29.5200 591.0000 1.0000
29.5300 610.0000 1.0000
29.5400 602.0000 1.0000
29.5500 601.0000 1.0000
29.5600 589.0000 1.0000
29.5700 611.0000 1.0000
29.5800 579.0000 1.0000
29.5900 609.0000 1.0000
29.6000 589.0000 1.0000
29.6100 593.0000 1.0000
29.6200 587.0000 1.0000
29.6300 637.0000 1.0000
29.6400 565.0000 1.0000
29.6500 637.0000 1.0000
29.6600 622.0000 1.0000
29.6700 623.0000 1.0000
29.6800 619.0000 1.0000
29.6900 607.0000 1.0000
29.7000 608.0000 1.0000
29.7100 618.0000 1.0000
29.7200 603.0000 1.0000
29.7300 621.0000 1.0000
29.7400 593.0000 1.0000
29.7500 584.0000 1.0000
29.7600 592.0000 1.0000
29.7700 618.0000 1.0000
29.7800 594.0000 1.0000
29.7900 631.0000 1.0000
29.8000 608.0000 1.0000
29.8100 607.0000 1.0000
29.8200 595.0000 1.0000
29.8300 574.0000 1.0000
29.8400 548.0000 1.0000
29.8500 580.0000 1.0000
29.8600 594.0000 1.0000
29.8700 582.0000 1.0000
29.8800 556.0000 1.0000
29.8900 594.0000 1.0000
29.9000 583.0000 1.0000
29.9100 564.0000 1.0000
29.9200 555.0000 1.0000
29.9300 578.0000 1.0000
29.9400 579.0000 1.0000
29.9500 601.0000 1.0000
29.9600 578.0000 1.0000
29.9700 601.0000 1.0000
29.9800 593.0000 1.0000
29.9900 572.0000 1.0000
30.0000 557.0000 1.0000
30.0100 555.0000 1.0000
30.0200 596.0000 1.0000
30.0300 594.0000 1.0000
30.0400 594.0000 1.0000
30.0500 613.0000 1.0000
30.0600 604.0000 1.0000
30.0700 551.0000 1.0000
30.0800 612.0000 1.0000
30.0900 613.0000 1.0000
30.1000 563.0000 1.0000
30.1100 585.0000 1.0000
30.1200 583.0000 1.0000
30.1300 582.0000 1.0000
30.1400 605.0000 1.0000
30.1500 546.0000 1.0000
30.1600 574.0000 1.0000
30.1700 580.0000 1.0000
30.1800 588.0000 1.0000
30.1900 580.0000 1.0000
30.2000 587.0000 1.0000
30.2100 566.0000 1.0000
30.2200 589.0000 1.0000
30.2300 554.0000 1.0000
30.2400 596.0000 1.0000
30.2500 586.0000 1.0000
30.2600 615.0000 1.0000
30.2700 605.0000 1.0000
30.2800 641.0000 1.0000
30.2900 620.0000 1.0000
30.3000 584.0000 1.0000
30.3100 616.0000 1.0000
30.3200 649.0000 1.0000
30.3300 595.0000 1.0000
30.3400 574.0000 1.0000
30.3500 580.0000 1.0000
30.3600 557.0000 1.0000
30.3700 571.0000 1.0000
30.3800 592.0000 1.0000
30.3900 579.0000 1.0000
30.4000 569.0000 1.0000
30.4100 578.0000 1.0000
30.4200 600.0000 1.0000
30.4300 551.0000 1.0000
30.4400 558.0000 1.0000
30.4500 578.0000 1.0000
30.4600 581.0000 1.0000
30.4700 569.0000 1.0000
30.4800 542.0000 1.0000
30.4900 575.0000 1.0000
30.5000 545.0000 1.0000
30.5100 593.0000 1.0000
30.5200 620.0000 1.0000
30.5300 551.0000 1.0000
30.5400 565.0000 1.0000
30.5500 606.0000 1.0000
30.5600 594.0000 1.0000
30.5700 598.0000 1.0000
30.5800 562.0000 1.0000
30.5900 575.0000 1.0000
30.6000 603.0000 1.0000
30.6100 570.0000 1.0000
30.6200 545.0000 1.0000
30.6300 577.0000 1.0000
30.6400 619.0000 1.0000
30.6500 586.0000 1.0000
30.6600 611.0000 1.0000
30.6700 578.0000 1.0000
30.6800 591.0000 1.0000
30.6900 580.0000 1.0000
30.7000 599.0000 1.0000
30.7100 530.0000 1.0000
30.7200 557.0000 1.0000
30.7300 566.0000 1.0000
30.7400 560.0000 1.0000
30.7500 601.0000 1.0000
30.7600 570.0000 1.0000
30.7700 551.0000 1.0000
30.7800 571.0000 1.0000
30.7900 549.0000 1.0000
30.8000 521.0000 1.0000
30.8100 580.0000 1.0000
30.8200 575.0000 1.0000
30.8300 568.0000 1.0000
30.8400 558.0000 1.0000
30.8500 603.0000 1.0000
30.8600 569.0000 1.0000
30.8700 573.0000 1.0000
30.8800 571.0000 1.0000
30.8900 575.0000 1.0000
30.9000 586.0000 1.0000
30.9100 545.0000 1.0000
30.9200 573.0000 1.0000
30.9300 558.0000 1.0000
30.9400 565.0000 1.0000
30.9500 567.0000 1.0000
30.9600 540.0000 1.0000
30.9700 562.0000 1.0000
30.9800 562.0000 1.0000
30.9900 581.0000 1.0000
31.0000 555.0000 1.0000
31.0100 542.0000 1.0000
31.0200 569.0000 1.0000
31.0300 557.0000 1.0000
31.0400 594.0000 1.0000
31.0500 587.0000 1.0000
31.0600 619.0000 1.0000
31.0700 584.0000 1.0000
31.0800 601.0000 1.0000
31.0900 584.0000 1.0000
31.1000 587.0000 1.0000
31.1100 595.0000 1.0000
31.1200 606.0000 1.0000
31.1300 617.0000 1.0000
31.1400 599.0000 1.0000
31.1500 583.0000 1.0000
31.1600 582.0000 1.0000
31.1700 608.0000 1.0000
31.1800 554.0000 1.0000
31.1900 596.0000 1.0000
31.2000 596.0000 1.0000
31.2100 583.0000 1.0000
31.2200 569.0000 1.0000
31.2300 544.0000 1.0000
31.2400 539.0000 1.0000
31.2500 538.0000 1.0000
31.2600 568.0000 1.0000
31.2700 556.0000 1.0000
31.2800 602.0000 1.0000
31.2900 580.0000 1.0000
31.3000 584.0000 1.0000
31.3100 603.0000 1.0000
31.3200 552.0000 1.0000
31.3300 597.0000 1.0000
31.3400 587.0000 1.0000
31.3500 607.0000 1.0000
31.3600 555.0000 1.0000
31.3700 587.0000 1.0000
31.3800 599.0000 1.0000
31.3900 559.0000 1.0000
31.4000 581.0000 1.0000
31.4100 601.0000 1.0000
31.4200 577.0000 1.0000
31.4300 532.0000 1.0000
31.4400 575.0000 1.0000
31.4500 610.0000 1.0000
31.4600 614.0000 1.0000
31.4700 591.0000 1.0000
31.4800 571.0000 1.0000
31.4900 545.0000 1.0000
31.5000 566.0000 1.0000
31.5100 597.0000 1.0000
31.5200 552.0000 1.0000
31.5300 606.0000 1.0000
31.5400 553.0000 1.0000
31.5500 606.0000 1.0000
31.5600 564.0000 1.0000
31.5700 544.0000 1.0000
31.5800 565.0000 1.0000
31.5900 585.0000 1.0000
31.6000 582.0000 1.0000
31.6100 564.0000 1.0000
31.6200 549.0000 1.0000
31.6300 572.0000 1.0000
31.6400 586.0000 1.0000
31.6500 558.0000 1.0000
31.6600 587.0000 1.0000
31.6700 582.0000 1.0000
31.6800 578.0000 1.0000
31.6900 557.0000 1.0000
31.7000 563.0000 1.0000
31.7100 536.0000 1.0000
31.7200 551.0000 1.0000
31.7300 524.0000 1.0000
31.7400 567.0000 1.0000
31.7500 590.0000 1.0000
31.7600 607.0000 1.0000
31.7700 565.0000 1.0000
31.7800 578.0000 1.0000
31.7900 554.0000 1.0000
31.8000 583.0000 1.0000
31.8100 584.0000 1.0000
31.8200 560.0000 1.0000
31.8300 537.0000 1.0000
31.8400 517.0000 1.0000
31.8500 532.0000 1.0000
31.8600 568.0000 1.0000
31.8700 616.0000 1.0000
31.8800 564.0000 1.0000
31.8900 584.0000 1.0000
31.9000 536.0000 1.0000
31.9100 515.0000 1.0000
31.9200 553.0000 1.0000
31.9300 517.0000 1.0000
31.9400 518.0000 1.0000
31.9500 542.0000 1.0000
31.9600 533.0000 1.0000
31.9700 550.0000 1.0000
31.9800 556.0000 1.0000
31.9900 558.0000 1.0000
32.0000 585.0000 1.0000
32.0100 543.0000 1.0000
32.0200 544.0000 1.0000
32.0300 524.0000 1.0000
32.0400 551.0000 1.0000
32.0500 547.0000 1.0000
32.0600 537.0000 1.0000
32.0700 580.0000 1.0000
32.0800 544.0000 1.0000
32.0900 555.0000 1.0000
32.1000 547.0000 1.0000
32.1100 579.0000 1.0000
32.1200 555.0000 1.0000
32.1300 593.0000 1.0000
32.1400 544.0000 1.0000
32.1500 552.0000 1.0000
32.1600 543.0000 1.0000
32.1700 523.0000 1.0000
32.1800 547.0000 1.0000
32.1900 532.0000 1.0000
32.2000 530.0000 1.0000
32.2100 518.0000 1.0000
32.2200 511.0000 1.0000
32.2300 537.0000 1.0000
32.2400 596.0000 1.0000
32.2500 525.0000 1.0000
32.2600 535.0000 1.0000
32.2700 513.0000 1.0000
32.2800 516.0000 1.0000
32.2900 556.0000 1.0000
32.3000 575.0000 1.0000
32.3100 558.0000 1.0000
32.3200 515.0000 1.0000
32.3300 519.0000 1.0000
32.3400 525.0000 1.0000
32.3500 544.0000 1.0000
32.3600 520.0000 1.0000
32.3700 533.0000 1.0000
32.3800 547.0000 1.0000
32.3900 521.0000 1.0000
32.4000 574.0000 1.0000
32.4100 539.0000 1.0000
32.4200 540.0000 1.0000
32.4300 562.0000 1.0000
32.4400 521.0000 1.0000
32.4500 522.0000 1.0000
32.4600 596.0000 1.0000
32.4700 545.0000 1.0000
32.4800 506.0000 1.0000
32.4900 498.0000 1.0000
32.5000 525.0000 1.0000
32.5100 550.0000 1.0000
32.5200 522.0000 1.0000
32.5300 549.0000 1.0000
32.5400 526.0000 1.0000
32.5500 531.0000 1.0000
32.5600 575.0000 1.0000
32.5700 551.0000 1.0000
32.5800 531.0000 1.0000
32.5900 523.0000 1.0000
32.6000 541.0000 1.0000
32.6100 555.0000 1.0000
32.6200 519.0000 1.0000
32.6300 568.0000 1.0000
32.6400 529.0000 1.0000
32.6500 511.0000 1.0000
32.6600 547.0000 1.0000
32.6700 564.0000 1.0000
32.6800 553.0000 1.0000
32.6900 531.0000 1.0000
32.7000 522.0000 1.0000
32.7100 565.0000 1.0000
32.7200 548.0000 1.0000
32.7300 528.0000 1.0000
32.7400 499.0000 1.0000
32.7500 554.0000 1.0000
32.7600 565.0000 1.0000
32.7700 568.0000 1.0000
32.7800 527.0000 1.0000
32.7900 549.0000 1.0000
32.8000 555.0000 1.0000
32.8100 550.0000 1.0000
32.8200 535.0000 1.0000
32.8300 596.0000 1.0000
32.8400 561.0000 1.0000
32.8500 601.0000 1.0000
32.8600 567.0000 1.0000
32.8700 551.0000 1.0000
32.8800 607.0000 1.0000
32.8900 564.0000 1.0000
32.9000 624.0000 1.0000
32.9100 592.0000 1.0000
32.9200 608.0000 1.0000
32.9300 612.0000 1.0000
32.9400 571.0000 1.0000
32.9500 637.0000 1.0000
32.9600 621.0000 1.0000
32.9700 588.0000 1.0000
32.9800 623.0000 1.0000
32.9900 622.0000 1.0000
33.0000 645.0000 1.0000
33.0100 668.0000 1.0000
33.0200 678.0000 1.0000
33.0300 674.0000 1.0000
33.0400 665.0000 1.0000
33.0500 724.0000 1.0000
33.0600 758.0000 1.0000
33.0700 723.0000 1.0000
33.0800 735.0000 1.0000
33.0900 756.0000 1.0000
33.1000 725.0000 1.0000
33.1100 749.0000 1.0000
33.1200 708.0000 1.0000
33.1300 773.0000 1.0000
33.1400 733.0000 1.0000
33.1500 724.0000 1.0000
33.1600 689.0000 1.0000
33.1700 682.0000 1.0000
33.1800 684.0000 1.0000
33.1900 690.0000 1.0000
33.2000 691.0000 1.0000
33.2100 695.0000 1.0000
33.2200 677.0000 1.0000
33.2300 678.0000 1.0000
33.2400 677.0000 1.0000
33.2500 634.0000 1.0000
33.2600 612.0000 1.0000
33.2700 540.0000 1.0000
33.2800 611.0000 1.0000
33.2900 612.0000 1.0000
33.3000 622.0000 1.0000
33.3100 594.0000 1.0000
33.3200 568.0000 1.0000
33.3300 565.0000 1.0000
33.3400 576.0000 1.0000
33.3500 587.0000 1.0000
33.3600 573.0000 1.0000
33.3700 600.0000 1.0000
33.3800 584.0000 1.0000
33.3900 572.0000 1.0000
33.4000 576.0000 1.0000
33.4100 600.0000 1.0000
33.4200 634.0000 1.0000
33.4300 614.0000 1.0000
33.4400 594.0000 1.0000
33.4500 598.0000 1.0000
33.4600 601.0000 1.0000
33.4700 621.0000 1.0000
33.4800 636.0000 1.0000
33.4900 621.0000 1.0000
33.5000 616.0000 1.0000
33.5100 662.0000 1.0000
33.5200 663.0000 1.0000
33.5300 622.0000 1.0000
33.5400 637.0000 1.0000
33.5500 646.0000 1.0000
33.5600 651.0000 1.0000
33.5700 678.0000 1.0000
33.5800 667.0000 1.0000
33.5900 665.0000 1.0000
33.6000 678.0000 1.0000
33.6100 681.0000 1.0000
33.6200 695.0000 1.0000
33.6300 669.0000 1.0000
33.6400 661.0000 1.0000
33.6500 672.0000 1.0000
33.6600 675.0000 1.0000
33.6700 695.0000 1.0000
33.6800 668.0000 1.0000
33.6900 685.0000 1.0000
33.7000 704.0000 1.0000
33.7100 682.0000 1.0000
33.7200 649.0000 1.0000
33.7300 692.0000 1.0000
33.7400 710.0000 1.0000
33.7500 686.0000 1.0000
33.7600 633.0000 1.0000
33.7700 637.0000 1.0000
33.7800 634.0000 1.0000
33.7900 592.0000 1.0000
33.8000 644.0000 1.0000
33.8100 633.0000 1.0000
33.8200 611.0000 1.0000
33.8300 634.0000 1.0000
33.8400 644.0000 1.0000
33.8500 630.0000 1.0000
33.8600 617.0000 1.0000
33.8700 589.0000 1.0000
33.8800 547.0000 1.0000
33.8900 602.0000 1.0000
33.9000 567.0000 1.0000
33.9100 598.0000 1.0000
33.9200 599.0000 1.0000
33.9300 573.0000 1.0000
33.9400 609.0000 1.0000
33.9500 594.0000 1.0000
33.9600 550.0000 1.0000
33.9700 601.0000 1.0000
33.9800 572.0000 1.0000
33.9900 564.0000 1.0000
34.0000 548.0000 1.0000
34.0100 569.0000 1.0000
34.0200 588.0000 1.0000
34.0300 526.0000 1.0000
34.0400 539.0000 1.0000
34.0500 563.0000 1.0000
34.0600 547.0000 1.0000
34.0700 551.0000 1.0000
34.0800 533.0000 1.0000
34.0900 532.0000 1.0000
34.1000 527.0000 1.0000
34.1100 550.0000 1.0000
34.1200 515.0000 1.0000
34.1300 523.0000 1.0000
34.1400 537.0000 1.0000
34.1500 528.0000 1.0000
34.1600 514.0000 1.0000
34.1700 532.0000 1.0000
34.1800 495.0000 1.0000
34.1900 540.0000 1.0000
34.2000 516.0000 1.0000
34.2100 519.0000 1.0000
34.2200 499.0000 1.0000
34.2300 554.0000 1.0000
34.2400 508.0000 1.0000
34.2500 523.0000 1.0000
34.2600 511.0000 1.0000
34.2700 517.0000 1.0000
34.2800 499.0000 1.0000
34.2900 479.0000 1.0000
34.3000 482.0000 1.0000
34.3100 538.0000 1.0000
34.3200 461.0000 1.0000
34.3300 516.0000 1.0000
34.3400 485.0000 1.0000
34.3500 543.0000 1.0000
34.3600 498.0000 1.0000
34.3700 504.0000 1.0000
34.3800 519.0000 1.0000
34.3900 469.0000 1.0000
34.4000 512.0000 1.0000
34.4100 507.0000 1.0000
34.4200 503.0000 1.0000
34.4300 494.0000 1.0000
34.4400 491.0000 1.0000
34.4500 486.0000 1.0000
34.4600 492.0000 1.0000
34.4700 486.0000 1.0000
34.4800 450.0000 1.0000
34.4900 467.0000 1.0000
34.5000 465.0000 1.0000
34.5100 475.0000 1.0000
34.5200 468.0000 1.0000
34.5300 504.0000 1.0000
34.5400 524.0000 1.0000
34.5500 496.0000 1.0000
34.5600 517.0000 1.0000
34.5700 480.0000 1.0000
34.5800 492.0000 1.0000
34.5900 500.0000 1.0000
34.6000 493.0000 1.0000
34.6100 477.0000 1.0000
34.6200 508.0000 1.0000
34.6300 482.0000 1.0000
34.6400 454.0000 1.0000
34.6500 501.0000 1.0000
34.6600 498.0000 1.0000
34.6700 478.0000 1.0000
34.6800 464.0000 1.0000
34.6900 483.0000 1.0000
34.7000 441.0000 1.0000
34.7100 515.0000 1.0000
34.7200 484.0000 1.0000
34.7300 459.0000 1.0000
34.7400 467.0000 1.0000
34.7500 469.0000 1.0000
34.7600 464.0000 1.0000
34.7700 465.0000 1.0000
34.7800 456.0000 1.0000
34.7900 483.0000 1.0000
34.8000 495.0000 1.0000
34.8100 479.0000 1.0000
34.8200 465.0000 1.0000
34.8300 453.0000 1.0000
34.8400 483.0000 1.0000
34.8500 525.0000 1.0000
34.8600 474.0000 1.0000
34.8700 463.0000 1.0000
34.8800 460.0000 1.0000
34.8900 474.0000 1.0000
34.9000 486.0000 1.0000
34.9100 498.0000 1.0000
34.9200 497.0000 1.0000
34.9300 512.0000 1.0000
34.9400 499.0000 1.0000
34.9500 531.0000 1.0000
34.9600 487.0000 1.0000
34.9700 460.0000 1.0000
34.9800 465.0000 1.0000
34.9900 459.0000 1.0000
35.0000 463.0000 1.0000
35.0100 459.0000 1.0000
35.0200 473.0000 1.0000
35.0300 481.0000 1.0000
35.0400 482.0000 1.0000
35.0500 481.0000 1.0000
35.0600 499.0000 1.0000
35.0700 495.0000 1.0000
35.0800 473.0000 1.0000
35.0900 457.0000 1.0000
35.1000 445.0000 1.0000
35.1100 485.0000 1.0000
35.1200 470.0000 1.0000
35.1300 480.0000 1.0000
35.1400 469.0000 1.0000
35.1500 514.0000 1.0000
35.1600 501.0000 1.0000
35.1700 501.0000 1.0000
35.1800 470.0000 1.0000
35.1900 537.0000 1.0000
35.2000 512.0000 1.0000
35.2100 486.0000 1.0000
35.2200 529.0000 1.0000
35.2300 496.0000 1.0000
35.2400 513.0000 1.0000
35.2500 509.0000 1.0000
35.2600 504.0000 1.0000
35.2700 508.0000 1.0000
35.2800 529.0000 1.0000
35.2900 492.0000 1.0000
35.3000 510.0000 1.0000
35.3100 516.0000 1.0000
35.3200 572.0000 1.0000
35.3300 558.0000 1.0000
35.3400 579.0000 1.0000
35.3500 591.0000 1.0000
35.3600 616.0000 1.0000
35.3700 607.0000 1.0000
35.3800 583.0000 1.0000
35.3900 617.0000 1.0000
35.4000 651.0000 1.0000
35.4100 652.0000 1.0000
35.4200 688.0000 1.0000
35.4300 685.0000 1.0000
35.4400 744.0000 1.0000
35.4500 742.0000 1.0000
35.4600 764.0000 1.0000
35.4700 825.0000 1.0000
35.4800 813.0000 1.0000
35.4900 860.0000 1.0000
35.5000 963.0000 1.0000
35.5100 1014.0000 1.0000
35.5200 1021.0000 1.0000
35.5300 1034.0000 1.0000
35.5400 1059.0000 1.0000
35.5500 1076.0000 1.0000
35.5600 1102.0000 1.0000
35.5700 1099.0000 1.0000
35.5800 1095.0000 1.0000
35.5900 1116.0000 1.0000
35.6000 1083.0000 1.0000
35.6100 1108.0000 1.0000
35.6200 1023.0000 1.0000
35.6300 1035.0000 1.0000
35.6400 1001.0000 1.0000
35.6500 914.0000 1.0000
35.6600 934.0000 1.0000
35.6700 954.0000 1.0000
35.6800 883.0000 1.0000
35.6900 861.0000 1.0000
35.7000 840.0000 1.0000
35.7100 718.0000 1.0000
35.7200 769.0000 1.0000
35.7300 704.0000 1.0000
35.7400 687.0000 1.0000
35.7500 667.0000 1.0000
35.7600 612.0000 1.0000
35.7700 624.0000 1.0000
35.7800 603.0000 1.0000
35.7900 553.0000 1.0000
35.8000 585.0000 1.0000
35.8100 600.0000 1.0000
35.8200 576.0000 1.0000
35.8300 544.0000 1.0000
35.8400 540.0000 1.0000
35.8500 487.0000 1.0000
35.8600 513.0000 1.0000
35.8700 471.0000 1.0000
35.8800 505.0000 1.0000
35.8900 498.0000 1.0000
35.9000 507.0000 1.0000
35.9100 476.0000 1.0000
35.9200 467.0000 1.0000
35.9300 452.0000 1.0000
35.9400 489.0000 1.0000
35.9500 463.0000 1.0000
35.9600 476.0000 1.0000
35.9700 466.0000 1.0000
35.9800 482.0000 1.0000
35.9900 479.0000 1.0000
36.0000 443.0000 1.0000
36.0100 447.0000 1.0000
36.0200 465.0000 1.0000
36.0300 460.0000 1.0000
36.0400 452.0000 1.0000
36.0500 448.0000 1.0000
36.0600 441.0000 1.0000
36.0700 450.0000 1.0000
36.0800 439.0000 1.0000
36.0900 457.0000 1.0000
36.1000 431.0000 1.0000
36.1100 470.0000 1.0000
36.1200 500.0000 1.0000
36.1300 481.0000 1.0000
36.1400 453.0000 1.0000
36.1500 441.0000 1.0000
36.1600 437.0000 1.0000
36.1700 454.0000 1.0000
36.1800 474.0000 1.0000
36.1900 479.0000 1.0000
36.2000 450.0000 1.0000
36.2100 456.0000 1.0000
36.2200 443.0000 1.0000
36.2300 428.0000 1.0000
36.2400 443.0000 1.0000
36.2500 451.0000 1.0000
36.2600 450.0000 1.0000
36.2700 431.0000 1.0000
36.2800 439.0000 1.0000
36.2900 441.0000 1.0000
36.3000 460.0000 1.0000
36.3100 445.0000 1.0000
36.3200 460.0000 1.0000
36.3300 499.0000 1.0000
36.3400 466.0000 1.0000
36.3500 435.0000 1.0000
36.3600 447.0000 1.0000
36.3700 431.0000 1.0000
36.3800 442.0000 1.0000
36.3900 460.0000 1.0000
36.4000 471.0000 1.0000
36.4100 437.0000 1.0000
36.4200 455.0000 1.0000
36.4300 459.0000 1.0000
36.4400 492.0000 1.0000
36.4500 486.0000 1.0000
36.4600 464.0000 1.0000
36.4700 465.0000 1.0000
36.4800 445.0000 1.0000
36.4900 447.0000 1.0000
36.5000 444.0000 1.0000
36.5100 429.0000 1.0000
36.5200 460.0000 1.0000
36.5300 432.0000 1.0000
36.5400 434.0000 1.0000
36.5500 425.0000 1.0000
36.5600 451.0000 1.0000
36.5700 434.0000 1.0000
36.5800 450.0000 1.0000
36.5900 447.0000 1.0000
36.6000 469.0000 1.0000
36.6100 414.0000 1.0000
36.6200 485.0000 1.0000
36.6300 453.0000 1.0000
36.6400 452.0000 1.0000
36.6500 459.0000 1.0000
36.6600 465.0000 1.0000
36.6700 472.0000 1.0000
36.6800 447.0000 1.0000
36.6900 446.0000 1.0000
36.7000 444.0000 1.0000
36.7100 423.0000 1.0000
36.7200 438.0000 1.0000
36.7300 457.0000 1.0000
36.7400 478.0000 1.0000
36.7500 446.0000 1.0000
36.7600 430.0000 1.0000
36.7700 438.0000 1.0000
36.7800 434.0000 1.0000
36.7900 429.0000 1.0000
36.8000 457.0000 1.0000
36.8100 431.0000 1.0000
36.8200 444.0000 1.0000
36.8300 443.0000 1.0000
36.8400 450.0000 1.0000
36.8500 452.0000 1.0000
36.8600 426.0000 1.0000
36.8700 452.0000 1.0000
36.8800 456.0000 1.0000
36.8900 412.0000 1.0000
36.9000 467.0000 1.0000
36.9100 462.0000 1.0000
36.9200 443.0000 1.0000
36.9300 465.0000 1.0000
36.9400 455.0000 1.0000
36.9500 414.0000 1.0000
36.9600 415.0000 1.0000
36.9700 462.0000 1.0000
36.9800 447.0000 1.0000
36.9900 450.0000 1.0000
37.0000 446.0000 1.0000
37.0100 473.0000 1.0000
37.0200 469.0000 1.0000
37.0300 499.0000 1.0000
37.0400 483.0000 1.0000
37.0500 448.0000 1.0000
37.0600 474.0000 1.0000
37.0700 441.0000 1.0000
37.0800 472.0000 1.0000
37.0900 480.0000 1.0000
37.1000 485.0000 1.0000
37.1100 448.0000 1.0000
37.1200 492.0000 1.0000
37.1300 482.0000 1.0000
37.1400 519.0000 1.0000
37.1500 475.0000 1.0000
37.1600 513.0000 1.0000
37.1700 507.0000 1.0000
37.1800 493.0000 1.0000
37.1900 489.0000 1.0000
37.2000 509.0000 1.0000
37.2100 525.0000 1.0000
37.2200 498.0000 1.0000
37.2300 523.0000 1.0000
37.2400 499.0000 1.0000
37.2500 526.0000 1.0000
37.2600 502.0000 1.0000
37.2700 524.0000 1.0000
37.2800 534.0000 1.0000
37.2900 522.0000 1.0000
37.3000 515.0000 1.0000
37.3100 543.0000 1.0000
37.3200 530.0000 1.0000
37.3300 589.0000 1.0000
37.3400 570.0000 1.0000
37.3500 603.0000 1.0000
37.3600 627.0000 1.0000
37.3700 625.0000 1.0000
37.3800 672.0000 1.0000
37.3900 635.0000 1.0000
37.4000 642.0000 1.0000
37.4100 652.0000 1.0000
37.4200 710.0000 1.0000
37.4300 731.0000 1.0000
37.4400 717.0000 1.0000
37.4500 779.0000 1.0000
37.4600 819.0000 1.0000
37.4700 841.0000 1.0000
37.4800 838.0000 1.0000
37.4900 903.0000 1.0000
37.5000 971.0000 1.0000
37.5100 1002.0000 1.0000
37.5200 981.0000 1.0000
37.5300 1052.0000 1.0000
37.5400 1189.0000 1.0000
37.5500 1197.0000 1.0000
37.5600 1226.0000 1.0000
37.5700 1312.0000 1.0000
37.5800 1322.0000 1.0000
37.5900 1581.0000 1.0000
37.6000 1659.0000 1.0000
37.6100 1704.0000 1.0000
37.6200 1789.0000 1.0000
37.6300 1917.0000 1.0000
37.6400 1960.0000 1.0000
37.6500 2142.0000 1.0000
37.6600 2251.0000 1.0000
37.6700 2429.0000 1.0000
37.6800 2505.0000 1.0000
37.6900 2525.0000 1.0000
37.7000 2595.0000 1.0000
37.7100 2749.0000 1.0000
37.7200 2769.0000 1.0000
37.7300 2787.0000 1.0000
37.7400 2839.0000 1.0000
37.7500 2816.0000 1.0000
37.7600 2824.0000 1.0000
37.7700 2708.0000 1.0000
37.7800 2591.0000 1.0000
37.7900 2589.0000 1.0000
37.8000 2527.0000 1.0000
37.8100 2356.0000 1.0000
37.8200 2290.0000 1.0000
37.8300 2261.0000 1.0000
37.8400 2165.0000 1.0000
37.8500 2038.0000 1.0000
37.8600 1951.0000 1.0000
37.8700 1770.0000 1.0000
37.8800 1683.0000 1.0000
37.8900 1556.0000 1.0000
37.9000 1432.0000 1.0000
37.9100 1421.0000 1.0000
37.9200 1313.0000 1.0000
37.9300 1269.0000 1.0000
37.9400 1147.0000 1.0000
37.9500 1091.0000 1.0000
37.9600 1011.0000 1.0000
37.9700 902.0000 1.0000
37.9800 892.0000 1.0000
37.9900 891.0000 1.0000
38.0000 804.0000 1.0000
38.0100 748.0000 1.0000
38.0200 788.0000 1.0000
38.0300 766.0000 1.0000
38.0400 762.0000 1.0000
38.0500 668.0000 1.0000
38.0600 664.0000 1.0000
38.0700 678.0000 1.0000
38.0800 641.0000 1.0000
38.0900 617.0000 1.0000
38.1000 601.0000 1.0000
38.1100 609.0000 1.0000
38.1200 557.0000 1.0000
38.1300 568.0000 1.0000
38.1400 584.0000 1.0000
38.1500 566.0000 1.0000
38.1600 521.0000 1.0000
38.1700 537.0000 1.0000
38.1800 528.0000 1.0000
38.1900 516.0000 1.0000
38.2000 522.0000 1.0000
38.2100 522.0000 1.0000
38.2200 482.0000 1.0000
38.2300 443.0000 1.0000
38.2400 470.0000 1.0000
38.2500 480.0000 1.0000
38.2600 483.0000 1.0000
38.2700 484.0000 1.0000
38.2800 499.0000 1.0000
38.2900 471.0000 1.0000
38.3000 430.0000 1.0000
38.3100 470.0000 1.0000
38.3200 462.0000 1.0000
38.3300 434.0000 1.0000
38.3400 472.0000 1.0000
38.3500 452.0000 1.0000
38.3600 434.0000 1.0000
38.3700 421.0000 1.0000
38.3800 452.0000 1.0000
38.3900 423.0000 1.0000
38.4000 408.0000 1.0000
38.4100 411.0000 1.0000
38.4200 407.0000 1.0000
38.4300 411.0000 1.0000
38.4400 434.0000 1.0000
38.4500 401.0000 1.0000
38.4600 426.0000 1.0000
38.4700 437.0000 1.0000
38.4800 461.0000 1.0000
38.4900 427.0000 1.0000
38.5000 416.0000 1.0000
38.5100 425.0000 1.0000
38.5200 417.0000 1.0000
38.5300 403.0000 1.0000
38.5400 414.0000 1.0000
38.5500 409.0000 1.0000
38.5600 407.0000 1.0000
38.5700 406.0000 1.0000
38.5800 399.0000 1.0000
38.5900 417.0000 1.0000
38.6000 417.0000 1.0000
38.6100 415.0000 1.0000
38.6200 419.0000 1.0000
38.6300 417.0000 1.0000
38.6400 372.0000 1.0000
38.6500 421.0000 1.0000
38.6600 411.0000 1.0000
38.6700 418.0000 1.0000
38.6800 390.0000 1.0000
38.6900 422.0000 1.0000
38.7000 435.0000 1.0000
38.7100 402.0000 1.0000
38.7200 401.0000 1.0000
38.7300 424.0000 1.0000
38.7400 391.0000 1.0000
38.7500 411.0000 1.0000
38.7600 427.0000 1.0000
38.7700 447.0000 1.0000
38.7800 387.0000 1.0000
38.7900 411.0000 1.0000
38.8000 395.0000 1.0000
38.8100 405.0000 1.0000
38.8200 376.0000 1.0000
38.8300 413.0000 1.0000
38.8400 440.0000 1.0000
38.8500 426.0000 1.0000
38.8600 417.0000 1.0000
38.8700 388.0000 1.0000
38.8800 419.0000 1.0000
38.8900 368.0000 1.0000
38.9000 398.0000 1.0000
38.9100 417.0000 1.0000
38.9200 399.0000 1.0000
38.9300 409.0000 1.0000
38.9400 410.0000 1.0000
38.9500 390.0000 1.0000
38.9600 390.0000 1.0000
38.9700 408.0000 1.0000
38.9800 400.0000 1.0000
38.9900 399.0000 1.0000
39.0000 396.0000 1.0000
39.0100 380.0000 1.0000
39.0200 380.0000 1.0000
39.0300 382.0000 1.0000
39.0400 431.0000 1.0000
39.0500 435.0000 1.0000
39.0600 384.0000 1.0000
39.0700 382.0000 1.0000
39.0800 382.0000 1.0000
39.0900 421.0000 1.0000
39.1000 400.0000 1.0000
39.1100 391.0000 1.0000
39.1200 410.0000 1.0000
39.1300 381.0000 1.0000
39.1400 362.0000 1.0000
39.1500 389.0000 1.0000
39.1600 385.0000 1.0000
39.1700 396.0000 1.0000
39.1800 397.0000 1.0000
39.1900 410.0000 1.0000
39.2000 369.0000 1.0000
39.2100 380.0000 1.0000
39.2200 387.0000 1.0000
39.2300 376.0000 1.0000
39.2400 379.0000 1.0000
39.2500 375.0000 1.0000
39.2600 399.0000 1.0000
39.2700 385.0000 1.0000
39.2800 405.0000 1.0000
39.2900 374.0000 1.0000
39.3000 396.0000 1.0000
39.3100 400.0000 1.0000
39.3200 420.0000 1.0000
39.3300 374.0000 1.0000
39.3400 369.0000 1.0000
39.3500 412.0000 1.0000
39.3600 405.0000 1.0000
39.3700 399.0000 1.0000
39.3800 396.0000 1.0000
39.3900 363.0000 1.0000
39.4000 397.0000 1.0000
39.4100 397.0000 1.0000
39.4200 388.0000 1.0000
39.4300 389.0000 1.0000
39.4400 373.0000 1.0000
39.4500 370.0000 1.0000
39.4600 400.0000 1.0000
39.4700 373.0000 1.0000
39.4800 379.0000 1.0000
39.4900 373.0000 1.0000
39.5000 395.0000 1.0000
39.5100 383.0000 1.0000
39.5200 400.0000 1.0000
39.5300 387.0000 1.0000
39.5400 361.0000 1.0000
39.5500 393.0000 1.0000
39.5600 363.0000 1.0000
39.5700 382.0000 1.0000
39.5800 343.0000 1.0000
39.5900 341.0000 1.0000
39.6000 405.0000 1.0000
39.6100 410.0000 1.0000
39.6200 393.0000 1.0000
39.6300 391.0000 1.0000
39.6400 373.0000 1.0000
39.6500 368.0000 1.0000
39.6600 364.0000 1.0000
39.6700 396.0000 1.0000
39.6800 389.0000 1.0000
39.6900 390.0000 1.0000
39.7000 368.0000 1.0000
39.7100 391.0000 1.0000
39.7200 371.0000 1.0000
39.7300 386.0000 1.0000
39.7400 394.0000 1.0000
39.7500 375.0000 1.0000
39.7600 371.0000 1.0000
39.7700 365.0000 1.0000
39.7800 371.0000 1.0000
39.7900 346.0000 1.0000
39.8000 390.0000 1.0000
39.8100 411.0000 1.0000
39.8200 388.0000 1.0000
39.8300 413.0000 1.0000
39.8400 358.0000 1.0000
39.8500 379.0000 1.0000
39.8600 376.0000 1.0000
39.8700 384.0000 1.0000
39.8800 395.0000 1.0000
39.8900 381.0000 1.0000
39.9000 379.0000 1.0000
39.9100 383.0000 1.0000
39.9200 343.0000 1.0000
39.9300 377.0000 1.0000
39.9400 397.0000 1.0000
39.9500 387.0000 1.0000
39.9600 353.0000 1.0000
39.9700 396.0000 1.0000
39.9800 369.0000 1.0000
39.9900 347.0000 1.0000
40.0000 345.0000 1.0000
40.0100 379.0000 1.0000
40.0200 382.0000 1.0000
40.0300 358.0000 1.0000
40.0400 373.0000 1.0000
40.0500 375.0000 1.0000
40.0600 369.0000 1.0000
40.0700 393.0000 1.0000
40.0800 384.0000 1.0000
40.0900 383.0000 1.0000
40.1000 375.0000 1.0000
40.1100 375.0000 1.0000
40.1200 373.0000 1.0000
40.1300 358.0000 1.0000
40.1400 375.0000 1.0000
40.1500 364.0000 1.0000
40.1600 359.0000 1.0000
40.1700 376.0000 1.0000
40.1800 385.0000 1.0000
40.1900 423.0000 1.0000
40.2000 334.0000 1.0000
40.2100 361.0000 1.0000
40.2200 353.0000 1.0000
40.2300 396.0000 1.0000
40.2400 371.0000 1.0000
40.2500 363.0000 1.0000
40.2600 372.0000 1.0000
40.2700 386.0000 1.0000
40.2800 379.0000 1.0000
40.2900 369.0000 1.0000
40.3000 383.0000 1.0000
40.3100 372.0000 1.0000
40.3200 345.0000 1.0000
40.3300 352.0000 1.0000
40.3400 364.0000 1.0000
40.3500 403.0000 1.0000
40.3600 380.0000 1.0000
40.3700 367.0000 1.0000
40.3800 379.0000 1.0000
40.3900 382.0000 1.0000
40.4000 390.0000 1.0000
40.4100 373.0000 1.0000
40.4200 344.0000 1.0000
40.4300 350.0000 1.0000
40.4400 348.0000 1.0000
40.4500 378.0000 1.0000
40.4600 381.0000 1.0000
40.4700 353.0000 1.0000
40.4800 384.0000 1.0000
40.4900 368.0000 1.0000
40.5000 372.0000 1.0000
40.5100 370.0000 1.0000
40.5200 382.0000 1.0000
40.5300 356.0000 1.0000
40.5400 375.0000 1.0000
40.5500 349.0000 1.0000
40.5600 368.0000 1.0000
40.5700 391.0000 1.0000
40.5800 359.0000 1.0000
40.5900 373.0000 1.0000
40.6000 365.0000 1.0000
40.6100 392.0000 1.0000
40.6200 415.0000 1.0000
40.6300 412.0000 1.0000
40.6400 405.0000 1.0000
40.6500 421.0000 1.0000
40.6600 373.0000 1.0000
40.6700 383.0000 1.0000
40.6800 391.0000 1.0000
40.6900 392.0000 1.0000
40.7000 434.0000 1.0000
40.7100 407.0000 1.0000
40.7200 402.0000 1.0000
40.7300 426.0000 1.0000
40.7400 436.0000 1.0000
40.7500 420.0000 1.0000
40.7600 427.0000 1.0000
40.7700 428.0000 1.0000
40.7800 413.0000 1.0000
40.7900 431.0000 1.0000
40.8000 455.0000 1.0000
40.8100 424.0000 1.0000
40.8200 409.0000 1.0000
40.8300 459.0000 1.0000
40.8400 429.0000 1.0000
40.8500 459.0000 1.0000
40.8600 435.0000 1.0000
40.8700 451.0000 1.0000
40.8800 408.0000 1.0000
40.8900 421.0000 1.0000
40.9000 435.0000 1.0000
40.9100 457.0000 1.0000
40.9200 400.0000 1.0000
40.9300 405.0000 1.0000
40.9400 395.0000 1.0000
40.9500 415.0000 1.0000
40.9600 419.0000 1.0000
40.9700 390.0000 1.0000
40.9800 399.0000 1.0000
40.9900 400.0000 1.0000
41.0000 385.0000 1.0000
41.0100 367.0000 1.0000
41.0200 361.0000 1.0000
41.0300 366.0000 1.0000
41.0400 354.0000 1.0000
41.0500 366.0000 1.0000
41.0600 372.0000 1.0000
41.0700 361.0000 1.0000
41.0800 374.0000 1.0000
41.0900 350.0000 1.0000
41.1000 368.0000 1.0000
41.1100 396.0000 1.0000
41.1200 386.0000 1.0000
41.1300 370.0000 1.0000
41.1400 370.0000 1.0000
41.1500 368.0000 1.0000
41.1600 354.0000 1.0000
41.1700 393.0000 1.0000
41.1800 365.0000 1.0000
41.1900 383.0000 1.0000
41.2000 328.0000 1.0000
41.2100 363.0000 1.0000
41.2200 348.0000 1.0000
41.2300 339.0000 1.0000
41.2400 374.0000 1.0000
41.2500 347.0000 1.0000
41.2600 376.0000 1.0000
41.2700 369.0000 1.0000
41.2800 352.0000 1.0000
41.2900 335.0000 1.0000
41.3000 374.0000 1.0000
41.3100 369.0000 1.0000
41.3200 364.0000 1.0000
41.3300 369.0000 1.0000
41.3400 398.0000 1.0000
41.3500 353.0000 1.0000
41.3600 325.0000 1.0000
41.3700 364.0000 1.0000
41.3800 326.0000 1.0000
41.3900 371.0000 1.0000
41.4000 348.0000 1.0000
41.4100 383.0000 1.0000
41.4200 382.0000 1.0000
41.4300 390.0000 1.0000
41.4400 405.0000 1.0000
41.4500 374.0000 1.0000
41.4600 366.0000 1.0000
41.4700 380.0000 1.0000
41.4800 353.0000 1.0000
41.4900 336.0000 1.0000
41.5000 333.0000 1.0000
41.5100 370.0000 1.0000
41.5200 350.0000 1.0000
41.5300 386.0000 1.0000
41.5400 389.0000 1.0000
41.5500 355.0000 1.0000
41.5600 385.0000 1.0000
41.5700 352.0000 1.0000
41.5800 388.0000 1.0000
41.5900 361.0000 1.0000
41.6000 344.0000 1.0000
41.6100 377.0000 1.0000
41.6200 366.0000 1.0000
41.6300 383.0000 1.0000
41.6400 368.0000 1.0000
41.6500 333.0000 1.0000
41.6600 346.0000 1.0000
41.6700 374.0000 1.0000
41.6800 372.0000 1.0000
41.6900 398.0000 1.0000
41.7000 376.0000 1.0000
41.7100 385.0000 1.0000
41.7200 343.0000 1.0000
41.7300 365.0000 1.0000
41.7400 377.0000 1.0000
41.7500 340.0000 1.0000
41.7600 351.0000 1.0000
41.7700 371.0000 1.0000
41.7800 375.0000 1.0000
41.7900 340.0000 1.0000
41.8000 350.0000 1.0000
41.8100 363.0000 1.0000
41.8200 354.0000 1.0000
41.8300 358.0000 1.0000
41.8400 366.0000 1.0000
41.8500 343.0000 1.0000
41.8600 340.0000 1.0000
41.8700 365.0000 1.0000
41.8800 371.0000 1.0000
41.8900 348.0000 1.0000
41.9000 332.0000 1.0000
41.9100 360.0000 1.0000
41.9200 350.0000 1.0000
41.9300 374.0000 1.0000
41.9400 356.0000 1.0000
41.9500 331.0000 1.0000
41.9600 336.0000 1.0000
41.9700 367.0000 1.0000
41.9800 375.0000 1.0000
41.9900 367.0000 1.0000
42.0000 363.0000 1.0000
42.0100 363.0000 1.0000
42.0200 340.0000 1.0000
42.0300 350.0000 1.0000
42.0400 368.0000 1.0000
42.0500 370.0000 1.0000
42.0600 346.0000 1.0000
42.0700 327.0000 1.0000
42.0800 371.0000 1.0000
42.0900 378.0000 1.0000
42.1000 358.0000 1.0000
42.1100 353.0000 1.0000
42.1200 367.0000 1.0000
42.1300 358.0000 1.0000
42.1400 357.0000 1.0000
42.1500 372.0000 1.0000
42.1600 357.0000 1.0000
42.1700 367.0000 1.0000
42.1800 334.0000 1.0000
42.1900 321.0000 1.0000
42.2000 349.0000 1.0000
42.2100 347.0000 1.0000
42.2200 387.0000 1.0000
42.2300 361.0000 1.0000
42.2400 387.0000 1.0000
42.2500 351.0000 1.0000
42.2600 357.0000 1.0000
42.2700 376.0000 1.0000
42.2800 379.0000 1.0000
42.2900 368.0000 1.0000
42.3000 386.0000 1.0000
42.3100 360.0000 1.0000
42.3200 377.0000 1.0000
42.3300 383.0000 1.0000
42.3400 364.0000 1.0000
42.3500 346.0000 1.0000
42.3600 360.0000 1.0000
42.3700 399.0000 1.0000
42.3800 381.0000 1.0000
42.3900 373.0000 1.0000
42.4000 355.0000 1.0000
42.4100 370.0000 1.0000
42.4200 378.0000 1.0000
42.4300 414.0000 1.0000
42.4400 389.0000 1.0000
42.4500 357.0000 1.0000
42.4600 368.0000 1.0000
42.4700 377.0000 1.0000
42.4800 383.0000 1.0000
42.4900 385.0000 1.0000
42.5000 375.0000 1.0000
42.5100 373.0000 1.0000
42.5200 359.0000 1.0000
42.5300 375.0000 1.0000
42.5400 368.0000 1.0000
42.5500 380.0000 1.0000
42.5600 363.0000 1.0000
42.5700 394.0000 1.0000
42.5800 391.0000 1.0000
42.5900 359.0000 1.0000
42.6000 375.0000 1.0000
42.6100 382.0000 1.0000
42.6200 360.0000 1.0000
42.6300 380.0000 1.0000
42.6400 362.0000 1.0000
42.6500 331.0000 1.0000
42.6600 396.0000 1.0000
42.6700 366.0000 1.0000
42.6800 347.0000 1.0000
42.6900 367.0000 1.0000
42.7000 370.0000 1.0000
42.7100 372.0000 1.0000
42.7200 351.0000 1.0000
42.7300 356.0000 1.0000
42.7400 339.0000 1.0000
42.7500 388.0000 1.0000
42.7600 379.0000 1.0000
42.7700 367.0000 1.0000
42.7800 364.0000 1.0000
42.7900 313.0000 1.0000
42.8000 332.0000 1.0000
42.8100 347.0000 1.0000
42.8200 358.0000 1.0000
42.8300 356.0000 1.0000
42.8400 350.0000 1.0000
42.8500 348.0000 1.0000
42.8600 372.0000 1.0000
42.8700 357.0000 1.0000
42.8800 336.0000 1.0000
42.8900 342.0000 1.0000
42.9000 340.0000 1.0000
42.9100 342.0000 1.0000
42.9200 352.0000 1.0000
42.9300 380.0000 1.0000
42.9400 342.0000 1.0000
42.9500 399.0000 1.0000
42.9600 341.0000 1.0000
42.9700 338.0000 1.0000
42.9800 364.0000 1.0000
42.9900 354.0000 1.0000
43.0000 355.0000 1.0000
43.0100 329.0000 1.0000
43.0200 335.0000 1.0000
43.0300 343.0000 1.0000
43.0400 357.0000 1.0000
43.0500 341.0000 1.0000
43.0600 350.0000 1.0000
43.0700 357.0000 1.0000
43.0800 336.0000 1.0000
43.0900 340.0000 1.0000
43.1000 334.0000 1.0000
43.1100 348.0000 1.0000
43.1200 358.0000 1.0000
43.1300 374.0000 1.0000
43.1400 373.0000 1.0000
43.1500 352.0000 1.0000
43.1600 354.0000 1.0000
43.1700 354.0000 1.0000
43.1800 324.0000 1.0000
43.1900 331.0000 1.0000
43.2000 355.0000 1.0000
43.2100 361.0000 1.0000
43.2200 322.0000 1.0000
43.2300 335.0000 1.0000
43.2400 362.0000 1.0000
43.2500 346.0000 1.0000
43.2600 315.0000 1.0000
43.2700 346.0000 1.0000
43.2800 338.0000 1.0000
43.2900 359.0000 1.0000
43.3000 345.0000 1.0000
43.3100 343.0000 1.0000
43.3200 323.0000 1.0000
43.3300 371.0000 1.0000
43.3400 362.0000 1.0000
43.3500 349.0000 1.0000
43.3600 341.0000 1.0000
43.3700 360.0000 1.0000
43.3800 335.0000 1.0000
43.3900 378.0000 1.0000
43.4000 356.0000 1.0000
43.4100 347.0000 1.0000
43.4200 366.0000 1.0000
43.4300 366.0000 1.0000
43.4400 315.0000 1.0000
43.4500 349.0000 1.0000
43.4600 360.0000 1.0000
43.4700 339.0000 1.0000
43.4800 360.0000 1.0000
43.4900 346.0000 1.0000
43.5000 317.0000 1.0000
43.5100 340.0000 1.0000
43.5200 345.0000 1.0000
43.5300 332.0000 1.0000
43.5400 345.0000 1.0000
43.5500 357.0000 1.0000
43.5600 348.0000 1.0000
43.5700 332.0000 1.0000
43.5800 352.0000 1.0000
43.5900 355.0000 1.0000
43.6000 360.0000 1.0000
43.6100 346.0000 1.0000
43.6200 373.0000 1.0000
43.6300 358.0000 1.0000
43.6400 306.0000 1.0000
43.6500 321.0000 1.0000
43.6600 337.0000 1.0000
43.6700 334.0000 1.0000
43.6800 350.0000 1.0000
43.6900 351.0000 1.0000
43.7000 349.0000 1.0000
43.7100 323.0000 1.0000
43.7200 354.0000 1.0000
43.7300 375.0000 1.0000
43.7400 356.0000 1.0000
43.7500 357.0000 1.0000
43.7600 331.0000 1.0000
43.7700 320.0000 1.0000
43.7800 325.0000 1.0000
43.7900 340.0000 1.0000
43.8000 328.0000 1.0000
43.8100 354.0000 1.0000
43.8200 374.0000 1.0000
43.8300 330.0000 1.0000
43.8400 305.0000 1.0000
43.8500 323.0000 1.0000
43.8600 357.0000 1.0000
43.8700 362.0000 1.0000
43.8800 360.0000 1.0000
43.8900 342.0000 1.0000
43.9000 336.0000 1.0000
43.9100 332.0000 1.0000
43.9200 326.0000 1.0000
43.9300 339.0000 1.0000
43.9400 331.0000 1.0000
43.9500 301.0000 1.0000
43.9600 357.0000 1.0000
43.9700 340.0000 1.0000
43.9800 367.0000 1.0000
43.9900 356.0000 1.0000
44.0000 339.0000 1.0000
44.0100 320.0000 1.0000
44.0200 339.0000 1.0000
44.0300 343.0000 1.0000
44.0400 307.0000 1.0000
44.0500 347.0000 1.0000
44.0600 356.0000 1.0000
44.0700 365.0000 1.0000
44.0800 342.0000 1.0000
44.0900 338.0000 1.0000
44.1000 357.0000 1.0000
44.1100 345.0000 1.0000
44.1200 308.0000 1.0000
44.1300 316.0000 1.0000
44.1400 305.0000 1.0000
44.1500 316.0000 1.0000
44.1600 309.0000 1.0000
44.1700 311.0000 1.0000
44.1800 342.0000 1.0000
44.1900 304.0000 1.0000
44.2000 322.0000 1.0000
44.2100 312.0000 1.0000
44.2200 355.0000 1.0000
44.2300 349.0000 1.0000
44.2400 310.0000 1.0000
44.2500 343.0000 1.0000
44.2600 368.0000 1.0000
44.2700 321.0000 1.0000
44.2800 315.0000 1.0000
44.2900 350.0000 1.0000
44.3000 349.0000 1.0000
44.3100 346.0000 1.0000
44.3200 321.0000 1.0000
44.3300 296.0000 1.0000
44.3400 343.0000 1.0000
44.3500 341.0000 1.0000
44.3600 331.0000 1.0000
44.3700 352.0000 1.0000
44.3800 326.0000 1.0000
44.3900 346.0000 1.0000
44.4000 337.0000 1.0000
44.4100 324.0000 1.0000
44.4200 345.0000 1.0000
44.4300 344.0000 1.0000
44.4400 347.0000 1.0000
44.4500 319.0000 1.0000
44.4600 330.0000 1.0000
44.4700 343.0000 1.0000
44.4800 337.0000 1.0000
44.4900 366.0000 1.0000
44.5000 326.0000 1.0000
44.5100 330.0000 1.0000
44.5200 352.0000 1.0000
44.5300 318.0000 1.0000
44.5400 353.0000 1.0000
44.5500 333.0000 1.0000
44.5600 307.0000 1.0000
44.5700 327.0000 1.0000
44.5800 324.0000 1.0000
44.5900 355.0000 1.0000
44.6000 311.0000 1.0000
44.6100 341.0000 1.0000
44.6200 326.0000 1.0000
44.6300 319.0000 1.0000
44.6400 336.0000 1.0000
44.6500 325.0000 1.0000
44.6600 339.0000 1.0000
44.6700 358.0000 1.0000
44.6800 318.0000 1.0000
44.6900 329.0000 1.0000
44.7000 329.0000 1.0000
44.7100 363.0000 1.0000
44.7200 316.0000 1.0000
44.7300 318.0000 1.0000
44.7400 327.0000 1.0000
44.7500 301.0000 1.0000
44.7600 310.0000 1.0000
44.7700 320.0000 1.0000
44.7800 306.0000 1.0000
44.7900 310.0000 1.0000
44.8000 304.0000 1.0000
44.8100 348.0000 1.0000
44.8200 356.0000 1.0000
44.8300 356.0000 1.0000
44.8400 378.0000 1.0000
44.8500 357.0000 1.0000
44.8600 318.0000 1.0000
44.8700 342.0000 1.0000
44.8800 302.0000 1.0000
44.8900 340.0000 1.0000
44.9000 297.0000 1.0000
44.9100 326.0000 1.0000
44.9200 324.0000 1.0000
44.9300 313.0000 1.0000
44.9400 313.0000 1.0000
44.9500 312.0000 1.0000
44.9600 306.0000 1.0000
44.9700 315.0000 1.0000
44.9800 361.0000 1.0000
44.9900 317.0000 1.0000
45.0000 324.0000 1.0000
45.0100 312.0000 1.0000
45.0200 340.0000 1.0000
45.0300 318.0000 1.0000
45.0400 323.0000 1.0000
45.0500 360.0000 1.0000
45.0600 343.0000 1.0000
45.0700 330.0000 1.0000
45.0800 310.0000 1.0000
45.0900 335.0000 1.0000
45.1000 324.0000 1.0000
45.1100 342.0000 1.0000
45.1200 319.0000 1.0000
45.1300 325.0000 1.0000
45.1400 325.0000 1.0000
45.1500 317.0000 1.0000
45.1600 352.0000 1.0000
45.1700 320.0000 1.0000
45.1800 348.0000 1.0000
45.1900 321.0000 1.0000
45.2000 312.0000 1.0000
45.2100 325.0000 1.0000
45.2200 308.0000 1.0000
45.2300 331.0000 1.0000
45.2400 295.0000 1.0000
45.2500 312.0000 1.0000
45.2600 313.0000 1.0000
45.2700 356.0000 1.0000
45.2800 308.0000 1.0000
45.2900 308.0000 1.0000
45.3000 307.0000 1.0000
45.3100 318.0000 1.0000
45.3200 329.0000 1.0000
45.3300 343.0000 1.0000
45.3400 315.0000 1.0000
45.3500 292.0000 1.0000
45.3600 306.0000 1.0000
45.3700 350.0000 1.0000
45.3800 338.0000 1.0000
45.3900 361.0000 1.0000
45.4000 330.0000 1.0000
45.4100 348.0000 1.0000
45.4200 318.0000 1.0000
45.4300 334.0000 1.0000
45.4400 327.0000 1.0000
45.4500 318.0000 1.0000
45.4600 315.0000 1.0000
45.4700 316.0000 1.0000
45.4800 321.0000 1.0000
45.4900 336.0000 1.0000
45.5000 317.0000 1.0000
45.5100 308.0000 1.0000
45.5200 336.0000 1.0000
45.5300 335.0000 1.0000
45.5400 314.0000 1.0000
45.5500 310.0000 1.0000
45.5600 352.0000 1.0000
45.5700 341.0000 1.0000
45.5800 323.0000 1.0000
45.5900 302.0000 1.0000
45.6000 310.0000 1.0000
45.6100 335.0000 1.0000
45.6200 351.0000 1.0000
45.6300 328.0000 1.0000
45.6400 332.0000 1.0000
45.6500 321.0000 1.0000
45.6600 351.0000 1.0000
45.6700 325.0000 1.0000
45.6800 341.0000 1.0000
45.6900 340.0000 1.0000
45.7000 323.0000 1.0000
45.7100 308.0000 1.0000
45.7200 321.0000 1.0000
45.7300 328.0000 1.0000
45.7400 312.0000 1.0000
45.7500 307.0000 1.0000
45.7600 328.0000 1.0000
45.7700 340.0000 1.0000
45.7800 331.0000 1.0000
45.7900 308.0000 1.0000
45.8000 328.0000 1.0000
45.8100 292.0000 1.0000
45.8200 323.0000 1.0000
45.8300 317.0000 1.0000
45.8400 339.0000 1.0000
45.8500 301.0000 1.0000
45.8600 305.0000 1.0000
45.8700 327.0000 1.0000
45.8800 308.0000 1.0000
45.8900 305.0000 1.0000
45.9000 316.0000 1.0000
45.9100 309.0000 1.0000
45.9200 330.0000 1.0000
45.9300 326.0000 1.0000
45.9400 277.0000 1.0000
45.9500 327.0000 1.0000
45.9600 340.0000 1.0000
45.9700 324.0000 1.0000
45.9800 309.0000 1.0000
45.9900 290.0000 1.0000
46.0000 318.0000 1.0000
46.0100 325.0000 1.0000
46.0200 309.0000 1.0000
46.0300 321.0000 1.0000
46.0400 315.0000 1.0000
46.0500 315.0000 1.0000
46.0600 338.0000 1.0000
46.0700 314.0000 1.0000
46.0800 316.0000 1.0000
46.0900 292.0000 1.0000
46.1000 313.0000 1.0000
46.1100 344.0000 1.0000
46.1200 347.0000 1.0000
46.1300 332.0000 1.0000
46.1400 349.0000 1.0000
46.1500 303.0000 1.0000
46.1600 338.0000 1.0000
46.1700 313.0000 1.0000
46.1800 313.0000 1.0000
46.1900 312.0000 1.0000
46.2000 304.0000 1.0000
46.2100 307.0000 1.0000
46.2200 325.0000 1.0000
46.2300 294.0000 1.0000
46.2400 309.0000 1.0000
46.2500 292.0000 1.0000
46.2600 320.0000 1.0000
46.2700 324.0000 1.0000
46.2800 342.0000 1.0000
46.2900 323.0000 1.0000
46.3000 331.0000 1.0000
46.3100 303.0000 1.0000
46.3200 307.0000 1.0000
46.3300 319.0000 1.0000
46.3400 299.0000 1.0000
46.3500 300.0000 1.0000
46.3600 321.0000 1.0000
46.3700 333.0000 1.0000
46.3800 351.0000 1.0000
46.3900 325.0000 1.0000
46.4000 339.0000 1.0000
46.4100 318.0000 1.0000
46.4200 312.0000 1.0000
46.4300 310.0000 1.0000
46.4400 308.0000 1.0000
46.4500 309.0000 1.0000
46.4600 325.0000 1.0000
46.4700 321.0000 1.0000
46.4800 318.0000 1.0000
46.4900 324.0000 1.0000
46.5000 323.0000 1.0000
46.5100 294.0000 1.0000
46.5200 292.0000 1.0000
46.5300 299.0000 1.0000
46.5400 335.0000 1.0000
46.5500 342.0000 1.0000
46.5600 306.0000 1.0000
46.5700 327.0000 1.0000
46.5800 322.0000 1.0000
46.5900 326.0000 1.0000
46.6000 303.0000 1.0000
46.6100 311.0000 1.0000
46.6200 299.0000 1.0000
46.6300 317.0000 1.0000
46.6400 302.0000 1.0000
46.6500 330.0000 1.0000
46.6600 317.0000 1.0000
46.6700 316.0000 1.0000
46.6800 321.0000 1.0000
46.6900 332.0000 1.0000
46.7000 340.0000 1.0000
46.7100 308.0000 1.0000
46.7200 319.0000 1.0000
46.7300 326.0000 1.0000
46.7400 290.0000 1.0000
46.7500 329.0000 1.0000
46.7600 330.0000 1.0000
46.7700 328.0000 1.0000
46.7800 302.0000 1.0000
46.7900 331.0000 1.0000
46.8000 299.0000 1.0000
46.8100 281.0000 1.0000
46.8200 323.0000 1.0000
46.8300 300.0000 1.0000
46.8400 309.0000 1.0000
46.8500 312.0000 1.0000
46.8600 330.0000 1.0000
46.8700 303.0000 1.0000
46.8800 305.0000 1.0000
46.8900 293.0000 1.0000
46.9000 329.0000 1.0000
46.9100 319.0000 1.0000
46.9200 304.0000 1.0000
46.9300 312.0000 1.0000
46.9400 304.0000 1.0000
46.9500 336.0000 1.0000
46.9600 311.0000 1.0000
46.9700 303.0000 1.0000
46.9800 299.0000 1.0000
46.9900 322.0000 1.0000
47.0000 315.0000 1.0000
47.0100 306.0000 1.0000
47.0200 314.0000 1.0000
47.0300 314.0000 1.0000
47.0400 323.0000 1.0000
47.0500 304.0000 1.0000
47.0600 299.0000 1.0000
47.0700 319.0000 1.0000
47.0800 347.0000 1.0000
47.0900 321.0000 1.0000
47.1000 310.0000 1.0000
47.1100 340.0000 1.0000
47.1200 291.0000 1.0000
47.1300 288.0000 1.0000
47.1400 318.0000 1.0000
47.1500 339.0000 1.0000
47.1600 339.0000 1.0000
47.1700 327.0000 1.0000
47.1800 303.0000 1.0000
47.1900 296.0000 1.0000
47.2000 344.0000 1.0000
47.2100 338.0000 1.0000
47.2200 336.0000 1.0000
47.2300 325.0000 1.0000
47.2400 308.0000 1.0000
47.2500 306.0000 1.0000
47.2600 318.0000 1.0000
47.2700 307.0000 1.0000
47.2800 302.0000 1.0000
47.2900 334.0000 1.0000
47.3000 318.0000 1.0000
47.3100 310.0000 1.0000
47.3200 331.0000 1.0000
47.3300 317.0000 1.0000
47.3400 303.0000 1.0000
47.3500 318.0000 1.0000
47.3600 303.0000 1.0000
47.3700 304.0000 1.0000
47.3800 329.0000 1.0000
47.3900 302.0000 1.0000
47.4000 307.0000 1.0000
47.4100 333.0000 1.0000
47.4200 319.0000 1.0000
47.4300 306.0000 1.0000
47.4400 292.0000 1.0000
47.4500 297.0000 1.0000
47.4600 327.0000 1.0000
47.4700 295.0000 1.0000
47.4800 291.0000 1.0000
47.4900 304.0000 1.0000
47.5000 293.0000 1.0000
47.5100 305.0000 1.0000
47.5200 292.0000 1.0000
47.5300 297.0000 1.0000
47.5400 304.0000 1.0000
47.5500 292.0000 1.0000
47.5600 317.0000 1.0000
47.5700 301.0000 1.0000
47.5800 331.0000 1.0000
47.5900 319.0000 1.0000
47.6000 292.0000 1.0000
47.6100 296.0000 1.0000
47.6200 322.0000 1.0000
47.6300 319.0000 1.0000
47.6400 291.0000 1.0000
47.6500 341.0000 1.0000
47.6600 298.0000 1.0000
47.6700 327.0000 1.0000
47.6800 321.0000 1.0000
47.6900 323.0000 1.0000
47.7000 297.0000 1.0000
47.7100 293.0000 1.0000
47.7200 312.0000 1.0000
47.7300 298.0000 1.0000
47.7400 299.0000 1.0000
47.7500 296.0000 1.0000
47.7600 301.0000 1.0000
47.7700 310.0000 1.0000
47.7800 295.0000 1.0000
47.7900 324.0000 1.0000
47.8000 306.0000 1.0000
47.8100 303.0000 1.0000
47.8200 299.0000 1.0000
47.8300 285.0000 1.0000
47.8400 276.0000 1.0000
47.8500 321.0000 1.0000
47.8600 332.0000 1.0000
47.8700 312.0000 1.0000
47.8800 297.0000 1.0000
47.8900 318.0000 1.0000
47.9000 316.0000 1.0000
47.9100 309.0000 1.0000
47.9200 308.0000 1.0000
47.9300 282.0000 1.0000
47.9400 302.0000 1.0000
47.9500 339.0000 1.0000
47.9600 289.0000 1.0000
47.9700 310.0000 1.0000
47.9800 307.0000 1.0000
47.9900 290.0000 1.0000
48.0000 293.0000 1.0000
48.0100 285.0000 1.0000
48.0200 296.0000 1.0000
48.0300 314.0000 1.0000
48.0400 315.0000 1.0000
48.0500 273.0000 1.0000
48.0600 285.0000 1.0000
48.0700 325.0000 1.0000
48.0800 318.0000 1.0000
48.0900 309.0000 1.0000
48.1000 279.0000 1.0000
48.1100 330.0000 1.0000
48.1200 306.0000 1.0000
48.1300 302.0000 1.0000
48.1400 309.0000 1.0000
48.1500 312.0000 1.0000
48.1600 305.0000 1.0000
48.1700 289.0000 1.0000
48.1800 292.0000 1.0000
48.1900 300.0000 1.0000
48.2000 280.0000 1.0000
48.2100 322.0000 1.0000
48.2200 304.0000 1.0000
48.2300 306.0000 1.0000
48.2400 315.0000 1.0000
48.2500 329.0000 1.0000
48.2600 320.0000 1.0000
48.2700 312.0000 1.0000
48.2800 303.0000 1.0000
48.2900 303.0000 1.0000
48.3000 308.0000 1.0000
48.3100 309.0000 1.0000
48.3200 307.0000 1.0000
48.3300 318.0000 1.0000
48.3400 305.0000 1.0000
48.3500 312.0000 1.0000
48.3600 291.0000 1.0000
48.3700 310.0000 1.0000
48.3800 295.0000 1.0000
48.3900 335.0000 1.0000
48.4000 295.0000 1.0000
48.4100 289.0000 1.0000
48.4200 325.0000 1.0000
48.4300 298.0000 1.0000
48.4400 301.0000 1.0000
48.4500 325.0000 1.0000
48.4600 290.0000 1.0000
48.4700 298.0000 1.0000
48.4800 326.0000 1.0000
48.4900 332.0000 1.0000
48.5000 299.0000 1.0000
48.5100 272.0000 1.0000
48.5200 314.0000 1.0000
48.5300 311.0000 1.0000
48.5400 335.0000 1.0000
48.5500 311.0000 1.0000
48.5600 294.0000 1.0000
48.5700 310.0000 1.0000
48.5800 312.0000 1.0000
48.5900 272.0000 1.0000
48.6000 279.0000 1.0000
48.6100 282.0000 1.0000
48.6200 280.0000 1.0000
48.6300 303.0000 1.0000
48.6400 297.0000 1.0000
48.6500 288.0000 1.0000
48.6600 322.0000 1.0000
48.6700 309.0000 1.0000
48.6800 298.0000 1.0000
48.6900 296.0000 1.0000
48.7000 273.0000 1.0000
48.7100 313.0000 1.0000
48.7200 287.0000 1.0000
48.7300 314.0000 1.0000
48.7400 319.0000 1.0000
48.7500 291.0000 1.0000
48.7600 293.0000 1.0000
48.7700 296.0000 1.0000
48.7800 283.0000 1.0000
48.7900 294.0000 1.0000
48.8000 319.0000 1.0000
48.8100 320.0000 1.0000
48.8200 294.0000 1.0000
48.8300 287.0000 1.0000
48.8400 303.0000 1.0000
48.8500 267.0000 1.0000
48.8600 286.0000 1.0000
48.8700 302.0000 1.0000
48.8800 281.0000 1.0000
48.8900 294.0000 1.0000
48.9000 294.0000 1.0000
48.9100 310.0000 1.0000
48.9200 286.0000 1.0000
48.9300 346.0000 1.0000
48.9400 304.0000 1.0000
48.9500 310.0000 1.0000
48.9600 309.0000 1.0000
48.9700 293.0000 1.0000
48.9800 283.0000 1.0000
48.9900 306.0000 1.0000
49.0000 292.0000 1.0000
49.0100 301.0000 1.0000
49.0200 326.0000 1.0000
49.0300 314.0000 1.0000
49.0400 290.0000 1.0000
49.0500 302.0000 1.0000
49.0600 308.0000 1.0000
49.0700 313.0000 1.0000
49.0800 308.0000 1.0000
49.0900 287.0000 1.0000
49.1000 307.0000 1.0000
49.1100 291.0000 1.0000
49.1200 327.0000 1.0000
49.1300 324.0000 1.0000
49.1400 313.0000 1.0000
49.1500 269.0000 1.0000
49.1600 285.0000 1.0000
49.1700 336.0000 1.0000
49.1800 317.0000 1.0000
49.1900 303.0000 1.0000
49.2000 306.0000 1.0000
49.2100 338.0000 1.0000
49.2200 335.0000 1.0000
49.2300 322.0000 1.0000
49.2400 310.0000 1.0000
49.2500 327.0000 1.0000
49.2600 334.0000 1.0000
49.2700 330.0000 1.0000
49.2800 330.0000 1.0000
49.2900 347.0000 1.0000
49.3000 366.0000 1.0000
49.3100 349.0000 1.0000
49.3200 349.0000 1.0000
49.3300 330.0000 1.0000
49.3400 353.0000 1.0000
49.3500 376.0000 1.0000
49.3600 363.0000 1.0000
49.3700 376.0000 1.0000
49.3800 368.0000 1.0000
49.3900 367.0000 1.0000
49.4000 377.0000 1.0000
49.4100 386.0000 1.0000
49.4200 382.0000 1.0000
49.4300 343.0000 1.0000
49.4400 362.0000 1.0000
49.4500 368.0000 1.0000
49.4600 379.0000 1.0000
49.4700 401.0000 1.0000
49.4800 400.0000 1.0000
49.4900 384.0000 1.0000
49.5000 355.0000 1.0000
49.5100 383.0000 1.0000
49.5200 385.0000 1.0000
49.5300 370.0000 1.0000
49.5400 362.0000 1.0000
49.5500 333.0000 1.0000
49.5600 362.0000 1.0000
49.5700 364.0000 1.0000
49.5800 350.0000 1.0000
49.5900 345.0000 1.0000
49.6000 346.0000 1.0000
49.6100 359.0000 1.0000
49.6200 330.0000 1.0000
49.6300 338.0000 1.0000
49.6400 330.0000 1.0000
49.6500 336.0000 1.0000
49.6600 339.0000 1.0000
49.6700 327.0000 1.0000
49.6800 302.0000 1.0000
49.6900 299.0000 1.0000
49.7000 306.0000 1.0000
49.7100 310.0000 1.0000
49.7200 303.0000 1.0000
49.7300 283.0000 1.0000
49.7400 266.0000 1.0000
49.7500 299.0000 1.0000
49.7600 297.0000 1.0000
49.7700 308.0000 1.0000
49.7800 273.0000 1.0000
49.7900 331.0000 1.0000
49.8000 331.0000 1.0000
49.8100 333.0000 1.0000
49.8200 299.0000 1.0000
49.8300 272.0000 1.0000
49.8400 311.0000 1.0000
49.8500 274.0000 1.0000
49.8600 302.0000 1.0000
49.8700 335.0000 1.0000
49.8800 294.0000 1.0000
49.8900 331.0000 1.0000
49.9000 302.0000 1.0000
49.9100 284.0000 1.0000
49.9200 283.0000 1.0000
49.9300 285.0000 1.0000
49.9400 307.0000 1.0000
49.9500 303.0000 1.0000
49.9600 296.0000 1.0000
49.9700 314.0000 1.0000
49.9800 278.0000 1.0000
49.9900 294.0000 1.0000
50.0000 303.0000 1.0000
50.0100 277.0000 1.0000
50.0200 308.0000 1.0000
50.0300 298.0000 1.0000
50.0400 298.0000 1.0000
50.0500 289.0000 1.0000
50.0600 284.0000 1.0000
50.0700 290.0000 1.0000
50.0800 319.0000 1.0000
50.0900 273.0000 1.0000
50.1000 288.0000 1.0000
50.1100 276.0000 1.0000
50.1200 299.0000 1.0000
50.1300 289.0000 1.0000
50.1400 296.0000 1.0000
50.1500 318.0000 1.0000
50.1600 289.0000 1.0000
50.1700 286.0000 1.0000
50.1800 313.0000 1.0000
50.1900 287.0000 1.0000
50.2000 303.0000 1.0000
50.2100 295.0000 1.0000
50.2200 301.0000 1.0000
50.2300 326.0000 1.0000
50.2400 299.0000 1.0000
50.2500 299.0000 1.0000
50.2600 312.0000 1.0000
50.2700 311.0000 1.0000
50.2800 283.0000 1.0000
50.2900 309.0000 1.0000
50.3000 276.0000 1.0000
50.3100 304.0000 1.0000
50.3200 274.0000 1.0000
50.3300 278.0000 1.0000
50.3400 267.0000 1.0000
50.3500 277.0000 1.0000
50.3600 306.0000 1.0000
50.3700 314.0000 1.0000
50.3800 303.0000 1.0000
50.3900 294.0000 1.0000
50.4000 307.0000 1.0000
50.4100 303.0000 1.0000
50.4200 316.0000 1.0000
50.4300 300.0000 1.0000
50.4400 291.0000 1.0000
50.4500 278.0000 1.0000
50.4600 278.0000 1.0000
50.4700 306.0000 1.0000
50.4800 311.0000 1.0000
50.4900 310.0000 1.0000
50.5000 286.0000 1.0000
50.5100 293.0000 1.0000
50.5200 298.0000 1.0000
50.5300 288.0000 1.0000
50.5400 304.0000 1.0000
50.5500 323.0000 1.0000
50.5600 304.0000 1.0000
50.5700 294.0000 1.0000
50.5800 310.0000 1.0000
50.5900 290.0000 1.0000
50.6000 296.0000 1.0000
50.6100 318.0000 1.0000
50.6200 272.0000 1.0000
50.6300 307.0000 1.0000
50.6400 308.0000 1.0000
50.6500 274.0000 1.0000
50.6600 340.0000 1.0000
50.6700 306.0000 1.0000
50.6800 298.0000 1.0000
50.6900 312.0000 1.0000
50.7000 300.0000 1.0000
50.7100 295.0000 1.0000
50.7200 300.0000 1.0000
50.7300 285.0000 1.0000
50.7400 283.0000 1.0000
50.7500 280.0000 1.0000
50.7600 310.0000 1.0000
50.7700 283.0000 1.0000
50.7800 303.0000 1.0000
50.7900 287.0000 1.0000
50.8000 293.0000 1.0000
50.8100 294.0000 1.0000
50.8200 316.0000 1.0000
50.8300 313.0000 1.0000
50.8400 293.0000 1.0000
50.8500 262.0000 1.0000
50.8600 342.0000 1.0000
50.8700 316.0000 1.0000
50.8800 333.0000 1.0000
50.8900 305.0000 1.0000
50.9000 311.0000 1.0000
50.9100 293.0000 1.0000
50.9200 310.0000 1.0000
50.9300 313.0000 1.0000
50.9400 292.0000 1.0000
50.9500 309.0000 1.0000
50.9600 308.0000 1.0000
50.9700 344.0000 1.0000
50.9800 326.0000 1.0000
50.9900 322.0000 1.0000
51.0000 331.0000 1.0000
51.0100 302.0000 1.0000
51.0200 309.0000 1.0000
51.0300 311.0000 1.0000
51.0400 313.0000 1.0000
51.0500 366.0000 1.0000
51.0600 307.0000 1.0000
51.0700 300.0000 1.0000
51.0800 318.0000 1.0000
51.0900 343.0000 1.0000
51.1000 331.0000 1.0000
51.1100 339.0000 1.0000
51.1200 331.0000 1.0000
51.1300 315.0000 1.0000
51.1400 326.0000 1.0000
51.1500 346.0000 1.0000
51.1600 332.0000 1.0000
51.1700 324.0000 1.0000
51.1800 365.0000 1.0000
51.1900 377.0000 1.0000
51.2000 404.0000 1.0000
51.2100 379.0000 1.0000
51.2200 366.0000 1.0000
51.2300 393.0000 1.0000
51.2400 377.0000 1.0000
51.2500 391.0000 1.0000
51.2600 418.0000 1.0000
51.2700 419.0000 1.0000
51.2800 467.0000 1.0000
51.2900 448.0000 1.0000
51.3000 481.0000 1.0000
51.3100 465.0000 1.0000
51.3200 509.0000 1.0000
51.3300 526.0000 1.0000
51.3400 538.0000 1.0000
51.3500 583.0000 1.0000
51.3600 627.0000 1.0000
51.3700 626.0000 1.0000
51.3800 697.0000 1.0000
51.3900 708.0000 1.0000
51.4000 748.0000 1.0000
51.4100 751.0000 1.0000
51.4200 764.0000 1.0000
51.4300 826.0000 1.0000
51.4400 832.0000 1.0000
51.4500 799.0000 1.0000
51.4600 819.0000 1.0000
51.4700 863.0000 1.0000
51.4800 881.0000 1.0000
51.4900 881.0000 1.0000
51.5000 886.0000 1.0000
51.5100 860.0000 1.0000
51.5200 837.0000 1.0000
51.5300 829.0000 1.0000
51.5400 799.0000 1.0000
51.5500 802.0000 1.0000
51.5600 758.0000 1.0000
51.5700 785.0000 1.0000
51.5800 739.0000 1.0000
51.5900 742.0000 1.0000
51.6000 767.0000 1.0000
51.6100 668.0000 1.0000
51.6200 677.0000 1.0000
51.6300 710.0000 1.0000
51.6400 647.0000 1.0000
51.6500 628.0000 1.0000
51.6600 607.0000 1.0000
51.6700 578.0000 1.0000
51.6800 543.0000 1.0000
51.6900 503.0000 1.0000
51.7000 499.0000 1.0000
51.7100 506.0000 1.0000
51.7200 502.0000 1.0000
51.7300 480.0000 1.0000
51.7400 455.0000 1.0000
51.7500 457.0000 1.0000
51.7600 427.0000 1.0000
51.7700 417.0000 1.0000
51.7800 413.0000 1.0000
51.7900 389.0000 1.0000
51.8000 414.0000 1.0000
51.8100 405.0000 1.0000
51.8200 411.0000 1.0000
51.8300 396.0000 1.0000
51.8400 381.0000 1.0000
51.8500 340.0000 1.0000
51.8600 357.0000 1.0000
51.8700 354.0000 1.0000
51.8800 336.0000 1.0000
51.8900 329.0000 1.0000
51.9000 353.0000 1.0000
51.9100 344.0000 1.0000
51.9200 337.0000 1.0000
51.9300 329.0000 1.0000
51.9400 343.0000 1.0000
51.9500 323.0000 1.0000
51.9600 326.0000 1.0000
51.9700 345.0000 1.0000
51.9800 330.0000 1.0000
51.9900 340.0000 1.0000
52.0000 343.0000 1.0000
52.0100 312.0000 1.0000
52.0200 334.0000 1.0000
52.0300 330.0000 1.0000
52.0400 311.0000 1.0000
52.0500 344.0000 1.0000
52.0600 319.0000 1.0000
52.0700 306.0000 1.0000
52.0800 323.0000 1.0000
52.0900 330.0000 1.0000
52.1000 317.0000 1.0000
52.1100 312.0000 1.0000
52.1200 346.0000 1.0000
52.1300 315.0000 1.0000
52.1400 308.0000 1.0000
52.1500 312.0000 1.0000
52.1600 301.0000 1.0000
52.1700 315.0000 1.0000
52.1800 284.0000 1.0000
52.1900 298.0000 1.0000
52.2000 289.0000 1.0000
52.2100 312.0000 1.0000
52.2200 295.0000 1.0000
52.2300 283.0000 1.0000
52.2400 288.0000 1.0000
52.2500 295.0000 1.0000
52.2600 320.0000 1.0000
52.2700 303.0000 1.0000
52.2800 337.0000 1.0000
52.2900 312.0000 1.0000
52.3000 304.0000 1.0000
52.3100 282.0000 1.0000
52.3200 273.0000 1.0000
52.3300 262.0000 1.0000
52.3400 276.0000 1.0000
52.3500 284.0000 1.0000
52.3600 302.0000 1.0000
52.3700 302.0000 1.0000
52.3800 273.0000 1.0000
52.3900 289.0000 1.0000
52.4000 295.0000 1.0000
52.4100 281.0000 1.0000
52.4200 285.0000 1.0000
52.4300 308.0000 1.0000
52.4400 317.0000 1.0000
52.4500 263.0000 1.0000
52.4600 310.0000 1.0000
52.4700 304.0000 1.0000
52.4800 272.0000 1.0000
52.4900 279.0000 1.0000
52.5000 288.0000 1.0000
52.5100 274.0000 1.0000
52.5200 282.0000 1.0000
52.5300 286.0000 1.0000
52.5400 275.0000 1.0000
52.5500 285.0000 1.0000
52.5600 279.0000 1.0000
52.5700 281.0000 1.0000
52.5800 279.0000 1.0000
52.5900 305.0000 1.0000
52.6000 299.0000 1.0000
52.6100 295.0000 1.0000
52.6200 292.0000 1.0000
52.6300 276.0000 1.0000
52.6400 295.0000 1.0000
52.6500 309.0000 1.0000
52.6600 284.0000 1.0000
52.6700 255.0000 1.0000
52.6800 268.0000 1.0000
52.6900 262.0000 1.0000
52.7000 280.0000 1.0000
52.7100 300.0000 1.0000
52.7200 301.0000 1.0000
52.7300 277.0000 1.0000
52.7400 292.0000 1.0000
52.7500 297.0000 1.0000
52.7600 277.0000 1.0000
52.7700 282.0000 1.0000
52.7800 287.0000 1.0000
52.7900 304.0000 1.0000
52.8000 307.0000 1.0000
52.8100 271.0000 1.0000
52.8200 309.0000 1.0000
52.8300 312.0000 1.0000
52.8400 281.0000 1.0000
52.8500 298.0000 1.0000
52.8600 288.0000 1.0000
52.8700 304.0000 1.0000
52.8800 306.0000 1.0000
52.8900 290.0000 1.0000
52.9000 281.0000 1.0000
52.9100 290.0000 1.0000
52.9200 265.0000 1.0000
52.9300 247.0000 1.0000
52.9400 294.0000 1.0000
52.9500 277.0000 1.0000
52.9600 248.0000 1.0000
52.9700 302.0000 1.0000
52.9800 300.0000 1.0000
52.9900 289.0000 1.0000
53.0000 309.0000 1.0000
53.0100 288.0000 1.0000
53.0200 267.0000 1.0000
53.0300 263.0000 1.0000
53.0400 293.0000 1.0000
53.0500 255.0000 1.0000
53.0600 269.0000 1.0000
53.0700 286.0000 1.0000
53.0800 275.0000 1.0000
53.0900 282.0000 1.0000
53.1000 316.0000 1.0000
53.1100 298.0000 1.0000
53.1200 281.0000 1.0000
53.1300 274.0000 1.0000
53.1400 285.0000 1.0000
53.1500 284.0000 1.0000
53.1600 286.0000 1.0000
53.1700 283.0000 1.0000
53.1800 276.0000 1.0000
53.1900 269.0000 1.0000
53.2000 286.0000 1.0000
53.2100 290.0000 1.0000
53.2200 284.0000 1.0000
53.2300 271.0000 1.0000
53.2400 293.0000 1.0000
53.2500 285.0000 1.0000
53.2600 296.0000 1.0000
53.2700 279.0000 1.0000
53.2800 284.0000 1.0000
53.2900 267.0000 1.0000
53.3000 294.0000 1.0000
53.3100 286.0000 1.0000
53.3200 278.0000 1.0000
53.3300 287.0000 1.0000
53.3400 273.0000 1.0000
53.3500 288.0000 1.0000
53.3600 310.0000 1.0000
53.3700 298.0000 1.0000
53.3800 290.0000 1.0000
53.3900 278.0000 1.0000
53.4000 266.0000 1.0000
53.4100 324.0000 1.0000
53.4200 291.0000 1.0000
53.4300 298.0000 1.0000
53.4400 287.0000 1.0000
53.4500 287.0000 1.0000
53.4600 282.0000 1.0000
53.4700 302.0000 1.0000
53.4800 278.0000 1.0000
53.4900 297.0000 1.0000
53.5000 288.0000 1.0000
53.5100 263.0000 1.0000
53.5200 266.0000 1.0000
53.5300 296.0000 1.0000
53.5400 273.0000 1.0000
53.5500 281.0000 1.0000
53.5600 280.0000 1.0000
53.5700 291.0000 1.0000
53.5800 266.0000 1.0000
53.5900 323.0000 1.0000
53.6000 296.0000 1.0000
53.6100 268.0000 1.0000
53.6200 250.0000 1.0000
53.6300 285.0000 1.0000
53.6400 318.0000 1.0000
53.6500 282.0000 1.0000
53.6600 285.0000 1.0000
53.6700 293.0000 1.0000
53.6800 289.0000 1.0000
53.6900 270.0000 1.0000
53.7000 300.0000 1.0000
53.7100 289.0000 1.0000
53.7200 265.0000 1.0000
53.7300 278.0000 1.0000
53.7400 311.0000 1.0000
53.7500 311.0000 1.0000
53.7600 319.0000 1.0000
53.7700 299.0000 1.0000
53.7800 306.0000 1.0000
53.7900 313.0000 1.0000
53.8000 304.0000 1.0000
53.8100 285.0000 1.0000
53.8200 318.0000 1.0000
53.8300 330.0000 1.0000
53.8400 317.0000 1.0000
53.8500 306.0000 1.0000
53.8600 317.0000 1.0000
53.8700 284.0000 1.0000
53.8800 308.0000 1.0000
53.8900 317.0000 1.0000
53.9000 337.0000 1.0000
53.9100 325.0000 1.0000
53.9200 345.0000 1.0000
53.9300 304.0000 1.0000
53.9400 330.0000 1.0000
53.9500 327.0000 1.0000
53.9600 332.0000 1.0000
53.9700 340.0000 1.0000
53.9800 313.0000 1.0000
53.9900 312.0000 1.0000
54.0000 341.0000 1.0000
54.0100 342.0000 1.0000
54.0200 338.0000 1.0000
54.0300 329.0000 1.0000
54.0400 334.0000 1.0000
54.0500 333.0000 1.0000
54.0600 325.0000 1.0000
54.0700 348.0000 1.0000
54.0800 344.0000 1.0000
54.0900 337.0000 1.0000
54.1000 333.0000 1.0000
54.1100 343.0000 1.0000
54.1200 322.0000 1.0000
54.1300 352.0000 1.0000
54.1400 323.0000 1.0000
54.1500 358.0000 1.0000
54.1600 312.0000 1.0000
54.1700 338.0000 1.0000
54.1800 331.0000 1.0000
54.1900 310.0000 1.0000
54.2000 332.0000 1.0000
54.2100 326.0000 1.0000
54.2200 344.0000 1.0000
54.2300 332.0000 1.0000
54.2400 315.0000 1.0000
54.2500 329.0000 1.0000
54.2600 326.0000 1.0000
54.2700 307.0000 1.0000
54.2800 319.0000 1.0000
54.2900 332.0000 1.0000
54.3000 353.0000 1.0000
54.3100 357.0000 1.0000
54.3200 353.0000 1.0000
54.3300 327.0000 1.0000
54.3400 331.0000 1.0000
54.3500 304.0000 1.0000
54.3600 311.0000 1.0000
54.3700 324.0000 1.0000
54.3800 315.0000 1.0000
54.3900 333.0000 1.0000
54.4000 312.0000 1.0000
54.4100 321.0000 1.0000
54.4200 334.0000 1.0000
54.4300 328.0000 1.0000
54.4400 330.0000 1.0000
54.4500 361.0000 1.0000
54.4600 318.0000 1.0000
54.4700 334.0000 1.0000
54.4800 334.0000 1.0000
54.4900 327.0000 1.0000
54.5000 337.0000 1.0000
54.5100 332.0000 1.0000
54.5200 351.0000 1.0000
54.5300 331.0000 1.0000
54.5400 327.0000 1.0000
54.5500 333.0000 1.0000
54.5600 298.0000 1.0000
54.5700 345.0000 1.0000
54.5800 365.0000 1.0000
54.5900 336.0000 1.0000
54.6000 317.0000 1.0000
54.6100 317.0000 1.0000
54.6200 344.0000 1.0000
54.6300 331.0000 1.0000
54.6400 363.0000 1.0000
54.6500 321.0000 1.0000
54.6600 323.0000 1.0000
54.6700 324.0000 1.0000
54.6800 312.0000 1.0000
54.6900 293.0000 1.0000
54.7000 312.0000 1.0000
54.7100 326.0000 1.0000
54.7200 283.0000 1.0000
54.7300 310.0000 1.0000
54.7400 297.0000 1.0000
54.7500 319.0000 1.0000
54.7600 322.0000 1.0000
54.7700 317.0000 1.0000
54.7800 291.0000 1.0000
54.7900 295.0000 1.0000
54.8000 306.0000 1.0000
54.8100 282.0000 1.0000
54.8200 274.0000 1.0000
54.8300 294.0000 1.0000
54.8400 285.0000 1.0000
54.8500 287.0000 1.0000
54.8600 298.0000 1.0000
54.8700 306.0000 1.0000
54.8800 304.0000 1.0000
54.8900 265.0000 1.0000
54.9000 316.0000 1.0000
54.9100 302.0000 1.0000
54.9200 292.0000 1.0000
54.9300 284.0000 1.0000
54.9400 287.0000 1.0000
54.9500 285.0000 1.0000
54.9600 285.0000 1.0000
54.9700 305.0000 1.0000
54.9800 275.0000 1.0000
54.9900 288.0000 1.0000
55.0000 289.0000 1.0000
55.0100 288.0000 1.0000
55.0200 283.0000 1.0000
55.0300 301.0000 1.0000
55.0400 256.0000 1.0000
55.0500 285.0000 1.0000
55.0600 270.0000 1.0000
55.0700 245.0000 1.0000
55.0800 288.0000 1.0000
55.0900 276.0000 1.0000
55.1000 287.0000 1.0000
55.1100 297.0000 1.0000
55.1200 272.0000 1.0000
55.1300 298.0000 1.0000
55.1400 298.0000 1.0000
55.1500 270.0000 1.0000
55.1600 280.0000 1.0000
55.1700 288.0000 1.0000
55.1800 287.0000 1.0000
55.1900 304.0000 1.0000
55.2000 297.0000 1.0000
55.2100 272.0000 1.0000
55.2200 289.0000 1.0000
55.2300 263.0000 1.0000
55.2400 285.0000 1.0000
55.2500 294.0000 1.0000
55.2600 297.0000 1.0000
55.2700 284.0000 1.0000
55.2800 287.0000 1.0000
55.2900 274.0000 1.0000
55.3000 275.0000 1.0000
55.3100 282.0000 1.0000
55.3200 288.0000 1.0000
55.3300 278.0000 1.0000
55.3400 297.0000 1.0000
55.3500 294.0000 1.0000
55.3600 298.0000 1.0000
55.3700 265.0000 1.0000
55.3800 292.0000 1.0000
55.3900 257.0000 1.0000
55.4000 280.0000 1.0000
55.4100 278.0000 1.0000
55.4200 284.0000 1.0000
55.4300 290.0000 1.0000
55.4400 266.0000 1.0000
55.4500 281.0000 1.0000
55.4600 272.0000 1.0000
55.4700 259.0000 1.0000
55.4800 281.0000 1.0000
55.4900 307.0000 1.0000
55.5000 287.0000 1.0000
55.5100 291.0000 1.0000
55.5200 278.0000 1.0000
55.5300 280.0000 1.0000
55.5400 264.0000 1.0000
55.5500 270.0000 1.0000
55.5600 300.0000 1.0000
55.5700 269.0000 1.0000
55.5800 279.0000 1.0000
55.5900 247.0000 1.0000
55.6000 302.0000 1.0000
55.6100 283.0000 1.0000
55.6200 285.0000 1.0000
55.6300 277.0000 1.0000
55.6400 274.0000 1.0000
55.6500 268.0000 1.0000
55.6600 297.0000 1.0000
55.6700 290.0000 1.0000
55.6800 264.0000 1.0000
55.6900 260.0000 1.0000
55.7000 250.0000 1.0000
55.7100 280.0000 1.0000
55.7200 265.0000 1.0000
55.7300 277.0000 1.0000
55.7400 264.0000 1.0000
55.7500 273.0000 1.0000
55.7600 311.0000 1.0000
55.7700 281.0000 1.0000
55.7800 237.0000 1.0000
55.7900 291.0000 1.0000
55.8000 289.0000 1.0000
55.8100 286.0000 1.0000
55.8200 282.0000 1.0000
55.8300 289.0000 1.0000
55.8400 262.0000 1.0000
55.8500 299.0000 1.0000
55.8600 285.0000 1.0000
55.8700 264.0000 1.0000
55.8800 286.0000 1.0000
55.8900 263.0000 1.0000
55.9000 260.0000 1.0000
55.9100 261.0000 1.0000
55.9200 274.0000 1.0000
55.9300 280.0000 1.0000
55.9400 277.0000 1.0000
55.9500 300.0000 1.0000
55.9600 280.0000 1.0000
55.9700 268.0000 1.0000
55.9800 283.0000 1.0000
55.9900 268.0000 1.0000
56.0000 288.0000 1.0000
56.0100 274.0000 1.0000
56.0200 282.0000 1.0000
56.0300 258.0000 1.0000
56.0400 260.0000 1.0000
56.0500 278.0000 1.0000
56.0600 272.0000 1.0000
56.0700 266.0000 1.0000
56.0800 275.0000 1.0000
56.0900 288.0000 1.0000
56.1000 276.0000 1.0000
56.1100 259.0000 1.0000
56.1200 252.0000 1.0000
56.1300 264.0000 1.0000
56.1400 271.0000 1.0000
56.1500 286.0000 1.0000
56.1600 274.0000 1.0000
56.1700 268.0000 1.0000
56.1800 273.0000 1.0000
56.1900 271.0000 1.0000
56.2000 267.0000 1.0000
56.2100 291.0000 1.0000
56.2200 263.0000 1.0000
56.2300 281.0000 1.0000
56.2400 264.0000 1.0000
56.2500 295.0000 1.0000
56.2600 280.0000 1.0000
56.2700 259.0000 1.0000
56.2800 281.0000 1.0000
56.2900 282.0000 1.0000
56.3000 264.0000 1.0000
56.3100 287.0000 1.0000
56.3200 289.0000 1.0000
56.3300 266.0000 1.0000
56.3400 262.0000 1.0000
56.3500 264.0000 1.0000
56.3600 271.0000 1.0000
56.3700 269.0000 1.0000
56.3800 284.0000 1.0000
56.3900 274.0000 1.0000
56.4000 251.0000 1.0000
56.4100 279.0000 1.0000
56.4200 291.0000 1.0000
56.4300 317.0000 1.0000
56.4400 275.0000 1.0000
56.4500 280.0000 1.0000
56.4600 279.0000 1.0000
56.4700 283.0000 1.0000
56.4800 290.0000 1.0000
56.4900 269.0000 1.0000
56.5000 282.0000 1.0000
56.5100 252.0000 1.0000
56.5200 259.0000 1.0000
56.5300 271.0000 1.0000
56.5400 288.0000 1.0000
56.5500 282.0000 1.0000
56.5600 286.0000 1.0000
56.5700 276.0000 1.0000
56.5800 290.0000 1.0000
56.5900 285.0000 1.0000
56.6000 269.0000 1.0000
56.6100 292.0000 1.0000
56.6200 286.0000 1.0000
56.6300 270.0000 1.0000
56.6400 277.0000 1.0000
56.6500 286.0000 1.0000
56.6600 291.0000 1.0000
56.6700 270.0000 1.0000
56.6800 284.0000 1.0000
56.6900 287.0000 1.0000
56.7000 264.0000 1.0000
56.7100 274.0000 1.0000
56.7200 275.0000 1.0000
56.7300 274.0000 1.0000
56.7400 283.0000 1.0000
56.7500 289.0000 1.0000
56.7600 269.0000 1.0000
56.7700 266.0000 1.0000
56.7800 258.0000 1.0000
56.7900 282.0000 1.0000
56.8000 276.0000 1.0000
56.8100 292.0000 1.0000
56.8200 274.0000 1.0000
56.8300 274.0000 1.0000
56.8400 259.0000 1.0000
56.8500 264.0000 1.0000
56.8600 279.0000 1.0000
56.8700 255.0000 1.0000
56.8800 270.0000 1.0000
56.8900 255.0000 1.0000
56.9000 254.0000 1.0000
56.9100 265.0000 1.0000
56.9200 271.0000 1.0000
56.9300 281.0000 1.0000
56.9400 275.0000 1.0000
56.9500 274.0000 1.0000
56.9600 287.0000 1.0000
56.9700 264.0000 1.0000
56.9800 254.0000 1.0000
56.9900 270.0000 1.0000
57.0000 278.0000 1.0000
57.0100 279.0000 1.0000
57.0200 273.0000 1.0000
57.0300 291.0000 1.0000
57.0400 293.0000 1.0000
57.0500 272.0000 1.0000
57.0600 271.0000 1.0000
57.0700 282.0000 1.0000
57.0800 286.0000 1.0000
57.0900 250.0000 1.0000
57.1000 281.0000 1.0000
57.1100 277.0000 1.0000
57.1200 252.0000 1.0000
57.1300 281.0000 1.0000
57.1400 284.0000 1.0000
57.1500 286.0000 1.0000
57.1600 273.0000 1.0000
57.1700 297.0000 1.0000
57.1800 280.0000 1.0000
57.1900 258.0000 1.0000
57.2000 263.0000 1.0000
57.2100 269.0000 1.0000
57.2200 310.0000 1.0000
57.2300 294.0000 1.0000
57.2400 253.0000 1.0000
57.2500 274.0000 1.0000
57.2600 266.0000 1.0000
57.2700 254.0000 1.0000
57.2800 279.0000 1.0000
57.2900 283.0000 1.0000
57.3000 279.0000 1.0000
57.3100 269.0000 1.0000
57.3200 292.0000 1.0000
57.3300 313.0000 1.0000
57.3400 282.0000 1.0000
57.3500 291.0000 1.0000
57.3600 264.0000 1.0000
57.3700 288.0000 1.0000
57.3800 290.0000 1.0000
57.3900 273.0000 1.0000
57.4000 272.0000 1.0000
57.4100 286.0000 1.0000
57.4200 258.0000 1.0000
57.4300 294.0000 1.0000
57.4400 268.0000 1.0000
57.4500 300.0000 1.0000
57.4600 277.0000 1.0000
57.4700 273.0000 1.0000
57.4800 247.0000 1.0000
57.4900 284.0000 1.0000
57.5000 270.0000 1.0000
57.5100 301.0000 1.0000
57.5200 279.0000 1.0000
57.5300 240.0000 1.0000
57.5400 270.0000 1.0000
57.5500 273.0000 1.0000
57.5600 263.0000 1.0000
57.5700 274.0000 1.0000
57.5800 287.0000 1.0000
57.5900 318.0000 1.0000
57.6000 293.0000 1.0000
57.6100 284.0000 1.0000
57.6200 298.0000 1.0000
57.6300 289.0000 1.0000
57.6400 269.0000 1.0000
57.6500 290.0000 1.0000
57.6600 293.0000 1.0000
57.6700 267.0000 1.0000
57.6800 301.0000 1.0000
57.6900 285.0000 1.0000
57.7000 288.0000 1.0000
57.7100 253.0000 1.0000
57.7200 288.0000 1.0000
57.7300 302.0000 1.0000
57.7400 257.0000 1.0000
57.7500 263.0000 1.0000
57.7600 256.0000 1.0000
57.7700 305.0000 1.0000
57.7800 269.0000 1.0000
57.7900 279.0000 1.0000
57.8000 256.0000 1.0000
57.8100 254.0000 1.0000
57.8200 278.0000 1.0000
57.8300 290.0000 1.0000
57.8400 269.0000 1.0000
57.8500 273.0000 1.0000
57.8600 272.0000 1.0000
57.8700 277.0000 1.0000
57.8800 265.0000 1.0000
57.8900 274.0000 1.0000
57.9000 252.0000 1.0000
57.9100 262.0000 1.0000
57.9200 264.0000 1.0000
57.9300 288.0000 1.0000
57.9400 282.0000 1.0000
57.9500 286.0000 1.0000
57.9600 274.0000 1.0000
57.9700 241.0000 1.0000
57.9800 266.0000 1.0000
57.9900 272.0000 1.0000
58.0000 284.0000 1.0000
58.0100 271.0000 1.0000
58.0200 265.0000 1.0000
58.0300 299.0000 1.0000
58.0400 287.0000 1.0000
58.0500 271.0000 1.0000
58.0600 279.0000 1.0000
58.0700 275.0000 1.0000
58.0800 266.0000 1.0000
58.0900 269.0000 1.0000
58.1000 281.0000 1.0000
58.1100 242.0000 1.0000
58.1200 269.0000 1.0000
58.1300 259.0000 1.0000
58.1400 264.0000 1.0000
58.1500 295.0000 1.0000
58.1600 255.0000 1.0000
58.1700 251.0000 1.0000
58.1800 251.0000 1.0000
58.1900 264.0000 1.0000
58.2000 271.0000 1.0000
58.2100 277.0000 1.0000
58.2200 292.0000 1.0000
58.2300 286.0000 1.0000
58.2400 283.0000 1.0000
58.2500 275.0000 1.0000
58.2600 290.0000 1.0000
58.2700 294.0000 1.0000
58.2800 246.0000 1.0000
58.2900 269.0000 1.0000
58.3000 281.0000 1.0000
58.3100 284.0000 1.0000
58.3200 261.0000 1.0000
58.3300 273.0000 1.0000
58.3400 254.0000 1.0000
58.3500 271.0000 1.0000
58.3600 269.0000 1.0000
58.3700 262.0000 1.0000
58.3800 258.0000 1.0000
58.3900 263.0000 1.0000
58.4000 245.0000 1.0000
58.4100 288.0000 1.0000
58.4200 263.0000 1.0000
58.4300 276.0000 1.0000
58.4400 274.0000 1.0000
58.4500 279.0000 1.0000
58.4600 268.0000 1.0000
58.4700 281.0000 1.0000
58.4800 272.0000 1.0000
58.4900 280.0000 1.0000
58.5000 276.0000 1.0000
58.5100 274.0000 1.0000
58.5200 279.0000 1.0000
58.5300 265.0000 1.0000
58.5400 269.0000 1.0000
58.5500 286.0000 1.0000
58.5600 278.0000 1.0000
58.5700 281.0000 1.0000
58.5800 262.0000 1.0000
58.5900 268.0000 1.0000
58.6000 280.0000 1.0000
58.6100 271.0000 1.0000
58.6200 278.0000 1.0000
58.6300 272.0000 1.0000
58.6400 270.0000 1.0000
58.6500 266.0000 1.0000
58.6600 259.0000 1.0000
58.6700 263.0000 1.0000
58.6800 262.0000 1.0000
58.6900 276.0000 1.0000
58.7000 290.0000 1.0000
58.7100 258.0000 1.0000
58.7200 250.0000 1.0000
58.7300 251.0000 1.0000
58.7400 239.0000 1.0000
58.7500 279.0000 1.0000
58.7600 276.0000 1.0000
58.7700 270.0000 1.0000
58.7800 273.0000 1.0000
58.7900 261.0000 1.0000
58.8000 285.0000 1.0000
58.8100 265.0000 1.0000
58.8200 269.0000 1.0000
58.8300 275.0000 1.0000
58.8400 272.0000 1.0000
58.8500 265.0000 1.0000
58.8600 272.0000 1.0000
58.8700 273.0000 1.0000
58.8800 249.0000 1.0000
58.8900 262.0000 1.0000
58.9000 262.0000 1.0000
58.9100 273.0000 1.0000
58.9200 253.0000 1.0000
58.9300 273.0000 1.0000
58.9400 262.0000 1.0000
58.9500 246.0000 1.0000
58.9600 235.0000 1.0000
58.9700 274.0000 1.0000
58.9800 267.0000 1.0000
58.9900 292.0000 1.0000
59.0000 290.0000 1.0000
59.0100 267.0000 1.0000
59.0200 256.0000 1.0000
59.0300 295.0000 1.0000
59.0400 278.0000 1.0000
59.0500 270.0000 1.0000
59.0600 259.0000 1.0000
59.0700 284.0000 1.0000
59.0800 280.0000 1.0000
59.0900 281.0000 1.0000
59.1000 275.0000 1.0000
59.1100 265.0000 1.0000
59.1200 272.0000 1.0000
59.1300 264.0000 1.0000
59.1400 279.0000 1.0000
59.1500 261.0000 1.0000
59.1600 265.0000 1.0000
59.1700 246.0000 1.0000
59.1800 268.0000 1.0000
59.1900 270.0000 1.0000
59.2000 290.0000 1.0000
59.2100 277.0000 1.0000
59.2200 269.0000 1.0000
59.2300 250.0000 1.0000
59.2400 272.0000 1.0000
59.2500 265.0000 1.0000
59.2600 280.0000 1.0000
59.2700 273.0000 1.0000
59.2800 245.0000 1.0000
59.2900 306.0000 1.0000
59.3000 288.0000 1.0000
59.3100 246.0000 1.0000
59.3200 286.0000 1.0000
59.3300 276.0000 1.0000
59.3400 237.0000 1.0000
59.3500 274.0000 1.0000
59.3600 277.0000 1.0000
59.3700 267.0000 1.0000
59.3800 274.0000 1.0000
59.3900 275.0000 1.0000
59.4000 296.0000 1.0000
59.4100 266.0000 1.0000
59.4200 278.0000 1.0000
59.4300 282.0000 1.0000
59.4400 258.0000 1.0000
59.4500 259.0000 1.0000
59.4600 274.0000 1.0000
59.4700 266.0000 1.0000
59.4800 274.0000 1.0000
59.4900 267.0000 1.0000
59.5000 273.0000 1.0000
59.5100 249.0000 1.0000
59.5200 288.0000 1.0000
59.5300 275.0000 1.0000
59.5400 273.0000 1.0000
59.5500 291.0000 1.0000
59.5600 280.0000 1.0000
59.5700 272.0000 1.0000
59.5800 271.0000 1.0000
59.5900 252.0000 1.0000
59.6000 284.0000 1.0000
59.6100 271.0000 1.0000
59.6200 261.0000 1.0000
59.6300 276.0000 1.0000
59.6400 231.0000 1.0000
59.6500 292.0000 1.0000
59.6600 284.0000 1.0000
59.6700 264.0000 1.0000
59.6800 286.0000 1.0000
59.6900 286.0000 1.0000
59.7000 281.0000 1.0000
59.7100 270.0000 1.0000
59.7200 295.0000 1.0000
59.7300 245.0000 1.0000
59.7400 262.0000 1.0000
59.7500 258.0000 1.0000
59.7600 246.0000 1.0000
59.7700 247.0000 1.0000
59.7800 290.0000 1.0000
59.7900 292.0000 1.0000
59.8000 261.0000 1.0000
59.8100 267.0000 1.0000
59.8200 265.0000 1.0000
59.8300 264.0000 1.0000
59.8400 267.0000 1.0000
59.8500 263.0000 1.0000
59.8600 285.0000 1.0000
59.8700 244.0000 1.0000
59.8800 270.0000 1.0000
59.8900 256.0000 1.0000
59.9000 264.0000 1.0000
59.9100 265.0000 1.0000
59.9200 253.0000 1.0000
59.9300 294.0000 1.0000
59.9400 268.0000 1.0000
59.9500 290.0000 1.0000
59.9600 268.0000 1.0000
59.9700 280.0000 1.0000
59.9800 258.0000 1.0000
59.9900 270.0000 1.0000
60.0000 282.0000 1.0000
60.0100 278.0000 1.0000
60.0200 267.0000 1.0000
60.0300 256.0000 1.0000
60.0400 274.0000 1.0000
60.0500 251.0000 1.0000
60.0600 269.0000 1.0000
60.0700 294.0000 1.0000
60.0800 268.0000 1.0000
60.0900 269.0000 1.0000
60.1000 252.0000 1.0000
60.1100 274.0000 1.0000
60.1200 248.0000 1.0000
60.1300 266.0000 1.0000
60.1400 281.0000 1.0000
60.1500 244.0000 1.0000
60.1600 265.0000 1.0000
60.1700 275.0000 1.0000
60.1800 291.0000 1.0000
60.1900 259.0000 1.0000
60.2000 274.0000 1.0000
60.2100 273.0000 1.0000
60.2200 275.0000 1.0000
60.2300 283.0000 1.0000
60.2400 276.0000 1.0000
60.2500 294.0000 1.0000
60.2600 271.0000 1.0000
60.2700 268.0000 1.0000
60.2800 249.0000 1.0000
60.2900 249.0000 1.0000
60.3000 250.0000 1.0000
60.3100 257.0000 1.0000
60.3200 249.0000 1.0000
60.3300 281.0000 1.0000
60.3400 272.0000 1.0000
60.3500 288.0000 1.0000
60.3600 259.0000 1.0000
60.3700 271.0000 1.0000
60.3800 265.0000 1.0000
60.3900 287.0000 1.0000
60.4000 280.0000 1.0000
60.4100 273.0000 1.0000
60.4200 282.0000 1.0000
60.4300 300.0000 1.0000
60.4400 307.0000 1.0000
60.4500 296.0000 1.0000
60.4600 248.0000 1.0000
60.4700 259.0000 1.0000
60.4800 304.0000 1.0000
60.4900 280.0000 1.0000
60.5000 276.0000 1.0000
60.5100 284.0000 1.0000
60.5200 262.0000 1.0000
60.5300 289.0000 1.0000
60.5400 274.0000 1.0000
60.5500 262.0000 1.0000
60.5600 274.0000 1.0000
60.5700 274.0000 1.0000
60.5800 276.0000 1.0000
60.5900 283.0000 1.0000
60.6000 249.0000 1.0000
60.6100 281.0000 1.0000
60.6200 249.0000 1.0000
60.6300 249.0000 1.0000
60.6400 270.0000 1.0000
60.6500 267.0000 1.0000
60.6600 279.0000 1.0000
60.6700 270.0000 1.0000
60.6800 261.0000 1.0000
60.6900 271.0000 1.0000
60.7000 293.0000 1.0000
60.7100 267.0000 1.0000
60.7200 283.0000 1.0000
60.7300 259.0000 1.0000
60.7400 287.0000 1.0000
60.7500 270.0000 1.0000
60.7600 273.0000 1.0000
60.7700 289.0000 1.0000
60.7800 298.0000 1.0000
60.7900 282.0000 1.0000
60.8000 292.0000 1.0000
60.8100 297.0000 1.0000
60.8200 275.0000 1.0000
60.8300 264.0000 1.0000
60.8400 270.0000 1.0000
60.8500 277.0000 1.0000
60.8600 290.0000 1.0000
60.8700 300.0000 1.0000
60.8800 287.0000 1.0000
60.8900 293.0000 1.0000
60.9000 279.0000 1.0000
60.9100 284.0000 1.0000
60.9200 285.0000 1.0000
60.9300 272.0000 1.0000
60.9400 267.0000 1.0000
60.9500 296.0000 1.0000
60.9600 294.0000 1.0000
60.9700 285.0000 1.0000
60.9800 298.0000 1.0000
60.9900 284.0000 1.0000
61.0000 282.0000 1.0000
61.0100 292.0000 1.0000
61.0200 299.0000 1.0000
61.0300 303.0000 1.0000
61.0400 291.0000 1.0000
61.0500 301.0000 1.0000
61.0600 264.0000 1.0000
61.0700 285.0000 1.0000
61.0800 307.0000 1.0000
61.0900 287.0000 1.0000
61.1000 300.0000 1.0000
61.1100 308.0000 1.0000
61.1200 289.0000 1.0000
61.1300 310.0000 1.0000
61.1400 305.0000 1.0000
61.1500 333.0000 1.0000
61.1600 331.0000 1.0000
61.1700 309.0000 1.0000
61.1800 303.0000 1.0000
61.1900 299.0000 1.0000
61.2000 346.0000 1.0000
61.2100 342.0000 1.0000
61.2200 319.0000 1.0000
61.2300 307.0000 1.0000
61.2400 327.0000 1.0000
61.2500 330.0000 1.0000
61.2600 324.0000 1.0000
61.2700 325.0000 1.0000
61.2800 340.0000 1.0000
61.2900 350.0000 1.0000
61.3000 358.0000 1.0000
61.3100 388.0000 1.0000
61.3200 367.0000 1.0000
61.3300 350.0000 1.0000
61.3400 358.0000 1.0000
61.3500 349.0000 1.0000
61.3600 378.0000 1.0000
61.3700 414.0000 1.0000
61.3800 397.0000 1.0000
61.3900 407.0000 1.0000
61.4000 394.0000 1.0000
61.4100 409.0000 1.0000
61.4200 445.0000 1.0000
61.4300 462.0000 1.0000
61.4400 436.0000 1.0000
61.4500 454.0000 1.0000
61.4600 462.0000 1.0000
61.4700 475.0000 1.0000
61.4800 476.0000 1.0000
61.4900 475.0000 1.0000
61.5000 453.0000 1.0000
61.5100 476.0000 1.0000
61.5200 487.0000 1.0000
61.5300 517.0000 1.0000
61.5400 474.0000 1.0000
61.5500 516.0000 1.0000
61.5600 541.0000 1.0000
61.5700 513.0000 1.0000
61.5800 542.0000 1.0000
61.5900 500.0000 1.0000
61.6000 509.0000 1.0000
61.6100 522.0000 1.0000
61.6200 542.0000 1.0000
61.6300 524.0000 1.0000
61.6400 544.0000 1.0000
61.6500 525.0000 1.0000
61.6600 513.0000 1.0000
61.6700 516.0000 1.0000
61.6800 509.0000 1.0000
61.6900 499.0000 1.0000
61.7000 514.0000 1.0000
61.7100 497.0000 1.0000
61.7200 473.0000 1.0000
61.7300 469.0000 1.0000
61.7400 454.0000 1.0000
61.7500 468.0000 1.0000
61.7600 473.0000 1.0000
61.7700 470.0000 1.0000
61.7800 472.0000 1.0000
61.7900 444.0000 1.0000
61.8000 434.0000 1.0000
61.8100 432.0000 1.0000
61.8200 425.0000 1.0000
61.8300 430.0000 1.0000
61.8400 408.0000 1.0000
61.8500 402.0000 1.0000
61.8600 409.0000 1.0000
61.8700 384.0000 1.0000
61.8800 397.0000 1.0000
61.8900 403.0000 1.0000
61.9000 399.0000 1.0000
61.9100 378.0000 1.0000
61.9200 368.0000 1.0000
61.9300 345.0000 1.0000
61.9400 402.0000 1.0000
61.9500 361.0000 1.0000
61.9600 357.0000 1.0000
61.9700 357.0000 1.0000
61.9800 350.0000 1.0000
61.9900 349.0000 1.0000
62.0000 358.0000 1.0000
62.0100 346.0000 1.0000
62.0200 308.0000 1.0000
62.0300 323.0000 1.0000
62.0400 310.0000 1.0000
62.0500 322.0000 1.0000
62.0600 339.0000 1.0000
62.0700 300.0000 1.0000
62.0800 332.0000 1.0000
62.0900 328.0000 1.0000
62.1000 338.0000 1.0000
62.1100 334.0000 1.0000
62.1200 314.0000 1.0000
62.1300 314.0000 1.0000
62.1400 315.0000 1.0000
62.1500 314.0000 1.0000
62.1600 316.0000 1.0000
62.1700 340.0000 1.0000
62.1800 340.0000 1.0000
62.1900 314.0000 1.0000
62.2000 330.0000 1.0000
62.2100 319.0000 1.0000
62.2200 329.0000 1.0000
62.2300 318.0000 1.0000
62.2400 360.0000 1.0000
62.2500 329.0000 1.0000
62.2600 324.0000 1.0000
62.2700 330.0000 1.0000
62.2800 332.0000 1.0000
62.2900 324.0000 1.0000
62.3000 328.0000 1.0000
62.3100 319.0000 1.0000
62.3200 333.0000 1.0000
62.3300 346.0000 1.0000
62.3400 318.0000 1.0000
62.3500 359.0000 1.0000
62.3600 357.0000 1.0000
62.3700 358.0000 1.0000
62.3800 348.0000 1.0000
62.3900 345.0000 1.0000
62.4000 340.0000 1.0000
62.4100 339.0000 1.0000
62.4200 335.0000 1.0000
62.4300 321.0000 1.0000
62.4400 318.0000 1.0000
62.4500 309.0000 1.0000
62.4600 289.0000 1.0000
62.4700 310.0000 1.0000
62.4800 338.0000 1.0000
62.4900 329.0000 1.0000
62.5000 328.0000 1.0000
62.5100 291.0000 1.0000
62.5200 296.0000 1.0000
62.5300 307.0000 1.0000
62.5400 296.0000 1.0000
62.5500 316.0000 1.0000
62.5600 323.0000 1.0000
62.5700 319.0000 1.0000
62.5800 305.0000 1.0000
62.5900 317.0000 1.0000
62.6000 312.0000 1.0000
62.6100 302.0000 1.0000
62.6200 355.0000 1.0000
62.6300 326.0000 1.0000
62.6400 295.0000 1.0000
62.6500 299.0000 1.0000
62.6600 287.0000 1.0000
62.6700 256.0000 1.0000
62.6800 302.0000 1.0000
62.6900 283.0000 1.0000
62.7000 284.0000 1.0000
62.7100 302.0000 1.0000
62.7200 268.0000 1.0000
62.7300 308.0000 1.0000
62.7400 294.0000 1.0000
62.7500 287.0000 1.0000
62.7600 287.0000 1.0000
62.7700 265.0000 1.0000
62.7800 283.0000 1.0000
62.7900 268.0000 1.0000
62.8000 268.0000 1.0000
62.8100 296.0000 1.0000
62.8200 245.0000 1.0000
62.8300 248.0000 1.0000
62.8400 253.0000 1.0000
62.8500 262.0000 1.0000
62.8600 270.0000 1.0000
62.8700 271.0000 1.0000
62.8800 293.0000 1.0000
62.8900 254.0000 1.0000
62.9000 254.0000 1.0000
62.9100 262.0000 1.0000
62.9200 273.0000 1.0000
62.9300 284.0000 1.0000
62.9400 286.0000 1.0000
62.9500 258.0000 1.0000
62.9600 290.0000 1.0000
62.9700 259.0000 1.0000
62.9800 270.0000 1.0000
62.9900 278.0000 1.0000
63.0000 295.0000 1.0000
63.0100 280.0000 1.0000
63.0200 277.0000 1.0000
63.0300 279.0000 1.0000
63.0400 274.0000 1.0000
63.0500 283.0000 1.0000
63.0600 310.0000 1.0000
63.0700 255.0000 1.0000
63.0800 273.0000 1.0000
63.0900 259.0000 1.0000
63.1000 271.0000 1.0000
63.1100 288.0000 1.0000
63.1200 264.0000 1.0000
63.1300 301.0000 1.0000
63.1400 253.0000 1.0000
63.1500 260.0000 1.0000
63.1600 302.0000 1.0000
63.1700 283.0000 1.0000
63.1800 257.0000 1.0000
63.1900 274.0000 1.0000
63.2000 282.0000 1.0000
63.2100 253.0000 1.0000
63.2200 248.0000 1.0000
63.2300 252.0000 1.0000
63.2400 249.0000 1.0000
63.2500 269.0000 1.0000
63.2600 301.0000 1.0000
63.2700 252.0000 1.0000
63.2800 259.0000 1.0000
63.2900 263.0000 1.0000
63.3000 249.0000 1.0000
63.3100 258.0000 1.0000
63.3200 276.0000 1.0000
63.3300 273.0000 1.0000
63.3400 274.0000 1.0000
63.3500 239.0000 1.0000
63.3600 265.0000 1.0000
63.3700 287.0000 1.0000
63.3800 289.0000 1.0000
63.3900 283.0000 1.0000
63.4000 243.0000 1.0000
63.4100 281.0000 1.0000
63.4200 265.0000 1.0000
63.4300 274.0000 1.0000
63.4400 257.0000 1.0000
63.4500 283.0000 1.0000
63.4600 280.0000 1.0000
63.4700 259.0000 1.0000
63.4800 268.0000 1.0000
63.4900 269.0000 1.0000
63.5000 285.0000 1.0000
63.5100 283.0000 1.0000
63.5200 283.0000 1.0000
63.5300 270.0000 1.0000
63.5400 254.0000 1.0000
63.5500 265.0000 1.0000
63.5600 249.0000 1.0000
63.5700 289.0000 1.0000
63.5800 291.0000 1.0000
63.5900 260.0000 1.0000
63.6000 290.0000 1.0000
63.6100 272.0000 1.0000
63.6200 285.0000 1.0000
63.6300 286.0000 1.0000
63.6400 275.0000 1.0000
63.6500 274.0000 1.0000
63.6600 243.0000 1.0000
63.6700 278.0000 1.0000
63.6800 281.0000 1.0000
63.6900 261.0000 1.0000
63.7000 282.0000 1.0000
63.7100 300.0000 1.0000
63.7200 303.0000 1.0000
63.7300 315.0000 1.0000
63.7400 284.0000 1.0000
63.7500 311.0000 1.0000
63.7600 326.0000 1.0000
63.7700 324.0000 1.0000
63.7800 293.0000 1.0000
63.7900 295.0000 1.0000
63.8000 305.0000 1.0000
63.8100 344.0000 1.0000
63.8200 302.0000 1.0000
63.8300 318.0000 1.0000
63.8400 319.0000 1.0000
63.8500 307.0000 1.0000
63.8600 319.0000 1.0000
63.8700 350.0000 1.0000
63.8800 362.0000 1.0000
63.8900 322.0000 1.0000
63.9000 346.0000 1.0000
63.9100 359.0000 1.0000
63.9200 357.0000 1.0000
63.9300 350.0000 1.0000
63.9400 354.0000 1.0000
63.9500 379.0000 1.0000
63.9600 374.0000 1.0000
63.9700 353.0000 1.0000
63.9800 353.0000 1.0000
63.9900 355.0000 1.0000
64.0000 328.0000 1.0000
64.0100 376.0000 1.0000
64.0200 345.0000 1.0000
64.0300 331.0000 1.0000
64.0400 373.0000 1.0000
64.0500 373.0000 1.0000
64.0600 339.0000 1.0000
64.0700 340.0000 1.0000
64.0800 347.0000 1.0000
64.0900 340.0000 1.0000
64.1000 323.0000 1.0000
64.1100 322.0000 1.0000
64.1200 335.0000 1.0000
64.1300 344.0000 1.0000
64.1400 308.0000 1.0000
64.1500 329.0000 1.0000
64.1600 294.0000 1.0000
64.1700 309.0000 1.0000
64.1800 326.0000 1.0000
64.1900 314.0000 1.0000
64.2000 308.0000 1.0000
64.2100 306.0000 1.0000
64.2200 318.0000 1.0000
64.2300 291.0000 1.0000
64.2400 300.0000 1.0000
64.2500 293.0000 1.0000
64.2600 301.0000 1.0000
64.2700 291.0000 1.0000
64.2800 297.0000 1.0000
64.2900 285.0000 1.0000
64.3000 301.0000 1.0000
64.3100 300.0000 1.0000
64.3200 287.0000 1.0000
64.3300 296.0000 1.0000
64.3400 265.0000 1.0000
64.3500 277.0000 1.0000
64.3600 303.0000 1.0000
64.3700 285.0000 1.0000
64.3800 262.0000 1.0000
64.3900 271.0000 1.0000
64.4000 255.0000 1.0000
64.4100 276.0000 1.0000
64.4200 261.0000 1.0000
64.4300 260.0000 1.0000
64.4400 286.0000 1.0000
64.4500 266.0000 1.0000
64.4600 288.0000 1.0000
64.4700 261.0000 1.0000
64.4800 268.0000 1.0000
64.4900 305.0000 1.0000
64.5000 257.0000 1.0000
64.5100 264.0000 1.0000
64.5200 287.0000 1.0000
64.5300 277.0000 1.0000
64.5400 299.0000 1.0000
64.5500 304.0000 1.0000
64.5600 281.0000 1.0000
64.5700 259.0000 1.0000
64.5800 272.0000 1.0000
64.5900 261.0000 1.0000
64.6000 279.0000 1.0000
64.6100 284.0000 1.0000
64.6200 249.0000 1.0000
64.6300 256.0000 1.0000
64.6400 275.0000 1.0000
64.6500 258.0000 1.0000
64.6600 275.0000 1.0000
64.6700 298.0000 1.0000
64.6800 280.0000 1.0000
64.6900 284.0000 1.0000
64.7000 275.0000 1.0000
64.7100 271.0000 1.0000
64.7200 265.0000 1.0000
64.7300 290.0000 1.0000
64.7400 272.0000 1.0000
64.7500 281.0000 1.0000
64.7600 275.0000 1.0000
64.7700 320.0000 1.0000
64.7800 300.0000 1.0000
64.7900 308.0000 1.0000
64.8000 263.0000 1.0000
64.8100 283.0000 1.0000
64.8200 290.0000 1.0000
64.8300 288.0000 1.0000
64.8400 284.0000 1.0000
64.8500 281.0000 1.0000
64.8600 286.0000 1.0000
64.8700 275.0000 1.0000
64.8800 298.0000 1.0000
64.8900 305.0000 1.0000
64.9000 308.0000 1.0000
64.9100 290.0000 1.0000
64.9200 272.0000 1.0000
64.9300 293.0000 1.0000
64.9400 290.0000 1.0000
64.9500 301.0000 1.0000
64.9600 298.0000 1.0000
64.9700 305.0000 1.0000
64.9800 284.0000 1.0000
64.9900 301.0000 1.0000
65.0000 301.0000 1.0000
65.0100 304.0000 1.0000
65.0200 291.0000 1.0000
65.0300 304.0000 1.0000
65.0400 325.0000 1.0000
65.0500 330.0000 1.0000
65.0600 310.0000 1.0000
65.0700 309.0000 1.0000
65.0800 335.0000 1.0000
65.0900 321.0000 1.0000
65.1000 311.0000 1.0000
65.1100 334.0000 1.0000
65.1200 310.0000 1.0000
65.1300 337.0000 1.0000
65.1400 338.0000 1.0000
65.1500 334.0000 1.0000
65.1600 343.0000 1.0000
65.1700 356.0000 1.0000
65.1800 381.0000 1.0000
65.1900 348.0000 1.0000
65.2000 368.0000 1.0000
65.2100 383.0000 1.0000
65.2200 375.0000 1.0000
65.2300 353.0000 1.0000
65.2400 377.0000 1.0000
65.2500 388.0000 1.0000
65.2600 412.0000 1.0000
65.2700 390.0000 1.0000
65.2800 394.0000 1.0000
65.2900 423.0000 1.0000
65.3000 440.0000 1.0000
65.3100 427.0000 1.0000
65.3200 458.0000 1.0000
65.3300 473.0000 1.0000
65.3400 506.0000 1.0000
65.3500 491.0000 1.0000
65.3600 527.0000 1.0000
65.3700 517.0000 1.0000
65.3800 537.0000 1.0000
65.3900 602.0000 1.0000
65.4000 617.0000 1.0000
65.4100 589.0000 1.0000
65.4200 621.0000 1.0000
65.4300 678.0000 1.0000
65.4400 716.0000 1.0000
65.4500 682.0000 1.0000
65.4600 763.0000 1.0000
65.4700 730.0000 1.0000
65.4800 759.0000 1.0000
65.4900 810.0000 1.0000
65.5000 801.0000 1.0000
65.5100 805.0000 1.0000
65.5200 797.0000 1.0000
65.5300 782.0000 1.0000
65.5400 739.0000 1.0000
65.5500 783.0000 1.0000
65.5600 761.0000 1.0000
65.5700 722.0000 1.0000
65.5800 754.0000 1.0000
65.5900 756.0000 1.0000
65.6000 721.0000 1.0000
65.6100 688.0000 1.0000
65.6200 681.0000 1.0000
65.6300 709.0000 1.0000
65.6400 711.0000 1.0000
65.6500 694.0000 1.0000
65.6600 701.0000 1.0000
65.6700 625.0000 1.0000
65.6800 638.0000 1.0000
65.6900 632.0000 1.0000
65.7000 667.0000 1.0000
65.7100 633.0000 1.0000
65.7200 617.0000 1.0000
65.7300 598.0000 1.0000
65.7400 571.0000 1.0000
65.7500 546.0000 1.0000
65.7600 528.0000 1.0000
65.7700 501.0000 1.0000
65.7800 489.0000 1.0000
65.7900 486.0000 1.0000
65.8000 466.0000 1.0000
65.8100 456.0000 1.0000
65.8200 432.0000 1.0000
65.8300 440.0000 1.0000
65.8400 444.0000 1.0000
65.8500 430.0000 1.0000
65.8600 387.0000 1.0000
65.8700 407.0000 1.0000
65.8800 394.0000 1.0000
65.8900 393.0000 1.0000
65.9000 381.0000 1.0000
65.9100 361.0000 1.0000
65.9200 365.0000 1.0000
65.9300 360.0000 1.0000
65.9400 348.0000 1.0000
65.9500 356.0000 1.0000
65.9600 336.0000 1.0000
65.9700 323.0000 1.0000
65.9800 345.0000 1.0000
65.9900 350.0000 1.0000
66.0000 316.0000 1.0000
66.0100 297.0000 1.0000
66.0200 316.0000 1.0000
66.0300 340.0000 1.0000
66.0400 301.0000 1.0000
66.0500 291.0000 1.0000
66.0600 316.0000 1.0000
66.0700 301.0000 1.0000
66.0800 333.0000 1.0000
66.0900 313.0000 1.0000
66.1000 322.0000 1.0000
66.1100 287.0000 1.0000
66.1200 313.0000 1.0000
66.1300 303.0000 1.0000
66.1400 309.0000 1.0000
66.1500 270.0000 1.0000
66.1600 307.0000 1.0000
66.1700 295.0000 1.0000
66.1800 282.0000 1.0000
66.1900 261.0000 1.0000
66.2000 289.0000 1.0000
66.2100 294.0000 1.0000
66.2200 273.0000 1.0000
66.2300 275.0000 1.0000
66.2400 282.0000 1.0000
66.2500 274.0000 1.0000
66.2600 288.0000 1.0000
66.2700 267.0000 1.0000
66.2800 281.0000 1.0000
66.2900 258.0000 1.0000
66.3000 288.0000 1.0000
66.3100 301.0000 1.0000
66.3200 287.0000 1.0000
66.3300 262.0000 1.0000
66.3400 287.0000 1.0000
66.3500 249.0000 1.0000
66.3600 267.0000 1.0000
66.3700 269.0000 1.0000
66.3800 274.0000 1.0000
66.3900 291.0000 1.0000
66.4000 262.0000 1.0000
66.4100 254.0000 1.0000
66.4200 253.0000 1.0000
66.4300 256.0000 1.0000
66.4400 274.0000 1.0000
66.4500 244.0000 1.0000
66.4600 268.0000 1.0000
66.4700 293.0000 1.0000
66.4800 271.0000 1.0000
66.4900 263.0000 1.0000
66.5000 252.0000 1.0000
66.5100 269.0000 1.0000
66.5200 246.0000 1.0000
66.5300 261.0000 1.0000
66.5400 274.0000 1.0000
66.5500 245.0000 1.0000
66.5600 245.0000 1.0000
66.5700 271.0000 1.0000
66.5800 272.0000 1.0000
66.5900 247.0000 1.0000
66.6000 241.0000 1.0000
66.6100 236.0000 1.0000
66.6200 262.0000 1.0000
66.6300 270.0000 1.0000
66.6400 259.0000 1.0000
66.6500 273.0000 1.0000
66.6600 280.0000 1.0000
66.6700 275.0000 1.0000
66.6800 271.0000 1.0000
66.6900 234.0000 1.0000
66.7000 221.0000 1.0000
66.7100 261.0000 1.0000
66.7200 259.0000 1.0000
66.7300 256.0000 1.0000
66.7400 278.0000 1.0000
66.7500 259.0000 1.0000
66.7600 246.0000 1.0000
66.7700 255.0000 1.0000
66.7800 247.0000 1.0000
66.7900 245.0000 1.0000
66.8000 275.0000 1.0000
66.8100 239.0000 1.0000
66.8200 280.0000 1.0000
66.8300 262.0000 1.0000
66.8400 254.0000 1.0000
66.8500 276.0000 1.0000
66.8600 246.0000 1.0000
66.8700 258.0000 1.0000
66.8800 234.0000 1.0000
66.8900 238.0000 1.0000
66.9000 210.0000 1.0000
66.9100 245.0000 1.0000
66.9200 253.0000 1.0000
66.9300 232.0000 1.0000
66.9400 255.0000 1.0000
66.9500 249.0000 1.0000
66.9600 226.0000 1.0000
66.9700 261.0000 1.0000
66.9800 250.0000 1.0000
66.9900 260.0000 1.0000
67.0000 281.0000 1.0000
67.0100 250.0000 1.0000
67.0200 251.0000 1.0000
67.0300 245.0000 1.0000
67.0400 269.0000 1.0000
67.0500 253.0000 1.0000
67.0600 245.0000 1.0000
67.0700 239.0000 1.0000
67.0800 227.0000 1.0000
67.0900 262.0000 1.0000
67.1000 262.0000 1.0000
67.1100 279.0000 1.0000
67.1200 243.0000 1.0000
67.1300 268.0000 1.0000
67.1400 250.0000 1.0000
67.1500 252.0000 1.0000
67.1600 235.0000 1.0000
67.1700 258.0000 1.0000
67.1800 277.0000 1.0000
67.1900 239.0000 1.0000
67.2000 269.0000 1.0000
67.2100 286.0000 1.0000
67.2200 258.0000 1.0000
67.2300 230.0000 1.0000
67.2400 253.0000 1.0000
67.2500 259.0000 1.0000
67.2600 247.0000 1.0000
67.2700 256.0000 1.0000
67.2800 268.0000 1.0000
67.2900 270.0000 1.0000
67.3000 250.0000 1.0000
67.3100 230.0000 1.0000
67.3200 238.0000 1.0000
67.3300 229.0000 1.0000
67.3400 248.0000 1.0000
67.3500 241.0000 1.0000
67.3600 254.0000 1.0000
67.3700 245.0000 1.0000
67.3800 249.0000 1.0000
67.3900 240.0000 1.0000
67.4000 251.0000 1.0000
67.4100 258.0000 1.0000
67.4200 256.0000 1.0000
67.4300 265.0000 1.0000
67.4400 240.0000 1.0000
67.4500 255.0000 1.0000
67.4600 236.0000 1.0000
67.4700 226.0000 1.0000
67.4800 244.0000 1.0000
67.4900 251.0000 1.0000
67.5000 235.0000 1.0000
67.5100 251.0000 1.0000
67.5200 247.0000 1.0000
67.5300 231.0000 1.0000
67.5400 230.0000 1.0000
67.5500 245.0000 1.0000
67.5600 255.0000 1.0000
67.5700 250.0000 1.0000
67.5800 236.0000 1.0000
67.5900 244.0000 1.0000
67.6000 250.0000 1.0000
67.6100 239.0000 1.0000
67.6200 246.0000 1.0000
67.6300 260.0000 1.0000
67.6400 232.0000 1.0000
67.6500 256.0000 1.0000
67.6600 265.0000 1.0000
67.6700 253.0000 1.0000
67.6800 235.0000 1.0000
67.6900 239.0000 1.0000
67.7000 234.0000 1.0000
67.7100 259.0000 1.0000
67.7200 257.0000 1.0000
67.7300 249.0000 1.0000
67.7400 253.0000 1.0000
67.7500 235.0000 1.0000
67.7600 235.0000 1.0000
67.7700 228.0000 1.0000
67.7800 273.0000 1.0000
67.7900 258.0000 1.0000
67.8000 229.0000 1.0000
67.8100 258.0000 1.0000
67.8200 253.0000 1.0000
67.8300 253.0000 1.0000
67.8400 260.0000 1.0000
67.8500 294.0000 1.0000
67.8600 237.0000 1.0000
67.8700 248.0000 1.0000
67.8800 230.0000 1.0000
67.8900 241.0000 1.0000
67.9000 260.0000 1.0000
67.9100 239.0000 1.0000
67.9200 232.0000 1.0000
67.9300 227.0000 1.0000
67.9400 221.0000 1.0000
67.9500 236.0000 1.0000
67.9600 255.0000 1.0000
67.9700 261.0000 1.0000
67.9800 253.0000 1.0000
67.9900 230.0000 1.0000
68.0000 212.0000 1.0000
68.0100 221.0000 1.0000
68.0200 243.0000 1.0000
68.0300 242.0000 1.0000
68.0400 280.0000 1.0000
68.0500 257.0000 1.0000
68.0600 236.0000 1.0000
68.0700 236.0000 1.0000
68.0800 232.0000 1.0000
68.0900 248.0000 1.0000
68.1000 261.0000 1.0000
68.1100 237.0000 1.0000
68.1200 219.0000 1.0000
68.1300 252.0000 1.0000
68.1400 248.0000 1.0000
68.1500 267.0000 1.0000
68.1600 270.0000 1.0000
68.1700 228.0000 1.0000
68.1800 246.0000 1.0000
68.1900 225.0000 1.0000
68.2000 252.0000 1.0000
68.2100 253.0000 1.0000
68.2200 245.0000 1.0000
68.2300 233.0000 1.0000
68.2400 246.0000 1.0000
68.2500 234.0000 1.0000
68.2600 241.0000 1.0000
68.2700 251.0000 1.0000
68.2800 242.0000 1.0000
68.2900 240.0000 1.0000
68.3000 237.0000 1.0000
68.3100 235.0000 1.0000
68.3200 230.0000 1.0000
68.3300 238.0000 1.0000
68.3400 241.0000 1.0000
68.3500 246.0000 1.0000
68.3600 254.0000 1.0000
68.3700 263.0000 1.0000
68.3800 246.0000 1.0000
68.3900 233.0000 1.0000
68.4000 230.0000 1.0000
68.4100 240.0000 1.0000
68.4200 222.0000 1.0000
68.4300 228.0000 1.0000
68.4400 226.0000 1.0000
68.4500 239.0000 1.0000
68.4600 246.0000 1.0000
68.4700 237.0000 1.0000
68.4800 230.0000 1.0000
68.4900 258.0000 1.0000
68.5000 243.0000 1.0000
68.5100 261.0000 1.0000
68.5200 261.0000 1.0000
68.5300 233.0000 1.0000
68.5400 232.0000 1.0000
68.5500 213.0000 1.0000
68.5600 220.0000 1.0000
68.5700 222.0000 1.0000
68.5800 237.0000 1.0000
68.5900 221.0000 1.0000
68.6000 226.0000 1.0000
68.6100 241.0000 1.0000
68.6200 238.0000 1.0000
68.6300 264.0000 1.0000
68.6400 249.0000 1.0000
68.6500 238.0000 1.0000
68.6600 237.0000 1.0000
68.6700 238.0000 1.0000
68.6800 243.0000 1.0000
68.6900 240.0000 1.0000
68.7000 233.0000 1.0000
68.7100 237.0000 1.0000
68.7200 235.0000 1.0000
68.7300 233.0000 1.0000
68.7400 249.0000 1.0000
68.7500 254.0000 1.0000
68.7600 241.0000 1.0000
68.7700 256.0000 1.0000
68.7800 257.0000 1.0000
68.7900 258.0000 1.0000
68.8000 252.0000 1.0000
68.8100 246.0000 1.0000
68.8200 237.0000 1.0000
68.8300 226.0000 1.0000
68.8400 231.0000 1.0000
68.8500 236.0000 1.0000
68.8600 217.0000 1.0000
68.8700 240.0000 1.0000
68.8800 224.0000 1.0000
68.8900 238.0000 1.0000
68.9000 227.0000 1.0000
68.9100 234.0000 1.0000
68.9200 208.0000 1.0000
68.9300 241.0000 1.0000
68.9400 255.0000 1.0000
68.9500 266.0000 1.0000
68.9600 226.0000 1.0000
68.9700 221.0000 1.0000
68.9800 225.0000 1.0000
68.9900 229.0000 1.0000
69.0000 223.0000 1.0000
69.0100 235.0000 1.0000
69.0200 236.0000 1.0000
69.0300 234.0000 1.0000
69.0400 229.0000 1.0000
69.0500 251.0000 1.0000
69.0600 243.0000 1.0000
69.0700 241.0000 1.0000
69.0800 243.0000 1.0000
69.0900 217.0000 1.0000
69.1000 216.0000 1.0000
69.1100 219.0000 1.0000
69.1200 229.0000 1.0000
69.1300 242.0000 1.0000
69.1400 254.0000 1.0000
69.1500 271.0000 1.0000
69.1600 240.0000 1.0000
69.1700 233.0000 1.0000
69.1800 226.0000 1.0000
69.1900 238.0000 1.0000
69.2000 242.0000 1.0000
69.2100 238.0000 1.0000
69.2200 238.0000 1.0000
69.2300 239.0000 1.0000
69.2400 266.0000 1.0000
69.2500 237.0000 1.0000
69.2600 222.0000 1.0000
69.2700 249.0000 1.0000
69.2800 240.0000 1.0000
69.2900 233.0000 1.0000
69.3000 257.0000 1.0000
69.3100 220.0000 1.0000
69.3200 198.0000 1.0000
69.3300 216.0000 1.0000
69.3400 218.0000 1.0000
69.3500 258.0000 1.0000
69.3600 234.0000 1.0000
69.3700 243.0000 1.0000
69.3800 237.0000 1.0000
69.3900 233.0000 1.0000
69.4000 229.0000 1.0000
69.4100 243.0000 1.0000
69.4200 249.0000 1.0000
69.4300 231.0000 1.0000
69.4400 240.0000 1.0000
69.4500 241.0000 1.0000
69.4600 239.0000 1.0000
69.4700 229.0000 1.0000
69.4800 227.0000 1.0000
69.4900 193.0000 1.0000
69.5000 221.0000 1.0000
69.5100 241.0000 1.0000
69.5200 227.0000 1.0000
69.5300 233.0000 1.0000
69.5400 237.0000 1.0000
69.5500 231.0000 1.0000
69.5600 226.0000 1.0000
69.5700 223.0000 1.0000
69.5800 245.0000 1.0000
69.5900 222.0000 1.0000
69.6000 248.0000 1.0000
69.6100 230.0000 1.0000
69.6200 246.0000 1.0000
69.6300 215.0000 1.0000
69.6400 225.0000 1.0000
69.6500 230.0000 1.0000
69.6600 255.0000 1.0000
69.6700 233.0000 1.0000
69.6800 238.0000 1.0000
69.6900 237.0000 1.0000
69.7000 229.0000 1.0000
69.7100 237.0000 1.0000
69.7200 216.0000 1.0000
69.7300 215.0000 1.0000
69.7400 246.0000 1.0000
69.7500 232.0000 1.0000
69.7600 228.0000 1.0000
69.7700 216.0000 1.0000
69.7800 202.0000 1.0000
69.7900 252.0000 1.0000
69.8000 246.0000 1.0000
69.8100 240.0000 1.0000
69.8200 240.0000 1.0000
69.8300 221.0000 1.0000
69.8400 243.0000 1.0000
69.8500 236.0000 1.0000
69.8600 264.0000 1.0000
69.8700 243.0000 1.0000
69.8800 203.0000 1.0000
69.8900 263.0000 1.0000
69.9000 222.0000 1.0000
69.9100 238.0000 1.0000
69.9200 242.0000 1.0000
69.9300 232.0000 1.0000
69.9400 213.0000 1.0000
69.9500 242.0000 1.0000
69.9600 271.0000 1.0000
69.9700 253.0000 1.0000
69.9800 223.0000 1.0000
69.9900 241.0000 1.0000
70.0000 232.0000 1.0000
*RAS_INT_END
*RAS_TEMPERATURE_START
*RAS_TEMPERATURE_END
*RAS_DATA_END
