*RAS_DATA_START
*RAS_HEADER_START
*DISP_FMT_X "%.2f"
*DISP_FMT_Y "%.0f"
*DISP_FULLSCALE "14555.0000000000"
*DISP_LINE_COLOR "255.0000000000"
*DISP_LINE_STYLE "0.0000000000"
*DISP_LINE_WIDTH "0.2500000000"
*DISP_NOTE "測定データ-9"
*DISP_OFFSET_Y "0.0000000000"
*DISP_PEAKSEARCH_UNIT_Y "cps"
*DISP_RANGE_BOTTOM "0.0000000000"
*DISP_RANGE_LEFT "20.0000000000"
*DISP_RANGE_LOGCUTOFF "0.0100000000"
*DISP_RANGE_RIGHT "70.0000000000"
*DISP_RANGE_TOP "14555.0000000000"
*DISP_SCALE_MODE_Y "0.0000000000"
*DISP_TAB_NAME "2θ/θ"
*DISP_TITLE_Y "強度"
*DISP_UNIT_Y "cps"
*DISP_WINDOW_NAME "MSG_MACROENGINE"
*FILE_COMMENT " "
*FILE_MD5 ""
*FILE_MEMO " "
*FILE_OPERATOR "Administrator"
*FILE_SAMPLE " "
*FILE_TYPE "RAS_RAW"
*FILE_USERGROUP "システムマネージャ"
*FILE_VERSION "1.0000000000"
*HW_ATTACHMENT_ID "ATT0025"
*HW_ATTACHMENT_NAME "標準|Standard"
*HW_COUNTER_ID-0 "CUT0025"
*HW_COUNTER_ID-1 "CUT0020"
*HW_COUNTER_ID-2 "CUT0020"
*HW_COUNTER_ID-3 "CSL0021"
*HW_COUNTER_ID-4 "CMC0021"
*HW_COUNTER_NAME-0 "D/teX Ultra|D/teX Ultra"
*HW_COUNTER_NAME-1 "None|None"
*HW_COUNTER_NAME-2 "None|None"
*HW_COUNTER_NAME-3 "BBM|BBM"
*HW_COUNTER_NAME-4 "検出器モノクロメータ|Detector monochromator"
*HW_COUNTER_SELECT_NAME "D/teX Ultra|D/teX Ultra"
*HW_GONIOMETER_ID "GON0023"
*HW_GONIOMETER_NAME "SmartLab|SmartLab"
*HW_GONIOMETER_RADIUS-0 "90.0"
*HW_GONIOMETER_RADIUS-1 "114.0"
*HW_GONIOMETER_RADIUS-2 "190.0"
*HW_GONIOMETER_RADIUS-3 "300.0"
*HW_GONIOMETER_RADIUS-4 "187.0"
*HW_GONIOMETER_RADIUS-5 "300.0"
*HW_GONIOMETER_RADIUS-6 "113.0"
*HW_GONIOMETER_RADIUS-7 "331.0"
*HW_I_OPT_ID-0 "CBO0021"
*HW_I_OPT_ID-1 "ICR0023"
*HW_I_OPT_ID-2 "ISL0021"
*HW_I_OPT_ID-3 "ISO0021"
*HW_I_OPT_ID-4 "IAD0021"
*HW_I_OPT_ID-5 "IPR0001"
*HW_I_OPT_NAME-0 "CBOユニット|CBO unit"
*HW_I_OPT_NAME-1 "標準入射光学ユニット|Standard incident optical unit"
*HW_I_OPT_NAME-2 "標準入射スリットボックス|Standard incident slit box"
*HW_I_OPT_NAME-3 "入射平行スリット|Incident parallel slit"
*HW_I_OPT_NAME-4 "長手制限スリット|Length limiting slit"
*HW_I_OPT_NAME-5 "None|None"
*HW_R_ATTENUATER_AUTOMODE "0"
*HW_R_OPT_ID-0 "RSS0021"
*HW_R_OPT_ID-1 "RCR0023"
*HW_R_OPT_ID-2 "RSO0021"
*HW_R_OPT_ID-3 "RRS0021"
*HW_R_OPT_ID-4 "ATN0021"
*HW_R_OPT_ID-5 "RFL0021"
*HW_R_OPT_ID-6 "RAD0021"
*HW_R_OPT_NAME-0 "標準受光スリットボックス1|Standard receiving slit box # 1"
*HW_R_OPT_NAME-1 "標準受光光学ユニット1|Standard receiving unit # 1"
*HW_R_OPT_NAME-2 "標準受光光学ユニット2|Standard receiving optical unit # 2"
*HW_R_OPT_NAME-3 "標準受光スリットボックス2|Standard receiving slit box # 2"
*HW_R_OPT_NAME-4 "標準アッテネータ|Standard Attenuator"
*HW_R_OPT_NAME-5 "Cu Kβ|Cu K-beta"
*HW_R_OPT_NAME-6 "調整用受光スリット|Alignment receiving slit"
*HW_SAMPLE_HOLDER_ID "SMP0023"
*HW_SAMPLE_HOLDER_NAME "標準Zステージ|Standard Z stage"
*HW_XG_CURRENT_MAX "50"
*HW_XG_CURRENT_MIN "2"
*HW_XG_CURRENT_RESOLUTION "1"
*HW_XG_CURRENT_UNIT "mA"
*HW_XG_FOCUS "1mm x 10mm"
*HW_XG_FOCUS_TYPE "Normal"
*HW_XG_ID ""
*HW_XG_NAME "3kW 封入管(ID:1200)|3kW Sealed tube(ID:1200)"
*HW_XG_TARGET_ATOMIC_NUMBER "29.0000000000"
*HW_XG_TARGET_NAME "Cu"
*HW_XG_TYPE "Hermetic"
*HW_XG_VOLTAGE_MAX "60"
*HW_XG_VOLTAGE_MIN "20"
*HW_XG_VOLTAGE_RESOLUTION "1"
*HW_XG_VOLTAGE_UNIT "kV"
*HW_XG_WATT_MAX "1.500"
*HW_XG_WATT_UNIT "kW"
*HW_XG_WAVE_LENGTH_ALPHA1 "1.540593"
*HW_XG_WAVE_LENGTH_ALPHA2 "1.544414"
*HW_XG_WAVE_LENGTH_BETA "1.392250"
*MEAS_COND_AXIS_NAME-0 "2θ/θ"
*MEAS_COND_AXIS_NAME-1 "2θ"
*MEAS_COND_AXIS_NAME-2 "ω"
*MEAS_COND_AXIS_NAME-3 "Z"
*MEAS_COND_AXIS_NAME-4 "2θ/ω"
*MEAS_COND_AXIS_NAME-5 "θs"
*MEAS_COND_AXIS_NAME-6 "θd"
*MEAS_COND_AXIS_NAME-7 "Ts"
*MEAS_COND_AXIS_NAME-8 "CBO選択スリット"
*MEAS_COND_AXIS_NAME-9 "M"
*MEAS_COND_AXIS_NAME-10 "入射平行スリット"
*MEAS_COND_AXIS_NAME-11 "入射スリット"
*MEAS_COND_AXIS_NAME-12 ""
*MEAS_COND_AXIS_NAME-13 "Zs"
*MEAS_COND_AXIS_NAME-14 "入射光学素子"
*MEAS_COND_AXIS_NAME-15 "長手制限スリット"
*MEAS_COND_AXIS_NAME-16 "センタースリット"
*MEAS_COND_AXIS_NAME-17 "フィルター"
*MEAS_COND_AXIS_NAME-18 "受光スリット1"
*MEAS_COND_AXIS_NAME-19 "受光スリット2"
*MEAS_COND_AXIS_NAME-20 "受光光学素子"
*MEAS_COND_AXIS_NAME-21 "受光平行スリット"
*MEAS_COND_AXIS_NAME-22 "調整用受光スリット"
*MEAS_COND_AXIS_NAME-23 ""
*MEAS_COND_AXIS_NAME-24 ""
*MEAS_COND_AXIS_NAME-25 "Zd"
*MEAS_COND_AXIS_NAME-26 "アッテネータ"
*MEAS_COND_AXIS_NAME-27 "検出器モノクロメータ"
*MEAS_COND_AXIS_NAME-28 "モノクロメータスリット"
*MEAS_COND_AXIS_NAME-29 "プライマリビーム"
*MEAS_COND_AXIS_NAME-30 "PHA"
*MEAS_COND_AXIS_NAME_INTERNAL-0 "TwoThetaTheta"
*MEAS_COND_AXIS_NAME_INTERNAL-1 "TwoTheta"
*MEAS_COND_AXIS_NAME_INTERNAL-2 "Omega"
*MEAS_COND_AXIS_NAME_INTERNAL-3 "Z"
*MEAS_COND_AXIS_NAME_INTERNAL-4 "TwoThetaOmega"
*MEAS_COND_AXIS_NAME_INTERNAL-5 "ThetaS"
*MEAS_COND_AXIS_NAME_INTERNAL-6 "ThetaD"
*MEAS_COND_AXIS_NAME_INTERNAL-7 "Ts"
*MEAS_COND_AXIS_NAME_INTERNAL-8 "CBO"
*MEAS_COND_AXIS_NAME_INTERNAL-9 "CBO-M"
*MEAS_COND_AXIS_NAME_INTERNAL-10 "IncidentSollerSlit"
*MEAS_COND_AXIS_NAME_INTERNAL-11 "IncidentSlitBox"
*MEAS_COND_AXIS_NAME_INTERNAL-12 "IncidentSlitBox-_Axis"
*MEAS_COND_AXIS_NAME_INTERNAL-13 "Zs"
*MEAS_COND_AXIS_NAME_INTERNAL-14 "IncidentMonochromator"
*MEAS_COND_AXIS_NAME_INTERNAL-15 "IncidentAxdSlit"
*MEAS_COND_AXIS_NAME_INTERNAL-16 "CenterSlit"
*MEAS_COND_AXIS_NAME_INTERNAL-17 "Filter"
*MEAS_COND_AXIS_NAME_INTERNAL-18 "ReceivingSlitBox1"
*MEAS_COND_AXIS_NAME_INTERNAL-19 "ReceivingSlitBox2"
*MEAS_COND_AXIS_NAME_INTERNAL-20 "ReceivingOptics"
*MEAS_COND_AXIS_NAME_INTERNAL-21 "ReceivingSollerSlit"
*MEAS_COND_AXIS_NAME_INTERNAL-22 "ReceivingAxdSlit"
*MEAS_COND_AXIS_NAME_INTERNAL-23 "ReceivingSlitBox1-_Axis"
*MEAS_COND_AXIS_NAME_INTERNAL-24 "ReceivingSlitBox2-_Axis"
*MEAS_COND_AXIS_NAME_INTERNAL-25 "ReceivingSlitBox2-Zd"
*MEAS_COND_AXIS_NAME_INTERNAL-26 "Attenuator"
*MEAS_COND_AXIS_NAME_INTERNAL-27 "CounterMonochromator"
*MEAS_COND_AXIS_NAME_INTERNAL-28 "CounterSlit"
*MEAS_COND_AXIS_NAME_INTERNAL-29 "IncidentPrimary"
*MEAS_COND_AXIS_NAME_INTERNAL-30 "PHA"
*MEAS_COND_AXIS_NAME_MAGICNO-0 "83951616.0000000000"
*MEAS_COND_AXIS_NAME_MAGICNO-1 "268632064.0000000000"
*MEAS_COND_AXIS_NAME_MAGICNO-2 "268500992.0000000000"
*MEAS_COND_AXIS_NAME_MAGICNO-3 "285278208.0000000000"
*MEAS_COND_AXIS_NAME_MAGICNO-4 "83951616.0000000000"
*MEAS_COND_AXIS_NAME_MAGICNO-5 "131072.0000000000"
*MEAS_COND_AXIS_NAME_MAGICNO-6 "131072.0000000000"
*MEAS_COND_AXIS_NAME_MAGICNO-7 "318898176.0000000000"
*MEAS_COND_AXIS_NAME_MAGICNO-8 "20971521.0000000000"
*MEAS_COND_AXIS_NAME_MAGICNO-9 "285343744.0000000000"
*MEAS_COND_AXIS_NAME_MAGICNO-10 "20971521.0000000000"
*MEAS_COND_AXIS_NAME_MAGICNO-11 "22020097.0000000000"
*MEAS_COND_AXIS_NAME_MAGICNO-12 "25165824.0000000000"
*MEAS_COND_AXIS_NAME_MAGICNO-13 "318898176.0000000000"
*MEAS_COND_AXIS_NAME_MAGICNO-14 "1.0000000000"
*MEAS_COND_AXIS_NAME_MAGICNO-15 "20971521.0000000000"
*MEAS_COND_AXIS_NAME_MAGICNO-16 "20971521.0000000000"
*MEAS_COND_AXIS_NAME_MAGICNO-17 "20971521.0000000000"
*MEAS_COND_AXIS_NAME_MAGICNO-18 "23068673.0000000000"
*MEAS_COND_AXIS_NAME_MAGICNO-19 "23068673.0000000000"
*MEAS_COND_AXIS_NAME_MAGICNO-20 "20971521.0000000000"
*MEAS_COND_AXIS_NAME_MAGICNO-21 "20971521.0000000000"
*MEAS_COND_AXIS_NAME_MAGICNO-22 "20971521.0000000000"
*MEAS_COND_AXIS_NAME_MAGICNO-23 "25165824.0000000000"
*MEAS_COND_AXIS_NAME_MAGICNO-24 "25165824.0000000000"
*MEAS_COND_AXIS_NAME_MAGICNO-25 "285343744.0000000000"
*MEAS_COND_AXIS_NAME_MAGICNO-26 "17301505.0000000000"
*MEAS_COND_AXIS_NAME_MAGICNO-27 "20971521.0000000000"
*MEAS_COND_AXIS_NAME_MAGICNO-28 "20971521.0000000000"
*MEAS_COND_AXIS_NAME_MAGICNO-29 "20971521.0000000000"
*MEAS_COND_AXIS_NAME_MAGICNO-30 "0.0000000000"
*MEAS_COND_AXIS_OFFSET-0 "-"
*MEAS_COND_AXIS_OFFSET-1 "-0.0310000000"
*MEAS_COND_AXIS_OFFSET-2 "0.3957000000"
*MEAS_COND_AXIS_OFFSET-3 "-"
*MEAS_COND_AXIS_OFFSET-4 "-"
*MEAS_COND_AXIS_OFFSET-5 "0.3957000000"
*MEAS_COND_AXIS_OFFSET-6 "-0.4267000000"
*MEAS_COND_AXIS_OFFSET-7 "-"
*MEAS_COND_AXIS_OFFSET-8 "-"
*MEAS_COND_AXIS_OFFSET-9 "-"
*MEAS_COND_AXIS_OFFSET-10 "-"
*MEAS_COND_AXIS_OFFSET-11 "-"
*MEAS_COND_AXIS_OFFSET-12 "-"
*MEAS_COND_AXIS_OFFSET-13 "-"
*MEAS_COND_AXIS_OFFSET-14 "-"
*MEAS_COND_AXIS_OFFSET-15 "-"
*MEAS_COND_AXIS_OFFSET-16 "-"
*MEAS_COND_AXIS_OFFSET-17 "-"
*MEAS_COND_AXIS_OFFSET-18 "-"
*MEAS_COND_AXIS_OFFSET-19 "-"
*MEAS_COND_AXIS_OFFSET-20 "-"
*MEAS_COND_AXIS_OFFSET-21 "-"
*MEAS_COND_AXIS_OFFSET-22 "-"
*MEAS_COND_AXIS_OFFSET-23 "-"
*MEAS_COND_AXIS_OFFSET-24 "-"
*MEAS_COND_AXIS_OFFSET-25 "-"
*MEAS_COND_AXIS_OFFSET-26 "-"
*MEAS_COND_AXIS_OFFSET-27 "-"
*MEAS_COND_AXIS_OFFSET-28 "-"
*MEAS_COND_AXIS_OFFSET-29 "-"
*MEAS_COND_AXIS_OFFSET-30 "-"
*MEAS_COND_AXIS_POSITION-0 "0.0000000000"
*MEAS_COND_AXIS_POSITION-1 "0.0000000000"
*MEAS_COND_AXIS_POSITION-2 "0.0000000000"
*MEAS_COND_AXIS_POSITION-3 "-2.9656400000"
*MEAS_COND_AXIS_POSITION-4 "0.0000000000"
*MEAS_COND_AXIS_POSITION-5 "0.0000000000"
*MEAS_COND_AXIS_POSITION-6 "0.0000000000"
*MEAS_COND_AXIS_POSITION-7 "-0.7498700000"
*MEAS_COND_AXIS_POSITION-8 "BB"
*MEAS_COND_AXIS_POSITION-9 "0.0000000000"
*MEAS_COND_AXIS_POSITION-10 "Soller_slit_5.0deg"
*MEAS_COND_AXIS_POSITION-11 "2/3deg"
*MEAS_COND_AXIS_POSITION-12 "2.2088000000"
*MEAS_COND_AXIS_POSITION-13 "-0.6412500000"
*MEAS_COND_AXIS_POSITION-14 "0.0000000000"
*MEAS_COND_AXIS_POSITION-15 "10.0mm"
*MEAS_COND_AXIS_POSITION-16 "None"
*MEAS_COND_AXIS_POSITION-17 "Cu_K-beta"
*MEAS_COND_AXIS_POSITION-18 "13.000mm"
*MEAS_COND_AXIS_POSITION-19 "13.000mm"
*MEAS_COND_AXIS_POSITION-20 "No_unit"
*MEAS_COND_AXIS_POSITION-21 "Soller_slit_5.0deg"
*MEAS_COND_AXIS_POSITION-22 "None"
*MEAS_COND_AXIS_POSITION-23 "13.0000000000"
*MEAS_COND_AXIS_POSITION-24 "13.0000000000"
*MEAS_COND_AXIS_POSITION-25 "0.0281300000"
*MEAS_COND_AXIS_POSITION-26 "Open"
*MEAS_COND_AXIS_POSITION-27 "None"
*MEAS_COND_AXIS_POSITION-28 "None"
*MEAS_COND_AXIS_POSITION-29 "None"
*MEAS_COND_AXIS_POSITION-30 "38.0000000000"
*MEAS_COND_AXIS_UNIT-0 "deg"
*MEAS_COND_AXIS_UNIT-1 "deg"
*MEAS_COND_AXIS_UNIT-2 "deg"
*MEAS_COND_AXIS_UNIT-3 "mm"
*MEAS_COND_AXIS_UNIT-4 "deg"
*MEAS_COND_AXIS_UNIT-5 "deg"
*MEAS_COND_AXIS_UNIT-6 "deg"
*MEAS_COND_AXIS_UNIT-7 "mm"
*MEAS_COND_AXIS_UNIT-8 ""
*MEAS_COND_AXIS_UNIT-9 "pulse"
*MEAS_COND_AXIS_UNIT-10 ""
*MEAS_COND_AXIS_UNIT-11 ""
*MEAS_COND_AXIS_UNIT-12 "mm"
*MEAS_COND_AXIS_UNIT-13 "mm"
*MEAS_COND_AXIS_UNIT-14 ""
*MEAS_COND_AXIS_UNIT-15 ""
*MEAS_COND_AXIS_UNIT-16 ""
*MEAS_COND_AXIS_UNIT-17 ""
*MEAS_COND_AXIS_UNIT-18 ""
*MEAS_COND_AXIS_UNIT-19 ""
*MEAS_COND_AXIS_UNIT-20 ""
*MEAS_COND_AXIS_UNIT-21 ""
*MEAS_COND_AXIS_UNIT-22 ""
*MEAS_COND_AXIS_UNIT-23 "mm"
*MEAS_COND_AXIS_UNIT-24 "mm"
*MEAS_COND_AXIS_UNIT-25 "mm"
*MEAS_COND_AXIS_UNIT-26 ""
*MEAS_COND_AXIS_UNIT-27 ""
*MEAS_COND_AXIS_UNIT-28 ""
*MEAS_COND_AXIS_UNIT-29 ""
*MEAS_COND_AXIS_UNIT-30 "div"
*MEAS_COND_COUNTER_CNTLOSS_CORR "0.0000000000"
*MEAS_COND_COUNTER_PHABASE "38.0000000000"
*MEAS_COND_COUNTER_PHAWINDOW "16.0000000000"
*MEAS_COND_COUNTER_PHA_UNIT "div"
*MEAS_COND_COUNTER_TAUDIFF "30.0000000000"
*MEAS_COND_COUNTER_TAUINT "0.0000000000"
*MEAS_COND_IRRADIATION_MODE "OFF"
*MEAS_COND_IRRADIATION_WIDTH ""
*MEAS_COND_OPT_ATTR "集中法"
*MEAS_COND_OPT_NAME "@集中法"
*MEAS_COND_UNSYMMETRIC_MODE "OFF"
*MEAS_COND_XG_CURRENT "30.0000000000"
*MEAS_COND_XG_VOLTAGE "40.0000000000"
*MEAS_COND_XG_WAVE_TYPE "Ka"
*MEAS_DATA_COUNT "5001.0000000000"
*MEAS_SCAN_AXIS_X "2θ/θ"
*MEAS_SCAN_AXIS_X_INTERNAL "TwoThetaTheta"
*MEAS_SCAN_END_TIME "02/14/24 20:11:29"
*MEAS_SCAN_MODE "CONTINUOUS"
*MEAS_SCAN_MONITOR "0"
*MEAS_SCAN_RESOLUTION_X "0.0002"
*MEAS_SCAN_SPEED "2.5"
*MEAS_SCAN_SPEED_UNIT "deg/min"
*MEAS_SCAN_START "20.0000000000"
*MEAS_SCAN_START_TIME "02/14/24 19:50:06"
*MEAS_SCAN_STEP "0.0100000000"
*MEAS_SCAN_STOP "70.0000000000"
*MEAS_SCAN_UNIT_X "deg"
*MEAS_SCAN_UNIT_Y "counts"
*RAS_HEADER_END
*RAS_INT_START
20.0000 827.0000 1.0000
20.0100 823.0000 1.0000
20.0200 786.0000 1.0000
20.0300 848.0000 1.0000
20.0400 772.0000 1.0000
20.0500 809.0000 1.0000
20.0600 810.0000 1.0000
20.0700 808.0000 1.0000
20.0800 794.0000 1.0000
20.0900 812.0000 1.0000
20.1000 804.0000 1.0000
20.1100 813.0000 1.0000
20.1200 813.0000 1.0000
20.1300 798.0000 1.0000
20.1400 824.0000 1.0000
20.1500 824.0000 1.0000
20.1600 828.0000 1.0000
20.1700 853.0000 1.0000
20.1800 796.0000 1.0000
20.1900 788.0000 1.0000
20.2000 804.0000 1.0000
20.2100 803.0000 1.0000
20.2200 844.0000 1.0000
20.2300 822.0000 1.0000
20.2400 781.0000 1.0000
20.2500 781.0000 1.0000
20.2600 774.0000 1.0000
20.2700 806.0000 1.0000
20.2800 824.0000 1.0000
20.2900 844.0000 1.0000
20.3000 830.0000 1.0000
20.3100 773.0000 1.0000
20.3200 801.0000 1.0000
20.3300 800.0000 1.0000
20.3400 808.0000 1.0000
20.3500 827.0000 1.0000
20.3600 789.0000 1.0000
20.3700 813.0000 1.0000
20.3800 820.0000 1.0000
20.3900 811.0000 1.0000
20.4000 806.0000 1.0000
20.4100 795.0000 1.0000
20.4200 760.0000 1.0000
20.4300 808.0000 1.0000
20.4400 866.0000 1.0000
20.4500 789.0000 1.0000
20.4600 801.0000 1.0000
20.4700 806.0000 1.0000
20.4800 830.0000 1.0000
20.4900 787.0000 1.0000
20.5000 800.0000 1.0000
20.5100 808.0000 1.0000
20.5200 825.0000 1.0000
20.5300 811.0000 1.0000
20.5400 761.0000 1.0000
20.5500 836.0000 1.0000
20.5600 805.0000 1.0000
20.5700 807.0000 1.0000
20.5800 797.0000 1.0000
20.5900 772.0000 1.0000
20.6000 829.0000 1.0000
20.6100 796.0000 1.0000
20.6200 822.0000 1.0000
20.6300 790.0000 1.0000
20.6400 780.0000 1.0000
20.6500 775.0000 1.0000
20.6600 810.0000 1.0000
20.6700 828.0000 1.0000
20.6800 808.0000 1.0000
20.6900 792.0000 1.0000
20.7000 857.0000 1.0000
20.7100 833.0000 1.0000
20.7200 834.0000 1.0000
20.7300 803.0000 1.0000
20.7400 813.0000 1.0000
20.7500 823.0000 1.0000
20.7600 796.0000 1.0000
20.7700 854.0000 1.0000
20.7800 815.0000 1.0000
20.7900 815.0000 1.0000
20.8000 800.0000 1.0000
20.8100 810.0000 1.0000
20.8200 817.0000 1.0000
20.8300 828.0000 1.0000
20.8400 801.0000 1.0000
20.8500 791.0000 1.0000
20.8600 833.0000 1.0000
20.8700 812.0000 1.0000
20.8800 813.0000 1.0000
20.8900 806.0000 1.0000
20.9000 779.0000 1.0000
20.9100 795.0000 1.0000
20.9200 822.0000 1.0000
20.9300 820.0000 1.0000
20.9400 803.0000 1.0000
20.9500 795.0000 1.0000
20.9600 787.0000 1.0000
20.9700 753.0000 1.0000
20.9800 809.0000 1.0000
20.9900 783.0000 1.0000
21.0000 833.0000 1.0000
21.0100 750.0000 1.0000
21.0200 794.0000 1.0000
21.0300 800.0000 1.0000
21.0400 832.0000 1.0000
21.0500 791.0000 1.0000
21.0600 772.0000 1.0000
21.0700 790.0000 1.0000
21.0800 828.0000 1.0000
21.0900 806.0000 1.0000
21.1000 766.0000 1.0000
21.1100 801.0000 1.0000
21.1200 816.0000 1.0000
21.1300 806.0000 1.0000
21.1400 812.0000 1.0000
21.1500 795.0000 1.0000
21.1600 822.0000 1.0000
21.1700 798.0000 1.0000
21.1800 807.0000 1.0000
21.1900 773.0000 1.0000
21.2000 763.0000 1.0000
21.2100 838.0000 1.0000
21.2200 798.0000 1.0000
21.2300 848.0000 1.0000
21.2400 829.0000 1.0000
21.2500 784.0000 1.0000
21.2600 809.0000 1.0000
21.2700 788.0000 1.0000
21.2800 790.0000 1.0000
21.2900 746.0000 1.0000
21.3000 818.0000 1.0000
21.3100 815.0000 1.0000
21.3200 786.0000 1.0000
21.3300 811.0000 1.0000
21.3400 795.0000 1.0000
21.3500 786.0000 1.0000
21.3600 833.0000 1.0000
21.3700 841.0000 1.0000
21.3800 807.0000 1.0000
21.3900 829.0000 1.0000
21.4000 819.0000 1.0000
21.4100 782.0000 1.0000
21.4200 802.0000 1.0000
21.4300 823.0000 1.0000
21.4400 813.0000 1.0000
21.4500 764.0000 1.0000
21.4600 833.0000 1.0000
21.4700 822.0000 1.0000
21.4800 819.0000 1.0000
21.4900 805.0000 1.0000
21.5000 763.0000 1.0000
21.5100 774.0000 1.0000
21.5200 774.0000 1.0000
21.5300 800.0000 1.0000
21.5400 762.0000 1.0000
21.5500 800.0000 1.0000
21.5600 796.0000 1.0000
21.5700 789.0000 1.0000
21.5800 795.0000 1.0000
21.5900 802.0000 1.0000
21.6000 784.0000 1.0000
21.6100 834.0000 1.0000
21.6200 773.0000 1.0000
21.6300 784.0000 1.0000
21.6400 825.0000 1.0000
21.6500 820.0000 1.0000
21.6600 755.0000 1.0000
21.6700 780.0000 1.0000
21.6800 778.0000 1.0000
21.6900 798.0000 1.0000
21.7000 764.0000 1.0000
21.7100 817.0000 1.0000
21.7200 822.0000 1.0000
21.7300 754.0000 1.0000
21.7400 785.0000 1.0000
21.7500 761.0000 1.0000
21.7600 784.0000 1.0000
21.7700 754.0000 1.0000
21.7800 803.0000 1.0000
21.7900 754.0000 1.0000
21.8000 778.0000 1.0000
21.8100 772.0000 1.0000
21.8200 845.0000 1.0000
21.8300 757.0000 1.0000
21.8400 816.0000 1.0000
21.8500 861.0000 1.0000
21.8600 804.0000 1.0000
21.8700 768.0000 1.0000
21.8800 757.0000 1.0000
21.8900 823.0000 1.0000
21.9000 781.0000 1.0000
21.9100 771.0000 1.0000
21.9200 754.0000 1.0000
21.9300 792.0000 1.0000
21.9400 810.0000 1.0000
21.9500 831.0000 1.0000
21.9600 781.0000 1.0000
21.9700 841.0000 1.0000
21.9800 812.0000 1.0000
21.9900 837.0000 1.0000
22.0000 774.0000 1.0000
22.0100 768.0000 1.0000
22.0200 768.0000 1.0000
22.0300 768.0000 1.0000
22.0400 792.0000 1.0000
22.0500 803.0000 1.0000
22.0600 818.0000 1.0000
22.0700 791.0000 1.0000
22.0800 813.0000 1.0000
22.0900 776.0000 1.0000
22.1000 786.0000 1.0000
22.1100 783.0000 1.0000
22.1200 752.0000 1.0000
22.1300 779.0000 1.0000
22.1400 760.0000 1.0000
22.1500 772.0000 1.0000
22.1600 758.0000 1.0000
22.1700 724.0000 1.0000
22.1800 756.0000 1.0000
22.1900 765.0000 1.0000
22.2000 755.0000 1.0000
22.2100 822.0000 1.0000
22.2200 745.0000 1.0000
22.2300 806.0000 1.0000
22.2400 794.0000 1.0000
22.2500 792.0000 1.0000
22.2600 775.0000 1.0000
22.2700 785.0000 1.0000
22.2800 813.0000 1.0000
22.2900 778.0000 1.0000
22.3000 749.0000 1.0000
22.3100 752.0000 1.0000
22.3200 812.0000 1.0000
22.3300 808.0000 1.0000
22.3400 809.0000 1.0000
22.3500 797.0000 1.0000
22.3600 803.0000 1.0000
22.3700 809.0000 1.0000
22.3800 775.0000 1.0000
22.3900 790.0000 1.0000
22.4000 805.0000 1.0000
22.4100 796.0000 1.0000
22.4200 764.0000 1.0000
22.4300 767.0000 1.0000
22.4400 768.0000 1.0000
22.4500 759.0000 1.0000
22.4600 763.0000 1.0000
22.4700 765.0000 1.0000
22.4800 783.0000 1.0000
22.4900 799.0000 1.0000
22.5000 811.0000 1.0000
22.5100 793.0000 1.0000
22.5200 778.0000 1.0000
22.5300 806.0000 1.0000
22.5400 776.0000 1.0000
22.5500 821.0000 1.0000
22.5600 728.0000 1.0000
22.5700 812.0000 1.0000
22.5800 809.0000 1.0000
22.5900 805.0000 1.0000
22.6000 765.0000 1.0000
22.6100 832.0000 1.0000
22.6200 744.0000 1.0000
22.6300 744.0000 1.0000
22.6400 725.0000 1.0000
22.6500 767.0000 1.0000
22.6600 768.0000 1.0000
22.6700 766.0000 1.0000
22.6800 773.0000 1.0000
22.6900 740.0000 1.0000
22.7000 750.0000 1.0000
22.7100 737.0000 1.0000
22.7200 727.0000 1.0000
22.7300 799.0000 1.0000
22.7400 811.0000 1.0000
22.7500 778.0000 1.0000
22.7600 850.0000 1.0000
22.7700 810.0000 1.0000
22.7800 794.0000 1.0000
22.7900 765.0000 1.0000
22.8000 795.0000 1.0000
22.8100 814.0000 1.0000
22.8200 761.0000 1.0000
22.8300 763.0000 1.0000
22.8400 741.0000 1.0000
22.8500 774.0000 1.0000
22.8600 787.0000 1.0000
22.8700 779.0000 1.0000
22.8800 746.0000 1.0000
22.8900 782.0000 1.0000
22.9000 757.0000 1.0000
22.9100 766.0000 1.0000
22.9200 738.0000 1.0000
22.9300 747.0000 1.0000
22.9400 798.0000 1.0000
22.9500 747.0000 1.0000
22.9600 774.0000 1.0000
22.9700 765.0000 1.0000
22.9800 789.0000 1.0000
22.9900 715.0000 1.0000
23.0000 729.0000 1.0000
23.0100 740.0000 1.0000
23.0200 748.0000 1.0000
23.0300 762.0000 1.0000
23.0400 765.0000 1.0000
23.0500 771.0000 1.0000
23.0600 730.0000 1.0000
23.0700 767.0000 1.0000
23.0800 764.0000 1.0000
23.0900 741.0000 1.0000
23.1000 731.0000 1.0000
23.1100 770.0000 1.0000
23.1200 796.0000 1.0000
23.1300 801.0000 1.0000
23.1400 792.0000 1.0000
23.1500 768.0000 1.0000
23.1600 785.0000 1.0000
23.1700 751.0000 1.0000
23.1800 800.0000 1.0000
23.1900 728.0000 1.0000
23.2000 769.0000 1.0000
23.2100 816.0000 1.0000
23.2200 765.0000 1.0000
23.2300 787.0000 1.0000
23.2400 747.0000 1.0000
23.2500 790.0000 1.0000
23.2600 799.0000 1.0000
23.2700 784.0000 1.0000
23.2800 743.0000 1.0000
23.2900 775.0000 1.0000
23.3000 751.0000 1.0000
23.3100 808.0000 1.0000
23.3200 822.0000 1.0000
23.3300 807.0000 1.0000
23.3400 732.0000 1.0000
23.3500 791.0000 1.0000
23.3600 751.0000 1.0000
23.3700 742.0000 1.0000
23.3800 800.0000 1.0000
23.3900 777.0000 1.0000
23.4000 722.0000 1.0000
23.4100 734.0000 1.0000
23.4200 796.0000 1.0000
23.4300 759.0000 1.0000
23.4400 789.0000 1.0000
23.4500 752.0000 1.0000
23.4600 739.0000 1.0000
23.4700 791.0000 1.0000
23.4800 742.0000 1.0000
23.4900 774.0000 1.0000
23.5000 772.0000 1.0000
23.5100 803.0000 1.0000
23.5200 774.0000 1.0000
23.5300 710.0000 1.0000
23.5400 705.0000 1.0000
23.5500 738.0000 1.0000
23.5600 751.0000 1.0000
23.5700 757.0000 1.0000
23.5800 801.0000 1.0000
23.5900 756.0000 1.0000
23.6000 748.0000 1.0000
23.6100 807.0000 1.0000
23.6200 789.0000 1.0000
23.6300 797.0000 1.0000
23.6400 720.0000 1.0000
23.6500 771.0000 1.0000
23.6600 786.0000 1.0000
23.6700 728.0000 1.0000
23.6800 786.0000 1.0000
23.6900 744.0000 1.0000
23.7000 782.0000 1.0000
23.7100 742.0000 1.0000
23.7200 795.0000 1.0000
23.7300 796.0000 1.0000
23.7400 790.0000 1.0000
23.7500 794.0000 1.0000
23.7600 816.0000 1.0000
23.7700 801.0000 1.0000
23.7800 775.0000 1.0000
23.7900 794.0000 1.0000
23.8000 773.0000 1.0000
23.8100 761.0000 1.0000
23.8200 787.0000 1.0000
23.8300 795.0000 1.0000
23.8400 778.0000 1.0000
23.8500 759.0000 1.0000
23.8600 810.0000 1.0000
23.8700 813.0000 1.0000
23.8800 829.0000 1.0000
23.8900 828.0000 1.0000
23.9000 818.0000 1.0000
23.9100 804.0000 1.0000
23.9200 817.0000 1.0000
23.9300 835.0000 1.0000
23.9400 791.0000 1.0000
23.9500 803.0000 1.0000
23.9600 813.0000 1.0000
23.9700 830.0000 1.0000
23.9800 809.0000 1.0000
23.9900 850.0000 1.0000
24.0000 864.0000 1.0000
24.0100 904.0000 1.0000
24.0200 864.0000 1.0000
24.0300 870.0000 1.0000
24.0400 875.0000 1.0000
24.0500 875.0000 1.0000
24.0600 883.0000 1.0000
24.0700 939.0000 1.0000
24.0800 935.0000 1.0000
24.0900 907.0000 1.0000
24.1000 866.0000 1.0000
24.1100 859.0000 1.0000
24.1200 890.0000 1.0000
24.1300 884.0000 1.0000
24.1400 892.0000 1.0000
24.1500 877.0000 1.0000
24.1600 841.0000 1.0000
24.1700 860.0000 1.0000
24.1800 829.0000 1.0000
24.1900 811.0000 1.0000
24.2000 771.0000 1.0000
24.2100 800.0000 1.0000
24.2200 790.0000 1.0000
24.2300 848.0000 1.0000
24.2400 794.0000 1.0000
24.2500 812.0000 1.0000
24.2600 786.0000 1.0000
24.2700 708.0000 1.0000
24.2800 771.0000 1.0000
24.2900 748.0000 1.0000
24.3000 776.0000 1.0000
24.3100 808.0000 1.0000
24.3200 765.0000 1.0000
24.3300 759.0000 1.0000
24.3400 789.0000 1.0000
24.3500 776.0000 1.0000
24.3600 740.0000 1.0000
24.3700 774.0000 1.0000
24.3800 761.0000 1.0000
24.3900 752.0000 1.0000
24.4000 785.0000 1.0000
24.4100 750.0000 1.0000
24.4200 774.0000 1.0000
24.4300 742.0000 1.0000
24.4400 762.0000 1.0000
24.4500 762.0000 1.0000
24.4600 786.0000 1.0000
24.4700 739.0000 1.0000
24.4800 744.0000 1.0000
24.4900 769.0000 1.0000
24.5000 787.0000 1.0000
24.5100 765.0000 1.0000
24.5200 734.0000 1.0000
24.5300 720.0000 1.0000
24.5400 745.0000 1.0000
24.5500 777.0000 1.0000
24.5600 751.0000 1.0000
24.5700 742.0000 1.0000
24.5800 777.0000 1.0000
24.5900 757.0000 1.0000
24.6000 751.0000 1.0000
24.6100 708.0000 1.0000
24.6200 767.0000 1.0000
24.6300 772.0000 1.0000
24.6400 699.0000 1.0000
24.6500 714.0000 1.0000
24.6600 719.0000 1.0000
24.6700 753.0000 1.0000
24.6800 745.0000 1.0000
24.6900 716.0000 1.0000
24.7000 741.0000 1.0000
24.7100 737.0000 1.0000
24.7200 768.0000 1.0000
24.7300 762.0000 1.0000
24.7400 762.0000 1.0000
24.7500 760.0000 1.0000
24.7600 795.0000 1.0000
24.7700 746.0000 1.0000
24.7800 721.0000 1.0000
24.7900 780.0000 1.0000
24.8000 747.0000 1.0000
24.8100 722.0000 1.0000
24.8200 719.0000 1.0000
24.8300 723.0000 1.0000
24.8400 733.0000 1.0000
24.8500 709.0000 1.0000
24.8600 765.0000 1.0000
24.8700 744.0000 1.0000
24.8800 788.0000 1.0000
24.8900 752.0000 1.0000
24.9000 751.0000 1.0000
24.9100 758.0000 1.0000
24.9200 722.0000 1.0000
24.9300 730.0000 1.0000
24.9400 729.0000 1.0000
24.9500 730.0000 1.0000
24.9600 738.0000 1.0000
24.9700 764.0000 1.0000
24.9800 752.0000 1.0000
24.9900 760.0000 1.0000
25.0000 758.0000 1.0000
25.0100 756.0000 1.0000
25.0200 718.0000 1.0000
25.0300 721.0000 1.0000
25.0400 710.0000 1.0000
25.0500 761.0000 1.0000
25.0600 738.0000 1.0000
25.0700 761.0000 1.0000
25.0800 750.0000 1.0000
25.0900 717.0000 1.0000
25.1000 698.0000 1.0000
25.1100 741.0000 1.0000
25.1200 746.0000 1.0000
25.1300 757.0000 1.0000
25.1400 710.0000 1.0000
25.1500 773.0000 1.0000
25.1600 750.0000 1.0000
25.1700 746.0000 1.0000
25.1800 708.0000 1.0000
25.1900 679.0000 1.0000
25.2000 707.0000 1.0000
25.2100 786.0000 1.0000
25.2200 744.0000 1.0000
25.2300 735.0000 1.0000
25.2400 732.0000 1.0000
25.2500 722.0000 1.0000
25.2600 735.0000 1.0000
25.2700 710.0000 1.0000
25.2800 751.0000 1.0000
25.2900 746.0000 1.0000
25.3000 769.0000 1.0000
25.3100 747.0000 1.0000
25.3200 758.0000 1.0000
25.3300 704.0000 1.0000
25.3400 711.0000 1.0000
25.3500 764.0000 1.0000
25.3600 776.0000 1.0000
25.3700 753.0000 1.0000
25.3800 785.0000 1.0000
25.3900 781.0000 1.0000
25.4000 728.0000 1.0000
25.4100 743.0000 1.0000
25.4200 706.0000 1.0000
25.4300 786.0000 1.0000
25.4400 736.0000 1.0000
25.4500 764.0000 1.0000
25.4600 742.0000 1.0000
25.4700 700.0000 1.0000
25.4800 706.0000 1.0000
25.4900 763.0000 1.0000
25.5000 698.0000 1.0000
25.5100 765.0000 1.0000
25.5200 755.0000 1.0000
25.5300 745.0000 1.0000
25.5400 730.0000 1.0000
25.5500 719.0000 1.0000
25.5600 737.0000 1.0000
25.5700 745.0000 1.0000
25.5800 761.0000 1.0000
25.5900 750.0000 1.0000
25.6000 754.0000 1.0000
25.6100 729.0000 1.0000
25.6200 753.0000 1.0000
25.6300 731.0000 1.0000
25.6400 761.0000 1.0000
25.6500 810.0000 1.0000
25.6600 778.0000 1.0000
25.6700 779.0000 1.0000
25.6800 772.0000 1.0000
25.6900 768.0000 1.0000
25.7000 734.0000 1.0000
25.7100 748.0000 1.0000
25.7200 756.0000 1.0000
25.7300 783.0000 1.0000
25.7400 803.0000 1.0000
25.7500 765.0000 1.0000
25.7600 785.0000 1.0000
25.7700 782.0000 1.0000
25.7800 731.0000 1.0000
25.7900 752.0000 1.0000
25.8000 778.0000 1.0000
25.8100 742.0000 1.0000
25.8200 744.0000 1.0000
25.8300 749.0000 1.0000
25.8400 754.0000 1.0000
25.8500 738.0000 1.0000
25.8600 761.0000 1.0000
25.8700 763.0000 1.0000
25.8800 775.0000 1.0000
25.8900 749.0000 1.0000
25.9000 706.0000 1.0000
25.9100 725.0000 1.0000
25.9200 787.0000 1.0000
25.9300 765.0000 1.0000
25.9400 784.0000 1.0000
25.9500 778.0000 1.0000
25.9600 797.0000 1.0000
25.9700 778.0000 1.0000
25.9800 805.0000 1.0000
25.9900 838.0000 1.0000
26.0000 751.0000 1.0000
26.0100 803.0000 1.0000
26.0200 771.0000 1.0000
26.0300 776.0000 1.0000
26.0400 776.0000 1.0000
26.0500 810.0000 1.0000
26.0600 819.0000 1.0000
26.0700 807.0000 1.0000
26.0800 826.0000 1.0000
26.0900 831.0000 1.0000
26.1000 811.0000 1.0000
26.1100 860.0000 1.0000
26.1200 836.0000 1.0000
26.1300 846.0000 1.0000
26.1400 864.0000 1.0000
26.1500 914.0000 1.0000
26.1600 866.0000 1.0000
26.1700 887.0000 1.0000
26.1800 884.0000 1.0000
26.1900 910.0000 1.0000
26.2000 928.0000 1.0000
26.2100 919.0000 1.0000
26.2200 946.0000 1.0000
26.2300 1007.0000 1.0000
26.2400 976.0000 1.0000
26.2500 987.0000 1.0000
26.2600 994.0000 1.0000
26.2700 1052.0000 1.0000
26.2800 1010.0000 1.0000
26.2900 1040.0000 1.0000
26.3000 1060.0000 1.0000
26.3100 1115.0000 1.0000
26.3200 1219.0000 1.0000
26.3300 1204.0000 1.0000
26.3400 1171.0000 1.0000
26.3500 1223.0000 1.0000
26.3600 1267.0000 1.0000
26.3700 1302.0000 1.0000
26.3800 1279.0000 1.0000
26.3900 1317.0000 1.0000
26.4000 1307.0000 1.0000
26.4100 1352.0000 1.0000
26.4200 1399.0000 1.0000
26.4300 1341.0000 1.0000
26.4400 1321.0000 1.0000
26.4500 1410.0000 1.0000
26.4600 1348.0000 1.0000
26.4700 1308.0000 1.0000
26.4800 1345.0000 1.0000
26.4900 1315.0000 1.0000
26.5000 1280.0000 1.0000
26.5100 1260.0000 1.0000
26.5200 1211.0000 1.0000
26.5300 1202.0000 1.0000
26.5400 1171.0000 1.0000
26.5500 1135.0000 1.0000
26.5600 1100.0000 1.0000
26.5700 1089.0000 1.0000
26.5800 1054.0000 1.0000
26.5900 1041.0000 1.0000
26.6000 1047.0000 1.0000
26.6100 970.0000 1.0000
26.6200 1031.0000 1.0000
26.6300 969.0000 1.0000
26.6400 923.0000 1.0000
26.6500 920.0000 1.0000
26.6600 918.0000 1.0000
26.6700 931.0000 1.0000
26.6800 877.0000 1.0000
26.6900 841.0000 1.0000
26.7000 845.0000 1.0000
26.7100 859.0000 1.0000
26.7200 816.0000 1.0000
26.7300 815.0000 1.0000
26.7400 862.0000 1.0000
26.7500 853.0000 1.0000
26.7600 876.0000 1.0000
26.7700 799.0000 1.0000
26.7800 809.0000 1.0000
26.7900 820.0000 1.0000
26.8000 795.0000 1.0000
26.8100 784.0000 1.0000
26.8200 787.0000 1.0000
26.8300 781.0000 1.0000
26.8400 812.0000 1.0000
26.8500 787.0000 1.0000
26.8600 756.0000 1.0000
26.8700 789.0000 1.0000
26.8800 810.0000 1.0000
26.8900 747.0000 1.0000
26.9000 734.0000 1.0000
26.9100 763.0000 1.0000
26.9200 717.0000 1.0000
26.9300 656.0000 1.0000
26.9400 704.0000 1.0000
26.9500 715.0000 1.0000
26.9600 745.0000 1.0000
26.9700 751.0000 1.0000
26.9800 739.0000 1.0000
26.9900 717.0000 1.0000
27.0000 758.0000 1.0000
27.0100 732.0000 1.0000
27.0200 737.0000 1.0000
27.0300 720.0000 1.0000
27.0400 744.0000 1.0000
27.0500 704.0000 1.0000
27.0600 767.0000 1.0000
27.0700 678.0000 1.0000
27.0800 700.0000 1.0000
27.0900 695.0000 1.0000
27.1000 712.0000 1.0000
27.1100 692.0000 1.0000
27.1200 673.0000 1.0000
27.1300 688.0000 1.0000
27.1400 694.0000 1.0000
27.1500 720.0000 1.0000
27.1600 650.0000 1.0000
27.1700 715.0000 1.0000
27.1800 692.0000 1.0000
27.1900 701.0000 1.0000
27.2000 700.0000 1.0000
27.2100 670.0000 1.0000
27.2200 730.0000 1.0000
27.2300 749.0000 1.0000
27.2400 728.0000 1.0000
27.2500 695.0000 1.0000
27.2600 733.0000 1.0000
27.2700 688.0000 1.0000
27.2800 697.0000 1.0000
27.2900 698.0000 1.0000
27.3000 617.0000 1.0000
27.3100 646.0000 1.0000
27.3200 670.0000 1.0000
27.3300 713.0000 1.0000
27.3400 702.0000 1.0000
27.3500 707.0000 1.0000
27.3600 698.0000 1.0000
27.3700 690.0000 1.0000
27.3800 710.0000 1.0000
27.3900 679.0000 1.0000
27.4000 683.0000 1.0000
27.4100 691.0000 1.0000
27.4200 687.0000 1.0000
27.4300 682.0000 1.0000
27.4400 676.0000 1.0000
27.4500 691.0000 1.0000
27.4600 672.0000 1.0000
27.4700 692.0000 1.0000
27.4800 667.0000 1.0000
27.4900 717.0000 1.0000
27.5000 684.0000 1.0000
27.5100 680.0000 1.0000
27.5200 670.0000 1.0000
27.5300 664.0000 1.0000
27.5400 642.0000 1.0000
27.5500 671.0000 1.0000
27.5600 661.0000 1.0000
27.5700 671.0000 1.0000
27.5800 661.0000 1.0000
27.5900 653.0000 1.0000
27.6000 685.0000 1.0000
27.6100 653.0000 1.0000
27.6200 652.0000 1.0000
27.6300 648.0000 1.0000
27.6400 663.0000 1.0000
27.6500 730.0000 1.0000
27.6600 690.0000 1.0000
27.6700 674.0000 1.0000
27.6800 661.0000 1.0000
27.6900 668.0000 1.0000
27.7000 667.0000 1.0000
27.7100 697.0000 1.0000
27.7200 660.0000 1.0000
27.7300 678.0000 1.0000
27.7400 667.0000 1.0000
27.7500 658.0000 1.0000
27.7600 607.0000 1.0000
27.7700 645.0000 1.0000
27.7800 651.0000 1.0000
27.7900 704.0000 1.0000
27.8000 665.0000 1.0000
27.8100 655.0000 1.0000
27.8200 696.0000 1.0000
27.8300 677.0000 1.0000
27.8400 687.0000 1.0000
27.8500 649.0000 1.0000
27.8600 649.0000 1.0000
27.8700 679.0000 1.0000
27.8800 642.0000 1.0000
27.8900 634.0000 1.0000
27.9000 690.0000 1.0000
27.9100 686.0000 1.0000
27.9200 655.0000 1.0000
27.9300 658.0000 1.0000
27.9400 707.0000 1.0000
27.9500 666.0000 1.0000
27.9600 633.0000 1.0000
27.9700 660.0000 1.0000
27.9800 650.0000 1.0000
27.9900 649.0000 1.0000
28.0000 649.0000 1.0000
28.0100 687.0000 1.0000
28.0200 703.0000 1.0000
28.0300 676.0000 1.0000
28.0400 686.0000 1.0000
28.0500 670.0000 1.0000
28.0600 648.0000 1.0000
28.0700 645.0000 1.0000
28.0800 669.0000 1.0000
28.0900 680.0000 1.0000
28.1000 662.0000 1.0000
28.1100 650.0000 1.0000
28.1200 659.0000 1.0000
28.1300 695.0000 1.0000
28.1400 678.0000 1.0000
28.1500 671.0000 1.0000
28.1600 679.0000 1.0000
28.1700 646.0000 1.0000
28.1800 709.0000 1.0000
28.1900 710.0000 1.0000
28.2000 696.0000 1.0000
28.2100 678.0000 1.0000
28.2200 725.0000 1.0000
28.2300 724.0000 1.0000
28.2400 756.0000 1.0000
28.2500 745.0000 1.0000
28.2600 764.0000 1.0000
28.2700 768.0000 1.0000
28.2800 770.0000 1.0000
28.2900 783.0000 1.0000
28.3000 792.0000 1.0000
28.3100 738.0000 1.0000
28.3200 747.0000 1.0000
28.3300 755.0000 1.0000
28.3400 741.0000 1.0000
28.3500 681.0000 1.0000
28.3600 727.0000 1.0000
28.3700 742.0000 1.0000
28.3800 671.0000 1.0000
28.3900 676.0000 1.0000
28.4000 698.0000 1.0000
28.4100 699.0000 1.0000
28.4200 635.0000 1.0000
28.4300 632.0000 1.0000
28.4400 604.0000 1.0000
28.4500 668.0000 1.0000
28.4600 694.0000 1.0000
28.4700 660.0000 1.0000
28.4800 635.0000 1.0000
28.4900 678.0000 1.0000
28.5000 630.0000 1.0000
28.5100 586.0000 1.0000
28.5200 619.0000 1.0000
28.5300 686.0000 1.0000
28.5400 652.0000 1.0000
28.5500 638.0000 1.0000
28.5600 656.0000 1.0000
28.5700 646.0000 1.0000
28.5800 624.0000 1.0000
28.5900 642.0000 1.0000
28.6000 658.0000 1.0000
28.6100 670.0000 1.0000
28.6200 595.0000 1.0000
28.6300 608.0000 1.0000
28.6400 643.0000 1.0000
28.6500 678.0000 1.0000
28.6600 607.0000 1.0000
28.6700 641.0000 1.0000
28.6800 658.0000 1.0000
28.6900 609.0000 1.0000
28.7000 674.0000 1.0000
28.7100 601.0000 1.0000
28.7200 623.0000 1.0000
28.7300 658.0000 1.0000
28.7400 629.0000 1.0000
28.7500 633.0000 1.0000
28.7600 607.0000 1.0000
28.7700 631.0000 1.0000
28.7800 612.0000 1.0000
28.7900 604.0000 1.0000
28.8000 647.0000 1.0000
28.8100 616.0000 1.0000
28.8200 656.0000 1.0000
28.8300 634.0000 1.0000
28.8400 654.0000 1.0000
28.8500 689.0000 1.0000
28.8600 663.0000 1.0000
28.8700 645.0000 1.0000
28.8800 648.0000 1.0000
28.8900 638.0000 1.0000
28.9000 632.0000 1.0000
28.9100 609.0000 1.0000
28.9200 658.0000 1.0000
28.9300 621.0000 1.0000
28.9400 625.0000 1.0000
28.9500 652.0000 1.0000
28.9600 604.0000 1.0000
28.9700 606.0000 1.0000
28.9800 618.0000 1.0000
28.9900 637.0000 1.0000
29.0000 616.0000 1.0000
29.0100 661.0000 1.0000
29.0200 660.0000 1.0000
29.0300 661.0000 1.0000
29.0400 604.0000 1.0000
29.0500 589.0000 1.0000
29.0600 640.0000 1.0000
29.0700 642.0000 1.0000
29.0800 612.0000 1.0000
29.0900 593.0000 1.0000
29.1000 645.0000 1.0000
29.1100 612.0000 1.0000
29.1200 607.0000 1.0000
29.1300 690.0000 1.0000
29.1400 639.0000 1.0000
29.1500 623.0000 1.0000
29.1600 609.0000 1.0000
29.1700 609.0000 1.0000
29.1800 606.0000 1.0000
29.1900 641.0000 1.0000
29.2000 648.0000 1.0000
29.2100 600.0000 1.0000
29.2200 613.0000 1.0000
29.2300 605.0000 1.0000
29.2400 620.0000 1.0000
29.2500 626.0000 1.0000
29.2600 583.0000 1.0000
29.2700 630.0000 1.0000
29.2800 595.0000 1.0000
29.2900 586.0000 1.0000
29.3000 646.0000 1.0000
29.3100 604.0000 1.0000
29.3200 588.0000 1.0000
29.3300 613.0000 1.0000
29.3400 627.0000 1.0000
29.3500 595.0000 1.0000
29.3600 614.0000 1.0000
29.3700 619.0000 1.0000
29.3800 634.0000 1.0000
29.3900 588.0000 1.0000
29.4000 578.0000 1.0000
29.4100 623.0000 1.0000
29.4200 655.0000 1.0000
29.4300 624.0000 1.0000
29.4400 632.0000 1.0000
29.4500 579.0000 1.0000
29.4600 557.0000 1.0000
29.4700 604.0000 1.0000
29.4800 604.0000 1.0000
29.4900 597.0000 1.0000
29.5000 599.0000 1.0000
29.5100 605.0000 1.0000
29.5200 612.0000 1.0000
29.5300 622.0000 1.0000
29.5400 612.0000 1.0000
29.5500 616.0000 1.0000
29.5600 575.0000 1.0000
29.5700 573.0000 1.0000
29.5800 593.0000 1.0000
29.5900 623.0000 1.0000
29.6000 604.0000 1.0000
29.6100 614.0000 1.0000
29.6200 609.0000 1.0000
29.6300 586.0000 1.0000
29.6400 615.0000 1.0000
29.6500 616.0000 1.0000
29.6600 626.0000 1.0000
29.6700 609.0000 1.0000
29.6800 589.0000 1.0000
29.6900 645.0000 1.0000
29.7000 578.0000 1.0000
29.7100 584.0000 1.0000
29.7200 633.0000 1.0000
29.7300 621.0000 1.0000
29.7400 617.0000 1.0000
29.7500 621.0000 1.0000
29.7600 630.0000 1.0000
29.7700 627.0000 1.0000
29.7800 588.0000 1.0000
29.7900 618.0000 1.0000
29.8000 632.0000 1.0000
29.8100 659.0000 1.0000
29.8200 577.0000 1.0000
29.8300 586.0000 1.0000
29.8400 598.0000 1.0000
29.8500 591.0000 1.0000
29.8600 595.0000 1.0000
29.8700 603.0000 1.0000
29.8800 614.0000 1.0000
29.8900 574.0000 1.0000
29.9000 589.0000 1.0000
29.9100 606.0000 1.0000
29.9200 617.0000 1.0000
29.9300 585.0000 1.0000
29.9400 610.0000 1.0000
29.9500 585.0000 1.0000
29.9600 593.0000 1.0000
29.9700 584.0000 1.0000
29.9800 557.0000 1.0000
29.9900 572.0000 1.0000
30.0000 589.0000 1.0000
30.0100 612.0000 1.0000
30.0200 603.0000 1.0000
30.0300 608.0000 1.0000
30.0400 625.0000 1.0000
30.0500 587.0000 1.0000
30.0600 568.0000 1.0000
30.0700 558.0000 1.0000
30.0800 559.0000 1.0000
30.0900 606.0000 1.0000
30.1000 570.0000 1.0000
30.1100 591.0000 1.0000
30.1200 584.0000 1.0000
30.1300 601.0000 1.0000
30.1400 609.0000 1.0000
30.1500 615.0000 1.0000
30.1600 589.0000 1.0000
30.1700 564.0000 1.0000
30.1800 574.0000 1.0000
30.1900 576.0000 1.0000
30.2000 591.0000 1.0000
30.2100 590.0000 1.0000
30.2200 567.0000 1.0000
30.2300 621.0000 1.0000
30.2400 614.0000 1.0000
30.2500 573.0000 1.0000
30.2600 646.0000 1.0000
30.2700 579.0000 1.0000
30.2800 554.0000 1.0000
30.2900 576.0000 1.0000
30.3000 567.0000 1.0000
30.3100 588.0000 1.0000
30.3200 577.0000 1.0000
30.3300 600.0000 1.0000
30.3400 597.0000 1.0000
30.3500 584.0000 1.0000
30.3600 601.0000 1.0000
30.3700 580.0000 1.0000
30.3800 608.0000 1.0000
30.3900 601.0000 1.0000
30.4000 587.0000 1.0000
30.4100 576.0000 1.0000
30.4200 578.0000 1.0000
30.4300 552.0000 1.0000
30.4400 605.0000 1.0000
30.4500 586.0000 1.0000
30.4600 575.0000 1.0000
30.4700 598.0000 1.0000
30.4800 619.0000 1.0000
30.4900 609.0000 1.0000
30.5000 592.0000 1.0000
30.5100 586.0000 1.0000
30.5200 595.0000 1.0000
30.5300 607.0000 1.0000
30.5400 589.0000 1.0000
30.5500 594.0000 1.0000
30.5600 558.0000 1.0000
30.5700 608.0000 1.0000
30.5800 600.0000 1.0000
30.5900 575.0000 1.0000
30.6000 595.0000 1.0000
30.6100 572.0000 1.0000
30.6200 577.0000 1.0000
30.6300 609.0000 1.0000
30.6400 602.0000 1.0000
30.6500 559.0000 1.0000
30.6600 597.0000 1.0000
30.6700 584.0000 1.0000
30.6800 549.0000 1.0000
30.6900 603.0000 1.0000
30.7000 586.0000 1.0000
30.7100 588.0000 1.0000
30.7200 570.0000 1.0000
30.7300 571.0000 1.0000
30.7400 608.0000 1.0000
30.7500 582.0000 1.0000
30.7600 566.0000 1.0000
30.7700 571.0000 1.0000
30.7800 561.0000 1.0000
30.7900 567.0000 1.0000
30.8000 624.0000 1.0000
30.8100 575.0000 1.0000
30.8200 605.0000 1.0000
30.8300 598.0000 1.0000
30.8400 571.0000 1.0000
30.8500 616.0000 1.0000
30.8600 568.0000 1.0000
30.8700 578.0000 1.0000
30.8800 564.0000 1.0000
30.8900 573.0000 1.0000
30.9000 553.0000 1.0000
30.9100 591.0000 1.0000
30.9200 596.0000 1.0000
30.9300 565.0000 1.0000
30.9400 564.0000 1.0000
30.9500 570.0000 1.0000
30.9600 593.0000 1.0000
30.9700 590.0000 1.0000
30.9800 546.0000 1.0000
30.9900 555.0000 1.0000
31.0000 564.0000 1.0000
31.0100 554.0000 1.0000
31.0200 597.0000 1.0000
31.0300 606.0000 1.0000
31.0400 590.0000 1.0000
31.0500 598.0000 1.0000
31.0600 589.0000 1.0000
31.0700 584.0000 1.0000
31.0800 567.0000 1.0000
31.0900 612.0000 1.0000
31.1000 600.0000 1.0000
31.1100 574.0000 1.0000
31.1200 600.0000 1.0000
31.1300 611.0000 1.0000
31.1400 606.0000 1.0000
31.1500 607.0000 1.0000
31.1600 636.0000 1.0000
31.1700 615.0000 1.0000
31.1800 599.0000 1.0000
31.1900 607.0000 1.0000
31.2000 586.0000 1.0000
31.2100 625.0000 1.0000
31.2200 592.0000 1.0000
31.2300 570.0000 1.0000
31.2400 579.0000 1.0000
31.2500 580.0000 1.0000
31.2600 585.0000 1.0000
31.2700 584.0000 1.0000
31.2800 594.0000 1.0000
31.2900 586.0000 1.0000
31.3000 631.0000 1.0000
31.3100 616.0000 1.0000
31.3200 594.0000 1.0000
31.3300 560.0000 1.0000
31.3400 575.0000 1.0000
31.3500 586.0000 1.0000
31.3600 617.0000 1.0000
31.3700 575.0000 1.0000
31.3800 567.0000 1.0000
31.3900 569.0000 1.0000
31.4000 552.0000 1.0000
31.4100 566.0000 1.0000
31.4200 566.0000 1.0000
31.4300 576.0000 1.0000
31.4400 556.0000 1.0000
31.4500 571.0000 1.0000
31.4600 576.0000 1.0000
31.4700 612.0000 1.0000
31.4800 629.0000 1.0000
31.4900 609.0000 1.0000
31.5000 599.0000 1.0000
31.5100 616.0000 1.0000
31.5200 617.0000 1.0000
31.5300 589.0000 1.0000
31.5400 607.0000 1.0000
31.5500 617.0000 1.0000
31.5600 595.0000 1.0000
31.5700 605.0000 1.0000
31.5800 599.0000 1.0000
31.5900 644.0000 1.0000
31.6000 648.0000 1.0000
31.6100 622.0000 1.0000
31.6200 630.0000 1.0000
31.6300 604.0000 1.0000
31.6400 626.0000 1.0000
31.6500 630.0000 1.0000
31.6600 632.0000 1.0000
31.6700 590.0000 1.0000
31.6800 570.0000 1.0000
31.6900 630.0000 1.0000
31.7000 609.0000 1.0000
31.7100 612.0000 1.0000
31.7200 634.0000 1.0000
31.7300 622.0000 1.0000
31.7400 573.0000 1.0000
31.7500 629.0000 1.0000
31.7600 572.0000 1.0000
31.7700 574.0000 1.0000
31.7800 607.0000 1.0000
31.7900 565.0000 1.0000
31.8000 588.0000 1.0000
31.8100 548.0000 1.0000
31.8200 573.0000 1.0000
31.8300 581.0000 1.0000
31.8400 558.0000 1.0000
31.8500 590.0000 1.0000
31.8600 521.0000 1.0000
31.8700 579.0000 1.0000
31.8800 552.0000 1.0000
31.8900 568.0000 1.0000
31.9000 597.0000 1.0000
31.9100 568.0000 1.0000
31.9200 571.0000 1.0000
31.9300 607.0000 1.0000
31.9400 557.0000 1.0000
31.9500 552.0000 1.0000
31.9600 548.0000 1.0000
31.9700 585.0000 1.0000
31.9800 563.0000 1.0000
31.9900 585.0000 1.0000
32.0000 561.0000 1.0000
32.0100 542.0000 1.0000
32.0200 536.0000 1.0000
32.0300 571.0000 1.0000
32.0400 552.0000 1.0000
32.0500 566.0000 1.0000
32.0600 574.0000 1.0000
32.0700 513.0000 1.0000
32.0800 580.0000 1.0000
32.0900 562.0000 1.0000
32.1000 560.0000 1.0000
32.1100 549.0000 1.0000
32.1200 541.0000 1.0000
32.1300 573.0000 1.0000
32.1400 572.0000 1.0000
32.1500 542.0000 1.0000
32.1600 525.0000 1.0000
32.1700 574.0000 1.0000
32.1800 559.0000 1.0000
32.1900 569.0000 1.0000
32.2000 546.0000 1.0000
32.2100 504.0000 1.0000
32.2200 586.0000 1.0000
32.2300 561.0000 1.0000
32.2400 529.0000 1.0000
32.2500 580.0000 1.0000
32.2600 562.0000 1.0000
32.2700 599.0000 1.0000
32.2800 576.0000 1.0000
32.2900 547.0000 1.0000
32.3000 537.0000 1.0000
32.3100 583.0000 1.0000
32.3200 550.0000 1.0000
32.3300 591.0000 1.0000
32.3400 550.0000 1.0000
32.3500 565.0000 1.0000
32.3600 531.0000 1.0000
32.3700 550.0000 1.0000
32.3800 558.0000 1.0000
32.3900 558.0000 1.0000
32.4000 555.0000 1.0000
32.4100 538.0000 1.0000
32.4200 557.0000 1.0000
32.4300 548.0000 1.0000
32.4400 558.0000 1.0000
32.4500 558.0000 1.0000
32.4600 555.0000 1.0000
32.4700 552.0000 1.0000
32.4800 558.0000 1.0000
32.4900 533.0000 1.0000
32.5000 557.0000 1.0000
32.5100 558.0000 1.0000
32.5200 570.0000 1.0000
32.5300 571.0000 1.0000
32.5400 541.0000 1.0000
32.5500 564.0000 1.0000
32.5600 544.0000 1.0000
32.5700 535.0000 1.0000
32.5800 575.0000 1.0000
32.5900 559.0000 1.0000
32.6000 540.0000 1.0000
32.6100 551.0000 1.0000
32.6200 553.0000 1.0000
32.6300 557.0000 1.0000
32.6400 538.0000 1.0000
32.6500 540.0000 1.0000
32.6600 535.0000 1.0000
32.6700 577.0000 1.0000
32.6800 589.0000 1.0000
32.6900 573.0000 1.0000
32.7000 527.0000 1.0000
32.7100 561.0000 1.0000
32.7200 560.0000 1.0000
32.7300 556.0000 1.0000
32.7400 571.0000 1.0000
32.7500 531.0000 1.0000
32.7600 564.0000 1.0000
32.7700 561.0000 1.0000
32.7800 578.0000 1.0000
32.7900 547.0000 1.0000
32.8000 568.0000 1.0000
32.8100 558.0000 1.0000
32.8200 553.0000 1.0000
32.8300 564.0000 1.0000
32.8400 568.0000 1.0000
32.8500 558.0000 1.0000
32.8600 616.0000 1.0000
32.8700 559.0000 1.0000
32.8800 553.0000 1.0000
32.8900 603.0000 1.0000
32.9000 547.0000 1.0000
32.9100 597.0000 1.0000
32.9200 614.0000 1.0000
32.9300 636.0000 1.0000
32.9400 614.0000 1.0000
32.9500 616.0000 1.0000
32.9600 641.0000 1.0000
32.9700 639.0000 1.0000
32.9800 622.0000 1.0000
32.9900 611.0000 1.0000
33.0000 659.0000 1.0000
33.0100 711.0000 1.0000
33.0200 684.0000 1.0000
33.0300 683.0000 1.0000
33.0400 692.0000 1.0000
33.0500 684.0000 1.0000
33.0600 755.0000 1.0000
33.0700 734.0000 1.0000
33.0800 753.0000 1.0000
33.0900 731.0000 1.0000
33.1000 736.0000 1.0000
33.1100 753.0000 1.0000
33.1200 711.0000 1.0000
33.1300 753.0000 1.0000
33.1400 701.0000 1.0000
33.1500 720.0000 1.0000
33.1600 729.0000 1.0000
33.1700 656.0000 1.0000
33.1800 669.0000 1.0000
33.1900 640.0000 1.0000
33.2000 627.0000 1.0000
33.2100 653.0000 1.0000
33.2200 664.0000 1.0000
33.2300 674.0000 1.0000
33.2400 640.0000 1.0000
33.2500 610.0000 1.0000
33.2600 639.0000 1.0000
33.2700 610.0000 1.0000
33.2800 598.0000 1.0000
33.2900 630.0000 1.0000
33.3000 587.0000 1.0000
33.3100 625.0000 1.0000
33.3200 628.0000 1.0000
33.3300 621.0000 1.0000
33.3400 597.0000 1.0000
33.3500 585.0000 1.0000
33.3600 569.0000 1.0000
33.3700 620.0000 1.0000
33.3800 615.0000 1.0000
33.3900 587.0000 1.0000
33.4000 579.0000 1.0000
33.4100 621.0000 1.0000
33.4200 598.0000 1.0000
33.4300 558.0000 1.0000
33.4400 645.0000 1.0000
33.4500 635.0000 1.0000
33.4600 653.0000 1.0000
33.4700 601.0000 1.0000
33.4800 636.0000 1.0000
33.4900 667.0000 1.0000
33.5000 694.0000 1.0000
33.5100 653.0000 1.0000
33.5200 646.0000 1.0000
33.5300 689.0000 1.0000
33.5400 698.0000 1.0000
33.5500 669.0000 1.0000
33.5600 660.0000 1.0000
33.5700 668.0000 1.0000
33.5800 704.0000 1.0000
33.5900 763.0000 1.0000
33.6000 719.0000 1.0000
33.6100 745.0000 1.0000
33.6200 715.0000 1.0000
33.6300 731.0000 1.0000
33.6400 692.0000 1.0000
33.6500 724.0000 1.0000
33.6600 710.0000 1.0000
33.6700 692.0000 1.0000
33.6800 686.0000 1.0000
33.6900 705.0000 1.0000
33.7000 716.0000 1.0000
33.7100 702.0000 1.0000
33.7200 657.0000 1.0000
33.7300 694.0000 1.0000
33.7400 662.0000 1.0000
33.7500 637.0000 1.0000
33.7600 637.0000 1.0000
33.7700 666.0000 1.0000
33.7800 668.0000 1.0000
33.7900 616.0000 1.0000
33.8000 620.0000 1.0000
33.8100 621.0000 1.0000
33.8200 608.0000 1.0000
33.8300 636.0000 1.0000
33.8400 639.0000 1.0000
33.8500 607.0000 1.0000
33.8600 631.0000 1.0000
33.8700 665.0000 1.0000
33.8800 583.0000 1.0000
33.8900 591.0000 1.0000
33.9000 632.0000 1.0000
33.9100 581.0000 1.0000
33.9200 611.0000 1.0000
33.9300 591.0000 1.0000
33.9400 580.0000 1.0000
33.9500 577.0000 1.0000
33.9600 591.0000 1.0000
33.9700 540.0000 1.0000
33.9800 578.0000 1.0000
33.9900 571.0000 1.0000
34.0000 576.0000 1.0000
34.0100 536.0000 1.0000
34.0200 563.0000 1.0000
34.0300 548.0000 1.0000
34.0400 534.0000 1.0000
34.0500 514.0000 1.0000
34.0600 532.0000 1.0000
34.0700 514.0000 1.0000
34.0800 511.0000 1.0000
34.0900 518.0000 1.0000
34.1000 539.0000 1.0000
34.1100 536.0000 1.0000
34.1200 549.0000 1.0000
34.1300 560.0000 1.0000
34.1400 531.0000 1.0000
34.1500 486.0000 1.0000
34.1600 524.0000 1.0000
34.1700 519.0000 1.0000
34.1800 550.0000 1.0000
34.1900 534.0000 1.0000
34.2000 546.0000 1.0000
34.2100 509.0000 1.0000
34.2200 509.0000 1.0000
34.2300 486.0000 1.0000
34.2400 519.0000 1.0000
34.2500 512.0000 1.0000
34.2600 505.0000 1.0000
34.2700 524.0000 1.0000
34.2800 540.0000 1.0000
34.2900 517.0000 1.0000
34.3000 511.0000 1.0000
34.3100 493.0000 1.0000
34.3200 530.0000 1.0000
34.3300 510.0000 1.0000
34.3400 522.0000 1.0000
34.3500 497.0000 1.0000
34.3600 500.0000 1.0000
34.3700 500.0000 1.0000
34.3800 489.0000 1.0000
34.3900 504.0000 1.0000
34.4000 540.0000 1.0000
34.4100 489.0000 1.0000
34.4200 557.0000 1.0000
34.4300 522.0000 1.0000
34.4400 516.0000 1.0000
34.4500 529.0000 1.0000
34.4600 509.0000 1.0000
34.4700 513.0000 1.0000
34.4800 515.0000 1.0000
34.4900 501.0000 1.0000
34.5000 501.0000 1.0000
34.5100 499.0000 1.0000
34.5200 520.0000 1.0000
34.5300 510.0000 1.0000
34.5400 499.0000 1.0000
34.5500 493.0000 1.0000
34.5600 500.0000 1.0000
34.5700 473.0000 1.0000
34.5800 516.0000 1.0000
34.5900 488.0000 1.0000
34.6000 532.0000 1.0000
34.6100 515.0000 1.0000
34.6200 483.0000 1.0000
34.6300 452.0000 1.0000
34.6400 503.0000 1.0000
34.6500 498.0000 1.0000
34.6600 475.0000 1.0000
34.6700 446.0000 1.0000
34.6800 472.0000 1.0000
34.6900 488.0000 1.0000
34.7000 510.0000 1.0000
34.7100 484.0000 1.0000
34.7200 467.0000 1.0000
34.7300 497.0000 1.0000
34.7400 497.0000 1.0000
34.7500 455.0000 1.0000
34.7600 465.0000 1.0000
34.7700 477.0000 1.0000
34.7800 484.0000 1.0000
34.7900 487.0000 1.0000
34.8000 462.0000 1.0000
34.8100 467.0000 1.0000
34.8200 484.0000 1.0000
34.8300 489.0000 1.0000
34.8400 495.0000 1.0000
34.8500 498.0000 1.0000
34.8600 498.0000 1.0000
34.8700 467.0000 1.0000
34.8800 493.0000 1.0000
34.8900 493.0000 1.0000
34.9000 469.0000 1.0000
34.9100 536.0000 1.0000
34.9200 522.0000 1.0000
34.9300 510.0000 1.0000
34.9400 487.0000 1.0000
34.9500 465.0000 1.0000
34.9600 507.0000 1.0000
34.9700 486.0000 1.0000
34.9800 480.0000 1.0000
34.9900 498.0000 1.0000
35.0000 507.0000 1.0000
35.0100 502.0000 1.0000
35.0200 484.0000 1.0000
35.0300 481.0000 1.0000
35.0400 509.0000 1.0000
35.0500 485.0000 1.0000
35.0600 506.0000 1.0000
35.0700 533.0000 1.0000
35.0800 508.0000 1.0000
35.0900 488.0000 1.0000
35.1000 458.0000 1.0000
35.1100 502.0000 1.0000
35.1200 498.0000 1.0000
35.1300 501.0000 1.0000
35.1400 535.0000 1.0000
35.1500 501.0000 1.0000
35.1600 488.0000 1.0000
35.1700 463.0000 1.0000
35.1800 506.0000 1.0000
35.1900 490.0000 1.0000
35.2000 523.0000 1.0000
35.2100 486.0000 1.0000
35.2200 522.0000 1.0000
35.2300 505.0000 1.0000
35.2400 524.0000 1.0000
35.2500 516.0000 1.0000
35.2600 551.0000 1.0000
35.2700 546.0000 1.0000
35.2800 561.0000 1.0000
35.2900 536.0000 1.0000
35.3000 573.0000 1.0000
35.3100 562.0000 1.0000
35.3200 574.0000 1.0000
35.3300 607.0000 1.0000
35.3400 590.0000 1.0000
35.3500 604.0000 1.0000
35.3600 628.0000 1.0000
35.3700 632.0000 1.0000
35.3800 657.0000 1.0000
35.3900 658.0000 1.0000
35.4000 666.0000 1.0000
35.4100 686.0000 1.0000
35.4200 727.0000 1.0000
35.4300 761.0000 1.0000
35.4400 784.0000 1.0000
35.4500 763.0000 1.0000
35.4600 861.0000 1.0000
35.4700 899.0000 1.0000
35.4800 978.0000 1.0000
35.4900 980.0000 1.0000
35.5000 1005.0000 1.0000
35.5100 1024.0000 1.0000
35.5200 1046.0000 1.0000
35.5300 1067.0000 1.0000
35.5400 1183.0000 1.0000
35.5500 1145.0000 1.0000
35.5600 1127.0000 1.0000
35.5700 1112.0000 1.0000
35.5800 1127.0000 1.0000
35.5900 1135.0000 1.0000
35.6000 1116.0000 1.0000
35.6100 1102.0000 1.0000
35.6200 1051.0000 1.0000
35.6300 1009.0000 1.0000
35.6400 1004.0000 1.0000
35.6500 897.0000 1.0000
35.6600 927.0000 1.0000
35.6700 868.0000 1.0000
35.6800 827.0000 1.0000
35.6900 827.0000 1.0000
35.7000 804.0000 1.0000
35.7100 739.0000 1.0000
35.7200 727.0000 1.0000
35.7300 654.0000 1.0000
35.7400 692.0000 1.0000
35.7500 626.0000 1.0000
35.7600 613.0000 1.0000
35.7700 603.0000 1.0000
35.7800 581.0000 1.0000
35.7900 592.0000 1.0000
35.8000 581.0000 1.0000
35.8100 540.0000 1.0000
35.8200 532.0000 1.0000
35.8300 543.0000 1.0000
35.8400 550.0000 1.0000
35.8500 530.0000 1.0000
35.8600 523.0000 1.0000
35.8700 482.0000 1.0000
35.8800 468.0000 1.0000
35.8900 479.0000 1.0000
35.9000 484.0000 1.0000
35.9100 493.0000 1.0000
35.9200 514.0000 1.0000
35.9300 480.0000 1.0000
35.9400 477.0000 1.0000
35.9500 465.0000 1.0000
35.9600 454.0000 1.0000
35.9700 479.0000 1.0000
35.9800 477.0000 1.0000
35.9900 479.0000 1.0000
36.0000 471.0000 1.0000
36.0100 484.0000 1.0000
36.0200 441.0000 1.0000
36.0300 430.0000 1.0000
36.0400 448.0000 1.0000
36.0500 459.0000 1.0000
36.0600 446.0000 1.0000
36.0700 469.0000 1.0000
36.0800 448.0000 1.0000
36.0900 439.0000 1.0000
36.1000 430.0000 1.0000
36.1100 453.0000 1.0000
36.1200 484.0000 1.0000
36.1300 493.0000 1.0000
36.1400 469.0000 1.0000
36.1500 460.0000 1.0000
36.1600 467.0000 1.0000
36.1700 445.0000 1.0000
36.1800 446.0000 1.0000
36.1900 457.0000 1.0000
36.2000 446.0000 1.0000
36.2100 453.0000 1.0000
36.2200 465.0000 1.0000
36.2300 432.0000 1.0000
36.2400 447.0000 1.0000
36.2500 451.0000 1.0000
36.2600 490.0000 1.0000
36.2700 460.0000 1.0000
36.2800 461.0000 1.0000
36.2900 481.0000 1.0000
36.3000 453.0000 1.0000
36.3100 487.0000 1.0000
36.3200 434.0000 1.0000
36.3300 479.0000 1.0000
36.3400 480.0000 1.0000
36.3500 489.0000 1.0000
36.3600 500.0000 1.0000
36.3700 453.0000 1.0000
36.3800 448.0000 1.0000
36.3900 420.0000 1.0000
36.4000 453.0000 1.0000
36.4100 476.0000 1.0000
36.4200 468.0000 1.0000
36.4300 465.0000 1.0000
36.4400 452.0000 1.0000
36.4500 485.0000 1.0000
36.4600 460.0000 1.0000
36.4700 471.0000 1.0000
36.4800 498.0000 1.0000
36.4900 433.0000 1.0000
36.5000 423.0000 1.0000
36.5100 456.0000 1.0000
36.5200 441.0000 1.0000
36.5300 462.0000 1.0000
36.5400 438.0000 1.0000
36.5500 476.0000 1.0000
36.5600 452.0000 1.0000
36.5700 468.0000 1.0000
36.5800 450.0000 1.0000
36.5900 465.0000 1.0000
36.6000 448.0000 1.0000
36.6100 421.0000 1.0000
36.6200 436.0000 1.0000
36.6300 469.0000 1.0000
36.6400 499.0000 1.0000
36.6500 441.0000 1.0000
36.6600 460.0000 1.0000
36.6700 452.0000 1.0000
36.6800 447.0000 1.0000
36.6900 473.0000 1.0000
36.7000 493.0000 1.0000
36.7100 452.0000 1.0000
36.7200 451.0000 1.0000
36.7300 467.0000 1.0000
36.7400 434.0000 1.0000
36.7500 465.0000 1.0000
36.7600 463.0000 1.0000
36.7700 504.0000 1.0000
36.7800 453.0000 1.0000
36.7900 468.0000 1.0000
36.8000 450.0000 1.0000
36.8100 444.0000 1.0000
36.8200 460.0000 1.0000
36.8300 448.0000 1.0000
36.8400 434.0000 1.0000
36.8500 456.0000 1.0000
36.8600 458.0000 1.0000
36.8700 429.0000 1.0000
36.8800 464.0000 1.0000
36.8900 452.0000 1.0000
36.9000 488.0000 1.0000
36.9100 485.0000 1.0000
36.9200 459.0000 1.0000
36.9300 462.0000 1.0000
36.9400 474.0000 1.0000
36.9500 488.0000 1.0000
36.9600 505.0000 1.0000
36.9700 490.0000 1.0000
36.9800 445.0000 1.0000
36.9900 470.0000 1.0000
37.0000 475.0000 1.0000
37.0100 472.0000 1.0000
37.0200 516.0000 1.0000
37.0300 481.0000 1.0000
37.0400 419.0000 1.0000
37.0500 457.0000 1.0000
37.0600 483.0000 1.0000
37.0700 466.0000 1.0000
37.0800 459.0000 1.0000
37.0900 475.0000 1.0000
37.1000 497.0000 1.0000
37.1100 510.0000 1.0000
37.1200 504.0000 1.0000
37.1300 468.0000 1.0000
37.1400 515.0000 1.0000
37.1500 521.0000 1.0000
37.1600 504.0000 1.0000
37.1700 478.0000 1.0000
37.1800 489.0000 1.0000
37.1900 498.0000 1.0000
37.2000 482.0000 1.0000
37.2100 502.0000 1.0000
37.2200 496.0000 1.0000
37.2300 505.0000 1.0000
37.2400 534.0000 1.0000
37.2500 540.0000 1.0000
37.2600 529.0000 1.0000
37.2700 538.0000 1.0000
37.2800 524.0000 1.0000
37.2900 526.0000 1.0000
37.3000 555.0000 1.0000
37.3100 573.0000 1.0000
37.3200 598.0000 1.0000
37.3300 663.0000 1.0000
37.3400 640.0000 1.0000
37.3500 685.0000 1.0000
37.3600 609.0000 1.0000
37.3700 659.0000 1.0000
37.3800 689.0000 1.0000
37.3900 742.0000 1.0000
37.4000 752.0000 1.0000
37.4100 762.0000 1.0000
37.4200 693.0000 1.0000
37.4300 812.0000 1.0000
37.4400 802.0000 1.0000
37.4500 871.0000 1.0000
37.4600 893.0000 1.0000
37.4700 940.0000 1.0000
37.4800 969.0000 1.0000
37.4900 981.0000 1.0000
37.5000 1013.0000 1.0000
37.5100 1073.0000 1.0000
37.5200 1161.0000 1.0000
37.5300 1207.0000 1.0000
37.5400 1280.0000 1.0000
37.5500 1288.0000 1.0000
37.5600 1366.0000 1.0000
37.5700 1451.0000 1.0000
37.5800 1540.0000 1.0000
37.5900 1708.0000 1.0000
37.6000 1760.0000 1.0000
37.6100 1958.0000 1.0000
37.6200 2041.0000 1.0000
37.6300 2095.0000 1.0000
37.6400 2265.0000 1.0000
37.6500 2388.0000 1.0000
37.6600 2584.0000 1.0000
37.6700 2705.0000 1.0000
37.6800 2630.0000 1.0000
37.6900 2774.0000 1.0000
37.7000 2771.0000 1.0000
37.7100 2885.0000 1.0000
37.7200 2871.0000 1.0000
37.7300 2868.0000 1.0000
37.7400 2911.0000 1.0000
37.7500 2809.0000 1.0000
37.7600 2738.0000 1.0000
37.7700 2678.0000 1.0000
37.7800 2612.0000 1.0000
37.7900 2486.0000 1.0000
37.8000 2404.0000 1.0000
37.8100 2356.0000 1.0000
37.8200 2276.0000 1.0000
37.8300 2128.0000 1.0000
37.8400 2071.0000 1.0000
37.8500 1928.0000 1.0000
37.8600 1783.0000 1.0000
37.8700 1697.0000 1.0000
37.8800 1583.0000 1.0000
37.8900 1442.0000 1.0000
37.9000 1406.0000 1.0000
37.9100 1337.0000 1.0000
37.9200 1245.0000 1.0000
37.9300 1141.0000 1.0000
37.9400 1126.0000 1.0000
37.9500 1012.0000 1.0000
37.9600 1002.0000 1.0000
37.9700 952.0000 1.0000
37.9800 891.0000 1.0000
37.9900 839.0000 1.0000
38.0000 791.0000 1.0000
38.0100 808.0000 1.0000
38.0200 737.0000 1.0000
38.0300 743.0000 1.0000
38.0400 688.0000 1.0000
38.0500 657.0000 1.0000
38.0600 675.0000 1.0000
38.0700 659.0000 1.0000
38.0800 590.0000 1.0000
38.0900 614.0000 1.0000
38.1000 574.0000 1.0000
38.1100 601.0000 1.0000
38.1200 587.0000 1.0000
38.1300 553.0000 1.0000
38.1400 535.0000 1.0000
38.1500 524.0000 1.0000
38.1600 536.0000 1.0000
38.1700 512.0000 1.0000
38.1800 484.0000 1.0000
38.1900 514.0000 1.0000
38.2000 484.0000 1.0000
38.2100 470.0000 1.0000
38.2200 529.0000 1.0000
38.2300 474.0000 1.0000
38.2400 468.0000 1.0000
38.2500 499.0000 1.0000
38.2600 473.0000 1.0000
38.2700 461.0000 1.0000
38.2800 492.0000 1.0000
38.2900 462.0000 1.0000
38.3000 461.0000 1.0000
38.3100 477.0000 1.0000
38.3200 461.0000 1.0000
38.3300 442.0000 1.0000
38.3400 452.0000 1.0000
38.3500 466.0000 1.0000
38.3600 464.0000 1.0000
38.3700 453.0000 1.0000
38.3800 441.0000 1.0000
38.3900 385.0000 1.0000
38.4000 444.0000 1.0000
38.4100 446.0000 1.0000
38.4200 451.0000 1.0000
38.4300 435.0000 1.0000
38.4400 454.0000 1.0000
38.4500 440.0000 1.0000
38.4600 425.0000 1.0000
38.4700 439.0000 1.0000
38.4800 403.0000 1.0000
38.4900 416.0000 1.0000
38.5000 426.0000 1.0000
38.5100 412.0000 1.0000
38.5200 429.0000 1.0000
38.5300 430.0000 1.0000
38.5400 420.0000 1.0000
38.5500 431.0000 1.0000
38.5600 400.0000 1.0000
38.5700 376.0000 1.0000
38.5800 406.0000 1.0000
38.5900 406.0000 1.0000
38.6000 425.0000 1.0000
38.6100 436.0000 1.0000
38.6200 451.0000 1.0000
38.6300 423.0000 1.0000
38.6400 427.0000 1.0000
38.6500 418.0000 1.0000
38.6600 388.0000 1.0000
38.6700 406.0000 1.0000
38.6800 430.0000 1.0000
38.6900 395.0000 1.0000
38.7000 409.0000 1.0000
38.7100 423.0000 1.0000
38.7200 427.0000 1.0000
38.7300 425.0000 1.0000
38.7400 404.0000 1.0000
38.7500 415.0000 1.0000
38.7600 427.0000 1.0000
38.7700 406.0000 1.0000
38.7800 422.0000 1.0000
38.7900 399.0000 1.0000
38.8000 415.0000 1.0000
38.8100 447.0000 1.0000
38.8200 405.0000 1.0000
38.8300 368.0000 1.0000
38.8400 409.0000 1.0000
38.8500 401.0000 1.0000
38.8600 432.0000 1.0000
38.8700 426.0000 1.0000
38.8800 399.0000 1.0000
38.8900 387.0000 1.0000
38.9000 409.0000 1.0000
38.9100 408.0000 1.0000
38.9200 395.0000 1.0000
38.9300 403.0000 1.0000
38.9400 416.0000 1.0000
38.9500 421.0000 1.0000
38.9600 414.0000 1.0000
38.9700 452.0000 1.0000
38.9800 426.0000 1.0000
38.9900 407.0000 1.0000
39.0000 436.0000 1.0000
39.0100 365.0000 1.0000
39.0200 402.0000 1.0000
39.0300 386.0000 1.0000
39.0400 406.0000 1.0000
39.0500 364.0000 1.0000
39.0600 391.0000 1.0000
39.0700 416.0000 1.0000
39.0800 381.0000 1.0000
39.0900 398.0000 1.0000
39.1000 382.0000 1.0000
39.1100 408.0000 1.0000
39.1200 402.0000 1.0000
39.1300 414.0000 1.0000
39.1400 408.0000 1.0000
39.1500 391.0000 1.0000
39.1600 391.0000 1.0000
39.1700 398.0000 1.0000
39.1800 372.0000 1.0000
39.1900 383.0000 1.0000
39.2000 397.0000 1.0000
39.2100 399.0000 1.0000
39.2200 398.0000 1.0000
39.2300 399.0000 1.0000
39.2400 428.0000 1.0000
39.2500 407.0000 1.0000
39.2600 409.0000 1.0000
39.2700 422.0000 1.0000
39.2800 372.0000 1.0000
39.2900 403.0000 1.0000
39.3000 388.0000 1.0000
39.3100 409.0000 1.0000
39.3200 401.0000 1.0000
39.3300 388.0000 1.0000
39.3400 392.0000 1.0000
39.3500 367.0000 1.0000
39.3600 386.0000 1.0000
39.3700 407.0000 1.0000
39.3800 366.0000 1.0000
39.3900 398.0000 1.0000
39.4000 376.0000 1.0000
39.4100 416.0000 1.0000
39.4200 382.0000 1.0000
39.4300 383.0000 1.0000
39.4400 381.0000 1.0000
39.4500 387.0000 1.0000
39.4600 385.0000 1.0000
39.4700 383.0000 1.0000
39.4800 399.0000 1.0000
39.4900 410.0000 1.0000
39.5000 404.0000 1.0000
39.5100 395.0000 1.0000
39.5200 355.0000 1.0000
39.5300 384.0000 1.0000
39.5400 356.0000 1.0000
39.5500 381.0000 1.0000
39.5600 401.0000 1.0000
39.5700 373.0000 1.0000
39.5800 429.0000 1.0000
39.5900 414.0000 1.0000
39.6000 413.0000 1.0000
39.6100 393.0000 1.0000
39.6200 417.0000 1.0000
39.6300 389.0000 1.0000
39.6400 401.0000 1.0000
39.6500 381.0000 1.0000
39.6600 354.0000 1.0000
39.6700 385.0000 1.0000
39.6800 386.0000 1.0000
39.6900 375.0000 1.0000
39.7000 372.0000 1.0000
39.7100 376.0000 1.0000
39.7200 365.0000 1.0000
39.7300 386.0000 1.0000
39.7400 383.0000 1.0000
39.7500 369.0000 1.0000
39.7600 362.0000 1.0000
39.7700 366.0000 1.0000
39.7800 381.0000 1.0000
39.7900 353.0000 1.0000
39.8000 394.0000 1.0000
39.8100 375.0000 1.0000
39.8200 378.0000 1.0000
39.8300 385.0000 1.0000
39.8400 358.0000 1.0000
39.8500 401.0000 1.0000
39.8600 396.0000 1.0000
39.8700 389.0000 1.0000
39.8800 374.0000 1.0000
39.8900 394.0000 1.0000
39.9000 412.0000 1.0000
39.9100 342.0000 1.0000
39.9200 372.0000 1.0000
39.9300 397.0000 1.0000
39.9400 384.0000 1.0000
39.9500 394.0000 1.0000
39.9600 373.0000 1.0000
39.9700 336.0000 1.0000
39.9800 402.0000 1.0000
39.9900 403.0000 1.0000
40.0000 386.0000 1.0000
40.0100 350.0000 1.0000
40.0200 386.0000 1.0000
40.0300 382.0000 1.0000
40.0400 390.0000 1.0000
40.0500 388.0000 1.0000
40.0600 367.0000 1.0000
40.0700 376.0000 1.0000
40.0800 399.0000 1.0000
40.0900 353.0000 1.0000
40.1000 398.0000 1.0000
40.1100 395.0000 1.0000
40.1200 362.0000 1.0000
40.1300 381.0000 1.0000
40.1400 381.0000 1.0000
40.1500 366.0000 1.0000
40.1600 407.0000 1.0000
40.1700 373.0000 1.0000
40.1800 360.0000 1.0000
40.1900 382.0000 1.0000
40.2000 352.0000 1.0000
40.2100 361.0000 1.0000
40.2200 366.0000 1.0000
40.2300 355.0000 1.0000
40.2400 396.0000 1.0000
40.2500 393.0000 1.0000
40.2600 367.0000 1.0000
40.2700 377.0000 1.0000
40.2800 371.0000 1.0000
40.2900 388.0000 1.0000
40.3000 362.0000 1.0000
40.3100 348.0000 1.0000
40.3200 386.0000 1.0000
40.3300 386.0000 1.0000
40.3400 420.0000 1.0000
40.3500 399.0000 1.0000
40.3600 370.0000 1.0000
40.3700 381.0000 1.0000
40.3800 400.0000 1.0000
40.3900 408.0000 1.0000
40.4000 393.0000 1.0000
40.4100 409.0000 1.0000
40.4200 371.0000 1.0000
40.4300 421.0000 1.0000
40.4400 408.0000 1.0000
40.4500 369.0000 1.0000
40.4600 386.0000 1.0000
40.4700 434.0000 1.0000
40.4800 390.0000 1.0000
40.4900 413.0000 1.0000
40.5000 422.0000 1.0000
40.5100 415.0000 1.0000
40.5200 406.0000 1.0000
40.5300 376.0000 1.0000
40.5400 352.0000 1.0000
40.5500 393.0000 1.0000
40.5600 410.0000 1.0000
40.5700 406.0000 1.0000
40.5800 373.0000 1.0000
40.5900 408.0000 1.0000
40.6000 408.0000 1.0000
40.6100 374.0000 1.0000
40.6200 447.0000 1.0000
40.6300 427.0000 1.0000
40.6400 411.0000 1.0000
40.6500 400.0000 1.0000
40.6600 373.0000 1.0000
40.6700 419.0000 1.0000
40.6800 412.0000 1.0000
40.6900 390.0000 1.0000
40.7000 414.0000 1.0000
40.7100 421.0000 1.0000
40.7200 430.0000 1.0000
40.7300 410.0000 1.0000
40.7400 420.0000 1.0000
40.7500 417.0000 1.0000
40.7600 404.0000 1.0000
40.7700 424.0000 1.0000
40.7800 437.0000 1.0000
40.7900 437.0000 1.0000
40.8000 458.0000 1.0000
40.8100 428.0000 1.0000
40.8200 450.0000 1.0000
40.8300 469.0000 1.0000
40.8400 450.0000 1.0000
40.8500 396.0000 1.0000
40.8600 435.0000 1.0000
40.8700 449.0000 1.0000
40.8800 411.0000 1.0000
40.8900 416.0000 1.0000
40.9000 448.0000 1.0000
40.9100 425.0000 1.0000
40.9200 422.0000 1.0000
40.9300 417.0000 1.0000
40.9400 405.0000 1.0000
40.9500 420.0000 1.0000
40.9600 432.0000 1.0000
40.9700 434.0000 1.0000
40.9800 388.0000 1.0000
40.9900 404.0000 1.0000
41.0000 374.0000 1.0000
41.0100 393.0000 1.0000
41.0200 390.0000 1.0000
41.0300 414.0000 1.0000
41.0400 379.0000 1.0000
41.0500 358.0000 1.0000
41.0600 379.0000 1.0000
41.0700 384.0000 1.0000
41.0800 401.0000 1.0000
41.0900 350.0000 1.0000
41.1000 382.0000 1.0000
41.1100 372.0000 1.0000
41.1200 366.0000 1.0000
41.1300 373.0000 1.0000
41.1400 381.0000 1.0000
41.1500 365.0000 1.0000
41.1600 368.0000 1.0000
41.1700 367.0000 1.0000
41.1800 385.0000 1.0000
41.1900 391.0000 1.0000
41.2000 379.0000 1.0000
41.2100 380.0000 1.0000
41.2200 360.0000 1.0000
41.2300 355.0000 1.0000
41.2400 379.0000 1.0000
41.2500 371.0000 1.0000
41.2600 376.0000 1.0000
41.2700 368.0000 1.0000
41.2800 366.0000 1.0000
41.2900 350.0000 1.0000
41.3000 393.0000 1.0000
41.3100 357.0000 1.0000
41.3200 357.0000 1.0000
41.3300 301.0000 1.0000
41.3400 347.0000 1.0000
41.3500 362.0000 1.0000
41.3600 374.0000 1.0000
41.3700 355.0000 1.0000
41.3800 391.0000 1.0000
41.3900 372.0000 1.0000
41.4000 343.0000 1.0000
41.4100 344.0000 1.0000
41.4200 366.0000 1.0000
41.4300 361.0000 1.0000
41.4400 359.0000 1.0000
41.4500 375.0000 1.0000
41.4600 389.0000 1.0000
41.4700 359.0000 1.0000
41.4800 358.0000 1.0000
41.4900 393.0000 1.0000
41.5000 389.0000 1.0000
41.5100 376.0000 1.0000
41.5200 374.0000 1.0000
41.5300 369.0000 1.0000
41.5400 339.0000 1.0000
41.5500 360.0000 1.0000
41.5600 350.0000 1.0000
41.5700 380.0000 1.0000
41.5800 354.0000 1.0000
41.5900 361.0000 1.0000
41.6000 392.0000 1.0000
41.6100 367.0000 1.0000
41.6200 361.0000 1.0000
41.6300 351.0000 1.0000
41.6400 339.0000 1.0000
41.6500 377.0000 1.0000
41.6600 328.0000 1.0000
41.6700 334.0000 1.0000
41.6800 351.0000 1.0000
41.6900 341.0000 1.0000
41.7000 364.0000 1.0000
41.7100 342.0000 1.0000
41.7200 353.0000 1.0000
41.7300 366.0000 1.0000
41.7400 350.0000 1.0000
41.7500 361.0000 1.0000
41.7600 360.0000 1.0000
41.7700 376.0000 1.0000
41.7800 360.0000 1.0000
41.7900 357.0000 1.0000
41.8000 372.0000 1.0000
41.8100 362.0000 1.0000
41.8200 358.0000 1.0000
41.8300 355.0000 1.0000
41.8400 377.0000 1.0000
41.8500 336.0000 1.0000
41.8600 364.0000 1.0000
41.8700 373.0000 1.0000
41.8800 381.0000 1.0000
41.8900 355.0000 1.0000
41.9000 356.0000 1.0000
41.9100 379.0000 1.0000
41.9200 342.0000 1.0000
41.9300 346.0000 1.0000
41.9400 370.0000 1.0000
41.9500 353.0000 1.0000
41.9600 385.0000 1.0000
41.9700 370.0000 1.0000
41.9800 343.0000 1.0000
41.9900 349.0000 1.0000
42.0000 365.0000 1.0000
42.0100 343.0000 1.0000
42.0200 358.0000 1.0000
42.0300 351.0000 1.0000
42.0400 374.0000 1.0000
42.0500 371.0000 1.0000
42.0600 349.0000 1.0000
42.0700 353.0000 1.0000
42.0800 378.0000 1.0000
42.0900 344.0000 1.0000
42.1000 361.0000 1.0000
42.1100 349.0000 1.0000
42.1200 361.0000 1.0000
42.1300 389.0000 1.0000
42.1400 375.0000 1.0000
42.1500 373.0000 1.0000
42.1600 384.0000 1.0000
42.1700 370.0000 1.0000
42.1800 370.0000 1.0000
42.1900 351.0000 1.0000
42.2000 360.0000 1.0000
42.2100 356.0000 1.0000
42.2200 373.0000 1.0000
42.2300 371.0000 1.0000
42.2400 369.0000 1.0000
42.2500 381.0000 1.0000
42.2600 359.0000 1.0000
42.2700 358.0000 1.0000
42.2800 383.0000 1.0000
42.2900 378.0000 1.0000
42.3000 319.0000 1.0000
42.3100 355.0000 1.0000
42.3200 386.0000 1.0000
42.3300 373.0000 1.0000
42.3400 361.0000 1.0000
42.3500 357.0000 1.0000
42.3600 391.0000 1.0000
42.3700 396.0000 1.0000
42.3800 364.0000 1.0000
42.3900 373.0000 1.0000
42.4000 344.0000 1.0000
42.4100 336.0000 1.0000
42.4200 410.0000 1.0000
42.4300 364.0000 1.0000
42.4400 365.0000 1.0000
42.4500 402.0000 1.0000
42.4600 383.0000 1.0000
42.4700 370.0000 1.0000
42.4800 380.0000 1.0000
42.4900 392.0000 1.0000
42.5000 393.0000 1.0000
42.5100 377.0000 1.0000
42.5200 363.0000 1.0000
42.5300 381.0000 1.0000
42.5400 383.0000 1.0000
42.5500 378.0000 1.0000
42.5600 372.0000 1.0000
42.5700 380.0000 1.0000
42.5800 330.0000 1.0000
42.5900 343.0000 1.0000
42.6000 343.0000 1.0000
42.6100 377.0000 1.0000
42.6200 356.0000 1.0000
42.6300 341.0000 1.0000
42.6400 326.0000 1.0000
42.6500 327.0000 1.0000
42.6600 347.0000 1.0000
42.6700 360.0000 1.0000
42.6800 388.0000 1.0000
42.6900 350.0000 1.0000
42.7000 341.0000 1.0000
42.7100 350.0000 1.0000
42.7200 347.0000 1.0000
42.7300 332.0000 1.0000
42.7400 368.0000 1.0000
42.7500 378.0000 1.0000
42.7600 359.0000 1.0000
42.7700 366.0000 1.0000
42.7800 365.0000 1.0000
42.7900 413.0000 1.0000
42.8000 352.0000 1.0000
42.8100 369.0000 1.0000
42.8200 360.0000 1.0000
42.8300 346.0000 1.0000
42.8400 324.0000 1.0000
42.8500 368.0000 1.0000
42.8600 358.0000 1.0000
42.8700 352.0000 1.0000
42.8800 366.0000 1.0000
42.8900 365.0000 1.0000
42.9000 363.0000 1.0000
42.9100 361.0000 1.0000
42.9200 388.0000 1.0000
42.9300 354.0000 1.0000
42.9400 343.0000 1.0000
42.9500 340.0000 1.0000
42.9600 326.0000 1.0000
42.9700 368.0000 1.0000
42.9800 355.0000 1.0000
42.9900 383.0000 1.0000
43.0000 332.0000 1.0000
43.0100 349.0000 1.0000
43.0200 344.0000 1.0000
43.0300 368.0000 1.0000
43.0400 352.0000 1.0000
43.0500 335.0000 1.0000
43.0600 330.0000 1.0000
43.0700 338.0000 1.0000
43.0800 351.0000 1.0000
43.0900 400.0000 1.0000
43.1000 346.0000 1.0000
43.1100 373.0000 1.0000
43.1200 346.0000 1.0000
43.1300 371.0000 1.0000
43.1400 338.0000 1.0000
43.1500 338.0000 1.0000
43.1600 356.0000 1.0000
43.1700 339.0000 1.0000
43.1800 359.0000 1.0000
43.1900 342.0000 1.0000
43.2000 332.0000 1.0000
43.2100 361.0000 1.0000
43.2200 374.0000 1.0000
43.2300 365.0000 1.0000
43.2400 347.0000 1.0000
43.2500 348.0000 1.0000
43.2600 361.0000 1.0000
43.2700 347.0000 1.0000
43.2800 364.0000 1.0000
43.2900 350.0000 1.0000
43.3000 359.0000 1.0000
43.3100 364.0000 1.0000
43.3200 383.0000 1.0000
43.3300 404.0000 1.0000
43.3400 372.0000 1.0000
43.3500 362.0000 1.0000
43.3600 355.0000 1.0000
43.3700 360.0000 1.0000
43.3800 344.0000 1.0000
43.3900 331.0000 1.0000
43.4000 390.0000 1.0000
43.4100 349.0000 1.0000
43.4200 331.0000 1.0000
43.4300 329.0000 1.0000
43.4400 346.0000 1.0000
43.4500 360.0000 1.0000
43.4600 335.0000 1.0000
43.4700 355.0000 1.0000
43.4800 367.0000 1.0000
43.4900 341.0000 1.0000
43.5000 337.0000 1.0000
43.5100 373.0000 1.0000
43.5200 368.0000 1.0000
43.5300 349.0000 1.0000
43.5400 353.0000 1.0000
43.5500 350.0000 1.0000
43.5600 357.0000 1.0000
43.5700 363.0000 1.0000
43.5800 335.0000 1.0000
43.5900 362.0000 1.0000
43.6000 367.0000 1.0000
43.6100 381.0000 1.0000
43.6200 344.0000 1.0000
43.6300 320.0000 1.0000
43.6400 368.0000 1.0000
43.6500 319.0000 1.0000
43.6600 338.0000 1.0000
43.6700 329.0000 1.0000
43.6800 339.0000 1.0000
43.6900 350.0000 1.0000
43.7000 327.0000 1.0000
43.7100 341.0000 1.0000
43.7200 334.0000 1.0000
43.7300 347.0000 1.0000
43.7400 323.0000 1.0000
43.7500 359.0000 1.0000
43.7600 366.0000 1.0000
43.7700 361.0000 1.0000
43.7800 336.0000 1.0000
43.7900 353.0000 1.0000
43.8000 345.0000 1.0000
43.8100 330.0000 1.0000
43.8200 302.0000 1.0000
43.8300 318.0000 1.0000
43.8400 343.0000 1.0000
43.8500 352.0000 1.0000
43.8600 355.0000 1.0000
43.8700 319.0000 1.0000
43.8800 324.0000 1.0000
43.8900 354.0000 1.0000
43.9000 381.0000 1.0000
43.9100 357.0000 1.0000
43.9200 351.0000 1.0000
43.9300 361.0000 1.0000
43.9400 345.0000 1.0000
43.9500 344.0000 1.0000
43.9600 359.0000 1.0000
43.9700 331.0000 1.0000
43.9800 351.0000 1.0000
43.9900 357.0000 1.0000
44.0000 350.0000 1.0000
44.0100 357.0000 1.0000
44.0200 350.0000 1.0000
44.0300 315.0000 1.0000
44.0400 357.0000 1.0000
44.0500 337.0000 1.0000
44.0600 329.0000 1.0000
44.0700 366.0000 1.0000
44.0800 367.0000 1.0000
44.0900 326.0000 1.0000
44.1000 322.0000 1.0000
44.1100 368.0000 1.0000
44.1200 329.0000 1.0000
44.1300 343.0000 1.0000
44.1400 344.0000 1.0000
44.1500 351.0000 1.0000
44.1600 347.0000 1.0000
44.1700 331.0000 1.0000
44.1800 360.0000 1.0000
44.1900 337.0000 1.0000
44.2000 343.0000 1.0000
44.2100 331.0000 1.0000
44.2200 325.0000 1.0000
44.2300 342.0000 1.0000
44.2400 352.0000 1.0000
44.2500 345.0000 1.0000
44.2600 348.0000 1.0000
44.2700 356.0000 1.0000
44.2800 336.0000 1.0000
44.2900 340.0000 1.0000
44.3000 323.0000 1.0000
44.3100 320.0000 1.0000
44.3200 340.0000 1.0000
44.3300 330.0000 1.0000
44.3400 331.0000 1.0000
44.3500 351.0000 1.0000
44.3600 315.0000 1.0000
44.3700 322.0000 1.0000
44.3800 342.0000 1.0000
44.3900 347.0000 1.0000
44.4000 327.0000 1.0000
44.4100 342.0000 1.0000
44.4200 339.0000 1.0000
44.4300 353.0000 1.0000
44.4400 349.0000 1.0000
44.4500 322.0000 1.0000
44.4600 300.0000 1.0000
44.4700 307.0000 1.0000
44.4800 340.0000 1.0000
44.4900 329.0000 1.0000
44.5000 333.0000 1.0000
44.5100 350.0000 1.0000
44.5200 357.0000 1.0000
44.5300 305.0000 1.0000
44.5400 344.0000 1.0000
44.5500 357.0000 1.0000
44.5600 350.0000 1.0000
44.5700 323.0000 1.0000
44.5800 335.0000 1.0000
44.5900 353.0000 1.0000
44.6000 329.0000 1.0000
44.6100 339.0000 1.0000
44.6200 357.0000 1.0000
44.6300 323.0000 1.0000
44.6400 309.0000 1.0000
44.6500 349.0000 1.0000
44.6600 331.0000 1.0000
44.6700 359.0000 1.0000
44.6800 347.0000 1.0000
44.6900 344.0000 1.0000
44.7000 346.0000 1.0000
44.7100 337.0000 1.0000
44.7200 341.0000 1.0000
44.7300 326.0000 1.0000
44.7400 298.0000 1.0000
44.7500 314.0000 1.0000
44.7600 349.0000 1.0000
44.7700 360.0000 1.0000
44.7800 341.0000 1.0000
44.7900 338.0000 1.0000
44.8000 324.0000 1.0000
44.8100 322.0000 1.0000
44.8200 321.0000 1.0000
44.8300 307.0000 1.0000
44.8400 337.0000 1.0000
44.8500 337.0000 1.0000
44.8600 343.0000 1.0000
44.8700 339.0000 1.0000
44.8800 327.0000 1.0000
44.8900 339.0000 1.0000
44.9000 338.0000 1.0000
44.9100 321.0000 1.0000
44.9200 360.0000 1.0000
44.9300 336.0000 1.0000
44.9400 352.0000 1.0000
44.9500 333.0000 1.0000
44.9600 330.0000 1.0000
44.9700 338.0000 1.0000
44.9800 344.0000 1.0000
44.9900 323.0000 1.0000
45.0000 333.0000 1.0000
45.0100 341.0000 1.0000
45.0200 349.0000 1.0000
45.0300 384.0000 1.0000
45.0400 345.0000 1.0000
45.0500 315.0000 1.0000
45.0600 334.0000 1.0000
45.0700 317.0000 1.0000
45.0800 333.0000 1.0000
45.0900 316.0000 1.0000
45.1000 334.0000 1.0000
45.1100 328.0000 1.0000
45.1200 329.0000 1.0000
45.1300 310.0000 1.0000
45.1400 301.0000 1.0000
45.1500 345.0000 1.0000
45.1600 340.0000 1.0000
45.1700 335.0000 1.0000
45.1800 325.0000 1.0000
45.1900 336.0000 1.0000
45.2000 302.0000 1.0000
45.2100 312.0000 1.0000
45.2200 336.0000 1.0000
45.2300 337.0000 1.0000
45.2400 349.0000 1.0000
45.2500 353.0000 1.0000
45.2600 337.0000 1.0000
45.2700 361.0000 1.0000
45.2800 363.0000 1.0000
45.2900 342.0000 1.0000
45.3000 316.0000 1.0000
45.3100 320.0000 1.0000
45.3200 328.0000 1.0000
45.3300 341.0000 1.0000
45.3400 330.0000 1.0000
45.3500 326.0000 1.0000
45.3600 349.0000 1.0000
45.3700 337.0000 1.0000
45.3800 326.0000 1.0000
45.3900 349.0000 1.0000
45.4000 339.0000 1.0000
45.4100 358.0000 1.0000
45.4200 340.0000 1.0000
45.4300 340.0000 1.0000
45.4400 334.0000 1.0000
45.4500 331.0000 1.0000
45.4600 318.0000 1.0000
45.4700 336.0000 1.0000
45.4800 342.0000 1.0000
45.4900 330.0000 1.0000
45.5000 347.0000 1.0000
45.5100 299.0000 1.0000
45.5200 303.0000 1.0000
45.5300 333.0000 1.0000
45.5400 306.0000 1.0000
45.5500 333.0000 1.0000
45.5600 309.0000 1.0000
45.5700 309.0000 1.0000
45.5800 322.0000 1.0000
45.5900 330.0000 1.0000
45.6000 338.0000 1.0000
45.6100 343.0000 1.0000
45.6200 344.0000 1.0000
45.6300 309.0000 1.0000
45.6400 317.0000 1.0000
45.6500 338.0000 1.0000
45.6600 333.0000 1.0000
45.6700 316.0000 1.0000
45.6800 323.0000 1.0000
45.6900 314.0000 1.0000
45.7000 344.0000 1.0000
45.7100 322.0000 1.0000
45.7200 317.0000 1.0000
45.7300 336.0000 1.0000
45.7400 306.0000 1.0000
45.7500 355.0000 1.0000
45.7600 270.0000 1.0000
45.7700 315.0000 1.0000
45.7800 321.0000 1.0000
45.7900 380.0000 1.0000
45.8000 331.0000 1.0000
45.8100 343.0000 1.0000
45.8200 326.0000 1.0000
45.8300 302.0000 1.0000
45.8400 324.0000 1.0000
45.8500 339.0000 1.0000
45.8600 334.0000 1.0000
45.8700 323.0000 1.0000
45.8800 313.0000 1.0000
45.8900 302.0000 1.0000
45.9000 336.0000 1.0000
45.9100 321.0000 1.0000
45.9200 304.0000 1.0000
45.9300 323.0000 1.0000
45.9400 309.0000 1.0000
45.9500 323.0000 1.0000
45.9600 321.0000 1.0000
45.9700 322.0000 1.0000
45.9800 339.0000 1.0000
45.9900 322.0000 1.0000
46.0000 330.0000 1.0000
46.0100 307.0000 1.0000
46.0200 311.0000 1.0000
46.0300 346.0000 1.0000
46.0400 333.0000 1.0000
46.0500 305.0000 1.0000
46.0600 325.0000 1.0000
46.0700 315.0000 1.0000
46.0800 334.0000 1.0000
46.0900 322.0000 1.0000
46.1000 315.0000 1.0000
46.1100 330.0000 1.0000
46.1200 340.0000 1.0000
46.1300 334.0000 1.0000
46.1400 327.0000 1.0000
46.1500 332.0000 1.0000
46.1600 325.0000 1.0000
46.1700 345.0000 1.0000
46.1800 315.0000 1.0000
46.1900 309.0000 1.0000
46.2000 355.0000 1.0000
46.2100 313.0000 1.0000
46.2200 315.0000 1.0000
46.2300 328.0000 1.0000
46.2400 307.0000 1.0000
46.2500 313.0000 1.0000
46.2600 308.0000 1.0000
46.2700 328.0000 1.0000
46.2800 321.0000 1.0000
46.2900 365.0000 1.0000
46.3000 316.0000 1.0000
46.3100 296.0000 1.0000
46.3200 311.0000 1.0000
46.3300 293.0000 1.0000
46.3400 289.0000 1.0000
46.3500 314.0000 1.0000
46.3600 327.0000 1.0000
46.3700 312.0000 1.0000
46.3800 309.0000 1.0000
46.3900 297.0000 1.0000
46.4000 328.0000 1.0000
46.4100 344.0000 1.0000
46.4200 338.0000 1.0000
46.4300 313.0000 1.0000
46.4400 323.0000 1.0000
46.4500 333.0000 1.0000
46.4600 304.0000 1.0000
46.4700 337.0000 1.0000
46.4800 327.0000 1.0000
46.4900 308.0000 1.0000
46.5000 308.0000 1.0000
46.5100 327.0000 1.0000
46.5200 308.0000 1.0000
46.5300 313.0000 1.0000
46.5400 327.0000 1.0000
46.5500 333.0000 1.0000
46.5600 318.0000 1.0000
46.5700 328.0000 1.0000
46.5800 323.0000 1.0000
46.5900 321.0000 1.0000
46.6000 333.0000 1.0000
46.6100 313.0000 1.0000
46.6200 311.0000 1.0000
46.6300 294.0000 1.0000
46.6400 310.0000 1.0000
46.6500 303.0000 1.0000
46.6600 322.0000 1.0000
46.6700 310.0000 1.0000
46.6800 316.0000 1.0000
46.6900 302.0000 1.0000
46.7000 321.0000 1.0000
46.7100 304.0000 1.0000
46.7200 324.0000 1.0000
46.7300 308.0000 1.0000
46.7400 313.0000 1.0000
46.7500 296.0000 1.0000
46.7600 314.0000 1.0000
46.7700 318.0000 1.0000
46.7800 336.0000 1.0000
46.7900 323.0000 1.0000
46.8000 321.0000 1.0000
46.8100 299.0000 1.0000
46.8200 330.0000 1.0000
46.8300 322.0000 1.0000
46.8400 296.0000 1.0000
46.8500 281.0000 1.0000
46.8600 296.0000 1.0000
46.8700 309.0000 1.0000
46.8800 318.0000 1.0000
46.8900 332.0000 1.0000
46.9000 302.0000 1.0000
46.9100 309.0000 1.0000
46.9200 319.0000 1.0000
46.9300 342.0000 1.0000
46.9400 312.0000 1.0000
46.9500 298.0000 1.0000
46.9600 306.0000 1.0000
46.9700 290.0000 1.0000
46.9800 326.0000 1.0000
46.9900 303.0000 1.0000
47.0000 319.0000 1.0000
47.0100 358.0000 1.0000
47.0200 302.0000 1.0000
47.0300 318.0000 1.0000
47.0400 343.0000 1.0000
47.0500 291.0000 1.0000
47.0600 324.0000 1.0000
47.0700 283.0000 1.0000
47.0800 293.0000 1.0000
47.0900 306.0000 1.0000
47.1000 334.0000 1.0000
47.1100 334.0000 1.0000
47.1200 313.0000 1.0000
47.1300 308.0000 1.0000
47.1400 335.0000 1.0000
47.1500 312.0000 1.0000
47.1600 295.0000 1.0000
47.1700 323.0000 1.0000
47.1800 350.0000 1.0000
47.1900 334.0000 1.0000
47.2000 310.0000 1.0000
47.2100 341.0000 1.0000
47.2200 346.0000 1.0000
47.2300 308.0000 1.0000
47.2400 320.0000 1.0000
47.2500 336.0000 1.0000
47.2600 340.0000 1.0000
47.2700 306.0000 1.0000
47.2800 300.0000 1.0000
47.2900 308.0000 1.0000
47.3000 294.0000 1.0000
47.3100 322.0000 1.0000
47.3200 343.0000 1.0000
47.3300 330.0000 1.0000
47.3400 322.0000 1.0000
47.3500 337.0000 1.0000
47.3600 315.0000 1.0000
47.3700 295.0000 1.0000
47.3800 312.0000 1.0000
47.3900 321.0000 1.0000
47.4000 295.0000 1.0000
47.4100 325.0000 1.0000
47.4200 292.0000 1.0000
47.4300 314.0000 1.0000
47.4400 288.0000 1.0000
47.4500 304.0000 1.0000
47.4600 335.0000 1.0000
47.4700 320.0000 1.0000
47.4800 310.0000 1.0000
47.4900 311.0000 1.0000
47.5000 288.0000 1.0000
47.5100 314.0000 1.0000
47.5200 312.0000 1.0000
47.5300 291.0000 1.0000
47.5400 324.0000 1.0000
47.5500 323.0000 1.0000
47.5600 293.0000 1.0000
47.5700 289.0000 1.0000
47.5800 294.0000 1.0000
47.5900 294.0000 1.0000
47.6000 293.0000 1.0000
47.6100 323.0000 1.0000
47.6200 317.0000 1.0000
47.6300 301.0000 1.0000
47.6400 313.0000 1.0000
47.6500 314.0000 1.0000
47.6600 296.0000 1.0000
47.6700 327.0000 1.0000
47.6800 328.0000 1.0000
47.6900 351.0000 1.0000
47.7000 303.0000 1.0000
47.7100 283.0000 1.0000
47.7200 301.0000 1.0000
47.7300 314.0000 1.0000
47.7400 312.0000 1.0000
47.7500 315.0000 1.0000
47.7600 316.0000 1.0000
47.7700 293.0000 1.0000
47.7800 310.0000 1.0000
47.7900 286.0000 1.0000
47.8000 285.0000 1.0000
47.8100 331.0000 1.0000
47.8200 315.0000 1.0000
47.8300 290.0000 1.0000
47.8400 295.0000 1.0000
47.8500 316.0000 1.0000
47.8600 308.0000 1.0000
47.8700 278.0000 1.0000
47.8800 304.0000 1.0000
47.8900 303.0000 1.0000
47.9000 299.0000 1.0000
47.9100 296.0000 1.0000
47.9200 282.0000 1.0000
47.9300 334.0000 1.0000
47.9400 341.0000 1.0000
47.9500 292.0000 1.0000
47.9600 309.0000 1.0000
47.9700 299.0000 1.0000
47.9800 319.0000 1.0000
47.9900 336.0000 1.0000
48.0000 303.0000 1.0000
48.0100 292.0000 1.0000
48.0200 287.0000 1.0000
48.0300 319.0000 1.0000
48.0400 299.0000 1.0000
48.0500 299.0000 1.0000
48.0600 317.0000 1.0000
48.0700 311.0000 1.0000
48.0800 282.0000 1.0000
48.0900 302.0000 1.0000
48.1000 313.0000 1.0000
48.1100 297.0000 1.0000
48.1200 297.0000 1.0000
48.1300 301.0000 1.0000
48.1400 300.0000 1.0000
48.1500 320.0000 1.0000
48.1600 330.0000 1.0000
48.1700 315.0000 1.0000
48.1800 325.0000 1.0000
48.1900 332.0000 1.0000
48.2000 304.0000 1.0000
48.2100 305.0000 1.0000
48.2200 310.0000 1.0000
48.2300 300.0000 1.0000
48.2400 306.0000 1.0000
48.2500 316.0000 1.0000
48.2600 321.0000 1.0000
48.2700 293.0000 1.0000
48.2800 331.0000 1.0000
48.2900 340.0000 1.0000
48.3000 308.0000 1.0000
48.3100 295.0000 1.0000
48.3200 300.0000 1.0000
48.3300 289.0000 1.0000
48.3400 313.0000 1.0000
48.3500 294.0000 1.0000
48.3600 322.0000 1.0000
48.3700 305.0000 1.0000
48.3800 313.0000 1.0000
48.3900 303.0000 1.0000
48.4000 303.0000 1.0000
48.4100 305.0000 1.0000
48.4200 316.0000 1.0000
48.4300 321.0000 1.0000
48.4400 291.0000 1.0000
48.4500 311.0000 1.0000
48.4600 306.0000 1.0000
48.4700 302.0000 1.0000
48.4800 289.0000 1.0000
48.4900 336.0000 1.0000
48.5000 300.0000 1.0000
48.5100 297.0000 1.0000
48.5200 333.0000 1.0000
48.5300 307.0000 1.0000
48.5400 305.0000 1.0000
48.5500 283.0000 1.0000
48.5600 313.0000 1.0000
48.5700 302.0000 1.0000
48.5800 288.0000 1.0000
48.5900 298.0000 1.0000
48.6000 319.0000 1.0000
48.6100 329.0000 1.0000
48.6200 337.0000 1.0000
48.6300 284.0000 1.0000
48.6400 304.0000 1.0000
48.6500 330.0000 1.0000
48.6600 313.0000 1.0000
48.6700 300.0000 1.0000
48.6800 295.0000 1.0000
48.6900 304.0000 1.0000
48.7000 332.0000 1.0000
48.7100 316.0000 1.0000
48.7200 309.0000 1.0000
48.7300 289.0000 1.0000
48.7400 301.0000 1.0000
48.7500 315.0000 1.0000
48.7600 291.0000 1.0000
48.7700 312.0000 1.0000
48.7800 313.0000 1.0000
48.7900 334.0000 1.0000
48.8000 312.0000 1.0000
48.8100 302.0000 1.0000
48.8200 311.0000 1.0000
48.8300 304.0000 1.0000
48.8400 315.0000 1.0000
48.8500 309.0000 1.0000
48.8600 289.0000 1.0000
48.8700 300.0000 1.0000
48.8800 278.0000 1.0000
48.8900 281.0000 1.0000
48.9000 328.0000 1.0000
48.9100 320.0000 1.0000
48.9200 304.0000 1.0000
48.9300 320.0000 1.0000
48.9400 326.0000 1.0000
48.9500 303.0000 1.0000
48.9600 284.0000 1.0000
48.9700 278.0000 1.0000
48.9800 310.0000 1.0000
48.9900 287.0000 1.0000
49.0000 303.0000 1.0000
49.0100 303.0000 1.0000
49.0200 332.0000 1.0000
49.0300 300.0000 1.0000
49.0400 323.0000 1.0000
49.0500 322.0000 1.0000
49.0600 303.0000 1.0000
49.0700 307.0000 1.0000
49.0800 316.0000 1.0000
49.0900 300.0000 1.0000
49.1000 334.0000 1.0000
49.1100 305.0000 1.0000
49.1200 302.0000 1.0000
49.1300 301.0000 1.0000
49.1400 318.0000 1.0000
49.1500 348.0000 1.0000
49.1600 328.0000 1.0000
49.1700 310.0000 1.0000
49.1800 343.0000 1.0000
49.1900 296.0000 1.0000
49.2000 328.0000 1.0000
49.2100 334.0000 1.0000
49.2200 315.0000 1.0000
49.2300 334.0000 1.0000
49.2400 333.0000 1.0000
49.2500 314.0000 1.0000
49.2600 327.0000 1.0000
49.2700 302.0000 1.0000
49.2800 370.0000 1.0000
49.2900 365.0000 1.0000
49.3000 328.0000 1.0000
49.3100 329.0000 1.0000
49.3200 353.0000 1.0000
49.3300 368.0000 1.0000
49.3400 365.0000 1.0000
49.3500 366.0000 1.0000
49.3600 355.0000 1.0000
49.3700 374.0000 1.0000
49.3800 366.0000 1.0000
49.3900 375.0000 1.0000
49.4000 389.0000 1.0000
49.4100 383.0000 1.0000
49.4200 393.0000 1.0000
49.4300 370.0000 1.0000
49.4400 370.0000 1.0000
49.4500 389.0000 1.0000
49.4600 392.0000 1.0000
49.4700 362.0000 1.0000
49.4800 349.0000 1.0000
49.4900 384.0000 1.0000
49.5000 367.0000 1.0000
49.5100 371.0000 1.0000
49.5200 335.0000 1.0000
49.5300 330.0000 1.0000
49.5400 332.0000 1.0000
49.5500 367.0000 1.0000
49.5600 315.0000 1.0000
49.5700 329.0000 1.0000
49.5800 369.0000 1.0000
49.5900 318.0000 1.0000
49.6000 327.0000 1.0000
49.6100 327.0000 1.0000
49.6200 315.0000 1.0000
49.6300 316.0000 1.0000
49.6400 324.0000 1.0000
49.6500 331.0000 1.0000
49.6600 344.0000 1.0000
49.6700 311.0000 1.0000
49.6800 295.0000 1.0000
49.6900 309.0000 1.0000
49.7000 314.0000 1.0000
49.7100 347.0000 1.0000
49.7200 302.0000 1.0000
49.7300 316.0000 1.0000
49.7400 304.0000 1.0000
49.7500 342.0000 1.0000
49.7600 331.0000 1.0000
49.7700 340.0000 1.0000
49.7800 297.0000 1.0000
49.7900 303.0000 1.0000
49.8000 322.0000 1.0000
49.8100 309.0000 1.0000
49.8200 312.0000 1.0000
49.8300 333.0000 1.0000
49.8400 312.0000 1.0000
49.8500 311.0000 1.0000
49.8600 318.0000 1.0000
49.8700 336.0000 1.0000
49.8800 281.0000 1.0000
49.8900 296.0000 1.0000
49.9000 304.0000 1.0000
49.9100 273.0000 1.0000
49.9200 293.0000 1.0000
49.9300 290.0000 1.0000
49.9400 289.0000 1.0000
49.9500 316.0000 1.0000
49.9600 280.0000 1.0000
49.9700 295.0000 1.0000
49.9800 320.0000 1.0000
49.9900 311.0000 1.0000
50.0000 296.0000 1.0000
50.0100 328.0000 1.0000
50.0200 317.0000 1.0000
50.0300 337.0000 1.0000
50.0400 316.0000 1.0000
50.0500 311.0000 1.0000
50.0600 302.0000 1.0000
50.0700 311.0000 1.0000
50.0800 294.0000 1.0000
50.0900 288.0000 1.0000
50.1000 292.0000 1.0000
50.1100 293.0000 1.0000
50.1200 291.0000 1.0000
50.1300 319.0000 1.0000
50.1400 318.0000 1.0000
50.1500 311.0000 1.0000
50.1600 312.0000 1.0000
50.1700 293.0000 1.0000
50.1800 307.0000 1.0000
50.1900 300.0000 1.0000
50.2000 283.0000 1.0000
50.2100 281.0000 1.0000
50.2200 326.0000 1.0000
50.2300 318.0000 1.0000
50.2400 320.0000 1.0000
50.2500 314.0000 1.0000
50.2600 312.0000 1.0000
50.2700 315.0000 1.0000
50.2800 289.0000 1.0000
50.2900 325.0000 1.0000
50.3000 325.0000 1.0000
50.3100 306.0000 1.0000
50.3200 316.0000 1.0000
50.3300 316.0000 1.0000
50.3400 346.0000 1.0000
50.3500 287.0000 1.0000
50.3600 333.0000 1.0000
50.3700 292.0000 1.0000
50.3800 325.0000 1.0000
50.3900 306.0000 1.0000
50.4000 309.0000 1.0000
50.4100 306.0000 1.0000
50.4200 326.0000 1.0000
50.4300 333.0000 1.0000
50.4400 302.0000 1.0000
50.4500 306.0000 1.0000
50.4600 279.0000 1.0000
50.4700 320.0000 1.0000
50.4800 328.0000 1.0000
50.4900 279.0000 1.0000
50.5000 301.0000 1.0000
50.5100 283.0000 1.0000
50.5200 293.0000 1.0000
50.5300 286.0000 1.0000
50.5400 323.0000 1.0000
50.5500 298.0000 1.0000
50.5600 294.0000 1.0000
50.5700 324.0000 1.0000
50.5800 306.0000 1.0000
50.5900 314.0000 1.0000
50.6000 311.0000 1.0000
50.6100 331.0000 1.0000
50.6200 312.0000 1.0000
50.6300 333.0000 1.0000
50.6400 342.0000 1.0000
50.6500 315.0000 1.0000
50.6600 315.0000 1.0000
50.6700 312.0000 1.0000
50.6800 315.0000 1.0000
50.6900 305.0000 1.0000
50.7000 291.0000 1.0000
50.7100 301.0000 1.0000
50.7200 308.0000 1.0000
50.7300 291.0000 1.0000
50.7400 304.0000 1.0000
50.7500 297.0000 1.0000
50.7600 295.0000 1.0000
50.7700 298.0000 1.0000
50.7800 298.0000 1.0000
50.7900 278.0000 1.0000
50.8000 302.0000 1.0000
50.8100 295.0000 1.0000
50.8200 307.0000 1.0000
50.8300 302.0000 1.0000
50.8400 324.0000 1.0000
50.8500 346.0000 1.0000
50.8600 288.0000 1.0000
50.8700 318.0000 1.0000
50.8800 331.0000 1.0000
50.8900 322.0000 1.0000
50.9000 286.0000 1.0000
50.9100 320.0000 1.0000
50.9200 350.0000 1.0000
50.9300 330.0000 1.0000
50.9400 304.0000 1.0000
50.9500 296.0000 1.0000
50.9600 324.0000 1.0000
50.9700 355.0000 1.0000
50.9800 334.0000 1.0000
50.9900 312.0000 1.0000
51.0000 334.0000 1.0000
51.0100 318.0000 1.0000
51.0200 310.0000 1.0000
51.0300 328.0000 1.0000
51.0400 330.0000 1.0000
51.0500 316.0000 1.0000
51.0600 315.0000 1.0000
51.0700 345.0000 1.0000
51.0800 320.0000 1.0000
51.0900 316.0000 1.0000
51.1000 342.0000 1.0000
51.1100 338.0000 1.0000
51.1200 308.0000 1.0000
51.1300 352.0000 1.0000
51.1400 348.0000 1.0000
51.1500 387.0000 1.0000
51.1600 354.0000 1.0000
51.1700 361.0000 1.0000
51.1800 387.0000 1.0000
51.1900 388.0000 1.0000
51.2000 381.0000 1.0000
51.2100 435.0000 1.0000
51.2200 423.0000 1.0000
51.2300 430.0000 1.0000
51.2400 454.0000 1.0000
51.2500 432.0000 1.0000
51.2600 437.0000 1.0000
51.2700 488.0000 1.0000
51.2800 477.0000 1.0000
51.2900 517.0000 1.0000
51.3000 531.0000 1.0000
51.3100 575.0000 1.0000
51.3200 599.0000 1.0000
51.3300 595.0000 1.0000
51.3400 619.0000 1.0000
51.3500 673.0000 1.0000
51.3600 638.0000 1.0000
51.3700 699.0000 1.0000
51.3800 713.0000 1.0000
51.3900 797.0000 1.0000
51.4000 767.0000 1.0000
51.4100 843.0000 1.0000
51.4200 865.0000 1.0000
51.4300 858.0000 1.0000
51.4400 896.0000 1.0000
51.4500 855.0000 1.0000
51.4600 903.0000 1.0000
51.4700 885.0000 1.0000
51.4800 879.0000 1.0000
51.4900 880.0000 1.0000
51.5000 838.0000 1.0000
51.5100 839.0000 1.0000
51.5200 806.0000 1.0000
51.5300 785.0000 1.0000
51.5400 779.0000 1.0000
51.5500 835.0000 1.0000
51.5600 790.0000 1.0000
51.5700 775.0000 1.0000
51.5800 751.0000 1.0000
51.5900 735.0000 1.0000
51.6000 688.0000 1.0000
51.6100 666.0000 1.0000
51.6200 644.0000 1.0000
51.6300 617.0000 1.0000
51.6400 634.0000 1.0000
51.6500 615.0000 1.0000
51.6600 610.0000 1.0000
51.6700 562.0000 1.0000
51.6800 545.0000 1.0000
51.6900 510.0000 1.0000
51.7000 504.0000 1.0000
51.7100 465.0000 1.0000
51.7200 469.0000 1.0000
51.7300 508.0000 1.0000
51.7400 465.0000 1.0000
51.7500 460.0000 1.0000
51.7600 427.0000 1.0000
51.7700 390.0000 1.0000
51.7800 371.0000 1.0000
51.7900 373.0000 1.0000
51.8000 397.0000 1.0000
51.8100 387.0000 1.0000
51.8200 384.0000 1.0000
51.8300 363.0000 1.0000
51.8400 368.0000 1.0000
51.8500 393.0000 1.0000
51.8600 367.0000 1.0000
51.8700 337.0000 1.0000
51.8800 348.0000 1.0000
51.8900 348.0000 1.0000
51.9000 356.0000 1.0000
51.9100 379.0000 1.0000
51.9200 330.0000 1.0000
51.9300 357.0000 1.0000
51.9400 322.0000 1.0000
51.9500 317.0000 1.0000
51.9600 331.0000 1.0000
51.9700 331.0000 1.0000
51.9800 333.0000 1.0000
51.9900 315.0000 1.0000
52.0000 314.0000 1.0000
52.0100 333.0000 1.0000
52.0200 324.0000 1.0000
52.0300 303.0000 1.0000
52.0400 316.0000 1.0000
52.0500 311.0000 1.0000
52.0600 283.0000 1.0000
52.0700 309.0000 1.0000
52.0800 298.0000 1.0000
52.0900 314.0000 1.0000
52.1000 305.0000 1.0000
52.1100 313.0000 1.0000
52.1200 306.0000 1.0000
52.1300 311.0000 1.0000
52.1400 309.0000 1.0000
52.1500 317.0000 1.0000
52.1600 297.0000 1.0000
52.1700 308.0000 1.0000
52.1800 307.0000 1.0000
52.1900 293.0000 1.0000
52.2000 318.0000 1.0000
52.2100 320.0000 1.0000
52.2200 310.0000 1.0000
52.2300 298.0000 1.0000
52.2400 328.0000 1.0000
52.2500 325.0000 1.0000
52.2600 308.0000 1.0000
52.2700 295.0000 1.0000
52.2800 286.0000 1.0000
52.2900 322.0000 1.0000
52.3000 288.0000 1.0000
52.3100 303.0000 1.0000
52.3200 334.0000 1.0000
52.3300 293.0000 1.0000
52.3400 285.0000 1.0000
52.3500 316.0000 1.0000
52.3600 300.0000 1.0000
52.3700 299.0000 1.0000
52.3800 292.0000 1.0000
52.3900 297.0000 1.0000
52.4000 308.0000 1.0000
52.4100 275.0000 1.0000
52.4200 295.0000 1.0000
52.4300 296.0000 1.0000
52.4400 271.0000 1.0000
52.4500 274.0000 1.0000
52.4600 314.0000 1.0000
52.4700 294.0000 1.0000
52.4800 292.0000 1.0000
52.4900 300.0000 1.0000
52.5000 300.0000 1.0000
52.5100 329.0000 1.0000
52.5200 314.0000 1.0000
52.5300 302.0000 1.0000
52.5400 263.0000 1.0000
52.5500 312.0000 1.0000
52.5600 289.0000 1.0000
52.5700 286.0000 1.0000
52.5800 304.0000 1.0000
52.5900 296.0000 1.0000
52.6000 273.0000 1.0000
52.6100 300.0000 1.0000
52.6200 311.0000 1.0000
52.6300 289.0000 1.0000
52.6400 282.0000 1.0000
52.6500 298.0000 1.0000
52.6600 277.0000 1.0000
52.6700 288.0000 1.0000
52.6800 292.0000 1.0000
52.6900 302.0000 1.0000
52.7000 270.0000 1.0000
52.7100 296.0000 1.0000
52.7200 284.0000 1.0000
52.7300 296.0000 1.0000
52.7400 271.0000 1.0000
52.7500 278.0000 1.0000
52.7600 296.0000 1.0000
52.7700 307.0000 1.0000
52.7800 287.0000 1.0000
52.7900 289.0000 1.0000
52.8000 311.0000 1.0000
52.8100 300.0000 1.0000
52.8200 258.0000 1.0000
52.8300 307.0000 1.0000
52.8400 282.0000 1.0000
52.8500 284.0000 1.0000
52.8600 312.0000 1.0000
52.8700 310.0000 1.0000
52.8800 271.0000 1.0000
52.8900 296.0000 1.0000
52.9000 296.0000 1.0000
52.9100 296.0000 1.0000
52.9200 292.0000 1.0000
52.9300 310.0000 1.0000
52.9400 313.0000 1.0000
52.9500 263.0000 1.0000
52.9600 286.0000 1.0000
52.9700 299.0000 1.0000
52.9800 307.0000 1.0000
52.9900 297.0000 1.0000
53.0000 280.0000 1.0000
53.0100 280.0000 1.0000
53.0200 299.0000 1.0000
53.0300 283.0000 1.0000
53.0400 298.0000 1.0000
53.0500 296.0000 1.0000
53.0600 282.0000 1.0000
53.0700 270.0000 1.0000
53.0800 298.0000 1.0000
53.0900 300.0000 1.0000
53.1000 303.0000 1.0000
53.1100 287.0000 1.0000
53.1200 286.0000 1.0000
53.1300 290.0000 1.0000
53.1400 303.0000 1.0000
53.1500 253.0000 1.0000
53.1600 253.0000 1.0000
53.1700 280.0000 1.0000
53.1800 301.0000 1.0000
53.1900 265.0000 1.0000
53.2000 306.0000 1.0000
53.2100 286.0000 1.0000
53.2200 299.0000 1.0000
53.2300 278.0000 1.0000
53.2400 291.0000 1.0000
53.2500 264.0000 1.0000
53.2600 273.0000 1.0000
53.2700 303.0000 1.0000
53.2800 272.0000 1.0000
53.2900 294.0000 1.0000
53.3000 291.0000 1.0000
53.3100 290.0000 1.0000
53.3200 296.0000 1.0000
53.3300 291.0000 1.0000
53.3400 284.0000 1.0000
53.3500 321.0000 1.0000
53.3600 279.0000 1.0000
53.3700 286.0000 1.0000
53.3800 260.0000 1.0000
53.3900 283.0000 1.0000
53.4000 268.0000 1.0000
53.4100 279.0000 1.0000
53.4200 296.0000 1.0000
53.4300 279.0000 1.0000
53.4400 261.0000 1.0000
53.4500 289.0000 1.0000
53.4600 286.0000 1.0000
53.4700 287.0000 1.0000
53.4800 274.0000 1.0000
53.4900 310.0000 1.0000
53.5000 281.0000 1.0000
53.5100 276.0000 1.0000
53.5200 286.0000 1.0000
53.5300 297.0000 1.0000
53.5400 267.0000 1.0000
53.5500 289.0000 1.0000
53.5600 255.0000 1.0000
53.5700 273.0000 1.0000
53.5800 273.0000 1.0000
53.5900 292.0000 1.0000
53.6000 278.0000 1.0000
53.6100 282.0000 1.0000
53.6200 285.0000 1.0000
53.6300 296.0000 1.0000
53.6400 286.0000 1.0000
53.6500 295.0000 1.0000
53.6600 292.0000 1.0000
53.6700 286.0000 1.0000
53.6800 318.0000 1.0000
53.6900 292.0000 1.0000
53.7000 318.0000 1.0000
53.7100 288.0000 1.0000
53.7200 303.0000 1.0000
53.7300 291.0000 1.0000
53.7400 313.0000 1.0000
53.7500 312.0000 1.0000
53.7600 313.0000 1.0000
53.7700 308.0000 1.0000
53.7800 299.0000 1.0000
53.7900 295.0000 1.0000
53.8000 299.0000 1.0000
53.8100 320.0000 1.0000
53.8200 319.0000 1.0000
53.8300 307.0000 1.0000
53.8400 332.0000 1.0000
53.8500 338.0000 1.0000
53.8600 309.0000 1.0000
53.8700 285.0000 1.0000
53.8800 320.0000 1.0000
53.8900 305.0000 1.0000
53.9000 320.0000 1.0000
53.9100 311.0000 1.0000
53.9200 327.0000 1.0000
53.9300 333.0000 1.0000
53.9400 314.0000 1.0000
53.9500 340.0000 1.0000
53.9600 323.0000 1.0000
53.9700 344.0000 1.0000
53.9800 338.0000 1.0000
53.9900 361.0000 1.0000
54.0000 319.0000 1.0000
54.0100 374.0000 1.0000
54.0200 329.0000 1.0000
54.0300 345.0000 1.0000
54.0400 341.0000 1.0000
54.0500 333.0000 1.0000
54.0600 323.0000 1.0000
54.0700 349.0000 1.0000
54.0800 367.0000 1.0000
54.0900 339.0000 1.0000
54.1000 372.0000 1.0000
54.1100 350.0000 1.0000
54.1200 325.0000 1.0000
54.1300 332.0000 1.0000
54.1400 343.0000 1.0000
54.1500 344.0000 1.0000
54.1600 342.0000 1.0000
54.1700 330.0000 1.0000
54.1800 342.0000 1.0000
54.1900 363.0000 1.0000
54.2000 306.0000 1.0000
54.2100 311.0000 1.0000
54.2200 300.0000 1.0000
54.2300 315.0000 1.0000
54.2400 317.0000 1.0000
54.2500 319.0000 1.0000
54.2600 305.0000 1.0000
54.2700 343.0000 1.0000
54.2800 318.0000 1.0000
54.2900 318.0000 1.0000
54.3000 347.0000 1.0000
54.3100 332.0000 1.0000
54.3200 338.0000 1.0000
54.3300 334.0000 1.0000
54.3400 338.0000 1.0000
54.3500 322.0000 1.0000
54.3600 323.0000 1.0000
54.3700 356.0000 1.0000
54.3800 365.0000 1.0000
54.3900 334.0000 1.0000
54.4000 338.0000 1.0000
54.4100 349.0000 1.0000
54.4200 332.0000 1.0000
54.4300 334.0000 1.0000
54.4400 336.0000 1.0000
54.4500 348.0000 1.0000
54.4600 349.0000 1.0000
54.4700 348.0000 1.0000
54.4800 394.0000 1.0000
54.4900 343.0000 1.0000
54.5000 340.0000 1.0000
54.5100 351.0000 1.0000
54.5200 364.0000 1.0000
54.5300 347.0000 1.0000
54.5400 336.0000 1.0000
54.5500 319.0000 1.0000
54.5600 338.0000 1.0000
54.5700 354.0000 1.0000
54.5800 338.0000 1.0000
54.5900 326.0000 1.0000
54.6000 308.0000 1.0000
54.6100 317.0000 1.0000
54.6200 302.0000 1.0000
54.6300 312.0000 1.0000
54.6400 326.0000 1.0000
54.6500 321.0000 1.0000
54.6600 328.0000 1.0000
54.6700 312.0000 1.0000
54.6800 312.0000 1.0000
54.6900 329.0000 1.0000
54.7000 308.0000 1.0000
54.7100 314.0000 1.0000
54.7200 330.0000 1.0000
54.7300 324.0000 1.0000
54.7400 296.0000 1.0000
54.7500 315.0000 1.0000
54.7600 304.0000 1.0000
54.7700 304.0000 1.0000
54.7800 306.0000 1.0000
54.7900 304.0000 1.0000
54.8000 304.0000 1.0000
54.8100 297.0000 1.0000
54.8200 309.0000 1.0000
54.8300 305.0000 1.0000
54.8400 309.0000 1.0000
54.8500 302.0000 1.0000
54.8600 286.0000 1.0000
54.8700 277.0000 1.0000
54.8800 282.0000 1.0000
54.8900 301.0000 1.0000
54.9000 277.0000 1.0000
54.9100 277.0000 1.0000
54.9200 320.0000 1.0000
54.9300 328.0000 1.0000
54.9400 299.0000 1.0000
54.9500 314.0000 1.0000
54.9600 313.0000 1.0000
54.9700 322.0000 1.0000
54.9800 281.0000 1.0000
54.9900 273.0000 1.0000
55.0000 284.0000 1.0000
55.0100 316.0000 1.0000
55.0200 316.0000 1.0000
55.0300 279.0000 1.0000
55.0400 292.0000 1.0000
55.0500 293.0000 1.0000
55.0600 300.0000 1.0000
55.0700 288.0000 1.0000
55.0800 279.0000 1.0000
55.0900 306.0000 1.0000
55.1000 300.0000 1.0000
55.1100 274.0000 1.0000
55.1200 264.0000 1.0000
55.1300 279.0000 1.0000
55.1400 297.0000 1.0000
55.1500 291.0000 1.0000
55.1600 295.0000 1.0000
55.1700 289.0000 1.0000
55.1800 286.0000 1.0000
55.1900 277.0000 1.0000
55.2000 298.0000 1.0000
55.2100 298.0000 1.0000
55.2200 274.0000 1.0000
55.2300 262.0000 1.0000
55.2400 258.0000 1.0000
55.2500 296.0000 1.0000
55.2600 288.0000 1.0000
55.2700 267.0000 1.0000
55.2800 296.0000 1.0000
55.2900 306.0000 1.0000
55.3000 301.0000 1.0000
55.3100 273.0000 1.0000
55.3200 289.0000 1.0000
55.3300 288.0000 1.0000
55.3400 276.0000 1.0000
55.3500 261.0000 1.0000
55.3600 276.0000 1.0000
55.3700 278.0000 1.0000
55.3800 270.0000 1.0000
55.3900 279.0000 1.0000
55.4000 277.0000 1.0000
55.4100 282.0000 1.0000
55.4200 288.0000 1.0000
55.4300 311.0000 1.0000
55.4400 264.0000 1.0000
55.4500 275.0000 1.0000
55.4600 288.0000 1.0000
55.4700 288.0000 1.0000
55.4800 291.0000 1.0000
55.4900 309.0000 1.0000
55.5000 268.0000 1.0000
55.5100 294.0000 1.0000
55.5200 278.0000 1.0000
55.5300 291.0000 1.0000
55.5400 269.0000 1.0000
55.5500 301.0000 1.0000
55.5600 277.0000 1.0000
55.5700 287.0000 1.0000
55.5800 288.0000 1.0000
55.5900 268.0000 1.0000
55.6000 256.0000 1.0000
55.6100 284.0000 1.0000
55.6200 284.0000 1.0000
55.6300 302.0000 1.0000
55.6400 283.0000 1.0000
55.6500 267.0000 1.0000
55.6600 273.0000 1.0000
55.6700 306.0000 1.0000
55.6800 276.0000 1.0000
55.6900 286.0000 1.0000
55.7000 270.0000 1.0000
55.7100 249.0000 1.0000
55.7200 293.0000 1.0000
55.7300 292.0000 1.0000
55.7400 264.0000 1.0000
55.7500 279.0000 1.0000
55.7600 269.0000 1.0000
55.7700 281.0000 1.0000
55.7800 302.0000 1.0000
55.7900 290.0000 1.0000
55.8000 269.0000 1.0000
55.8100 277.0000 1.0000
55.8200 295.0000 1.0000
55.8300 283.0000 1.0000
55.8400 264.0000 1.0000
55.8500 270.0000 1.0000
55.8600 284.0000 1.0000
55.8700 260.0000 1.0000
55.8800 275.0000 1.0000
55.8900 261.0000 1.0000
55.9000 258.0000 1.0000
55.9100 277.0000 1.0000
55.9200 270.0000 1.0000
55.9300 274.0000 1.0000
55.9400 300.0000 1.0000
55.9500 277.0000 1.0000
55.9600 263.0000 1.0000
55.9700 285.0000 1.0000
55.9800 267.0000 1.0000
55.9900 273.0000 1.0000
56.0000 267.0000 1.0000
56.0100 298.0000 1.0000
56.0200 285.0000 1.0000
56.0300 280.0000 1.0000
56.0400 268.0000 1.0000
56.0500 283.0000 1.0000
56.0600 293.0000 1.0000
56.0700 277.0000 1.0000
56.0800 291.0000 1.0000
56.0900 295.0000 1.0000
56.1000 275.0000 1.0000
56.1100 270.0000 1.0000
56.1200 296.0000 1.0000
56.1300 282.0000 1.0000
56.1400 287.0000 1.0000
56.1500 274.0000 1.0000
56.1600 315.0000 1.0000
56.1700 285.0000 1.0000
56.1800 276.0000 1.0000
56.1900 288.0000 1.0000
56.2000 289.0000 1.0000
56.2100 305.0000 1.0000
56.2200 278.0000 1.0000
56.2300 300.0000 1.0000
56.2400 284.0000 1.0000
56.2500 284.0000 1.0000
56.2600 312.0000 1.0000
56.2700 293.0000 1.0000
56.2800 263.0000 1.0000
56.2900 287.0000 1.0000
56.3000 278.0000 1.0000
56.3100 275.0000 1.0000
56.3200 268.0000 1.0000
56.3300 299.0000 1.0000
56.3400 261.0000 1.0000
56.3500 295.0000 1.0000
56.3600 255.0000 1.0000
56.3700 277.0000 1.0000
56.3800 273.0000 1.0000
56.3900 307.0000 1.0000
56.4000 291.0000 1.0000
56.4100 280.0000 1.0000
56.4200 300.0000 1.0000
56.4300 285.0000 1.0000
56.4400 290.0000 1.0000
56.4500 261.0000 1.0000
56.4600 267.0000 1.0000
56.4700 277.0000 1.0000
56.4800 271.0000 1.0000
56.4900 277.0000 1.0000
56.5000 303.0000 1.0000
56.5100 293.0000 1.0000
56.5200 266.0000 1.0000
56.5300 270.0000 1.0000
56.5400 278.0000 1.0000
56.5500 272.0000 1.0000
56.5600 290.0000 1.0000
56.5700 300.0000 1.0000
56.5800 251.0000 1.0000
56.5900 293.0000 1.0000
56.6000 276.0000 1.0000
56.6100 256.0000 1.0000
56.6200 274.0000 1.0000
56.6300 269.0000 1.0000
56.6400 255.0000 1.0000
56.6500 266.0000 1.0000
56.6600 279.0000 1.0000
56.6700 283.0000 1.0000
56.6800 271.0000 1.0000
56.6900 273.0000 1.0000
56.7000 267.0000 1.0000
56.7100 256.0000 1.0000
56.7200 276.0000 1.0000
56.7300 274.0000 1.0000
56.7400 291.0000 1.0000
56.7500 277.0000 1.0000
56.7600 257.0000 1.0000
56.7700 279.0000 1.0000
56.7800 296.0000 1.0000
56.7900 273.0000 1.0000
56.8000 305.0000 1.0000
56.8100 266.0000 1.0000
56.8200 264.0000 1.0000
56.8300 307.0000 1.0000
56.8400 273.0000 1.0000
56.8500 292.0000 1.0000
56.8600 255.0000 1.0000
56.8700 277.0000 1.0000
56.8800 267.0000 1.0000
56.8900 268.0000 1.0000
56.9000 257.0000 1.0000
56.9100 274.0000 1.0000
56.9200 295.0000 1.0000
56.9300 266.0000 1.0000
56.9400 265.0000 1.0000
56.9500 258.0000 1.0000
56.9600 278.0000 1.0000
56.9700 273.0000 1.0000
56.9800 282.0000 1.0000
56.9900 286.0000 1.0000
57.0000 304.0000 1.0000
57.0100 304.0000 1.0000
57.0200 274.0000 1.0000
57.0300 299.0000 1.0000
57.0400 275.0000 1.0000
57.0500 258.0000 1.0000
57.0600 261.0000 1.0000
57.0700 264.0000 1.0000
57.0800 284.0000 1.0000
57.0900 271.0000 1.0000
57.1000 285.0000 1.0000
57.1100 282.0000 1.0000
57.1200 281.0000 1.0000
57.1300 289.0000 1.0000
57.1400 286.0000 1.0000
57.1500 277.0000 1.0000
57.1600 286.0000 1.0000
57.1700 273.0000 1.0000
57.1800 235.0000 1.0000
57.1900 252.0000 1.0000
57.2000 275.0000 1.0000
57.2100 302.0000 1.0000
57.2200 273.0000 1.0000
57.2300 283.0000 1.0000
57.2400 295.0000 1.0000
57.2500 299.0000 1.0000
57.2600 296.0000 1.0000
57.2700 285.0000 1.0000
57.2800 260.0000 1.0000
57.2900 277.0000 1.0000
57.3000 310.0000 1.0000
57.3100 319.0000 1.0000
57.3200 306.0000 1.0000
57.3300 280.0000 1.0000
57.3400 259.0000 1.0000
57.3500 299.0000 1.0000
57.3600 270.0000 1.0000
57.3700 259.0000 1.0000
57.3800 293.0000 1.0000
57.3900 299.0000 1.0000
57.4000 285.0000 1.0000
57.4100 278.0000 1.0000
57.4200 304.0000 1.0000
57.4300 274.0000 1.0000
57.4400 264.0000 1.0000
57.4500 262.0000 1.0000
57.4600 284.0000 1.0000
57.4700 297.0000 1.0000
57.4800 283.0000 1.0000
57.4900 280.0000 1.0000
57.5000 264.0000 1.0000
57.5100 287.0000 1.0000
57.5200 262.0000 1.0000
57.5300 271.0000 1.0000
57.5400 287.0000 1.0000
57.5500 278.0000 1.0000
57.5600 291.0000 1.0000
57.5700 294.0000 1.0000
57.5800 294.0000 1.0000
57.5900 274.0000 1.0000
57.6000 287.0000 1.0000
57.6100 274.0000 1.0000
57.6200 285.0000 1.0000
57.6300 252.0000 1.0000
57.6400 249.0000 1.0000
57.6500 256.0000 1.0000
57.6600 275.0000 1.0000
57.6700 296.0000 1.0000
57.6800 270.0000 1.0000
57.6900 255.0000 1.0000
57.7000 282.0000 1.0000
57.7100 266.0000 1.0000
57.7200 297.0000 1.0000
57.7300 277.0000 1.0000
57.7400 293.0000 1.0000
57.7500 298.0000 1.0000
57.7600 269.0000 1.0000
57.7700 279.0000 1.0000
57.7800 289.0000 1.0000
57.7900 289.0000 1.0000
57.8000 267.0000 1.0000
57.8100 277.0000 1.0000
57.8200 278.0000 1.0000
57.8300 276.0000 1.0000
57.8400 272.0000 1.0000
57.8500 246.0000 1.0000
57.8600 290.0000 1.0000
57.8700 304.0000 1.0000
57.8800 299.0000 1.0000
57.8900 272.0000 1.0000
57.9000 266.0000 1.0000
57.9100 275.0000 1.0000
57.9200 308.0000 1.0000
57.9300 278.0000 1.0000
57.9400 282.0000 1.0000
57.9500 276.0000 1.0000
57.9600 268.0000 1.0000
57.9700 280.0000 1.0000
57.9800 270.0000 1.0000
57.9900 266.0000 1.0000
58.0000 271.0000 1.0000
58.0100 285.0000 1.0000
58.0200 265.0000 1.0000
58.0300 278.0000 1.0000
58.0400 275.0000 1.0000
58.0500 277.0000 1.0000
58.0600 273.0000 1.0000
58.0700 275.0000 1.0000
58.0800 263.0000 1.0000
58.0900 284.0000 1.0000
58.1000 256.0000 1.0000
58.1100 302.0000 1.0000
58.1200 275.0000 1.0000
58.1300 267.0000 1.0000
58.1400 279.0000 1.0000
58.1500 287.0000 1.0000
58.1600 243.0000 1.0000
58.1700 270.0000 1.0000
58.1800 272.0000 1.0000
58.1900 290.0000 1.0000
58.2000 281.0000 1.0000
58.2100 280.0000 1.0000
58.2200 256.0000 1.0000
58.2300 276.0000 1.0000
58.2400 251.0000 1.0000
58.2500 299.0000 1.0000
58.2600 279.0000 1.0000
58.2700 270.0000 1.0000
58.2800 286.0000 1.0000
58.2900 259.0000 1.0000
58.3000 265.0000 1.0000
58.3100 279.0000 1.0000
58.3200 250.0000 1.0000
58.3300 260.0000 1.0000
58.3400 281.0000 1.0000
58.3500 277.0000 1.0000
58.3600 281.0000 1.0000
58.3700 251.0000 1.0000
58.3800 266.0000 1.0000
58.3900 276.0000 1.0000
58.4000 264.0000 1.0000
58.4100 264.0000 1.0000
58.4200 270.0000 1.0000
58.4300 272.0000 1.0000
58.4400 289.0000 1.0000
58.4500 279.0000 1.0000
58.4600 285.0000 1.0000
58.4700 293.0000 1.0000
58.4800 307.0000 1.0000
58.4900 285.0000 1.0000
58.5000 249.0000 1.0000
58.5100 267.0000 1.0000
58.5200 285.0000 1.0000
58.5300 270.0000 1.0000
58.5400 282.0000 1.0000
58.5500 270.0000 1.0000
58.5600 282.0000 1.0000
58.5700 281.0000 1.0000
58.5800 276.0000 1.0000
58.5900 280.0000 1.0000
58.6000 299.0000 1.0000
58.6100 283.0000 1.0000
58.6200 295.0000 1.0000
58.6300 302.0000 1.0000
58.6400 253.0000 1.0000
58.6500 259.0000 1.0000
58.6600 290.0000 1.0000
58.6700 285.0000 1.0000
58.6800 298.0000 1.0000
58.6900 275.0000 1.0000
58.7000 285.0000 1.0000
58.7100 258.0000 1.0000
58.7200 292.0000 1.0000
58.7300 271.0000 1.0000
58.7400 280.0000 1.0000
58.7500 265.0000 1.0000
58.7600 268.0000 1.0000
58.7700 243.0000 1.0000
58.7800 294.0000 1.0000
58.7900 280.0000 1.0000
58.8000 265.0000 1.0000
58.8100 282.0000 1.0000
58.8200 276.0000 1.0000
58.8300 264.0000 1.0000
58.8400 276.0000 1.0000
58.8500 286.0000 1.0000
58.8600 264.0000 1.0000
58.8700 260.0000 1.0000
58.8800 286.0000 1.0000
58.8900 301.0000 1.0000
58.9000 294.0000 1.0000
58.9100 276.0000 1.0000
58.9200 262.0000 1.0000
58.9300 283.0000 1.0000
58.9400 277.0000 1.0000
58.9500 270.0000 1.0000
58.9600 277.0000 1.0000
58.9700 291.0000 1.0000
58.9800 260.0000 1.0000
58.9900 292.0000 1.0000
59.0000 236.0000 1.0000
59.0100 288.0000 1.0000
59.0200 263.0000 1.0000
59.0300 300.0000 1.0000
59.0400 275.0000 1.0000
59.0500 297.0000 1.0000
59.0600 291.0000 1.0000
59.0700 294.0000 1.0000
59.0800 266.0000 1.0000
59.0900 272.0000 1.0000
59.1000 261.0000 1.0000
59.1100 271.0000 1.0000
59.1200 274.0000 1.0000
59.1300 279.0000 1.0000
59.1400 281.0000 1.0000
59.1500 295.0000 1.0000
59.1600 261.0000 1.0000
59.1700 269.0000 1.0000
59.1800 254.0000 1.0000
59.1900 263.0000 1.0000
59.2000 261.0000 1.0000
59.2100 270.0000 1.0000
59.2200 267.0000 1.0000
59.2300 269.0000 1.0000
59.2400 277.0000 1.0000
59.2500 296.0000 1.0000
59.2600 276.0000 1.0000
59.2700 262.0000 1.0000
59.2800 258.0000 1.0000
59.2900 269.0000 1.0000
59.3000 272.0000 1.0000
59.3100 262.0000 1.0000
59.3200 260.0000 1.0000
59.3300 263.0000 1.0000
59.3400 276.0000 1.0000
59.3500 292.0000 1.0000
59.3600 282.0000 1.0000
59.3700 262.0000 1.0000
59.3800 267.0000 1.0000
59.3900 255.0000 1.0000
59.4000 292.0000 1.0000
59.4100 295.0000 1.0000
59.4200 277.0000 1.0000
59.4300 250.0000 1.0000
59.4400 276.0000 1.0000
59.4500 312.0000 1.0000
59.4600 292.0000 1.0000
59.4700 287.0000 1.0000
59.4800 269.0000 1.0000
59.4900 273.0000 1.0000
59.5000 245.0000 1.0000
59.5100 284.0000 1.0000
59.5200 255.0000 1.0000
59.5300 292.0000 1.0000
59.5400 265.0000 1.0000
59.5500 287.0000 1.0000
59.5600 277.0000 1.0000
59.5700 319.0000 1.0000
59.5800 268.0000 1.0000
59.5900 269.0000 1.0000
59.6000 283.0000 1.0000
59.6100 262.0000 1.0000
59.6200 228.0000 1.0000
59.6300 265.0000 1.0000
59.6400 262.0000 1.0000
59.6500 262.0000 1.0000
59.6600 265.0000 1.0000
59.6700 251.0000 1.0000
59.6800 263.0000 1.0000
59.6900 303.0000 1.0000
59.7000 281.0000 1.0000
59.7100 292.0000 1.0000
59.7200 271.0000 1.0000
59.7300 291.0000 1.0000
59.7400 273.0000 1.0000
59.7500 259.0000 1.0000
59.7600 262.0000 1.0000
59.7700 294.0000 1.0000
59.7800 284.0000 1.0000
59.7900 263.0000 1.0000
59.8000 262.0000 1.0000
59.8100 281.0000 1.0000
59.8200 260.0000 1.0000
59.8300 266.0000 1.0000
59.8400 265.0000 1.0000
59.8500 264.0000 1.0000
59.8600 296.0000 1.0000
59.8700 238.0000 1.0000
59.8800 261.0000 1.0000
59.8900 263.0000 1.0000
59.9000 255.0000 1.0000
59.9100 274.0000 1.0000
59.9200 276.0000 1.0000
59.9300 293.0000 1.0000
59.9400 272.0000 1.0000
59.9500 264.0000 1.0000
59.9600 277.0000 1.0000
59.9700 275.0000 1.0000
59.9800 242.0000 1.0000
59.9900 274.0000 1.0000
60.0000 264.0000 1.0000
60.0100 264.0000 1.0000
60.0200 266.0000 1.0000
60.0300 268.0000 1.0000
60.0400 250.0000 1.0000
60.0500 265.0000 1.0000
60.0600 260.0000 1.0000
60.0700 261.0000 1.0000
60.0800 282.0000 1.0000
60.0900 299.0000 1.0000
60.1000 281.0000 1.0000
60.1100 251.0000 1.0000
60.1200 268.0000 1.0000
60.1300 256.0000 1.0000
60.1400 268.0000 1.0000
60.1500 277.0000 1.0000
60.1600 280.0000 1.0000
60.1700 286.0000 1.0000
60.1800 282.0000 1.0000
60.1900 246.0000 1.0000
60.2000 249.0000 1.0000
60.2100 281.0000 1.0000
60.2200 255.0000 1.0000
60.2300 265.0000 1.0000
60.2400 291.0000 1.0000
60.2500 266.0000 1.0000
60.2600 269.0000 1.0000
60.2700 298.0000 1.0000
60.2800 291.0000 1.0000
60.2900 293.0000 1.0000
60.3000 261.0000 1.0000
60.3100 271.0000 1.0000
60.3200 257.0000 1.0000
60.3300 282.0000 1.0000
60.3400 281.0000 1.0000
60.3500 290.0000 1.0000
60.3600 299.0000 1.0000
60.3700 274.0000 1.0000
60.3800 274.0000 1.0000
60.3900 280.0000 1.0000
60.4000 268.0000 1.0000
60.4100 278.0000 1.0000
60.4200 285.0000 1.0000
60.4300 265.0000 1.0000
60.4400 271.0000 1.0000
60.4500 300.0000 1.0000
60.4600 264.0000 1.0000
60.4700 259.0000 1.0000
60.4800 259.0000 1.0000
60.4900 270.0000 1.0000
60.5000 279.0000 1.0000
60.5100 265.0000 1.0000
60.5200 280.0000 1.0000
60.5300 251.0000 1.0000
60.5400 265.0000 1.0000
60.5500 300.0000 1.0000
60.5600 270.0000 1.0000
60.5700 275.0000 1.0000
60.5800 284.0000 1.0000
60.5900 256.0000 1.0000
60.6000 282.0000 1.0000
60.6100 235.0000 1.0000
60.6200 259.0000 1.0000
60.6300 275.0000 1.0000
60.6400 287.0000 1.0000
60.6500 277.0000 1.0000
60.6600 275.0000 1.0000
60.6700 261.0000 1.0000
60.6800 289.0000 1.0000
60.6900 284.0000 1.0000
60.7000 294.0000 1.0000
60.7100 285.0000 1.0000
60.7200 274.0000 1.0000
60.7300 292.0000 1.0000
60.7400 277.0000 1.0000
60.7500 280.0000 1.0000
60.7600 277.0000 1.0000
60.7700 290.0000 1.0000
60.7800 303.0000 1.0000
60.7900 301.0000 1.0000
60.8000 309.0000 1.0000
60.8100 307.0000 1.0000
60.8200 264.0000 1.0000
60.8300 279.0000 1.0000
60.8400 287.0000 1.0000
60.8500 275.0000 1.0000
60.8600 297.0000 1.0000
60.8700 291.0000 1.0000
60.8800 270.0000 1.0000
60.8900 278.0000 1.0000
60.9000 272.0000 1.0000
60.9100 267.0000 1.0000
60.9200 273.0000 1.0000
60.9300 281.0000 1.0000
60.9400 298.0000 1.0000
60.9500 291.0000 1.0000
60.9600 292.0000 1.0000
60.9700 277.0000 1.0000
60.9800 260.0000 1.0000
60.9900 325.0000 1.0000
61.0000 311.0000 1.0000
61.0100 287.0000 1.0000
61.0200 293.0000 1.0000
61.0300 294.0000 1.0000
61.0400 264.0000 1.0000
61.0500 307.0000 1.0000
61.0600 351.0000 1.0000
61.0700 315.0000 1.0000
61.0800 303.0000 1.0000
61.0900 281.0000 1.0000
61.1000 310.0000 1.0000
61.1100 303.0000 1.0000
61.1200 314.0000 1.0000
61.1300 328.0000 1.0000
61.1400 342.0000 1.0000
61.1500 328.0000 1.0000
61.1600 327.0000 1.0000
61.1700 332.0000 1.0000
61.1800 355.0000 1.0000
61.1900 341.0000 1.0000
61.2000 355.0000 1.0000
61.2100 315.0000 1.0000
61.2200 344.0000 1.0000
61.2300 338.0000 1.0000
61.2400 366.0000 1.0000
61.2500 368.0000 1.0000
61.2600 336.0000 1.0000
61.2700 384.0000 1.0000
61.2800 374.0000 1.0000
61.2900 406.0000 1.0000
61.3000 378.0000 1.0000
61.3100 374.0000 1.0000
61.3200 359.0000 1.0000
61.3300 369.0000 1.0000
61.3400 413.0000 1.0000
61.3500 446.0000 1.0000
61.3600 402.0000 1.0000
61.3700 419.0000 1.0000
61.3800 430.0000 1.0000
61.3900 444.0000 1.0000
61.4000 427.0000 1.0000
61.4100 427.0000 1.0000
61.4200 487.0000 1.0000
61.4300 449.0000 1.0000
61.4400 451.0000 1.0000
61.4500 474.0000 1.0000
61.4600 484.0000 1.0000
61.4700 455.0000 1.0000
61.4800 487.0000 1.0000
61.4900 502.0000 1.0000
61.5000 517.0000 1.0000
61.5100 496.0000 1.0000
61.5200 501.0000 1.0000
61.5300 515.0000 1.0000
61.5400 530.0000 1.0000
61.5500 540.0000 1.0000
61.5600 497.0000 1.0000
61.5700 529.0000 1.0000
61.5800 488.0000 1.0000
61.5900 531.0000 1.0000
61.6000 550.0000 1.0000
61.6100 524.0000 1.0000
61.6200 528.0000 1.0000
61.6300 551.0000 1.0000
61.6400 524.0000 1.0000
61.6500 513.0000 1.0000
61.6600 514.0000 1.0000
61.6700 514.0000 1.0000
61.6800 501.0000 1.0000
61.6900 499.0000 1.0000
61.7000 523.0000 1.0000
61.7100 460.0000 1.0000
61.7200 499.0000 1.0000
61.7300 479.0000 1.0000
61.7400 462.0000 1.0000
61.7500 464.0000 1.0000
61.7600 438.0000 1.0000
61.7700 453.0000 1.0000
61.7800 438.0000 1.0000
61.7900 471.0000 1.0000
61.8000 457.0000 1.0000
61.8100 432.0000 1.0000
61.8200 431.0000 1.0000
61.8300 416.0000 1.0000
61.8400 397.0000 1.0000
61.8500 404.0000 1.0000
61.8600 384.0000 1.0000
61.8700 407.0000 1.0000
61.8800 408.0000 1.0000
61.8900 385.0000 1.0000
61.9000 352.0000 1.0000
61.9100 359.0000 1.0000
61.9200 390.0000 1.0000
61.9300 357.0000 1.0000
61.9400 337.0000 1.0000
61.9500 372.0000 1.0000
61.9600 372.0000 1.0000
61.9700 331.0000 1.0000
61.9800 320.0000 1.0000
61.9900 360.0000 1.0000
62.0000 326.0000 1.0000
62.0100 335.0000 1.0000
62.0200 356.0000 1.0000
62.0300 350.0000 1.0000
62.0400 344.0000 1.0000
62.0500 328.0000 1.0000
62.0600 306.0000 1.0000
62.0700 318.0000 1.0000
62.0800 333.0000 1.0000
62.0900 308.0000 1.0000
62.1000 338.0000 1.0000
62.1100 337.0000 1.0000
62.1200 328.0000 1.0000
62.1300 293.0000 1.0000
62.1400 304.0000 1.0000
62.1500 322.0000 1.0000
62.1600 290.0000 1.0000
62.1700 352.0000 1.0000
62.1800 317.0000 1.0000
62.1900 329.0000 1.0000
62.2000 342.0000 1.0000
62.2100 327.0000 1.0000
62.2200 311.0000 1.0000
62.2300 333.0000 1.0000
62.2400 326.0000 1.0000
62.2500 325.0000 1.0000
62.2600 323.0000 1.0000
62.2700 326.0000 1.0000
62.2800 304.0000 1.0000
62.2900 338.0000 1.0000
62.3000 347.0000 1.0000
62.3100 340.0000 1.0000
62.3200 335.0000 1.0000
62.3300 334.0000 1.0000
62.3400 336.0000 1.0000
62.3500 343.0000 1.0000
62.3600 350.0000 1.0000
62.3700 353.0000 1.0000
62.3800 307.0000 1.0000
62.3900 298.0000 1.0000
62.4000 369.0000 1.0000
62.4100 345.0000 1.0000
62.4200 332.0000 1.0000
62.4300 332.0000 1.0000
62.4400 332.0000 1.0000
62.4500 324.0000 1.0000
62.4600 317.0000 1.0000
62.4700 322.0000 1.0000
62.4800 317.0000 1.0000
62.4900 348.0000 1.0000
62.5000 330.0000 1.0000
62.5100 334.0000 1.0000
62.5200 317.0000 1.0000
62.5300 327.0000 1.0000
62.5400 309.0000 1.0000
62.5500 325.0000 1.0000
62.5600 320.0000 1.0000
62.5700 313.0000 1.0000
62.5800 313.0000 1.0000
62.5900 295.0000 1.0000
62.6000 315.0000 1.0000
62.6100 296.0000 1.0000
62.6200 295.0000 1.0000
62.6300 317.0000 1.0000
62.6400 323.0000 1.0000
62.6500 325.0000 1.0000
62.6600 310.0000 1.0000
62.6700 268.0000 1.0000
62.6800 246.0000 1.0000
62.6900 298.0000 1.0000
62.7000 298.0000 1.0000
62.7100 270.0000 1.0000
62.7200 280.0000 1.0000
62.7300 308.0000 1.0000
62.7400 290.0000 1.0000
62.7500 259.0000 1.0000
62.7600 269.0000 1.0000
62.7700 284.0000 1.0000
62.7800 289.0000 1.0000
62.7900 282.0000 1.0000
62.8000 262.0000 1.0000
62.8100 269.0000 1.0000
62.8200 279.0000 1.0000
62.8300 267.0000 1.0000
62.8400 281.0000 1.0000
62.8500 272.0000 1.0000
62.8600 309.0000 1.0000
62.8700 295.0000 1.0000
62.8800 287.0000 1.0000
62.8900 254.0000 1.0000
62.9000 283.0000 1.0000
62.9100 259.0000 1.0000
62.9200 294.0000 1.0000
62.9300 271.0000 1.0000
62.9400 300.0000 1.0000
62.9500 306.0000 1.0000
62.9600 271.0000 1.0000
62.9700 239.0000 1.0000
62.9800 257.0000 1.0000
62.9900 269.0000 1.0000
63.0000 252.0000 1.0000
63.0100 251.0000 1.0000
63.0200 272.0000 1.0000
63.0300 291.0000 1.0000
63.0400 287.0000 1.0000
63.0500 280.0000 1.0000
63.0600 268.0000 1.0000
63.0700 307.0000 1.0000
63.0800 283.0000 1.0000
63.0900 263.0000 1.0000
63.1000 252.0000 1.0000
63.1100 260.0000 1.0000
63.1200 272.0000 1.0000
63.1300 267.0000 1.0000
63.1400 280.0000 1.0000
63.1500 285.0000 1.0000
63.1600 266.0000 1.0000
63.1700 250.0000 1.0000
63.1800 263.0000 1.0000
63.1900 250.0000 1.0000
63.2000 259.0000 1.0000
63.2100 243.0000 1.0000
63.2200 274.0000 1.0000
63.2300 284.0000 1.0000
63.2400 280.0000 1.0000
63.2500 293.0000 1.0000
63.2600 272.0000 1.0000
63.2700 289.0000 1.0000
63.2800 298.0000 1.0000
63.2900 262.0000 1.0000
63.3000 276.0000 1.0000
63.3100 289.0000 1.0000
63.3200 260.0000 1.0000
63.3300 235.0000 1.0000
63.3400 256.0000 1.0000
63.3500 277.0000 1.0000
63.3600 286.0000 1.0000
63.3700 275.0000 1.0000
63.3800 274.0000 1.0000
63.3900 258.0000 1.0000
63.4000 259.0000 1.0000
63.4100 275.0000 1.0000
63.4200 275.0000 1.0000
63.4300 293.0000 1.0000
63.4400 292.0000 1.0000
63.4500 286.0000 1.0000
63.4600 274.0000 1.0000
63.4700 270.0000 1.0000
63.4800 269.0000 1.0000
63.4900 290.0000 1.0000
63.5000 283.0000 1.0000
63.5100 281.0000 1.0000
63.5200 316.0000 1.0000
63.5300 288.0000 1.0000
63.5400 282.0000 1.0000
63.5500 258.0000 1.0000
63.5600 280.0000 1.0000
63.5700 242.0000 1.0000
63.5800 273.0000 1.0000
63.5900 280.0000 1.0000
63.6000 263.0000 1.0000
63.6100 252.0000 1.0000
63.6200 273.0000 1.0000
63.6300 297.0000 1.0000
63.6400 303.0000 1.0000
63.6500 279.0000 1.0000
63.6600 270.0000 1.0000
63.6700 302.0000 1.0000
63.6800 299.0000 1.0000
63.6900 269.0000 1.0000
63.7000 289.0000 1.0000
63.7100 297.0000 1.0000
63.7200 282.0000 1.0000
63.7300 312.0000 1.0000
63.7400 302.0000 1.0000
63.7500 308.0000 1.0000
63.7600 324.0000 1.0000
63.7700 320.0000 1.0000
63.7800 342.0000 1.0000
63.7900 301.0000 1.0000
63.8000 313.0000 1.0000
63.8100 319.0000 1.0000
63.8200 330.0000 1.0000
63.8300 313.0000 1.0000
63.8400 352.0000 1.0000
63.8500 352.0000 1.0000
63.8600 336.0000 1.0000
63.8700 339.0000 1.0000
63.8800 387.0000 1.0000
63.8900 364.0000 1.0000
63.9000 368.0000 1.0000
63.9100 362.0000 1.0000
63.9200 390.0000 1.0000
63.9300 350.0000 1.0000
63.9400 375.0000 1.0000
63.9500 404.0000 1.0000
63.9600 365.0000 1.0000
63.9700 373.0000 1.0000
63.9800 344.0000 1.0000
63.9900 338.0000 1.0000
64.0000 370.0000 1.0000
64.0100 343.0000 1.0000
64.0200 347.0000 1.0000
64.0300 326.0000 1.0000
64.0400 352.0000 1.0000
64.0500 367.0000 1.0000
64.0600 344.0000 1.0000
64.0700 342.0000 1.0000
64.0800 348.0000 1.0000
64.0900 374.0000 1.0000
64.1000 367.0000 1.0000
64.1100 352.0000 1.0000
64.1200 348.0000 1.0000
64.1300 336.0000 1.0000
64.1400 341.0000 1.0000
64.1500 331.0000 1.0000
64.1600 307.0000 1.0000
64.1700 325.0000 1.0000
64.1800 309.0000 1.0000
64.1900 313.0000 1.0000
64.2000 317.0000 1.0000
64.2100 325.0000 1.0000
64.2200 285.0000 1.0000
64.2300 288.0000 1.0000
64.2400 311.0000 1.0000
64.2500 300.0000 1.0000
64.2600 282.0000 1.0000
64.2700 277.0000 1.0000
64.2800 307.0000 1.0000
64.2900 298.0000 1.0000
64.3000 298.0000 1.0000
64.3100 279.0000 1.0000
64.3200 299.0000 1.0000
64.3300 294.0000 1.0000
64.3400 303.0000 1.0000
64.3500 288.0000 1.0000
64.3600 297.0000 1.0000
64.3700 293.0000 1.0000
64.3800 300.0000 1.0000
64.3900 297.0000 1.0000
64.4000 282.0000 1.0000
64.4100 285.0000 1.0000
64.4200 279.0000 1.0000
64.4300 288.0000 1.0000
64.4400 305.0000 1.0000
64.4500 304.0000 1.0000
64.4600 271.0000 1.0000
64.4700 254.0000 1.0000
64.4800 278.0000 1.0000
64.4900 280.0000 1.0000
64.5000 284.0000 1.0000
64.5100 294.0000 1.0000
64.5200 291.0000 1.0000
64.5300 282.0000 1.0000
64.5400 276.0000 1.0000
64.5500 285.0000 1.0000
64.5600 293.0000 1.0000
64.5700 273.0000 1.0000
64.5800 281.0000 1.0000
64.5900 276.0000 1.0000
64.6000 284.0000 1.0000
64.6100 309.0000 1.0000
64.6200 280.0000 1.0000
64.6300 280.0000 1.0000
64.6400 268.0000 1.0000
64.6500 276.0000 1.0000
64.6600 256.0000 1.0000
64.6700 284.0000 1.0000
64.6800 296.0000 1.0000
64.6900 293.0000 1.0000
64.7000 281.0000 1.0000
64.7100 300.0000 1.0000
64.7200 304.0000 1.0000
64.7300 263.0000 1.0000
64.7400 275.0000 1.0000
64.7500 298.0000 1.0000
64.7600 321.0000 1.0000
64.7700 255.0000 1.0000
64.7800 297.0000 1.0000
64.7900 293.0000 1.0000
64.8000 285.0000 1.0000
64.8100 305.0000 1.0000
64.8200 335.0000 1.0000
64.8300 304.0000 1.0000
64.8400 282.0000 1.0000
64.8500 289.0000 1.0000
64.8600 292.0000 1.0000
64.8700 280.0000 1.0000
64.8800 300.0000 1.0000
64.8900 319.0000 1.0000
64.9000 291.0000 1.0000
64.9100 298.0000 1.0000
64.9200 307.0000 1.0000
64.9300 304.0000 1.0000
64.9400 311.0000 1.0000
64.9500 319.0000 1.0000
64.9600 322.0000 1.0000
64.9700 325.0000 1.0000
64.9800 300.0000 1.0000
64.9900 305.0000 1.0000
65.0000 320.0000 1.0000
65.0100 295.0000 1.0000
65.0200 298.0000 1.0000
65.0300 300.0000 1.0000
65.0400 304.0000 1.0000
65.0500 306.0000 1.0000
65.0600 316.0000 1.0000
65.0700 304.0000 1.0000
65.0800 321.0000 1.0000
65.0900 333.0000 1.0000
65.1000 362.0000 1.0000
65.1100 338.0000 1.0000
65.1200 348.0000 1.0000
65.1300 347.0000 1.0000
65.1400 350.0000 1.0000
65.1500 370.0000 1.0000
65.1600 361.0000 1.0000
65.1700 339.0000 1.0000
65.1800 328.0000 1.0000
65.1900 341.0000 1.0000
65.2000 360.0000 1.0000
65.2100 381.0000 1.0000
65.2200 392.0000 1.0000
65.2300 391.0000 1.0000
65.2400 413.0000 1.0000
65.2500 409.0000 1.0000
65.2600 362.0000 1.0000
65.2700 434.0000 1.0000
65.2800 436.0000 1.0000
65.2900 443.0000 1.0000
65.3000 423.0000 1.0000
65.3100 473.0000 1.0000
65.3200 490.0000 1.0000
65.3300 513.0000 1.0000
65.3400 538.0000 1.0000
65.3500 545.0000 1.0000
65.3600 562.0000 1.0000
65.3700 548.0000 1.0000
65.3800 591.0000 1.0000
65.3900 613.0000 1.0000
65.4000 638.0000 1.0000
65.4100 640.0000 1.0000
65.4200 683.0000 1.0000
65.4300 714.0000 1.0000
65.4400 732.0000 1.0000
65.4500 761.0000 1.0000
65.4600 746.0000 1.0000
65.4700 807.0000 1.0000
65.4800 830.0000 1.0000
65.4900 793.0000 1.0000
65.5000 773.0000 1.0000
65.5100 809.0000 1.0000
65.5200 829.0000 1.0000
65.5300 788.0000 1.0000
65.5400 813.0000 1.0000
65.5500 781.0000 1.0000
65.5600 832.0000 1.0000
65.5700 799.0000 1.0000
65.5800 784.0000 1.0000
65.5900 740.0000 1.0000
65.6000 735.0000 1.0000
65.6100 736.0000 1.0000
65.6200 738.0000 1.0000
65.6300 706.0000 1.0000
65.6400 685.0000 1.0000
65.6500 707.0000 1.0000
65.6600 673.0000 1.0000
65.6700 666.0000 1.0000
65.6800 626.0000 1.0000
65.6900 621.0000 1.0000
65.7000 619.0000 1.0000
65.7100 589.0000 1.0000
65.7200 595.0000 1.0000
65.7300 552.0000 1.0000
65.7400 551.0000 1.0000
65.7500 527.0000 1.0000
65.7600 525.0000 1.0000
65.7700 523.0000 1.0000
65.7800 489.0000 1.0000
65.7900 448.0000 1.0000
65.8000 482.0000 1.0000
65.8100 467.0000 1.0000
65.8200 474.0000 1.0000
65.8300 467.0000 1.0000
65.8400 443.0000 1.0000
65.8500 437.0000 1.0000
65.8600 385.0000 1.0000
65.8700 393.0000 1.0000
65.8800 388.0000 1.0000
65.8900 399.0000 1.0000
65.9000 373.0000 1.0000
65.9100 352.0000 1.0000
65.9200 351.0000 1.0000
65.9300 345.0000 1.0000
65.9400 348.0000 1.0000
65.9500 335.0000 1.0000
65.9600 359.0000 1.0000
65.9700 323.0000 1.0000
65.9800 329.0000 1.0000
65.9900 324.0000 1.0000
66.0000 338.0000 1.0000
66.0100 308.0000 1.0000
66.0200 333.0000 1.0000
66.0300 324.0000 1.0000
66.0400 329.0000 1.0000
66.0500 300.0000 1.0000
66.0600 312.0000 1.0000
66.0700 306.0000 1.0000
66.0800 322.0000 1.0000
66.0900 290.0000 1.0000
66.1000 293.0000 1.0000
66.1100 291.0000 1.0000
66.1200 283.0000 1.0000
66.1300 300.0000 1.0000
66.1400 297.0000 1.0000
66.1500 294.0000 1.0000
66.1600 312.0000 1.0000
66.1700 296.0000 1.0000
66.1800 288.0000 1.0000
66.1900 262.0000 1.0000
66.2000 301.0000 1.0000
66.2100 255.0000 1.0000
66.2200 289.0000 1.0000
66.2300 306.0000 1.0000
66.2400 294.0000 1.0000
66.2500 316.0000 1.0000
66.2600 292.0000 1.0000
66.2700 289.0000 1.0000
66.2800 284.0000 1.0000
66.2900 244.0000 1.0000
66.3000 271.0000 1.0000
66.3100 265.0000 1.0000
66.3200 272.0000 1.0000
66.3300 273.0000 1.0000
66.3400 290.0000 1.0000
66.3500 278.0000 1.0000
66.3600 274.0000 1.0000
66.3700 279.0000 1.0000
66.3800 264.0000 1.0000
66.3900 288.0000 1.0000
66.4000 279.0000 1.0000
66.4100 257.0000 1.0000
66.4200 285.0000 1.0000
66.4300 264.0000 1.0000
66.4400 282.0000 1.0000
66.4500 282.0000 1.0000
66.4600 265.0000 1.0000
66.4700 279.0000 1.0000
66.4800 293.0000 1.0000
66.4900 270.0000 1.0000
66.5000 277.0000 1.0000
66.5100 266.0000 1.0000
66.5200 256.0000 1.0000
66.5300 289.0000 1.0000
66.5400 260.0000 1.0000
66.5500 261.0000 1.0000
66.5600 264.0000 1.0000
66.5700 279.0000 1.0000
66.5800 279.0000 1.0000
66.5900 244.0000 1.0000
66.6000 246.0000 1.0000
66.6100 264.0000 1.0000
66.6200 309.0000 1.0000
66.6300 249.0000 1.0000
66.6400 247.0000 1.0000
66.6500 273.0000 1.0000
66.6600 269.0000 1.0000
66.6700 250.0000 1.0000
66.6800 235.0000 1.0000
66.6900 241.0000 1.0000
66.7000 265.0000 1.0000
66.7100 245.0000 1.0000
66.7200 263.0000 1.0000
66.7300 268.0000 1.0000
66.7400 244.0000 1.0000
66.7500 241.0000 1.0000
66.7600 254.0000 1.0000
66.7700 242.0000 1.0000
66.7800 255.0000 1.0000
66.7900 254.0000 1.0000
66.8000 264.0000 1.0000
66.8100 282.0000 1.0000
66.8200 251.0000 1.0000
66.8300 268.0000 1.0000
66.8400 283.0000 1.0000
66.8500 275.0000 1.0000
66.8600 243.0000 1.0000
66.8700 260.0000 1.0000
66.8800 281.0000 1.0000
66.8900 268.0000 1.0000
66.9000 267.0000 1.0000
66.9100 233.0000 1.0000
66.9200 267.0000 1.0000
66.9300 236.0000 1.0000
66.9400 238.0000 1.0000
66.9500 264.0000 1.0000
66.9600 255.0000 1.0000
66.9700 249.0000 1.0000
66.9800 250.0000 1.0000
66.9900 220.0000 1.0000
67.0000 266.0000 1.0000
67.0100 254.0000 1.0000
67.0200 245.0000 1.0000
67.0300 255.0000 1.0000
67.0400 249.0000 1.0000
67.0500 272.0000 1.0000
67.0600 257.0000 1.0000
67.0700 248.0000 1.0000
67.0800 257.0000 1.0000
67.0900 242.0000 1.0000
67.1000 236.0000 1.0000
67.1100 248.0000 1.0000
67.1200 284.0000 1.0000
67.1300 269.0000 1.0000
67.1400 240.0000 1.0000
67.1500 229.0000 1.0000
67.1600 261.0000 1.0000
67.1700 254.0000 1.0000
67.1800 287.0000 1.0000
67.1900 265.0000 1.0000
67.2000 254.0000 1.0000
67.2100 272.0000 1.0000
67.2200 253.0000 1.0000
67.2300 233.0000 1.0000
67.2400 249.0000 1.0000
67.2500 265.0000 1.0000
67.2600 246.0000 1.0000
67.2700 238.0000 1.0000
67.2800 243.0000 1.0000
67.2900 242.0000 1.0000
67.3000 249.0000 1.0000
67.3100 251.0000 1.0000
67.3200 228.0000 1.0000
67.3300 234.0000 1.0000
67.3400 264.0000 1.0000
67.3500 261.0000 1.0000
67.3600 268.0000 1.0000
67.3700 260.0000 1.0000
67.3800 258.0000 1.0000
67.3900 243.0000 1.0000
67.4000 246.0000 1.0000
67.4100 242.0000 1.0000
67.4200 240.0000 1.0000
67.4300 257.0000 1.0000
67.4400 218.0000 1.0000
67.4500 238.0000 1.0000
67.4600 245.0000 1.0000
67.4700 270.0000 1.0000
67.4800 256.0000 1.0000
67.4900 248.0000 1.0000
67.5000 246.0000 1.0000
67.5100 244.0000 1.0000
67.5200 239.0000 1.0000
67.5300 236.0000 1.0000
67.5400 251.0000 1.0000
67.5500 266.0000 1.0000
67.5600 247.0000 1.0000
67.5700 266.0000 1.0000
67.5800 257.0000 1.0000
67.5900 249.0000 1.0000
67.6000 253.0000 1.0000
67.6100 243.0000 1.0000
67.6200 212.0000 1.0000
67.6300 217.0000 1.0000
67.6400 244.0000 1.0000
67.6500 259.0000 1.0000
67.6600 261.0000 1.0000
67.6700 248.0000 1.0000
67.6800 251.0000 1.0000
67.6900 243.0000 1.0000
67.7000 229.0000 1.0000
67.7100 250.0000 1.0000
67.7200 239.0000 1.0000
67.7300 252.0000 1.0000
67.7400 258.0000 1.0000
67.7500 254.0000 1.0000
67.7600 242.0000 1.0000
67.7700 247.0000 1.0000
67.7800 207.0000 1.0000
67.7900 267.0000 1.0000
67.8000 256.0000 1.0000
67.8100 231.0000 1.0000
67.8200 251.0000 1.0000
67.8300 237.0000 1.0000
67.8400 236.0000 1.0000
67.8500 238.0000 1.0000
67.8600 254.0000 1.0000
67.8700 259.0000 1.0000
67.8800 253.0000 1.0000
67.8900 220.0000 1.0000
67.9000 233.0000 1.0000
67.9100 232.0000 1.0000
67.9200 232.0000 1.0000
67.9300 220.0000 1.0000
67.9400 245.0000 1.0000
67.9500 224.0000 1.0000
67.9600 223.0000 1.0000
67.9700 245.0000 1.0000
67.9800 243.0000 1.0000
67.9900 255.0000 1.0000
68.0000 233.0000 1.0000
68.0100 245.0000 1.0000
68.0200 257.0000 1.0000
68.0300 237.0000 1.0000
68.0400 245.0000 1.0000
68.0500 266.0000 1.0000
68.0600 222.0000 1.0000
68.0700 252.0000 1.0000
68.0800 259.0000 1.0000
68.0900 261.0000 1.0000
68.1000 233.0000 1.0000
68.1100 232.0000 1.0000
68.1200 242.0000 1.0000
68.1300 225.0000 1.0000
68.1400 236.0000 1.0000
68.1500 254.0000 1.0000
68.1600 272.0000 1.0000
68.1700 280.0000 1.0000
68.1800 259.0000 1.0000
68.1900 260.0000 1.0000
68.2000 240.0000 1.0000
68.2100 240.0000 1.0000
68.2200 252.0000 1.0000
68.2300 247.0000 1.0000
68.2400 258.0000 1.0000
68.2500 247.0000 1.0000
68.2600 231.0000 1.0000
68.2700 246.0000 1.0000
68.2800 235.0000 1.0000
68.2900 243.0000 1.0000
68.3000 239.0000 1.0000
68.3100 250.0000 1.0000
68.3200 240.0000 1.0000
68.3300 223.0000 1.0000
68.3400 237.0000 1.0000
68.3500 246.0000 1.0000
68.3600 221.0000 1.0000
68.3700 227.0000 1.0000
68.3800 243.0000 1.0000
68.3900 253.0000 1.0000
68.4000 263.0000 1.0000
68.4100 239.0000 1.0000
68.4200 221.0000 1.0000
68.4300 233.0000 1.0000
68.4400 257.0000 1.0000
68.4500 255.0000 1.0000
68.4600 224.0000 1.0000
68.4700 259.0000 1.0000
68.4800 263.0000 1.0000
68.4900 244.0000 1.0000
68.5000 251.0000 1.0000
68.5100 243.0000 1.0000
68.5200 250.0000 1.0000
68.5300 255.0000 1.0000
68.5400 250.0000 1.0000
68.5500 232.0000 1.0000
68.5600 230.0000 1.0000
68.5700 232.0000 1.0000
68.5800 239.0000 1.0000
68.5900 282.0000 1.0000
68.6000 242.0000 1.0000
68.6100 248.0000 1.0000
68.6200 234.0000 1.0000
68.6300 238.0000 1.0000
68.6400 245.0000 1.0000
68.6500 231.0000 1.0000
68.6600 226.0000 1.0000
68.6700 239.0000 1.0000
68.6800 252.0000 1.0000
68.6900 250.0000 1.0000
68.7000 225.0000 1.0000
68.7100 261.0000 1.0000
68.7200 230.0000 1.0000
68.7300 246.0000 1.0000
68.7400 263.0000 1.0000
68.7500 252.0000 1.0000
68.7600 244.0000 1.0000
68.7700 231.0000 1.0000
68.7800 226.0000 1.0000
68.7900 231.0000 1.0000
68.8000 233.0000 1.0000
68.8100 244.0000 1.0000
68.8200 271.0000 1.0000
68.8300 230.0000 1.0000
68.8400 231.0000 1.0000
68.8500 251.0000 1.0000
68.8600 249.0000 1.0000
68.8700 244.0000 1.0000
68.8800 245.0000 1.0000
68.8900 256.0000 1.0000
68.9000 230.0000 1.0000
68.9100 259.0000 1.0000
68.9200 269.0000 1.0000
68.9300 248.0000 1.0000
68.9400 231.0000 1.0000
68.9500 221.0000 1.0000
68.9600 248.0000 1.0000
68.9700 243.0000 1.0000
68.9800 254.0000 1.0000
68.9900 243.0000 1.0000
69.0000 246.0000 1.0000
69.0100 245.0000 1.0000
69.0200 220.0000 1.0000
69.0300 224.0000 1.0000
69.0400 240.0000 1.0000
69.0500 217.0000 1.0000
69.0600 240.0000 1.0000
69.0700 259.0000 1.0000
69.0800 255.0000 1.0000
69.0900 222.0000 1.0000
69.1000 246.0000 1.0000
69.1100 228.0000 1.0000
69.1200 261.0000 1.0000
69.1300 224.0000 1.0000
69.1400 240.0000 1.0000
69.1500 242.0000 1.0000
69.1600 246.0000 1.0000
69.1700 228.0000 1.0000
69.1800 235.0000 1.0000
69.1900 237.0000 1.0000
69.2000 242.0000 1.0000
69.2100 232.0000 1.0000
69.2200 236.0000 1.0000
69.2300 254.0000 1.0000
69.2400 234.0000 1.0000
69.2500 240.0000 1.0000
69.2600 236.0000 1.0000
69.2700 208.0000 1.0000
69.2800 193.0000 1.0000
69.2900 219.0000 1.0000
69.3000 261.0000 1.0000
69.3100 268.0000 1.0000
69.3200 255.0000 1.0000
69.3300 239.0000 1.0000
69.3400 228.0000 1.0000
69.3500 261.0000 1.0000
69.3600 255.0000 1.0000
69.3700 234.0000 1.0000
69.3800 238.0000 1.0000
69.3900 237.0000 1.0000
69.4000 238.0000 1.0000
69.4100 235.0000 1.0000
69.4200 214.0000 1.0000
69.4300 216.0000 1.0000
69.4400 208.0000 1.0000
69.4500 235.0000 1.0000
69.4600 204.0000 1.0000
69.4700 236.0000 1.0000
69.4800 253.0000 1.0000
69.4900 249.0000 1.0000
69.5000 222.0000 1.0000
69.5100 243.0000 1.0000
69.5200 228.0000 1.0000
69.5300 236.0000 1.0000
69.5400 247.0000 1.0000
69.5500 235.0000 1.0000
69.5600 244.0000 1.0000
69.5700 239.0000 1.0000
69.5800 251.0000 1.0000
69.5900 256.0000 1.0000
69.6000 230.0000 1.0000
69.6100 247.0000 1.0000
69.6200 238.0000 1.0000
69.6300 242.0000 1.0000
69.6400 241.0000 1.0000
69.6500 219.0000 1.0000
69.6600 241.0000 1.0000
69.6700 217.0000 1.0000
69.6800 260.0000 1.0000
69.6900 258.0000 1.0000
69.7000 239.0000 1.0000
69.7100 244.0000 1.0000
69.7200 227.0000 1.0000
69.7300 232.0000 1.0000
69.7400 248.0000 1.0000
69.7500 225.0000 1.0000
69.7600 235.0000 1.0000
69.7700 217.0000 1.0000
69.7800 217.0000 1.0000
69.7900 223.0000 1.0000
69.8000 238.0000 1.0000
69.8100 253.0000 1.0000
69.8200 221.0000 1.0000
69.8300 218.0000 1.0000
69.8400 217.0000 1.0000
69.8500 240.0000 1.0000
69.8600 221.0000 1.0000
69.8700 231.0000 1.0000
69.8800 223.0000 1.0000
69.8900 206.0000 1.0000
69.9000 248.0000 1.0000
69.9100 247.0000 1.0000
69.9200 214.0000 1.0000
69.9300 226.0000 1.0000
69.9400 227.0000 1.0000
69.9500 213.0000 1.0000
69.9600 252.0000 1.0000
69.9700 242.0000 1.0000
69.9800 244.0000 1.0000
69.9900 241.0000 1.0000
70.0000 266.0000 1.0000
*RAS_INT_END
*RAS_TEMPERATURE_START
*RAS_TEMPERATURE_END
*RAS_DATA_END
