*RAS_DATA_START
*RAS_HEADER_START
*DISP_FMT_X "%.2f"
*DISP_FMT_Y "%.0f"
*DISP_FULLSCALE "16065.0000000000"
*DISP_LINE_COLOR "255.0000000000"
*DISP_LINE_STYLE "0.0000000000"
*DISP_LINE_WIDTH "0.2500000000"
*DISP_NOTE "測定データ-13"
*DISP_OFFSET_Y "0.0000000000"
*DISP_PEAKSEARCH_UNIT_Y "cps"
*DISP_RANGE_BOTTOM "0.0000000000"
*DISP_RANGE_LEFT "20.0000000000"
*DISP_RANGE_LOGCUTOFF "0.0100000000"
*DISP_RANGE_RIGHT "70.0000000000"
*DISP_RANGE_TOP "16065.0000000000"
*DISP_SCALE_MODE_Y "0.0000000000"
*DISP_TAB_NAME "2θ/θ"
*DISP_TITLE_Y "強度"
*DISP_UNIT_Y "cps"
*DISP_WINDOW_NAME "MSG_MACROENGINE"
*FILE_COMMENT " "
*FILE_MD5 ""
*FILE_MEMO " "
*FILE_OPERATOR "Administrator"
*FILE_SAMPLE " "
*FILE_TYPE "RAS_RAW"
*FILE_USERGROUP "システムマネージャ"
*FILE_VERSION "1.0000000000"
*HW_ATTACHMENT_ID "ATT0025"
*HW_ATTACHMENT_NAME "標準|Standard"
*HW_COUNTER_ID-0 "CUT0025"
*HW_COUNTER_ID-1 "CUT0020"
*HW_COUNTER_ID-2 "CUT0020"
*HW_COUNTER_ID-3 "CSL0021"
*HW_COUNTER_ID-4 "CMC0021"
*HW_COUNTER_NAME-0 "D/teX Ultra|D/teX Ultra"
*HW_COUNTER_NAME-1 "None|None"
*HW_COUNTER_NAME-2 "None|None"
*HW_COUNTER_NAME-3 "BBM|BBM"
*HW_COUNTER_NAME-4 "検出器モノクロメータ|Detector monochromator"
*HW_COUNTER_SELECT_NAME "D/teX Ultra|D/teX Ultra"
*HW_GONIOMETER_ID "GON0023"
*HW_GONIOMETER_NAME "SmartLab|SmartLab"
*HW_GONIOMETER_RADIUS-0 "90.0"
*HW_GONIOMETER_RADIUS-1 "114.0"
*HW_GONIOMETER_RADIUS-2 "190.0"
*HW_GONIOMETER_RADIUS-3 "300.0"
*HW_GONIOMETER_RADIUS-4 "187.0"
*HW_GONIOMETER_RADIUS-5 "300.0"
*HW_GONIOMETER_RADIUS-6 "113.0"
*HW_GONIOMETER_RADIUS-7 "331.0"
*HW_I_OPT_ID-0 "CBO0021"
*HW_I_OPT_ID-1 "ICR0023"
*HW_I_OPT_ID-2 "ISL0021"
*HW_I_OPT_ID-3 "ISO0021"
*HW_I_OPT_ID-4 "IAD0021"
*HW_I_OPT_ID-5 "IPR0001"
*HW_I_OPT_NAME-0 "CBOユニット|CBO unit"
*HW_I_OPT_NAME-1 "標準入射光学ユニット|Standard incident optical unit"
*HW_I_OPT_NAME-2 "標準入射スリットボックス|Standard incident slit box"
*HW_I_OPT_NAME-3 "入射平行スリット|Incident parallel slit"
*HW_I_OPT_NAME-4 "長手制限スリット|Length limiting slit"
*HW_I_OPT_NAME-5 "None|None"
*HW_R_ATTENUATER_AUTOMODE "0"
*HW_R_OPT_ID-0 "RSS0021"
*HW_R_OPT_ID-1 "RCR0023"
*HW_R_OPT_ID-2 "RSO0021"
*HW_R_OPT_ID-3 "RRS0021"
*HW_R_OPT_ID-4 "ATN0021"
*HW_R_OPT_ID-5 "RFL0021"
*HW_R_OPT_ID-6 "RAD0021"
*HW_R_OPT_NAME-0 "標準受光スリットボックス1|Standard receiving slit box # 1"
*HW_R_OPT_NAME-1 "標準受光光学ユニット1|Standard receiving unit # 1"
*HW_R_OPT_NAME-2 "標準受光光学ユニット2|Standard receiving optical unit # 2"
*HW_R_OPT_NAME-3 "標準受光スリットボックス2|Standard receiving slit box # 2"
*HW_R_OPT_NAME-4 "標準アッテネータ|Standard Attenuator"
*HW_R_OPT_NAME-5 "Cu Kβ|Cu K-beta"
*HW_R_OPT_NAME-6 "調整用受光スリット|Alignment receiving slit"
*HW_SAMPLE_HOLDER_ID "SMP0023"
*HW_SAMPLE_HOLDER_NAME "標準Zステージ|Standard Z stage"
*HW_XG_CURRENT_MAX "50"
*HW_XG_CURRENT_MIN "2"
*HW_XG_CURRENT_RESOLUTION "1"
*HW_XG_CURRENT_UNIT "mA"
*HW_XG_FOCUS "1mm x 10mm"
*HW_XG_FOCUS_TYPE "Normal"
*HW_XG_ID ""
*HW_XG_NAME "3kW 封入管(ID:1200)|3kW Sealed tube(ID:1200)"
*HW_XG_TARGET_ATOMIC_NUMBER "29.0000000000"
*HW_XG_TARGET_NAME "Cu"
*HW_XG_TYPE "Hermetic"
*HW_XG_VOLTAGE_MAX "60"
*HW_XG_VOLTAGE_MIN "20"
*HW_XG_VOLTAGE_RESOLUTION "1"
*HW_XG_VOLTAGE_UNIT "kV"
*HW_XG_WATT_MAX "1.500"
*HW_XG_WATT_UNIT "kW"
*HW_XG_WAVE_LENGTH_ALPHA1 "1.540593"
*HW_XG_WAVE_LENGTH_ALPHA2 "1.544414"
*HW_XG_WAVE_LENGTH_BETA "1.392250"
*MEAS_COND_AXIS_NAME-0 "2θ/θ"
*MEAS_COND_AXIS_NAME-1 "2θ"
*MEAS_COND_AXIS_NAME-2 "ω"
*MEAS_COND_AXIS_NAME-3 "Z"
*MEAS_COND_AXIS_NAME-4 "2θ/ω"
*MEAS_COND_AXIS_NAME-5 "θs"
*MEAS_COND_AXIS_NAME-6 "θd"
*MEAS_COND_AXIS_NAME-7 "Ts"
*MEAS_COND_AXIS_NAME-8 "CBO選択スリット"
*MEAS_COND_AXIS_NAME-9 "M"
*MEAS_COND_AXIS_NAME-10 "入射平行スリット"
*MEAS_COND_AXIS_NAME-11 "入射スリット"
*MEAS_COND_AXIS_NAME-12 ""
*MEAS_COND_AXIS_NAME-13 "Zs"
*MEAS_COND_AXIS_NAME-14 "入射光学素子"
*MEAS_COND_AXIS_NAME-15 "長手制限スリット"
*MEAS_COND_AXIS_NAME-16 "センタースリット"
*MEAS_COND_AXIS_NAME-17 "フィルター"
*MEAS_COND_AXIS_NAME-18 "受光スリット1"
*MEAS_COND_AXIS_NAME-19 "受光スリット2"
*MEAS_COND_AXIS_NAME-20 "受光光学素子"
*MEAS_COND_AXIS_NAME-21 "受光平行スリット"
*MEAS_COND_AXIS_NAME-22 "調整用受光スリット"
*MEAS_COND_AXIS_NAME-23 ""
*MEAS_COND_AXIS_NAME-24 ""
*MEAS_COND_AXIS_NAME-25 "Zd"
*MEAS_COND_AXIS_NAME-26 "アッテネータ"
*MEAS_COND_AXIS_NAME-27 "検出器モノクロメータ"
*MEAS_COND_AXIS_NAME-28 "モノクロメータスリット"
*MEAS_COND_AXIS_NAME-29 "プライマリビーム"
*MEAS_COND_AXIS_NAME-30 "PHA"
*MEAS_COND_AXIS_NAME_INTERNAL-0 "TwoThetaTheta"
*MEAS_COND_AXIS_NAME_INTERNAL-1 "TwoTheta"
*MEAS_COND_AXIS_NAME_INTERNAL-2 "Omega"
*MEAS_COND_AXIS_NAME_INTERNAL-3 "Z"
*MEAS_COND_AXIS_NAME_INTERNAL-4 "TwoThetaOmega"
*MEAS_COND_AXIS_NAME_INTERNAL-5 "ThetaS"
*MEAS_COND_AXIS_NAME_INTERNAL-6 "ThetaD"
*MEAS_COND_AXIS_NAME_INTERNAL-7 "Ts"
*MEAS_COND_AXIS_NAME_INTERNAL-8 "CBO"
*MEAS_COND_AXIS_NAME_INTERNAL-9 "CBO-M"
*MEAS_COND_AXIS_NAME_INTERNAL-10 "IncidentSollerSlit"
*MEAS_COND_AXIS_NAME_INTERNAL-11 "IncidentSlitBox"
*MEAS_COND_AXIS_NAME_INTERNAL-12 "IncidentSlitBox-_Axis"
*MEAS_COND_AXIS_NAME_INTERNAL-13 "Zs"
*MEAS_COND_AXIS_NAME_INTERNAL-14 "IncidentMonochromator"
*MEAS_COND_AXIS_NAME_INTERNAL-15 "IncidentAxdSlit"
*MEAS_COND_AXIS_NAME_INTERNAL-16 "CenterSlit"
*MEAS_COND_AXIS_NAME_INTERNAL-17 "Filter"
*MEAS_COND_AXIS_NAME_INTERNAL-18 "ReceivingSlitBox1"
*MEAS_COND_AXIS_NAME_INTERNAL-19 "ReceivingSlitBox2"
*MEAS_COND_AXIS_NAME_INTERNAL-20 "ReceivingOptics"
*MEAS_COND_AXIS_NAME_INTERNAL-21 "ReceivingSollerSlit"
*MEAS_COND_AXIS_NAME_INTERNAL-22 "ReceivingAxdSlit"
*MEAS_COND_AXIS_NAME_INTERNAL-23 "ReceivingSlitBox1-_Axis"
*MEAS_COND_AXIS_NAME_INTERNAL-24 "ReceivingSlitBox2-_Axis"
*MEAS_COND_AXIS_NAME_INTERNAL-25 "ReceivingSlitBox2-Zd"
*MEAS_COND_AXIS_NAME_INTERNAL-26 "Attenuator"
*MEAS_COND_AXIS_NAME_INTERNAL-27 "CounterMonochromator"
*MEAS_COND_AXIS_NAME_INTERNAL-28 "CounterSlit"
*MEAS_COND_AXIS_NAME_INTERNAL-29 "IncidentPrimary"
*MEAS_COND_AXIS_NAME_INTERNAL-30 "PHA"
*MEAS_COND_AXIS_NAME_MAGICNO-0 "83951616.0000000000"
*MEAS_COND_AXIS_NAME_MAGICNO-1 "268632064.0000000000"
*MEAS_COND_AXIS_NAME_MAGICNO-2 "268500992.0000000000"
*MEAS_COND_AXIS_NAME_MAGICNO-3 "285278208.0000000000"
*MEAS_COND_AXIS_NAME_MAGICNO-4 "83951616.0000000000"
*MEAS_COND_AXIS_NAME_MAGICNO-5 "131072.0000000000"
*MEAS_COND_AXIS_NAME_MAGICNO-6 "131072.0000000000"
*MEAS_COND_AXIS_NAME_MAGICNO-7 "318898176.0000000000"
*MEAS_COND_AXIS_NAME_MAGICNO-8 "20971521.0000000000"
*MEAS_COND_AXIS_NAME_MAGICNO-9 "285343744.0000000000"
*MEAS_COND_AXIS_NAME_MAGICNO-10 "20971521.0000000000"
*MEAS_COND_AXIS_NAME_MAGICNO-11 "22020097.0000000000"
*MEAS_COND_AXIS_NAME_MAGICNO-12 "25165824.0000000000"
*MEAS_COND_AXIS_NAME_MAGICNO-13 "318898176.0000000000"
*MEAS_COND_AXIS_NAME_MAGICNO-14 "1.0000000000"
*MEAS_COND_AXIS_NAME_MAGICNO-15 "20971521.0000000000"
*MEAS_COND_AXIS_NAME_MAGICNO-16 "20971521.0000000000"
*MEAS_COND_AXIS_NAME_MAGICNO-17 "20971521.0000000000"
*MEAS_COND_AXIS_NAME_MAGICNO-18 "23068673.0000000000"
*MEAS_COND_AXIS_NAME_MAGICNO-19 "23068673.0000000000"
*MEAS_COND_AXIS_NAME_MAGICNO-20 "20971521.0000000000"
*MEAS_COND_AXIS_NAME_MAGICNO-21 "20971521.0000000000"
*MEAS_COND_AXIS_NAME_MAGICNO-22 "20971521.0000000000"
*MEAS_COND_AXIS_NAME_MAGICNO-23 "25165824.0000000000"
*MEAS_COND_AXIS_NAME_MAGICNO-24 "25165824.0000000000"
*MEAS_COND_AXIS_NAME_MAGICNO-25 "285343744.0000000000"
*MEAS_COND_AXIS_NAME_MAGICNO-26 "17301505.0000000000"
*MEAS_COND_AXIS_NAME_MAGICNO-27 "20971521.0000000000"
*MEAS_COND_AXIS_NAME_MAGICNO-28 "20971521.0000000000"
*MEAS_COND_AXIS_NAME_MAGICNO-29 "20971521.0000000000"
*MEAS_COND_AXIS_NAME_MAGICNO-30 "0.0000000000"
*MEAS_COND_AXIS_OFFSET-0 "-"
*MEAS_COND_AXIS_OFFSET-1 "-0.0310000000"
*MEAS_COND_AXIS_OFFSET-2 "0.3957000000"
*MEAS_COND_AXIS_OFFSET-3 "-"
*MEAS_COND_AXIS_OFFSET-4 "-"
*MEAS_COND_AXIS_OFFSET-5 "0.3957000000"
*MEAS_COND_AXIS_OFFSET-6 "-0.4267000000"
*MEAS_COND_AXIS_OFFSET-7 "-"
*MEAS_COND_AXIS_OFFSET-8 "-"
*MEAS_COND_AXIS_OFFSET-9 "-"
*MEAS_COND_AXIS_OFFSET-10 "-"
*MEAS_COND_AXIS_OFFSET-11 "-"
*MEAS_COND_AXIS_OFFSET-12 "-"
*MEAS_COND_AXIS_OFFSET-13 "-"
*MEAS_COND_AXIS_OFFSET-14 "-"
*MEAS_COND_AXIS_OFFSET-15 "-"
*MEAS_COND_AXIS_OFFSET-16 "-"
*MEAS_COND_AXIS_OFFSET-17 "-"
*MEAS_COND_AXIS_OFFSET-18 "-"
*MEAS_COND_AXIS_OFFSET-19 "-"
*MEAS_COND_AXIS_OFFSET-20 "-"
*MEAS_COND_AXIS_OFFSET-21 "-"
*MEAS_COND_AXIS_OFFSET-22 "-"
*MEAS_COND_AXIS_OFFSET-23 "-"
*MEAS_COND_AXIS_OFFSET-24 "-"
*MEAS_COND_AXIS_OFFSET-25 "-"
*MEAS_COND_AXIS_OFFSET-26 "-"
*MEAS_COND_AXIS_OFFSET-27 "-"
*MEAS_COND_AXIS_OFFSET-28 "-"
*MEAS_COND_AXIS_OFFSET-29 "-"
*MEAS_COND_AXIS_OFFSET-30 "-"
*MEAS_COND_AXIS_POSITION-0 "0.0000000000"
*MEAS_COND_AXIS_POSITION-1 "0.0000000000"
*MEAS_COND_AXIS_POSITION-2 "0.0000000000"
*MEAS_COND_AXIS_POSITION-3 "-2.9037400000"
*MEAS_COND_AXIS_POSITION-4 "0.0000000000"
*MEAS_COND_AXIS_POSITION-5 "0.0000000000"
*MEAS_COND_AXIS_POSITION-6 "0.0000000000"
*MEAS_COND_AXIS_POSITION-7 "-0.7498700000"
*MEAS_COND_AXIS_POSITION-8 "BB"
*MEAS_COND_AXIS_POSITION-9 "0.0000000000"
*MEAS_COND_AXIS_POSITION-10 "Soller_slit_5.0deg"
*MEAS_COND_AXIS_POSITION-11 "2/3deg"
*MEAS_COND_AXIS_POSITION-12 "2.2088000000"
*MEAS_COND_AXIS_POSITION-13 "-0.6412500000"
*MEAS_COND_AXIS_POSITION-14 "0.0000000000"
*MEAS_COND_AXIS_POSITION-15 "10.0mm"
*MEAS_COND_AXIS_POSITION-16 "None"
*MEAS_COND_AXIS_POSITION-17 "Cu_K-beta"
*MEAS_COND_AXIS_POSITION-18 "13.000mm"
*MEAS_COND_AXIS_POSITION-19 "13.000mm"
*MEAS_COND_AXIS_POSITION-20 "No_unit"
*MEAS_COND_AXIS_POSITION-21 "Soller_slit_5.0deg"
*MEAS_COND_AXIS_POSITION-22 "None"
*MEAS_COND_AXIS_POSITION-23 "13.0000000000"
*MEAS_COND_AXIS_POSITION-24 "13.0000000000"
*MEAS_COND_AXIS_POSITION-25 "0.0281300000"
*MEAS_COND_AXIS_POSITION-26 "Open"
*MEAS_COND_AXIS_POSITION-27 "None"
*MEAS_COND_AXIS_POSITION-28 "None"
*MEAS_COND_AXIS_POSITION-29 "None"
*MEAS_COND_AXIS_POSITION-30 "38.0000000000"
*MEAS_COND_AXIS_UNIT-0 "deg"
*MEAS_COND_AXIS_UNIT-1 "deg"
*MEAS_COND_AXIS_UNIT-2 "deg"
*MEAS_COND_AXIS_UNIT-3 "mm"
*MEAS_COND_AXIS_UNIT-4 "deg"
*MEAS_COND_AXIS_UNIT-5 "deg"
*MEAS_COND_AXIS_UNIT-6 "deg"
*MEAS_COND_AXIS_UNIT-7 "mm"
*MEAS_COND_AXIS_UNIT-8 ""
*MEAS_COND_AXIS_UNIT-9 "pulse"
*MEAS_COND_AXIS_UNIT-10 ""
*MEAS_COND_AXIS_UNIT-11 ""
*MEAS_COND_AXIS_UNIT-12 "mm"
*MEAS_COND_AXIS_UNIT-13 "mm"
*MEAS_COND_AXIS_UNIT-14 ""
*MEAS_COND_AXIS_UNIT-15 ""
*MEAS_COND_AXIS_UNIT-16 ""
*MEAS_COND_AXIS_UNIT-17 ""
*MEAS_COND_AXIS_UNIT-18 ""
*MEAS_COND_AXIS_UNIT-19 ""
*MEAS_COND_AXIS_UNIT-20 ""
*MEAS_COND_AXIS_UNIT-21 ""
*MEAS_COND_AXIS_UNIT-22 ""
*MEAS_COND_AXIS_UNIT-23 "mm"
*MEAS_COND_AXIS_UNIT-24 "mm"
*MEAS_COND_AXIS_UNIT-25 "mm"
*MEAS_COND_AXIS_UNIT-26 ""
*MEAS_COND_AXIS_UNIT-27 ""
*MEAS_COND_AXIS_UNIT-28 ""
*MEAS_COND_AXIS_UNIT-29 ""
*MEAS_COND_AXIS_UNIT-30 "div"
*MEAS_COND_COUNTER_CNTLOSS_CORR "0.0000000000"
*MEAS_COND_COUNTER_PHABASE "38.0000000000"
*MEAS_COND_COUNTER_PHAWINDOW "16.0000000000"
*MEAS_COND_COUNTER_PHA_UNIT "div"
*MEAS_COND_COUNTER_TAUDIFF "30.0000000000"
*MEAS_COND_COUNTER_TAUINT "0.0000000000"
*MEAS_COND_IRRADIATION_MODE "OFF"
*MEAS_COND_IRRADIATION_WIDTH ""
*MEAS_COND_OPT_ATTR "集中法"
*MEAS_COND_OPT_NAME "@集中法"
*MEAS_COND_UNSYMMETRIC_MODE "OFF"
*MEAS_COND_XG_CURRENT "30.0000000000"
*MEAS_COND_XG_VOLTAGE "40.0000000000"
*MEAS_COND_XG_WAVE_TYPE "Ka"
*MEAS_DATA_COUNT "5001.0000000000"
*MEAS_SCAN_AXIS_X "2θ/θ"
*MEAS_SCAN_AXIS_X_INTERNAL "TwoThetaTheta"
*MEAS_SCAN_END_TIME "02/15/24 21:35:05"
*MEAS_SCAN_MODE "CONTINUOUS"
*MEAS_SCAN_MONITOR "0"
*MEAS_SCAN_RESOLUTION_X "0.0002"
*MEAS_SCAN_SPEED "2.5"
*MEAS_SCAN_SPEED_UNIT "deg/min"
*MEAS_SCAN_START "20.0000000000"
*MEAS_SCAN_START_TIME "02/15/24 21:13:40"
*MEAS_SCAN_STEP "0.0100000000"
*MEAS_SCAN_STOP "70.0000000000"
*MEAS_SCAN_UNIT_X "deg"
*MEAS_SCAN_UNIT_Y "counts"
*RAS_HEADER_END
*RAS_INT_START
20.0000 938.0000 1.0000
20.0100 903.0000 1.0000
20.0200 906.0000 1.0000
20.0300 883.0000 1.0000
20.0400 876.0000 1.0000
20.0500 892.0000 1.0000
20.0600 896.0000 1.0000
20.0700 897.0000 1.0000
20.0800 955.0000 1.0000
20.0900 917.0000 1.0000
20.1000 920.0000 1.0000
20.1100 884.0000 1.0000
20.1200 954.0000 1.0000
20.1300 936.0000 1.0000
20.1400 902.0000 1.0000
20.1500 945.0000 1.0000
20.1600 878.0000 1.0000
20.1700 922.0000 1.0000
20.1800 899.0000 1.0000
20.1900 912.0000 1.0000
20.2000 889.0000 1.0000
20.2100 916.0000 1.0000
20.2200 885.0000 1.0000
20.2300 912.0000 1.0000
20.2400 884.0000 1.0000
20.2500 926.0000 1.0000
20.2600 941.0000 1.0000
20.2700 942.0000 1.0000
20.2800 903.0000 1.0000
20.2900 923.0000 1.0000
20.3000 922.0000 1.0000
20.3100 892.0000 1.0000
20.3200 880.0000 1.0000
20.3300 861.0000 1.0000
20.3400 906.0000 1.0000
20.3500 903.0000 1.0000
20.3600 931.0000 1.0000
20.3700 886.0000 1.0000
20.3800 921.0000 1.0000
20.3900 914.0000 1.0000
20.4000 882.0000 1.0000
20.4100 896.0000 1.0000
20.4200 919.0000 1.0000
20.4300 918.0000 1.0000
20.4400 870.0000 1.0000
20.4500 884.0000 1.0000
20.4600 889.0000 1.0000
20.4700 852.0000 1.0000
20.4800 890.0000 1.0000
20.4900 876.0000 1.0000
20.5000 896.0000 1.0000
20.5100 933.0000 1.0000
20.5200 924.0000 1.0000
20.5300 893.0000 1.0000
20.5400 894.0000 1.0000
20.5500 909.0000 1.0000
20.5600 931.0000 1.0000
20.5700 874.0000 1.0000
20.5800 927.0000 1.0000
20.5900 853.0000 1.0000
20.6000 878.0000 1.0000
20.6100 937.0000 1.0000
20.6200 906.0000 1.0000
20.6300 912.0000 1.0000
20.6400 923.0000 1.0000
20.6500 866.0000 1.0000
20.6600 860.0000 1.0000
20.6700 936.0000 1.0000
20.6800 897.0000 1.0000
20.6900 881.0000 1.0000
20.7000 881.0000 1.0000
20.7100 909.0000 1.0000
20.7200 897.0000 1.0000
20.7300 930.0000 1.0000
20.7400 890.0000 1.0000
20.7500 894.0000 1.0000
20.7600 863.0000 1.0000
20.7700 882.0000 1.0000
20.7800 893.0000 1.0000
20.7900 949.0000 1.0000
20.8000 935.0000 1.0000
20.8100 917.0000 1.0000
20.8200 885.0000 1.0000
20.8300 892.0000 1.0000
20.8400 902.0000 1.0000
20.8500 901.0000 1.0000
20.8600 911.0000 1.0000
20.8700 889.0000 1.0000
20.8800 912.0000 1.0000
20.8900 925.0000 1.0000
20.9000 875.0000 1.0000
20.9100 885.0000 1.0000
20.9200 882.0000 1.0000
20.9300 841.0000 1.0000
20.9400 864.0000 1.0000
20.9500 867.0000 1.0000
20.9600 850.0000 1.0000
20.9700 868.0000 1.0000
20.9800 921.0000 1.0000
20.9900 879.0000 1.0000
21.0000 933.0000 1.0000
21.0100 870.0000 1.0000
21.0200 846.0000 1.0000
21.0300 889.0000 1.0000
21.0400 915.0000 1.0000
21.0500 887.0000 1.0000
21.0600 896.0000 1.0000
21.0700 896.0000 1.0000
21.0800 922.0000 1.0000
21.0900 879.0000 1.0000
21.1000 879.0000 1.0000
21.1100 883.0000 1.0000
21.1200 864.0000 1.0000
21.1300 879.0000 1.0000
21.1400 876.0000 1.0000
21.1500 895.0000 1.0000
21.1600 909.0000 1.0000
21.1700 918.0000 1.0000
21.1800 889.0000 1.0000
21.1900 912.0000 1.0000
21.2000 928.0000 1.0000
21.2100 886.0000 1.0000
21.2200 864.0000 1.0000
21.2300 887.0000 1.0000
21.2400 925.0000 1.0000
21.2500 863.0000 1.0000
21.2600 886.0000 1.0000
21.2700 890.0000 1.0000
21.2800 918.0000 1.0000
21.2900 877.0000 1.0000
21.3000 912.0000 1.0000
21.3100 932.0000 1.0000
21.3200 898.0000 1.0000
21.3300 879.0000 1.0000
21.3400 874.0000 1.0000
21.3500 852.0000 1.0000
21.3600 844.0000 1.0000
21.3700 887.0000 1.0000
21.3800 873.0000 1.0000
21.3900 897.0000 1.0000
21.4000 883.0000 1.0000
21.4100 867.0000 1.0000
21.4200 882.0000 1.0000
21.4300 908.0000 1.0000
21.4400 914.0000 1.0000
21.4500 926.0000 1.0000
21.4600 873.0000 1.0000
21.4700 865.0000 1.0000
21.4800 854.0000 1.0000
21.4900 916.0000 1.0000
21.5000 876.0000 1.0000
21.5100 895.0000 1.0000
21.5200 875.0000 1.0000
21.5300 877.0000 1.0000
21.5400 915.0000 1.0000
21.5500 860.0000 1.0000
21.5600 850.0000 1.0000
21.5700 880.0000 1.0000
21.5800 859.0000 1.0000
21.5900 875.0000 1.0000
21.6000 918.0000 1.0000
21.6100 884.0000 1.0000
21.6200 832.0000 1.0000
21.6300 921.0000 1.0000
21.6400 959.0000 1.0000
21.6500 869.0000 1.0000
21.6600 905.0000 1.0000
21.6700 891.0000 1.0000
21.6800 928.0000 1.0000
21.6900 873.0000 1.0000
21.7000 849.0000 1.0000
21.7100 878.0000 1.0000
21.7200 866.0000 1.0000
21.7300 908.0000 1.0000
21.7400 879.0000 1.0000
21.7500 863.0000 1.0000
21.7600 893.0000 1.0000
21.7700 888.0000 1.0000
21.7800 871.0000 1.0000
21.7900 904.0000 1.0000
21.8000 860.0000 1.0000
21.8100 886.0000 1.0000
21.8200 878.0000 1.0000
21.8300 842.0000 1.0000
21.8400 882.0000 1.0000
21.8500 872.0000 1.0000
21.8600 871.0000 1.0000
21.8700 851.0000 1.0000
21.8800 874.0000 1.0000
21.8900 846.0000 1.0000
21.9000 859.0000 1.0000
21.9100 892.0000 1.0000
21.9200 856.0000 1.0000
21.9300 882.0000 1.0000
21.9400 915.0000 1.0000
21.9500 893.0000 1.0000
21.9600 901.0000 1.0000
21.9700 942.0000 1.0000
21.9800 858.0000 1.0000
21.9900 893.0000 1.0000
22.0000 888.0000 1.0000
22.0100 859.0000 1.0000
22.0200 848.0000 1.0000
22.0300 879.0000 1.0000
22.0400 882.0000 1.0000
22.0500 894.0000 1.0000
22.0600 887.0000 1.0000
22.0700 895.0000 1.0000
22.0800 866.0000 1.0000
22.0900 882.0000 1.0000
22.1000 877.0000 1.0000
22.1100 860.0000 1.0000
22.1200 849.0000 1.0000
22.1300 891.0000 1.0000
22.1400 847.0000 1.0000
22.1500 913.0000 1.0000
22.1600 887.0000 1.0000
22.1700 922.0000 1.0000
22.1800 891.0000 1.0000
22.1900 860.0000 1.0000
22.2000 889.0000 1.0000
22.2100 874.0000 1.0000
22.2200 821.0000 1.0000
22.2300 867.0000 1.0000
22.2400 876.0000 1.0000
22.2500 886.0000 1.0000
22.2600 918.0000 1.0000
22.2700 908.0000 1.0000
22.2800 838.0000 1.0000
22.2900 875.0000 1.0000
22.3000 874.0000 1.0000
22.3100 837.0000 1.0000
22.3200 887.0000 1.0000
22.3300 857.0000 1.0000
22.3400 871.0000 1.0000
22.3500 877.0000 1.0000
22.3600 836.0000 1.0000
22.3700 891.0000 1.0000
22.3800 888.0000 1.0000
22.3900 876.0000 1.0000
22.4000 879.0000 1.0000
22.4100 855.0000 1.0000
22.4200 882.0000 1.0000
22.4300 881.0000 1.0000
22.4400 899.0000 1.0000
22.4500 890.0000 1.0000
22.4600 912.0000 1.0000
22.4700 878.0000 1.0000
22.4800 877.0000 1.0000
22.4900 910.0000 1.0000
22.5000 888.0000 1.0000
22.5100 864.0000 1.0000
22.5200 822.0000 1.0000
22.5300 848.0000 1.0000
22.5400 841.0000 1.0000
22.5500 870.0000 1.0000
22.5600 879.0000 1.0000
22.5700 869.0000 1.0000
22.5800 829.0000 1.0000
22.5900 909.0000 1.0000
22.6000 875.0000 1.0000
22.6100 927.0000 1.0000
22.6200 960.0000 1.0000
22.6300 897.0000 1.0000
22.6400 838.0000 1.0000
22.6500 822.0000 1.0000
22.6600 829.0000 1.0000
22.6700 840.0000 1.0000
22.6800 854.0000 1.0000
22.6900 879.0000 1.0000
22.7000 870.0000 1.0000
22.7100 840.0000 1.0000
22.7200 864.0000 1.0000
22.7300 848.0000 1.0000
22.7400 874.0000 1.0000
22.7500 870.0000 1.0000
22.7600 877.0000 1.0000
22.7700 906.0000 1.0000
22.7800 855.0000 1.0000
22.7900 879.0000 1.0000
22.8000 877.0000 1.0000
22.8100 858.0000 1.0000
22.8200 862.0000 1.0000
22.8300 871.0000 1.0000
22.8400 832.0000 1.0000
22.8500 869.0000 1.0000
22.8600 826.0000 1.0000
22.8700 818.0000 1.0000
22.8800 862.0000 1.0000
22.8900 812.0000 1.0000
22.9000 856.0000 1.0000
22.9100 900.0000 1.0000
22.9200 846.0000 1.0000
22.9300 868.0000 1.0000
22.9400 883.0000 1.0000
22.9500 888.0000 1.0000
22.9600 846.0000 1.0000
22.9700 885.0000 1.0000
22.9800 842.0000 1.0000
22.9900 854.0000 1.0000
23.0000 893.0000 1.0000
23.0100 854.0000 1.0000
23.0200 839.0000 1.0000
23.0300 841.0000 1.0000
23.0400 880.0000 1.0000
23.0500 911.0000 1.0000
23.0600 887.0000 1.0000
23.0700 849.0000 1.0000
23.0800 867.0000 1.0000
23.0900 881.0000 1.0000
23.1000 874.0000 1.0000
23.1100 883.0000 1.0000
23.1200 892.0000 1.0000
23.1300 834.0000 1.0000
23.1400 882.0000 1.0000
23.1500 881.0000 1.0000
23.1600 834.0000 1.0000
23.1700 826.0000 1.0000
23.1800 884.0000 1.0000
23.1900 895.0000 1.0000
23.2000 853.0000 1.0000
23.2100 881.0000 1.0000
23.2200 842.0000 1.0000
23.2300 866.0000 1.0000
23.2400 865.0000 1.0000
23.2500 794.0000 1.0000
23.2600 813.0000 1.0000
23.2700 819.0000 1.0000
23.2800 888.0000 1.0000
23.2900 864.0000 1.0000
23.3000 854.0000 1.0000
23.3100 886.0000 1.0000
23.3200 857.0000 1.0000
23.3300 879.0000 1.0000
23.3400 874.0000 1.0000
23.3500 870.0000 1.0000
23.3600 868.0000 1.0000
23.3700 828.0000 1.0000
23.3800 827.0000 1.0000
23.3900 832.0000 1.0000
23.4000 828.0000 1.0000
23.4100 807.0000 1.0000
23.4200 849.0000 1.0000
23.4300 882.0000 1.0000
23.4400 886.0000 1.0000
23.4500 870.0000 1.0000
23.4600 893.0000 1.0000
23.4700 858.0000 1.0000
23.4800 877.0000 1.0000
23.4900 823.0000 1.0000
23.5000 857.0000 1.0000
23.5100 811.0000 1.0000
23.5200 815.0000 1.0000
23.5300 888.0000 1.0000
23.5400 832.0000 1.0000
23.5500 836.0000 1.0000
23.5600 875.0000 1.0000
23.5700 835.0000 1.0000
23.5800 918.0000 1.0000
23.5900 885.0000 1.0000
23.6000 847.0000 1.0000
23.6100 881.0000 1.0000
23.6200 828.0000 1.0000
23.6300 843.0000 1.0000
23.6400 872.0000 1.0000
23.6500 887.0000 1.0000
23.6600 850.0000 1.0000
23.6700 828.0000 1.0000
23.6800 906.0000 1.0000
23.6900 855.0000 1.0000
23.7000 807.0000 1.0000
23.7100 857.0000 1.0000
23.7200 836.0000 1.0000
23.7300 812.0000 1.0000
23.7400 864.0000 1.0000
23.7500 872.0000 1.0000
23.7600 814.0000 1.0000
23.7700 847.0000 1.0000
23.7800 854.0000 1.0000
23.7900 843.0000 1.0000
23.8000 834.0000 1.0000
23.8100 818.0000 1.0000
23.8200 865.0000 1.0000
23.8300 866.0000 1.0000
23.8400 856.0000 1.0000
23.8500 867.0000 1.0000
23.8600 895.0000 1.0000
23.8700 882.0000 1.0000
23.8800 833.0000 1.0000
23.8900 868.0000 1.0000
23.9000 866.0000 1.0000
23.9100 848.0000 1.0000
23.9200 910.0000 1.0000
23.9300 891.0000 1.0000
23.9400 888.0000 1.0000
23.9500 915.0000 1.0000
23.9600 940.0000 1.0000
23.9700 883.0000 1.0000
23.9800 936.0000 1.0000
23.9900 948.0000 1.0000
24.0000 958.0000 1.0000
24.0100 958.0000 1.0000
24.0200 962.0000 1.0000
24.0300 969.0000 1.0000
24.0400 1025.0000 1.0000
24.0500 961.0000 1.0000
24.0600 945.0000 1.0000
24.0700 1023.0000 1.0000
24.0800 994.0000 1.0000
24.0900 975.0000 1.0000
24.1000 1014.0000 1.0000
24.1100 1041.0000 1.0000
24.1200 1062.0000 1.0000
24.1300 963.0000 1.0000
24.1400 997.0000 1.0000
24.1500 994.0000 1.0000
24.1600 952.0000 1.0000
24.1700 968.0000 1.0000
24.1800 971.0000 1.0000
24.1900 976.0000 1.0000
24.2000 962.0000 1.0000
24.2100 896.0000 1.0000
24.2200 895.0000 1.0000
24.2300 920.0000 1.0000
24.2400 938.0000 1.0000
24.2500 924.0000 1.0000
24.2600 883.0000 1.0000
24.2700 888.0000 1.0000
24.2800 873.0000 1.0000
24.2900 879.0000 1.0000
24.3000 821.0000 1.0000
24.3100 861.0000 1.0000
24.3200 863.0000 1.0000
24.3300 854.0000 1.0000
24.3400 859.0000 1.0000
24.3500 874.0000 1.0000
24.3600 871.0000 1.0000
24.3700 863.0000 1.0000
24.3800 850.0000 1.0000
24.3900 870.0000 1.0000
24.4000 844.0000 1.0000
24.4100 846.0000 1.0000
24.4200 871.0000 1.0000
24.4300 866.0000 1.0000
24.4400 820.0000 1.0000
24.4500 872.0000 1.0000
24.4600 860.0000 1.0000
24.4700 911.0000 1.0000
24.4800 891.0000 1.0000
24.4900 830.0000 1.0000
24.5000 835.0000 1.0000
24.5100 852.0000 1.0000
24.5200 824.0000 1.0000
24.5300 821.0000 1.0000
24.5400 871.0000 1.0000
24.5500 871.0000 1.0000
24.5600 810.0000 1.0000
24.5700 871.0000 1.0000
24.5800 845.0000 1.0000
24.5900 841.0000 1.0000
24.6000 808.0000 1.0000
24.6100 828.0000 1.0000
24.6200 875.0000 1.0000
24.6300 837.0000 1.0000
24.6400 855.0000 1.0000
24.6500 821.0000 1.0000
24.6600 762.0000 1.0000
24.6700 786.0000 1.0000
24.6800 800.0000 1.0000
24.6900 846.0000 1.0000
24.7000 845.0000 1.0000
24.7100 854.0000 1.0000
24.7200 806.0000 1.0000
24.7300 788.0000 1.0000
24.7400 837.0000 1.0000
24.7500 816.0000 1.0000
24.7600 841.0000 1.0000
24.7700 826.0000 1.0000
24.7800 857.0000 1.0000
24.7900 832.0000 1.0000
24.8000 865.0000 1.0000
24.8100 806.0000 1.0000
24.8200 848.0000 1.0000
24.8300 865.0000 1.0000
24.8400 839.0000 1.0000
24.8500 839.0000 1.0000
24.8600 809.0000 1.0000
24.8700 863.0000 1.0000
24.8800 840.0000 1.0000
24.8900 809.0000 1.0000
24.9000 871.0000 1.0000
24.9100 825.0000 1.0000
24.9200 820.0000 1.0000
24.9300 777.0000 1.0000
24.9400 824.0000 1.0000
24.9500 835.0000 1.0000
24.9600 840.0000 1.0000
24.9700 820.0000 1.0000
24.9800 845.0000 1.0000
24.9900 803.0000 1.0000
25.0000 856.0000 1.0000
25.0100 826.0000 1.0000
25.0200 834.0000 1.0000
25.0300 857.0000 1.0000
25.0400 831.0000 1.0000
25.0500 806.0000 1.0000
25.0600 786.0000 1.0000
25.0700 827.0000 1.0000
25.0800 827.0000 1.0000
25.0900 819.0000 1.0000
25.1000 850.0000 1.0000
25.1100 784.0000 1.0000
25.1200 832.0000 1.0000
25.1300 839.0000 1.0000
25.1400 849.0000 1.0000
25.1500 817.0000 1.0000
25.1600 823.0000 1.0000
25.1700 845.0000 1.0000
25.1800 865.0000 1.0000
25.1900 869.0000 1.0000
25.2000 809.0000 1.0000
25.2100 829.0000 1.0000
25.2200 822.0000 1.0000
25.2300 834.0000 1.0000
25.2400 823.0000 1.0000
25.2500 809.0000 1.0000
25.2600 787.0000 1.0000
25.2700 827.0000 1.0000
25.2800 818.0000 1.0000
25.2900 826.0000 1.0000
25.3000 872.0000 1.0000
25.3100 791.0000 1.0000
25.3200 805.0000 1.0000
25.3300 779.0000 1.0000
25.3400 822.0000 1.0000
25.3500 850.0000 1.0000
25.3600 866.0000 1.0000
25.3700 843.0000 1.0000
25.3800 865.0000 1.0000
25.3900 824.0000 1.0000
25.4000 838.0000 1.0000
25.4100 823.0000 1.0000
25.4200 834.0000 1.0000
25.4300 856.0000 1.0000
25.4400 836.0000 1.0000
25.4500 817.0000 1.0000
25.4600 815.0000 1.0000
25.4700 838.0000 1.0000
25.4800 881.0000 1.0000
25.4900 825.0000 1.0000
25.5000 836.0000 1.0000
25.5100 775.0000 1.0000
25.5200 821.0000 1.0000
25.5300 769.0000 1.0000
25.5400 772.0000 1.0000
25.5500 819.0000 1.0000
25.5600 839.0000 1.0000
25.5700 794.0000 1.0000
25.5800 842.0000 1.0000
25.5900 811.0000 1.0000
25.6000 831.0000 1.0000
25.6100 821.0000 1.0000
25.6200 860.0000 1.0000
25.6300 807.0000 1.0000
25.6400 767.0000 1.0000
25.6500 827.0000 1.0000
25.6600 846.0000 1.0000
25.6700 834.0000 1.0000
25.6800 860.0000 1.0000
25.6900 796.0000 1.0000
25.7000 832.0000 1.0000
25.7100 827.0000 1.0000
25.7200 794.0000 1.0000
25.7300 824.0000 1.0000
25.7400 869.0000 1.0000
25.7500 839.0000 1.0000
25.7600 859.0000 1.0000
25.7700 842.0000 1.0000
25.7800 842.0000 1.0000
25.7900 827.0000 1.0000
25.8000 871.0000 1.0000
25.8100 849.0000 1.0000
25.8200 837.0000 1.0000
25.8300 883.0000 1.0000
25.8400 841.0000 1.0000
25.8500 876.0000 1.0000
25.8600 875.0000 1.0000
25.8700 848.0000 1.0000
25.8800 797.0000 1.0000
25.8900 831.0000 1.0000
25.9000 838.0000 1.0000
25.9100 827.0000 1.0000
25.9200 870.0000 1.0000
25.9300 814.0000 1.0000
25.9400 856.0000 1.0000
25.9500 815.0000 1.0000
25.9600 848.0000 1.0000
25.9700 842.0000 1.0000
25.9800 854.0000 1.0000
25.9900 856.0000 1.0000
26.0000 890.0000 1.0000
26.0100 881.0000 1.0000
26.0200 897.0000 1.0000
26.0300 829.0000 1.0000
26.0400 855.0000 1.0000
26.0500 883.0000 1.0000
26.0600 922.0000 1.0000
26.0700 917.0000 1.0000
26.0800 890.0000 1.0000
26.0900 896.0000 1.0000
26.1000 950.0000 1.0000
26.1100 864.0000 1.0000
26.1200 875.0000 1.0000
26.1300 952.0000 1.0000
26.1400 940.0000 1.0000
26.1500 928.0000 1.0000
26.1600 977.0000 1.0000
26.1700 941.0000 1.0000
26.1800 1002.0000 1.0000
26.1900 1024.0000 1.0000
26.2000 977.0000 1.0000
26.2100 1017.0000 1.0000
26.2200 1049.0000 1.0000
26.2300 989.0000 1.0000
26.2400 1019.0000 1.0000
26.2500 1118.0000 1.0000
26.2600 1103.0000 1.0000
26.2700 1090.0000 1.0000
26.2800 1135.0000 1.0000
26.2900 1118.0000 1.0000
26.3000 1147.0000 1.0000
26.3100 1145.0000 1.0000
26.3200 1204.0000 1.0000
26.3300 1247.0000 1.0000
26.3400 1315.0000 1.0000
26.3500 1309.0000 1.0000
26.3600 1340.0000 1.0000
26.3700 1387.0000 1.0000
26.3800 1372.0000 1.0000
26.3900 1404.0000 1.0000
26.4000 1404.0000 1.0000
26.4100 1485.0000 1.0000
26.4200 1476.0000 1.0000
26.4300 1497.0000 1.0000
26.4400 1510.0000 1.0000
26.4500 1504.0000 1.0000
26.4600 1460.0000 1.0000
26.4700 1520.0000 1.0000
26.4800 1494.0000 1.0000
26.4900 1538.0000 1.0000
26.5000 1472.0000 1.0000
26.5100 1477.0000 1.0000
26.5200 1440.0000 1.0000
26.5300 1347.0000 1.0000
26.5400 1355.0000 1.0000
26.5500 1325.0000 1.0000
26.5600 1240.0000 1.0000
26.5700 1272.0000 1.0000
26.5800 1216.0000 1.0000
26.5900 1254.0000 1.0000
26.6000 1230.0000 1.0000
26.6100 1157.0000 1.0000
26.6200 1123.0000 1.0000
26.6300 1094.0000 1.0000
26.6400 1139.0000 1.0000
26.6500 1056.0000 1.0000
26.6600 1047.0000 1.0000
26.6700 1051.0000 1.0000
26.6800 1029.0000 1.0000
26.6900 1025.0000 1.0000
26.7000 1017.0000 1.0000
26.7100 990.0000 1.0000
26.7200 952.0000 1.0000
26.7300 940.0000 1.0000
26.7400 941.0000 1.0000
26.7500 930.0000 1.0000
26.7600 954.0000 1.0000
26.7700 981.0000 1.0000
26.7800 947.0000 1.0000
26.7900 930.0000 1.0000
26.8000 894.0000 1.0000
26.8100 890.0000 1.0000
26.8200 891.0000 1.0000
26.8300 924.0000 1.0000
26.8400 914.0000 1.0000
26.8500 853.0000 1.0000
26.8600 825.0000 1.0000
26.8700 813.0000 1.0000
26.8800 857.0000 1.0000
26.8900 851.0000 1.0000
26.9000 868.0000 1.0000
26.9100 828.0000 1.0000
26.9200 855.0000 1.0000
26.9300 843.0000 1.0000
26.9400 834.0000 1.0000
26.9500 861.0000 1.0000
26.9600 808.0000 1.0000
26.9700 843.0000 1.0000
26.9800 832.0000 1.0000
26.9900 877.0000 1.0000
27.0000 845.0000 1.0000
27.0100 833.0000 1.0000
27.0200 796.0000 1.0000
27.0300 773.0000 1.0000
27.0400 822.0000 1.0000
27.0500 809.0000 1.0000
27.0600 796.0000 1.0000
27.0700 820.0000 1.0000
27.0800 794.0000 1.0000
27.0900 814.0000 1.0000
27.1000 825.0000 1.0000
27.1100 811.0000 1.0000
27.1200 827.0000 1.0000
27.1300 783.0000 1.0000
27.1400 871.0000 1.0000
27.1500 822.0000 1.0000
27.1600 803.0000 1.0000
27.1700 770.0000 1.0000
27.1800 726.0000 1.0000
27.1900 766.0000 1.0000
27.2000 764.0000 1.0000
27.2100 807.0000 1.0000
27.2200 755.0000 1.0000
27.2300 759.0000 1.0000
27.2400 778.0000 1.0000
27.2500 810.0000 1.0000
27.2600 771.0000 1.0000
27.2700 809.0000 1.0000
27.2800 740.0000 1.0000
27.2900 737.0000 1.0000
27.3000 739.0000 1.0000
27.3100 806.0000 1.0000
27.3200 748.0000 1.0000
27.3300 729.0000 1.0000
27.3400 760.0000 1.0000
27.3500 728.0000 1.0000
27.3600 761.0000 1.0000
27.3700 737.0000 1.0000
27.3800 782.0000 1.0000
27.3900 744.0000 1.0000
27.4000 758.0000 1.0000
27.4100 732.0000 1.0000
27.4200 786.0000 1.0000
27.4300 766.0000 1.0000
27.4400 715.0000 1.0000
27.4500 724.0000 1.0000
27.4600 749.0000 1.0000
27.4700 770.0000 1.0000
27.4800 761.0000 1.0000
27.4900 784.0000 1.0000
27.5000 777.0000 1.0000
27.5100 820.0000 1.0000
27.5200 742.0000 1.0000
27.5300 776.0000 1.0000
27.5400 789.0000 1.0000
27.5500 706.0000 1.0000
27.5600 728.0000 1.0000
27.5700 752.0000 1.0000
27.5800 781.0000 1.0000
27.5900 727.0000 1.0000
27.6000 728.0000 1.0000
27.6100 788.0000 1.0000
27.6200 790.0000 1.0000
27.6300 713.0000 1.0000
27.6400 754.0000 1.0000
27.6500 734.0000 1.0000
27.6600 734.0000 1.0000
27.6700 740.0000 1.0000
27.6800 754.0000 1.0000
27.6900 744.0000 1.0000
27.7000 798.0000 1.0000
27.7100 794.0000 1.0000
27.7200 782.0000 1.0000
27.7300 727.0000 1.0000
27.7400 747.0000 1.0000
27.7500 741.0000 1.0000
27.7600 771.0000 1.0000
27.7700 770.0000 1.0000
27.7800 731.0000 1.0000
27.7900 798.0000 1.0000
27.8000 759.0000 1.0000
27.8100 792.0000 1.0000
27.8200 792.0000 1.0000
27.8300 755.0000 1.0000
27.8400 753.0000 1.0000
27.8500 764.0000 1.0000
27.8600 778.0000 1.0000
27.8700 746.0000 1.0000
27.8800 759.0000 1.0000
27.8900 737.0000 1.0000
27.9000 707.0000 1.0000
27.9100 725.0000 1.0000
27.9200 721.0000 1.0000
27.9300 708.0000 1.0000
27.9400 743.0000 1.0000
27.9500 762.0000 1.0000
27.9600 684.0000 1.0000
27.9700 742.0000 1.0000
27.9800 758.0000 1.0000
27.9900 803.0000 1.0000
28.0000 783.0000 1.0000
28.0100 735.0000 1.0000
28.0200 713.0000 1.0000
28.0300 696.0000 1.0000
28.0400 732.0000 1.0000
28.0500 729.0000 1.0000
28.0600 757.0000 1.0000
28.0700 763.0000 1.0000
28.0800 716.0000 1.0000
28.0900 738.0000 1.0000
28.1000 693.0000 1.0000
28.1100 746.0000 1.0000
28.1200 741.0000 1.0000
28.1300 744.0000 1.0000
28.1400 719.0000 1.0000
28.1500 716.0000 1.0000
28.1600 776.0000 1.0000
28.1700 758.0000 1.0000
28.1800 720.0000 1.0000
28.1900 704.0000 1.0000
28.2000 742.0000 1.0000
28.2100 754.0000 1.0000
28.2200 712.0000 1.0000
28.2300 729.0000 1.0000
28.2400 720.0000 1.0000
28.2500 752.0000 1.0000
28.2600 718.0000 1.0000
28.2700 762.0000 1.0000
28.2800 733.0000 1.0000
28.2900 759.0000 1.0000
28.3000 708.0000 1.0000
28.3100 684.0000 1.0000
28.3200 742.0000 1.0000
28.3300 744.0000 1.0000
28.3400 711.0000 1.0000
28.3500 724.0000 1.0000
28.3600 734.0000 1.0000
28.3700 753.0000 1.0000
28.3800 715.0000 1.0000
28.3900 714.0000 1.0000
28.4000 719.0000 1.0000
28.4100 715.0000 1.0000
28.4200 736.0000 1.0000
28.4300 719.0000 1.0000
28.4400 680.0000 1.0000
28.4500 727.0000 1.0000
28.4600 698.0000 1.0000
28.4700 756.0000 1.0000
28.4800 766.0000 1.0000
28.4900 777.0000 1.0000
28.5000 736.0000 1.0000
28.5100 705.0000 1.0000
28.5200 706.0000 1.0000
28.5300 733.0000 1.0000
28.5400 732.0000 1.0000
28.5500 687.0000 1.0000
28.5600 734.0000 1.0000
28.5700 746.0000 1.0000
28.5800 701.0000 1.0000
28.5900 768.0000 1.0000
28.6000 680.0000 1.0000
28.6100 719.0000 1.0000
28.6200 692.0000 1.0000
28.6300 697.0000 1.0000
28.6400 762.0000 1.0000
28.6500 735.0000 1.0000
28.6600 731.0000 1.0000
28.6700 724.0000 1.0000
28.6800 707.0000 1.0000
28.6900 720.0000 1.0000
28.7000 732.0000 1.0000
28.7100 701.0000 1.0000
28.7200 731.0000 1.0000
28.7300 684.0000 1.0000
28.7400 725.0000 1.0000
28.7500 692.0000 1.0000
28.7600 694.0000 1.0000
28.7700 709.0000 1.0000
28.7800 721.0000 1.0000
28.7900 742.0000 1.0000
28.8000 706.0000 1.0000
28.8100 721.0000 1.0000
28.8200 707.0000 1.0000
28.8300 681.0000 1.0000
28.8400 727.0000 1.0000
28.8500 686.0000 1.0000
28.8600 743.0000 1.0000
28.8700 685.0000 1.0000
28.8800 809.0000 1.0000
28.8900 753.0000 1.0000
28.9000 706.0000 1.0000
28.9100 727.0000 1.0000
28.9200 708.0000 1.0000
28.9300 727.0000 1.0000
28.9400 722.0000 1.0000
28.9500 698.0000 1.0000
28.9600 751.0000 1.0000
28.9700 695.0000 1.0000
28.9800 704.0000 1.0000
28.9900 741.0000 1.0000
29.0000 687.0000 1.0000
29.0100 711.0000 1.0000
29.0200 663.0000 1.0000
29.0300 694.0000 1.0000
29.0400 746.0000 1.0000
29.0500 664.0000 1.0000
29.0600 689.0000 1.0000
29.0700 740.0000 1.0000
29.0800 740.0000 1.0000
29.0900 704.0000 1.0000
29.1000 699.0000 1.0000
29.1100 724.0000 1.0000
29.1200 715.0000 1.0000
29.1300 736.0000 1.0000
29.1400 689.0000 1.0000
29.1500 718.0000 1.0000
29.1600 701.0000 1.0000
29.1700 708.0000 1.0000
29.1800 707.0000 1.0000
29.1900 711.0000 1.0000
29.2000 690.0000 1.0000
29.2100 686.0000 1.0000
29.2200 701.0000 1.0000
29.2300 700.0000 1.0000
29.2400 734.0000 1.0000
29.2500 694.0000 1.0000
29.2600 713.0000 1.0000
29.2700 644.0000 1.0000
29.2800 725.0000 1.0000
29.2900 685.0000 1.0000
29.3000 726.0000 1.0000
29.3100 741.0000 1.0000
29.3200 670.0000 1.0000
29.3300 663.0000 1.0000
29.3400 657.0000 1.0000
29.3500 727.0000 1.0000
29.3600 721.0000 1.0000
29.3700 705.0000 1.0000
29.3800 699.0000 1.0000
29.3900 711.0000 1.0000
29.4000 720.0000 1.0000
29.4100 693.0000 1.0000
29.4200 648.0000 1.0000
29.4300 652.0000 1.0000
29.4400 708.0000 1.0000
29.4500 682.0000 1.0000
29.4600 747.0000 1.0000
29.4700 719.0000 1.0000
29.4800 684.0000 1.0000
29.4900 696.0000 1.0000
29.5000 724.0000 1.0000
29.5100 670.0000 1.0000
29.5200 711.0000 1.0000
29.5300 672.0000 1.0000
29.5400 682.0000 1.0000
29.5500 661.0000 1.0000
29.5600 682.0000 1.0000
29.5700 656.0000 1.0000
29.5800 652.0000 1.0000
29.5900 688.0000 1.0000
29.6000 701.0000 1.0000
29.6100 681.0000 1.0000
29.6200 678.0000 1.0000
29.6300 716.0000 1.0000
29.6400 656.0000 1.0000
29.6500 723.0000 1.0000
29.6600 693.0000 1.0000
29.6700 684.0000 1.0000
29.6800 675.0000 1.0000
29.6900 698.0000 1.0000
29.7000 660.0000 1.0000
29.7100 687.0000 1.0000
29.7200 695.0000 1.0000
29.7300 681.0000 1.0000
29.7400 629.0000 1.0000
29.7500 662.0000 1.0000
29.7600 661.0000 1.0000
29.7700 712.0000 1.0000
29.7800 680.0000 1.0000
29.7900 714.0000 1.0000
29.8000 694.0000 1.0000
29.8100 648.0000 1.0000
29.8200 637.0000 1.0000
29.8300 696.0000 1.0000
29.8400 672.0000 1.0000
29.8500 709.0000 1.0000
29.8600 641.0000 1.0000
29.8700 636.0000 1.0000
29.8800 690.0000 1.0000
29.8900 723.0000 1.0000
29.9000 684.0000 1.0000
29.9100 651.0000 1.0000
29.9200 709.0000 1.0000
29.9300 734.0000 1.0000
29.9400 674.0000 1.0000
29.9500 665.0000 1.0000
29.9600 645.0000 1.0000
29.9700 715.0000 1.0000
29.9800 729.0000 1.0000
29.9900 649.0000 1.0000
30.0000 654.0000 1.0000
30.0100 681.0000 1.0000
30.0200 647.0000 1.0000
30.0300 681.0000 1.0000
30.0400 700.0000 1.0000
30.0500 662.0000 1.0000
30.0600 678.0000 1.0000
30.0700 659.0000 1.0000
30.0800 705.0000 1.0000
30.0900 679.0000 1.0000
30.1000 671.0000 1.0000
30.1100 670.0000 1.0000
30.1200 655.0000 1.0000
30.1300 663.0000 1.0000
30.1400 643.0000 1.0000
30.1500 689.0000 1.0000
30.1600 665.0000 1.0000
30.1700 633.0000 1.0000
30.1800 649.0000 1.0000
30.1900 674.0000 1.0000
30.2000 650.0000 1.0000
30.2100 686.0000 1.0000
30.2200 644.0000 1.0000
30.2300 635.0000 1.0000
30.2400 691.0000 1.0000
30.2500 654.0000 1.0000
30.2600 620.0000 1.0000
30.2700 659.0000 1.0000
30.2800 765.0000 1.0000
30.2900 655.0000 1.0000
30.3000 662.0000 1.0000
30.3100 687.0000 1.0000
30.3200 663.0000 1.0000
30.3300 647.0000 1.0000
30.3400 657.0000 1.0000
30.3500 665.0000 1.0000
30.3600 680.0000 1.0000
30.3700 638.0000 1.0000
30.3800 688.0000 1.0000
30.3900 657.0000 1.0000
30.4000 648.0000 1.0000
30.4100 642.0000 1.0000
30.4200 676.0000 1.0000
30.4300 645.0000 1.0000
30.4400 641.0000 1.0000
30.4500 644.0000 1.0000
30.4600 651.0000 1.0000
30.4700 673.0000 1.0000
30.4800 755.0000 1.0000
30.4900 700.0000 1.0000
30.5000 693.0000 1.0000
30.5100 647.0000 1.0000
30.5200 664.0000 1.0000
30.5300 660.0000 1.0000
30.5400 712.0000 1.0000
30.5500 723.0000 1.0000
30.5600 655.0000 1.0000
30.5700 611.0000 1.0000
30.5800 636.0000 1.0000
30.5900 678.0000 1.0000
30.6000 632.0000 1.0000
30.6100 603.0000 1.0000
30.6200 623.0000 1.0000
30.6300 622.0000 1.0000
30.6400 654.0000 1.0000
30.6500 617.0000 1.0000
30.6600 640.0000 1.0000
30.6700 658.0000 1.0000
30.6800 676.0000 1.0000
30.6900 658.0000 1.0000
30.7000 630.0000 1.0000
30.7100 684.0000 1.0000
30.7200 676.0000 1.0000
30.7300 635.0000 1.0000
30.7400 641.0000 1.0000
30.7500 645.0000 1.0000
30.7600 631.0000 1.0000
30.7700 620.0000 1.0000
30.7800 625.0000 1.0000
30.7900 654.0000 1.0000
30.8000 661.0000 1.0000
30.8100 674.0000 1.0000
30.8200 668.0000 1.0000
30.8300 639.0000 1.0000
30.8400 641.0000 1.0000
30.8500 635.0000 1.0000
30.8600 650.0000 1.0000
30.8700 643.0000 1.0000
30.8800 674.0000 1.0000
30.8900 658.0000 1.0000
30.9000 632.0000 1.0000
30.9100 682.0000 1.0000
30.9200 656.0000 1.0000
30.9300 673.0000 1.0000
30.9400 647.0000 1.0000
30.9500 637.0000 1.0000
30.9600 622.0000 1.0000
30.9700 645.0000 1.0000
30.9800 705.0000 1.0000
30.9900 687.0000 1.0000
31.0000 662.0000 1.0000
31.0100 648.0000 1.0000
31.0200 662.0000 1.0000
31.0300 648.0000 1.0000
31.0400 654.0000 1.0000
31.0500 669.0000 1.0000
31.0600 677.0000 1.0000
31.0700 674.0000 1.0000
31.0800 650.0000 1.0000
31.0900 681.0000 1.0000
31.1000 708.0000 1.0000
31.1100 697.0000 1.0000
31.1200 698.0000 1.0000
31.1300 687.0000 1.0000
31.1400 679.0000 1.0000
31.1500 666.0000 1.0000
31.1600 652.0000 1.0000
31.1700 670.0000 1.0000
31.1800 673.0000 1.0000
31.1900 685.0000 1.0000
31.2000 696.0000 1.0000
31.2100 666.0000 1.0000
31.2200 661.0000 1.0000
31.2300 669.0000 1.0000
31.2400 641.0000 1.0000
31.2500 724.0000 1.0000
31.2600 701.0000 1.0000
31.2700 672.0000 1.0000
31.2800 645.0000 1.0000
31.2900 636.0000 1.0000
31.3000 681.0000 1.0000
31.3100 665.0000 1.0000
31.3200 601.0000 1.0000
31.3300 667.0000 1.0000
31.3400 657.0000 1.0000
31.3500 639.0000 1.0000
31.3600 638.0000 1.0000
31.3700 647.0000 1.0000
31.3800 638.0000 1.0000
31.3900 637.0000 1.0000
31.4000 629.0000 1.0000
31.4100 619.0000 1.0000
31.4200 621.0000 1.0000
31.4300 632.0000 1.0000
31.4400 659.0000 1.0000
31.4500 670.0000 1.0000
31.4600 668.0000 1.0000
31.4700 628.0000 1.0000
31.4800 653.0000 1.0000
31.4900 605.0000 1.0000
31.5000 641.0000 1.0000
31.5100 674.0000 1.0000
31.5200 650.0000 1.0000
31.5300 644.0000 1.0000
31.5400 618.0000 1.0000
31.5500 630.0000 1.0000
31.5600 634.0000 1.0000
31.5700 663.0000 1.0000
31.5800 648.0000 1.0000
31.5900 626.0000 1.0000
31.6000 624.0000 1.0000
31.6100 596.0000 1.0000
31.6200 658.0000 1.0000
31.6300 651.0000 1.0000
31.6400 653.0000 1.0000
31.6500 631.0000 1.0000
31.6600 650.0000 1.0000
31.6700 654.0000 1.0000
31.6800 607.0000 1.0000
31.6900 618.0000 1.0000
31.7000 622.0000 1.0000
31.7100 712.0000 1.0000
31.7200 654.0000 1.0000
31.7300 591.0000 1.0000
31.7400 616.0000 1.0000
31.7500 649.0000 1.0000
31.7600 613.0000 1.0000
31.7700 640.0000 1.0000
31.7800 621.0000 1.0000
31.7900 654.0000 1.0000
31.8000 654.0000 1.0000
31.8100 604.0000 1.0000
31.8200 620.0000 1.0000
31.8300 606.0000 1.0000
31.8400 624.0000 1.0000
31.8500 617.0000 1.0000
31.8600 628.0000 1.0000
31.8700 625.0000 1.0000
31.8800 627.0000 1.0000
31.8900 650.0000 1.0000
31.9000 672.0000 1.0000
31.9100 600.0000 1.0000
31.9200 598.0000 1.0000
31.9300 663.0000 1.0000
31.9400 619.0000 1.0000
31.9500 634.0000 1.0000
31.9600 611.0000 1.0000
31.9700 658.0000 1.0000
31.9800 666.0000 1.0000
31.9900 633.0000 1.0000
32.0000 623.0000 1.0000
32.0100 620.0000 1.0000
32.0200 593.0000 1.0000
32.0300 661.0000 1.0000
32.0400 643.0000 1.0000
32.0500 611.0000 1.0000
32.0600 602.0000 1.0000
32.0700 626.0000 1.0000
32.0800 627.0000 1.0000
32.0900 601.0000 1.0000
32.1000 578.0000 1.0000
32.1100 639.0000 1.0000
32.1200 596.0000 1.0000
32.1300 641.0000 1.0000
32.1400 665.0000 1.0000
32.1500 622.0000 1.0000
32.1600 623.0000 1.0000
32.1700 580.0000 1.0000
32.1800 601.0000 1.0000
32.1900 654.0000 1.0000
32.2000 608.0000 1.0000
32.2100 592.0000 1.0000
32.2200 582.0000 1.0000
32.2300 633.0000 1.0000
32.2400 597.0000 1.0000
32.2500 660.0000 1.0000
32.2600 628.0000 1.0000
32.2700 621.0000 1.0000
32.2800 639.0000 1.0000
32.2900 645.0000 1.0000
32.3000 627.0000 1.0000
32.3100 586.0000 1.0000
32.3200 588.0000 1.0000
32.3300 631.0000 1.0000
32.3400 625.0000 1.0000
32.3500 607.0000 1.0000
32.3600 612.0000 1.0000
32.3700 632.0000 1.0000
32.3800 602.0000 1.0000
32.3900 632.0000 1.0000
32.4000 641.0000 1.0000
32.4100 602.0000 1.0000
32.4200 596.0000 1.0000
32.4300 587.0000 1.0000
32.4400 585.0000 1.0000
32.4500 600.0000 1.0000
32.4600 616.0000 1.0000
32.4700 627.0000 1.0000
32.4800 629.0000 1.0000
32.4900 621.0000 1.0000
32.5000 577.0000 1.0000
32.5100 577.0000 1.0000
32.5200 618.0000 1.0000
32.5300 671.0000 1.0000
32.5400 628.0000 1.0000
32.5500 605.0000 1.0000
32.5600 632.0000 1.0000
32.5700 600.0000 1.0000
32.5800 620.0000 1.0000
32.5900 602.0000 1.0000
32.6000 661.0000 1.0000
32.6100 618.0000 1.0000
32.6200 619.0000 1.0000
32.6300 652.0000 1.0000
32.6400 629.0000 1.0000
32.6500 645.0000 1.0000
32.6600 653.0000 1.0000
32.6700 616.0000 1.0000
32.6800 629.0000 1.0000
32.6900 630.0000 1.0000
32.7000 604.0000 1.0000
32.7100 547.0000 1.0000
32.7200 591.0000 1.0000
32.7300 621.0000 1.0000
32.7400 648.0000 1.0000
32.7500 601.0000 1.0000
32.7600 621.0000 1.0000
32.7700 637.0000 1.0000
32.7800 605.0000 1.0000
32.7900 666.0000 1.0000
32.8000 608.0000 1.0000
32.8100 608.0000 1.0000
32.8200 638.0000 1.0000
32.8300 604.0000 1.0000
32.8400 586.0000 1.0000
32.8500 598.0000 1.0000
32.8600 675.0000 1.0000
32.8700 657.0000 1.0000
32.8800 687.0000 1.0000
32.8900 657.0000 1.0000
32.9000 683.0000 1.0000
32.9100 646.0000 1.0000
32.9200 699.0000 1.0000
32.9300 662.0000 1.0000
32.9400 675.0000 1.0000
32.9500 687.0000 1.0000
32.9600 695.0000 1.0000
32.9700 664.0000 1.0000
32.9800 711.0000 1.0000
32.9900 713.0000 1.0000
33.0000 708.0000 1.0000
33.0100 743.0000 1.0000
33.0200 720.0000 1.0000
33.0300 768.0000 1.0000
33.0400 781.0000 1.0000
33.0500 761.0000 1.0000
33.0600 827.0000 1.0000
33.0700 830.0000 1.0000
33.0800 868.0000 1.0000
33.0900 879.0000 1.0000
33.1000 873.0000 1.0000
33.1100 913.0000 1.0000
33.1200 877.0000 1.0000
33.1300 841.0000 1.0000
33.1400 878.0000 1.0000
33.1500 888.0000 1.0000
33.1600 840.0000 1.0000
33.1700 836.0000 1.0000
33.1800 855.0000 1.0000
33.1900 829.0000 1.0000
33.2000 799.0000 1.0000
33.2100 761.0000 1.0000
33.2200 795.0000 1.0000
33.2300 714.0000 1.0000
33.2400 722.0000 1.0000
33.2500 729.0000 1.0000
33.2600 684.0000 1.0000
33.2700 672.0000 1.0000
33.2800 651.0000 1.0000
33.2900 671.0000 1.0000
33.3000 691.0000 1.0000
33.3100 682.0000 1.0000
33.3200 661.0000 1.0000
33.3300 687.0000 1.0000
33.3400 626.0000 1.0000
33.3500 650.0000 1.0000
33.3600 704.0000 1.0000
33.3700 698.0000 1.0000
33.3800 644.0000 1.0000
33.3900 631.0000 1.0000
33.4000 648.0000 1.0000
33.4100 705.0000 1.0000
33.4200 697.0000 1.0000
33.4300 655.0000 1.0000
33.4400 694.0000 1.0000
33.4500 661.0000 1.0000
33.4600 658.0000 1.0000
33.4700 724.0000 1.0000
33.4800 725.0000 1.0000
33.4900 679.0000 1.0000
33.5000 676.0000 1.0000
33.5100 690.0000 1.0000
33.5200 729.0000 1.0000
33.5300 751.0000 1.0000
33.5400 769.0000 1.0000
33.5500 679.0000 1.0000
33.5600 698.0000 1.0000
33.5700 770.0000 1.0000
33.5800 796.0000 1.0000
33.5900 782.0000 1.0000
33.6000 748.0000 1.0000
33.6100 740.0000 1.0000
33.6200 784.0000 1.0000
33.6300 804.0000 1.0000
33.6400 775.0000 1.0000
33.6500 765.0000 1.0000
33.6600 806.0000 1.0000
33.6700 826.0000 1.0000
33.6800 801.0000 1.0000
33.6900 754.0000 1.0000
33.7000 750.0000 1.0000
33.7100 802.0000 1.0000
33.7200 780.0000 1.0000
33.7300 750.0000 1.0000
33.7400 796.0000 1.0000
33.7500 740.0000 1.0000
33.7600 732.0000 1.0000
33.7700 810.0000 1.0000
33.7800 745.0000 1.0000
33.7900 726.0000 1.0000
33.8000 727.0000 1.0000
33.8100 763.0000 1.0000
33.8200 739.0000 1.0000
33.8300 691.0000 1.0000
33.8400 722.0000 1.0000
33.8500 701.0000 1.0000
33.8600 669.0000 1.0000
33.8700 663.0000 1.0000
33.8800 685.0000 1.0000
33.8900 681.0000 1.0000
33.9000 675.0000 1.0000
33.9100 683.0000 1.0000
33.9200 672.0000 1.0000
33.9300 652.0000 1.0000
33.9400 654.0000 1.0000
33.9500 634.0000 1.0000
33.9600 632.0000 1.0000
33.9700 630.0000 1.0000
33.9800 652.0000 1.0000
33.9900 627.0000 1.0000
34.0000 638.0000 1.0000
34.0100 624.0000 1.0000
34.0200 620.0000 1.0000
34.0300 620.0000 1.0000
34.0400 628.0000 1.0000
34.0500 604.0000 1.0000
34.0600 624.0000 1.0000
34.0700 614.0000 1.0000
34.0800 613.0000 1.0000
34.0900 594.0000 1.0000
34.1000 607.0000 1.0000
34.1100 608.0000 1.0000
34.1200 595.0000 1.0000
34.1300 616.0000 1.0000
34.1400 594.0000 1.0000
34.1500 619.0000 1.0000
34.1600 612.0000 1.0000
34.1700 633.0000 1.0000
34.1800 598.0000 1.0000
34.1900 598.0000 1.0000
34.2000 556.0000 1.0000
34.2100 576.0000 1.0000
34.2200 566.0000 1.0000
34.2300 618.0000 1.0000
34.2400 602.0000 1.0000
34.2500 588.0000 1.0000
34.2600 566.0000 1.0000
34.2700 577.0000 1.0000
34.2800 594.0000 1.0000
34.2900 569.0000 1.0000
34.3000 603.0000 1.0000
34.3100 603.0000 1.0000
34.3200 551.0000 1.0000
34.3300 572.0000 1.0000
34.3400 546.0000 1.0000
34.3500 611.0000 1.0000
34.3600 559.0000 1.0000
34.3700 559.0000 1.0000
34.3800 561.0000 1.0000
34.3900 590.0000 1.0000
34.4000 543.0000 1.0000
34.4100 573.0000 1.0000
34.4200 550.0000 1.0000
34.4300 590.0000 1.0000
34.4400 569.0000 1.0000
34.4500 586.0000 1.0000
34.4600 580.0000 1.0000
34.4700 551.0000 1.0000
34.4800 568.0000 1.0000
34.4900 600.0000 1.0000
34.5000 567.0000 1.0000
34.5100 547.0000 1.0000
34.5200 533.0000 1.0000
34.5300 560.0000 1.0000
34.5400 514.0000 1.0000
34.5500 579.0000 1.0000
34.5600 578.0000 1.0000
34.5700 551.0000 1.0000
34.5800 590.0000 1.0000
34.5900 548.0000 1.0000
34.6000 576.0000 1.0000
34.6100 582.0000 1.0000
34.6200 570.0000 1.0000
34.6300 580.0000 1.0000
34.6400 567.0000 1.0000
34.6500 595.0000 1.0000
34.6600 561.0000 1.0000
34.6700 606.0000 1.0000
34.6800 546.0000 1.0000
34.6900 563.0000 1.0000
34.7000 564.0000 1.0000
34.7100 566.0000 1.0000
34.7200 590.0000 1.0000
34.7300 544.0000 1.0000
34.7400 567.0000 1.0000
34.7500 579.0000 1.0000
34.7600 563.0000 1.0000
34.7700 550.0000 1.0000
34.7800 561.0000 1.0000
34.7900 595.0000 1.0000
34.8000 571.0000 1.0000
34.8100 563.0000 1.0000
34.8200 521.0000 1.0000
34.8300 547.0000 1.0000
34.8400 585.0000 1.0000
34.8500 543.0000 1.0000
34.8600 554.0000 1.0000
34.8700 582.0000 1.0000
34.8800 577.0000 1.0000
34.8900 537.0000 1.0000
34.9000 533.0000 1.0000
34.9100 583.0000 1.0000
34.9200 519.0000 1.0000
34.9300 544.0000 1.0000
34.9400 544.0000 1.0000
34.9500 572.0000 1.0000
34.9600 542.0000 1.0000
34.9700 583.0000 1.0000
34.9800 600.0000 1.0000
34.9900 614.0000 1.0000
35.0000 558.0000 1.0000
35.0100 556.0000 1.0000
35.0200 535.0000 1.0000
35.0300 564.0000 1.0000
35.0400 548.0000 1.0000
35.0500 542.0000 1.0000
35.0600 511.0000 1.0000
35.0700 545.0000 1.0000
35.0800 581.0000 1.0000
35.0900 515.0000 1.0000
35.1000 544.0000 1.0000
35.1100 562.0000 1.0000
35.1200 541.0000 1.0000
35.1300 546.0000 1.0000
35.1400 520.0000 1.0000
35.1500 557.0000 1.0000
35.1600 570.0000 1.0000
35.1700 561.0000 1.0000
35.1800 499.0000 1.0000
35.1900 547.0000 1.0000
35.2000 530.0000 1.0000
35.2100 520.0000 1.0000
35.2200 564.0000 1.0000
35.2300 572.0000 1.0000
35.2400 589.0000 1.0000
35.2500 582.0000 1.0000
35.2600 592.0000 1.0000
35.2700 606.0000 1.0000
35.2800 593.0000 1.0000
35.2900 609.0000 1.0000
35.3000 598.0000 1.0000
35.3100 629.0000 1.0000
35.3200 627.0000 1.0000
35.3300 599.0000 1.0000
35.3400 639.0000 1.0000
35.3500 638.0000 1.0000
35.3600 658.0000 1.0000
35.3700 639.0000 1.0000
35.3800 689.0000 1.0000
35.3900 717.0000 1.0000
35.4000 733.0000 1.0000
35.4100 706.0000 1.0000
35.4200 731.0000 1.0000
35.4300 752.0000 1.0000
35.4400 761.0000 1.0000
35.4500 867.0000 1.0000
35.4600 832.0000 1.0000
35.4700 908.0000 1.0000
35.4800 909.0000 1.0000
35.4900 956.0000 1.0000
35.5000 1024.0000 1.0000
35.5100 1120.0000 1.0000
35.5200 1133.0000 1.0000
35.5300 1133.0000 1.0000
35.5400 1226.0000 1.0000
35.5500 1298.0000 1.0000
35.5600 1329.0000 1.0000
35.5700 1270.0000 1.0000
35.5800 1384.0000 1.0000
35.5900 1381.0000 1.0000
35.6000 1330.0000 1.0000
35.6100 1354.0000 1.0000
35.6200 1378.0000 1.0000
35.6300 1268.0000 1.0000
35.6400 1244.0000 1.0000
35.6500 1174.0000 1.0000
35.6600 1175.0000 1.0000
35.6700 1128.0000 1.0000
35.6800 1128.0000 1.0000
35.6900 1033.0000 1.0000
35.7000 1004.0000 1.0000
35.7100 949.0000 1.0000
35.7200 957.0000 1.0000
35.7300 872.0000 1.0000
35.7400 847.0000 1.0000
35.7500 795.0000 1.0000
35.7600 736.0000 1.0000
35.7700 733.0000 1.0000
35.7800 687.0000 1.0000
35.7900 625.0000 1.0000
35.8000 668.0000 1.0000
35.8100 634.0000 1.0000
35.8200 633.0000 1.0000
35.8300 596.0000 1.0000
35.8400 571.0000 1.0000
35.8500 600.0000 1.0000
35.8600 580.0000 1.0000
35.8700 575.0000 1.0000
35.8800 555.0000 1.0000
35.8900 571.0000 1.0000
35.9000 564.0000 1.0000
35.9100 563.0000 1.0000
35.9200 540.0000 1.0000
35.9300 550.0000 1.0000
35.9400 529.0000 1.0000
35.9500 515.0000 1.0000
35.9600 524.0000 1.0000
35.9700 520.0000 1.0000
35.9800 523.0000 1.0000
35.9900 532.0000 1.0000
36.0000 545.0000 1.0000
36.0100 533.0000 1.0000
36.0200 525.0000 1.0000
36.0300 532.0000 1.0000
36.0400 533.0000 1.0000
36.0500 549.0000 1.0000
36.0600 517.0000 1.0000
36.0700 526.0000 1.0000
36.0800 499.0000 1.0000
36.0900 519.0000 1.0000
36.1000 539.0000 1.0000
36.1100 505.0000 1.0000
36.1200 521.0000 1.0000
36.1300 526.0000 1.0000
36.1400 515.0000 1.0000
36.1500 513.0000 1.0000
36.1600 521.0000 1.0000
36.1700 537.0000 1.0000
36.1800 522.0000 1.0000
36.1900 527.0000 1.0000
36.2000 504.0000 1.0000
36.2100 486.0000 1.0000
36.2200 516.0000 1.0000
36.2300 506.0000 1.0000
36.2400 539.0000 1.0000
36.2500 529.0000 1.0000
36.2600 527.0000 1.0000
36.2700 515.0000 1.0000
36.2800 532.0000 1.0000
36.2900 502.0000 1.0000
36.3000 482.0000 1.0000
36.3100 525.0000 1.0000
36.3200 493.0000 1.0000
36.3300 504.0000 1.0000
36.3400 512.0000 1.0000
36.3500 524.0000 1.0000
36.3600 529.0000 1.0000
36.3700 535.0000 1.0000
36.3800 523.0000 1.0000
36.3900 515.0000 1.0000
36.4000 515.0000 1.0000
36.4100 485.0000 1.0000
36.4200 503.0000 1.0000
36.4300 523.0000 1.0000
36.4400 530.0000 1.0000
36.4500 500.0000 1.0000
36.4600 541.0000 1.0000
36.4700 518.0000 1.0000
36.4800 517.0000 1.0000
36.4900 511.0000 1.0000
36.5000 499.0000 1.0000
36.5100 498.0000 1.0000
36.5200 516.0000 1.0000
36.5300 554.0000 1.0000
36.5400 552.0000 1.0000
36.5500 514.0000 1.0000
36.5600 512.0000 1.0000
36.5700 535.0000 1.0000
36.5800 532.0000 1.0000
36.5900 521.0000 1.0000
36.6000 552.0000 1.0000
36.6100 508.0000 1.0000
36.6200 494.0000 1.0000
36.6300 510.0000 1.0000
36.6400 520.0000 1.0000
36.6500 511.0000 1.0000
36.6600 521.0000 1.0000
36.6700 513.0000 1.0000
36.6800 520.0000 1.0000
36.6900 508.0000 1.0000
36.7000 519.0000 1.0000
36.7100 552.0000 1.0000
36.7200 532.0000 1.0000
36.7300 533.0000 1.0000
36.7400 511.0000 1.0000
36.7500 495.0000 1.0000
36.7600 501.0000 1.0000
36.7700 527.0000 1.0000
36.7800 529.0000 1.0000
36.7900 521.0000 1.0000
36.8000 536.0000 1.0000
36.8100 540.0000 1.0000
36.8200 520.0000 1.0000
36.8300 503.0000 1.0000
36.8400 473.0000 1.0000
36.8500 504.0000 1.0000
36.8600 519.0000 1.0000
36.8700 509.0000 1.0000
36.8800 507.0000 1.0000
36.8900 528.0000 1.0000
36.9000 558.0000 1.0000
36.9100 514.0000 1.0000
36.9200 571.0000 1.0000
36.9300 533.0000 1.0000
36.9400 562.0000 1.0000
36.9500 522.0000 1.0000
36.9600 528.0000 1.0000
36.9700 528.0000 1.0000
36.9800 525.0000 1.0000
36.9900 532.0000 1.0000
37.0000 523.0000 1.0000
37.0100 534.0000 1.0000
37.0200 548.0000 1.0000
37.0300 536.0000 1.0000
37.0400 536.0000 1.0000
37.0500 535.0000 1.0000
37.0600 530.0000 1.0000
37.0700 534.0000 1.0000
37.0800 548.0000 1.0000
37.0900 572.0000 1.0000
37.1000 564.0000 1.0000
37.1100 595.0000 1.0000
37.1200 559.0000 1.0000
37.1300 544.0000 1.0000
37.1400 576.0000 1.0000
37.1500 566.0000 1.0000
37.1600 571.0000 1.0000
37.1700 576.0000 1.0000
37.1800 565.0000 1.0000
37.1900 559.0000 1.0000
37.2000 569.0000 1.0000
37.2100 579.0000 1.0000
37.2200 578.0000 1.0000
37.2300 586.0000 1.0000
37.2400 572.0000 1.0000
37.2500 597.0000 1.0000
37.2600 560.0000 1.0000
37.2700 585.0000 1.0000
37.2800 598.0000 1.0000
37.2900 624.0000 1.0000
37.3000 648.0000 1.0000
37.3100 646.0000 1.0000
37.3200 669.0000 1.0000
37.3300 656.0000 1.0000
37.3400 674.0000 1.0000
37.3500 681.0000 1.0000
37.3600 641.0000 1.0000
37.3700 697.0000 1.0000
37.3800 676.0000 1.0000
37.3900 699.0000 1.0000
37.4000 737.0000 1.0000
37.4100 796.0000 1.0000
37.4200 816.0000 1.0000
37.4300 839.0000 1.0000
37.4400 833.0000 1.0000
37.4500 859.0000 1.0000
37.4600 886.0000 1.0000
37.4700 932.0000 1.0000
37.4800 1012.0000 1.0000
37.4900 1012.0000 1.0000
37.5000 1038.0000 1.0000
37.5100 1069.0000 1.0000
37.5200 1172.0000 1.0000
37.5300 1132.0000 1.0000
37.5400 1266.0000 1.0000
37.5500 1285.0000 1.0000
37.5600 1430.0000 1.0000
37.5700 1458.0000 1.0000
37.5800 1534.0000 1.0000
37.5900 1685.0000 1.0000
37.6000 1729.0000 1.0000
37.6100 1937.0000 1.0000
37.6200 1952.0000 1.0000
37.6300 2094.0000 1.0000
37.6400 2192.0000 1.0000
37.6500 2364.0000 1.0000
37.6600 2362.0000 1.0000
37.6700 2572.0000 1.0000
37.6800 2751.0000 1.0000
37.6900 2819.0000 1.0000
37.7000 2932.0000 1.0000
37.7100 3069.0000 1.0000
37.7200 3077.0000 1.0000
37.7300 3163.0000 1.0000
37.7400 3213.0000 1.0000
37.7500 3190.0000 1.0000
37.7600 3104.0000 1.0000
37.7700 3139.0000 1.0000
37.7800 3094.0000 1.0000
37.7900 2916.0000 1.0000
37.8000 2848.0000 1.0000
37.8100 2754.0000 1.0000
37.8200 2712.0000 1.0000
37.8300 2580.0000 1.0000
37.8400 2372.0000 1.0000
37.8500 2273.0000 1.0000
37.8600 2130.0000 1.0000
37.8700 2144.0000 1.0000
37.8800 1961.0000 1.0000
37.8900 1755.0000 1.0000
37.9000 1656.0000 1.0000
37.9100 1657.0000 1.0000
37.9200 1527.0000 1.0000
37.9300 1387.0000 1.0000
37.9400 1330.0000 1.0000
37.9500 1216.0000 1.0000
37.9600 1184.0000 1.0000
37.9700 1178.0000 1.0000
37.9800 1043.0000 1.0000
37.9900 953.0000 1.0000
38.0000 951.0000 1.0000
38.0100 920.0000 1.0000
38.0200 904.0000 1.0000
38.0300 857.0000 1.0000
38.0400 814.0000 1.0000
38.0500 796.0000 1.0000
38.0600 775.0000 1.0000
38.0700 763.0000 1.0000
38.0800 740.0000 1.0000
38.0900 675.0000 1.0000
38.1000 719.0000 1.0000
38.1100 681.0000 1.0000
38.1200 644.0000 1.0000
38.1300 636.0000 1.0000
38.1400 628.0000 1.0000
38.1500 631.0000 1.0000
38.1600 624.0000 1.0000
38.1700 558.0000 1.0000
38.1800 600.0000 1.0000
38.1900 604.0000 1.0000
38.2000 603.0000 1.0000
38.2100 578.0000 1.0000
38.2200 550.0000 1.0000
38.2300 585.0000 1.0000
38.2400 572.0000 1.0000
38.2500 532.0000 1.0000
38.2600 534.0000 1.0000
38.2700 562.0000 1.0000
38.2800 541.0000 1.0000
38.2900 494.0000 1.0000
38.3000 515.0000 1.0000
38.3100 577.0000 1.0000
38.3200 536.0000 1.0000
38.3300 537.0000 1.0000
38.3400 543.0000 1.0000
38.3500 489.0000 1.0000
38.3600 512.0000 1.0000
38.3700 492.0000 1.0000
38.3800 499.0000 1.0000
38.3900 510.0000 1.0000
38.4000 489.0000 1.0000
38.4100 499.0000 1.0000
38.4200 482.0000 1.0000
38.4300 456.0000 1.0000
38.4400 506.0000 1.0000
38.4500 480.0000 1.0000
38.4600 469.0000 1.0000
38.4700 497.0000 1.0000
38.4800 484.0000 1.0000
38.4900 514.0000 1.0000
38.5000 465.0000 1.0000
38.5100 520.0000 1.0000
38.5200 504.0000 1.0000
38.5300 487.0000 1.0000
38.5400 472.0000 1.0000
38.5500 481.0000 1.0000
38.5600 503.0000 1.0000
38.5700 482.0000 1.0000
38.5800 490.0000 1.0000
38.5900 493.0000 1.0000
38.6000 523.0000 1.0000
38.6100 506.0000 1.0000
38.6200 497.0000 1.0000
38.6300 462.0000 1.0000
38.6400 479.0000 1.0000
38.6500 481.0000 1.0000
38.6600 511.0000 1.0000
38.6700 478.0000 1.0000
38.6800 430.0000 1.0000
38.6900 463.0000 1.0000
38.7000 499.0000 1.0000
38.7100 449.0000 1.0000
38.7200 466.0000 1.0000
38.7300 412.0000 1.0000
38.7400 477.0000 1.0000
38.7500 489.0000 1.0000
38.7600 488.0000 1.0000
38.7700 490.0000 1.0000
38.7800 487.0000 1.0000
38.7900 455.0000 1.0000
38.8000 508.0000 1.0000
38.8100 487.0000 1.0000
38.8200 444.0000 1.0000
38.8300 462.0000 1.0000
38.8400 461.0000 1.0000
38.8500 482.0000 1.0000
38.8600 496.0000 1.0000
38.8700 496.0000 1.0000
38.8800 464.0000 1.0000
38.8900 469.0000 1.0000
38.9000 451.0000 1.0000
38.9100 491.0000 1.0000
38.9200 446.0000 1.0000
38.9300 467.0000 1.0000
38.9400 460.0000 1.0000
38.9500 472.0000 1.0000
38.9600 448.0000 1.0000
38.9700 467.0000 1.0000
38.9800 442.0000 1.0000
38.9900 437.0000 1.0000
39.0000 440.0000 1.0000
39.0100 479.0000 1.0000
39.0200 448.0000 1.0000
39.0300 451.0000 1.0000
39.0400 456.0000 1.0000
39.0500 452.0000 1.0000
39.0600 457.0000 1.0000
39.0700 446.0000 1.0000
39.0800 439.0000 1.0000
39.0900 439.0000 1.0000
39.1000 455.0000 1.0000
39.1100 449.0000 1.0000
39.1200 435.0000 1.0000
39.1300 434.0000 1.0000
39.1400 423.0000 1.0000
39.1500 431.0000 1.0000
39.1600 428.0000 1.0000
39.1700 440.0000 1.0000
39.1800 461.0000 1.0000
39.1900 445.0000 1.0000
39.2000 424.0000 1.0000
39.2100 442.0000 1.0000
39.2200 460.0000 1.0000
39.2300 457.0000 1.0000
39.2400 475.0000 1.0000
39.2500 451.0000 1.0000
39.2600 462.0000 1.0000
39.2700 435.0000 1.0000
39.2800 464.0000 1.0000
39.2900 456.0000 1.0000
39.3000 426.0000 1.0000
39.3100 405.0000 1.0000
39.3200 467.0000 1.0000
39.3300 411.0000 1.0000
39.3400 440.0000 1.0000
39.3500 451.0000 1.0000
39.3600 454.0000 1.0000
39.3700 466.0000 1.0000
39.3800 434.0000 1.0000
39.3900 453.0000 1.0000
39.4000 414.0000 1.0000
39.4100 457.0000 1.0000
39.4200 456.0000 1.0000
39.4300 432.0000 1.0000
39.4400 436.0000 1.0000
39.4500 436.0000 1.0000
39.4600 423.0000 1.0000
39.4700 445.0000 1.0000
39.4800 467.0000 1.0000
39.4900 414.0000 1.0000
39.5000 424.0000 1.0000
39.5100 416.0000 1.0000
39.5200 438.0000 1.0000
39.5300 455.0000 1.0000
39.5400 416.0000 1.0000
39.5500 439.0000 1.0000
39.5600 453.0000 1.0000
39.5700 453.0000 1.0000
39.5800 457.0000 1.0000
39.5900 464.0000 1.0000
39.6000 456.0000 1.0000
39.6100 414.0000 1.0000
39.6200 452.0000 1.0000
39.6300 455.0000 1.0000
39.6400 440.0000 1.0000
39.6500 404.0000 1.0000
39.6600 430.0000 1.0000
39.6700 459.0000 1.0000
39.6800 424.0000 1.0000
39.6900 435.0000 1.0000
39.7000 457.0000 1.0000
39.7100 463.0000 1.0000
39.7200 430.0000 1.0000
39.7300 435.0000 1.0000
39.7400 434.0000 1.0000
39.7500 434.0000 1.0000
39.7600 453.0000 1.0000
39.7700 443.0000 1.0000
39.7800 423.0000 1.0000
39.7900 425.0000 1.0000
39.8000 421.0000 1.0000
39.8100 415.0000 1.0000
39.8200 424.0000 1.0000
39.8300 387.0000 1.0000
39.8400 430.0000 1.0000
39.8500 398.0000 1.0000
39.8600 437.0000 1.0000
39.8700 425.0000 1.0000
39.8800 430.0000 1.0000
39.8900 398.0000 1.0000
39.9000 417.0000 1.0000
39.9100 418.0000 1.0000
39.9200 424.0000 1.0000
39.9300 451.0000 1.0000
39.9400 393.0000 1.0000
39.9500 434.0000 1.0000
39.9600 455.0000 1.0000
39.9700 429.0000 1.0000
39.9800 420.0000 1.0000
39.9900 462.0000 1.0000
40.0000 468.0000 1.0000
40.0100 421.0000 1.0000
40.0200 436.0000 1.0000
40.0300 433.0000 1.0000
40.0400 441.0000 1.0000
40.0500 422.0000 1.0000
40.0600 431.0000 1.0000
40.0700 400.0000 1.0000
40.0800 411.0000 1.0000
40.0900 401.0000 1.0000
40.1000 451.0000 1.0000
40.1100 409.0000 1.0000
40.1200 423.0000 1.0000
40.1300 434.0000 1.0000
40.1400 426.0000 1.0000
40.1500 423.0000 1.0000
40.1600 391.0000 1.0000
40.1700 442.0000 1.0000
40.1800 435.0000 1.0000
40.1900 430.0000 1.0000
40.2000 435.0000 1.0000
40.2100 422.0000 1.0000
40.2200 451.0000 1.0000
40.2300 430.0000 1.0000
40.2400 412.0000 1.0000
40.2500 418.0000 1.0000
40.2600 417.0000 1.0000
40.2700 433.0000 1.0000
40.2800 433.0000 1.0000
40.2900 402.0000 1.0000
40.3000 409.0000 1.0000
40.3100 405.0000 1.0000
40.3200 415.0000 1.0000
40.3300 444.0000 1.0000
40.3400 395.0000 1.0000
40.3500 418.0000 1.0000
40.3600 460.0000 1.0000
40.3700 453.0000 1.0000
40.3800 485.0000 1.0000
40.3900 455.0000 1.0000
40.4000 427.0000 1.0000
40.4100 446.0000 1.0000
40.4200 461.0000 1.0000
40.4300 430.0000 1.0000
40.4400 418.0000 1.0000
40.4500 432.0000 1.0000
40.4600 432.0000 1.0000
40.4700 416.0000 1.0000
40.4800 435.0000 1.0000
40.4900 434.0000 1.0000
40.5000 418.0000 1.0000
40.5100 462.0000 1.0000
40.5200 453.0000 1.0000
40.5300 436.0000 1.0000
40.5400 464.0000 1.0000
40.5500 444.0000 1.0000
40.5600 472.0000 1.0000
40.5700 442.0000 1.0000
40.5800 425.0000 1.0000
40.5900 457.0000 1.0000
40.6000 434.0000 1.0000
40.6100 436.0000 1.0000
40.6200 433.0000 1.0000
40.6300 445.0000 1.0000
40.6400 443.0000 1.0000
40.6500 471.0000 1.0000
40.6600 422.0000 1.0000
40.6700 431.0000 1.0000
40.6800 454.0000 1.0000
40.6900 448.0000 1.0000
40.7000 439.0000 1.0000
40.7100 478.0000 1.0000
40.7200 491.0000 1.0000
40.7300 481.0000 1.0000
40.7400 482.0000 1.0000
40.7500 526.0000 1.0000
40.7600 517.0000 1.0000
40.7700 492.0000 1.0000
40.7800 509.0000 1.0000
40.7900 495.0000 1.0000
40.8000 495.0000 1.0000
40.8100 535.0000 1.0000
40.8200 515.0000 1.0000
40.8300 526.0000 1.0000
40.8400 495.0000 1.0000
40.8500 481.0000 1.0000
40.8600 478.0000 1.0000
40.8700 498.0000 1.0000
40.8800 496.0000 1.0000
40.8900 503.0000 1.0000
40.9000 497.0000 1.0000
40.9100 454.0000 1.0000
40.9200 467.0000 1.0000
40.9300 450.0000 1.0000
40.9400 470.0000 1.0000
40.9500 463.0000 1.0000
40.9600 455.0000 1.0000
40.9700 424.0000 1.0000
40.9800 453.0000 1.0000
40.9900 434.0000 1.0000
41.0000 427.0000 1.0000
41.0100 438.0000 1.0000
41.0200 435.0000 1.0000
41.0300 432.0000 1.0000
41.0400 442.0000 1.0000
41.0500 424.0000 1.0000
41.0600 428.0000 1.0000
41.0700 421.0000 1.0000
41.0800 427.0000 1.0000
41.0900 421.0000 1.0000
41.1000 435.0000 1.0000
41.1100 442.0000 1.0000
41.1200 436.0000 1.0000
41.1300 462.0000 1.0000
41.1400 447.0000 1.0000
41.1500 430.0000 1.0000
41.1600 458.0000 1.0000
41.1700 442.0000 1.0000
41.1800 408.0000 1.0000
41.1900 420.0000 1.0000
41.2000 426.0000 1.0000
41.2100 417.0000 1.0000
41.2200 418.0000 1.0000
41.2300 418.0000 1.0000
41.2400 416.0000 1.0000
41.2500 393.0000 1.0000
41.2600 407.0000 1.0000
41.2700 409.0000 1.0000
41.2800 413.0000 1.0000
41.2900 444.0000 1.0000
41.3000 424.0000 1.0000
41.3100 384.0000 1.0000
41.3200 407.0000 1.0000
41.3300 402.0000 1.0000
41.3400 425.0000 1.0000
41.3500 420.0000 1.0000
41.3600 366.0000 1.0000
41.3700 402.0000 1.0000
41.3800 392.0000 1.0000
41.3900 426.0000 1.0000
41.4000 385.0000 1.0000
41.4100 405.0000 1.0000
41.4200 408.0000 1.0000
41.4300 421.0000 1.0000
41.4400 426.0000 1.0000
41.4500 411.0000 1.0000
41.4600 414.0000 1.0000
41.4700 431.0000 1.0000
41.4800 382.0000 1.0000
41.4900 406.0000 1.0000
41.5000 392.0000 1.0000
41.5100 411.0000 1.0000
41.5200 413.0000 1.0000
41.5300 392.0000 1.0000
41.5400 429.0000 1.0000
41.5500 454.0000 1.0000
41.5600 403.0000 1.0000
41.5700 411.0000 1.0000
41.5800 387.0000 1.0000
41.5900 408.0000 1.0000
41.6000 428.0000 1.0000
41.6100 419.0000 1.0000
41.6200 444.0000 1.0000
41.6300 400.0000 1.0000
41.6400 411.0000 1.0000
41.6500 396.0000 1.0000
41.6600 402.0000 1.0000
41.6700 388.0000 1.0000
41.6800 399.0000 1.0000
41.6900 404.0000 1.0000
41.7000 437.0000 1.0000
41.7100 426.0000 1.0000
41.7200 412.0000 1.0000
41.7300 389.0000 1.0000
41.7400 434.0000 1.0000
41.7500 400.0000 1.0000
41.7600 422.0000 1.0000
41.7700 410.0000 1.0000
41.7800 390.0000 1.0000
41.7900 408.0000 1.0000
41.8000 417.0000 1.0000
41.8100 409.0000 1.0000
41.8200 402.0000 1.0000
41.8300 424.0000 1.0000
41.8400 429.0000 1.0000
41.8500 449.0000 1.0000
41.8600 401.0000 1.0000
41.8700 410.0000 1.0000
41.8800 425.0000 1.0000
41.8900 449.0000 1.0000
41.9000 435.0000 1.0000
41.9100 395.0000 1.0000
41.9200 429.0000 1.0000
41.9300 388.0000 1.0000
41.9400 424.0000 1.0000
41.9500 406.0000 1.0000
41.9600 415.0000 1.0000
41.9700 426.0000 1.0000
41.9800 420.0000 1.0000
41.9900 442.0000 1.0000
42.0000 425.0000 1.0000
42.0100 385.0000 1.0000
42.0200 392.0000 1.0000
42.0300 386.0000 1.0000
42.0400 401.0000 1.0000
42.0500 425.0000 1.0000
42.0600 417.0000 1.0000
42.0700 404.0000 1.0000
42.0800 420.0000 1.0000
42.0900 428.0000 1.0000
42.1000 412.0000 1.0000
42.1100 384.0000 1.0000
42.1200 411.0000 1.0000
42.1300 404.0000 1.0000
42.1400 419.0000 1.0000
42.1500 377.0000 1.0000
42.1600 408.0000 1.0000
42.1700 431.0000 1.0000
42.1800 413.0000 1.0000
42.1900 408.0000 1.0000
42.2000 377.0000 1.0000
42.2100 424.0000 1.0000
42.2200 392.0000 1.0000
42.2300 383.0000 1.0000
42.2400 390.0000 1.0000
42.2500 368.0000 1.0000
42.2600 427.0000 1.0000
42.2700 456.0000 1.0000
42.2800 417.0000 1.0000
42.2900 401.0000 1.0000
42.3000 417.0000 1.0000
42.3100 409.0000 1.0000
42.3200 417.0000 1.0000
42.3300 418.0000 1.0000
42.3400 409.0000 1.0000
42.3500 417.0000 1.0000
42.3600 393.0000 1.0000
42.3700 384.0000 1.0000
42.3800 429.0000 1.0000
42.3900 420.0000 1.0000
42.4000 428.0000 1.0000
42.4100 422.0000 1.0000
42.4200 409.0000 1.0000
42.4300 431.0000 1.0000
42.4400 414.0000 1.0000
42.4500 396.0000 1.0000
42.4600 420.0000 1.0000
42.4700 437.0000 1.0000
42.4800 425.0000 1.0000
42.4900 423.0000 1.0000
42.5000 412.0000 1.0000
42.5100 428.0000 1.0000
42.5200 408.0000 1.0000
42.5300 416.0000 1.0000
42.5400 411.0000 1.0000
42.5500 416.0000 1.0000
42.5600 393.0000 1.0000
42.5700 421.0000 1.0000
42.5800 404.0000 1.0000
42.5900 418.0000 1.0000
42.6000 393.0000 1.0000
42.6100 433.0000 1.0000
42.6200 415.0000 1.0000
42.6300 392.0000 1.0000
42.6400 449.0000 1.0000
42.6500 429.0000 1.0000
42.6600 423.0000 1.0000
42.6700 471.0000 1.0000
42.6800 401.0000 1.0000
42.6900 390.0000 1.0000
42.7000 382.0000 1.0000
42.7100 403.0000 1.0000
42.7200 457.0000 1.0000
42.7300 411.0000 1.0000
42.7400 410.0000 1.0000
42.7500 399.0000 1.0000
42.7600 416.0000 1.0000
42.7700 433.0000 1.0000
42.7800 429.0000 1.0000
42.7900 404.0000 1.0000
42.8000 411.0000 1.0000
42.8100 418.0000 1.0000
42.8200 381.0000 1.0000
42.8300 392.0000 1.0000
42.8400 423.0000 1.0000
42.8500 374.0000 1.0000
42.8600 356.0000 1.0000
42.8700 378.0000 1.0000
42.8800 419.0000 1.0000
42.8900 399.0000 1.0000
42.9000 414.0000 1.0000
42.9100 418.0000 1.0000
42.9200 431.0000 1.0000
42.9300 412.0000 1.0000
42.9400 396.0000 1.0000
42.9500 421.0000 1.0000
42.9600 382.0000 1.0000
42.9700 411.0000 1.0000
42.9800 404.0000 1.0000
42.9900 408.0000 1.0000
43.0000 420.0000 1.0000
43.0100 420.0000 1.0000
43.0200 375.0000 1.0000
43.0300 446.0000 1.0000
43.0400 426.0000 1.0000
43.0500 406.0000 1.0000
43.0600 395.0000 1.0000
43.0700 376.0000 1.0000
43.0800 380.0000 1.0000
43.0900 383.0000 1.0000
43.1000 396.0000 1.0000
43.1100 385.0000 1.0000
43.1200 405.0000 1.0000
43.1300 409.0000 1.0000
43.1400 388.0000 1.0000
43.1500 368.0000 1.0000
43.1600 405.0000 1.0000
43.1700 385.0000 1.0000
43.1800 415.0000 1.0000
43.1900 393.0000 1.0000
43.2000 403.0000 1.0000
43.2100 402.0000 1.0000
43.2200 391.0000 1.0000
43.2300 418.0000 1.0000
43.2400 358.0000 1.0000
43.2500 394.0000 1.0000
43.2600 402.0000 1.0000
43.2700 382.0000 1.0000
43.2800 396.0000 1.0000
43.2900 425.0000 1.0000
43.3000 437.0000 1.0000
43.3100 420.0000 1.0000
43.3200 414.0000 1.0000
43.3300 415.0000 1.0000
43.3400 367.0000 1.0000
43.3500 365.0000 1.0000
43.3600 363.0000 1.0000
43.3700 421.0000 1.0000
43.3800 400.0000 1.0000
43.3900 426.0000 1.0000
43.4000 425.0000 1.0000
43.4100 382.0000 1.0000
43.4200 397.0000 1.0000
43.4300 406.0000 1.0000
43.4400 388.0000 1.0000
43.4500 415.0000 1.0000
43.4600 411.0000 1.0000
43.4700 414.0000 1.0000
43.4800 411.0000 1.0000
43.4900 397.0000 1.0000
43.5000 403.0000 1.0000
43.5100 400.0000 1.0000
43.5200 393.0000 1.0000
43.5300 423.0000 1.0000
43.5400 418.0000 1.0000
43.5500 423.0000 1.0000
43.5600 376.0000 1.0000
43.5700 386.0000 1.0000
43.5800 417.0000 1.0000
43.5900 418.0000 1.0000
43.6000 407.0000 1.0000
43.6100 440.0000 1.0000
43.6200 397.0000 1.0000
43.6300 373.0000 1.0000
43.6400 376.0000 1.0000
43.6500 386.0000 1.0000
43.6600 398.0000 1.0000
43.6700 431.0000 1.0000
43.6800 404.0000 1.0000
43.6900 432.0000 1.0000
43.7000 412.0000 1.0000
43.7100 413.0000 1.0000
43.7200 386.0000 1.0000
43.7300 433.0000 1.0000
43.7400 410.0000 1.0000
43.7500 406.0000 1.0000
43.7600 443.0000 1.0000
43.7700 403.0000 1.0000
43.7800 391.0000 1.0000
43.7900 388.0000 1.0000
43.8000 404.0000 1.0000
43.8100 397.0000 1.0000
43.8200 386.0000 1.0000
43.8300 379.0000 1.0000
43.8400 379.0000 1.0000
43.8500 380.0000 1.0000
43.8600 374.0000 1.0000
43.8700 371.0000 1.0000
43.8800 389.0000 1.0000
43.8900 413.0000 1.0000
43.9000 399.0000 1.0000
43.9100 403.0000 1.0000
43.9200 397.0000 1.0000
43.9300 395.0000 1.0000
43.9400 392.0000 1.0000
43.9500 350.0000 1.0000
43.9600 382.0000 1.0000
43.9700 412.0000 1.0000
43.9800 420.0000 1.0000
43.9900 373.0000 1.0000
44.0000 423.0000 1.0000
44.0100 427.0000 1.0000
44.0200 405.0000 1.0000
44.0300 375.0000 1.0000
44.0400 378.0000 1.0000
44.0500 360.0000 1.0000
44.0600 390.0000 1.0000
44.0700 367.0000 1.0000
44.0800 386.0000 1.0000
44.0900 391.0000 1.0000
44.1000 419.0000 1.0000
44.1100 372.0000 1.0000
44.1200 397.0000 1.0000
44.1300 415.0000 1.0000
44.1400 374.0000 1.0000
44.1500 390.0000 1.0000
44.1600 422.0000 1.0000
44.1700 426.0000 1.0000
44.1800 427.0000 1.0000
44.1900 401.0000 1.0000
44.2000 406.0000 1.0000
44.2100 394.0000 1.0000
44.2200 425.0000 1.0000
44.2300 383.0000 1.0000
44.2400 381.0000 1.0000
44.2500 388.0000 1.0000
44.2600 390.0000 1.0000
44.2700 353.0000 1.0000
44.2800 393.0000 1.0000
44.2900 382.0000 1.0000
44.3000 376.0000 1.0000
44.3100 411.0000 1.0000
44.3200 385.0000 1.0000
44.3300 376.0000 1.0000
44.3400 373.0000 1.0000
44.3500 402.0000 1.0000
44.3600 386.0000 1.0000
44.3700 361.0000 1.0000
44.3800 381.0000 1.0000
44.3900 416.0000 1.0000
44.4000 389.0000 1.0000
44.4100 403.0000 1.0000
44.4200 375.0000 1.0000
44.4300 380.0000 1.0000
44.4400 396.0000 1.0000
44.4500 358.0000 1.0000
44.4600 381.0000 1.0000
44.4700 377.0000 1.0000
44.4800 366.0000 1.0000
44.4900 380.0000 1.0000
44.5000 406.0000 1.0000
44.5100 407.0000 1.0000
44.5200 392.0000 1.0000
44.5300 370.0000 1.0000
44.5400 395.0000 1.0000
44.5500 385.0000 1.0000
44.5600 389.0000 1.0000
44.5700 401.0000 1.0000
44.5800 381.0000 1.0000
44.5900 374.0000 1.0000
44.6000 414.0000 1.0000
44.6100 401.0000 1.0000
44.6200 398.0000 1.0000
44.6300 388.0000 1.0000
44.6400 400.0000 1.0000
44.6500 368.0000 1.0000
44.6600 365.0000 1.0000
44.6700 368.0000 1.0000
44.6800 365.0000 1.0000
44.6900 392.0000 1.0000
44.7000 360.0000 1.0000
44.7100 370.0000 1.0000
44.7200 374.0000 1.0000
44.7300 380.0000 1.0000
44.7400 428.0000 1.0000
44.7500 421.0000 1.0000
44.7600 398.0000 1.0000
44.7700 370.0000 1.0000
44.7800 366.0000 1.0000
44.7900 403.0000 1.0000
44.8000 379.0000 1.0000
44.8100 388.0000 1.0000
44.8200 382.0000 1.0000
44.8300 387.0000 1.0000
44.8400 381.0000 1.0000
44.8500 386.0000 1.0000
44.8600 377.0000 1.0000
44.8700 358.0000 1.0000
44.8800 415.0000 1.0000
44.8900 363.0000 1.0000
44.9000 377.0000 1.0000
44.9100 358.0000 1.0000
44.9200 413.0000 1.0000
44.9300 402.0000 1.0000
44.9400 391.0000 1.0000
44.9500 371.0000 1.0000
44.9600 393.0000 1.0000
44.9700 376.0000 1.0000
44.9800 378.0000 1.0000
44.9900 384.0000 1.0000
45.0000 375.0000 1.0000
45.0100 406.0000 1.0000
45.0200 380.0000 1.0000
45.0300 359.0000 1.0000
45.0400 339.0000 1.0000
45.0500 378.0000 1.0000
45.0600 399.0000 1.0000
45.0700 338.0000 1.0000
45.0800 365.0000 1.0000
45.0900 396.0000 1.0000
45.1000 386.0000 1.0000
45.1100 375.0000 1.0000
45.1200 392.0000 1.0000
45.1300 372.0000 1.0000
45.1400 391.0000 1.0000
45.1500 396.0000 1.0000
45.1600 369.0000 1.0000
45.1700 366.0000 1.0000
45.1800 385.0000 1.0000
45.1900 384.0000 1.0000
45.2000 398.0000 1.0000
45.2100 368.0000 1.0000
45.2200 363.0000 1.0000
45.2300 343.0000 1.0000
45.2400 370.0000 1.0000
45.2500 379.0000 1.0000
45.2600 409.0000 1.0000
45.2700 391.0000 1.0000
45.2800 352.0000 1.0000
45.2900 375.0000 1.0000
45.3000 365.0000 1.0000
45.3100 398.0000 1.0000
45.3200 380.0000 1.0000
45.3300 411.0000 1.0000
45.3400 359.0000 1.0000
45.3500 370.0000 1.0000
45.3600 372.0000 1.0000
45.3700 392.0000 1.0000
45.3800 369.0000 1.0000
45.3900 365.0000 1.0000
45.4000 365.0000 1.0000
45.4100 364.0000 1.0000
45.4200 389.0000 1.0000
45.4300 385.0000 1.0000
45.4400 409.0000 1.0000
45.4500 393.0000 1.0000
45.4600 362.0000 1.0000
45.4700 415.0000 1.0000
45.4800 383.0000 1.0000
45.4900 368.0000 1.0000
45.5000 401.0000 1.0000
45.5100 414.0000 1.0000
45.5200 398.0000 1.0000
45.5300 383.0000 1.0000
45.5400 353.0000 1.0000
45.5500 389.0000 1.0000
45.5600 379.0000 1.0000
45.5700 371.0000 1.0000
45.5800 417.0000 1.0000
45.5900 377.0000 1.0000
45.6000 363.0000 1.0000
45.6100 378.0000 1.0000
45.6200 357.0000 1.0000
45.6300 373.0000 1.0000
45.6400 317.0000 1.0000
45.6500 349.0000 1.0000
45.6600 357.0000 1.0000
45.6700 399.0000 1.0000
45.6800 387.0000 1.0000
45.6900 394.0000 1.0000
45.7000 374.0000 1.0000
45.7100 396.0000 1.0000
45.7200 346.0000 1.0000
45.7300 347.0000 1.0000
45.7400 359.0000 1.0000
45.7500 369.0000 1.0000
45.7600 377.0000 1.0000
45.7700 355.0000 1.0000
45.7800 357.0000 1.0000
45.7900 364.0000 1.0000
45.8000 351.0000 1.0000
45.8100 382.0000 1.0000
45.8200 364.0000 1.0000
45.8300 362.0000 1.0000
45.8400 358.0000 1.0000
45.8500 381.0000 1.0000
45.8600 362.0000 1.0000
45.8700 363.0000 1.0000
45.8800 364.0000 1.0000
45.8900 359.0000 1.0000
45.9000 378.0000 1.0000
45.9100 370.0000 1.0000
45.9200 391.0000 1.0000
45.9300 368.0000 1.0000
45.9400 368.0000 1.0000
45.9500 355.0000 1.0000
45.9600 347.0000 1.0000
45.9700 379.0000 1.0000
45.9800 383.0000 1.0000
45.9900 370.0000 1.0000
46.0000 375.0000 1.0000
46.0100 387.0000 1.0000
46.0200 397.0000 1.0000
46.0300 380.0000 1.0000
46.0400 373.0000 1.0000
46.0500 351.0000 1.0000
46.0600 371.0000 1.0000
46.0700 368.0000 1.0000
46.0800 374.0000 1.0000
46.0900 381.0000 1.0000
46.1000 346.0000 1.0000
46.1100 330.0000 1.0000
46.1200 355.0000 1.0000
46.1300 360.0000 1.0000
46.1400 357.0000 1.0000
46.1500 367.0000 1.0000
46.1600 345.0000 1.0000
46.1700 383.0000 1.0000
46.1800 382.0000 1.0000
46.1900 362.0000 1.0000
46.2000 389.0000 1.0000
46.2100 355.0000 1.0000
46.2200 365.0000 1.0000
46.2300 380.0000 1.0000
46.2400 400.0000 1.0000
46.2500 384.0000 1.0000
46.2600 366.0000 1.0000
46.2700 389.0000 1.0000
46.2800 381.0000 1.0000
46.2900 389.0000 1.0000
46.3000 373.0000 1.0000
46.3100 373.0000 1.0000
46.3200 372.0000 1.0000
46.3300 380.0000 1.0000
46.3400 377.0000 1.0000
46.3500 364.0000 1.0000
46.3600 384.0000 1.0000
46.3700 342.0000 1.0000
46.3800 390.0000 1.0000
46.3900 370.0000 1.0000
46.4000 381.0000 1.0000
46.4100 332.0000 1.0000
46.4200 353.0000 1.0000
46.4300 375.0000 1.0000
46.4400 393.0000 1.0000
46.4500 357.0000 1.0000
46.4600 376.0000 1.0000
46.4700 374.0000 1.0000
46.4800 349.0000 1.0000
46.4900 370.0000 1.0000
46.5000 376.0000 1.0000
46.5100 373.0000 1.0000
46.5200 367.0000 1.0000
46.5300 370.0000 1.0000
46.5400 373.0000 1.0000
46.5500 370.0000 1.0000
46.5600 334.0000 1.0000
46.5700 382.0000 1.0000
46.5800 344.0000 1.0000
46.5900 355.0000 1.0000
46.6000 371.0000 1.0000
46.6100 379.0000 1.0000
46.6200 347.0000 1.0000
46.6300 360.0000 1.0000
46.6400 356.0000 1.0000
46.6500 358.0000 1.0000
46.6600 380.0000 1.0000
46.6700 377.0000 1.0000
46.6800 385.0000 1.0000
46.6900 338.0000 1.0000
46.7000 360.0000 1.0000
46.7100 331.0000 1.0000
46.7200 357.0000 1.0000
46.7300 371.0000 1.0000
46.7400 369.0000 1.0000
46.7500 384.0000 1.0000
46.7600 390.0000 1.0000
46.7700 364.0000 1.0000
46.7800 356.0000 1.0000
46.7900 345.0000 1.0000
46.8000 357.0000 1.0000
46.8100 365.0000 1.0000
46.8200 373.0000 1.0000
46.8300 355.0000 1.0000
46.8400 384.0000 1.0000
46.8500 372.0000 1.0000
46.8600 346.0000 1.0000
46.8700 396.0000 1.0000
46.8800 357.0000 1.0000
46.8900 358.0000 1.0000
46.9000 373.0000 1.0000
46.9100 418.0000 1.0000
46.9200 371.0000 1.0000
46.9300 379.0000 1.0000
46.9400 361.0000 1.0000
46.9500 354.0000 1.0000
46.9600 354.0000 1.0000
46.9700 355.0000 1.0000
46.9800 351.0000 1.0000
46.9900 354.0000 1.0000
47.0000 346.0000 1.0000
47.0100 377.0000 1.0000
47.0200 350.0000 1.0000
47.0300 367.0000 1.0000
47.0400 352.0000 1.0000
47.0500 361.0000 1.0000
47.0600 367.0000 1.0000
47.0700 352.0000 1.0000
47.0800 381.0000 1.0000
47.0900 334.0000 1.0000
47.1000 340.0000 1.0000
47.1100 364.0000 1.0000
47.1200 365.0000 1.0000
47.1300 331.0000 1.0000
47.1400 368.0000 1.0000
47.1500 353.0000 1.0000
47.1600 331.0000 1.0000
47.1700 355.0000 1.0000
47.1800 379.0000 1.0000
47.1900 381.0000 1.0000
47.2000 344.0000 1.0000
47.2100 364.0000 1.0000
47.2200 360.0000 1.0000
47.2300 388.0000 1.0000
47.2400 372.0000 1.0000
47.2500 346.0000 1.0000
47.2600 366.0000 1.0000
47.2700 372.0000 1.0000
47.2800 373.0000 1.0000
47.2900 363.0000 1.0000
47.3000 371.0000 1.0000
47.3100 378.0000 1.0000
47.3200 365.0000 1.0000
47.3300 386.0000 1.0000
47.3400 395.0000 1.0000
47.3500 368.0000 1.0000
47.3600 337.0000 1.0000
47.3700 361.0000 1.0000
47.3800 367.0000 1.0000
47.3900 379.0000 1.0000
47.4000 394.0000 1.0000
47.4100 331.0000 1.0000
47.4200 354.0000 1.0000
47.4300 380.0000 1.0000
47.4400 376.0000 1.0000
47.4500 342.0000 1.0000
47.4600 382.0000 1.0000
47.4700 342.0000 1.0000
47.4800 389.0000 1.0000
47.4900 367.0000 1.0000
47.5000 317.0000 1.0000
47.5100 335.0000 1.0000
47.5200 350.0000 1.0000
47.5300 369.0000 1.0000
47.5400 357.0000 1.0000
47.5500 342.0000 1.0000
47.5600 340.0000 1.0000
47.5700 346.0000 1.0000
47.5800 333.0000 1.0000
47.5900 336.0000 1.0000
47.6000 356.0000 1.0000
47.6100 361.0000 1.0000
47.6200 329.0000 1.0000
47.6300 348.0000 1.0000
47.6400 359.0000 1.0000
47.6500 329.0000 1.0000
47.6600 367.0000 1.0000
47.6700 317.0000 1.0000
47.6800 364.0000 1.0000
47.6900 345.0000 1.0000
47.7000 356.0000 1.0000
47.7100 338.0000 1.0000
47.7200 353.0000 1.0000
47.7300 391.0000 1.0000
47.7400 359.0000 1.0000
47.7500 344.0000 1.0000
47.7600 368.0000 1.0000
47.7700 335.0000 1.0000
47.7800 357.0000 1.0000
47.7900 363.0000 1.0000
47.8000 355.0000 1.0000
47.8100 329.0000 1.0000
47.8200 366.0000 1.0000
47.8300 371.0000 1.0000
47.8400 375.0000 1.0000
47.8500 361.0000 1.0000
47.8600 349.0000 1.0000
47.8700 339.0000 1.0000
47.8800 344.0000 1.0000
47.8900 362.0000 1.0000
47.9000 347.0000 1.0000
47.9100 361.0000 1.0000
47.9200 346.0000 1.0000
47.9300 345.0000 1.0000
47.9400 371.0000 1.0000
47.9500 367.0000 1.0000
47.9600 357.0000 1.0000
47.9700 352.0000 1.0000
47.9800 389.0000 1.0000
47.9900 374.0000 1.0000
48.0000 344.0000 1.0000
48.0100 342.0000 1.0000
48.0200 320.0000 1.0000
48.0300 345.0000 1.0000
48.0400 361.0000 1.0000
48.0500 347.0000 1.0000
48.0600 397.0000 1.0000
48.0700 369.0000 1.0000
48.0800 350.0000 1.0000
48.0900 366.0000 1.0000
48.1000 351.0000 1.0000
48.1100 359.0000 1.0000
48.1200 334.0000 1.0000
48.1300 349.0000 1.0000
48.1400 333.0000 1.0000
48.1500 352.0000 1.0000
48.1600 369.0000 1.0000
48.1700 373.0000 1.0000
48.1800 352.0000 1.0000
48.1900 374.0000 1.0000
48.2000 344.0000 1.0000
48.2100 387.0000 1.0000
48.2200 367.0000 1.0000
48.2300 367.0000 1.0000
48.2400 367.0000 1.0000
48.2500 379.0000 1.0000
48.2600 369.0000 1.0000
48.2700 360.0000 1.0000
48.2800 372.0000 1.0000
48.2900 334.0000 1.0000
48.3000 362.0000 1.0000
48.3100 348.0000 1.0000
48.3200 343.0000 1.0000
48.3300 327.0000 1.0000
48.3400 371.0000 1.0000
48.3500 370.0000 1.0000
48.3600 349.0000 1.0000
48.3700 369.0000 1.0000
48.3800 331.0000 1.0000
48.3900 357.0000 1.0000
48.4000 327.0000 1.0000
48.4100 336.0000 1.0000
48.4200 330.0000 1.0000
48.4300 348.0000 1.0000
48.4400 342.0000 1.0000
48.4500 336.0000 1.0000
48.4600 336.0000 1.0000
48.4700 339.0000 1.0000
48.4800 344.0000 1.0000
48.4900 346.0000 1.0000
48.5000 357.0000 1.0000
48.5100 382.0000 1.0000
48.5200 363.0000 1.0000
48.5300 361.0000 1.0000
48.5400 343.0000 1.0000
48.5500 354.0000 1.0000
48.5600 366.0000 1.0000
48.5700 340.0000 1.0000
48.5800 332.0000 1.0000
48.5900 352.0000 1.0000
48.6000 353.0000 1.0000
48.6100 326.0000 1.0000
48.6200 360.0000 1.0000
48.6300 334.0000 1.0000
48.6400 394.0000 1.0000
48.6500 359.0000 1.0000
48.6600 359.0000 1.0000
48.6700 336.0000 1.0000
48.6800 346.0000 1.0000
48.6900 379.0000 1.0000
48.7000 348.0000 1.0000
48.7100 333.0000 1.0000
48.7200 349.0000 1.0000
48.7300 351.0000 1.0000
48.7400 314.0000 1.0000
48.7500 367.0000 1.0000
48.7600 363.0000 1.0000
48.7700 350.0000 1.0000
48.7800 343.0000 1.0000
48.7900 344.0000 1.0000
48.8000 360.0000 1.0000
48.8100 357.0000 1.0000
48.8200 333.0000 1.0000
48.8300 349.0000 1.0000
48.8400 347.0000 1.0000
48.8500 368.0000 1.0000
48.8600 336.0000 1.0000
48.8700 373.0000 1.0000
48.8800 336.0000 1.0000
48.8900 339.0000 1.0000
48.9000 357.0000 1.0000
48.9100 379.0000 1.0000
48.9200 340.0000 1.0000
48.9300 355.0000 1.0000
48.9400 365.0000 1.0000
48.9500 360.0000 1.0000
48.9600 350.0000 1.0000
48.9700 358.0000 1.0000
48.9800 367.0000 1.0000
48.9900 338.0000 1.0000
49.0000 335.0000 1.0000
49.0100 362.0000 1.0000
49.0200 339.0000 1.0000
49.0300 339.0000 1.0000
49.0400 333.0000 1.0000
49.0500 342.0000 1.0000
49.0600 350.0000 1.0000
49.0700 364.0000 1.0000
49.0800 350.0000 1.0000
49.0900 374.0000 1.0000
49.1000 365.0000 1.0000
49.1100 392.0000 1.0000
49.1200 359.0000 1.0000
49.1300 354.0000 1.0000
49.1400 374.0000 1.0000
49.1500 354.0000 1.0000
49.1600 373.0000 1.0000
49.1700 361.0000 1.0000
49.1800 368.0000 1.0000
49.1900 370.0000 1.0000
49.2000 378.0000 1.0000
49.2100 368.0000 1.0000
49.2200 363.0000 1.0000
49.2300 340.0000 1.0000
49.2400 350.0000 1.0000
49.2500 384.0000 1.0000
49.2600 346.0000 1.0000
49.2700 399.0000 1.0000
49.2800 417.0000 1.0000
49.2900 378.0000 1.0000
49.3000 381.0000 1.0000
49.3100 392.0000 1.0000
49.3200 388.0000 1.0000
49.3300 421.0000 1.0000
49.3400 410.0000 1.0000
49.3500 393.0000 1.0000
49.3600 410.0000 1.0000
49.3700 433.0000 1.0000
49.3800 455.0000 1.0000
49.3900 482.0000 1.0000
49.4000 440.0000 1.0000
49.4100 463.0000 1.0000
49.4200 450.0000 1.0000
49.4300 470.0000 1.0000
49.4400 491.0000 1.0000
49.4500 429.0000 1.0000
49.4600 449.0000 1.0000
49.4700 447.0000 1.0000
49.4800 415.0000 1.0000
49.4900 400.0000 1.0000
49.5000 423.0000 1.0000
49.5100 391.0000 1.0000
49.5200 426.0000 1.0000
49.5300 419.0000 1.0000
49.5400 429.0000 1.0000
49.5500 417.0000 1.0000
49.5600 419.0000 1.0000
49.5700 397.0000 1.0000
49.5800 397.0000 1.0000
49.5900 423.0000 1.0000
49.6000 374.0000 1.0000
49.6100 375.0000 1.0000
49.6200 378.0000 1.0000
49.6300 430.0000 1.0000
49.6400 354.0000 1.0000
49.6500 403.0000 1.0000
49.6600 364.0000 1.0000
49.6700 381.0000 1.0000
49.6800 399.0000 1.0000
49.6900 341.0000 1.0000
49.7000 366.0000 1.0000
49.7100 356.0000 1.0000
49.7200 336.0000 1.0000
49.7300 371.0000 1.0000
49.7400 331.0000 1.0000
49.7500 353.0000 1.0000
49.7600 340.0000 1.0000
49.7700 346.0000 1.0000
49.7800 338.0000 1.0000
49.7900 363.0000 1.0000
49.8000 366.0000 1.0000
49.8100 362.0000 1.0000
49.8200 335.0000 1.0000
49.8300 338.0000 1.0000
49.8400 338.0000 1.0000
49.8500 375.0000 1.0000
49.8600 358.0000 1.0000
49.8700 353.0000 1.0000
49.8800 352.0000 1.0000
49.8900 337.0000 1.0000
49.9000 336.0000 1.0000
49.9100 341.0000 1.0000
49.9200 367.0000 1.0000
49.9300 344.0000 1.0000
49.9400 346.0000 1.0000
49.9500 375.0000 1.0000
49.9600 346.0000 1.0000
49.9700 360.0000 1.0000
49.9800 353.0000 1.0000
49.9900 358.0000 1.0000
50.0000 334.0000 1.0000
50.0100 330.0000 1.0000
50.0200 324.0000 1.0000
50.0300 357.0000 1.0000
50.0400 335.0000 1.0000
50.0500 330.0000 1.0000
50.0600 311.0000 1.0000
50.0700 304.0000 1.0000
50.0800 344.0000 1.0000
50.0900 370.0000 1.0000
50.1000 345.0000 1.0000
50.1100 340.0000 1.0000
50.1200 349.0000 1.0000
50.1300 361.0000 1.0000
50.1400 347.0000 1.0000
50.1500 353.0000 1.0000
50.1600 360.0000 1.0000
50.1700 362.0000 1.0000
50.1800 373.0000 1.0000
50.1900 365.0000 1.0000
50.2000 317.0000 1.0000
50.2100 352.0000 1.0000
50.2200 340.0000 1.0000
50.2300 347.0000 1.0000
50.2400 342.0000 1.0000
50.2500 348.0000 1.0000
50.2600 337.0000 1.0000
50.2700 323.0000 1.0000
50.2800 355.0000 1.0000
50.2900 362.0000 1.0000
50.3000 338.0000 1.0000
50.3100 354.0000 1.0000
50.3200 357.0000 1.0000
50.3300 372.0000 1.0000
50.3400 354.0000 1.0000
50.3500 350.0000 1.0000
50.3600 339.0000 1.0000
50.3700 385.0000 1.0000
50.3800 354.0000 1.0000
50.3900 364.0000 1.0000
50.4000 361.0000 1.0000
50.4100 385.0000 1.0000
50.4200 337.0000 1.0000
50.4300 329.0000 1.0000
50.4400 331.0000 1.0000
50.4500 350.0000 1.0000
50.4600 377.0000 1.0000
50.4700 387.0000 1.0000
50.4800 347.0000 1.0000
50.4900 369.0000 1.0000
50.5000 360.0000 1.0000
50.5100 356.0000 1.0000
50.5200 338.0000 1.0000
50.5300 330.0000 1.0000
50.5400 343.0000 1.0000
50.5500 334.0000 1.0000
50.5600 345.0000 1.0000
50.5700 345.0000 1.0000
50.5800 348.0000 1.0000
50.5900 321.0000 1.0000
50.6000 336.0000 1.0000
50.6100 359.0000 1.0000
50.6200 337.0000 1.0000
50.6300 354.0000 1.0000
50.6400 367.0000 1.0000
50.6500 347.0000 1.0000
50.6600 347.0000 1.0000
50.6700 347.0000 1.0000
50.6800 343.0000 1.0000
50.6900 350.0000 1.0000
50.7000 381.0000 1.0000
50.7100 331.0000 1.0000
50.7200 340.0000 1.0000
50.7300 342.0000 1.0000
50.7400 323.0000 1.0000
50.7500 347.0000 1.0000
50.7600 358.0000 1.0000
50.7700 350.0000 1.0000
50.7800 364.0000 1.0000
50.7900 359.0000 1.0000
50.8000 349.0000 1.0000
50.8100 326.0000 1.0000
50.8200 337.0000 1.0000
50.8300 346.0000 1.0000
50.8400 362.0000 1.0000
50.8500 340.0000 1.0000
50.8600 336.0000 1.0000
50.8700 345.0000 1.0000
50.8800 369.0000 1.0000
50.8900 363.0000 1.0000
50.9000 366.0000 1.0000
50.9100 368.0000 1.0000
50.9200 398.0000 1.0000
50.9300 347.0000 1.0000
50.9400 347.0000 1.0000
50.9500 349.0000 1.0000
50.9600 337.0000 1.0000
50.9700 352.0000 1.0000
50.9800 383.0000 1.0000
50.9900 381.0000 1.0000
51.0000 403.0000 1.0000
51.0100 412.0000 1.0000
51.0200 370.0000 1.0000
51.0300 379.0000 1.0000
51.0400 361.0000 1.0000
51.0500 360.0000 1.0000
51.0600 351.0000 1.0000
51.0700 384.0000 1.0000
51.0800 358.0000 1.0000
51.0900 371.0000 1.0000
51.1000 371.0000 1.0000
51.1100 383.0000 1.0000
51.1200 406.0000 1.0000
51.1300 387.0000 1.0000
51.1400 396.0000 1.0000
51.1500 391.0000 1.0000
51.1600 410.0000 1.0000
51.1700 448.0000 1.0000
51.1800 403.0000 1.0000
51.1900 386.0000 1.0000
51.2000 396.0000 1.0000
51.2100 466.0000 1.0000
51.2200 457.0000 1.0000
51.2300 491.0000 1.0000
51.2400 447.0000 1.0000
51.2500 468.0000 1.0000
51.2600 483.0000 1.0000
51.2700 503.0000 1.0000
51.2800 553.0000 1.0000
51.2900 558.0000 1.0000
51.3000 541.0000 1.0000
51.3100 584.0000 1.0000
51.3200 569.0000 1.0000
51.3300 587.0000 1.0000
51.3400 623.0000 1.0000
51.3500 637.0000 1.0000
51.3600 627.0000 1.0000
51.3700 681.0000 1.0000
51.3800 770.0000 1.0000
51.3900 763.0000 1.0000
51.4000 806.0000 1.0000
51.4100 829.0000 1.0000
51.4200 881.0000 1.0000
51.4300 926.0000 1.0000
51.4400 940.0000 1.0000
51.4500 936.0000 1.0000
51.4600 962.0000 1.0000
51.4700 967.0000 1.0000
51.4800 997.0000 1.0000
51.4900 994.0000 1.0000
51.5000 992.0000 1.0000
51.5100 972.0000 1.0000
51.5200 921.0000 1.0000
51.5300 950.0000 1.0000
51.5400 911.0000 1.0000
51.5500 884.0000 1.0000
51.5600 917.0000 1.0000
51.5700 871.0000 1.0000
51.5800 849.0000 1.0000
51.5900 845.0000 1.0000
51.6000 813.0000 1.0000
51.6100 760.0000 1.0000
51.6200 753.0000 1.0000
51.6300 772.0000 1.0000
51.6400 762.0000 1.0000
51.6500 718.0000 1.0000
51.6600 694.0000 1.0000
51.6700 660.0000 1.0000
51.6800 622.0000 1.0000
51.6900 601.0000 1.0000
51.7000 598.0000 1.0000
51.7100 542.0000 1.0000
51.7200 521.0000 1.0000
51.7300 515.0000 1.0000
51.7400 517.0000 1.0000
51.7500 514.0000 1.0000
51.7600 485.0000 1.0000
51.7700 423.0000 1.0000
51.7800 489.0000 1.0000
51.7900 451.0000 1.0000
51.8000 463.0000 1.0000
51.8100 486.0000 1.0000
51.8200 456.0000 1.0000
51.8300 427.0000 1.0000
51.8400 439.0000 1.0000
51.8500 440.0000 1.0000
51.8600 432.0000 1.0000
51.8700 423.0000 1.0000
51.8800 410.0000 1.0000
51.8900 406.0000 1.0000
51.9000 406.0000 1.0000
51.9100 397.0000 1.0000
51.9200 393.0000 1.0000
51.9300 405.0000 1.0000
51.9400 396.0000 1.0000
51.9500 397.0000 1.0000
51.9600 395.0000 1.0000
51.9700 379.0000 1.0000
51.9800 392.0000 1.0000
51.9900 386.0000 1.0000
52.0000 387.0000 1.0000
52.0100 373.0000 1.0000
52.0200 362.0000 1.0000
52.0300 365.0000 1.0000
52.0400 397.0000 1.0000
52.0500 350.0000 1.0000
52.0600 355.0000 1.0000
52.0700 353.0000 1.0000
52.0800 362.0000 1.0000
52.0900 382.0000 1.0000
52.1000 358.0000 1.0000
52.1100 358.0000 1.0000
52.1200 351.0000 1.0000
52.1300 352.0000 1.0000
52.1400 344.0000 1.0000
52.1500 362.0000 1.0000
52.1600 389.0000 1.0000
52.1700 348.0000 1.0000
52.1800 360.0000 1.0000
52.1900 363.0000 1.0000
52.2000 374.0000 1.0000
52.2100 362.0000 1.0000
52.2200 364.0000 1.0000
52.2300 324.0000 1.0000
52.2400 349.0000 1.0000
52.2500 342.0000 1.0000
52.2600 344.0000 1.0000
52.2700 349.0000 1.0000
52.2800 321.0000 1.0000
52.2900 348.0000 1.0000
52.3000 351.0000 1.0000
52.3100 335.0000 1.0000
52.3200 341.0000 1.0000
52.3300 351.0000 1.0000
52.3400 325.0000 1.0000
52.3500 334.0000 1.0000
52.3600 330.0000 1.0000
52.3700 343.0000 1.0000
52.3800 360.0000 1.0000
52.3900 350.0000 1.0000
52.4000 338.0000 1.0000
52.4100 340.0000 1.0000
52.4200 355.0000 1.0000
52.4300 351.0000 1.0000
52.4400 341.0000 1.0000
52.4500 352.0000 1.0000
52.4600 349.0000 1.0000
52.4700 329.0000 1.0000
52.4800 342.0000 1.0000
52.4900 358.0000 1.0000
52.5000 345.0000 1.0000
52.5100 330.0000 1.0000
52.5200 357.0000 1.0000
52.5300 332.0000 1.0000
52.5400 345.0000 1.0000
52.5500 310.0000 1.0000
52.5600 315.0000 1.0000
52.5700 332.0000 1.0000
52.5800 354.0000 1.0000
52.5900 348.0000 1.0000
52.6000 332.0000 1.0000
52.6100 326.0000 1.0000
52.6200 339.0000 1.0000
52.6300 357.0000 1.0000
52.6400 353.0000 1.0000
52.6500 300.0000 1.0000
52.6600 343.0000 1.0000
52.6700 321.0000 1.0000
52.6800 347.0000 1.0000
52.6900 326.0000 1.0000
52.7000 349.0000 1.0000
52.7100 361.0000 1.0000
52.7200 351.0000 1.0000
52.7300 327.0000 1.0000
52.7400 341.0000 1.0000
52.7500 317.0000 1.0000
52.7600 310.0000 1.0000
52.7700 311.0000 1.0000
52.7800 300.0000 1.0000
52.7900 302.0000 1.0000
52.8000 317.0000 1.0000
52.8100 332.0000 1.0000
52.8200 347.0000 1.0000
52.8300 329.0000 1.0000
52.8400 329.0000 1.0000
52.8500 364.0000 1.0000
52.8600 311.0000 1.0000
52.8700 351.0000 1.0000
52.8800 343.0000 1.0000
52.8900 307.0000 1.0000
52.9000 328.0000 1.0000
52.9100 332.0000 1.0000
52.9200 320.0000 1.0000
52.9300 346.0000 1.0000
52.9400 328.0000 1.0000
52.9500 309.0000 1.0000
52.9600 322.0000 1.0000
52.9700 329.0000 1.0000
52.9800 325.0000 1.0000
52.9900 339.0000 1.0000
53.0000 328.0000 1.0000
53.0100 340.0000 1.0000
53.0200 300.0000 1.0000
53.0300 308.0000 1.0000
53.0400 327.0000 1.0000
53.0500 333.0000 1.0000
53.0600 370.0000 1.0000
53.0700 346.0000 1.0000
53.0800 324.0000 1.0000
53.0900 339.0000 1.0000
53.1000 303.0000 1.0000
53.1100 350.0000 1.0000
53.1200 342.0000 1.0000
53.1300 322.0000 1.0000
53.1400 333.0000 1.0000
53.1500 336.0000 1.0000
53.1600 326.0000 1.0000
53.1700 303.0000 1.0000
53.1800 324.0000 1.0000
53.1900 325.0000 1.0000
53.2000 313.0000 1.0000
53.2100 327.0000 1.0000
53.2200 327.0000 1.0000
53.2300 336.0000 1.0000
53.2400 345.0000 1.0000
53.2500 333.0000 1.0000
53.2600 333.0000 1.0000
53.2700 332.0000 1.0000
53.2800 342.0000 1.0000
53.2900 331.0000 1.0000
53.3000 325.0000 1.0000
53.3100 327.0000 1.0000
53.3200 319.0000 1.0000
53.3300 320.0000 1.0000
53.3400 297.0000 1.0000
53.3500 319.0000 1.0000
53.3600 327.0000 1.0000
53.3700 356.0000 1.0000
53.3800 354.0000 1.0000
53.3900 344.0000 1.0000
53.4000 343.0000 1.0000
53.4100 355.0000 1.0000
53.4200 328.0000 1.0000
53.4300 348.0000 1.0000
53.4400 345.0000 1.0000
53.4500 342.0000 1.0000
53.4600 328.0000 1.0000
53.4700 310.0000 1.0000
53.4800 339.0000 1.0000
53.4900 356.0000 1.0000
53.5000 349.0000 1.0000
53.5100 333.0000 1.0000
53.5200 314.0000 1.0000
53.5300 342.0000 1.0000
53.5400 359.0000 1.0000
53.5500 329.0000 1.0000
53.5600 349.0000 1.0000
53.5700 322.0000 1.0000
53.5800 324.0000 1.0000
53.5900 303.0000 1.0000
53.6000 324.0000 1.0000
53.6100 304.0000 1.0000
53.6200 330.0000 1.0000
53.6300 322.0000 1.0000
53.6400 328.0000 1.0000
53.6500 345.0000 1.0000
53.6600 353.0000 1.0000
53.6700 336.0000 1.0000
53.6800 313.0000 1.0000
53.6900 350.0000 1.0000
53.7000 393.0000 1.0000
53.7100 348.0000 1.0000
53.7200 347.0000 1.0000
53.7300 318.0000 1.0000
53.7400 352.0000 1.0000
53.7500 329.0000 1.0000
53.7600 341.0000 1.0000
53.7700 347.0000 1.0000
53.7800 347.0000 1.0000
53.7900 308.0000 1.0000
53.8000 308.0000 1.0000
53.8100 319.0000 1.0000
53.8200 364.0000 1.0000
53.8300 350.0000 1.0000
53.8400 366.0000 1.0000
53.8500 354.0000 1.0000
53.8600 384.0000 1.0000
53.8700 375.0000 1.0000
53.8800 350.0000 1.0000
53.8900 355.0000 1.0000
53.9000 363.0000 1.0000
53.9100 373.0000 1.0000
53.9200 400.0000 1.0000
53.9300 348.0000 1.0000
53.9400 376.0000 1.0000
53.9500 396.0000 1.0000
53.9600 373.0000 1.0000
53.9700 369.0000 1.0000
53.9800 410.0000 1.0000
53.9900 407.0000 1.0000
54.0000 387.0000 1.0000
54.0100 401.0000 1.0000
54.0200 426.0000 1.0000
54.0300 426.0000 1.0000
54.0400 382.0000 1.0000
54.0500 374.0000 1.0000
54.0600 408.0000 1.0000
54.0700 415.0000 1.0000
54.0800 401.0000 1.0000
54.0900 403.0000 1.0000
54.1000 402.0000 1.0000
54.1100 424.0000 1.0000
54.1200 391.0000 1.0000
54.1300 402.0000 1.0000
54.1400 360.0000 1.0000
54.1500 391.0000 1.0000
54.1600 411.0000 1.0000
54.1700 376.0000 1.0000
54.1800 368.0000 1.0000
54.1900 382.0000 1.0000
54.2000 362.0000 1.0000
54.2100 376.0000 1.0000
54.2200 356.0000 1.0000
54.2300 383.0000 1.0000
54.2400 375.0000 1.0000
54.2500 412.0000 1.0000
54.2600 405.0000 1.0000
54.2700 403.0000 1.0000
54.2800 353.0000 1.0000
54.2900 369.0000 1.0000
54.3000 392.0000 1.0000
54.3100 392.0000 1.0000
54.3200 386.0000 1.0000
54.3300 369.0000 1.0000
54.3400 399.0000 1.0000
54.3500 358.0000 1.0000
54.3600 344.0000 1.0000
54.3700 388.0000 1.0000
54.3800 403.0000 1.0000
54.3900 427.0000 1.0000
54.4000 362.0000 1.0000
54.4100 375.0000 1.0000
54.4200 369.0000 1.0000
54.4300 405.0000 1.0000
54.4400 373.0000 1.0000
54.4500 400.0000 1.0000
54.4600 421.0000 1.0000
54.4700 370.0000 1.0000
54.4800 355.0000 1.0000
54.4900 372.0000 1.0000
54.5000 418.0000 1.0000
54.5100 389.0000 1.0000
54.5200 388.0000 1.0000
54.5300 357.0000 1.0000
54.5400 361.0000 1.0000
54.5500 399.0000 1.0000
54.5600 413.0000 1.0000
54.5700 376.0000 1.0000
54.5800 396.0000 1.0000
54.5900 413.0000 1.0000
54.6000 355.0000 1.0000
54.6100 417.0000 1.0000
54.6200 375.0000 1.0000
54.6300 379.0000 1.0000
54.6400 378.0000 1.0000
54.6500 367.0000 1.0000
54.6600 362.0000 1.0000
54.6700 362.0000 1.0000
54.6800 384.0000 1.0000
54.6900 378.0000 1.0000
54.7000 388.0000 1.0000
54.7100 347.0000 1.0000
54.7200 392.0000 1.0000
54.7300 342.0000 1.0000
54.7400 364.0000 1.0000
54.7500 371.0000 1.0000
54.7600 370.0000 1.0000
54.7700 347.0000 1.0000
54.7800 360.0000 1.0000
54.7900 372.0000 1.0000
54.8000 363.0000 1.0000
54.8100 355.0000 1.0000
54.8200 362.0000 1.0000
54.8300 338.0000 1.0000
54.8400 336.0000 1.0000
54.8500 331.0000 1.0000
54.8600 351.0000 1.0000
54.8700 332.0000 1.0000
54.8800 325.0000 1.0000
54.8900 344.0000 1.0000
54.9000 333.0000 1.0000
54.9100 392.0000 1.0000
54.9200 352.0000 1.0000
54.9300 343.0000 1.0000
54.9400 345.0000 1.0000
54.9500 338.0000 1.0000
54.9600 346.0000 1.0000
54.9700 321.0000 1.0000
54.9800 359.0000 1.0000
54.9900 348.0000 1.0000
55.0000 360.0000 1.0000
55.0100 334.0000 1.0000
55.0200 352.0000 1.0000
55.0300 323.0000 1.0000
55.0400 326.0000 1.0000
55.0500 308.0000 1.0000
55.0600 325.0000 1.0000
55.0700 337.0000 1.0000
55.0800 329.0000 1.0000
55.0900 304.0000 1.0000
55.1000 330.0000 1.0000
55.1100 320.0000 1.0000
55.1200 340.0000 1.0000
55.1300 343.0000 1.0000
55.1400 318.0000 1.0000
55.1500 337.0000 1.0000
55.1600 373.0000 1.0000
55.1700 338.0000 1.0000
55.1800 332.0000 1.0000
55.1900 338.0000 1.0000
55.2000 337.0000 1.0000
55.2100 322.0000 1.0000
55.2200 311.0000 1.0000
55.2300 315.0000 1.0000
55.2400 322.0000 1.0000
55.2500 312.0000 1.0000
55.2600 305.0000 1.0000
55.2700 332.0000 1.0000
55.2800 344.0000 1.0000
55.2900 352.0000 1.0000
55.3000 342.0000 1.0000
55.3100 336.0000 1.0000
55.3200 331.0000 1.0000
55.3300 311.0000 1.0000
55.3400 354.0000 1.0000
55.3500 328.0000 1.0000
55.3600 344.0000 1.0000
55.3700 325.0000 1.0000
55.3800 308.0000 1.0000
55.3900 324.0000 1.0000
55.4000 321.0000 1.0000
55.4100 320.0000 1.0000
55.4200 303.0000 1.0000
55.4300 313.0000 1.0000
55.4400 332.0000 1.0000
55.4500 311.0000 1.0000
55.4600 317.0000 1.0000
55.4700 313.0000 1.0000
55.4800 308.0000 1.0000
55.4900 325.0000 1.0000
55.5000 317.0000 1.0000
55.5100 340.0000 1.0000
55.5200 347.0000 1.0000
55.5300 326.0000 1.0000
55.5400 346.0000 1.0000
55.5500 333.0000 1.0000
55.5600 315.0000 1.0000
55.5700 339.0000 1.0000
55.5800 332.0000 1.0000
55.5900 295.0000 1.0000
55.6000 331.0000 1.0000
55.6100 328.0000 1.0000
55.6200 320.0000 1.0000
55.6300 316.0000 1.0000
55.6400 350.0000 1.0000
55.6500 285.0000 1.0000
55.6600 302.0000 1.0000
55.6700 333.0000 1.0000
55.6800 329.0000 1.0000
55.6900 318.0000 1.0000
55.7000 357.0000 1.0000
55.7100 310.0000 1.0000
55.7200 326.0000 1.0000
55.7300 317.0000 1.0000
55.7400 311.0000 1.0000
55.7500 340.0000 1.0000
55.7600 329.0000 1.0000
55.7700 308.0000 1.0000
55.7800 308.0000 1.0000
55.7900 312.0000 1.0000
55.8000 320.0000 1.0000
55.8100 309.0000 1.0000
55.8200 324.0000 1.0000
55.8300 332.0000 1.0000
55.8400 317.0000 1.0000
55.8500 315.0000 1.0000
55.8600 290.0000 1.0000
55.8700 316.0000 1.0000
55.8800 305.0000 1.0000
55.8900 314.0000 1.0000
55.9000 310.0000 1.0000
55.9100 319.0000 1.0000
55.9200 350.0000 1.0000
55.9300 307.0000 1.0000
55.9400 331.0000 1.0000
55.9500 296.0000 1.0000
55.9600 358.0000 1.0000
55.9700 305.0000 1.0000
55.9800 324.0000 1.0000
55.9900 283.0000 1.0000
56.0000 321.0000 1.0000
56.0100 306.0000 1.0000
56.0200 331.0000 1.0000
56.0300 301.0000 1.0000
56.0400 318.0000 1.0000
56.0500 339.0000 1.0000
56.0600 316.0000 1.0000
56.0700 324.0000 1.0000
56.0800 323.0000 1.0000
56.0900 311.0000 1.0000
56.1000 324.0000 1.0000
56.1100 302.0000 1.0000
56.1200 328.0000 1.0000
56.1300 345.0000 1.0000
56.1400 306.0000 1.0000
56.1500 309.0000 1.0000
56.1600 315.0000 1.0000
56.1700 335.0000 1.0000
56.1800 316.0000 1.0000
56.1900 312.0000 1.0000
56.2000 306.0000 1.0000
56.2100 335.0000 1.0000
56.2200 330.0000 1.0000
56.2300 318.0000 1.0000
56.2400 301.0000 1.0000
56.2500 301.0000 1.0000
56.2600 331.0000 1.0000
56.2700 332.0000 1.0000
56.2800 323.0000 1.0000
56.2900 342.0000 1.0000
56.3000 320.0000 1.0000
56.3100 309.0000 1.0000
56.3200 317.0000 1.0000
56.3300 317.0000 1.0000
56.3400 302.0000 1.0000
56.3500 317.0000 1.0000
56.3600 295.0000 1.0000
56.3700 307.0000 1.0000
56.3800 292.0000 1.0000
56.3900 312.0000 1.0000
56.4000 336.0000 1.0000
56.4100 337.0000 1.0000
56.4200 301.0000 1.0000
56.4300 319.0000 1.0000
56.4400 336.0000 1.0000
56.4500 342.0000 1.0000
56.4600 305.0000 1.0000
56.4700 300.0000 1.0000
56.4800 311.0000 1.0000
56.4900 334.0000 1.0000
56.5000 310.0000 1.0000
56.5100 296.0000 1.0000
56.5200 319.0000 1.0000
56.5300 331.0000 1.0000
56.5400 314.0000 1.0000
56.5500 300.0000 1.0000
56.5600 293.0000 1.0000
56.5700 321.0000 1.0000
56.5800 327.0000 1.0000
56.5900 328.0000 1.0000
56.6000 334.0000 1.0000
56.6100 317.0000 1.0000
56.6200 317.0000 1.0000
56.6300 323.0000 1.0000
56.6400 295.0000 1.0000
56.6500 342.0000 1.0000
56.6600 336.0000 1.0000
56.6700 306.0000 1.0000
56.6800 311.0000 1.0000
56.6900 346.0000 1.0000
56.7000 306.0000 1.0000
56.7100 308.0000 1.0000
56.7200 326.0000 1.0000
56.7300 304.0000 1.0000
56.7400 304.0000 1.0000
56.7500 311.0000 1.0000
56.7600 321.0000 1.0000
56.7700 331.0000 1.0000
56.7800 322.0000 1.0000
56.7900 325.0000 1.0000
56.8000 288.0000 1.0000
56.8100 316.0000 1.0000
56.8200 305.0000 1.0000
56.8300 296.0000 1.0000
56.8400 319.0000 1.0000
56.8500 313.0000 1.0000
56.8600 330.0000 1.0000
56.8700 308.0000 1.0000
56.8800 314.0000 1.0000
56.8900 304.0000 1.0000
56.9000 321.0000 1.0000
56.9100 312.0000 1.0000
56.9200 325.0000 1.0000
56.9300 316.0000 1.0000
56.9400 304.0000 1.0000
56.9500 294.0000 1.0000
56.9600 311.0000 1.0000
56.9700 317.0000 1.0000
56.9800 338.0000 1.0000
56.9900 313.0000 1.0000
57.0000 313.0000 1.0000
57.0100 345.0000 1.0000
57.0200 335.0000 1.0000
57.0300 332.0000 1.0000
57.0400 305.0000 1.0000
57.0500 324.0000 1.0000
57.0600 322.0000 1.0000
57.0700 315.0000 1.0000
57.0800 310.0000 1.0000
57.0900 329.0000 1.0000
57.1000 307.0000 1.0000
57.1100 306.0000 1.0000
57.1200 314.0000 1.0000
57.1300 296.0000 1.0000
57.1400 313.0000 1.0000
57.1500 283.0000 1.0000
57.1600 348.0000 1.0000
57.1700 309.0000 1.0000
57.1800 309.0000 1.0000
57.1900 322.0000 1.0000
57.2000 319.0000 1.0000
57.2100 309.0000 1.0000
57.2200 335.0000 1.0000
57.2300 330.0000 1.0000
57.2400 327.0000 1.0000
57.2500 344.0000 1.0000
57.2600 334.0000 1.0000
57.2700 322.0000 1.0000
57.2800 298.0000 1.0000
57.2900 325.0000 1.0000
57.3000 318.0000 1.0000
57.3100 298.0000 1.0000
57.3200 342.0000 1.0000
57.3300 332.0000 1.0000
57.3400 325.0000 1.0000
57.3500 318.0000 1.0000
57.3600 321.0000 1.0000
57.3700 329.0000 1.0000
57.3800 350.0000 1.0000
57.3900 332.0000 1.0000
57.4000 319.0000 1.0000
57.4100 306.0000 1.0000
57.4200 316.0000 1.0000
57.4300 327.0000 1.0000
57.4400 348.0000 1.0000
57.4500 325.0000 1.0000
57.4600 350.0000 1.0000
57.4700 324.0000 1.0000
57.4800 333.0000 1.0000
57.4900 334.0000 1.0000
57.5000 344.0000 1.0000
57.5100 321.0000 1.0000
57.5200 336.0000 1.0000
57.5300 361.0000 1.0000
57.5400 321.0000 1.0000
57.5500 285.0000 1.0000
57.5600 325.0000 1.0000
57.5700 314.0000 1.0000
57.5800 343.0000 1.0000
57.5900 343.0000 1.0000
57.6000 344.0000 1.0000
57.6100 338.0000 1.0000
57.6200 285.0000 1.0000
57.6300 306.0000 1.0000
57.6400 332.0000 1.0000
57.6500 339.0000 1.0000
57.6600 308.0000 1.0000
57.6700 311.0000 1.0000
57.6800 304.0000 1.0000
57.6900 328.0000 1.0000
57.7000 330.0000 1.0000
57.7100 315.0000 1.0000
57.7200 303.0000 1.0000
57.7300 311.0000 1.0000
57.7400 315.0000 1.0000
57.7500 346.0000 1.0000
57.7600 337.0000 1.0000
57.7700 314.0000 1.0000
57.7800 326.0000 1.0000
57.7900 330.0000 1.0000
57.8000 334.0000 1.0000
57.8100 291.0000 1.0000
57.8200 316.0000 1.0000
57.8300 329.0000 1.0000
57.8400 291.0000 1.0000
57.8500 292.0000 1.0000
57.8600 305.0000 1.0000
57.8700 317.0000 1.0000
57.8800 323.0000 1.0000
57.8900 331.0000 1.0000
57.9000 342.0000 1.0000
57.9100 315.0000 1.0000
57.9200 323.0000 1.0000
57.9300 330.0000 1.0000
57.9400 311.0000 1.0000
57.9500 309.0000 1.0000
57.9600 323.0000 1.0000
57.9700 331.0000 1.0000
57.9800 330.0000 1.0000
57.9900 296.0000 1.0000
58.0000 314.0000 1.0000
58.0100 300.0000 1.0000
58.0200 333.0000 1.0000
58.0300 311.0000 1.0000
58.0400 329.0000 1.0000
58.0500 300.0000 1.0000
58.0600 289.0000 1.0000
58.0700 313.0000 1.0000
58.0800 318.0000 1.0000
58.0900 273.0000 1.0000
58.1000 315.0000 1.0000
58.1100 319.0000 1.0000
58.1200 301.0000 1.0000
58.1300 299.0000 1.0000
58.1400 317.0000 1.0000
58.1500 311.0000 1.0000
58.1600 298.0000 1.0000
58.1700 312.0000 1.0000
58.1800 303.0000 1.0000
58.1900 307.0000 1.0000
58.2000 293.0000 1.0000
58.2100 313.0000 1.0000
58.2200 348.0000 1.0000
58.2300 310.0000 1.0000
58.2400 324.0000 1.0000
58.2500 306.0000 1.0000
58.2600 303.0000 1.0000
58.2700 300.0000 1.0000
58.2800 330.0000 1.0000
58.2900 316.0000 1.0000
58.3000 324.0000 1.0000
58.3100 339.0000 1.0000
58.3200 313.0000 1.0000
58.3300 327.0000 1.0000
58.3400 301.0000 1.0000
58.3500 322.0000 1.0000
58.3600 313.0000 1.0000
58.3700 291.0000 1.0000
58.3800 307.0000 1.0000
58.3900 312.0000 1.0000
58.4000 320.0000 1.0000
58.4100 296.0000 1.0000
58.4200 311.0000 1.0000
58.4300 342.0000 1.0000
58.4400 341.0000 1.0000
58.4500 320.0000 1.0000
58.4600 316.0000 1.0000
58.4700 288.0000 1.0000
58.4800 300.0000 1.0000
58.4900 322.0000 1.0000
58.5000 304.0000 1.0000
58.5100 311.0000 1.0000
58.5200 328.0000 1.0000
58.5300 309.0000 1.0000
58.5400 319.0000 1.0000
58.5500 325.0000 1.0000
58.5600 331.0000 1.0000
58.5700 320.0000 1.0000
58.5800 340.0000 1.0000
58.5900 342.0000 1.0000
58.6000 337.0000 1.0000
58.6100 294.0000 1.0000
58.6200 319.0000 1.0000
58.6300 307.0000 1.0000
58.6400 338.0000 1.0000
58.6500 332.0000 1.0000
58.6600 321.0000 1.0000
58.6700 312.0000 1.0000
58.6800 301.0000 1.0000
58.6900 310.0000 1.0000
58.7000 282.0000 1.0000
58.7100 345.0000 1.0000
58.7200 355.0000 1.0000
58.7300 319.0000 1.0000
58.7400 292.0000 1.0000
58.7500 318.0000 1.0000
58.7600 285.0000 1.0000
58.7700 334.0000 1.0000
58.7800 328.0000 1.0000
58.7900 307.0000 1.0000
58.8000 317.0000 1.0000
58.8100 318.0000 1.0000
58.8200 323.0000 1.0000
58.8300 301.0000 1.0000
58.8400 314.0000 1.0000
58.8500 298.0000 1.0000
58.8600 311.0000 1.0000
58.8700 348.0000 1.0000
58.8800 354.0000 1.0000
58.8900 331.0000 1.0000
58.9000 319.0000 1.0000
58.9100 314.0000 1.0000
58.9200 316.0000 1.0000
58.9300 319.0000 1.0000
58.9400 299.0000 1.0000
58.9500 335.0000 1.0000
58.9600 298.0000 1.0000
58.9700 315.0000 1.0000
58.9800 325.0000 1.0000
58.9900 340.0000 1.0000
59.0000 315.0000 1.0000
59.0100 306.0000 1.0000
59.0200 329.0000 1.0000
59.0300 291.0000 1.0000
59.0400 314.0000 1.0000
59.0500 304.0000 1.0000
59.0600 301.0000 1.0000
59.0700 352.0000 1.0000
59.0800 335.0000 1.0000
59.0900 312.0000 1.0000
59.1000 338.0000 1.0000
59.1100 302.0000 1.0000
59.1200 334.0000 1.0000
59.1300 331.0000 1.0000
59.1400 284.0000 1.0000
59.1500 306.0000 1.0000
59.1600 311.0000 1.0000
59.1700 300.0000 1.0000
59.1800 306.0000 1.0000
59.1900 288.0000 1.0000
59.2000 298.0000 1.0000
59.2100 305.0000 1.0000
59.2200 305.0000 1.0000
59.2300 288.0000 1.0000
59.2400 323.0000 1.0000
59.2500 326.0000 1.0000
59.2600 309.0000 1.0000
59.2700 337.0000 1.0000
59.2800 308.0000 1.0000
59.2900 327.0000 1.0000
59.3000 282.0000 1.0000
59.3100 280.0000 1.0000
59.3200 318.0000 1.0000
59.3300 296.0000 1.0000
59.3400 340.0000 1.0000
59.3500 329.0000 1.0000
59.3600 321.0000 1.0000
59.3700 289.0000 1.0000
59.3800 296.0000 1.0000
59.3900 339.0000 1.0000
59.4000 340.0000 1.0000
59.4100 332.0000 1.0000
59.4200 307.0000 1.0000
59.4300 308.0000 1.0000
59.4400 294.0000 1.0000
59.4500 304.0000 1.0000
59.4600 329.0000 1.0000
59.4700 317.0000 1.0000
59.4800 296.0000 1.0000
59.4900 320.0000 1.0000
59.5000 315.0000 1.0000
59.5100 309.0000 1.0000
59.5200 304.0000 1.0000
59.5300 299.0000 1.0000
59.5400 289.0000 1.0000
59.5500 299.0000 1.0000
59.5600 292.0000 1.0000
59.5700 311.0000 1.0000
59.5800 311.0000 1.0000
59.5900 302.0000 1.0000
59.6000 294.0000 1.0000
59.6100 303.0000 1.0000
59.6200 320.0000 1.0000
59.6300 314.0000 1.0000
59.6400 319.0000 1.0000
59.6500 293.0000 1.0000
59.6600 302.0000 1.0000
59.6700 288.0000 1.0000
59.6800 305.0000 1.0000
59.6900 297.0000 1.0000
59.7000 313.0000 1.0000
59.7100 301.0000 1.0000
59.7200 278.0000 1.0000
59.7300 321.0000 1.0000
59.7400 323.0000 1.0000
59.7500 290.0000 1.0000
59.7600 309.0000 1.0000
59.7700 338.0000 1.0000
59.7800 293.0000 1.0000
59.7900 314.0000 1.0000
59.8000 302.0000 1.0000
59.8100 293.0000 1.0000
59.8200 327.0000 1.0000
59.8300 306.0000 1.0000
59.8400 305.0000 1.0000
59.8500 295.0000 1.0000
59.8600 302.0000 1.0000
59.8700 297.0000 1.0000
59.8800 311.0000 1.0000
59.8900 301.0000 1.0000
59.9000 302.0000 1.0000
59.9100 286.0000 1.0000
59.9200 300.0000 1.0000
59.9300 285.0000 1.0000
59.9400 309.0000 1.0000
59.9500 309.0000 1.0000
59.9600 326.0000 1.0000
59.9700 314.0000 1.0000
59.9800 307.0000 1.0000
59.9900 284.0000 1.0000
60.0000 298.0000 1.0000
60.0100 292.0000 1.0000
60.0200 310.0000 1.0000
60.0300 335.0000 1.0000
60.0400 308.0000 1.0000
60.0500 308.0000 1.0000
60.0600 281.0000 1.0000
60.0700 307.0000 1.0000
60.0800 310.0000 1.0000
60.0900 320.0000 1.0000
60.1000 309.0000 1.0000
60.1100 334.0000 1.0000
60.1200 317.0000 1.0000
60.1300 294.0000 1.0000
60.1400 282.0000 1.0000
60.1500 302.0000 1.0000
60.1600 300.0000 1.0000
60.1700 301.0000 1.0000
60.1800 294.0000 1.0000
60.1900 291.0000 1.0000
60.2000 306.0000 1.0000
60.2100 307.0000 1.0000
60.2200 296.0000 1.0000
60.2300 299.0000 1.0000
60.2400 324.0000 1.0000
60.2500 309.0000 1.0000
60.2600 334.0000 1.0000
60.2700 294.0000 1.0000
60.2800 318.0000 1.0000
60.2900 323.0000 1.0000
60.3000 323.0000 1.0000
60.3100 301.0000 1.0000
60.3200 301.0000 1.0000
60.3300 328.0000 1.0000
60.3400 321.0000 1.0000
60.3500 348.0000 1.0000
60.3600 320.0000 1.0000
60.3700 300.0000 1.0000
60.3800 312.0000 1.0000
60.3900 308.0000 1.0000
60.4000 311.0000 1.0000
60.4100 336.0000 1.0000
60.4200 307.0000 1.0000
60.4300 333.0000 1.0000
60.4400 339.0000 1.0000
60.4500 296.0000 1.0000
60.4600 302.0000 1.0000
60.4700 309.0000 1.0000
60.4800 312.0000 1.0000
60.4900 324.0000 1.0000
60.5000 303.0000 1.0000
60.5100 313.0000 1.0000
60.5200 354.0000 1.0000
60.5300 330.0000 1.0000
60.5400 308.0000 1.0000
60.5500 325.0000 1.0000
60.5600 328.0000 1.0000
60.5700 356.0000 1.0000
60.5800 312.0000 1.0000
60.5900 333.0000 1.0000
60.6000 304.0000 1.0000
60.6100 335.0000 1.0000
60.6200 338.0000 1.0000
60.6300 303.0000 1.0000
60.6400 293.0000 1.0000
60.6500 293.0000 1.0000
60.6600 322.0000 1.0000
60.6700 321.0000 1.0000
60.6800 302.0000 1.0000
60.6900 309.0000 1.0000
60.7000 316.0000 1.0000
60.7100 337.0000 1.0000
60.7200 285.0000 1.0000
60.7300 349.0000 1.0000
60.7400 343.0000 1.0000
60.7500 335.0000 1.0000
60.7600 323.0000 1.0000
60.7700 320.0000 1.0000
60.7800 329.0000 1.0000
60.7900 309.0000 1.0000
60.8000 300.0000 1.0000
60.8100 351.0000 1.0000
60.8200 321.0000 1.0000
60.8300 315.0000 1.0000
60.8400 327.0000 1.0000
60.8500 302.0000 1.0000
60.8600 327.0000 1.0000
60.8700 326.0000 1.0000
60.8800 320.0000 1.0000
60.8900 340.0000 1.0000
60.9000 370.0000 1.0000
60.9100 325.0000 1.0000
60.9200 335.0000 1.0000
60.9300 322.0000 1.0000
60.9400 331.0000 1.0000
60.9500 332.0000 1.0000
60.9600 354.0000 1.0000
60.9700 323.0000 1.0000
60.9800 333.0000 1.0000
60.9900 363.0000 1.0000
61.0000 330.0000 1.0000
61.0100 333.0000 1.0000
61.0200 329.0000 1.0000
61.0300 345.0000 1.0000
61.0400 350.0000 1.0000
61.0500 332.0000 1.0000
61.0600 351.0000 1.0000
61.0700 326.0000 1.0000
61.0800 355.0000 1.0000
61.0900 374.0000 1.0000
61.1000 312.0000 1.0000
61.1100 370.0000 1.0000
61.1200 375.0000 1.0000
61.1300 360.0000 1.0000
61.1400 340.0000 1.0000
61.1500 321.0000 1.0000
61.1600 367.0000 1.0000
61.1700 361.0000 1.0000
61.1800 360.0000 1.0000
61.1900 358.0000 1.0000
61.2000 341.0000 1.0000
61.2100 390.0000 1.0000
61.2200 380.0000 1.0000
61.2300 381.0000 1.0000
61.2400 361.0000 1.0000
61.2500 381.0000 1.0000
61.2600 370.0000 1.0000
61.2700 362.0000 1.0000
61.2800 385.0000 1.0000
61.2900 402.0000 1.0000
61.3000 420.0000 1.0000
61.3100 411.0000 1.0000
61.3200 406.0000 1.0000
61.3300 398.0000 1.0000
61.3400 429.0000 1.0000
61.3500 407.0000 1.0000
61.3600 426.0000 1.0000
61.3700 452.0000 1.0000
61.3800 447.0000 1.0000
61.3900 447.0000 1.0000
61.4000 500.0000 1.0000
61.4100 528.0000 1.0000
61.4200 494.0000 1.0000
61.4300 502.0000 1.0000
61.4400 477.0000 1.0000
61.4500 520.0000 1.0000
61.4600 552.0000 1.0000
61.4700 542.0000 1.0000
61.4800 534.0000 1.0000
61.4900 560.0000 1.0000
61.5000 579.0000 1.0000
61.5100 593.0000 1.0000
61.5200 571.0000 1.0000
61.5300 571.0000 1.0000
61.5400 577.0000 1.0000
61.5500 595.0000 1.0000
61.5600 579.0000 1.0000
61.5700 596.0000 1.0000
61.5800 598.0000 1.0000
61.5900 639.0000 1.0000
61.6000 609.0000 1.0000
61.6100 579.0000 1.0000
61.6200 550.0000 1.0000
61.6300 586.0000 1.0000
61.6400 591.0000 1.0000
61.6500 622.0000 1.0000
61.6600 578.0000 1.0000
61.6700 573.0000 1.0000
61.6800 564.0000 1.0000
61.6900 557.0000 1.0000
61.7000 588.0000 1.0000
61.7100 556.0000 1.0000
61.7200 544.0000 1.0000
61.7300 520.0000 1.0000
61.7400 522.0000 1.0000
61.7500 534.0000 1.0000
61.7600 518.0000 1.0000
61.7700 529.0000 1.0000
61.7800 520.0000 1.0000
61.7900 498.0000 1.0000
61.8000 501.0000 1.0000
61.8100 495.0000 1.0000
61.8200 484.0000 1.0000
61.8300 479.0000 1.0000
61.8400 474.0000 1.0000
61.8500 449.0000 1.0000
61.8600 437.0000 1.0000
61.8700 428.0000 1.0000
61.8800 442.0000 1.0000
61.8900 401.0000 1.0000
61.9000 463.0000 1.0000
61.9100 428.0000 1.0000
61.9200 413.0000 1.0000
61.9300 396.0000 1.0000
61.9400 401.0000 1.0000
61.9500 449.0000 1.0000
61.9600 424.0000 1.0000
61.9700 397.0000 1.0000
61.9800 423.0000 1.0000
61.9900 386.0000 1.0000
62.0000 372.0000 1.0000
62.0100 375.0000 1.0000
62.0200 391.0000 1.0000
62.0300 360.0000 1.0000
62.0400 369.0000 1.0000
62.0500 391.0000 1.0000
62.0600 406.0000 1.0000
62.0700 353.0000 1.0000
62.0800 364.0000 1.0000
62.0900 347.0000 1.0000
62.1000 389.0000 1.0000
62.1100 349.0000 1.0000
62.1200 373.0000 1.0000
62.1300 386.0000 1.0000
62.1400 379.0000 1.0000
62.1500 363.0000 1.0000
62.1600 373.0000 1.0000
62.1700 366.0000 1.0000
62.1800 367.0000 1.0000
62.1900 365.0000 1.0000
62.2000 372.0000 1.0000
62.2100 347.0000 1.0000
62.2200 365.0000 1.0000
62.2300 363.0000 1.0000
62.2400 345.0000 1.0000
62.2500 362.0000 1.0000
62.2600 357.0000 1.0000
62.2700 366.0000 1.0000
62.2800 394.0000 1.0000
62.2900 374.0000 1.0000
62.3000 361.0000 1.0000
62.3100 392.0000 1.0000
62.3200 398.0000 1.0000
62.3300 385.0000 1.0000
62.3400 385.0000 1.0000
62.3500 395.0000 1.0000
62.3600 425.0000 1.0000
62.3700 412.0000 1.0000
62.3800 416.0000 1.0000
62.3900 411.0000 1.0000
62.4000 371.0000 1.0000
62.4100 372.0000 1.0000
62.4200 395.0000 1.0000
62.4300 382.0000 1.0000
62.4400 393.0000 1.0000
62.4500 404.0000 1.0000
62.4600 377.0000 1.0000
62.4700 370.0000 1.0000
62.4800 400.0000 1.0000
62.4900 389.0000 1.0000
62.5000 356.0000 1.0000
62.5100 340.0000 1.0000
62.5200 369.0000 1.0000
62.5300 387.0000 1.0000
62.5400 367.0000 1.0000
62.5500 361.0000 1.0000
62.5600 366.0000 1.0000
62.5700 361.0000 1.0000
62.5800 349.0000 1.0000
62.5900 350.0000 1.0000
62.6000 372.0000 1.0000
62.6100 325.0000 1.0000
62.6200 343.0000 1.0000
62.6300 329.0000 1.0000
62.6400 341.0000 1.0000
62.6500 334.0000 1.0000
62.6600 333.0000 1.0000
62.6700 335.0000 1.0000
62.6800 353.0000 1.0000
62.6900 327.0000 1.0000
62.7000 341.0000 1.0000
62.7100 329.0000 1.0000
62.7200 323.0000 1.0000
62.7300 323.0000 1.0000
62.7400 344.0000 1.0000
62.7500 315.0000 1.0000
62.7600 318.0000 1.0000
62.7700 347.0000 1.0000
62.7800 310.0000 1.0000
62.7900 316.0000 1.0000
62.8000 335.0000 1.0000
62.8100 328.0000 1.0000
62.8200 334.0000 1.0000
62.8300 335.0000 1.0000
62.8400 326.0000 1.0000
62.8500 323.0000 1.0000
62.8600 310.0000 1.0000
62.8700 321.0000 1.0000
62.8800 300.0000 1.0000
62.8900 297.0000 1.0000
62.9000 320.0000 1.0000
62.9100 305.0000 1.0000
62.9200 288.0000 1.0000
62.9300 334.0000 1.0000
62.9400 308.0000 1.0000
62.9500 313.0000 1.0000
62.9600 304.0000 1.0000
62.9700 310.0000 1.0000
62.9800 317.0000 1.0000
62.9900 298.0000 1.0000
63.0000 306.0000 1.0000
63.0100 342.0000 1.0000
63.0200 335.0000 1.0000
63.0300 312.0000 1.0000
63.0400 317.0000 1.0000
63.0500 327.0000 1.0000
63.0600 327.0000 1.0000
63.0700 334.0000 1.0000
63.0800 322.0000 1.0000
63.0900 326.0000 1.0000
63.1000 313.0000 1.0000
63.1100 319.0000 1.0000
63.1200 311.0000 1.0000
63.1300 321.0000 1.0000
63.1400 328.0000 1.0000
63.1500 302.0000 1.0000
63.1600 314.0000 1.0000
63.1700 315.0000 1.0000
63.1800 295.0000 1.0000
63.1900 323.0000 1.0000
63.2000 335.0000 1.0000
63.2100 329.0000 1.0000
63.2200 294.0000 1.0000
63.2300 312.0000 1.0000
63.2400 331.0000 1.0000
63.2500 302.0000 1.0000
63.2600 293.0000 1.0000
63.2700 325.0000 1.0000
63.2800 330.0000 1.0000
63.2900 339.0000 1.0000
63.3000 322.0000 1.0000
63.3100 294.0000 1.0000
63.3200 300.0000 1.0000
63.3300 297.0000 1.0000
63.3400 312.0000 1.0000
63.3500 295.0000 1.0000
63.3600 330.0000 1.0000
63.3700 321.0000 1.0000
63.3800 319.0000 1.0000
63.3900 335.0000 1.0000
63.4000 328.0000 1.0000
63.4100 304.0000 1.0000
63.4200 300.0000 1.0000
63.4300 294.0000 1.0000
63.4400 324.0000 1.0000
63.4500 318.0000 1.0000
63.4600 304.0000 1.0000
63.4700 302.0000 1.0000
63.4800 317.0000 1.0000
63.4900 327.0000 1.0000
63.5000 344.0000 1.0000
63.5100 334.0000 1.0000
63.5200 319.0000 1.0000
63.5300 318.0000 1.0000
63.5400 310.0000 1.0000
63.5500 317.0000 1.0000
63.5600 312.0000 1.0000
63.5700 293.0000 1.0000
63.5800 322.0000 1.0000
63.5900 311.0000 1.0000
63.6000 325.0000 1.0000
63.6100 294.0000 1.0000
63.6200 318.0000 1.0000
63.6300 309.0000 1.0000
63.6400 295.0000 1.0000
63.6500 308.0000 1.0000
63.6600 297.0000 1.0000
63.6700 338.0000 1.0000
63.6800 330.0000 1.0000
63.6900 318.0000 1.0000
63.7000 322.0000 1.0000
63.7100 357.0000 1.0000
63.7200 353.0000 1.0000
63.7300 343.0000 1.0000
63.7400 328.0000 1.0000
63.7500 338.0000 1.0000
63.7600 334.0000 1.0000
63.7700 338.0000 1.0000
63.7800 318.0000 1.0000
63.7900 347.0000 1.0000
63.8000 321.0000 1.0000
63.8100 333.0000 1.0000
63.8200 382.0000 1.0000
63.8300 368.0000 1.0000
63.8400 360.0000 1.0000
63.8500 382.0000 1.0000
63.8600 406.0000 1.0000
63.8700 399.0000 1.0000
63.8800 386.0000 1.0000
63.8900 392.0000 1.0000
63.9000 411.0000 1.0000
63.9100 420.0000 1.0000
63.9200 419.0000 1.0000
63.9300 419.0000 1.0000
63.9400 422.0000 1.0000
63.9500 458.0000 1.0000
63.9600 449.0000 1.0000
63.9700 445.0000 1.0000
63.9800 438.0000 1.0000
63.9900 416.0000 1.0000
64.0000 433.0000 1.0000
64.0100 413.0000 1.0000
64.0200 413.0000 1.0000
64.0300 413.0000 1.0000
64.0400 432.0000 1.0000
64.0500 401.0000 1.0000
64.0600 410.0000 1.0000
64.0700 404.0000 1.0000
64.0800 381.0000 1.0000
64.0900 396.0000 1.0000
64.1000 378.0000 1.0000
64.1100 412.0000 1.0000
64.1200 419.0000 1.0000
64.1300 409.0000 1.0000
64.1400 390.0000 1.0000
64.1500 363.0000 1.0000
64.1600 367.0000 1.0000
64.1700 396.0000 1.0000
64.1800 397.0000 1.0000
64.1900 385.0000 1.0000
64.2000 371.0000 1.0000
64.2100 371.0000 1.0000
64.2200 372.0000 1.0000
64.2300 373.0000 1.0000
64.2400 361.0000 1.0000
64.2500 313.0000 1.0000
64.2600 324.0000 1.0000
64.2700 344.0000 1.0000
64.2800 305.0000 1.0000
64.2900 343.0000 1.0000
64.3000 338.0000 1.0000
64.3100 344.0000 1.0000
64.3200 341.0000 1.0000
64.3300 328.0000 1.0000
64.3400 347.0000 1.0000
64.3500 361.0000 1.0000
64.3600 346.0000 1.0000
64.3700 299.0000 1.0000
64.3800 327.0000 1.0000
64.3900 292.0000 1.0000
64.4000 309.0000 1.0000
64.4100 307.0000 1.0000
64.4200 345.0000 1.0000
64.4300 313.0000 1.0000
64.4400 360.0000 1.0000
64.4500 315.0000 1.0000
64.4600 296.0000 1.0000
64.4700 313.0000 1.0000
64.4800 345.0000 1.0000
64.4900 334.0000 1.0000
64.5000 355.0000 1.0000
64.5100 280.0000 1.0000
64.5200 303.0000 1.0000
64.5300 313.0000 1.0000
64.5400 345.0000 1.0000
64.5500 329.0000 1.0000
64.5600 324.0000 1.0000
64.5700 350.0000 1.0000
64.5800 342.0000 1.0000
64.5900 315.0000 1.0000
64.6000 323.0000 1.0000
64.6100 339.0000 1.0000
64.6200 312.0000 1.0000
64.6300 314.0000 1.0000
64.6400 298.0000 1.0000
64.6500 286.0000 1.0000
64.6600 324.0000 1.0000
64.6700 319.0000 1.0000
64.6800 320.0000 1.0000
64.6900 336.0000 1.0000
64.7000 304.0000 1.0000
64.7100 313.0000 1.0000
64.7200 328.0000 1.0000
64.7300 331.0000 1.0000
64.7400 342.0000 1.0000
64.7500 323.0000 1.0000
64.7600 343.0000 1.0000
64.7700 334.0000 1.0000
64.7800 331.0000 1.0000
64.7900 352.0000 1.0000
64.8000 341.0000 1.0000
64.8100 319.0000 1.0000
64.8200 344.0000 1.0000
64.8300 323.0000 1.0000
64.8400 323.0000 1.0000
64.8500 326.0000 1.0000
64.8600 346.0000 1.0000
64.8700 324.0000 1.0000
64.8800 308.0000 1.0000
64.8900 336.0000 1.0000
64.9000 322.0000 1.0000
64.9100 319.0000 1.0000
64.9200 341.0000 1.0000
64.9300 338.0000 1.0000
64.9400 345.0000 1.0000
64.9500 340.0000 1.0000
64.9600 364.0000 1.0000
64.9700 339.0000 1.0000
64.9800 345.0000 1.0000
64.9900 356.0000 1.0000
65.0000 336.0000 1.0000
65.0100 374.0000 1.0000
65.0200 362.0000 1.0000
65.0300 373.0000 1.0000
65.0400 374.0000 1.0000
65.0500 352.0000 1.0000
65.0600 378.0000 1.0000
65.0700 417.0000 1.0000
65.0800 364.0000 1.0000
65.0900 386.0000 1.0000
65.1000 349.0000 1.0000
65.1100 392.0000 1.0000
65.1200 406.0000 1.0000
65.1300 341.0000 1.0000
65.1400 390.0000 1.0000
65.1500 408.0000 1.0000
65.1600 378.0000 1.0000
65.1700 353.0000 1.0000
65.1800 398.0000 1.0000
65.1900 390.0000 1.0000
65.2000 392.0000 1.0000
65.2100 419.0000 1.0000
65.2200 419.0000 1.0000
65.2300 431.0000 1.0000
65.2400 405.0000 1.0000
65.2500 459.0000 1.0000
65.2600 442.0000 1.0000
65.2700 432.0000 1.0000
65.2800 448.0000 1.0000
65.2900 480.0000 1.0000
65.3000 466.0000 1.0000
65.3100 511.0000 1.0000
65.3200 498.0000 1.0000
65.3300 520.0000 1.0000
65.3400 554.0000 1.0000
65.3500 568.0000 1.0000
65.3600 561.0000 1.0000
65.3700 608.0000 1.0000
65.3800 636.0000 1.0000
65.3900 618.0000 1.0000
65.4000 706.0000 1.0000
65.4100 716.0000 1.0000
65.4200 692.0000 1.0000
65.4300 751.0000 1.0000
65.4400 794.0000 1.0000
65.4500 779.0000 1.0000
65.4600 783.0000 1.0000
65.4700 862.0000 1.0000
65.4800 851.0000 1.0000
65.4900 885.0000 1.0000
65.5000 867.0000 1.0000
65.5100 904.0000 1.0000
65.5200 901.0000 1.0000
65.5300 980.0000 1.0000
65.5400 851.0000 1.0000
65.5500 917.0000 1.0000
65.5600 843.0000 1.0000
65.5700 814.0000 1.0000
65.5800 771.0000 1.0000
65.5900 779.0000 1.0000
65.6000 777.0000 1.0000
65.6100 759.0000 1.0000
65.6200 767.0000 1.0000
65.6300 728.0000 1.0000
65.6400 701.0000 1.0000
65.6500 743.0000 1.0000
65.6600 701.0000 1.0000
65.6700 726.0000 1.0000
65.6800 693.0000 1.0000
65.6900 702.0000 1.0000
65.7000 676.0000 1.0000
65.7100 685.0000 1.0000
65.7200 685.0000 1.0000
65.7300 639.0000 1.0000
65.7400 640.0000 1.0000
65.7500 648.0000 1.0000
65.7600 609.0000 1.0000
65.7700 556.0000 1.0000
65.7800 579.0000 1.0000
65.7900 562.0000 1.0000
65.8000 546.0000 1.0000
65.8100 546.0000 1.0000
65.8200 515.0000 1.0000
65.8300 477.0000 1.0000
65.8400 465.0000 1.0000
65.8500 485.0000 1.0000
65.8600 491.0000 1.0000
65.8700 441.0000 1.0000
65.8800 448.0000 1.0000
65.8900 423.0000 1.0000
65.9000 410.0000 1.0000
65.9100 414.0000 1.0000
65.9200 433.0000 1.0000
65.9300 419.0000 1.0000
65.9400 407.0000 1.0000
65.9500 391.0000 1.0000
65.9600 382.0000 1.0000
65.9700 365.0000 1.0000
65.9800 389.0000 1.0000
65.9900 369.0000 1.0000
66.0000 364.0000 1.0000
66.0100 388.0000 1.0000
66.0200 362.0000 1.0000
66.0300 352.0000 1.0000
66.0400 358.0000 1.0000
66.0500 332.0000 1.0000
66.0600 362.0000 1.0000
66.0700 351.0000 1.0000
66.0800 355.0000 1.0000
66.0900 374.0000 1.0000
66.1000 360.0000 1.0000
66.1100 335.0000 1.0000
66.1200 345.0000 1.0000
66.1300 325.0000 1.0000
66.1400 329.0000 1.0000
66.1500 357.0000 1.0000
66.1600 329.0000 1.0000
66.1700 324.0000 1.0000
66.1800 325.0000 1.0000
66.1900 303.0000 1.0000
66.2000 334.0000 1.0000
66.2100 330.0000 1.0000
66.2200 337.0000 1.0000
66.2300 335.0000 1.0000
66.2400 308.0000 1.0000
66.2500 308.0000 1.0000
66.2600 289.0000 1.0000
66.2700 283.0000 1.0000
66.2800 334.0000 1.0000
66.2900 324.0000 1.0000
66.3000 317.0000 1.0000
66.3100 291.0000 1.0000
66.3200 336.0000 1.0000
66.3300 341.0000 1.0000
66.3400 328.0000 1.0000
66.3500 326.0000 1.0000
66.3600 346.0000 1.0000
66.3700 319.0000 1.0000
66.3800 316.0000 1.0000
66.3900 302.0000 1.0000
66.4000 280.0000 1.0000
66.4100 308.0000 1.0000
66.4200 307.0000 1.0000
66.4300 291.0000 1.0000
66.4400 297.0000 1.0000
66.4500 295.0000 1.0000
66.4600 270.0000 1.0000
66.4700 282.0000 1.0000
66.4800 306.0000 1.0000
66.4900 302.0000 1.0000
66.5000 296.0000 1.0000
66.5100 287.0000 1.0000
66.5200 306.0000 1.0000
66.5300 280.0000 1.0000
66.5400 320.0000 1.0000
66.5500 310.0000 1.0000
66.5600 299.0000 1.0000
66.5700 318.0000 1.0000
66.5800 305.0000 1.0000
66.5900 309.0000 1.0000
66.6000 295.0000 1.0000
66.6100 282.0000 1.0000
66.6200 312.0000 1.0000
66.6300 300.0000 1.0000
66.6400 286.0000 1.0000
66.6500 293.0000 1.0000
66.6600 296.0000 1.0000
66.6700 297.0000 1.0000
66.6800 297.0000 1.0000
66.6900 292.0000 1.0000
66.7000 273.0000 1.0000
66.7100 293.0000 1.0000
66.7200 293.0000 1.0000
66.7300 317.0000 1.0000
66.7400 294.0000 1.0000
66.7500 295.0000 1.0000
66.7600 300.0000 1.0000
66.7700 273.0000 1.0000
66.7800 277.0000 1.0000
66.7900 289.0000 1.0000
66.8000 300.0000 1.0000
66.8100 304.0000 1.0000
66.8200 282.0000 1.0000
66.8300 292.0000 1.0000
66.8400 308.0000 1.0000
66.8500 281.0000 1.0000
66.8600 290.0000 1.0000
66.8700 289.0000 1.0000
66.8800 300.0000 1.0000
66.8900 319.0000 1.0000
66.9000 286.0000 1.0000
66.9100 305.0000 1.0000
66.9200 303.0000 1.0000
66.9300 270.0000 1.0000
66.9400 270.0000 1.0000
66.9500 268.0000 1.0000
66.9600 282.0000 1.0000
66.9700 288.0000 1.0000
66.9800 274.0000 1.0000
66.9900 278.0000 1.0000
67.0000 281.0000 1.0000
67.0100 307.0000 1.0000
67.0200 289.0000 1.0000
67.0300 277.0000 1.0000
67.0400 262.0000 1.0000
67.0500 291.0000 1.0000
67.0600 311.0000 1.0000
67.0700 299.0000 1.0000
67.0800 285.0000 1.0000
67.0900 276.0000 1.0000
67.1000 293.0000 1.0000
67.1100 297.0000 1.0000
67.1200 278.0000 1.0000
67.1300 276.0000 1.0000
67.1400 296.0000 1.0000
67.1500 284.0000 1.0000
67.1600 277.0000 1.0000
67.1700 311.0000 1.0000
67.1800 301.0000 1.0000
67.1900 305.0000 1.0000
67.2000 300.0000 1.0000
67.2100 291.0000 1.0000
67.2200 277.0000 1.0000
67.2300 300.0000 1.0000
67.2400 275.0000 1.0000
67.2500 278.0000 1.0000
67.2600 303.0000 1.0000
67.2700 296.0000 1.0000
67.2800 307.0000 1.0000
67.2900 292.0000 1.0000
67.3000 298.0000 1.0000
67.3100 282.0000 1.0000
67.3200 270.0000 1.0000
67.3300 273.0000 1.0000
67.3400 282.0000 1.0000
67.3500 308.0000 1.0000
67.3600 307.0000 1.0000
67.3700 308.0000 1.0000
67.3800 305.0000 1.0000
67.3900 277.0000 1.0000
67.4000 280.0000 1.0000
67.4100 283.0000 1.0000
67.4200 286.0000 1.0000
67.4300 264.0000 1.0000
67.4400 283.0000 1.0000
67.4500 274.0000 1.0000
67.4600 278.0000 1.0000
67.4700 272.0000 1.0000
67.4800 291.0000 1.0000
67.4900 261.0000 1.0000
67.5000 286.0000 1.0000
67.5100 258.0000 1.0000
67.5200 270.0000 1.0000
67.5300 259.0000 1.0000
67.5400 296.0000 1.0000
67.5500 279.0000 1.0000
67.5600 287.0000 1.0000
67.5700 270.0000 1.0000
67.5800 282.0000 1.0000
67.5900 292.0000 1.0000
67.6000 308.0000 1.0000
67.6100 313.0000 1.0000
67.6200 307.0000 1.0000
67.6300 262.0000 1.0000
67.6400 267.0000 1.0000
67.6500 278.0000 1.0000
67.6600 277.0000 1.0000
67.6700 283.0000 1.0000
67.6800 307.0000 1.0000
67.6900 257.0000 1.0000
67.7000 271.0000 1.0000
67.7100 264.0000 1.0000
67.7200 291.0000 1.0000
67.7300 301.0000 1.0000
67.7400 287.0000 1.0000
67.7500 278.0000 1.0000
67.7600 289.0000 1.0000
67.7700 289.0000 1.0000
67.7800 267.0000 1.0000
67.7900 255.0000 1.0000
67.8000 287.0000 1.0000
67.8100 297.0000 1.0000
67.8200 313.0000 1.0000
67.8300 286.0000 1.0000
67.8400 277.0000 1.0000
67.8500 288.0000 1.0000
67.8600 277.0000 1.0000
67.8700 326.0000 1.0000
67.8800 302.0000 1.0000
67.8900 309.0000 1.0000
67.9000 279.0000 1.0000
67.9100 266.0000 1.0000
67.9200 262.0000 1.0000
67.9300 287.0000 1.0000
67.9400 269.0000 1.0000
67.9500 289.0000 1.0000
67.9600 266.0000 1.0000
67.9700 286.0000 1.0000
67.9800 309.0000 1.0000
67.9900 285.0000 1.0000
68.0000 268.0000 1.0000
68.0100 310.0000 1.0000
68.0200 300.0000 1.0000
68.0300 271.0000 1.0000
68.0400 273.0000 1.0000
68.0500 294.0000 1.0000
68.0600 289.0000 1.0000
68.0700 258.0000 1.0000
68.0800 264.0000 1.0000
68.0900 257.0000 1.0000
68.1000 266.0000 1.0000
68.1100 257.0000 1.0000
68.1200 275.0000 1.0000
68.1300 270.0000 1.0000
68.1400 280.0000 1.0000
68.1500 238.0000 1.0000
68.1600 289.0000 1.0000
68.1700 315.0000 1.0000
68.1800 272.0000 1.0000
68.1900 272.0000 1.0000
68.2000 303.0000 1.0000
68.2100 305.0000 1.0000
68.2200 280.0000 1.0000
68.2300 285.0000 1.0000
68.2400 292.0000 1.0000
68.2500 281.0000 1.0000
68.2600 261.0000 1.0000
68.2700 279.0000 1.0000
68.2800 273.0000 1.0000
68.2900 291.0000 1.0000
68.3000 268.0000 1.0000
68.3100 262.0000 1.0000
68.3200 270.0000 1.0000
68.3300 259.0000 1.0000
68.3400 272.0000 1.0000
68.3500 293.0000 1.0000
68.3600 284.0000 1.0000
68.3700 280.0000 1.0000
68.3800 274.0000 1.0000
68.3900 260.0000 1.0000
68.4000 252.0000 1.0000
68.4100 247.0000 1.0000
68.4200 259.0000 1.0000
68.4300 256.0000 1.0000
68.4400 271.0000 1.0000
68.4500 301.0000 1.0000
68.4600 298.0000 1.0000
68.4700 262.0000 1.0000
68.4800 281.0000 1.0000
68.4900 276.0000 1.0000
68.5000 267.0000 1.0000
68.5100 271.0000 1.0000
68.5200 276.0000 1.0000
68.5300 277.0000 1.0000
68.5400 292.0000 1.0000
68.5500 300.0000 1.0000
68.5600 302.0000 1.0000
68.5700 297.0000 1.0000
68.5800 288.0000 1.0000
68.5900 289.0000 1.0000
68.6000 264.0000 1.0000
68.6100 270.0000 1.0000
68.6200 280.0000 1.0000
68.6300 270.0000 1.0000
68.6400 277.0000 1.0000
68.6500 299.0000 1.0000
68.6600 279.0000 1.0000
68.6700 261.0000 1.0000
68.6800 279.0000 1.0000
68.6900 272.0000 1.0000
68.7000 291.0000 1.0000
68.7100 282.0000 1.0000
68.7200 284.0000 1.0000
68.7300 277.0000 1.0000
68.7400 281.0000 1.0000
68.7500 298.0000 1.0000
68.7600 293.0000 1.0000
68.7700 258.0000 1.0000
68.7800 275.0000 1.0000
68.7900 278.0000 1.0000
68.8000 270.0000 1.0000
68.8100 272.0000 1.0000
68.8200 286.0000 1.0000
68.8300 304.0000 1.0000
68.8400 296.0000 1.0000
68.8500 247.0000 1.0000
68.8600 269.0000 1.0000
68.8700 276.0000 1.0000
68.8800 293.0000 1.0000
68.8900 296.0000 1.0000
68.9000 275.0000 1.0000
68.9100 271.0000 1.0000
68.9200 278.0000 1.0000
68.9300 284.0000 1.0000
68.9400 268.0000 1.0000
68.9500 260.0000 1.0000
68.9600 262.0000 1.0000
68.9700 296.0000 1.0000
68.9800 264.0000 1.0000
68.9900 285.0000 1.0000
69.0000 262.0000 1.0000
69.0100 267.0000 1.0000
69.0200 262.0000 1.0000
69.0300 296.0000 1.0000
69.0400 277.0000 1.0000
69.0500 275.0000 1.0000
69.0600 282.0000 1.0000
69.0700 286.0000 1.0000
69.0800 287.0000 1.0000
69.0900 278.0000 1.0000
69.1000 297.0000 1.0000
69.1100 291.0000 1.0000
69.1200 280.0000 1.0000
69.1300 282.0000 1.0000
69.1400 265.0000 1.0000
69.1500 257.0000 1.0000
69.1600 278.0000 1.0000
69.1700 285.0000 1.0000
69.1800 257.0000 1.0000
69.1900 233.0000 1.0000
69.2000 291.0000 1.0000
69.2100 296.0000 1.0000
69.2200 296.0000 1.0000
69.2300 264.0000 1.0000
69.2400 275.0000 1.0000
69.2500 263.0000 1.0000
69.2600 246.0000 1.0000
69.2700 281.0000 1.0000
69.2800 267.0000 1.0000
69.2900 265.0000 1.0000
69.3000 261.0000 1.0000
69.3100 283.0000 1.0000
69.3200 280.0000 1.0000
69.3300 278.0000 1.0000
69.3400 279.0000 1.0000
69.3500 276.0000 1.0000
69.3600 290.0000 1.0000
69.3700 266.0000 1.0000
69.3800 256.0000 1.0000
69.3900 244.0000 1.0000
69.4000 262.0000 1.0000
69.4100 270.0000 1.0000
69.4200 253.0000 1.0000
69.4300 258.0000 1.0000
69.4400 273.0000 1.0000
69.4500 264.0000 1.0000
69.4600 294.0000 1.0000
69.4700 282.0000 1.0000
69.4800 289.0000 1.0000
69.4900 265.0000 1.0000
69.5000 257.0000 1.0000
69.5100 271.0000 1.0000
69.5200 273.0000 1.0000
69.5300 295.0000 1.0000
69.5400 295.0000 1.0000
69.5500 268.0000 1.0000
69.5600 274.0000 1.0000
69.5700 263.0000 1.0000
69.5800 280.0000 1.0000
69.5900 290.0000 1.0000
69.6000 315.0000 1.0000
69.6100 286.0000 1.0000
69.6200 275.0000 1.0000
69.6300 269.0000 1.0000
69.6400 273.0000 1.0000
69.6500 284.0000 1.0000
69.6600 268.0000 1.0000
69.6700 274.0000 1.0000
69.6800 272.0000 1.0000
69.6900 271.0000 1.0000
69.7000 275.0000 1.0000
69.7100 269.0000 1.0000
69.7200 289.0000 1.0000
69.7300 248.0000 1.0000
69.7400 268.0000 1.0000
69.7500 281.0000 1.0000
69.7600 278.0000 1.0000
69.7700 257.0000 1.0000
69.7800 243.0000 1.0000
69.7900 302.0000 1.0000
69.8000 285.0000 1.0000
69.8100 259.0000 1.0000
69.8200 265.0000 1.0000
69.8300 274.0000 1.0000
69.8400 237.0000 1.0000
69.8500 251.0000 1.0000
69.8600 265.0000 1.0000
69.8700 240.0000 1.0000
69.8800 260.0000 1.0000
69.8900 297.0000 1.0000
69.9000 278.0000 1.0000
69.9100 272.0000 1.0000
69.9200 256.0000 1.0000
69.9300 265.0000 1.0000
69.9400 270.0000 1.0000
69.9500 247.0000 1.0000
69.9600 263.0000 1.0000
69.9700 263.0000 1.0000
69.9800 282.0000 1.0000
69.9900 246.0000 1.0000
70.0000 257.0000 1.0000
*RAS_INT_END
*RAS_TEMPERATURE_START
*RAS_TEMPERATURE_END
*RAS_DATA_END
