*RAS_DATA_START
*RAS_HEADER_START
*DISP_FMT_X "%.2f"
*DISP_FMT_Y "%.0f"
*DISP_FULLSCALE "15855.0000000000"
*DISP_LINE_COLOR "255.0000000000"
*DISP_LINE_STYLE "0.0000000000"
*DISP_LINE_WIDTH "0.2500000000"
*DISP_NOTE "測定データ-1"
*DISP_OFFSET_Y "0.0000000000"
*DISP_PEAKSEARCH_UNIT_Y "cps"
*DISP_RANGE_BOTTOM "0.0000000000"
*DISP_RANGE_LEFT "20.0000000000"
*DISP_RANGE_LOGCUTOFF "0.0100000000"
*DISP_RANGE_RIGHT "70.0000000000"
*DISP_RANGE_TOP "15855.0000000000"
*DISP_SCALE_MODE_Y "0.0000000000"
*DISP_TAB_NAME "2θ/θ"
*DISP_TITLE_Y "強度"
*DISP_UNIT_Y "cps"
*DISP_WINDOW_NAME "MSG_MACROENGINE"
*FILE_COMMENT " "
*FILE_MD5 ""
*FILE_MEMO " "
*FILE_OPERATOR "Administrator"
*FILE_SAMPLE " "
*FILE_TYPE "RAS_RAW"
*FILE_USERGROUP "システムマネージャ"
*FILE_VERSION "1.0000000000"
*HW_ATTACHMENT_ID "ATT0025"
*HW_ATTACHMENT_NAME "標準|Standard"
*HW_COUNTER_ID-0 "CUT0025"
*HW_COUNTER_ID-1 "CUT0020"
*HW_COUNTER_ID-2 "CUT0020"
*HW_COUNTER_ID-3 "CSL0021"
*HW_COUNTER_ID-4 "CMC0021"
*HW_COUNTER_NAME-0 "D/teX Ultra|D/teX Ultra"
*HW_COUNTER_NAME-1 "None|None"
*HW_COUNTER_NAME-2 "None|None"
*HW_COUNTER_NAME-3 "BBM|BBM"
*HW_COUNTER_NAME-4 "検出器モノクロメータ|Detector monochromator"
*HW_COUNTER_SELECT_NAME "D/teX Ultra|D/teX Ultra"
*HW_GONIOMETER_ID "GON0023"
*HW_GONIOMETER_NAME "SmartLab|SmartLab"
*HW_GONIOMETER_RADIUS-0 "90.0"
*HW_GONIOMETER_RADIUS-1 "114.0"
*HW_GONIOMETER_RADIUS-2 "190.0"
*HW_GONIOMETER_RADIUS-3 "300.0"
*HW_GONIOMETER_RADIUS-4 "187.0"
*HW_GONIOMETER_RADIUS-5 "300.0"
*HW_GONIOMETER_RADIUS-6 "113.0"
*HW_GONIOMETER_RADIUS-7 "331.0"
*HW_I_OPT_ID-0 "CBO0021"
*HW_I_OPT_ID-1 "ICR0023"
*HW_I_OPT_ID-2 "ISL0021"
*HW_I_OPT_ID-3 "ISO0021"
*HW_I_OPT_ID-4 "IAD0021"
*HW_I_OPT_ID-5 "IPR0001"
*HW_I_OPT_NAME-0 "CBOユニット|CBO unit"
*HW_I_OPT_NAME-1 "標準入射光学ユニット|Standard incident optical unit"
*HW_I_OPT_NAME-2 "標準入射スリットボックス|Standard incident slit box"
*HW_I_OPT_NAME-3 "入射平行スリット|Incident parallel slit"
*HW_I_OPT_NAME-4 "長手制限スリット|Length limiting slit"
*HW_I_OPT_NAME-5 "None|None"
*HW_R_ATTENUATER_AUTOMODE "0"
*HW_R_OPT_ID-0 "RSS0021"
*HW_R_OPT_ID-1 "RCR0023"
*HW_R_OPT_ID-2 "RSO0021"
*HW_R_OPT_ID-3 "RRS0021"
*HW_R_OPT_ID-4 "ATN0021"
*HW_R_OPT_ID-5 "RFL0021"
*HW_R_OPT_ID-6 "RAD0021"
*HW_R_OPT_NAME-0 "標準受光スリットボックス1|Standard receiving slit box # 1"
*HW_R_OPT_NAME-1 "標準受光光学ユニット1|Standard receiving unit # 1"
*HW_R_OPT_NAME-2 "標準受光光学ユニット2|Standard receiving optical unit # 2"
*HW_R_OPT_NAME-3 "標準受光スリットボックス2|Standard receiving slit box # 2"
*HW_R_OPT_NAME-4 "標準アッテネータ|Standard Attenuator"
*HW_R_OPT_NAME-5 "Cu Kβ|Cu K-beta"
*HW_R_OPT_NAME-6 "調整用受光スリット|Alignment receiving slit"
*HW_SAMPLE_HOLDER_ID "SMP0023"
*HW_SAMPLE_HOLDER_NAME "標準Zステージ|Standard Z stage"
*HW_XG_CURRENT_MAX "50"
*HW_XG_CURRENT_MIN "2"
*HW_XG_CURRENT_RESOLUTION "1"
*HW_XG_CURRENT_UNIT "mA"
*HW_XG_FOCUS "1mm x 10mm"
*HW_XG_FOCUS_TYPE "Normal"
*HW_XG_ID ""
*HW_XG_NAME "3kW 封入管(ID:1200)|3kW Sealed tube(ID:1200)"
*HW_XG_TARGET_ATOMIC_NUMBER "29.0000000000"
*HW_XG_TARGET_NAME "Cu"
*HW_XG_TYPE "Hermetic"
*HW_XG_VOLTAGE_MAX "60"
*HW_XG_VOLTAGE_MIN "20"
*HW_XG_VOLTAGE_RESOLUTION "1"
*HW_XG_VOLTAGE_UNIT "kV"
*HW_XG_WATT_MAX "1.500"
*HW_XG_WATT_UNIT "kW"
*HW_XG_WAVE_LENGTH_ALPHA1 "1.540593"
*HW_XG_WAVE_LENGTH_ALPHA2 "1.544414"
*HW_XG_WAVE_LENGTH_BETA "1.392250"
*MEAS_COND_AXIS_NAME-0 "2θ/θ"
*MEAS_COND_AXIS_NAME-1 "2θ"
*MEAS_COND_AXIS_NAME-2 "ω"
*MEAS_COND_AXIS_NAME-3 "Z"
*MEAS_COND_AXIS_NAME-4 "2θ/ω"
*MEAS_COND_AXIS_NAME-5 "θs"
*MEAS_COND_AXIS_NAME-6 "θd"
*MEAS_COND_AXIS_NAME-7 "Ts"
*MEAS_COND_AXIS_NAME-8 "CBO選択スリット"
*MEAS_COND_AXIS_NAME-9 "M"
*MEAS_COND_AXIS_NAME-10 "入射平行スリット"
*MEAS_COND_AXIS_NAME-11 "入射スリット"
*MEAS_COND_AXIS_NAME-12 ""
*MEAS_COND_AXIS_NAME-13 "Zs"
*MEAS_COND_AXIS_NAME-14 "入射光学素子"
*MEAS_COND_AXIS_NAME-15 "長手制限スリット"
*MEAS_COND_AXIS_NAME-16 "センタースリット"
*MEAS_COND_AXIS_NAME-17 "フィルター"
*MEAS_COND_AXIS_NAME-18 "受光スリット1"
*MEAS_COND_AXIS_NAME-19 "受光スリット2"
*MEAS_COND_AXIS_NAME-20 "受光光学素子"
*MEAS_COND_AXIS_NAME-21 "受光平行スリット"
*MEAS_COND_AXIS_NAME-22 "調整用受光スリット"
*MEAS_COND_AXIS_NAME-23 ""
*MEAS_COND_AXIS_NAME-24 ""
*MEAS_COND_AXIS_NAME-25 "Zd"
*MEAS_COND_AXIS_NAME-26 "アッテネータ"
*MEAS_COND_AXIS_NAME-27 "検出器モノクロメータ"
*MEAS_COND_AXIS_NAME-28 "モノクロメータスリット"
*MEAS_COND_AXIS_NAME-29 "プライマリビーム"
*MEAS_COND_AXIS_NAME-30 "PHA"
*MEAS_COND_AXIS_NAME_INTERNAL-0 "TwoThetaTheta"
*MEAS_COND_AXIS_NAME_INTERNAL-1 "TwoTheta"
*MEAS_COND_AXIS_NAME_INTERNAL-2 "Omega"
*MEAS_COND_AXIS_NAME_INTERNAL-3 "Z"
*MEAS_COND_AXIS_NAME_INTERNAL-4 "TwoThetaOmega"
*MEAS_COND_AXIS_NAME_INTERNAL-5 "ThetaS"
*MEAS_COND_AXIS_NAME_INTERNAL-6 "ThetaD"
*MEAS_COND_AXIS_NAME_INTERNAL-7 "Ts"
*MEAS_COND_AXIS_NAME_INTERNAL-8 "CBO"
*MEAS_COND_AXIS_NAME_INTERNAL-9 "CBO-M"
*MEAS_COND_AXIS_NAME_INTERNAL-10 "IncidentSollerSlit"
*MEAS_COND_AXIS_NAME_INTERNAL-11 "IncidentSlitBox"
*MEAS_COND_AXIS_NAME_INTERNAL-12 "IncidentSlitBox-_Axis"
*MEAS_COND_AXIS_NAME_INTERNAL-13 "Zs"
*MEAS_COND_AXIS_NAME_INTERNAL-14 "IncidentMonochromator"
*MEAS_COND_AXIS_NAME_INTERNAL-15 "IncidentAxdSlit"
*MEAS_COND_AXIS_NAME_INTERNAL-16 "CenterSlit"
*MEAS_COND_AXIS_NAME_INTERNAL-17 "Filter"
*MEAS_COND_AXIS_NAME_INTERNAL-18 "ReceivingSlitBox1"
*MEAS_COND_AXIS_NAME_INTERNAL-19 "ReceivingSlitBox2"
*MEAS_COND_AXIS_NAME_INTERNAL-20 "ReceivingOptics"
*MEAS_COND_AXIS_NAME_INTERNAL-21 "ReceivingSollerSlit"
*MEAS_COND_AXIS_NAME_INTERNAL-22 "ReceivingAxdSlit"
*MEAS_COND_AXIS_NAME_INTERNAL-23 "ReceivingSlitBox1-_Axis"
*MEAS_COND_AXIS_NAME_INTERNAL-24 "ReceivingSlitBox2-_Axis"
*MEAS_COND_AXIS_NAME_INTERNAL-25 "ReceivingSlitBox2-Zd"
*MEAS_COND_AXIS_NAME_INTERNAL-26 "Attenuator"
*MEAS_COND_AXIS_NAME_INTERNAL-27 "CounterMonochromator"
*MEAS_COND_AXIS_NAME_INTERNAL-28 "CounterSlit"
*MEAS_COND_AXIS_NAME_INTERNAL-29 "IncidentPrimary"
*MEAS_COND_AXIS_NAME_INTERNAL-30 "PHA"
*MEAS_COND_AXIS_NAME_MAGICNO-0 "83951616.0000000000"
*MEAS_COND_AXIS_NAME_MAGICNO-1 "268632064.0000000000"
*MEAS_COND_AXIS_NAME_MAGICNO-2 "268500992.0000000000"
*MEAS_COND_AXIS_NAME_MAGICNO-3 "285278208.0000000000"
*MEAS_COND_AXIS_NAME_MAGICNO-4 "83951616.0000000000"
*MEAS_COND_AXIS_NAME_MAGICNO-5 "131072.0000000000"
*MEAS_COND_AXIS_NAME_MAGICNO-6 "131072.0000000000"
*MEAS_COND_AXIS_NAME_MAGICNO-7 "318898176.0000000000"
*MEAS_COND_AXIS_NAME_MAGICNO-8 "20971521.0000000000"
*MEAS_COND_AXIS_NAME_MAGICNO-9 "285343744.0000000000"
*MEAS_COND_AXIS_NAME_MAGICNO-10 "20971521.0000000000"
*MEAS_COND_AXIS_NAME_MAGICNO-11 "22020097.0000000000"
*MEAS_COND_AXIS_NAME_MAGICNO-12 "25165824.0000000000"
*MEAS_COND_AXIS_NAME_MAGICNO-13 "318898176.0000000000"
*MEAS_COND_AXIS_NAME_MAGICNO-14 "1.0000000000"
*MEAS_COND_AXIS_NAME_MAGICNO-15 "20971521.0000000000"
*MEAS_COND_AXIS_NAME_MAGICNO-16 "20971521.0000000000"
*MEAS_COND_AXIS_NAME_MAGICNO-17 "20971521.0000000000"
*MEAS_COND_AXIS_NAME_MAGICNO-18 "23068673.0000000000"
*MEAS_COND_AXIS_NAME_MAGICNO-19 "23068673.0000000000"
*MEAS_COND_AXIS_NAME_MAGICNO-20 "20971521.0000000000"
*MEAS_COND_AXIS_NAME_MAGICNO-21 "20971521.0000000000"
*MEAS_COND_AXIS_NAME_MAGICNO-22 "20971521.0000000000"
*MEAS_COND_AXIS_NAME_MAGICNO-23 "25165824.0000000000"
*MEAS_COND_AXIS_NAME_MAGICNO-24 "25165824.0000000000"
*MEAS_COND_AXIS_NAME_MAGICNO-25 "285343744.0000000000"
*MEAS_COND_AXIS_NAME_MAGICNO-26 "17301505.0000000000"
*MEAS_COND_AXIS_NAME_MAGICNO-27 "20971521.0000000000"
*MEAS_COND_AXIS_NAME_MAGICNO-28 "20971521.0000000000"
*MEAS_COND_AXIS_NAME_MAGICNO-29 "20971521.0000000000"
*MEAS_COND_AXIS_NAME_MAGICNO-30 "0.0000000000"
*MEAS_COND_AXIS_OFFSET-0 "-"
*MEAS_COND_AXIS_OFFSET-1 "-0.0310000000"
*MEAS_COND_AXIS_OFFSET-2 "0.3957000000"
*MEAS_COND_AXIS_OFFSET-3 "-"
*MEAS_COND_AXIS_OFFSET-4 "-"
*MEAS_COND_AXIS_OFFSET-5 "0.3957000000"
*MEAS_COND_AXIS_OFFSET-6 "-0.4267000000"
*MEAS_COND_AXIS_OFFSET-7 "-"
*MEAS_COND_AXIS_OFFSET-8 "-"
*MEAS_COND_AXIS_OFFSET-9 "-"
*MEAS_COND_AXIS_OFFSET-10 "-"
*MEAS_COND_AXIS_OFFSET-11 "-"
*MEAS_COND_AXIS_OFFSET-12 "-"
*MEAS_COND_AXIS_OFFSET-13 "-"
*MEAS_COND_AXIS_OFFSET-14 "-"
*MEAS_COND_AXIS_OFFSET-15 "-"
*MEAS_COND_AXIS_OFFSET-16 "-"
*MEAS_COND_AXIS_OFFSET-17 "-"
*MEAS_COND_AXIS_OFFSET-18 "-"
*MEAS_COND_AXIS_OFFSET-19 "-"
*MEAS_COND_AXIS_OFFSET-20 "-"
*MEAS_COND_AXIS_OFFSET-21 "-"
*MEAS_COND_AXIS_OFFSET-22 "-"
*MEAS_COND_AXIS_OFFSET-23 "-"
*MEAS_COND_AXIS_OFFSET-24 "-"
*MEAS_COND_AXIS_OFFSET-25 "-"
*MEAS_COND_AXIS_OFFSET-26 "-"
*MEAS_COND_AXIS_OFFSET-27 "-"
*MEAS_COND_AXIS_OFFSET-28 "-"
*MEAS_COND_AXIS_OFFSET-29 "-"
*MEAS_COND_AXIS_OFFSET-30 "-"
*MEAS_COND_AXIS_POSITION-0 "0.0000000000"
*MEAS_COND_AXIS_POSITION-1 "0.0000000000"
*MEAS_COND_AXIS_POSITION-2 "0.0000000000"
*MEAS_COND_AXIS_POSITION-3 "-2.8588600000"
*MEAS_COND_AXIS_POSITION-4 "0.0000000000"
*MEAS_COND_AXIS_POSITION-5 "0.0000000000"
*MEAS_COND_AXIS_POSITION-6 "0.0000000000"
*MEAS_COND_AXIS_POSITION-7 "-0.7498700000"
*MEAS_COND_AXIS_POSITION-8 "BB"
*MEAS_COND_AXIS_POSITION-9 "0.0000000000"
*MEAS_COND_AXIS_POSITION-10 "Soller_slit_5.0deg"
*MEAS_COND_AXIS_POSITION-11 "2/3deg"
*MEAS_COND_AXIS_POSITION-12 "2.2088000000"
*MEAS_COND_AXIS_POSITION-13 "-0.6412500000"
*MEAS_COND_AXIS_POSITION-14 "0.0000000000"
*MEAS_COND_AXIS_POSITION-15 "10.0mm"
*MEAS_COND_AXIS_POSITION-16 "None"
*MEAS_COND_AXIS_POSITION-17 "Cu_K-beta"
*MEAS_COND_AXIS_POSITION-18 "13.000mm"
*MEAS_COND_AXIS_POSITION-19 "13.000mm"
*MEAS_COND_AXIS_POSITION-20 "No_unit"
*MEAS_COND_AXIS_POSITION-21 "Soller_slit_5.0deg"
*MEAS_COND_AXIS_POSITION-22 "None"
*MEAS_COND_AXIS_POSITION-23 "13.0000000000"
*MEAS_COND_AXIS_POSITION-24 "13.0000000000"
*MEAS_COND_AXIS_POSITION-25 "0.0281300000"
*MEAS_COND_AXIS_POSITION-26 "Open"
*MEAS_COND_AXIS_POSITION-27 "None"
*MEAS_COND_AXIS_POSITION-28 "None"
*MEAS_COND_AXIS_POSITION-29 "None"
*MEAS_COND_AXIS_POSITION-30 "38.0000000000"
*MEAS_COND_AXIS_UNIT-0 "deg"
*MEAS_COND_AXIS_UNIT-1 "deg"
*MEAS_COND_AXIS_UNIT-2 "deg"
*MEAS_COND_AXIS_UNIT-3 "mm"
*MEAS_COND_AXIS_UNIT-4 "deg"
*MEAS_COND_AXIS_UNIT-5 "deg"
*MEAS_COND_AXIS_UNIT-6 "deg"
*MEAS_COND_AXIS_UNIT-7 "mm"
*MEAS_COND_AXIS_UNIT-8 ""
*MEAS_COND_AXIS_UNIT-9 "pulse"
*MEAS_COND_AXIS_UNIT-10 ""
*MEAS_COND_AXIS_UNIT-11 ""
*MEAS_COND_AXIS_UNIT-12 "mm"
*MEAS_COND_AXIS_UNIT-13 "mm"
*MEAS_COND_AXIS_UNIT-14 ""
*MEAS_COND_AXIS_UNIT-15 ""
*MEAS_COND_AXIS_UNIT-16 ""
*MEAS_COND_AXIS_UNIT-17 ""
*MEAS_COND_AXIS_UNIT-18 ""
*MEAS_COND_AXIS_UNIT-19 ""
*MEAS_COND_AXIS_UNIT-20 ""
*MEAS_COND_AXIS_UNIT-21 ""
*MEAS_COND_AXIS_UNIT-22 ""
*MEAS_COND_AXIS_UNIT-23 "mm"
*MEAS_COND_AXIS_UNIT-24 "mm"
*MEAS_COND_AXIS_UNIT-25 "mm"
*MEAS_COND_AXIS_UNIT-26 ""
*MEAS_COND_AXIS_UNIT-27 ""
*MEAS_COND_AXIS_UNIT-28 ""
*MEAS_COND_AXIS_UNIT-29 ""
*MEAS_COND_AXIS_UNIT-30 "div"
*MEAS_COND_COUNTER_CNTLOSS_CORR "0.0000000000"
*MEAS_COND_COUNTER_PHABASE "38.0000000000"
*MEAS_COND_COUNTER_PHAWINDOW "16.0000000000"
*MEAS_COND_COUNTER_PHA_UNIT "div"
*MEAS_COND_COUNTER_TAUDIFF "30.0000000000"
*MEAS_COND_COUNTER_TAUINT "0.0000000000"
*MEAS_COND_IRRADIATION_MODE "OFF"
*MEAS_COND_IRRADIATION_WIDTH ""
*MEAS_COND_OPT_ATTR "集中法"
*MEAS_COND_OPT_NAME "@集中法"
*MEAS_COND_UNSYMMETRIC_MODE "OFF"
*MEAS_COND_XG_CURRENT "30.0000000000"
*MEAS_COND_XG_VOLTAGE "40.0000000000"
*MEAS_COND_XG_WAVE_TYPE "Ka"
*MEAS_DATA_COUNT "5001.0000000000"
*MEAS_SCAN_AXIS_X "2θ/θ"
*MEAS_SCAN_AXIS_X_INTERNAL "TwoThetaTheta"
*MEAS_SCAN_END_TIME "01/29/24 10:55:11"
*MEAS_SCAN_MODE "CONTINUOUS"
*MEAS_SCAN_MONITOR "0"
*MEAS_SCAN_RESOLUTION_X "0.0002"
*MEAS_SCAN_SPEED "2.5"
*MEAS_SCAN_SPEED_UNIT "deg/min"
*MEAS_SCAN_START "20.0000000000"
*MEAS_SCAN_START_TIME "01/29/24 10:33:47"
*MEAS_SCAN_STEP "0.0100000000"
*MEAS_SCAN_STOP "70.0000000000"
*MEAS_SCAN_UNIT_X "deg"
*MEAS_SCAN_UNIT_Y "counts"
*RAS_HEADER_END
*RAS_INT_START
20.0000 834.0000 1.0000
20.0100 858.0000 1.0000
20.0200 884.0000 1.0000
20.0300 885.0000 1.0000
20.0400 879.0000 1.0000
20.0500 894.0000 1.0000
20.0600 851.0000 1.0000
20.0700 839.0000 1.0000
20.0800 888.0000 1.0000
20.0900 879.0000 1.0000
20.1000 819.0000 1.0000
20.1100 847.0000 1.0000
20.1200 824.0000 1.0000
20.1300 886.0000 1.0000
20.1400 840.0000 1.0000
20.1500 845.0000 1.0000
20.1600 825.0000 1.0000
20.1700 855.0000 1.0000
20.1800 849.0000 1.0000
20.1900 871.0000 1.0000
20.2000 831.0000 1.0000
20.2100 836.0000 1.0000
20.2200 888.0000 1.0000
20.2300 825.0000 1.0000
20.2400 837.0000 1.0000
20.2500 821.0000 1.0000
20.2600 851.0000 1.0000
20.2700 896.0000 1.0000
20.2800 864.0000 1.0000
20.2900 856.0000 1.0000
20.3000 840.0000 1.0000
20.3100 839.0000 1.0000
20.3200 799.0000 1.0000
20.3300 852.0000 1.0000
20.3400 843.0000 1.0000
20.3500 846.0000 1.0000
20.3600 859.0000 1.0000
20.3700 881.0000 1.0000
20.3800 862.0000 1.0000
20.3900 827.0000 1.0000
20.4000 853.0000 1.0000
20.4100 889.0000 1.0000
20.4200 907.0000 1.0000
20.4300 877.0000 1.0000
20.4400 867.0000 1.0000
20.4500 833.0000 1.0000
20.4600 827.0000 1.0000
20.4700 848.0000 1.0000
20.4800 879.0000 1.0000
20.4900 879.0000 1.0000
20.5000 862.0000 1.0000
20.5100 807.0000 1.0000
20.5200 869.0000 1.0000
20.5300 886.0000 1.0000
20.5400 835.0000 1.0000
20.5500 843.0000 1.0000
20.5600 824.0000 1.0000
20.5700 888.0000 1.0000
20.5800 852.0000 1.0000
20.5900 852.0000 1.0000
20.6000 910.0000 1.0000
20.6100 864.0000 1.0000
20.6200 864.0000 1.0000
20.6300 891.0000 1.0000
20.6400 865.0000 1.0000
20.6500 874.0000 1.0000
20.6600 831.0000 1.0000
20.6700 834.0000 1.0000
20.6800 844.0000 1.0000
20.6900 882.0000 1.0000
20.7000 885.0000 1.0000
20.7100 869.0000 1.0000
20.7200 865.0000 1.0000
20.7300 841.0000 1.0000
20.7400 891.0000 1.0000
20.7500 855.0000 1.0000
20.7600 814.0000 1.0000
20.7700 812.0000 1.0000
20.7800 838.0000 1.0000
20.7900 842.0000 1.0000
20.8000 881.0000 1.0000
20.8100 900.0000 1.0000
20.8200 844.0000 1.0000
20.8300 854.0000 1.0000
20.8400 821.0000 1.0000
20.8500 818.0000 1.0000
20.8600 847.0000 1.0000
20.8700 896.0000 1.0000
20.8800 822.0000 1.0000
20.8900 840.0000 1.0000
20.9000 821.0000 1.0000
20.9100 828.0000 1.0000
20.9200 801.0000 1.0000
20.9300 846.0000 1.0000
20.9400 905.0000 1.0000
20.9500 848.0000 1.0000
20.9600 857.0000 1.0000
20.9700 850.0000 1.0000
20.9800 863.0000 1.0000
20.9900 859.0000 1.0000
21.0000 858.0000 1.0000
21.0100 851.0000 1.0000
21.0200 812.0000 1.0000
21.0300 843.0000 1.0000
21.0400 828.0000 1.0000
21.0500 860.0000 1.0000
21.0600 860.0000 1.0000
21.0700 857.0000 1.0000
21.0800 828.0000 1.0000
21.0900 852.0000 1.0000
21.1000 814.0000 1.0000
21.1100 843.0000 1.0000
21.1200 867.0000 1.0000
21.1300 870.0000 1.0000
21.1400 858.0000 1.0000
21.1500 821.0000 1.0000
21.1600 882.0000 1.0000
21.1700 876.0000 1.0000
21.1800 852.0000 1.0000
21.1900 837.0000 1.0000
21.2000 856.0000 1.0000
21.2100 836.0000 1.0000
21.2200 844.0000 1.0000
21.2300 864.0000 1.0000
21.2400 897.0000 1.0000
21.2500 876.0000 1.0000
21.2600 852.0000 1.0000
21.2700 834.0000 1.0000
21.2800 825.0000 1.0000
21.2900 864.0000 1.0000
21.3000 854.0000 1.0000
21.3100 839.0000 1.0000
21.3200 867.0000 1.0000
21.3300 907.0000 1.0000
21.3400 885.0000 1.0000
21.3500 916.0000 1.0000
21.3600 827.0000 1.0000
21.3700 862.0000 1.0000
21.3800 858.0000 1.0000
21.3900 849.0000 1.0000
21.4000 826.0000 1.0000
21.4100 885.0000 1.0000
21.4200 888.0000 1.0000
21.4300 876.0000 1.0000
21.4400 884.0000 1.0000
21.4500 861.0000 1.0000
21.4600 829.0000 1.0000
21.4700 845.0000 1.0000
21.4800 884.0000 1.0000
21.4900 858.0000 1.0000
21.5000 849.0000 1.0000
21.5100 794.0000 1.0000
21.5200 850.0000 1.0000
21.5300 879.0000 1.0000
21.5400 851.0000 1.0000
21.5500 863.0000 1.0000
21.5600 883.0000 1.0000
21.5700 870.0000 1.0000
21.5800 860.0000 1.0000
21.5900 810.0000 1.0000
21.6000 834.0000 1.0000
21.6100 813.0000 1.0000
21.6200 886.0000 1.0000
21.6300 900.0000 1.0000
21.6400 839.0000 1.0000
21.6500 847.0000 1.0000
21.6600 841.0000 1.0000
21.6700 795.0000 1.0000
21.6800 828.0000 1.0000
21.6900 810.0000 1.0000
21.7000 813.0000 1.0000
21.7100 868.0000 1.0000
21.7200 868.0000 1.0000
21.7300 832.0000 1.0000
21.7400 851.0000 1.0000
21.7500 828.0000 1.0000
21.7600 831.0000 1.0000
21.7700 819.0000 1.0000
21.7800 827.0000 1.0000
21.7900 803.0000 1.0000
21.8000 880.0000 1.0000
21.8100 840.0000 1.0000
21.8200 864.0000 1.0000
21.8300 867.0000 1.0000
21.8400 823.0000 1.0000
21.8500 837.0000 1.0000
21.8600 868.0000 1.0000
21.8700 798.0000 1.0000
21.8800 852.0000 1.0000
21.8900 822.0000 1.0000
21.9000 793.0000 1.0000
21.9100 835.0000 1.0000
21.9200 847.0000 1.0000
21.9300 867.0000 1.0000
21.9400 844.0000 1.0000
21.9500 807.0000 1.0000
21.9600 868.0000 1.0000
21.9700 848.0000 1.0000
21.9800 879.0000 1.0000
21.9900 841.0000 1.0000
22.0000 802.0000 1.0000
22.0100 853.0000 1.0000
22.0200 857.0000 1.0000
22.0300 865.0000 1.0000
22.0400 810.0000 1.0000
22.0500 806.0000 1.0000
22.0600 859.0000 1.0000
22.0700 861.0000 1.0000
22.0800 831.0000 1.0000
22.0900 808.0000 1.0000
22.1000 843.0000 1.0000
22.1100 828.0000 1.0000
22.1200 858.0000 1.0000
22.1300 897.0000 1.0000
22.1400 833.0000 1.0000
22.1500 806.0000 1.0000
22.1600 815.0000 1.0000
22.1700 833.0000 1.0000
22.1800 852.0000 1.0000
22.1900 851.0000 1.0000
22.2000 838.0000 1.0000
22.2100 821.0000 1.0000
22.2200 847.0000 1.0000
22.2300 835.0000 1.0000
22.2400 843.0000 1.0000
22.2500 824.0000 1.0000
22.2600 869.0000 1.0000
22.2700 820.0000 1.0000
22.2800 823.0000 1.0000
22.2900 874.0000 1.0000
22.3000 852.0000 1.0000
22.3100 891.0000 1.0000
22.3200 843.0000 1.0000
22.3300 864.0000 1.0000
22.3400 852.0000 1.0000
22.3500 897.0000 1.0000
22.3600 846.0000 1.0000
22.3700 830.0000 1.0000
22.3800 824.0000 1.0000
22.3900 851.0000 1.0000
22.4000 830.0000 1.0000
22.4100 799.0000 1.0000
22.4200 810.0000 1.0000
22.4300 854.0000 1.0000
22.4400 839.0000 1.0000
22.4500 826.0000 1.0000
22.4600 825.0000 1.0000
22.4700 807.0000 1.0000
22.4800 840.0000 1.0000
22.4900 845.0000 1.0000
22.5000 810.0000 1.0000
22.5100 862.0000 1.0000
22.5200 838.0000 1.0000
22.5300 859.0000 1.0000
22.5400 855.0000 1.0000
22.5500 894.0000 1.0000
22.5600 889.0000 1.0000
22.5700 861.0000 1.0000
22.5800 841.0000 1.0000
22.5900 864.0000 1.0000
22.6000 782.0000 1.0000
22.6100 852.0000 1.0000
22.6200 817.0000 1.0000
22.6300 826.0000 1.0000
22.6400 849.0000 1.0000
22.6500 839.0000 1.0000
22.6600 796.0000 1.0000
22.6700 855.0000 1.0000
22.6800 848.0000 1.0000
22.6900 775.0000 1.0000
22.7000 846.0000 1.0000
22.7100 818.0000 1.0000
22.7200 838.0000 1.0000
22.7300 858.0000 1.0000
22.7400 835.0000 1.0000
22.7500 801.0000 1.0000
22.7600 806.0000 1.0000
22.7700 789.0000 1.0000
22.7800 859.0000 1.0000
22.7900 854.0000 1.0000
22.8000 832.0000 1.0000
22.8100 861.0000 1.0000
22.8200 876.0000 1.0000
22.8300 843.0000 1.0000
22.8400 811.0000 1.0000
22.8500 817.0000 1.0000
22.8600 878.0000 1.0000
22.8700 886.0000 1.0000
22.8800 830.0000 1.0000
22.8900 792.0000 1.0000
22.9000 821.0000 1.0000
22.9100 837.0000 1.0000
22.9200 888.0000 1.0000
22.9300 837.0000 1.0000
22.9400 832.0000 1.0000
22.9500 839.0000 1.0000
22.9600 837.0000 1.0000
22.9700 800.0000 1.0000
22.9800 871.0000 1.0000
22.9900 847.0000 1.0000
23.0000 849.0000 1.0000
23.0100 838.0000 1.0000
23.0200 836.0000 1.0000
23.0300 778.0000 1.0000
23.0400 846.0000 1.0000
23.0500 824.0000 1.0000
23.0600 859.0000 1.0000
23.0700 841.0000 1.0000
23.0800 844.0000 1.0000
23.0900 804.0000 1.0000
23.1000 817.0000 1.0000
23.1100 832.0000 1.0000
23.1200 790.0000 1.0000
23.1300 831.0000 1.0000
23.1400 851.0000 1.0000
23.1500 821.0000 1.0000
23.1600 807.0000 1.0000
23.1700 866.0000 1.0000
23.1800 836.0000 1.0000
23.1900 856.0000 1.0000
23.2000 834.0000 1.0000
23.2100 817.0000 1.0000
23.2200 781.0000 1.0000
23.2300 831.0000 1.0000
23.2400 854.0000 1.0000
23.2500 821.0000 1.0000
23.2600 834.0000 1.0000
23.2700 812.0000 1.0000
23.2800 844.0000 1.0000
23.2900 870.0000 1.0000
23.3000 848.0000 1.0000
23.3100 832.0000 1.0000
23.3200 816.0000 1.0000
23.3300 834.0000 1.0000
23.3400 804.0000 1.0000
23.3500 806.0000 1.0000
23.3600 888.0000 1.0000
23.3700 820.0000 1.0000
23.3800 806.0000 1.0000
23.3900 826.0000 1.0000
23.4000 850.0000 1.0000
23.4100 849.0000 1.0000
23.4200 798.0000 1.0000
23.4300 814.0000 1.0000
23.4400 827.0000 1.0000
23.4500 839.0000 1.0000
23.4600 828.0000 1.0000
23.4700 832.0000 1.0000
23.4800 853.0000 1.0000
23.4900 820.0000 1.0000
23.5000 818.0000 1.0000
23.5100 825.0000 1.0000
23.5200 882.0000 1.0000
23.5300 844.0000 1.0000
23.5400 771.0000 1.0000
23.5500 840.0000 1.0000
23.5600 846.0000 1.0000
23.5700 816.0000 1.0000
23.5800 809.0000 1.0000
23.5900 817.0000 1.0000
23.6000 834.0000 1.0000
23.6100 746.0000 1.0000
23.6200 776.0000 1.0000
23.6300 846.0000 1.0000
23.6400 851.0000 1.0000
23.6500 840.0000 1.0000
23.6600 836.0000 1.0000
23.6700 811.0000 1.0000
23.6800 822.0000 1.0000
23.6900 811.0000 1.0000
23.7000 765.0000 1.0000
23.7100 801.0000 1.0000
23.7200 802.0000 1.0000
23.7300 813.0000 1.0000
23.7400 856.0000 1.0000
23.7500 797.0000 1.0000
23.7600 831.0000 1.0000
23.7700 833.0000 1.0000
23.7800 780.0000 1.0000
23.7900 854.0000 1.0000
23.8000 807.0000 1.0000
23.8100 852.0000 1.0000
23.8200 821.0000 1.0000
23.8300 838.0000 1.0000
23.8400 883.0000 1.0000
23.8500 850.0000 1.0000
23.8600 787.0000 1.0000
23.8700 832.0000 1.0000
23.8800 823.0000 1.0000
23.8900 846.0000 1.0000
23.9000 822.0000 1.0000
23.9100 847.0000 1.0000
23.9200 854.0000 1.0000
23.9300 868.0000 1.0000
23.9400 896.0000 1.0000
23.9500 810.0000 1.0000
23.9600 818.0000 1.0000
23.9700 789.0000 1.0000
23.9800 816.0000 1.0000
23.9900 812.0000 1.0000
24.0000 852.0000 1.0000
24.0100 834.0000 1.0000
24.0200 860.0000 1.0000
24.0300 783.0000 1.0000
24.0400 849.0000 1.0000
24.0500 864.0000 1.0000
24.0600 846.0000 1.0000
24.0700 841.0000 1.0000
24.0800 850.0000 1.0000
24.0900 841.0000 1.0000
24.1000 820.0000 1.0000
24.1100 851.0000 1.0000
24.1200 853.0000 1.0000
24.1300 892.0000 1.0000
24.1400 916.0000 1.0000
24.1500 849.0000 1.0000
24.1600 858.0000 1.0000
24.1700 847.0000 1.0000
24.1800 851.0000 1.0000
24.1900 884.0000 1.0000
24.2000 829.0000 1.0000
24.2100 805.0000 1.0000
24.2200 871.0000 1.0000
24.2300 814.0000 1.0000
24.2400 810.0000 1.0000
24.2500 853.0000 1.0000
24.2600 831.0000 1.0000
24.2700 820.0000 1.0000
24.2800 877.0000 1.0000
24.2900 846.0000 1.0000
24.3000 806.0000 1.0000
24.3100 896.0000 1.0000
24.3200 890.0000 1.0000
24.3300 824.0000 1.0000
24.3400 762.0000 1.0000
24.3500 814.0000 1.0000
24.3600 817.0000 1.0000
24.3700 815.0000 1.0000
24.3800 810.0000 1.0000
24.3900 777.0000 1.0000
24.4000 839.0000 1.0000
24.4100 847.0000 1.0000
24.4200 800.0000 1.0000
24.4300 848.0000 1.0000
24.4400 820.0000 1.0000
24.4500 804.0000 1.0000
24.4600 811.0000 1.0000
24.4700 798.0000 1.0000
24.4800 804.0000 1.0000
24.4900 758.0000 1.0000
24.5000 792.0000 1.0000
24.5100 823.0000 1.0000
24.5200 817.0000 1.0000
24.5300 793.0000 1.0000
24.5400 866.0000 1.0000
24.5500 795.0000 1.0000
24.5600 826.0000 1.0000
24.5700 775.0000 1.0000
24.5800 805.0000 1.0000
24.5900 802.0000 1.0000
24.6000 815.0000 1.0000
24.6100 838.0000 1.0000
24.6200 795.0000 1.0000
24.6300 807.0000 1.0000
24.6400 801.0000 1.0000
24.6500 824.0000 1.0000
24.6600 813.0000 1.0000
24.6700 802.0000 1.0000
24.6800 835.0000 1.0000
24.6900 837.0000 1.0000
24.7000 824.0000 1.0000
24.7100 818.0000 1.0000
24.7200 813.0000 1.0000
24.7300 832.0000 1.0000
24.7400 785.0000 1.0000
24.7500 789.0000 1.0000
24.7600 781.0000 1.0000
24.7700 794.0000 1.0000
24.7800 822.0000 1.0000
24.7900 831.0000 1.0000
24.8000 847.0000 1.0000
24.8100 780.0000 1.0000
24.8200 771.0000 1.0000
24.8300 734.0000 1.0000
24.8400 777.0000 1.0000
24.8500 839.0000 1.0000
24.8600 771.0000 1.0000
24.8700 769.0000 1.0000
24.8800 761.0000 1.0000
24.8900 817.0000 1.0000
24.9000 813.0000 1.0000
24.9100 774.0000 1.0000
24.9200 798.0000 1.0000
24.9300 779.0000 1.0000
24.9400 808.0000 1.0000
24.9500 796.0000 1.0000
24.9600 770.0000 1.0000
24.9700 835.0000 1.0000
24.9800 776.0000 1.0000
24.9900 793.0000 1.0000
25.0000 820.0000 1.0000
25.0100 796.0000 1.0000
25.0200 814.0000 1.0000
25.0300 788.0000 1.0000
25.0400 816.0000 1.0000
25.0500 790.0000 1.0000
25.0600 773.0000 1.0000
25.0700 789.0000 1.0000
25.0800 785.0000 1.0000
25.0900 809.0000 1.0000
25.1000 816.0000 1.0000
25.1100 825.0000 1.0000
25.1200 823.0000 1.0000
25.1300 822.0000 1.0000
25.1400 786.0000 1.0000
25.1500 778.0000 1.0000
25.1600 788.0000 1.0000
25.1700 832.0000 1.0000
25.1800 787.0000 1.0000
25.1900 783.0000 1.0000
25.2000 804.0000 1.0000
25.2100 783.0000 1.0000
25.2200 787.0000 1.0000
25.2300 772.0000 1.0000
25.2400 756.0000 1.0000
25.2500 780.0000 1.0000
25.2600 838.0000 1.0000
25.2700 828.0000 1.0000
25.2800 777.0000 1.0000
25.2900 822.0000 1.0000
25.3000 766.0000 1.0000
25.3100 806.0000 1.0000
25.3200 821.0000 1.0000
25.3300 798.0000 1.0000
25.3400 808.0000 1.0000
25.3500 825.0000 1.0000
25.3600 779.0000 1.0000
25.3700 786.0000 1.0000
25.3800 790.0000 1.0000
25.3900 795.0000 1.0000
25.4000 806.0000 1.0000
25.4100 808.0000 1.0000
25.4200 768.0000 1.0000
25.4300 810.0000 1.0000
25.4400 836.0000 1.0000
25.4500 804.0000 1.0000
25.4600 807.0000 1.0000
25.4700 828.0000 1.0000
25.4800 803.0000 1.0000
25.4900 791.0000 1.0000
25.5000 792.0000 1.0000
25.5100 816.0000 1.0000
25.5200 796.0000 1.0000
25.5300 778.0000 1.0000
25.5400 826.0000 1.0000
25.5500 781.0000 1.0000
25.5600 828.0000 1.0000
25.5700 816.0000 1.0000
25.5800 774.0000 1.0000
25.5900 829.0000 1.0000
25.6000 798.0000 1.0000
25.6100 818.0000 1.0000
25.6200 842.0000 1.0000
25.6300 780.0000 1.0000
25.6400 775.0000 1.0000
25.6500 796.0000 1.0000
25.6600 784.0000 1.0000
25.6700 775.0000 1.0000
25.6800 754.0000 1.0000
25.6900 797.0000 1.0000
25.7000 824.0000 1.0000
25.7100 819.0000 1.0000
25.7200 830.0000 1.0000
25.7300 858.0000 1.0000
25.7400 821.0000 1.0000
25.7500 832.0000 1.0000
25.7600 808.0000 1.0000
25.7700 789.0000 1.0000
25.7800 842.0000 1.0000
25.7900 864.0000 1.0000
25.8000 820.0000 1.0000
25.8100 808.0000 1.0000
25.8200 815.0000 1.0000
25.8300 869.0000 1.0000
25.8400 831.0000 1.0000
25.8500 824.0000 1.0000
25.8600 808.0000 1.0000
25.8700 814.0000 1.0000
25.8800 816.0000 1.0000
25.8900 779.0000 1.0000
25.9000 809.0000 1.0000
25.9100 815.0000 1.0000
25.9200 819.0000 1.0000
25.9300 806.0000 1.0000
25.9400 823.0000 1.0000
25.9500 849.0000 1.0000
25.9600 806.0000 1.0000
25.9700 843.0000 1.0000
25.9800 847.0000 1.0000
25.9900 874.0000 1.0000
26.0000 912.0000 1.0000
26.0100 894.0000 1.0000
26.0200 889.0000 1.0000
26.0300 862.0000 1.0000
26.0400 866.0000 1.0000
26.0500 836.0000 1.0000
26.0600 834.0000 1.0000
26.0700 960.0000 1.0000
26.0800 899.0000 1.0000
26.0900 903.0000 1.0000
26.1000 904.0000 1.0000
26.1100 913.0000 1.0000
26.1200 918.0000 1.0000
26.1300 922.0000 1.0000
26.1400 949.0000 1.0000
26.1500 952.0000 1.0000
26.1600 1026.0000 1.0000
26.1700 955.0000 1.0000
26.1800 974.0000 1.0000
26.1900 927.0000 1.0000
26.2000 1020.0000 1.0000
26.2100 954.0000 1.0000
26.2200 1043.0000 1.0000
26.2300 1037.0000 1.0000
26.2400 1017.0000 1.0000
26.2500 1128.0000 1.0000
26.2600 1122.0000 1.0000
26.2700 1107.0000 1.0000
26.2800 1140.0000 1.0000
26.2900 1160.0000 1.0000
26.3000 1125.0000 1.0000
26.3100 1203.0000 1.0000
26.3200 1237.0000 1.0000
26.3300 1252.0000 1.0000
26.3400 1274.0000 1.0000
26.3500 1320.0000 1.0000
26.3600 1359.0000 1.0000
26.3700 1414.0000 1.0000
26.3800 1386.0000 1.0000
26.3900 1488.0000 1.0000
26.4000 1538.0000 1.0000
26.4100 1509.0000 1.0000
26.4200 1472.0000 1.0000
26.4300 1557.0000 1.0000
26.4400 1582.0000 1.0000
26.4500 1628.0000 1.0000
26.4600 1568.0000 1.0000
26.4700 1647.0000 1.0000
26.4800 1625.0000 1.0000
26.4900 1568.0000 1.0000
26.5000 1529.0000 1.0000
26.5100 1598.0000 1.0000
26.5200 1497.0000 1.0000
26.5300 1473.0000 1.0000
26.5400 1436.0000 1.0000
26.5500 1385.0000 1.0000
26.5600 1372.0000 1.0000
26.5700 1303.0000 1.0000
26.5800 1267.0000 1.0000
26.5900 1239.0000 1.0000
26.6000 1230.0000 1.0000
26.6100 1190.0000 1.0000
26.6200 1152.0000 1.0000
26.6300 1162.0000 1.0000
26.6400 1093.0000 1.0000
26.6500 1063.0000 1.0000
26.6600 1074.0000 1.0000
26.6700 1069.0000 1.0000
26.6800 1034.0000 1.0000
26.6900 1054.0000 1.0000
26.7000 1043.0000 1.0000
26.7100 1013.0000 1.0000
26.7200 996.0000 1.0000
26.7300 959.0000 1.0000
26.7400 944.0000 1.0000
26.7500 968.0000 1.0000
26.7600 951.0000 1.0000
26.7700 898.0000 1.0000
26.7800 892.0000 1.0000
26.7900 874.0000 1.0000
26.8000 877.0000 1.0000
26.8100 888.0000 1.0000
26.8200 849.0000 1.0000
26.8300 861.0000 1.0000
26.8400 863.0000 1.0000
26.8500 882.0000 1.0000
26.8600 835.0000 1.0000
26.8700 850.0000 1.0000
26.8800 866.0000 1.0000
26.8900 850.0000 1.0000
26.9000 805.0000 1.0000
26.9100 845.0000 1.0000
26.9200 823.0000 1.0000
26.9300 821.0000 1.0000
26.9400 845.0000 1.0000
26.9500 821.0000 1.0000
26.9600 810.0000 1.0000
26.9700 833.0000 1.0000
26.9800 791.0000 1.0000
26.9900 750.0000 1.0000
27.0000 859.0000 1.0000
27.0100 850.0000 1.0000
27.0200 824.0000 1.0000
27.0300 767.0000 1.0000
27.0400 810.0000 1.0000
27.0500 802.0000 1.0000
27.0600 775.0000 1.0000
27.0700 772.0000 1.0000
27.0800 810.0000 1.0000
27.0900 796.0000 1.0000
27.1000 758.0000 1.0000
27.1100 766.0000 1.0000
27.1200 781.0000 1.0000
27.1300 817.0000 1.0000
27.1400 790.0000 1.0000
27.1500 784.0000 1.0000
27.1600 733.0000 1.0000
27.1700 736.0000 1.0000
27.1800 795.0000 1.0000
27.1900 747.0000 1.0000
27.2000 752.0000 1.0000
27.2100 735.0000 1.0000
27.2200 781.0000 1.0000
27.2300 783.0000 1.0000
27.2400 792.0000 1.0000
27.2500 753.0000 1.0000
27.2600 789.0000 1.0000
27.2700 755.0000 1.0000
27.2800 740.0000 1.0000
27.2900 745.0000 1.0000
27.3000 728.0000 1.0000
27.3100 762.0000 1.0000
27.3200 739.0000 1.0000
27.3300 709.0000 1.0000
27.3400 753.0000 1.0000
27.3500 752.0000 1.0000
27.3600 695.0000 1.0000
27.3700 733.0000 1.0000
27.3800 754.0000 1.0000
27.3900 759.0000 1.0000
27.4000 791.0000 1.0000
27.4100 746.0000 1.0000
27.4200 742.0000 1.0000
27.4300 744.0000 1.0000
27.4400 713.0000 1.0000
27.4500 721.0000 1.0000
27.4600 718.0000 1.0000
27.4700 744.0000 1.0000
27.4800 743.0000 1.0000
27.4900 719.0000 1.0000
27.5000 669.0000 1.0000
27.5100 728.0000 1.0000
27.5200 714.0000 1.0000
27.5300 758.0000 1.0000
27.5400 709.0000 1.0000
27.5500 722.0000 1.0000
27.5600 728.0000 1.0000
27.5700 736.0000 1.0000
27.5800 714.0000 1.0000
27.5900 753.0000 1.0000
27.6000 740.0000 1.0000
27.6100 743.0000 1.0000
27.6200 743.0000 1.0000
27.6300 769.0000 1.0000
27.6400 747.0000 1.0000
27.6500 725.0000 1.0000
27.6600 752.0000 1.0000
27.6700 729.0000 1.0000
27.6800 732.0000 1.0000
27.6900 680.0000 1.0000
27.7000 716.0000 1.0000
27.7100 706.0000 1.0000
27.7200 710.0000 1.0000
27.7300 706.0000 1.0000
27.7400 693.0000 1.0000
27.7500 739.0000 1.0000
27.7600 722.0000 1.0000
27.7700 728.0000 1.0000
27.7800 674.0000 1.0000
27.7900 669.0000 1.0000
27.8000 665.0000 1.0000
27.8100 694.0000 1.0000
27.8200 736.0000 1.0000
27.8300 694.0000 1.0000
27.8400 713.0000 1.0000
27.8500 686.0000 1.0000
27.8600 713.0000 1.0000
27.8700 716.0000 1.0000
27.8800 703.0000 1.0000
27.8900 661.0000 1.0000
27.9000 660.0000 1.0000
27.9100 679.0000 1.0000
27.9200 686.0000 1.0000
27.9300 697.0000 1.0000
27.9400 705.0000 1.0000
27.9500 694.0000 1.0000
27.9600 721.0000 1.0000
27.9700 669.0000 1.0000
27.9800 696.0000 1.0000
27.9900 690.0000 1.0000
28.0000 706.0000 1.0000
28.0100 709.0000 1.0000
28.0200 680.0000 1.0000
28.0300 723.0000 1.0000
28.0400 741.0000 1.0000
28.0500 659.0000 1.0000
28.0600 708.0000 1.0000
28.0700 666.0000 1.0000
28.0800 709.0000 1.0000
28.0900 699.0000 1.0000
28.1000 737.0000 1.0000
28.1100 725.0000 1.0000
28.1200 689.0000 1.0000
28.1300 746.0000 1.0000
28.1400 670.0000 1.0000
28.1500 695.0000 1.0000
28.1600 721.0000 1.0000
28.1700 708.0000 1.0000
28.1800 644.0000 1.0000
28.1900 697.0000 1.0000
28.2000 699.0000 1.0000
28.2100 714.0000 1.0000
28.2200 739.0000 1.0000
28.2300 717.0000 1.0000
28.2400 690.0000 1.0000
28.2500 719.0000 1.0000
28.2600 749.0000 1.0000
28.2700 705.0000 1.0000
28.2800 742.0000 1.0000
28.2900 724.0000 1.0000
28.3000 735.0000 1.0000
28.3100 718.0000 1.0000
28.3200 773.0000 1.0000
28.3300 749.0000 1.0000
28.3400 724.0000 1.0000
28.3500 703.0000 1.0000
28.3600 703.0000 1.0000
28.3700 725.0000 1.0000
28.3800 695.0000 1.0000
28.3900 683.0000 1.0000
28.4000 684.0000 1.0000
28.4100 712.0000 1.0000
28.4200 696.0000 1.0000
28.4300 681.0000 1.0000
28.4400 724.0000 1.0000
28.4500 684.0000 1.0000
28.4600 656.0000 1.0000
28.4700 669.0000 1.0000
28.4800 701.0000 1.0000
28.4900 697.0000 1.0000
28.5000 681.0000 1.0000
28.5100 706.0000 1.0000
28.5200 675.0000 1.0000
28.5300 683.0000 1.0000
28.5400 711.0000 1.0000
28.5500 683.0000 1.0000
28.5600 677.0000 1.0000
28.5700 675.0000 1.0000
28.5800 638.0000 1.0000
28.5900 689.0000 1.0000
28.6000 696.0000 1.0000
28.6100 707.0000 1.0000
28.6200 653.0000 1.0000
28.6300 691.0000 1.0000
28.6400 690.0000 1.0000
28.6500 684.0000 1.0000
28.6600 630.0000 1.0000
28.6700 690.0000 1.0000
28.6800 659.0000 1.0000
28.6900 677.0000 1.0000
28.7000 650.0000 1.0000
28.7100 723.0000 1.0000
28.7200 656.0000 1.0000
28.7300 695.0000 1.0000
28.7400 717.0000 1.0000
28.7500 710.0000 1.0000
28.7600 667.0000 1.0000
28.7700 643.0000 1.0000
28.7800 676.0000 1.0000
28.7900 638.0000 1.0000
28.8000 678.0000 1.0000
28.8100 681.0000 1.0000
28.8200 725.0000 1.0000
28.8300 687.0000 1.0000
28.8400 720.0000 1.0000
28.8500 713.0000 1.0000
28.8600 648.0000 1.0000
28.8700 684.0000 1.0000
28.8800 714.0000 1.0000
28.8900 681.0000 1.0000
28.9000 677.0000 1.0000
28.9100 648.0000 1.0000
28.9200 662.0000 1.0000
28.9300 633.0000 1.0000
28.9400 649.0000 1.0000
28.9500 669.0000 1.0000
28.9600 693.0000 1.0000
28.9700 652.0000 1.0000
28.9800 710.0000 1.0000
28.9900 641.0000 1.0000
29.0000 658.0000 1.0000
29.0100 646.0000 1.0000
29.0200 629.0000 1.0000
29.0300 689.0000 1.0000
29.0400 658.0000 1.0000
29.0500 670.0000 1.0000
29.0600 624.0000 1.0000
29.0700 688.0000 1.0000
29.0800 671.0000 1.0000
29.0900 663.0000 1.0000
29.1000 686.0000 1.0000
29.1100 635.0000 1.0000
29.1200 620.0000 1.0000
29.1300 697.0000 1.0000
29.1400 691.0000 1.0000
29.1500 681.0000 1.0000
29.1600 684.0000 1.0000
29.1700 701.0000 1.0000
29.1800 659.0000 1.0000
29.1900 652.0000 1.0000
29.2000 717.0000 1.0000
29.2100 698.0000 1.0000
29.2200 670.0000 1.0000
29.2300 640.0000 1.0000
29.2400 646.0000 1.0000
29.2500 632.0000 1.0000
29.2600 710.0000 1.0000
29.2700 702.0000 1.0000
29.2800 680.0000 1.0000
29.2900 660.0000 1.0000
29.3000 666.0000 1.0000
29.3100 683.0000 1.0000
29.3200 682.0000 1.0000
29.3300 660.0000 1.0000
29.3400 671.0000 1.0000
29.3500 653.0000 1.0000
29.3600 688.0000 1.0000
29.3700 646.0000 1.0000
29.3800 694.0000 1.0000
29.3900 647.0000 1.0000
29.4000 656.0000 1.0000
29.4100 624.0000 1.0000
29.4200 680.0000 1.0000
29.4300 661.0000 1.0000
29.4400 692.0000 1.0000
29.4500 663.0000 1.0000
29.4600 633.0000 1.0000
29.4700 672.0000 1.0000
29.4800 652.0000 1.0000
29.4900 676.0000 1.0000
29.5000 616.0000 1.0000
29.5100 661.0000 1.0000
29.5200 667.0000 1.0000
29.5300 674.0000 1.0000
29.5400 646.0000 1.0000
29.5500 644.0000 1.0000
29.5600 645.0000 1.0000
29.5700 659.0000 1.0000
29.5800 636.0000 1.0000
29.5900 675.0000 1.0000
29.6000 634.0000 1.0000
29.6100 651.0000 1.0000
29.6200 631.0000 1.0000
29.6300 623.0000 1.0000
29.6400 686.0000 1.0000
29.6500 667.0000 1.0000
29.6600 661.0000 1.0000
29.6700 627.0000 1.0000
29.6800 629.0000 1.0000
29.6900 660.0000 1.0000
29.7000 607.0000 1.0000
29.7100 617.0000 1.0000
29.7200 678.0000 1.0000
29.7300 653.0000 1.0000
29.7400 633.0000 1.0000
29.7500 642.0000 1.0000
29.7600 657.0000 1.0000
29.7700 663.0000 1.0000
29.7800 623.0000 1.0000
29.7900 674.0000 1.0000
29.8000 691.0000 1.0000
29.8100 635.0000 1.0000
29.8200 632.0000 1.0000
29.8300 636.0000 1.0000
29.8400 660.0000 1.0000
29.8500 649.0000 1.0000
29.8600 681.0000 1.0000
29.8700 678.0000 1.0000
29.8800 643.0000 1.0000
29.8900 655.0000 1.0000
29.9000 637.0000 1.0000
29.9100 627.0000 1.0000
29.9200 619.0000 1.0000
29.9300 656.0000 1.0000
29.9400 641.0000 1.0000
29.9500 647.0000 1.0000
29.9600 604.0000 1.0000
29.9700 600.0000 1.0000
29.9800 619.0000 1.0000
29.9900 606.0000 1.0000
30.0000 638.0000 1.0000
30.0100 657.0000 1.0000
30.0200 636.0000 1.0000
30.0300 643.0000 1.0000
30.0400 661.0000 1.0000
30.0500 635.0000 1.0000
30.0600 638.0000 1.0000
30.0700 638.0000 1.0000
30.0800 639.0000 1.0000
30.0900 651.0000 1.0000
30.1000 623.0000 1.0000
30.1100 651.0000 1.0000
30.1200 633.0000 1.0000
30.1300 617.0000 1.0000
30.1400 643.0000 1.0000
30.1500 615.0000 1.0000
30.1600 634.0000 1.0000
30.1700 639.0000 1.0000
30.1800 663.0000 1.0000
30.1900 673.0000 1.0000
30.2000 651.0000 1.0000
30.2100 645.0000 1.0000
30.2200 629.0000 1.0000
30.2300 635.0000 1.0000
30.2400 619.0000 1.0000
30.2500 607.0000 1.0000
30.2600 621.0000 1.0000
30.2700 618.0000 1.0000
30.2800 660.0000 1.0000
30.2900 640.0000 1.0000
30.3000 617.0000 1.0000
30.3100 622.0000 1.0000
30.3200 628.0000 1.0000
30.3300 637.0000 1.0000
30.3400 626.0000 1.0000
30.3500 634.0000 1.0000
30.3600 621.0000 1.0000
30.3700 635.0000 1.0000
30.3800 644.0000 1.0000
30.3900 610.0000 1.0000
30.4000 605.0000 1.0000
30.4100 648.0000 1.0000
30.4200 656.0000 1.0000
30.4300 623.0000 1.0000
30.4400 632.0000 1.0000
30.4500 650.0000 1.0000
30.4600 627.0000 1.0000
30.4700 643.0000 1.0000
30.4800 658.0000 1.0000
30.4900 636.0000 1.0000
30.5000 675.0000 1.0000
30.5100 612.0000 1.0000
30.5200 618.0000 1.0000
30.5300 652.0000 1.0000
30.5400 618.0000 1.0000
30.5500 650.0000 1.0000
30.5600 618.0000 1.0000
30.5700 629.0000 1.0000
30.5800 629.0000 1.0000
30.5900 638.0000 1.0000
30.6000 628.0000 1.0000
30.6100 599.0000 1.0000
30.6200 613.0000 1.0000
30.6300 636.0000 1.0000
30.6400 621.0000 1.0000
30.6500 606.0000 1.0000
30.6600 653.0000 1.0000
30.6700 626.0000 1.0000
30.6800 638.0000 1.0000
30.6900 645.0000 1.0000
30.7000 639.0000 1.0000
30.7100 583.0000 1.0000
30.7200 631.0000 1.0000
30.7300 631.0000 1.0000
30.7400 609.0000 1.0000
30.7500 619.0000 1.0000
30.7600 616.0000 1.0000
30.7700 593.0000 1.0000
30.7800 610.0000 1.0000
30.7900 619.0000 1.0000
30.8000 614.0000 1.0000
30.8100 646.0000 1.0000
30.8200 633.0000 1.0000
30.8300 607.0000 1.0000
30.8400 623.0000 1.0000
30.8500 623.0000 1.0000
30.8600 599.0000 1.0000
30.8700 617.0000 1.0000
30.8800 624.0000 1.0000
30.8900 618.0000 1.0000
30.9000 594.0000 1.0000
30.9100 621.0000 1.0000
30.9200 623.0000 1.0000
30.9300 605.0000 1.0000
30.9400 634.0000 1.0000
30.9500 607.0000 1.0000
30.9600 629.0000 1.0000
30.9700 581.0000 1.0000
30.9800 636.0000 1.0000
30.9900 690.0000 1.0000
31.0000 638.0000 1.0000
31.0100 646.0000 1.0000
31.0200 640.0000 1.0000
31.0300 630.0000 1.0000
31.0400 640.0000 1.0000
31.0500 632.0000 1.0000
31.0600 640.0000 1.0000
31.0700 651.0000 1.0000
31.0800 684.0000 1.0000
31.0900 687.0000 1.0000
31.1000 689.0000 1.0000
31.1100 628.0000 1.0000
31.1200 608.0000 1.0000
31.1300 677.0000 1.0000
31.1400 661.0000 1.0000
31.1500 621.0000 1.0000
31.1600 654.0000 1.0000
31.1700 615.0000 1.0000
31.1800 661.0000 1.0000
31.1900 676.0000 1.0000
31.2000 641.0000 1.0000
31.2100 651.0000 1.0000
31.2200 650.0000 1.0000
31.2300 629.0000 1.0000
31.2400 606.0000 1.0000
31.2500 656.0000 1.0000
31.2600 639.0000 1.0000
31.2700 641.0000 1.0000
31.2800 648.0000 1.0000
31.2900 602.0000 1.0000
31.3000 634.0000 1.0000
31.3100 642.0000 1.0000
31.3200 652.0000 1.0000
31.3300 669.0000 1.0000
31.3400 626.0000 1.0000
31.3500 680.0000 1.0000
31.3600 632.0000 1.0000
31.3700 628.0000 1.0000
31.3800 633.0000 1.0000
31.3900 618.0000 1.0000
31.4000 645.0000 1.0000
31.4100 641.0000 1.0000
31.4200 627.0000 1.0000
31.4300 643.0000 1.0000
31.4400 628.0000 1.0000
31.4500 591.0000 1.0000
31.4600 619.0000 1.0000
31.4700 646.0000 1.0000
31.4800 623.0000 1.0000
31.4900 628.0000 1.0000
31.5000 634.0000 1.0000
31.5100 610.0000 1.0000
31.5200 656.0000 1.0000
31.5300 633.0000 1.0000
31.5400 655.0000 1.0000
31.5500 660.0000 1.0000
31.5600 653.0000 1.0000
31.5700 671.0000 1.0000
31.5800 639.0000 1.0000
31.5900 640.0000 1.0000
31.6000 656.0000 1.0000
31.6100 641.0000 1.0000
31.6200 682.0000 1.0000
31.6300 649.0000 1.0000
31.6400 654.0000 1.0000
31.6500 654.0000 1.0000
31.6600 636.0000 1.0000
31.6700 677.0000 1.0000
31.6800 666.0000 1.0000
31.6900 616.0000 1.0000
31.7000 628.0000 1.0000
31.7100 663.0000 1.0000
31.7200 625.0000 1.0000
31.7300 585.0000 1.0000
31.7400 606.0000 1.0000
31.7500 629.0000 1.0000
31.7600 651.0000 1.0000
31.7700 611.0000 1.0000
31.7800 600.0000 1.0000
31.7900 565.0000 1.0000
31.8000 627.0000 1.0000
31.8100 645.0000 1.0000
31.8200 607.0000 1.0000
31.8300 615.0000 1.0000
31.8400 647.0000 1.0000
31.8500 614.0000 1.0000
31.8600 582.0000 1.0000
31.8700 543.0000 1.0000
31.8800 579.0000 1.0000
31.8900 609.0000 1.0000
31.9000 650.0000 1.0000
31.9100 655.0000 1.0000
31.9200 626.0000 1.0000
31.9300 620.0000 1.0000
31.9400 618.0000 1.0000
31.9500 609.0000 1.0000
31.9600 608.0000 1.0000
31.9700 598.0000 1.0000
31.9800 613.0000 1.0000
31.9900 636.0000 1.0000
32.0000 661.0000 1.0000
32.0100 663.0000 1.0000
32.0200 668.0000 1.0000
32.0300 574.0000 1.0000
32.0400 627.0000 1.0000
32.0500 616.0000 1.0000
32.0600 630.0000 1.0000
32.0700 609.0000 1.0000
32.0800 619.0000 1.0000
32.0900 603.0000 1.0000
32.1000 582.0000 1.0000
32.1100 592.0000 1.0000
32.1200 585.0000 1.0000
32.1300 603.0000 1.0000
32.1400 615.0000 1.0000
32.1500 619.0000 1.0000
32.1600 632.0000 1.0000
32.1700 612.0000 1.0000
32.1800 581.0000 1.0000
32.1900 612.0000 1.0000
32.2000 593.0000 1.0000
32.2100 563.0000 1.0000
32.2200 585.0000 1.0000
32.2300 590.0000 1.0000
32.2400 561.0000 1.0000
32.2500 568.0000 1.0000
32.2600 579.0000 1.0000
32.2700 606.0000 1.0000
32.2800 599.0000 1.0000
32.2900 581.0000 1.0000
32.3000 609.0000 1.0000
32.3100 542.0000 1.0000
32.3200 580.0000 1.0000
32.3300 601.0000 1.0000
32.3400 578.0000 1.0000
32.3500 599.0000 1.0000
32.3600 602.0000 1.0000
32.3700 598.0000 1.0000
32.3800 609.0000 1.0000
32.3900 599.0000 1.0000
32.4000 567.0000 1.0000
32.4100 565.0000 1.0000
32.4200 586.0000 1.0000
32.4300 574.0000 1.0000
32.4400 593.0000 1.0000
32.4500 618.0000 1.0000
32.4600 554.0000 1.0000
32.4700 593.0000 1.0000
32.4800 614.0000 1.0000
32.4900 583.0000 1.0000
32.5000 604.0000 1.0000
32.5100 582.0000 1.0000
32.5200 623.0000 1.0000
32.5300 592.0000 1.0000
32.5400 626.0000 1.0000
32.5500 562.0000 1.0000
32.5600 564.0000 1.0000
32.5700 565.0000 1.0000
32.5800 599.0000 1.0000
32.5900 606.0000 1.0000
32.6000 606.0000 1.0000
32.6100 599.0000 1.0000
32.6200 586.0000 1.0000
32.6300 580.0000 1.0000
32.6400 618.0000 1.0000
32.6500 571.0000 1.0000
32.6600 588.0000 1.0000
32.6700 595.0000 1.0000
32.6800 618.0000 1.0000
32.6900 570.0000 1.0000
32.7000 605.0000 1.0000
32.7100 563.0000 1.0000
32.7200 582.0000 1.0000
32.7300 595.0000 1.0000
32.7400 589.0000 1.0000
32.7500 626.0000 1.0000
32.7600 564.0000 1.0000
32.7700 562.0000 1.0000
32.7800 625.0000 1.0000
32.7900 556.0000 1.0000
32.8000 586.0000 1.0000
32.8100 575.0000 1.0000
32.8200 583.0000 1.0000
32.8300 565.0000 1.0000
32.8400 632.0000 1.0000
32.8500 539.0000 1.0000
32.8600 562.0000 1.0000
32.8700 632.0000 1.0000
32.8800 608.0000 1.0000
32.8900 623.0000 1.0000
32.9000 573.0000 1.0000
32.9100 614.0000 1.0000
32.9200 632.0000 1.0000
32.9300 591.0000 1.0000
32.9400 601.0000 1.0000
32.9500 601.0000 1.0000
32.9600 620.0000 1.0000
32.9700 636.0000 1.0000
32.9800 601.0000 1.0000
32.9900 625.0000 1.0000
33.0000 648.0000 1.0000
33.0100 634.0000 1.0000
33.0200 640.0000 1.0000
33.0300 650.0000 1.0000
33.0400 629.0000 1.0000
33.0500 610.0000 1.0000
33.0600 652.0000 1.0000
33.0700 645.0000 1.0000
33.0800 597.0000 1.0000
33.0900 660.0000 1.0000
33.1000 665.0000 1.0000
33.1100 630.0000 1.0000
33.1200 680.0000 1.0000
33.1300 674.0000 1.0000
33.1400 602.0000 1.0000
33.1500 622.0000 1.0000
33.1600 652.0000 1.0000
33.1700 647.0000 1.0000
33.1800 646.0000 1.0000
33.1900 600.0000 1.0000
33.2000 620.0000 1.0000
33.2100 672.0000 1.0000
33.2200 629.0000 1.0000
33.2300 631.0000 1.0000
33.2400 645.0000 1.0000
33.2500 625.0000 1.0000
33.2600 593.0000 1.0000
33.2700 630.0000 1.0000
33.2800 615.0000 1.0000
33.2900 594.0000 1.0000
33.3000 622.0000 1.0000
33.3100 652.0000 1.0000
33.3200 626.0000 1.0000
33.3300 622.0000 1.0000
33.3400 631.0000 1.0000
33.3500 658.0000 1.0000
33.3600 650.0000 1.0000
33.3700 609.0000 1.0000
33.3800 640.0000 1.0000
33.3900 607.0000 1.0000
33.4000 644.0000 1.0000
33.4100 644.0000 1.0000
33.4200 651.0000 1.0000
33.4300 665.0000 1.0000
33.4400 635.0000 1.0000
33.4500 661.0000 1.0000
33.4600 699.0000 1.0000
33.4700 696.0000 1.0000
33.4800 626.0000 1.0000
33.4900 668.0000 1.0000
33.5000 683.0000 1.0000
33.5100 664.0000 1.0000
33.5200 698.0000 1.0000
33.5300 708.0000 1.0000
33.5400 739.0000 1.0000
33.5500 744.0000 1.0000
33.5600 720.0000 1.0000
33.5700 758.0000 1.0000
33.5800 733.0000 1.0000
33.5900 737.0000 1.0000
33.6000 763.0000 1.0000
33.6100 707.0000 1.0000
33.6200 714.0000 1.0000
33.6300 760.0000 1.0000
33.6400 735.0000 1.0000
33.6500 765.0000 1.0000
33.6600 758.0000 1.0000
33.6700 741.0000 1.0000
33.6800 758.0000 1.0000
33.6900 788.0000 1.0000
33.7000 767.0000 1.0000
33.7100 749.0000 1.0000
33.7200 719.0000 1.0000
33.7300 728.0000 1.0000
33.7400 723.0000 1.0000
33.7500 751.0000 1.0000
33.7600 756.0000 1.0000
33.7700 681.0000 1.0000
33.7800 715.0000 1.0000
33.7900 744.0000 1.0000
33.8000 649.0000 1.0000
33.8100 672.0000 1.0000
33.8200 705.0000 1.0000
33.8300 658.0000 1.0000
33.8400 708.0000 1.0000
33.8500 697.0000 1.0000
33.8600 645.0000 1.0000
33.8700 637.0000 1.0000
33.8800 693.0000 1.0000
33.8900 670.0000 1.0000
33.9000 663.0000 1.0000
33.9100 626.0000 1.0000
33.9200 600.0000 1.0000
33.9300 600.0000 1.0000
33.9400 623.0000 1.0000
33.9500 601.0000 1.0000
33.9600 654.0000 1.0000
33.9700 595.0000 1.0000
33.9800 583.0000 1.0000
33.9900 621.0000 1.0000
34.0000 645.0000 1.0000
34.0100 605.0000 1.0000
34.0200 600.0000 1.0000
34.0300 569.0000 1.0000
34.0400 601.0000 1.0000
34.0500 586.0000 1.0000
34.0600 571.0000 1.0000
34.0700 581.0000 1.0000
34.0800 591.0000 1.0000
34.0900 550.0000 1.0000
34.1000 535.0000 1.0000
34.1100 537.0000 1.0000
34.1200 528.0000 1.0000
34.1300 519.0000 1.0000
34.1400 532.0000 1.0000
34.1500 546.0000 1.0000
34.1600 535.0000 1.0000
34.1700 540.0000 1.0000
34.1800 575.0000 1.0000
34.1900 553.0000 1.0000
34.2000 553.0000 1.0000
34.2100 566.0000 1.0000
34.2200 505.0000 1.0000
34.2300 526.0000 1.0000
34.2400 524.0000 1.0000
34.2500 522.0000 1.0000
34.2600 517.0000 1.0000
34.2700 476.0000 1.0000
34.2800 552.0000 1.0000
34.2900 515.0000 1.0000
34.3000 502.0000 1.0000
34.3100 512.0000 1.0000
34.3200 508.0000 1.0000
34.3300 535.0000 1.0000
34.3400 484.0000 1.0000
34.3500 516.0000 1.0000
34.3600 517.0000 1.0000
34.3700 497.0000 1.0000
34.3800 510.0000 1.0000
34.3900 519.0000 1.0000
34.4000 547.0000 1.0000
34.4100 542.0000 1.0000
34.4200 519.0000 1.0000
34.4300 526.0000 1.0000
34.4400 544.0000 1.0000
34.4500 512.0000 1.0000
34.4600 515.0000 1.0000
34.4700 469.0000 1.0000
34.4800 502.0000 1.0000
34.4900 511.0000 1.0000
34.5000 478.0000 1.0000
34.5100 485.0000 1.0000
34.5200 539.0000 1.0000
34.5300 489.0000 1.0000
34.5400 513.0000 1.0000
34.5500 486.0000 1.0000
34.5600 510.0000 1.0000
34.5700 495.0000 1.0000
34.5800 480.0000 1.0000
34.5900 519.0000 1.0000
34.6000 489.0000 1.0000
34.6100 519.0000 1.0000
34.6200 482.0000 1.0000
34.6300 528.0000 1.0000
34.6400 504.0000 1.0000
34.6500 468.0000 1.0000
34.6600 524.0000 1.0000
34.6700 522.0000 1.0000
34.6800 463.0000 1.0000
34.6900 497.0000 1.0000
34.7000 476.0000 1.0000
34.7100 479.0000 1.0000
34.7200 468.0000 1.0000
34.7300 490.0000 1.0000
34.7400 475.0000 1.0000
34.7500 484.0000 1.0000
34.7600 490.0000 1.0000
34.7700 515.0000 1.0000
34.7800 490.0000 1.0000
34.7900 474.0000 1.0000
34.8000 490.0000 1.0000
34.8100 483.0000 1.0000
34.8200 458.0000 1.0000
34.8300 488.0000 1.0000
34.8400 459.0000 1.0000
34.8500 493.0000 1.0000
34.8600 506.0000 1.0000
34.8700 507.0000 1.0000
34.8800 462.0000 1.0000
34.8900 484.0000 1.0000
34.9000 483.0000 1.0000
34.9100 464.0000 1.0000
34.9200 482.0000 1.0000
34.9300 495.0000 1.0000
34.9400 496.0000 1.0000
34.9500 468.0000 1.0000
34.9600 467.0000 1.0000
34.9700 494.0000 1.0000
34.9800 464.0000 1.0000
34.9900 472.0000 1.0000
35.0000 472.0000 1.0000
35.0100 491.0000 1.0000
35.0200 466.0000 1.0000
35.0300 474.0000 1.0000
35.0400 478.0000 1.0000
35.0500 465.0000 1.0000
35.0600 434.0000 1.0000
35.0700 505.0000 1.0000
35.0800 489.0000 1.0000
35.0900 471.0000 1.0000
35.1000 467.0000 1.0000
35.1100 474.0000 1.0000
35.1200 476.0000 1.0000
35.1300 496.0000 1.0000
35.1400 500.0000 1.0000
35.1500 478.0000 1.0000
35.1600 520.0000 1.0000
35.1700 489.0000 1.0000
35.1800 473.0000 1.0000
35.1900 490.0000 1.0000
35.2000 524.0000 1.0000
35.2100 488.0000 1.0000
35.2200 483.0000 1.0000
35.2300 509.0000 1.0000
35.2400 541.0000 1.0000
35.2500 506.0000 1.0000
35.2600 477.0000 1.0000
35.2700 500.0000 1.0000
35.2800 475.0000 1.0000
35.2900 471.0000 1.0000
35.3000 517.0000 1.0000
35.3100 514.0000 1.0000
35.3200 512.0000 1.0000
35.3300 505.0000 1.0000
35.3400 523.0000 1.0000
35.3500 506.0000 1.0000
35.3600 548.0000 1.0000
35.3700 530.0000 1.0000
35.3800 546.0000 1.0000
35.3900 554.0000 1.0000
35.4000 544.0000 1.0000
35.4100 542.0000 1.0000
35.4200 545.0000 1.0000
35.4300 554.0000 1.0000
35.4400 585.0000 1.0000
35.4500 612.0000 1.0000
35.4600 553.0000 1.0000
35.4700 577.0000 1.0000
35.4800 561.0000 1.0000
35.4900 585.0000 1.0000
35.5000 622.0000 1.0000
35.5100 614.0000 1.0000
35.5200 651.0000 1.0000
35.5300 601.0000 1.0000
35.5400 662.0000 1.0000
35.5500 639.0000 1.0000
35.5600 622.0000 1.0000
35.5700 621.0000 1.0000
35.5800 652.0000 1.0000
35.5900 630.0000 1.0000
35.6000 634.0000 1.0000
35.6100 631.0000 1.0000
35.6200 698.0000 1.0000
35.6300 635.0000 1.0000
35.6400 634.0000 1.0000
35.6500 624.0000 1.0000
35.6600 592.0000 1.0000
35.6700 611.0000 1.0000
35.6800 634.0000 1.0000
35.6900 605.0000 1.0000
35.7000 575.0000 1.0000
35.7100 576.0000 1.0000
35.7200 569.0000 1.0000
35.7300 571.0000 1.0000
35.7400 546.0000 1.0000
35.7500 512.0000 1.0000
35.7600 545.0000 1.0000
35.7700 546.0000 1.0000
35.7800 516.0000 1.0000
35.7900 516.0000 1.0000
35.8000 530.0000 1.0000
35.8100 502.0000 1.0000
35.8200 510.0000 1.0000
35.8300 512.0000 1.0000
35.8400 461.0000 1.0000
35.8500 501.0000 1.0000
35.8600 504.0000 1.0000
35.8700 487.0000 1.0000
35.8800 491.0000 1.0000
35.8900 452.0000 1.0000
35.9000 457.0000 1.0000
35.9100 498.0000 1.0000
35.9200 493.0000 1.0000
35.9300 460.0000 1.0000
35.9400 480.0000 1.0000
35.9500 467.0000 1.0000
35.9600 445.0000 1.0000
35.9700 460.0000 1.0000
35.9800 447.0000 1.0000
35.9900 469.0000 1.0000
36.0000 477.0000 1.0000
36.0100 470.0000 1.0000
36.0200 501.0000 1.0000
36.0300 462.0000 1.0000
36.0400 445.0000 1.0000
36.0500 438.0000 1.0000
36.0600 451.0000 1.0000
36.0700 466.0000 1.0000
36.0800 469.0000 1.0000
36.0900 477.0000 1.0000
36.1000 474.0000 1.0000
36.1100 461.0000 1.0000
36.1200 477.0000 1.0000
36.1300 451.0000 1.0000
36.1400 444.0000 1.0000
36.1500 430.0000 1.0000
36.1600 434.0000 1.0000
36.1700 427.0000 1.0000
36.1800 423.0000 1.0000
36.1900 476.0000 1.0000
36.2000 420.0000 1.0000
36.2100 431.0000 1.0000
36.2200 454.0000 1.0000
36.2300 434.0000 1.0000
36.2400 451.0000 1.0000
36.2500 446.0000 1.0000
36.2600 441.0000 1.0000
36.2700 423.0000 1.0000
36.2800 482.0000 1.0000
36.2900 450.0000 1.0000
36.3000 440.0000 1.0000
36.3100 422.0000 1.0000
36.3200 437.0000 1.0000
36.3300 474.0000 1.0000
36.3400 478.0000 1.0000
36.3500 459.0000 1.0000
36.3600 414.0000 1.0000
36.3700 436.0000 1.0000
36.3800 440.0000 1.0000
36.3900 442.0000 1.0000
36.4000 448.0000 1.0000
36.4100 461.0000 1.0000
36.4200 471.0000 1.0000
36.4300 463.0000 1.0000
36.4400 457.0000 1.0000
36.4500 466.0000 1.0000
36.4600 453.0000 1.0000
36.4700 449.0000 1.0000
36.4800 455.0000 1.0000
36.4900 456.0000 1.0000
36.5000 487.0000 1.0000
36.5100 462.0000 1.0000
36.5200 428.0000 1.0000
36.5300 434.0000 1.0000
36.5400 445.0000 1.0000
36.5500 442.0000 1.0000
36.5600 450.0000 1.0000
36.5700 449.0000 1.0000
36.5800 463.0000 1.0000
36.5900 464.0000 1.0000
36.6000 493.0000 1.0000
36.6100 448.0000 1.0000
36.6200 454.0000 1.0000
36.6300 464.0000 1.0000
36.6400 449.0000 1.0000
36.6500 424.0000 1.0000
36.6600 445.0000 1.0000
36.6700 439.0000 1.0000
36.6800 436.0000 1.0000
36.6900 460.0000 1.0000
36.7000 449.0000 1.0000
36.7100 416.0000 1.0000
36.7200 444.0000 1.0000
36.7300 439.0000 1.0000
36.7400 449.0000 1.0000
36.7500 476.0000 1.0000
36.7600 470.0000 1.0000
36.7700 463.0000 1.0000
36.7800 473.0000 1.0000
36.7900 472.0000 1.0000
36.8000 453.0000 1.0000
36.8100 458.0000 1.0000
36.8200 445.0000 1.0000
36.8300 461.0000 1.0000
36.8400 452.0000 1.0000
36.8500 430.0000 1.0000
36.8600 465.0000 1.0000
36.8700 446.0000 1.0000
36.8800 446.0000 1.0000
36.8900 487.0000 1.0000
36.9000 427.0000 1.0000
36.9100 464.0000 1.0000
36.9200 468.0000 1.0000
36.9300 488.0000 1.0000
36.9400 477.0000 1.0000
36.9500 443.0000 1.0000
36.9600 436.0000 1.0000
36.9700 412.0000 1.0000
36.9800 440.0000 1.0000
36.9900 462.0000 1.0000
37.0000 482.0000 1.0000
37.0100 467.0000 1.0000
37.0200 467.0000 1.0000
37.0300 506.0000 1.0000
37.0400 453.0000 1.0000
37.0500 487.0000 1.0000
37.0600 483.0000 1.0000
37.0700 479.0000 1.0000
37.0800 451.0000 1.0000
37.0900 476.0000 1.0000
37.1000 441.0000 1.0000
37.1100 455.0000 1.0000
37.1200 449.0000 1.0000
37.1300 472.0000 1.0000
37.1400 478.0000 1.0000
37.1500 486.0000 1.0000
37.1600 495.0000 1.0000
37.1700 481.0000 1.0000
37.1800 505.0000 1.0000
37.1900 469.0000 1.0000
37.2000 492.0000 1.0000
37.2100 490.0000 1.0000
37.2200 498.0000 1.0000
37.2300 504.0000 1.0000
37.2400 546.0000 1.0000
37.2500 547.0000 1.0000
37.2600 535.0000 1.0000
37.2700 590.0000 1.0000
37.2800 545.0000 1.0000
37.2900 528.0000 1.0000
37.3000 530.0000 1.0000
37.3100 578.0000 1.0000
37.3200 582.0000 1.0000
37.3300 548.0000 1.0000
37.3400 538.0000 1.0000
37.3500 568.0000 1.0000
37.3600 625.0000 1.0000
37.3700 648.0000 1.0000
37.3800 638.0000 1.0000
37.3900 635.0000 1.0000
37.4000 645.0000 1.0000
37.4100 691.0000 1.0000
37.4200 735.0000 1.0000
37.4300 762.0000 1.0000
37.4400 770.0000 1.0000
37.4500 825.0000 1.0000
37.4600 860.0000 1.0000
37.4700 860.0000 1.0000
37.4800 942.0000 1.0000
37.4900 961.0000 1.0000
37.5000 988.0000 1.0000
37.5100 1056.0000 1.0000
37.5200 1132.0000 1.0000
37.5300 1180.0000 1.0000
37.5400 1209.0000 1.0000
37.5500 1295.0000 1.0000
37.5600 1386.0000 1.0000
37.5700 1512.0000 1.0000
37.5800 1559.0000 1.0000
37.5900 1698.0000 1.0000
37.6000 1818.0000 1.0000
37.6100 1947.0000 1.0000
37.6200 2101.0000 1.0000
37.6300 2208.0000 1.0000
37.6400 2365.0000 1.0000
37.6500 2467.0000 1.0000
37.6600 2574.0000 1.0000
37.6700 2824.0000 1.0000
37.6800 2776.0000 1.0000
37.6900 2894.0000 1.0000
37.7000 2990.0000 1.0000
37.7100 3094.0000 1.0000
37.7200 3085.0000 1.0000
37.7300 3171.0000 1.0000
37.7400 3150.0000 1.0000
37.7500 3158.0000 1.0000
37.7600 3089.0000 1.0000
37.7700 2992.0000 1.0000
37.7800 2986.0000 1.0000
37.7900 2885.0000 1.0000
37.8000 2744.0000 1.0000
37.8100 2700.0000 1.0000
37.8200 2533.0000 1.0000
37.8300 2392.0000 1.0000
37.8400 2302.0000 1.0000
37.8500 2094.0000 1.0000
37.8600 1998.0000 1.0000
37.8700 1889.0000 1.0000
37.8800 1781.0000 1.0000
37.8900 1571.0000 1.0000
37.9000 1530.0000 1.0000
37.9100 1463.0000 1.0000
37.9200 1361.0000 1.0000
37.9300 1262.0000 1.0000
37.9400 1247.0000 1.0000
37.9500 1144.0000 1.0000
37.9600 1071.0000 1.0000
37.9700 988.0000 1.0000
37.9800 972.0000 1.0000
37.9900 919.0000 1.0000
38.0000 857.0000 1.0000
38.0100 869.0000 1.0000
38.0200 805.0000 1.0000
38.0300 762.0000 1.0000
38.0400 732.0000 1.0000
38.0500 714.0000 1.0000
38.0600 740.0000 1.0000
38.0700 683.0000 1.0000
38.0800 647.0000 1.0000
38.0900 568.0000 1.0000
38.1000 558.0000 1.0000
38.1100 633.0000 1.0000
38.1200 610.0000 1.0000
38.1300 556.0000 1.0000
38.1400 528.0000 1.0000
38.1500 529.0000 1.0000
38.1600 511.0000 1.0000
38.1700 504.0000 1.0000
38.1800 519.0000 1.0000
38.1900 497.0000 1.0000
38.2000 493.0000 1.0000
38.2100 482.0000 1.0000
38.2200 492.0000 1.0000
38.2300 524.0000 1.0000
38.2400 486.0000 1.0000
38.2500 464.0000 1.0000
38.2600 491.0000 1.0000
38.2700 445.0000 1.0000
38.2800 429.0000 1.0000
38.2900 450.0000 1.0000
38.3000 449.0000 1.0000
38.3100 462.0000 1.0000
38.3200 435.0000 1.0000
38.3300 441.0000 1.0000
38.3400 420.0000 1.0000
38.3500 445.0000 1.0000
38.3600 426.0000 1.0000
38.3700 409.0000 1.0000
38.3800 424.0000 1.0000
38.3900 450.0000 1.0000
38.4000 415.0000 1.0000
38.4100 419.0000 1.0000
38.4200 428.0000 1.0000
38.4300 427.0000 1.0000
38.4400 441.0000 1.0000
38.4500 443.0000 1.0000
38.4600 395.0000 1.0000
38.4700 436.0000 1.0000
38.4800 439.0000 1.0000
38.4900 431.0000 1.0000
38.5000 417.0000 1.0000
38.5100 422.0000 1.0000
38.5200 389.0000 1.0000
38.5300 389.0000 1.0000
38.5400 410.0000 1.0000
38.5500 402.0000 1.0000
38.5600 415.0000 1.0000
38.5700 427.0000 1.0000
38.5800 419.0000 1.0000
38.5900 422.0000 1.0000
38.6000 407.0000 1.0000
38.6100 391.0000 1.0000
38.6200 397.0000 1.0000
38.6300 416.0000 1.0000
38.6400 407.0000 1.0000
38.6500 389.0000 1.0000
38.6600 383.0000 1.0000
38.6700 408.0000 1.0000
38.6800 397.0000 1.0000
38.6900 389.0000 1.0000
38.7000 392.0000 1.0000
38.7100 410.0000 1.0000
38.7200 399.0000 1.0000
38.7300 399.0000 1.0000
38.7400 389.0000 1.0000
38.7500 425.0000 1.0000
38.7600 403.0000 1.0000
38.7700 403.0000 1.0000
38.7800 425.0000 1.0000
38.7900 401.0000 1.0000
38.8000 417.0000 1.0000
38.8100 429.0000 1.0000
38.8200 406.0000 1.0000
38.8300 397.0000 1.0000
38.8400 432.0000 1.0000
38.8500 389.0000 1.0000
38.8600 391.0000 1.0000
38.8700 396.0000 1.0000
38.8800 390.0000 1.0000
38.8900 376.0000 1.0000
38.9000 383.0000 1.0000
38.9100 378.0000 1.0000
38.9200 368.0000 1.0000
38.9300 391.0000 1.0000
38.9400 414.0000 1.0000
38.9500 411.0000 1.0000
38.9600 388.0000 1.0000
38.9700 379.0000 1.0000
38.9800 400.0000 1.0000
38.9900 363.0000 1.0000
39.0000 387.0000 1.0000
39.0100 358.0000 1.0000
39.0200 335.0000 1.0000
39.0300 376.0000 1.0000
39.0400 380.0000 1.0000
39.0500 377.0000 1.0000
39.0600 390.0000 1.0000
39.0700 379.0000 1.0000
39.0800 368.0000 1.0000
39.0900 368.0000 1.0000
39.1000 361.0000 1.0000
39.1100 382.0000 1.0000
39.1200 364.0000 1.0000
39.1300 362.0000 1.0000
39.1400 382.0000 1.0000
39.1500 403.0000 1.0000
39.1600 379.0000 1.0000
39.1700 389.0000 1.0000
39.1800 367.0000 1.0000
39.1900 366.0000 1.0000
39.2000 371.0000 1.0000
39.2100 358.0000 1.0000
39.2200 349.0000 1.0000
39.2300 385.0000 1.0000
39.2400 357.0000 1.0000
39.2500 380.0000 1.0000
39.2600 375.0000 1.0000
39.2700 365.0000 1.0000
39.2800 370.0000 1.0000
39.2900 427.0000 1.0000
39.3000 371.0000 1.0000
39.3100 355.0000 1.0000
39.3200 355.0000 1.0000
39.3300 348.0000 1.0000
39.3400 374.0000 1.0000
39.3500 348.0000 1.0000
39.3600 376.0000 1.0000
39.3700 363.0000 1.0000
39.3800 373.0000 1.0000
39.3900 373.0000 1.0000
39.4000 348.0000 1.0000
39.4100 354.0000 1.0000
39.4200 369.0000 1.0000
39.4300 349.0000 1.0000
39.4400 358.0000 1.0000
39.4500 369.0000 1.0000
39.4600 362.0000 1.0000
39.4700 365.0000 1.0000
39.4800 381.0000 1.0000
39.4900 342.0000 1.0000
39.5000 350.0000 1.0000
39.5100 353.0000 1.0000
39.5200 370.0000 1.0000
39.5300 369.0000 1.0000
39.5400 347.0000 1.0000
39.5500 352.0000 1.0000
39.5600 369.0000 1.0000
39.5700 371.0000 1.0000
39.5800 365.0000 1.0000
39.5900 378.0000 1.0000
39.6000 386.0000 1.0000
39.6100 371.0000 1.0000
39.6200 382.0000 1.0000
39.6300 362.0000 1.0000
39.6400 351.0000 1.0000
39.6500 362.0000 1.0000
39.6600 358.0000 1.0000
39.6700 362.0000 1.0000
39.6800 360.0000 1.0000
39.6900 339.0000 1.0000
39.7000 343.0000 1.0000
39.7100 336.0000 1.0000
39.7200 364.0000 1.0000
39.7300 351.0000 1.0000
39.7400 350.0000 1.0000
39.7500 380.0000 1.0000
39.7600 357.0000 1.0000
39.7700 356.0000 1.0000
39.7800 409.0000 1.0000
39.7900 384.0000 1.0000
39.8000 365.0000 1.0000
39.8100 336.0000 1.0000
39.8200 381.0000 1.0000
39.8300 373.0000 1.0000
39.8400 379.0000 1.0000
39.8500 356.0000 1.0000
39.8600 369.0000 1.0000
39.8700 373.0000 1.0000
39.8800 371.0000 1.0000
39.8900 369.0000 1.0000
39.9000 342.0000 1.0000
39.9100 360.0000 1.0000
39.9200 356.0000 1.0000
39.9300 357.0000 1.0000
39.9400 362.0000 1.0000
39.9500 366.0000 1.0000
39.9600 335.0000 1.0000
39.9700 329.0000 1.0000
39.9800 377.0000 1.0000
39.9900 366.0000 1.0000
40.0000 358.0000 1.0000
40.0100 347.0000 1.0000
40.0200 355.0000 1.0000
40.0300 329.0000 1.0000
40.0400 383.0000 1.0000
40.0500 353.0000 1.0000
40.0600 355.0000 1.0000
40.0700 363.0000 1.0000
40.0800 328.0000 1.0000
40.0900 350.0000 1.0000
40.1000 317.0000 1.0000
40.1100 354.0000 1.0000
40.1200 392.0000 1.0000
40.1300 378.0000 1.0000
40.1400 351.0000 1.0000
40.1500 349.0000 1.0000
40.1600 349.0000 1.0000
40.1700 318.0000 1.0000
40.1800 326.0000 1.0000
40.1900 343.0000 1.0000
40.2000 350.0000 1.0000
40.2100 350.0000 1.0000
40.2200 345.0000 1.0000
40.2300 387.0000 1.0000
40.2400 385.0000 1.0000
40.2500 373.0000 1.0000
40.2600 353.0000 1.0000
40.2700 357.0000 1.0000
40.2800 364.0000 1.0000
40.2900 358.0000 1.0000
40.3000 340.0000 1.0000
40.3100 370.0000 1.0000
40.3200 364.0000 1.0000
40.3300 368.0000 1.0000
40.3400 373.0000 1.0000
40.3500 344.0000 1.0000
40.3600 367.0000 1.0000
40.3700 362.0000 1.0000
40.3800 362.0000 1.0000
40.3900 358.0000 1.0000
40.4000 344.0000 1.0000
40.4100 359.0000 1.0000
40.4200 355.0000 1.0000
40.4300 364.0000 1.0000
40.4400 385.0000 1.0000
40.4500 387.0000 1.0000
40.4600 377.0000 1.0000
40.4700 370.0000 1.0000
40.4800 376.0000 1.0000
40.4900 371.0000 1.0000
40.5000 410.0000 1.0000
40.5100 378.0000 1.0000
40.5200 364.0000 1.0000
40.5300 383.0000 1.0000
40.5400 400.0000 1.0000
40.5500 377.0000 1.0000
40.5600 366.0000 1.0000
40.5700 350.0000 1.0000
40.5800 353.0000 1.0000
40.5900 366.0000 1.0000
40.6000 365.0000 1.0000
40.6100 381.0000 1.0000
40.6200 392.0000 1.0000
40.6300 384.0000 1.0000
40.6400 368.0000 1.0000
40.6500 368.0000 1.0000
40.6600 359.0000 1.0000
40.6700 341.0000 1.0000
40.6800 388.0000 1.0000
40.6900 399.0000 1.0000
40.7000 381.0000 1.0000
40.7100 377.0000 1.0000
40.7200 398.0000 1.0000
40.7300 395.0000 1.0000
40.7400 428.0000 1.0000
40.7500 369.0000 1.0000
40.7600 378.0000 1.0000
40.7700 342.0000 1.0000
40.7800 387.0000 1.0000
40.7900 389.0000 1.0000
40.8000 351.0000 1.0000
40.8100 341.0000 1.0000
40.8200 384.0000 1.0000
40.8300 374.0000 1.0000
40.8400 388.0000 1.0000
40.8500 363.0000 1.0000
40.8600 380.0000 1.0000
40.8700 361.0000 1.0000
40.8800 334.0000 1.0000
40.8900 344.0000 1.0000
40.9000 343.0000 1.0000
40.9100 353.0000 1.0000
40.9200 345.0000 1.0000
40.9300 367.0000 1.0000
40.9400 365.0000 1.0000
40.9500 370.0000 1.0000
40.9600 344.0000 1.0000
40.9700 368.0000 1.0000
40.9800 362.0000 1.0000
40.9900 366.0000 1.0000
41.0000 353.0000 1.0000
41.0100 339.0000 1.0000
41.0200 360.0000 1.0000
41.0300 350.0000 1.0000
41.0400 358.0000 1.0000
41.0500 364.0000 1.0000
41.0600 367.0000 1.0000
41.0700 360.0000 1.0000
41.0800 365.0000 1.0000
41.0900 346.0000 1.0000
41.1000 358.0000 1.0000
41.1100 332.0000 1.0000
41.1200 353.0000 1.0000
41.1300 342.0000 1.0000
41.1400 325.0000 1.0000
41.1500 368.0000 1.0000
41.1600 357.0000 1.0000
41.1700 350.0000 1.0000
41.1800 342.0000 1.0000
41.1900 342.0000 1.0000
41.2000 365.0000 1.0000
41.2100 329.0000 1.0000
41.2200 350.0000 1.0000
41.2300 344.0000 1.0000
41.2400 345.0000 1.0000
41.2500 348.0000 1.0000
41.2600 375.0000 1.0000
41.2700 349.0000 1.0000
41.2800 356.0000 1.0000
41.2900 374.0000 1.0000
41.3000 336.0000 1.0000
41.3100 343.0000 1.0000
41.3200 321.0000 1.0000
41.3300 348.0000 1.0000
41.3400 344.0000 1.0000
41.3500 332.0000 1.0000
41.3600 310.0000 1.0000
41.3700 353.0000 1.0000
41.3800 320.0000 1.0000
41.3900 352.0000 1.0000
41.4000 344.0000 1.0000
41.4100 347.0000 1.0000
41.4200 350.0000 1.0000
41.4300 355.0000 1.0000
41.4400 345.0000 1.0000
41.4500 373.0000 1.0000
41.4600 349.0000 1.0000
41.4700 332.0000 1.0000
41.4800 358.0000 1.0000
41.4900 358.0000 1.0000
41.5000 366.0000 1.0000
41.5100 329.0000 1.0000
41.5200 328.0000 1.0000
41.5300 375.0000 1.0000
41.5400 340.0000 1.0000
41.5500 342.0000 1.0000
41.5600 339.0000 1.0000
41.5700 338.0000 1.0000
41.5800 336.0000 1.0000
41.5900 323.0000 1.0000
41.6000 329.0000 1.0000
41.6100 336.0000 1.0000
41.6200 345.0000 1.0000
41.6300 353.0000 1.0000
41.6400 339.0000 1.0000
41.6500 342.0000 1.0000
41.6600 330.0000 1.0000
41.6700 370.0000 1.0000
41.6800 342.0000 1.0000
41.6900 330.0000 1.0000
41.7000 330.0000 1.0000
41.7100 343.0000 1.0000
41.7200 351.0000 1.0000
41.7300 331.0000 1.0000
41.7400 331.0000 1.0000
41.7500 358.0000 1.0000
41.7600 326.0000 1.0000
41.7700 344.0000 1.0000
41.7800 350.0000 1.0000
41.7900 324.0000 1.0000
41.8000 351.0000 1.0000
41.8100 357.0000 1.0000
41.8200 330.0000 1.0000
41.8300 341.0000 1.0000
41.8400 355.0000 1.0000
41.8500 371.0000 1.0000
41.8600 364.0000 1.0000
41.8700 333.0000 1.0000
41.8800 347.0000 1.0000
41.8900 373.0000 1.0000
41.9000 345.0000 1.0000
41.9100 309.0000 1.0000
41.9200 334.0000 1.0000
41.9300 320.0000 1.0000
41.9400 351.0000 1.0000
41.9500 308.0000 1.0000
41.9600 334.0000 1.0000
41.9700 326.0000 1.0000
41.9800 340.0000 1.0000
41.9900 343.0000 1.0000
42.0000 326.0000 1.0000
42.0100 332.0000 1.0000
42.0200 358.0000 1.0000
42.0300 350.0000 1.0000
42.0400 330.0000 1.0000
42.0500 317.0000 1.0000
42.0600 333.0000 1.0000
42.0700 324.0000 1.0000
42.0800 351.0000 1.0000
42.0900 312.0000 1.0000
42.1000 360.0000 1.0000
42.1100 357.0000 1.0000
42.1200 334.0000 1.0000
42.1300 353.0000 1.0000
42.1400 346.0000 1.0000
42.1500 313.0000 1.0000
42.1600 330.0000 1.0000
42.1700 329.0000 1.0000
42.1800 335.0000 1.0000
42.1900 346.0000 1.0000
42.2000 333.0000 1.0000
42.2100 300.0000 1.0000
42.2200 343.0000 1.0000
42.2300 321.0000 1.0000
42.2400 380.0000 1.0000
42.2500 372.0000 1.0000
42.2600 315.0000 1.0000
42.2700 348.0000 1.0000
42.2800 349.0000 1.0000
42.2900 349.0000 1.0000
42.3000 354.0000 1.0000
42.3100 341.0000 1.0000
42.3200 322.0000 1.0000
42.3300 369.0000 1.0000
42.3400 351.0000 1.0000
42.3500 310.0000 1.0000
42.3600 333.0000 1.0000
42.3700 330.0000 1.0000
42.3800 357.0000 1.0000
42.3900 346.0000 1.0000
42.4000 332.0000 1.0000
42.4100 326.0000 1.0000
42.4200 355.0000 1.0000
42.4300 347.0000 1.0000
42.4400 334.0000 1.0000
42.4500 354.0000 1.0000
42.4600 362.0000 1.0000
42.4700 349.0000 1.0000
42.4800 380.0000 1.0000
42.4900 340.0000 1.0000
42.5000 356.0000 1.0000
42.5100 353.0000 1.0000
42.5200 351.0000 1.0000
42.5300 366.0000 1.0000
42.5400 335.0000 1.0000
42.5500 354.0000 1.0000
42.5600 333.0000 1.0000
42.5700 332.0000 1.0000
42.5800 337.0000 1.0000
42.5900 337.0000 1.0000
42.6000 330.0000 1.0000
42.6100 354.0000 1.0000
42.6200 349.0000 1.0000
42.6300 344.0000 1.0000
42.6400 324.0000 1.0000
42.6500 335.0000 1.0000
42.6600 342.0000 1.0000
42.6700 331.0000 1.0000
42.6800 324.0000 1.0000
42.6900 343.0000 1.0000
42.7000 366.0000 1.0000
42.7100 338.0000 1.0000
42.7200 368.0000 1.0000
42.7300 329.0000 1.0000
42.7400 312.0000 1.0000
42.7500 343.0000 1.0000
42.7600 340.0000 1.0000
42.7700 326.0000 1.0000
42.7800 342.0000 1.0000
42.7900 326.0000 1.0000
42.8000 344.0000 1.0000
42.8100 321.0000 1.0000
42.8200 354.0000 1.0000
42.8300 323.0000 1.0000
42.8400 328.0000 1.0000
42.8500 359.0000 1.0000
42.8600 356.0000 1.0000
42.8700 323.0000 1.0000
42.8800 315.0000 1.0000
42.8900 327.0000 1.0000
42.9000 347.0000 1.0000
42.9100 347.0000 1.0000
42.9200 355.0000 1.0000
42.9300 329.0000 1.0000
42.9400 329.0000 1.0000
42.9500 299.0000 1.0000
42.9600 307.0000 1.0000
42.9700 296.0000 1.0000
42.9800 335.0000 1.0000
42.9900 357.0000 1.0000
43.0000 347.0000 1.0000
43.0100 300.0000 1.0000
43.0200 351.0000 1.0000
43.0300 343.0000 1.0000
43.0400 343.0000 1.0000
43.0500 334.0000 1.0000
43.0600 336.0000 1.0000
43.0700 312.0000 1.0000
43.0800 322.0000 1.0000
43.0900 316.0000 1.0000
43.1000 339.0000 1.0000
43.1100 325.0000 1.0000
43.1200 327.0000 1.0000
43.1300 317.0000 1.0000
43.1400 299.0000 1.0000
43.1500 342.0000 1.0000
43.1600 359.0000 1.0000
43.1700 319.0000 1.0000
43.1800 311.0000 1.0000
43.1900 324.0000 1.0000
43.2000 337.0000 1.0000
43.2100 339.0000 1.0000
43.2200 335.0000 1.0000
43.2300 322.0000 1.0000
43.2400 319.0000 1.0000
43.2500 340.0000 1.0000
43.2600 340.0000 1.0000
43.2700 326.0000 1.0000
43.2800 306.0000 1.0000
43.2900 347.0000 1.0000
43.3000 309.0000 1.0000
43.3100 312.0000 1.0000
43.3200 316.0000 1.0000
43.3300 325.0000 1.0000
43.3400 322.0000 1.0000
43.3500 326.0000 1.0000
43.3600 358.0000 1.0000
43.3700 294.0000 1.0000
43.3800 354.0000 1.0000
43.3900 350.0000 1.0000
43.4000 341.0000 1.0000
43.4100 324.0000 1.0000
43.4200 330.0000 1.0000
43.4300 323.0000 1.0000
43.4400 313.0000 1.0000
43.4500 322.0000 1.0000
43.4600 329.0000 1.0000
43.4700 298.0000 1.0000
43.4800 330.0000 1.0000
43.4900 337.0000 1.0000
43.5000 339.0000 1.0000
43.5100 319.0000 1.0000
43.5200 313.0000 1.0000
43.5300 331.0000 1.0000
43.5400 314.0000 1.0000
43.5500 304.0000 1.0000
43.5600 300.0000 1.0000
43.5700 317.0000 1.0000
43.5800 318.0000 1.0000
43.5900 331.0000 1.0000
43.6000 334.0000 1.0000
43.6100 329.0000 1.0000
43.6200 358.0000 1.0000
43.6300 306.0000 1.0000
43.6400 317.0000 1.0000
43.6500 343.0000 1.0000
43.6600 337.0000 1.0000
43.6700 354.0000 1.0000
43.6800 334.0000 1.0000
43.6900 333.0000 1.0000
43.7000 328.0000 1.0000
43.7100 306.0000 1.0000
43.7200 345.0000 1.0000
43.7300 319.0000 1.0000
43.7400 321.0000 1.0000
43.7500 329.0000 1.0000
43.7600 310.0000 1.0000
43.7700 331.0000 1.0000
43.7800 303.0000 1.0000
43.7900 309.0000 1.0000
43.8000 309.0000 1.0000
43.8100 328.0000 1.0000
43.8200 326.0000 1.0000
43.8300 315.0000 1.0000
43.8400 309.0000 1.0000
43.8500 330.0000 1.0000
43.8600 349.0000 1.0000
43.8700 312.0000 1.0000
43.8800 312.0000 1.0000
43.8900 324.0000 1.0000
43.9000 319.0000 1.0000
43.9100 295.0000 1.0000
43.9200 326.0000 1.0000
43.9300 341.0000 1.0000
43.9400 292.0000 1.0000
43.9500 307.0000 1.0000
43.9600 329.0000 1.0000
43.9700 335.0000 1.0000
43.9800 316.0000 1.0000
43.9900 323.0000 1.0000
44.0000 303.0000 1.0000
44.0100 303.0000 1.0000
44.0200 307.0000 1.0000
44.0300 327.0000 1.0000
44.0400 346.0000 1.0000
44.0500 319.0000 1.0000
44.0600 296.0000 1.0000
44.0700 334.0000 1.0000
44.0800 306.0000 1.0000
44.0900 294.0000 1.0000
44.1000 300.0000 1.0000
44.1100 315.0000 1.0000
44.1200 324.0000 1.0000
44.1300 317.0000 1.0000
44.1400 308.0000 1.0000
44.1500 307.0000 1.0000
44.1600 299.0000 1.0000
44.1700 299.0000 1.0000
44.1800 324.0000 1.0000
44.1900 330.0000 1.0000
44.2000 305.0000 1.0000
44.2100 323.0000 1.0000
44.2200 304.0000 1.0000
44.2300 313.0000 1.0000
44.2400 303.0000 1.0000
44.2500 311.0000 1.0000
44.2600 328.0000 1.0000
44.2700 310.0000 1.0000
44.2800 330.0000 1.0000
44.2900 308.0000 1.0000
44.3000 317.0000 1.0000
44.3100 315.0000 1.0000
44.3200 305.0000 1.0000
44.3300 315.0000 1.0000
44.3400 322.0000 1.0000
44.3500 341.0000 1.0000
44.3600 342.0000 1.0000
44.3700 321.0000 1.0000
44.3800 300.0000 1.0000
44.3900 312.0000 1.0000
44.4000 302.0000 1.0000
44.4100 321.0000 1.0000
44.4200 304.0000 1.0000
44.4300 319.0000 1.0000
44.4400 321.0000 1.0000
44.4500 319.0000 1.0000
44.4600 313.0000 1.0000
44.4700 298.0000 1.0000
44.4800 320.0000 1.0000
44.4900 325.0000 1.0000
44.5000 305.0000 1.0000
44.5100 330.0000 1.0000
44.5200 310.0000 1.0000
44.5300 314.0000 1.0000
44.5400 307.0000 1.0000
44.5500 308.0000 1.0000
44.5600 291.0000 1.0000
44.5700 336.0000 1.0000
44.5800 306.0000 1.0000
44.5900 296.0000 1.0000
44.6000 305.0000 1.0000
44.6100 315.0000 1.0000
44.6200 337.0000 1.0000
44.6300 313.0000 1.0000
44.6400 306.0000 1.0000
44.6500 337.0000 1.0000
44.6600 345.0000 1.0000
44.6700 312.0000 1.0000
44.6800 296.0000 1.0000
44.6900 317.0000 1.0000
44.7000 295.0000 1.0000
44.7100 313.0000 1.0000
44.7200 318.0000 1.0000
44.7300 313.0000 1.0000
44.7400 305.0000 1.0000
44.7500 298.0000 1.0000
44.7600 289.0000 1.0000
44.7700 312.0000 1.0000
44.7800 287.0000 1.0000
44.7900 312.0000 1.0000
44.8000 314.0000 1.0000
44.8100 312.0000 1.0000
44.8200 313.0000 1.0000
44.8300 325.0000 1.0000
44.8400 302.0000 1.0000
44.8500 309.0000 1.0000
44.8600 306.0000 1.0000
44.8700 314.0000 1.0000
44.8800 320.0000 1.0000
44.8900 289.0000 1.0000
44.9000 334.0000 1.0000
44.9100 300.0000 1.0000
44.9200 292.0000 1.0000
44.9300 309.0000 1.0000
44.9400 324.0000 1.0000
44.9500 327.0000 1.0000
44.9600 331.0000 1.0000
44.9700 321.0000 1.0000
44.9800 302.0000 1.0000
44.9900 322.0000 1.0000
45.0000 317.0000 1.0000
45.0100 317.0000 1.0000
45.0200 292.0000 1.0000
45.0300 326.0000 1.0000
45.0400 283.0000 1.0000
45.0500 303.0000 1.0000
45.0600 295.0000 1.0000
45.0700 303.0000 1.0000
45.0800 314.0000 1.0000
45.0900 296.0000 1.0000
45.1000 301.0000 1.0000
45.1100 317.0000 1.0000
45.1200 312.0000 1.0000
45.1300 320.0000 1.0000
45.1400 305.0000 1.0000
45.1500 305.0000 1.0000
45.1600 301.0000 1.0000
45.1700 307.0000 1.0000
45.1800 330.0000 1.0000
45.1900 321.0000 1.0000
45.2000 320.0000 1.0000
45.2100 332.0000 1.0000
45.2200 309.0000 1.0000
45.2300 345.0000 1.0000
45.2400 308.0000 1.0000
45.2500 304.0000 1.0000
45.2600 301.0000 1.0000
45.2700 319.0000 1.0000
45.2800 258.0000 1.0000
45.2900 269.0000 1.0000
45.3000 301.0000 1.0000
45.3100 307.0000 1.0000
45.3200 297.0000 1.0000
45.3300 292.0000 1.0000
45.3400 296.0000 1.0000
45.3500 324.0000 1.0000
45.3600 339.0000 1.0000
45.3700 325.0000 1.0000
45.3800 309.0000 1.0000
45.3900 341.0000 1.0000
45.4000 324.0000 1.0000
45.4100 324.0000 1.0000
45.4200 317.0000 1.0000
45.4300 303.0000 1.0000
45.4400 316.0000 1.0000
45.4500 282.0000 1.0000
45.4600 303.0000 1.0000
45.4700 301.0000 1.0000
45.4800 302.0000 1.0000
45.4900 303.0000 1.0000
45.5000 326.0000 1.0000
45.5100 304.0000 1.0000
45.5200 301.0000 1.0000
45.5300 338.0000 1.0000
45.5400 311.0000 1.0000
45.5500 325.0000 1.0000
45.5600 324.0000 1.0000
45.5700 299.0000 1.0000
45.5800 297.0000 1.0000
45.5900 297.0000 1.0000
45.6000 325.0000 1.0000
45.6100 322.0000 1.0000
45.6200 309.0000 1.0000
45.6300 319.0000 1.0000
45.6400 312.0000 1.0000
45.6500 292.0000 1.0000
45.6600 298.0000 1.0000
45.6700 316.0000 1.0000
45.6800 290.0000 1.0000
45.6900 304.0000 1.0000
45.7000 299.0000 1.0000
45.7100 300.0000 1.0000
45.7200 303.0000 1.0000
45.7300 302.0000 1.0000
45.7400 311.0000 1.0000
45.7500 284.0000 1.0000
45.7600 303.0000 1.0000
45.7700 292.0000 1.0000
45.7800 312.0000 1.0000
45.7900 354.0000 1.0000
45.8000 313.0000 1.0000
45.8100 285.0000 1.0000
45.8200 293.0000 1.0000
45.8300 314.0000 1.0000
45.8400 286.0000 1.0000
45.8500 288.0000 1.0000
45.8600 313.0000 1.0000
45.8700 307.0000 1.0000
45.8800 308.0000 1.0000
45.8900 298.0000 1.0000
45.9000 316.0000 1.0000
45.9100 322.0000 1.0000
45.9200 341.0000 1.0000
45.9300 297.0000 1.0000
45.9400 299.0000 1.0000
45.9500 293.0000 1.0000
45.9600 304.0000 1.0000
45.9700 285.0000 1.0000
45.9800 292.0000 1.0000
45.9900 295.0000 1.0000
46.0000 306.0000 1.0000
46.0100 322.0000 1.0000
46.0200 296.0000 1.0000
46.0300 333.0000 1.0000
46.0400 342.0000 1.0000
46.0500 306.0000 1.0000
46.0600 333.0000 1.0000
46.0700 325.0000 1.0000
46.0800 288.0000 1.0000
46.0900 302.0000 1.0000
46.1000 290.0000 1.0000
46.1100 309.0000 1.0000
46.1200 308.0000 1.0000
46.1300 275.0000 1.0000
46.1400 300.0000 1.0000
46.1500 313.0000 1.0000
46.1600 283.0000 1.0000
46.1700 319.0000 1.0000
46.1800 289.0000 1.0000
46.1900 332.0000 1.0000
46.2000 303.0000 1.0000
46.2100 290.0000 1.0000
46.2200 310.0000 1.0000
46.2300 274.0000 1.0000
46.2400 315.0000 1.0000
46.2500 309.0000 1.0000
46.2600 328.0000 1.0000
46.2700 311.0000 1.0000
46.2800 298.0000 1.0000
46.2900 298.0000 1.0000
46.3000 294.0000 1.0000
46.3100 321.0000 1.0000
46.3200 326.0000 1.0000
46.3300 266.0000 1.0000
46.3400 305.0000 1.0000
46.3500 314.0000 1.0000
46.3600 271.0000 1.0000
46.3700 275.0000 1.0000
46.3800 305.0000 1.0000
46.3900 295.0000 1.0000
46.4000 301.0000 1.0000
46.4100 288.0000 1.0000
46.4200 264.0000 1.0000
46.4300 282.0000 1.0000
46.4400 286.0000 1.0000
46.4500 287.0000 1.0000
46.4600 302.0000 1.0000
46.4700 283.0000 1.0000
46.4800 297.0000 1.0000
46.4900 304.0000 1.0000
46.5000 288.0000 1.0000
46.5100 298.0000 1.0000
46.5200 295.0000 1.0000
46.5300 298.0000 1.0000
46.5400 293.0000 1.0000
46.5500 280.0000 1.0000
46.5600 300.0000 1.0000
46.5700 341.0000 1.0000
46.5800 283.0000 1.0000
46.5900 281.0000 1.0000
46.6000 284.0000 1.0000
46.6100 288.0000 1.0000
46.6200 301.0000 1.0000
46.6300 311.0000 1.0000
46.6400 322.0000 1.0000
46.6500 307.0000 1.0000
46.6600 292.0000 1.0000
46.6700 315.0000 1.0000
46.6800 281.0000 1.0000
46.6900 303.0000 1.0000
46.7000 323.0000 1.0000
46.7100 263.0000 1.0000
46.7200 311.0000 1.0000
46.7300 286.0000 1.0000
46.7400 300.0000 1.0000
46.7500 295.0000 1.0000
46.7600 291.0000 1.0000
46.7700 280.0000 1.0000
46.7800 296.0000 1.0000
46.7900 283.0000 1.0000
46.8000 270.0000 1.0000
46.8100 279.0000 1.0000
46.8200 307.0000 1.0000
46.8300 287.0000 1.0000
46.8400 289.0000 1.0000
46.8500 280.0000 1.0000
46.8600 287.0000 1.0000
46.8700 281.0000 1.0000
46.8800 295.0000 1.0000
46.8900 284.0000 1.0000
46.9000 319.0000 1.0000
46.9100 325.0000 1.0000
46.9200 291.0000 1.0000
46.9300 266.0000 1.0000
46.9400 321.0000 1.0000
46.9500 301.0000 1.0000
46.9600 301.0000 1.0000
46.9700 280.0000 1.0000
46.9800 272.0000 1.0000
46.9900 277.0000 1.0000
47.0000 303.0000 1.0000
47.0100 306.0000 1.0000
47.0200 314.0000 1.0000
47.0300 291.0000 1.0000
47.0400 304.0000 1.0000
47.0500 289.0000 1.0000
47.0600 287.0000 1.0000
47.0700 294.0000 1.0000
47.0800 294.0000 1.0000
47.0900 276.0000 1.0000
47.1000 294.0000 1.0000
47.1100 271.0000 1.0000
47.1200 300.0000 1.0000
47.1300 275.0000 1.0000
47.1400 262.0000 1.0000
47.1500 284.0000 1.0000
47.1600 299.0000 1.0000
47.1700 277.0000 1.0000
47.1800 298.0000 1.0000
47.1900 323.0000 1.0000
47.2000 289.0000 1.0000
47.2100 293.0000 1.0000
47.2200 322.0000 1.0000
47.2300 297.0000 1.0000
47.2400 316.0000 1.0000
47.2500 276.0000 1.0000
47.2600 289.0000 1.0000
47.2700 325.0000 1.0000
47.2800 290.0000 1.0000
47.2900 309.0000 1.0000
47.3000 284.0000 1.0000
47.3100 300.0000 1.0000
47.3200 272.0000 1.0000
47.3300 275.0000 1.0000
47.3400 273.0000 1.0000
47.3500 290.0000 1.0000
47.3600 250.0000 1.0000
47.3700 293.0000 1.0000
47.3800 299.0000 1.0000
47.3900 305.0000 1.0000
47.4000 292.0000 1.0000
47.4100 318.0000 1.0000
47.4200 292.0000 1.0000
47.4300 299.0000 1.0000
47.4400 280.0000 1.0000
47.4500 299.0000 1.0000
47.4600 299.0000 1.0000
47.4700 335.0000 1.0000
47.4800 287.0000 1.0000
47.4900 294.0000 1.0000
47.5000 300.0000 1.0000
47.5100 290.0000 1.0000
47.5200 302.0000 1.0000
47.5300 268.0000 1.0000
47.5400 299.0000 1.0000
47.5500 303.0000 1.0000
47.5600 290.0000 1.0000
47.5700 301.0000 1.0000
47.5800 279.0000 1.0000
47.5900 275.0000 1.0000
47.6000 282.0000 1.0000
47.6100 305.0000 1.0000
47.6200 293.0000 1.0000
47.6300 295.0000 1.0000
47.6400 321.0000 1.0000
47.6500 304.0000 1.0000
47.6600 286.0000 1.0000
47.6700 284.0000 1.0000
47.6800 300.0000 1.0000
47.6900 295.0000 1.0000
47.7000 297.0000 1.0000
47.7100 307.0000 1.0000
47.7200 276.0000 1.0000
47.7300 284.0000 1.0000
47.7400 297.0000 1.0000
47.7500 276.0000 1.0000
47.7600 274.0000 1.0000
47.7700 290.0000 1.0000
47.7800 290.0000 1.0000
47.7900 278.0000 1.0000
47.8000 272.0000 1.0000
47.8100 272.0000 1.0000
47.8200 288.0000 1.0000
47.8300 297.0000 1.0000
47.8400 276.0000 1.0000
47.8500 295.0000 1.0000
47.8600 275.0000 1.0000
47.8700 282.0000 1.0000
47.8800 289.0000 1.0000
47.8900 287.0000 1.0000
47.9000 260.0000 1.0000
47.9100 281.0000 1.0000
47.9200 287.0000 1.0000
47.9300 271.0000 1.0000
47.9400 287.0000 1.0000
47.9500 302.0000 1.0000
47.9600 282.0000 1.0000
47.9700 276.0000 1.0000
47.9800 281.0000 1.0000
47.9900 319.0000 1.0000
48.0000 281.0000 1.0000
48.0100 280.0000 1.0000
48.0200 292.0000 1.0000
48.0300 285.0000 1.0000
48.0400 271.0000 1.0000
48.0500 283.0000 1.0000
48.0600 299.0000 1.0000
48.0700 299.0000 1.0000
48.0800 244.0000 1.0000
48.0900 283.0000 1.0000
48.1000 275.0000 1.0000
48.1100 270.0000 1.0000
48.1200 279.0000 1.0000
48.1300 301.0000 1.0000
48.1400 289.0000 1.0000
48.1500 308.0000 1.0000
48.1600 285.0000 1.0000
48.1700 299.0000 1.0000
48.1800 284.0000 1.0000
48.1900 274.0000 1.0000
48.2000 288.0000 1.0000
48.2100 269.0000 1.0000
48.2200 297.0000 1.0000
48.2300 297.0000 1.0000
48.2400 291.0000 1.0000
48.2500 266.0000 1.0000
48.2600 246.0000 1.0000
48.2700 278.0000 1.0000
48.2800 283.0000 1.0000
48.2900 290.0000 1.0000
48.3000 281.0000 1.0000
48.3100 268.0000 1.0000
48.3200 248.0000 1.0000
48.3300 276.0000 1.0000
48.3400 278.0000 1.0000
48.3500 285.0000 1.0000
48.3600 280.0000 1.0000
48.3700 273.0000 1.0000
48.3800 279.0000 1.0000
48.3900 245.0000 1.0000
48.4000 286.0000 1.0000
48.4100 291.0000 1.0000
48.4200 273.0000 1.0000
48.4300 275.0000 1.0000
48.4400 306.0000 1.0000
48.4500 281.0000 1.0000
48.4600 288.0000 1.0000
48.4700 280.0000 1.0000
48.4800 255.0000 1.0000
48.4900 285.0000 1.0000
48.5000 255.0000 1.0000
48.5100 293.0000 1.0000
48.5200 283.0000 1.0000
48.5300 270.0000 1.0000
48.5400 277.0000 1.0000
48.5500 297.0000 1.0000
48.5600 296.0000 1.0000
48.5700 283.0000 1.0000
48.5800 267.0000 1.0000
48.5900 276.0000 1.0000
48.6000 241.0000 1.0000
48.6100 268.0000 1.0000
48.6200 262.0000 1.0000
48.6300 273.0000 1.0000
48.6400 287.0000 1.0000
48.6500 262.0000 1.0000
48.6600 306.0000 1.0000
48.6700 296.0000 1.0000
48.6800 262.0000 1.0000
48.6900 301.0000 1.0000
48.7000 261.0000 1.0000
48.7100 256.0000 1.0000
48.7200 287.0000 1.0000
48.7300 291.0000 1.0000
48.7400 251.0000 1.0000
48.7500 273.0000 1.0000
48.7600 290.0000 1.0000
48.7700 284.0000 1.0000
48.7800 280.0000 1.0000
48.7900 289.0000 1.0000
48.8000 282.0000 1.0000
48.8100 292.0000 1.0000
48.8200 279.0000 1.0000
48.8300 278.0000 1.0000
48.8400 281.0000 1.0000
48.8500 270.0000 1.0000
48.8600 273.0000 1.0000
48.8700 269.0000 1.0000
48.8800 286.0000 1.0000
48.8900 290.0000 1.0000
48.9000 281.0000 1.0000
48.9100 274.0000 1.0000
48.9200 260.0000 1.0000
48.9300 263.0000 1.0000
48.9400 278.0000 1.0000
48.9500 310.0000 1.0000
48.9600 283.0000 1.0000
48.9700 278.0000 1.0000
48.9800 302.0000 1.0000
48.9900 272.0000 1.0000
49.0000 268.0000 1.0000
49.0100 292.0000 1.0000
49.0200 278.0000 1.0000
49.0300 255.0000 1.0000
49.0400 254.0000 1.0000
49.0500 271.0000 1.0000
49.0600 289.0000 1.0000
49.0700 271.0000 1.0000
49.0800 269.0000 1.0000
49.0900 277.0000 1.0000
49.1000 287.0000 1.0000
49.1100 267.0000 1.0000
49.1200 289.0000 1.0000
49.1300 279.0000 1.0000
49.1400 277.0000 1.0000
49.1500 297.0000 1.0000
49.1600 302.0000 1.0000
49.1700 288.0000 1.0000
49.1800 291.0000 1.0000
49.1900 261.0000 1.0000
49.2000 284.0000 1.0000
49.2100 288.0000 1.0000
49.2200 291.0000 1.0000
49.2300 280.0000 1.0000
49.2400 304.0000 1.0000
49.2500 258.0000 1.0000
49.2600 284.0000 1.0000
49.2700 281.0000 1.0000
49.2800 297.0000 1.0000
49.2900 285.0000 1.0000
49.3000 294.0000 1.0000
49.3100 273.0000 1.0000
49.3200 241.0000 1.0000
49.3300 273.0000 1.0000
49.3400 295.0000 1.0000
49.3500 270.0000 1.0000
49.3600 307.0000 1.0000
49.3700 275.0000 1.0000
49.3800 279.0000 1.0000
49.3900 283.0000 1.0000
49.4000 302.0000 1.0000
49.4100 284.0000 1.0000
49.4200 301.0000 1.0000
49.4300 277.0000 1.0000
49.4400 273.0000 1.0000
49.4500 290.0000 1.0000
49.4600 321.0000 1.0000
49.4700 292.0000 1.0000
49.4800 282.0000 1.0000
49.4900 280.0000 1.0000
49.5000 281.0000 1.0000
49.5100 263.0000 1.0000
49.5200 305.0000 1.0000
49.5300 313.0000 1.0000
49.5400 271.0000 1.0000
49.5500 299.0000 1.0000
49.5600 286.0000 1.0000
49.5700 276.0000 1.0000
49.5800 298.0000 1.0000
49.5900 294.0000 1.0000
49.6000 293.0000 1.0000
49.6100 302.0000 1.0000
49.6200 296.0000 1.0000
49.6300 312.0000 1.0000
49.6400 289.0000 1.0000
49.6500 303.0000 1.0000
49.6600 286.0000 1.0000
49.6700 260.0000 1.0000
49.6800 302.0000 1.0000
49.6900 271.0000 1.0000
49.7000 274.0000 1.0000
49.7100 298.0000 1.0000
49.7200 300.0000 1.0000
49.7300 270.0000 1.0000
49.7400 287.0000 1.0000
49.7500 298.0000 1.0000
49.7600 266.0000 1.0000
49.7700 282.0000 1.0000
49.7800 267.0000 1.0000
49.7900 295.0000 1.0000
49.8000 294.0000 1.0000
49.8100 301.0000 1.0000
49.8200 278.0000 1.0000
49.8300 285.0000 1.0000
49.8400 286.0000 1.0000
49.8500 285.0000 1.0000
49.8600 270.0000 1.0000
49.8700 253.0000 1.0000
49.8800 290.0000 1.0000
49.8900 276.0000 1.0000
49.9000 289.0000 1.0000
49.9100 238.0000 1.0000
49.9200 277.0000 1.0000
49.9300 294.0000 1.0000
49.9400 272.0000 1.0000
49.9500 278.0000 1.0000
49.9600 259.0000 1.0000
49.9700 273.0000 1.0000
49.9800 289.0000 1.0000
49.9900 302.0000 1.0000
50.0000 285.0000 1.0000
50.0100 292.0000 1.0000
50.0200 259.0000 1.0000
50.0300 288.0000 1.0000
50.0400 277.0000 1.0000
50.0500 280.0000 1.0000
50.0600 284.0000 1.0000
50.0700 257.0000 1.0000
50.0800 273.0000 1.0000
50.0900 275.0000 1.0000
50.1000 284.0000 1.0000
50.1100 282.0000 1.0000
50.1200 298.0000 1.0000
50.1300 266.0000 1.0000
50.1400 277.0000 1.0000
50.1500 276.0000 1.0000
50.1600 277.0000 1.0000
50.1700 266.0000 1.0000
50.1800 264.0000 1.0000
50.1900 268.0000 1.0000
50.2000 257.0000 1.0000
50.2100 288.0000 1.0000
50.2200 273.0000 1.0000
50.2300 273.0000 1.0000
50.2400 288.0000 1.0000
50.2500 254.0000 1.0000
50.2600 273.0000 1.0000
50.2700 265.0000 1.0000
50.2800 279.0000 1.0000
50.2900 281.0000 1.0000
50.3000 261.0000 1.0000
50.3100 259.0000 1.0000
50.3200 269.0000 1.0000
50.3300 269.0000 1.0000
50.3400 282.0000 1.0000
50.3500 310.0000 1.0000
50.3600 278.0000 1.0000
50.3700 274.0000 1.0000
50.3800 284.0000 1.0000
50.3900 263.0000 1.0000
50.4000 291.0000 1.0000
50.4100 282.0000 1.0000
50.4200 286.0000 1.0000
50.4300 295.0000 1.0000
50.4400 260.0000 1.0000
50.4500 251.0000 1.0000
50.4600 261.0000 1.0000
50.4700 286.0000 1.0000
50.4800 286.0000 1.0000
50.4900 278.0000 1.0000
50.5000 280.0000 1.0000
50.5100 260.0000 1.0000
50.5200 258.0000 1.0000
50.5300 255.0000 1.0000
50.5400 292.0000 1.0000
50.5500 299.0000 1.0000
50.5600 280.0000 1.0000
50.5700 283.0000 1.0000
50.5800 285.0000 1.0000
50.5900 287.0000 1.0000
50.6000 278.0000 1.0000
50.6100 261.0000 1.0000
50.6200 274.0000 1.0000
50.6300 252.0000 1.0000
50.6400 270.0000 1.0000
50.6500 268.0000 1.0000
50.6600 283.0000 1.0000
50.6700 256.0000 1.0000
50.6800 273.0000 1.0000
50.6900 275.0000 1.0000
50.7000 279.0000 1.0000
50.7100 256.0000 1.0000
50.7200 283.0000 1.0000
50.7300 243.0000 1.0000
50.7400 268.0000 1.0000
50.7500 284.0000 1.0000
50.7600 282.0000 1.0000
50.7700 271.0000 1.0000
50.7800 273.0000 1.0000
50.7900 290.0000 1.0000
50.8000 303.0000 1.0000
50.8100 270.0000 1.0000
50.8200 294.0000 1.0000
50.8300 293.0000 1.0000
50.8400 284.0000 1.0000
50.8500 259.0000 1.0000
50.8600 299.0000 1.0000
50.8700 263.0000 1.0000
50.8800 279.0000 1.0000
50.8900 292.0000 1.0000
50.9000 283.0000 1.0000
50.9100 262.0000 1.0000
50.9200 305.0000 1.0000
50.9300 287.0000 1.0000
50.9400 266.0000 1.0000
50.9500 278.0000 1.0000
50.9600 293.0000 1.0000
50.9700 263.0000 1.0000
50.9800 294.0000 1.0000
50.9900 263.0000 1.0000
51.0000 316.0000 1.0000
51.0100 321.0000 1.0000
51.0200 292.0000 1.0000
51.0300 328.0000 1.0000
51.0400 290.0000 1.0000
51.0500 313.0000 1.0000
51.0600 318.0000 1.0000
51.0700 311.0000 1.0000
51.0800 286.0000 1.0000
51.0900 297.0000 1.0000
51.1000 305.0000 1.0000
51.1100 298.0000 1.0000
51.1200 305.0000 1.0000
51.1300 334.0000 1.0000
51.1400 336.0000 1.0000
51.1500 334.0000 1.0000
51.1600 336.0000 1.0000
51.1700 328.0000 1.0000
51.1800 308.0000 1.0000
51.1900 349.0000 1.0000
51.2000 359.0000 1.0000
51.2100 352.0000 1.0000
51.2200 367.0000 1.0000
51.2300 363.0000 1.0000
51.2400 355.0000 1.0000
51.2500 369.0000 1.0000
51.2600 392.0000 1.0000
51.2700 409.0000 1.0000
51.2800 414.0000 1.0000
51.2900 476.0000 1.0000
51.3000 461.0000 1.0000
51.3100 457.0000 1.0000
51.3200 515.0000 1.0000
51.3300 490.0000 1.0000
51.3400 486.0000 1.0000
51.3500 553.0000 1.0000
51.3600 622.0000 1.0000
51.3700 639.0000 1.0000
51.3800 725.0000 1.0000
51.3900 703.0000 1.0000
51.4000 738.0000 1.0000
51.4100 766.0000 1.0000
51.4200 831.0000 1.0000
51.4300 846.0000 1.0000
51.4400 838.0000 1.0000
51.4500 896.0000 1.0000
51.4600 948.0000 1.0000
51.4700 908.0000 1.0000
51.4800 910.0000 1.0000
51.4900 859.0000 1.0000
51.5000 894.0000 1.0000
51.5100 877.0000 1.0000
51.5200 863.0000 1.0000
51.5300 879.0000 1.0000
51.5400 839.0000 1.0000
51.5500 814.0000 1.0000
51.5600 752.0000 1.0000
51.5700 836.0000 1.0000
51.5800 848.0000 1.0000
51.5900 774.0000 1.0000
51.6000 751.0000 1.0000
51.6100 724.0000 1.0000
51.6200 718.0000 1.0000
51.6300 691.0000 1.0000
51.6400 655.0000 1.0000
51.6500 603.0000 1.0000
51.6600 628.0000 1.0000
51.6700 553.0000 1.0000
51.6800 549.0000 1.0000
51.6900 532.0000 1.0000
51.7000 512.0000 1.0000
51.7100 449.0000 1.0000
51.7200 445.0000 1.0000
51.7300 454.0000 1.0000
51.7400 392.0000 1.0000
51.7500 426.0000 1.0000
51.7600 409.0000 1.0000
51.7700 408.0000 1.0000
51.7800 410.0000 1.0000
51.7900 385.0000 1.0000
51.8000 372.0000 1.0000
51.8100 352.0000 1.0000
51.8200 357.0000 1.0000
51.8300 363.0000 1.0000
51.8400 359.0000 1.0000
51.8500 338.0000 1.0000
51.8600 346.0000 1.0000
51.8700 325.0000 1.0000
51.8800 339.0000 1.0000
51.8900 323.0000 1.0000
51.9000 304.0000 1.0000
51.9100 303.0000 1.0000
51.9200 341.0000 1.0000
51.9300 325.0000 1.0000
51.9400 307.0000 1.0000
51.9500 310.0000 1.0000
51.9600 315.0000 1.0000
51.9700 314.0000 1.0000
51.9800 300.0000 1.0000
51.9900 339.0000 1.0000
52.0000 331.0000 1.0000
52.0100 295.0000 1.0000
52.0200 295.0000 1.0000
52.0300 295.0000 1.0000
52.0400 323.0000 1.0000
52.0500 275.0000 1.0000
52.0600 285.0000 1.0000
52.0700 263.0000 1.0000
52.0800 298.0000 1.0000
52.0900 286.0000 1.0000
52.1000 285.0000 1.0000
52.1100 279.0000 1.0000
52.1200 248.0000 1.0000
52.1300 262.0000 1.0000
52.1400 281.0000 1.0000
52.1500 274.0000 1.0000
52.1600 286.0000 1.0000
52.1700 250.0000 1.0000
52.1800 274.0000 1.0000
52.1900 268.0000 1.0000
52.2000 259.0000 1.0000
52.2100 256.0000 1.0000
52.2200 293.0000 1.0000
52.2300 275.0000 1.0000
52.2400 255.0000 1.0000
52.2500 299.0000 1.0000
52.2600 273.0000 1.0000
52.2700 277.0000 1.0000
52.2800 264.0000 1.0000
52.2900 244.0000 1.0000
52.3000 286.0000 1.0000
52.3100 266.0000 1.0000
52.3200 274.0000 1.0000
52.3300 244.0000 1.0000
52.3400 274.0000 1.0000
52.3500 281.0000 1.0000
52.3600 261.0000 1.0000
52.3700 270.0000 1.0000
52.3800 259.0000 1.0000
52.3900 273.0000 1.0000
52.4000 265.0000 1.0000
52.4100 251.0000 1.0000
52.4200 256.0000 1.0000
52.4300 257.0000 1.0000
52.4400 254.0000 1.0000
52.4500 266.0000 1.0000
52.4600 276.0000 1.0000
52.4700 254.0000 1.0000
52.4800 281.0000 1.0000
52.4900 251.0000 1.0000
52.5000 268.0000 1.0000
52.5100 270.0000 1.0000
52.5200 235.0000 1.0000
52.5300 252.0000 1.0000
52.5400 263.0000 1.0000
52.5500 267.0000 1.0000
52.5600 268.0000 1.0000
52.5700 268.0000 1.0000
52.5800 269.0000 1.0000
52.5900 261.0000 1.0000
52.6000 254.0000 1.0000
52.6100 223.0000 1.0000
52.6200 243.0000 1.0000
52.6300 262.0000 1.0000
52.6400 263.0000 1.0000
52.6500 251.0000 1.0000
52.6600 267.0000 1.0000
52.6700 245.0000 1.0000
52.6800 274.0000 1.0000
52.6900 240.0000 1.0000
52.7000 275.0000 1.0000
52.7100 261.0000 1.0000
52.7200 249.0000 1.0000
52.7300 266.0000 1.0000
52.7400 262.0000 1.0000
52.7500 257.0000 1.0000
52.7600 256.0000 1.0000
52.7700 253.0000 1.0000
52.7800 262.0000 1.0000
52.7900 258.0000 1.0000
52.8000 259.0000 1.0000
52.8100 255.0000 1.0000
52.8200 240.0000 1.0000
52.8300 260.0000 1.0000
52.8400 248.0000 1.0000
52.8500 271.0000 1.0000
52.8600 253.0000 1.0000
52.8700 246.0000 1.0000
52.8800 262.0000 1.0000
52.8900 270.0000 1.0000
52.9000 256.0000 1.0000
52.9100 252.0000 1.0000
52.9200 269.0000 1.0000
52.9300 246.0000 1.0000
52.9400 258.0000 1.0000
52.9500 244.0000 1.0000
52.9600 260.0000 1.0000
52.9700 228.0000 1.0000
52.9800 266.0000 1.0000
52.9900 254.0000 1.0000
53.0000 268.0000 1.0000
53.0100 261.0000 1.0000
53.0200 270.0000 1.0000
53.0300 257.0000 1.0000
53.0400 253.0000 1.0000
53.0500 257.0000 1.0000
53.0600 283.0000 1.0000
53.0700 253.0000 1.0000
53.0800 256.0000 1.0000
53.0900 271.0000 1.0000
53.1000 253.0000 1.0000
53.1100 259.0000 1.0000
53.1200 250.0000 1.0000
53.1300 258.0000 1.0000
53.1400 261.0000 1.0000
53.1500 232.0000 1.0000
53.1600 252.0000 1.0000
53.1700 270.0000 1.0000
53.1800 262.0000 1.0000
53.1900 247.0000 1.0000
53.2000 266.0000 1.0000
53.2100 260.0000 1.0000
53.2200 237.0000 1.0000
53.2300 252.0000 1.0000
53.2400 268.0000 1.0000
53.2500 242.0000 1.0000
53.2600 249.0000 1.0000
53.2700 246.0000 1.0000
53.2800 269.0000 1.0000
53.2900 260.0000 1.0000
53.3000 262.0000 1.0000
53.3100 268.0000 1.0000
53.3200 236.0000 1.0000
53.3300 239.0000 1.0000
53.3400 265.0000 1.0000
53.3500 246.0000 1.0000
53.3600 244.0000 1.0000
53.3700 238.0000 1.0000
53.3800 242.0000 1.0000
53.3900 243.0000 1.0000
53.4000 261.0000 1.0000
53.4100 247.0000 1.0000
53.4200 269.0000 1.0000
53.4300 293.0000 1.0000
53.4400 269.0000 1.0000
53.4500 267.0000 1.0000
53.4600 273.0000 1.0000
53.4700 258.0000 1.0000
53.4800 262.0000 1.0000
53.4900 277.0000 1.0000
53.5000 272.0000 1.0000
53.5100 245.0000 1.0000
53.5200 268.0000 1.0000
53.5300 281.0000 1.0000
53.5400 276.0000 1.0000
53.5500 269.0000 1.0000
53.5600 260.0000 1.0000
53.5700 272.0000 1.0000
53.5800 267.0000 1.0000
53.5900 260.0000 1.0000
53.6000 243.0000 1.0000
53.6100 254.0000 1.0000
53.6200 268.0000 1.0000
53.6300 270.0000 1.0000
53.6400 276.0000 1.0000
53.6500 246.0000 1.0000
53.6600 273.0000 1.0000
53.6700 273.0000 1.0000
53.6800 253.0000 1.0000
53.6900 251.0000 1.0000
53.7000 255.0000 1.0000
53.7100 264.0000 1.0000
53.7200 275.0000 1.0000
53.7300 236.0000 1.0000
53.7400 273.0000 1.0000
53.7500 262.0000 1.0000
53.7600 274.0000 1.0000
53.7700 267.0000 1.0000
53.7800 281.0000 1.0000
53.7900 273.0000 1.0000
53.8000 272.0000 1.0000
53.8100 255.0000 1.0000
53.8200 263.0000 1.0000
53.8300 289.0000 1.0000
53.8400 260.0000 1.0000
53.8500 272.0000 1.0000
53.8600 240.0000 1.0000
53.8700 270.0000 1.0000
53.8800 289.0000 1.0000
53.8900 292.0000 1.0000
53.9000 273.0000 1.0000
53.9100 263.0000 1.0000
53.9200 257.0000 1.0000
53.9300 246.0000 1.0000
53.9400 255.0000 1.0000
53.9500 235.0000 1.0000
53.9600 293.0000 1.0000
53.9700 266.0000 1.0000
53.9800 263.0000 1.0000
53.9900 283.0000 1.0000
54.0000 282.0000 1.0000
54.0100 237.0000 1.0000
54.0200 266.0000 1.0000
54.0300 256.0000 1.0000
54.0400 255.0000 1.0000
54.0500 269.0000 1.0000
54.0600 277.0000 1.0000
54.0700 313.0000 1.0000
54.0800 310.0000 1.0000
54.0900 292.0000 1.0000
54.1000 287.0000 1.0000
54.1100 277.0000 1.0000
54.1200 262.0000 1.0000
54.1300 265.0000 1.0000
54.1400 278.0000 1.0000
54.1500 321.0000 1.0000
54.1600 294.0000 1.0000
54.1700 247.0000 1.0000
54.1800 270.0000 1.0000
54.1900 293.0000 1.0000
54.2000 299.0000 1.0000
54.2100 283.0000 1.0000
54.2200 273.0000 1.0000
54.2300 291.0000 1.0000
54.2400 275.0000 1.0000
54.2500 286.0000 1.0000
54.2600 290.0000 1.0000
54.2700 290.0000 1.0000
54.2800 286.0000 1.0000
54.2900 300.0000 1.0000
54.3000 289.0000 1.0000
54.3100 273.0000 1.0000
54.3200 285.0000 1.0000
54.3300 314.0000 1.0000
54.3400 286.0000 1.0000
54.3500 315.0000 1.0000
54.3600 275.0000 1.0000
54.3700 285.0000 1.0000
54.3800 295.0000 1.0000
54.3900 304.0000 1.0000
54.4000 318.0000 1.0000
54.4100 319.0000 1.0000
54.4200 304.0000 1.0000
54.4300 310.0000 1.0000
54.4400 334.0000 1.0000
54.4500 319.0000 1.0000
54.4600 329.0000 1.0000
54.4700 328.0000 1.0000
54.4800 314.0000 1.0000
54.4900 294.0000 1.0000
54.5000 303.0000 1.0000
54.5100 301.0000 1.0000
54.5200 302.0000 1.0000
54.5300 295.0000 1.0000
54.5400 298.0000 1.0000
54.5500 305.0000 1.0000
54.5600 312.0000 1.0000
54.5700 290.0000 1.0000
54.5800 300.0000 1.0000
54.5900 288.0000 1.0000
54.6000 299.0000 1.0000
54.6100 316.0000 1.0000
54.6200 305.0000 1.0000
54.6300 301.0000 1.0000
54.6400 297.0000 1.0000
54.6500 295.0000 1.0000
54.6600 313.0000 1.0000
54.6700 300.0000 1.0000
54.6800 318.0000 1.0000
54.6900 305.0000 1.0000
54.7000 314.0000 1.0000
54.7100 310.0000 1.0000
54.7200 282.0000 1.0000
54.7300 287.0000 1.0000
54.7400 277.0000 1.0000
54.7500 318.0000 1.0000
54.7600 309.0000 1.0000
54.7700 269.0000 1.0000
54.7800 314.0000 1.0000
54.7900 286.0000 1.0000
54.8000 263.0000 1.0000
54.8100 283.0000 1.0000
54.8200 272.0000 1.0000
54.8300 267.0000 1.0000
54.8400 257.0000 1.0000
54.8500 241.0000 1.0000
54.8600 239.0000 1.0000
54.8700 279.0000 1.0000
54.8800 273.0000 1.0000
54.8900 266.0000 1.0000
54.9000 250.0000 1.0000
54.9100 245.0000 1.0000
54.9200 241.0000 1.0000
54.9300 262.0000 1.0000
54.9400 275.0000 1.0000
54.9500 275.0000 1.0000
54.9600 258.0000 1.0000
54.9700 240.0000 1.0000
54.9800 258.0000 1.0000
54.9900 251.0000 1.0000
55.0000 265.0000 1.0000
55.0100 268.0000 1.0000
55.0200 264.0000 1.0000
55.0300 286.0000 1.0000
55.0400 266.0000 1.0000
55.0500 286.0000 1.0000
55.0600 296.0000 1.0000
55.0700 271.0000 1.0000
55.0800 247.0000 1.0000
55.0900 271.0000 1.0000
55.1000 257.0000 1.0000
55.1100 278.0000 1.0000
55.1200 252.0000 1.0000
55.1300 244.0000 1.0000
55.1400 260.0000 1.0000
55.1500 281.0000 1.0000
55.1600 260.0000 1.0000
55.1700 250.0000 1.0000
55.1800 264.0000 1.0000
55.1900 254.0000 1.0000
55.2000 241.0000 1.0000
55.2100 240.0000 1.0000
55.2200 243.0000 1.0000
55.2300 261.0000 1.0000
55.2400 253.0000 1.0000
55.2500 280.0000 1.0000
55.2600 243.0000 1.0000
55.2700 249.0000 1.0000
55.2800 238.0000 1.0000
55.2900 265.0000 1.0000
55.3000 257.0000 1.0000
55.3100 272.0000 1.0000
55.3200 265.0000 1.0000
55.3300 242.0000 1.0000
55.3400 246.0000 1.0000
55.3500 244.0000 1.0000
55.3600 267.0000 1.0000
55.3700 263.0000 1.0000
55.3800 277.0000 1.0000
55.3900 251.0000 1.0000
55.4000 250.0000 1.0000
55.4100 239.0000 1.0000
55.4200 261.0000 1.0000
55.4300 258.0000 1.0000
55.4400 246.0000 1.0000
55.4500 248.0000 1.0000
55.4600 266.0000 1.0000
55.4700 246.0000 1.0000
55.4800 239.0000 1.0000
55.4900 276.0000 1.0000
55.5000 253.0000 1.0000
55.5100 249.0000 1.0000
55.5200 248.0000 1.0000
55.5300 247.0000 1.0000
55.5400 244.0000 1.0000
55.5500 264.0000 1.0000
55.5600 248.0000 1.0000
55.5700 263.0000 1.0000
55.5800 232.0000 1.0000
55.5900 263.0000 1.0000
55.6000 253.0000 1.0000
55.6100 259.0000 1.0000
55.6200 279.0000 1.0000
55.6300 274.0000 1.0000
55.6400 257.0000 1.0000
55.6500 257.0000 1.0000
55.6600 237.0000 1.0000
55.6700 260.0000 1.0000
55.6800 268.0000 1.0000
55.6900 255.0000 1.0000
55.7000 255.0000 1.0000
55.7100 249.0000 1.0000
55.7200 253.0000 1.0000
55.7300 261.0000 1.0000
55.7400 254.0000 1.0000
55.7500 248.0000 1.0000
55.7600 257.0000 1.0000
55.7700 272.0000 1.0000
55.7800 249.0000 1.0000
55.7900 234.0000 1.0000
55.8000 255.0000 1.0000
55.8100 259.0000 1.0000
55.8200 239.0000 1.0000
55.8300 265.0000 1.0000
55.8400 255.0000 1.0000
55.8500 230.0000 1.0000
55.8600 247.0000 1.0000
55.8700 272.0000 1.0000
55.8800 237.0000 1.0000
55.8900 271.0000 1.0000
55.9000 239.0000 1.0000
55.9100 248.0000 1.0000
55.9200 261.0000 1.0000
55.9300 252.0000 1.0000
55.9400 262.0000 1.0000
55.9500 245.0000 1.0000
55.9600 249.0000 1.0000
55.9700 247.0000 1.0000
55.9800 245.0000 1.0000
55.9900 239.0000 1.0000
56.0000 232.0000 1.0000
56.0100 253.0000 1.0000
56.0200 249.0000 1.0000
56.0300 242.0000 1.0000
56.0400 235.0000 1.0000
56.0500 247.0000 1.0000
56.0600 257.0000 1.0000
56.0700 238.0000 1.0000
56.0800 269.0000 1.0000
56.0900 250.0000 1.0000
56.1000 267.0000 1.0000
56.1100 250.0000 1.0000
56.1200 266.0000 1.0000
56.1300 228.0000 1.0000
56.1400 237.0000 1.0000
56.1500 256.0000 1.0000
56.1600 272.0000 1.0000
56.1700 262.0000 1.0000
56.1800 280.0000 1.0000
56.1900 263.0000 1.0000
56.2000 251.0000 1.0000
56.2100 262.0000 1.0000
56.2200 243.0000 1.0000
56.2300 241.0000 1.0000
56.2400 242.0000 1.0000
56.2500 255.0000 1.0000
56.2600 259.0000 1.0000
56.2700 237.0000 1.0000
56.2800 245.0000 1.0000
56.2900 240.0000 1.0000
56.3000 246.0000 1.0000
56.3100 240.0000 1.0000
56.3200 266.0000 1.0000
56.3300 250.0000 1.0000
56.3400 253.0000 1.0000
56.3500 243.0000 1.0000
56.3600 258.0000 1.0000
56.3700 271.0000 1.0000
56.3800 250.0000 1.0000
56.3900 234.0000 1.0000
56.4000 255.0000 1.0000
56.4100 268.0000 1.0000
56.4200 261.0000 1.0000
56.4300 249.0000 1.0000
56.4400 249.0000 1.0000
56.4500 252.0000 1.0000
56.4600 256.0000 1.0000
56.4700 278.0000 1.0000
56.4800 270.0000 1.0000
56.4900 251.0000 1.0000
56.5000 235.0000 1.0000
56.5100 239.0000 1.0000
56.5200 269.0000 1.0000
56.5300 258.0000 1.0000
56.5400 250.0000 1.0000
56.5500 280.0000 1.0000
56.5600 253.0000 1.0000
56.5700 251.0000 1.0000
56.5800 255.0000 1.0000
56.5900 262.0000 1.0000
56.6000 275.0000 1.0000
56.6100 254.0000 1.0000
56.6200 232.0000 1.0000
56.6300 269.0000 1.0000
56.6400 266.0000 1.0000
56.6500 270.0000 1.0000
56.6600 258.0000 1.0000
56.6700 249.0000 1.0000
56.6800 255.0000 1.0000
56.6900 264.0000 1.0000
56.7000 242.0000 1.0000
56.7100 256.0000 1.0000
56.7200 250.0000 1.0000
56.7300 232.0000 1.0000
56.7400 259.0000 1.0000
56.7500 253.0000 1.0000
56.7600 265.0000 1.0000
56.7700 249.0000 1.0000
56.7800 250.0000 1.0000
56.7900 243.0000 1.0000
56.8000 236.0000 1.0000
56.8100 252.0000 1.0000
56.8200 234.0000 1.0000
56.8300 238.0000 1.0000
56.8400 246.0000 1.0000
56.8500 256.0000 1.0000
56.8600 252.0000 1.0000
56.8700 269.0000 1.0000
56.8800 259.0000 1.0000
56.8900 267.0000 1.0000
56.9000 275.0000 1.0000
56.9100 242.0000 1.0000
56.9200 255.0000 1.0000
56.9300 257.0000 1.0000
56.9400 217.0000 1.0000
56.9500 234.0000 1.0000
56.9600 251.0000 1.0000
56.9700 259.0000 1.0000
56.9800 253.0000 1.0000
56.9900 278.0000 1.0000
57.0000 275.0000 1.0000
57.0100 255.0000 1.0000
57.0200 246.0000 1.0000
57.0300 244.0000 1.0000
57.0400 245.0000 1.0000
57.0500 231.0000 1.0000
57.0600 253.0000 1.0000
57.0700 239.0000 1.0000
57.0800 246.0000 1.0000
57.0900 236.0000 1.0000
57.1000 264.0000 1.0000
57.1100 244.0000 1.0000
57.1200 252.0000 1.0000
57.1300 261.0000 1.0000
57.1400 252.0000 1.0000
57.1500 245.0000 1.0000
57.1600 264.0000 1.0000
57.1700 255.0000 1.0000
57.1800 245.0000 1.0000
57.1900 256.0000 1.0000
57.2000 251.0000 1.0000
57.2100 242.0000 1.0000
57.2200 241.0000 1.0000
57.2300 277.0000 1.0000
57.2400 245.0000 1.0000
57.2500 249.0000 1.0000
57.2600 239.0000 1.0000
57.2700 263.0000 1.0000
57.2800 223.0000 1.0000
57.2900 245.0000 1.0000
57.3000 265.0000 1.0000
57.3100 254.0000 1.0000
57.3200 269.0000 1.0000
57.3300 243.0000 1.0000
57.3400 243.0000 1.0000
57.3500 228.0000 1.0000
57.3600 257.0000 1.0000
57.3700 200.0000 1.0000
57.3800 225.0000 1.0000
57.3900 251.0000 1.0000
57.4000 243.0000 1.0000
57.4100 240.0000 1.0000
57.4200 249.0000 1.0000
57.4300 244.0000 1.0000
57.4400 255.0000 1.0000
57.4500 257.0000 1.0000
57.4600 253.0000 1.0000
57.4700 244.0000 1.0000
57.4800 243.0000 1.0000
57.4900 238.0000 1.0000
57.5000 243.0000 1.0000
57.5100 247.0000 1.0000
57.5200 260.0000 1.0000
57.5300 270.0000 1.0000
57.5400 266.0000 1.0000
57.5500 252.0000 1.0000
57.5600 244.0000 1.0000
57.5700 280.0000 1.0000
57.5800 249.0000 1.0000
57.5900 244.0000 1.0000
57.6000 233.0000 1.0000
57.6100 275.0000 1.0000
57.6200 238.0000 1.0000
57.6300 254.0000 1.0000
57.6400 260.0000 1.0000
57.6500 284.0000 1.0000
57.6600 262.0000 1.0000
57.6700 245.0000 1.0000
57.6800 237.0000 1.0000
57.6900 265.0000 1.0000
57.7000 266.0000 1.0000
57.7100 241.0000 1.0000
57.7200 251.0000 1.0000
57.7300 230.0000 1.0000
57.7400 242.0000 1.0000
57.7500 239.0000 1.0000
57.7600 233.0000 1.0000
57.7700 239.0000 1.0000
57.7800 258.0000 1.0000
57.7900 232.0000 1.0000
57.8000 254.0000 1.0000
57.8100 256.0000 1.0000
57.8200 254.0000 1.0000
57.8300 248.0000 1.0000
57.8400 221.0000 1.0000
57.8500 232.0000 1.0000
57.8600 237.0000 1.0000
57.8700 233.0000 1.0000
57.8800 261.0000 1.0000
57.8900 249.0000 1.0000
57.9000 264.0000 1.0000
57.9100 227.0000 1.0000
57.9200 241.0000 1.0000
57.9300 251.0000 1.0000
57.9400 259.0000 1.0000
57.9500 281.0000 1.0000
57.9600 248.0000 1.0000
57.9700 241.0000 1.0000
57.9800 235.0000 1.0000
57.9900 258.0000 1.0000
58.0000 251.0000 1.0000
58.0100 260.0000 1.0000
58.0200 251.0000 1.0000
58.0300 249.0000 1.0000
58.0400 226.0000 1.0000
58.0500 255.0000 1.0000
58.0600 225.0000 1.0000
58.0700 224.0000 1.0000
58.0800 270.0000 1.0000
58.0900 241.0000 1.0000
58.1000 254.0000 1.0000
58.1100 286.0000 1.0000
58.1200 273.0000 1.0000
58.1300 248.0000 1.0000
58.1400 241.0000 1.0000
58.1500 241.0000 1.0000
58.1600 241.0000 1.0000
58.1700 249.0000 1.0000
58.1800 228.0000 1.0000
58.1900 246.0000 1.0000
58.2000 246.0000 1.0000
58.2100 234.0000 1.0000
58.2200 254.0000 1.0000
58.2300 242.0000 1.0000
58.2400 244.0000 1.0000
58.2500 253.0000 1.0000
58.2600 226.0000 1.0000
58.2700 268.0000 1.0000
58.2800 252.0000 1.0000
58.2900 241.0000 1.0000
58.3000 240.0000 1.0000
58.3100 215.0000 1.0000
58.3200 225.0000 1.0000
58.3300 244.0000 1.0000
58.3400 221.0000 1.0000
58.3500 260.0000 1.0000
58.3600 257.0000 1.0000
58.3700 245.0000 1.0000
58.3800 255.0000 1.0000
58.3900 240.0000 1.0000
58.4000 253.0000 1.0000
58.4100 255.0000 1.0000
58.4200 255.0000 1.0000
58.4300 282.0000 1.0000
58.4400 250.0000 1.0000
58.4500 269.0000 1.0000
58.4600 239.0000 1.0000
58.4700 264.0000 1.0000
58.4800 237.0000 1.0000
58.4900 234.0000 1.0000
58.5000 251.0000 1.0000
58.5100 255.0000 1.0000
58.5200 240.0000 1.0000
58.5300 274.0000 1.0000
58.5400 251.0000 1.0000
58.5500 229.0000 1.0000
58.5600 245.0000 1.0000
58.5700 233.0000 1.0000
58.5800 258.0000 1.0000
58.5900 254.0000 1.0000
58.6000 301.0000 1.0000
58.6100 268.0000 1.0000
58.6200 239.0000 1.0000
58.6300 242.0000 1.0000
58.6400 242.0000 1.0000
58.6500 254.0000 1.0000
58.6600 264.0000 1.0000
58.6700 249.0000 1.0000
58.6800 238.0000 1.0000
58.6900 226.0000 1.0000
58.7000 247.0000 1.0000
58.7100 233.0000 1.0000
58.7200 257.0000 1.0000
58.7300 264.0000 1.0000
58.7400 272.0000 1.0000
58.7500 264.0000 1.0000
58.7600 237.0000 1.0000
58.7700 234.0000 1.0000
58.7800 266.0000 1.0000
58.7900 228.0000 1.0000
58.8000 268.0000 1.0000
58.8100 242.0000 1.0000
58.8200 261.0000 1.0000
58.8300 247.0000 1.0000
58.8400 226.0000 1.0000
58.8500 246.0000 1.0000
58.8600 260.0000 1.0000
58.8700 217.0000 1.0000
58.8800 231.0000 1.0000
58.8900 247.0000 1.0000
58.9000 266.0000 1.0000
58.9100 236.0000 1.0000
58.9200 235.0000 1.0000
58.9300 264.0000 1.0000
58.9400 235.0000 1.0000
58.9500 251.0000 1.0000
58.9600 257.0000 1.0000
58.9700 272.0000 1.0000
58.9800 248.0000 1.0000
58.9900 252.0000 1.0000
59.0000 238.0000 1.0000
59.0100 270.0000 1.0000
59.0200 264.0000 1.0000
59.0300 223.0000 1.0000
59.0400 238.0000 1.0000
59.0500 234.0000 1.0000
59.0600 215.0000 1.0000
59.0700 243.0000 1.0000
59.0800 231.0000 1.0000
59.0900 236.0000 1.0000
59.1000 227.0000 1.0000
59.1100 234.0000 1.0000
59.1200 249.0000 1.0000
59.1300 237.0000 1.0000
59.1400 231.0000 1.0000
59.1500 231.0000 1.0000
59.1600 236.0000 1.0000
59.1700 234.0000 1.0000
59.1800 262.0000 1.0000
59.1900 235.0000 1.0000
59.2000 279.0000 1.0000
59.2100 256.0000 1.0000
59.2200 240.0000 1.0000
59.2300 235.0000 1.0000
59.2400 214.0000 1.0000
59.2500 242.0000 1.0000
59.2600 235.0000 1.0000
59.2700 240.0000 1.0000
59.2800 240.0000 1.0000
59.2900 241.0000 1.0000
59.3000 236.0000 1.0000
59.3100 247.0000 1.0000
59.3200 237.0000 1.0000
59.3300 240.0000 1.0000
59.3400 269.0000 1.0000
59.3500 267.0000 1.0000
59.3600 249.0000 1.0000
59.3700 251.0000 1.0000
59.3800 244.0000 1.0000
59.3900 243.0000 1.0000
59.4000 244.0000 1.0000
59.4100 243.0000 1.0000
59.4200 257.0000 1.0000
59.4300 235.0000 1.0000
59.4400 233.0000 1.0000
59.4500 275.0000 1.0000
59.4600 262.0000 1.0000
59.4700 240.0000 1.0000
59.4800 247.0000 1.0000
59.4900 233.0000 1.0000
59.5000 257.0000 1.0000
59.5100 234.0000 1.0000
59.5200 242.0000 1.0000
59.5300 239.0000 1.0000
59.5400 243.0000 1.0000
59.5500 271.0000 1.0000
59.5600 218.0000 1.0000
59.5700 247.0000 1.0000
59.5800 241.0000 1.0000
59.5900 245.0000 1.0000
59.6000 254.0000 1.0000
59.6100 230.0000 1.0000
59.6200 252.0000 1.0000
59.6300 251.0000 1.0000
59.6400 223.0000 1.0000
59.6500 241.0000 1.0000
59.6600 248.0000 1.0000
59.6700 248.0000 1.0000
59.6800 242.0000 1.0000
59.6900 242.0000 1.0000
59.7000 241.0000 1.0000
59.7100 222.0000 1.0000
59.7200 269.0000 1.0000
59.7300 238.0000 1.0000
59.7400 257.0000 1.0000
59.7500 245.0000 1.0000
59.7600 260.0000 1.0000
59.7700 237.0000 1.0000
59.7800 250.0000 1.0000
59.7900 242.0000 1.0000
59.8000 252.0000 1.0000
59.8100 247.0000 1.0000
59.8200 262.0000 1.0000
59.8300 247.0000 1.0000
59.8400 257.0000 1.0000
59.8500 235.0000 1.0000
59.8600 258.0000 1.0000
59.8700 255.0000 1.0000
59.8800 241.0000 1.0000
59.8900 236.0000 1.0000
59.9000 229.0000 1.0000
59.9100 255.0000 1.0000
59.9200 226.0000 1.0000
59.9300 236.0000 1.0000
59.9400 251.0000 1.0000
59.9500 225.0000 1.0000
59.9600 266.0000 1.0000
59.9700 270.0000 1.0000
59.9800 245.0000 1.0000
59.9900 233.0000 1.0000
60.0000 252.0000 1.0000
60.0100 255.0000 1.0000
60.0200 264.0000 1.0000
60.0300 247.0000 1.0000
60.0400 268.0000 1.0000
60.0500 243.0000 1.0000
60.0600 243.0000 1.0000
60.0700 257.0000 1.0000
60.0800 236.0000 1.0000
60.0900 264.0000 1.0000
60.1000 233.0000 1.0000
60.1100 232.0000 1.0000
60.1200 251.0000 1.0000
60.1300 240.0000 1.0000
60.1400 259.0000 1.0000
60.1500 241.0000 1.0000
60.1600 247.0000 1.0000
60.1700 251.0000 1.0000
60.1800 247.0000 1.0000
60.1900 230.0000 1.0000
60.2000 240.0000 1.0000
60.2100 230.0000 1.0000
60.2200 246.0000 1.0000
60.2300 244.0000 1.0000
60.2400 249.0000 1.0000
60.2500 244.0000 1.0000
60.2600 262.0000 1.0000
60.2700 250.0000 1.0000
60.2800 233.0000 1.0000
60.2900 263.0000 1.0000
60.3000 248.0000 1.0000
60.3100 246.0000 1.0000
60.3200 233.0000 1.0000
60.3300 214.0000 1.0000
60.3400 255.0000 1.0000
60.3500 249.0000 1.0000
60.3600 234.0000 1.0000
60.3700 231.0000 1.0000
60.3800 251.0000 1.0000
60.3900 255.0000 1.0000
60.4000 250.0000 1.0000
60.4100 218.0000 1.0000
60.4200 226.0000 1.0000
60.4300 255.0000 1.0000
60.4400 258.0000 1.0000
60.4500 251.0000 1.0000
60.4600 252.0000 1.0000
60.4700 257.0000 1.0000
60.4800 246.0000 1.0000
60.4900 239.0000 1.0000
60.5000 251.0000 1.0000
60.5100 231.0000 1.0000
60.5200 246.0000 1.0000
60.5300 252.0000 1.0000
60.5400 239.0000 1.0000
60.5500 241.0000 1.0000
60.5600 244.0000 1.0000
60.5700 265.0000 1.0000
60.5800 258.0000 1.0000
60.5900 252.0000 1.0000
60.6000 232.0000 1.0000
60.6100 251.0000 1.0000
60.6200 252.0000 1.0000
60.6300 230.0000 1.0000
60.6400 249.0000 1.0000
60.6500 250.0000 1.0000
60.6600 249.0000 1.0000
60.6700 246.0000 1.0000
60.6800 257.0000 1.0000
60.6900 262.0000 1.0000
60.7000 257.0000 1.0000
60.7100 229.0000 1.0000
60.7200 262.0000 1.0000
60.7300 255.0000 1.0000
60.7400 258.0000 1.0000
60.7500 247.0000 1.0000
60.7600 263.0000 1.0000
60.7700 242.0000 1.0000
60.7800 248.0000 1.0000
60.7900 245.0000 1.0000
60.8000 240.0000 1.0000
60.8100 265.0000 1.0000
60.8200 261.0000 1.0000
60.8300 253.0000 1.0000
60.8400 251.0000 1.0000
60.8500 264.0000 1.0000
60.8600 253.0000 1.0000
60.8700 289.0000 1.0000
60.8800 254.0000 1.0000
60.8900 250.0000 1.0000
60.9000 262.0000 1.0000
60.9100 267.0000 1.0000
60.9200 254.0000 1.0000
60.9300 257.0000 1.0000
60.9400 276.0000 1.0000
60.9500 237.0000 1.0000
60.9600 261.0000 1.0000
60.9700 253.0000 1.0000
60.9800 252.0000 1.0000
60.9900 246.0000 1.0000
61.0000 274.0000 1.0000
61.0100 276.0000 1.0000
61.0200 288.0000 1.0000
61.0300 263.0000 1.0000
61.0400 286.0000 1.0000
61.0500 255.0000 1.0000
61.0600 253.0000 1.0000
61.0700 284.0000 1.0000
61.0800 292.0000 1.0000
61.0900 269.0000 1.0000
61.1000 277.0000 1.0000
61.1100 292.0000 1.0000
61.1200 293.0000 1.0000
61.1300 318.0000 1.0000
61.1400 272.0000 1.0000
61.1500 276.0000 1.0000
61.1600 284.0000 1.0000
61.1700 293.0000 1.0000
61.1800 298.0000 1.0000
61.1900 303.0000 1.0000
61.2000 293.0000 1.0000
61.2100 309.0000 1.0000
61.2200 307.0000 1.0000
61.2300 304.0000 1.0000
61.2400 314.0000 1.0000
61.2500 320.0000 1.0000
61.2600 319.0000 1.0000
61.2700 330.0000 1.0000
61.2800 347.0000 1.0000
61.2900 324.0000 1.0000
61.3000 298.0000 1.0000
61.3100 323.0000 1.0000
61.3200 357.0000 1.0000
61.3300 379.0000 1.0000
61.3400 380.0000 1.0000
61.3500 372.0000 1.0000
61.3600 413.0000 1.0000
61.3700 373.0000 1.0000
61.3800 409.0000 1.0000
61.3900 387.0000 1.0000
61.4000 406.0000 1.0000
61.4100 429.0000 1.0000
61.4200 453.0000 1.0000
61.4300 426.0000 1.0000
61.4400 430.0000 1.0000
61.4500 436.0000 1.0000
61.4600 423.0000 1.0000
61.4700 442.0000 1.0000
61.4800 475.0000 1.0000
61.4900 472.0000 1.0000
61.5000 507.0000 1.0000
61.5100 498.0000 1.0000
61.5200 493.0000 1.0000
61.5300 497.0000 1.0000
61.5400 525.0000 1.0000
61.5500 542.0000 1.0000
61.5600 525.0000 1.0000
61.5700 504.0000 1.0000
61.5800 519.0000 1.0000
61.5900 549.0000 1.0000
61.6000 549.0000 1.0000
61.6100 482.0000 1.0000
61.6200 520.0000 1.0000
61.6300 549.0000 1.0000
61.6400 508.0000 1.0000
61.6500 457.0000 1.0000
61.6600 500.0000 1.0000
61.6700 539.0000 1.0000
61.6800 479.0000 1.0000
61.6900 443.0000 1.0000
61.7000 462.0000 1.0000
61.7100 485.0000 1.0000
61.7200 444.0000 1.0000
61.7300 452.0000 1.0000
61.7400 454.0000 1.0000
61.7500 468.0000 1.0000
61.7600 425.0000 1.0000
61.7700 452.0000 1.0000
61.7800 412.0000 1.0000
61.7900 438.0000 1.0000
61.8000 426.0000 1.0000
61.8100 385.0000 1.0000
61.8200 402.0000 1.0000
61.8300 420.0000 1.0000
61.8400 385.0000 1.0000
61.8500 388.0000 1.0000
61.8600 384.0000 1.0000
61.8700 372.0000 1.0000
61.8800 388.0000 1.0000
61.8900 387.0000 1.0000
61.9000 369.0000 1.0000
61.9100 388.0000 1.0000
61.9200 358.0000 1.0000
61.9300 322.0000 1.0000
61.9400 321.0000 1.0000
61.9500 335.0000 1.0000
61.9600 306.0000 1.0000
61.9700 333.0000 1.0000
61.9800 304.0000 1.0000
61.9900 315.0000 1.0000
62.0000 316.0000 1.0000
62.0100 303.0000 1.0000
62.0200 310.0000 1.0000
62.0300 309.0000 1.0000
62.0400 324.0000 1.0000
62.0500 324.0000 1.0000
62.0600 312.0000 1.0000
62.0700 290.0000 1.0000
62.0800 312.0000 1.0000
62.0900 287.0000 1.0000
62.1000 295.0000 1.0000
62.1100 308.0000 1.0000
62.1200 287.0000 1.0000
62.1300 270.0000 1.0000
62.1400 270.0000 1.0000
62.1500 261.0000 1.0000
62.1600 232.0000 1.0000
62.1700 274.0000 1.0000
62.1800 294.0000 1.0000
62.1900 272.0000 1.0000
62.2000 282.0000 1.0000
62.2100 256.0000 1.0000
62.2200 274.0000 1.0000
62.2300 263.0000 1.0000
62.2400 270.0000 1.0000
62.2500 278.0000 1.0000
62.2600 281.0000 1.0000
62.2700 289.0000 1.0000
62.2800 277.0000 1.0000
62.2900 260.0000 1.0000
62.3000 288.0000 1.0000
62.3100 265.0000 1.0000
62.3200 268.0000 1.0000
62.3300 275.0000 1.0000
62.3400 288.0000 1.0000
62.3500 278.0000 1.0000
62.3600 289.0000 1.0000
62.3700 277.0000 1.0000
62.3800 262.0000 1.0000
62.3900 253.0000 1.0000
62.4000 277.0000 1.0000
62.4100 263.0000 1.0000
62.4200 248.0000 1.0000
62.4300 253.0000 1.0000
62.4400 280.0000 1.0000
62.4500 242.0000 1.0000
62.4600 265.0000 1.0000
62.4700 281.0000 1.0000
62.4800 252.0000 1.0000
62.4900 250.0000 1.0000
62.5000 269.0000 1.0000
62.5100 256.0000 1.0000
62.5200 253.0000 1.0000
62.5300 285.0000 1.0000
62.5400 259.0000 1.0000
62.5500 281.0000 1.0000
62.5600 287.0000 1.0000
62.5700 255.0000 1.0000
62.5800 237.0000 1.0000
62.5900 281.0000 1.0000
62.6000 253.0000 1.0000
62.6100 260.0000 1.0000
62.6200 258.0000 1.0000
62.6300 271.0000 1.0000
62.6400 238.0000 1.0000
62.6500 251.0000 1.0000
62.6600 236.0000 1.0000
62.6700 246.0000 1.0000
62.6800 243.0000 1.0000
62.6900 256.0000 1.0000
62.7000 245.0000 1.0000
62.7100 267.0000 1.0000
62.7200 266.0000 1.0000
62.7300 253.0000 1.0000
62.7400 272.0000 1.0000
62.7500 253.0000 1.0000
62.7600 256.0000 1.0000
62.7700 274.0000 1.0000
62.7800 265.0000 1.0000
62.7900 249.0000 1.0000
62.8000 269.0000 1.0000
62.8100 250.0000 1.0000
62.8200 272.0000 1.0000
62.8300 242.0000 1.0000
62.8400 255.0000 1.0000
62.8500 259.0000 1.0000
62.8600 257.0000 1.0000
62.8700 249.0000 1.0000
62.8800 266.0000 1.0000
62.8900 270.0000 1.0000
62.9000 258.0000 1.0000
62.9100 249.0000 1.0000
62.9200 251.0000 1.0000
62.9300 259.0000 1.0000
62.9400 259.0000 1.0000
62.9500 247.0000 1.0000
62.9600 269.0000 1.0000
62.9700 249.0000 1.0000
62.9800 266.0000 1.0000
62.9900 243.0000 1.0000
63.0000 246.0000 1.0000
63.0100 269.0000 1.0000
63.0200 278.0000 1.0000
63.0300 261.0000 1.0000
63.0400 239.0000 1.0000
63.0500 263.0000 1.0000
63.0600 233.0000 1.0000
63.0700 260.0000 1.0000
63.0800 251.0000 1.0000
63.0900 261.0000 1.0000
63.1000 241.0000 1.0000
63.1100 263.0000 1.0000
63.1200 244.0000 1.0000
63.1300 265.0000 1.0000
63.1400 260.0000 1.0000
63.1500 244.0000 1.0000
63.1600 263.0000 1.0000
63.1700 261.0000 1.0000
63.1800 249.0000 1.0000
63.1900 255.0000 1.0000
63.2000 248.0000 1.0000
63.2100 257.0000 1.0000
63.2200 260.0000 1.0000
63.2300 245.0000 1.0000
63.2400 271.0000 1.0000
63.2500 221.0000 1.0000
63.2600 254.0000 1.0000
63.2700 236.0000 1.0000
63.2800 243.0000 1.0000
63.2900 243.0000 1.0000
63.3000 272.0000 1.0000
63.3100 267.0000 1.0000
63.3200 229.0000 1.0000
63.3300 258.0000 1.0000
63.3400 251.0000 1.0000
63.3500 249.0000 1.0000
63.3600 264.0000 1.0000
63.3700 257.0000 1.0000
63.3800 253.0000 1.0000
63.3900 261.0000 1.0000
63.4000 239.0000 1.0000
63.4100 257.0000 1.0000
63.4200 260.0000 1.0000
63.4300 224.0000 1.0000
63.4400 273.0000 1.0000
63.4500 254.0000 1.0000
63.4600 232.0000 1.0000
63.4700 260.0000 1.0000
63.4800 278.0000 1.0000
63.4900 242.0000 1.0000
63.5000 257.0000 1.0000
63.5100 246.0000 1.0000
63.5200 242.0000 1.0000
63.5300 264.0000 1.0000
63.5400 272.0000 1.0000
63.5500 257.0000 1.0000
63.5600 262.0000 1.0000
63.5700 265.0000 1.0000
63.5800 253.0000 1.0000
63.5900 246.0000 1.0000
63.6000 251.0000 1.0000
63.6100 248.0000 1.0000
63.6200 257.0000 1.0000
63.6300 257.0000 1.0000
63.6400 248.0000 1.0000
63.6500 277.0000 1.0000
63.6600 253.0000 1.0000
63.6700 253.0000 1.0000
63.6800 252.0000 1.0000
63.6900 261.0000 1.0000
63.7000 244.0000 1.0000
63.7100 254.0000 1.0000
63.7200 263.0000 1.0000
63.7300 259.0000 1.0000
63.7400 248.0000 1.0000
63.7500 274.0000 1.0000
63.7600 263.0000 1.0000
63.7700 259.0000 1.0000
63.7800 260.0000 1.0000
63.7900 273.0000 1.0000
63.8000 271.0000 1.0000
63.8100 268.0000 1.0000
63.8200 250.0000 1.0000
63.8300 259.0000 1.0000
63.8400 255.0000 1.0000
63.8500 247.0000 1.0000
63.8600 240.0000 1.0000
63.8700 251.0000 1.0000
63.8800 269.0000 1.0000
63.8900 264.0000 1.0000
63.9000 256.0000 1.0000
63.9100 249.0000 1.0000
63.9200 256.0000 1.0000
63.9300 256.0000 1.0000
63.9400 262.0000 1.0000
63.9500 284.0000 1.0000
63.9600 285.0000 1.0000
63.9700 248.0000 1.0000
63.9800 253.0000 1.0000
63.9900 272.0000 1.0000
64.0000 250.0000 1.0000
64.0100 254.0000 1.0000
64.0200 286.0000 1.0000
64.0300 249.0000 1.0000
64.0400 256.0000 1.0000
64.0500 270.0000 1.0000
64.0600 269.0000 1.0000
64.0700 266.0000 1.0000
64.0800 247.0000 1.0000
64.0900 249.0000 1.0000
64.1000 265.0000 1.0000
64.1100 264.0000 1.0000
64.1200 247.0000 1.0000
64.1300 285.0000 1.0000
64.1400 268.0000 1.0000
64.1500 267.0000 1.0000
64.1600 280.0000 1.0000
64.1700 279.0000 1.0000
64.1800 255.0000 1.0000
64.1900 266.0000 1.0000
64.2000 279.0000 1.0000
64.2100 273.0000 1.0000
64.2200 248.0000 1.0000
64.2300 271.0000 1.0000
64.2400 271.0000 1.0000
64.2500 266.0000 1.0000
64.2600 264.0000 1.0000
64.2700 258.0000 1.0000
64.2800 276.0000 1.0000
64.2900 262.0000 1.0000
64.3000 262.0000 1.0000
64.3100 244.0000 1.0000
64.3200 250.0000 1.0000
64.3300 250.0000 1.0000
64.3400 264.0000 1.0000
64.3500 249.0000 1.0000
64.3600 235.0000 1.0000
64.3700 250.0000 1.0000
64.3800 251.0000 1.0000
64.3900 238.0000 1.0000
64.4000 245.0000 1.0000
64.4100 264.0000 1.0000
64.4200 245.0000 1.0000
64.4300 257.0000 1.0000
64.4400 229.0000 1.0000
64.4500 239.0000 1.0000
64.4600 251.0000 1.0000
64.4700 239.0000 1.0000
64.4800 247.0000 1.0000
64.4900 236.0000 1.0000
64.5000 269.0000 1.0000
64.5100 234.0000 1.0000
64.5200 236.0000 1.0000
64.5300 263.0000 1.0000
64.5400 251.0000 1.0000
64.5500 251.0000 1.0000
64.5600 260.0000 1.0000
64.5700 244.0000 1.0000
64.5800 240.0000 1.0000
64.5900 245.0000 1.0000
64.6000 230.0000 1.0000
64.6100 249.0000 1.0000
64.6200 285.0000 1.0000
64.6300 253.0000 1.0000
64.6400 260.0000 1.0000
64.6500 260.0000 1.0000
64.6600 268.0000 1.0000
64.6700 246.0000 1.0000
64.6800 253.0000 1.0000
64.6900 239.0000 1.0000
64.7000 270.0000 1.0000
64.7100 243.0000 1.0000
64.7200 268.0000 1.0000
64.7300 268.0000 1.0000
64.7400 241.0000 1.0000
64.7500 257.0000 1.0000
64.7600 248.0000 1.0000
64.7700 248.0000 1.0000
64.7800 264.0000 1.0000
64.7900 247.0000 1.0000
64.8000 254.0000 1.0000
64.8100 239.0000 1.0000
64.8200 255.0000 1.0000
64.8300 247.0000 1.0000
64.8400 262.0000 1.0000
64.8500 267.0000 1.0000
64.8600 255.0000 1.0000
64.8700 298.0000 1.0000
64.8800 256.0000 1.0000
64.8900 256.0000 1.0000
64.9000 271.0000 1.0000
64.9100 284.0000 1.0000
64.9200 248.0000 1.0000
64.9300 275.0000 1.0000
64.9400 259.0000 1.0000
64.9500 276.0000 1.0000
64.9600 284.0000 1.0000
64.9700 290.0000 1.0000
64.9800 264.0000 1.0000
64.9900 274.0000 1.0000
65.0000 279.0000 1.0000
65.0100 277.0000 1.0000
65.0200 280.0000 1.0000
65.0300 273.0000 1.0000
65.0400 288.0000 1.0000
65.0500 268.0000 1.0000
65.0600 288.0000 1.0000
65.0700 311.0000 1.0000
65.0800 274.0000 1.0000
65.0900 315.0000 1.0000
65.1000 313.0000 1.0000
65.1100 326.0000 1.0000
65.1200 299.0000 1.0000
65.1300 307.0000 1.0000
65.1400 321.0000 1.0000
65.1500 334.0000 1.0000
65.1600 324.0000 1.0000
65.1700 317.0000 1.0000
65.1800 314.0000 1.0000
65.1900 312.0000 1.0000
65.2000 359.0000 1.0000
65.2100 298.0000 1.0000
65.2200 333.0000 1.0000
65.2300 380.0000 1.0000
65.2400 372.0000 1.0000
65.2500 379.0000 1.0000
65.2600 363.0000 1.0000
65.2700 362.0000 1.0000
65.2800 385.0000 1.0000
65.2900 439.0000 1.0000
65.3000 423.0000 1.0000
65.3100 443.0000 1.0000
65.3200 468.0000 1.0000
65.3300 493.0000 1.0000
65.3400 482.0000 1.0000
65.3500 530.0000 1.0000
65.3600 544.0000 1.0000
65.3700 546.0000 1.0000
65.3800 593.0000 1.0000
65.3900 613.0000 1.0000
65.4000 632.0000 1.0000
65.4100 710.0000 1.0000
65.4200 704.0000 1.0000
65.4300 751.0000 1.0000
65.4400 714.0000 1.0000
65.4500 747.0000 1.0000
65.4600 743.0000 1.0000
65.4700 791.0000 1.0000
65.4800 817.0000 1.0000
65.4900 793.0000 1.0000
65.5000 822.0000 1.0000
65.5100 818.0000 1.0000
65.5200 818.0000 1.0000
65.5300 746.0000 1.0000
65.5400 766.0000 1.0000
65.5500 783.0000 1.0000
65.5600 730.0000 1.0000
65.5700 691.0000 1.0000
65.5800 715.0000 1.0000
65.5900 711.0000 1.0000
65.6000 704.0000 1.0000
65.6100 688.0000 1.0000
65.6200 686.0000 1.0000
65.6300 691.0000 1.0000
65.6400 637.0000 1.0000
65.6500 681.0000 1.0000
65.6600 633.0000 1.0000
65.6700 671.0000 1.0000
65.6800 597.0000 1.0000
65.6900 554.0000 1.0000
65.7000 626.0000 1.0000
65.7100 569.0000 1.0000
65.7200 564.0000 1.0000
65.7300 536.0000 1.0000
65.7400 531.0000 1.0000
65.7500 522.0000 1.0000
65.7600 466.0000 1.0000
65.7700 443.0000 1.0000
65.7800 438.0000 1.0000
65.7900 392.0000 1.0000
65.8000 438.0000 1.0000
65.8100 401.0000 1.0000
65.8200 415.0000 1.0000
65.8300 379.0000 1.0000
65.8400 365.0000 1.0000
65.8500 393.0000 1.0000
65.8600 346.0000 1.0000
65.8700 351.0000 1.0000
65.8800 369.0000 1.0000
65.8900 369.0000 1.0000
65.9000 358.0000 1.0000
65.9100 321.0000 1.0000
65.9200 333.0000 1.0000
65.9300 312.0000 1.0000
65.9400 306.0000 1.0000
65.9500 286.0000 1.0000
65.9600 301.0000 1.0000
65.9700 301.0000 1.0000
65.9800 289.0000 1.0000
65.9900 301.0000 1.0000
66.0000 305.0000 1.0000
66.0100 300.0000 1.0000
66.0200 302.0000 1.0000
66.0300 286.0000 1.0000
66.0400 291.0000 1.0000
66.0500 302.0000 1.0000
66.0600 288.0000 1.0000
66.0700 274.0000 1.0000
66.0800 290.0000 1.0000
66.0900 264.0000 1.0000
66.1000 258.0000 1.0000
66.1100 252.0000 1.0000
66.1200 282.0000 1.0000
66.1300 260.0000 1.0000
66.1400 284.0000 1.0000
66.1500 272.0000 1.0000
66.1600 266.0000 1.0000
66.1700 268.0000 1.0000
66.1800 275.0000 1.0000
66.1900 262.0000 1.0000
66.2000 273.0000 1.0000
66.2100 259.0000 1.0000
66.2200 232.0000 1.0000
66.2300 248.0000 1.0000
66.2400 255.0000 1.0000
66.2500 275.0000 1.0000
66.2600 262.0000 1.0000
66.2700 246.0000 1.0000
66.2800 252.0000 1.0000
66.2900 292.0000 1.0000
66.3000 267.0000 1.0000
66.3100 233.0000 1.0000
66.3200 243.0000 1.0000
66.3300 244.0000 1.0000
66.3400 244.0000 1.0000
66.3500 248.0000 1.0000
66.3600 276.0000 1.0000
66.3700 242.0000 1.0000
66.3800 236.0000 1.0000
66.3900 258.0000 1.0000
66.4000 250.0000 1.0000
66.4100 239.0000 1.0000
66.4200 245.0000 1.0000
66.4300 233.0000 1.0000
66.4400 234.0000 1.0000
66.4500 249.0000 1.0000
66.4600 249.0000 1.0000
66.4700 228.0000 1.0000
66.4800 241.0000 1.0000
66.4900 211.0000 1.0000
66.5000 234.0000 1.0000
66.5100 244.0000 1.0000
66.5200 233.0000 1.0000
66.5300 245.0000 1.0000
66.5400 259.0000 1.0000
66.5500 220.0000 1.0000
66.5600 234.0000 1.0000
66.5700 235.0000 1.0000
66.5800 234.0000 1.0000
66.5900 226.0000 1.0000
66.6000 237.0000 1.0000
66.6100 238.0000 1.0000
66.6200 242.0000 1.0000
66.6300 226.0000 1.0000
66.6400 236.0000 1.0000
66.6500 203.0000 1.0000
66.6600 228.0000 1.0000
66.6700 235.0000 1.0000
66.6800 228.0000 1.0000
66.6900 244.0000 1.0000
66.7000 245.0000 1.0000
66.7100 221.0000 1.0000
66.7200 239.0000 1.0000
66.7300 251.0000 1.0000
66.7400 229.0000 1.0000
66.7500 220.0000 1.0000
66.7600 232.0000 1.0000
66.7700 241.0000 1.0000
66.7800 224.0000 1.0000
66.7900 213.0000 1.0000
66.8000 230.0000 1.0000
66.8100 229.0000 1.0000
66.8200 228.0000 1.0000
66.8300 223.0000 1.0000
66.8400 230.0000 1.0000
66.8500 213.0000 1.0000
66.8600 198.0000 1.0000
66.8700 240.0000 1.0000
66.8800 254.0000 1.0000
66.8900 235.0000 1.0000
66.9000 208.0000 1.0000
66.9100 223.0000 1.0000
66.9200 229.0000 1.0000
66.9300 217.0000 1.0000
66.9400 229.0000 1.0000
66.9500 241.0000 1.0000
66.9600 223.0000 1.0000
66.9700 219.0000 1.0000
66.9800 211.0000 1.0000
66.9900 209.0000 1.0000
67.0000 236.0000 1.0000
67.0100 220.0000 1.0000
67.0200 210.0000 1.0000
67.0300 232.0000 1.0000
67.0400 232.0000 1.0000
67.0500 247.0000 1.0000
67.0600 207.0000 1.0000
67.0700 189.0000 1.0000
67.0800 239.0000 1.0000
67.0900 245.0000 1.0000
67.1000 209.0000 1.0000
67.1100 246.0000 1.0000
67.1200 220.0000 1.0000
67.1300 243.0000 1.0000
67.1400 210.0000 1.0000
67.1500 219.0000 1.0000
67.1600 228.0000 1.0000
67.1700 207.0000 1.0000
67.1800 231.0000 1.0000
67.1900 245.0000 1.0000
67.2000 229.0000 1.0000
67.2100 236.0000 1.0000
67.2200 242.0000 1.0000
67.2300 226.0000 1.0000
67.2400 231.0000 1.0000
67.2500 211.0000 1.0000
67.2600 223.0000 1.0000
67.2700 211.0000 1.0000
67.2800 222.0000 1.0000
67.2900 229.0000 1.0000
67.3000 231.0000 1.0000
67.3100 213.0000 1.0000
67.3200 225.0000 1.0000
67.3300 249.0000 1.0000
67.3400 203.0000 1.0000
67.3500 218.0000 1.0000
67.3600 206.0000 1.0000
67.3700 229.0000 1.0000
67.3800 229.0000 1.0000
67.3900 228.0000 1.0000
67.4000 221.0000 1.0000
67.4100 233.0000 1.0000
67.4200 210.0000 1.0000
67.4300 239.0000 1.0000
67.4400 223.0000 1.0000
67.4500 199.0000 1.0000
67.4600 207.0000 1.0000
67.4700 215.0000 1.0000
67.4800 229.0000 1.0000
67.4900 217.0000 1.0000
67.5000 212.0000 1.0000
67.5100 213.0000 1.0000
67.5200 216.0000 1.0000
67.5300 196.0000 1.0000
67.5400 205.0000 1.0000
67.5500 234.0000 1.0000
67.5600 216.0000 1.0000
67.5700 246.0000 1.0000
67.5800 231.0000 1.0000
67.5900 221.0000 1.0000
67.6000 220.0000 1.0000
67.6100 232.0000 1.0000
67.6200 229.0000 1.0000
67.6300 213.0000 1.0000
67.6400 240.0000 1.0000
67.6500 225.0000 1.0000
67.6600 210.0000 1.0000
67.6700 235.0000 1.0000
67.6800 222.0000 1.0000
67.6900 230.0000 1.0000
67.7000 210.0000 1.0000
67.7100 226.0000 1.0000
67.7200 231.0000 1.0000
67.7300 220.0000 1.0000
67.7400 233.0000 1.0000
67.7500 231.0000 1.0000
67.7600 228.0000 1.0000
67.7700 223.0000 1.0000
67.7800 220.0000 1.0000
67.7900 240.0000 1.0000
67.8000 224.0000 1.0000
67.8100 221.0000 1.0000
67.8200 210.0000 1.0000
67.8300 235.0000 1.0000
67.8400 223.0000 1.0000
67.8500 191.0000 1.0000
67.8600 213.0000 1.0000
67.8700 229.0000 1.0000
67.8800 195.0000 1.0000
67.8900 224.0000 1.0000
67.9000 220.0000 1.0000
67.9100 227.0000 1.0000
67.9200 221.0000 1.0000
67.9300 193.0000 1.0000
67.9400 231.0000 1.0000
67.9500 230.0000 1.0000
67.9600 208.0000 1.0000
67.9700 212.0000 1.0000
67.9800 217.0000 1.0000
67.9900 209.0000 1.0000
68.0000 215.0000 1.0000
68.0100 214.0000 1.0000
68.0200 209.0000 1.0000
68.0300 223.0000 1.0000
68.0400 188.0000 1.0000
68.0500 202.0000 1.0000
68.0600 214.0000 1.0000
68.0700 210.0000 1.0000
68.0800 203.0000 1.0000
68.0900 209.0000 1.0000
68.1000 249.0000 1.0000
68.1100 216.0000 1.0000
68.1200 201.0000 1.0000
68.1300 197.0000 1.0000
68.1400 202.0000 1.0000
68.1500 235.0000 1.0000
68.1600 188.0000 1.0000
68.1700 203.0000 1.0000
68.1800 196.0000 1.0000
68.1900 220.0000 1.0000
68.2000 206.0000 1.0000
68.2100 208.0000 1.0000
68.2200 210.0000 1.0000
68.2300 198.0000 1.0000
68.2400 209.0000 1.0000
68.2500 229.0000 1.0000
68.2600 203.0000 1.0000
68.2700 209.0000 1.0000
68.2800 212.0000 1.0000
68.2900 222.0000 1.0000
68.3000 206.0000 1.0000
68.3100 217.0000 1.0000
68.3200 212.0000 1.0000
68.3300 224.0000 1.0000
68.3400 203.0000 1.0000
68.3500 227.0000 1.0000
68.3600 208.0000 1.0000
68.3700 205.0000 1.0000
68.3800 185.0000 1.0000
68.3900 201.0000 1.0000
68.4000 200.0000 1.0000
68.4100 216.0000 1.0000
68.4200 216.0000 1.0000
68.4300 192.0000 1.0000
68.4400 206.0000 1.0000
68.4500 210.0000 1.0000
68.4600 202.0000 1.0000
68.4700 220.0000 1.0000
68.4800 221.0000 1.0000
68.4900 216.0000 1.0000
68.5000 196.0000 1.0000
68.5100 198.0000 1.0000
68.5200 201.0000 1.0000
68.5300 204.0000 1.0000
68.5400 221.0000 1.0000
68.5500 203.0000 1.0000
68.5600 207.0000 1.0000
68.5700 204.0000 1.0000
68.5800 206.0000 1.0000
68.5900 214.0000 1.0000
68.6000 208.0000 1.0000
68.6100 205.0000 1.0000
68.6200 224.0000 1.0000
68.6300 223.0000 1.0000
68.6400 211.0000 1.0000
68.6500 213.0000 1.0000
68.6600 227.0000 1.0000
68.6700 208.0000 1.0000
68.6800 202.0000 1.0000
68.6900 184.0000 1.0000
68.7000 193.0000 1.0000
68.7100 216.0000 1.0000
68.7200 211.0000 1.0000
68.7300 180.0000 1.0000
68.7400 217.0000 1.0000
68.7500 233.0000 1.0000
68.7600 208.0000 1.0000
68.7700 219.0000 1.0000
68.7800 213.0000 1.0000
68.7900 200.0000 1.0000
68.8000 214.0000 1.0000
68.8100 233.0000 1.0000
68.8200 202.0000 1.0000
68.8300 180.0000 1.0000
68.8400 207.0000 1.0000
68.8500 203.0000 1.0000
68.8600 221.0000 1.0000
68.8700 237.0000 1.0000
68.8800 208.0000 1.0000
68.8900 197.0000 1.0000
68.9000 196.0000 1.0000
68.9100 221.0000 1.0000
68.9200 232.0000 1.0000
68.9300 206.0000 1.0000
68.9400 208.0000 1.0000
68.9500 215.0000 1.0000
68.9600 208.0000 1.0000
68.9700 211.0000 1.0000
68.9800 228.0000 1.0000
68.9900 236.0000 1.0000
69.0000 202.0000 1.0000
69.0100 214.0000 1.0000
69.0200 197.0000 1.0000
69.0300 208.0000 1.0000
69.0400 192.0000 1.0000
69.0500 205.0000 1.0000
69.0600 223.0000 1.0000
69.0700 198.0000 1.0000
69.0800 217.0000 1.0000
69.0900 227.0000 1.0000
69.1000 185.0000 1.0000
69.1100 205.0000 1.0000
69.1200 196.0000 1.0000
69.1300 206.0000 1.0000
69.1400 192.0000 1.0000
69.1500 193.0000 1.0000
69.1600 223.0000 1.0000
69.1700 222.0000 1.0000
69.1800 206.0000 1.0000
69.1900 212.0000 1.0000
69.2000 222.0000 1.0000
69.2100 234.0000 1.0000
69.2200 228.0000 1.0000
69.2300 227.0000 1.0000
69.2400 204.0000 1.0000
69.2500 203.0000 1.0000
69.2600 184.0000 1.0000
69.2700 211.0000 1.0000
69.2800 203.0000 1.0000
69.2900 228.0000 1.0000
69.3000 245.0000 1.0000
69.3100 217.0000 1.0000
69.3200 219.0000 1.0000
69.3300 201.0000 1.0000
69.3400 199.0000 1.0000
69.3500 190.0000 1.0000
69.3600 213.0000 1.0000
69.3700 211.0000 1.0000
69.3800 224.0000 1.0000
69.3900 233.0000 1.0000
69.4000 217.0000 1.0000
69.4100 206.0000 1.0000
69.4200 211.0000 1.0000
69.4300 204.0000 1.0000
69.4400 193.0000 1.0000
69.4500 229.0000 1.0000
69.4600 201.0000 1.0000
69.4700 237.0000 1.0000
69.4800 208.0000 1.0000
69.4900 198.0000 1.0000
69.5000 189.0000 1.0000
69.5100 197.0000 1.0000
69.5200 204.0000 1.0000
69.5300 202.0000 1.0000
69.5400 191.0000 1.0000
69.5500 194.0000 1.0000
69.5600 222.0000 1.0000
69.5700 211.0000 1.0000
69.5800 195.0000 1.0000
69.5900 209.0000 1.0000
69.6000 217.0000 1.0000
69.6100 201.0000 1.0000
69.6200 211.0000 1.0000
69.6300 203.0000 1.0000
69.6400 213.0000 1.0000
69.6500 208.0000 1.0000
69.6600 193.0000 1.0000
69.6700 198.0000 1.0000
69.6800 194.0000 1.0000
69.6900 204.0000 1.0000
69.7000 200.0000 1.0000
69.7100 219.0000 1.0000
69.7200 183.0000 1.0000
69.7300 217.0000 1.0000
69.7400 197.0000 1.0000
69.7500 197.0000 1.0000
69.7600 191.0000 1.0000
69.7700 192.0000 1.0000
69.7800 213.0000 1.0000
69.7900 202.0000 1.0000
69.8000 211.0000 1.0000
69.8100 220.0000 1.0000
69.8200 205.0000 1.0000
69.8300 225.0000 1.0000
69.8400 234.0000 1.0000
69.8500 218.0000 1.0000
69.8600 211.0000 1.0000
69.8700 233.0000 1.0000
69.8800 216.0000 1.0000
69.8900 224.0000 1.0000
69.9000 187.0000 1.0000
69.9100 199.0000 1.0000
69.9200 221.0000 1.0000
69.9300 203.0000 1.0000
69.9400 185.0000 1.0000
69.9500 203.0000 1.0000
69.9600 203.0000 1.0000
69.9700 192.0000 1.0000
69.9800 236.0000 1.0000
69.9900 210.0000 1.0000
70.0000 203.0000 1.0000
*RAS_INT_END
*RAS_TEMPERATURE_START
*RAS_TEMPERATURE_END
*RAS_DATA_END
