*RAS_DATA_START
*RAS_HEADER_START
*DISP_FMT_X "%.2f"
*DISP_FMT_Y "%.0f"
*DISP_FULLSCALE "15550.0000000000"
*DISP_LINE_COLOR "255.0000000000"
*DISP_LINE_STYLE "0.0000000000"
*DISP_LINE_WIDTH "0.2500000000"
*DISP_NOTE "測定データ-12"
*DISP_OFFSET_Y "0.0000000000"
*DISP_PEAKSEARCH_UNIT_Y "cps"
*DISP_RANGE_BOTTOM "0.0000000000"
*DISP_RANGE_LEFT "20.0000000000"
*DISP_RANGE_LOGCUTOFF "0.0100000000"
*DISP_RANGE_RIGHT "70.0000000000"
*DISP_RANGE_TOP "15550.0000000000"
*DISP_SCALE_MODE_Y "0.0000000000"
*DISP_TAB_NAME "2θ/θ"
*DISP_TITLE_Y "強度"
*DISP_UNIT_Y "cps"
*DISP_WINDOW_NAME "MSG_MACROENGINE"
*FILE_COMMENT " "
*FILE_MD5 ""
*FILE_MEMO " "
*FILE_OPERATOR "Administrator"
*FILE_SAMPLE " "
*FILE_TYPE "RAS_RAW"
*FILE_USERGROUP "システムマネージャ"
*FILE_VERSION "1.0000000000"
*HW_ATTACHMENT_ID "ATT0025"
*HW_ATTACHMENT_NAME "標準|Standard"
*HW_COUNTER_ID-0 "CUT0025"
*HW_COUNTER_ID-1 "CUT0020"
*HW_COUNTER_ID-2 "CUT0020"
*HW_COUNTER_ID-3 "CSL0021"
*HW_COUNTER_ID-4 "CMC0021"
*HW_COUNTER_NAME-0 "D/teX Ultra|D/teX Ultra"
*HW_COUNTER_NAME-1 "None|None"
*HW_COUNTER_NAME-2 "None|None"
*HW_COUNTER_NAME-3 "BBM|BBM"
*HW_COUNTER_NAME-4 "検出器モノクロメータ|Detector monochromator"
*HW_COUNTER_SELECT_NAME "D/teX Ultra|D/teX Ultra"
*HW_GONIOMETER_ID "GON0023"
*HW_GONIOMETER_NAME "SmartLab|SmartLab"
*HW_GONIOMETER_RADIUS-0 "90.0"
*HW_GONIOMETER_RADIUS-1 "114.0"
*HW_GONIOMETER_RADIUS-2 "190.0"
*HW_GONIOMETER_RADIUS-3 "300.0"
*HW_GONIOMETER_RADIUS-4 "187.0"
*HW_GONIOMETER_RADIUS-5 "300.0"
*HW_GONIOMETER_RADIUS-6 "113.0"
*HW_GONIOMETER_RADIUS-7 "331.0"
*HW_I_OPT_ID-0 "CBO0021"
*HW_I_OPT_ID-1 "ICR0023"
*HW_I_OPT_ID-2 "ISL0021"
*HW_I_OPT_ID-3 "ISO0021"
*HW_I_OPT_ID-4 "IAD0021"
*HW_I_OPT_ID-5 "IPR0001"
*HW_I_OPT_NAME-0 "CBOユニット|CBO unit"
*HW_I_OPT_NAME-1 "標準入射光学ユニット|Standard incident optical unit"
*HW_I_OPT_NAME-2 "標準入射スリットボックス|Standard incident slit box"
*HW_I_OPT_NAME-3 "入射平行スリット|Incident parallel slit"
*HW_I_OPT_NAME-4 "長手制限スリット|Length limiting slit"
*HW_I_OPT_NAME-5 "None|None"
*HW_R_ATTENUATER_AUTOMODE "0"
*HW_R_OPT_ID-0 "RSS0021"
*HW_R_OPT_ID-1 "RCR0023"
*HW_R_OPT_ID-2 "RSO0021"
*HW_R_OPT_ID-3 "RRS0021"
*HW_R_OPT_ID-4 "ATN0021"
*HW_R_OPT_ID-5 "RFL0021"
*HW_R_OPT_ID-6 "RAD0021"
*HW_R_OPT_NAME-0 "標準受光スリットボックス1|Standard receiving slit box # 1"
*HW_R_OPT_NAME-1 "標準受光光学ユニット1|Standard receiving unit # 1"
*HW_R_OPT_NAME-2 "標準受光光学ユニット2|Standard receiving optical unit # 2"
*HW_R_OPT_NAME-3 "標準受光スリットボックス2|Standard receiving slit box # 2"
*HW_R_OPT_NAME-4 "標準アッテネータ|Standard Attenuator"
*HW_R_OPT_NAME-5 "Cu Kβ|Cu K-beta"
*HW_R_OPT_NAME-6 "調整用受光スリット|Alignment receiving slit"
*HW_SAMPLE_HOLDER_ID "SMP0023"
*HW_SAMPLE_HOLDER_NAME "標準Zステージ|Standard Z stage"
*HW_XG_CURRENT_MAX "50"
*HW_XG_CURRENT_MIN "2"
*HW_XG_CURRENT_RESOLUTION "1"
*HW_XG_CURRENT_UNIT "mA"
*HW_XG_FOCUS "1mm x 10mm"
*HW_XG_FOCUS_TYPE "Normal"
*HW_XG_ID ""
*HW_XG_NAME "3kW 封入管(ID:1200)|3kW Sealed tube(ID:1200)"
*HW_XG_TARGET_ATOMIC_NUMBER "29.0000000000"
*HW_XG_TARGET_NAME "Cu"
*HW_XG_TYPE "Hermetic"
*HW_XG_VOLTAGE_MAX "60"
*HW_XG_VOLTAGE_MIN "20"
*HW_XG_VOLTAGE_RESOLUTION "1"
*HW_XG_VOLTAGE_UNIT "kV"
*HW_XG_WATT_MAX "1.500"
*HW_XG_WATT_UNIT "kW"
*HW_XG_WAVE_LENGTH_ALPHA1 "1.540593"
*HW_XG_WAVE_LENGTH_ALPHA2 "1.544414"
*HW_XG_WAVE_LENGTH_BETA "1.392250"
*MEAS_COND_AXIS_NAME-0 "2θ/θ"
*MEAS_COND_AXIS_NAME-1 "2θ"
*MEAS_COND_AXIS_NAME-2 "ω"
*MEAS_COND_AXIS_NAME-3 "Z"
*MEAS_COND_AXIS_NAME-4 "2θ/ω"
*MEAS_COND_AXIS_NAME-5 "θs"
*MEAS_COND_AXIS_NAME-6 "θd"
*MEAS_COND_AXIS_NAME-7 "Ts"
*MEAS_COND_AXIS_NAME-8 "CBO選択スリット"
*MEAS_COND_AXIS_NAME-9 "M"
*MEAS_COND_AXIS_NAME-10 "入射平行スリット"
*MEAS_COND_AXIS_NAME-11 "入射スリット"
*MEAS_COND_AXIS_NAME-12 ""
*MEAS_COND_AXIS_NAME-13 "Zs"
*MEAS_COND_AXIS_NAME-14 "入射光学素子"
*MEAS_COND_AXIS_NAME-15 "長手制限スリット"
*MEAS_COND_AXIS_NAME-16 "センタースリット"
*MEAS_COND_AXIS_NAME-17 "フィルター"
*MEAS_COND_AXIS_NAME-18 "受光スリット1"
*MEAS_COND_AXIS_NAME-19 "受光スリット2"
*MEAS_COND_AXIS_NAME-20 "受光光学素子"
*MEAS_COND_AXIS_NAME-21 "受光平行スリット"
*MEAS_COND_AXIS_NAME-22 "調整用受光スリット"
*MEAS_COND_AXIS_NAME-23 ""
*MEAS_COND_AXIS_NAME-24 ""
*MEAS_COND_AXIS_NAME-25 "Zd"
*MEAS_COND_AXIS_NAME-26 "アッテネータ"
*MEAS_COND_AXIS_NAME-27 "検出器モノクロメータ"
*MEAS_COND_AXIS_NAME-28 "モノクロメータスリット"
*MEAS_COND_AXIS_NAME-29 "プライマリビーム"
*MEAS_COND_AXIS_NAME-30 "PHA"
*MEAS_COND_AXIS_NAME_INTERNAL-0 "TwoThetaTheta"
*MEAS_COND_AXIS_NAME_INTERNAL-1 "TwoTheta"
*MEAS_COND_AXIS_NAME_INTERNAL-2 "Omega"
*MEAS_COND_AXIS_NAME_INTERNAL-3 "Z"
*MEAS_COND_AXIS_NAME_INTERNAL-4 "TwoThetaOmega"
*MEAS_COND_AXIS_NAME_INTERNAL-5 "ThetaS"
*MEAS_COND_AXIS_NAME_INTERNAL-6 "ThetaD"
*MEAS_COND_AXIS_NAME_INTERNAL-7 "Ts"
*MEAS_COND_AXIS_NAME_INTERNAL-8 "CBO"
*MEAS_COND_AXIS_NAME_INTERNAL-9 "CBO-M"
*MEAS_COND_AXIS_NAME_INTERNAL-10 "IncidentSollerSlit"
*MEAS_COND_AXIS_NAME_INTERNAL-11 "IncidentSlitBox"
*MEAS_COND_AXIS_NAME_INTERNAL-12 "IncidentSlitBox-_Axis"
*MEAS_COND_AXIS_NAME_INTERNAL-13 "Zs"
*MEAS_COND_AXIS_NAME_INTERNAL-14 "IncidentMonochromator"
*MEAS_COND_AXIS_NAME_INTERNAL-15 "IncidentAxdSlit"
*MEAS_COND_AXIS_NAME_INTERNAL-16 "CenterSlit"
*MEAS_COND_AXIS_NAME_INTERNAL-17 "Filter"
*MEAS_COND_AXIS_NAME_INTERNAL-18 "ReceivingSlitBox1"
*MEAS_COND_AXIS_NAME_INTERNAL-19 "ReceivingSlitBox2"
*MEAS_COND_AXIS_NAME_INTERNAL-20 "ReceivingOptics"
*MEAS_COND_AXIS_NAME_INTERNAL-21 "ReceivingSollerSlit"
*MEAS_COND_AXIS_NAME_INTERNAL-22 "ReceivingAxdSlit"
*MEAS_COND_AXIS_NAME_INTERNAL-23 "ReceivingSlitBox1-_Axis"
*MEAS_COND_AXIS_NAME_INTERNAL-24 "ReceivingSlitBox2-_Axis"
*MEAS_COND_AXIS_NAME_INTERNAL-25 "ReceivingSlitBox2-Zd"
*MEAS_COND_AXIS_NAME_INTERNAL-26 "Attenuator"
*MEAS_COND_AXIS_NAME_INTERNAL-27 "CounterMonochromator"
*MEAS_COND_AXIS_NAME_INTERNAL-28 "CounterSlit"
*MEAS_COND_AXIS_NAME_INTERNAL-29 "IncidentPrimary"
*MEAS_COND_AXIS_NAME_INTERNAL-30 "PHA"
*MEAS_COND_AXIS_NAME_MAGICNO-0 "83951616.0000000000"
*MEAS_COND_AXIS_NAME_MAGICNO-1 "268632064.0000000000"
*MEAS_COND_AXIS_NAME_MAGICNO-2 "268500992.0000000000"
*MEAS_COND_AXIS_NAME_MAGICNO-3 "285278208.0000000000"
*MEAS_COND_AXIS_NAME_MAGICNO-4 "83951616.0000000000"
*MEAS_COND_AXIS_NAME_MAGICNO-5 "131072.0000000000"
*MEAS_COND_AXIS_NAME_MAGICNO-6 "131072.0000000000"
*MEAS_COND_AXIS_NAME_MAGICNO-7 "318898176.0000000000"
*MEAS_COND_AXIS_NAME_MAGICNO-8 "20971521.0000000000"
*MEAS_COND_AXIS_NAME_MAGICNO-9 "285343744.0000000000"
*MEAS_COND_AXIS_NAME_MAGICNO-10 "20971521.0000000000"
*MEAS_COND_AXIS_NAME_MAGICNO-11 "22020097.0000000000"
*MEAS_COND_AXIS_NAME_MAGICNO-12 "25165824.0000000000"
*MEAS_COND_AXIS_NAME_MAGICNO-13 "318898176.0000000000"
*MEAS_COND_AXIS_NAME_MAGICNO-14 "1.0000000000"
*MEAS_COND_AXIS_NAME_MAGICNO-15 "20971521.0000000000"
*MEAS_COND_AXIS_NAME_MAGICNO-16 "20971521.0000000000"
*MEAS_COND_AXIS_NAME_MAGICNO-17 "20971521.0000000000"
*MEAS_COND_AXIS_NAME_MAGICNO-18 "23068673.0000000000"
*MEAS_COND_AXIS_NAME_MAGICNO-19 "23068673.0000000000"
*MEAS_COND_AXIS_NAME_MAGICNO-20 "20971521.0000000000"
*MEAS_COND_AXIS_NAME_MAGICNO-21 "20971521.0000000000"
*MEAS_COND_AXIS_NAME_MAGICNO-22 "20971521.0000000000"
*MEAS_COND_AXIS_NAME_MAGICNO-23 "25165824.0000000000"
*MEAS_COND_AXIS_NAME_MAGICNO-24 "25165824.0000000000"
*MEAS_COND_AXIS_NAME_MAGICNO-25 "285343744.0000000000"
*MEAS_COND_AXIS_NAME_MAGICNO-26 "17301505.0000000000"
*MEAS_COND_AXIS_NAME_MAGICNO-27 "20971521.0000000000"
*MEAS_COND_AXIS_NAME_MAGICNO-28 "20971521.0000000000"
*MEAS_COND_AXIS_NAME_MAGICNO-29 "20971521.0000000000"
*MEAS_COND_AXIS_NAME_MAGICNO-30 "0.0000000000"
*MEAS_COND_AXIS_OFFSET-0 "-"
*MEAS_COND_AXIS_OFFSET-1 "-0.0310000000"
*MEAS_COND_AXIS_OFFSET-2 "0.3957000000"
*MEAS_COND_AXIS_OFFSET-3 "-"
*MEAS_COND_AXIS_OFFSET-4 "-"
*MEAS_COND_AXIS_OFFSET-5 "0.3957000000"
*MEAS_COND_AXIS_OFFSET-6 "-0.4267000000"
*MEAS_COND_AXIS_OFFSET-7 "-"
*MEAS_COND_AXIS_OFFSET-8 "-"
*MEAS_COND_AXIS_OFFSET-9 "-"
*MEAS_COND_AXIS_OFFSET-10 "-"
*MEAS_COND_AXIS_OFFSET-11 "-"
*MEAS_COND_AXIS_OFFSET-12 "-"
*MEAS_COND_AXIS_OFFSET-13 "-"
*MEAS_COND_AXIS_OFFSET-14 "-"
*MEAS_COND_AXIS_OFFSET-15 "-"
*MEAS_COND_AXIS_OFFSET-16 "-"
*MEAS_COND_AXIS_OFFSET-17 "-"
*MEAS_COND_AXIS_OFFSET-18 "-"
*MEAS_COND_AXIS_OFFSET-19 "-"
*MEAS_COND_AXIS_OFFSET-20 "-"
*MEAS_COND_AXIS_OFFSET-21 "-"
*MEAS_COND_AXIS_OFFSET-22 "-"
*MEAS_COND_AXIS_OFFSET-23 "-"
*MEAS_COND_AXIS_OFFSET-24 "-"
*MEAS_COND_AXIS_OFFSET-25 "-"
*MEAS_COND_AXIS_OFFSET-26 "-"
*MEAS_COND_AXIS_OFFSET-27 "-"
*MEAS_COND_AXIS_OFFSET-28 "-"
*MEAS_COND_AXIS_OFFSET-29 "-"
*MEAS_COND_AXIS_OFFSET-30 "-"
*MEAS_COND_AXIS_POSITION-0 "0.0000000000"
*MEAS_COND_AXIS_POSITION-1 "0.0000000000"
*MEAS_COND_AXIS_POSITION-2 "0.0000000000"
*MEAS_COND_AXIS_POSITION-3 "-2.9037400000"
*MEAS_COND_AXIS_POSITION-4 "0.0000000000"
*MEAS_COND_AXIS_POSITION-5 "0.0000000000"
*MEAS_COND_AXIS_POSITION-6 "0.0000000000"
*MEAS_COND_AXIS_POSITION-7 "-0.7498700000"
*MEAS_COND_AXIS_POSITION-8 "BB"
*MEAS_COND_AXIS_POSITION-9 "0.0000000000"
*MEAS_COND_AXIS_POSITION-10 "Soller_slit_5.0deg"
*MEAS_COND_AXIS_POSITION-11 "2/3deg"
*MEAS_COND_AXIS_POSITION-12 "2.2088000000"
*MEAS_COND_AXIS_POSITION-13 "-0.6412500000"
*MEAS_COND_AXIS_POSITION-14 "0.0000000000"
*MEAS_COND_AXIS_POSITION-15 "10.0mm"
*MEAS_COND_AXIS_POSITION-16 "None"
*MEAS_COND_AXIS_POSITION-17 "Cu_K-beta"
*MEAS_COND_AXIS_POSITION-18 "13.000mm"
*MEAS_COND_AXIS_POSITION-19 "13.000mm"
*MEAS_COND_AXIS_POSITION-20 "No_unit"
*MEAS_COND_AXIS_POSITION-21 "Soller_slit_5.0deg"
*MEAS_COND_AXIS_POSITION-22 "None"
*MEAS_COND_AXIS_POSITION-23 "13.0000000000"
*MEAS_COND_AXIS_POSITION-24 "13.0000000000"
*MEAS_COND_AXIS_POSITION-25 "0.0281300000"
*MEAS_COND_AXIS_POSITION-26 "Open"
*MEAS_COND_AXIS_POSITION-27 "None"
*MEAS_COND_AXIS_POSITION-28 "None"
*MEAS_COND_AXIS_POSITION-29 "None"
*MEAS_COND_AXIS_POSITION-30 "38.0000000000"
*MEAS_COND_AXIS_UNIT-0 "deg"
*MEAS_COND_AXIS_UNIT-1 "deg"
*MEAS_COND_AXIS_UNIT-2 "deg"
*MEAS_COND_AXIS_UNIT-3 "mm"
*MEAS_COND_AXIS_UNIT-4 "deg"
*MEAS_COND_AXIS_UNIT-5 "deg"
*MEAS_COND_AXIS_UNIT-6 "deg"
*MEAS_COND_AXIS_UNIT-7 "mm"
*MEAS_COND_AXIS_UNIT-8 ""
*MEAS_COND_AXIS_UNIT-9 "pulse"
*MEAS_COND_AXIS_UNIT-10 ""
*MEAS_COND_AXIS_UNIT-11 ""
*MEAS_COND_AXIS_UNIT-12 "mm"
*MEAS_COND_AXIS_UNIT-13 "mm"
*MEAS_COND_AXIS_UNIT-14 ""
*MEAS_COND_AXIS_UNIT-15 ""
*MEAS_COND_AXIS_UNIT-16 ""
*MEAS_COND_AXIS_UNIT-17 ""
*MEAS_COND_AXIS_UNIT-18 ""
*MEAS_COND_AXIS_UNIT-19 ""
*MEAS_COND_AXIS_UNIT-20 ""
*MEAS_COND_AXIS_UNIT-21 ""
*MEAS_COND_AXIS_UNIT-22 ""
*MEAS_COND_AXIS_UNIT-23 "mm"
*MEAS_COND_AXIS_UNIT-24 "mm"
*MEAS_COND_AXIS_UNIT-25 "mm"
*MEAS_COND_AXIS_UNIT-26 ""
*MEAS_COND_AXIS_UNIT-27 ""
*MEAS_COND_AXIS_UNIT-28 ""
*MEAS_COND_AXIS_UNIT-29 ""
*MEAS_COND_AXIS_UNIT-30 "div"
*MEAS_COND_COUNTER_CNTLOSS_CORR "0.0000000000"
*MEAS_COND_COUNTER_PHABASE "38.0000000000"
*MEAS_COND_COUNTER_PHAWINDOW "16.0000000000"
*MEAS_COND_COUNTER_PHA_UNIT "div"
*MEAS_COND_COUNTER_TAUDIFF "30.0000000000"
*MEAS_COND_COUNTER_TAUINT "0.0000000000"
*MEAS_COND_IRRADIATION_MODE "OFF"
*MEAS_COND_IRRADIATION_WIDTH ""
*MEAS_COND_OPT_ATTR "集中法"
*MEAS_COND_OPT_NAME "@集中法"
*MEAS_COND_UNSYMMETRIC_MODE "OFF"
*MEAS_COND_XG_CURRENT "30.0000000000"
*MEAS_COND_XG_VOLTAGE "40.0000000000"
*MEAS_COND_XG_WAVE_TYPE "Ka"
*MEAS_DATA_COUNT "5001.0000000000"
*MEAS_SCAN_AXIS_X "2θ/θ"
*MEAS_SCAN_AXIS_X_INTERNAL "TwoThetaTheta"
*MEAS_SCAN_END_TIME "02/15/24 21:10:55"
*MEAS_SCAN_MODE "CONTINUOUS"
*MEAS_SCAN_MONITOR "0"
*MEAS_SCAN_RESOLUTION_X "0.0002"
*MEAS_SCAN_SPEED "2.5"
*MEAS_SCAN_SPEED_UNIT "deg/min"
*MEAS_SCAN_START "20.0000000000"
*MEAS_SCAN_START_TIME "02/15/24 20:49:31"
*MEAS_SCAN_STEP "0.0100000000"
*MEAS_SCAN_STOP "70.0000000000"
*MEAS_SCAN_UNIT_X "deg"
*MEAS_SCAN_UNIT_Y "counts"
*RAS_HEADER_END
*RAS_INT_START
20.0000 850.0000 1.0000
20.0100 853.0000 1.0000
20.0200 857.0000 1.0000
20.0300 869.0000 1.0000
20.0400 900.0000 1.0000
20.0500 893.0000 1.0000
20.0600 839.0000 1.0000
20.0700 876.0000 1.0000
20.0800 915.0000 1.0000
20.0900 846.0000 1.0000
20.1000 865.0000 1.0000
20.1100 893.0000 1.0000
20.1200 875.0000 1.0000
20.1300 851.0000 1.0000
20.1400 886.0000 1.0000
20.1500 871.0000 1.0000
20.1600 862.0000 1.0000
20.1700 843.0000 1.0000
20.1800 834.0000 1.0000
20.1900 867.0000 1.0000
20.2000 925.0000 1.0000
20.2100 914.0000 1.0000
20.2200 871.0000 1.0000
20.2300 859.0000 1.0000
20.2400 889.0000 1.0000
20.2500 883.0000 1.0000
20.2600 875.0000 1.0000
20.2700 879.0000 1.0000
20.2800 873.0000 1.0000
20.2900 914.0000 1.0000
20.3000 834.0000 1.0000
20.3100 871.0000 1.0000
20.3200 845.0000 1.0000
20.3300 883.0000 1.0000
20.3400 831.0000 1.0000
20.3500 812.0000 1.0000
20.3600 846.0000 1.0000
20.3700 843.0000 1.0000
20.3800 884.0000 1.0000
20.3900 886.0000 1.0000
20.4000 864.0000 1.0000
20.4100 863.0000 1.0000
20.4200 831.0000 1.0000
20.4300 845.0000 1.0000
20.4400 890.0000 1.0000
20.4500 890.0000 1.0000
20.4600 848.0000 1.0000
20.4700 849.0000 1.0000
20.4800 877.0000 1.0000
20.4900 862.0000 1.0000
20.5000 886.0000 1.0000
20.5100 891.0000 1.0000
20.5200 908.0000 1.0000
20.5300 899.0000 1.0000
20.5400 861.0000 1.0000
20.5500 822.0000 1.0000
20.5600 841.0000 1.0000
20.5700 909.0000 1.0000
20.5800 882.0000 1.0000
20.5900 897.0000 1.0000
20.6000 861.0000 1.0000
20.6100 865.0000 1.0000
20.6200 868.0000 1.0000
20.6300 849.0000 1.0000
20.6400 888.0000 1.0000
20.6500 913.0000 1.0000
20.6600 839.0000 1.0000
20.6700 865.0000 1.0000
20.6800 905.0000 1.0000
20.6900 850.0000 1.0000
20.7000 866.0000 1.0000
20.7100 861.0000 1.0000
20.7200 860.0000 1.0000
20.7300 879.0000 1.0000
20.7400 889.0000 1.0000
20.7500 869.0000 1.0000
20.7600 833.0000 1.0000
20.7700 849.0000 1.0000
20.7800 865.0000 1.0000
20.7900 873.0000 1.0000
20.8000 863.0000 1.0000
20.8100 854.0000 1.0000
20.8200 907.0000 1.0000
20.8300 850.0000 1.0000
20.8400 847.0000 1.0000
20.8500 792.0000 1.0000
20.8600 850.0000 1.0000
20.8700 856.0000 1.0000
20.8800 845.0000 1.0000
20.8900 832.0000 1.0000
20.9000 886.0000 1.0000
20.9100 883.0000 1.0000
20.9200 866.0000 1.0000
20.9300 867.0000 1.0000
20.9400 848.0000 1.0000
20.9500 824.0000 1.0000
20.9600 891.0000 1.0000
20.9700 879.0000 1.0000
20.9800 876.0000 1.0000
20.9900 842.0000 1.0000
21.0000 856.0000 1.0000
21.0100 824.0000 1.0000
21.0200 818.0000 1.0000
21.0300 855.0000 1.0000
21.0400 899.0000 1.0000
21.0500 895.0000 1.0000
21.0600 900.0000 1.0000
21.0700 885.0000 1.0000
21.0800 894.0000 1.0000
21.0900 873.0000 1.0000
21.1000 884.0000 1.0000
21.1100 877.0000 1.0000
21.1200 894.0000 1.0000
21.1300 877.0000 1.0000
21.1400 818.0000 1.0000
21.1500 789.0000 1.0000
21.1600 840.0000 1.0000
21.1700 833.0000 1.0000
21.1800 845.0000 1.0000
21.1900 873.0000 1.0000
21.2000 841.0000 1.0000
21.2100 854.0000 1.0000
21.2200 827.0000 1.0000
21.2300 837.0000 1.0000
21.2400 860.0000 1.0000
21.2500 880.0000 1.0000
21.2600 855.0000 1.0000
21.2700 879.0000 1.0000
21.2800 827.0000 1.0000
21.2900 865.0000 1.0000
21.3000 881.0000 1.0000
21.3100 906.0000 1.0000
21.3200 830.0000 1.0000
21.3300 864.0000 1.0000
21.3400 831.0000 1.0000
21.3500 821.0000 1.0000
21.3600 878.0000 1.0000
21.3700 856.0000 1.0000
21.3800 894.0000 1.0000
21.3900 832.0000 1.0000
21.4000 805.0000 1.0000
21.4100 846.0000 1.0000
21.4200 842.0000 1.0000
21.4300 882.0000 1.0000
21.4400 873.0000 1.0000
21.4500 887.0000 1.0000
21.4600 880.0000 1.0000
21.4700 871.0000 1.0000
21.4800 855.0000 1.0000
21.4900 841.0000 1.0000
21.5000 812.0000 1.0000
21.5100 829.0000 1.0000
21.5200 888.0000 1.0000
21.5300 922.0000 1.0000
21.5400 823.0000 1.0000
21.5500 848.0000 1.0000
21.5600 852.0000 1.0000
21.5700 867.0000 1.0000
21.5800 849.0000 1.0000
21.5900 871.0000 1.0000
21.6000 858.0000 1.0000
21.6100 836.0000 1.0000
21.6200 810.0000 1.0000
21.6300 833.0000 1.0000
21.6400 842.0000 1.0000
21.6500 857.0000 1.0000
21.6600 900.0000 1.0000
21.6700 864.0000 1.0000
21.6800 815.0000 1.0000
21.6900 834.0000 1.0000
21.7000 884.0000 1.0000
21.7100 880.0000 1.0000
21.7200 885.0000 1.0000
21.7300 864.0000 1.0000
21.7400 868.0000 1.0000
21.7500 856.0000 1.0000
21.7600 846.0000 1.0000
21.7700 823.0000 1.0000
21.7800 856.0000 1.0000
21.7900 821.0000 1.0000
21.8000 884.0000 1.0000
21.8100 828.0000 1.0000
21.8200 892.0000 1.0000
21.8300 866.0000 1.0000
21.8400 888.0000 1.0000
21.8500 851.0000 1.0000
21.8600 831.0000 1.0000
21.8700 859.0000 1.0000
21.8800 831.0000 1.0000
21.8900 875.0000 1.0000
21.9000 870.0000 1.0000
21.9100 866.0000 1.0000
21.9200 809.0000 1.0000
21.9300 791.0000 1.0000
21.9400 818.0000 1.0000
21.9500 881.0000 1.0000
21.9600 837.0000 1.0000
21.9700 884.0000 1.0000
21.9800 895.0000 1.0000
21.9900 895.0000 1.0000
22.0000 841.0000 1.0000
22.0100 849.0000 1.0000
22.0200 866.0000 1.0000
22.0300 857.0000 1.0000
22.0400 830.0000 1.0000
22.0500 835.0000 1.0000
22.0600 905.0000 1.0000
22.0700 867.0000 1.0000
22.0800 833.0000 1.0000
22.0900 829.0000 1.0000
22.1000 863.0000 1.0000
22.1100 864.0000 1.0000
22.1200 831.0000 1.0000
22.1300 874.0000 1.0000
22.1400 825.0000 1.0000
22.1500 801.0000 1.0000
22.1600 846.0000 1.0000
22.1700 867.0000 1.0000
22.1800 831.0000 1.0000
22.1900 845.0000 1.0000
22.2000 822.0000 1.0000
22.2100 834.0000 1.0000
22.2200 896.0000 1.0000
22.2300 907.0000 1.0000
22.2400 832.0000 1.0000
22.2500 831.0000 1.0000
22.2600 874.0000 1.0000
22.2700 889.0000 1.0000
22.2800 854.0000 1.0000
22.2900 861.0000 1.0000
22.3000 870.0000 1.0000
22.3100 850.0000 1.0000
22.3200 852.0000 1.0000
22.3300 793.0000 1.0000
22.3400 836.0000 1.0000
22.3500 843.0000 1.0000
22.3600 854.0000 1.0000
22.3700 815.0000 1.0000
22.3800 852.0000 1.0000
22.3900 852.0000 1.0000
22.4000 900.0000 1.0000
22.4100 872.0000 1.0000
22.4200 862.0000 1.0000
22.4300 826.0000 1.0000
22.4400 884.0000 1.0000
22.4500 832.0000 1.0000
22.4600 837.0000 1.0000
22.4700 847.0000 1.0000
22.4800 840.0000 1.0000
22.4900 835.0000 1.0000
22.5000 843.0000 1.0000
22.5100 844.0000 1.0000
22.5200 847.0000 1.0000
22.5300 825.0000 1.0000
22.5400 824.0000 1.0000
22.5500 816.0000 1.0000
22.5600 864.0000 1.0000
22.5700 876.0000 1.0000
22.5800 863.0000 1.0000
22.5900 828.0000 1.0000
22.6000 824.0000 1.0000
22.6100 864.0000 1.0000
22.6200 844.0000 1.0000
22.6300 834.0000 1.0000
22.6400 845.0000 1.0000
22.6500 839.0000 1.0000
22.6600 821.0000 1.0000
22.6700 854.0000 1.0000
22.6800 884.0000 1.0000
22.6900 830.0000 1.0000
22.7000 818.0000 1.0000
22.7100 854.0000 1.0000
22.7200 814.0000 1.0000
22.7300 860.0000 1.0000
22.7400 833.0000 1.0000
22.7500 855.0000 1.0000
22.7600 811.0000 1.0000
22.7700 832.0000 1.0000
22.7800 812.0000 1.0000
22.7900 813.0000 1.0000
22.8000 822.0000 1.0000
22.8100 829.0000 1.0000
22.8200 817.0000 1.0000
22.8300 789.0000 1.0000
22.8400 828.0000 1.0000
22.8500 825.0000 1.0000
22.8600 880.0000 1.0000
22.8700 867.0000 1.0000
22.8800 838.0000 1.0000
22.8900 845.0000 1.0000
22.9000 812.0000 1.0000
22.9100 808.0000 1.0000
22.9200 841.0000 1.0000
22.9300 845.0000 1.0000
22.9400 863.0000 1.0000
22.9500 852.0000 1.0000
22.9600 860.0000 1.0000
22.9700 830.0000 1.0000
22.9800 863.0000 1.0000
22.9900 796.0000 1.0000
23.0000 809.0000 1.0000
23.0100 811.0000 1.0000
23.0200 836.0000 1.0000
23.0300 793.0000 1.0000
23.0400 877.0000 1.0000
23.0500 891.0000 1.0000
23.0600 893.0000 1.0000
23.0700 862.0000 1.0000
23.0800 861.0000 1.0000
23.0900 804.0000 1.0000
23.1000 850.0000 1.0000
23.1100 855.0000 1.0000
23.1200 892.0000 1.0000
23.1300 823.0000 1.0000
23.1400 867.0000 1.0000
23.1500 851.0000 1.0000
23.1600 800.0000 1.0000
23.1700 819.0000 1.0000
23.1800 840.0000 1.0000
23.1900 843.0000 1.0000
23.2000 838.0000 1.0000
23.2100 853.0000 1.0000
23.2200 841.0000 1.0000
23.2300 856.0000 1.0000
23.2400 839.0000 1.0000
23.2500 772.0000 1.0000
23.2600 827.0000 1.0000
23.2700 817.0000 1.0000
23.2800 895.0000 1.0000
23.2900 812.0000 1.0000
23.3000 829.0000 1.0000
23.3100 821.0000 1.0000
23.3200 850.0000 1.0000
23.3300 837.0000 1.0000
23.3400 818.0000 1.0000
23.3500 811.0000 1.0000
23.3600 844.0000 1.0000
23.3700 848.0000 1.0000
23.3800 843.0000 1.0000
23.3900 843.0000 1.0000
23.4000 821.0000 1.0000
23.4100 894.0000 1.0000
23.4200 824.0000 1.0000
23.4300 885.0000 1.0000
23.4400 815.0000 1.0000
23.4500 805.0000 1.0000
23.4600 836.0000 1.0000
23.4700 861.0000 1.0000
23.4800 842.0000 1.0000
23.4900 837.0000 1.0000
23.5000 820.0000 1.0000
23.5100 862.0000 1.0000
23.5200 849.0000 1.0000
23.5300 788.0000 1.0000
23.5400 824.0000 1.0000
23.5500 861.0000 1.0000
23.5600 805.0000 1.0000
23.5700 847.0000 1.0000
23.5800 824.0000 1.0000
23.5900 852.0000 1.0000
23.6000 869.0000 1.0000
23.6100 892.0000 1.0000
23.6200 860.0000 1.0000
23.6300 837.0000 1.0000
23.6400 850.0000 1.0000
23.6500 817.0000 1.0000
23.6600 831.0000 1.0000
23.6700 849.0000 1.0000
23.6800 844.0000 1.0000
23.6900 838.0000 1.0000
23.7000 839.0000 1.0000
23.7100 812.0000 1.0000
23.7200 828.0000 1.0000
23.7300 788.0000 1.0000
23.7400 872.0000 1.0000
23.7500 813.0000 1.0000
23.7600 846.0000 1.0000
23.7700 824.0000 1.0000
23.7800 813.0000 1.0000
23.7900 826.0000 1.0000
23.8000 838.0000 1.0000
23.8100 830.0000 1.0000
23.8200 797.0000 1.0000
23.8300 832.0000 1.0000
23.8400 833.0000 1.0000
23.8500 874.0000 1.0000
23.8600 882.0000 1.0000
23.8700 874.0000 1.0000
23.8800 826.0000 1.0000
23.8900 791.0000 1.0000
23.9000 859.0000 1.0000
23.9100 906.0000 1.0000
23.9200 884.0000 1.0000
23.9300 814.0000 1.0000
23.9400 870.0000 1.0000
23.9500 923.0000 1.0000
23.9600 910.0000 1.0000
23.9700 855.0000 1.0000
23.9800 859.0000 1.0000
23.9900 891.0000 1.0000
24.0000 872.0000 1.0000
24.0100 949.0000 1.0000
24.0200 970.0000 1.0000
24.0300 927.0000 1.0000
24.0400 965.0000 1.0000
24.0500 956.0000 1.0000
24.0600 976.0000 1.0000
24.0700 938.0000 1.0000
24.0800 959.0000 1.0000
24.0900 960.0000 1.0000
24.1000 912.0000 1.0000
24.1100 926.0000 1.0000
24.1200 912.0000 1.0000
24.1300 948.0000 1.0000
24.1400 960.0000 1.0000
24.1500 917.0000 1.0000
24.1600 919.0000 1.0000
24.1700 929.0000 1.0000
24.1800 867.0000 1.0000
24.1900 865.0000 1.0000
24.2000 892.0000 1.0000
24.2100 905.0000 1.0000
24.2200 953.0000 1.0000
24.2300 931.0000 1.0000
24.2400 877.0000 1.0000
24.2500 848.0000 1.0000
24.2600 850.0000 1.0000
24.2700 852.0000 1.0000
24.2800 855.0000 1.0000
24.2900 869.0000 1.0000
24.3000 836.0000 1.0000
24.3100 849.0000 1.0000
24.3200 847.0000 1.0000
24.3300 840.0000 1.0000
24.3400 841.0000 1.0000
24.3500 811.0000 1.0000
24.3600 800.0000 1.0000
24.3700 801.0000 1.0000
24.3800 836.0000 1.0000
24.3900 836.0000 1.0000
24.4000 810.0000 1.0000
24.4100 809.0000 1.0000
24.4200 855.0000 1.0000
24.4300 783.0000 1.0000
24.4400 810.0000 1.0000
24.4500 814.0000 1.0000
24.4600 794.0000 1.0000
24.4700 818.0000 1.0000
24.4800 839.0000 1.0000
24.4900 827.0000 1.0000
24.5000 835.0000 1.0000
24.5100 857.0000 1.0000
24.5200 836.0000 1.0000
24.5300 817.0000 1.0000
24.5400 830.0000 1.0000
24.5500 811.0000 1.0000
24.5600 810.0000 1.0000
24.5700 834.0000 1.0000
24.5800 803.0000 1.0000
24.5900 800.0000 1.0000
24.6000 815.0000 1.0000
24.6100 811.0000 1.0000
24.6200 802.0000 1.0000
24.6300 794.0000 1.0000
24.6400 794.0000 1.0000
24.6500 823.0000 1.0000
24.6600 766.0000 1.0000
24.6700 821.0000 1.0000
24.6800 785.0000 1.0000
24.6900 807.0000 1.0000
24.7000 802.0000 1.0000
24.7100 808.0000 1.0000
24.7200 804.0000 1.0000
24.7300 799.0000 1.0000
24.7400 824.0000 1.0000
24.7500 800.0000 1.0000
24.7600 820.0000 1.0000
24.7700 819.0000 1.0000
24.7800 829.0000 1.0000
24.7900 836.0000 1.0000
24.8000 804.0000 1.0000
24.8100 814.0000 1.0000
24.8200 805.0000 1.0000
24.8300 838.0000 1.0000
24.8400 755.0000 1.0000
24.8500 835.0000 1.0000
24.8600 834.0000 1.0000
24.8700 820.0000 1.0000
24.8800 821.0000 1.0000
24.8900 834.0000 1.0000
24.9000 790.0000 1.0000
24.9100 830.0000 1.0000
24.9200 784.0000 1.0000
24.9300 754.0000 1.0000
24.9400 841.0000 1.0000
24.9500 817.0000 1.0000
24.9600 827.0000 1.0000
24.9700 789.0000 1.0000
24.9800 800.0000 1.0000
24.9900 769.0000 1.0000
25.0000 780.0000 1.0000
25.0100 786.0000 1.0000
25.0200 778.0000 1.0000
25.0300 825.0000 1.0000
25.0400 829.0000 1.0000
25.0500 824.0000 1.0000
25.0600 833.0000 1.0000
25.0700 767.0000 1.0000
25.0800 814.0000 1.0000
25.0900 790.0000 1.0000
25.1000 808.0000 1.0000
25.1100 775.0000 1.0000
25.1200 798.0000 1.0000
25.1300 806.0000 1.0000
25.1400 795.0000 1.0000
25.1500 808.0000 1.0000
25.1600 774.0000 1.0000
25.1700 829.0000 1.0000
25.1800 796.0000 1.0000
25.1900 836.0000 1.0000
25.2000 825.0000 1.0000
25.2100 832.0000 1.0000
25.2200 841.0000 1.0000
25.2300 833.0000 1.0000
25.2400 824.0000 1.0000
25.2500 774.0000 1.0000
25.2600 798.0000 1.0000
25.2700 781.0000 1.0000
25.2800 788.0000 1.0000
25.2900 829.0000 1.0000
25.3000 792.0000 1.0000
25.3100 793.0000 1.0000
25.3200 846.0000 1.0000
25.3300 820.0000 1.0000
25.3400 805.0000 1.0000
25.3500 787.0000 1.0000
25.3600 844.0000 1.0000
25.3700 808.0000 1.0000
25.3800 754.0000 1.0000
25.3900 733.0000 1.0000
25.4000 781.0000 1.0000
25.4100 818.0000 1.0000
25.4200 810.0000 1.0000
25.4300 781.0000 1.0000
25.4400 790.0000 1.0000
25.4500 780.0000 1.0000
25.4600 773.0000 1.0000
25.4700 817.0000 1.0000
25.4800 791.0000 1.0000
25.4900 786.0000 1.0000
25.5000 787.0000 1.0000
25.5100 820.0000 1.0000
25.5200 791.0000 1.0000
25.5300 774.0000 1.0000
25.5400 771.0000 1.0000
25.5500 783.0000 1.0000
25.5600 768.0000 1.0000
25.5700 790.0000 1.0000
25.5800 799.0000 1.0000
25.5900 775.0000 1.0000
25.6000 781.0000 1.0000
25.6100 796.0000 1.0000
25.6200 805.0000 1.0000
25.6300 778.0000 1.0000
25.6400 777.0000 1.0000
25.6500 853.0000 1.0000
25.6600 844.0000 1.0000
25.6700 739.0000 1.0000
25.6800 788.0000 1.0000
25.6900 789.0000 1.0000
25.7000 816.0000 1.0000
25.7100 848.0000 1.0000
25.7200 809.0000 1.0000
25.7300 821.0000 1.0000
25.7400 845.0000 1.0000
25.7500 851.0000 1.0000
25.7600 796.0000 1.0000
25.7700 810.0000 1.0000
25.7800 862.0000 1.0000
25.7900 825.0000 1.0000
25.8000 871.0000 1.0000
25.8100 828.0000 1.0000
25.8200 809.0000 1.0000
25.8300 821.0000 1.0000
25.8400 816.0000 1.0000
25.8500 868.0000 1.0000
25.8600 858.0000 1.0000
25.8700 841.0000 1.0000
25.8800 791.0000 1.0000
25.8900 821.0000 1.0000
25.9000 824.0000 1.0000
25.9100 787.0000 1.0000
25.9200 827.0000 1.0000
25.9300 801.0000 1.0000
25.9400 845.0000 1.0000
25.9500 824.0000 1.0000
25.9600 831.0000 1.0000
25.9700 817.0000 1.0000
25.9800 874.0000 1.0000
25.9900 825.0000 1.0000
26.0000 863.0000 1.0000
26.0100 883.0000 1.0000
26.0200 887.0000 1.0000
26.0300 855.0000 1.0000
26.0400 890.0000 1.0000
26.0500 855.0000 1.0000
26.0600 865.0000 1.0000
26.0700 867.0000 1.0000
26.0800 886.0000 1.0000
26.0900 872.0000 1.0000
26.1000 855.0000 1.0000
26.1100 886.0000 1.0000
26.1200 918.0000 1.0000
26.1300 881.0000 1.0000
26.1400 935.0000 1.0000
26.1500 912.0000 1.0000
26.1600 930.0000 1.0000
26.1700 942.0000 1.0000
26.1800 936.0000 1.0000
26.1900 944.0000 1.0000
26.2000 952.0000 1.0000
26.2100 959.0000 1.0000
26.2200 984.0000 1.0000
26.2300 1016.0000 1.0000
26.2400 1037.0000 1.0000
26.2500 974.0000 1.0000
26.2600 1058.0000 1.0000
26.2700 1092.0000 1.0000
26.2800 1092.0000 1.0000
26.2900 1088.0000 1.0000
26.3000 1113.0000 1.0000
26.3100 1095.0000 1.0000
26.3200 1161.0000 1.0000
26.3300 1156.0000 1.0000
26.3400 1231.0000 1.0000
26.3500 1246.0000 1.0000
26.3600 1331.0000 1.0000
26.3700 1299.0000 1.0000
26.3800 1355.0000 1.0000
26.3900 1345.0000 1.0000
26.4000 1426.0000 1.0000
26.4100 1420.0000 1.0000
26.4200 1471.0000 1.0000
26.4300 1502.0000 1.0000
26.4400 1519.0000 1.0000
26.4500 1501.0000 1.0000
26.4600 1470.0000 1.0000
26.4700 1533.0000 1.0000
26.4800 1474.0000 1.0000
26.4900 1513.0000 1.0000
26.5000 1424.0000 1.0000
26.5100 1429.0000 1.0000
26.5200 1396.0000 1.0000
26.5300 1375.0000 1.0000
26.5400 1287.0000 1.0000
26.5500 1308.0000 1.0000
26.5600 1272.0000 1.0000
26.5700 1288.0000 1.0000
26.5800 1250.0000 1.0000
26.5900 1158.0000 1.0000
26.6000 1156.0000 1.0000
26.6100 1094.0000 1.0000
26.6200 1113.0000 1.0000
26.6300 1131.0000 1.0000
26.6400 1122.0000 1.0000
26.6500 1015.0000 1.0000
26.6600 1018.0000 1.0000
26.6700 1009.0000 1.0000
26.6800 1029.0000 1.0000
26.6900 983.0000 1.0000
26.7000 885.0000 1.0000
26.7100 962.0000 1.0000
26.7200 954.0000 1.0000
26.7300 915.0000 1.0000
26.7400 900.0000 1.0000
26.7500 901.0000 1.0000
26.7600 894.0000 1.0000
26.7700 912.0000 1.0000
26.7800 854.0000 1.0000
26.7900 910.0000 1.0000
26.8000 897.0000 1.0000
26.8100 910.0000 1.0000
26.8200 862.0000 1.0000
26.8300 874.0000 1.0000
26.8400 906.0000 1.0000
26.8500 833.0000 1.0000
26.8600 838.0000 1.0000
26.8700 829.0000 1.0000
26.8800 859.0000 1.0000
26.8900 827.0000 1.0000
26.9000 860.0000 1.0000
26.9100 837.0000 1.0000
26.9200 796.0000 1.0000
26.9300 813.0000 1.0000
26.9400 831.0000 1.0000
26.9500 818.0000 1.0000
26.9600 829.0000 1.0000
26.9700 817.0000 1.0000
26.9800 865.0000 1.0000
26.9900 736.0000 1.0000
27.0000 760.0000 1.0000
27.0100 787.0000 1.0000
27.0200 777.0000 1.0000
27.0300 736.0000 1.0000
27.0400 759.0000 1.0000
27.0500 786.0000 1.0000
27.0600 806.0000 1.0000
27.0700 764.0000 1.0000
27.0800 783.0000 1.0000
27.0900 750.0000 1.0000
27.1000 772.0000 1.0000
27.1100 739.0000 1.0000
27.1200 756.0000 1.0000
27.1300 731.0000 1.0000
27.1400 798.0000 1.0000
27.1500 793.0000 1.0000
27.1600 775.0000 1.0000
27.1700 821.0000 1.0000
27.1800 793.0000 1.0000
27.1900 780.0000 1.0000
27.2000 750.0000 1.0000
27.2100 784.0000 1.0000
27.2200 808.0000 1.0000
27.2300 775.0000 1.0000
27.2400 749.0000 1.0000
27.2500 800.0000 1.0000
27.2600 698.0000 1.0000
27.2700 780.0000 1.0000
27.2800 791.0000 1.0000
27.2900 752.0000 1.0000
27.3000 737.0000 1.0000
27.3100 798.0000 1.0000
27.3200 759.0000 1.0000
27.3300 721.0000 1.0000
27.3400 703.0000 1.0000
27.3500 738.0000 1.0000
27.3600 757.0000 1.0000
27.3700 781.0000 1.0000
27.3800 745.0000 1.0000
27.3900 744.0000 1.0000
27.4000 751.0000 1.0000
27.4100 780.0000 1.0000
27.4200 775.0000 1.0000
27.4300 737.0000 1.0000
27.4400 744.0000 1.0000
27.4500 754.0000 1.0000
27.4600 721.0000 1.0000
27.4700 769.0000 1.0000
27.4800 743.0000 1.0000
27.4900 713.0000 1.0000
27.5000 720.0000 1.0000
27.5100 701.0000 1.0000
27.5200 712.0000 1.0000
27.5300 700.0000 1.0000
27.5400 747.0000 1.0000
27.5500 752.0000 1.0000
27.5600 744.0000 1.0000
27.5700 742.0000 1.0000
27.5800 722.0000 1.0000
27.5900 734.0000 1.0000
27.6000 731.0000 1.0000
27.6100 666.0000 1.0000
27.6200 695.0000 1.0000
27.6300 719.0000 1.0000
27.6400 743.0000 1.0000
27.6500 741.0000 1.0000
27.6600 741.0000 1.0000
27.6700 769.0000 1.0000
27.6800 770.0000 1.0000
27.6900 724.0000 1.0000
27.7000 694.0000 1.0000
27.7100 720.0000 1.0000
27.7200 705.0000 1.0000
27.7300 732.0000 1.0000
27.7400 714.0000 1.0000
27.7500 706.0000 1.0000
27.7600 724.0000 1.0000
27.7700 752.0000 1.0000
27.7800 712.0000 1.0000
27.7900 729.0000 1.0000
27.8000 728.0000 1.0000
27.8100 676.0000 1.0000
27.8200 704.0000 1.0000
27.8300 723.0000 1.0000
27.8400 718.0000 1.0000
27.8500 715.0000 1.0000
27.8600 721.0000 1.0000
27.8700 759.0000 1.0000
27.8800 709.0000 1.0000
27.8900 706.0000 1.0000
27.9000 719.0000 1.0000
27.9100 737.0000 1.0000
27.9200 696.0000 1.0000
27.9300 675.0000 1.0000
27.9400 694.0000 1.0000
27.9500 704.0000 1.0000
27.9600 718.0000 1.0000
27.9700 700.0000 1.0000
27.9800 699.0000 1.0000
27.9900 706.0000 1.0000
28.0000 705.0000 1.0000
28.0100 703.0000 1.0000
28.0200 716.0000 1.0000
28.0300 735.0000 1.0000
28.0400 731.0000 1.0000
28.0500 704.0000 1.0000
28.0600 705.0000 1.0000
28.0700 707.0000 1.0000
28.0800 700.0000 1.0000
28.0900 673.0000 1.0000
28.1000 721.0000 1.0000
28.1100 719.0000 1.0000
28.1200 690.0000 1.0000
28.1300 706.0000 1.0000
28.1400 689.0000 1.0000
28.1500 729.0000 1.0000
28.1600 714.0000 1.0000
28.1700 697.0000 1.0000
28.1800 729.0000 1.0000
28.1900 713.0000 1.0000
28.2000 760.0000 1.0000
28.2100 718.0000 1.0000
28.2200 724.0000 1.0000
28.2300 698.0000 1.0000
28.2400 675.0000 1.0000
28.2500 708.0000 1.0000
28.2600 688.0000 1.0000
28.2700 741.0000 1.0000
28.2800 727.0000 1.0000
28.2900 674.0000 1.0000
28.3000 713.0000 1.0000
28.3100 698.0000 1.0000
28.3200 725.0000 1.0000
28.3300 683.0000 1.0000
28.3400 679.0000 1.0000
28.3500 747.0000 1.0000
28.3600 722.0000 1.0000
28.3700 666.0000 1.0000
28.3800 665.0000 1.0000
28.3900 709.0000 1.0000
28.4000 740.0000 1.0000
28.4100 698.0000 1.0000
28.4200 720.0000 1.0000
28.4300 685.0000 1.0000
28.4400 689.0000 1.0000
28.4500 741.0000 1.0000
28.4600 712.0000 1.0000
28.4700 653.0000 1.0000
28.4800 734.0000 1.0000
28.4900 701.0000 1.0000
28.5000 669.0000 1.0000
28.5100 725.0000 1.0000
28.5200 697.0000 1.0000
28.5300 689.0000 1.0000
28.5400 674.0000 1.0000
28.5500 682.0000 1.0000
28.5600 713.0000 1.0000
28.5700 755.0000 1.0000
28.5800 760.0000 1.0000
28.5900 677.0000 1.0000
28.6000 728.0000 1.0000
28.6100 721.0000 1.0000
28.6200 669.0000 1.0000
28.6300 676.0000 1.0000
28.6400 705.0000 1.0000
28.6500 658.0000 1.0000
28.6600 731.0000 1.0000
28.6700 710.0000 1.0000
28.6800 692.0000 1.0000
28.6900 753.0000 1.0000
28.7000 699.0000 1.0000
28.7100 700.0000 1.0000
28.7200 652.0000 1.0000
28.7300 645.0000 1.0000
28.7400 655.0000 1.0000
28.7500 673.0000 1.0000
28.7600 698.0000 1.0000
28.7700 668.0000 1.0000
28.7800 681.0000 1.0000
28.7900 698.0000 1.0000
28.8000 690.0000 1.0000
28.8100 700.0000 1.0000
28.8200 684.0000 1.0000
28.8300 643.0000 1.0000
28.8400 679.0000 1.0000
28.8500 686.0000 1.0000
28.8600 674.0000 1.0000
28.8700 682.0000 1.0000
28.8800 673.0000 1.0000
28.8900 733.0000 1.0000
28.9000 695.0000 1.0000
28.9100 690.0000 1.0000
28.9200 679.0000 1.0000
28.9300 706.0000 1.0000
28.9400 681.0000 1.0000
28.9500 638.0000 1.0000
28.9600 682.0000 1.0000
28.9700 679.0000 1.0000
28.9800 636.0000 1.0000
28.9900 700.0000 1.0000
29.0000 689.0000 1.0000
29.0100 726.0000 1.0000
29.0200 723.0000 1.0000
29.0300 694.0000 1.0000
29.0400 670.0000 1.0000
29.0500 704.0000 1.0000
29.0600 653.0000 1.0000
29.0700 666.0000 1.0000
29.0800 683.0000 1.0000
29.0900 677.0000 1.0000
29.1000 675.0000 1.0000
29.1100 690.0000 1.0000
29.1200 672.0000 1.0000
29.1300 691.0000 1.0000
29.1400 653.0000 1.0000
29.1500 692.0000 1.0000
29.1600 665.0000 1.0000
29.1700 665.0000 1.0000
29.1800 671.0000 1.0000
29.1900 659.0000 1.0000
29.2000 670.0000 1.0000
29.2100 696.0000 1.0000
29.2200 691.0000 1.0000
29.2300 666.0000 1.0000
29.2400 710.0000 1.0000
29.2500 672.0000 1.0000
29.2600 685.0000 1.0000
29.2700 673.0000 1.0000
29.2800 698.0000 1.0000
29.2900 676.0000 1.0000
29.3000 706.0000 1.0000
29.3100 683.0000 1.0000
29.3200 648.0000 1.0000
29.3300 649.0000 1.0000
29.3400 665.0000 1.0000
29.3500 735.0000 1.0000
29.3600 691.0000 1.0000
29.3700 638.0000 1.0000
29.3800 666.0000 1.0000
29.3900 684.0000 1.0000
29.4000 667.0000 1.0000
29.4100 659.0000 1.0000
29.4200 703.0000 1.0000
29.4300 692.0000 1.0000
29.4400 664.0000 1.0000
29.4500 673.0000 1.0000
29.4600 679.0000 1.0000
29.4700 668.0000 1.0000
29.4800 675.0000 1.0000
29.4900 679.0000 1.0000
29.5000 684.0000 1.0000
29.5100 635.0000 1.0000
29.5200 676.0000 1.0000
29.5300 683.0000 1.0000
29.5400 656.0000 1.0000
29.5500 658.0000 1.0000
29.5600 689.0000 1.0000
29.5700 663.0000 1.0000
29.5800 662.0000 1.0000
29.5900 684.0000 1.0000
29.6000 671.0000 1.0000
29.6100 638.0000 1.0000
29.6200 633.0000 1.0000
29.6300 662.0000 1.0000
29.6400 628.0000 1.0000
29.6500 651.0000 1.0000
29.6600 678.0000 1.0000
29.6700 664.0000 1.0000
29.6800 660.0000 1.0000
29.6900 634.0000 1.0000
29.7000 657.0000 1.0000
29.7100 660.0000 1.0000
29.7200 661.0000 1.0000
29.7300 664.0000 1.0000
29.7400 696.0000 1.0000
29.7500 661.0000 1.0000
29.7600 666.0000 1.0000
29.7700 650.0000 1.0000
29.7800 620.0000 1.0000
29.7900 642.0000 1.0000
29.8000 680.0000 1.0000
29.8100 610.0000 1.0000
29.8200 637.0000 1.0000
29.8300 654.0000 1.0000
29.8400 641.0000 1.0000
29.8500 629.0000 1.0000
29.8600 657.0000 1.0000
29.8700 651.0000 1.0000
29.8800 634.0000 1.0000
29.8900 649.0000 1.0000
29.9000 671.0000 1.0000
29.9100 670.0000 1.0000
29.9200 621.0000 1.0000
29.9300 649.0000 1.0000
29.9400 631.0000 1.0000
29.9500 598.0000 1.0000
29.9600 625.0000 1.0000
29.9700 635.0000 1.0000
29.9800 660.0000 1.0000
29.9900 655.0000 1.0000
30.0000 650.0000 1.0000
30.0100 655.0000 1.0000
30.0200 677.0000 1.0000
30.0300 683.0000 1.0000
30.0400 653.0000 1.0000
30.0500 646.0000 1.0000
30.0600 646.0000 1.0000
30.0700 639.0000 1.0000
30.0800 655.0000 1.0000
30.0900 626.0000 1.0000
30.1000 677.0000 1.0000
30.1100 620.0000 1.0000
30.1200 658.0000 1.0000
30.1300 656.0000 1.0000
30.1400 681.0000 1.0000
30.1500 660.0000 1.0000
30.1600 632.0000 1.0000
30.1700 649.0000 1.0000
30.1800 637.0000 1.0000
30.1900 639.0000 1.0000
30.2000 669.0000 1.0000
30.2100 680.0000 1.0000
30.2200 641.0000 1.0000
30.2300 645.0000 1.0000
30.2400 642.0000 1.0000
30.2500 607.0000 1.0000
30.2600 710.0000 1.0000
30.2700 679.0000 1.0000
30.2800 673.0000 1.0000
30.2900 624.0000 1.0000
30.3000 646.0000 1.0000
30.3100 644.0000 1.0000
30.3200 671.0000 1.0000
30.3300 671.0000 1.0000
30.3400 615.0000 1.0000
30.3500 613.0000 1.0000
30.3600 675.0000 1.0000
30.3700 626.0000 1.0000
30.3800 671.0000 1.0000
30.3900 619.0000 1.0000
30.4000 652.0000 1.0000
30.4100 662.0000 1.0000
30.4200 655.0000 1.0000
30.4300 683.0000 1.0000
30.4400 641.0000 1.0000
30.4500 685.0000 1.0000
30.4600 656.0000 1.0000
30.4700 671.0000 1.0000
30.4800 653.0000 1.0000
30.4900 676.0000 1.0000
30.5000 629.0000 1.0000
30.5100 642.0000 1.0000
30.5200 638.0000 1.0000
30.5300 668.0000 1.0000
30.5400 677.0000 1.0000
30.5500 624.0000 1.0000
30.5600 642.0000 1.0000
30.5700 615.0000 1.0000
30.5800 618.0000 1.0000
30.5900 618.0000 1.0000
30.6000 632.0000 1.0000
30.6100 627.0000 1.0000
30.6200 647.0000 1.0000
30.6300 653.0000 1.0000
30.6400 643.0000 1.0000
30.6500 643.0000 1.0000
30.6600 615.0000 1.0000
30.6700 650.0000 1.0000
30.6800 619.0000 1.0000
30.6900 630.0000 1.0000
30.7000 660.0000 1.0000
30.7100 647.0000 1.0000
30.7200 638.0000 1.0000
30.7300 636.0000 1.0000
30.7400 607.0000 1.0000
30.7500 630.0000 1.0000
30.7600 598.0000 1.0000
30.7700 644.0000 1.0000
30.7800 651.0000 1.0000
30.7900 636.0000 1.0000
30.8000 615.0000 1.0000
30.8100 624.0000 1.0000
30.8200 627.0000 1.0000
30.8300 636.0000 1.0000
30.8400 637.0000 1.0000
30.8500 596.0000 1.0000
30.8600 606.0000 1.0000
30.8700 603.0000 1.0000
30.8800 641.0000 1.0000
30.8900 647.0000 1.0000
30.9000 632.0000 1.0000
30.9100 617.0000 1.0000
30.9200 665.0000 1.0000
30.9300 635.0000 1.0000
30.9400 645.0000 1.0000
30.9500 621.0000 1.0000
30.9600 621.0000 1.0000
30.9700 642.0000 1.0000
30.9800 651.0000 1.0000
30.9900 676.0000 1.0000
31.0000 643.0000 1.0000
31.0100 629.0000 1.0000
31.0200 660.0000 1.0000
31.0300 629.0000 1.0000
31.0400 623.0000 1.0000
31.0500 624.0000 1.0000
31.0600 626.0000 1.0000
31.0700 643.0000 1.0000
31.0800 625.0000 1.0000
31.0900 665.0000 1.0000
31.1000 623.0000 1.0000
31.1100 656.0000 1.0000
31.1200 657.0000 1.0000
31.1300 668.0000 1.0000
31.1400 652.0000 1.0000
31.1500 695.0000 1.0000
31.1600 668.0000 1.0000
31.1700 683.0000 1.0000
31.1800 672.0000 1.0000
31.1900 672.0000 1.0000
31.2000 638.0000 1.0000
31.2100 624.0000 1.0000
31.2200 660.0000 1.0000
31.2300 651.0000 1.0000
31.2400 654.0000 1.0000
31.2500 646.0000 1.0000
31.2600 656.0000 1.0000
31.2700 647.0000 1.0000
31.2800 626.0000 1.0000
31.2900 658.0000 1.0000
31.3000 663.0000 1.0000
31.3100 653.0000 1.0000
31.3200 643.0000 1.0000
31.3300 619.0000 1.0000
31.3400 621.0000 1.0000
31.3500 634.0000 1.0000
31.3600 624.0000 1.0000
31.3700 622.0000 1.0000
31.3800 622.0000 1.0000
31.3900 621.0000 1.0000
31.4000 596.0000 1.0000
31.4100 646.0000 1.0000
31.4200 641.0000 1.0000
31.4300 641.0000 1.0000
31.4400 572.0000 1.0000
31.4500 622.0000 1.0000
31.4600 662.0000 1.0000
31.4700 650.0000 1.0000
31.4800 645.0000 1.0000
31.4900 643.0000 1.0000
31.5000 601.0000 1.0000
31.5100 613.0000 1.0000
31.5200 653.0000 1.0000
31.5300 609.0000 1.0000
31.5400 632.0000 1.0000
31.5500 619.0000 1.0000
31.5600 638.0000 1.0000
31.5700 629.0000 1.0000
31.5800 627.0000 1.0000
31.5900 652.0000 1.0000
31.6000 633.0000 1.0000
31.6100 604.0000 1.0000
31.6200 664.0000 1.0000
31.6300 636.0000 1.0000
31.6400 655.0000 1.0000
31.6500 621.0000 1.0000
31.6600 643.0000 1.0000
31.6700 598.0000 1.0000
31.6800 625.0000 1.0000
31.6900 583.0000 1.0000
31.7000 606.0000 1.0000
31.7100 622.0000 1.0000
31.7200 621.0000 1.0000
31.7300 584.0000 1.0000
31.7400 648.0000 1.0000
31.7500 609.0000 1.0000
31.7600 589.0000 1.0000
31.7700 615.0000 1.0000
31.7800 590.0000 1.0000
31.7900 625.0000 1.0000
31.8000 589.0000 1.0000
31.8100 592.0000 1.0000
31.8200 610.0000 1.0000
31.8300 600.0000 1.0000
31.8400 582.0000 1.0000
31.8500 583.0000 1.0000
31.8600 607.0000 1.0000
31.8700 585.0000 1.0000
31.8800 598.0000 1.0000
31.8900 571.0000 1.0000
31.9000 604.0000 1.0000
31.9100 598.0000 1.0000
31.9200 618.0000 1.0000
31.9300 618.0000 1.0000
31.9400 633.0000 1.0000
31.9500 623.0000 1.0000
31.9600 598.0000 1.0000
31.9700 631.0000 1.0000
31.9800 606.0000 1.0000
31.9900 607.0000 1.0000
32.0000 612.0000 1.0000
32.0100 646.0000 1.0000
32.0200 590.0000 1.0000
32.0300 633.0000 1.0000
32.0400 581.0000 1.0000
32.0500 619.0000 1.0000
32.0600 644.0000 1.0000
32.0700 622.0000 1.0000
32.0800 621.0000 1.0000
32.0900 588.0000 1.0000
32.1000 578.0000 1.0000
32.1100 665.0000 1.0000
32.1200 603.0000 1.0000
32.1300 576.0000 1.0000
32.1400 619.0000 1.0000
32.1500 610.0000 1.0000
32.1600 599.0000 1.0000
32.1700 642.0000 1.0000
32.1800 576.0000 1.0000
32.1900 575.0000 1.0000
32.2000 613.0000 1.0000
32.2100 574.0000 1.0000
32.2200 612.0000 1.0000
32.2300 586.0000 1.0000
32.2400 624.0000 1.0000
32.2500 589.0000 1.0000
32.2600 619.0000 1.0000
32.2700 618.0000 1.0000
32.2800 603.0000 1.0000
32.2900 582.0000 1.0000
32.3000 629.0000 1.0000
32.3100 574.0000 1.0000
32.3200 622.0000 1.0000
32.3300 593.0000 1.0000
32.3400 627.0000 1.0000
32.3500 600.0000 1.0000
32.3600 597.0000 1.0000
32.3700 612.0000 1.0000
32.3800 582.0000 1.0000
32.3900 601.0000 1.0000
32.4000 558.0000 1.0000
32.4100 597.0000 1.0000
32.4200 591.0000 1.0000
32.4300 596.0000 1.0000
32.4400 620.0000 1.0000
32.4500 600.0000 1.0000
32.4600 590.0000 1.0000
32.4700 570.0000 1.0000
32.4800 609.0000 1.0000
32.4900 605.0000 1.0000
32.5000 621.0000 1.0000
32.5100 626.0000 1.0000
32.5200 608.0000 1.0000
32.5300 550.0000 1.0000
32.5400 587.0000 1.0000
32.5500 605.0000 1.0000
32.5600 605.0000 1.0000
32.5700 594.0000 1.0000
32.5800 558.0000 1.0000
32.5900 589.0000 1.0000
32.6000 587.0000 1.0000
32.6100 586.0000 1.0000
32.6200 607.0000 1.0000
32.6300 609.0000 1.0000
32.6400 593.0000 1.0000
32.6500 582.0000 1.0000
32.6600 570.0000 1.0000
32.6700 598.0000 1.0000
32.6800 554.0000 1.0000
32.6900 569.0000 1.0000
32.7000 600.0000 1.0000
32.7100 595.0000 1.0000
32.7200 606.0000 1.0000
32.7300 594.0000 1.0000
32.7400 601.0000 1.0000
32.7500 598.0000 1.0000
32.7600 620.0000 1.0000
32.7700 612.0000 1.0000
32.7800 633.0000 1.0000
32.7900 612.0000 1.0000
32.8000 602.0000 1.0000
32.8100 650.0000 1.0000
32.8200 611.0000 1.0000
32.8300 595.0000 1.0000
32.8400 637.0000 1.0000
32.8500 619.0000 1.0000
32.8600 611.0000 1.0000
32.8700 594.0000 1.0000
32.8800 608.0000 1.0000
32.8900 594.0000 1.0000
32.9000 629.0000 1.0000
32.9100 635.0000 1.0000
32.9200 602.0000 1.0000
32.9300 585.0000 1.0000
32.9400 650.0000 1.0000
32.9500 636.0000 1.0000
32.9600 620.0000 1.0000
32.9700 611.0000 1.0000
32.9800 634.0000 1.0000
32.9900 677.0000 1.0000
33.0000 698.0000 1.0000
33.0100 717.0000 1.0000
33.0200 681.0000 1.0000
33.0300 663.0000 1.0000
33.0400 660.0000 1.0000
33.0500 720.0000 1.0000
33.0600 741.0000 1.0000
33.0700 751.0000 1.0000
33.0800 759.0000 1.0000
33.0900 775.0000 1.0000
33.1000 767.0000 1.0000
33.1100 768.0000 1.0000
33.1200 813.0000 1.0000
33.1300 774.0000 1.0000
33.1400 791.0000 1.0000
33.1500 790.0000 1.0000
33.1600 793.0000 1.0000
33.1700 767.0000 1.0000
33.1800 757.0000 1.0000
33.1900 758.0000 1.0000
33.2000 736.0000 1.0000
33.2100 735.0000 1.0000
33.2200 738.0000 1.0000
33.2300 672.0000 1.0000
33.2400 700.0000 1.0000
33.2500 694.0000 1.0000
33.2600 662.0000 1.0000
33.2700 673.0000 1.0000
33.2800 683.0000 1.0000
33.2900 690.0000 1.0000
33.3000 642.0000 1.0000
33.3100 635.0000 1.0000
33.3200 633.0000 1.0000
33.3300 639.0000 1.0000
33.3400 592.0000 1.0000
33.3500 632.0000 1.0000
33.3600 632.0000 1.0000
33.3700 652.0000 1.0000
33.3800 634.0000 1.0000
33.3900 617.0000 1.0000
33.4000 645.0000 1.0000
33.4100 653.0000 1.0000
33.4200 622.0000 1.0000
33.4300 666.0000 1.0000
33.4400 647.0000 1.0000
33.4500 650.0000 1.0000
33.4600 689.0000 1.0000
33.4700 653.0000 1.0000
33.4800 687.0000 1.0000
33.4900 662.0000 1.0000
33.5000 638.0000 1.0000
33.5100 658.0000 1.0000
33.5200 677.0000 1.0000
33.5300 713.0000 1.0000
33.5400 716.0000 1.0000
33.5500 729.0000 1.0000
33.5600 719.0000 1.0000
33.5700 740.0000 1.0000
33.5800 730.0000 1.0000
33.5900 680.0000 1.0000
33.6000 691.0000 1.0000
33.6100 757.0000 1.0000
33.6200 691.0000 1.0000
33.6300 708.0000 1.0000
33.6400 699.0000 1.0000
33.6500 733.0000 1.0000
33.6600 771.0000 1.0000
33.6700 761.0000 1.0000
33.6800 759.0000 1.0000
33.6900 729.0000 1.0000
33.7000 731.0000 1.0000
33.7100 716.0000 1.0000
33.7200 744.0000 1.0000
33.7300 701.0000 1.0000
33.7400 739.0000 1.0000
33.7500 712.0000 1.0000
33.7600 741.0000 1.0000
33.7700 726.0000 1.0000
33.7800 703.0000 1.0000
33.7900 713.0000 1.0000
33.8000 720.0000 1.0000
33.8100 662.0000 1.0000
33.8200 713.0000 1.0000
33.8300 693.0000 1.0000
33.8400 666.0000 1.0000
33.8500 705.0000 1.0000
33.8600 718.0000 1.0000
33.8700 647.0000 1.0000
33.8800 702.0000 1.0000
33.8900 675.0000 1.0000
33.9000 685.0000 1.0000
33.9100 691.0000 1.0000
33.9200 680.0000 1.0000
33.9300 645.0000 1.0000
33.9400 634.0000 1.0000
33.9500 634.0000 1.0000
33.9600 599.0000 1.0000
33.9700 621.0000 1.0000
33.9800 575.0000 1.0000
33.9900 639.0000 1.0000
34.0000 623.0000 1.0000
34.0100 646.0000 1.0000
34.0200 642.0000 1.0000
34.0300 594.0000 1.0000
34.0400 600.0000 1.0000
34.0500 597.0000 1.0000
34.0600 579.0000 1.0000
34.0700 572.0000 1.0000
34.0800 583.0000 1.0000
34.0900 592.0000 1.0000
34.1000 552.0000 1.0000
34.1100 579.0000 1.0000
34.1200 572.0000 1.0000
34.1300 598.0000 1.0000
34.1400 571.0000 1.0000
34.1500 573.0000 1.0000
34.1600 596.0000 1.0000
34.1700 563.0000 1.0000
34.1800 576.0000 1.0000
34.1900 565.0000 1.0000
34.2000 559.0000 1.0000
34.2100 594.0000 1.0000
34.2200 601.0000 1.0000
34.2300 571.0000 1.0000
34.2400 558.0000 1.0000
34.2500 550.0000 1.0000
34.2600 518.0000 1.0000
34.2700 525.0000 1.0000
34.2800 552.0000 1.0000
34.2900 554.0000 1.0000
34.3000 586.0000 1.0000
34.3100 561.0000 1.0000
34.3200 558.0000 1.0000
34.3300 584.0000 1.0000
34.3400 557.0000 1.0000
34.3500 575.0000 1.0000
34.3600 563.0000 1.0000
34.3700 579.0000 1.0000
34.3800 567.0000 1.0000
34.3900 556.0000 1.0000
34.4000 546.0000 1.0000
34.4100 552.0000 1.0000
34.4200 508.0000 1.0000
34.4300 573.0000 1.0000
34.4400 545.0000 1.0000
34.4500 536.0000 1.0000
34.4600 553.0000 1.0000
34.4700 521.0000 1.0000
34.4800 557.0000 1.0000
34.4900 557.0000 1.0000
34.5000 566.0000 1.0000
34.5100 542.0000 1.0000
34.5200 556.0000 1.0000
34.5300 546.0000 1.0000
34.5400 532.0000 1.0000
34.5500 549.0000 1.0000
34.5600 543.0000 1.0000
34.5700 564.0000 1.0000
34.5800 535.0000 1.0000
34.5900 508.0000 1.0000
34.6000 518.0000 1.0000
34.6100 559.0000 1.0000
34.6200 543.0000 1.0000
34.6300 573.0000 1.0000
34.6400 549.0000 1.0000
34.6500 519.0000 1.0000
34.6600 524.0000 1.0000
34.6700 517.0000 1.0000
34.6800 541.0000 1.0000
34.6900 533.0000 1.0000
34.7000 501.0000 1.0000
34.7100 522.0000 1.0000
34.7200 510.0000 1.0000
34.7300 542.0000 1.0000
34.7400 509.0000 1.0000
34.7500 527.0000 1.0000
34.7600 536.0000 1.0000
34.7700 554.0000 1.0000
34.7800 546.0000 1.0000
34.7900 533.0000 1.0000
34.8000 543.0000 1.0000
34.8100 552.0000 1.0000
34.8200 541.0000 1.0000
34.8300 519.0000 1.0000
34.8400 574.0000 1.0000
34.8500 500.0000 1.0000
34.8600 528.0000 1.0000
34.8700 514.0000 1.0000
34.8800 560.0000 1.0000
34.8900 524.0000 1.0000
34.9000 553.0000 1.0000
34.9100 536.0000 1.0000
34.9200 545.0000 1.0000
34.9300 535.0000 1.0000
34.9400 530.0000 1.0000
34.9500 498.0000 1.0000
34.9600 503.0000 1.0000
34.9700 512.0000 1.0000
34.9800 516.0000 1.0000
34.9900 558.0000 1.0000
35.0000 568.0000 1.0000
35.0100 520.0000 1.0000
35.0200 554.0000 1.0000
35.0300 538.0000 1.0000
35.0400 578.0000 1.0000
35.0500 546.0000 1.0000
35.0600 544.0000 1.0000
35.0700 521.0000 1.0000
35.0800 543.0000 1.0000
35.0900 515.0000 1.0000
35.1000 524.0000 1.0000
35.1100 536.0000 1.0000
35.1200 549.0000 1.0000
35.1300 532.0000 1.0000
35.1400 515.0000 1.0000
35.1500 561.0000 1.0000
35.1600 528.0000 1.0000
35.1700 567.0000 1.0000
35.1800 530.0000 1.0000
35.1900 542.0000 1.0000
35.2000 530.0000 1.0000
35.2100 541.0000 1.0000
35.2200 598.0000 1.0000
35.2300 558.0000 1.0000
35.2400 536.0000 1.0000
35.2500 529.0000 1.0000
35.2600 542.0000 1.0000
35.2700 585.0000 1.0000
35.2800 610.0000 1.0000
35.2900 618.0000 1.0000
35.3000 639.0000 1.0000
35.3100 611.0000 1.0000
35.3200 604.0000 1.0000
35.3300 643.0000 1.0000
35.3400 597.0000 1.0000
35.3500 657.0000 1.0000
35.3600 627.0000 1.0000
35.3700 657.0000 1.0000
35.3800 704.0000 1.0000
35.3900 704.0000 1.0000
35.4000 718.0000 1.0000
35.4100 754.0000 1.0000
35.4200 786.0000 1.0000
35.4300 788.0000 1.0000
35.4400 803.0000 1.0000
35.4500 869.0000 1.0000
35.4600 920.0000 1.0000
35.4700 994.0000 1.0000
35.4800 977.0000 1.0000
35.4900 1055.0000 1.0000
35.5000 1138.0000 1.0000
35.5100 1205.0000 1.0000
35.5200 1268.0000 1.0000
35.5300 1316.0000 1.0000
35.5400 1408.0000 1.0000
35.5500 1516.0000 1.0000
35.5600 1517.0000 1.0000
35.5700 1542.0000 1.0000
35.5800 1594.0000 1.0000
35.5900 1634.0000 1.0000
35.6000 1576.0000 1.0000
35.6100 1543.0000 1.0000
35.6200 1574.0000 1.0000
35.6300 1512.0000 1.0000
35.6400 1513.0000 1.0000
35.6500 1387.0000 1.0000
35.6600 1385.0000 1.0000
35.6700 1308.0000 1.0000
35.6800 1284.0000 1.0000
35.6900 1121.0000 1.0000
35.7000 1096.0000 1.0000
35.7100 1085.0000 1.0000
35.7200 977.0000 1.0000
35.7300 949.0000 1.0000
35.7400 875.0000 1.0000
35.7500 834.0000 1.0000
35.7600 805.0000 1.0000
35.7700 762.0000 1.0000
35.7800 779.0000 1.0000
35.7900 668.0000 1.0000
35.8000 654.0000 1.0000
35.8100 671.0000 1.0000
35.8200 649.0000 1.0000
35.8300 615.0000 1.0000
35.8400 622.0000 1.0000
35.8500 580.0000 1.0000
35.8600 573.0000 1.0000
35.8700 548.0000 1.0000
35.8800 542.0000 1.0000
35.8900 555.0000 1.0000
35.9000 531.0000 1.0000
35.9100 510.0000 1.0000
35.9200 481.0000 1.0000
35.9300 513.0000 1.0000
35.9400 546.0000 1.0000
35.9500 499.0000 1.0000
35.9600 543.0000 1.0000
35.9700 540.0000 1.0000
35.9800 513.0000 1.0000
35.9900 520.0000 1.0000
36.0000 534.0000 1.0000
36.0100 534.0000 1.0000
36.0200 489.0000 1.0000
36.0300 486.0000 1.0000
36.0400 492.0000 1.0000
36.0500 481.0000 1.0000
36.0600 524.0000 1.0000
36.0700 548.0000 1.0000
36.0800 524.0000 1.0000
36.0900 525.0000 1.0000
36.1000 498.0000 1.0000
36.1100 533.0000 1.0000
36.1200 520.0000 1.0000
36.1300 512.0000 1.0000
36.1400 508.0000 1.0000
36.1500 515.0000 1.0000
36.1600 502.0000 1.0000
36.1700 519.0000 1.0000
36.1800 513.0000 1.0000
36.1900 514.0000 1.0000
36.2000 553.0000 1.0000
36.2100 496.0000 1.0000
36.2200 487.0000 1.0000
36.2300 488.0000 1.0000
36.2400 527.0000 1.0000
36.2500 511.0000 1.0000
36.2600 506.0000 1.0000
36.2700 481.0000 1.0000
36.2800 485.0000 1.0000
36.2900 533.0000 1.0000
36.3000 473.0000 1.0000
36.3100 492.0000 1.0000
36.3200 502.0000 1.0000
36.3300 489.0000 1.0000
36.3400 471.0000 1.0000
36.3500 522.0000 1.0000
36.3600 501.0000 1.0000
36.3700 469.0000 1.0000
36.3800 504.0000 1.0000
36.3900 521.0000 1.0000
36.4000 480.0000 1.0000
36.4100 495.0000 1.0000
36.4200 468.0000 1.0000
36.4300 480.0000 1.0000
36.4400 494.0000 1.0000
36.4500 488.0000 1.0000
36.4600 527.0000 1.0000
36.4700 507.0000 1.0000
36.4800 505.0000 1.0000
36.4900 508.0000 1.0000
36.5000 508.0000 1.0000
36.5100 494.0000 1.0000
36.5200 524.0000 1.0000
36.5300 498.0000 1.0000
36.5400 510.0000 1.0000
36.5500 484.0000 1.0000
36.5600 494.0000 1.0000
36.5700 491.0000 1.0000
36.5800 489.0000 1.0000
36.5900 509.0000 1.0000
36.6000 523.0000 1.0000
36.6100 497.0000 1.0000
36.6200 489.0000 1.0000
36.6300 496.0000 1.0000
36.6400 500.0000 1.0000
36.6500 503.0000 1.0000
36.6600 527.0000 1.0000
36.6700 499.0000 1.0000
36.6800 520.0000 1.0000
36.6900 506.0000 1.0000
36.7000 486.0000 1.0000
36.7100 500.0000 1.0000
36.7200 510.0000 1.0000
36.7300 518.0000 1.0000
36.7400 457.0000 1.0000
36.7500 486.0000 1.0000
36.7600 504.0000 1.0000
36.7700 500.0000 1.0000
36.7800 507.0000 1.0000
36.7900 506.0000 1.0000
36.8000 518.0000 1.0000
36.8100 485.0000 1.0000
36.8200 498.0000 1.0000
36.8300 483.0000 1.0000
36.8400 463.0000 1.0000
36.8500 470.0000 1.0000
36.8600 497.0000 1.0000
36.8700 486.0000 1.0000
36.8800 535.0000 1.0000
36.8900 482.0000 1.0000
36.9000 475.0000 1.0000
36.9100 518.0000 1.0000
36.9200 543.0000 1.0000
36.9300 506.0000 1.0000
36.9400 504.0000 1.0000
36.9500 500.0000 1.0000
36.9600 544.0000 1.0000
36.9700 545.0000 1.0000
36.9800 508.0000 1.0000
36.9900 515.0000 1.0000
37.0000 464.0000 1.0000
37.0100 515.0000 1.0000
37.0200 521.0000 1.0000
37.0300 501.0000 1.0000
37.0400 506.0000 1.0000
37.0500 533.0000 1.0000
37.0600 510.0000 1.0000
37.0700 512.0000 1.0000
37.0800 569.0000 1.0000
37.0900 529.0000 1.0000
37.1000 520.0000 1.0000
37.1100 531.0000 1.0000
37.1200 517.0000 1.0000
37.1300 538.0000 1.0000
37.1400 505.0000 1.0000
37.1500 532.0000 1.0000
37.1600 584.0000 1.0000
37.1700 563.0000 1.0000
37.1800 582.0000 1.0000
37.1900 543.0000 1.0000
37.2000 547.0000 1.0000
37.2100 545.0000 1.0000
37.2200 614.0000 1.0000
37.2300 587.0000 1.0000
37.2400 543.0000 1.0000
37.2500 550.0000 1.0000
37.2600 558.0000 1.0000
37.2700 574.0000 1.0000
37.2800 572.0000 1.0000
37.2900 629.0000 1.0000
37.3000 611.0000 1.0000
37.3100 597.0000 1.0000
37.3200 597.0000 1.0000
37.3300 640.0000 1.0000
37.3400 654.0000 1.0000
37.3500 695.0000 1.0000
37.3600 628.0000 1.0000
37.3700 657.0000 1.0000
37.3800 679.0000 1.0000
37.3900 699.0000 1.0000
37.4000 701.0000 1.0000
37.4100 725.0000 1.0000
37.4200 762.0000 1.0000
37.4300 800.0000 1.0000
37.4400 783.0000 1.0000
37.4500 798.0000 1.0000
37.4600 821.0000 1.0000
37.4700 898.0000 1.0000
37.4800 908.0000 1.0000
37.4900 955.0000 1.0000
37.5000 1001.0000 1.0000
37.5100 1091.0000 1.0000
37.5200 1068.0000 1.0000
37.5300 1142.0000 1.0000
37.5400 1119.0000 1.0000
37.5500 1227.0000 1.0000
37.5600 1325.0000 1.0000
37.5700 1406.0000 1.0000
37.5800 1438.0000 1.0000
37.5900 1521.0000 1.0000
37.6000 1682.0000 1.0000
37.6100 1707.0000 1.0000
37.6200 1806.0000 1.0000
37.6300 1876.0000 1.0000
37.6400 2026.0000 1.0000
37.6500 2284.0000 1.0000
37.6600 2363.0000 1.0000
37.6700 2454.0000 1.0000
37.6800 2638.0000 1.0000
37.6900 2685.0000 1.0000
37.7000 2829.0000 1.0000
37.7100 2899.0000 1.0000
37.7200 3066.0000 1.0000
37.7300 3087.0000 1.0000
37.7400 3110.0000 1.0000
37.7500 3085.0000 1.0000
37.7600 3030.0000 1.0000
37.7700 3074.0000 1.0000
37.7800 2993.0000 1.0000
37.7900 2952.0000 1.0000
37.8000 2921.0000 1.0000
37.8100 2722.0000 1.0000
37.8200 2718.0000 1.0000
37.8300 2602.0000 1.0000
37.8400 2473.0000 1.0000
37.8500 2311.0000 1.0000
37.8600 2250.0000 1.0000
37.8700 2094.0000 1.0000
37.8800 2008.0000 1.0000
37.8900 1954.0000 1.0000
37.9000 1787.0000 1.0000
37.9100 1636.0000 1.0000
37.9200 1622.0000 1.0000
37.9300 1463.0000 1.0000
37.9400 1368.0000 1.0000
37.9500 1267.0000 1.0000
37.9600 1232.0000 1.0000
37.9700 1184.0000 1.0000
37.9800 1064.0000 1.0000
37.9900 960.0000 1.0000
38.0000 1017.0000 1.0000
38.0100 908.0000 1.0000
38.0200 899.0000 1.0000
38.0300 850.0000 1.0000
38.0400 814.0000 1.0000
38.0500 795.0000 1.0000
38.0600 792.0000 1.0000
38.0700 760.0000 1.0000
38.0800 697.0000 1.0000
38.0900 756.0000 1.0000
38.1000 728.0000 1.0000
38.1100 700.0000 1.0000
38.1200 658.0000 1.0000
38.1300 649.0000 1.0000
38.1400 624.0000 1.0000
38.1500 606.0000 1.0000
38.1600 637.0000 1.0000
38.1700 568.0000 1.0000
38.1800 575.0000 1.0000
38.1900 597.0000 1.0000
38.2000 537.0000 1.0000
38.2100 567.0000 1.0000
38.2200 530.0000 1.0000
38.2300 549.0000 1.0000
38.2400 545.0000 1.0000
38.2500 520.0000 1.0000
38.2600 524.0000 1.0000
38.2700 548.0000 1.0000
38.2800 518.0000 1.0000
38.2900 515.0000 1.0000
38.3000 535.0000 1.0000
38.3100 518.0000 1.0000
38.3200 550.0000 1.0000
38.3300 524.0000 1.0000
38.3400 483.0000 1.0000
38.3500 458.0000 1.0000
38.3600 493.0000 1.0000
38.3700 474.0000 1.0000
38.3800 482.0000 1.0000
38.3900 458.0000 1.0000
38.4000 521.0000 1.0000
38.4100 477.0000 1.0000
38.4200 481.0000 1.0000
38.4300 493.0000 1.0000
38.4400 490.0000 1.0000
38.4500 490.0000 1.0000
38.4600 486.0000 1.0000
38.4700 451.0000 1.0000
38.4800 462.0000 1.0000
38.4900 468.0000 1.0000
38.5000 464.0000 1.0000
38.5100 473.0000 1.0000
38.5200 488.0000 1.0000
38.5300 454.0000 1.0000
38.5400 508.0000 1.0000
38.5500 496.0000 1.0000
38.5600 445.0000 1.0000
38.5700 470.0000 1.0000
38.5800 495.0000 1.0000
38.5900 492.0000 1.0000
38.6000 473.0000 1.0000
38.6100 460.0000 1.0000
38.6200 480.0000 1.0000
38.6300 471.0000 1.0000
38.6400 458.0000 1.0000
38.6500 502.0000 1.0000
38.6600 452.0000 1.0000
38.6700 421.0000 1.0000
38.6800 487.0000 1.0000
38.6900 453.0000 1.0000
38.7000 429.0000 1.0000
38.7100 457.0000 1.0000
38.7200 473.0000 1.0000
38.7300 434.0000 1.0000
38.7400 462.0000 1.0000
38.7500 454.0000 1.0000
38.7600 427.0000 1.0000
38.7700 458.0000 1.0000
38.7800 449.0000 1.0000
38.7900 428.0000 1.0000
38.8000 444.0000 1.0000
38.8100 451.0000 1.0000
38.8200 444.0000 1.0000
38.8300 437.0000 1.0000
38.8400 450.0000 1.0000
38.8500 427.0000 1.0000
38.8600 440.0000 1.0000
38.8700 447.0000 1.0000
38.8800 431.0000 1.0000
38.8900 442.0000 1.0000
38.9000 457.0000 1.0000
38.9100 425.0000 1.0000
38.9200 405.0000 1.0000
38.9300 423.0000 1.0000
38.9400 431.0000 1.0000
38.9500 429.0000 1.0000
38.9600 430.0000 1.0000
38.9700 428.0000 1.0000
38.9800 442.0000 1.0000
38.9900 410.0000 1.0000
39.0000 412.0000 1.0000
39.0100 468.0000 1.0000
39.0200 438.0000 1.0000
39.0300 468.0000 1.0000
39.0400 455.0000 1.0000
39.0500 459.0000 1.0000
39.0600 458.0000 1.0000
39.0700 441.0000 1.0000
39.0800 443.0000 1.0000
39.0900 472.0000 1.0000
39.1000 464.0000 1.0000
39.1100 436.0000 1.0000
39.1200 436.0000 1.0000
39.1300 460.0000 1.0000
39.1400 444.0000 1.0000
39.1500 457.0000 1.0000
39.1600 417.0000 1.0000
39.1700 447.0000 1.0000
39.1800 427.0000 1.0000
39.1900 430.0000 1.0000
39.2000 413.0000 1.0000
39.2100 402.0000 1.0000
39.2200 457.0000 1.0000
39.2300 452.0000 1.0000
39.2400 414.0000 1.0000
39.2500 470.0000 1.0000
39.2600 399.0000 1.0000
39.2700 419.0000 1.0000
39.2800 446.0000 1.0000
39.2900 433.0000 1.0000
39.3000 463.0000 1.0000
39.3100 430.0000 1.0000
39.3200 445.0000 1.0000
39.3300 431.0000 1.0000
39.3400 386.0000 1.0000
39.3500 424.0000 1.0000
39.3600 439.0000 1.0000
39.3700 410.0000 1.0000
39.3800 455.0000 1.0000
39.3900 428.0000 1.0000
39.4000 415.0000 1.0000
39.4100 407.0000 1.0000
39.4200 438.0000 1.0000
39.4300 432.0000 1.0000
39.4400 414.0000 1.0000
39.4500 412.0000 1.0000
39.4600 414.0000 1.0000
39.4700 439.0000 1.0000
39.4800 411.0000 1.0000
39.4900 429.0000 1.0000
39.5000 450.0000 1.0000
39.5100 467.0000 1.0000
39.5200 403.0000 1.0000
39.5300 406.0000 1.0000
39.5400 461.0000 1.0000
39.5500 452.0000 1.0000
39.5600 394.0000 1.0000
39.5700 426.0000 1.0000
39.5800 433.0000 1.0000
39.5900 431.0000 1.0000
39.6000 429.0000 1.0000
39.6100 443.0000 1.0000
39.6200 394.0000 1.0000
39.6300 380.0000 1.0000
39.6400 410.0000 1.0000
39.6500 416.0000 1.0000
39.6600 437.0000 1.0000
39.6700 450.0000 1.0000
39.6800 430.0000 1.0000
39.6900 428.0000 1.0000
39.7000 425.0000 1.0000
39.7100 431.0000 1.0000
39.7200 440.0000 1.0000
39.7300 453.0000 1.0000
39.7400 405.0000 1.0000
39.7500 419.0000 1.0000
39.7600 425.0000 1.0000
39.7700 431.0000 1.0000
39.7800 443.0000 1.0000
39.7900 404.0000 1.0000
39.8000 409.0000 1.0000
39.8100 436.0000 1.0000
39.8200 404.0000 1.0000
39.8300 388.0000 1.0000
39.8400 423.0000 1.0000
39.8500 404.0000 1.0000
39.8600 427.0000 1.0000
39.8700 425.0000 1.0000
39.8800 423.0000 1.0000
39.8900 385.0000 1.0000
39.9000 410.0000 1.0000
39.9100 419.0000 1.0000
39.9200 422.0000 1.0000
39.9300 385.0000 1.0000
39.9400 387.0000 1.0000
39.9500 420.0000 1.0000
39.9600 425.0000 1.0000
39.9700 412.0000 1.0000
39.9800 396.0000 1.0000
39.9900 412.0000 1.0000
40.0000 397.0000 1.0000
40.0100 386.0000 1.0000
40.0200 395.0000 1.0000
40.0300 405.0000 1.0000
40.0400 423.0000 1.0000
40.0500 409.0000 1.0000
40.0600 401.0000 1.0000
40.0700 381.0000 1.0000
40.0800 418.0000 1.0000
40.0900 396.0000 1.0000
40.1000 434.0000 1.0000
40.1100 402.0000 1.0000
40.1200 416.0000 1.0000
40.1300 426.0000 1.0000
40.1400 414.0000 1.0000
40.1500 388.0000 1.0000
40.1600 431.0000 1.0000
40.1700 431.0000 1.0000
40.1800 427.0000 1.0000
40.1900 428.0000 1.0000
40.2000 395.0000 1.0000
40.2100 414.0000 1.0000
40.2200 400.0000 1.0000
40.2300 401.0000 1.0000
40.2400 379.0000 1.0000
40.2500 405.0000 1.0000
40.2600 404.0000 1.0000
40.2700 421.0000 1.0000
40.2800 402.0000 1.0000
40.2900 405.0000 1.0000
40.3000 419.0000 1.0000
40.3100 415.0000 1.0000
40.3200 418.0000 1.0000
40.3300 422.0000 1.0000
40.3400 425.0000 1.0000
40.3500 423.0000 1.0000
40.3600 430.0000 1.0000
40.3700 427.0000 1.0000
40.3800 440.0000 1.0000
40.3900 403.0000 1.0000
40.4000 418.0000 1.0000
40.4100 422.0000 1.0000
40.4200 402.0000 1.0000
40.4300 423.0000 1.0000
40.4400 405.0000 1.0000
40.4500 393.0000 1.0000
40.4600 396.0000 1.0000
40.4700 437.0000 1.0000
40.4800 422.0000 1.0000
40.4900 416.0000 1.0000
40.5000 413.0000 1.0000
40.5100 453.0000 1.0000
40.5200 439.0000 1.0000
40.5300 394.0000 1.0000
40.5400 418.0000 1.0000
40.5500 424.0000 1.0000
40.5600 467.0000 1.0000
40.5700 414.0000 1.0000
40.5800 412.0000 1.0000
40.5900 399.0000 1.0000
40.6000 410.0000 1.0000
40.6100 377.0000 1.0000
40.6200 425.0000 1.0000
40.6300 425.0000 1.0000
40.6400 430.0000 1.0000
40.6500 441.0000 1.0000
40.6600 436.0000 1.0000
40.6700 445.0000 1.0000
40.6800 419.0000 1.0000
40.6900 445.0000 1.0000
40.7000 426.0000 1.0000
40.7100 421.0000 1.0000
40.7200 443.0000 1.0000
40.7300 471.0000 1.0000
40.7400 469.0000 1.0000
40.7500 448.0000 1.0000
40.7600 491.0000 1.0000
40.7700 460.0000 1.0000
40.7800 418.0000 1.0000
40.7900 471.0000 1.0000
40.8000 491.0000 1.0000
40.8100 425.0000 1.0000
40.8200 448.0000 1.0000
40.8300 441.0000 1.0000
40.8400 451.0000 1.0000
40.8500 485.0000 1.0000
40.8600 448.0000 1.0000
40.8700 449.0000 1.0000
40.8800 432.0000 1.0000
40.8900 452.0000 1.0000
40.9000 481.0000 1.0000
40.9100 453.0000 1.0000
40.9200 431.0000 1.0000
40.9300 415.0000 1.0000
40.9400 414.0000 1.0000
40.9500 395.0000 1.0000
40.9600 430.0000 1.0000
40.9700 446.0000 1.0000
40.9800 447.0000 1.0000
40.9900 441.0000 1.0000
41.0000 398.0000 1.0000
41.0100 417.0000 1.0000
41.0200 398.0000 1.0000
41.0300 381.0000 1.0000
41.0400 399.0000 1.0000
41.0500 424.0000 1.0000
41.0600 426.0000 1.0000
41.0700 429.0000 1.0000
41.0800 422.0000 1.0000
41.0900 411.0000 1.0000
41.1000 387.0000 1.0000
41.1100 448.0000 1.0000
41.1200 412.0000 1.0000
41.1300 391.0000 1.0000
41.1400 404.0000 1.0000
41.1500 405.0000 1.0000
41.1600 408.0000 1.0000
41.1700 425.0000 1.0000
41.1800 424.0000 1.0000
41.1900 411.0000 1.0000
41.2000 402.0000 1.0000
41.2100 398.0000 1.0000
41.2200 399.0000 1.0000
41.2300 404.0000 1.0000
41.2400 392.0000 1.0000
41.2500 395.0000 1.0000
41.2600 408.0000 1.0000
41.2700 419.0000 1.0000
41.2800 413.0000 1.0000
41.2900 413.0000 1.0000
41.3000 411.0000 1.0000
41.3100 403.0000 1.0000
41.3200 401.0000 1.0000
41.3300 431.0000 1.0000
41.3400 432.0000 1.0000
41.3500 380.0000 1.0000
41.3600 415.0000 1.0000
41.3700 385.0000 1.0000
41.3800 386.0000 1.0000
41.3900 377.0000 1.0000
41.4000 405.0000 1.0000
41.4100 392.0000 1.0000
41.4200 393.0000 1.0000
41.4300 402.0000 1.0000
41.4400 381.0000 1.0000
41.4500 383.0000 1.0000
41.4600 411.0000 1.0000
41.4700 396.0000 1.0000
41.4800 405.0000 1.0000
41.4900 383.0000 1.0000
41.5000 392.0000 1.0000
41.5100 411.0000 1.0000
41.5200 390.0000 1.0000
41.5300 395.0000 1.0000
41.5400 392.0000 1.0000
41.5500 381.0000 1.0000
41.5600 413.0000 1.0000
41.5700 392.0000 1.0000
41.5800 381.0000 1.0000
41.5900 383.0000 1.0000
41.6000 394.0000 1.0000
41.6100 380.0000 1.0000
41.6200 391.0000 1.0000
41.6300 396.0000 1.0000
41.6400 385.0000 1.0000
41.6500 386.0000 1.0000
41.6600 374.0000 1.0000
41.6700 373.0000 1.0000
41.6800 407.0000 1.0000
41.6900 383.0000 1.0000
41.7000 408.0000 1.0000
41.7100 379.0000 1.0000
41.7200 357.0000 1.0000
41.7300 381.0000 1.0000
41.7400 395.0000 1.0000
41.7500 395.0000 1.0000
41.7600 402.0000 1.0000
41.7700 408.0000 1.0000
41.7800 415.0000 1.0000
41.7900 399.0000 1.0000
41.8000 408.0000 1.0000
41.8100 387.0000 1.0000
41.8200 361.0000 1.0000
41.8300 405.0000 1.0000
41.8400 397.0000 1.0000
41.8500 368.0000 1.0000
41.8600 368.0000 1.0000
41.8700 422.0000 1.0000
41.8800 390.0000 1.0000
41.8900 388.0000 1.0000
41.9000 390.0000 1.0000
41.9100 408.0000 1.0000
41.9200 379.0000 1.0000
41.9300 377.0000 1.0000
41.9400 375.0000 1.0000
41.9500 386.0000 1.0000
41.9600 422.0000 1.0000
41.9700 413.0000 1.0000
41.9800 390.0000 1.0000
41.9900 392.0000 1.0000
42.0000 423.0000 1.0000
42.0100 386.0000 1.0000
42.0200 398.0000 1.0000
42.0300 387.0000 1.0000
42.0400 392.0000 1.0000
42.0500 398.0000 1.0000
42.0600 407.0000 1.0000
42.0700 458.0000 1.0000
42.0800 403.0000 1.0000
42.0900 392.0000 1.0000
42.1000 371.0000 1.0000
42.1100 371.0000 1.0000
42.1200 427.0000 1.0000
42.1300 418.0000 1.0000
42.1400 389.0000 1.0000
42.1500 414.0000 1.0000
42.1600 425.0000 1.0000
42.1700 425.0000 1.0000
42.1800 367.0000 1.0000
42.1900 393.0000 1.0000
42.2000 404.0000 1.0000
42.2100 396.0000 1.0000
42.2200 383.0000 1.0000
42.2300 420.0000 1.0000
42.2400 392.0000 1.0000
42.2500 428.0000 1.0000
42.2600 394.0000 1.0000
42.2700 384.0000 1.0000
42.2800 404.0000 1.0000
42.2900 414.0000 1.0000
42.3000 413.0000 1.0000
42.3100 431.0000 1.0000
42.3200 448.0000 1.0000
42.3300 392.0000 1.0000
42.3400 402.0000 1.0000
42.3500 384.0000 1.0000
42.3600 411.0000 1.0000
42.3700 388.0000 1.0000
42.3800 414.0000 1.0000
42.3900 402.0000 1.0000
42.4000 432.0000 1.0000
42.4100 421.0000 1.0000
42.4200 420.0000 1.0000
42.4300 462.0000 1.0000
42.4400 441.0000 1.0000
42.4500 395.0000 1.0000
42.4600 420.0000 1.0000
42.4700 414.0000 1.0000
42.4800 384.0000 1.0000
42.4900 448.0000 1.0000
42.5000 416.0000 1.0000
42.5100 413.0000 1.0000
42.5200 425.0000 1.0000
42.5300 403.0000 1.0000
42.5400 408.0000 1.0000
42.5500 407.0000 1.0000
42.5600 401.0000 1.0000
42.5700 388.0000 1.0000
42.5800 405.0000 1.0000
42.5900 410.0000 1.0000
42.6000 385.0000 1.0000
42.6100 390.0000 1.0000
42.6200 413.0000 1.0000
42.6300 403.0000 1.0000
42.6400 397.0000 1.0000
42.6500 388.0000 1.0000
42.6600 365.0000 1.0000
42.6700 396.0000 1.0000
42.6800 365.0000 1.0000
42.6900 403.0000 1.0000
42.7000 413.0000 1.0000
42.7100 421.0000 1.0000
42.7200 426.0000 1.0000
42.7300 432.0000 1.0000
42.7400 392.0000 1.0000
42.7500 388.0000 1.0000
42.7600 373.0000 1.0000
42.7700 420.0000 1.0000
42.7800 405.0000 1.0000
42.7900 385.0000 1.0000
42.8000 424.0000 1.0000
42.8100 400.0000 1.0000
42.8200 376.0000 1.0000
42.8300 384.0000 1.0000
42.8400 411.0000 1.0000
42.8500 426.0000 1.0000
42.8600 379.0000 1.0000
42.8700 382.0000 1.0000
42.8800 391.0000 1.0000
42.8900 389.0000 1.0000
42.9000 393.0000 1.0000
42.9100 393.0000 1.0000
42.9200 388.0000 1.0000
42.9300 373.0000 1.0000
42.9400 407.0000 1.0000
42.9500 385.0000 1.0000
42.9600 380.0000 1.0000
42.9700 394.0000 1.0000
42.9800 368.0000 1.0000
42.9900 381.0000 1.0000
43.0000 380.0000 1.0000
43.0100 402.0000 1.0000
43.0200 390.0000 1.0000
43.0300 388.0000 1.0000
43.0400 362.0000 1.0000
43.0500 407.0000 1.0000
43.0600 399.0000 1.0000
43.0700 383.0000 1.0000
43.0800 378.0000 1.0000
43.0900 407.0000 1.0000
43.1000 382.0000 1.0000
43.1100 391.0000 1.0000
43.1200 380.0000 1.0000
43.1300 410.0000 1.0000
43.1400 392.0000 1.0000
43.1500 374.0000 1.0000
43.1600 375.0000 1.0000
43.1700 403.0000 1.0000
43.1800 381.0000 1.0000
43.1900 403.0000 1.0000
43.2000 412.0000 1.0000
43.2100 387.0000 1.0000
43.2200 361.0000 1.0000
43.2300 394.0000 1.0000
43.2400 376.0000 1.0000
43.2500 372.0000 1.0000
43.2600 407.0000 1.0000
43.2700 401.0000 1.0000
43.2800 371.0000 1.0000
43.2900 401.0000 1.0000
43.3000 369.0000 1.0000
43.3100 408.0000 1.0000
43.3200 389.0000 1.0000
43.3300 378.0000 1.0000
43.3400 390.0000 1.0000
43.3500 373.0000 1.0000
43.3600 401.0000 1.0000
43.3700 407.0000 1.0000
43.3800 387.0000 1.0000
43.3900 375.0000 1.0000
43.4000 357.0000 1.0000
43.4100 386.0000 1.0000
43.4200 379.0000 1.0000
43.4300 406.0000 1.0000
43.4400 406.0000 1.0000
43.4500 378.0000 1.0000
43.4600 396.0000 1.0000
43.4700 420.0000 1.0000
43.4800 387.0000 1.0000
43.4900 392.0000 1.0000
43.5000 370.0000 1.0000
43.5100 367.0000 1.0000
43.5200 373.0000 1.0000
43.5300 386.0000 1.0000
43.5400 396.0000 1.0000
43.5500 372.0000 1.0000
43.5600 386.0000 1.0000
43.5700 400.0000 1.0000
43.5800 381.0000 1.0000
43.5900 379.0000 1.0000
43.6000 387.0000 1.0000
43.6100 398.0000 1.0000
43.6200 398.0000 1.0000
43.6300 385.0000 1.0000
43.6400 393.0000 1.0000
43.6500 377.0000 1.0000
43.6600 387.0000 1.0000
43.6700 379.0000 1.0000
43.6800 391.0000 1.0000
43.6900 423.0000 1.0000
43.7000 372.0000 1.0000
43.7100 404.0000 1.0000
43.7200 371.0000 1.0000
43.7300 390.0000 1.0000
43.7400 399.0000 1.0000
43.7500 402.0000 1.0000
43.7600 401.0000 1.0000
43.7700 409.0000 1.0000
43.7800 384.0000 1.0000
43.7900 390.0000 1.0000
43.8000 385.0000 1.0000
43.8100 343.0000 1.0000
43.8200 382.0000 1.0000
43.8300 385.0000 1.0000
43.8400 367.0000 1.0000
43.8500 406.0000 1.0000
43.8600 395.0000 1.0000
43.8700 358.0000 1.0000
43.8800 399.0000 1.0000
43.8900 383.0000 1.0000
43.9000 362.0000 1.0000
43.9100 351.0000 1.0000
43.9200 363.0000 1.0000
43.9300 360.0000 1.0000
43.9400 356.0000 1.0000
43.9500 374.0000 1.0000
43.9600 363.0000 1.0000
43.9700 340.0000 1.0000
43.9800 361.0000 1.0000
43.9900 369.0000 1.0000
44.0000 367.0000 1.0000
44.0100 350.0000 1.0000
44.0200 378.0000 1.0000
44.0300 352.0000 1.0000
44.0400 366.0000 1.0000
44.0500 383.0000 1.0000
44.0600 326.0000 1.0000
44.0700 372.0000 1.0000
44.0800 393.0000 1.0000
44.0900 387.0000 1.0000
44.1000 379.0000 1.0000
44.1100 360.0000 1.0000
44.1200 393.0000 1.0000
44.1300 377.0000 1.0000
44.1400 402.0000 1.0000
44.1500 400.0000 1.0000
44.1600 405.0000 1.0000
44.1700 384.0000 1.0000
44.1800 388.0000 1.0000
44.1900 387.0000 1.0000
44.2000 377.0000 1.0000
44.2100 383.0000 1.0000
44.2200 367.0000 1.0000
44.2300 367.0000 1.0000
44.2400 374.0000 1.0000
44.2500 370.0000 1.0000
44.2600 403.0000 1.0000
44.2700 388.0000 1.0000
44.2800 366.0000 1.0000
44.2900 394.0000 1.0000
44.3000 378.0000 1.0000
44.3100 366.0000 1.0000
44.3200 348.0000 1.0000
44.3300 340.0000 1.0000
44.3400 369.0000 1.0000
44.3500 377.0000 1.0000
44.3600 385.0000 1.0000
44.3700 367.0000 1.0000
44.3800 346.0000 1.0000
44.3900 362.0000 1.0000
44.4000 360.0000 1.0000
44.4100 356.0000 1.0000
44.4200 378.0000 1.0000
44.4300 359.0000 1.0000
44.4400 380.0000 1.0000
44.4500 363.0000 1.0000
44.4600 369.0000 1.0000
44.4700 382.0000 1.0000
44.4800 393.0000 1.0000
44.4900 367.0000 1.0000
44.5000 390.0000 1.0000
44.5100 330.0000 1.0000
44.5200 370.0000 1.0000
44.5300 367.0000 1.0000
44.5400 386.0000 1.0000
44.5500 387.0000 1.0000
44.5600 370.0000 1.0000
44.5700 353.0000 1.0000
44.5800 357.0000 1.0000
44.5900 378.0000 1.0000
44.6000 381.0000 1.0000
44.6100 365.0000 1.0000
44.6200 363.0000 1.0000
44.6300 352.0000 1.0000
44.6400 365.0000 1.0000
44.6500 364.0000 1.0000
44.6600 338.0000 1.0000
44.6700 370.0000 1.0000
44.6800 383.0000 1.0000
44.6900 374.0000 1.0000
44.7000 397.0000 1.0000
44.7100 348.0000 1.0000
44.7200 373.0000 1.0000
44.7300 383.0000 1.0000
44.7400 401.0000 1.0000
44.7500 353.0000 1.0000
44.7600 353.0000 1.0000
44.7700 365.0000 1.0000
44.7800 380.0000 1.0000
44.7900 376.0000 1.0000
44.8000 382.0000 1.0000
44.8100 385.0000 1.0000
44.8200 353.0000 1.0000
44.8300 361.0000 1.0000
44.8400 417.0000 1.0000
44.8500 378.0000 1.0000
44.8600 386.0000 1.0000
44.8700 355.0000 1.0000
44.8800 356.0000 1.0000
44.8900 363.0000 1.0000
44.9000 376.0000 1.0000
44.9100 383.0000 1.0000
44.9200 357.0000 1.0000
44.9300 376.0000 1.0000
44.9400 353.0000 1.0000
44.9500 377.0000 1.0000
44.9600 374.0000 1.0000
44.9700 361.0000 1.0000
44.9800 363.0000 1.0000
44.9900 362.0000 1.0000
45.0000 367.0000 1.0000
45.0100 365.0000 1.0000
45.0200 407.0000 1.0000
45.0300 347.0000 1.0000
45.0400 352.0000 1.0000
45.0500 348.0000 1.0000
45.0600 406.0000 1.0000
45.0700 381.0000 1.0000
45.0800 384.0000 1.0000
45.0900 367.0000 1.0000
45.1000 352.0000 1.0000
45.1100 367.0000 1.0000
45.1200 351.0000 1.0000
45.1300 360.0000 1.0000
45.1400 365.0000 1.0000
45.1500 372.0000 1.0000
45.1600 354.0000 1.0000
45.1700 355.0000 1.0000
45.1800 360.0000 1.0000
45.1900 333.0000 1.0000
45.2000 375.0000 1.0000
45.2100 389.0000 1.0000
45.2200 355.0000 1.0000
45.2300 354.0000 1.0000
45.2400 372.0000 1.0000
45.2500 382.0000 1.0000
45.2600 382.0000 1.0000
45.2700 386.0000 1.0000
45.2800 359.0000 1.0000
45.2900 355.0000 1.0000
45.3000 374.0000 1.0000
45.3100 382.0000 1.0000
45.3200 338.0000 1.0000
45.3300 344.0000 1.0000
45.3400 308.0000 1.0000
45.3500 360.0000 1.0000
45.3600 367.0000 1.0000
45.3700 350.0000 1.0000
45.3800 353.0000 1.0000
45.3900 380.0000 1.0000
45.4000 382.0000 1.0000
45.4100 379.0000 1.0000
45.4200 377.0000 1.0000
45.4300 353.0000 1.0000
45.4400 379.0000 1.0000
45.4500 376.0000 1.0000
45.4600 384.0000 1.0000
45.4700 370.0000 1.0000
45.4800 384.0000 1.0000
45.4900 348.0000 1.0000
45.5000 348.0000 1.0000
45.5100 396.0000 1.0000
45.5200 377.0000 1.0000
45.5300 339.0000 1.0000
45.5400 347.0000 1.0000
45.5500 354.0000 1.0000
45.5600 304.0000 1.0000
45.5700 334.0000 1.0000
45.5800 356.0000 1.0000
45.5900 352.0000 1.0000
45.6000 342.0000 1.0000
45.6100 337.0000 1.0000
45.6200 360.0000 1.0000
45.6300 370.0000 1.0000
45.6400 371.0000 1.0000
45.6500 371.0000 1.0000
45.6600 368.0000 1.0000
45.6700 340.0000 1.0000
45.6800 351.0000 1.0000
45.6900 339.0000 1.0000
45.7000 368.0000 1.0000
45.7100 343.0000 1.0000
45.7200 350.0000 1.0000
45.7300 372.0000 1.0000
45.7400 350.0000 1.0000
45.7500 342.0000 1.0000
45.7600 331.0000 1.0000
45.7700 369.0000 1.0000
45.7800 366.0000 1.0000
45.7900 348.0000 1.0000
45.8000 360.0000 1.0000
45.8100 335.0000 1.0000
45.8200 382.0000 1.0000
45.8300 353.0000 1.0000
45.8400 363.0000 1.0000
45.8500 357.0000 1.0000
45.8600 364.0000 1.0000
45.8700 353.0000 1.0000
45.8800 358.0000 1.0000
45.8900 369.0000 1.0000
45.9000 373.0000 1.0000
45.9100 353.0000 1.0000
45.9200 336.0000 1.0000
45.9300 360.0000 1.0000
45.9400 330.0000 1.0000
45.9500 384.0000 1.0000
45.9600 362.0000 1.0000
45.9700 363.0000 1.0000
45.9800 369.0000 1.0000
45.9900 360.0000 1.0000
46.0000 365.0000 1.0000
46.0100 348.0000 1.0000
46.0200 353.0000 1.0000
46.0300 361.0000 1.0000
46.0400 349.0000 1.0000
46.0500 374.0000 1.0000
46.0600 377.0000 1.0000
46.0700 381.0000 1.0000
46.0800 345.0000 1.0000
46.0900 345.0000 1.0000
46.1000 390.0000 1.0000
46.1100 366.0000 1.0000
46.1200 350.0000 1.0000
46.1300 366.0000 1.0000
46.1400 346.0000 1.0000
46.1500 382.0000 1.0000
46.1600 378.0000 1.0000
46.1700 349.0000 1.0000
46.1800 371.0000 1.0000
46.1900 391.0000 1.0000
46.2000 367.0000 1.0000
46.2100 372.0000 1.0000
46.2200 366.0000 1.0000
46.2300 347.0000 1.0000
46.2400 349.0000 1.0000
46.2500 348.0000 1.0000
46.2600 390.0000 1.0000
46.2700 357.0000 1.0000
46.2800 385.0000 1.0000
46.2900 374.0000 1.0000
46.3000 339.0000 1.0000
46.3100 391.0000 1.0000
46.3200 354.0000 1.0000
46.3300 339.0000 1.0000
46.3400 354.0000 1.0000
46.3500 377.0000 1.0000
46.3600 369.0000 1.0000
46.3700 376.0000 1.0000
46.3800 348.0000 1.0000
46.3900 329.0000 1.0000
46.4000 335.0000 1.0000
46.4100 350.0000 1.0000
46.4200 356.0000 1.0000
46.4300 373.0000 1.0000
46.4400 380.0000 1.0000
46.4500 353.0000 1.0000
46.4600 341.0000 1.0000
46.4700 361.0000 1.0000
46.4800 356.0000 1.0000
46.4900 364.0000 1.0000
46.5000 372.0000 1.0000
46.5100 361.0000 1.0000
46.5200 348.0000 1.0000
46.5300 340.0000 1.0000
46.5400 359.0000 1.0000
46.5500 349.0000 1.0000
46.5600 342.0000 1.0000
46.5700 358.0000 1.0000
46.5800 357.0000 1.0000
46.5900 365.0000 1.0000
46.6000 355.0000 1.0000
46.6100 361.0000 1.0000
46.6200 362.0000 1.0000
46.6300 327.0000 1.0000
46.6400 338.0000 1.0000
46.6500 339.0000 1.0000
46.6600 371.0000 1.0000
46.6700 331.0000 1.0000
46.6800 361.0000 1.0000
46.6900 364.0000 1.0000
46.7000 376.0000 1.0000
46.7100 342.0000 1.0000
46.7200 332.0000 1.0000
46.7300 359.0000 1.0000
46.7400 338.0000 1.0000
46.7500 344.0000 1.0000
46.7600 311.0000 1.0000
46.7700 338.0000 1.0000
46.7800 355.0000 1.0000
46.7900 337.0000 1.0000
46.8000 329.0000 1.0000
46.8100 334.0000 1.0000
46.8200 380.0000 1.0000
46.8300 372.0000 1.0000
46.8400 364.0000 1.0000
46.8500 311.0000 1.0000
46.8600 367.0000 1.0000
46.8700 362.0000 1.0000
46.8800 330.0000 1.0000
46.8900 356.0000 1.0000
46.9000 350.0000 1.0000
46.9100 337.0000 1.0000
46.9200 360.0000 1.0000
46.9300 362.0000 1.0000
46.9400 352.0000 1.0000
46.9500 352.0000 1.0000
46.9600 327.0000 1.0000
46.9700 360.0000 1.0000
46.9800 406.0000 1.0000
46.9900 368.0000 1.0000
47.0000 332.0000 1.0000
47.0100 334.0000 1.0000
47.0200 341.0000 1.0000
47.0300 344.0000 1.0000
47.0400 341.0000 1.0000
47.0500 362.0000 1.0000
47.0600 341.0000 1.0000
47.0700 333.0000 1.0000
47.0800 371.0000 1.0000
47.0900 348.0000 1.0000
47.1000 296.0000 1.0000
47.1100 320.0000 1.0000
47.1200 371.0000 1.0000
47.1300 353.0000 1.0000
47.1400 369.0000 1.0000
47.1500 367.0000 1.0000
47.1600 355.0000 1.0000
47.1700 338.0000 1.0000
47.1800 343.0000 1.0000
47.1900 342.0000 1.0000
47.2000 339.0000 1.0000
47.2100 354.0000 1.0000
47.2200 327.0000 1.0000
47.2300 366.0000 1.0000
47.2400 361.0000 1.0000
47.2500 348.0000 1.0000
47.2600 361.0000 1.0000
47.2700 319.0000 1.0000
47.2800 338.0000 1.0000
47.2900 369.0000 1.0000
47.3000 326.0000 1.0000
47.3100 322.0000 1.0000
47.3200 346.0000 1.0000
47.3300 331.0000 1.0000
47.3400 335.0000 1.0000
47.3500 334.0000 1.0000
47.3600 336.0000 1.0000
47.3700 330.0000 1.0000
47.3800 323.0000 1.0000
47.3900 352.0000 1.0000
47.4000 333.0000 1.0000
47.4100 353.0000 1.0000
47.4200 324.0000 1.0000
47.4300 353.0000 1.0000
47.4400 323.0000 1.0000
47.4500 349.0000 1.0000
47.4600 349.0000 1.0000
47.4700 320.0000 1.0000
47.4800 342.0000 1.0000
47.4900 347.0000 1.0000
47.5000 324.0000 1.0000
47.5100 370.0000 1.0000
47.5200 360.0000 1.0000
47.5300 351.0000 1.0000
47.5400 342.0000 1.0000
47.5500 360.0000 1.0000
47.5600 363.0000 1.0000
47.5700 349.0000 1.0000
47.5800 330.0000 1.0000
47.5900 329.0000 1.0000
47.6000 315.0000 1.0000
47.6100 336.0000 1.0000
47.6200 349.0000 1.0000
47.6300 308.0000 1.0000
47.6400 318.0000 1.0000
47.6500 352.0000 1.0000
47.6600 348.0000 1.0000
47.6700 336.0000 1.0000
47.6800 339.0000 1.0000
47.6900 346.0000 1.0000
47.7000 349.0000 1.0000
47.7100 317.0000 1.0000
47.7200 313.0000 1.0000
47.7300 353.0000 1.0000
47.7400 358.0000 1.0000
47.7500 313.0000 1.0000
47.7600 367.0000 1.0000
47.7700 348.0000 1.0000
47.7800 333.0000 1.0000
47.7900 371.0000 1.0000
47.8000 324.0000 1.0000
47.8100 353.0000 1.0000
47.8200 354.0000 1.0000
47.8300 350.0000 1.0000
47.8400 320.0000 1.0000
47.8500 339.0000 1.0000
47.8600 347.0000 1.0000
47.8700 335.0000 1.0000
47.8800 343.0000 1.0000
47.8900 335.0000 1.0000
47.9000 350.0000 1.0000
47.9100 365.0000 1.0000
47.9200 370.0000 1.0000
47.9300 376.0000 1.0000
47.9400 353.0000 1.0000
47.9500 349.0000 1.0000
47.9600 327.0000 1.0000
47.9700 342.0000 1.0000
47.9800 359.0000 1.0000
47.9900 334.0000 1.0000
48.0000 326.0000 1.0000
48.0100 349.0000 1.0000
48.0200 337.0000 1.0000
48.0300 348.0000 1.0000
48.0400 340.0000 1.0000
48.0500 341.0000 1.0000
48.0600 334.0000 1.0000
48.0700 341.0000 1.0000
48.0800 323.0000 1.0000
48.0900 345.0000 1.0000
48.1000 344.0000 1.0000
48.1100 321.0000 1.0000
48.1200 339.0000 1.0000
48.1300 346.0000 1.0000
48.1400 326.0000 1.0000
48.1500 340.0000 1.0000
48.1600 315.0000 1.0000
48.1700 321.0000 1.0000
48.1800 361.0000 1.0000
48.1900 333.0000 1.0000
48.2000 364.0000 1.0000
48.2100 368.0000 1.0000
48.2200 375.0000 1.0000
48.2300 350.0000 1.0000
48.2400 336.0000 1.0000
48.2500 346.0000 1.0000
48.2600 351.0000 1.0000
48.2700 342.0000 1.0000
48.2800 364.0000 1.0000
48.2900 357.0000 1.0000
48.3000 351.0000 1.0000
48.3100 336.0000 1.0000
48.3200 372.0000 1.0000
48.3300 319.0000 1.0000
48.3400 326.0000 1.0000
48.3500 343.0000 1.0000
48.3600 346.0000 1.0000
48.3700 358.0000 1.0000
48.3800 359.0000 1.0000
48.3900 322.0000 1.0000
48.4000 335.0000 1.0000
48.4100 339.0000 1.0000
48.4200 341.0000 1.0000
48.4300 349.0000 1.0000
48.4400 354.0000 1.0000
48.4500 326.0000 1.0000
48.4600 346.0000 1.0000
48.4700 353.0000 1.0000
48.4800 345.0000 1.0000
48.4900 321.0000 1.0000
48.5000 338.0000 1.0000
48.5100 366.0000 1.0000
48.5200 353.0000 1.0000
48.5300 338.0000 1.0000
48.5400 365.0000 1.0000
48.5500 327.0000 1.0000
48.5600 346.0000 1.0000
48.5700 334.0000 1.0000
48.5800 332.0000 1.0000
48.5900 300.0000 1.0000
48.6000 310.0000 1.0000
48.6100 342.0000 1.0000
48.6200 336.0000 1.0000
48.6300 342.0000 1.0000
48.6400 316.0000 1.0000
48.6500 307.0000 1.0000
48.6600 322.0000 1.0000
48.6700 313.0000 1.0000
48.6800 333.0000 1.0000
48.6900 353.0000 1.0000
48.7000 307.0000 1.0000
48.7100 340.0000 1.0000
48.7200 363.0000 1.0000
48.7300 341.0000 1.0000
48.7400 330.0000 1.0000
48.7500 335.0000 1.0000
48.7600 346.0000 1.0000
48.7700 330.0000 1.0000
48.7800 351.0000 1.0000
48.7900 335.0000 1.0000
48.8000 334.0000 1.0000
48.8100 359.0000 1.0000
48.8200 343.0000 1.0000
48.8300 339.0000 1.0000
48.8400 333.0000 1.0000
48.8500 346.0000 1.0000
48.8600 317.0000 1.0000
48.8700 336.0000 1.0000
48.8800 342.0000 1.0000
48.8900 350.0000 1.0000
48.9000 339.0000 1.0000
48.9100 327.0000 1.0000
48.9200 341.0000 1.0000
48.9300 340.0000 1.0000
48.9400 354.0000 1.0000
48.9500 335.0000 1.0000
48.9600 311.0000 1.0000
48.9700 355.0000 1.0000
48.9800 343.0000 1.0000
48.9900 347.0000 1.0000
49.0000 334.0000 1.0000
49.0100 313.0000 1.0000
49.0200 327.0000 1.0000
49.0300 341.0000 1.0000
49.0400 340.0000 1.0000
49.0500 361.0000 1.0000
49.0600 353.0000 1.0000
49.0700 345.0000 1.0000
49.0800 339.0000 1.0000
49.0900 307.0000 1.0000
49.1000 325.0000 1.0000
49.1100 341.0000 1.0000
49.1200 329.0000 1.0000
49.1300 353.0000 1.0000
49.1400 355.0000 1.0000
49.1500 331.0000 1.0000
49.1600 339.0000 1.0000
49.1700 360.0000 1.0000
49.1800 369.0000 1.0000
49.1900 361.0000 1.0000
49.2000 350.0000 1.0000
49.2100 342.0000 1.0000
49.2200 354.0000 1.0000
49.2300 352.0000 1.0000
49.2400 375.0000 1.0000
49.2500 340.0000 1.0000
49.2600 351.0000 1.0000
49.2700 355.0000 1.0000
49.2800 358.0000 1.0000
49.2900 336.0000 1.0000
49.3000 360.0000 1.0000
49.3100 357.0000 1.0000
49.3200 353.0000 1.0000
49.3300 379.0000 1.0000
49.3400 385.0000 1.0000
49.3500 394.0000 1.0000
49.3600 385.0000 1.0000
49.3700 379.0000 1.0000
49.3800 409.0000 1.0000
49.3900 403.0000 1.0000
49.4000 390.0000 1.0000
49.4100 443.0000 1.0000
49.4200 408.0000 1.0000
49.4300 414.0000 1.0000
49.4400 374.0000 1.0000
49.4500 403.0000 1.0000
49.4600 369.0000 1.0000
49.4700 383.0000 1.0000
49.4800 407.0000 1.0000
49.4900 413.0000 1.0000
49.5000 399.0000 1.0000
49.5100 404.0000 1.0000
49.5200 390.0000 1.0000
49.5300 363.0000 1.0000
49.5400 364.0000 1.0000
49.5500 385.0000 1.0000
49.5600 389.0000 1.0000
49.5700 402.0000 1.0000
49.5800 404.0000 1.0000
49.5900 392.0000 1.0000
49.6000 388.0000 1.0000
49.6100 361.0000 1.0000
49.6200 336.0000 1.0000
49.6300 362.0000 1.0000
49.6400 361.0000 1.0000
49.6500 371.0000 1.0000
49.6600 344.0000 1.0000
49.6700 323.0000 1.0000
49.6800 361.0000 1.0000
49.6900 357.0000 1.0000
49.7000 338.0000 1.0000
49.7100 347.0000 1.0000
49.7200 351.0000 1.0000
49.7300 331.0000 1.0000
49.7400 335.0000 1.0000
49.7500 343.0000 1.0000
49.7600 352.0000 1.0000
49.7700 339.0000 1.0000
49.7800 340.0000 1.0000
49.7900 327.0000 1.0000
49.8000 320.0000 1.0000
49.8100 315.0000 1.0000
49.8200 349.0000 1.0000
49.8300 364.0000 1.0000
49.8400 359.0000 1.0000
49.8500 313.0000 1.0000
49.8600 324.0000 1.0000
49.8700 331.0000 1.0000
49.8800 327.0000 1.0000
49.8900 346.0000 1.0000
49.9000 354.0000 1.0000
49.9100 327.0000 1.0000
49.9200 331.0000 1.0000
49.9300 341.0000 1.0000
49.9400 344.0000 1.0000
49.9500 318.0000 1.0000
49.9600 320.0000 1.0000
49.9700 330.0000 1.0000
49.9800 358.0000 1.0000
49.9900 338.0000 1.0000
50.0000 324.0000 1.0000
50.0100 328.0000 1.0000
50.0200 337.0000 1.0000
50.0300 341.0000 1.0000
50.0400 297.0000 1.0000
50.0500 325.0000 1.0000
50.0600 335.0000 1.0000
50.0700 342.0000 1.0000
50.0800 360.0000 1.0000
50.0900 332.0000 1.0000
50.1000 328.0000 1.0000
50.1100 326.0000 1.0000
50.1200 366.0000 1.0000
50.1300 362.0000 1.0000
50.1400 334.0000 1.0000
50.1500 362.0000 1.0000
50.1600 298.0000 1.0000
50.1700 304.0000 1.0000
50.1800 337.0000 1.0000
50.1900 326.0000 1.0000
50.2000 335.0000 1.0000
50.2100 346.0000 1.0000
50.2200 345.0000 1.0000
50.2300 337.0000 1.0000
50.2400 344.0000 1.0000
50.2500 308.0000 1.0000
50.2600 340.0000 1.0000
50.2700 326.0000 1.0000
50.2800 335.0000 1.0000
50.2900 335.0000 1.0000
50.3000 344.0000 1.0000
50.3100 359.0000 1.0000
50.3200 314.0000 1.0000
50.3300 330.0000 1.0000
50.3400 350.0000 1.0000
50.3500 330.0000 1.0000
50.3600 346.0000 1.0000
50.3700 338.0000 1.0000
50.3800 338.0000 1.0000
50.3900 313.0000 1.0000
50.4000 329.0000 1.0000
50.4100 321.0000 1.0000
50.4200 328.0000 1.0000
50.4300 349.0000 1.0000
50.4400 312.0000 1.0000
50.4500 331.0000 1.0000
50.4600 338.0000 1.0000
50.4700 296.0000 1.0000
50.4800 334.0000 1.0000
50.4900 312.0000 1.0000
50.5000 335.0000 1.0000
50.5100 360.0000 1.0000
50.5200 337.0000 1.0000
50.5300 332.0000 1.0000
50.5400 327.0000 1.0000
50.5500 314.0000 1.0000
50.5600 324.0000 1.0000
50.5700 340.0000 1.0000
50.5800 355.0000 1.0000
50.5900 309.0000 1.0000
50.6000 281.0000 1.0000
50.6100 309.0000 1.0000
50.6200 330.0000 1.0000
50.6300 347.0000 1.0000
50.6400 342.0000 1.0000
50.6500 338.0000 1.0000
50.6600 334.0000 1.0000
50.6700 322.0000 1.0000
50.6800 345.0000 1.0000
50.6900 323.0000 1.0000
50.7000 324.0000 1.0000
50.7100 344.0000 1.0000
50.7200 315.0000 1.0000
50.7300 329.0000 1.0000
50.7400 319.0000 1.0000
50.7500 338.0000 1.0000
50.7600 349.0000 1.0000
50.7700 294.0000 1.0000
50.7800 330.0000 1.0000
50.7900 352.0000 1.0000
50.8000 362.0000 1.0000
50.8100 312.0000 1.0000
50.8200 325.0000 1.0000
50.8300 334.0000 1.0000
50.8400 347.0000 1.0000
50.8500 345.0000 1.0000
50.8600 303.0000 1.0000
50.8700 348.0000 1.0000
50.8800 347.0000 1.0000
50.8900 335.0000 1.0000
50.9000 355.0000 1.0000
50.9100 355.0000 1.0000
50.9200 346.0000 1.0000
50.9300 344.0000 1.0000
50.9400 368.0000 1.0000
50.9500 335.0000 1.0000
50.9600 331.0000 1.0000
50.9700 349.0000 1.0000
50.9800 333.0000 1.0000
50.9900 324.0000 1.0000
51.0000 361.0000 1.0000
51.0100 336.0000 1.0000
51.0200 329.0000 1.0000
51.0300 309.0000 1.0000
51.0400 337.0000 1.0000
51.0500 346.0000 1.0000
51.0600 341.0000 1.0000
51.0700 358.0000 1.0000
51.0800 381.0000 1.0000
51.0900 344.0000 1.0000
51.1000 376.0000 1.0000
51.1100 366.0000 1.0000
51.1200 410.0000 1.0000
51.1300 373.0000 1.0000
51.1400 374.0000 1.0000
51.1500 396.0000 1.0000
51.1600 384.0000 1.0000
51.1700 394.0000 1.0000
51.1800 390.0000 1.0000
51.1900 391.0000 1.0000
51.2000 430.0000 1.0000
51.2100 418.0000 1.0000
51.2200 393.0000 1.0000
51.2300 390.0000 1.0000
51.2400 457.0000 1.0000
51.2500 461.0000 1.0000
51.2600 465.0000 1.0000
51.2700 445.0000 1.0000
51.2800 489.0000 1.0000
51.2900 496.0000 1.0000
51.3000 499.0000 1.0000
51.3100 537.0000 1.0000
51.3200 547.0000 1.0000
51.3300 560.0000 1.0000
51.3400 575.0000 1.0000
51.3500 584.0000 1.0000
51.3600 599.0000 1.0000
51.3700 646.0000 1.0000
51.3800 713.0000 1.0000
51.3900 734.0000 1.0000
51.4000 734.0000 1.0000
51.4100 795.0000 1.0000
51.4200 853.0000 1.0000
51.4300 808.0000 1.0000
51.4400 894.0000 1.0000
51.4500 905.0000 1.0000
51.4600 925.0000 1.0000
51.4700 937.0000 1.0000
51.4800 1001.0000 1.0000
51.4900 929.0000 1.0000
51.5000 949.0000 1.0000
51.5100 907.0000 1.0000
51.5200 910.0000 1.0000
51.5300 917.0000 1.0000
51.5400 870.0000 1.0000
51.5500 915.0000 1.0000
51.5600 859.0000 1.0000
51.5700 918.0000 1.0000
51.5800 853.0000 1.0000
51.5900 830.0000 1.0000
51.6000 830.0000 1.0000
51.6100 816.0000 1.0000
51.6200 795.0000 1.0000
51.6300 737.0000 1.0000
51.6400 717.0000 1.0000
51.6500 682.0000 1.0000
51.6600 647.0000 1.0000
51.6700 600.0000 1.0000
51.6800 649.0000 1.0000
51.6900 602.0000 1.0000
51.7000 584.0000 1.0000
51.7100 589.0000 1.0000
51.7200 556.0000 1.0000
51.7300 560.0000 1.0000
51.7400 507.0000 1.0000
51.7500 499.0000 1.0000
51.7600 488.0000 1.0000
51.7700 487.0000 1.0000
51.7800 481.0000 1.0000
51.7900 441.0000 1.0000
51.8000 483.0000 1.0000
51.8100 456.0000 1.0000
51.8200 435.0000 1.0000
51.8300 444.0000 1.0000
51.8400 398.0000 1.0000
51.8500 419.0000 1.0000
51.8600 455.0000 1.0000
51.8700 422.0000 1.0000
51.8800 424.0000 1.0000
51.8900 401.0000 1.0000
51.9000 372.0000 1.0000
51.9100 380.0000 1.0000
51.9200 387.0000 1.0000
51.9300 394.0000 1.0000
51.9400 371.0000 1.0000
51.9500 367.0000 1.0000
51.9600 391.0000 1.0000
51.9700 381.0000 1.0000
51.9800 383.0000 1.0000
51.9900 316.0000 1.0000
52.0000 339.0000 1.0000
52.0100 324.0000 1.0000
52.0200 358.0000 1.0000
52.0300 357.0000 1.0000
52.0400 356.0000 1.0000
52.0500 333.0000 1.0000
52.0600 345.0000 1.0000
52.0700 337.0000 1.0000
52.0800 363.0000 1.0000
52.0900 376.0000 1.0000
52.1000 349.0000 1.0000
52.1100 344.0000 1.0000
52.1200 334.0000 1.0000
52.1300 339.0000 1.0000
52.1400 353.0000 1.0000
52.1500 355.0000 1.0000
52.1600 375.0000 1.0000
52.1700 347.0000 1.0000
52.1800 346.0000 1.0000
52.1900 335.0000 1.0000
52.2000 345.0000 1.0000
52.2100 336.0000 1.0000
52.2200 330.0000 1.0000
52.2300 346.0000 1.0000
52.2400 330.0000 1.0000
52.2500 337.0000 1.0000
52.2600 357.0000 1.0000
52.2700 341.0000 1.0000
52.2800 372.0000 1.0000
52.2900 341.0000 1.0000
52.3000 336.0000 1.0000
52.3100 342.0000 1.0000
52.3200 335.0000 1.0000
52.3300 335.0000 1.0000
52.3400 352.0000 1.0000
52.3500 331.0000 1.0000
52.3600 316.0000 1.0000
52.3700 339.0000 1.0000
52.3800 326.0000 1.0000
52.3900 321.0000 1.0000
52.4000 328.0000 1.0000
52.4100 336.0000 1.0000
52.4200 334.0000 1.0000
52.4300 325.0000 1.0000
52.4400 326.0000 1.0000
52.4500 320.0000 1.0000
52.4600 318.0000 1.0000
52.4700 334.0000 1.0000
52.4800 340.0000 1.0000
52.4900 327.0000 1.0000
52.5000 313.0000 1.0000
52.5100 325.0000 1.0000
52.5200 320.0000 1.0000
52.5300 317.0000 1.0000
52.5400 337.0000 1.0000
52.5500 325.0000 1.0000
52.5600 324.0000 1.0000
52.5700 324.0000 1.0000
52.5800 355.0000 1.0000
52.5900 342.0000 1.0000
52.6000 325.0000 1.0000
52.6100 327.0000 1.0000
52.6200 315.0000 1.0000
52.6300 322.0000 1.0000
52.6400 300.0000 1.0000
52.6500 321.0000 1.0000
52.6600 355.0000 1.0000
52.6700 308.0000 1.0000
52.6800 325.0000 1.0000
52.6900 316.0000 1.0000
52.7000 326.0000 1.0000
52.7100 354.0000 1.0000
52.7200 313.0000 1.0000
52.7300 329.0000 1.0000
52.7400 310.0000 1.0000
52.7500 297.0000 1.0000
52.7600 308.0000 1.0000
52.7700 315.0000 1.0000
52.7800 317.0000 1.0000
52.7900 291.0000 1.0000
52.8000 319.0000 1.0000
52.8100 328.0000 1.0000
52.8200 319.0000 1.0000
52.8300 315.0000 1.0000
52.8400 320.0000 1.0000
52.8500 341.0000 1.0000
52.8600 354.0000 1.0000
52.8700 332.0000 1.0000
52.8800 309.0000 1.0000
52.8900 330.0000 1.0000
52.9000 331.0000 1.0000
52.9100 315.0000 1.0000
52.9200 319.0000 1.0000
52.9300 317.0000 1.0000
52.9400 312.0000 1.0000
52.9500 295.0000 1.0000
52.9600 320.0000 1.0000
52.9700 302.0000 1.0000
52.9800 300.0000 1.0000
52.9900 300.0000 1.0000
53.0000 319.0000 1.0000
53.0100 350.0000 1.0000
53.0200 343.0000 1.0000
53.0300 324.0000 1.0000
53.0400 307.0000 1.0000
53.0500 333.0000 1.0000
53.0600 313.0000 1.0000
53.0700 320.0000 1.0000
53.0800 309.0000 1.0000
53.0900 322.0000 1.0000
53.1000 338.0000 1.0000
53.1100 316.0000 1.0000
53.1200 337.0000 1.0000
53.1300 331.0000 1.0000
53.1400 343.0000 1.0000
53.1500 309.0000 1.0000
53.1600 343.0000 1.0000
53.1700 291.0000 1.0000
53.1800 268.0000 1.0000
53.1900 296.0000 1.0000
53.2000 293.0000 1.0000
53.2100 326.0000 1.0000
53.2200 315.0000 1.0000
53.2300 303.0000 1.0000
53.2400 323.0000 1.0000
53.2500 301.0000 1.0000
53.2600 339.0000 1.0000
53.2700 322.0000 1.0000
53.2800 292.0000 1.0000
53.2900 325.0000 1.0000
53.3000 345.0000 1.0000
53.3100 341.0000 1.0000
53.3200 347.0000 1.0000
53.3300 310.0000 1.0000
53.3400 293.0000 1.0000
53.3500 338.0000 1.0000
53.3600 349.0000 1.0000
53.3700 323.0000 1.0000
53.3800 344.0000 1.0000
53.3900 321.0000 1.0000
53.4000 317.0000 1.0000
53.4100 299.0000 1.0000
53.4200 318.0000 1.0000
53.4300 297.0000 1.0000
53.4400 319.0000 1.0000
53.4500 318.0000 1.0000
53.4600 314.0000 1.0000
53.4700 327.0000 1.0000
53.4800 311.0000 1.0000
53.4900 326.0000 1.0000
53.5000 332.0000 1.0000
53.5100 346.0000 1.0000
53.5200 333.0000 1.0000
53.5300 303.0000 1.0000
53.5400 347.0000 1.0000
53.5500 327.0000 1.0000
53.5600 299.0000 1.0000
53.5700 336.0000 1.0000
53.5800 316.0000 1.0000
53.5900 324.0000 1.0000
53.6000 327.0000 1.0000
53.6100 324.0000 1.0000
53.6200 321.0000 1.0000
53.6300 352.0000 1.0000
53.6400 303.0000 1.0000
53.6500 332.0000 1.0000
53.6600 330.0000 1.0000
53.6700 337.0000 1.0000
53.6800 343.0000 1.0000
53.6900 310.0000 1.0000
53.7000 318.0000 1.0000
53.7100 316.0000 1.0000
53.7200 307.0000 1.0000
53.7300 329.0000 1.0000
53.7400 339.0000 1.0000
53.7500 321.0000 1.0000
53.7600 310.0000 1.0000
53.7700 326.0000 1.0000
53.7800 317.0000 1.0000
53.7900 335.0000 1.0000
53.8000 322.0000 1.0000
53.8100 313.0000 1.0000
53.8200 338.0000 1.0000
53.8300 343.0000 1.0000
53.8400 357.0000 1.0000
53.8500 318.0000 1.0000
53.8600 311.0000 1.0000
53.8700 308.0000 1.0000
53.8800 322.0000 1.0000
53.8900 362.0000 1.0000
53.9000 333.0000 1.0000
53.9100 320.0000 1.0000
53.9200 356.0000 1.0000
53.9300 350.0000 1.0000
53.9400 360.0000 1.0000
53.9500 358.0000 1.0000
53.9600 349.0000 1.0000
53.9700 357.0000 1.0000
53.9800 345.0000 1.0000
53.9900 399.0000 1.0000
54.0000 381.0000 1.0000
54.0100 391.0000 1.0000
54.0200 378.0000 1.0000
54.0300 368.0000 1.0000
54.0400 391.0000 1.0000
54.0500 351.0000 1.0000
54.0600 355.0000 1.0000
54.0700 379.0000 1.0000
54.0800 381.0000 1.0000
54.0900 359.0000 1.0000
54.1000 377.0000 1.0000
54.1100 377.0000 1.0000
54.1200 365.0000 1.0000
54.1300 379.0000 1.0000
54.1400 371.0000 1.0000
54.1500 354.0000 1.0000
54.1600 360.0000 1.0000
54.1700 346.0000 1.0000
54.1800 393.0000 1.0000
54.1900 359.0000 1.0000
54.2000 354.0000 1.0000
54.2100 369.0000 1.0000
54.2200 378.0000 1.0000
54.2300 331.0000 1.0000
54.2400 342.0000 1.0000
54.2500 350.0000 1.0000
54.2600 352.0000 1.0000
54.2700 322.0000 1.0000
54.2800 372.0000 1.0000
54.2900 362.0000 1.0000
54.3000 360.0000 1.0000
54.3100 348.0000 1.0000
54.3200 367.0000 1.0000
54.3300 333.0000 1.0000
54.3400 321.0000 1.0000
54.3500 342.0000 1.0000
54.3600 375.0000 1.0000
54.3700 348.0000 1.0000
54.3800 343.0000 1.0000
54.3900 373.0000 1.0000
54.4000 351.0000 1.0000
54.4100 349.0000 1.0000
54.4200 353.0000 1.0000
54.4300 371.0000 1.0000
54.4400 336.0000 1.0000
54.4500 376.0000 1.0000
54.4600 373.0000 1.0000
54.4700 385.0000 1.0000
54.4800 372.0000 1.0000
54.4900 382.0000 1.0000
54.5000 377.0000 1.0000
54.5100 403.0000 1.0000
54.5200 384.0000 1.0000
54.5300 372.0000 1.0000
54.5400 359.0000 1.0000
54.5500 384.0000 1.0000
54.5600 368.0000 1.0000
54.5700 360.0000 1.0000
54.5800 349.0000 1.0000
54.5900 381.0000 1.0000
54.6000 378.0000 1.0000
54.6100 341.0000 1.0000
54.6200 354.0000 1.0000
54.6300 363.0000 1.0000
54.6400 347.0000 1.0000
54.6500 371.0000 1.0000
54.6600 357.0000 1.0000
54.6700 361.0000 1.0000
54.6800 369.0000 1.0000
54.6900 350.0000 1.0000
54.7000 364.0000 1.0000
54.7100 370.0000 1.0000
54.7200 346.0000 1.0000
54.7300 347.0000 1.0000
54.7400 344.0000 1.0000
54.7500 348.0000 1.0000
54.7600 366.0000 1.0000
54.7700 334.0000 1.0000
54.7800 353.0000 1.0000
54.7900 344.0000 1.0000
54.8000 320.0000 1.0000
54.8100 339.0000 1.0000
54.8200 322.0000 1.0000
54.8300 312.0000 1.0000
54.8400 328.0000 1.0000
54.8500 363.0000 1.0000
54.8600 323.0000 1.0000
54.8700 320.0000 1.0000
54.8800 352.0000 1.0000
54.8900 334.0000 1.0000
54.9000 326.0000 1.0000
54.9100 323.0000 1.0000
54.9200 308.0000 1.0000
54.9300 321.0000 1.0000
54.9400 374.0000 1.0000
54.9500 316.0000 1.0000
54.9600 321.0000 1.0000
54.9700 320.0000 1.0000
54.9800 325.0000 1.0000
54.9900 336.0000 1.0000
55.0000 322.0000 1.0000
55.0100 310.0000 1.0000
55.0200 309.0000 1.0000
55.0300 308.0000 1.0000
55.0400 308.0000 1.0000
55.0500 340.0000 1.0000
55.0600 333.0000 1.0000
55.0700 304.0000 1.0000
55.0800 308.0000 1.0000
55.0900 317.0000 1.0000
55.1000 313.0000 1.0000
55.1100 325.0000 1.0000
55.1200 321.0000 1.0000
55.1300 306.0000 1.0000
55.1400 330.0000 1.0000
55.1500 310.0000 1.0000
55.1600 309.0000 1.0000
55.1700 316.0000 1.0000
55.1800 329.0000 1.0000
55.1900 320.0000 1.0000
55.2000 321.0000 1.0000
55.2100 300.0000 1.0000
55.2200 306.0000 1.0000
55.2300 339.0000 1.0000
55.2400 337.0000 1.0000
55.2500 318.0000 1.0000
55.2600 331.0000 1.0000
55.2700 321.0000 1.0000
55.2800 282.0000 1.0000
55.2900 305.0000 1.0000
55.3000 311.0000 1.0000
55.3100 311.0000 1.0000
55.3200 307.0000 1.0000
55.3300 281.0000 1.0000
55.3400 287.0000 1.0000
55.3500 278.0000 1.0000
55.3600 298.0000 1.0000
55.3700 304.0000 1.0000
55.3800 291.0000 1.0000
55.3900 286.0000 1.0000
55.4000 328.0000 1.0000
55.4100 315.0000 1.0000
55.4200 332.0000 1.0000
55.4300 310.0000 1.0000
55.4400 315.0000 1.0000
55.4500 295.0000 1.0000
55.4600 298.0000 1.0000
55.4700 323.0000 1.0000
55.4800 295.0000 1.0000
55.4900 305.0000 1.0000
55.5000 311.0000 1.0000
55.5100 307.0000 1.0000
55.5200 303.0000 1.0000
55.5300 297.0000 1.0000
55.5400 273.0000 1.0000
55.5500 282.0000 1.0000
55.5600 302.0000 1.0000
55.5700 312.0000 1.0000
55.5800 317.0000 1.0000
55.5900 325.0000 1.0000
55.6000 319.0000 1.0000
55.6100 319.0000 1.0000
55.6200 295.0000 1.0000
55.6300 313.0000 1.0000
55.6400 301.0000 1.0000
55.6500 326.0000 1.0000
55.6600 338.0000 1.0000
55.6700 313.0000 1.0000
55.6800 301.0000 1.0000
55.6900 319.0000 1.0000
55.7000 277.0000 1.0000
55.7100 300.0000 1.0000
55.7200 333.0000 1.0000
55.7300 317.0000 1.0000
55.7400 328.0000 1.0000
55.7500 359.0000 1.0000
55.7600 343.0000 1.0000
55.7700 311.0000 1.0000
55.7800 284.0000 1.0000
55.7900 352.0000 1.0000
55.8000 343.0000 1.0000
55.8100 312.0000 1.0000
55.8200 309.0000 1.0000
55.8300 328.0000 1.0000
55.8400 314.0000 1.0000
55.8500 324.0000 1.0000
55.8600 315.0000 1.0000
55.8700 303.0000 1.0000
55.8800 312.0000 1.0000
55.8900 306.0000 1.0000
55.9000 338.0000 1.0000
55.9100 329.0000 1.0000
55.9200 347.0000 1.0000
55.9300 321.0000 1.0000
55.9400 323.0000 1.0000
55.9500 306.0000 1.0000
55.9600 308.0000 1.0000
55.9700 321.0000 1.0000
55.9800 302.0000 1.0000
55.9900 327.0000 1.0000
56.0000 320.0000 1.0000
56.0100 310.0000 1.0000
56.0200 338.0000 1.0000
56.0300 293.0000 1.0000
56.0400 322.0000 1.0000
56.0500 312.0000 1.0000
56.0600 314.0000 1.0000
56.0700 312.0000 1.0000
56.0800 321.0000 1.0000
56.0900 325.0000 1.0000
56.1000 313.0000 1.0000
56.1100 323.0000 1.0000
56.1200 353.0000 1.0000
56.1300 353.0000 1.0000
56.1400 337.0000 1.0000
56.1500 321.0000 1.0000
56.1600 299.0000 1.0000
56.1700 298.0000 1.0000
56.1800 305.0000 1.0000
56.1900 282.0000 1.0000
56.2000 301.0000 1.0000
56.2100 320.0000 1.0000
56.2200 309.0000 1.0000
56.2300 317.0000 1.0000
56.2400 313.0000 1.0000
56.2500 302.0000 1.0000
56.2600 284.0000 1.0000
56.2700 289.0000 1.0000
56.2800 307.0000 1.0000
56.2900 302.0000 1.0000
56.3000 301.0000 1.0000
56.3100 314.0000 1.0000
56.3200 332.0000 1.0000
56.3300 344.0000 1.0000
56.3400 328.0000 1.0000
56.3500 310.0000 1.0000
56.3600 295.0000 1.0000
56.3700 307.0000 1.0000
56.3800 319.0000 1.0000
56.3900 294.0000 1.0000
56.4000 291.0000 1.0000
56.4100 281.0000 1.0000
56.4200 283.0000 1.0000
56.4300 312.0000 1.0000
56.4400 312.0000 1.0000
56.4500 273.0000 1.0000
56.4600 317.0000 1.0000
56.4700 319.0000 1.0000
56.4800 285.0000 1.0000
56.4900 296.0000 1.0000
56.5000 289.0000 1.0000
56.5100 262.0000 1.0000
56.5200 306.0000 1.0000
56.5300 302.0000 1.0000
56.5400 310.0000 1.0000
56.5500 294.0000 1.0000
56.5600 312.0000 1.0000
56.5700 324.0000 1.0000
56.5800 302.0000 1.0000
56.5900 297.0000 1.0000
56.6000 353.0000 1.0000
56.6100 303.0000 1.0000
56.6200 277.0000 1.0000
56.6300 294.0000 1.0000
56.6400 305.0000 1.0000
56.6500 303.0000 1.0000
56.6600 291.0000 1.0000
56.6700 329.0000 1.0000
56.6800 329.0000 1.0000
56.6900 304.0000 1.0000
56.7000 311.0000 1.0000
56.7100 304.0000 1.0000
56.7200 322.0000 1.0000
56.7300 275.0000 1.0000
56.7400 285.0000 1.0000
56.7500 310.0000 1.0000
56.7600 298.0000 1.0000
56.7700 309.0000 1.0000
56.7800 327.0000 1.0000
56.7900 322.0000 1.0000
56.8000 298.0000 1.0000
56.8100 292.0000 1.0000
56.8200 289.0000 1.0000
56.8300 308.0000 1.0000
56.8400 286.0000 1.0000
56.8500 299.0000 1.0000
56.8600 301.0000 1.0000
56.8700 319.0000 1.0000
56.8800 328.0000 1.0000
56.8900 325.0000 1.0000
56.9000 314.0000 1.0000
56.9100 324.0000 1.0000
56.9200 313.0000 1.0000
56.9300 305.0000 1.0000
56.9400 325.0000 1.0000
56.9500 306.0000 1.0000
56.9600 297.0000 1.0000
56.9700 325.0000 1.0000
56.9800 292.0000 1.0000
56.9900 311.0000 1.0000
57.0000 298.0000 1.0000
57.0100 312.0000 1.0000
57.0200 307.0000 1.0000
57.0300 316.0000 1.0000
57.0400 285.0000 1.0000
57.0500 282.0000 1.0000
57.0600 304.0000 1.0000
57.0700 316.0000 1.0000
57.0800 305.0000 1.0000
57.0900 324.0000 1.0000
57.1000 316.0000 1.0000
57.1100 300.0000 1.0000
57.1200 295.0000 1.0000
57.1300 290.0000 1.0000
57.1400 291.0000 1.0000
57.1500 317.0000 1.0000
57.1600 313.0000 1.0000
57.1700 279.0000 1.0000
57.1800 304.0000 1.0000
57.1900 299.0000 1.0000
57.2000 319.0000 1.0000
57.2100 285.0000 1.0000
57.2200 270.0000 1.0000
57.2300 294.0000 1.0000
57.2400 300.0000 1.0000
57.2500 286.0000 1.0000
57.2600 299.0000 1.0000
57.2700 303.0000 1.0000
57.2800 300.0000 1.0000
57.2900 296.0000 1.0000
57.3000 326.0000 1.0000
57.3100 299.0000 1.0000
57.3200 326.0000 1.0000
57.3300 306.0000 1.0000
57.3400 326.0000 1.0000
57.3500 313.0000 1.0000
57.3600 296.0000 1.0000
57.3700 313.0000 1.0000
57.3800 309.0000 1.0000
57.3900 318.0000 1.0000
57.4000 302.0000 1.0000
57.4100 326.0000 1.0000
57.4200 287.0000 1.0000
57.4300 312.0000 1.0000
57.4400 309.0000 1.0000
57.4500 348.0000 1.0000
57.4600 345.0000 1.0000
57.4700 321.0000 1.0000
57.4800 317.0000 1.0000
57.4900 304.0000 1.0000
57.5000 314.0000 1.0000
57.5100 323.0000 1.0000
57.5200 322.0000 1.0000
57.5300 286.0000 1.0000
57.5400 324.0000 1.0000
57.5500 314.0000 1.0000
57.5600 320.0000 1.0000
57.5700 326.0000 1.0000
57.5800 328.0000 1.0000
57.5900 309.0000 1.0000
57.6000 319.0000 1.0000
57.6100 330.0000 1.0000
57.6200 321.0000 1.0000
57.6300 300.0000 1.0000
57.6400 303.0000 1.0000
57.6500 309.0000 1.0000
57.6600 324.0000 1.0000
57.6700 309.0000 1.0000
57.6800 297.0000 1.0000
57.6900 282.0000 1.0000
57.7000 283.0000 1.0000
57.7100 296.0000 1.0000
57.7200 322.0000 1.0000
57.7300 318.0000 1.0000
57.7400 295.0000 1.0000
57.7500 322.0000 1.0000
57.7600 345.0000 1.0000
57.7700 299.0000 1.0000
57.7800 297.0000 1.0000
57.7900 307.0000 1.0000
57.8000 324.0000 1.0000
57.8100 298.0000 1.0000
57.8200 303.0000 1.0000
57.8300 307.0000 1.0000
57.8400 319.0000 1.0000
57.8500 331.0000 1.0000
57.8600 293.0000 1.0000
57.8700 307.0000 1.0000
57.8800 315.0000 1.0000
57.8900 310.0000 1.0000
57.9000 307.0000 1.0000
57.9100 306.0000 1.0000
57.9200 324.0000 1.0000
57.9300 330.0000 1.0000
57.9400 332.0000 1.0000
57.9500 325.0000 1.0000
57.9600 292.0000 1.0000
57.9700 314.0000 1.0000
57.9800 305.0000 1.0000
57.9900 297.0000 1.0000
58.0000 269.0000 1.0000
58.0100 305.0000 1.0000
58.0200 296.0000 1.0000
58.0300 296.0000 1.0000
58.0400 284.0000 1.0000
58.0500 286.0000 1.0000
58.0600 294.0000 1.0000
58.0700 300.0000 1.0000
58.0800 314.0000 1.0000
58.0900 297.0000 1.0000
58.1000 297.0000 1.0000
58.1100 317.0000 1.0000
58.1200 276.0000 1.0000
58.1300 309.0000 1.0000
58.1400 295.0000 1.0000
58.1500 312.0000 1.0000
58.1600 297.0000 1.0000
58.1700 304.0000 1.0000
58.1800 313.0000 1.0000
58.1900 290.0000 1.0000
58.2000 311.0000 1.0000
58.2100 292.0000 1.0000
58.2200 321.0000 1.0000
58.2300 322.0000 1.0000
58.2400 292.0000 1.0000
58.2500 286.0000 1.0000
58.2600 299.0000 1.0000
58.2700 312.0000 1.0000
58.2800 293.0000 1.0000
58.2900 279.0000 1.0000
58.3000 305.0000 1.0000
58.3100 306.0000 1.0000
58.3200 284.0000 1.0000
58.3300 306.0000 1.0000
58.3400 293.0000 1.0000
58.3500 304.0000 1.0000
58.3600 340.0000 1.0000
58.3700 295.0000 1.0000
58.3800 299.0000 1.0000
58.3900 282.0000 1.0000
58.4000 327.0000 1.0000
58.4100 309.0000 1.0000
58.4200 315.0000 1.0000
58.4300 281.0000 1.0000
58.4400 295.0000 1.0000
58.4500 284.0000 1.0000
58.4600 317.0000 1.0000
58.4700 332.0000 1.0000
58.4800 324.0000 1.0000
58.4900 285.0000 1.0000
58.5000 319.0000 1.0000
58.5100 311.0000 1.0000
58.5200 309.0000 1.0000
58.5300 296.0000 1.0000
58.5400 298.0000 1.0000
58.5500 327.0000 1.0000
58.5600 273.0000 1.0000
58.5700 310.0000 1.0000
58.5800 325.0000 1.0000
58.5900 301.0000 1.0000
58.6000 287.0000 1.0000
58.6100 264.0000 1.0000
58.6200 301.0000 1.0000
58.6300 302.0000 1.0000
58.6400 315.0000 1.0000
58.6500 299.0000 1.0000
58.6600 273.0000 1.0000
58.6700 303.0000 1.0000
58.6800 303.0000 1.0000
58.6900 317.0000 1.0000
58.7000 315.0000 1.0000
58.7100 307.0000 1.0000
58.7200 347.0000 1.0000
58.7300 268.0000 1.0000
58.7400 285.0000 1.0000
58.7500 277.0000 1.0000
58.7600 303.0000 1.0000
58.7700 302.0000 1.0000
58.7800 283.0000 1.0000
58.7900 297.0000 1.0000
58.8000 305.0000 1.0000
58.8100 313.0000 1.0000
58.8200 287.0000 1.0000
58.8300 282.0000 1.0000
58.8400 300.0000 1.0000
58.8500 287.0000 1.0000
58.8600 298.0000 1.0000
58.8700 341.0000 1.0000
58.8800 308.0000 1.0000
58.8900 316.0000 1.0000
58.9000 257.0000 1.0000
58.9100 270.0000 1.0000
58.9200 314.0000 1.0000
58.9300 288.0000 1.0000
58.9400 280.0000 1.0000
58.9500 282.0000 1.0000
58.9600 304.0000 1.0000
58.9700 288.0000 1.0000
58.9800 298.0000 1.0000
58.9900 314.0000 1.0000
59.0000 302.0000 1.0000
59.0100 292.0000 1.0000
59.0200 301.0000 1.0000
59.0300 297.0000 1.0000
59.0400 301.0000 1.0000
59.0500 283.0000 1.0000
59.0600 312.0000 1.0000
59.0700 297.0000 1.0000
59.0800 314.0000 1.0000
59.0900 257.0000 1.0000
59.1000 291.0000 1.0000
59.1100 283.0000 1.0000
59.1200 293.0000 1.0000
59.1300 308.0000 1.0000
59.1400 302.0000 1.0000
59.1500 324.0000 1.0000
59.1600 316.0000 1.0000
59.1700 316.0000 1.0000
59.1800 314.0000 1.0000
59.1900 306.0000 1.0000
59.2000 295.0000 1.0000
59.2100 289.0000 1.0000
59.2200 291.0000 1.0000
59.2300 297.0000 1.0000
59.2400 295.0000 1.0000
59.2500 312.0000 1.0000
59.2600 274.0000 1.0000
59.2700 288.0000 1.0000
59.2800 301.0000 1.0000
59.2900 297.0000 1.0000
59.3000 270.0000 1.0000
59.3100 314.0000 1.0000
59.3200 310.0000 1.0000
59.3300 295.0000 1.0000
59.3400 307.0000 1.0000
59.3500 289.0000 1.0000
59.3600 294.0000 1.0000
59.3700 301.0000 1.0000
59.3800 311.0000 1.0000
59.3900 317.0000 1.0000
59.4000 297.0000 1.0000
59.4100 309.0000 1.0000
59.4200 318.0000 1.0000
59.4300 307.0000 1.0000
59.4400 294.0000 1.0000
59.4500 288.0000 1.0000
59.4600 313.0000 1.0000
59.4700 315.0000 1.0000
59.4800 273.0000 1.0000
59.4900 302.0000 1.0000
59.5000 308.0000 1.0000
59.5100 309.0000 1.0000
59.5200 287.0000 1.0000
59.5300 290.0000 1.0000
59.5400 286.0000 1.0000
59.5500 326.0000 1.0000
59.5600 311.0000 1.0000
59.5700 322.0000 1.0000
59.5800 305.0000 1.0000
59.5900 303.0000 1.0000
59.6000 303.0000 1.0000
59.6100 310.0000 1.0000
59.6200 303.0000 1.0000
59.6300 286.0000 1.0000
59.6400 286.0000 1.0000
59.6500 274.0000 1.0000
59.6600 307.0000 1.0000
59.6700 323.0000 1.0000
59.6800 301.0000 1.0000
59.6900 308.0000 1.0000
59.7000 274.0000 1.0000
59.7100 284.0000 1.0000
59.7200 274.0000 1.0000
59.7300 319.0000 1.0000
59.7400 290.0000 1.0000
59.7500 300.0000 1.0000
59.7600 292.0000 1.0000
59.7700 309.0000 1.0000
59.7800 302.0000 1.0000
59.7900 337.0000 1.0000
59.8000 312.0000 1.0000
59.8100 300.0000 1.0000
59.8200 300.0000 1.0000
59.8300 307.0000 1.0000
59.8400 282.0000 1.0000
59.8500 318.0000 1.0000
59.8600 287.0000 1.0000
59.8700 306.0000 1.0000
59.8800 309.0000 1.0000
59.8900 268.0000 1.0000
59.9000 302.0000 1.0000
59.9100 324.0000 1.0000
59.9200 310.0000 1.0000
59.9300 302.0000 1.0000
59.9400 298.0000 1.0000
59.9500 284.0000 1.0000
59.9600 291.0000 1.0000
59.9700 314.0000 1.0000
59.9800 337.0000 1.0000
59.9900 333.0000 1.0000
60.0000 307.0000 1.0000
60.0100 301.0000 1.0000
60.0200 337.0000 1.0000
60.0300 316.0000 1.0000
60.0400 318.0000 1.0000
60.0500 326.0000 1.0000
60.0600 325.0000 1.0000
60.0700 322.0000 1.0000
60.0800 287.0000 1.0000
60.0900 297.0000 1.0000
60.1000 293.0000 1.0000
60.1100 289.0000 1.0000
60.1200 311.0000 1.0000
60.1300 301.0000 1.0000
60.1400 308.0000 1.0000
60.1500 295.0000 1.0000
60.1600 274.0000 1.0000
60.1700 303.0000 1.0000
60.1800 323.0000 1.0000
60.1900 310.0000 1.0000
60.2000 287.0000 1.0000
60.2100 300.0000 1.0000
60.2200 320.0000 1.0000
60.2300 338.0000 1.0000
60.2400 315.0000 1.0000
60.2500 283.0000 1.0000
60.2600 298.0000 1.0000
60.2700 316.0000 1.0000
60.2800 314.0000 1.0000
60.2900 314.0000 1.0000
60.3000 300.0000 1.0000
60.3100 306.0000 1.0000
60.3200 296.0000 1.0000
60.3300 320.0000 1.0000
60.3400 312.0000 1.0000
60.3500 314.0000 1.0000
60.3600 323.0000 1.0000
60.3700 290.0000 1.0000
60.3800 296.0000 1.0000
60.3900 290.0000 1.0000
60.4000 284.0000 1.0000
60.4100 293.0000 1.0000
60.4200 308.0000 1.0000
60.4300 291.0000 1.0000
60.4400 297.0000 1.0000
60.4500 294.0000 1.0000
60.4600 292.0000 1.0000
60.4700 279.0000 1.0000
60.4800 295.0000 1.0000
60.4900 296.0000 1.0000
60.5000 272.0000 1.0000
60.5100 302.0000 1.0000
60.5200 293.0000 1.0000
60.5300 307.0000 1.0000
60.5400 302.0000 1.0000
60.5500 307.0000 1.0000
60.5600 320.0000 1.0000
60.5700 312.0000 1.0000
60.5800 299.0000 1.0000
60.5900 323.0000 1.0000
60.6000 288.0000 1.0000
60.6100 299.0000 1.0000
60.6200 322.0000 1.0000
60.6300 288.0000 1.0000
60.6400 311.0000 1.0000
60.6500 291.0000 1.0000
60.6600 313.0000 1.0000
60.6700 303.0000 1.0000
60.6800 281.0000 1.0000
60.6900 321.0000 1.0000
60.7000 319.0000 1.0000
60.7100 321.0000 1.0000
60.7200 326.0000 1.0000
60.7300 308.0000 1.0000
60.7400 329.0000 1.0000
60.7500 334.0000 1.0000
60.7600 319.0000 1.0000
60.7700 314.0000 1.0000
60.7800 307.0000 1.0000
60.7900 309.0000 1.0000
60.8000 322.0000 1.0000
60.8100 327.0000 1.0000
60.8200 303.0000 1.0000
60.8300 302.0000 1.0000
60.8400 294.0000 1.0000
60.8500 303.0000 1.0000
60.8600 324.0000 1.0000
60.8700 331.0000 1.0000
60.8800 294.0000 1.0000
60.8900 325.0000 1.0000
60.9000 299.0000 1.0000
60.9100 329.0000 1.0000
60.9200 339.0000 1.0000
60.9300 347.0000 1.0000
60.9400 326.0000 1.0000
60.9500 336.0000 1.0000
60.9600 328.0000 1.0000
60.9700 319.0000 1.0000
60.9800 356.0000 1.0000
60.9900 326.0000 1.0000
61.0000 293.0000 1.0000
61.0100 329.0000 1.0000
61.0200 340.0000 1.0000
61.0300 336.0000 1.0000
61.0400 348.0000 1.0000
61.0500 334.0000 1.0000
61.0600 319.0000 1.0000
61.0700 340.0000 1.0000
61.0800 335.0000 1.0000
61.0900 309.0000 1.0000
61.1000 308.0000 1.0000
61.1100 321.0000 1.0000
61.1200 317.0000 1.0000
61.1300 330.0000 1.0000
61.1400 364.0000 1.0000
61.1500 359.0000 1.0000
61.1600 356.0000 1.0000
61.1700 359.0000 1.0000
61.1800 380.0000 1.0000
61.1900 373.0000 1.0000
61.2000 362.0000 1.0000
61.2100 355.0000 1.0000
61.2200 373.0000 1.0000
61.2300 347.0000 1.0000
61.2400 367.0000 1.0000
61.2500 410.0000 1.0000
61.2600 423.0000 1.0000
61.2700 354.0000 1.0000
61.2800 364.0000 1.0000
61.2900 380.0000 1.0000
61.3000 385.0000 1.0000
61.3100 418.0000 1.0000
61.3200 391.0000 1.0000
61.3300 441.0000 1.0000
61.3400 415.0000 1.0000
61.3500 416.0000 1.0000
61.3600 427.0000 1.0000
61.3700 443.0000 1.0000
61.3800 468.0000 1.0000
61.3900 462.0000 1.0000
61.4000 479.0000 1.0000
61.4100 467.0000 1.0000
61.4200 466.0000 1.0000
61.4300 516.0000 1.0000
61.4400 501.0000 1.0000
61.4500 493.0000 1.0000
61.4600 505.0000 1.0000
61.4700 490.0000 1.0000
61.4800 506.0000 1.0000
61.4900 545.0000 1.0000
61.5000 566.0000 1.0000
61.5100 572.0000 1.0000
61.5200 585.0000 1.0000
61.5300 536.0000 1.0000
61.5400 553.0000 1.0000
61.5500 564.0000 1.0000
61.5600 561.0000 1.0000
61.5700 580.0000 1.0000
61.5800 605.0000 1.0000
61.5900 596.0000 1.0000
61.6000 580.0000 1.0000
61.6100 583.0000 1.0000
61.6200 562.0000 1.0000
61.6300 572.0000 1.0000
61.6400 599.0000 1.0000
61.6500 531.0000 1.0000
61.6600 562.0000 1.0000
61.6700 553.0000 1.0000
61.6800 543.0000 1.0000
61.6900 593.0000 1.0000
61.7000 570.0000 1.0000
61.7100 574.0000 1.0000
61.7200 548.0000 1.0000
61.7300 526.0000 1.0000
61.7400 550.0000 1.0000
61.7500 528.0000 1.0000
61.7600 532.0000 1.0000
61.7700 482.0000 1.0000
61.7800 524.0000 1.0000
61.7900 496.0000 1.0000
61.8000 495.0000 1.0000
61.8100 488.0000 1.0000
61.8200 502.0000 1.0000
61.8300 492.0000 1.0000
61.8400 495.0000 1.0000
61.8500 497.0000 1.0000
61.8600 455.0000 1.0000
61.8700 425.0000 1.0000
61.8800 416.0000 1.0000
61.8900 434.0000 1.0000
61.9000 410.0000 1.0000
61.9100 438.0000 1.0000
61.9200 430.0000 1.0000
61.9300 446.0000 1.0000
61.9400 408.0000 1.0000
61.9500 431.0000 1.0000
61.9600 419.0000 1.0000
61.9700 385.0000 1.0000
61.9800 399.0000 1.0000
61.9900 384.0000 1.0000
62.0000 383.0000 1.0000
62.0100 385.0000 1.0000
62.0200 391.0000 1.0000
62.0300 369.0000 1.0000
62.0400 378.0000 1.0000
62.0500 385.0000 1.0000
62.0600 388.0000 1.0000
62.0700 360.0000 1.0000
62.0800 375.0000 1.0000
62.0900 376.0000 1.0000
62.1000 352.0000 1.0000
62.1100 387.0000 1.0000
62.1200 361.0000 1.0000
62.1300 369.0000 1.0000
62.1400 368.0000 1.0000
62.1500 365.0000 1.0000
62.1600 382.0000 1.0000
62.1700 350.0000 1.0000
62.1800 343.0000 1.0000
62.1900 350.0000 1.0000
62.2000 352.0000 1.0000
62.2100 340.0000 1.0000
62.2200 334.0000 1.0000
62.2300 355.0000 1.0000
62.2400 354.0000 1.0000
62.2500 350.0000 1.0000
62.2600 337.0000 1.0000
62.2700 340.0000 1.0000
62.2800 351.0000 1.0000
62.2900 367.0000 1.0000
62.3000 378.0000 1.0000
62.3100 361.0000 1.0000
62.3200 378.0000 1.0000
62.3300 395.0000 1.0000
62.3400 364.0000 1.0000
62.3500 367.0000 1.0000
62.3600 343.0000 1.0000
62.3700 371.0000 1.0000
62.3800 367.0000 1.0000
62.3900 342.0000 1.0000
62.4000 362.0000 1.0000
62.4100 370.0000 1.0000
62.4200 350.0000 1.0000
62.4300 372.0000 1.0000
62.4400 406.0000 1.0000
62.4500 372.0000 1.0000
62.4600 371.0000 1.0000
62.4700 393.0000 1.0000
62.4800 364.0000 1.0000
62.4900 372.0000 1.0000
62.5000 358.0000 1.0000
62.5100 353.0000 1.0000
62.5200 348.0000 1.0000
62.5300 330.0000 1.0000
62.5400 384.0000 1.0000
62.5500 355.0000 1.0000
62.5600 336.0000 1.0000
62.5700 323.0000 1.0000
62.5800 355.0000 1.0000
62.5900 352.0000 1.0000
62.6000 342.0000 1.0000
62.6100 316.0000 1.0000
62.6200 314.0000 1.0000
62.6300 316.0000 1.0000
62.6400 334.0000 1.0000
62.6500 313.0000 1.0000
62.6600 316.0000 1.0000
62.6700 325.0000 1.0000
62.6800 335.0000 1.0000
62.6900 334.0000 1.0000
62.7000 329.0000 1.0000
62.7100 327.0000 1.0000
62.7200 310.0000 1.0000
62.7300 319.0000 1.0000
62.7400 311.0000 1.0000
62.7500 316.0000 1.0000
62.7600 303.0000 1.0000
62.7700 319.0000 1.0000
62.7800 294.0000 1.0000
62.7900 312.0000 1.0000
62.8000 308.0000 1.0000
62.8100 339.0000 1.0000
62.8200 336.0000 1.0000
62.8300 320.0000 1.0000
62.8400 277.0000 1.0000
62.8500 282.0000 1.0000
62.8600 285.0000 1.0000
62.8700 308.0000 1.0000
62.8800 284.0000 1.0000
62.8900 289.0000 1.0000
62.9000 306.0000 1.0000
62.9100 325.0000 1.0000
62.9200 302.0000 1.0000
62.9300 288.0000 1.0000
62.9400 301.0000 1.0000
62.9500 286.0000 1.0000
62.9600 269.0000 1.0000
62.9700 317.0000 1.0000
62.9800 324.0000 1.0000
62.9900 286.0000 1.0000
63.0000 321.0000 1.0000
63.0100 327.0000 1.0000
63.0200 295.0000 1.0000
63.0300 315.0000 1.0000
63.0400 346.0000 1.0000
63.0500 326.0000 1.0000
63.0600 296.0000 1.0000
63.0700 315.0000 1.0000
63.0800 305.0000 1.0000
63.0900 314.0000 1.0000
63.1000 311.0000 1.0000
63.1100 316.0000 1.0000
63.1200 319.0000 1.0000
63.1300 325.0000 1.0000
63.1400 314.0000 1.0000
63.1500 296.0000 1.0000
63.1600 299.0000 1.0000
63.1700 303.0000 1.0000
63.1800 326.0000 1.0000
63.1900 298.0000 1.0000
63.2000 323.0000 1.0000
63.2100 302.0000 1.0000
63.2200 315.0000 1.0000
63.2300 310.0000 1.0000
63.2400 302.0000 1.0000
63.2500 308.0000 1.0000
63.2600 298.0000 1.0000
63.2700 305.0000 1.0000
63.2800 302.0000 1.0000
63.2900 304.0000 1.0000
63.3000 312.0000 1.0000
63.3100 314.0000 1.0000
63.3200 297.0000 1.0000
63.3300 279.0000 1.0000
63.3400 298.0000 1.0000
63.3500 311.0000 1.0000
63.3600 322.0000 1.0000
63.3700 304.0000 1.0000
63.3800 297.0000 1.0000
63.3900 296.0000 1.0000
63.4000 289.0000 1.0000
63.4100 291.0000 1.0000
63.4200 294.0000 1.0000
63.4300 295.0000 1.0000
63.4400 310.0000 1.0000
63.4500 319.0000 1.0000
63.4600 303.0000 1.0000
63.4700 333.0000 1.0000
63.4800 301.0000 1.0000
63.4900 287.0000 1.0000
63.5000 292.0000 1.0000
63.5100 300.0000 1.0000
63.5200 319.0000 1.0000
63.5300 297.0000 1.0000
63.5400 316.0000 1.0000
63.5500 300.0000 1.0000
63.5600 307.0000 1.0000
63.5700 281.0000 1.0000
63.5800 325.0000 1.0000
63.5900 298.0000 1.0000
63.6000 297.0000 1.0000
63.6100 301.0000 1.0000
63.6200 324.0000 1.0000
63.6300 322.0000 1.0000
63.6400 315.0000 1.0000
63.6500 294.0000 1.0000
63.6600 299.0000 1.0000
63.6700 308.0000 1.0000
63.6800 328.0000 1.0000
63.6900 333.0000 1.0000
63.7000 278.0000 1.0000
63.7100 332.0000 1.0000
63.7200 299.0000 1.0000
63.7300 329.0000 1.0000
63.7400 324.0000 1.0000
63.7500 341.0000 1.0000
63.7600 336.0000 1.0000
63.7700 327.0000 1.0000
63.7800 334.0000 1.0000
63.7900 319.0000 1.0000
63.8000 318.0000 1.0000
63.8100 369.0000 1.0000
63.8200 319.0000 1.0000
63.8300 359.0000 1.0000
63.8400 325.0000 1.0000
63.8500 355.0000 1.0000
63.8600 368.0000 1.0000
63.8700 391.0000 1.0000
63.8800 408.0000 1.0000
63.8900 365.0000 1.0000
63.9000 372.0000 1.0000
63.9100 419.0000 1.0000
63.9200 408.0000 1.0000
63.9300 441.0000 1.0000
63.9400 395.0000 1.0000
63.9500 445.0000 1.0000
63.9600 447.0000 1.0000
63.9700 444.0000 1.0000
63.9800 448.0000 1.0000
63.9900 418.0000 1.0000
64.0000 403.0000 1.0000
64.0100 426.0000 1.0000
64.0200 436.0000 1.0000
64.0300 408.0000 1.0000
64.0400 419.0000 1.0000
64.0500 376.0000 1.0000
64.0600 380.0000 1.0000
64.0700 399.0000 1.0000
64.0800 401.0000 1.0000
64.0900 371.0000 1.0000
64.1000 404.0000 1.0000
64.1100 410.0000 1.0000
64.1200 402.0000 1.0000
64.1300 366.0000 1.0000
64.1400 380.0000 1.0000
64.1500 393.0000 1.0000
64.1600 391.0000 1.0000
64.1700 389.0000 1.0000
64.1800 369.0000 1.0000
64.1900 358.0000 1.0000
64.2000 362.0000 1.0000
64.2100 317.0000 1.0000
64.2200 349.0000 1.0000
64.2300 359.0000 1.0000
64.2400 332.0000 1.0000
64.2500 331.0000 1.0000
64.2600 325.0000 1.0000
64.2700 351.0000 1.0000
64.2800 351.0000 1.0000
64.2900 308.0000 1.0000
64.3000 323.0000 1.0000
64.3100 335.0000 1.0000
64.3200 343.0000 1.0000
64.3300 318.0000 1.0000
64.3400 339.0000 1.0000
64.3500 326.0000 1.0000
64.3600 323.0000 1.0000
64.3700 317.0000 1.0000
64.3800 328.0000 1.0000
64.3900 312.0000 1.0000
64.4000 319.0000 1.0000
64.4100 322.0000 1.0000
64.4200 310.0000 1.0000
64.4300 294.0000 1.0000
64.4400 323.0000 1.0000
64.4500 312.0000 1.0000
64.4600 308.0000 1.0000
64.4700 299.0000 1.0000
64.4800 320.0000 1.0000
64.4900 318.0000 1.0000
64.5000 312.0000 1.0000
64.5100 303.0000 1.0000
64.5200 319.0000 1.0000
64.5300 328.0000 1.0000
64.5400 316.0000 1.0000
64.5500 314.0000 1.0000
64.5600 309.0000 1.0000
64.5700 319.0000 1.0000
64.5800 320.0000 1.0000
64.5900 306.0000 1.0000
64.6000 315.0000 1.0000
64.6100 298.0000 1.0000
64.6200 311.0000 1.0000
64.6300 307.0000 1.0000
64.6400 327.0000 1.0000
64.6500 315.0000 1.0000
64.6600 289.0000 1.0000
64.6700 320.0000 1.0000
64.6800 320.0000 1.0000
64.6900 309.0000 1.0000
64.7000 298.0000 1.0000
64.7100 287.0000 1.0000
64.7200 300.0000 1.0000
64.7300 309.0000 1.0000
64.7400 323.0000 1.0000
64.7500 304.0000 1.0000
64.7600 318.0000 1.0000
64.7700 298.0000 1.0000
64.7800 307.0000 1.0000
64.7900 330.0000 1.0000
64.8000 300.0000 1.0000
64.8100 319.0000 1.0000
64.8200 315.0000 1.0000
64.8300 330.0000 1.0000
64.8400 318.0000 1.0000
64.8500 340.0000 1.0000
64.8600 347.0000 1.0000
64.8700 325.0000 1.0000
64.8800 323.0000 1.0000
64.8900 332.0000 1.0000
64.9000 334.0000 1.0000
64.9100 317.0000 1.0000
64.9200 327.0000 1.0000
64.9300 325.0000 1.0000
64.9400 340.0000 1.0000
64.9500 317.0000 1.0000
64.9600 371.0000 1.0000
64.9700 341.0000 1.0000
64.9800 334.0000 1.0000
64.9900 353.0000 1.0000
65.0000 357.0000 1.0000
65.0100 329.0000 1.0000
65.0200 355.0000 1.0000
65.0300 357.0000 1.0000
65.0400 358.0000 1.0000
65.0500 338.0000 1.0000
65.0600 358.0000 1.0000
65.0700 363.0000 1.0000
65.0800 356.0000 1.0000
65.0900 329.0000 1.0000
65.1000 363.0000 1.0000
65.1100 341.0000 1.0000
65.1200 362.0000 1.0000
65.1300 353.0000 1.0000
65.1400 346.0000 1.0000
65.1500 378.0000 1.0000
65.1600 380.0000 1.0000
65.1700 380.0000 1.0000
65.1800 376.0000 1.0000
65.1900 385.0000 1.0000
65.2000 376.0000 1.0000
65.2100 390.0000 1.0000
65.2200 417.0000 1.0000
65.2300 405.0000 1.0000
65.2400 407.0000 1.0000
65.2500 386.0000 1.0000
65.2600 424.0000 1.0000
65.2700 442.0000 1.0000
65.2800 426.0000 1.0000
65.2900 454.0000 1.0000
65.3000 455.0000 1.0000
65.3100 471.0000 1.0000
65.3200 472.0000 1.0000
65.3300 489.0000 1.0000
65.3400 523.0000 1.0000
65.3500 505.0000 1.0000
65.3600 494.0000 1.0000
65.3700 544.0000 1.0000
65.3800 573.0000 1.0000
65.3900 589.0000 1.0000
65.4000 610.0000 1.0000
65.4100 643.0000 1.0000
65.4200 668.0000 1.0000
65.4300 688.0000 1.0000
65.4400 700.0000 1.0000
65.4500 713.0000 1.0000
65.4600 738.0000 1.0000
65.4700 771.0000 1.0000
65.4800 790.0000 1.0000
65.4900 830.0000 1.0000
65.5000 790.0000 1.0000
65.5100 841.0000 1.0000
65.5200 823.0000 1.0000
65.5300 875.0000 1.0000
65.5400 860.0000 1.0000
65.5500 861.0000 1.0000
65.5600 825.0000 1.0000
65.5700 848.0000 1.0000
65.5800 849.0000 1.0000
65.5900 834.0000 1.0000
65.6000 791.0000 1.0000
65.6100 809.0000 1.0000
65.6200 754.0000 1.0000
65.6300 771.0000 1.0000
65.6400 756.0000 1.0000
65.6500 783.0000 1.0000
65.6600 729.0000 1.0000
65.6700 746.0000 1.0000
65.6800 719.0000 1.0000
65.6900 710.0000 1.0000
65.7000 674.0000 1.0000
65.7100 730.0000 1.0000
65.7200 615.0000 1.0000
65.7300 652.0000 1.0000
65.7400 613.0000 1.0000
65.7500 638.0000 1.0000
65.7600 602.0000 1.0000
65.7700 578.0000 1.0000
65.7800 575.0000 1.0000
65.7900 563.0000 1.0000
65.8000 522.0000 1.0000
65.8100 487.0000 1.0000
65.8200 499.0000 1.0000
65.8300 456.0000 1.0000
65.8400 457.0000 1.0000
65.8500 456.0000 1.0000
65.8600 468.0000 1.0000
65.8700 393.0000 1.0000
65.8800 439.0000 1.0000
65.8900 458.0000 1.0000
65.9000 431.0000 1.0000
65.9100 389.0000 1.0000
65.9200 420.0000 1.0000
65.9300 398.0000 1.0000
65.9400 383.0000 1.0000
65.9500 376.0000 1.0000
65.9600 381.0000 1.0000
65.9700 376.0000 1.0000
65.9800 381.0000 1.0000
65.9900 346.0000 1.0000
66.0000 383.0000 1.0000
66.0100 353.0000 1.0000
66.0200 350.0000 1.0000
66.0300 360.0000 1.0000
66.0400 356.0000 1.0000
66.0500 360.0000 1.0000
66.0600 361.0000 1.0000
66.0700 330.0000 1.0000
66.0800 352.0000 1.0000
66.0900 333.0000 1.0000
66.1000 338.0000 1.0000
66.1100 353.0000 1.0000
66.1200 343.0000 1.0000
66.1300 360.0000 1.0000
66.1400 312.0000 1.0000
66.1500 328.0000 1.0000
66.1600 298.0000 1.0000
66.1700 333.0000 1.0000
66.1800 313.0000 1.0000
66.1900 326.0000 1.0000
66.2000 353.0000 1.0000
66.2100 302.0000 1.0000
66.2200 307.0000 1.0000
66.2300 303.0000 1.0000
66.2400 300.0000 1.0000
66.2500 344.0000 1.0000
66.2600 305.0000 1.0000
66.2700 315.0000 1.0000
66.2800 309.0000 1.0000
66.2900 321.0000 1.0000
66.3000 312.0000 1.0000
66.3100 324.0000 1.0000
66.3200 315.0000 1.0000
66.3300 321.0000 1.0000
66.3400 309.0000 1.0000
66.3500 319.0000 1.0000
66.3600 300.0000 1.0000
66.3700 304.0000 1.0000
66.3800 325.0000 1.0000
66.3900 328.0000 1.0000
66.4000 323.0000 1.0000
66.4100 298.0000 1.0000
66.4200 317.0000 1.0000
66.4300 288.0000 1.0000
66.4400 293.0000 1.0000
66.4500 304.0000 1.0000
66.4600 287.0000 1.0000
66.4700 318.0000 1.0000
66.4800 296.0000 1.0000
66.4900 289.0000 1.0000
66.5000 303.0000 1.0000
66.5100 285.0000 1.0000
66.5200 288.0000 1.0000
66.5300 291.0000 1.0000
66.5400 309.0000 1.0000
66.5500 312.0000 1.0000
66.5600 269.0000 1.0000
66.5700 294.0000 1.0000
66.5800 306.0000 1.0000
66.5900 301.0000 1.0000
66.6000 306.0000 1.0000
66.6100 277.0000 1.0000
66.6200 283.0000 1.0000
66.6300 306.0000 1.0000
66.6400 304.0000 1.0000
66.6500 299.0000 1.0000
66.6600 286.0000 1.0000
66.6700 300.0000 1.0000
66.6800 250.0000 1.0000
66.6900 267.0000 1.0000
66.7000 299.0000 1.0000
66.7100 280.0000 1.0000
66.7200 270.0000 1.0000
66.7300 263.0000 1.0000
66.7400 290.0000 1.0000
66.7500 302.0000 1.0000
66.7600 314.0000 1.0000
66.7700 296.0000 1.0000
66.7800 291.0000 1.0000
66.7900 293.0000 1.0000
66.8000 305.0000 1.0000
66.8100 306.0000 1.0000
66.8200 288.0000 1.0000
66.8300 306.0000 1.0000
66.8400 314.0000 1.0000
66.8500 293.0000 1.0000
66.8600 283.0000 1.0000
66.8700 292.0000 1.0000
66.8800 276.0000 1.0000
66.8900 294.0000 1.0000
66.9000 297.0000 1.0000
66.9100 289.0000 1.0000
66.9200 267.0000 1.0000
66.9300 268.0000 1.0000
66.9400 268.0000 1.0000
66.9500 262.0000 1.0000
66.9600 313.0000 1.0000
66.9700 283.0000 1.0000
66.9800 278.0000 1.0000
66.9900 310.0000 1.0000
67.0000 270.0000 1.0000
67.0100 280.0000 1.0000
67.0200 272.0000 1.0000
67.0300 266.0000 1.0000
67.0400 269.0000 1.0000
67.0500 270.0000 1.0000
67.0600 274.0000 1.0000
67.0700 292.0000 1.0000
67.0800 292.0000 1.0000
67.0900 267.0000 1.0000
67.1000 269.0000 1.0000
67.1100 295.0000 1.0000
67.1200 289.0000 1.0000
67.1300 294.0000 1.0000
67.1400 280.0000 1.0000
67.1500 268.0000 1.0000
67.1600 297.0000 1.0000
67.1700 265.0000 1.0000
67.1800 283.0000 1.0000
67.1900 304.0000 1.0000
67.2000 315.0000 1.0000
67.2100 285.0000 1.0000
67.2200 275.0000 1.0000
67.2300 264.0000 1.0000
67.2400 275.0000 1.0000
67.2500 256.0000 1.0000
67.2600 260.0000 1.0000
67.2700 277.0000 1.0000
67.2800 281.0000 1.0000
67.2900 295.0000 1.0000
67.3000 290.0000 1.0000
67.3100 280.0000 1.0000
67.3200 256.0000 1.0000
67.3300 255.0000 1.0000
67.3400 246.0000 1.0000
67.3500 248.0000 1.0000
67.3600 257.0000 1.0000
67.3700 264.0000 1.0000
67.3800 274.0000 1.0000
67.3900 288.0000 1.0000
67.4000 296.0000 1.0000
67.4100 259.0000 1.0000
67.4200 261.0000 1.0000
67.4300 289.0000 1.0000
67.4400 280.0000 1.0000
67.4500 267.0000 1.0000
67.4600 279.0000 1.0000
67.4700 278.0000 1.0000
67.4800 290.0000 1.0000
67.4900 274.0000 1.0000
67.5000 261.0000 1.0000
67.5100 266.0000 1.0000
67.5200 282.0000 1.0000
67.5300 285.0000 1.0000
67.5400 284.0000 1.0000
67.5500 295.0000 1.0000
67.5600 277.0000 1.0000
67.5700 275.0000 1.0000
67.5800 276.0000 1.0000
67.5900 293.0000 1.0000
67.6000 274.0000 1.0000
67.6100 264.0000 1.0000
67.6200 273.0000 1.0000
67.6300 278.0000 1.0000
67.6400 284.0000 1.0000
67.6500 289.0000 1.0000
67.6600 261.0000 1.0000
67.6700 265.0000 1.0000
67.6800 255.0000 1.0000
67.6900 266.0000 1.0000
67.7000 266.0000 1.0000
67.7100 278.0000 1.0000
67.7200 276.0000 1.0000
67.7300 252.0000 1.0000
67.7400 271.0000 1.0000
67.7500 266.0000 1.0000
67.7600 258.0000 1.0000
67.7700 255.0000 1.0000
67.7800 285.0000 1.0000
67.7900 292.0000 1.0000
67.8000 266.0000 1.0000
67.8100 298.0000 1.0000
67.8200 264.0000 1.0000
67.8300 269.0000 1.0000
67.8400 291.0000 1.0000
67.8500 277.0000 1.0000
67.8600 274.0000 1.0000
67.8700 284.0000 1.0000
67.8800 321.0000 1.0000
67.8900 276.0000 1.0000
67.9000 262.0000 1.0000
67.9100 266.0000 1.0000
67.9200 262.0000 1.0000
67.9300 270.0000 1.0000
67.9400 292.0000 1.0000
67.9500 285.0000 1.0000
67.9600 248.0000 1.0000
67.9700 261.0000 1.0000
67.9800 296.0000 1.0000
67.9900 294.0000 1.0000
68.0000 267.0000 1.0000
68.0100 267.0000 1.0000
68.0200 281.0000 1.0000
68.0300 264.0000 1.0000
68.0400 282.0000 1.0000
68.0500 280.0000 1.0000
68.0600 287.0000 1.0000
68.0700 256.0000 1.0000
68.0800 245.0000 1.0000
68.0900 277.0000 1.0000
68.1000 292.0000 1.0000
68.1100 301.0000 1.0000
68.1200 270.0000 1.0000
68.1300 266.0000 1.0000
68.1400 253.0000 1.0000
68.1500 277.0000 1.0000
68.1600 298.0000 1.0000
68.1700 279.0000 1.0000
68.1800 272.0000 1.0000
68.1900 279.0000 1.0000
68.2000 267.0000 1.0000
68.2100 265.0000 1.0000
68.2200 280.0000 1.0000
68.2300 268.0000 1.0000
68.2400 286.0000 1.0000
68.2500 267.0000 1.0000
68.2600 281.0000 1.0000
68.2700 257.0000 1.0000
68.2800 257.0000 1.0000
68.2900 258.0000 1.0000
68.3000 253.0000 1.0000
68.3100 270.0000 1.0000
68.3200 281.0000 1.0000
68.3300 280.0000 1.0000
68.3400 281.0000 1.0000
68.3500 270.0000 1.0000
68.3600 254.0000 1.0000
68.3700 268.0000 1.0000
68.3800 280.0000 1.0000
68.3900 300.0000 1.0000
68.4000 272.0000 1.0000
68.4100 275.0000 1.0000
68.4200 292.0000 1.0000
68.4300 262.0000 1.0000
68.4400 286.0000 1.0000
68.4500 300.0000 1.0000
68.4600 262.0000 1.0000
68.4700 270.0000 1.0000
68.4800 276.0000 1.0000
68.4900 259.0000 1.0000
68.5000 243.0000 1.0000
68.5100 262.0000 1.0000
68.5200 280.0000 1.0000
68.5300 253.0000 1.0000
68.5400 285.0000 1.0000
68.5500 247.0000 1.0000
68.5600 276.0000 1.0000
68.5700 274.0000 1.0000
68.5800 260.0000 1.0000
68.5900 272.0000 1.0000
68.6000 259.0000 1.0000
68.6100 261.0000 1.0000
68.6200 260.0000 1.0000
68.6300 264.0000 1.0000
68.6400 279.0000 1.0000
68.6500 294.0000 1.0000
68.6600 256.0000 1.0000
68.6700 262.0000 1.0000
68.6800 269.0000 1.0000
68.6900 250.0000 1.0000
68.7000 262.0000 1.0000
68.7100 279.0000 1.0000
68.7200 254.0000 1.0000
68.7300 252.0000 1.0000
68.7400 251.0000 1.0000
68.7500 297.0000 1.0000
68.7600 264.0000 1.0000
68.7700 240.0000 1.0000
68.7800 253.0000 1.0000
68.7900 278.0000 1.0000
68.8000 275.0000 1.0000
68.8100 275.0000 1.0000
68.8200 259.0000 1.0000
68.8300 269.0000 1.0000
68.8400 232.0000 1.0000
68.8500 279.0000 1.0000
68.8600 273.0000 1.0000
68.8700 257.0000 1.0000
68.8800 282.0000 1.0000
68.8900 243.0000 1.0000
68.9000 258.0000 1.0000
68.9100 267.0000 1.0000
68.9200 282.0000 1.0000
68.9300 281.0000 1.0000
68.9400 262.0000 1.0000
68.9500 238.0000 1.0000
68.9600 258.0000 1.0000
68.9700 252.0000 1.0000
68.9800 257.0000 1.0000
68.9900 271.0000 1.0000
69.0000 291.0000 1.0000
69.0100 261.0000 1.0000
69.0200 262.0000 1.0000
69.0300 253.0000 1.0000
69.0400 267.0000 1.0000
69.0500 261.0000 1.0000
69.0600 250.0000 1.0000
69.0700 266.0000 1.0000
69.0800 260.0000 1.0000
69.0900 240.0000 1.0000
69.1000 263.0000 1.0000
69.1100 291.0000 1.0000
69.1200 270.0000 1.0000
69.1300 263.0000 1.0000
69.1400 265.0000 1.0000
69.1500 258.0000 1.0000
69.1600 283.0000 1.0000
69.1700 262.0000 1.0000
69.1800 284.0000 1.0000
69.1900 264.0000 1.0000
69.2000 251.0000 1.0000
69.2100 275.0000 1.0000
69.2200 255.0000 1.0000
69.2300 258.0000 1.0000
69.2400 272.0000 1.0000
69.2500 250.0000 1.0000
69.2600 248.0000 1.0000
69.2700 283.0000 1.0000
69.2800 248.0000 1.0000
69.2900 256.0000 1.0000
69.3000 264.0000 1.0000
69.3100 220.0000 1.0000
69.3200 249.0000 1.0000
69.3300 262.0000 1.0000
69.3400 251.0000 1.0000
69.3500 293.0000 1.0000
69.3600 263.0000 1.0000
69.3700 259.0000 1.0000
69.3800 257.0000 1.0000
69.3900 263.0000 1.0000
69.4000 238.0000 1.0000
69.4100 276.0000 1.0000
69.4200 284.0000 1.0000
69.4300 282.0000 1.0000
69.4400 247.0000 1.0000
69.4500 252.0000 1.0000
69.4600 258.0000 1.0000
69.4700 280.0000 1.0000
69.4800 242.0000 1.0000
69.4900 268.0000 1.0000
69.5000 256.0000 1.0000
69.5100 264.0000 1.0000
69.5200 255.0000 1.0000
69.5300 240.0000 1.0000
69.5400 241.0000 1.0000
69.5500 229.0000 1.0000
69.5600 277.0000 1.0000
69.5700 268.0000 1.0000
69.5800 270.0000 1.0000
69.5900 247.0000 1.0000
69.6000 276.0000 1.0000
69.6100 256.0000 1.0000
69.6200 252.0000 1.0000
69.6300 269.0000 1.0000
69.6400 268.0000 1.0000
69.6500 267.0000 1.0000
69.6600 242.0000 1.0000
69.6700 261.0000 1.0000
69.6800 266.0000 1.0000
69.6900 290.0000 1.0000
69.7000 280.0000 1.0000
69.7100 253.0000 1.0000
69.7200 248.0000 1.0000
69.7300 265.0000 1.0000
69.7400 274.0000 1.0000
69.7500 273.0000 1.0000
69.7600 258.0000 1.0000
69.7700 244.0000 1.0000
69.7800 245.0000 1.0000
69.7900 276.0000 1.0000
69.8000 285.0000 1.0000
69.8100 296.0000 1.0000
69.8200 259.0000 1.0000
69.8300 266.0000 1.0000
69.8400 241.0000 1.0000
69.8500 248.0000 1.0000
69.8600 240.0000 1.0000
69.8700 268.0000 1.0000
69.8800 257.0000 1.0000
69.8900 271.0000 1.0000
69.9000 272.0000 1.0000
69.9100 305.0000 1.0000
69.9200 258.0000 1.0000
69.9300 241.0000 1.0000
69.9400 260.0000 1.0000
69.9500 252.0000 1.0000
69.9600 223.0000 1.0000
69.9700 241.0000 1.0000
69.9800 261.0000 1.0000
69.9900 232.0000 1.0000
70.0000 263.0000 1.0000
*RAS_INT_END
*RAS_TEMPERATURE_START
*RAS_TEMPERATURE_END
*RAS_DATA_END
