*RAS_DATA_START
*RAS_HEADER_START
*DISP_FMT_X "%.2f"
*DISP_FMT_Y "%.0f"
*DISP_FULLSCALE "15600.0000000000"
*DISP_LINE_COLOR "255.0000000000"
*DISP_LINE_STYLE "0.0000000000"
*DISP_LINE_WIDTH "0.2500000000"
*DISP_NOTE "測定データ-10"
*DISP_OFFSET_Y "0.0000000000"
*DISP_PEAKSEARCH_UNIT_Y "cps"
*DISP_RANGE_BOTTOM "0.0000000000"
*DISP_RANGE_LEFT "20.0000000000"
*DISP_RANGE_LOGCUTOFF "0.0100000000"
*DISP_RANGE_RIGHT "70.0000000000"
*DISP_RANGE_TOP "15600.0000000000"
*DISP_SCALE_MODE_Y "0.0000000000"
*DISP_TAB_NAME "2θ/θ"
*DISP_TITLE_Y "強度"
*DISP_UNIT_Y "cps"
*DISP_WINDOW_NAME "MSG_MACROENGINE"
*FILE_COMMENT " "
*FILE_MD5 ""
*FILE_MEMO " "
*FILE_OPERATOR "Administrator"
*FILE_SAMPLE " "
*FILE_TYPE "RAS_RAW"
*FILE_USERGROUP "システムマネージャ"
*FILE_VERSION "1.0000000000"
*HW_ATTACHMENT_ID "ATT0025"
*HW_ATTACHMENT_NAME "標準|Standard"
*HW_COUNTER_ID-0 "CUT0025"
*HW_COUNTER_ID-1 "CUT0020"
*HW_COUNTER_ID-2 "CUT0020"
*HW_COUNTER_ID-3 "CSL0021"
*HW_COUNTER_ID-4 "CMC0021"
*HW_COUNTER_NAME-0 "D/teX Ultra|D/teX Ultra"
*HW_COUNTER_NAME-1 "None|None"
*HW_COUNTER_NAME-2 "None|None"
*HW_COUNTER_NAME-3 "BBM|BBM"
*HW_COUNTER_NAME-4 "検出器モノクロメータ|Detector monochromator"
*HW_COUNTER_SELECT_NAME "D/teX Ultra|D/teX Ultra"
*HW_GONIOMETER_ID "GON0023"
*HW_GONIOMETER_NAME "SmartLab|SmartLab"
*HW_GONIOMETER_RADIUS-0 "90.0"
*HW_GONIOMETER_RADIUS-1 "114.0"
*HW_GONIOMETER_RADIUS-2 "190.0"
*HW_GONIOMETER_RADIUS-3 "300.0"
*HW_GONIOMETER_RADIUS-4 "187.0"
*HW_GONIOMETER_RADIUS-5 "300.0"
*HW_GONIOMETER_RADIUS-6 "113.0"
*HW_GONIOMETER_RADIUS-7 "331.0"
*HW_I_OPT_ID-0 "CBO0021"
*HW_I_OPT_ID-1 "ICR0023"
*HW_I_OPT_ID-2 "ISL0021"
*HW_I_OPT_ID-3 "ISO0021"
*HW_I_OPT_ID-4 "IAD0021"
*HW_I_OPT_ID-5 "IPR0001"
*HW_I_OPT_NAME-0 "CBOユニット|CBO unit"
*HW_I_OPT_NAME-1 "標準入射光学ユニット|Standard incident optical unit"
*HW_I_OPT_NAME-2 "標準入射スリットボックス|Standard incident slit box"
*HW_I_OPT_NAME-3 "入射平行スリット|Incident parallel slit"
*HW_I_OPT_NAME-4 "長手制限スリット|Length limiting slit"
*HW_I_OPT_NAME-5 "None|None"
*HW_R_ATTENUATER_AUTOMODE "0"
*HW_R_OPT_ID-0 "RSS0021"
*HW_R_OPT_ID-1 "RCR0023"
*HW_R_OPT_ID-2 "RSO0021"
*HW_R_OPT_ID-3 "RRS0021"
*HW_R_OPT_ID-4 "ATN0021"
*HW_R_OPT_ID-5 "RFL0021"
*HW_R_OPT_ID-6 "RAD0021"
*HW_R_OPT_NAME-0 "標準受光スリットボックス1|Standard receiving slit box # 1"
*HW_R_OPT_NAME-1 "標準受光光学ユニット1|Standard receiving unit # 1"
*HW_R_OPT_NAME-2 "標準受光光学ユニット2|Standard receiving optical unit # 2"
*HW_R_OPT_NAME-3 "標準受光スリットボックス2|Standard receiving slit box # 2"
*HW_R_OPT_NAME-4 "標準アッテネータ|Standard Attenuator"
*HW_R_OPT_NAME-5 "Cu Kβ|Cu K-beta"
*HW_R_OPT_NAME-6 "調整用受光スリット|Alignment receiving slit"
*HW_SAMPLE_HOLDER_ID "SMP0023"
*HW_SAMPLE_HOLDER_NAME "標準Zステージ|Standard Z stage"
*HW_XG_CURRENT_MAX "50"
*HW_XG_CURRENT_MIN "2"
*HW_XG_CURRENT_RESOLUTION "1"
*HW_XG_CURRENT_UNIT "mA"
*HW_XG_FOCUS "1mm x 10mm"
*HW_XG_FOCUS_TYPE "Normal"
*HW_XG_ID ""
*HW_XG_NAME "3kW 封入管(ID:1200)|3kW Sealed tube(ID:1200)"
*HW_XG_TARGET_ATOMIC_NUMBER "29.0000000000"
*HW_XG_TARGET_NAME "Cu"
*HW_XG_TYPE "Hermetic"
*HW_XG_VOLTAGE_MAX "60"
*HW_XG_VOLTAGE_MIN "20"
*HW_XG_VOLTAGE_RESOLUTION "1"
*HW_XG_VOLTAGE_UNIT "kV"
*HW_XG_WATT_MAX "1.500"
*HW_XG_WATT_UNIT "kW"
*HW_XG_WAVE_LENGTH_ALPHA1 "1.540593"
*HW_XG_WAVE_LENGTH_ALPHA2 "1.544414"
*HW_XG_WAVE_LENGTH_BETA "1.392250"
*MEAS_COND_AXIS_NAME-0 "2θ/θ"
*MEAS_COND_AXIS_NAME-1 "2θ"
*MEAS_COND_AXIS_NAME-2 "ω"
*MEAS_COND_AXIS_NAME-3 "Z"
*MEAS_COND_AXIS_NAME-4 "2θ/ω"
*MEAS_COND_AXIS_NAME-5 "θs"
*MEAS_COND_AXIS_NAME-6 "θd"
*MEAS_COND_AXIS_NAME-7 "Ts"
*MEAS_COND_AXIS_NAME-8 "CBO選択スリット"
*MEAS_COND_AXIS_NAME-9 "M"
*MEAS_COND_AXIS_NAME-10 "入射平行スリット"
*MEAS_COND_AXIS_NAME-11 "入射スリット"
*MEAS_COND_AXIS_NAME-12 ""
*MEAS_COND_AXIS_NAME-13 "Zs"
*MEAS_COND_AXIS_NAME-14 "入射光学素子"
*MEAS_COND_AXIS_NAME-15 "長手制限スリット"
*MEAS_COND_AXIS_NAME-16 "センタースリット"
*MEAS_COND_AXIS_NAME-17 "フィルター"
*MEAS_COND_AXIS_NAME-18 "受光スリット1"
*MEAS_COND_AXIS_NAME-19 "受光スリット2"
*MEAS_COND_AXIS_NAME-20 "受光光学素子"
*MEAS_COND_AXIS_NAME-21 "受光平行スリット"
*MEAS_COND_AXIS_NAME-22 "調整用受光スリット"
*MEAS_COND_AXIS_NAME-23 ""
*MEAS_COND_AXIS_NAME-24 ""
*MEAS_COND_AXIS_NAME-25 "Zd"
*MEAS_COND_AXIS_NAME-26 "アッテネータ"
*MEAS_COND_AXIS_NAME-27 "検出器モノクロメータ"
*MEAS_COND_AXIS_NAME-28 "モノクロメータスリット"
*MEAS_COND_AXIS_NAME-29 "プライマリビーム"
*MEAS_COND_AXIS_NAME-30 "PHA"
*MEAS_COND_AXIS_NAME_INTERNAL-0 "TwoThetaTheta"
*MEAS_COND_AXIS_NAME_INTERNAL-1 "TwoTheta"
*MEAS_COND_AXIS_NAME_INTERNAL-2 "Omega"
*MEAS_COND_AXIS_NAME_INTERNAL-3 "Z"
*MEAS_COND_AXIS_NAME_INTERNAL-4 "TwoThetaOmega"
*MEAS_COND_AXIS_NAME_INTERNAL-5 "ThetaS"
*MEAS_COND_AXIS_NAME_INTERNAL-6 "ThetaD"
*MEAS_COND_AXIS_NAME_INTERNAL-7 "Ts"
*MEAS_COND_AXIS_NAME_INTERNAL-8 "CBO"
*MEAS_COND_AXIS_NAME_INTERNAL-9 "CBO-M"
*MEAS_COND_AXIS_NAME_INTERNAL-10 "IncidentSollerSlit"
*MEAS_COND_AXIS_NAME_INTERNAL-11 "IncidentSlitBox"
*MEAS_COND_AXIS_NAME_INTERNAL-12 "IncidentSlitBox-_Axis"
*MEAS_COND_AXIS_NAME_INTERNAL-13 "Zs"
*MEAS_COND_AXIS_NAME_INTERNAL-14 "IncidentMonochromator"
*MEAS_COND_AXIS_NAME_INTERNAL-15 "IncidentAxdSlit"
*MEAS_COND_AXIS_NAME_INTERNAL-16 "CenterSlit"
*MEAS_COND_AXIS_NAME_INTERNAL-17 "Filter"
*MEAS_COND_AXIS_NAME_INTERNAL-18 "ReceivingSlitBox1"
*MEAS_COND_AXIS_NAME_INTERNAL-19 "ReceivingSlitBox2"
*MEAS_COND_AXIS_NAME_INTERNAL-20 "ReceivingOptics"
*MEAS_COND_AXIS_NAME_INTERNAL-21 "ReceivingSollerSlit"
*MEAS_COND_AXIS_NAME_INTERNAL-22 "ReceivingAxdSlit"
*MEAS_COND_AXIS_NAME_INTERNAL-23 "ReceivingSlitBox1-_Axis"
*MEAS_COND_AXIS_NAME_INTERNAL-24 "ReceivingSlitBox2-_Axis"
*MEAS_COND_AXIS_NAME_INTERNAL-25 "ReceivingSlitBox2-Zd"
*MEAS_COND_AXIS_NAME_INTERNAL-26 "Attenuator"
*MEAS_COND_AXIS_NAME_INTERNAL-27 "CounterMonochromator"
*MEAS_COND_AXIS_NAME_INTERNAL-28 "CounterSlit"
*MEAS_COND_AXIS_NAME_INTERNAL-29 "IncidentPrimary"
*MEAS_COND_AXIS_NAME_INTERNAL-30 "PHA"
*MEAS_COND_AXIS_NAME_MAGICNO-0 "83951616.0000000000"
*MEAS_COND_AXIS_NAME_MAGICNO-1 "268632064.0000000000"
*MEAS_COND_AXIS_NAME_MAGICNO-2 "268500992.0000000000"
*MEAS_COND_AXIS_NAME_MAGICNO-3 "285278208.0000000000"
*MEAS_COND_AXIS_NAME_MAGICNO-4 "83951616.0000000000"
*MEAS_COND_AXIS_NAME_MAGICNO-5 "131072.0000000000"
*MEAS_COND_AXIS_NAME_MAGICNO-6 "131072.0000000000"
*MEAS_COND_AXIS_NAME_MAGICNO-7 "318898176.0000000000"
*MEAS_COND_AXIS_NAME_MAGICNO-8 "20971521.0000000000"
*MEAS_COND_AXIS_NAME_MAGICNO-9 "285343744.0000000000"
*MEAS_COND_AXIS_NAME_MAGICNO-10 "20971521.0000000000"
*MEAS_COND_AXIS_NAME_MAGICNO-11 "22020097.0000000000"
*MEAS_COND_AXIS_NAME_MAGICNO-12 "25165824.0000000000"
*MEAS_COND_AXIS_NAME_MAGICNO-13 "318898176.0000000000"
*MEAS_COND_AXIS_NAME_MAGICNO-14 "1.0000000000"
*MEAS_COND_AXIS_NAME_MAGICNO-15 "20971521.0000000000"
*MEAS_COND_AXIS_NAME_MAGICNO-16 "20971521.0000000000"
*MEAS_COND_AXIS_NAME_MAGICNO-17 "20971521.0000000000"
*MEAS_COND_AXIS_NAME_MAGICNO-18 "23068673.0000000000"
*MEAS_COND_AXIS_NAME_MAGICNO-19 "23068673.0000000000"
*MEAS_COND_AXIS_NAME_MAGICNO-20 "20971521.0000000000"
*MEAS_COND_AXIS_NAME_MAGICNO-21 "20971521.0000000000"
*MEAS_COND_AXIS_NAME_MAGICNO-22 "20971521.0000000000"
*MEAS_COND_AXIS_NAME_MAGICNO-23 "25165824.0000000000"
*MEAS_COND_AXIS_NAME_MAGICNO-24 "25165824.0000000000"
*MEAS_COND_AXIS_NAME_MAGICNO-25 "285343744.0000000000"
*MEAS_COND_AXIS_NAME_MAGICNO-26 "17301505.0000000000"
*MEAS_COND_AXIS_NAME_MAGICNO-27 "20971521.0000000000"
*MEAS_COND_AXIS_NAME_MAGICNO-28 "20971521.0000000000"
*MEAS_COND_AXIS_NAME_MAGICNO-29 "20971521.0000000000"
*MEAS_COND_AXIS_NAME_MAGICNO-30 "0.0000000000"
*MEAS_COND_AXIS_OFFSET-0 "-"
*MEAS_COND_AXIS_OFFSET-1 "-0.0310000000"
*MEAS_COND_AXIS_OFFSET-2 "0.3957000000"
*MEAS_COND_AXIS_OFFSET-3 "-"
*MEAS_COND_AXIS_OFFSET-4 "-"
*MEAS_COND_AXIS_OFFSET-5 "0.3957000000"
*MEAS_COND_AXIS_OFFSET-6 "-0.4267000000"
*MEAS_COND_AXIS_OFFSET-7 "-"
*MEAS_COND_AXIS_OFFSET-8 "-"
*MEAS_COND_AXIS_OFFSET-9 "-"
*MEAS_COND_AXIS_OFFSET-10 "-"
*MEAS_COND_AXIS_OFFSET-11 "-"
*MEAS_COND_AXIS_OFFSET-12 "-"
*MEAS_COND_AXIS_OFFSET-13 "-"
*MEAS_COND_AXIS_OFFSET-14 "-"
*MEAS_COND_AXIS_OFFSET-15 "-"
*MEAS_COND_AXIS_OFFSET-16 "-"
*MEAS_COND_AXIS_OFFSET-17 "-"
*MEAS_COND_AXIS_OFFSET-18 "-"
*MEAS_COND_AXIS_OFFSET-19 "-"
*MEAS_COND_AXIS_OFFSET-20 "-"
*MEAS_COND_AXIS_OFFSET-21 "-"
*MEAS_COND_AXIS_OFFSET-22 "-"
*MEAS_COND_AXIS_OFFSET-23 "-"
*MEAS_COND_AXIS_OFFSET-24 "-"
*MEAS_COND_AXIS_OFFSET-25 "-"
*MEAS_COND_AXIS_OFFSET-26 "-"
*MEAS_COND_AXIS_OFFSET-27 "-"
*MEAS_COND_AXIS_OFFSET-28 "-"
*MEAS_COND_AXIS_OFFSET-29 "-"
*MEAS_COND_AXIS_OFFSET-30 "-"
*MEAS_COND_AXIS_POSITION-0 "0.0000000000"
*MEAS_COND_AXIS_POSITION-1 "0.0000000000"
*MEAS_COND_AXIS_POSITION-2 "0.0000000000"
*MEAS_COND_AXIS_POSITION-3 "-2.9656400000"
*MEAS_COND_AXIS_POSITION-4 "0.0000000000"
*MEAS_COND_AXIS_POSITION-5 "0.0000000000"
*MEAS_COND_AXIS_POSITION-6 "0.0000000000"
*MEAS_COND_AXIS_POSITION-7 "-0.7498700000"
*MEAS_COND_AXIS_POSITION-8 "BB"
*MEAS_COND_AXIS_POSITION-9 "0.0000000000"
*MEAS_COND_AXIS_POSITION-10 "Soller_slit_5.0deg"
*MEAS_COND_AXIS_POSITION-11 "2/3deg"
*MEAS_COND_AXIS_POSITION-12 "2.2088000000"
*MEAS_COND_AXIS_POSITION-13 "-0.6412500000"
*MEAS_COND_AXIS_POSITION-14 "0.0000000000"
*MEAS_COND_AXIS_POSITION-15 "10.0mm"
*MEAS_COND_AXIS_POSITION-16 "None"
*MEAS_COND_AXIS_POSITION-17 "Cu_K-beta"
*MEAS_COND_AXIS_POSITION-18 "13.000mm"
*MEAS_COND_AXIS_POSITION-19 "13.000mm"
*MEAS_COND_AXIS_POSITION-20 "No_unit"
*MEAS_COND_AXIS_POSITION-21 "Soller_slit_5.0deg"
*MEAS_COND_AXIS_POSITION-22 "None"
*MEAS_COND_AXIS_POSITION-23 "13.0000000000"
*MEAS_COND_AXIS_POSITION-24 "13.0000000000"
*MEAS_COND_AXIS_POSITION-25 "0.0281300000"
*MEAS_COND_AXIS_POSITION-26 "Open"
*MEAS_COND_AXIS_POSITION-27 "None"
*MEAS_COND_AXIS_POSITION-28 "None"
*MEAS_COND_AXIS_POSITION-29 "None"
*MEAS_COND_AXIS_POSITION-30 "38.0000000000"
*MEAS_COND_AXIS_UNIT-0 "deg"
*MEAS_COND_AXIS_UNIT-1 "deg"
*MEAS_COND_AXIS_UNIT-2 "deg"
*MEAS_COND_AXIS_UNIT-3 "mm"
*MEAS_COND_AXIS_UNIT-4 "deg"
*MEAS_COND_AXIS_UNIT-5 "deg"
*MEAS_COND_AXIS_UNIT-6 "deg"
*MEAS_COND_AXIS_UNIT-7 "mm"
*MEAS_COND_AXIS_UNIT-8 ""
*MEAS_COND_AXIS_UNIT-9 "pulse"
*MEAS_COND_AXIS_UNIT-10 ""
*MEAS_COND_AXIS_UNIT-11 ""
*MEAS_COND_AXIS_UNIT-12 "mm"
*MEAS_COND_AXIS_UNIT-13 "mm"
*MEAS_COND_AXIS_UNIT-14 ""
*MEAS_COND_AXIS_UNIT-15 ""
*MEAS_COND_AXIS_UNIT-16 ""
*MEAS_COND_AXIS_UNIT-17 ""
*MEAS_COND_AXIS_UNIT-18 ""
*MEAS_COND_AXIS_UNIT-19 ""
*MEAS_COND_AXIS_UNIT-20 ""
*MEAS_COND_AXIS_UNIT-21 ""
*MEAS_COND_AXIS_UNIT-22 ""
*MEAS_COND_AXIS_UNIT-23 "mm"
*MEAS_COND_AXIS_UNIT-24 "mm"
*MEAS_COND_AXIS_UNIT-25 "mm"
*MEAS_COND_AXIS_UNIT-26 ""
*MEAS_COND_AXIS_UNIT-27 ""
*MEAS_COND_AXIS_UNIT-28 ""
*MEAS_COND_AXIS_UNIT-29 ""
*MEAS_COND_AXIS_UNIT-30 "div"
*MEAS_COND_COUNTER_CNTLOSS_CORR "0.0000000000"
*MEAS_COND_COUNTER_PHABASE "38.0000000000"
*MEAS_COND_COUNTER_PHAWINDOW "16.0000000000"
*MEAS_COND_COUNTER_PHA_UNIT "div"
*MEAS_COND_COUNTER_TAUDIFF "30.0000000000"
*MEAS_COND_COUNTER_TAUINT "0.0000000000"
*MEAS_COND_IRRADIATION_MODE "OFF"
*MEAS_COND_IRRADIATION_WIDTH ""
*MEAS_COND_OPT_ATTR "集中法"
*MEAS_COND_OPT_NAME "@集中法"
*MEAS_COND_UNSYMMETRIC_MODE "OFF"
*MEAS_COND_XG_CURRENT "30.0000000000"
*MEAS_COND_XG_VOLTAGE "40.0000000000"
*MEAS_COND_XG_WAVE_TYPE "Ka"
*MEAS_DATA_COUNT "5001.0000000000"
*MEAS_SCAN_AXIS_X "2θ/θ"
*MEAS_SCAN_AXIS_X_INTERNAL "TwoThetaTheta"
*MEAS_SCAN_END_TIME "02/14/24 20:36:11"
*MEAS_SCAN_MODE "CONTINUOUS"
*MEAS_SCAN_MONITOR "0"
*MEAS_SCAN_RESOLUTION_X "0.0002"
*MEAS_SCAN_SPEED "2.5"
*MEAS_SCAN_SPEED_UNIT "deg/min"
*MEAS_SCAN_START "20.0000000000"
*MEAS_SCAN_START_TIME "02/14/24 20:14:47"
*MEAS_SCAN_STEP "0.0100000000"
*MEAS_SCAN_STOP "70.0000000000"
*MEAS_SCAN_UNIT_X "deg"
*MEAS_SCAN_UNIT_Y "counts"
*RAS_HEADER_END
*RAS_INT_START
20.0000 779.0000 1.0000
20.0100 761.0000 1.0000
20.0200 716.0000 1.0000
20.0300 697.0000 1.0000
20.0400 702.0000 1.0000
20.0500 740.0000 1.0000
20.0600 761.0000 1.0000
20.0700 720.0000 1.0000
20.0800 728.0000 1.0000
20.0900 745.0000 1.0000
20.1000 731.0000 1.0000
20.1100 713.0000 1.0000
20.1200 740.0000 1.0000
20.1300 758.0000 1.0000
20.1400 726.0000 1.0000
20.1500 719.0000 1.0000
20.1600 717.0000 1.0000
20.1700 713.0000 1.0000
20.1800 748.0000 1.0000
20.1900 720.0000 1.0000
20.2000 731.0000 1.0000
20.2100 768.0000 1.0000
20.2200 733.0000 1.0000
20.2300 729.0000 1.0000
20.2400 697.0000 1.0000
20.2500 709.0000 1.0000
20.2600 749.0000 1.0000
20.2700 767.0000 1.0000
20.2800 776.0000 1.0000
20.2900 724.0000 1.0000
20.3000 740.0000 1.0000
20.3100 721.0000 1.0000
20.3200 749.0000 1.0000
20.3300 738.0000 1.0000
20.3400 764.0000 1.0000
20.3500 782.0000 1.0000
20.3600 741.0000 1.0000
20.3700 705.0000 1.0000
20.3800 752.0000 1.0000
20.3900 712.0000 1.0000
20.4000 770.0000 1.0000
20.4100 754.0000 1.0000
20.4200 767.0000 1.0000
20.4300 747.0000 1.0000
20.4400 733.0000 1.0000
20.4500 686.0000 1.0000
20.4600 715.0000 1.0000
20.4700 757.0000 1.0000
20.4800 743.0000 1.0000
20.4900 729.0000 1.0000
20.5000 733.0000 1.0000
20.5100 732.0000 1.0000
20.5200 710.0000 1.0000
20.5300 720.0000 1.0000
20.5400 745.0000 1.0000
20.5500 717.0000 1.0000
20.5600 751.0000 1.0000
20.5700 772.0000 1.0000
20.5800 741.0000 1.0000
20.5900 723.0000 1.0000
20.6000 702.0000 1.0000
20.6100 758.0000 1.0000
20.6200 732.0000 1.0000
20.6300 743.0000 1.0000
20.6400 729.0000 1.0000
20.6500 742.0000 1.0000
20.6600 749.0000 1.0000
20.6700 766.0000 1.0000
20.6800 699.0000 1.0000
20.6900 706.0000 1.0000
20.7000 722.0000 1.0000
20.7100 725.0000 1.0000
20.7200 756.0000 1.0000
20.7300 728.0000 1.0000
20.7400 717.0000 1.0000
20.7500 740.0000 1.0000
20.7600 760.0000 1.0000
20.7700 763.0000 1.0000
20.7800 739.0000 1.0000
20.7900 736.0000 1.0000
20.8000 722.0000 1.0000
20.8100 692.0000 1.0000
20.8200 764.0000 1.0000
20.8300 759.0000 1.0000
20.8400 706.0000 1.0000
20.8500 732.0000 1.0000
20.8600 781.0000 1.0000
20.8700 761.0000 1.0000
20.8800 754.0000 1.0000
20.8900 727.0000 1.0000
20.9000 747.0000 1.0000
20.9100 707.0000 1.0000
20.9200 758.0000 1.0000
20.9300 763.0000 1.0000
20.9400 683.0000 1.0000
20.9500 715.0000 1.0000
20.9600 746.0000 1.0000
20.9700 772.0000 1.0000
20.9800 754.0000 1.0000
20.9900 735.0000 1.0000
21.0000 749.0000 1.0000
21.0100 714.0000 1.0000
21.0200 687.0000 1.0000
21.0300 688.0000 1.0000
21.0400 720.0000 1.0000
21.0500 721.0000 1.0000
21.0600 752.0000 1.0000
21.0700 741.0000 1.0000
21.0800 689.0000 1.0000
21.0900 763.0000 1.0000
21.1000 718.0000 1.0000
21.1100 729.0000 1.0000
21.1200 747.0000 1.0000
21.1300 707.0000 1.0000
21.1400 756.0000 1.0000
21.1500 759.0000 1.0000
21.1600 703.0000 1.0000
21.1700 751.0000 1.0000
21.1800 733.0000 1.0000
21.1900 702.0000 1.0000
21.2000 745.0000 1.0000
21.2100 708.0000 1.0000
21.2200 764.0000 1.0000
21.2300 732.0000 1.0000
21.2400 710.0000 1.0000
21.2500 715.0000 1.0000
21.2600 689.0000 1.0000
21.2700 726.0000 1.0000
21.2800 724.0000 1.0000
21.2900 728.0000 1.0000
21.3000 733.0000 1.0000
21.3100 696.0000 1.0000
21.3200 713.0000 1.0000
21.3300 770.0000 1.0000
21.3400 746.0000 1.0000
21.3500 718.0000 1.0000
21.3600 731.0000 1.0000
21.3700 736.0000 1.0000
21.3800 691.0000 1.0000
21.3900 707.0000 1.0000
21.4000 754.0000 1.0000
21.4100 726.0000 1.0000
21.4200 716.0000 1.0000
21.4300 708.0000 1.0000
21.4400 661.0000 1.0000
21.4500 694.0000 1.0000
21.4600 719.0000 1.0000
21.4700 757.0000 1.0000
21.4800 702.0000 1.0000
21.4900 718.0000 1.0000
21.5000 703.0000 1.0000
21.5100 683.0000 1.0000
21.5200 714.0000 1.0000
21.5300 761.0000 1.0000
21.5400 705.0000 1.0000
21.5500 638.0000 1.0000
21.5600 718.0000 1.0000
21.5700 729.0000 1.0000
21.5800 700.0000 1.0000
21.5900 731.0000 1.0000
21.6000 768.0000 1.0000
21.6100 718.0000 1.0000
21.6200 706.0000 1.0000
21.6300 764.0000 1.0000
21.6400 711.0000 1.0000
21.6500 660.0000 1.0000
21.6600 699.0000 1.0000
21.6700 727.0000 1.0000
21.6800 778.0000 1.0000
21.6900 717.0000 1.0000
21.7000 716.0000 1.0000
21.7100 731.0000 1.0000
21.7200 710.0000 1.0000
21.7300 724.0000 1.0000
21.7400 705.0000 1.0000
21.7500 742.0000 1.0000
21.7600 747.0000 1.0000
21.7700 709.0000 1.0000
21.7800 779.0000 1.0000
21.7900 722.0000 1.0000
21.8000 670.0000 1.0000
21.8100 754.0000 1.0000
21.8200 743.0000 1.0000
21.8300 742.0000 1.0000
21.8400 675.0000 1.0000
21.8500 703.0000 1.0000
21.8600 694.0000 1.0000
21.8700 658.0000 1.0000
21.8800 715.0000 1.0000
21.8900 745.0000 1.0000
21.9000 714.0000 1.0000
21.9100 742.0000 1.0000
21.9200 716.0000 1.0000
21.9300 711.0000 1.0000
21.9400 730.0000 1.0000
21.9500 724.0000 1.0000
21.9600 691.0000 1.0000
21.9700 716.0000 1.0000
21.9800 688.0000 1.0000
21.9900 679.0000 1.0000
22.0000 694.0000 1.0000
22.0100 729.0000 1.0000
22.0200 717.0000 1.0000
22.0300 701.0000 1.0000
22.0400 738.0000 1.0000
22.0500 710.0000 1.0000
22.0600 698.0000 1.0000
22.0700 742.0000 1.0000
22.0800 749.0000 1.0000
22.0900 686.0000 1.0000
22.1000 703.0000 1.0000
22.1100 709.0000 1.0000
22.1200 748.0000 1.0000
22.1300 702.0000 1.0000
22.1400 751.0000 1.0000
22.1500 710.0000 1.0000
22.1600 716.0000 1.0000
22.1700 736.0000 1.0000
22.1800 771.0000 1.0000
22.1900 742.0000 1.0000
22.2000 733.0000 1.0000
22.2100 713.0000 1.0000
22.2200 735.0000 1.0000
22.2300 713.0000 1.0000
22.2400 717.0000 1.0000
22.2500 745.0000 1.0000
22.2600 746.0000 1.0000
22.2700 724.0000 1.0000
22.2800 748.0000 1.0000
22.2900 689.0000 1.0000
22.3000 694.0000 1.0000
22.3100 665.0000 1.0000
22.3200 745.0000 1.0000
22.3300 753.0000 1.0000
22.3400 694.0000 1.0000
22.3500 685.0000 1.0000
22.3600 736.0000 1.0000
22.3700 716.0000 1.0000
22.3800 711.0000 1.0000
22.3900 725.0000 1.0000
22.4000 673.0000 1.0000
22.4100 703.0000 1.0000
22.4200 726.0000 1.0000
22.4300 737.0000 1.0000
22.4400 726.0000 1.0000
22.4500 698.0000 1.0000
22.4600 704.0000 1.0000
22.4700 728.0000 1.0000
22.4800 723.0000 1.0000
22.4900 724.0000 1.0000
22.5000 721.0000 1.0000
22.5100 737.0000 1.0000
22.5200 707.0000 1.0000
22.5300 722.0000 1.0000
22.5400 717.0000 1.0000
22.5500 734.0000 1.0000
22.5600 720.0000 1.0000
22.5700 723.0000 1.0000
22.5800 687.0000 1.0000
22.5900 701.0000 1.0000
22.6000 745.0000 1.0000
22.6100 752.0000 1.0000
22.6200 741.0000 1.0000
22.6300 684.0000 1.0000
22.6400 696.0000 1.0000
22.6500 687.0000 1.0000
22.6600 674.0000 1.0000
22.6700 696.0000 1.0000
22.6800 707.0000 1.0000
22.6900 695.0000 1.0000
22.7000 740.0000 1.0000
22.7100 742.0000 1.0000
22.7200 682.0000 1.0000
22.7300 708.0000 1.0000
22.7400 727.0000 1.0000
22.7500 746.0000 1.0000
22.7600 720.0000 1.0000
22.7700 737.0000 1.0000
22.7800 724.0000 1.0000
22.7900 774.0000 1.0000
22.8000 756.0000 1.0000
22.8100 700.0000 1.0000
22.8200 717.0000 1.0000
22.8300 740.0000 1.0000
22.8400 680.0000 1.0000
22.8500 730.0000 1.0000
22.8600 738.0000 1.0000
22.8700 706.0000 1.0000
22.8800 695.0000 1.0000
22.8900 714.0000 1.0000
22.9000 741.0000 1.0000
22.9100 668.0000 1.0000
22.9200 713.0000 1.0000
22.9300 703.0000 1.0000
22.9400 696.0000 1.0000
22.9500 711.0000 1.0000
22.9600 709.0000 1.0000
22.9700 704.0000 1.0000
22.9800 718.0000 1.0000
22.9900 734.0000 1.0000
23.0000 713.0000 1.0000
23.0100 693.0000 1.0000
23.0200 692.0000 1.0000
23.0300 714.0000 1.0000
23.0400 691.0000 1.0000
23.0500 730.0000 1.0000
23.0600 716.0000 1.0000
23.0700 732.0000 1.0000
23.0800 687.0000 1.0000
23.0900 671.0000 1.0000
23.1000 717.0000 1.0000
23.1100 696.0000 1.0000
23.1200 710.0000 1.0000
23.1300 705.0000 1.0000
23.1400 694.0000 1.0000
23.1500 708.0000 1.0000
23.1600 698.0000 1.0000
23.1700 725.0000 1.0000
23.1800 729.0000 1.0000
23.1900 667.0000 1.0000
23.2000 688.0000 1.0000
23.2100 695.0000 1.0000
23.2200 719.0000 1.0000
23.2300 690.0000 1.0000
23.2400 701.0000 1.0000
23.2500 687.0000 1.0000
23.2600 710.0000 1.0000
23.2700 719.0000 1.0000
23.2800 736.0000 1.0000
23.2900 766.0000 1.0000
23.3000 694.0000 1.0000
23.3100 765.0000 1.0000
23.3200 681.0000 1.0000
23.3300 703.0000 1.0000
23.3400 708.0000 1.0000
23.3500 694.0000 1.0000
23.3600 712.0000 1.0000
23.3700 706.0000 1.0000
23.3800 777.0000 1.0000
23.3900 727.0000 1.0000
23.4000 687.0000 1.0000
23.4100 704.0000 1.0000
23.4200 707.0000 1.0000
23.4300 760.0000 1.0000
23.4400 726.0000 1.0000
23.4500 729.0000 1.0000
23.4600 706.0000 1.0000
23.4700 710.0000 1.0000
23.4800 672.0000 1.0000
23.4900 751.0000 1.0000
23.5000 720.0000 1.0000
23.5100 694.0000 1.0000
23.5200 719.0000 1.0000
23.5300 728.0000 1.0000
23.5400 713.0000 1.0000
23.5500 688.0000 1.0000
23.5600 711.0000 1.0000
23.5700 742.0000 1.0000
23.5800 717.0000 1.0000
23.5900 748.0000 1.0000
23.6000 753.0000 1.0000
23.6100 658.0000 1.0000
23.6200 739.0000 1.0000
23.6300 729.0000 1.0000
23.6400 720.0000 1.0000
23.6500 694.0000 1.0000
23.6600 698.0000 1.0000
23.6700 672.0000 1.0000
23.6800 709.0000 1.0000
23.6900 689.0000 1.0000
23.7000 714.0000 1.0000
23.7100 714.0000 1.0000
23.7200 704.0000 1.0000
23.7300 721.0000 1.0000
23.7400 706.0000 1.0000
23.7500 764.0000 1.0000
23.7600 704.0000 1.0000
23.7700 708.0000 1.0000
23.7800 709.0000 1.0000
23.7900 738.0000 1.0000
23.8000 749.0000 1.0000
23.8100 745.0000 1.0000
23.8200 716.0000 1.0000
23.8300 698.0000 1.0000
23.8400 712.0000 1.0000
23.8500 758.0000 1.0000
23.8600 719.0000 1.0000
23.8700 715.0000 1.0000
23.8800 735.0000 1.0000
23.8900 706.0000 1.0000
23.9000 706.0000 1.0000
23.9100 705.0000 1.0000
23.9200 720.0000 1.0000
23.9300 668.0000 1.0000
23.9400 745.0000 1.0000
23.9500 711.0000 1.0000
23.9600 728.0000 1.0000
23.9700 744.0000 1.0000
23.9800 778.0000 1.0000
23.9900 761.0000 1.0000
24.0000 781.0000 1.0000
24.0100 760.0000 1.0000
24.0200 764.0000 1.0000
24.0300 797.0000 1.0000
24.0400 733.0000 1.0000
24.0500 772.0000 1.0000
24.0600 750.0000 1.0000
24.0700 782.0000 1.0000
24.0800 751.0000 1.0000
24.0900 784.0000 1.0000
24.1000 779.0000 1.0000
24.1100 766.0000 1.0000
24.1200 761.0000 1.0000
24.1300 787.0000 1.0000
24.1400 770.0000 1.0000
24.1500 758.0000 1.0000
24.1600 773.0000 1.0000
24.1700 771.0000 1.0000
24.1800 772.0000 1.0000
24.1900 765.0000 1.0000
24.2000 738.0000 1.0000
24.2100 786.0000 1.0000
24.2200 788.0000 1.0000
24.2300 754.0000 1.0000
24.2400 766.0000 1.0000
24.2500 732.0000 1.0000
24.2600 749.0000 1.0000
24.2700 710.0000 1.0000
24.2800 728.0000 1.0000
24.2900 706.0000 1.0000
24.3000 749.0000 1.0000
24.3100 700.0000 1.0000
24.3200 694.0000 1.0000
24.3300 689.0000 1.0000
24.3400 741.0000 1.0000
24.3500 728.0000 1.0000
24.3600 717.0000 1.0000
24.3700 715.0000 1.0000
24.3800 696.0000 1.0000
24.3900 722.0000 1.0000
24.4000 712.0000 1.0000
24.4100 726.0000 1.0000
24.4200 695.0000 1.0000
24.4300 686.0000 1.0000
24.4400 734.0000 1.0000
24.4500 735.0000 1.0000
24.4600 667.0000 1.0000
24.4700 667.0000 1.0000
24.4800 705.0000 1.0000
24.4900 689.0000 1.0000
24.5000 673.0000 1.0000
24.5100 683.0000 1.0000
24.5200 683.0000 1.0000
24.5300 714.0000 1.0000
24.5400 714.0000 1.0000
24.5500 679.0000 1.0000
24.5600 693.0000 1.0000
24.5700 733.0000 1.0000
24.5800 722.0000 1.0000
24.5900 699.0000 1.0000
24.6000 684.0000 1.0000
24.6100 714.0000 1.0000
24.6200 731.0000 1.0000
24.6300 715.0000 1.0000
24.6400 730.0000 1.0000
24.6500 698.0000 1.0000
24.6600 658.0000 1.0000
24.6700 688.0000 1.0000
24.6800 685.0000 1.0000
24.6900 680.0000 1.0000
24.7000 666.0000 1.0000
24.7100 677.0000 1.0000
24.7200 719.0000 1.0000
24.7300 698.0000 1.0000
24.7400 714.0000 1.0000
24.7500 671.0000 1.0000
24.7600 724.0000 1.0000
24.7700 727.0000 1.0000
24.7800 685.0000 1.0000
24.7900 710.0000 1.0000
24.8000 709.0000 1.0000
24.8100 717.0000 1.0000
24.8200 723.0000 1.0000
24.8300 684.0000 1.0000
24.8400 663.0000 1.0000
24.8500 668.0000 1.0000
24.8600 695.0000 1.0000
24.8700 653.0000 1.0000
24.8800 713.0000 1.0000
24.8900 696.0000 1.0000
24.9000 695.0000 1.0000
24.9100 685.0000 1.0000
24.9200 673.0000 1.0000
24.9300 674.0000 1.0000
24.9400 712.0000 1.0000
24.9500 682.0000 1.0000
24.9600 668.0000 1.0000
24.9700 705.0000 1.0000
24.9800 674.0000 1.0000
24.9900 677.0000 1.0000
25.0000 725.0000 1.0000
25.0100 715.0000 1.0000
25.0200 731.0000 1.0000
25.0300 708.0000 1.0000
25.0400 657.0000 1.0000
25.0500 697.0000 1.0000
25.0600 661.0000 1.0000
25.0700 705.0000 1.0000
25.0800 678.0000 1.0000
25.0900 707.0000 1.0000
25.1000 691.0000 1.0000
25.1100 711.0000 1.0000
25.1200 722.0000 1.0000
25.1300 692.0000 1.0000
25.1400 655.0000 1.0000
25.1500 702.0000 1.0000
25.1600 715.0000 1.0000
25.1700 695.0000 1.0000
25.1800 724.0000 1.0000
25.1900 674.0000 1.0000
25.2000 649.0000 1.0000
25.2100 657.0000 1.0000
25.2200 668.0000 1.0000
25.2300 657.0000 1.0000
25.2400 681.0000 1.0000
25.2500 699.0000 1.0000
25.2600 691.0000 1.0000
25.2700 722.0000 1.0000
25.2800 676.0000 1.0000
25.2900 674.0000 1.0000
25.3000 721.0000 1.0000
25.3100 726.0000 1.0000
25.3200 758.0000 1.0000
25.3300 693.0000 1.0000
25.3400 670.0000 1.0000
25.3500 638.0000 1.0000
25.3600 707.0000 1.0000
25.3700 704.0000 1.0000
25.3800 689.0000 1.0000
25.3900 672.0000 1.0000
25.4000 673.0000 1.0000
25.4100 656.0000 1.0000
25.4200 674.0000 1.0000
25.4300 680.0000 1.0000
25.4400 705.0000 1.0000
25.4500 656.0000 1.0000
25.4600 716.0000 1.0000
25.4700 668.0000 1.0000
25.4800 722.0000 1.0000
25.4900 691.0000 1.0000
25.5000 657.0000 1.0000
25.5100 708.0000 1.0000
25.5200 716.0000 1.0000
25.5300 683.0000 1.0000
25.5400 661.0000 1.0000
25.5500 682.0000 1.0000
25.5600 694.0000 1.0000
25.5700 715.0000 1.0000
25.5800 716.0000 1.0000
25.5900 687.0000 1.0000
25.6000 667.0000 1.0000
25.6100 653.0000 1.0000
25.6200 687.0000 1.0000
25.6300 653.0000 1.0000
25.6400 685.0000 1.0000
25.6500 678.0000 1.0000
25.6600 666.0000 1.0000
25.6700 683.0000 1.0000
25.6800 740.0000 1.0000
25.6900 737.0000 1.0000
25.7000 694.0000 1.0000
25.7100 719.0000 1.0000
25.7200 711.0000 1.0000
25.7300 674.0000 1.0000
25.7400 707.0000 1.0000
25.7500 705.0000 1.0000
25.7600 693.0000 1.0000
25.7700 693.0000 1.0000
25.7800 716.0000 1.0000
25.7900 692.0000 1.0000
25.8000 690.0000 1.0000
25.8100 718.0000 1.0000
25.8200 680.0000 1.0000
25.8300 694.0000 1.0000
25.8400 714.0000 1.0000
25.8500 714.0000 1.0000
25.8600 696.0000 1.0000
25.8700 688.0000 1.0000
25.8800 745.0000 1.0000
25.8900 732.0000 1.0000
25.9000 756.0000 1.0000
25.9100 719.0000 1.0000
25.9200 737.0000 1.0000
25.9300 713.0000 1.0000
25.9400 704.0000 1.0000
25.9500 748.0000 1.0000
25.9600 732.0000 1.0000
25.9700 725.0000 1.0000
25.9800 769.0000 1.0000
25.9900 782.0000 1.0000
26.0000 716.0000 1.0000
26.0100 728.0000 1.0000
26.0200 752.0000 1.0000
26.0300 784.0000 1.0000
26.0400 773.0000 1.0000
26.0500 747.0000 1.0000
26.0600 767.0000 1.0000
26.0700 800.0000 1.0000
26.0800 759.0000 1.0000
26.0900 748.0000 1.0000
26.1000 782.0000 1.0000
26.1100 798.0000 1.0000
26.1200 778.0000 1.0000
26.1300 812.0000 1.0000
26.1400 818.0000 1.0000
26.1500 808.0000 1.0000
26.1600 854.0000 1.0000
26.1700 853.0000 1.0000
26.1800 829.0000 1.0000
26.1900 886.0000 1.0000
26.2000 885.0000 1.0000
26.2100 944.0000 1.0000
26.2200 939.0000 1.0000
26.2300 921.0000 1.0000
26.2400 950.0000 1.0000
26.2500 960.0000 1.0000
26.2600 978.0000 1.0000
26.2700 1017.0000 1.0000
26.2800 1067.0000 1.0000
26.2900 1076.0000 1.0000
26.3000 1124.0000 1.0000
26.3100 1143.0000 1.0000
26.3200 1167.0000 1.0000
26.3300 1218.0000 1.0000
26.3400 1137.0000 1.0000
26.3500 1189.0000 1.0000
26.3600 1288.0000 1.0000
26.3700 1254.0000 1.0000
26.3800 1298.0000 1.0000
26.3900 1363.0000 1.0000
26.4000 1372.0000 1.0000
26.4100 1343.0000 1.0000
26.4200 1432.0000 1.0000
26.4300 1430.0000 1.0000
26.4400 1399.0000 1.0000
26.4500 1428.0000 1.0000
26.4600 1424.0000 1.0000
26.4700 1459.0000 1.0000
26.4800 1388.0000 1.0000
26.4900 1417.0000 1.0000
26.5000 1368.0000 1.0000
26.5100 1288.0000 1.0000
26.5200 1260.0000 1.0000
26.5300 1248.0000 1.0000
26.5400 1187.0000 1.0000
26.5500 1165.0000 1.0000
26.5600 1115.0000 1.0000
26.5700 1109.0000 1.0000
26.5800 1068.0000 1.0000
26.5900 1022.0000 1.0000
26.6000 1018.0000 1.0000
26.6100 1013.0000 1.0000
26.6200 988.0000 1.0000
26.6300 980.0000 1.0000
26.6400 932.0000 1.0000
26.6500 931.0000 1.0000
26.6600 892.0000 1.0000
26.6700 862.0000 1.0000
26.6800 856.0000 1.0000
26.6900 841.0000 1.0000
26.7000 824.0000 1.0000
26.7100 802.0000 1.0000
26.7200 835.0000 1.0000
26.7300 815.0000 1.0000
26.7400 768.0000 1.0000
26.7500 789.0000 1.0000
26.7600 743.0000 1.0000
26.7700 804.0000 1.0000
26.7800 824.0000 1.0000
26.7900 801.0000 1.0000
26.8000 779.0000 1.0000
26.8100 722.0000 1.0000
26.8200 728.0000 1.0000
26.8300 783.0000 1.0000
26.8400 773.0000 1.0000
26.8500 766.0000 1.0000
26.8600 704.0000 1.0000
26.8700 700.0000 1.0000
26.8800 740.0000 1.0000
26.8900 724.0000 1.0000
26.9000 704.0000 1.0000
26.9100 692.0000 1.0000
26.9200 709.0000 1.0000
26.9300 696.0000 1.0000
26.9400 698.0000 1.0000
26.9500 748.0000 1.0000
26.9600 686.0000 1.0000
26.9700 700.0000 1.0000
26.9800 720.0000 1.0000
26.9900 728.0000 1.0000
27.0000 689.0000 1.0000
27.0100 671.0000 1.0000
27.0200 674.0000 1.0000
27.0300 619.0000 1.0000
27.0400 686.0000 1.0000
27.0500 716.0000 1.0000
27.0600 677.0000 1.0000
27.0700 680.0000 1.0000
27.0800 633.0000 1.0000
27.0900 636.0000 1.0000
27.1000 708.0000 1.0000
27.1100 694.0000 1.0000
27.1200 630.0000 1.0000
27.1300 704.0000 1.0000
27.1400 632.0000 1.0000
27.1500 647.0000 1.0000
27.1600 655.0000 1.0000
27.1700 656.0000 1.0000
27.1800 649.0000 1.0000
27.1900 672.0000 1.0000
27.2000 698.0000 1.0000
27.2100 660.0000 1.0000
27.2200 646.0000 1.0000
27.2300 646.0000 1.0000
27.2400 658.0000 1.0000
27.2500 663.0000 1.0000
27.2600 639.0000 1.0000
27.2700 668.0000 1.0000
27.2800 665.0000 1.0000
27.2900 675.0000 1.0000
27.3000 686.0000 1.0000
27.3100 662.0000 1.0000
27.3200 622.0000 1.0000
27.3300 639.0000 1.0000
27.3400 623.0000 1.0000
27.3500 614.0000 1.0000
27.3600 657.0000 1.0000
27.3700 629.0000 1.0000
27.3800 633.0000 1.0000
27.3900 644.0000 1.0000
27.4000 645.0000 1.0000
27.4100 617.0000 1.0000
27.4200 663.0000 1.0000
27.4300 635.0000 1.0000
27.4400 655.0000 1.0000
27.4500 635.0000 1.0000
27.4600 605.0000 1.0000
27.4700 603.0000 1.0000
27.4800 628.0000 1.0000
27.4900 617.0000 1.0000
27.5000 593.0000 1.0000
27.5100 655.0000 1.0000
27.5200 631.0000 1.0000
27.5300 638.0000 1.0000
27.5400 615.0000 1.0000
27.5500 654.0000 1.0000
27.5600 639.0000 1.0000
27.5700 617.0000 1.0000
27.5800 623.0000 1.0000
27.5900 640.0000 1.0000
27.6000 620.0000 1.0000
27.6100 609.0000 1.0000
27.6200 591.0000 1.0000
27.6300 666.0000 1.0000
27.6400 642.0000 1.0000
27.6500 683.0000 1.0000
27.6600 639.0000 1.0000
27.6700 627.0000 1.0000
27.6800 610.0000 1.0000
27.6900 619.0000 1.0000
27.7000 622.0000 1.0000
27.7100 658.0000 1.0000
27.7200 603.0000 1.0000
27.7300 600.0000 1.0000
27.7400 636.0000 1.0000
27.7500 630.0000 1.0000
27.7600 606.0000 1.0000
27.7700 626.0000 1.0000
27.7800 629.0000 1.0000
27.7900 630.0000 1.0000
27.8000 661.0000 1.0000
27.8100 642.0000 1.0000
27.8200 616.0000 1.0000
27.8300 620.0000 1.0000
27.8400 597.0000 1.0000
27.8500 613.0000 1.0000
27.8600 607.0000 1.0000
27.8700 632.0000 1.0000
27.8800 576.0000 1.0000
27.8900 639.0000 1.0000
27.9000 615.0000 1.0000
27.9100 615.0000 1.0000
27.9200 600.0000 1.0000
27.9300 622.0000 1.0000
27.9400 605.0000 1.0000
27.9500 604.0000 1.0000
27.9600 586.0000 1.0000
27.9700 630.0000 1.0000
27.9800 568.0000 1.0000
27.9900 593.0000 1.0000
28.0000 626.0000 1.0000
28.0100 594.0000 1.0000
28.0200 626.0000 1.0000
28.0300 630.0000 1.0000
28.0400 607.0000 1.0000
28.0500 645.0000 1.0000
28.0600 630.0000 1.0000
28.0700 621.0000 1.0000
28.0800 577.0000 1.0000
28.0900 613.0000 1.0000
28.1000 633.0000 1.0000
28.1100 625.0000 1.0000
28.1200 600.0000 1.0000
28.1300 599.0000 1.0000
28.1400 609.0000 1.0000
28.1500 608.0000 1.0000
28.1600 625.0000 1.0000
28.1700 584.0000 1.0000
28.1800 599.0000 1.0000
28.1900 621.0000 1.0000
28.2000 625.0000 1.0000
28.2100 605.0000 1.0000
28.2200 565.0000 1.0000
28.2300 606.0000 1.0000
28.2400 594.0000 1.0000
28.2500 644.0000 1.0000
28.2600 549.0000 1.0000
28.2700 579.0000 1.0000
28.2800 618.0000 1.0000
28.2900 613.0000 1.0000
28.3000 597.0000 1.0000
28.3100 631.0000 1.0000
28.3200 642.0000 1.0000
28.3300 622.0000 1.0000
28.3400 594.0000 1.0000
28.3500 606.0000 1.0000
28.3600 579.0000 1.0000
28.3700 621.0000 1.0000
28.3800 614.0000 1.0000
28.3900 626.0000 1.0000
28.4000 615.0000 1.0000
28.4100 622.0000 1.0000
28.4200 563.0000 1.0000
28.4300 621.0000 1.0000
28.4400 568.0000 1.0000
28.4500 591.0000 1.0000
28.4600 581.0000 1.0000
28.4700 611.0000 1.0000
28.4800 618.0000 1.0000
28.4900 588.0000 1.0000
28.5000 610.0000 1.0000
28.5100 565.0000 1.0000
28.5200 568.0000 1.0000
28.5300 583.0000 1.0000
28.5400 592.0000 1.0000
28.5500 592.0000 1.0000
28.5600 572.0000 1.0000
28.5700 603.0000 1.0000
28.5800 594.0000 1.0000
28.5900 552.0000 1.0000
28.6000 587.0000 1.0000
28.6100 558.0000 1.0000
28.6200 557.0000 1.0000
28.6300 568.0000 1.0000
28.6400 587.0000 1.0000
28.6500 587.0000 1.0000
28.6600 613.0000 1.0000
28.6700 544.0000 1.0000
28.6800 598.0000 1.0000
28.6900 613.0000 1.0000
28.7000 583.0000 1.0000
28.7100 600.0000 1.0000
28.7200 573.0000 1.0000
28.7300 591.0000 1.0000
28.7400 588.0000 1.0000
28.7500 579.0000 1.0000
28.7600 584.0000 1.0000
28.7700 537.0000 1.0000
28.7800 590.0000 1.0000
28.7900 613.0000 1.0000
28.8000 573.0000 1.0000
28.8100 558.0000 1.0000
28.8200 611.0000 1.0000
28.8300 597.0000 1.0000
28.8400 587.0000 1.0000
28.8500 567.0000 1.0000
28.8600 566.0000 1.0000
28.8700 582.0000 1.0000
28.8800 578.0000 1.0000
28.8900 552.0000 1.0000
28.9000 553.0000 1.0000
28.9100 590.0000 1.0000
28.9200 600.0000 1.0000
28.9300 579.0000 1.0000
28.9400 589.0000 1.0000
28.9500 573.0000 1.0000
28.9600 608.0000 1.0000
28.9700 589.0000 1.0000
28.9800 552.0000 1.0000
28.9900 534.0000 1.0000
29.0000 542.0000 1.0000
29.0100 592.0000 1.0000
29.0200 597.0000 1.0000
29.0300 556.0000 1.0000
29.0400 530.0000 1.0000
29.0500 581.0000 1.0000
29.0600 574.0000 1.0000
29.0700 574.0000 1.0000
29.0800 565.0000 1.0000
29.0900 606.0000 1.0000
29.1000 587.0000 1.0000
29.1100 586.0000 1.0000
29.1200 560.0000 1.0000
29.1300 582.0000 1.0000
29.1400 569.0000 1.0000
29.1500 598.0000 1.0000
29.1600 554.0000 1.0000
29.1700 542.0000 1.0000
29.1800 573.0000 1.0000
29.1900 603.0000 1.0000
29.2000 575.0000 1.0000
29.2100 578.0000 1.0000
29.2200 541.0000 1.0000
29.2300 535.0000 1.0000
29.2400 578.0000 1.0000
29.2500 589.0000 1.0000
29.2600 570.0000 1.0000
29.2700 561.0000 1.0000
29.2800 582.0000 1.0000
29.2900 572.0000 1.0000
29.3000 562.0000 1.0000
29.3100 511.0000 1.0000
29.3200 584.0000 1.0000
29.3300 573.0000 1.0000
29.3400 597.0000 1.0000
29.3500 569.0000 1.0000
29.3600 566.0000 1.0000
29.3700 576.0000 1.0000
29.3800 569.0000 1.0000
29.3900 607.0000 1.0000
29.4000 580.0000 1.0000
29.4100 560.0000 1.0000
29.4200 552.0000 1.0000
29.4300 548.0000 1.0000
29.4400 564.0000 1.0000
29.4500 577.0000 1.0000
29.4600 568.0000 1.0000
29.4700 566.0000 1.0000
29.4800 567.0000 1.0000
29.4900 594.0000 1.0000
29.5000 538.0000 1.0000
29.5100 543.0000 1.0000
29.5200 593.0000 1.0000
29.5300 589.0000 1.0000
29.5400 626.0000 1.0000
29.5500 559.0000 1.0000
29.5600 566.0000 1.0000
29.5700 558.0000 1.0000
29.5800 559.0000 1.0000
29.5900 572.0000 1.0000
29.6000 542.0000 1.0000
29.6100 571.0000 1.0000
29.6200 574.0000 1.0000
29.6300 586.0000 1.0000
29.6400 575.0000 1.0000
29.6500 565.0000 1.0000
29.6600 555.0000 1.0000
29.6700 591.0000 1.0000
29.6800 572.0000 1.0000
29.6900 600.0000 1.0000
29.7000 588.0000 1.0000
29.7100 580.0000 1.0000
29.7200 566.0000 1.0000
29.7300 552.0000 1.0000
29.7400 532.0000 1.0000
29.7500 554.0000 1.0000
29.7600 557.0000 1.0000
29.7700 608.0000 1.0000
29.7800 572.0000 1.0000
29.7900 568.0000 1.0000
29.8000 565.0000 1.0000
29.8100 557.0000 1.0000
29.8200 566.0000 1.0000
29.8300 544.0000 1.0000
29.8400 578.0000 1.0000
29.8500 542.0000 1.0000
29.8600 565.0000 1.0000
29.8700 585.0000 1.0000
29.8800 541.0000 1.0000
29.8900 573.0000 1.0000
29.9000 578.0000 1.0000
29.9100 571.0000 1.0000
29.9200 556.0000 1.0000
29.9300 534.0000 1.0000
29.9400 537.0000 1.0000
29.9500 536.0000 1.0000
29.9600 574.0000 1.0000
29.9700 557.0000 1.0000
29.9800 525.0000 1.0000
29.9900 537.0000 1.0000
30.0000 504.0000 1.0000
30.0100 541.0000 1.0000
30.0200 545.0000 1.0000
30.0300 552.0000 1.0000
30.0400 546.0000 1.0000
30.0500 496.0000 1.0000
30.0600 551.0000 1.0000
30.0700 542.0000 1.0000
30.0800 565.0000 1.0000
30.0900 530.0000 1.0000
30.1000 546.0000 1.0000
30.1100 536.0000 1.0000
30.1200 523.0000 1.0000
30.1300 530.0000 1.0000
30.1400 509.0000 1.0000
30.1500 517.0000 1.0000
30.1600 564.0000 1.0000
30.1700 549.0000 1.0000
30.1800 575.0000 1.0000
30.1900 568.0000 1.0000
30.2000 580.0000 1.0000
30.2100 545.0000 1.0000
30.2200 536.0000 1.0000
30.2300 590.0000 1.0000
30.2400 568.0000 1.0000
30.2500 549.0000 1.0000
30.2600 541.0000 1.0000
30.2700 551.0000 1.0000
30.2800 552.0000 1.0000
30.2900 531.0000 1.0000
30.3000 548.0000 1.0000
30.3100 572.0000 1.0000
30.3200 529.0000 1.0000
30.3300 546.0000 1.0000
30.3400 518.0000 1.0000
30.3500 519.0000 1.0000
30.3600 571.0000 1.0000
30.3700 549.0000 1.0000
30.3800 537.0000 1.0000
30.3900 570.0000 1.0000
30.4000 556.0000 1.0000
30.4100 545.0000 1.0000
30.4200 549.0000 1.0000
30.4300 549.0000 1.0000
30.4400 516.0000 1.0000
30.4500 546.0000 1.0000
30.4600 542.0000 1.0000
30.4700 546.0000 1.0000
30.4800 528.0000 1.0000
30.4900 537.0000 1.0000
30.5000 521.0000 1.0000
30.5100 527.0000 1.0000
30.5200 536.0000 1.0000
30.5300 535.0000 1.0000
30.5400 541.0000 1.0000
30.5500 528.0000 1.0000
30.5600 559.0000 1.0000
30.5700 522.0000 1.0000
30.5800 536.0000 1.0000
30.5900 554.0000 1.0000
30.6000 558.0000 1.0000
30.6100 542.0000 1.0000
30.6200 561.0000 1.0000
30.6300 551.0000 1.0000
30.6400 533.0000 1.0000
30.6500 544.0000 1.0000
30.6600 546.0000 1.0000
30.6700 509.0000 1.0000
30.6800 535.0000 1.0000
30.6900 540.0000 1.0000
30.7000 524.0000 1.0000
30.7100 564.0000 1.0000
30.7200 520.0000 1.0000
30.7300 544.0000 1.0000
30.7400 535.0000 1.0000
30.7500 549.0000 1.0000
30.7600 542.0000 1.0000
30.7700 509.0000 1.0000
30.7800 573.0000 1.0000
30.7900 545.0000 1.0000
30.8000 553.0000 1.0000
30.8100 524.0000 1.0000
30.8200 580.0000 1.0000
30.8300 526.0000 1.0000
30.8400 551.0000 1.0000
30.8500 547.0000 1.0000
30.8600 530.0000 1.0000
30.8700 520.0000 1.0000
30.8800 542.0000 1.0000
30.8900 554.0000 1.0000
30.9000 563.0000 1.0000
30.9100 519.0000 1.0000
30.9200 510.0000 1.0000
30.9300 537.0000 1.0000
30.9400 555.0000 1.0000
30.9500 518.0000 1.0000
30.9600 511.0000 1.0000
30.9700 540.0000 1.0000
30.9800 573.0000 1.0000
30.9900 554.0000 1.0000
31.0000 551.0000 1.0000
31.0100 509.0000 1.0000
31.0200 494.0000 1.0000
31.0300 514.0000 1.0000
31.0400 554.0000 1.0000
31.0500 608.0000 1.0000
31.0600 568.0000 1.0000
31.0700 534.0000 1.0000
31.0800 545.0000 1.0000
31.0900 560.0000 1.0000
31.1000 527.0000 1.0000
31.1100 539.0000 1.0000
31.1200 544.0000 1.0000
31.1300 560.0000 1.0000
31.1400 579.0000 1.0000
31.1500 537.0000 1.0000
31.1600 572.0000 1.0000
31.1700 614.0000 1.0000
31.1800 617.0000 1.0000
31.1900 514.0000 1.0000
31.2000 536.0000 1.0000
31.2100 558.0000 1.0000
31.2200 558.0000 1.0000
31.2300 587.0000 1.0000
31.2400 574.0000 1.0000
31.2500 568.0000 1.0000
31.2600 579.0000 1.0000
31.2700 548.0000 1.0000
31.2800 569.0000 1.0000
31.2900 520.0000 1.0000
31.3000 536.0000 1.0000
31.3100 524.0000 1.0000
31.3200 528.0000 1.0000
31.3300 545.0000 1.0000
31.3400 529.0000 1.0000
31.3500 557.0000 1.0000
31.3600 525.0000 1.0000
31.3700 507.0000 1.0000
31.3800 542.0000 1.0000
31.3900 523.0000 1.0000
31.4000 533.0000 1.0000
31.4100 526.0000 1.0000
31.4200 554.0000 1.0000
31.4300 544.0000 1.0000
31.4400 541.0000 1.0000
31.4500 533.0000 1.0000
31.4600 515.0000 1.0000
31.4700 536.0000 1.0000
31.4800 552.0000 1.0000
31.4900 532.0000 1.0000
31.5000 556.0000 1.0000
31.5100 547.0000 1.0000
31.5200 577.0000 1.0000
31.5300 531.0000 1.0000
31.5400 533.0000 1.0000
31.5500 559.0000 1.0000
31.5600 562.0000 1.0000
31.5700 543.0000 1.0000
31.5800 542.0000 1.0000
31.5900 565.0000 1.0000
31.6000 552.0000 1.0000
31.6100 589.0000 1.0000
31.6200 605.0000 1.0000
31.6300 592.0000 1.0000
31.6400 537.0000 1.0000
31.6500 557.0000 1.0000
31.6600 551.0000 1.0000
31.6700 548.0000 1.0000
31.6800 557.0000 1.0000
31.6900 543.0000 1.0000
31.7000 515.0000 1.0000
31.7100 542.0000 1.0000
31.7200 524.0000 1.0000
31.7300 522.0000 1.0000
31.7400 504.0000 1.0000
31.7500 529.0000 1.0000
31.7600 527.0000 1.0000
31.7700 564.0000 1.0000
31.7800 514.0000 1.0000
31.7900 515.0000 1.0000
31.8000 497.0000 1.0000
31.8100 486.0000 1.0000
31.8200 520.0000 1.0000
31.8300 508.0000 1.0000
31.8400 508.0000 1.0000
31.8500 505.0000 1.0000
31.8600 517.0000 1.0000
31.8700 550.0000 1.0000
31.8800 509.0000 1.0000
31.8900 520.0000 1.0000
31.9000 529.0000 1.0000
31.9100 507.0000 1.0000
31.9200 497.0000 1.0000
31.9300 508.0000 1.0000
31.9400 516.0000 1.0000
31.9500 534.0000 1.0000
31.9600 490.0000 1.0000
31.9700 496.0000 1.0000
31.9800 486.0000 1.0000
31.9900 499.0000 1.0000
32.0000 513.0000 1.0000
32.0100 511.0000 1.0000
32.0200 498.0000 1.0000
32.0300 535.0000 1.0000
32.0400 528.0000 1.0000
32.0500 518.0000 1.0000
32.0600 501.0000 1.0000
32.0700 522.0000 1.0000
32.0800 508.0000 1.0000
32.0900 539.0000 1.0000
32.1000 519.0000 1.0000
32.1100 522.0000 1.0000
32.1200 480.0000 1.0000
32.1300 455.0000 1.0000
32.1400 492.0000 1.0000
32.1500 519.0000 1.0000
32.1600 526.0000 1.0000
32.1700 504.0000 1.0000
32.1800 510.0000 1.0000
32.1900 525.0000 1.0000
32.2000 521.0000 1.0000
32.2100 478.0000 1.0000
32.2200 524.0000 1.0000
32.2300 512.0000 1.0000
32.2400 516.0000 1.0000
32.2500 503.0000 1.0000
32.2600 500.0000 1.0000
32.2700 499.0000 1.0000
32.2800 536.0000 1.0000
32.2900 531.0000 1.0000
32.3000 537.0000 1.0000
32.3100 488.0000 1.0000
32.3200 536.0000 1.0000
32.3300 492.0000 1.0000
32.3400 505.0000 1.0000
32.3500 512.0000 1.0000
32.3600 500.0000 1.0000
32.3700 529.0000 1.0000
32.3800 496.0000 1.0000
32.3900 544.0000 1.0000
32.4000 533.0000 1.0000
32.4100 505.0000 1.0000
32.4200 495.0000 1.0000
32.4300 483.0000 1.0000
32.4400 523.0000 1.0000
32.4500 523.0000 1.0000
32.4600 490.0000 1.0000
32.4700 489.0000 1.0000
32.4800 514.0000 1.0000
32.4900 520.0000 1.0000
32.5000 504.0000 1.0000
32.5100 499.0000 1.0000
32.5200 498.0000 1.0000
32.5300 490.0000 1.0000
32.5400 502.0000 1.0000
32.5500 516.0000 1.0000
32.5600 516.0000 1.0000
32.5700 482.0000 1.0000
32.5800 457.0000 1.0000
32.5900 486.0000 1.0000
32.6000 483.0000 1.0000
32.6100 484.0000 1.0000
32.6200 489.0000 1.0000
32.6300 499.0000 1.0000
32.6400 536.0000 1.0000
32.6500 504.0000 1.0000
32.6600 512.0000 1.0000
32.6700 487.0000 1.0000
32.6800 526.0000 1.0000
32.6900 533.0000 1.0000
32.7000 507.0000 1.0000
32.7100 522.0000 1.0000
32.7200 516.0000 1.0000
32.7300 526.0000 1.0000
32.7400 497.0000 1.0000
32.7500 499.0000 1.0000
32.7600 492.0000 1.0000
32.7700 486.0000 1.0000
32.7800 533.0000 1.0000
32.7900 522.0000 1.0000
32.8000 525.0000 1.0000
32.8100 512.0000 1.0000
32.8200 509.0000 1.0000
32.8300 518.0000 1.0000
32.8400 549.0000 1.0000
32.8500 515.0000 1.0000
32.8600 487.0000 1.0000
32.8700 553.0000 1.0000
32.8800 514.0000 1.0000
32.8900 521.0000 1.0000
32.9000 524.0000 1.0000
32.9100 537.0000 1.0000
32.9200 526.0000 1.0000
32.9300 543.0000 1.0000
32.9400 548.0000 1.0000
32.9500 530.0000 1.0000
32.9600 583.0000 1.0000
32.9700 561.0000 1.0000
32.9800 605.0000 1.0000
32.9900 591.0000 1.0000
33.0000 574.0000 1.0000
33.0100 594.0000 1.0000
33.0200 628.0000 1.0000
33.0300 645.0000 1.0000
33.0400 591.0000 1.0000
33.0500 635.0000 1.0000
33.0600 629.0000 1.0000
33.0700 643.0000 1.0000
33.0800 619.0000 1.0000
33.0900 616.0000 1.0000
33.1000 696.0000 1.0000
33.1100 628.0000 1.0000
33.1200 660.0000 1.0000
33.1300 641.0000 1.0000
33.1400 579.0000 1.0000
33.1500 611.0000 1.0000
33.1600 623.0000 1.0000
33.1700 629.0000 1.0000
33.1800 625.0000 1.0000
33.1900 584.0000 1.0000
33.2000 590.0000 1.0000
33.2100 566.0000 1.0000
33.2200 588.0000 1.0000
33.2300 547.0000 1.0000
33.2400 554.0000 1.0000
33.2500 573.0000 1.0000
33.2600 573.0000 1.0000
33.2700 542.0000 1.0000
33.2800 538.0000 1.0000
33.2900 542.0000 1.0000
33.3000 554.0000 1.0000
33.3100 544.0000 1.0000
33.3200 559.0000 1.0000
33.3300 581.0000 1.0000
33.3400 570.0000 1.0000
33.3500 563.0000 1.0000
33.3600 556.0000 1.0000
33.3700 507.0000 1.0000
33.3800 573.0000 1.0000
33.3900 549.0000 1.0000
33.4000 524.0000 1.0000
33.4100 571.0000 1.0000
33.4200 548.0000 1.0000
33.4300 538.0000 1.0000
33.4400 576.0000 1.0000
33.4500 573.0000 1.0000
33.4600 547.0000 1.0000
33.4700 597.0000 1.0000
33.4800 567.0000 1.0000
33.4900 587.0000 1.0000
33.5000 627.0000 1.0000
33.5100 544.0000 1.0000
33.5200 600.0000 1.0000
33.5300 628.0000 1.0000
33.5400 627.0000 1.0000
33.5500 613.0000 1.0000
33.5600 673.0000 1.0000
33.5700 662.0000 1.0000
33.5800 647.0000 1.0000
33.5900 678.0000 1.0000
33.6000 688.0000 1.0000
33.6100 681.0000 1.0000
33.6200 660.0000 1.0000
33.6300 692.0000 1.0000
33.6400 738.0000 1.0000
33.6500 677.0000 1.0000
33.6600 719.0000 1.0000
33.6700 698.0000 1.0000
33.6800 662.0000 1.0000
33.6900 647.0000 1.0000
33.7000 640.0000 1.0000
33.7100 654.0000 1.0000
33.7200 674.0000 1.0000
33.7300 679.0000 1.0000
33.7400 665.0000 1.0000
33.7500 661.0000 1.0000
33.7600 605.0000 1.0000
33.7700 597.0000 1.0000
33.7800 603.0000 1.0000
33.7900 626.0000 1.0000
33.8000 677.0000 1.0000
33.8100 595.0000 1.0000
33.8200 583.0000 1.0000
33.8300 607.0000 1.0000
33.8400 594.0000 1.0000
33.8500 575.0000 1.0000
33.8600 537.0000 1.0000
33.8700 566.0000 1.0000
33.8800 553.0000 1.0000
33.8900 577.0000 1.0000
33.9000 578.0000 1.0000
33.9100 543.0000 1.0000
33.9200 566.0000 1.0000
33.9300 574.0000 1.0000
33.9400 555.0000 1.0000
33.9500 524.0000 1.0000
33.9600 532.0000 1.0000
33.9700 512.0000 1.0000
33.9800 526.0000 1.0000
33.9900 490.0000 1.0000
34.0000 529.0000 1.0000
34.0100 531.0000 1.0000
34.0200 497.0000 1.0000
34.0300 485.0000 1.0000
34.0400 510.0000 1.0000
34.0500 510.0000 1.0000
34.0600 526.0000 1.0000
34.0700 530.0000 1.0000
34.0800 527.0000 1.0000
34.0900 504.0000 1.0000
34.1000 504.0000 1.0000
34.1100 480.0000 1.0000
34.1200 492.0000 1.0000
34.1300 432.0000 1.0000
34.1400 481.0000 1.0000
34.1500 495.0000 1.0000
34.1600 476.0000 1.0000
34.1700 499.0000 1.0000
34.1800 471.0000 1.0000
34.1900 451.0000 1.0000
34.2000 492.0000 1.0000
34.2100 484.0000 1.0000
34.2200 488.0000 1.0000
34.2300 468.0000 1.0000
34.2400 457.0000 1.0000
34.2500 464.0000 1.0000
34.2600 482.0000 1.0000
34.2700 439.0000 1.0000
34.2800 489.0000 1.0000
34.2900 462.0000 1.0000
34.3000 473.0000 1.0000
34.3100 456.0000 1.0000
34.3200 473.0000 1.0000
34.3300 452.0000 1.0000
34.3400 441.0000 1.0000
34.3500 496.0000 1.0000
34.3600 464.0000 1.0000
34.3700 455.0000 1.0000
34.3800 436.0000 1.0000
34.3900 421.0000 1.0000
34.4000 464.0000 1.0000
34.4100 453.0000 1.0000
34.4200 441.0000 1.0000
34.4300 415.0000 1.0000
34.4400 473.0000 1.0000
34.4500 450.0000 1.0000
34.4600 425.0000 1.0000
34.4700 485.0000 1.0000
34.4800 461.0000 1.0000
34.4900 458.0000 1.0000
34.5000 476.0000 1.0000
34.5100 443.0000 1.0000
34.5200 421.0000 1.0000
34.5300 428.0000 1.0000
34.5400 455.0000 1.0000
34.5500 458.0000 1.0000
34.5600 460.0000 1.0000
34.5700 473.0000 1.0000
34.5800 470.0000 1.0000
34.5900 424.0000 1.0000
34.6000 458.0000 1.0000
34.6100 468.0000 1.0000
34.6200 444.0000 1.0000
34.6300 475.0000 1.0000
34.6400 415.0000 1.0000
34.6500 432.0000 1.0000
34.6600 442.0000 1.0000
34.6700 458.0000 1.0000
34.6800 468.0000 1.0000
34.6900 456.0000 1.0000
34.7000 441.0000 1.0000
34.7100 415.0000 1.0000
34.7200 484.0000 1.0000
34.7300 422.0000 1.0000
34.7400 398.0000 1.0000
34.7500 413.0000 1.0000
34.7600 427.0000 1.0000
34.7700 434.0000 1.0000
34.7800 429.0000 1.0000
34.7900 450.0000 1.0000
34.8000 459.0000 1.0000
34.8100 430.0000 1.0000
34.8200 437.0000 1.0000
34.8300 431.0000 1.0000
34.8400 449.0000 1.0000
34.8500 444.0000 1.0000
34.8600 455.0000 1.0000
34.8700 435.0000 1.0000
34.8800 447.0000 1.0000
34.8900 438.0000 1.0000
34.9000 461.0000 1.0000
34.9100 446.0000 1.0000
34.9200 431.0000 1.0000
34.9300 427.0000 1.0000
34.9400 416.0000 1.0000
34.9500 445.0000 1.0000
34.9600 418.0000 1.0000
34.9700 429.0000 1.0000
34.9800 455.0000 1.0000
34.9900 430.0000 1.0000
35.0000 457.0000 1.0000
35.0100 465.0000 1.0000
35.0200 454.0000 1.0000
35.0300 446.0000 1.0000
35.0400 406.0000 1.0000
35.0500 434.0000 1.0000
35.0600 433.0000 1.0000
35.0700 433.0000 1.0000
35.0800 440.0000 1.0000
35.0900 447.0000 1.0000
35.1000 415.0000 1.0000
35.1100 430.0000 1.0000
35.1200 439.0000 1.0000
35.1300 406.0000 1.0000
35.1400 458.0000 1.0000
35.1500 413.0000 1.0000
35.1600 420.0000 1.0000
35.1700 415.0000 1.0000
35.1800 465.0000 1.0000
35.1900 459.0000 1.0000
35.2000 450.0000 1.0000
35.2100 459.0000 1.0000
35.2200 443.0000 1.0000
35.2300 466.0000 1.0000
35.2400 483.0000 1.0000
35.2500 448.0000 1.0000
35.2600 450.0000 1.0000
35.2700 477.0000 1.0000
35.2800 429.0000 1.0000
35.2900 444.0000 1.0000
35.3000 455.0000 1.0000
35.3100 494.0000 1.0000
35.3200 436.0000 1.0000
35.3300 478.0000 1.0000
35.3400 524.0000 1.0000
35.3500 512.0000 1.0000
35.3600 542.0000 1.0000
35.3700 503.0000 1.0000
35.3800 517.0000 1.0000
35.3900 526.0000 1.0000
35.4000 520.0000 1.0000
35.4100 562.0000 1.0000
35.4200 567.0000 1.0000
35.4300 579.0000 1.0000
35.4400 635.0000 1.0000
35.4500 619.0000 1.0000
35.4600 616.0000 1.0000
35.4700 659.0000 1.0000
35.4800 677.0000 1.0000
35.4900 729.0000 1.0000
35.5000 715.0000 1.0000
35.5100 743.0000 1.0000
35.5200 753.0000 1.0000
35.5300 777.0000 1.0000
35.5400 781.0000 1.0000
35.5500 790.0000 1.0000
35.5600 842.0000 1.0000
35.5700 862.0000 1.0000
35.5800 816.0000 1.0000
35.5900 854.0000 1.0000
35.6000 842.0000 1.0000
35.6100 813.0000 1.0000
35.6200 813.0000 1.0000
35.6300 771.0000 1.0000
35.6400 753.0000 1.0000
35.6500 731.0000 1.0000
35.6600 737.0000 1.0000
35.6700 668.0000 1.0000
35.6800 681.0000 1.0000
35.6900 707.0000 1.0000
35.7000 662.0000 1.0000
35.7100 604.0000 1.0000
35.7200 577.0000 1.0000
35.7300 610.0000 1.0000
35.7400 552.0000 1.0000
35.7500 527.0000 1.0000
35.7600 535.0000 1.0000
35.7700 526.0000 1.0000
35.7800 550.0000 1.0000
35.7900 489.0000 1.0000
35.8000 478.0000 1.0000
35.8100 467.0000 1.0000
35.8200 484.0000 1.0000
35.8300 480.0000 1.0000
35.8400 483.0000 1.0000
35.8500 457.0000 1.0000
35.8600 441.0000 1.0000
35.8700 435.0000 1.0000
35.8800 459.0000 1.0000
35.8900 477.0000 1.0000
35.9000 466.0000 1.0000
35.9100 446.0000 1.0000
35.9200 414.0000 1.0000
35.9300 412.0000 1.0000
35.9400 420.0000 1.0000
35.9500 441.0000 1.0000
35.9600 419.0000 1.0000
35.9700 441.0000 1.0000
35.9800 400.0000 1.0000
35.9900 394.0000 1.0000
36.0000 402.0000 1.0000
36.0100 432.0000 1.0000
36.0200 443.0000 1.0000
36.0300 429.0000 1.0000
36.0400 441.0000 1.0000
36.0500 435.0000 1.0000
36.0600 408.0000 1.0000
36.0700 399.0000 1.0000
36.0800 411.0000 1.0000
36.0900 422.0000 1.0000
36.1000 430.0000 1.0000
36.1100 393.0000 1.0000
36.1200 410.0000 1.0000
36.1300 407.0000 1.0000
36.1400 415.0000 1.0000
36.1500 439.0000 1.0000
36.1600 421.0000 1.0000
36.1700 399.0000 1.0000
36.1800 410.0000 1.0000
36.1900 437.0000 1.0000
36.2000 426.0000 1.0000
36.2100 438.0000 1.0000
36.2200 393.0000 1.0000
36.2300 410.0000 1.0000
36.2400 417.0000 1.0000
36.2500 400.0000 1.0000
36.2600 430.0000 1.0000
36.2700 417.0000 1.0000
36.2800 397.0000 1.0000
36.2900 412.0000 1.0000
36.3000 415.0000 1.0000
36.3100 391.0000 1.0000
36.3200 404.0000 1.0000
36.3300 404.0000 1.0000
36.3400 419.0000 1.0000
36.3500 410.0000 1.0000
36.3600 427.0000 1.0000
36.3700 418.0000 1.0000
36.3800 388.0000 1.0000
36.3900 384.0000 1.0000
36.4000 428.0000 1.0000
36.4100 435.0000 1.0000
36.4200 412.0000 1.0000
36.4300 408.0000 1.0000
36.4400 416.0000 1.0000
36.4500 376.0000 1.0000
36.4600 425.0000 1.0000
36.4700 399.0000 1.0000
36.4800 398.0000 1.0000
36.4900 412.0000 1.0000
36.5000 430.0000 1.0000
36.5100 417.0000 1.0000
36.5200 385.0000 1.0000
36.5300 422.0000 1.0000
36.5400 420.0000 1.0000
36.5500 413.0000 1.0000
36.5600 384.0000 1.0000
36.5700 414.0000 1.0000
36.5800 404.0000 1.0000
36.5900 404.0000 1.0000
36.6000 429.0000 1.0000
36.6100 401.0000 1.0000
36.6200 395.0000 1.0000
36.6300 398.0000 1.0000
36.6400 407.0000 1.0000
36.6500 411.0000 1.0000
36.6600 401.0000 1.0000
36.6700 411.0000 1.0000
36.6800 417.0000 1.0000
36.6900 430.0000 1.0000
36.7000 423.0000 1.0000
36.7100 402.0000 1.0000
36.7200 429.0000 1.0000
36.7300 423.0000 1.0000
36.7400 370.0000 1.0000
36.7500 417.0000 1.0000
36.7600 435.0000 1.0000
36.7700 448.0000 1.0000
36.7800 435.0000 1.0000
36.7900 409.0000 1.0000
36.8000 435.0000 1.0000
36.8100 381.0000 1.0000
36.8200 442.0000 1.0000
36.8300 437.0000 1.0000
36.8400 376.0000 1.0000
36.8500 459.0000 1.0000
36.8600 414.0000 1.0000
36.8700 408.0000 1.0000
36.8800 423.0000 1.0000
36.8900 399.0000 1.0000
36.9000 407.0000 1.0000
36.9100 419.0000 1.0000
36.9200 408.0000 1.0000
36.9300 425.0000 1.0000
36.9400 433.0000 1.0000
36.9500 423.0000 1.0000
36.9600 396.0000 1.0000
36.9700 428.0000 1.0000
36.9800 460.0000 1.0000
36.9900 425.0000 1.0000
37.0000 435.0000 1.0000
37.0100 447.0000 1.0000
37.0200 422.0000 1.0000
37.0300 422.0000 1.0000
37.0400 385.0000 1.0000
37.0500 402.0000 1.0000
37.0600 401.0000 1.0000
37.0700 443.0000 1.0000
37.0800 412.0000 1.0000
37.0900 402.0000 1.0000
37.1000 457.0000 1.0000
37.1100 437.0000 1.0000
37.1200 430.0000 1.0000
37.1300 472.0000 1.0000
37.1400 449.0000 1.0000
37.1500 453.0000 1.0000
37.1600 461.0000 1.0000
37.1700 435.0000 1.0000
37.1800 436.0000 1.0000
37.1900 454.0000 1.0000
37.2000 475.0000 1.0000
37.2100 494.0000 1.0000
37.2200 470.0000 1.0000
37.2300 456.0000 1.0000
37.2400 483.0000 1.0000
37.2500 483.0000 1.0000
37.2600 482.0000 1.0000
37.2700 469.0000 1.0000
37.2800 532.0000 1.0000
37.2900 528.0000 1.0000
37.3000 531.0000 1.0000
37.3100 539.0000 1.0000
37.3200 524.0000 1.0000
37.3300 586.0000 1.0000
37.3400 604.0000 1.0000
37.3500 616.0000 1.0000
37.3600 636.0000 1.0000
37.3700 603.0000 1.0000
37.3800 628.0000 1.0000
37.3900 646.0000 1.0000
37.4000 683.0000 1.0000
37.4100 683.0000 1.0000
37.4200 720.0000 1.0000
37.4300 775.0000 1.0000
37.4400 727.0000 1.0000
37.4500 820.0000 1.0000
37.4600 877.0000 1.0000
37.4700 845.0000 1.0000
37.4800 920.0000 1.0000
37.4900 969.0000 1.0000
37.5000 971.0000 1.0000
37.5100 1043.0000 1.0000
37.5200 1136.0000 1.0000
37.5300 1175.0000 1.0000
37.5400 1248.0000 1.0000
37.5500 1353.0000 1.0000
37.5600 1414.0000 1.0000
37.5700 1502.0000 1.0000
37.5800 1565.0000 1.0000
37.5900 1769.0000 1.0000
37.6000 1800.0000 1.0000
37.6100 1857.0000 1.0000
37.6200 1995.0000 1.0000
37.6300 2220.0000 1.0000
37.6400 2309.0000 1.0000
37.6500 2482.0000 1.0000
37.6600 2639.0000 1.0000
37.6700 2731.0000 1.0000
37.6800 2814.0000 1.0000
37.6900 2890.0000 1.0000
37.7000 2965.0000 1.0000
37.7100 2939.0000 1.0000
37.7200 3105.0000 1.0000
37.7300 3113.0000 1.0000
37.7400 3120.0000 1.0000
37.7500 3004.0000 1.0000
37.7600 2893.0000 1.0000
37.7700 2744.0000 1.0000
37.7800 2807.0000 1.0000
37.7900 2606.0000 1.0000
37.8000 2572.0000 1.0000
37.8100 2513.0000 1.0000
37.8200 2430.0000 1.0000
37.8300 2219.0000 1.0000
37.8400 2128.0000 1.0000
37.8500 1921.0000 1.0000
37.8600 1790.0000 1.0000
37.8700 1694.0000 1.0000
37.8800 1677.0000 1.0000
37.8900 1492.0000 1.0000
37.9000 1398.0000 1.0000
37.9100 1344.0000 1.0000
37.9200 1239.0000 1.0000
37.9300 1174.0000 1.0000
37.9400 1048.0000 1.0000
37.9500 1054.0000 1.0000
37.9600 1009.0000 1.0000
37.9700 947.0000 1.0000
37.9800 868.0000 1.0000
37.9900 797.0000 1.0000
38.0000 757.0000 1.0000
38.0100 756.0000 1.0000
38.0200 705.0000 1.0000
38.0300 671.0000 1.0000
38.0400 690.0000 1.0000
38.0500 692.0000 1.0000
38.0600 619.0000 1.0000
38.0700 603.0000 1.0000
38.0800 573.0000 1.0000
38.0900 585.0000 1.0000
38.1000 558.0000 1.0000
38.1100 582.0000 1.0000
38.1200 542.0000 1.0000
38.1300 493.0000 1.0000
38.1400 491.0000 1.0000
38.1500 471.0000 1.0000
38.1600 468.0000 1.0000
38.1700 497.0000 1.0000
38.1800 462.0000 1.0000
38.1900 472.0000 1.0000
38.2000 435.0000 1.0000
38.2100 437.0000 1.0000
38.2200 452.0000 1.0000
38.2300 436.0000 1.0000
38.2400 434.0000 1.0000
38.2500 418.0000 1.0000
38.2600 466.0000 1.0000
38.2700 402.0000 1.0000
38.2800 419.0000 1.0000
38.2900 397.0000 1.0000
38.3000 407.0000 1.0000
38.3100 437.0000 1.0000
38.3200 416.0000 1.0000
38.3300 433.0000 1.0000
38.3400 422.0000 1.0000
38.3500 414.0000 1.0000
38.3600 416.0000 1.0000
38.3700 404.0000 1.0000
38.3800 394.0000 1.0000
38.3900 410.0000 1.0000
38.4000 378.0000 1.0000
38.4100 382.0000 1.0000
38.4200 368.0000 1.0000
38.4300 398.0000 1.0000
38.4400 383.0000 1.0000
38.4500 380.0000 1.0000
38.4600 365.0000 1.0000
38.4700 387.0000 1.0000
38.4800 376.0000 1.0000
38.4900 354.0000 1.0000
38.5000 388.0000 1.0000
38.5100 370.0000 1.0000
38.5200 370.0000 1.0000
38.5300 388.0000 1.0000
38.5400 383.0000 1.0000
38.5500 366.0000 1.0000
38.5600 346.0000 1.0000
38.5700 349.0000 1.0000
38.5800 371.0000 1.0000
38.5900 373.0000 1.0000
38.6000 372.0000 1.0000
38.6100 376.0000 1.0000
38.6200 379.0000 1.0000
38.6300 385.0000 1.0000
38.6400 379.0000 1.0000
38.6500 364.0000 1.0000
38.6600 357.0000 1.0000
38.6700 374.0000 1.0000
38.6800 366.0000 1.0000
38.6900 368.0000 1.0000
38.7000 358.0000 1.0000
38.7100 381.0000 1.0000
38.7200 396.0000 1.0000
38.7300 346.0000 1.0000
38.7400 370.0000 1.0000
38.7500 347.0000 1.0000
38.7600 390.0000 1.0000
38.7700 361.0000 1.0000
38.7800 350.0000 1.0000
38.7900 378.0000 1.0000
38.8000 361.0000 1.0000
38.8100 346.0000 1.0000
38.8200 365.0000 1.0000
38.8300 311.0000 1.0000
38.8400 395.0000 1.0000
38.8500 372.0000 1.0000
38.8600 355.0000 1.0000
38.8700 379.0000 1.0000
38.8800 395.0000 1.0000
38.8900 377.0000 1.0000
38.9000 370.0000 1.0000
38.9100 385.0000 1.0000
38.9200 378.0000 1.0000
38.9300 328.0000 1.0000
38.9400 337.0000 1.0000
38.9500 381.0000 1.0000
38.9600 343.0000 1.0000
38.9700 338.0000 1.0000
38.9800 350.0000 1.0000
38.9900 356.0000 1.0000
39.0000 341.0000 1.0000
39.0100 339.0000 1.0000
39.0200 345.0000 1.0000
39.0300 368.0000 1.0000
39.0400 399.0000 1.0000
39.0500 346.0000 1.0000
39.0600 373.0000 1.0000
39.0700 346.0000 1.0000
39.0800 339.0000 1.0000
39.0900 348.0000 1.0000
39.1000 347.0000 1.0000
39.1100 343.0000 1.0000
39.1200 345.0000 1.0000
39.1300 341.0000 1.0000
39.1400 329.0000 1.0000
39.1500 338.0000 1.0000
39.1600 329.0000 1.0000
39.1700 356.0000 1.0000
39.1800 360.0000 1.0000
39.1900 337.0000 1.0000
39.2000 363.0000 1.0000
39.2100 350.0000 1.0000
39.2200 349.0000 1.0000
39.2300 370.0000 1.0000
39.2400 349.0000 1.0000
39.2500 354.0000 1.0000
39.2600 366.0000 1.0000
39.2700 360.0000 1.0000
39.2800 345.0000 1.0000
39.2900 358.0000 1.0000
39.3000 346.0000 1.0000
39.3100 340.0000 1.0000
39.3200 348.0000 1.0000
39.3300 366.0000 1.0000
39.3400 352.0000 1.0000
39.3500 353.0000 1.0000
39.3600 353.0000 1.0000
39.3700 346.0000 1.0000
39.3800 355.0000 1.0000
39.3900 321.0000 1.0000
39.4000 332.0000 1.0000
39.4100 365.0000 1.0000
39.4200 349.0000 1.0000
39.4300 393.0000 1.0000
39.4400 365.0000 1.0000
39.4500 322.0000 1.0000
39.4600 315.0000 1.0000
39.4700 295.0000 1.0000
39.4800 331.0000 1.0000
39.4900 349.0000 1.0000
39.5000 342.0000 1.0000
39.5100 331.0000 1.0000
39.5200 326.0000 1.0000
39.5300 337.0000 1.0000
39.5400 336.0000 1.0000
39.5500 355.0000 1.0000
39.5600 366.0000 1.0000
39.5700 318.0000 1.0000
39.5800 335.0000 1.0000
39.5900 324.0000 1.0000
39.6000 338.0000 1.0000
39.6100 341.0000 1.0000
39.6200 329.0000 1.0000
39.6300 342.0000 1.0000
39.6400 377.0000 1.0000
39.6500 350.0000 1.0000
39.6600 349.0000 1.0000
39.6700 348.0000 1.0000
39.6800 346.0000 1.0000
39.6900 354.0000 1.0000
39.7000 362.0000 1.0000
39.7100 322.0000 1.0000
39.7200 324.0000 1.0000
39.7300 337.0000 1.0000
39.7400 338.0000 1.0000
39.7500 325.0000 1.0000
39.7600 326.0000 1.0000
39.7700 334.0000 1.0000
39.7800 324.0000 1.0000
39.7900 329.0000 1.0000
39.8000 354.0000 1.0000
39.8100 349.0000 1.0000
39.8200 331.0000 1.0000
39.8300 341.0000 1.0000
39.8400 319.0000 1.0000
39.8500 332.0000 1.0000
39.8600 328.0000 1.0000
39.8700 320.0000 1.0000
39.8800 327.0000 1.0000
39.8900 364.0000 1.0000
39.9000 344.0000 1.0000
39.9100 368.0000 1.0000
39.9200 321.0000 1.0000
39.9300 361.0000 1.0000
39.9400 324.0000 1.0000
39.9500 326.0000 1.0000
39.9600 357.0000 1.0000
39.9700 344.0000 1.0000
39.9800 338.0000 1.0000
39.9900 341.0000 1.0000
40.0000 337.0000 1.0000
40.0100 336.0000 1.0000
40.0200 325.0000 1.0000
40.0300 350.0000 1.0000
40.0400 353.0000 1.0000
40.0500 329.0000 1.0000
40.0600 327.0000 1.0000
40.0700 318.0000 1.0000
40.0800 334.0000 1.0000
40.0900 361.0000 1.0000
40.1000 312.0000 1.0000
40.1100 361.0000 1.0000
40.1200 328.0000 1.0000
40.1300 343.0000 1.0000
40.1400 360.0000 1.0000
40.1500 346.0000 1.0000
40.1600 343.0000 1.0000
40.1700 300.0000 1.0000
40.1800 311.0000 1.0000
40.1900 305.0000 1.0000
40.2000 336.0000 1.0000
40.2100 357.0000 1.0000
40.2200 341.0000 1.0000
40.2300 333.0000 1.0000
40.2400 341.0000 1.0000
40.2500 320.0000 1.0000
40.2600 350.0000 1.0000
40.2700 348.0000 1.0000
40.2800 319.0000 1.0000
40.2900 343.0000 1.0000
40.3000 317.0000 1.0000
40.3100 319.0000 1.0000
40.3200 316.0000 1.0000
40.3300 346.0000 1.0000
40.3400 355.0000 1.0000
40.3500 327.0000 1.0000
40.3600 342.0000 1.0000
40.3700 331.0000 1.0000
40.3800 340.0000 1.0000
40.3900 350.0000 1.0000
40.4000 345.0000 1.0000
40.4100 358.0000 1.0000
40.4200 366.0000 1.0000
40.4300 357.0000 1.0000
40.4400 314.0000 1.0000
40.4500 400.0000 1.0000
40.4600 361.0000 1.0000
40.4700 332.0000 1.0000
40.4800 339.0000 1.0000
40.4900 327.0000 1.0000
40.5000 317.0000 1.0000
40.5100 319.0000 1.0000
40.5200 344.0000 1.0000
40.5300 350.0000 1.0000
40.5400 337.0000 1.0000
40.5500 352.0000 1.0000
40.5600 343.0000 1.0000
40.5700 359.0000 1.0000
40.5800 389.0000 1.0000
40.5900 333.0000 1.0000
40.6000 357.0000 1.0000
40.6100 384.0000 1.0000
40.6200 345.0000 1.0000
40.6300 325.0000 1.0000
40.6400 345.0000 1.0000
40.6500 368.0000 1.0000
40.6600 362.0000 1.0000
40.6700 346.0000 1.0000
40.6800 341.0000 1.0000
40.6900 345.0000 1.0000
40.7000 342.0000 1.0000
40.7100 336.0000 1.0000
40.7200 339.0000 1.0000
40.7300 354.0000 1.0000
40.7400 366.0000 1.0000
40.7500 357.0000 1.0000
40.7600 361.0000 1.0000
40.7700 367.0000 1.0000
40.7800 379.0000 1.0000
40.7900 368.0000 1.0000
40.8000 379.0000 1.0000
40.8100 361.0000 1.0000
40.8200 406.0000 1.0000
40.8300 392.0000 1.0000
40.8400 386.0000 1.0000
40.8500 376.0000 1.0000
40.8600 352.0000 1.0000
40.8700 355.0000 1.0000
40.8800 364.0000 1.0000
40.8900 372.0000 1.0000
40.9000 361.0000 1.0000
40.9100 368.0000 1.0000
40.9200 378.0000 1.0000
40.9300 340.0000 1.0000
40.9400 337.0000 1.0000
40.9500 344.0000 1.0000
40.9600 366.0000 1.0000
40.9700 339.0000 1.0000
40.9800 352.0000 1.0000
40.9900 331.0000 1.0000
41.0000 337.0000 1.0000
41.0100 325.0000 1.0000
41.0200 331.0000 1.0000
41.0300 312.0000 1.0000
41.0400 311.0000 1.0000
41.0500 330.0000 1.0000
41.0600 345.0000 1.0000
41.0700 335.0000 1.0000
41.0800 312.0000 1.0000
41.0900 323.0000 1.0000
41.1000 328.0000 1.0000
41.1100 352.0000 1.0000
41.1200 355.0000 1.0000
41.1300 324.0000 1.0000
41.1400 332.0000 1.0000
41.1500 319.0000 1.0000
41.1600 341.0000 1.0000
41.1700 325.0000 1.0000
41.1800 313.0000 1.0000
41.1900 331.0000 1.0000
41.2000 310.0000 1.0000
41.2100 324.0000 1.0000
41.2200 299.0000 1.0000
41.2300 324.0000 1.0000
41.2400 340.0000 1.0000
41.2500 319.0000 1.0000
41.2600 313.0000 1.0000
41.2700 314.0000 1.0000
41.2800 294.0000 1.0000
41.2900 310.0000 1.0000
41.3000 317.0000 1.0000
41.3100 327.0000 1.0000
41.3200 333.0000 1.0000
41.3300 336.0000 1.0000
41.3400 296.0000 1.0000
41.3500 299.0000 1.0000
41.3600 321.0000 1.0000
41.3700 304.0000 1.0000
41.3800 346.0000 1.0000
41.3900 312.0000 1.0000
41.4000 314.0000 1.0000
41.4100 311.0000 1.0000
41.4200 319.0000 1.0000
41.4300 341.0000 1.0000
41.4400 326.0000 1.0000
41.4500 336.0000 1.0000
41.4600 335.0000 1.0000
41.4700 303.0000 1.0000
41.4800 324.0000 1.0000
41.4900 318.0000 1.0000
41.5000 323.0000 1.0000
41.5100 336.0000 1.0000
41.5200 281.0000 1.0000
41.5300 322.0000 1.0000
41.5400 306.0000 1.0000
41.5500 303.0000 1.0000
41.5600 291.0000 1.0000
41.5700 290.0000 1.0000
41.5800 327.0000 1.0000
41.5900 312.0000 1.0000
41.6000 340.0000 1.0000
41.6100 339.0000 1.0000
41.6200 306.0000 1.0000
41.6300 334.0000 1.0000
41.6400 352.0000 1.0000
41.6500 323.0000 1.0000
41.6600 335.0000 1.0000
41.6700 321.0000 1.0000
41.6800 322.0000 1.0000
41.6900 303.0000 1.0000
41.7000 328.0000 1.0000
41.7100 313.0000 1.0000
41.7200 322.0000 1.0000
41.7300 325.0000 1.0000
41.7400 332.0000 1.0000
41.7500 338.0000 1.0000
41.7600 322.0000 1.0000
41.7700 307.0000 1.0000
41.7800 300.0000 1.0000
41.7900 321.0000 1.0000
41.8000 327.0000 1.0000
41.8100 323.0000 1.0000
41.8200 321.0000 1.0000
41.8300 332.0000 1.0000
41.8400 293.0000 1.0000
41.8500 307.0000 1.0000
41.8600 310.0000 1.0000
41.8700 317.0000 1.0000
41.8800 325.0000 1.0000
41.8900 320.0000 1.0000
41.9000 334.0000 1.0000
41.9100 324.0000 1.0000
41.9200 342.0000 1.0000
41.9300 316.0000 1.0000
41.9400 323.0000 1.0000
41.9500 298.0000 1.0000
41.9600 339.0000 1.0000
41.9700 299.0000 1.0000
41.9800 313.0000 1.0000
41.9900 323.0000 1.0000
42.0000 313.0000 1.0000
42.0100 322.0000 1.0000
42.0200 335.0000 1.0000
42.0300 311.0000 1.0000
42.0400 337.0000 1.0000
42.0500 314.0000 1.0000
42.0600 311.0000 1.0000
42.0700 325.0000 1.0000
42.0800 317.0000 1.0000
42.0900 319.0000 1.0000
42.1000 335.0000 1.0000
42.1100 337.0000 1.0000
42.1200 312.0000 1.0000
42.1300 338.0000 1.0000
42.1400 321.0000 1.0000
42.1500 287.0000 1.0000
42.1600 326.0000 1.0000
42.1700 321.0000 1.0000
42.1800 348.0000 1.0000
42.1900 338.0000 1.0000
42.2000 326.0000 1.0000
42.2100 332.0000 1.0000
42.2200 335.0000 1.0000
42.2300 324.0000 1.0000
42.2400 326.0000 1.0000
42.2500 342.0000 1.0000
42.2600 329.0000 1.0000
42.2700 325.0000 1.0000
42.2800 315.0000 1.0000
42.2900 314.0000 1.0000
42.3000 331.0000 1.0000
42.3100 342.0000 1.0000
42.3200 344.0000 1.0000
42.3300 333.0000 1.0000
42.3400 349.0000 1.0000
42.3500 354.0000 1.0000
42.3600 334.0000 1.0000
42.3700 345.0000 1.0000
42.3800 352.0000 1.0000
42.3900 338.0000 1.0000
42.4000 334.0000 1.0000
42.4100 309.0000 1.0000
42.4200 311.0000 1.0000
42.4300 332.0000 1.0000
42.4400 328.0000 1.0000
42.4500 339.0000 1.0000
42.4600 327.0000 1.0000
42.4700 331.0000 1.0000
42.4800 329.0000 1.0000
42.4900 320.0000 1.0000
42.5000 311.0000 1.0000
42.5100 319.0000 1.0000
42.5200 313.0000 1.0000
42.5300 321.0000 1.0000
42.5400 329.0000 1.0000
42.5500 357.0000 1.0000
42.5600 323.0000 1.0000
42.5700 329.0000 1.0000
42.5800 319.0000 1.0000
42.5900 308.0000 1.0000
42.6000 316.0000 1.0000
42.6100 298.0000 1.0000
42.6200 325.0000 1.0000
42.6300 331.0000 1.0000
42.6400 331.0000 1.0000
42.6500 321.0000 1.0000
42.6600 332.0000 1.0000
42.6700 310.0000 1.0000
42.6800 297.0000 1.0000
42.6900 313.0000 1.0000
42.7000 287.0000 1.0000
42.7100 312.0000 1.0000
42.7200 312.0000 1.0000
42.7300 316.0000 1.0000
42.7400 299.0000 1.0000
42.7500 284.0000 1.0000
42.7600 341.0000 1.0000
42.7700 295.0000 1.0000
42.7800 303.0000 1.0000
42.7900 328.0000 1.0000
42.8000 319.0000 1.0000
42.8100 321.0000 1.0000
42.8200 321.0000 1.0000
42.8300 309.0000 1.0000
42.8400 310.0000 1.0000
42.8500 309.0000 1.0000
42.8600 340.0000 1.0000
42.8700 301.0000 1.0000
42.8800 317.0000 1.0000
42.8900 332.0000 1.0000
42.9000 336.0000 1.0000
42.9100 312.0000 1.0000
42.9200 289.0000 1.0000
42.9300 291.0000 1.0000
42.9400 308.0000 1.0000
42.9500 305.0000 1.0000
42.9600 323.0000 1.0000
42.9700 278.0000 1.0000
42.9800 297.0000 1.0000
42.9900 303.0000 1.0000
43.0000 310.0000 1.0000
43.0100 317.0000 1.0000
43.0200 318.0000 1.0000
43.0300 311.0000 1.0000
43.0400 310.0000 1.0000
43.0500 342.0000 1.0000
43.0600 321.0000 1.0000
43.0700 294.0000 1.0000
43.0800 305.0000 1.0000
43.0900 292.0000 1.0000
43.1000 310.0000 1.0000
43.1100 318.0000 1.0000
43.1200 327.0000 1.0000
43.1300 295.0000 1.0000
43.1400 300.0000 1.0000
43.1500 302.0000 1.0000
43.1600 311.0000 1.0000
43.1700 310.0000 1.0000
43.1800 303.0000 1.0000
43.1900 315.0000 1.0000
43.2000 303.0000 1.0000
43.2100 313.0000 1.0000
43.2200 309.0000 1.0000
43.2300 298.0000 1.0000
43.2400 314.0000 1.0000
43.2500 311.0000 1.0000
43.2600 284.0000 1.0000
43.2700 288.0000 1.0000
43.2800 320.0000 1.0000
43.2900 319.0000 1.0000
43.3000 327.0000 1.0000
43.3100 322.0000 1.0000
43.3200 329.0000 1.0000
43.3300 315.0000 1.0000
43.3400 306.0000 1.0000
43.3500 319.0000 1.0000
43.3600 280.0000 1.0000
43.3700 302.0000 1.0000
43.3800 312.0000 1.0000
43.3900 309.0000 1.0000
43.4000 316.0000 1.0000
43.4100 315.0000 1.0000
43.4200 306.0000 1.0000
43.4300 299.0000 1.0000
43.4400 307.0000 1.0000
43.4500 313.0000 1.0000
43.4600 292.0000 1.0000
43.4700 310.0000 1.0000
43.4800 326.0000 1.0000
43.4900 343.0000 1.0000
43.5000 298.0000 1.0000
43.5100 318.0000 1.0000
43.5200 327.0000 1.0000
43.5300 316.0000 1.0000
43.5400 317.0000 1.0000
43.5500 316.0000 1.0000
43.5600 285.0000 1.0000
43.5700 300.0000 1.0000
43.5800 294.0000 1.0000
43.5900 314.0000 1.0000
43.6000 323.0000 1.0000
43.6100 302.0000 1.0000
43.6200 310.0000 1.0000
43.6300 294.0000 1.0000
43.6400 309.0000 1.0000
43.6500 297.0000 1.0000
43.6600 279.0000 1.0000
43.6700 288.0000 1.0000
43.6800 292.0000 1.0000
43.6900 304.0000 1.0000
43.7000 282.0000 1.0000
43.7100 317.0000 1.0000
43.7200 309.0000 1.0000
43.7300 311.0000 1.0000
43.7400 315.0000 1.0000
43.7500 296.0000 1.0000
43.7600 309.0000 1.0000
43.7700 303.0000 1.0000
43.7800 290.0000 1.0000
43.7900 329.0000 1.0000
43.8000 300.0000 1.0000
43.8100 314.0000 1.0000
43.8200 290.0000 1.0000
43.8300 295.0000 1.0000
43.8400 301.0000 1.0000
43.8500 287.0000 1.0000
43.8600 292.0000 1.0000
43.8700 312.0000 1.0000
43.8800 287.0000 1.0000
43.8900 314.0000 1.0000
43.9000 294.0000 1.0000
43.9100 328.0000 1.0000
43.9200 297.0000 1.0000
43.9300 296.0000 1.0000
43.9400 290.0000 1.0000
43.9500 311.0000 1.0000
43.9600 312.0000 1.0000
43.9700 325.0000 1.0000
43.9800 321.0000 1.0000
43.9900 288.0000 1.0000
44.0000 322.0000 1.0000
44.0100 282.0000 1.0000
44.0200 308.0000 1.0000
44.0300 298.0000 1.0000
44.0400 318.0000 1.0000
44.0500 305.0000 1.0000
44.0600 321.0000 1.0000
44.0700 296.0000 1.0000
44.0800 301.0000 1.0000
44.0900 290.0000 1.0000
44.1000 295.0000 1.0000
44.1100 304.0000 1.0000
44.1200 290.0000 1.0000
44.1300 300.0000 1.0000
44.1400 326.0000 1.0000
44.1500 292.0000 1.0000
44.1600 301.0000 1.0000
44.1700 299.0000 1.0000
44.1800 332.0000 1.0000
44.1900 290.0000 1.0000
44.2000 283.0000 1.0000
44.2100 279.0000 1.0000
44.2200 289.0000 1.0000
44.2300 300.0000 1.0000
44.2400 294.0000 1.0000
44.2500 299.0000 1.0000
44.2600 287.0000 1.0000
44.2700 324.0000 1.0000
44.2800 314.0000 1.0000
44.2900 300.0000 1.0000
44.3000 288.0000 1.0000
44.3100 281.0000 1.0000
44.3200 266.0000 1.0000
44.3300 308.0000 1.0000
44.3400 306.0000 1.0000
44.3500 298.0000 1.0000
44.3600 305.0000 1.0000
44.3700 293.0000 1.0000
44.3800 294.0000 1.0000
44.3900 315.0000 1.0000
44.4000 297.0000 1.0000
44.4100 305.0000 1.0000
44.4200 299.0000 1.0000
44.4300 307.0000 1.0000
44.4400 295.0000 1.0000
44.4500 258.0000 1.0000
44.4600 307.0000 1.0000
44.4700 310.0000 1.0000
44.4800 305.0000 1.0000
44.4900 300.0000 1.0000
44.5000 297.0000 1.0000
44.5100 301.0000 1.0000
44.5200 294.0000 1.0000
44.5300 297.0000 1.0000
44.5400 297.0000 1.0000
44.5500 290.0000 1.0000
44.5600 281.0000 1.0000
44.5700 300.0000 1.0000
44.5800 287.0000 1.0000
44.5900 314.0000 1.0000
44.6000 291.0000 1.0000
44.6100 294.0000 1.0000
44.6200 298.0000 1.0000
44.6300 296.0000 1.0000
44.6400 317.0000 1.0000
44.6500 321.0000 1.0000
44.6600 323.0000 1.0000
44.6700 323.0000 1.0000
44.6800 285.0000 1.0000
44.6900 299.0000 1.0000
44.7000 274.0000 1.0000
44.7100 311.0000 1.0000
44.7200 302.0000 1.0000
44.7300 294.0000 1.0000
44.7400 302.0000 1.0000
44.7500 301.0000 1.0000
44.7600 268.0000 1.0000
44.7700 303.0000 1.0000
44.7800 308.0000 1.0000
44.7900 277.0000 1.0000
44.8000 302.0000 1.0000
44.8100 304.0000 1.0000
44.8200 278.0000 1.0000
44.8300 274.0000 1.0000
44.8400 302.0000 1.0000
44.8500 309.0000 1.0000
44.8600 319.0000 1.0000
44.8700 299.0000 1.0000
44.8800 307.0000 1.0000
44.8900 300.0000 1.0000
44.9000 279.0000 1.0000
44.9100 283.0000 1.0000
44.9200 312.0000 1.0000
44.9300 302.0000 1.0000
44.9400 300.0000 1.0000
44.9500 293.0000 1.0000
44.9600 313.0000 1.0000
44.9700 310.0000 1.0000
44.9800 272.0000 1.0000
44.9900 299.0000 1.0000
45.0000 278.0000 1.0000
45.0100 297.0000 1.0000
45.0200 282.0000 1.0000
45.0300 304.0000 1.0000
45.0400 287.0000 1.0000
45.0500 305.0000 1.0000
45.0600 306.0000 1.0000
45.0700 277.0000 1.0000
45.0800 305.0000 1.0000
45.0900 287.0000 1.0000
45.1000 302.0000 1.0000
45.1100 313.0000 1.0000
45.1200 281.0000 1.0000
45.1300 276.0000 1.0000
45.1400 287.0000 1.0000
45.1500 305.0000 1.0000
45.1600 292.0000 1.0000
45.1700 282.0000 1.0000
45.1800 300.0000 1.0000
45.1900 309.0000 1.0000
45.2000 316.0000 1.0000
45.2100 317.0000 1.0000
45.2200 296.0000 1.0000
45.2300 289.0000 1.0000
45.2400 291.0000 1.0000
45.2500 293.0000 1.0000
45.2600 309.0000 1.0000
45.2700 298.0000 1.0000
45.2800 302.0000 1.0000
45.2900 317.0000 1.0000
45.3000 317.0000 1.0000
45.3100 290.0000 1.0000
45.3200 304.0000 1.0000
45.3300 295.0000 1.0000
45.3400 294.0000 1.0000
45.3500 278.0000 1.0000
45.3600 290.0000 1.0000
45.3700 316.0000 1.0000
45.3800 297.0000 1.0000
45.3900 282.0000 1.0000
45.4000 278.0000 1.0000
45.4100 306.0000 1.0000
45.4200 302.0000 1.0000
45.4300 300.0000 1.0000
45.4400 321.0000 1.0000
45.4500 302.0000 1.0000
45.4600 281.0000 1.0000
45.4700 310.0000 1.0000
45.4800 307.0000 1.0000
45.4900 276.0000 1.0000
45.5000 290.0000 1.0000
45.5100 283.0000 1.0000
45.5200 296.0000 1.0000
45.5300 298.0000 1.0000
45.5400 280.0000 1.0000
45.5500 282.0000 1.0000
45.5600 299.0000 1.0000
45.5700 304.0000 1.0000
45.5800 306.0000 1.0000
45.5900 298.0000 1.0000
45.6000 279.0000 1.0000
45.6100 307.0000 1.0000
45.6200 295.0000 1.0000
45.6300 285.0000 1.0000
45.6400 285.0000 1.0000
45.6500 263.0000 1.0000
45.6600 276.0000 1.0000
45.6700 293.0000 1.0000
45.6800 314.0000 1.0000
45.6900 291.0000 1.0000
45.7000 277.0000 1.0000
45.7100 288.0000 1.0000
45.7200 281.0000 1.0000
45.7300 300.0000 1.0000
45.7400 282.0000 1.0000
45.7500 316.0000 1.0000
45.7600 337.0000 1.0000
45.7700 304.0000 1.0000
45.7800 269.0000 1.0000
45.7900 281.0000 1.0000
45.8000 296.0000 1.0000
45.8100 289.0000 1.0000
45.8200 282.0000 1.0000
45.8300 298.0000 1.0000
45.8400 302.0000 1.0000
45.8500 287.0000 1.0000
45.8600 286.0000 1.0000
45.8700 297.0000 1.0000
45.8800 296.0000 1.0000
45.8900 287.0000 1.0000
45.9000 272.0000 1.0000
45.9100 286.0000 1.0000
45.9200 305.0000 1.0000
45.9300 289.0000 1.0000
45.9400 293.0000 1.0000
45.9500 275.0000 1.0000
45.9600 262.0000 1.0000
45.9700 294.0000 1.0000
45.9800 297.0000 1.0000
45.9900 294.0000 1.0000
46.0000 302.0000 1.0000
46.0100 304.0000 1.0000
46.0200 293.0000 1.0000
46.0300 287.0000 1.0000
46.0400 279.0000 1.0000
46.0500 278.0000 1.0000
46.0600 284.0000 1.0000
46.0700 269.0000 1.0000
46.0800 283.0000 1.0000
46.0900 270.0000 1.0000
46.1000 284.0000 1.0000
46.1100 285.0000 1.0000
46.1200 277.0000 1.0000
46.1300 295.0000 1.0000
46.1400 276.0000 1.0000
46.1500 270.0000 1.0000
46.1600 276.0000 1.0000
46.1700 295.0000 1.0000
46.1800 273.0000 1.0000
46.1900 291.0000 1.0000
46.2000 296.0000 1.0000
46.2100 288.0000 1.0000
46.2200 308.0000 1.0000
46.2300 298.0000 1.0000
46.2400 276.0000 1.0000
46.2500 268.0000 1.0000
46.2600 291.0000 1.0000
46.2700 285.0000 1.0000
46.2800 258.0000 1.0000
46.2900 284.0000 1.0000
46.3000 273.0000 1.0000
46.3100 269.0000 1.0000
46.3200 266.0000 1.0000
46.3300 290.0000 1.0000
46.3400 281.0000 1.0000
46.3500 281.0000 1.0000
46.3600 266.0000 1.0000
46.3700 262.0000 1.0000
46.3800 293.0000 1.0000
46.3900 317.0000 1.0000
46.4000 296.0000 1.0000
46.4100 290.0000 1.0000
46.4200 257.0000 1.0000
46.4300 265.0000 1.0000
46.4400 278.0000 1.0000
46.4500 301.0000 1.0000
46.4600 273.0000 1.0000
46.4700 307.0000 1.0000
46.4800 303.0000 1.0000
46.4900 274.0000 1.0000
46.5000 292.0000 1.0000
46.5100 259.0000 1.0000
46.5200 257.0000 1.0000
46.5300 279.0000 1.0000
46.5400 289.0000 1.0000
46.5500 289.0000 1.0000
46.5600 285.0000 1.0000
46.5700 286.0000 1.0000
46.5800 296.0000 1.0000
46.5900 288.0000 1.0000
46.6000 278.0000 1.0000
46.6100 248.0000 1.0000
46.6200 254.0000 1.0000
46.6300 270.0000 1.0000
46.6400 295.0000 1.0000
46.6500 273.0000 1.0000
46.6600 277.0000 1.0000
46.6700 279.0000 1.0000
46.6800 269.0000 1.0000
46.6900 299.0000 1.0000
46.7000 277.0000 1.0000
46.7100 260.0000 1.0000
46.7200 265.0000 1.0000
46.7300 286.0000 1.0000
46.7400 251.0000 1.0000
46.7500 263.0000 1.0000
46.7600 273.0000 1.0000
46.7700 286.0000 1.0000
46.7800 268.0000 1.0000
46.7900 290.0000 1.0000
46.8000 301.0000 1.0000
46.8100 285.0000 1.0000
46.8200 272.0000 1.0000
46.8300 295.0000 1.0000
46.8400 244.0000 1.0000
46.8500 254.0000 1.0000
46.8600 288.0000 1.0000
46.8700 259.0000 1.0000
46.8800 270.0000 1.0000
46.8900 305.0000 1.0000
46.9000 299.0000 1.0000
46.9100 295.0000 1.0000
46.9200 275.0000 1.0000
46.9300 253.0000 1.0000
46.9400 299.0000 1.0000
46.9500 266.0000 1.0000
46.9600 288.0000 1.0000
46.9700 288.0000 1.0000
46.9800 288.0000 1.0000
46.9900 277.0000 1.0000
47.0000 307.0000 1.0000
47.0100 296.0000 1.0000
47.0200 297.0000 1.0000
47.0300 244.0000 1.0000
47.0400 274.0000 1.0000
47.0500 284.0000 1.0000
47.0600 281.0000 1.0000
47.0700 297.0000 1.0000
47.0800 287.0000 1.0000
47.0900 278.0000 1.0000
47.1000 286.0000 1.0000
47.1100 288.0000 1.0000
47.1200 255.0000 1.0000
47.1300 277.0000 1.0000
47.1400 273.0000 1.0000
47.1500 290.0000 1.0000
47.1600 285.0000 1.0000
47.1700 262.0000 1.0000
47.1800 288.0000 1.0000
47.1900 272.0000 1.0000
47.2000 268.0000 1.0000
47.2100 277.0000 1.0000
47.2200 260.0000 1.0000
47.2300 266.0000 1.0000
47.2400 275.0000 1.0000
47.2500 276.0000 1.0000
47.2600 287.0000 1.0000
47.2700 288.0000 1.0000
47.2800 265.0000 1.0000
47.2900 300.0000 1.0000
47.3000 273.0000 1.0000
47.3100 252.0000 1.0000
47.3200 285.0000 1.0000
47.3300 284.0000 1.0000
47.3400 282.0000 1.0000
47.3500 290.0000 1.0000
47.3600 279.0000 1.0000
47.3700 277.0000 1.0000
47.3800 259.0000 1.0000
47.3900 274.0000 1.0000
47.4000 293.0000 1.0000
47.4100 283.0000 1.0000
47.4200 292.0000 1.0000
47.4300 284.0000 1.0000
47.4400 292.0000 1.0000
47.4500 250.0000 1.0000
47.4600 270.0000 1.0000
47.4700 270.0000 1.0000
47.4800 266.0000 1.0000
47.4900 248.0000 1.0000
47.5000 293.0000 1.0000
47.5100 306.0000 1.0000
47.5200 307.0000 1.0000
47.5300 284.0000 1.0000
47.5400 296.0000 1.0000
47.5500 278.0000 1.0000
47.5600 279.0000 1.0000
47.5700 282.0000 1.0000
47.5800 306.0000 1.0000
47.5900 240.0000 1.0000
47.6000 260.0000 1.0000
47.6100 265.0000 1.0000
47.6200 264.0000 1.0000
47.6300 300.0000 1.0000
47.6400 277.0000 1.0000
47.6500 279.0000 1.0000
47.6600 266.0000 1.0000
47.6700 269.0000 1.0000
47.6800 290.0000 1.0000
47.6900 294.0000 1.0000
47.7000 242.0000 1.0000
47.7100 248.0000 1.0000
47.7200 270.0000 1.0000
47.7300 279.0000 1.0000
47.7400 276.0000 1.0000
47.7500 282.0000 1.0000
47.7600 270.0000 1.0000
47.7700 279.0000 1.0000
47.7800 272.0000 1.0000
47.7900 283.0000 1.0000
47.8000 303.0000 1.0000
47.8100 262.0000 1.0000
47.8200 273.0000 1.0000
47.8300 262.0000 1.0000
47.8400 282.0000 1.0000
47.8500 275.0000 1.0000
47.8600 287.0000 1.0000
47.8700 285.0000 1.0000
47.8800 285.0000 1.0000
47.8900 266.0000 1.0000
47.9000 262.0000 1.0000
47.9100 278.0000 1.0000
47.9200 250.0000 1.0000
47.9300 265.0000 1.0000
47.9400 245.0000 1.0000
47.9500 239.0000 1.0000
47.9600 256.0000 1.0000
47.9700 260.0000 1.0000
47.9800 253.0000 1.0000
47.9900 246.0000 1.0000
48.0000 281.0000 1.0000
48.0100 262.0000 1.0000
48.0200 306.0000 1.0000
48.0300 280.0000 1.0000
48.0400 293.0000 1.0000
48.0500 286.0000 1.0000
48.0600 255.0000 1.0000
48.0700 277.0000 1.0000
48.0800 247.0000 1.0000
48.0900 259.0000 1.0000
48.1000 263.0000 1.0000
48.1100 260.0000 1.0000
48.1200 250.0000 1.0000
48.1300 252.0000 1.0000
48.1400 243.0000 1.0000
48.1500 292.0000 1.0000
48.1600 301.0000 1.0000
48.1700 262.0000 1.0000
48.1800 281.0000 1.0000
48.1900 261.0000 1.0000
48.2000 270.0000 1.0000
48.2100 283.0000 1.0000
48.2200 290.0000 1.0000
48.2300 284.0000 1.0000
48.2400 307.0000 1.0000
48.2500 282.0000 1.0000
48.2600 286.0000 1.0000
48.2700 295.0000 1.0000
48.2800 271.0000 1.0000
48.2900 282.0000 1.0000
48.3000 264.0000 1.0000
48.3100 258.0000 1.0000
48.3200 296.0000 1.0000
48.3300 265.0000 1.0000
48.3400 254.0000 1.0000
48.3500 254.0000 1.0000
48.3600 277.0000 1.0000
48.3700 246.0000 1.0000
48.3800 276.0000 1.0000
48.3900 284.0000 1.0000
48.4000 277.0000 1.0000
48.4100 279.0000 1.0000
48.4200 294.0000 1.0000
48.4300 281.0000 1.0000
48.4400 262.0000 1.0000
48.4500 260.0000 1.0000
48.4600 261.0000 1.0000
48.4700 254.0000 1.0000
48.4800 256.0000 1.0000
48.4900 281.0000 1.0000
48.5000 261.0000 1.0000
48.5100 260.0000 1.0000
48.5200 278.0000 1.0000
48.5300 275.0000 1.0000
48.5400 263.0000 1.0000
48.5500 257.0000 1.0000
48.5600 262.0000 1.0000
48.5700 272.0000 1.0000
48.5800 275.0000 1.0000
48.5900 250.0000 1.0000
48.6000 267.0000 1.0000
48.6100 236.0000 1.0000
48.6200 270.0000 1.0000
48.6300 272.0000 1.0000
48.6400 247.0000 1.0000
48.6500 247.0000 1.0000
48.6600 261.0000 1.0000
48.6700 257.0000 1.0000
48.6800 269.0000 1.0000
48.6900 262.0000 1.0000
48.7000 276.0000 1.0000
48.7100 259.0000 1.0000
48.7200 262.0000 1.0000
48.7300 274.0000 1.0000
48.7400 246.0000 1.0000
48.7500 258.0000 1.0000
48.7600 248.0000 1.0000
48.7700 264.0000 1.0000
48.7800 276.0000 1.0000
48.7900 255.0000 1.0000
48.8000 271.0000 1.0000
48.8100 286.0000 1.0000
48.8200 283.0000 1.0000
48.8300 273.0000 1.0000
48.8400 269.0000 1.0000
48.8500 260.0000 1.0000
48.8600 276.0000 1.0000
48.8700 254.0000 1.0000
48.8800 272.0000 1.0000
48.8900 269.0000 1.0000
48.9000 274.0000 1.0000
48.9100 271.0000 1.0000
48.9200 235.0000 1.0000
48.9300 257.0000 1.0000
48.9400 274.0000 1.0000
48.9500 252.0000 1.0000
48.9600 256.0000 1.0000
48.9700 262.0000 1.0000
48.9800 233.0000 1.0000
48.9900 273.0000 1.0000
49.0000 256.0000 1.0000
49.0100 278.0000 1.0000
49.0200 271.0000 1.0000
49.0300 254.0000 1.0000
49.0400 247.0000 1.0000
49.0500 269.0000 1.0000
49.0600 276.0000 1.0000
49.0700 244.0000 1.0000
49.0800 254.0000 1.0000
49.0900 264.0000 1.0000
49.1000 272.0000 1.0000
49.1100 239.0000 1.0000
49.1200 273.0000 1.0000
49.1300 271.0000 1.0000
49.1400 263.0000 1.0000
49.1500 244.0000 1.0000
49.1600 265.0000 1.0000
49.1700 273.0000 1.0000
49.1800 281.0000 1.0000
49.1900 280.0000 1.0000
49.2000 257.0000 1.0000
49.2100 254.0000 1.0000
49.2200 306.0000 1.0000
49.2300 294.0000 1.0000
49.2400 313.0000 1.0000
49.2500 274.0000 1.0000
49.2600 263.0000 1.0000
49.2700 298.0000 1.0000
49.2800 295.0000 1.0000
49.2900 258.0000 1.0000
49.3000 286.0000 1.0000
49.3100 296.0000 1.0000
49.3200 323.0000 1.0000
49.3300 298.0000 1.0000
49.3400 298.0000 1.0000
49.3500 278.0000 1.0000
49.3600 294.0000 1.0000
49.3700 300.0000 1.0000
49.3800 318.0000 1.0000
49.3900 325.0000 1.0000
49.4000 279.0000 1.0000
49.4100 293.0000 1.0000
49.4200 284.0000 1.0000
49.4300 302.0000 1.0000
49.4400 295.0000 1.0000
49.4500 305.0000 1.0000
49.4600 308.0000 1.0000
49.4700 296.0000 1.0000
49.4800 288.0000 1.0000
49.4900 291.0000 1.0000
49.5000 317.0000 1.0000
49.5100 302.0000 1.0000
49.5200 283.0000 1.0000
49.5300 296.0000 1.0000
49.5400 258.0000 1.0000
49.5500 275.0000 1.0000
49.5600 283.0000 1.0000
49.5700 287.0000 1.0000
49.5800 265.0000 1.0000
49.5900 266.0000 1.0000
49.6000 279.0000 1.0000
49.6100 289.0000 1.0000
49.6200 290.0000 1.0000
49.6300 269.0000 1.0000
49.6400 271.0000 1.0000
49.6500 269.0000 1.0000
49.6600 294.0000 1.0000
49.6700 281.0000 1.0000
49.6800 271.0000 1.0000
49.6900 276.0000 1.0000
49.7000 274.0000 1.0000
49.7100 297.0000 1.0000
49.7200 267.0000 1.0000
49.7300 277.0000 1.0000
49.7400 279.0000 1.0000
49.7500 295.0000 1.0000
49.7600 253.0000 1.0000
49.7700 276.0000 1.0000
49.7800 299.0000 1.0000
49.7900 275.0000 1.0000
49.8000 265.0000 1.0000
49.8100 264.0000 1.0000
49.8200 266.0000 1.0000
49.8300 283.0000 1.0000
49.8400 272.0000 1.0000
49.8500 261.0000 1.0000
49.8600 264.0000 1.0000
49.8700 252.0000 1.0000
49.8800 253.0000 1.0000
49.8900 263.0000 1.0000
49.9000 282.0000 1.0000
49.9100 278.0000 1.0000
49.9200 264.0000 1.0000
49.9300 264.0000 1.0000
49.9400 254.0000 1.0000
49.9500 279.0000 1.0000
49.9600 239.0000 1.0000
49.9700 225.0000 1.0000
49.9800 243.0000 1.0000
49.9900 276.0000 1.0000
50.0000 251.0000 1.0000
50.0100 260.0000 1.0000
50.0200 273.0000 1.0000
50.0300 255.0000 1.0000
50.0400 269.0000 1.0000
50.0500 263.0000 1.0000
50.0600 270.0000 1.0000
50.0700 300.0000 1.0000
50.0800 298.0000 1.0000
50.0900 272.0000 1.0000
50.1000 249.0000 1.0000
50.1100 270.0000 1.0000
50.1200 284.0000 1.0000
50.1300 245.0000 1.0000
50.1400 255.0000 1.0000
50.1500 247.0000 1.0000
50.1600 273.0000 1.0000
50.1700 268.0000 1.0000
50.1800 299.0000 1.0000
50.1900 274.0000 1.0000
50.2000 279.0000 1.0000
50.2100 276.0000 1.0000
50.2200 274.0000 1.0000
50.2300 258.0000 1.0000
50.2400 255.0000 1.0000
50.2500 262.0000 1.0000
50.2600 294.0000 1.0000
50.2700 283.0000 1.0000
50.2800 282.0000 1.0000
50.2900 278.0000 1.0000
50.3000 266.0000 1.0000
50.3100 261.0000 1.0000
50.3200 267.0000 1.0000
50.3300 269.0000 1.0000
50.3400 262.0000 1.0000
50.3500 281.0000 1.0000
50.3600 273.0000 1.0000
50.3700 244.0000 1.0000
50.3800 256.0000 1.0000
50.3900 271.0000 1.0000
50.4000 267.0000 1.0000
50.4100 269.0000 1.0000
50.4200 278.0000 1.0000
50.4300 279.0000 1.0000
50.4400 260.0000 1.0000
50.4500 255.0000 1.0000
50.4600 271.0000 1.0000
50.4700 270.0000 1.0000
50.4800 240.0000 1.0000
50.4900 247.0000 1.0000
50.5000 262.0000 1.0000
50.5100 255.0000 1.0000
50.5200 265.0000 1.0000
50.5300 276.0000 1.0000
50.5400 265.0000 1.0000
50.5500 263.0000 1.0000
50.5600 259.0000 1.0000
50.5700 274.0000 1.0000
50.5800 255.0000 1.0000
50.5900 246.0000 1.0000
50.6000 263.0000 1.0000
50.6100 262.0000 1.0000
50.6200 252.0000 1.0000
50.6300 251.0000 1.0000
50.6400 256.0000 1.0000
50.6500 248.0000 1.0000
50.6600 276.0000 1.0000
50.6700 276.0000 1.0000
50.6800 279.0000 1.0000
50.6900 262.0000 1.0000
50.7000 240.0000 1.0000
50.7100 261.0000 1.0000
50.7200 264.0000 1.0000
50.7300 278.0000 1.0000
50.7400 256.0000 1.0000
50.7500 271.0000 1.0000
50.7600 245.0000 1.0000
50.7700 249.0000 1.0000
50.7800 278.0000 1.0000
50.7900 266.0000 1.0000
50.8000 289.0000 1.0000
50.8100 285.0000 1.0000
50.8200 261.0000 1.0000
50.8300 268.0000 1.0000
50.8400 255.0000 1.0000
50.8500 259.0000 1.0000
50.8600 259.0000 1.0000
50.8700 283.0000 1.0000
50.8800 255.0000 1.0000
50.8900 278.0000 1.0000
50.9000 281.0000 1.0000
50.9100 278.0000 1.0000
50.9200 266.0000 1.0000
50.9300 305.0000 1.0000
50.9400 280.0000 1.0000
50.9500 268.0000 1.0000
50.9600 250.0000 1.0000
50.9700 296.0000 1.0000
50.9800 299.0000 1.0000
50.9900 285.0000 1.0000
51.0000 274.0000 1.0000
51.0100 274.0000 1.0000
51.0200 308.0000 1.0000
51.0300 303.0000 1.0000
51.0400 291.0000 1.0000
51.0500 283.0000 1.0000
51.0600 291.0000 1.0000
51.0700 294.0000 1.0000
51.0800 294.0000 1.0000
51.0900 278.0000 1.0000
51.1000 311.0000 1.0000
51.1100 296.0000 1.0000
51.1200 320.0000 1.0000
51.1300 330.0000 1.0000
51.1400 304.0000 1.0000
51.1500 327.0000 1.0000
51.1600 339.0000 1.0000
51.1700 349.0000 1.0000
51.1800 354.0000 1.0000
51.1900 327.0000 1.0000
51.2000 369.0000 1.0000
51.2100 373.0000 1.0000
51.2200 381.0000 1.0000
51.2300 344.0000 1.0000
51.2400 399.0000 1.0000
51.2500 392.0000 1.0000
51.2600 392.0000 1.0000
51.2700 405.0000 1.0000
51.2800 426.0000 1.0000
51.2900 482.0000 1.0000
51.3000 480.0000 1.0000
51.3100 483.0000 1.0000
51.3200 527.0000 1.0000
51.3300 555.0000 1.0000
51.3400 581.0000 1.0000
51.3500 621.0000 1.0000
51.3600 630.0000 1.0000
51.3700 648.0000 1.0000
51.3800 685.0000 1.0000
51.3900 777.0000 1.0000
51.4000 818.0000 1.0000
51.4100 840.0000 1.0000
51.4200 872.0000 1.0000
51.4300 890.0000 1.0000
51.4400 878.0000 1.0000
51.4500 917.0000 1.0000
51.4600 922.0000 1.0000
51.4700 931.0000 1.0000
51.4800 874.0000 1.0000
51.4900 882.0000 1.0000
51.5000 925.0000 1.0000
51.5100 845.0000 1.0000
51.5200 881.0000 1.0000
51.5300 837.0000 1.0000
51.5400 851.0000 1.0000
51.5500 790.0000 1.0000
51.5600 810.0000 1.0000
51.5700 768.0000 1.0000
51.5800 789.0000 1.0000
51.5900 773.0000 1.0000
51.6000 752.0000 1.0000
51.6100 748.0000 1.0000
51.6200 689.0000 1.0000
51.6300 653.0000 1.0000
51.6400 652.0000 1.0000
51.6500 592.0000 1.0000
51.6600 574.0000 1.0000
51.6700 549.0000 1.0000
51.6800 536.0000 1.0000
51.6900 499.0000 1.0000
51.7000 483.0000 1.0000
51.7100 443.0000 1.0000
51.7200 457.0000 1.0000
51.7300 452.0000 1.0000
51.7400 425.0000 1.0000
51.7500 430.0000 1.0000
51.7600 374.0000 1.0000
51.7700 387.0000 1.0000
51.7800 383.0000 1.0000
51.7900 397.0000 1.0000
51.8000 349.0000 1.0000
51.8100 377.0000 1.0000
51.8200 347.0000 1.0000
51.8300 338.0000 1.0000
51.8400 334.0000 1.0000
51.8500 337.0000 1.0000
51.8600 357.0000 1.0000
51.8700 362.0000 1.0000
51.8800 362.0000 1.0000
51.8900 344.0000 1.0000
51.9000 315.0000 1.0000
51.9100 333.0000 1.0000
51.9200 337.0000 1.0000
51.9300 293.0000 1.0000
51.9400 270.0000 1.0000
51.9500 306.0000 1.0000
51.9600 301.0000 1.0000
51.9700 304.0000 1.0000
51.9800 292.0000 1.0000
51.9900 307.0000 1.0000
52.0000 293.0000 1.0000
52.0100 268.0000 1.0000
52.0200 291.0000 1.0000
52.0300 295.0000 1.0000
52.0400 294.0000 1.0000
52.0500 264.0000 1.0000
52.0600 310.0000 1.0000
52.0700 288.0000 1.0000
52.0800 276.0000 1.0000
52.0900 278.0000 1.0000
52.1000 247.0000 1.0000
52.1100 300.0000 1.0000
52.1200 304.0000 1.0000
52.1300 256.0000 1.0000
52.1400 265.0000 1.0000
52.1500 248.0000 1.0000
52.1600 244.0000 1.0000
52.1700 286.0000 1.0000
52.1800 280.0000 1.0000
52.1900 293.0000 1.0000
52.2000 270.0000 1.0000
52.2100 279.0000 1.0000
52.2200 270.0000 1.0000
52.2300 292.0000 1.0000
52.2400 276.0000 1.0000
52.2500 251.0000 1.0000
52.2600 263.0000 1.0000
52.2700 306.0000 1.0000
52.2800 269.0000 1.0000
52.2900 265.0000 1.0000
52.3000 267.0000 1.0000
52.3100 280.0000 1.0000
52.3200 241.0000 1.0000
52.3300 265.0000 1.0000
52.3400 249.0000 1.0000
52.3500 295.0000 1.0000
52.3600 258.0000 1.0000
52.3700 256.0000 1.0000
52.3800 244.0000 1.0000
52.3900 246.0000 1.0000
52.4000 261.0000 1.0000
52.4100 297.0000 1.0000
52.4200 246.0000 1.0000
52.4300 255.0000 1.0000
52.4400 261.0000 1.0000
52.4500 279.0000 1.0000
52.4600 265.0000 1.0000
52.4700 249.0000 1.0000
52.4800 251.0000 1.0000
52.4900 281.0000 1.0000
52.5000 272.0000 1.0000
52.5100 275.0000 1.0000
52.5200 247.0000 1.0000
52.5300 238.0000 1.0000
52.5400 262.0000 1.0000
52.5500 260.0000 1.0000
52.5600 271.0000 1.0000
52.5700 270.0000 1.0000
52.5800 262.0000 1.0000
52.5900 272.0000 1.0000
52.6000 269.0000 1.0000
52.6100 257.0000 1.0000
52.6200 259.0000 1.0000
52.6300 250.0000 1.0000
52.6400 271.0000 1.0000
52.6500 228.0000 1.0000
52.6600 266.0000 1.0000
52.6700 253.0000 1.0000
52.6800 265.0000 1.0000
52.6900 275.0000 1.0000
52.7000 287.0000 1.0000
52.7100 264.0000 1.0000
52.7200 248.0000 1.0000
52.7300 248.0000 1.0000
52.7400 242.0000 1.0000
52.7500 262.0000 1.0000
52.7600 240.0000 1.0000
52.7700 275.0000 1.0000
52.7800 269.0000 1.0000
52.7900 275.0000 1.0000
52.8000 269.0000 1.0000
52.8100 252.0000 1.0000
52.8200 269.0000 1.0000
52.8300 286.0000 1.0000
52.8400 264.0000 1.0000
52.8500 259.0000 1.0000
52.8600 267.0000 1.0000
52.8700 273.0000 1.0000
52.8800 253.0000 1.0000
52.8900 240.0000 1.0000
52.9000 245.0000 1.0000
52.9100 264.0000 1.0000
52.9200 256.0000 1.0000
52.9300 267.0000 1.0000
52.9400 246.0000 1.0000
52.9500 241.0000 1.0000
52.9600 251.0000 1.0000
52.9700 250.0000 1.0000
52.9800 255.0000 1.0000
52.9900 247.0000 1.0000
53.0000 244.0000 1.0000
53.0100 239.0000 1.0000
53.0200 273.0000 1.0000
53.0300 270.0000 1.0000
53.0400 268.0000 1.0000
53.0500 245.0000 1.0000
53.0600 243.0000 1.0000
53.0700 258.0000 1.0000
53.0800 258.0000 1.0000
53.0900 258.0000 1.0000
53.1000 285.0000 1.0000
53.1100 270.0000 1.0000
53.1200 245.0000 1.0000
53.1300 250.0000 1.0000
53.1400 252.0000 1.0000
53.1500 252.0000 1.0000
53.1600 243.0000 1.0000
53.1700 248.0000 1.0000
53.1800 238.0000 1.0000
53.1900 232.0000 1.0000
53.2000 261.0000 1.0000
53.2100 271.0000 1.0000
53.2200 229.0000 1.0000
53.2300 253.0000 1.0000
53.2400 255.0000 1.0000
53.2500 256.0000 1.0000
53.2600 248.0000 1.0000
53.2700 256.0000 1.0000
53.2800 269.0000 1.0000
53.2900 235.0000 1.0000
53.3000 248.0000 1.0000
53.3100 246.0000 1.0000
53.3200 281.0000 1.0000
53.3300 252.0000 1.0000
53.3400 253.0000 1.0000
53.3500 275.0000 1.0000
53.3600 256.0000 1.0000
53.3700 223.0000 1.0000
53.3800 242.0000 1.0000
53.3900 271.0000 1.0000
53.4000 252.0000 1.0000
53.4100 262.0000 1.0000
53.4200 260.0000 1.0000
53.4300 258.0000 1.0000
53.4400 234.0000 1.0000
53.4500 253.0000 1.0000
53.4600 231.0000 1.0000
53.4700 254.0000 1.0000
53.4800 248.0000 1.0000
53.4900 229.0000 1.0000
53.5000 233.0000 1.0000
53.5100 266.0000 1.0000
53.5200 261.0000 1.0000
53.5300 253.0000 1.0000
53.5400 269.0000 1.0000
53.5500 266.0000 1.0000
53.5600 261.0000 1.0000
53.5700 234.0000 1.0000
53.5800 239.0000 1.0000
53.5900 279.0000 1.0000
53.6000 262.0000 1.0000
53.6100 261.0000 1.0000
53.6200 252.0000 1.0000
53.6300 240.0000 1.0000
53.6400 234.0000 1.0000
53.6500 257.0000 1.0000
53.6600 237.0000 1.0000
53.6700 244.0000 1.0000
53.6800 256.0000 1.0000
53.6900 274.0000 1.0000
53.7000 230.0000 1.0000
53.7100 258.0000 1.0000
53.7200 266.0000 1.0000
53.7300 286.0000 1.0000
53.7400 261.0000 1.0000
53.7500 268.0000 1.0000
53.7600 260.0000 1.0000
53.7700 257.0000 1.0000
53.7800 262.0000 1.0000
53.7900 255.0000 1.0000
53.8000 269.0000 1.0000
53.8100 258.0000 1.0000
53.8200 247.0000 1.0000
53.8300 243.0000 1.0000
53.8400 242.0000 1.0000
53.8500 280.0000 1.0000
53.8600 248.0000 1.0000
53.8700 279.0000 1.0000
53.8800 273.0000 1.0000
53.8900 264.0000 1.0000
53.9000 259.0000 1.0000
53.9100 268.0000 1.0000
53.9200 300.0000 1.0000
53.9300 293.0000 1.0000
53.9400 293.0000 1.0000
53.9500 264.0000 1.0000
53.9600 278.0000 1.0000
53.9700 273.0000 1.0000
53.9800 272.0000 1.0000
53.9900 275.0000 1.0000
54.0000 294.0000 1.0000
54.0100 306.0000 1.0000
54.0200 329.0000 1.0000
54.0300 291.0000 1.0000
54.0400 310.0000 1.0000
54.0500 267.0000 1.0000
54.0600 271.0000 1.0000
54.0700 286.0000 1.0000
54.0800 277.0000 1.0000
54.0900 268.0000 1.0000
54.1000 285.0000 1.0000
54.1100 268.0000 1.0000
54.1200 272.0000 1.0000
54.1300 305.0000 1.0000
54.1400 288.0000 1.0000
54.1500 300.0000 1.0000
54.1600 290.0000 1.0000
54.1700 279.0000 1.0000
54.1800 287.0000 1.0000
54.1900 278.0000 1.0000
54.2000 271.0000 1.0000
54.2100 320.0000 1.0000
54.2200 270.0000 1.0000
54.2300 290.0000 1.0000
54.2400 291.0000 1.0000
54.2500 298.0000 1.0000
54.2600 280.0000 1.0000
54.2700 299.0000 1.0000
54.2800 293.0000 1.0000
54.2900 285.0000 1.0000
54.3000 267.0000 1.0000
54.3100 283.0000 1.0000
54.3200 279.0000 1.0000
54.3300 289.0000 1.0000
54.3400 311.0000 1.0000
54.3500 308.0000 1.0000
54.3600 294.0000 1.0000
54.3700 324.0000 1.0000
54.3800 320.0000 1.0000
54.3900 302.0000 1.0000
54.4000 303.0000 1.0000
54.4100 302.0000 1.0000
54.4200 312.0000 1.0000
54.4300 319.0000 1.0000
54.4400 307.0000 1.0000
54.4500 280.0000 1.0000
54.4600 277.0000 1.0000
54.4700 322.0000 1.0000
54.4800 313.0000 1.0000
54.4900 326.0000 1.0000
54.5000 331.0000 1.0000
54.5100 329.0000 1.0000
54.5200 326.0000 1.0000
54.5300 315.0000 1.0000
54.5400 300.0000 1.0000
54.5500 311.0000 1.0000
54.5600 315.0000 1.0000
54.5700 341.0000 1.0000
54.5800 303.0000 1.0000
54.5900 317.0000 1.0000
54.6000 290.0000 1.0000
54.6100 326.0000 1.0000
54.6200 314.0000 1.0000
54.6300 324.0000 1.0000
54.6400 298.0000 1.0000
54.6500 320.0000 1.0000
54.6600 303.0000 1.0000
54.6700 299.0000 1.0000
54.6800 296.0000 1.0000
54.6900 310.0000 1.0000
54.7000 310.0000 1.0000
54.7100 262.0000 1.0000
54.7200 276.0000 1.0000
54.7300 265.0000 1.0000
54.7400 260.0000 1.0000
54.7500 281.0000 1.0000
54.7600 272.0000 1.0000
54.7700 266.0000 1.0000
54.7800 281.0000 1.0000
54.7900 279.0000 1.0000
54.8000 288.0000 1.0000
54.8100 282.0000 1.0000
54.8200 278.0000 1.0000
54.8300 268.0000 1.0000
54.8400 276.0000 1.0000
54.8500 261.0000 1.0000
54.8600 241.0000 1.0000
54.8700 254.0000 1.0000
54.8800 280.0000 1.0000
54.8900 258.0000 1.0000
54.9000 263.0000 1.0000
54.9100 253.0000 1.0000
54.9200 281.0000 1.0000
54.9300 271.0000 1.0000
54.9400 255.0000 1.0000
54.9500 241.0000 1.0000
54.9600 245.0000 1.0000
54.9700 264.0000 1.0000
54.9800 266.0000 1.0000
54.9900 253.0000 1.0000
55.0000 261.0000 1.0000
55.0100 256.0000 1.0000
55.0200 247.0000 1.0000
55.0300 262.0000 1.0000
55.0400 243.0000 1.0000
55.0500 272.0000 1.0000
55.0600 249.0000 1.0000
55.0700 237.0000 1.0000
55.0800 254.0000 1.0000
55.0900 252.0000 1.0000
55.1000 246.0000 1.0000
55.1100 224.0000 1.0000
55.1200 275.0000 1.0000
55.1300 246.0000 1.0000
55.1400 276.0000 1.0000
55.1500 258.0000 1.0000
55.1600 252.0000 1.0000
55.1700 261.0000 1.0000
55.1800 221.0000 1.0000
55.1900 234.0000 1.0000
55.2000 257.0000 1.0000
55.2100 262.0000 1.0000
55.2200 256.0000 1.0000
55.2300 257.0000 1.0000
55.2400 248.0000 1.0000
55.2500 255.0000 1.0000
55.2600 262.0000 1.0000
55.2700 251.0000 1.0000
55.2800 265.0000 1.0000
55.2900 227.0000 1.0000
55.3000 242.0000 1.0000
55.3100 240.0000 1.0000
55.3200 243.0000 1.0000
55.3300 260.0000 1.0000
55.3400 254.0000 1.0000
55.3500 241.0000 1.0000
55.3600 246.0000 1.0000
55.3700 238.0000 1.0000
55.3800 264.0000 1.0000
55.3900 231.0000 1.0000
55.4000 266.0000 1.0000
55.4100 252.0000 1.0000
55.4200 256.0000 1.0000
55.4300 262.0000 1.0000
55.4400 254.0000 1.0000
55.4500 240.0000 1.0000
55.4600 245.0000 1.0000
55.4700 242.0000 1.0000
55.4800 256.0000 1.0000
55.4900 255.0000 1.0000
55.5000 244.0000 1.0000
55.5100 240.0000 1.0000
55.5200 235.0000 1.0000
55.5300 238.0000 1.0000
55.5400 239.0000 1.0000
55.5500 243.0000 1.0000
55.5600 244.0000 1.0000
55.5700 237.0000 1.0000
55.5800 246.0000 1.0000
55.5900 262.0000 1.0000
55.6000 252.0000 1.0000
55.6100 234.0000 1.0000
55.6200 238.0000 1.0000
55.6300 258.0000 1.0000
55.6400 231.0000 1.0000
55.6500 228.0000 1.0000
55.6600 239.0000 1.0000
55.6700 240.0000 1.0000
55.6800 259.0000 1.0000
55.6900 243.0000 1.0000
55.7000 247.0000 1.0000
55.7100 263.0000 1.0000
55.7200 252.0000 1.0000
55.7300 237.0000 1.0000
55.7400 241.0000 1.0000
55.7500 251.0000 1.0000
55.7600 251.0000 1.0000
55.7700 239.0000 1.0000
55.7800 244.0000 1.0000
55.7900 244.0000 1.0000
55.8000 252.0000 1.0000
55.8100 251.0000 1.0000
55.8200 234.0000 1.0000
55.8300 252.0000 1.0000
55.8400 228.0000 1.0000
55.8500 223.0000 1.0000
55.8600 223.0000 1.0000
55.8700 220.0000 1.0000
55.8800 228.0000 1.0000
55.8900 258.0000 1.0000
55.9000 255.0000 1.0000
55.9100 242.0000 1.0000
55.9200 257.0000 1.0000
55.9300 260.0000 1.0000
55.9400 228.0000 1.0000
55.9500 241.0000 1.0000
55.9600 239.0000 1.0000
55.9700 227.0000 1.0000
55.9800 240.0000 1.0000
55.9900 227.0000 1.0000
56.0000 251.0000 1.0000
56.0100 255.0000 1.0000
56.0200 278.0000 1.0000
56.0300 237.0000 1.0000
56.0400 233.0000 1.0000
56.0500 240.0000 1.0000
56.0600 265.0000 1.0000
56.0700 247.0000 1.0000
56.0800 233.0000 1.0000
56.0900 252.0000 1.0000
56.1000 243.0000 1.0000
56.1100 253.0000 1.0000
56.1200 252.0000 1.0000
56.1300 232.0000 1.0000
56.1400 258.0000 1.0000
56.1500 250.0000 1.0000
56.1600 208.0000 1.0000
56.1700 221.0000 1.0000
56.1800 228.0000 1.0000
56.1900 254.0000 1.0000
56.2000 249.0000 1.0000
56.2100 255.0000 1.0000
56.2200 248.0000 1.0000
56.2300 273.0000 1.0000
56.2400 247.0000 1.0000
56.2500 251.0000 1.0000
56.2600 237.0000 1.0000
56.2700 239.0000 1.0000
56.2800 234.0000 1.0000
56.2900 240.0000 1.0000
56.3000 254.0000 1.0000
56.3100 224.0000 1.0000
56.3200 222.0000 1.0000
56.3300 235.0000 1.0000
56.3400 248.0000 1.0000
56.3500 231.0000 1.0000
56.3600 256.0000 1.0000
56.3700 247.0000 1.0000
56.3800 227.0000 1.0000
56.3900 250.0000 1.0000
56.4000 226.0000 1.0000
56.4100 225.0000 1.0000
56.4200 270.0000 1.0000
56.4300 258.0000 1.0000
56.4400 265.0000 1.0000
56.4500 240.0000 1.0000
56.4600 251.0000 1.0000
56.4700 239.0000 1.0000
56.4800 251.0000 1.0000
56.4900 247.0000 1.0000
56.5000 230.0000 1.0000
56.5100 244.0000 1.0000
56.5200 255.0000 1.0000
56.5300 244.0000 1.0000
56.5400 242.0000 1.0000
56.5500 248.0000 1.0000
56.5600 269.0000 1.0000
56.5700 266.0000 1.0000
56.5800 266.0000 1.0000
56.5900 247.0000 1.0000
56.6000 237.0000 1.0000
56.6100 244.0000 1.0000
56.6200 236.0000 1.0000
56.6300 237.0000 1.0000
56.6400 223.0000 1.0000
56.6500 254.0000 1.0000
56.6600 238.0000 1.0000
56.6700 235.0000 1.0000
56.6800 236.0000 1.0000
56.6900 233.0000 1.0000
56.7000 244.0000 1.0000
56.7100 240.0000 1.0000
56.7200 248.0000 1.0000
56.7300 232.0000 1.0000
56.7400 241.0000 1.0000
56.7500 263.0000 1.0000
56.7600 223.0000 1.0000
56.7700 235.0000 1.0000
56.7800 220.0000 1.0000
56.7900 234.0000 1.0000
56.8000 227.0000 1.0000
56.8100 217.0000 1.0000
56.8200 255.0000 1.0000
56.8300 233.0000 1.0000
56.8400 272.0000 1.0000
56.8500 278.0000 1.0000
56.8600 234.0000 1.0000
56.8700 228.0000 1.0000
56.8800 242.0000 1.0000
56.8900 240.0000 1.0000
56.9000 224.0000 1.0000
56.9100 225.0000 1.0000
56.9200 244.0000 1.0000
56.9300 254.0000 1.0000
56.9400 239.0000 1.0000
56.9500 273.0000 1.0000
56.9600 236.0000 1.0000
56.9700 218.0000 1.0000
56.9800 235.0000 1.0000
56.9900 256.0000 1.0000
57.0000 233.0000 1.0000
57.0100 251.0000 1.0000
57.0200 251.0000 1.0000
57.0300 261.0000 1.0000
57.0400 231.0000 1.0000
57.0500 255.0000 1.0000
57.0600 262.0000 1.0000
57.0700 250.0000 1.0000
57.0800 240.0000 1.0000
57.0900 249.0000 1.0000
57.1000 219.0000 1.0000
57.1100 219.0000 1.0000
57.1200 249.0000 1.0000
57.1300 248.0000 1.0000
57.1400 205.0000 1.0000
57.1500 238.0000 1.0000
57.1600 236.0000 1.0000
57.1700 235.0000 1.0000
57.1800 228.0000 1.0000
57.1900 242.0000 1.0000
57.2000 249.0000 1.0000
57.2100 242.0000 1.0000
57.2200 215.0000 1.0000
57.2300 253.0000 1.0000
57.2400 238.0000 1.0000
57.2500 250.0000 1.0000
57.2600 232.0000 1.0000
57.2700 259.0000 1.0000
57.2800 250.0000 1.0000
57.2900 238.0000 1.0000
57.3000 252.0000 1.0000
57.3100 252.0000 1.0000
57.3200 245.0000 1.0000
57.3300 252.0000 1.0000
57.3400 253.0000 1.0000
57.3500 239.0000 1.0000
57.3600 246.0000 1.0000
57.3700 235.0000 1.0000
57.3800 261.0000 1.0000
57.3900 253.0000 1.0000
57.4000 243.0000 1.0000
57.4100 237.0000 1.0000
57.4200 237.0000 1.0000
57.4300 245.0000 1.0000
57.4400 221.0000 1.0000
57.4500 246.0000 1.0000
57.4600 249.0000 1.0000
57.4700 255.0000 1.0000
57.4800 264.0000 1.0000
57.4900 266.0000 1.0000
57.5000 253.0000 1.0000
57.5100 232.0000 1.0000
57.5200 240.0000 1.0000
57.5300 256.0000 1.0000
57.5400 255.0000 1.0000
57.5500 242.0000 1.0000
57.5600 257.0000 1.0000
57.5700 228.0000 1.0000
57.5800 221.0000 1.0000
57.5900 251.0000 1.0000
57.6000 252.0000 1.0000
57.6100 255.0000 1.0000
57.6200 233.0000 1.0000
57.6300 244.0000 1.0000
57.6400 266.0000 1.0000
57.6500 247.0000 1.0000
57.6600 237.0000 1.0000
57.6700 239.0000 1.0000
57.6800 264.0000 1.0000
57.6900 214.0000 1.0000
57.7000 239.0000 1.0000
57.7100 246.0000 1.0000
57.7200 231.0000 1.0000
57.7300 250.0000 1.0000
57.7400 229.0000 1.0000
57.7500 251.0000 1.0000
57.7600 237.0000 1.0000
57.7700 250.0000 1.0000
57.7800 254.0000 1.0000
57.7900 274.0000 1.0000
57.8000 234.0000 1.0000
57.8100 241.0000 1.0000
57.8200 246.0000 1.0000
57.8300 253.0000 1.0000
57.8400 223.0000 1.0000
57.8500 238.0000 1.0000
57.8600 254.0000 1.0000
57.8700 243.0000 1.0000
57.8800 248.0000 1.0000
57.8900 249.0000 1.0000
57.9000 251.0000 1.0000
57.9100 248.0000 1.0000
57.9200 226.0000 1.0000
57.9300 265.0000 1.0000
57.9400 253.0000 1.0000
57.9500 248.0000 1.0000
57.9600 260.0000 1.0000
57.9700 260.0000 1.0000
57.9800 243.0000 1.0000
57.9900 216.0000 1.0000
58.0000 254.0000 1.0000
58.0100 225.0000 1.0000
58.0200 218.0000 1.0000
58.0300 249.0000 1.0000
58.0400 224.0000 1.0000
58.0500 239.0000 1.0000
58.0600 239.0000 1.0000
58.0700 225.0000 1.0000
58.0800 246.0000 1.0000
58.0900 238.0000 1.0000
58.1000 262.0000 1.0000
58.1100 251.0000 1.0000
58.1200 228.0000 1.0000
58.1300 251.0000 1.0000
58.1400 217.0000 1.0000
58.1500 263.0000 1.0000
58.1600 244.0000 1.0000
58.1700 257.0000 1.0000
58.1800 237.0000 1.0000
58.1900 249.0000 1.0000
58.2000 252.0000 1.0000
58.2100 239.0000 1.0000
58.2200 244.0000 1.0000
58.2300 224.0000 1.0000
58.2400 242.0000 1.0000
58.2500 224.0000 1.0000
58.2600 260.0000 1.0000
58.2700 262.0000 1.0000
58.2800 231.0000 1.0000
58.2900 239.0000 1.0000
58.3000 225.0000 1.0000
58.3100 230.0000 1.0000
58.3200 260.0000 1.0000
58.3300 264.0000 1.0000
58.3400 246.0000 1.0000
58.3500 240.0000 1.0000
58.3600 221.0000 1.0000
58.3700 276.0000 1.0000
58.3800 230.0000 1.0000
58.3900 240.0000 1.0000
58.4000 243.0000 1.0000
58.4100 245.0000 1.0000
58.4200 260.0000 1.0000
58.4300 219.0000 1.0000
58.4400 248.0000 1.0000
58.4500 240.0000 1.0000
58.4600 236.0000 1.0000
58.4700 236.0000 1.0000
58.4800 260.0000 1.0000
58.4900 247.0000 1.0000
58.5000 266.0000 1.0000
58.5100 267.0000 1.0000
58.5200 239.0000 1.0000
58.5300 220.0000 1.0000
58.5400 234.0000 1.0000
58.5500 239.0000 1.0000
58.5600 223.0000 1.0000
58.5700 253.0000 1.0000
58.5800 240.0000 1.0000
58.5900 258.0000 1.0000
58.6000 221.0000 1.0000
58.6100 223.0000 1.0000
58.6200 246.0000 1.0000
58.6300 249.0000 1.0000
58.6400 242.0000 1.0000
58.6500 248.0000 1.0000
58.6600 253.0000 1.0000
58.6700 216.0000 1.0000
58.6800 228.0000 1.0000
58.6900 234.0000 1.0000
58.7000 249.0000 1.0000
58.7100 249.0000 1.0000
58.7200 244.0000 1.0000
58.7300 272.0000 1.0000
58.7400 233.0000 1.0000
58.7500 258.0000 1.0000
58.7600 222.0000 1.0000
58.7700 249.0000 1.0000
58.7800 245.0000 1.0000
58.7900 257.0000 1.0000
58.8000 237.0000 1.0000
58.8100 213.0000 1.0000
58.8200 237.0000 1.0000
58.8300 236.0000 1.0000
58.8400 236.0000 1.0000
58.8500 223.0000 1.0000
58.8600 257.0000 1.0000
58.8700 250.0000 1.0000
58.8800 241.0000 1.0000
58.8900 238.0000 1.0000
58.9000 269.0000 1.0000
58.9100 244.0000 1.0000
58.9200 232.0000 1.0000
58.9300 239.0000 1.0000
58.9400 245.0000 1.0000
58.9500 233.0000 1.0000
58.9600 243.0000 1.0000
58.9700 219.0000 1.0000
58.9800 270.0000 1.0000
58.9900 254.0000 1.0000
59.0000 246.0000 1.0000
59.0100 238.0000 1.0000
59.0200 255.0000 1.0000
59.0300 232.0000 1.0000
59.0400 227.0000 1.0000
59.0500 231.0000 1.0000
59.0600 219.0000 1.0000
59.0700 261.0000 1.0000
59.0800 249.0000 1.0000
59.0900 262.0000 1.0000
59.1000 240.0000 1.0000
59.1100 241.0000 1.0000
59.1200 235.0000 1.0000
59.1300 231.0000 1.0000
59.1400 236.0000 1.0000
59.1500 235.0000 1.0000
59.1600 252.0000 1.0000
59.1700 261.0000 1.0000
59.1800 236.0000 1.0000
59.1900 248.0000 1.0000
59.2000 231.0000 1.0000
59.2100 239.0000 1.0000
59.2200 249.0000 1.0000
59.2300 227.0000 1.0000
59.2400 244.0000 1.0000
59.2500 232.0000 1.0000
59.2600 228.0000 1.0000
59.2700 223.0000 1.0000
59.2800 192.0000 1.0000
59.2900 202.0000 1.0000
59.3000 215.0000 1.0000
59.3100 224.0000 1.0000
59.3200 257.0000 1.0000
59.3300 244.0000 1.0000
59.3400 239.0000 1.0000
59.3500 246.0000 1.0000
59.3600 259.0000 1.0000
59.3700 213.0000 1.0000
59.3800 219.0000 1.0000
59.3900 240.0000 1.0000
59.4000 214.0000 1.0000
59.4100 254.0000 1.0000
59.4200 254.0000 1.0000
59.4300 273.0000 1.0000
59.4400 240.0000 1.0000
59.4500 241.0000 1.0000
59.4600 238.0000 1.0000
59.4700 241.0000 1.0000
59.4800 253.0000 1.0000
59.4900 250.0000 1.0000
59.5000 253.0000 1.0000
59.5100 276.0000 1.0000
59.5200 239.0000 1.0000
59.5300 255.0000 1.0000
59.5400 244.0000 1.0000
59.5500 242.0000 1.0000
59.5600 231.0000 1.0000
59.5700 238.0000 1.0000
59.5800 231.0000 1.0000
59.5900 239.0000 1.0000
59.6000 228.0000 1.0000
59.6100 227.0000 1.0000
59.6200 217.0000 1.0000
59.6300 244.0000 1.0000
59.6400 258.0000 1.0000
59.6500 258.0000 1.0000
59.6600 237.0000 1.0000
59.6700 223.0000 1.0000
59.6800 236.0000 1.0000
59.6900 221.0000 1.0000
59.7000 245.0000 1.0000
59.7100 256.0000 1.0000
59.7200 269.0000 1.0000
59.7300 237.0000 1.0000
59.7400 231.0000 1.0000
59.7500 222.0000 1.0000
59.7600 231.0000 1.0000
59.7700 265.0000 1.0000
59.7800 235.0000 1.0000
59.7900 223.0000 1.0000
59.8000 248.0000 1.0000
59.8100 239.0000 1.0000
59.8200 236.0000 1.0000
59.8300 262.0000 1.0000
59.8400 258.0000 1.0000
59.8500 234.0000 1.0000
59.8600 246.0000 1.0000
59.8700 216.0000 1.0000
59.8800 227.0000 1.0000
59.8900 230.0000 1.0000
59.9000 249.0000 1.0000
59.9100 253.0000 1.0000
59.9200 216.0000 1.0000
59.9300 230.0000 1.0000
59.9400 254.0000 1.0000
59.9500 251.0000 1.0000
59.9600 217.0000 1.0000
59.9700 229.0000 1.0000
59.9800 241.0000 1.0000
59.9900 232.0000 1.0000
60.0000 235.0000 1.0000
60.0100 227.0000 1.0000
60.0200 234.0000 1.0000
60.0300 224.0000 1.0000
60.0400 195.0000 1.0000
60.0500 245.0000 1.0000
60.0600 224.0000 1.0000
60.0700 231.0000 1.0000
60.0800 258.0000 1.0000
60.0900 250.0000 1.0000
60.1000 259.0000 1.0000
60.1100 241.0000 1.0000
60.1200 242.0000 1.0000
60.1300 236.0000 1.0000
60.1400 246.0000 1.0000
60.1500 231.0000 1.0000
60.1600 246.0000 1.0000
60.1700 254.0000 1.0000
60.1800 229.0000 1.0000
60.1900 241.0000 1.0000
60.2000 216.0000 1.0000
60.2100 224.0000 1.0000
60.2200 232.0000 1.0000
60.2300 234.0000 1.0000
60.2400 224.0000 1.0000
60.2500 222.0000 1.0000
60.2600 245.0000 1.0000
60.2700 247.0000 1.0000
60.2800 251.0000 1.0000
60.2900 249.0000 1.0000
60.3000 259.0000 1.0000
60.3100 245.0000 1.0000
60.3200 225.0000 1.0000
60.3300 246.0000 1.0000
60.3400 261.0000 1.0000
60.3500 249.0000 1.0000
60.3600 239.0000 1.0000
60.3700 218.0000 1.0000
60.3800 242.0000 1.0000
60.3900 245.0000 1.0000
60.4000 223.0000 1.0000
60.4100 253.0000 1.0000
60.4200 237.0000 1.0000
60.4300 228.0000 1.0000
60.4400 265.0000 1.0000
60.4500 250.0000 1.0000
60.4600 259.0000 1.0000
60.4700 223.0000 1.0000
60.4800 256.0000 1.0000
60.4900 248.0000 1.0000
60.5000 242.0000 1.0000
60.5100 219.0000 1.0000
60.5200 253.0000 1.0000
60.5300 254.0000 1.0000
60.5400 253.0000 1.0000
60.5500 228.0000 1.0000
60.5600 239.0000 1.0000
60.5700 236.0000 1.0000
60.5800 257.0000 1.0000
60.5900 255.0000 1.0000
60.6000 250.0000 1.0000
60.6100 243.0000 1.0000
60.6200 250.0000 1.0000
60.6300 238.0000 1.0000
60.6400 209.0000 1.0000
60.6500 250.0000 1.0000
60.6600 258.0000 1.0000
60.6700 263.0000 1.0000
60.6800 231.0000 1.0000
60.6900 248.0000 1.0000
60.7000 254.0000 1.0000
60.7100 249.0000 1.0000
60.7200 257.0000 1.0000
60.7300 237.0000 1.0000
60.7400 247.0000 1.0000
60.7500 251.0000 1.0000
60.7600 263.0000 1.0000
60.7700 212.0000 1.0000
60.7800 246.0000 1.0000
60.7900 232.0000 1.0000
60.8000 242.0000 1.0000
60.8100 260.0000 1.0000
60.8200 267.0000 1.0000
60.8300 261.0000 1.0000
60.8400 228.0000 1.0000
60.8500 252.0000 1.0000
60.8600 246.0000 1.0000
60.8700 256.0000 1.0000
60.8800 242.0000 1.0000
60.8900 244.0000 1.0000
60.9000 252.0000 1.0000
60.9100 222.0000 1.0000
60.9200 235.0000 1.0000
60.9300 252.0000 1.0000
60.9400 258.0000 1.0000
60.9500 268.0000 1.0000
60.9600 232.0000 1.0000
60.9700 255.0000 1.0000
60.9800 261.0000 1.0000
60.9900 263.0000 1.0000
61.0000 246.0000 1.0000
61.0100 269.0000 1.0000
61.0200 273.0000 1.0000
61.0300 263.0000 1.0000
61.0400 258.0000 1.0000
61.0500 255.0000 1.0000
61.0600 286.0000 1.0000
61.0700 285.0000 1.0000
61.0800 254.0000 1.0000
61.0900 275.0000 1.0000
61.1000 277.0000 1.0000
61.1100 284.0000 1.0000
61.1200 276.0000 1.0000
61.1300 277.0000 1.0000
61.1400 299.0000 1.0000
61.1500 305.0000 1.0000
61.1600 277.0000 1.0000
61.1700 290.0000 1.0000
61.1800 306.0000 1.0000
61.1900 298.0000 1.0000
61.2000 279.0000 1.0000
61.2100 313.0000 1.0000
61.2200 300.0000 1.0000
61.2300 278.0000 1.0000
61.2400 291.0000 1.0000
61.2500 312.0000 1.0000
61.2600 322.0000 1.0000
61.2700 315.0000 1.0000
61.2800 333.0000 1.0000
61.2900 370.0000 1.0000
61.3000 334.0000 1.0000
61.3100 324.0000 1.0000
61.3200 369.0000 1.0000
61.3300 396.0000 1.0000
61.3400 389.0000 1.0000
61.3500 376.0000 1.0000
61.3600 396.0000 1.0000
61.3700 385.0000 1.0000
61.3800 403.0000 1.0000
61.3900 372.0000 1.0000
61.4000 410.0000 1.0000
61.4100 408.0000 1.0000
61.4200 415.0000 1.0000
61.4300 438.0000 1.0000
61.4400 452.0000 1.0000
61.4500 460.0000 1.0000
61.4600 491.0000 1.0000
61.4700 455.0000 1.0000
61.4800 441.0000 1.0000
61.4900 499.0000 1.0000
61.5000 512.0000 1.0000
61.5100 496.0000 1.0000
61.5200 539.0000 1.0000
61.5300 517.0000 1.0000
61.5400 512.0000 1.0000
61.5500 532.0000 1.0000
61.5600 571.0000 1.0000
61.5700 530.0000 1.0000
61.5800 515.0000 1.0000
61.5900 544.0000 1.0000
61.6000 524.0000 1.0000
61.6100 526.0000 1.0000
61.6200 521.0000 1.0000
61.6300 502.0000 1.0000
61.6400 524.0000 1.0000
61.6500 522.0000 1.0000
61.6600 490.0000 1.0000
61.6700 492.0000 1.0000
61.6800 497.0000 1.0000
61.6900 455.0000 1.0000
61.7000 481.0000 1.0000
61.7100 435.0000 1.0000
61.7200 475.0000 1.0000
61.7300 482.0000 1.0000
61.7400 471.0000 1.0000
61.7500 472.0000 1.0000
61.7600 416.0000 1.0000
61.7700 436.0000 1.0000
61.7800 450.0000 1.0000
61.7900 443.0000 1.0000
61.8000 428.0000 1.0000
61.8100 420.0000 1.0000
61.8200 403.0000 1.0000
61.8300 379.0000 1.0000
61.8400 387.0000 1.0000
61.8500 387.0000 1.0000
61.8600 375.0000 1.0000
61.8700 357.0000 1.0000
61.8800 382.0000 1.0000
61.8900 365.0000 1.0000
61.9000 372.0000 1.0000
61.9100 330.0000 1.0000
61.9200 347.0000 1.0000
61.9300 367.0000 1.0000
61.9400 362.0000 1.0000
61.9500 334.0000 1.0000
61.9600 352.0000 1.0000
61.9700 327.0000 1.0000
61.9800 316.0000 1.0000
61.9900 331.0000 1.0000
62.0000 315.0000 1.0000
62.0100 308.0000 1.0000
62.0200 322.0000 1.0000
62.0300 321.0000 1.0000
62.0400 331.0000 1.0000
62.0500 289.0000 1.0000
62.0600 322.0000 1.0000
62.0700 327.0000 1.0000
62.0800 315.0000 1.0000
62.0900 300.0000 1.0000
62.1000 289.0000 1.0000
62.1100 277.0000 1.0000
62.1200 270.0000 1.0000
62.1300 282.0000 1.0000
62.1400 284.0000 1.0000
62.1500 291.0000 1.0000
62.1600 308.0000 1.0000
62.1700 326.0000 1.0000
62.1800 304.0000 1.0000
62.1900 288.0000 1.0000
62.2000 294.0000 1.0000
62.2100 275.0000 1.0000
62.2200 279.0000 1.0000
62.2300 305.0000 1.0000
62.2400 297.0000 1.0000
62.2500 283.0000 1.0000
62.2600 284.0000 1.0000
62.2700 299.0000 1.0000
62.2800 278.0000 1.0000
62.2900 285.0000 1.0000
62.3000 276.0000 1.0000
62.3100 285.0000 1.0000
62.3200 272.0000 1.0000
62.3300 289.0000 1.0000
62.3400 268.0000 1.0000
62.3500 251.0000 1.0000
62.3600 273.0000 1.0000
62.3700 260.0000 1.0000
62.3800 318.0000 1.0000
62.3900 309.0000 1.0000
62.4000 276.0000 1.0000
62.4100 299.0000 1.0000
62.4200 295.0000 1.0000
62.4300 307.0000 1.0000
62.4400 260.0000 1.0000
62.4500 291.0000 1.0000
62.4600 310.0000 1.0000
62.4700 271.0000 1.0000
62.4800 290.0000 1.0000
62.4900 279.0000 1.0000
62.5000 282.0000 1.0000
62.5100 283.0000 1.0000
62.5200 280.0000 1.0000
62.5300 271.0000 1.0000
62.5400 259.0000 1.0000
62.5500 309.0000 1.0000
62.5600 279.0000 1.0000
62.5700 308.0000 1.0000
62.5800 291.0000 1.0000
62.5900 275.0000 1.0000
62.6000 266.0000 1.0000
62.6100 254.0000 1.0000
62.6200 274.0000 1.0000
62.6300 279.0000 1.0000
62.6400 242.0000 1.0000
62.6500 220.0000 1.0000
62.6600 260.0000 1.0000
62.6700 264.0000 1.0000
62.6800 252.0000 1.0000
62.6900 227.0000 1.0000
62.7000 244.0000 1.0000
62.7100 260.0000 1.0000
62.7200 254.0000 1.0000
62.7300 267.0000 1.0000
62.7400 242.0000 1.0000
62.7500 269.0000 1.0000
62.7600 243.0000 1.0000
62.7700 257.0000 1.0000
62.7800 237.0000 1.0000
62.7900 263.0000 1.0000
62.8000 223.0000 1.0000
62.8100 255.0000 1.0000
62.8200 248.0000 1.0000
62.8300 236.0000 1.0000
62.8400 236.0000 1.0000
62.8500 248.0000 1.0000
62.8600 250.0000 1.0000
62.8700 233.0000 1.0000
62.8800 238.0000 1.0000
62.8900 250.0000 1.0000
62.9000 243.0000 1.0000
62.9100 270.0000 1.0000
62.9200 241.0000 1.0000
62.9300 264.0000 1.0000
62.9400 239.0000 1.0000
62.9500 258.0000 1.0000
62.9600 231.0000 1.0000
62.9700 252.0000 1.0000
62.9800 255.0000 1.0000
62.9900 247.0000 1.0000
63.0000 234.0000 1.0000
63.0100 245.0000 1.0000
63.0200 264.0000 1.0000
63.0300 243.0000 1.0000
63.0400 241.0000 1.0000
63.0500 245.0000 1.0000
63.0600 264.0000 1.0000
63.0700 249.0000 1.0000
63.0800 249.0000 1.0000
63.0900 250.0000 1.0000
63.1000 230.0000 1.0000
63.1100 229.0000 1.0000
63.1200 243.0000 1.0000
63.1300 258.0000 1.0000
63.1400 225.0000 1.0000
63.1500 227.0000 1.0000
63.1600 250.0000 1.0000
63.1700 238.0000 1.0000
63.1800 255.0000 1.0000
63.1900 235.0000 1.0000
63.2000 258.0000 1.0000
63.2100 252.0000 1.0000
63.2200 223.0000 1.0000
63.2300 263.0000 1.0000
63.2400 239.0000 1.0000
63.2500 238.0000 1.0000
63.2600 253.0000 1.0000
63.2700 227.0000 1.0000
63.2800 235.0000 1.0000
63.2900 269.0000 1.0000
63.3000 256.0000 1.0000
63.3100 222.0000 1.0000
63.3200 257.0000 1.0000
63.3300 238.0000 1.0000
63.3400 220.0000 1.0000
63.3500 255.0000 1.0000
63.3600 276.0000 1.0000
63.3700 266.0000 1.0000
63.3800 230.0000 1.0000
63.3900 238.0000 1.0000
63.4000 235.0000 1.0000
63.4100 234.0000 1.0000
63.4200 241.0000 1.0000
63.4300 251.0000 1.0000
63.4400 248.0000 1.0000
63.4500 259.0000 1.0000
63.4600 267.0000 1.0000
63.4700 259.0000 1.0000
63.4800 234.0000 1.0000
63.4900 276.0000 1.0000
63.5000 256.0000 1.0000
63.5100 238.0000 1.0000
63.5200 261.0000 1.0000
63.5300 258.0000 1.0000
63.5400 230.0000 1.0000
63.5500 248.0000 1.0000
63.5600 232.0000 1.0000
63.5700 235.0000 1.0000
63.5800 242.0000 1.0000
63.5900 243.0000 1.0000
63.6000 236.0000 1.0000
63.6100 245.0000 1.0000
63.6200 259.0000 1.0000
63.6300 252.0000 1.0000
63.6400 270.0000 1.0000
63.6500 244.0000 1.0000
63.6600 242.0000 1.0000
63.6700 251.0000 1.0000
63.6800 207.0000 1.0000
63.6900 245.0000 1.0000
63.7000 247.0000 1.0000
63.7100 267.0000 1.0000
63.7200 233.0000 1.0000
63.7300 264.0000 1.0000
63.7400 274.0000 1.0000
63.7500 245.0000 1.0000
63.7600 258.0000 1.0000
63.7700 262.0000 1.0000
63.7800 264.0000 1.0000
63.7900 253.0000 1.0000
63.8000 278.0000 1.0000
63.8100 266.0000 1.0000
63.8200 238.0000 1.0000
63.8300 280.0000 1.0000
63.8400 256.0000 1.0000
63.8500 251.0000 1.0000
63.8600 245.0000 1.0000
63.8700 273.0000 1.0000
63.8800 295.0000 1.0000
63.8900 261.0000 1.0000
63.9000 284.0000 1.0000
63.9100 267.0000 1.0000
63.9200 272.0000 1.0000
63.9300 296.0000 1.0000
63.9400 275.0000 1.0000
63.9500 291.0000 1.0000
63.9600 267.0000 1.0000
63.9700 308.0000 1.0000
63.9800 303.0000 1.0000
63.9900 274.0000 1.0000
64.0000 283.0000 1.0000
64.0100 279.0000 1.0000
64.0200 283.0000 1.0000
64.0300 280.0000 1.0000
64.0400 288.0000 1.0000
64.0500 301.0000 1.0000
64.0600 271.0000 1.0000
64.0700 293.0000 1.0000
64.0800 278.0000 1.0000
64.0900 285.0000 1.0000
64.1000 271.0000 1.0000
64.1100 288.0000 1.0000
64.1200 267.0000 1.0000
64.1300 291.0000 1.0000
64.1400 256.0000 1.0000
64.1500 286.0000 1.0000
64.1600 269.0000 1.0000
64.1700 253.0000 1.0000
64.1800 258.0000 1.0000
64.1900 281.0000 1.0000
64.2000 257.0000 1.0000
64.2100 265.0000 1.0000
64.2200 238.0000 1.0000
64.2300 251.0000 1.0000
64.2400 259.0000 1.0000
64.2500 274.0000 1.0000
64.2600 275.0000 1.0000
64.2700 245.0000 1.0000
64.2800 261.0000 1.0000
64.2900 266.0000 1.0000
64.3000 255.0000 1.0000
64.3100 265.0000 1.0000
64.3200 235.0000 1.0000
64.3300 236.0000 1.0000
64.3400 246.0000 1.0000
64.3500 245.0000 1.0000
64.3600 285.0000 1.0000
64.3700 240.0000 1.0000
64.3800 235.0000 1.0000
64.3900 246.0000 1.0000
64.4000 242.0000 1.0000
64.4100 244.0000 1.0000
64.4200 235.0000 1.0000
64.4300 245.0000 1.0000
64.4400 248.0000 1.0000
64.4500 235.0000 1.0000
64.4600 247.0000 1.0000
64.4700 257.0000 1.0000
64.4800 229.0000 1.0000
64.4900 232.0000 1.0000
64.5000 263.0000 1.0000
64.5100 261.0000 1.0000
64.5200 271.0000 1.0000
64.5300 233.0000 1.0000
64.5400 221.0000 1.0000
64.5500 238.0000 1.0000
64.5600 246.0000 1.0000
64.5700 267.0000 1.0000
64.5800 272.0000 1.0000
64.5900 266.0000 1.0000
64.6000 247.0000 1.0000
64.6100 242.0000 1.0000
64.6200 271.0000 1.0000
64.6300 240.0000 1.0000
64.6400 223.0000 1.0000
64.6500 242.0000 1.0000
64.6600 236.0000 1.0000
64.6700 227.0000 1.0000
64.6800 249.0000 1.0000
64.6900 231.0000 1.0000
64.7000 282.0000 1.0000
64.7100 229.0000 1.0000
64.7200 247.0000 1.0000
64.7300 269.0000 1.0000
64.7400 238.0000 1.0000
64.7500 257.0000 1.0000
64.7600 243.0000 1.0000
64.7700 241.0000 1.0000
64.7800 246.0000 1.0000
64.7900 262.0000 1.0000
64.8000 260.0000 1.0000
64.8100 238.0000 1.0000
64.8200 284.0000 1.0000
64.8300 242.0000 1.0000
64.8400 251.0000 1.0000
64.8500 268.0000 1.0000
64.8600 281.0000 1.0000
64.8700 256.0000 1.0000
64.8800 288.0000 1.0000
64.8900 302.0000 1.0000
64.9000 266.0000 1.0000
64.9100 270.0000 1.0000
64.9200 271.0000 1.0000
64.9300 258.0000 1.0000
64.9400 269.0000 1.0000
64.9500 290.0000 1.0000
64.9600 233.0000 1.0000
64.9700 286.0000 1.0000
64.9800 266.0000 1.0000
64.9900 277.0000 1.0000
65.0000 271.0000 1.0000
65.0100 281.0000 1.0000
65.0200 283.0000 1.0000
65.0300 299.0000 1.0000
65.0400 287.0000 1.0000
65.0500 313.0000 1.0000
65.0600 312.0000 1.0000
65.0700 306.0000 1.0000
65.0800 304.0000 1.0000
65.0900 290.0000 1.0000
65.1000 306.0000 1.0000
65.1100 304.0000 1.0000
65.1200 299.0000 1.0000
65.1300 310.0000 1.0000
65.1400 308.0000 1.0000
65.1500 332.0000 1.0000
65.1600 340.0000 1.0000
65.1700 317.0000 1.0000
65.1800 300.0000 1.0000
65.1900 346.0000 1.0000
65.2000 373.0000 1.0000
65.2100 331.0000 1.0000
65.2200 360.0000 1.0000
65.2300 367.0000 1.0000
65.2400 376.0000 1.0000
65.2500 398.0000 1.0000
65.2600 388.0000 1.0000
65.2700 399.0000 1.0000
65.2800 402.0000 1.0000
65.2900 422.0000 1.0000
65.3000 445.0000 1.0000
65.3100 465.0000 1.0000
65.3200 453.0000 1.0000
65.3300 488.0000 1.0000
65.3400 497.0000 1.0000
65.3500 553.0000 1.0000
65.3600 491.0000 1.0000
65.3700 558.0000 1.0000
65.3800 571.0000 1.0000
65.3900 632.0000 1.0000
65.4000 621.0000 1.0000
65.4100 653.0000 1.0000
65.4200 732.0000 1.0000
65.4300 686.0000 1.0000
65.4400 739.0000 1.0000
65.4500 757.0000 1.0000
65.4600 780.0000 1.0000
65.4700 788.0000 1.0000
65.4800 819.0000 1.0000
65.4900 845.0000 1.0000
65.5000 786.0000 1.0000
65.5100 782.0000 1.0000
65.5200 798.0000 1.0000
65.5300 807.0000 1.0000
65.5400 771.0000 1.0000
65.5500 754.0000 1.0000
65.5600 731.0000 1.0000
65.5700 775.0000 1.0000
65.5800 745.0000 1.0000
65.5900 740.0000 1.0000
65.6000 705.0000 1.0000
65.6100 742.0000 1.0000
65.6200 685.0000 1.0000
65.6300 659.0000 1.0000
65.6400 676.0000 1.0000
65.6500 678.0000 1.0000
65.6600 720.0000 1.0000
65.6700 615.0000 1.0000
65.6800 650.0000 1.0000
65.6900 594.0000 1.0000
65.7000 599.0000 1.0000
65.7100 593.0000 1.0000
65.7200 570.0000 1.0000
65.7300 608.0000 1.0000
65.7400 530.0000 1.0000
65.7500 507.0000 1.0000
65.7600 492.0000 1.0000
65.7700 455.0000 1.0000
65.7800 467.0000 1.0000
65.7900 448.0000 1.0000
65.8000 441.0000 1.0000
65.8100 418.0000 1.0000
65.8200 396.0000 1.0000
65.8300 368.0000 1.0000
65.8400 378.0000 1.0000
65.8500 385.0000 1.0000
65.8600 371.0000 1.0000
65.8700 360.0000 1.0000
65.8800 364.0000 1.0000
65.8900 338.0000 1.0000
65.9000 342.0000 1.0000
65.9100 322.0000 1.0000
65.9200 330.0000 1.0000
65.9300 352.0000 1.0000
65.9400 296.0000 1.0000
65.9500 293.0000 1.0000
65.9600 306.0000 1.0000
65.9700 288.0000 1.0000
65.9800 273.0000 1.0000
65.9900 315.0000 1.0000
66.0000 324.0000 1.0000
66.0100 313.0000 1.0000
66.0200 307.0000 1.0000
66.0300 271.0000 1.0000
66.0400 265.0000 1.0000
66.0500 274.0000 1.0000
66.0600 272.0000 1.0000
66.0700 313.0000 1.0000
66.0800 246.0000 1.0000
66.0900 257.0000 1.0000
66.1000 285.0000 1.0000
66.1100 279.0000 1.0000
66.1200 284.0000 1.0000
66.1300 271.0000 1.0000
66.1400 288.0000 1.0000
66.1500 279.0000 1.0000
66.1600 231.0000 1.0000
66.1700 241.0000 1.0000
66.1800 229.0000 1.0000
66.1900 254.0000 1.0000
66.2000 257.0000 1.0000
66.2100 240.0000 1.0000
66.2200 270.0000 1.0000
66.2300 263.0000 1.0000
66.2400 262.0000 1.0000
66.2500 225.0000 1.0000
66.2600 239.0000 1.0000
66.2700 262.0000 1.0000
66.2800 260.0000 1.0000
66.2900 231.0000 1.0000
66.3000 257.0000 1.0000
66.3100 261.0000 1.0000
66.3200 265.0000 1.0000
66.3300 227.0000 1.0000
66.3400 274.0000 1.0000
66.3500 266.0000 1.0000
66.3600 240.0000 1.0000
66.3700 242.0000 1.0000
66.3800 228.0000 1.0000
66.3900 245.0000 1.0000
66.4000 249.0000 1.0000
66.4100 239.0000 1.0000
66.4200 241.0000 1.0000
66.4300 219.0000 1.0000
66.4400 253.0000 1.0000
66.4500 261.0000 1.0000
66.4600 238.0000 1.0000
66.4700 207.0000 1.0000
66.4800 238.0000 1.0000
66.4900 248.0000 1.0000
66.5000 225.0000 1.0000
66.5100 231.0000 1.0000
66.5200 237.0000 1.0000
66.5300 241.0000 1.0000
66.5400 239.0000 1.0000
66.5500 234.0000 1.0000
66.5600 221.0000 1.0000
66.5700 234.0000 1.0000
66.5800 216.0000 1.0000
66.5900 220.0000 1.0000
66.6000 215.0000 1.0000
66.6100 246.0000 1.0000
66.6200 238.0000 1.0000
66.6300 246.0000 1.0000
66.6400 235.0000 1.0000
66.6500 214.0000 1.0000
66.6600 256.0000 1.0000
66.6700 238.0000 1.0000
66.6800 245.0000 1.0000
66.6900 227.0000 1.0000
66.7000 246.0000 1.0000
66.7100 233.0000 1.0000
66.7200 217.0000 1.0000
66.7300 224.0000 1.0000
66.7400 249.0000 1.0000
66.7500 237.0000 1.0000
66.7600 227.0000 1.0000
66.7700 226.0000 1.0000
66.7800 223.0000 1.0000
66.7900 223.0000 1.0000
66.8000 230.0000 1.0000
66.8100 227.0000 1.0000
66.8200 246.0000 1.0000
66.8300 229.0000 1.0000
66.8400 219.0000 1.0000
66.8500 241.0000 1.0000
66.8600 237.0000 1.0000
66.8700 204.0000 1.0000
66.8800 224.0000 1.0000
66.8900 224.0000 1.0000
66.9000 221.0000 1.0000
66.9100 232.0000 1.0000
66.9200 205.0000 1.0000
66.9300 213.0000 1.0000
66.9400 226.0000 1.0000
66.9500 248.0000 1.0000
66.9600 224.0000 1.0000
66.9700 215.0000 1.0000
66.9800 225.0000 1.0000
66.9900 221.0000 1.0000
67.0000 235.0000 1.0000
67.0100 228.0000 1.0000
67.0200 224.0000 1.0000
67.0300 229.0000 1.0000
67.0400 250.0000 1.0000
67.0500 213.0000 1.0000
67.0600 235.0000 1.0000
67.0700 223.0000 1.0000
67.0800 217.0000 1.0000
67.0900 220.0000 1.0000
67.1000 224.0000 1.0000
67.1100 229.0000 1.0000
67.1200 228.0000 1.0000
67.1300 204.0000 1.0000
67.1400 209.0000 1.0000
67.1500 216.0000 1.0000
67.1600 203.0000 1.0000
67.1700 182.0000 1.0000
67.1800 238.0000 1.0000
67.1900 223.0000 1.0000
67.2000 229.0000 1.0000
67.2100 230.0000 1.0000
67.2200 223.0000 1.0000
67.2300 224.0000 1.0000
67.2400 223.0000 1.0000
67.2500 195.0000 1.0000
67.2600 228.0000 1.0000
67.2700 222.0000 1.0000
67.2800 219.0000 1.0000
67.2900 229.0000 1.0000
67.3000 246.0000 1.0000
67.3100 212.0000 1.0000
67.3200 206.0000 1.0000
67.3300 212.0000 1.0000
67.3400 220.0000 1.0000
67.3500 205.0000 1.0000
67.3600 228.0000 1.0000
67.3700 221.0000 1.0000
67.3800 222.0000 1.0000
67.3900 209.0000 1.0000
67.4000 244.0000 1.0000
67.4100 241.0000 1.0000
67.4200 233.0000 1.0000
67.4300 223.0000 1.0000
67.4400 228.0000 1.0000
67.4500 250.0000 1.0000
67.4600 239.0000 1.0000
67.4700 224.0000 1.0000
67.4800 182.0000 1.0000
67.4900 223.0000 1.0000
67.5000 224.0000 1.0000
67.5100 226.0000 1.0000
67.5200 208.0000 1.0000
67.5300 223.0000 1.0000
67.5400 228.0000 1.0000
67.5500 221.0000 1.0000
67.5600 226.0000 1.0000
67.5700 215.0000 1.0000
67.5800 220.0000 1.0000
67.5900 204.0000 1.0000
67.6000 187.0000 1.0000
67.6100 214.0000 1.0000
67.6200 207.0000 1.0000
67.6300 229.0000 1.0000
67.6400 229.0000 1.0000
67.6500 210.0000 1.0000
67.6600 224.0000 1.0000
67.6700 219.0000 1.0000
67.6800 214.0000 1.0000
67.6900 225.0000 1.0000
67.7000 203.0000 1.0000
67.7100 188.0000 1.0000
67.7200 214.0000 1.0000
67.7300 208.0000 1.0000
67.7400 206.0000 1.0000
67.7500 214.0000 1.0000
67.7600 205.0000 1.0000
67.7700 212.0000 1.0000
67.7800 204.0000 1.0000
67.7900 221.0000 1.0000
67.8000 230.0000 1.0000
67.8100 227.0000 1.0000
67.8200 220.0000 1.0000
67.8300 217.0000 1.0000
67.8400 221.0000 1.0000
67.8500 219.0000 1.0000
67.8600 227.0000 1.0000
67.8700 229.0000 1.0000
67.8800 229.0000 1.0000
67.8900 228.0000 1.0000
67.9000 225.0000 1.0000
67.9100 233.0000 1.0000
67.9200 219.0000 1.0000
67.9300 203.0000 1.0000
67.9400 248.0000 1.0000
67.9500 213.0000 1.0000
67.9600 195.0000 1.0000
67.9700 204.0000 1.0000
67.9800 225.0000 1.0000
67.9900 232.0000 1.0000
68.0000 198.0000 1.0000
68.0100 235.0000 1.0000
68.0200 217.0000 1.0000
68.0300 235.0000 1.0000
68.0400 249.0000 1.0000
68.0500 222.0000 1.0000
68.0600 229.0000 1.0000
68.0700 240.0000 1.0000
68.0800 219.0000 1.0000
68.0900 192.0000 1.0000
68.1000 224.0000 1.0000
68.1100 212.0000 1.0000
68.1200 241.0000 1.0000
68.1300 230.0000 1.0000
68.1400 209.0000 1.0000
68.1500 239.0000 1.0000
68.1600 241.0000 1.0000
68.1700 196.0000 1.0000
68.1800 211.0000 1.0000
68.1900 221.0000 1.0000
68.2000 237.0000 1.0000
68.2100 201.0000 1.0000
68.2200 192.0000 1.0000
68.2300 211.0000 1.0000
68.2400 226.0000 1.0000
68.2500 227.0000 1.0000
68.2600 210.0000 1.0000
68.2700 212.0000 1.0000
68.2800 215.0000 1.0000
68.2900 226.0000 1.0000
68.3000 214.0000 1.0000
68.3100 200.0000 1.0000
68.3200 224.0000 1.0000
68.3300 227.0000 1.0000
68.3400 222.0000 1.0000
68.3500 252.0000 1.0000
68.3600 229.0000 1.0000
68.3700 223.0000 1.0000
68.3800 220.0000 1.0000
68.3900 210.0000 1.0000
68.4000 202.0000 1.0000
68.4100 225.0000 1.0000
68.4200 218.0000 1.0000
68.4300 221.0000 1.0000
68.4400 212.0000 1.0000
68.4500 209.0000 1.0000
68.4600 220.0000 1.0000
68.4700 212.0000 1.0000
68.4800 213.0000 1.0000
68.4900 208.0000 1.0000
68.5000 208.0000 1.0000
68.5100 239.0000 1.0000
68.5200 226.0000 1.0000
68.5300 199.0000 1.0000
68.5400 193.0000 1.0000
68.5500 202.0000 1.0000
68.5600 234.0000 1.0000
68.5700 228.0000 1.0000
68.5800 230.0000 1.0000
68.5900 226.0000 1.0000
68.6000 198.0000 1.0000
68.6100 218.0000 1.0000
68.6200 229.0000 1.0000
68.6300 225.0000 1.0000
68.6400 211.0000 1.0000
68.6500 228.0000 1.0000
68.6600 220.0000 1.0000
68.6700 212.0000 1.0000
68.6800 211.0000 1.0000
68.6900 220.0000 1.0000
68.7000 230.0000 1.0000
68.7100 215.0000 1.0000
68.7200 231.0000 1.0000
68.7300 251.0000 1.0000
68.7400 211.0000 1.0000
68.7500 200.0000 1.0000
68.7600 225.0000 1.0000
68.7700 197.0000 1.0000
68.7800 216.0000 1.0000
68.7900 234.0000 1.0000
68.8000 221.0000 1.0000
68.8100 226.0000 1.0000
68.8200 213.0000 1.0000
68.8300 229.0000 1.0000
68.8400 238.0000 1.0000
68.8500 205.0000 1.0000
68.8600 205.0000 1.0000
68.8700 205.0000 1.0000
68.8800 222.0000 1.0000
68.8900 214.0000 1.0000
68.9000 192.0000 1.0000
68.9100 217.0000 1.0000
68.9200 213.0000 1.0000
68.9300 215.0000 1.0000
68.9400 208.0000 1.0000
68.9500 188.0000 1.0000
68.9600 207.0000 1.0000
68.9700 191.0000 1.0000
68.9800 208.0000 1.0000
68.9900 223.0000 1.0000
69.0000 222.0000 1.0000
69.0100 196.0000 1.0000
69.0200 201.0000 1.0000
69.0300 211.0000 1.0000
69.0400 206.0000 1.0000
69.0500 221.0000 1.0000
69.0600 231.0000 1.0000
69.0700 221.0000 1.0000
69.0800 206.0000 1.0000
69.0900 205.0000 1.0000
69.1000 235.0000 1.0000
69.1100 210.0000 1.0000
69.1200 216.0000 1.0000
69.1300 218.0000 1.0000
69.1400 209.0000 1.0000
69.1500 194.0000 1.0000
69.1600 220.0000 1.0000
69.1700 216.0000 1.0000
69.1800 215.0000 1.0000
69.1900 192.0000 1.0000
69.2000 212.0000 1.0000
69.2100 211.0000 1.0000
69.2200 213.0000 1.0000
69.2300 202.0000 1.0000
69.2400 197.0000 1.0000
69.2500 208.0000 1.0000
69.2600 218.0000 1.0000
69.2700 202.0000 1.0000
69.2800 199.0000 1.0000
69.2900 219.0000 1.0000
69.3000 205.0000 1.0000
69.3100 207.0000 1.0000
69.3200 210.0000 1.0000
69.3300 214.0000 1.0000
69.3400 193.0000 1.0000
69.3500 212.0000 1.0000
69.3600 205.0000 1.0000
69.3700 200.0000 1.0000
69.3800 207.0000 1.0000
69.3900 201.0000 1.0000
69.4000 196.0000 1.0000
69.4100 203.0000 1.0000
69.4200 214.0000 1.0000
69.4300 208.0000 1.0000
69.4400 212.0000 1.0000
69.4500 217.0000 1.0000
69.4600 210.0000 1.0000
69.4700 215.0000 1.0000
69.4800 231.0000 1.0000
69.4900 220.0000 1.0000
69.5000 209.0000 1.0000
69.5100 217.0000 1.0000
69.5200 194.0000 1.0000
69.5300 191.0000 1.0000
69.5400 173.0000 1.0000
69.5500 222.0000 1.0000
69.5600 209.0000 1.0000
69.5700 220.0000 1.0000
69.5800 201.0000 1.0000
69.5900 217.0000 1.0000
69.6000 195.0000 1.0000
69.6100 221.0000 1.0000
69.6200 226.0000 1.0000
69.6300 209.0000 1.0000
69.6400 216.0000 1.0000
69.6500 199.0000 1.0000
69.6600 217.0000 1.0000
69.6700 214.0000 1.0000
69.6800 217.0000 1.0000
69.6900 215.0000 1.0000
69.7000 182.0000 1.0000
69.7100 220.0000 1.0000
69.7200 203.0000 1.0000
69.7300 205.0000 1.0000
69.7400 209.0000 1.0000
69.7500 208.0000 1.0000
69.7600 221.0000 1.0000
69.7700 210.0000 1.0000
69.7800 213.0000 1.0000
69.7900 223.0000 1.0000
69.8000 204.0000 1.0000
69.8100 209.0000 1.0000
69.8200 191.0000 1.0000
69.8300 191.0000 1.0000
69.8400 197.0000 1.0000
69.8500 221.0000 1.0000
69.8600 210.0000 1.0000
69.8700 198.0000 1.0000
69.8800 212.0000 1.0000
69.8900 218.0000 1.0000
69.9000 214.0000 1.0000
69.9100 209.0000 1.0000
69.9200 202.0000 1.0000
69.9300 228.0000 1.0000
69.9400 185.0000 1.0000
69.9500 207.0000 1.0000
69.9600 233.0000 1.0000
69.9700 219.0000 1.0000
69.9800 220.0000 1.0000
69.9900 199.0000 1.0000
70.0000 215.0000 1.0000
*RAS_INT_END
*RAS_TEMPERATURE_START
*RAS_TEMPERATURE_END
*RAS_DATA_END
