*RAS_DATA_START
*RAS_HEADER_START
*DISP_FMT_X "%.2f"
*DISP_FMT_Y "%.0f"
*DISP_FULLSCALE "15070.0000000000"
*DISP_LINE_COLOR "255.0000000000"
*DISP_LINE_STYLE "0.0000000000"
*DISP_LINE_WIDTH "0.2500000000"
*DISP_NOTE "測定データ-14"
*DISP_OFFSET_Y "0.0000000000"
*DISP_PEAKSEARCH_UNIT_Y "cps"
*DISP_RANGE_BOTTOM "0.0000000000"
*DISP_RANGE_LEFT "20.0000000000"
*DISP_RANGE_LOGCUTOFF "0.0100000000"
*DISP_RANGE_RIGHT "70.0000000000"
*DISP_RANGE_TOP "15070.0000000000"
*DISP_SCALE_MODE_Y "0.0000000000"
*DISP_TAB_NAME "2θ/θ"
*DISP_TITLE_Y "強度"
*DISP_UNIT_Y "cps"
*DISP_WINDOW_NAME "MSG_MACROENGINE"
*FILE_COMMENT " "
*FILE_MD5 ""
*FILE_MEMO " "
*FILE_OPERATOR "Administrator"
*FILE_SAMPLE " "
*FILE_TYPE "RAS_RAW"
*FILE_USERGROUP "システムマネージャ"
*FILE_VERSION "1.0000000000"
*HW_ATTACHMENT_ID "ATT0025"
*HW_ATTACHMENT_NAME "標準|Standard"
*HW_COUNTER_ID-0 "CUT0025"
*HW_COUNTER_ID-1 "CUT0020"
*HW_COUNTER_ID-2 "CUT0020"
*HW_COUNTER_ID-3 "CSL0021"
*HW_COUNTER_ID-4 "CMC0021"
*HW_COUNTER_NAME-0 "D/teX Ultra|D/teX Ultra"
*HW_COUNTER_NAME-1 "None|None"
*HW_COUNTER_NAME-2 "None|None"
*HW_COUNTER_NAME-3 "BBM|BBM"
*HW_COUNTER_NAME-4 "検出器モノクロメータ|Detector monochromator"
*HW_COUNTER_SELECT_NAME "D/teX Ultra|D/teX Ultra"
*HW_GONIOMETER_ID "GON0023"
*HW_GONIOMETER_NAME "SmartLab|SmartLab"
*HW_GONIOMETER_RADIUS-0 "90.0"
*HW_GONIOMETER_RADIUS-1 "114.0"
*HW_GONIOMETER_RADIUS-2 "190.0"
*HW_GONIOMETER_RADIUS-3 "300.0"
*HW_GONIOMETER_RADIUS-4 "187.0"
*HW_GONIOMETER_RADIUS-5 "300.0"
*HW_GONIOMETER_RADIUS-6 "113.0"
*HW_GONIOMETER_RADIUS-7 "331.0"
*HW_I_OPT_ID-0 "CBO0021"
*HW_I_OPT_ID-1 "ICR0023"
*HW_I_OPT_ID-2 "ISL0021"
*HW_I_OPT_ID-3 "ISO0021"
*HW_I_OPT_ID-4 "IAD0021"
*HW_I_OPT_ID-5 "IPR0001"
*HW_I_OPT_NAME-0 "CBOユニット|CBO unit"
*HW_I_OPT_NAME-1 "標準入射光学ユニット|Standard incident optical unit"
*HW_I_OPT_NAME-2 "標準入射スリットボックス|Standard incident slit box"
*HW_I_OPT_NAME-3 "入射平行スリット|Incident parallel slit"
*HW_I_OPT_NAME-4 "長手制限スリット|Length limiting slit"
*HW_I_OPT_NAME-5 "None|None"
*HW_R_ATTENUATER_AUTOMODE "0"
*HW_R_OPT_ID-0 "RSS0021"
*HW_R_OPT_ID-1 "RCR0023"
*HW_R_OPT_ID-2 "RSO0021"
*HW_R_OPT_ID-3 "RRS0021"
*HW_R_OPT_ID-4 "ATN0021"
*HW_R_OPT_ID-5 "RFL0021"
*HW_R_OPT_ID-6 "RAD0021"
*HW_R_OPT_NAME-0 "標準受光スリットボックス1|Standard receiving slit box # 1"
*HW_R_OPT_NAME-1 "標準受光光学ユニット1|Standard receiving unit # 1"
*HW_R_OPT_NAME-2 "標準受光光学ユニット2|Standard receiving optical unit # 2"
*HW_R_OPT_NAME-3 "標準受光スリットボックス2|Standard receiving slit box # 2"
*HW_R_OPT_NAME-4 "標準アッテネータ|Standard Attenuator"
*HW_R_OPT_NAME-5 "Cu Kβ|Cu K-beta"
*HW_R_OPT_NAME-6 "調整用受光スリット|Alignment receiving slit"
*HW_SAMPLE_HOLDER_ID "SMP0023"
*HW_SAMPLE_HOLDER_NAME "標準Zステージ|Standard Z stage"
*HW_XG_CURRENT_MAX "50"
*HW_XG_CURRENT_MIN "2"
*HW_XG_CURRENT_RESOLUTION "1"
*HW_XG_CURRENT_UNIT "mA"
*HW_XG_FOCUS "1mm x 10mm"
*HW_XG_FOCUS_TYPE "Normal"
*HW_XG_ID ""
*HW_XG_NAME "3kW 封入管(ID:1200)|3kW Sealed tube(ID:1200)"
*HW_XG_TARGET_ATOMIC_NUMBER "29.0000000000"
*HW_XG_TARGET_NAME "Cu"
*HW_XG_TYPE "Hermetic"
*HW_XG_VOLTAGE_MAX "60"
*HW_XG_VOLTAGE_MIN "20"
*HW_XG_VOLTAGE_RESOLUTION "1"
*HW_XG_VOLTAGE_UNIT "kV"
*HW_XG_WATT_MAX "1.500"
*HW_XG_WATT_UNIT "kW"
*HW_XG_WAVE_LENGTH_ALPHA1 "1.540593"
*HW_XG_WAVE_LENGTH_ALPHA2 "1.544414"
*HW_XG_WAVE_LENGTH_BETA "1.392250"
*MEAS_COND_AXIS_NAME-0 "2θ/θ"
*MEAS_COND_AXIS_NAME-1 "2θ"
*MEAS_COND_AXIS_NAME-2 "ω"
*MEAS_COND_AXIS_NAME-3 "Z"
*MEAS_COND_AXIS_NAME-4 "2θ/ω"
*MEAS_COND_AXIS_NAME-5 "θs"
*MEAS_COND_AXIS_NAME-6 "θd"
*MEAS_COND_AXIS_NAME-7 "Ts"
*MEAS_COND_AXIS_NAME-8 "CBO選択スリット"
*MEAS_COND_AXIS_NAME-9 "M"
*MEAS_COND_AXIS_NAME-10 "入射平行スリット"
*MEAS_COND_AXIS_NAME-11 "入射スリット"
*MEAS_COND_AXIS_NAME-12 ""
*MEAS_COND_AXIS_NAME-13 "Zs"
*MEAS_COND_AXIS_NAME-14 "入射光学素子"
*MEAS_COND_AXIS_NAME-15 "長手制限スリット"
*MEAS_COND_AXIS_NAME-16 "センタースリット"
*MEAS_COND_AXIS_NAME-17 "フィルター"
*MEAS_COND_AXIS_NAME-18 "受光スリット1"
*MEAS_COND_AXIS_NAME-19 "受光スリット2"
*MEAS_COND_AXIS_NAME-20 "受光光学素子"
*MEAS_COND_AXIS_NAME-21 "受光平行スリット"
*MEAS_COND_AXIS_NAME-22 "調整用受光スリット"
*MEAS_COND_AXIS_NAME-23 ""
*MEAS_COND_AXIS_NAME-24 ""
*MEAS_COND_AXIS_NAME-25 "Zd"
*MEAS_COND_AXIS_NAME-26 "アッテネータ"
*MEAS_COND_AXIS_NAME-27 "検出器モノクロメータ"
*MEAS_COND_AXIS_NAME-28 "モノクロメータスリット"
*MEAS_COND_AXIS_NAME-29 "プライマリビーム"
*MEAS_COND_AXIS_NAME-30 "PHA"
*MEAS_COND_AXIS_NAME_INTERNAL-0 "TwoThetaTheta"
*MEAS_COND_AXIS_NAME_INTERNAL-1 "TwoTheta"
*MEAS_COND_AXIS_NAME_INTERNAL-2 "Omega"
*MEAS_COND_AXIS_NAME_INTERNAL-3 "Z"
*MEAS_COND_AXIS_NAME_INTERNAL-4 "TwoThetaOmega"
*MEAS_COND_AXIS_NAME_INTERNAL-5 "ThetaS"
*MEAS_COND_AXIS_NAME_INTERNAL-6 "ThetaD"
*MEAS_COND_AXIS_NAME_INTERNAL-7 "Ts"
*MEAS_COND_AXIS_NAME_INTERNAL-8 "CBO"
*MEAS_COND_AXIS_NAME_INTERNAL-9 "CBO-M"
*MEAS_COND_AXIS_NAME_INTERNAL-10 "IncidentSollerSlit"
*MEAS_COND_AXIS_NAME_INTERNAL-11 "IncidentSlitBox"
*MEAS_COND_AXIS_NAME_INTERNAL-12 "IncidentSlitBox-_Axis"
*MEAS_COND_AXIS_NAME_INTERNAL-13 "Zs"
*MEAS_COND_AXIS_NAME_INTERNAL-14 "IncidentMonochromator"
*MEAS_COND_AXIS_NAME_INTERNAL-15 "IncidentAxdSlit"
*MEAS_COND_AXIS_NAME_INTERNAL-16 "CenterSlit"
*MEAS_COND_AXIS_NAME_INTERNAL-17 "Filter"
*MEAS_COND_AXIS_NAME_INTERNAL-18 "ReceivingSlitBox1"
*MEAS_COND_AXIS_NAME_INTERNAL-19 "ReceivingSlitBox2"
*MEAS_COND_AXIS_NAME_INTERNAL-20 "ReceivingOptics"
*MEAS_COND_AXIS_NAME_INTERNAL-21 "ReceivingSollerSlit"
*MEAS_COND_AXIS_NAME_INTERNAL-22 "ReceivingAxdSlit"
*MEAS_COND_AXIS_NAME_INTERNAL-23 "ReceivingSlitBox1-_Axis"
*MEAS_COND_AXIS_NAME_INTERNAL-24 "ReceivingSlitBox2-_Axis"
*MEAS_COND_AXIS_NAME_INTERNAL-25 "ReceivingSlitBox2-Zd"
*MEAS_COND_AXIS_NAME_INTERNAL-26 "Attenuator"
*MEAS_COND_AXIS_NAME_INTERNAL-27 "CounterMonochromator"
*MEAS_COND_AXIS_NAME_INTERNAL-28 "CounterSlit"
*MEAS_COND_AXIS_NAME_INTERNAL-29 "IncidentPrimary"
*MEAS_COND_AXIS_NAME_INTERNAL-30 "PHA"
*MEAS_COND_AXIS_NAME_MAGICNO-0 "83951616.0000000000"
*MEAS_COND_AXIS_NAME_MAGICNO-1 "268632064.0000000000"
*MEAS_COND_AXIS_NAME_MAGICNO-2 "268500992.0000000000"
*MEAS_COND_AXIS_NAME_MAGICNO-3 "285278208.0000000000"
*MEAS_COND_AXIS_NAME_MAGICNO-4 "83951616.0000000000"
*MEAS_COND_AXIS_NAME_MAGICNO-5 "131072.0000000000"
*MEAS_COND_AXIS_NAME_MAGICNO-6 "131072.0000000000"
*MEAS_COND_AXIS_NAME_MAGICNO-7 "318898176.0000000000"
*MEAS_COND_AXIS_NAME_MAGICNO-8 "20971521.0000000000"
*MEAS_COND_AXIS_NAME_MAGICNO-9 "285343744.0000000000"
*MEAS_COND_AXIS_NAME_MAGICNO-10 "20971521.0000000000"
*MEAS_COND_AXIS_NAME_MAGICNO-11 "22020097.0000000000"
*MEAS_COND_AXIS_NAME_MAGICNO-12 "25165824.0000000000"
*MEAS_COND_AXIS_NAME_MAGICNO-13 "318898176.0000000000"
*MEAS_COND_AXIS_NAME_MAGICNO-14 "1.0000000000"
*MEAS_COND_AXIS_NAME_MAGICNO-15 "20971521.0000000000"
*MEAS_COND_AXIS_NAME_MAGICNO-16 "20971521.0000000000"
*MEAS_COND_AXIS_NAME_MAGICNO-17 "20971521.0000000000"
*MEAS_COND_AXIS_NAME_MAGICNO-18 "23068673.0000000000"
*MEAS_COND_AXIS_NAME_MAGICNO-19 "23068673.0000000000"
*MEAS_COND_AXIS_NAME_MAGICNO-20 "20971521.0000000000"
*MEAS_COND_AXIS_NAME_MAGICNO-21 "20971521.0000000000"
*MEAS_COND_AXIS_NAME_MAGICNO-22 "20971521.0000000000"
*MEAS_COND_AXIS_NAME_MAGICNO-23 "25165824.0000000000"
*MEAS_COND_AXIS_NAME_MAGICNO-24 "25165824.0000000000"
*MEAS_COND_AXIS_NAME_MAGICNO-25 "285343744.0000000000"
*MEAS_COND_AXIS_NAME_MAGICNO-26 "17301505.0000000000"
*MEAS_COND_AXIS_NAME_MAGICNO-27 "20971521.0000000000"
*MEAS_COND_AXIS_NAME_MAGICNO-28 "20971521.0000000000"
*MEAS_COND_AXIS_NAME_MAGICNO-29 "20971521.0000000000"
*MEAS_COND_AXIS_NAME_MAGICNO-30 "0.0000000000"
*MEAS_COND_AXIS_OFFSET-0 "-"
*MEAS_COND_AXIS_OFFSET-1 "-0.0310000000"
*MEAS_COND_AXIS_OFFSET-2 "0.3957000000"
*MEAS_COND_AXIS_OFFSET-3 "-"
*MEAS_COND_AXIS_OFFSET-4 "-"
*MEAS_COND_AXIS_OFFSET-5 "0.3957000000"
*MEAS_COND_AXIS_OFFSET-6 "-0.4267000000"
*MEAS_COND_AXIS_OFFSET-7 "-"
*MEAS_COND_AXIS_OFFSET-8 "-"
*MEAS_COND_AXIS_OFFSET-9 "-"
*MEAS_COND_AXIS_OFFSET-10 "-"
*MEAS_COND_AXIS_OFFSET-11 "-"
*MEAS_COND_AXIS_OFFSET-12 "-"
*MEAS_COND_AXIS_OFFSET-13 "-"
*MEAS_COND_AXIS_OFFSET-14 "-"
*MEAS_COND_AXIS_OFFSET-15 "-"
*MEAS_COND_AXIS_OFFSET-16 "-"
*MEAS_COND_AXIS_OFFSET-17 "-"
*MEAS_COND_AXIS_OFFSET-18 "-"
*MEAS_COND_AXIS_OFFSET-19 "-"
*MEAS_COND_AXIS_OFFSET-20 "-"
*MEAS_COND_AXIS_OFFSET-21 "-"
*MEAS_COND_AXIS_OFFSET-22 "-"
*MEAS_COND_AXIS_OFFSET-23 "-"
*MEAS_COND_AXIS_OFFSET-24 "-"
*MEAS_COND_AXIS_OFFSET-25 "-"
*MEAS_COND_AXIS_OFFSET-26 "-"
*MEAS_COND_AXIS_OFFSET-27 "-"
*MEAS_COND_AXIS_OFFSET-28 "-"
*MEAS_COND_AXIS_OFFSET-29 "-"
*MEAS_COND_AXIS_OFFSET-30 "-"
*MEAS_COND_AXIS_POSITION-0 "0.0000000000"
*MEAS_COND_AXIS_POSITION-1 "0.0000000000"
*MEAS_COND_AXIS_POSITION-2 "0.0000000000"
*MEAS_COND_AXIS_POSITION-3 "-2.9656400000"
*MEAS_COND_AXIS_POSITION-4 "0.0000000000"
*MEAS_COND_AXIS_POSITION-5 "0.0000000000"
*MEAS_COND_AXIS_POSITION-6 "0.0000000000"
*MEAS_COND_AXIS_POSITION-7 "-0.7498700000"
*MEAS_COND_AXIS_POSITION-8 "BB"
*MEAS_COND_AXIS_POSITION-9 "0.0000000000"
*MEAS_COND_AXIS_POSITION-10 "Soller_slit_5.0deg"
*MEAS_COND_AXIS_POSITION-11 "2/3deg"
*MEAS_COND_AXIS_POSITION-12 "2.2088000000"
*MEAS_COND_AXIS_POSITION-13 "-0.6412500000"
*MEAS_COND_AXIS_POSITION-14 "0.0000000000"
*MEAS_COND_AXIS_POSITION-15 "10.0mm"
*MEAS_COND_AXIS_POSITION-16 "None"
*MEAS_COND_AXIS_POSITION-17 "Cu_K-beta"
*MEAS_COND_AXIS_POSITION-18 "13.000mm"
*MEAS_COND_AXIS_POSITION-19 "13.000mm"
*MEAS_COND_AXIS_POSITION-20 "No_unit"
*MEAS_COND_AXIS_POSITION-21 "Soller_slit_5.0deg"
*MEAS_COND_AXIS_POSITION-22 "None"
*MEAS_COND_AXIS_POSITION-23 "13.0000000000"
*MEAS_COND_AXIS_POSITION-24 "13.0000000000"
*MEAS_COND_AXIS_POSITION-25 "0.0281300000"
*MEAS_COND_AXIS_POSITION-26 "Open"
*MEAS_COND_AXIS_POSITION-27 "None"
*MEAS_COND_AXIS_POSITION-28 "None"
*MEAS_COND_AXIS_POSITION-29 "None"
*MEAS_COND_AXIS_POSITION-30 "38.0000000000"
*MEAS_COND_AXIS_UNIT-0 "deg"
*MEAS_COND_AXIS_UNIT-1 "deg"
*MEAS_COND_AXIS_UNIT-2 "deg"
*MEAS_COND_AXIS_UNIT-3 "mm"
*MEAS_COND_AXIS_UNIT-4 "deg"
*MEAS_COND_AXIS_UNIT-5 "deg"
*MEAS_COND_AXIS_UNIT-6 "deg"
*MEAS_COND_AXIS_UNIT-7 "mm"
*MEAS_COND_AXIS_UNIT-8 ""
*MEAS_COND_AXIS_UNIT-9 "pulse"
*MEAS_COND_AXIS_UNIT-10 ""
*MEAS_COND_AXIS_UNIT-11 ""
*MEAS_COND_AXIS_UNIT-12 "mm"
*MEAS_COND_AXIS_UNIT-13 "mm"
*MEAS_COND_AXIS_UNIT-14 ""
*MEAS_COND_AXIS_UNIT-15 ""
*MEAS_COND_AXIS_UNIT-16 ""
*MEAS_COND_AXIS_UNIT-17 ""
*MEAS_COND_AXIS_UNIT-18 ""
*MEAS_COND_AXIS_UNIT-19 ""
*MEAS_COND_AXIS_UNIT-20 ""
*MEAS_COND_AXIS_UNIT-21 ""
*MEAS_COND_AXIS_UNIT-22 ""
*MEAS_COND_AXIS_UNIT-23 "mm"
*MEAS_COND_AXIS_UNIT-24 "mm"
*MEAS_COND_AXIS_UNIT-25 "mm"
*MEAS_COND_AXIS_UNIT-26 ""
*MEAS_COND_AXIS_UNIT-27 ""
*MEAS_COND_AXIS_UNIT-28 ""
*MEAS_COND_AXIS_UNIT-29 ""
*MEAS_COND_AXIS_UNIT-30 "div"
*MEAS_COND_COUNTER_CNTLOSS_CORR "0.0000000000"
*MEAS_COND_COUNTER_PHABASE "38.0000000000"
*MEAS_COND_COUNTER_PHAWINDOW "16.0000000000"
*MEAS_COND_COUNTER_PHA_UNIT "div"
*MEAS_COND_COUNTER_TAUDIFF "30.0000000000"
*MEAS_COND_COUNTER_TAUINT "0.0000000000"
*MEAS_COND_IRRADIATION_MODE "OFF"
*MEAS_COND_IRRADIATION_WIDTH ""
*MEAS_COND_OPT_ATTR "集中法"
*MEAS_COND_OPT_NAME "@集中法"
*MEAS_COND_UNSYMMETRIC_MODE "OFF"
*MEAS_COND_XG_CURRENT "30.0000000000"
*MEAS_COND_XG_VOLTAGE "40.0000000000"
*MEAS_COND_XG_WAVE_TYPE "Ka"
*MEAS_DATA_COUNT "5001.0000000000"
*MEAS_SCAN_AXIS_X "2θ/θ"
*MEAS_SCAN_AXIS_X_INTERNAL "TwoThetaTheta"
*MEAS_SCAN_END_TIME "02/14/24 22:18:29"
*MEAS_SCAN_MODE "CONTINUOUS"
*MEAS_SCAN_MONITOR "0"
*MEAS_SCAN_RESOLUTION_X "0.0002"
*MEAS_SCAN_SPEED "2.5"
*MEAS_SCAN_SPEED_UNIT "deg/min"
*MEAS_SCAN_START "20.0000000000"
*MEAS_SCAN_START_TIME "02/14/24 21:57:06"
*MEAS_SCAN_STEP "0.0100000000"
*MEAS_SCAN_STOP "70.0000000000"
*MEAS_SCAN_UNIT_X "deg"
*MEAS_SCAN_UNIT_Y "counts"
*RAS_HEADER_END
*RAS_INT_START
20.0000 734.0000 1.0000
20.0100 760.0000 1.0000
20.0200 763.0000 1.0000
20.0300 736.0000 1.0000
20.0400 760.0000 1.0000
20.0500 788.0000 1.0000
20.0600 702.0000 1.0000
20.0700 748.0000 1.0000
20.0800 767.0000 1.0000
20.0900 757.0000 1.0000
20.1000 776.0000 1.0000
20.1100 748.0000 1.0000
20.1200 744.0000 1.0000
20.1300 757.0000 1.0000
20.1400 773.0000 1.0000
20.1500 789.0000 1.0000
20.1600 741.0000 1.0000
20.1700 751.0000 1.0000
20.1800 756.0000 1.0000
20.1900 790.0000 1.0000
20.2000 731.0000 1.0000
20.2100 748.0000 1.0000
20.2200 773.0000 1.0000
20.2300 749.0000 1.0000
20.2400 733.0000 1.0000
20.2500 698.0000 1.0000
20.2600 761.0000 1.0000
20.2700 792.0000 1.0000
20.2800 746.0000 1.0000
20.2900 772.0000 1.0000
20.3000 739.0000 1.0000
20.3100 782.0000 1.0000
20.3200 749.0000 1.0000
20.3300 751.0000 1.0000
20.3400 771.0000 1.0000
20.3500 740.0000 1.0000
20.3600 721.0000 1.0000
20.3700 732.0000 1.0000
20.3800 770.0000 1.0000
20.3900 761.0000 1.0000
20.4000 740.0000 1.0000
20.4100 789.0000 1.0000
20.4200 688.0000 1.0000
20.4300 752.0000 1.0000
20.4400 731.0000 1.0000
20.4500 721.0000 1.0000
20.4600 743.0000 1.0000
20.4700 742.0000 1.0000
20.4800 774.0000 1.0000
20.4900 748.0000 1.0000
20.5000 794.0000 1.0000
20.5100 745.0000 1.0000
20.5200 799.0000 1.0000
20.5300 726.0000 1.0000
20.5400 745.0000 1.0000
20.5500 745.0000 1.0000
20.5600 762.0000 1.0000
20.5700 763.0000 1.0000
20.5800 756.0000 1.0000
20.5900 708.0000 1.0000
20.6000 736.0000 1.0000
20.6100 765.0000 1.0000
20.6200 747.0000 1.0000
20.6300 750.0000 1.0000
20.6400 712.0000 1.0000
20.6500 745.0000 1.0000
20.6600 745.0000 1.0000
20.6700 727.0000 1.0000
20.6800 754.0000 1.0000
20.6900 764.0000 1.0000
20.7000 757.0000 1.0000
20.7100 786.0000 1.0000
20.7200 721.0000 1.0000
20.7300 760.0000 1.0000
20.7400 778.0000 1.0000
20.7500 796.0000 1.0000
20.7600 732.0000 1.0000
20.7700 737.0000 1.0000
20.7800 748.0000 1.0000
20.7900 742.0000 1.0000
20.8000 739.0000 1.0000
20.8100 797.0000 1.0000
20.8200 747.0000 1.0000
20.8300 737.0000 1.0000
20.8400 754.0000 1.0000
20.8500 731.0000 1.0000
20.8600 748.0000 1.0000
20.8700 757.0000 1.0000
20.8800 759.0000 1.0000
20.8900 714.0000 1.0000
20.9000 730.0000 1.0000
20.9100 715.0000 1.0000
20.9200 780.0000 1.0000
20.9300 729.0000 1.0000
20.9400 845.0000 1.0000
20.9500 750.0000 1.0000
20.9600 744.0000 1.0000
20.9700 682.0000 1.0000
20.9800 732.0000 1.0000
20.9900 781.0000 1.0000
21.0000 748.0000 1.0000
21.0100 755.0000 1.0000
21.0200 718.0000 1.0000
21.0300 753.0000 1.0000
21.0400 756.0000 1.0000
21.0500 757.0000 1.0000
21.0600 737.0000 1.0000
21.0700 761.0000 1.0000
21.0800 780.0000 1.0000
21.0900 782.0000 1.0000
21.1000 739.0000 1.0000
21.1100 721.0000 1.0000
21.1200 812.0000 1.0000
21.1300 753.0000 1.0000
21.1400 749.0000 1.0000
21.1500 761.0000 1.0000
21.1600 742.0000 1.0000
21.1700 758.0000 1.0000
21.1800 710.0000 1.0000
21.1900 728.0000 1.0000
21.2000 689.0000 1.0000
21.2100 733.0000 1.0000
21.2200 741.0000 1.0000
21.2300 752.0000 1.0000
21.2400 774.0000 1.0000
21.2500 732.0000 1.0000
21.2600 710.0000 1.0000
21.2700 740.0000 1.0000
21.2800 712.0000 1.0000
21.2900 721.0000 1.0000
21.3000 733.0000 1.0000
21.3100 739.0000 1.0000
21.3200 718.0000 1.0000
21.3300 728.0000 1.0000
21.3400 767.0000 1.0000
21.3500 711.0000 1.0000
21.3600 739.0000 1.0000
21.3700 785.0000 1.0000
21.3800 752.0000 1.0000
21.3900 750.0000 1.0000
21.4000 784.0000 1.0000
21.4100 770.0000 1.0000
21.4200 740.0000 1.0000
21.4300 748.0000 1.0000
21.4400 758.0000 1.0000
21.4500 716.0000 1.0000
21.4600 716.0000 1.0000
21.4700 742.0000 1.0000
21.4800 791.0000 1.0000
21.4900 746.0000 1.0000
21.5000 772.0000 1.0000
21.5100 711.0000 1.0000
21.5200 730.0000 1.0000
21.5300 763.0000 1.0000
21.5400 743.0000 1.0000
21.5500 738.0000 1.0000
21.5600 751.0000 1.0000
21.5700 718.0000 1.0000
21.5800 717.0000 1.0000
21.5900 804.0000 1.0000
21.6000 738.0000 1.0000
21.6100 786.0000 1.0000
21.6200 733.0000 1.0000
21.6300 736.0000 1.0000
21.6400 728.0000 1.0000
21.6500 731.0000 1.0000
21.6600 733.0000 1.0000
21.6700 785.0000 1.0000
21.6800 739.0000 1.0000
21.6900 806.0000 1.0000
21.7000 718.0000 1.0000
21.7100 726.0000 1.0000
21.7200 786.0000 1.0000
21.7300 776.0000 1.0000
21.7400 723.0000 1.0000
21.7500 730.0000 1.0000
21.7600 733.0000 1.0000
21.7700 743.0000 1.0000
21.7800 747.0000 1.0000
21.7900 766.0000 1.0000
21.8000 731.0000 1.0000
21.8100 782.0000 1.0000
21.8200 729.0000 1.0000
21.8300 728.0000 1.0000
21.8400 762.0000 1.0000
21.8500 752.0000 1.0000
21.8600 739.0000 1.0000
21.8700 742.0000 1.0000
21.8800 713.0000 1.0000
21.8900 710.0000 1.0000
21.9000 713.0000 1.0000
21.9100 704.0000 1.0000
21.9200 720.0000 1.0000
21.9300 769.0000 1.0000
21.9400 772.0000 1.0000
21.9500 793.0000 1.0000
21.9600 771.0000 1.0000
21.9700 748.0000 1.0000
21.9800 732.0000 1.0000
21.9900 689.0000 1.0000
22.0000 771.0000 1.0000
22.0100 742.0000 1.0000
22.0200 753.0000 1.0000
22.0300 692.0000 1.0000
22.0400 710.0000 1.0000
22.0500 733.0000 1.0000
22.0600 763.0000 1.0000
22.0700 729.0000 1.0000
22.0800 762.0000 1.0000
22.0900 719.0000 1.0000
22.1000 787.0000 1.0000
22.1100 738.0000 1.0000
22.1200 747.0000 1.0000
22.1300 748.0000 1.0000
22.1400 756.0000 1.0000
22.1500 721.0000 1.0000
22.1600 726.0000 1.0000
22.1700 716.0000 1.0000
22.1800 729.0000 1.0000
22.1900 750.0000 1.0000
22.2000 762.0000 1.0000
22.2100 780.0000 1.0000
22.2200 745.0000 1.0000
22.2300 714.0000 1.0000
22.2400 684.0000 1.0000
22.2500 679.0000 1.0000
22.2600 754.0000 1.0000
22.2700 740.0000 1.0000
22.2800 745.0000 1.0000
22.2900 696.0000 1.0000
22.3000 734.0000 1.0000
22.3100 728.0000 1.0000
22.3200 721.0000 1.0000
22.3300 764.0000 1.0000
22.3400 739.0000 1.0000
22.3500 753.0000 1.0000
22.3600 700.0000 1.0000
22.3700 708.0000 1.0000
22.3800 769.0000 1.0000
22.3900 741.0000 1.0000
22.4000 737.0000 1.0000
22.4100 780.0000 1.0000
22.4200 726.0000 1.0000
22.4300 713.0000 1.0000
22.4400 708.0000 1.0000
22.4500 752.0000 1.0000
22.4600 718.0000 1.0000
22.4700 767.0000 1.0000
22.4800 724.0000 1.0000
22.4900 691.0000 1.0000
22.5000 699.0000 1.0000
22.5100 725.0000 1.0000
22.5200 727.0000 1.0000
22.5300 741.0000 1.0000
22.5400 725.0000 1.0000
22.5500 701.0000 1.0000
22.5600 744.0000 1.0000
22.5700 721.0000 1.0000
22.5800 763.0000 1.0000
22.5900 752.0000 1.0000
22.6000 718.0000 1.0000
22.6100 723.0000 1.0000
22.6200 733.0000 1.0000
22.6300 744.0000 1.0000
22.6400 744.0000 1.0000
22.6500 709.0000 1.0000
22.6600 714.0000 1.0000
22.6700 721.0000 1.0000
22.6800 703.0000 1.0000
22.6900 709.0000 1.0000
22.7000 729.0000 1.0000
22.7100 710.0000 1.0000
22.7200 725.0000 1.0000
22.7300 723.0000 1.0000
22.7400 709.0000 1.0000
22.7500 718.0000 1.0000
22.7600 729.0000 1.0000
22.7700 723.0000 1.0000
22.7800 676.0000 1.0000
22.7900 700.0000 1.0000
22.8000 754.0000 1.0000
22.8100 762.0000 1.0000
22.8200 732.0000 1.0000
22.8300 761.0000 1.0000
22.8400 741.0000 1.0000
22.8500 724.0000 1.0000
22.8600 767.0000 1.0000
22.8700 747.0000 1.0000
22.8800 733.0000 1.0000
22.8900 704.0000 1.0000
22.9000 713.0000 1.0000
22.9100 694.0000 1.0000
22.9200 749.0000 1.0000
22.9300 735.0000 1.0000
22.9400 744.0000 1.0000
22.9500 717.0000 1.0000
22.9600 737.0000 1.0000
22.9700 757.0000 1.0000
22.9800 751.0000 1.0000
22.9900 734.0000 1.0000
23.0000 767.0000 1.0000
23.0100 728.0000 1.0000
23.0200 702.0000 1.0000
23.0300 732.0000 1.0000
23.0400 727.0000 1.0000
23.0500 751.0000 1.0000
23.0600 699.0000 1.0000
23.0700 736.0000 1.0000
23.0800 756.0000 1.0000
23.0900 774.0000 1.0000
23.1000 769.0000 1.0000
23.1100 694.0000 1.0000
23.1200 704.0000 1.0000
23.1300 707.0000 1.0000
23.1400 735.0000 1.0000
23.1500 718.0000 1.0000
23.1600 760.0000 1.0000
23.1700 735.0000 1.0000
23.1800 797.0000 1.0000
23.1900 730.0000 1.0000
23.2000 675.0000 1.0000
23.2100 728.0000 1.0000
23.2200 739.0000 1.0000
23.2300 742.0000 1.0000
23.2400 752.0000 1.0000
23.2500 692.0000 1.0000
23.2600 701.0000 1.0000
23.2700 693.0000 1.0000
23.2800 712.0000 1.0000
23.2900 731.0000 1.0000
23.3000 732.0000 1.0000
23.3100 730.0000 1.0000
23.3200 722.0000 1.0000
23.3300 766.0000 1.0000
23.3400 725.0000 1.0000
23.3500 710.0000 1.0000
23.3600 734.0000 1.0000
23.3700 744.0000 1.0000
23.3800 767.0000 1.0000
23.3900 766.0000 1.0000
23.4000 737.0000 1.0000
23.4100 649.0000 1.0000
23.4200 700.0000 1.0000
23.4300 730.0000 1.0000
23.4400 748.0000 1.0000
23.4500 702.0000 1.0000
23.4600 710.0000 1.0000
23.4700 722.0000 1.0000
23.4800 714.0000 1.0000
23.4900 732.0000 1.0000
23.5000 721.0000 1.0000
23.5100 725.0000 1.0000
23.5200 753.0000 1.0000
23.5300 736.0000 1.0000
23.5400 691.0000 1.0000
23.5500 659.0000 1.0000
23.5600 750.0000 1.0000
23.5700 729.0000 1.0000
23.5800 724.0000 1.0000
23.5900 734.0000 1.0000
23.6000 753.0000 1.0000
23.6100 742.0000 1.0000
23.6200 693.0000 1.0000
23.6300 698.0000 1.0000
23.6400 729.0000 1.0000
23.6500 699.0000 1.0000
23.6600 716.0000 1.0000
23.6700 739.0000 1.0000
23.6800 757.0000 1.0000
23.6900 699.0000 1.0000
23.7000 679.0000 1.0000
23.7100 744.0000 1.0000
23.7200 748.0000 1.0000
23.7300 777.0000 1.0000
23.7400 740.0000 1.0000
23.7500 762.0000 1.0000
23.7600 722.0000 1.0000
23.7700 717.0000 1.0000
23.7800 723.0000 1.0000
23.7900 725.0000 1.0000
23.8000 726.0000 1.0000
23.8100 736.0000 1.0000
23.8200 726.0000 1.0000
23.8300 724.0000 1.0000
23.8400 746.0000 1.0000
23.8500 719.0000 1.0000
23.8600 701.0000 1.0000
23.8700 747.0000 1.0000
23.8800 755.0000 1.0000
23.8900 752.0000 1.0000
23.9000 721.0000 1.0000
23.9100 723.0000 1.0000
23.9200 731.0000 1.0000
23.9300 743.0000 1.0000
23.9400 738.0000 1.0000
23.9500 742.0000 1.0000
23.9600 782.0000 1.0000
23.9700 735.0000 1.0000
23.9800 732.0000 1.0000
23.9900 766.0000 1.0000
24.0000 760.0000 1.0000
24.0100 765.0000 1.0000
24.0200 788.0000 1.0000
24.0300 825.0000 1.0000
24.0400 809.0000 1.0000
24.0500 774.0000 1.0000
24.0600 786.0000 1.0000
24.0700 808.0000 1.0000
24.0800 826.0000 1.0000
24.0900 759.0000 1.0000
24.1000 792.0000 1.0000
24.1100 814.0000 1.0000
24.1200 762.0000 1.0000
24.1300 759.0000 1.0000
24.1400 767.0000 1.0000
24.1500 776.0000 1.0000
24.1600 760.0000 1.0000
24.1700 730.0000 1.0000
24.1800 774.0000 1.0000
24.1900 790.0000 1.0000
24.2000 764.0000 1.0000
24.2100 758.0000 1.0000
24.2200 724.0000 1.0000
24.2300 739.0000 1.0000
24.2400 704.0000 1.0000
24.2500 736.0000 1.0000
24.2600 756.0000 1.0000
24.2700 732.0000 1.0000
24.2800 772.0000 1.0000
24.2900 728.0000 1.0000
24.3000 753.0000 1.0000
24.3100 723.0000 1.0000
24.3200 736.0000 1.0000
24.3300 708.0000 1.0000
24.3400 722.0000 1.0000
24.3500 722.0000 1.0000
24.3600 771.0000 1.0000
24.3700 736.0000 1.0000
24.3800 725.0000 1.0000
24.3900 699.0000 1.0000
24.4000 727.0000 1.0000
24.4100 689.0000 1.0000
24.4200 692.0000 1.0000
24.4300 686.0000 1.0000
24.4400 704.0000 1.0000
24.4500 753.0000 1.0000
24.4600 714.0000 1.0000
24.4700 761.0000 1.0000
24.4800 737.0000 1.0000
24.4900 747.0000 1.0000
24.5000 738.0000 1.0000
24.5100 740.0000 1.0000
24.5200 757.0000 1.0000
24.5300 701.0000 1.0000
24.5400 655.0000 1.0000
24.5500 694.0000 1.0000
24.5600 752.0000 1.0000
24.5700 721.0000 1.0000
24.5800 739.0000 1.0000
24.5900 690.0000 1.0000
24.6000 747.0000 1.0000
24.6100 724.0000 1.0000
24.6200 708.0000 1.0000
24.6300 729.0000 1.0000
24.6400 748.0000 1.0000
24.6500 709.0000 1.0000
24.6600 688.0000 1.0000
24.6700 684.0000 1.0000
24.6800 693.0000 1.0000
24.6900 704.0000 1.0000
24.7000 720.0000 1.0000
24.7100 753.0000 1.0000
24.7200 732.0000 1.0000
24.7300 703.0000 1.0000
24.7400 695.0000 1.0000
24.7500 714.0000 1.0000
24.7600 709.0000 1.0000
24.7700 726.0000 1.0000
24.7800 708.0000 1.0000
24.7900 690.0000 1.0000
24.8000 679.0000 1.0000
24.8100 685.0000 1.0000
24.8200 710.0000 1.0000
24.8300 675.0000 1.0000
24.8400 692.0000 1.0000
24.8500 690.0000 1.0000
24.8600 698.0000 1.0000
24.8700 676.0000 1.0000
24.8800 697.0000 1.0000
24.8900 731.0000 1.0000
24.9000 739.0000 1.0000
24.9100 677.0000 1.0000
24.9200 633.0000 1.0000
24.9300 673.0000 1.0000
24.9400 713.0000 1.0000
24.9500 703.0000 1.0000
24.9600 708.0000 1.0000
24.9700 708.0000 1.0000
24.9800 681.0000 1.0000
24.9900 656.0000 1.0000
25.0000 699.0000 1.0000
25.0100 715.0000 1.0000
25.0200 737.0000 1.0000
25.0300 695.0000 1.0000
25.0400 651.0000 1.0000
25.0500 649.0000 1.0000
25.0600 703.0000 1.0000
25.0700 689.0000 1.0000
25.0800 677.0000 1.0000
25.0900 710.0000 1.0000
25.1000 693.0000 1.0000
25.1100 711.0000 1.0000
25.1200 689.0000 1.0000
25.1300 682.0000 1.0000
25.1400 660.0000 1.0000
25.1500 667.0000 1.0000
25.1600 722.0000 1.0000
25.1700 737.0000 1.0000
25.1800 695.0000 1.0000
25.1900 697.0000 1.0000
25.2000 681.0000 1.0000
25.2100 668.0000 1.0000
25.2200 662.0000 1.0000
25.2300 668.0000 1.0000
25.2400 658.0000 1.0000
25.2500 680.0000 1.0000
25.2600 650.0000 1.0000
25.2700 678.0000 1.0000
25.2800 725.0000 1.0000
25.2900 747.0000 1.0000
25.3000 686.0000 1.0000
25.3100 714.0000 1.0000
25.3200 732.0000 1.0000
25.3300 693.0000 1.0000
25.3400 670.0000 1.0000
25.3500 692.0000 1.0000
25.3600 735.0000 1.0000
25.3700 694.0000 1.0000
25.3800 698.0000 1.0000
25.3900 722.0000 1.0000
25.4000 718.0000 1.0000
25.4100 722.0000 1.0000
25.4200 674.0000 1.0000
25.4300 679.0000 1.0000
25.4400 756.0000 1.0000
25.4500 683.0000 1.0000
25.4600 654.0000 1.0000
25.4700 720.0000 1.0000
25.4800 696.0000 1.0000
25.4900 701.0000 1.0000
25.5000 680.0000 1.0000
25.5100 729.0000 1.0000
25.5200 672.0000 1.0000
25.5300 711.0000 1.0000
25.5400 679.0000 1.0000
25.5500 684.0000 1.0000
25.5600 721.0000 1.0000
25.5700 666.0000 1.0000
25.5800 689.0000 1.0000
25.5900 734.0000 1.0000
25.6000 690.0000 1.0000
25.6100 733.0000 1.0000
25.6200 719.0000 1.0000
25.6300 719.0000 1.0000
25.6400 729.0000 1.0000
25.6500 675.0000 1.0000
25.6600 701.0000 1.0000
25.6700 723.0000 1.0000
25.6800 738.0000 1.0000
25.6900 674.0000 1.0000
25.7000 688.0000 1.0000
25.7100 727.0000 1.0000
25.7200 702.0000 1.0000
25.7300 690.0000 1.0000
25.7400 696.0000 1.0000
25.7500 734.0000 1.0000
25.7600 692.0000 1.0000
25.7700 678.0000 1.0000
25.7800 707.0000 1.0000
25.7900 754.0000 1.0000
25.8000 758.0000 1.0000
25.8100 717.0000 1.0000
25.8200 696.0000 1.0000
25.8300 728.0000 1.0000
25.8400 707.0000 1.0000
25.8500 716.0000 1.0000
25.8600 707.0000 1.0000
25.8700 680.0000 1.0000
25.8800 734.0000 1.0000
25.8900 743.0000 1.0000
25.9000 718.0000 1.0000
25.9100 693.0000 1.0000
25.9200 771.0000 1.0000
25.9300 758.0000 1.0000
25.9400 763.0000 1.0000
25.9500 741.0000 1.0000
25.9600 779.0000 1.0000
25.9700 738.0000 1.0000
25.9800 745.0000 1.0000
25.9900 751.0000 1.0000
26.0000 771.0000 1.0000
26.0100 774.0000 1.0000
26.0200 754.0000 1.0000
26.0300 775.0000 1.0000
26.0400 758.0000 1.0000
26.0500 747.0000 1.0000
26.0600 742.0000 1.0000
26.0700 792.0000 1.0000
26.0800 808.0000 1.0000
26.0900 805.0000 1.0000
26.1000 833.0000 1.0000
26.1100 814.0000 1.0000
26.1200 808.0000 1.0000
26.1300 818.0000 1.0000
26.1400 813.0000 1.0000
26.1500 838.0000 1.0000
26.1600 835.0000 1.0000
26.1700 819.0000 1.0000
26.1800 915.0000 1.0000
26.1900 889.0000 1.0000
26.2000 881.0000 1.0000
26.2100 947.0000 1.0000
26.2200 923.0000 1.0000
26.2300 905.0000 1.0000
26.2400 926.0000 1.0000
26.2500 948.0000 1.0000
26.2600 965.0000 1.0000
26.2700 967.0000 1.0000
26.2800 1027.0000 1.0000
26.2900 1041.0000 1.0000
26.3000 1075.0000 1.0000
26.3100 1127.0000 1.0000
26.3200 1109.0000 1.0000
26.3300 1125.0000 1.0000
26.3400 1202.0000 1.0000
26.3500 1187.0000 1.0000
26.3600 1247.0000 1.0000
26.3700 1283.0000 1.0000
26.3800 1300.0000 1.0000
26.3900 1325.0000 1.0000
26.4000 1378.0000 1.0000
26.4100 1419.0000 1.0000
26.4200 1389.0000 1.0000
26.4300 1380.0000 1.0000
26.4400 1410.0000 1.0000
26.4500 1439.0000 1.0000
26.4600 1392.0000 1.0000
26.4700 1489.0000 1.0000
26.4800 1432.0000 1.0000
26.4900 1398.0000 1.0000
26.5000 1358.0000 1.0000
26.5100 1312.0000 1.0000
26.5200 1239.0000 1.0000
26.5300 1233.0000 1.0000
26.5400 1237.0000 1.0000
26.5500 1231.0000 1.0000
26.5600 1208.0000 1.0000
26.5700 1131.0000 1.0000
26.5800 1119.0000 1.0000
26.5900 1087.0000 1.0000
26.6000 1054.0000 1.0000
26.6100 1000.0000 1.0000
26.6200 976.0000 1.0000
26.6300 965.0000 1.0000
26.6400 929.0000 1.0000
26.6500 905.0000 1.0000
26.6600 893.0000 1.0000
26.6700 861.0000 1.0000
26.6800 891.0000 1.0000
26.6900 892.0000 1.0000
26.7000 893.0000 1.0000
26.7100 837.0000 1.0000
26.7200 874.0000 1.0000
26.7300 857.0000 1.0000
26.7400 842.0000 1.0000
26.7500 827.0000 1.0000
26.7600 789.0000 1.0000
26.7700 781.0000 1.0000
26.7800 807.0000 1.0000
26.7900 766.0000 1.0000
26.8000 791.0000 1.0000
26.8100 776.0000 1.0000
26.8200 726.0000 1.0000
26.8300 755.0000 1.0000
26.8400 746.0000 1.0000
26.8500 717.0000 1.0000
26.8600 767.0000 1.0000
26.8700 702.0000 1.0000
26.8800 727.0000 1.0000
26.8900 736.0000 1.0000
26.9000 727.0000 1.0000
26.9100 727.0000 1.0000
26.9200 724.0000 1.0000
26.9300 703.0000 1.0000
26.9400 691.0000 1.0000
26.9500 724.0000 1.0000
26.9600 680.0000 1.0000
26.9700 703.0000 1.0000
26.9800 727.0000 1.0000
26.9900 669.0000 1.0000
27.0000 697.0000 1.0000
27.0100 679.0000 1.0000
27.0200 720.0000 1.0000
27.0300 701.0000 1.0000
27.0400 740.0000 1.0000
27.0500 692.0000 1.0000
27.0600 676.0000 1.0000
27.0700 664.0000 1.0000
27.0800 670.0000 1.0000
27.0900 702.0000 1.0000
27.1000 643.0000 1.0000
27.1100 636.0000 1.0000
27.1200 726.0000 1.0000
27.1300 666.0000 1.0000
27.1400 646.0000 1.0000
27.1500 653.0000 1.0000
27.1600 671.0000 1.0000
27.1700 646.0000 1.0000
27.1800 726.0000 1.0000
27.1900 701.0000 1.0000
27.2000 671.0000 1.0000
27.2100 698.0000 1.0000
27.2200 686.0000 1.0000
27.2300 658.0000 1.0000
27.2400 656.0000 1.0000
27.2500 697.0000 1.0000
27.2600 665.0000 1.0000
27.2700 670.0000 1.0000
27.2800 695.0000 1.0000
27.2900 650.0000 1.0000
27.3000 639.0000 1.0000
27.3100 631.0000 1.0000
27.3200 650.0000 1.0000
27.3300 662.0000 1.0000
27.3400 681.0000 1.0000
27.3500 682.0000 1.0000
27.3600 620.0000 1.0000
27.3700 642.0000 1.0000
27.3800 682.0000 1.0000
27.3900 657.0000 1.0000
27.4000 654.0000 1.0000
27.4100 669.0000 1.0000
27.4200 643.0000 1.0000
27.4300 663.0000 1.0000
27.4400 653.0000 1.0000
27.4500 626.0000 1.0000
27.4600 631.0000 1.0000
27.4700 653.0000 1.0000
27.4800 651.0000 1.0000
27.4900 649.0000 1.0000
27.5000 664.0000 1.0000
27.5100 608.0000 1.0000
27.5200 627.0000 1.0000
27.5300 706.0000 1.0000
27.5400 649.0000 1.0000
27.5500 613.0000 1.0000
27.5600 630.0000 1.0000
27.5700 620.0000 1.0000
27.5800 610.0000 1.0000
27.5900 615.0000 1.0000
27.6000 652.0000 1.0000
27.6100 640.0000 1.0000
27.6200 640.0000 1.0000
27.6300 620.0000 1.0000
27.6400 625.0000 1.0000
27.6500 590.0000 1.0000
27.6600 615.0000 1.0000
27.6700 624.0000 1.0000
27.6800 616.0000 1.0000
27.6900 594.0000 1.0000
27.7000 603.0000 1.0000
27.7100 645.0000 1.0000
27.7200 637.0000 1.0000
27.7300 636.0000 1.0000
27.7400 630.0000 1.0000
27.7500 619.0000 1.0000
27.7600 637.0000 1.0000
27.7700 627.0000 1.0000
27.7800 607.0000 1.0000
27.7900 659.0000 1.0000
27.8000 641.0000 1.0000
27.8100 610.0000 1.0000
27.8200 660.0000 1.0000
27.8300 650.0000 1.0000
27.8400 590.0000 1.0000
27.8500 642.0000 1.0000
27.8600 619.0000 1.0000
27.8700 627.0000 1.0000
27.8800 641.0000 1.0000
27.8900 576.0000 1.0000
27.9000 596.0000 1.0000
27.9100 612.0000 1.0000
27.9200 613.0000 1.0000
27.9300 605.0000 1.0000
27.9400 614.0000 1.0000
27.9500 658.0000 1.0000
27.9600 641.0000 1.0000
27.9700 605.0000 1.0000
27.9800 569.0000 1.0000
27.9900 632.0000 1.0000
28.0000 643.0000 1.0000
28.0100 641.0000 1.0000
28.0200 630.0000 1.0000
28.0300 577.0000 1.0000
28.0400 622.0000 1.0000
28.0500 624.0000 1.0000
28.0600 607.0000 1.0000
28.0700 627.0000 1.0000
28.0800 625.0000 1.0000
28.0900 598.0000 1.0000
28.1000 584.0000 1.0000
28.1100 595.0000 1.0000
28.1200 609.0000 1.0000
28.1300 640.0000 1.0000
28.1400 600.0000 1.0000
28.1500 613.0000 1.0000
28.1600 600.0000 1.0000
28.1700 577.0000 1.0000
28.1800 592.0000 1.0000
28.1900 614.0000 1.0000
28.2000 588.0000 1.0000
28.2100 645.0000 1.0000
28.2200 569.0000 1.0000
28.2300 603.0000 1.0000
28.2400 585.0000 1.0000
28.2500 584.0000 1.0000
28.2600 582.0000 1.0000
28.2700 574.0000 1.0000
28.2800 613.0000 1.0000
28.2900 600.0000 1.0000
28.3000 593.0000 1.0000
28.3100 602.0000 1.0000
28.3200 570.0000 1.0000
28.3300 602.0000 1.0000
28.3400 584.0000 1.0000
28.3500 606.0000 1.0000
28.3600 637.0000 1.0000
28.3700 578.0000 1.0000
28.3800 608.0000 1.0000
28.3900 629.0000 1.0000
28.4000 624.0000 1.0000
28.4100 557.0000 1.0000
28.4200 579.0000 1.0000
28.4300 608.0000 1.0000
28.4400 636.0000 1.0000
28.4500 620.0000 1.0000
28.4600 605.0000 1.0000
28.4700 608.0000 1.0000
28.4800 568.0000 1.0000
28.4900 565.0000 1.0000
28.5000 593.0000 1.0000
28.5100 617.0000 1.0000
28.5200 639.0000 1.0000
28.5300 630.0000 1.0000
28.5400 576.0000 1.0000
28.5500 576.0000 1.0000
28.5600 564.0000 1.0000
28.5700 569.0000 1.0000
28.5800 616.0000 1.0000
28.5900 619.0000 1.0000
28.6000 651.0000 1.0000
28.6100 598.0000 1.0000
28.6200 595.0000 1.0000
28.6300 570.0000 1.0000
28.6400 582.0000 1.0000
28.6500 565.0000 1.0000
28.6600 598.0000 1.0000
28.6700 619.0000 1.0000
28.6800 589.0000 1.0000
28.6900 562.0000 1.0000
28.7000 560.0000 1.0000
28.7100 601.0000 1.0000
28.7200 610.0000 1.0000
28.7300 595.0000 1.0000
28.7400 597.0000 1.0000
28.7500 575.0000 1.0000
28.7600 568.0000 1.0000
28.7700 637.0000 1.0000
28.7800 584.0000 1.0000
28.7900 582.0000 1.0000
28.8000 640.0000 1.0000
28.8100 571.0000 1.0000
28.8200 611.0000 1.0000
28.8300 581.0000 1.0000
28.8400 583.0000 1.0000
28.8500 645.0000 1.0000
28.8600 626.0000 1.0000
28.8700 598.0000 1.0000
28.8800 613.0000 1.0000
28.8900 587.0000 1.0000
28.9000 614.0000 1.0000
28.9100 584.0000 1.0000
28.9200 558.0000 1.0000
28.9300 623.0000 1.0000
28.9400 596.0000 1.0000
28.9500 563.0000 1.0000
28.9600 568.0000 1.0000
28.9700 603.0000 1.0000
28.9800 615.0000 1.0000
28.9900 607.0000 1.0000
29.0000 562.0000 1.0000
29.0100 563.0000 1.0000
29.0200 580.0000 1.0000
29.0300 569.0000 1.0000
29.0400 574.0000 1.0000
29.0500 584.0000 1.0000
29.0600 552.0000 1.0000
29.0700 582.0000 1.0000
29.0800 538.0000 1.0000
29.0900 592.0000 1.0000
29.1000 580.0000 1.0000
29.1100 555.0000 1.0000
29.1200 560.0000 1.0000
29.1300 588.0000 1.0000
29.1400 582.0000 1.0000
29.1500 565.0000 1.0000
29.1600 571.0000 1.0000
29.1700 573.0000 1.0000
29.1800 595.0000 1.0000
29.1900 602.0000 1.0000
29.2000 565.0000 1.0000
29.2100 591.0000 1.0000
29.2200 605.0000 1.0000
29.2300 611.0000 1.0000
29.2400 562.0000 1.0000
29.2500 584.0000 1.0000
29.2600 561.0000 1.0000
29.2700 576.0000 1.0000
29.2800 596.0000 1.0000
29.2900 620.0000 1.0000
29.3000 626.0000 1.0000
29.3100 550.0000 1.0000
29.3200 576.0000 1.0000
29.3300 570.0000 1.0000
29.3400 592.0000 1.0000
29.3500 556.0000 1.0000
29.3600 596.0000 1.0000
29.3700 579.0000 1.0000
29.3800 572.0000 1.0000
29.3900 525.0000 1.0000
29.4000 554.0000 1.0000
29.4100 581.0000 1.0000
29.4200 535.0000 1.0000
29.4300 546.0000 1.0000
29.4400 590.0000 1.0000
29.4500 565.0000 1.0000
29.4600 581.0000 1.0000
29.4700 580.0000 1.0000
29.4800 613.0000 1.0000
29.4900 559.0000 1.0000
29.5000 544.0000 1.0000
29.5100 578.0000 1.0000
29.5200 572.0000 1.0000
29.5300 611.0000 1.0000
29.5400 582.0000 1.0000
29.5500 591.0000 1.0000
29.5600 559.0000 1.0000
29.5700 589.0000 1.0000
29.5800 590.0000 1.0000
29.5900 601.0000 1.0000
29.6000 570.0000 1.0000
29.6100 586.0000 1.0000
29.6200 566.0000 1.0000
29.6300 587.0000 1.0000
29.6400 534.0000 1.0000
29.6500 556.0000 1.0000
29.6600 566.0000 1.0000
29.6700 574.0000 1.0000
29.6800 568.0000 1.0000
29.6900 600.0000 1.0000
29.7000 570.0000 1.0000
29.7100 574.0000 1.0000
29.7200 555.0000 1.0000
29.7300 589.0000 1.0000
29.7400 565.0000 1.0000
29.7500 544.0000 1.0000
29.7600 567.0000 1.0000
29.7700 574.0000 1.0000
29.7800 594.0000 1.0000
29.7900 570.0000 1.0000
29.8000 607.0000 1.0000
29.8100 592.0000 1.0000
29.8200 566.0000 1.0000
29.8300 585.0000 1.0000
29.8400 553.0000 1.0000
29.8500 558.0000 1.0000
29.8600 539.0000 1.0000
29.8700 595.0000 1.0000
29.8800 541.0000 1.0000
29.8900 546.0000 1.0000
29.9000 560.0000 1.0000
29.9100 576.0000 1.0000
29.9200 550.0000 1.0000
29.9300 579.0000 1.0000
29.9400 556.0000 1.0000
29.9500 538.0000 1.0000
29.9600 521.0000 1.0000
29.9700 527.0000 1.0000
29.9800 602.0000 1.0000
29.9900 606.0000 1.0000
30.0000 544.0000 1.0000
30.0100 563.0000 1.0000
30.0200 581.0000 1.0000
30.0300 524.0000 1.0000
30.0400 565.0000 1.0000
30.0500 526.0000 1.0000
30.0600 615.0000 1.0000
30.0700 577.0000 1.0000
30.0800 521.0000 1.0000
30.0900 519.0000 1.0000
30.1000 566.0000 1.0000
30.1100 575.0000 1.0000
30.1200 600.0000 1.0000
30.1300 561.0000 1.0000
30.1400 580.0000 1.0000
30.1500 580.0000 1.0000
30.1600 592.0000 1.0000
30.1700 577.0000 1.0000
30.1800 572.0000 1.0000
30.1900 577.0000 1.0000
30.2000 570.0000 1.0000
30.2100 526.0000 1.0000
30.2200 555.0000 1.0000
30.2300 547.0000 1.0000
30.2400 591.0000 1.0000
30.2500 557.0000 1.0000
30.2600 556.0000 1.0000
30.2700 521.0000 1.0000
30.2800 530.0000 1.0000
30.2900 521.0000 1.0000
30.3000 531.0000 1.0000
30.3100 519.0000 1.0000
30.3200 531.0000 1.0000
30.3300 553.0000 1.0000
30.3400 554.0000 1.0000
30.3500 543.0000 1.0000
30.3600 519.0000 1.0000
30.3700 536.0000 1.0000
30.3800 568.0000 1.0000
30.3900 570.0000 1.0000
30.4000 531.0000 1.0000
30.4100 556.0000 1.0000
30.4200 538.0000 1.0000
30.4300 532.0000 1.0000
30.4400 538.0000 1.0000
30.4500 569.0000 1.0000
30.4600 541.0000 1.0000
30.4700 561.0000 1.0000
30.4800 548.0000 1.0000
30.4900 612.0000 1.0000
30.5000 571.0000 1.0000
30.5100 586.0000 1.0000
30.5200 574.0000 1.0000
30.5300 577.0000 1.0000
30.5400 529.0000 1.0000
30.5500 544.0000 1.0000
30.5600 563.0000 1.0000
30.5700 550.0000 1.0000
30.5800 519.0000 1.0000
30.5900 573.0000 1.0000
30.6000 561.0000 1.0000
30.6100 572.0000 1.0000
30.6200 493.0000 1.0000
30.6300 549.0000 1.0000
30.6400 531.0000 1.0000
30.6500 565.0000 1.0000
30.6600 513.0000 1.0000
30.6700 531.0000 1.0000
30.6800 526.0000 1.0000
30.6900 545.0000 1.0000
30.7000 553.0000 1.0000
30.7100 536.0000 1.0000
30.7200 568.0000 1.0000
30.7300 514.0000 1.0000
30.7400 533.0000 1.0000
30.7500 531.0000 1.0000
30.7600 557.0000 1.0000
30.7700 550.0000 1.0000
30.7800 570.0000 1.0000
30.7900 536.0000 1.0000
30.8000 531.0000 1.0000
30.8100 506.0000 1.0000
30.8200 529.0000 1.0000
30.8300 526.0000 1.0000
30.8400 560.0000 1.0000
30.8500 530.0000 1.0000
30.8600 546.0000 1.0000
30.8700 530.0000 1.0000
30.8800 517.0000 1.0000
30.8900 557.0000 1.0000
30.9000 536.0000 1.0000
30.9100 557.0000 1.0000
30.9200 540.0000 1.0000
30.9300 513.0000 1.0000
30.9400 523.0000 1.0000
30.9500 518.0000 1.0000
30.9600 562.0000 1.0000
30.9700 515.0000 1.0000
30.9800 541.0000 1.0000
30.9900 560.0000 1.0000
31.0000 559.0000 1.0000
31.0100 555.0000 1.0000
31.0200 556.0000 1.0000
31.0300 582.0000 1.0000
31.0400 592.0000 1.0000
31.0500 555.0000 1.0000
31.0600 565.0000 1.0000
31.0700 576.0000 1.0000
31.0800 567.0000 1.0000
31.0900 594.0000 1.0000
31.1000 619.0000 1.0000
31.1100 597.0000 1.0000
31.1200 560.0000 1.0000
31.1300 560.0000 1.0000
31.1400 582.0000 1.0000
31.1500 555.0000 1.0000
31.1600 558.0000 1.0000
31.1700 591.0000 1.0000
31.1800 583.0000 1.0000
31.1900 548.0000 1.0000
31.2000 523.0000 1.0000
31.2100 593.0000 1.0000
31.2200 590.0000 1.0000
31.2300 541.0000 1.0000
31.2400 578.0000 1.0000
31.2500 574.0000 1.0000
31.2600 548.0000 1.0000
31.2700 575.0000 1.0000
31.2800 608.0000 1.0000
31.2900 549.0000 1.0000
31.3000 575.0000 1.0000
31.3100 609.0000 1.0000
31.3200 567.0000 1.0000
31.3300 576.0000 1.0000
31.3400 623.0000 1.0000
31.3500 594.0000 1.0000
31.3600 576.0000 1.0000
31.3700 569.0000 1.0000
31.3800 597.0000 1.0000
31.3900 601.0000 1.0000
31.4000 577.0000 1.0000
31.4100 585.0000 1.0000
31.4200 575.0000 1.0000
31.4300 587.0000 1.0000
31.4400 600.0000 1.0000
31.4500 602.0000 1.0000
31.4600 634.0000 1.0000
31.4700 594.0000 1.0000
31.4800 643.0000 1.0000
31.4900 622.0000 1.0000
31.5000 584.0000 1.0000
31.5100 626.0000 1.0000
31.5200 596.0000 1.0000
31.5300 643.0000 1.0000
31.5400 675.0000 1.0000
31.5500 644.0000 1.0000
31.5600 619.0000 1.0000
31.5700 604.0000 1.0000
31.5800 653.0000 1.0000
31.5900 629.0000 1.0000
31.6000 640.0000 1.0000
31.6100 666.0000 1.0000
31.6200 629.0000 1.0000
31.6300 611.0000 1.0000
31.6400 681.0000 1.0000
31.6500 612.0000 1.0000
31.6600 612.0000 1.0000
31.6700 591.0000 1.0000
31.6800 598.0000 1.0000
31.6900 578.0000 1.0000
31.7000 630.0000 1.0000
31.7100 551.0000 1.0000
31.7200 565.0000 1.0000
31.7300 548.0000 1.0000
31.7400 556.0000 1.0000
31.7500 569.0000 1.0000
31.7600 570.0000 1.0000
31.7700 542.0000 1.0000
31.7800 534.0000 1.0000
31.7900 541.0000 1.0000
31.8000 544.0000 1.0000
31.8100 537.0000 1.0000
31.8200 550.0000 1.0000
31.8300 532.0000 1.0000
31.8400 550.0000 1.0000
31.8500 555.0000 1.0000
31.8600 555.0000 1.0000
31.8700 554.0000 1.0000
31.8800 549.0000 1.0000
31.8900 528.0000 1.0000
31.9000 494.0000 1.0000
31.9100 514.0000 1.0000
31.9200 513.0000 1.0000
31.9300 532.0000 1.0000
31.9400 563.0000 1.0000
31.9500 513.0000 1.0000
31.9600 522.0000 1.0000
31.9700 519.0000 1.0000
31.9800 518.0000 1.0000
31.9900 475.0000 1.0000
32.0000 519.0000 1.0000
32.0100 530.0000 1.0000
32.0200 509.0000 1.0000
32.0300 513.0000 1.0000
32.0400 523.0000 1.0000
32.0500 514.0000 1.0000
32.0600 548.0000 1.0000
32.0700 527.0000 1.0000
32.0800 519.0000 1.0000
32.0900 483.0000 1.0000
32.1000 542.0000 1.0000
32.1100 510.0000 1.0000
32.1200 518.0000 1.0000
32.1300 534.0000 1.0000
32.1400 527.0000 1.0000
32.1500 513.0000 1.0000
32.1600 522.0000 1.0000
32.1700 514.0000 1.0000
32.1800 493.0000 1.0000
32.1900 487.0000 1.0000
32.2000 512.0000 1.0000
32.2100 517.0000 1.0000
32.2200 517.0000 1.0000
32.2300 533.0000 1.0000
32.2400 514.0000 1.0000
32.2500 546.0000 1.0000
32.2600 512.0000 1.0000
32.2700 458.0000 1.0000
32.2800 503.0000 1.0000
32.2900 498.0000 1.0000
32.3000 496.0000 1.0000
32.3100 528.0000 1.0000
32.3200 488.0000 1.0000
32.3300 515.0000 1.0000
32.3400 506.0000 1.0000
32.3500 500.0000 1.0000
32.3600 504.0000 1.0000
32.3700 532.0000 1.0000
32.3800 519.0000 1.0000
32.3900 511.0000 1.0000
32.4000 514.0000 1.0000
32.4100 487.0000 1.0000
32.4200 511.0000 1.0000
32.4300 493.0000 1.0000
32.4400 508.0000 1.0000
32.4500 514.0000 1.0000
32.4600 543.0000 1.0000
32.4700 534.0000 1.0000
32.4800 496.0000 1.0000
32.4900 525.0000 1.0000
32.5000 496.0000 1.0000
32.5100 503.0000 1.0000
32.5200 521.0000 1.0000
32.5300 519.0000 1.0000
32.5400 531.0000 1.0000
32.5500 552.0000 1.0000
32.5600 499.0000 1.0000
32.5700 509.0000 1.0000
32.5800 487.0000 1.0000
32.5900 522.0000 1.0000
32.6000 474.0000 1.0000
32.6100 497.0000 1.0000
32.6200 496.0000 1.0000
32.6300 490.0000 1.0000
32.6400 509.0000 1.0000
32.6500 498.0000 1.0000
32.6600 496.0000 1.0000
32.6700 520.0000 1.0000
32.6800 542.0000 1.0000
32.6900 518.0000 1.0000
32.7000 502.0000 1.0000
32.7100 489.0000 1.0000
32.7200 499.0000 1.0000
32.7300 493.0000 1.0000
32.7400 518.0000 1.0000
32.7500 509.0000 1.0000
32.7600 506.0000 1.0000
32.7700 495.0000 1.0000
32.7800 498.0000 1.0000
32.7900 492.0000 1.0000
32.8000 505.0000 1.0000
32.8100 525.0000 1.0000
32.8200 490.0000 1.0000
32.8300 518.0000 1.0000
32.8400 509.0000 1.0000
32.8500 515.0000 1.0000
32.8600 506.0000 1.0000
32.8700 555.0000 1.0000
32.8800 518.0000 1.0000
32.8900 574.0000 1.0000
32.9000 532.0000 1.0000
32.9100 567.0000 1.0000
32.9200 506.0000 1.0000
32.9300 514.0000 1.0000
32.9400 569.0000 1.0000
32.9500 560.0000 1.0000
32.9600 566.0000 1.0000
32.9700 519.0000 1.0000
32.9800 546.0000 1.0000
32.9900 592.0000 1.0000
33.0000 574.0000 1.0000
33.0100 614.0000 1.0000
33.0200 588.0000 1.0000
33.0300 610.0000 1.0000
33.0400 584.0000 1.0000
33.0500 577.0000 1.0000
33.0600 619.0000 1.0000
33.0700 601.0000 1.0000
33.0800 606.0000 1.0000
33.0900 622.0000 1.0000
33.1000 621.0000 1.0000
33.1100 609.0000 1.0000
33.1200 619.0000 1.0000
33.1300 654.0000 1.0000
33.1400 646.0000 1.0000
33.1500 630.0000 1.0000
33.1600 586.0000 1.0000
33.1700 586.0000 1.0000
33.1800 587.0000 1.0000
33.1900 601.0000 1.0000
33.2000 555.0000 1.0000
33.2100 604.0000 1.0000
33.2200 563.0000 1.0000
33.2300 566.0000 1.0000
33.2400 564.0000 1.0000
33.2500 605.0000 1.0000
33.2600 553.0000 1.0000
33.2700 543.0000 1.0000
33.2800 540.0000 1.0000
33.2900 562.0000 1.0000
33.3000 519.0000 1.0000
33.3100 576.0000 1.0000
33.3200 526.0000 1.0000
33.3300 542.0000 1.0000
33.3400 547.0000 1.0000
33.3500 529.0000 1.0000
33.3600 535.0000 1.0000
33.3700 560.0000 1.0000
33.3800 529.0000 1.0000
33.3900 549.0000 1.0000
33.4000 554.0000 1.0000
33.4100 570.0000 1.0000
33.4200 567.0000 1.0000
33.4300 595.0000 1.0000
33.4400 579.0000 1.0000
33.4500 572.0000 1.0000
33.4600 590.0000 1.0000
33.4700 625.0000 1.0000
33.4800 613.0000 1.0000
33.4900 583.0000 1.0000
33.5000 601.0000 1.0000
33.5100 598.0000 1.0000
33.5200 625.0000 1.0000
33.5300 596.0000 1.0000
33.5400 622.0000 1.0000
33.5500 677.0000 1.0000
33.5600 671.0000 1.0000
33.5700 686.0000 1.0000
33.5800 633.0000 1.0000
33.5900 688.0000 1.0000
33.6000 686.0000 1.0000
33.6100 678.0000 1.0000
33.6200 725.0000 1.0000
33.6300 670.0000 1.0000
33.6400 707.0000 1.0000
33.6500 668.0000 1.0000
33.6600 698.0000 1.0000
33.6700 696.0000 1.0000
33.6800 687.0000 1.0000
33.6900 707.0000 1.0000
33.7000 666.0000 1.0000
33.7100 637.0000 1.0000
33.7200 660.0000 1.0000
33.7300 621.0000 1.0000
33.7400 658.0000 1.0000
33.7500 655.0000 1.0000
33.7600 654.0000 1.0000
33.7700 652.0000 1.0000
33.7800 631.0000 1.0000
33.7900 627.0000 1.0000
33.8000 586.0000 1.0000
33.8100 646.0000 1.0000
33.8200 609.0000 1.0000
33.8300 584.0000 1.0000
33.8400 624.0000 1.0000
33.8500 560.0000 1.0000
33.8600 597.0000 1.0000
33.8700 582.0000 1.0000
33.8800 567.0000 1.0000
33.8900 571.0000 1.0000
33.9000 530.0000 1.0000
33.9100 562.0000 1.0000
33.9200 586.0000 1.0000
33.9300 548.0000 1.0000
33.9400 574.0000 1.0000
33.9500 561.0000 1.0000
33.9600 504.0000 1.0000
33.9700 586.0000 1.0000
33.9800 569.0000 1.0000
33.9900 524.0000 1.0000
34.0000 535.0000 1.0000
34.0100 570.0000 1.0000
34.0200 532.0000 1.0000
34.0300 528.0000 1.0000
34.0400 502.0000 1.0000
34.0500 493.0000 1.0000
34.0600 508.0000 1.0000
34.0700 521.0000 1.0000
34.0800 510.0000 1.0000
34.0900 488.0000 1.0000
34.1000 514.0000 1.0000
34.1100 539.0000 1.0000
34.1200 515.0000 1.0000
34.1300 504.0000 1.0000
34.1400 511.0000 1.0000
34.1500 482.0000 1.0000
34.1600 504.0000 1.0000
34.1700 464.0000 1.0000
34.1800 473.0000 1.0000
34.1900 493.0000 1.0000
34.2000 468.0000 1.0000
34.2100 464.0000 1.0000
34.2200 506.0000 1.0000
34.2300 462.0000 1.0000
34.2400 493.0000 1.0000
34.2500 467.0000 1.0000
34.2600 471.0000 1.0000
34.2700 500.0000 1.0000
34.2800 474.0000 1.0000
34.2900 475.0000 1.0000
34.3000 498.0000 1.0000
34.3100 491.0000 1.0000
34.3200 474.0000 1.0000
34.3300 454.0000 1.0000
34.3400 447.0000 1.0000
34.3500 463.0000 1.0000
34.3600 461.0000 1.0000
34.3700 465.0000 1.0000
34.3800 484.0000 1.0000
34.3900 469.0000 1.0000
34.4000 479.0000 1.0000
34.4100 483.0000 1.0000
34.4200 447.0000 1.0000
34.4300 443.0000 1.0000
34.4400 440.0000 1.0000
34.4500 468.0000 1.0000
34.4600 440.0000 1.0000
34.4700 473.0000 1.0000
34.4800 440.0000 1.0000
34.4900 464.0000 1.0000
34.5000 476.0000 1.0000
34.5100 461.0000 1.0000
34.5200 469.0000 1.0000
34.5300 467.0000 1.0000
34.5400 450.0000 1.0000
34.5500 468.0000 1.0000
34.5600 491.0000 1.0000
34.5700 426.0000 1.0000
34.5800 461.0000 1.0000
34.5900 487.0000 1.0000
34.6000 473.0000 1.0000
34.6100 425.0000 1.0000
34.6200 468.0000 1.0000
34.6300 438.0000 1.0000
34.6400 474.0000 1.0000
34.6500 449.0000 1.0000
34.6600 452.0000 1.0000
34.6700 464.0000 1.0000
34.6800 451.0000 1.0000
34.6900 451.0000 1.0000
34.7000 454.0000 1.0000
34.7100 421.0000 1.0000
34.7200 432.0000 1.0000
34.7300 404.0000 1.0000
34.7400 436.0000 1.0000
34.7500 419.0000 1.0000
34.7600 480.0000 1.0000
34.7700 464.0000 1.0000
34.7800 416.0000 1.0000
34.7900 445.0000 1.0000
34.8000 402.0000 1.0000
34.8100 455.0000 1.0000
34.8200 439.0000 1.0000
34.8300 466.0000 1.0000
34.8400 442.0000 1.0000
34.8500 466.0000 1.0000
34.8600 454.0000 1.0000
34.8700 440.0000 1.0000
34.8800 404.0000 1.0000
34.8900 468.0000 1.0000
34.9000 449.0000 1.0000
34.9100 451.0000 1.0000
34.9200 475.0000 1.0000
34.9300 444.0000 1.0000
34.9400 461.0000 1.0000
34.9500 427.0000 1.0000
34.9600 421.0000 1.0000
34.9700 438.0000 1.0000
34.9800 471.0000 1.0000
34.9900 468.0000 1.0000
35.0000 441.0000 1.0000
35.0100 465.0000 1.0000
35.0200 465.0000 1.0000
35.0300 410.0000 1.0000
35.0400 448.0000 1.0000
35.0500 442.0000 1.0000
35.0600 414.0000 1.0000
35.0700 463.0000 1.0000
35.0800 428.0000 1.0000
35.0900 408.0000 1.0000
35.1000 446.0000 1.0000
35.1100 436.0000 1.0000
35.1200 472.0000 1.0000
35.1300 443.0000 1.0000
35.1400 479.0000 1.0000
35.1500 448.0000 1.0000
35.1600 446.0000 1.0000
35.1700 426.0000 1.0000
35.1800 444.0000 1.0000
35.1900 460.0000 1.0000
35.2000 472.0000 1.0000
35.2100 449.0000 1.0000
35.2200 455.0000 1.0000
35.2300 483.0000 1.0000
35.2400 471.0000 1.0000
35.2500 461.0000 1.0000
35.2600 418.0000 1.0000
35.2700 467.0000 1.0000
35.2800 468.0000 1.0000
35.2900 474.0000 1.0000
35.3000 466.0000 1.0000
35.3100 502.0000 1.0000
35.3200 496.0000 1.0000
35.3300 481.0000 1.0000
35.3400 498.0000 1.0000
35.3500 528.0000 1.0000
35.3600 503.0000 1.0000
35.3700 554.0000 1.0000
35.3800 542.0000 1.0000
35.3900 569.0000 1.0000
35.4000 553.0000 1.0000
35.4100 545.0000 1.0000
35.4200 569.0000 1.0000
35.4300 616.0000 1.0000
35.4400 598.0000 1.0000
35.4500 609.0000 1.0000
35.4600 680.0000 1.0000
35.4700 727.0000 1.0000
35.4800 668.0000 1.0000
35.4900 692.0000 1.0000
35.5000 722.0000 1.0000
35.5100 770.0000 1.0000
35.5200 866.0000 1.0000
35.5300 856.0000 1.0000
35.5400 852.0000 1.0000
35.5500 848.0000 1.0000
35.5600 877.0000 1.0000
35.5700 900.0000 1.0000
35.5800 909.0000 1.0000
35.5900 893.0000 1.0000
35.6000 895.0000 1.0000
35.6100 866.0000 1.0000
35.6200 912.0000 1.0000
35.6300 841.0000 1.0000
35.6400 855.0000 1.0000
35.6500 811.0000 1.0000
35.6600 793.0000 1.0000
35.6700 790.0000 1.0000
35.6800 788.0000 1.0000
35.6900 738.0000 1.0000
35.7000 714.0000 1.0000
35.7100 631.0000 1.0000
35.7200 656.0000 1.0000
35.7300 599.0000 1.0000
35.7400 599.0000 1.0000
35.7500 568.0000 1.0000
35.7600 584.0000 1.0000
35.7700 532.0000 1.0000
35.7800 515.0000 1.0000
35.7900 514.0000 1.0000
35.8000 520.0000 1.0000
35.8100 508.0000 1.0000
35.8200 488.0000 1.0000
35.8300 465.0000 1.0000
35.8400 453.0000 1.0000
35.8500 446.0000 1.0000
35.8600 472.0000 1.0000
35.8700 480.0000 1.0000
35.8800 436.0000 1.0000
35.8900 424.0000 1.0000
35.9000 432.0000 1.0000
35.9100 445.0000 1.0000
35.9200 440.0000 1.0000
35.9300 429.0000 1.0000
35.9400 415.0000 1.0000
35.9500 426.0000 1.0000
35.9600 427.0000 1.0000
35.9700 407.0000 1.0000
35.9800 431.0000 1.0000
35.9900 417.0000 1.0000
36.0000 457.0000 1.0000
36.0100 441.0000 1.0000
36.0200 414.0000 1.0000
36.0300 417.0000 1.0000
36.0400 411.0000 1.0000
36.0500 427.0000 1.0000
36.0600 417.0000 1.0000
36.0700 440.0000 1.0000
36.0800 415.0000 1.0000
36.0900 388.0000 1.0000
36.1000 411.0000 1.0000
36.1100 376.0000 1.0000
36.1200 393.0000 1.0000
36.1300 433.0000 1.0000
36.1400 426.0000 1.0000
36.1500 421.0000 1.0000
36.1600 409.0000 1.0000
36.1700 420.0000 1.0000
36.1800 407.0000 1.0000
36.1900 418.0000 1.0000
36.2000 386.0000 1.0000
36.2100 410.0000 1.0000
36.2200 425.0000 1.0000
36.2300 416.0000 1.0000
36.2400 417.0000 1.0000
36.2500 418.0000 1.0000
36.2600 438.0000 1.0000
36.2700 447.0000 1.0000
36.2800 425.0000 1.0000
36.2900 430.0000 1.0000
36.3000 403.0000 1.0000
36.3100 432.0000 1.0000
36.3200 403.0000 1.0000
36.3300 457.0000 1.0000
36.3400 430.0000 1.0000
36.3500 441.0000 1.0000
36.3600 408.0000 1.0000
36.3700 414.0000 1.0000
36.3800 435.0000 1.0000
36.3900 413.0000 1.0000
36.4000 411.0000 1.0000
36.4100 417.0000 1.0000
36.4200 408.0000 1.0000
36.4300 421.0000 1.0000
36.4400 402.0000 1.0000
36.4500 424.0000 1.0000
36.4600 412.0000 1.0000
36.4700 411.0000 1.0000
36.4800 431.0000 1.0000
36.4900 443.0000 1.0000
36.5000 409.0000 1.0000
36.5100 433.0000 1.0000
36.5200 420.0000 1.0000
36.5300 425.0000 1.0000
36.5400 419.0000 1.0000
36.5500 433.0000 1.0000
36.5600 406.0000 1.0000
36.5700 406.0000 1.0000
36.5800 415.0000 1.0000
36.5900 421.0000 1.0000
36.6000 427.0000 1.0000
36.6100 446.0000 1.0000
36.6200 434.0000 1.0000
36.6300 425.0000 1.0000
36.6400 416.0000 1.0000
36.6500 382.0000 1.0000
36.6600 383.0000 1.0000
36.6700 397.0000 1.0000
36.6800 386.0000 1.0000
36.6900 416.0000 1.0000
36.7000 417.0000 1.0000
36.7100 383.0000 1.0000
36.7200 393.0000 1.0000
36.7300 421.0000 1.0000
36.7400 447.0000 1.0000
36.7500 422.0000 1.0000
36.7600 426.0000 1.0000
36.7700 427.0000 1.0000
36.7800 389.0000 1.0000
36.7900 414.0000 1.0000
36.8000 390.0000 1.0000
36.8100 387.0000 1.0000
36.8200 404.0000 1.0000
36.8300 386.0000 1.0000
36.8400 453.0000 1.0000
36.8500 434.0000 1.0000
36.8600 406.0000 1.0000
36.8700 409.0000 1.0000
36.8800 424.0000 1.0000
36.8900 421.0000 1.0000
36.9000 412.0000 1.0000
36.9100 413.0000 1.0000
36.9200 457.0000 1.0000
36.9300 432.0000 1.0000
36.9400 444.0000 1.0000
36.9500 431.0000 1.0000
36.9600 422.0000 1.0000
36.9700 427.0000 1.0000
36.9800 408.0000 1.0000
36.9900 382.0000 1.0000
37.0000 437.0000 1.0000
37.0100 424.0000 1.0000
37.0200 430.0000 1.0000
37.0300 442.0000 1.0000
37.0400 447.0000 1.0000
37.0500 442.0000 1.0000
37.0600 447.0000 1.0000
37.0700 450.0000 1.0000
37.0800 438.0000 1.0000
37.0900 422.0000 1.0000
37.1000 447.0000 1.0000
37.1100 447.0000 1.0000
37.1200 439.0000 1.0000
37.1300 446.0000 1.0000
37.1400 451.0000 1.0000
37.1500 466.0000 1.0000
37.1600 468.0000 1.0000
37.1700 449.0000 1.0000
37.1800 430.0000 1.0000
37.1900 432.0000 1.0000
37.2000 462.0000 1.0000
37.2100 431.0000 1.0000
37.2200 481.0000 1.0000
37.2300 473.0000 1.0000
37.2400 482.0000 1.0000
37.2500 508.0000 1.0000
37.2600 468.0000 1.0000
37.2700 501.0000 1.0000
37.2800 518.0000 1.0000
37.2900 476.0000 1.0000
37.3000 494.0000 1.0000
37.3100 531.0000 1.0000
37.3200 536.0000 1.0000
37.3300 571.0000 1.0000
37.3400 567.0000 1.0000
37.3500 584.0000 1.0000
37.3600 592.0000 1.0000
37.3700 628.0000 1.0000
37.3800 623.0000 1.0000
37.3900 643.0000 1.0000
37.4000 683.0000 1.0000
37.4100 694.0000 1.0000
37.4200 735.0000 1.0000
37.4300 706.0000 1.0000
37.4400 771.0000 1.0000
37.4500 767.0000 1.0000
37.4600 855.0000 1.0000
37.4700 885.0000 1.0000
37.4800 877.0000 1.0000
37.4900 951.0000 1.0000
37.5000 1022.0000 1.0000
37.5100 1008.0000 1.0000
37.5200 1043.0000 1.0000
37.5300 1168.0000 1.0000
37.5400 1192.0000 1.0000
37.5500 1274.0000 1.0000
37.5600 1336.0000 1.0000
37.5700 1429.0000 1.0000
37.5800 1539.0000 1.0000
37.5900 1594.0000 1.0000
37.6000 1715.0000 1.0000
37.6100 1885.0000 1.0000
37.6200 1952.0000 1.0000
37.6300 2170.0000 1.0000
37.6400 2223.0000 1.0000
37.6500 2330.0000 1.0000
37.6600 2544.0000 1.0000
37.6700 2763.0000 1.0000
37.6800 2713.0000 1.0000
37.6900 2789.0000 1.0000
37.7000 2845.0000 1.0000
37.7100 2936.0000 1.0000
37.7200 2986.0000 1.0000
37.7300 2991.0000 1.0000
37.7400 2987.0000 1.0000
37.7500 3014.0000 1.0000
37.7600 2925.0000 1.0000
37.7700 2878.0000 1.0000
37.7800 2829.0000 1.0000
37.7900 2694.0000 1.0000
37.8000 2566.0000 1.0000
37.8100 2440.0000 1.0000
37.8200 2372.0000 1.0000
37.8300 2269.0000 1.0000
37.8400 2122.0000 1.0000
37.8500 2022.0000 1.0000
37.8600 1970.0000 1.0000
37.8700 1794.0000 1.0000
37.8800 1714.0000 1.0000
37.8900 1604.0000 1.0000
37.9000 1468.0000 1.0000
37.9100 1393.0000 1.0000
37.9200 1281.0000 1.0000
37.9300 1255.0000 1.0000
37.9400 1131.0000 1.0000
37.9500 1105.0000 1.0000
37.9600 976.0000 1.0000
37.9700 956.0000 1.0000
37.9800 936.0000 1.0000
37.9900 881.0000 1.0000
38.0000 818.0000 1.0000
38.0100 758.0000 1.0000
38.0200 795.0000 1.0000
38.0300 719.0000 1.0000
38.0400 653.0000 1.0000
38.0500 677.0000 1.0000
38.0600 636.0000 1.0000
38.0700 630.0000 1.0000
38.0800 621.0000 1.0000
38.0900 581.0000 1.0000
38.1000 582.0000 1.0000
38.1100 574.0000 1.0000
38.1200 525.0000 1.0000
38.1300 530.0000 1.0000
38.1400 548.0000 1.0000
38.1500 510.0000 1.0000
38.1600 524.0000 1.0000
38.1700 516.0000 1.0000
38.1800 490.0000 1.0000
38.1900 482.0000 1.0000
38.2000 473.0000 1.0000
38.2100 466.0000 1.0000
38.2200 455.0000 1.0000
38.2300 457.0000 1.0000
38.2400 447.0000 1.0000
38.2500 431.0000 1.0000
38.2600 429.0000 1.0000
38.2700 463.0000 1.0000
38.2800 432.0000 1.0000
38.2900 438.0000 1.0000
38.3000 433.0000 1.0000
38.3100 407.0000 1.0000
38.3200 428.0000 1.0000
38.3300 388.0000 1.0000
38.3400 418.0000 1.0000
38.3500 420.0000 1.0000
38.3600 427.0000 1.0000
38.3700 380.0000 1.0000
38.3800 400.0000 1.0000
38.3900 372.0000 1.0000
38.4000 415.0000 1.0000
38.4100 398.0000 1.0000
38.4200 401.0000 1.0000
38.4300 414.0000 1.0000
38.4400 415.0000 1.0000
38.4500 403.0000 1.0000
38.4600 405.0000 1.0000
38.4700 400.0000 1.0000
38.4800 358.0000 1.0000
38.4900 380.0000 1.0000
38.5000 353.0000 1.0000
38.5100 370.0000 1.0000
38.5200 390.0000 1.0000
38.5300 390.0000 1.0000
38.5400 401.0000 1.0000
38.5500 409.0000 1.0000
38.5600 365.0000 1.0000
38.5700 379.0000 1.0000
38.5800 385.0000 1.0000
38.5900 399.0000 1.0000
38.6000 418.0000 1.0000
38.6100 427.0000 1.0000
38.6200 385.0000 1.0000
38.6300 379.0000 1.0000
38.6400 363.0000 1.0000
38.6500 343.0000 1.0000
38.6600 359.0000 1.0000
38.6700 380.0000 1.0000
38.6800 384.0000 1.0000
38.6900 388.0000 1.0000
38.7000 379.0000 1.0000
38.7100 395.0000 1.0000
38.7200 389.0000 1.0000
38.7300 399.0000 1.0000
38.7400 394.0000 1.0000
38.7500 392.0000 1.0000
38.7600 388.0000 1.0000
38.7700 379.0000 1.0000
38.7800 384.0000 1.0000
38.7900 387.0000 1.0000
38.8000 377.0000 1.0000
38.8100 345.0000 1.0000
38.8200 388.0000 1.0000
38.8300 366.0000 1.0000
38.8400 355.0000 1.0000
38.8500 381.0000 1.0000
38.8600 371.0000 1.0000
38.8700 348.0000 1.0000
38.8800 358.0000 1.0000
38.8900 357.0000 1.0000
38.9000 353.0000 1.0000
38.9100 379.0000 1.0000
38.9200 388.0000 1.0000
38.9300 348.0000 1.0000
38.9400 355.0000 1.0000
38.9500 376.0000 1.0000
38.9600 383.0000 1.0000
38.9700 342.0000 1.0000
38.9800 361.0000 1.0000
38.9900 381.0000 1.0000
39.0000 351.0000 1.0000
39.0100 360.0000 1.0000
39.0200 378.0000 1.0000
39.0300 367.0000 1.0000
39.0400 351.0000 1.0000
39.0500 370.0000 1.0000
39.0600 365.0000 1.0000
39.0700 359.0000 1.0000
39.0800 345.0000 1.0000
39.0900 350.0000 1.0000
39.1000 353.0000 1.0000
39.1100 358.0000 1.0000
39.1200 383.0000 1.0000
39.1300 387.0000 1.0000
39.1400 384.0000 1.0000
39.1500 361.0000 1.0000
39.1600 364.0000 1.0000
39.1700 360.0000 1.0000
39.1800 346.0000 1.0000
39.1900 352.0000 1.0000
39.2000 377.0000 1.0000
39.2100 386.0000 1.0000
39.2200 354.0000 1.0000
39.2300 337.0000 1.0000
39.2400 379.0000 1.0000
39.2500 359.0000 1.0000
39.2600 370.0000 1.0000
39.2700 371.0000 1.0000
39.2800 343.0000 1.0000
39.2900 357.0000 1.0000
39.3000 335.0000 1.0000
39.3100 350.0000 1.0000
39.3200 360.0000 1.0000
39.3300 385.0000 1.0000
39.3400 355.0000 1.0000
39.3500 322.0000 1.0000
39.3600 387.0000 1.0000
39.3700 378.0000 1.0000
39.3800 349.0000 1.0000
39.3900 345.0000 1.0000
39.4000 366.0000 1.0000
39.4100 358.0000 1.0000
39.4200 337.0000 1.0000
39.4300 329.0000 1.0000
39.4400 346.0000 1.0000
39.4500 326.0000 1.0000
39.4600 316.0000 1.0000
39.4700 349.0000 1.0000
39.4800 339.0000 1.0000
39.4900 336.0000 1.0000
39.5000 341.0000 1.0000
39.5100 354.0000 1.0000
39.5200 300.0000 1.0000
39.5300 321.0000 1.0000
39.5400 351.0000 1.0000
39.5500 350.0000 1.0000
39.5600 339.0000 1.0000
39.5700 360.0000 1.0000
39.5800 323.0000 1.0000
39.5900 318.0000 1.0000
39.6000 359.0000 1.0000
39.6100 364.0000 1.0000
39.6200 308.0000 1.0000
39.6300 339.0000 1.0000
39.6400 373.0000 1.0000
39.6500 344.0000 1.0000
39.6600 356.0000 1.0000
39.6700 368.0000 1.0000
39.6800 358.0000 1.0000
39.6900 349.0000 1.0000
39.7000 318.0000 1.0000
39.7100 338.0000 1.0000
39.7200 352.0000 1.0000
39.7300 329.0000 1.0000
39.7400 339.0000 1.0000
39.7500 331.0000 1.0000
39.7600 349.0000 1.0000
39.7700 329.0000 1.0000
39.7800 341.0000 1.0000
39.7900 339.0000 1.0000
39.8000 371.0000 1.0000
39.8100 313.0000 1.0000
39.8200 316.0000 1.0000
39.8300 312.0000 1.0000
39.8400 327.0000 1.0000
39.8500 345.0000 1.0000
39.8600 338.0000 1.0000
39.8700 312.0000 1.0000
39.8800 355.0000 1.0000
39.8900 356.0000 1.0000
39.9000 333.0000 1.0000
39.9100 319.0000 1.0000
39.9200 357.0000 1.0000
39.9300 351.0000 1.0000
39.9400 332.0000 1.0000
39.9500 371.0000 1.0000
39.9600 324.0000 1.0000
39.9700 314.0000 1.0000
39.9800 331.0000 1.0000
39.9900 336.0000 1.0000
40.0000 307.0000 1.0000
40.0100 305.0000 1.0000
40.0200 349.0000 1.0000
40.0300 361.0000 1.0000
40.0400 346.0000 1.0000
40.0500 335.0000 1.0000
40.0600 332.0000 1.0000
40.0700 314.0000 1.0000
40.0800 330.0000 1.0000
40.0900 346.0000 1.0000
40.1000 335.0000 1.0000
40.1100 350.0000 1.0000
40.1200 322.0000 1.0000
40.1300 357.0000 1.0000
40.1400 344.0000 1.0000
40.1500 354.0000 1.0000
40.1600 337.0000 1.0000
40.1700 353.0000 1.0000
40.1800 374.0000 1.0000
40.1900 336.0000 1.0000
40.2000 293.0000 1.0000
40.2100 314.0000 1.0000
40.2200 352.0000 1.0000
40.2300 346.0000 1.0000
40.2400 357.0000 1.0000
40.2500 343.0000 1.0000
40.2600 360.0000 1.0000
40.2700 364.0000 1.0000
40.2800 346.0000 1.0000
40.2900 362.0000 1.0000
40.3000 347.0000 1.0000
40.3100 345.0000 1.0000
40.3200 376.0000 1.0000
40.3300 350.0000 1.0000
40.3400 358.0000 1.0000
40.3500 387.0000 1.0000
40.3600 388.0000 1.0000
40.3700 367.0000 1.0000
40.3800 391.0000 1.0000
40.3900 378.0000 1.0000
40.4000 371.0000 1.0000
40.4100 392.0000 1.0000
40.4200 433.0000 1.0000
40.4300 372.0000 1.0000
40.4400 382.0000 1.0000
40.4500 436.0000 1.0000
40.4600 426.0000 1.0000
40.4700 435.0000 1.0000
40.4800 426.0000 1.0000
40.4900 448.0000 1.0000
40.5000 408.0000 1.0000
40.5100 432.0000 1.0000
40.5200 428.0000 1.0000
40.5300 441.0000 1.0000
40.5400 447.0000 1.0000
40.5500 437.0000 1.0000
40.5600 411.0000 1.0000
40.5700 420.0000 1.0000
40.5800 439.0000 1.0000
40.5900 441.0000 1.0000
40.6000 435.0000 1.0000
40.6100 431.0000 1.0000
40.6200 404.0000 1.0000
40.6300 419.0000 1.0000
40.6400 399.0000 1.0000
40.6500 402.0000 1.0000
40.6600 417.0000 1.0000
40.6700 426.0000 1.0000
40.6800 412.0000 1.0000
40.6900 436.0000 1.0000
40.7000 433.0000 1.0000
40.7100 425.0000 1.0000
40.7200 397.0000 1.0000
40.7300 370.0000 1.0000
40.7400 406.0000 1.0000
40.7500 411.0000 1.0000
40.7600 382.0000 1.0000
40.7700 389.0000 1.0000
40.7800 385.0000 1.0000
40.7900 386.0000 1.0000
40.8000 400.0000 1.0000
40.8100 390.0000 1.0000
40.8200 416.0000 1.0000
40.8300 420.0000 1.0000
40.8400 382.0000 1.0000
40.8500 379.0000 1.0000
40.8600 386.0000 1.0000
40.8700 382.0000 1.0000
40.8800 388.0000 1.0000
40.8900 385.0000 1.0000
40.9000 377.0000 1.0000
40.9100 373.0000 1.0000
40.9200 386.0000 1.0000
40.9300 349.0000 1.0000
40.9400 351.0000 1.0000
40.9500 371.0000 1.0000
40.9600 358.0000 1.0000
40.9700 377.0000 1.0000
40.9800 349.0000 1.0000
40.9900 381.0000 1.0000
41.0000 358.0000 1.0000
41.0100 344.0000 1.0000
41.0200 349.0000 1.0000
41.0300 322.0000 1.0000
41.0400 367.0000 1.0000
41.0500 303.0000 1.0000
41.0600 313.0000 1.0000
41.0700 345.0000 1.0000
41.0800 328.0000 1.0000
41.0900 366.0000 1.0000
41.1000 347.0000 1.0000
41.1100 309.0000 1.0000
41.1200 321.0000 1.0000
41.1300 338.0000 1.0000
41.1400 347.0000 1.0000
41.1500 336.0000 1.0000
41.1600 338.0000 1.0000
41.1700 317.0000 1.0000
41.1800 326.0000 1.0000
41.1900 358.0000 1.0000
41.2000 318.0000 1.0000
41.2100 320.0000 1.0000
41.2200 343.0000 1.0000
41.2300 326.0000 1.0000
41.2400 339.0000 1.0000
41.2500 334.0000 1.0000
41.2600 343.0000 1.0000
41.2700 328.0000 1.0000
41.2800 322.0000 1.0000
41.2900 325.0000 1.0000
41.3000 330.0000 1.0000
41.3100 338.0000 1.0000
41.3200 343.0000 1.0000
41.3300 320.0000 1.0000
41.3400 312.0000 1.0000
41.3500 341.0000 1.0000
41.3600 359.0000 1.0000
41.3700 324.0000 1.0000
41.3800 322.0000 1.0000
41.3900 338.0000 1.0000
41.4000 303.0000 1.0000
41.4100 326.0000 1.0000
41.4200 318.0000 1.0000
41.4300 324.0000 1.0000
41.4400 329.0000 1.0000
41.4500 338.0000 1.0000
41.4600 328.0000 1.0000
41.4700 301.0000 1.0000
41.4800 304.0000 1.0000
41.4900 313.0000 1.0000
41.5000 308.0000 1.0000
41.5100 315.0000 1.0000
41.5200 311.0000 1.0000
41.5300 297.0000 1.0000
41.5400 307.0000 1.0000
41.5500 316.0000 1.0000
41.5600 335.0000 1.0000
41.5700 315.0000 1.0000
41.5800 324.0000 1.0000
41.5900 337.0000 1.0000
41.6000 332.0000 1.0000
41.6100 306.0000 1.0000
41.6200 308.0000 1.0000
41.6300 348.0000 1.0000
41.6400 314.0000 1.0000
41.6500 326.0000 1.0000
41.6600 326.0000 1.0000
41.6700 352.0000 1.0000
41.6800 339.0000 1.0000
41.6900 321.0000 1.0000
41.7000 321.0000 1.0000
41.7100 323.0000 1.0000
41.7200 325.0000 1.0000
41.7300 328.0000 1.0000
41.7400 350.0000 1.0000
41.7500 338.0000 1.0000
41.7600 341.0000 1.0000
41.7700 312.0000 1.0000
41.7800 299.0000 1.0000
41.7900 327.0000 1.0000
41.8000 302.0000 1.0000
41.8100 306.0000 1.0000
41.8200 328.0000 1.0000
41.8300 314.0000 1.0000
41.8400 338.0000 1.0000
41.8500 340.0000 1.0000
41.8600 303.0000 1.0000
41.8700 313.0000 1.0000
41.8800 288.0000 1.0000
41.8900 316.0000 1.0000
41.9000 326.0000 1.0000
41.9100 309.0000 1.0000
41.9200 305.0000 1.0000
41.9300 332.0000 1.0000
41.9400 325.0000 1.0000
41.9500 302.0000 1.0000
41.9600 307.0000 1.0000
41.9700 326.0000 1.0000
41.9800 302.0000 1.0000
41.9900 338.0000 1.0000
42.0000 326.0000 1.0000
42.0100 305.0000 1.0000
42.0200 342.0000 1.0000
42.0300 338.0000 1.0000
42.0400 326.0000 1.0000
42.0500 314.0000 1.0000
42.0600 319.0000 1.0000
42.0700 332.0000 1.0000
42.0800 319.0000 1.0000
42.0900 311.0000 1.0000
42.1000 333.0000 1.0000
42.1100 337.0000 1.0000
42.1200 311.0000 1.0000
42.1300 308.0000 1.0000
42.1400 322.0000 1.0000
42.1500 319.0000 1.0000
42.1600 312.0000 1.0000
42.1700 346.0000 1.0000
42.1800 350.0000 1.0000
42.1900 335.0000 1.0000
42.2000 353.0000 1.0000
42.2100 310.0000 1.0000
42.2200 326.0000 1.0000
42.2300 348.0000 1.0000
42.2400 354.0000 1.0000
42.2500 305.0000 1.0000
42.2600 344.0000 1.0000
42.2700 324.0000 1.0000
42.2800 352.0000 1.0000
42.2900 311.0000 1.0000
42.3000 324.0000 1.0000
42.3100 306.0000 1.0000
42.3200 327.0000 1.0000
42.3300 342.0000 1.0000
42.3400 322.0000 1.0000
42.3500 329.0000 1.0000
42.3600 326.0000 1.0000
42.3700 322.0000 1.0000
42.3800 345.0000 1.0000
42.3900 325.0000 1.0000
42.4000 316.0000 1.0000
42.4100 330.0000 1.0000
42.4200 335.0000 1.0000
42.4300 339.0000 1.0000
42.4400 346.0000 1.0000
42.4500 326.0000 1.0000
42.4600 342.0000 1.0000
42.4700 330.0000 1.0000
42.4800 329.0000 1.0000
42.4900 335.0000 1.0000
42.5000 326.0000 1.0000
42.5100 315.0000 1.0000
42.5200 345.0000 1.0000
42.5300 319.0000 1.0000
42.5400 335.0000 1.0000
42.5500 341.0000 1.0000
42.5600 347.0000 1.0000
42.5700 317.0000 1.0000
42.5800 348.0000 1.0000
42.5900 319.0000 1.0000
42.6000 320.0000 1.0000
42.6100 333.0000 1.0000
42.6200 297.0000 1.0000
42.6300 316.0000 1.0000
42.6400 326.0000 1.0000
42.6500 323.0000 1.0000
42.6600 328.0000 1.0000
42.6700 334.0000 1.0000
42.6800 319.0000 1.0000
42.6900 340.0000 1.0000
42.7000 298.0000 1.0000
42.7100 314.0000 1.0000
42.7200 332.0000 1.0000
42.7300 317.0000 1.0000
42.7400 320.0000 1.0000
42.7500 331.0000 1.0000
42.7600 298.0000 1.0000
42.7700 313.0000 1.0000
42.7800 317.0000 1.0000
42.7900 327.0000 1.0000
42.8000 303.0000 1.0000
42.8100 320.0000 1.0000
42.8200 299.0000 1.0000
42.8300 332.0000 1.0000
42.8400 308.0000 1.0000
42.8500 304.0000 1.0000
42.8600 323.0000 1.0000
42.8700 325.0000 1.0000
42.8800 326.0000 1.0000
42.8900 308.0000 1.0000
42.9000 312.0000 1.0000
42.9100 281.0000 1.0000
42.9200 311.0000 1.0000
42.9300 336.0000 1.0000
42.9400 318.0000 1.0000
42.9500 302.0000 1.0000
42.9600 315.0000 1.0000
42.9700 319.0000 1.0000
42.9800 303.0000 1.0000
42.9900 322.0000 1.0000
43.0000 313.0000 1.0000
43.0100 308.0000 1.0000
43.0200 314.0000 1.0000
43.0300 303.0000 1.0000
43.0400 307.0000 1.0000
43.0500 341.0000 1.0000
43.0600 314.0000 1.0000
43.0700 292.0000 1.0000
43.0800 329.0000 1.0000
43.0900 294.0000 1.0000
43.1000 309.0000 1.0000
43.1100 313.0000 1.0000
43.1200 334.0000 1.0000
43.1300 297.0000 1.0000
43.1400 313.0000 1.0000
43.1500 279.0000 1.0000
43.1600 276.0000 1.0000
43.1700 305.0000 1.0000
43.1800 328.0000 1.0000
43.1900 320.0000 1.0000
43.2000 320.0000 1.0000
43.2100 329.0000 1.0000
43.2200 310.0000 1.0000
43.2300 313.0000 1.0000
43.2400 312.0000 1.0000
43.2500 300.0000 1.0000
43.2600 301.0000 1.0000
43.2700 335.0000 1.0000
43.2800 295.0000 1.0000
43.2900 287.0000 1.0000
43.3000 303.0000 1.0000
43.3100 340.0000 1.0000
43.3200 312.0000 1.0000
43.3300 294.0000 1.0000
43.3400 316.0000 1.0000
43.3500 274.0000 1.0000
43.3600 312.0000 1.0000
43.3700 303.0000 1.0000
43.3800 280.0000 1.0000
43.3900 313.0000 1.0000
43.4000 314.0000 1.0000
43.4100 311.0000 1.0000
43.4200 325.0000 1.0000
43.4300 301.0000 1.0000
43.4400 297.0000 1.0000
43.4500 300.0000 1.0000
43.4600 296.0000 1.0000
43.4700 277.0000 1.0000
43.4800 288.0000 1.0000
43.4900 277.0000 1.0000
43.5000 308.0000 1.0000
43.5100 310.0000 1.0000
43.5200 320.0000 1.0000
43.5300 341.0000 1.0000
43.5400 336.0000 1.0000
43.5500 298.0000 1.0000
43.5600 319.0000 1.0000
43.5700 318.0000 1.0000
43.5800 300.0000 1.0000
43.5900 309.0000 1.0000
43.6000 316.0000 1.0000
43.6100 289.0000 1.0000
43.6200 315.0000 1.0000
43.6300 310.0000 1.0000
43.6400 339.0000 1.0000
43.6500 352.0000 1.0000
43.6600 311.0000 1.0000
43.6700 302.0000 1.0000
43.6800 318.0000 1.0000
43.6900 329.0000 1.0000
43.7000 311.0000 1.0000
43.7100 319.0000 1.0000
43.7200 296.0000 1.0000
43.7300 284.0000 1.0000
43.7400 311.0000 1.0000
43.7500 317.0000 1.0000
43.7600 300.0000 1.0000
43.7700 306.0000 1.0000
43.7800 334.0000 1.0000
43.7900 301.0000 1.0000
43.8000 293.0000 1.0000
43.8100 330.0000 1.0000
43.8200 312.0000 1.0000
43.8300 321.0000 1.0000
43.8400 286.0000 1.0000
43.8500 325.0000 1.0000
43.8600 316.0000 1.0000
43.8700 319.0000 1.0000
43.8800 297.0000 1.0000
43.8900 297.0000 1.0000
43.9000 303.0000 1.0000
43.9100 294.0000 1.0000
43.9200 292.0000 1.0000
43.9300 288.0000 1.0000
43.9400 299.0000 1.0000
43.9500 319.0000 1.0000
43.9600 304.0000 1.0000
43.9700 325.0000 1.0000
43.9800 300.0000 1.0000
43.9900 299.0000 1.0000
44.0000 307.0000 1.0000
44.0100 315.0000 1.0000
44.0200 330.0000 1.0000
44.0300 312.0000 1.0000
44.0400 312.0000 1.0000
44.0500 287.0000 1.0000
44.0600 331.0000 1.0000
44.0700 303.0000 1.0000
44.0800 307.0000 1.0000
44.0900 278.0000 1.0000
44.1000 307.0000 1.0000
44.1100 324.0000 1.0000
44.1200 304.0000 1.0000
44.1300 298.0000 1.0000
44.1400 317.0000 1.0000
44.1500 327.0000 1.0000
44.1600 324.0000 1.0000
44.1700 341.0000 1.0000
44.1800 300.0000 1.0000
44.1900 277.0000 1.0000
44.2000 319.0000 1.0000
44.2100 296.0000 1.0000
44.2200 311.0000 1.0000
44.2300 307.0000 1.0000
44.2400 286.0000 1.0000
44.2500 325.0000 1.0000
44.2600 295.0000 1.0000
44.2700 308.0000 1.0000
44.2800 342.0000 1.0000
44.2900 308.0000 1.0000
44.3000 313.0000 1.0000
44.3100 317.0000 1.0000
44.3200 317.0000 1.0000
44.3300 288.0000 1.0000
44.3400 302.0000 1.0000
44.3500 279.0000 1.0000
44.3600 294.0000 1.0000
44.3700 314.0000 1.0000
44.3800 297.0000 1.0000
44.3900 298.0000 1.0000
44.4000 303.0000 1.0000
44.4100 281.0000 1.0000
44.4200 283.0000 1.0000
44.4300 297.0000 1.0000
44.4400 313.0000 1.0000
44.4500 296.0000 1.0000
44.4600 299.0000 1.0000
44.4700 299.0000 1.0000
44.4800 308.0000 1.0000
44.4900 298.0000 1.0000
44.5000 305.0000 1.0000
44.5100 332.0000 1.0000
44.5200 321.0000 1.0000
44.5300 299.0000 1.0000
44.5400 271.0000 1.0000
44.5500 276.0000 1.0000
44.5600 317.0000 1.0000
44.5700 278.0000 1.0000
44.5800 305.0000 1.0000
44.5900 285.0000 1.0000
44.6000 285.0000 1.0000
44.6100 300.0000 1.0000
44.6200 308.0000 1.0000
44.6300 299.0000 1.0000
44.6400 295.0000 1.0000
44.6500 297.0000 1.0000
44.6600 303.0000 1.0000
44.6700 279.0000 1.0000
44.6800 273.0000 1.0000
44.6900 310.0000 1.0000
44.7000 320.0000 1.0000
44.7100 306.0000 1.0000
44.7200 316.0000 1.0000
44.7300 295.0000 1.0000
44.7400 310.0000 1.0000
44.7500 300.0000 1.0000
44.7600 255.0000 1.0000
44.7700 274.0000 1.0000
44.7800 292.0000 1.0000
44.7900 301.0000 1.0000
44.8000 296.0000 1.0000
44.8100 328.0000 1.0000
44.8200 307.0000 1.0000
44.8300 276.0000 1.0000
44.8400 311.0000 1.0000
44.8500 277.0000 1.0000
44.8600 315.0000 1.0000
44.8700 289.0000 1.0000
44.8800 276.0000 1.0000
44.8900 282.0000 1.0000
44.9000 286.0000 1.0000
44.9100 305.0000 1.0000
44.9200 306.0000 1.0000
44.9300 332.0000 1.0000
44.9400 294.0000 1.0000
44.9500 327.0000 1.0000
44.9600 316.0000 1.0000
44.9700 307.0000 1.0000
44.9800 301.0000 1.0000
44.9900 279.0000 1.0000
45.0000 298.0000 1.0000
45.0100 300.0000 1.0000
45.0200 288.0000 1.0000
45.0300 315.0000 1.0000
45.0400 325.0000 1.0000
45.0500 331.0000 1.0000
45.0600 317.0000 1.0000
45.0700 316.0000 1.0000
45.0800 275.0000 1.0000
45.0900 297.0000 1.0000
45.1000 287.0000 1.0000
45.1100 288.0000 1.0000
45.1200 280.0000 1.0000
45.1300 327.0000 1.0000
45.1400 319.0000 1.0000
45.1500 308.0000 1.0000
45.1600 265.0000 1.0000
45.1700 290.0000 1.0000
45.1800 295.0000 1.0000
45.1900 325.0000 1.0000
45.2000 336.0000 1.0000
45.2100 310.0000 1.0000
45.2200 298.0000 1.0000
45.2300 295.0000 1.0000
45.2400 313.0000 1.0000
45.2500 308.0000 1.0000
45.2600 301.0000 1.0000
45.2700 282.0000 1.0000
45.2800 327.0000 1.0000
45.2900 288.0000 1.0000
45.3000 343.0000 1.0000
45.3100 305.0000 1.0000
45.3200 288.0000 1.0000
45.3300 319.0000 1.0000
45.3400 323.0000 1.0000
45.3500 329.0000 1.0000
45.3600 315.0000 1.0000
45.3700 305.0000 1.0000
45.3800 331.0000 1.0000
45.3900 329.0000 1.0000
45.4000 326.0000 1.0000
45.4100 307.0000 1.0000
45.4200 305.0000 1.0000
45.4300 305.0000 1.0000
45.4400 322.0000 1.0000
45.4500 323.0000 1.0000
45.4600 308.0000 1.0000
45.4700 308.0000 1.0000
45.4800 309.0000 1.0000
45.4900 300.0000 1.0000
45.5000 277.0000 1.0000
45.5100 293.0000 1.0000
45.5200 253.0000 1.0000
45.5300 286.0000 1.0000
45.5400 306.0000 1.0000
45.5500 291.0000 1.0000
45.5600 294.0000 1.0000
45.5700 281.0000 1.0000
45.5800 277.0000 1.0000
45.5900 293.0000 1.0000
45.6000 306.0000 1.0000
45.6100 276.0000 1.0000
45.6200 300.0000 1.0000
45.6300 285.0000 1.0000
45.6400 294.0000 1.0000
45.6500 281.0000 1.0000
45.6600 283.0000 1.0000
45.6700 301.0000 1.0000
45.6800 289.0000 1.0000
45.6900 285.0000 1.0000
45.7000 282.0000 1.0000
45.7100 312.0000 1.0000
45.7200 270.0000 1.0000
45.7300 315.0000 1.0000
45.7400 302.0000 1.0000
45.7500 290.0000 1.0000
45.7600 295.0000 1.0000
45.7700 304.0000 1.0000
45.7800 296.0000 1.0000
45.7900 268.0000 1.0000
45.8000 275.0000 1.0000
45.8100 291.0000 1.0000
45.8200 305.0000 1.0000
45.8300 289.0000 1.0000
45.8400 279.0000 1.0000
45.8500 267.0000 1.0000
45.8600 278.0000 1.0000
45.8700 261.0000 1.0000
45.8800 274.0000 1.0000
45.8900 283.0000 1.0000
45.9000 286.0000 1.0000
45.9100 274.0000 1.0000
45.9200 313.0000 1.0000
45.9300 299.0000 1.0000
45.9400 258.0000 1.0000
45.9500 313.0000 1.0000
45.9600 281.0000 1.0000
45.9700 341.0000 1.0000
45.9800 303.0000 1.0000
45.9900 289.0000 1.0000
46.0000 285.0000 1.0000
46.0100 284.0000 1.0000
46.0200 273.0000 1.0000
46.0300 273.0000 1.0000
46.0400 292.0000 1.0000
46.0500 256.0000 1.0000
46.0600 272.0000 1.0000
46.0700 282.0000 1.0000
46.0800 269.0000 1.0000
46.0900 271.0000 1.0000
46.1000 281.0000 1.0000
46.1100 293.0000 1.0000
46.1200 299.0000 1.0000
46.1300 293.0000 1.0000
46.1400 281.0000 1.0000
46.1500 287.0000 1.0000
46.1600 281.0000 1.0000
46.1700 257.0000 1.0000
46.1800 293.0000 1.0000
46.1900 305.0000 1.0000
46.2000 244.0000 1.0000
46.2100 290.0000 1.0000
46.2200 284.0000 1.0000
46.2300 263.0000 1.0000
46.2400 302.0000 1.0000
46.2500 306.0000 1.0000
46.2600 300.0000 1.0000
46.2700 302.0000 1.0000
46.2800 300.0000 1.0000
46.2900 298.0000 1.0000
46.3000 298.0000 1.0000
46.3100 286.0000 1.0000
46.3200 274.0000 1.0000
46.3300 287.0000 1.0000
46.3400 312.0000 1.0000
46.3500 311.0000 1.0000
46.3600 301.0000 1.0000
46.3700 281.0000 1.0000
46.3800 307.0000 1.0000
46.3900 296.0000 1.0000
46.4000 291.0000 1.0000
46.4100 290.0000 1.0000
46.4200 258.0000 1.0000
46.4300 297.0000 1.0000
46.4400 276.0000 1.0000
46.4500 274.0000 1.0000
46.4600 305.0000 1.0000
46.4700 286.0000 1.0000
46.4800 288.0000 1.0000
46.4900 276.0000 1.0000
46.5000 291.0000 1.0000
46.5100 301.0000 1.0000
46.5200 284.0000 1.0000
46.5300 290.0000 1.0000
46.5400 275.0000 1.0000
46.5500 282.0000 1.0000
46.5600 264.0000 1.0000
46.5700 250.0000 1.0000
46.5800 275.0000 1.0000
46.5900 288.0000 1.0000
46.6000 280.0000 1.0000
46.6100 286.0000 1.0000
46.6200 267.0000 1.0000
46.6300 268.0000 1.0000
46.6400 278.0000 1.0000
46.6500 304.0000 1.0000
46.6600 275.0000 1.0000
46.6700 274.0000 1.0000
46.6800 280.0000 1.0000
46.6900 296.0000 1.0000
46.7000 315.0000 1.0000
46.7100 308.0000 1.0000
46.7200 304.0000 1.0000
46.7300 273.0000 1.0000
46.7400 296.0000 1.0000
46.7500 281.0000 1.0000
46.7600 251.0000 1.0000
46.7700 278.0000 1.0000
46.7800 283.0000 1.0000
46.7900 270.0000 1.0000
46.8000 263.0000 1.0000
46.8100 261.0000 1.0000
46.8200 311.0000 1.0000
46.8300 267.0000 1.0000
46.8400 274.0000 1.0000
46.8500 282.0000 1.0000
46.8600 267.0000 1.0000
46.8700 268.0000 1.0000
46.8800 278.0000 1.0000
46.8900 289.0000 1.0000
46.9000 269.0000 1.0000
46.9100 307.0000 1.0000
46.9200 281.0000 1.0000
46.9300 308.0000 1.0000
46.9400 293.0000 1.0000
46.9500 272.0000 1.0000
46.9600 272.0000 1.0000
46.9700 272.0000 1.0000
46.9800 245.0000 1.0000
46.9900 308.0000 1.0000
47.0000 254.0000 1.0000
47.0100 266.0000 1.0000
47.0200 261.0000 1.0000
47.0300 270.0000 1.0000
47.0400 263.0000 1.0000
47.0500 268.0000 1.0000
47.0600 300.0000 1.0000
47.0700 277.0000 1.0000
47.0800 264.0000 1.0000
47.0900 281.0000 1.0000
47.1000 286.0000 1.0000
47.1100 274.0000 1.0000
47.1200 292.0000 1.0000
47.1300 273.0000 1.0000
47.1400 291.0000 1.0000
47.1500 300.0000 1.0000
47.1600 250.0000 1.0000
47.1700 287.0000 1.0000
47.1800 277.0000 1.0000
47.1900 254.0000 1.0000
47.2000 272.0000 1.0000
47.2100 243.0000 1.0000
47.2200 278.0000 1.0000
47.2300 293.0000 1.0000
47.2400 285.0000 1.0000
47.2500 260.0000 1.0000
47.2600 285.0000 1.0000
47.2700 291.0000 1.0000
47.2800 275.0000 1.0000
47.2900 247.0000 1.0000
47.3000 263.0000 1.0000
47.3100 259.0000 1.0000
47.3200 247.0000 1.0000
47.3300 301.0000 1.0000
47.3400 314.0000 1.0000
47.3500 249.0000 1.0000
47.3600 299.0000 1.0000
47.3700 288.0000 1.0000
47.3800 279.0000 1.0000
47.3900 279.0000 1.0000
47.4000 282.0000 1.0000
47.4100 276.0000 1.0000
47.4200 270.0000 1.0000
47.4300 271.0000 1.0000
47.4400 290.0000 1.0000
47.4500 271.0000 1.0000
47.4600 253.0000 1.0000
47.4700 272.0000 1.0000
47.4800 256.0000 1.0000
47.4900 282.0000 1.0000
47.5000 295.0000 1.0000
47.5100 308.0000 1.0000
47.5200 290.0000 1.0000
47.5300 288.0000 1.0000
47.5400 275.0000 1.0000
47.5500 284.0000 1.0000
47.5600 288.0000 1.0000
47.5700 291.0000 1.0000
47.5800 282.0000 1.0000
47.5900 281.0000 1.0000
47.6000 254.0000 1.0000
47.6100 281.0000 1.0000
47.6200 261.0000 1.0000
47.6300 281.0000 1.0000
47.6400 308.0000 1.0000
47.6500 286.0000 1.0000
47.6600 304.0000 1.0000
47.6700 260.0000 1.0000
47.6800 266.0000 1.0000
47.6900 278.0000 1.0000
47.7000 264.0000 1.0000
47.7100 262.0000 1.0000
47.7200 263.0000 1.0000
47.7300 265.0000 1.0000
47.7400 271.0000 1.0000
47.7500 281.0000 1.0000
47.7600 279.0000 1.0000
47.7700 283.0000 1.0000
47.7800 265.0000 1.0000
47.7900 269.0000 1.0000
47.8000 272.0000 1.0000
47.8100 259.0000 1.0000
47.8200 250.0000 1.0000
47.8300 264.0000 1.0000
47.8400 247.0000 1.0000
47.8500 257.0000 1.0000
47.8600 257.0000 1.0000
47.8700 259.0000 1.0000
47.8800 263.0000 1.0000
47.8900 271.0000 1.0000
47.9000 268.0000 1.0000
47.9100 274.0000 1.0000
47.9200 268.0000 1.0000
47.9300 291.0000 1.0000
47.9400 278.0000 1.0000
47.9500 268.0000 1.0000
47.9600 265.0000 1.0000
47.9700 275.0000 1.0000
47.9800 282.0000 1.0000
47.9900 278.0000 1.0000
48.0000 275.0000 1.0000
48.0100 274.0000 1.0000
48.0200 277.0000 1.0000
48.0300 270.0000 1.0000
48.0400 294.0000 1.0000
48.0500 277.0000 1.0000
48.0600 290.0000 1.0000
48.0700 285.0000 1.0000
48.0800 243.0000 1.0000
48.0900 279.0000 1.0000
48.1000 304.0000 1.0000
48.1100 295.0000 1.0000
48.1200 278.0000 1.0000
48.1300 249.0000 1.0000
48.1400 280.0000 1.0000
48.1500 273.0000 1.0000
48.1600 267.0000 1.0000
48.1700 262.0000 1.0000
48.1800 264.0000 1.0000
48.1900 291.0000 1.0000
48.2000 241.0000 1.0000
48.2100 279.0000 1.0000
48.2200 275.0000 1.0000
48.2300 278.0000 1.0000
48.2400 279.0000 1.0000
48.2500 269.0000 1.0000
48.2600 280.0000 1.0000
48.2700 266.0000 1.0000
48.2800 277.0000 1.0000
48.2900 275.0000 1.0000
48.3000 297.0000 1.0000
48.3100 325.0000 1.0000
48.3200 286.0000 1.0000
48.3300 257.0000 1.0000
48.3400 255.0000 1.0000
48.3500 265.0000 1.0000
48.3600 288.0000 1.0000
48.3700 264.0000 1.0000
48.3800 283.0000 1.0000
48.3900 270.0000 1.0000
48.4000 295.0000 1.0000
48.4100 275.0000 1.0000
48.4200 279.0000 1.0000
48.4300 284.0000 1.0000
48.4400 256.0000 1.0000
48.4500 269.0000 1.0000
48.4600 296.0000 1.0000
48.4700 286.0000 1.0000
48.4800 265.0000 1.0000
48.4900 288.0000 1.0000
48.5000 288.0000 1.0000
48.5100 275.0000 1.0000
48.5200 279.0000 1.0000
48.5300 282.0000 1.0000
48.5400 275.0000 1.0000
48.5500 274.0000 1.0000
48.5600 274.0000 1.0000
48.5700 252.0000 1.0000
48.5800 294.0000 1.0000
48.5900 264.0000 1.0000
48.6000 255.0000 1.0000
48.6100 277.0000 1.0000
48.6200 280.0000 1.0000
48.6300 276.0000 1.0000
48.6400 256.0000 1.0000
48.6500 247.0000 1.0000
48.6600 270.0000 1.0000
48.6700 275.0000 1.0000
48.6800 267.0000 1.0000
48.6900 248.0000 1.0000
48.7000 274.0000 1.0000
48.7100 242.0000 1.0000
48.7200 282.0000 1.0000
48.7300 274.0000 1.0000
48.7400 256.0000 1.0000
48.7500 265.0000 1.0000
48.7600 256.0000 1.0000
48.7700 242.0000 1.0000
48.7800 294.0000 1.0000
48.7900 269.0000 1.0000
48.8000 271.0000 1.0000
48.8100 278.0000 1.0000
48.8200 250.0000 1.0000
48.8300 270.0000 1.0000
48.8400 280.0000 1.0000
48.8500 283.0000 1.0000
48.8600 282.0000 1.0000
48.8700 259.0000 1.0000
48.8800 263.0000 1.0000
48.8900 286.0000 1.0000
48.9000 274.0000 1.0000
48.9100 279.0000 1.0000
48.9200 278.0000 1.0000
48.9300 280.0000 1.0000
48.9400 262.0000 1.0000
48.9500 294.0000 1.0000
48.9600 284.0000 1.0000
48.9700 267.0000 1.0000
48.9800 267.0000 1.0000
48.9900 265.0000 1.0000
49.0000 270.0000 1.0000
49.0100 267.0000 1.0000
49.0200 300.0000 1.0000
49.0300 272.0000 1.0000
49.0400 303.0000 1.0000
49.0500 273.0000 1.0000
49.0600 249.0000 1.0000
49.0700 270.0000 1.0000
49.0800 259.0000 1.0000
49.0900 280.0000 1.0000
49.1000 286.0000 1.0000
49.1100 266.0000 1.0000
49.1200 273.0000 1.0000
49.1300 295.0000 1.0000
49.1400 312.0000 1.0000
49.1500 281.0000 1.0000
49.1600 287.0000 1.0000
49.1700 280.0000 1.0000
49.1800 266.0000 1.0000
49.1900 281.0000 1.0000
49.2000 299.0000 1.0000
49.2100 266.0000 1.0000
49.2200 261.0000 1.0000
49.2300 276.0000 1.0000
49.2400 259.0000 1.0000
49.2500 286.0000 1.0000
49.2600 305.0000 1.0000
49.2700 306.0000 1.0000
49.2800 313.0000 1.0000
49.2900 307.0000 1.0000
49.3000 296.0000 1.0000
49.3100 275.0000 1.0000
49.3200 327.0000 1.0000
49.3300 285.0000 1.0000
49.3400 277.0000 1.0000
49.3500 287.0000 1.0000
49.3600 299.0000 1.0000
49.3700 300.0000 1.0000
49.3800 298.0000 1.0000
49.3900 319.0000 1.0000
49.4000 313.0000 1.0000
49.4100 300.0000 1.0000
49.4200 340.0000 1.0000
49.4300 280.0000 1.0000
49.4400 298.0000 1.0000
49.4500 307.0000 1.0000
49.4600 316.0000 1.0000
49.4700 307.0000 1.0000
49.4800 312.0000 1.0000
49.4900 289.0000 1.0000
49.5000 332.0000 1.0000
49.5100 280.0000 1.0000
49.5200 294.0000 1.0000
49.5300 294.0000 1.0000
49.5400 299.0000 1.0000
49.5500 292.0000 1.0000
49.5600 274.0000 1.0000
49.5700 270.0000 1.0000
49.5800 297.0000 1.0000
49.5900 290.0000 1.0000
49.6000 279.0000 1.0000
49.6100 284.0000 1.0000
49.6200 285.0000 1.0000
49.6300 293.0000 1.0000
49.6400 272.0000 1.0000
49.6500 283.0000 1.0000
49.6600 269.0000 1.0000
49.6700 268.0000 1.0000
49.6800 292.0000 1.0000
49.6900 283.0000 1.0000
49.7000 272.0000 1.0000
49.7100 265.0000 1.0000
49.7200 268.0000 1.0000
49.7300 276.0000 1.0000
49.7400 270.0000 1.0000
49.7500 299.0000 1.0000
49.7600 292.0000 1.0000
49.7700 262.0000 1.0000
49.7800 268.0000 1.0000
49.7900 293.0000 1.0000
49.8000 258.0000 1.0000
49.8100 276.0000 1.0000
49.8200 296.0000 1.0000
49.8300 295.0000 1.0000
49.8400 277.0000 1.0000
49.8500 281.0000 1.0000
49.8600 256.0000 1.0000
49.8700 268.0000 1.0000
49.8800 295.0000 1.0000
49.8900 288.0000 1.0000
49.9000 248.0000 1.0000
49.9100 264.0000 1.0000
49.9200 263.0000 1.0000
49.9300 271.0000 1.0000
49.9400 277.0000 1.0000
49.9500 283.0000 1.0000
49.9600 275.0000 1.0000
49.9700 283.0000 1.0000
49.9800 279.0000 1.0000
49.9900 265.0000 1.0000
50.0000 286.0000 1.0000
50.0100 300.0000 1.0000
50.0200 259.0000 1.0000
50.0300 273.0000 1.0000
50.0400 240.0000 1.0000
50.0500 265.0000 1.0000
50.0600 267.0000 1.0000
50.0700 262.0000 1.0000
50.0800 269.0000 1.0000
50.0900 263.0000 1.0000
50.1000 289.0000 1.0000
50.1100 262.0000 1.0000
50.1200 269.0000 1.0000
50.1300 267.0000 1.0000
50.1400 282.0000 1.0000
50.1500 254.0000 1.0000
50.1600 257.0000 1.0000
50.1700 277.0000 1.0000
50.1800 255.0000 1.0000
50.1900 283.0000 1.0000
50.2000 250.0000 1.0000
50.2100 252.0000 1.0000
50.2200 256.0000 1.0000
50.2300 258.0000 1.0000
50.2400 256.0000 1.0000
50.2500 265.0000 1.0000
50.2600 258.0000 1.0000
50.2700 284.0000 1.0000
50.2800 272.0000 1.0000
50.2900 272.0000 1.0000
50.3000 275.0000 1.0000
50.3100 278.0000 1.0000
50.3200 274.0000 1.0000
50.3300 276.0000 1.0000
50.3400 285.0000 1.0000
50.3500 285.0000 1.0000
50.3600 273.0000 1.0000
50.3700 263.0000 1.0000
50.3800 268.0000 1.0000
50.3900 268.0000 1.0000
50.4000 267.0000 1.0000
50.4100 283.0000 1.0000
50.4200 251.0000 1.0000
50.4300 284.0000 1.0000
50.4400 280.0000 1.0000
50.4500 283.0000 1.0000
50.4600 254.0000 1.0000
50.4700 259.0000 1.0000
50.4800 283.0000 1.0000
50.4900 255.0000 1.0000
50.5000 273.0000 1.0000
50.5100 276.0000 1.0000
50.5200 250.0000 1.0000
50.5300 271.0000 1.0000
50.5400 247.0000 1.0000
50.5500 260.0000 1.0000
50.5600 266.0000 1.0000
50.5700 280.0000 1.0000
50.5800 293.0000 1.0000
50.5900 280.0000 1.0000
50.6000 266.0000 1.0000
50.6100 240.0000 1.0000
50.6200 274.0000 1.0000
50.6300 273.0000 1.0000
50.6400 265.0000 1.0000
50.6500 275.0000 1.0000
50.6600 293.0000 1.0000
50.6700 277.0000 1.0000
50.6800 259.0000 1.0000
50.6900 290.0000 1.0000
50.7000 259.0000 1.0000
50.7100 278.0000 1.0000
50.7200 261.0000 1.0000
50.7300 284.0000 1.0000
50.7400 273.0000 1.0000
50.7500 294.0000 1.0000
50.7600 263.0000 1.0000
50.7700 299.0000 1.0000
50.7800 285.0000 1.0000
50.7900 281.0000 1.0000
50.8000 286.0000 1.0000
50.8100 267.0000 1.0000
50.8200 272.0000 1.0000
50.8300 276.0000 1.0000
50.8400 294.0000 1.0000
50.8500 302.0000 1.0000
50.8600 281.0000 1.0000
50.8700 265.0000 1.0000
50.8800 290.0000 1.0000
50.8900 295.0000 1.0000
50.9000 295.0000 1.0000
50.9100 272.0000 1.0000
50.9200 256.0000 1.0000
50.9300 266.0000 1.0000
50.9400 255.0000 1.0000
50.9500 280.0000 1.0000
50.9600 286.0000 1.0000
50.9700 284.0000 1.0000
50.9800 298.0000 1.0000
50.9900 264.0000 1.0000
51.0000 303.0000 1.0000
51.0100 312.0000 1.0000
51.0200 291.0000 1.0000
51.0300 295.0000 1.0000
51.0400 275.0000 1.0000
51.0500 282.0000 1.0000
51.0600 289.0000 1.0000
51.0700 280.0000 1.0000
51.0800 293.0000 1.0000
51.0900 303.0000 1.0000
51.1000 310.0000 1.0000
51.1100 314.0000 1.0000
51.1200 321.0000 1.0000
51.1300 339.0000 1.0000
51.1400 342.0000 1.0000
51.1500 311.0000 1.0000
51.1600 313.0000 1.0000
51.1700 353.0000 1.0000
51.1800 361.0000 1.0000
51.1900 369.0000 1.0000
51.2000 362.0000 1.0000
51.2100 374.0000 1.0000
51.2200 384.0000 1.0000
51.2300 395.0000 1.0000
51.2400 364.0000 1.0000
51.2500 397.0000 1.0000
51.2600 392.0000 1.0000
51.2700 410.0000 1.0000
51.2800 448.0000 1.0000
51.2900 420.0000 1.0000
51.3000 463.0000 1.0000
51.3100 497.0000 1.0000
51.3200 502.0000 1.0000
51.3300 566.0000 1.0000
51.3400 563.0000 1.0000
51.3500 589.0000 1.0000
51.3600 584.0000 1.0000
51.3700 693.0000 1.0000
51.3800 677.0000 1.0000
51.3900 704.0000 1.0000
51.4000 796.0000 1.0000
51.4100 808.0000 1.0000
51.4200 850.0000 1.0000
51.4300 837.0000 1.0000
51.4400 887.0000 1.0000
51.4500 936.0000 1.0000
51.4600 918.0000 1.0000
51.4700 960.0000 1.0000
51.4800 976.0000 1.0000
51.4900 942.0000 1.0000
51.5000 937.0000 1.0000
51.5100 938.0000 1.0000
51.5200 924.0000 1.0000
51.5300 886.0000 1.0000
51.5400 871.0000 1.0000
51.5500 836.0000 1.0000
51.5600 851.0000 1.0000
51.5700 798.0000 1.0000
51.5800 772.0000 1.0000
51.5900 802.0000 1.0000
51.6000 825.0000 1.0000
51.6100 745.0000 1.0000
51.6200 742.0000 1.0000
51.6300 696.0000 1.0000
51.6400 641.0000 1.0000
51.6500 626.0000 1.0000
51.6600 614.0000 1.0000
51.6700 608.0000 1.0000
51.6800 604.0000 1.0000
51.6900 548.0000 1.0000
51.7000 521.0000 1.0000
51.7100 474.0000 1.0000
51.7200 467.0000 1.0000
51.7300 434.0000 1.0000
51.7400 417.0000 1.0000
51.7500 432.0000 1.0000
51.7600 427.0000 1.0000
51.7700 396.0000 1.0000
51.7800 428.0000 1.0000
51.7900 387.0000 1.0000
51.8000 378.0000 1.0000
51.8100 341.0000 1.0000
51.8200 370.0000 1.0000
51.8300 378.0000 1.0000
51.8400 395.0000 1.0000
51.8500 361.0000 1.0000
51.8600 320.0000 1.0000
51.8700 314.0000 1.0000
51.8800 324.0000 1.0000
51.8900 328.0000 1.0000
51.9000 283.0000 1.0000
51.9100 310.0000 1.0000
51.9200 295.0000 1.0000
51.9300 315.0000 1.0000
51.9400 327.0000 1.0000
51.9500 310.0000 1.0000
51.9600 332.0000 1.0000
51.9700 284.0000 1.0000
51.9800 285.0000 1.0000
51.9900 293.0000 1.0000
52.0000 293.0000 1.0000
52.0100 273.0000 1.0000
52.0200 303.0000 1.0000
52.0300 284.0000 1.0000
52.0400 287.0000 1.0000
52.0500 308.0000 1.0000
52.0600 315.0000 1.0000
52.0700 272.0000 1.0000
52.0800 295.0000 1.0000
52.0900 280.0000 1.0000
52.1000 266.0000 1.0000
52.1100 281.0000 1.0000
52.1200 281.0000 1.0000
52.1300 265.0000 1.0000
52.1400 282.0000 1.0000
52.1500 285.0000 1.0000
52.1600 279.0000 1.0000
52.1700 265.0000 1.0000
52.1800 259.0000 1.0000
52.1900 270.0000 1.0000
52.2000 255.0000 1.0000
52.2100 278.0000 1.0000
52.2200 301.0000 1.0000
52.2300 254.0000 1.0000
52.2400 270.0000 1.0000
52.2500 277.0000 1.0000
52.2600 276.0000 1.0000
52.2700 276.0000 1.0000
52.2800 275.0000 1.0000
52.2900 260.0000 1.0000
52.3000 233.0000 1.0000
52.3100 258.0000 1.0000
52.3200 268.0000 1.0000
52.3300 262.0000 1.0000
52.3400 280.0000 1.0000
52.3500 274.0000 1.0000
52.3600 269.0000 1.0000
52.3700 274.0000 1.0000
52.3800 268.0000 1.0000
52.3900 265.0000 1.0000
52.4000 259.0000 1.0000
52.4100 257.0000 1.0000
52.4200 247.0000 1.0000
52.4300 283.0000 1.0000
52.4400 248.0000 1.0000
52.4500 254.0000 1.0000
52.4600 273.0000 1.0000
52.4700 286.0000 1.0000
52.4800 272.0000 1.0000
52.4900 274.0000 1.0000
52.5000 258.0000 1.0000
52.5100 269.0000 1.0000
52.5200 234.0000 1.0000
52.5300 274.0000 1.0000
52.5400 288.0000 1.0000
52.5500 276.0000 1.0000
52.5600 252.0000 1.0000
52.5700 275.0000 1.0000
52.5800 274.0000 1.0000
52.5900 272.0000 1.0000
52.6000 247.0000 1.0000
52.6100 236.0000 1.0000
52.6200 226.0000 1.0000
52.6300 221.0000 1.0000
52.6400 262.0000 1.0000
52.6500 259.0000 1.0000
52.6600 258.0000 1.0000
52.6700 256.0000 1.0000
52.6800 275.0000 1.0000
52.6900 260.0000 1.0000
52.7000 257.0000 1.0000
52.7100 290.0000 1.0000
52.7200 275.0000 1.0000
52.7300 259.0000 1.0000
52.7400 244.0000 1.0000
52.7500 258.0000 1.0000
52.7600 269.0000 1.0000
52.7700 266.0000 1.0000
52.7800 280.0000 1.0000
52.7900 286.0000 1.0000
52.8000 272.0000 1.0000
52.8100 295.0000 1.0000
52.8200 268.0000 1.0000
52.8300 240.0000 1.0000
52.8400 263.0000 1.0000
52.8500 257.0000 1.0000
52.8600 269.0000 1.0000
52.8700 232.0000 1.0000
52.8800 246.0000 1.0000
52.8900 255.0000 1.0000
52.9000 277.0000 1.0000
52.9100 249.0000 1.0000
52.9200 251.0000 1.0000
52.9300 261.0000 1.0000
52.9400 236.0000 1.0000
52.9500 237.0000 1.0000
52.9600 280.0000 1.0000
52.9700 284.0000 1.0000
52.9800 282.0000 1.0000
52.9900 237.0000 1.0000
53.0000 251.0000 1.0000
53.0100 240.0000 1.0000
53.0200 247.0000 1.0000
53.0300 283.0000 1.0000
53.0400 249.0000 1.0000
53.0500 251.0000 1.0000
53.0600 273.0000 1.0000
53.0700 267.0000 1.0000
53.0800 276.0000 1.0000
53.0900 278.0000 1.0000
53.1000 257.0000 1.0000
53.1100 272.0000 1.0000
53.1200 262.0000 1.0000
53.1300 256.0000 1.0000
53.1400 249.0000 1.0000
53.1500 260.0000 1.0000
53.1600 279.0000 1.0000
53.1700 254.0000 1.0000
53.1800 247.0000 1.0000
53.1900 244.0000 1.0000
53.2000 278.0000 1.0000
53.2100 253.0000 1.0000
53.2200 237.0000 1.0000
53.2300 244.0000 1.0000
53.2400 255.0000 1.0000
53.2500 276.0000 1.0000
53.2600 268.0000 1.0000
53.2700 261.0000 1.0000
53.2800 252.0000 1.0000
53.2900 257.0000 1.0000
53.3000 249.0000 1.0000
53.3100 253.0000 1.0000
53.3200 246.0000 1.0000
53.3300 229.0000 1.0000
53.3400 245.0000 1.0000
53.3500 292.0000 1.0000
53.3600 247.0000 1.0000
53.3700 239.0000 1.0000
53.3800 258.0000 1.0000
53.3900 266.0000 1.0000
53.4000 259.0000 1.0000
53.4100 264.0000 1.0000
53.4200 258.0000 1.0000
53.4300 260.0000 1.0000
53.4400 262.0000 1.0000
53.4500 257.0000 1.0000
53.4600 252.0000 1.0000
53.4700 265.0000 1.0000
53.4800 247.0000 1.0000
53.4900 239.0000 1.0000
53.5000 290.0000 1.0000
53.5100 286.0000 1.0000
53.5200 248.0000 1.0000
53.5300 249.0000 1.0000
53.5400 227.0000 1.0000
53.5500 264.0000 1.0000
53.5600 281.0000 1.0000
53.5700 261.0000 1.0000
53.5800 256.0000 1.0000
53.5900 253.0000 1.0000
53.6000 280.0000 1.0000
53.6100 257.0000 1.0000
53.6200 230.0000 1.0000
53.6300 262.0000 1.0000
53.6400 265.0000 1.0000
53.6500 284.0000 1.0000
53.6600 268.0000 1.0000
53.6700 257.0000 1.0000
53.6800 254.0000 1.0000
53.6900 238.0000 1.0000
53.7000 232.0000 1.0000
53.7100 263.0000 1.0000
53.7200 254.0000 1.0000
53.7300 256.0000 1.0000
53.7400 282.0000 1.0000
53.7500 271.0000 1.0000
53.7600 253.0000 1.0000
53.7700 275.0000 1.0000
53.7800 271.0000 1.0000
53.7900 261.0000 1.0000
53.8000 263.0000 1.0000
53.8100 254.0000 1.0000
53.8200 252.0000 1.0000
53.8300 247.0000 1.0000
53.8400 269.0000 1.0000
53.8500 295.0000 1.0000
53.8600 285.0000 1.0000
53.8700 278.0000 1.0000
53.8800 288.0000 1.0000
53.8900 283.0000 1.0000
53.9000 303.0000 1.0000
53.9100 282.0000 1.0000
53.9200 268.0000 1.0000
53.9300 269.0000 1.0000
53.9400 280.0000 1.0000
53.9500 291.0000 1.0000
53.9600 280.0000 1.0000
53.9700 307.0000 1.0000
53.9800 279.0000 1.0000
53.9900 285.0000 1.0000
54.0000 270.0000 1.0000
54.0100 269.0000 1.0000
54.0200 273.0000 1.0000
54.0300 276.0000 1.0000
54.0400 298.0000 1.0000
54.0500 296.0000 1.0000
54.0600 284.0000 1.0000
54.0700 307.0000 1.0000
54.0800 296.0000 1.0000
54.0900 285.0000 1.0000
54.1000 293.0000 1.0000
54.1100 311.0000 1.0000
54.1200 301.0000 1.0000
54.1300 297.0000 1.0000
54.1400 295.0000 1.0000
54.1500 297.0000 1.0000
54.1600 275.0000 1.0000
54.1700 301.0000 1.0000
54.1800 297.0000 1.0000
54.1900 286.0000 1.0000
54.2000 259.0000 1.0000
54.2100 272.0000 1.0000
54.2200 302.0000 1.0000
54.2300 315.0000 1.0000
54.2400 282.0000 1.0000
54.2500 262.0000 1.0000
54.2600 294.0000 1.0000
54.2700 307.0000 1.0000
54.2800 275.0000 1.0000
54.2900 289.0000 1.0000
54.3000 265.0000 1.0000
54.3100 270.0000 1.0000
54.3200 260.0000 1.0000
54.3300 286.0000 1.0000
54.3400 276.0000 1.0000
54.3500 327.0000 1.0000
54.3600 310.0000 1.0000
54.3700 331.0000 1.0000
54.3800 298.0000 1.0000
54.3900 290.0000 1.0000
54.4000 298.0000 1.0000
54.4100 294.0000 1.0000
54.4200 336.0000 1.0000
54.4300 332.0000 1.0000
54.4400 307.0000 1.0000
54.4500 313.0000 1.0000
54.4600 303.0000 1.0000
54.4700 307.0000 1.0000
54.4800 301.0000 1.0000
54.4900 318.0000 1.0000
54.5000 330.0000 1.0000
54.5100 340.0000 1.0000
54.5200 303.0000 1.0000
54.5300 320.0000 1.0000
54.5400 324.0000 1.0000
54.5500 324.0000 1.0000
54.5600 318.0000 1.0000
54.5700 318.0000 1.0000
54.5800 308.0000 1.0000
54.5900 274.0000 1.0000
54.6000 303.0000 1.0000
54.6100 330.0000 1.0000
54.6200 299.0000 1.0000
54.6300 317.0000 1.0000
54.6400 300.0000 1.0000
54.6500 304.0000 1.0000
54.6600 309.0000 1.0000
54.6700 298.0000 1.0000
54.6800 300.0000 1.0000
54.6900 276.0000 1.0000
54.7000 299.0000 1.0000
54.7100 287.0000 1.0000
54.7200 253.0000 1.0000
54.7300 289.0000 1.0000
54.7400 266.0000 1.0000
54.7500 292.0000 1.0000
54.7600 272.0000 1.0000
54.7700 276.0000 1.0000
54.7800 263.0000 1.0000
54.7900 290.0000 1.0000
54.8000 279.0000 1.0000
54.8100 237.0000 1.0000
54.8200 262.0000 1.0000
54.8300 293.0000 1.0000
54.8400 281.0000 1.0000
54.8500 257.0000 1.0000
54.8600 233.0000 1.0000
54.8700 268.0000 1.0000
54.8800 285.0000 1.0000
54.8900 271.0000 1.0000
54.9000 235.0000 1.0000
54.9100 258.0000 1.0000
54.9200 263.0000 1.0000
54.9300 264.0000 1.0000
54.9400 258.0000 1.0000
54.9500 271.0000 1.0000
54.9600 249.0000 1.0000
54.9700 250.0000 1.0000
54.9800 253.0000 1.0000
54.9900 287.0000 1.0000
55.0000 277.0000 1.0000
55.0100 263.0000 1.0000
55.0200 245.0000 1.0000
55.0300 253.0000 1.0000
55.0400 274.0000 1.0000
55.0500 260.0000 1.0000
55.0600 275.0000 1.0000
55.0700 274.0000 1.0000
55.0800 233.0000 1.0000
55.0900 249.0000 1.0000
55.1000 250.0000 1.0000
55.1100 266.0000 1.0000
55.1200 255.0000 1.0000
55.1300 234.0000 1.0000
55.1400 250.0000 1.0000
55.1500 261.0000 1.0000
55.1600 240.0000 1.0000
55.1700 229.0000 1.0000
55.1800 231.0000 1.0000
55.1900 266.0000 1.0000
55.2000 277.0000 1.0000
55.2100 265.0000 1.0000
55.2200 266.0000 1.0000
55.2300 254.0000 1.0000
55.2400 244.0000 1.0000
55.2500 233.0000 1.0000
55.2600 283.0000 1.0000
55.2700 252.0000 1.0000
55.2800 246.0000 1.0000
55.2900 216.0000 1.0000
55.3000 226.0000 1.0000
55.3100 232.0000 1.0000
55.3200 233.0000 1.0000
55.3300 273.0000 1.0000
55.3400 255.0000 1.0000
55.3500 272.0000 1.0000
55.3600 277.0000 1.0000
55.3700 236.0000 1.0000
55.3800 243.0000 1.0000
55.3900 248.0000 1.0000
55.4000 257.0000 1.0000
55.4100 255.0000 1.0000
55.4200 227.0000 1.0000
55.4300 228.0000 1.0000
55.4400 256.0000 1.0000
55.4500 235.0000 1.0000
55.4600 258.0000 1.0000
55.4700 253.0000 1.0000
55.4800 264.0000 1.0000
55.4900 282.0000 1.0000
55.5000 246.0000 1.0000
55.5100 233.0000 1.0000
55.5200 279.0000 1.0000
55.5300 250.0000 1.0000
55.5400 244.0000 1.0000
55.5500 249.0000 1.0000
55.5600 259.0000 1.0000
55.5700 241.0000 1.0000
55.5800 239.0000 1.0000
55.5900 249.0000 1.0000
55.6000 253.0000 1.0000
55.6100 235.0000 1.0000
55.6200 257.0000 1.0000
55.6300 243.0000 1.0000
55.6400 250.0000 1.0000
55.6500 253.0000 1.0000
55.6600 237.0000 1.0000
55.6700 237.0000 1.0000
55.6800 260.0000 1.0000
55.6900 267.0000 1.0000
55.7000 260.0000 1.0000
55.7100 230.0000 1.0000
55.7200 264.0000 1.0000
55.7300 266.0000 1.0000
55.7400 235.0000 1.0000
55.7500 222.0000 1.0000
55.7600 246.0000 1.0000
55.7700 244.0000 1.0000
55.7800 232.0000 1.0000
55.7900 239.0000 1.0000
55.8000 243.0000 1.0000
55.8100 243.0000 1.0000
55.8200 270.0000 1.0000
55.8300 261.0000 1.0000
55.8400 249.0000 1.0000
55.8500 241.0000 1.0000
55.8600 241.0000 1.0000
55.8700 275.0000 1.0000
55.8800 258.0000 1.0000
55.8900 240.0000 1.0000
55.9000 275.0000 1.0000
55.9100 269.0000 1.0000
55.9200 276.0000 1.0000
55.9300 239.0000 1.0000
55.9400 231.0000 1.0000
55.9500 249.0000 1.0000
55.9600 265.0000 1.0000
55.9700 254.0000 1.0000
55.9800 229.0000 1.0000
55.9900 225.0000 1.0000
56.0000 226.0000 1.0000
56.0100 253.0000 1.0000
56.0200 251.0000 1.0000
56.0300 245.0000 1.0000
56.0400 251.0000 1.0000
56.0500 244.0000 1.0000
56.0600 233.0000 1.0000
56.0700 255.0000 1.0000
56.0800 258.0000 1.0000
56.0900 245.0000 1.0000
56.1000 231.0000 1.0000
56.1100 248.0000 1.0000
56.1200 260.0000 1.0000
56.1300 257.0000 1.0000
56.1400 230.0000 1.0000
56.1500 238.0000 1.0000
56.1600 266.0000 1.0000
56.1700 237.0000 1.0000
56.1800 235.0000 1.0000
56.1900 261.0000 1.0000
56.2000 265.0000 1.0000
56.2100 243.0000 1.0000
56.2200 224.0000 1.0000
56.2300 224.0000 1.0000
56.2400 294.0000 1.0000
56.2500 266.0000 1.0000
56.2600 254.0000 1.0000
56.2700 270.0000 1.0000
56.2800 244.0000 1.0000
56.2900 228.0000 1.0000
56.3000 215.0000 1.0000
56.3100 238.0000 1.0000
56.3200 247.0000 1.0000
56.3300 264.0000 1.0000
56.3400 251.0000 1.0000
56.3500 246.0000 1.0000
56.3600 218.0000 1.0000
56.3700 234.0000 1.0000
56.3800 246.0000 1.0000
56.3900 242.0000 1.0000
56.4000 242.0000 1.0000
56.4100 264.0000 1.0000
56.4200 246.0000 1.0000
56.4300 249.0000 1.0000
56.4400 236.0000 1.0000
56.4500 222.0000 1.0000
56.4600 247.0000 1.0000
56.4700 243.0000 1.0000
56.4800 244.0000 1.0000
56.4900 241.0000 1.0000
56.5000 256.0000 1.0000
56.5100 262.0000 1.0000
56.5200 266.0000 1.0000
56.5300 281.0000 1.0000
56.5400 254.0000 1.0000
56.5500 243.0000 1.0000
56.5600 240.0000 1.0000
56.5700 229.0000 1.0000
56.5800 224.0000 1.0000
56.5900 261.0000 1.0000
56.6000 240.0000 1.0000
56.6100 248.0000 1.0000
56.6200 249.0000 1.0000
56.6300 253.0000 1.0000
56.6400 250.0000 1.0000
56.6500 269.0000 1.0000
56.6600 254.0000 1.0000
56.6700 256.0000 1.0000
56.6800 246.0000 1.0000
56.6900 237.0000 1.0000
56.7000 233.0000 1.0000
56.7100 258.0000 1.0000
56.7200 239.0000 1.0000
56.7300 222.0000 1.0000
56.7400 266.0000 1.0000
56.7500 253.0000 1.0000
56.7600 221.0000 1.0000
56.7700 268.0000 1.0000
56.7800 260.0000 1.0000
56.7900 242.0000 1.0000
56.8000 257.0000 1.0000
56.8100 256.0000 1.0000
56.8200 222.0000 1.0000
56.8300 254.0000 1.0000
56.8400 258.0000 1.0000
56.8500 238.0000 1.0000
56.8600 252.0000 1.0000
56.8700 261.0000 1.0000
56.8800 236.0000 1.0000
56.8900 238.0000 1.0000
56.9000 243.0000 1.0000
56.9100 229.0000 1.0000
56.9200 236.0000 1.0000
56.9300 228.0000 1.0000
56.9400 254.0000 1.0000
56.9500 253.0000 1.0000
56.9600 263.0000 1.0000
56.9700 258.0000 1.0000
56.9800 277.0000 1.0000
56.9900 255.0000 1.0000
57.0000 237.0000 1.0000
57.0100 247.0000 1.0000
57.0200 230.0000 1.0000
57.0300 248.0000 1.0000
57.0400 227.0000 1.0000
57.0500 246.0000 1.0000
57.0600 259.0000 1.0000
57.0700 266.0000 1.0000
57.0800 246.0000 1.0000
57.0900 227.0000 1.0000
57.1000 233.0000 1.0000
57.1100 241.0000 1.0000
57.1200 233.0000 1.0000
57.1300 230.0000 1.0000
57.1400 221.0000 1.0000
57.1500 248.0000 1.0000
57.1600 243.0000 1.0000
57.1700 230.0000 1.0000
57.1800 255.0000 1.0000
57.1900 257.0000 1.0000
57.2000 267.0000 1.0000
57.2100 250.0000 1.0000
57.2200 236.0000 1.0000
57.2300 260.0000 1.0000
57.2400 265.0000 1.0000
57.2500 252.0000 1.0000
57.2600 264.0000 1.0000
57.2700 257.0000 1.0000
57.2800 255.0000 1.0000
57.2900 218.0000 1.0000
57.3000 260.0000 1.0000
57.3100 266.0000 1.0000
57.3200 252.0000 1.0000
57.3300 250.0000 1.0000
57.3400 260.0000 1.0000
57.3500 275.0000 1.0000
57.3600 231.0000 1.0000
57.3700 261.0000 1.0000
57.3800 249.0000 1.0000
57.3900 251.0000 1.0000
57.4000 247.0000 1.0000
57.4100 260.0000 1.0000
57.4200 251.0000 1.0000
57.4300 237.0000 1.0000
57.4400 252.0000 1.0000
57.4500 256.0000 1.0000
57.4600 265.0000 1.0000
57.4700 254.0000 1.0000
57.4800 262.0000 1.0000
57.4900 241.0000 1.0000
57.5000 253.0000 1.0000
57.5100 249.0000 1.0000
57.5200 274.0000 1.0000
57.5300 280.0000 1.0000
57.5400 264.0000 1.0000
57.5500 257.0000 1.0000
57.5600 246.0000 1.0000
57.5700 247.0000 1.0000
57.5800 261.0000 1.0000
57.5900 253.0000 1.0000
57.6000 257.0000 1.0000
57.6100 243.0000 1.0000
57.6200 219.0000 1.0000
57.6300 225.0000 1.0000
57.6400 264.0000 1.0000
57.6500 257.0000 1.0000
57.6600 220.0000 1.0000
57.6700 245.0000 1.0000
57.6800 267.0000 1.0000
57.6900 261.0000 1.0000
57.7000 230.0000 1.0000
57.7100 251.0000 1.0000
57.7200 231.0000 1.0000
57.7300 261.0000 1.0000
57.7400 250.0000 1.0000
57.7500 238.0000 1.0000
57.7600 248.0000 1.0000
57.7700 224.0000 1.0000
57.7800 230.0000 1.0000
57.7900 254.0000 1.0000
57.8000 248.0000 1.0000
57.8100 216.0000 1.0000
57.8200 244.0000 1.0000
57.8300 257.0000 1.0000
57.8400 232.0000 1.0000
57.8500 230.0000 1.0000
57.8600 226.0000 1.0000
57.8700 247.0000 1.0000
57.8800 240.0000 1.0000
57.8900 237.0000 1.0000
57.9000 246.0000 1.0000
57.9100 273.0000 1.0000
57.9200 280.0000 1.0000
57.9300 255.0000 1.0000
57.9400 247.0000 1.0000
57.9500 239.0000 1.0000
57.9600 235.0000 1.0000
57.9700 248.0000 1.0000
57.9800 249.0000 1.0000
57.9900 247.0000 1.0000
58.0000 249.0000 1.0000
58.0100 252.0000 1.0000
58.0200 244.0000 1.0000
58.0300 250.0000 1.0000
58.0400 254.0000 1.0000
58.0500 246.0000 1.0000
58.0600 232.0000 1.0000
58.0700 224.0000 1.0000
58.0800 235.0000 1.0000
58.0900 268.0000 1.0000
58.1000 250.0000 1.0000
58.1100 252.0000 1.0000
58.1200 232.0000 1.0000
58.1300 250.0000 1.0000
58.1400 251.0000 1.0000
58.1500 241.0000 1.0000
58.1600 250.0000 1.0000
58.1700 251.0000 1.0000
58.1800 231.0000 1.0000
58.1900 243.0000 1.0000
58.2000 243.0000 1.0000
58.2100 265.0000 1.0000
58.2200 278.0000 1.0000
58.2300 239.0000 1.0000
58.2400 234.0000 1.0000
58.2500 223.0000 1.0000
58.2600 260.0000 1.0000
58.2700 225.0000 1.0000
58.2800 250.0000 1.0000
58.2900 242.0000 1.0000
58.3000 243.0000 1.0000
58.3100 258.0000 1.0000
58.3200 271.0000 1.0000
58.3300 246.0000 1.0000
58.3400 257.0000 1.0000
58.3500 267.0000 1.0000
58.3600 253.0000 1.0000
58.3700 234.0000 1.0000
58.3800 234.0000 1.0000
58.3900 257.0000 1.0000
58.4000 240.0000 1.0000
58.4100 270.0000 1.0000
58.4200 240.0000 1.0000
58.4300 252.0000 1.0000
58.4400 257.0000 1.0000
58.4500 251.0000 1.0000
58.4600 256.0000 1.0000
58.4700 244.0000 1.0000
58.4800 230.0000 1.0000
58.4900 276.0000 1.0000
58.5000 248.0000 1.0000
58.5100 229.0000 1.0000
58.5200 217.0000 1.0000
58.5300 230.0000 1.0000
58.5400 228.0000 1.0000
58.5500 251.0000 1.0000
58.5600 240.0000 1.0000
58.5700 229.0000 1.0000
58.5800 255.0000 1.0000
58.5900 231.0000 1.0000
58.6000 226.0000 1.0000
58.6100 244.0000 1.0000
58.6200 235.0000 1.0000
58.6300 259.0000 1.0000
58.6400 238.0000 1.0000
58.6500 259.0000 1.0000
58.6600 239.0000 1.0000
58.6700 258.0000 1.0000
58.6800 278.0000 1.0000
58.6900 253.0000 1.0000
58.7000 238.0000 1.0000
58.7100 240.0000 1.0000
58.7200 236.0000 1.0000
58.7300 248.0000 1.0000
58.7400 238.0000 1.0000
58.7500 233.0000 1.0000
58.7600 252.0000 1.0000
58.7700 246.0000 1.0000
58.7800 233.0000 1.0000
58.7900 250.0000 1.0000
58.8000 256.0000 1.0000
58.8100 265.0000 1.0000
58.8200 275.0000 1.0000
58.8300 261.0000 1.0000
58.8400 244.0000 1.0000
58.8500 247.0000 1.0000
58.8600 253.0000 1.0000
58.8700 241.0000 1.0000
58.8800 258.0000 1.0000
58.8900 234.0000 1.0000
58.9000 240.0000 1.0000
58.9100 212.0000 1.0000
58.9200 219.0000 1.0000
58.9300 231.0000 1.0000
58.9400 243.0000 1.0000
58.9500 274.0000 1.0000
58.9600 256.0000 1.0000
58.9700 245.0000 1.0000
58.9800 247.0000 1.0000
58.9900 270.0000 1.0000
59.0000 257.0000 1.0000
59.0100 246.0000 1.0000
59.0200 245.0000 1.0000
59.0300 253.0000 1.0000
59.0400 253.0000 1.0000
59.0500 237.0000 1.0000
59.0600 227.0000 1.0000
59.0700 248.0000 1.0000
59.0800 255.0000 1.0000
59.0900 265.0000 1.0000
59.1000 236.0000 1.0000
59.1100 242.0000 1.0000
59.1200 249.0000 1.0000
59.1300 257.0000 1.0000
59.1400 251.0000 1.0000
59.1500 218.0000 1.0000
59.1600 221.0000 1.0000
59.1700 240.0000 1.0000
59.1800 244.0000 1.0000
59.1900 210.0000 1.0000
59.2000 253.0000 1.0000
59.2100 234.0000 1.0000
59.2200 268.0000 1.0000
59.2300 247.0000 1.0000
59.2400 235.0000 1.0000
59.2500 253.0000 1.0000
59.2600 277.0000 1.0000
59.2700 267.0000 1.0000
59.2800 250.0000 1.0000
59.2900 222.0000 1.0000
59.3000 249.0000 1.0000
59.3100 249.0000 1.0000
59.3200 248.0000 1.0000
59.3300 219.0000 1.0000
59.3400 247.0000 1.0000
59.3500 253.0000 1.0000
59.3600 231.0000 1.0000
59.3700 237.0000 1.0000
59.3800 254.0000 1.0000
59.3900 236.0000 1.0000
59.4000 248.0000 1.0000
59.4100 213.0000 1.0000
59.4200 225.0000 1.0000
59.4300 240.0000 1.0000
59.4400 242.0000 1.0000
59.4500 230.0000 1.0000
59.4600 252.0000 1.0000
59.4700 261.0000 1.0000
59.4800 245.0000 1.0000
59.4900 241.0000 1.0000
59.5000 252.0000 1.0000
59.5100 265.0000 1.0000
59.5200 267.0000 1.0000
59.5300 245.0000 1.0000
59.5400 259.0000 1.0000
59.5500 221.0000 1.0000
59.5600 248.0000 1.0000
59.5700 252.0000 1.0000
59.5800 258.0000 1.0000
59.5900 256.0000 1.0000
59.6000 273.0000 1.0000
59.6100 243.0000 1.0000
59.6200 245.0000 1.0000
59.6300 222.0000 1.0000
59.6400 258.0000 1.0000
59.6500 235.0000 1.0000
59.6600 266.0000 1.0000
59.6700 244.0000 1.0000
59.6800 245.0000 1.0000
59.6900 279.0000 1.0000
59.7000 277.0000 1.0000
59.7100 244.0000 1.0000
59.7200 234.0000 1.0000
59.7300 242.0000 1.0000
59.7400 254.0000 1.0000
59.7500 219.0000 1.0000
59.7600 260.0000 1.0000
59.7700 253.0000 1.0000
59.7800 256.0000 1.0000
59.7900 246.0000 1.0000
59.8000 246.0000 1.0000
59.8100 234.0000 1.0000
59.8200 255.0000 1.0000
59.8300 267.0000 1.0000
59.8400 251.0000 1.0000
59.8500 248.0000 1.0000
59.8600 235.0000 1.0000
59.8700 231.0000 1.0000
59.8800 238.0000 1.0000
59.8900 237.0000 1.0000
59.9000 226.0000 1.0000
59.9100 261.0000 1.0000
59.9200 252.0000 1.0000
59.9300 236.0000 1.0000
59.9400 243.0000 1.0000
59.9500 242.0000 1.0000
59.9600 264.0000 1.0000
59.9700 249.0000 1.0000
59.9800 247.0000 1.0000
59.9900 257.0000 1.0000
60.0000 254.0000 1.0000
60.0100 242.0000 1.0000
60.0200 249.0000 1.0000
60.0300 259.0000 1.0000
60.0400 246.0000 1.0000
60.0500 231.0000 1.0000
60.0600 243.0000 1.0000
60.0700 221.0000 1.0000
60.0800 249.0000 1.0000
60.0900 279.0000 1.0000
60.1000 232.0000 1.0000
60.1100 215.0000 1.0000
60.1200 264.0000 1.0000
60.1300 276.0000 1.0000
60.1400 239.0000 1.0000
60.1500 234.0000 1.0000
60.1600 264.0000 1.0000
60.1700 245.0000 1.0000
60.1800 230.0000 1.0000
60.1900 244.0000 1.0000
60.2000 238.0000 1.0000
60.2100 225.0000 1.0000
60.2200 208.0000 1.0000
60.2300 237.0000 1.0000
60.2400 258.0000 1.0000
60.2500 278.0000 1.0000
60.2600 229.0000 1.0000
60.2700 224.0000 1.0000
60.2800 240.0000 1.0000
60.2900 248.0000 1.0000
60.3000 269.0000 1.0000
60.3100 243.0000 1.0000
60.3200 247.0000 1.0000
60.3300 226.0000 1.0000
60.3400 234.0000 1.0000
60.3500 253.0000 1.0000
60.3600 234.0000 1.0000
60.3700 203.0000 1.0000
60.3800 241.0000 1.0000
60.3900 240.0000 1.0000
60.4000 253.0000 1.0000
60.4100 231.0000 1.0000
60.4200 255.0000 1.0000
60.4300 239.0000 1.0000
60.4400 247.0000 1.0000
60.4500 242.0000 1.0000
60.4600 231.0000 1.0000
60.4700 242.0000 1.0000
60.4800 239.0000 1.0000
60.4900 224.0000 1.0000
60.5000 232.0000 1.0000
60.5100 258.0000 1.0000
60.5200 232.0000 1.0000
60.5300 254.0000 1.0000
60.5400 267.0000 1.0000
60.5500 252.0000 1.0000
60.5600 261.0000 1.0000
60.5700 257.0000 1.0000
60.5800 264.0000 1.0000
60.5900 246.0000 1.0000
60.6000 229.0000 1.0000
60.6100 261.0000 1.0000
60.6200 251.0000 1.0000
60.6300 261.0000 1.0000
60.6400 253.0000 1.0000
60.6500 243.0000 1.0000
60.6600 254.0000 1.0000
60.6700 262.0000 1.0000
60.6800 239.0000 1.0000
60.6900 244.0000 1.0000
60.7000 256.0000 1.0000
60.7100 267.0000 1.0000
60.7200 241.0000 1.0000
60.7300 270.0000 1.0000
60.7400 274.0000 1.0000
60.7500 250.0000 1.0000
60.7600 270.0000 1.0000
60.7700 239.0000 1.0000
60.7800 268.0000 1.0000
60.7900 250.0000 1.0000
60.8000 239.0000 1.0000
60.8100 250.0000 1.0000
60.8200 263.0000 1.0000
60.8300 252.0000 1.0000
60.8400 271.0000 1.0000
60.8500 253.0000 1.0000
60.8600 264.0000 1.0000
60.8700 261.0000 1.0000
60.8800 290.0000 1.0000
60.8900 253.0000 1.0000
60.9000 236.0000 1.0000
60.9100 250.0000 1.0000
60.9200 290.0000 1.0000
60.9300 272.0000 1.0000
60.9400 255.0000 1.0000
60.9500 255.0000 1.0000
60.9600 247.0000 1.0000
60.9700 257.0000 1.0000
60.9800 272.0000 1.0000
60.9900 265.0000 1.0000
61.0000 277.0000 1.0000
61.0100 271.0000 1.0000
61.0200 276.0000 1.0000
61.0300 272.0000 1.0000
61.0400 285.0000 1.0000
61.0500 290.0000 1.0000
61.0600 256.0000 1.0000
61.0700 280.0000 1.0000
61.0800 266.0000 1.0000
61.0900 279.0000 1.0000
61.1000 263.0000 1.0000
61.1100 267.0000 1.0000
61.1200 268.0000 1.0000
61.1300 284.0000 1.0000
61.1400 279.0000 1.0000
61.1500 277.0000 1.0000
61.1600 292.0000 1.0000
61.1700 273.0000 1.0000
61.1800 294.0000 1.0000
61.1900 317.0000 1.0000
61.2000 321.0000 1.0000
61.2100 301.0000 1.0000
61.2200 300.0000 1.0000
61.2300 315.0000 1.0000
61.2400 323.0000 1.0000
61.2500 309.0000 1.0000
61.2600 317.0000 1.0000
61.2700 308.0000 1.0000
61.2800 349.0000 1.0000
61.2900 357.0000 1.0000
61.3000 341.0000 1.0000
61.3100 361.0000 1.0000
61.3200 373.0000 1.0000
61.3300 356.0000 1.0000
61.3400 393.0000 1.0000
61.3500 368.0000 1.0000
61.3600 393.0000 1.0000
61.3700 363.0000 1.0000
61.3800 399.0000 1.0000
61.3900 394.0000 1.0000
61.4000 423.0000 1.0000
61.4100 443.0000 1.0000
61.4200 432.0000 1.0000
61.4300 450.0000 1.0000
61.4400 441.0000 1.0000
61.4500 439.0000 1.0000
61.4600 478.0000 1.0000
61.4700 481.0000 1.0000
61.4800 486.0000 1.0000
61.4900 497.0000 1.0000
61.5000 477.0000 1.0000
61.5100 492.0000 1.0000
61.5200 509.0000 1.0000
61.5300 497.0000 1.0000
61.5400 475.0000 1.0000
61.5500 506.0000 1.0000
61.5600 488.0000 1.0000
61.5700 536.0000 1.0000
61.5800 528.0000 1.0000
61.5900 567.0000 1.0000
61.6000 530.0000 1.0000
61.6100 510.0000 1.0000
61.6200 485.0000 1.0000
61.6300 519.0000 1.0000
61.6400 539.0000 1.0000
61.6500 551.0000 1.0000
61.6600 530.0000 1.0000
61.6700 489.0000 1.0000
61.6800 495.0000 1.0000
61.6900 468.0000 1.0000
61.7000 481.0000 1.0000
61.7100 455.0000 1.0000
61.7200 457.0000 1.0000
61.7300 444.0000 1.0000
61.7400 459.0000 1.0000
61.7500 468.0000 1.0000
61.7600 456.0000 1.0000
61.7700 447.0000 1.0000
61.7800 435.0000 1.0000
61.7900 424.0000 1.0000
61.8000 445.0000 1.0000
61.8100 419.0000 1.0000
61.8200 442.0000 1.0000
61.8300 376.0000 1.0000
61.8400 422.0000 1.0000
61.8500 359.0000 1.0000
61.8600 384.0000 1.0000
61.8700 386.0000 1.0000
61.8800 375.0000 1.0000
61.8900 401.0000 1.0000
61.9000 344.0000 1.0000
61.9100 343.0000 1.0000
61.9200 400.0000 1.0000
61.9300 352.0000 1.0000
61.9400 315.0000 1.0000
61.9500 336.0000 1.0000
61.9600 354.0000 1.0000
61.9700 339.0000 1.0000
61.9800 339.0000 1.0000
61.9900 328.0000 1.0000
62.0000 302.0000 1.0000
62.0100 299.0000 1.0000
62.0200 312.0000 1.0000
62.0300 334.0000 1.0000
62.0400 296.0000 1.0000
62.0500 297.0000 1.0000
62.0600 320.0000 1.0000
62.0700 300.0000 1.0000
62.0800 319.0000 1.0000
62.0900 317.0000 1.0000
62.1000 291.0000 1.0000
62.1100 275.0000 1.0000
62.1200 291.0000 1.0000
62.1300 290.0000 1.0000
62.1400 267.0000 1.0000
62.1500 284.0000 1.0000
62.1600 259.0000 1.0000
62.1700 289.0000 1.0000
62.1800 290.0000 1.0000
62.1900 279.0000 1.0000
62.2000 300.0000 1.0000
62.2100 286.0000 1.0000
62.2200 287.0000 1.0000
62.2300 279.0000 1.0000
62.2400 282.0000 1.0000
62.2500 300.0000 1.0000
62.2600 286.0000 1.0000
62.2700 283.0000 1.0000
62.2800 302.0000 1.0000
62.2900 292.0000 1.0000
62.3000 276.0000 1.0000
62.3100 294.0000 1.0000
62.3200 291.0000 1.0000
62.3300 285.0000 1.0000
62.3400 288.0000 1.0000
62.3500 255.0000 1.0000
62.3600 273.0000 1.0000
62.3700 286.0000 1.0000
62.3800 288.0000 1.0000
62.3900 300.0000 1.0000
62.4000 287.0000 1.0000
62.4100 307.0000 1.0000
62.4200 277.0000 1.0000
62.4300 292.0000 1.0000
62.4400 290.0000 1.0000
62.4500 286.0000 1.0000
62.4600 301.0000 1.0000
62.4700 287.0000 1.0000
62.4800 305.0000 1.0000
62.4900 274.0000 1.0000
62.5000 270.0000 1.0000
62.5100 264.0000 1.0000
62.5200 266.0000 1.0000
62.5300 270.0000 1.0000
62.5400 281.0000 1.0000
62.5500 274.0000 1.0000
62.5600 266.0000 1.0000
62.5700 288.0000 1.0000
62.5800 280.0000 1.0000
62.5900 265.0000 1.0000
62.6000 289.0000 1.0000
62.6100 271.0000 1.0000
62.6200 268.0000 1.0000
62.6300 252.0000 1.0000
62.6400 256.0000 1.0000
62.6500 244.0000 1.0000
62.6600 271.0000 1.0000
62.6700 272.0000 1.0000
62.6800 288.0000 1.0000
62.6900 255.0000 1.0000
62.7000 251.0000 1.0000
62.7100 290.0000 1.0000
62.7200 268.0000 1.0000
62.7300 263.0000 1.0000
62.7400 232.0000 1.0000
62.7500 260.0000 1.0000
62.7600 257.0000 1.0000
62.7700 240.0000 1.0000
62.7800 239.0000 1.0000
62.7900 278.0000 1.0000
62.8000 248.0000 1.0000
62.8100 259.0000 1.0000
62.8200 245.0000 1.0000
62.8300 263.0000 1.0000
62.8400 237.0000 1.0000
62.8500 229.0000 1.0000
62.8600 257.0000 1.0000
62.8700 243.0000 1.0000
62.8800 244.0000 1.0000
62.8900 237.0000 1.0000
62.9000 257.0000 1.0000
62.9100 257.0000 1.0000
62.9200 253.0000 1.0000
62.9300 272.0000 1.0000
62.9400 240.0000 1.0000
62.9500 257.0000 1.0000
62.9600 251.0000 1.0000
62.9700 226.0000 1.0000
62.9800 251.0000 1.0000
62.9900 255.0000 1.0000
63.0000 255.0000 1.0000
63.0100 256.0000 1.0000
63.0200 272.0000 1.0000
63.0300 244.0000 1.0000
63.0400 248.0000 1.0000
63.0500 251.0000 1.0000
63.0600 248.0000 1.0000
63.0700 255.0000 1.0000
63.0800 264.0000 1.0000
63.0900 262.0000 1.0000
63.1000 263.0000 1.0000
63.1100 247.0000 1.0000
63.1200 234.0000 1.0000
63.1300 249.0000 1.0000
63.1400 250.0000 1.0000
63.1500 271.0000 1.0000
63.1600 240.0000 1.0000
63.1700 254.0000 1.0000
63.1800 265.0000 1.0000
63.1900 252.0000 1.0000
63.2000 228.0000 1.0000
63.2100 246.0000 1.0000
63.2200 273.0000 1.0000
63.2300 240.0000 1.0000
63.2400 257.0000 1.0000
63.2500 259.0000 1.0000
63.2600 246.0000 1.0000
63.2700 233.0000 1.0000
63.2800 245.0000 1.0000
63.2900 241.0000 1.0000
63.3000 236.0000 1.0000
63.3100 253.0000 1.0000
63.3200 269.0000 1.0000
63.3300 242.0000 1.0000
63.3400 221.0000 1.0000
63.3500 258.0000 1.0000
63.3600 257.0000 1.0000
63.3700 252.0000 1.0000
63.3800 270.0000 1.0000
63.3900 232.0000 1.0000
63.4000 262.0000 1.0000
63.4100 249.0000 1.0000
63.4200 258.0000 1.0000
63.4300 257.0000 1.0000
63.4400 235.0000 1.0000
63.4500 248.0000 1.0000
63.4600 267.0000 1.0000
63.4700 243.0000 1.0000
63.4800 242.0000 1.0000
63.4900 226.0000 1.0000
63.5000 235.0000 1.0000
63.5100 264.0000 1.0000
63.5200 260.0000 1.0000
63.5300 240.0000 1.0000
63.5400 231.0000 1.0000
63.5500 234.0000 1.0000
63.5600 261.0000 1.0000
63.5700 230.0000 1.0000
63.5800 257.0000 1.0000
63.5900 240.0000 1.0000
63.6000 226.0000 1.0000
63.6100 246.0000 1.0000
63.6200 232.0000 1.0000
63.6300 252.0000 1.0000
63.6400 257.0000 1.0000
63.6500 232.0000 1.0000
63.6600 260.0000 1.0000
63.6700 246.0000 1.0000
63.6800 238.0000 1.0000
63.6900 268.0000 1.0000
63.7000 264.0000 1.0000
63.7100 261.0000 1.0000
63.7200 235.0000 1.0000
63.7300 227.0000 1.0000
63.7400 274.0000 1.0000
63.7500 282.0000 1.0000
63.7600 267.0000 1.0000
63.7700 259.0000 1.0000
63.7800 248.0000 1.0000
63.7900 262.0000 1.0000
63.8000 292.0000 1.0000
63.8100 279.0000 1.0000
63.8200 280.0000 1.0000
63.8300 260.0000 1.0000
63.8400 274.0000 1.0000
63.8500 266.0000 1.0000
63.8600 260.0000 1.0000
63.8700 281.0000 1.0000
63.8800 282.0000 1.0000
63.8900 286.0000 1.0000
63.9000 334.0000 1.0000
63.9100 292.0000 1.0000
63.9200 306.0000 1.0000
63.9300 290.0000 1.0000
63.9400 299.0000 1.0000
63.9500 291.0000 1.0000
63.9600 302.0000 1.0000
63.9700 302.0000 1.0000
63.9800 311.0000 1.0000
63.9900 295.0000 1.0000
64.0000 299.0000 1.0000
64.0100 317.0000 1.0000
64.0200 292.0000 1.0000
64.0300 286.0000 1.0000
64.0400 265.0000 1.0000
64.0500 295.0000 1.0000
64.0600 312.0000 1.0000
64.0700 271.0000 1.0000
64.0800 293.0000 1.0000
64.0900 306.0000 1.0000
64.1000 275.0000 1.0000
64.1100 275.0000 1.0000
64.1200 299.0000 1.0000
64.1300 261.0000 1.0000
64.1400 274.0000 1.0000
64.1500 273.0000 1.0000
64.1600 291.0000 1.0000
64.1700 275.0000 1.0000
64.1800 303.0000 1.0000
64.1900 289.0000 1.0000
64.2000 263.0000 1.0000
64.2100 274.0000 1.0000
64.2200 263.0000 1.0000
64.2300 268.0000 1.0000
64.2400 242.0000 1.0000
64.2500 258.0000 1.0000
64.2600 264.0000 1.0000
64.2700 275.0000 1.0000
64.2800 242.0000 1.0000
64.2900 245.0000 1.0000
64.3000 249.0000 1.0000
64.3100 240.0000 1.0000
64.3200 256.0000 1.0000
64.3300 272.0000 1.0000
64.3400 256.0000 1.0000
64.3500 260.0000 1.0000
64.3600 254.0000 1.0000
64.3700 280.0000 1.0000
64.3800 245.0000 1.0000
64.3900 258.0000 1.0000
64.4000 261.0000 1.0000
64.4100 257.0000 1.0000
64.4200 235.0000 1.0000
64.4300 265.0000 1.0000
64.4400 235.0000 1.0000
64.4500 237.0000 1.0000
64.4600 260.0000 1.0000
64.4700 265.0000 1.0000
64.4800 257.0000 1.0000
64.4900 240.0000 1.0000
64.5000 248.0000 1.0000
64.5100 257.0000 1.0000
64.5200 267.0000 1.0000
64.5300 238.0000 1.0000
64.5400 259.0000 1.0000
64.5500 238.0000 1.0000
64.5600 271.0000 1.0000
64.5700 269.0000 1.0000
64.5800 261.0000 1.0000
64.5900 232.0000 1.0000
64.6000 251.0000 1.0000
64.6100 253.0000 1.0000
64.6200 271.0000 1.0000
64.6300 248.0000 1.0000
64.6400 250.0000 1.0000
64.6500 259.0000 1.0000
64.6600 281.0000 1.0000
64.6700 262.0000 1.0000
64.6800 257.0000 1.0000
64.6900 274.0000 1.0000
64.7000 249.0000 1.0000
64.7100 252.0000 1.0000
64.7200 258.0000 1.0000
64.7300 260.0000 1.0000
64.7400 234.0000 1.0000
64.7500 248.0000 1.0000
64.7600 257.0000 1.0000
64.7700 258.0000 1.0000
64.7800 276.0000 1.0000
64.7900 244.0000 1.0000
64.8000 276.0000 1.0000
64.8100 233.0000 1.0000
64.8200 286.0000 1.0000
64.8300 264.0000 1.0000
64.8400 259.0000 1.0000
64.8500 248.0000 1.0000
64.8600 255.0000 1.0000
64.8700 246.0000 1.0000
64.8800 262.0000 1.0000
64.8900 266.0000 1.0000
64.9000 279.0000 1.0000
64.9100 302.0000 1.0000
64.9200 268.0000 1.0000
64.9300 280.0000 1.0000
64.9400 271.0000 1.0000
64.9500 266.0000 1.0000
64.9600 307.0000 1.0000
64.9700 299.0000 1.0000
64.9800 284.0000 1.0000
64.9900 285.0000 1.0000
65.0000 302.0000 1.0000
65.0100 296.0000 1.0000
65.0200 285.0000 1.0000
65.0300 282.0000 1.0000
65.0400 285.0000 1.0000
65.0500 283.0000 1.0000
65.0600 283.0000 1.0000
65.0700 295.0000 1.0000
65.0800 300.0000 1.0000
65.0900 293.0000 1.0000
65.1000 281.0000 1.0000
65.1100 312.0000 1.0000
65.1200 323.0000 1.0000
65.1300 315.0000 1.0000
65.1400 331.0000 1.0000
65.1500 311.0000 1.0000
65.1600 325.0000 1.0000
65.1700 337.0000 1.0000
65.1800 345.0000 1.0000
65.1900 343.0000 1.0000
65.2000 344.0000 1.0000
65.2100 385.0000 1.0000
65.2200 355.0000 1.0000
65.2300 370.0000 1.0000
65.2400 348.0000 1.0000
65.2500 365.0000 1.0000
65.2600 403.0000 1.0000
65.2700 392.0000 1.0000
65.2800 412.0000 1.0000
65.2900 443.0000 1.0000
65.3000 448.0000 1.0000
65.3100 454.0000 1.0000
65.3200 492.0000 1.0000
65.3300 508.0000 1.0000
65.3400 489.0000 1.0000
65.3500 489.0000 1.0000
65.3600 531.0000 1.0000
65.3700 597.0000 1.0000
65.3800 590.0000 1.0000
65.3900 608.0000 1.0000
65.4000 644.0000 1.0000
65.4100 651.0000 1.0000
65.4200 697.0000 1.0000
65.4300 736.0000 1.0000
65.4400 758.0000 1.0000
65.4500 790.0000 1.0000
65.4600 804.0000 1.0000
65.4700 813.0000 1.0000
65.4800 807.0000 1.0000
65.4900 841.0000 1.0000
65.5000 835.0000 1.0000
65.5100 795.0000 1.0000
65.5200 840.0000 1.0000
65.5300 788.0000 1.0000
65.5400 769.0000 1.0000
65.5500 823.0000 1.0000
65.5600 756.0000 1.0000
65.5700 769.0000 1.0000
65.5800 767.0000 1.0000
65.5900 741.0000 1.0000
65.6000 770.0000 1.0000
65.6100 739.0000 1.0000
65.6200 703.0000 1.0000
65.6300 671.0000 1.0000
65.6400 708.0000 1.0000
65.6500 670.0000 1.0000
65.6600 674.0000 1.0000
65.6700 676.0000 1.0000
65.6800 676.0000 1.0000
65.6900 657.0000 1.0000
65.7000 646.0000 1.0000
65.7100 609.0000 1.0000
65.7200 583.0000 1.0000
65.7300 592.0000 1.0000
65.7400 563.0000 1.0000
65.7500 526.0000 1.0000
65.7600 528.0000 1.0000
65.7700 523.0000 1.0000
65.7800 495.0000 1.0000
65.7900 499.0000 1.0000
65.8000 431.0000 1.0000
65.8100 444.0000 1.0000
65.8200 468.0000 1.0000
65.8300 418.0000 1.0000
65.8400 398.0000 1.0000
65.8500 401.0000 1.0000
65.8600 410.0000 1.0000
65.8700 362.0000 1.0000
65.8800 365.0000 1.0000
65.8900 328.0000 1.0000
65.9000 354.0000 1.0000
65.9100 367.0000 1.0000
65.9200 316.0000 1.0000
65.9300 343.0000 1.0000
65.9400 338.0000 1.0000
65.9500 321.0000 1.0000
65.9600 315.0000 1.0000
65.9700 304.0000 1.0000
65.9800 303.0000 1.0000
65.9900 310.0000 1.0000
66.0000 313.0000 1.0000
66.0100 301.0000 1.0000
66.0200 309.0000 1.0000
66.0300 280.0000 1.0000
66.0400 297.0000 1.0000
66.0500 287.0000 1.0000
66.0600 274.0000 1.0000
66.0700 292.0000 1.0000
66.0800 299.0000 1.0000
66.0900 315.0000 1.0000
66.1000 293.0000 1.0000
66.1100 259.0000 1.0000
66.1200 262.0000 1.0000
66.1300 271.0000 1.0000
66.1400 268.0000 1.0000
66.1500 291.0000 1.0000
66.1600 267.0000 1.0000
66.1700 265.0000 1.0000
66.1800 274.0000 1.0000
66.1900 250.0000 1.0000
66.2000 259.0000 1.0000
66.2100 255.0000 1.0000
66.2200 231.0000 1.0000
66.2300 263.0000 1.0000
66.2400 280.0000 1.0000
66.2500 275.0000 1.0000
66.2600 230.0000 1.0000
66.2700 266.0000 1.0000
66.2800 244.0000 1.0000
66.2900 230.0000 1.0000
66.3000 274.0000 1.0000
66.3100 254.0000 1.0000
66.3200 229.0000 1.0000
66.3300 226.0000 1.0000
66.3400 235.0000 1.0000
66.3500 245.0000 1.0000
66.3600 237.0000 1.0000
66.3700 264.0000 1.0000
66.3800 228.0000 1.0000
66.3900 252.0000 1.0000
66.4000 263.0000 1.0000
66.4100 252.0000 1.0000
66.4200 249.0000 1.0000
66.4300 233.0000 1.0000
66.4400 229.0000 1.0000
66.4500 228.0000 1.0000
66.4600 237.0000 1.0000
66.4700 239.0000 1.0000
66.4800 234.0000 1.0000
66.4900 260.0000 1.0000
66.5000 261.0000 1.0000
66.5100 241.0000 1.0000
66.5200 240.0000 1.0000
66.5300 234.0000 1.0000
66.5400 228.0000 1.0000
66.5500 246.0000 1.0000
66.5600 243.0000 1.0000
66.5700 251.0000 1.0000
66.5800 234.0000 1.0000
66.5900 229.0000 1.0000
66.6000 234.0000 1.0000
66.6100 227.0000 1.0000
66.6200 234.0000 1.0000
66.6300 207.0000 1.0000
66.6400 216.0000 1.0000
66.6500 233.0000 1.0000
66.6600 231.0000 1.0000
66.6700 219.0000 1.0000
66.6800 225.0000 1.0000
66.6900 227.0000 1.0000
66.7000 236.0000 1.0000
66.7100 226.0000 1.0000
66.7200 246.0000 1.0000
66.7300 258.0000 1.0000
66.7400 243.0000 1.0000
66.7500 229.0000 1.0000
66.7600 233.0000 1.0000
66.7700 230.0000 1.0000
66.7800 235.0000 1.0000
66.7900 224.0000 1.0000
66.8000 229.0000 1.0000
66.8100 247.0000 1.0000
66.8200 243.0000 1.0000
66.8300 252.0000 1.0000
66.8400 250.0000 1.0000
66.8500 221.0000 1.0000
66.8600 213.0000 1.0000
66.8700 221.0000 1.0000
66.8800 230.0000 1.0000
66.8900 221.0000 1.0000
66.9000 226.0000 1.0000
66.9100 230.0000 1.0000
66.9200 237.0000 1.0000
66.9300 243.0000 1.0000
66.9400 225.0000 1.0000
66.9500 249.0000 1.0000
66.9600 257.0000 1.0000
66.9700 227.0000 1.0000
66.9800 255.0000 1.0000
66.9900 226.0000 1.0000
67.0000 233.0000 1.0000
67.0100 239.0000 1.0000
67.0200 227.0000 1.0000
67.0300 223.0000 1.0000
67.0400 243.0000 1.0000
67.0500 251.0000 1.0000
67.0600 235.0000 1.0000
67.0700 240.0000 1.0000
67.0800 249.0000 1.0000
67.0900 249.0000 1.0000
67.1000 252.0000 1.0000
67.1100 227.0000 1.0000
67.1200 239.0000 1.0000
67.1300 247.0000 1.0000
67.1400 225.0000 1.0000
67.1500 221.0000 1.0000
67.1600 238.0000 1.0000
67.1700 257.0000 1.0000
67.1800 228.0000 1.0000
67.1900 222.0000 1.0000
67.2000 232.0000 1.0000
67.2100 220.0000 1.0000
67.2200 244.0000 1.0000
67.2300 251.0000 1.0000
67.2400 255.0000 1.0000
67.2500 242.0000 1.0000
67.2600 208.0000 1.0000
67.2700 233.0000 1.0000
67.2800 219.0000 1.0000
67.2900 214.0000 1.0000
67.3000 224.0000 1.0000
67.3100 214.0000 1.0000
67.3200 199.0000 1.0000
67.3300 206.0000 1.0000
67.3400 245.0000 1.0000
67.3500 221.0000 1.0000
67.3600 238.0000 1.0000
67.3700 224.0000 1.0000
67.3800 253.0000 1.0000
67.3900 192.0000 1.0000
67.4000 212.0000 1.0000
67.4100 203.0000 1.0000
67.4200 194.0000 1.0000
67.4300 231.0000 1.0000
67.4400 211.0000 1.0000
67.4500 233.0000 1.0000
67.4600 203.0000 1.0000
67.4700 231.0000 1.0000
67.4800 221.0000 1.0000
67.4900 221.0000 1.0000
67.5000 223.0000 1.0000
67.5100 250.0000 1.0000
67.5200 234.0000 1.0000
67.5300 213.0000 1.0000
67.5400 203.0000 1.0000
67.5500 211.0000 1.0000
67.5600 229.0000 1.0000
67.5700 202.0000 1.0000
67.5800 238.0000 1.0000
67.5900 210.0000 1.0000
67.6000 226.0000 1.0000
67.6100 230.0000 1.0000
67.6200 236.0000 1.0000
67.6300 242.0000 1.0000
67.6400 220.0000 1.0000
67.6500 240.0000 1.0000
67.6600 258.0000 1.0000
67.6700 227.0000 1.0000
67.6800 236.0000 1.0000
67.6900 228.0000 1.0000
67.7000 203.0000 1.0000
67.7100 221.0000 1.0000
67.7200 212.0000 1.0000
67.7300 197.0000 1.0000
67.7400 250.0000 1.0000
67.7500 221.0000 1.0000
67.7600 217.0000 1.0000
67.7700 214.0000 1.0000
67.7800 234.0000 1.0000
67.7900 220.0000 1.0000
67.8000 227.0000 1.0000
67.8100 216.0000 1.0000
67.8200 220.0000 1.0000
67.8300 248.0000 1.0000
67.8400 247.0000 1.0000
67.8500 234.0000 1.0000
67.8600 212.0000 1.0000
67.8700 201.0000 1.0000
67.8800 242.0000 1.0000
67.8900 209.0000 1.0000
67.9000 218.0000 1.0000
67.9100 231.0000 1.0000
67.9200 212.0000 1.0000
67.9300 211.0000 1.0000
67.9400 249.0000 1.0000
67.9500 222.0000 1.0000
67.9600 218.0000 1.0000
67.9700 231.0000 1.0000
67.9800 210.0000 1.0000
67.9900 225.0000 1.0000
68.0000 218.0000 1.0000
68.0100 214.0000 1.0000
68.0200 197.0000 1.0000
68.0300 220.0000 1.0000
68.0400 227.0000 1.0000
68.0500 222.0000 1.0000
68.0600 217.0000 1.0000
68.0700 202.0000 1.0000
68.0800 224.0000 1.0000
68.0900 237.0000 1.0000
68.1000 223.0000 1.0000
68.1100 229.0000 1.0000
68.1200 214.0000 1.0000
68.1300 247.0000 1.0000
68.1400 204.0000 1.0000
68.1500 227.0000 1.0000
68.1600 218.0000 1.0000
68.1700 221.0000 1.0000
68.1800 212.0000 1.0000
68.1900 200.0000 1.0000
68.2000 210.0000 1.0000
68.2100 224.0000 1.0000
68.2200 208.0000 1.0000
68.2300 210.0000 1.0000
68.2400 219.0000 1.0000
68.2500 229.0000 1.0000
68.2600 231.0000 1.0000
68.2700 216.0000 1.0000
68.2800 224.0000 1.0000
68.2900 219.0000 1.0000
68.3000 207.0000 1.0000
68.3100 219.0000 1.0000
68.3200 223.0000 1.0000
68.3300 216.0000 1.0000
68.3400 201.0000 1.0000
68.3500 194.0000 1.0000
68.3600 209.0000 1.0000
68.3700 179.0000 1.0000
68.3800 238.0000 1.0000
68.3900 239.0000 1.0000
68.4000 211.0000 1.0000
68.4100 199.0000 1.0000
68.4200 218.0000 1.0000
68.4300 209.0000 1.0000
68.4400 219.0000 1.0000
68.4500 216.0000 1.0000
68.4600 209.0000 1.0000
68.4700 217.0000 1.0000
68.4800 199.0000 1.0000
68.4900 241.0000 1.0000
68.5000 216.0000 1.0000
68.5100 225.0000 1.0000
68.5200 204.0000 1.0000
68.5300 210.0000 1.0000
68.5400 213.0000 1.0000
68.5500 210.0000 1.0000
68.5600 209.0000 1.0000
68.5700 211.0000 1.0000
68.5800 203.0000 1.0000
68.5900 208.0000 1.0000
68.6000 212.0000 1.0000
68.6100 214.0000 1.0000
68.6200 236.0000 1.0000
68.6300 199.0000 1.0000
68.6400 222.0000 1.0000
68.6500 207.0000 1.0000
68.6600 220.0000 1.0000
68.6700 235.0000 1.0000
68.6800 230.0000 1.0000
68.6900 232.0000 1.0000
68.7000 215.0000 1.0000
68.7100 239.0000 1.0000
68.7200 211.0000 1.0000
68.7300 218.0000 1.0000
68.7400 180.0000 1.0000
68.7500 197.0000 1.0000
68.7600 226.0000 1.0000
68.7700 237.0000 1.0000
68.7800 207.0000 1.0000
68.7900 186.0000 1.0000
68.8000 202.0000 1.0000
68.8100 185.0000 1.0000
68.8200 221.0000 1.0000
68.8300 205.0000 1.0000
68.8400 190.0000 1.0000
68.8500 199.0000 1.0000
68.8600 208.0000 1.0000
68.8700 218.0000 1.0000
68.8800 221.0000 1.0000
68.8900 222.0000 1.0000
68.9000 209.0000 1.0000
68.9100 212.0000 1.0000
68.9200 203.0000 1.0000
68.9300 181.0000 1.0000
68.9400 229.0000 1.0000
68.9500 234.0000 1.0000
68.9600 220.0000 1.0000
68.9700 220.0000 1.0000
68.9800 214.0000 1.0000
68.9900 225.0000 1.0000
69.0000 207.0000 1.0000
69.0100 227.0000 1.0000
69.0200 230.0000 1.0000
69.0300 212.0000 1.0000
69.0400 230.0000 1.0000
69.0500 228.0000 1.0000
69.0600 220.0000 1.0000
69.0700 210.0000 1.0000
69.0800 219.0000 1.0000
69.0900 227.0000 1.0000
69.1000 201.0000 1.0000
69.1100 207.0000 1.0000
69.1200 197.0000 1.0000
69.1300 204.0000 1.0000
69.1400 216.0000 1.0000
69.1500 224.0000 1.0000
69.1600 223.0000 1.0000
69.1700 239.0000 1.0000
69.1800 204.0000 1.0000
69.1900 202.0000 1.0000
69.2000 217.0000 1.0000
69.2100 210.0000 1.0000
69.2200 233.0000 1.0000
69.2300 224.0000 1.0000
69.2400 202.0000 1.0000
69.2500 200.0000 1.0000
69.2600 215.0000 1.0000
69.2700 207.0000 1.0000
69.2800 223.0000 1.0000
69.2900 227.0000 1.0000
69.3000 209.0000 1.0000
69.3100 196.0000 1.0000
69.3200 216.0000 1.0000
69.3300 192.0000 1.0000
69.3400 185.0000 1.0000
69.3500 196.0000 1.0000
69.3600 204.0000 1.0000
69.3700 199.0000 1.0000
69.3800 224.0000 1.0000
69.3900 220.0000 1.0000
69.4000 214.0000 1.0000
69.4100 231.0000 1.0000
69.4200 207.0000 1.0000
69.4300 200.0000 1.0000
69.4400 191.0000 1.0000
69.4500 218.0000 1.0000
69.4600 226.0000 1.0000
69.4700 203.0000 1.0000
69.4800 218.0000 1.0000
69.4900 200.0000 1.0000
69.5000 188.0000 1.0000
69.5100 213.0000 1.0000
69.5200 211.0000 1.0000
69.5300 219.0000 1.0000
69.5400 210.0000 1.0000
69.5500 197.0000 1.0000
69.5600 223.0000 1.0000
69.5700 230.0000 1.0000
69.5800 221.0000 1.0000
69.5900 219.0000 1.0000
69.6000 221.0000 1.0000
69.6100 223.0000 1.0000
69.6200 216.0000 1.0000
69.6300 233.0000 1.0000
69.6400 227.0000 1.0000
69.6500 209.0000 1.0000
69.6600 221.0000 1.0000
69.6700 188.0000 1.0000
69.6800 221.0000 1.0000
69.6900 229.0000 1.0000
69.7000 190.0000 1.0000
69.7100 216.0000 1.0000
69.7200 201.0000 1.0000
69.7300 226.0000 1.0000
69.7400 209.0000 1.0000
69.7500 190.0000 1.0000
69.7600 204.0000 1.0000
69.7700 195.0000 1.0000
69.7800 219.0000 1.0000
69.7900 229.0000 1.0000
69.8000 202.0000 1.0000
69.8100 207.0000 1.0000
69.8200 215.0000 1.0000
69.8300 211.0000 1.0000
69.8400 219.0000 1.0000
69.8500 203.0000 1.0000
69.8600 205.0000 1.0000
69.8700 200.0000 1.0000
69.8800 221.0000 1.0000
69.8900 191.0000 1.0000
69.9000 207.0000 1.0000
69.9100 209.0000 1.0000
69.9200 220.0000 1.0000
69.9300 206.0000 1.0000
69.9400 184.0000 1.0000
69.9500 203.0000 1.0000
69.9600 224.0000 1.0000
69.9700 215.0000 1.0000
69.9800 190.0000 1.0000
69.9900 207.0000 1.0000
70.0000 212.0000 1.0000
*RAS_INT_END
*RAS_TEMPERATURE_START
*RAS_TEMPERATURE_END
*RAS_DATA_END
