*RAS_DATA_START
*RAS_HEADER_START
*DISP_FMT_X "%.2f"
*DISP_FMT_Y "%.0f"
*DISP_FULLSCALE "14890.0000000000"
*DISP_LINE_COLOR "255.0000000000"
*DISP_LINE_STYLE "0.0000000000"
*DISP_LINE_WIDTH "0.2500000000"
*DISP_NOTE "測定データ-2"
*DISP_OFFSET_Y "0.0000000000"
*DISP_PEAKSEARCH_UNIT_Y "cps"
*DISP_RANGE_BOTTOM "0.0000000000"
*DISP_RANGE_LEFT "20.0000000000"
*DISP_RANGE_LOGCUTOFF "0.0100000000"
*DISP_RANGE_RIGHT "70.0000000000"
*DISP_RANGE_TOP "14890.0000000000"
*DISP_SCALE_MODE_Y "0.0000000000"
*DISP_TAB_NAME "2θ/θ"
*DISP_TITLE_Y "強度"
*DISP_UNIT_Y "cps"
*DISP_WINDOW_NAME "MSG_MACROENGINE"
*FILE_COMMENT " "
*FILE_MD5 ""
*FILE_MEMO " "
*FILE_OPERATOR "Administrator"
*FILE_SAMPLE " "
*FILE_TYPE "RAS_RAW"
*FILE_USERGROUP "システムマネージャ"
*FILE_VERSION "1.0000000000"
*HW_ATTACHMENT_ID "ATT0025"
*HW_ATTACHMENT_NAME "標準|Standard"
*HW_COUNTER_ID-0 "CUT0025"
*HW_COUNTER_ID-1 "CUT0020"
*HW_COUNTER_ID-2 "CUT0020"
*HW_COUNTER_ID-3 "CSL0021"
*HW_COUNTER_ID-4 "CMC0021"
*HW_COUNTER_NAME-0 "D/teX Ultra|D/teX Ultra"
*HW_COUNTER_NAME-1 "None|None"
*HW_COUNTER_NAME-2 "None|None"
*HW_COUNTER_NAME-3 "BBM|BBM"
*HW_COUNTER_NAME-4 "検出器モノクロメータ|Detector monochromator"
*HW_COUNTER_SELECT_NAME "D/teX Ultra|D/teX Ultra"
*HW_GONIOMETER_ID "GON0023"
*HW_GONIOMETER_NAME "SmartLab|SmartLab"
*HW_GONIOMETER_RADIUS-0 "90.0"
*HW_GONIOMETER_RADIUS-1 "114.0"
*HW_GONIOMETER_RADIUS-2 "190.0"
*HW_GONIOMETER_RADIUS-3 "300.0"
*HW_GONIOMETER_RADIUS-4 "187.0"
*HW_GONIOMETER_RADIUS-5 "300.0"
*HW_GONIOMETER_RADIUS-6 "113.0"
*HW_GONIOMETER_RADIUS-7 "331.0"
*HW_I_OPT_ID-0 "CBO0021"
*HW_I_OPT_ID-1 "ICR0023"
*HW_I_OPT_ID-2 "ISL0021"
*HW_I_OPT_ID-3 "ISO0021"
*HW_I_OPT_ID-4 "IAD0021"
*HW_I_OPT_ID-5 "IPR0001"
*HW_I_OPT_NAME-0 "CBOユニット|CBO unit"
*HW_I_OPT_NAME-1 "標準入射光学ユニット|Standard incident optical unit"
*HW_I_OPT_NAME-2 "標準入射スリットボックス|Standard incident slit box"
*HW_I_OPT_NAME-3 "入射平行スリット|Incident parallel slit"
*HW_I_OPT_NAME-4 "長手制限スリット|Length limiting slit"
*HW_I_OPT_NAME-5 "None|None"
*HW_R_ATTENUATER_AUTOMODE "0"
*HW_R_OPT_ID-0 "RSS0021"
*HW_R_OPT_ID-1 "RCR0023"
*HW_R_OPT_ID-2 "RSO0021"
*HW_R_OPT_ID-3 "RRS0021"
*HW_R_OPT_ID-4 "ATN0021"
*HW_R_OPT_ID-5 "RFL0021"
*HW_R_OPT_ID-6 "RAD0021"
*HW_R_OPT_NAME-0 "標準受光スリットボックス1|Standard receiving slit box # 1"
*HW_R_OPT_NAME-1 "標準受光光学ユニット1|Standard receiving unit # 1"
*HW_R_OPT_NAME-2 "標準受光光学ユニット2|Standard receiving optical unit # 2"
*HW_R_OPT_NAME-3 "標準受光スリットボックス2|Standard receiving slit box # 2"
*HW_R_OPT_NAME-4 "標準アッテネータ|Standard Attenuator"
*HW_R_OPT_NAME-5 "Cu Kβ|Cu K-beta"
*HW_R_OPT_NAME-6 "調整用受光スリット|Alignment receiving slit"
*HW_SAMPLE_HOLDER_ID "SMP0023"
*HW_SAMPLE_HOLDER_NAME "標準Zステージ|Standard Z stage"
*HW_XG_CURRENT_MAX "50"
*HW_XG_CURRENT_MIN "2"
*HW_XG_CURRENT_RESOLUTION "1"
*HW_XG_CURRENT_UNIT "mA"
*HW_XG_FOCUS "1mm x 10mm"
*HW_XG_FOCUS_TYPE "Normal"
*HW_XG_ID ""
*HW_XG_NAME "3kW 封入管(ID:1200)|3kW Sealed tube(ID:1200)"
*HW_XG_TARGET_ATOMIC_NUMBER "29.0000000000"
*HW_XG_TARGET_NAME "Cu"
*HW_XG_TYPE "Hermetic"
*HW_XG_VOLTAGE_MAX "60"
*HW_XG_VOLTAGE_MIN "20"
*HW_XG_VOLTAGE_RESOLUTION "1"
*HW_XG_VOLTAGE_UNIT "kV"
*HW_XG_WATT_MAX "1.500"
*HW_XG_WATT_UNIT "kW"
*HW_XG_WAVE_LENGTH_ALPHA1 "1.540593"
*HW_XG_WAVE_LENGTH_ALPHA2 "1.544414"
*HW_XG_WAVE_LENGTH_BETA "1.392250"
*MEAS_COND_AXIS_NAME-0 "2θ/θ"
*MEAS_COND_AXIS_NAME-1 "2θ"
*MEAS_COND_AXIS_NAME-2 "ω"
*MEAS_COND_AXIS_NAME-3 "Z"
*MEAS_COND_AXIS_NAME-4 "2θ/ω"
*MEAS_COND_AXIS_NAME-5 "θs"
*MEAS_COND_AXIS_NAME-6 "θd"
*MEAS_COND_AXIS_NAME-7 "Ts"
*MEAS_COND_AXIS_NAME-8 "CBO選択スリット"
*MEAS_COND_AXIS_NAME-9 "M"
*MEAS_COND_AXIS_NAME-10 "入射平行スリット"
*MEAS_COND_AXIS_NAME-11 "入射スリット"
*MEAS_COND_AXIS_NAME-12 ""
*MEAS_COND_AXIS_NAME-13 "Zs"
*MEAS_COND_AXIS_NAME-14 "入射光学素子"
*MEAS_COND_AXIS_NAME-15 "長手制限スリット"
*MEAS_COND_AXIS_NAME-16 "センタースリット"
*MEAS_COND_AXIS_NAME-17 "フィルター"
*MEAS_COND_AXIS_NAME-18 "受光スリット1"
*MEAS_COND_AXIS_NAME-19 "受光スリット2"
*MEAS_COND_AXIS_NAME-20 "受光光学素子"
*MEAS_COND_AXIS_NAME-21 "受光平行スリット"
*MEAS_COND_AXIS_NAME-22 "調整用受光スリット"
*MEAS_COND_AXIS_NAME-23 ""
*MEAS_COND_AXIS_NAME-24 ""
*MEAS_COND_AXIS_NAME-25 "Zd"
*MEAS_COND_AXIS_NAME-26 "アッテネータ"
*MEAS_COND_AXIS_NAME-27 "検出器モノクロメータ"
*MEAS_COND_AXIS_NAME-28 "モノクロメータスリット"
*MEAS_COND_AXIS_NAME-29 "プライマリビーム"
*MEAS_COND_AXIS_NAME-30 "PHA"
*MEAS_COND_AXIS_NAME_INTERNAL-0 "TwoThetaTheta"
*MEAS_COND_AXIS_NAME_INTERNAL-1 "TwoTheta"
*MEAS_COND_AXIS_NAME_INTERNAL-2 "Omega"
*MEAS_COND_AXIS_NAME_INTERNAL-3 "Z"
*MEAS_COND_AXIS_NAME_INTERNAL-4 "TwoThetaOmega"
*MEAS_COND_AXIS_NAME_INTERNAL-5 "ThetaS"
*MEAS_COND_AXIS_NAME_INTERNAL-6 "ThetaD"
*MEAS_COND_AXIS_NAME_INTERNAL-7 "Ts"
*MEAS_COND_AXIS_NAME_INTERNAL-8 "CBO"
*MEAS_COND_AXIS_NAME_INTERNAL-9 "CBO-M"
*MEAS_COND_AXIS_NAME_INTERNAL-10 "IncidentSollerSlit"
*MEAS_COND_AXIS_NAME_INTERNAL-11 "IncidentSlitBox"
*MEAS_COND_AXIS_NAME_INTERNAL-12 "IncidentSlitBox-_Axis"
*MEAS_COND_AXIS_NAME_INTERNAL-13 "Zs"
*MEAS_COND_AXIS_NAME_INTERNAL-14 "IncidentMonochromator"
*MEAS_COND_AXIS_NAME_INTERNAL-15 "IncidentAxdSlit"
*MEAS_COND_AXIS_NAME_INTERNAL-16 "CenterSlit"
*MEAS_COND_AXIS_NAME_INTERNAL-17 "Filter"
*MEAS_COND_AXIS_NAME_INTERNAL-18 "ReceivingSlitBox1"
*MEAS_COND_AXIS_NAME_INTERNAL-19 "ReceivingSlitBox2"
*MEAS_COND_AXIS_NAME_INTERNAL-20 "ReceivingOptics"
*MEAS_COND_AXIS_NAME_INTERNAL-21 "ReceivingSollerSlit"
*MEAS_COND_AXIS_NAME_INTERNAL-22 "ReceivingAxdSlit"
*MEAS_COND_AXIS_NAME_INTERNAL-23 "ReceivingSlitBox1-_Axis"
*MEAS_COND_AXIS_NAME_INTERNAL-24 "ReceivingSlitBox2-_Axis"
*MEAS_COND_AXIS_NAME_INTERNAL-25 "ReceivingSlitBox2-Zd"
*MEAS_COND_AXIS_NAME_INTERNAL-26 "Attenuator"
*MEAS_COND_AXIS_NAME_INTERNAL-27 "CounterMonochromator"
*MEAS_COND_AXIS_NAME_INTERNAL-28 "CounterSlit"
*MEAS_COND_AXIS_NAME_INTERNAL-29 "IncidentPrimary"
*MEAS_COND_AXIS_NAME_INTERNAL-30 "PHA"
*MEAS_COND_AXIS_NAME_MAGICNO-0 "83951616.0000000000"
*MEAS_COND_AXIS_NAME_MAGICNO-1 "268632064.0000000000"
*MEAS_COND_AXIS_NAME_MAGICNO-2 "268500992.0000000000"
*MEAS_COND_AXIS_NAME_MAGICNO-3 "285278208.0000000000"
*MEAS_COND_AXIS_NAME_MAGICNO-4 "83951616.0000000000"
*MEAS_COND_AXIS_NAME_MAGICNO-5 "131072.0000000000"
*MEAS_COND_AXIS_NAME_MAGICNO-6 "131072.0000000000"
*MEAS_COND_AXIS_NAME_MAGICNO-7 "318898176.0000000000"
*MEAS_COND_AXIS_NAME_MAGICNO-8 "20971521.0000000000"
*MEAS_COND_AXIS_NAME_MAGICNO-9 "285343744.0000000000"
*MEAS_COND_AXIS_NAME_MAGICNO-10 "20971521.0000000000"
*MEAS_COND_AXIS_NAME_MAGICNO-11 "22020097.0000000000"
*MEAS_COND_AXIS_NAME_MAGICNO-12 "25165824.0000000000"
*MEAS_COND_AXIS_NAME_MAGICNO-13 "318898176.0000000000"
*MEAS_COND_AXIS_NAME_MAGICNO-14 "1.0000000000"
*MEAS_COND_AXIS_NAME_MAGICNO-15 "20971521.0000000000"
*MEAS_COND_AXIS_NAME_MAGICNO-16 "20971521.0000000000"
*MEAS_COND_AXIS_NAME_MAGICNO-17 "20971521.0000000000"
*MEAS_COND_AXIS_NAME_MAGICNO-18 "23068673.0000000000"
*MEAS_COND_AXIS_NAME_MAGICNO-19 "23068673.0000000000"
*MEAS_COND_AXIS_NAME_MAGICNO-20 "20971521.0000000000"
*MEAS_COND_AXIS_NAME_MAGICNO-21 "20971521.0000000000"
*MEAS_COND_AXIS_NAME_MAGICNO-22 "20971521.0000000000"
*MEAS_COND_AXIS_NAME_MAGICNO-23 "25165824.0000000000"
*MEAS_COND_AXIS_NAME_MAGICNO-24 "25165824.0000000000"
*MEAS_COND_AXIS_NAME_MAGICNO-25 "285343744.0000000000"
*MEAS_COND_AXIS_NAME_MAGICNO-26 "17301505.0000000000"
*MEAS_COND_AXIS_NAME_MAGICNO-27 "20971521.0000000000"
*MEAS_COND_AXIS_NAME_MAGICNO-28 "20971521.0000000000"
*MEAS_COND_AXIS_NAME_MAGICNO-29 "20971521.0000000000"
*MEAS_COND_AXIS_NAME_MAGICNO-30 "0.0000000000"
*MEAS_COND_AXIS_OFFSET-0 "-"
*MEAS_COND_AXIS_OFFSET-1 "-0.0310000000"
*MEAS_COND_AXIS_OFFSET-2 "0.3957000000"
*MEAS_COND_AXIS_OFFSET-3 "-"
*MEAS_COND_AXIS_OFFSET-4 "-"
*MEAS_COND_AXIS_OFFSET-5 "0.3957000000"
*MEAS_COND_AXIS_OFFSET-6 "-0.4267000000"
*MEAS_COND_AXIS_OFFSET-7 "-"
*MEAS_COND_AXIS_OFFSET-8 "-"
*MEAS_COND_AXIS_OFFSET-9 "-"
*MEAS_COND_AXIS_OFFSET-10 "-"
*MEAS_COND_AXIS_OFFSET-11 "-"
*MEAS_COND_AXIS_OFFSET-12 "-"
*MEAS_COND_AXIS_OFFSET-13 "-"
*MEAS_COND_AXIS_OFFSET-14 "-"
*MEAS_COND_AXIS_OFFSET-15 "-"
*MEAS_COND_AXIS_OFFSET-16 "-"
*MEAS_COND_AXIS_OFFSET-17 "-"
*MEAS_COND_AXIS_OFFSET-18 "-"
*MEAS_COND_AXIS_OFFSET-19 "-"
*MEAS_COND_AXIS_OFFSET-20 "-"
*MEAS_COND_AXIS_OFFSET-21 "-"
*MEAS_COND_AXIS_OFFSET-22 "-"
*MEAS_COND_AXIS_OFFSET-23 "-"
*MEAS_COND_AXIS_OFFSET-24 "-"
*MEAS_COND_AXIS_OFFSET-25 "-"
*MEAS_COND_AXIS_OFFSET-26 "-"
*MEAS_COND_AXIS_OFFSET-27 "-"
*MEAS_COND_AXIS_OFFSET-28 "-"
*MEAS_COND_AXIS_OFFSET-29 "-"
*MEAS_COND_AXIS_OFFSET-30 "-"
*MEAS_COND_AXIS_POSITION-0 "0.0000000000"
*MEAS_COND_AXIS_POSITION-1 "0.0000000000"
*MEAS_COND_AXIS_POSITION-2 "0.0000000000"
*MEAS_COND_AXIS_POSITION-3 "-2.8588600000"
*MEAS_COND_AXIS_POSITION-4 "0.0000000000"
*MEAS_COND_AXIS_POSITION-5 "0.0000000000"
*MEAS_COND_AXIS_POSITION-6 "0.0000000000"
*MEAS_COND_AXIS_POSITION-7 "-0.7498700000"
*MEAS_COND_AXIS_POSITION-8 "BB"
*MEAS_COND_AXIS_POSITION-9 "0.0000000000"
*MEAS_COND_AXIS_POSITION-10 "Soller_slit_5.0deg"
*MEAS_COND_AXIS_POSITION-11 "2/3deg"
*MEAS_COND_AXIS_POSITION-12 "2.2088000000"
*MEAS_COND_AXIS_POSITION-13 "-0.6412500000"
*MEAS_COND_AXIS_POSITION-14 "0.0000000000"
*MEAS_COND_AXIS_POSITION-15 "10.0mm"
*MEAS_COND_AXIS_POSITION-16 "None"
*MEAS_COND_AXIS_POSITION-17 "Cu_K-beta"
*MEAS_COND_AXIS_POSITION-18 "13.000mm"
*MEAS_COND_AXIS_POSITION-19 "13.000mm"
*MEAS_COND_AXIS_POSITION-20 "No_unit"
*MEAS_COND_AXIS_POSITION-21 "Soller_slit_5.0deg"
*MEAS_COND_AXIS_POSITION-22 "None"
*MEAS_COND_AXIS_POSITION-23 "13.0000000000"
*MEAS_COND_AXIS_POSITION-24 "13.0000000000"
*MEAS_COND_AXIS_POSITION-25 "0.0281300000"
*MEAS_COND_AXIS_POSITION-26 "Open"
*MEAS_COND_AXIS_POSITION-27 "None"
*MEAS_COND_AXIS_POSITION-28 "None"
*MEAS_COND_AXIS_POSITION-29 "None"
*MEAS_COND_AXIS_POSITION-30 "38.0000000000"
*MEAS_COND_AXIS_UNIT-0 "deg"
*MEAS_COND_AXIS_UNIT-1 "deg"
*MEAS_COND_AXIS_UNIT-2 "deg"
*MEAS_COND_AXIS_UNIT-3 "mm"
*MEAS_COND_AXIS_UNIT-4 "deg"
*MEAS_COND_AXIS_UNIT-5 "deg"
*MEAS_COND_AXIS_UNIT-6 "deg"
*MEAS_COND_AXIS_UNIT-7 "mm"
*MEAS_COND_AXIS_UNIT-8 ""
*MEAS_COND_AXIS_UNIT-9 "pulse"
*MEAS_COND_AXIS_UNIT-10 ""
*MEAS_COND_AXIS_UNIT-11 ""
*MEAS_COND_AXIS_UNIT-12 "mm"
*MEAS_COND_AXIS_UNIT-13 "mm"
*MEAS_COND_AXIS_UNIT-14 ""
*MEAS_COND_AXIS_UNIT-15 ""
*MEAS_COND_AXIS_UNIT-16 ""
*MEAS_COND_AXIS_UNIT-17 ""
*MEAS_COND_AXIS_UNIT-18 ""
*MEAS_COND_AXIS_UNIT-19 ""
*MEAS_COND_AXIS_UNIT-20 ""
*MEAS_COND_AXIS_UNIT-21 ""
*MEAS_COND_AXIS_UNIT-22 ""
*MEAS_COND_AXIS_UNIT-23 "mm"
*MEAS_COND_AXIS_UNIT-24 "mm"
*MEAS_COND_AXIS_UNIT-25 "mm"
*MEAS_COND_AXIS_UNIT-26 ""
*MEAS_COND_AXIS_UNIT-27 ""
*MEAS_COND_AXIS_UNIT-28 ""
*MEAS_COND_AXIS_UNIT-29 ""
*MEAS_COND_AXIS_UNIT-30 "div"
*MEAS_COND_COUNTER_CNTLOSS_CORR "0.0000000000"
*MEAS_COND_COUNTER_PHABASE "38.0000000000"
*MEAS_COND_COUNTER_PHAWINDOW "16.0000000000"
*MEAS_COND_COUNTER_PHA_UNIT "div"
*MEAS_COND_COUNTER_TAUDIFF "30.0000000000"
*MEAS_COND_COUNTER_TAUINT "0.0000000000"
*MEAS_COND_IRRADIATION_MODE "OFF"
*MEAS_COND_IRRADIATION_WIDTH ""
*MEAS_COND_OPT_ATTR "集中法"
*MEAS_COND_OPT_NAME "@集中法"
*MEAS_COND_UNSYMMETRIC_MODE "OFF"
*MEAS_COND_XG_CURRENT "30.0000000000"
*MEAS_COND_XG_VOLTAGE "40.0000000000"
*MEAS_COND_XG_WAVE_TYPE "Ka"
*MEAS_DATA_COUNT "5001.0000000000"
*MEAS_SCAN_AXIS_X "2θ/θ"
*MEAS_SCAN_AXIS_X_INTERNAL "TwoThetaTheta"
*MEAS_SCAN_END_TIME "01/29/24 11:18:47"
*MEAS_SCAN_MODE "CONTINUOUS"
*MEAS_SCAN_MONITOR "0"
*MEAS_SCAN_RESOLUTION_X "0.0002"
*MEAS_SCAN_SPEED "2.5"
*MEAS_SCAN_SPEED_UNIT "deg/min"
*MEAS_SCAN_START "20.0000000000"
*MEAS_SCAN_START_TIME "01/29/24 10:57:23"
*MEAS_SCAN_STEP "0.0100000000"
*MEAS_SCAN_STOP "70.0000000000"
*MEAS_SCAN_UNIT_X "deg"
*MEAS_SCAN_UNIT_Y "counts"
*RAS_HEADER_END
*RAS_INT_START
20.0000 742.0000 1.0000
20.0100 758.0000 1.0000
20.0200 710.0000 1.0000
20.0300 768.0000 1.0000
20.0400 756.0000 1.0000
20.0500 720.0000 1.0000
20.0600 736.0000 1.0000
20.0700 762.0000 1.0000
20.0800 757.0000 1.0000
20.0900 747.0000 1.0000
20.1000 740.0000 1.0000
20.1100 754.0000 1.0000
20.1200 743.0000 1.0000
20.1300 720.0000 1.0000
20.1400 711.0000 1.0000
20.1500 719.0000 1.0000
20.1600 696.0000 1.0000
20.1700 721.0000 1.0000
20.1800 709.0000 1.0000
20.1900 757.0000 1.0000
20.2000 767.0000 1.0000
20.2100 780.0000 1.0000
20.2200 790.0000 1.0000
20.2300 772.0000 1.0000
20.2400 723.0000 1.0000
20.2500 757.0000 1.0000
20.2600 765.0000 1.0000
20.2700 716.0000 1.0000
20.2800 725.0000 1.0000
20.2900 764.0000 1.0000
20.3000 764.0000 1.0000
20.3100 723.0000 1.0000
20.3200 778.0000 1.0000
20.3300 743.0000 1.0000
20.3400 716.0000 1.0000
20.3500 680.0000 1.0000
20.3600 713.0000 1.0000
20.3700 720.0000 1.0000
20.3800 771.0000 1.0000
20.3900 762.0000 1.0000
20.4000 744.0000 1.0000
20.4100 733.0000 1.0000
20.4200 723.0000 1.0000
20.4300 712.0000 1.0000
20.4400 736.0000 1.0000
20.4500 735.0000 1.0000
20.4600 749.0000 1.0000
20.4700 718.0000 1.0000
20.4800 706.0000 1.0000
20.4900 714.0000 1.0000
20.5000 670.0000 1.0000
20.5100 693.0000 1.0000
20.5200 770.0000 1.0000
20.5300 783.0000 1.0000
20.5400 747.0000 1.0000
20.5500 771.0000 1.0000
20.5600 759.0000 1.0000
20.5700 749.0000 1.0000
20.5800 742.0000 1.0000
20.5900 703.0000 1.0000
20.6000 691.0000 1.0000
20.6100 716.0000 1.0000
20.6200 755.0000 1.0000
20.6300 736.0000 1.0000
20.6400 705.0000 1.0000
20.6500 712.0000 1.0000
20.6600 705.0000 1.0000
20.6700 722.0000 1.0000
20.6800 705.0000 1.0000
20.6900 724.0000 1.0000
20.7000 717.0000 1.0000
20.7100 720.0000 1.0000
20.7200 693.0000 1.0000
20.7300 698.0000 1.0000
20.7400 715.0000 1.0000
20.7500 679.0000 1.0000
20.7600 740.0000 1.0000
20.7700 750.0000 1.0000
20.7800 722.0000 1.0000
20.7900 755.0000 1.0000
20.8000 709.0000 1.0000
20.8100 701.0000 1.0000
20.8200 719.0000 1.0000
20.8300 751.0000 1.0000
20.8400 667.0000 1.0000
20.8500 695.0000 1.0000
20.8600 682.0000 1.0000
20.8700 749.0000 1.0000
20.8800 742.0000 1.0000
20.8900 713.0000 1.0000
20.9000 719.0000 1.0000
20.9100 724.0000 1.0000
20.9200 709.0000 1.0000
20.9300 748.0000 1.0000
20.9400 723.0000 1.0000
20.9500 717.0000 1.0000
20.9600 703.0000 1.0000
20.9700 745.0000 1.0000
20.9800 718.0000 1.0000
20.9900 737.0000 1.0000
21.0000 786.0000 1.0000
21.0100 697.0000 1.0000
21.0200 743.0000 1.0000
21.0300 698.0000 1.0000
21.0400 694.0000 1.0000
21.0500 707.0000 1.0000
21.0600 724.0000 1.0000
21.0700 709.0000 1.0000
21.0800 732.0000 1.0000
21.0900 730.0000 1.0000
21.1000 709.0000 1.0000
21.1100 713.0000 1.0000
21.1200 731.0000 1.0000
21.1300 758.0000 1.0000
21.1400 728.0000 1.0000
21.1500 729.0000 1.0000
21.1600 718.0000 1.0000
21.1700 719.0000 1.0000
21.1800 760.0000 1.0000
21.1900 786.0000 1.0000
21.2000 720.0000 1.0000
21.2100 757.0000 1.0000
21.2200 741.0000 1.0000
21.2300 777.0000 1.0000
21.2400 726.0000 1.0000
21.2500 710.0000 1.0000
21.2600 696.0000 1.0000
21.2700 703.0000 1.0000
21.2800 728.0000 1.0000
21.2900 713.0000 1.0000
21.3000 751.0000 1.0000
21.3100 711.0000 1.0000
21.3200 760.0000 1.0000
21.3300 724.0000 1.0000
21.3400 754.0000 1.0000
21.3500 696.0000 1.0000
21.3600 732.0000 1.0000
21.3700 699.0000 1.0000
21.3800 738.0000 1.0000
21.3900 694.0000 1.0000
21.4000 703.0000 1.0000
21.4100 691.0000 1.0000
21.4200 731.0000 1.0000
21.4300 723.0000 1.0000
21.4400 677.0000 1.0000
21.4500 739.0000 1.0000
21.4600 724.0000 1.0000
21.4700 743.0000 1.0000
21.4800 716.0000 1.0000
21.4900 708.0000 1.0000
21.5000 742.0000 1.0000
21.5100 742.0000 1.0000
21.5200 699.0000 1.0000
21.5300 689.0000 1.0000
21.5400 696.0000 1.0000
21.5500 719.0000 1.0000
21.5600 700.0000 1.0000
21.5700 700.0000 1.0000
21.5800 709.0000 1.0000
21.5900 731.0000 1.0000
21.6000 756.0000 1.0000
21.6100 732.0000 1.0000
21.6200 690.0000 1.0000
21.6300 710.0000 1.0000
21.6400 706.0000 1.0000
21.6500 708.0000 1.0000
21.6600 735.0000 1.0000
21.6700 747.0000 1.0000
21.6800 703.0000 1.0000
21.6900 700.0000 1.0000
21.7000 713.0000 1.0000
21.7100 690.0000 1.0000
21.7200 717.0000 1.0000
21.7300 712.0000 1.0000
21.7400 749.0000 1.0000
21.7500 701.0000 1.0000
21.7600 741.0000 1.0000
21.7700 720.0000 1.0000
21.7800 737.0000 1.0000
21.7900 743.0000 1.0000
21.8000 670.0000 1.0000
21.8100 780.0000 1.0000
21.8200 751.0000 1.0000
21.8300 666.0000 1.0000
21.8400 729.0000 1.0000
21.8500 759.0000 1.0000
21.8600 726.0000 1.0000
21.8700 735.0000 1.0000
21.8800 725.0000 1.0000
21.8900 740.0000 1.0000
21.9000 732.0000 1.0000
21.9100 754.0000 1.0000
21.9200 746.0000 1.0000
21.9300 720.0000 1.0000
21.9400 710.0000 1.0000
21.9500 693.0000 1.0000
21.9600 703.0000 1.0000
21.9700 716.0000 1.0000
21.9800 725.0000 1.0000
21.9900 746.0000 1.0000
22.0000 680.0000 1.0000
22.0100 747.0000 1.0000
22.0200 758.0000 1.0000
22.0300 733.0000 1.0000
22.0400 736.0000 1.0000
22.0500 733.0000 1.0000
22.0600 699.0000 1.0000
22.0700 768.0000 1.0000
22.0800 729.0000 1.0000
22.0900 732.0000 1.0000
22.1000 752.0000 1.0000
22.1100 763.0000 1.0000
22.1200 716.0000 1.0000
22.1300 747.0000 1.0000
22.1400 717.0000 1.0000
22.1500 707.0000 1.0000
22.1600 726.0000 1.0000
22.1700 716.0000 1.0000
22.1800 750.0000 1.0000
22.1900 767.0000 1.0000
22.2000 733.0000 1.0000
22.2100 743.0000 1.0000
22.2200 697.0000 1.0000
22.2300 723.0000 1.0000
22.2400 717.0000 1.0000
22.2500 737.0000 1.0000
22.2600 721.0000 1.0000
22.2700 732.0000 1.0000
22.2800 682.0000 1.0000
22.2900 679.0000 1.0000
22.3000 722.0000 1.0000
22.3100 735.0000 1.0000
22.3200 680.0000 1.0000
22.3300 716.0000 1.0000
22.3400 708.0000 1.0000
22.3500 743.0000 1.0000
22.3600 693.0000 1.0000
22.3700 694.0000 1.0000
22.3800 737.0000 1.0000
22.3900 740.0000 1.0000
22.4000 704.0000 1.0000
22.4100 678.0000 1.0000
22.4200 689.0000 1.0000
22.4300 729.0000 1.0000
22.4400 715.0000 1.0000
22.4500 763.0000 1.0000
22.4600 690.0000 1.0000
22.4700 747.0000 1.0000
22.4800 729.0000 1.0000
22.4900 705.0000 1.0000
22.5000 737.0000 1.0000
22.5100 695.0000 1.0000
22.5200 686.0000 1.0000
22.5300 720.0000 1.0000
22.5400 728.0000 1.0000
22.5500 667.0000 1.0000
22.5600 708.0000 1.0000
22.5700 727.0000 1.0000
22.5800 698.0000 1.0000
22.5900 730.0000 1.0000
22.6000 713.0000 1.0000
22.6100 673.0000 1.0000
22.6200 727.0000 1.0000
22.6300 702.0000 1.0000
22.6400 682.0000 1.0000
22.6500 699.0000 1.0000
22.6600 714.0000 1.0000
22.6700 714.0000 1.0000
22.6800 664.0000 1.0000
22.6900 682.0000 1.0000
22.7000 692.0000 1.0000
22.7100 728.0000 1.0000
22.7200 726.0000 1.0000
22.7300 719.0000 1.0000
22.7400 687.0000 1.0000
22.7500 680.0000 1.0000
22.7600 747.0000 1.0000
22.7700 679.0000 1.0000
22.7800 715.0000 1.0000
22.7900 730.0000 1.0000
22.8000 703.0000 1.0000
22.8100 700.0000 1.0000
22.8200 676.0000 1.0000
22.8300 682.0000 1.0000
22.8400 719.0000 1.0000
22.8500 691.0000 1.0000
22.8600 686.0000 1.0000
22.8700 704.0000 1.0000
22.8800 671.0000 1.0000
22.8900 715.0000 1.0000
22.9000 722.0000 1.0000
22.9100 715.0000 1.0000
22.9200 707.0000 1.0000
22.9300 719.0000 1.0000
22.9400 748.0000 1.0000
22.9500 696.0000 1.0000
22.9600 718.0000 1.0000
22.9700 655.0000 1.0000
22.9800 694.0000 1.0000
22.9900 704.0000 1.0000
23.0000 699.0000 1.0000
23.0100 718.0000 1.0000
23.0200 691.0000 1.0000
23.0300 668.0000 1.0000
23.0400 724.0000 1.0000
23.0500 697.0000 1.0000
23.0600 681.0000 1.0000
23.0700 729.0000 1.0000
23.0800 715.0000 1.0000
23.0900 706.0000 1.0000
23.1000 710.0000 1.0000
23.1100 698.0000 1.0000
23.1200 648.0000 1.0000
23.1300 706.0000 1.0000
23.1400 726.0000 1.0000
23.1500 704.0000 1.0000
23.1600 677.0000 1.0000
23.1700 691.0000 1.0000
23.1800 711.0000 1.0000
23.1900 699.0000 1.0000
23.2000 726.0000 1.0000
23.2100 696.0000 1.0000
23.2200 709.0000 1.0000
23.2300 737.0000 1.0000
23.2400 724.0000 1.0000
23.2500 722.0000 1.0000
23.2600 739.0000 1.0000
23.2700 712.0000 1.0000
23.2800 711.0000 1.0000
23.2900 692.0000 1.0000
23.3000 704.0000 1.0000
23.3100 684.0000 1.0000
23.3200 712.0000 1.0000
23.3300 678.0000 1.0000
23.3400 745.0000 1.0000
23.3500 736.0000 1.0000
23.3600 724.0000 1.0000
23.3700 704.0000 1.0000
23.3800 686.0000 1.0000
23.3900 672.0000 1.0000
23.4000 710.0000 1.0000
23.4100 701.0000 1.0000
23.4200 698.0000 1.0000
23.4300 735.0000 1.0000
23.4400 689.0000 1.0000
23.4500 681.0000 1.0000
23.4600 691.0000 1.0000
23.4700 702.0000 1.0000
23.4800 688.0000 1.0000
23.4900 749.0000 1.0000
23.5000 705.0000 1.0000
23.5100 684.0000 1.0000
23.5200 675.0000 1.0000
23.5300 695.0000 1.0000
23.5400 678.0000 1.0000
23.5500 696.0000 1.0000
23.5600 736.0000 1.0000
23.5700 741.0000 1.0000
23.5800 723.0000 1.0000
23.5900 727.0000 1.0000
23.6000 679.0000 1.0000
23.6100 717.0000 1.0000
23.6200 689.0000 1.0000
23.6300 715.0000 1.0000
23.6400 698.0000 1.0000
23.6500 658.0000 1.0000
23.6600 733.0000 1.0000
23.6700 709.0000 1.0000
23.6800 694.0000 1.0000
23.6900 692.0000 1.0000
23.7000 692.0000 1.0000
23.7100 740.0000 1.0000
23.7200 681.0000 1.0000
23.7300 675.0000 1.0000
23.7400 678.0000 1.0000
23.7500 688.0000 1.0000
23.7600 686.0000 1.0000
23.7700 689.0000 1.0000
23.7800 676.0000 1.0000
23.7900 704.0000 1.0000
23.8000 708.0000 1.0000
23.8100 689.0000 1.0000
23.8200 736.0000 1.0000
23.8300 701.0000 1.0000
23.8400 705.0000 1.0000
23.8500 691.0000 1.0000
23.8600 695.0000 1.0000
23.8700 730.0000 1.0000
23.8800 737.0000 1.0000
23.8900 695.0000 1.0000
23.9000 712.0000 1.0000
23.9100 734.0000 1.0000
23.9200 727.0000 1.0000
23.9300 740.0000 1.0000
23.9400 704.0000 1.0000
23.9500 705.0000 1.0000
23.9600 688.0000 1.0000
23.9700 737.0000 1.0000
23.9800 700.0000 1.0000
23.9900 723.0000 1.0000
24.0000 732.0000 1.0000
24.0100 689.0000 1.0000
24.0200 722.0000 1.0000
24.0300 721.0000 1.0000
24.0400 686.0000 1.0000
24.0500 756.0000 1.0000
24.0600 741.0000 1.0000
24.0700 762.0000 1.0000
24.0800 691.0000 1.0000
24.0900 746.0000 1.0000
24.1000 707.0000 1.0000
24.1100 752.0000 1.0000
24.1200 720.0000 1.0000
24.1300 740.0000 1.0000
24.1400 715.0000 1.0000
24.1500 752.0000 1.0000
24.1600 706.0000 1.0000
24.1700 743.0000 1.0000
24.1800 700.0000 1.0000
24.1900 704.0000 1.0000
24.2000 730.0000 1.0000
24.2100 675.0000 1.0000
24.2200 689.0000 1.0000
24.2300 669.0000 1.0000
24.2400 709.0000 1.0000
24.2500 746.0000 1.0000
24.2600 683.0000 1.0000
24.2700 707.0000 1.0000
24.2800 717.0000 1.0000
24.2900 698.0000 1.0000
24.3000 695.0000 1.0000
24.3100 691.0000 1.0000
24.3200 690.0000 1.0000
24.3300 729.0000 1.0000
24.3400 760.0000 1.0000
24.3500 685.0000 1.0000
24.3600 710.0000 1.0000
24.3700 723.0000 1.0000
24.3800 700.0000 1.0000
24.3900 707.0000 1.0000
24.4000 686.0000 1.0000
24.4100 684.0000 1.0000
24.4200 695.0000 1.0000
24.4300 665.0000 1.0000
24.4400 661.0000 1.0000
24.4500 720.0000 1.0000
24.4600 673.0000 1.0000
24.4700 710.0000 1.0000
24.4800 669.0000 1.0000
24.4900 718.0000 1.0000
24.5000 713.0000 1.0000
24.5100 681.0000 1.0000
24.5200 719.0000 1.0000
24.5300 669.0000 1.0000
24.5400 719.0000 1.0000
24.5500 686.0000 1.0000
24.5600 686.0000 1.0000
24.5700 729.0000 1.0000
24.5800 711.0000 1.0000
24.5900 714.0000 1.0000
24.6000 687.0000 1.0000
24.6100 666.0000 1.0000
24.6200 705.0000 1.0000
24.6300 718.0000 1.0000
24.6400 720.0000 1.0000
24.6500 689.0000 1.0000
24.6600 684.0000 1.0000
24.6700 670.0000 1.0000
24.6800 643.0000 1.0000
24.6900 701.0000 1.0000
24.7000 706.0000 1.0000
24.7100 693.0000 1.0000
24.7200 669.0000 1.0000
24.7300 700.0000 1.0000
24.7400 691.0000 1.0000
24.7500 642.0000 1.0000
24.7600 674.0000 1.0000
24.7700 653.0000 1.0000
24.7800 698.0000 1.0000
24.7900 677.0000 1.0000
24.8000 670.0000 1.0000
24.8100 679.0000 1.0000
24.8200 669.0000 1.0000
24.8300 693.0000 1.0000
24.8400 691.0000 1.0000
24.8500 694.0000 1.0000
24.8600 630.0000 1.0000
24.8700 701.0000 1.0000
24.8800 694.0000 1.0000
24.8900 702.0000 1.0000
24.9000 712.0000 1.0000
24.9100 703.0000 1.0000
24.9200 710.0000 1.0000
24.9300 684.0000 1.0000
24.9400 691.0000 1.0000
24.9500 703.0000 1.0000
24.9600 692.0000 1.0000
24.9700 672.0000 1.0000
24.9800 669.0000 1.0000
24.9900 697.0000 1.0000
25.0000 719.0000 1.0000
25.0100 702.0000 1.0000
25.0200 691.0000 1.0000
25.0300 673.0000 1.0000
25.0400 693.0000 1.0000
25.0500 661.0000 1.0000
25.0600 714.0000 1.0000
25.0700 690.0000 1.0000
25.0800 668.0000 1.0000
25.0900 690.0000 1.0000
25.1000 715.0000 1.0000
25.1100 654.0000 1.0000
25.1200 674.0000 1.0000
25.1300 658.0000 1.0000
25.1400 705.0000 1.0000
25.1500 702.0000 1.0000
25.1600 664.0000 1.0000
25.1700 659.0000 1.0000
25.1800 658.0000 1.0000
25.1900 667.0000 1.0000
25.2000 724.0000 1.0000
25.2100 679.0000 1.0000
25.2200 699.0000 1.0000
25.2300 664.0000 1.0000
25.2400 689.0000 1.0000
25.2500 675.0000 1.0000
25.2600 689.0000 1.0000
25.2700 650.0000 1.0000
25.2800 656.0000 1.0000
25.2900 674.0000 1.0000
25.3000 665.0000 1.0000
25.3100 680.0000 1.0000
25.3200 678.0000 1.0000
25.3300 679.0000 1.0000
25.3400 659.0000 1.0000
25.3500 671.0000 1.0000
25.3600 657.0000 1.0000
25.3700 642.0000 1.0000
25.3800 678.0000 1.0000
25.3900 660.0000 1.0000
25.4000 631.0000 1.0000
25.4100 674.0000 1.0000
25.4200 680.0000 1.0000
25.4300 636.0000 1.0000
25.4400 665.0000 1.0000
25.4500 693.0000 1.0000
25.4600 656.0000 1.0000
25.4700 666.0000 1.0000
25.4800 698.0000 1.0000
25.4900 666.0000 1.0000
25.5000 672.0000 1.0000
25.5100 699.0000 1.0000
25.5200 704.0000 1.0000
25.5300 687.0000 1.0000
25.5400 622.0000 1.0000
25.5500 694.0000 1.0000
25.5600 703.0000 1.0000
25.5700 718.0000 1.0000
25.5800 705.0000 1.0000
25.5900 678.0000 1.0000
25.6000 620.0000 1.0000
25.6100 642.0000 1.0000
25.6200 698.0000 1.0000
25.6300 671.0000 1.0000
25.6400 675.0000 1.0000
25.6500 679.0000 1.0000
25.6600 667.0000 1.0000
25.6700 686.0000 1.0000
25.6800 648.0000 1.0000
25.6900 692.0000 1.0000
25.7000 647.0000 1.0000
25.7100 654.0000 1.0000
25.7200 675.0000 1.0000
25.7300 685.0000 1.0000
25.7400 691.0000 1.0000
25.7500 709.0000 1.0000
25.7600 733.0000 1.0000
25.7700 731.0000 1.0000
25.7800 713.0000 1.0000
25.7900 688.0000 1.0000
25.8000 671.0000 1.0000
25.8100 686.0000 1.0000
25.8200 706.0000 1.0000
25.8300 687.0000 1.0000
25.8400 679.0000 1.0000
25.8500 677.0000 1.0000
25.8600 699.0000 1.0000
25.8700 675.0000 1.0000
25.8800 741.0000 1.0000
25.8900 738.0000 1.0000
25.9000 696.0000 1.0000
25.9100 665.0000 1.0000
25.9200 754.0000 1.0000
25.9300 669.0000 1.0000
25.9400 688.0000 1.0000
25.9500 727.0000 1.0000
25.9600 716.0000 1.0000
25.9700 708.0000 1.0000
25.9800 703.0000 1.0000
25.9900 698.0000 1.0000
26.0000 704.0000 1.0000
26.0100 704.0000 1.0000
26.0200 727.0000 1.0000
26.0300 762.0000 1.0000
26.0400 737.0000 1.0000
26.0500 766.0000 1.0000
26.0600 730.0000 1.0000
26.0700 742.0000 1.0000
26.0800 797.0000 1.0000
26.0900 782.0000 1.0000
26.1000 769.0000 1.0000
26.1100 753.0000 1.0000
26.1200 767.0000 1.0000
26.1300 768.0000 1.0000
26.1400 782.0000 1.0000
26.1500 813.0000 1.0000
26.1600 826.0000 1.0000
26.1700 821.0000 1.0000
26.1800 848.0000 1.0000
26.1900 834.0000 1.0000
26.2000 860.0000 1.0000
26.2100 880.0000 1.0000
26.2200 882.0000 1.0000
26.2300 905.0000 1.0000
26.2400 895.0000 1.0000
26.2500 919.0000 1.0000
26.2600 922.0000 1.0000
26.2700 991.0000 1.0000
26.2800 945.0000 1.0000
26.2900 968.0000 1.0000
26.3000 997.0000 1.0000
26.3100 1027.0000 1.0000
26.3200 1069.0000 1.0000
26.3300 1105.0000 1.0000
26.3400 1133.0000 1.0000
26.3500 1115.0000 1.0000
26.3600 1178.0000 1.0000
26.3700 1180.0000 1.0000
26.3800 1232.0000 1.0000
26.3900 1232.0000 1.0000
26.4000 1229.0000 1.0000
26.4100 1314.0000 1.0000
26.4200 1349.0000 1.0000
26.4300 1379.0000 1.0000
26.4400 1430.0000 1.0000
26.4500 1402.0000 1.0000
26.4600 1444.0000 1.0000
26.4700 1365.0000 1.0000
26.4800 1377.0000 1.0000
26.4900 1374.0000 1.0000
26.5000 1306.0000 1.0000
26.5100 1295.0000 1.0000
26.5200 1296.0000 1.0000
26.5300 1328.0000 1.0000
26.5400 1241.0000 1.0000
26.5500 1246.0000 1.0000
26.5600 1206.0000 1.0000
26.5700 1142.0000 1.0000
26.5800 1113.0000 1.0000
26.5900 1111.0000 1.0000
26.6000 1098.0000 1.0000
26.6100 1063.0000 1.0000
26.6200 979.0000 1.0000
26.6300 1011.0000 1.0000
26.6400 1005.0000 1.0000
26.6500 939.0000 1.0000
26.6600 928.0000 1.0000
26.6700 929.0000 1.0000
26.6800 906.0000 1.0000
26.6900 870.0000 1.0000
26.7000 932.0000 1.0000
26.7100 918.0000 1.0000
26.7200 859.0000 1.0000
26.7300 801.0000 1.0000
26.7400 772.0000 1.0000
26.7500 797.0000 1.0000
26.7600 802.0000 1.0000
26.7700 795.0000 1.0000
26.7800 798.0000 1.0000
26.7900 783.0000 1.0000
26.8000 794.0000 1.0000
26.8100 809.0000 1.0000
26.8200 743.0000 1.0000
26.8300 760.0000 1.0000
26.8400 706.0000 1.0000
26.8500 705.0000 1.0000
26.8600 730.0000 1.0000
26.8700 699.0000 1.0000
26.8800 727.0000 1.0000
26.8900 709.0000 1.0000
26.9000 723.0000 1.0000
26.9100 729.0000 1.0000
26.9200 714.0000 1.0000
26.9300 683.0000 1.0000
26.9400 716.0000 1.0000
26.9500 712.0000 1.0000
26.9600 681.0000 1.0000
26.9700 678.0000 1.0000
26.9800 676.0000 1.0000
26.9900 687.0000 1.0000
27.0000 689.0000 1.0000
27.0100 660.0000 1.0000
27.0200 663.0000 1.0000
27.0300 653.0000 1.0000
27.0400 708.0000 1.0000
27.0500 691.0000 1.0000
27.0600 677.0000 1.0000
27.0700 683.0000 1.0000
27.0800 601.0000 1.0000
27.0900 660.0000 1.0000
27.1000 669.0000 1.0000
27.1100 699.0000 1.0000
27.1200 647.0000 1.0000
27.1300 714.0000 1.0000
27.1400 653.0000 1.0000
27.1500 648.0000 1.0000
27.1600 626.0000 1.0000
27.1700 677.0000 1.0000
27.1800 656.0000 1.0000
27.1900 678.0000 1.0000
27.2000 666.0000 1.0000
27.2100 612.0000 1.0000
27.2200 628.0000 1.0000
27.2300 600.0000 1.0000
27.2400 665.0000 1.0000
27.2500 671.0000 1.0000
27.2600 644.0000 1.0000
27.2700 666.0000 1.0000
27.2800 642.0000 1.0000
27.2900 624.0000 1.0000
27.3000 613.0000 1.0000
27.3100 641.0000 1.0000
27.3200 650.0000 1.0000
27.3300 643.0000 1.0000
27.3400 668.0000 1.0000
27.3500 639.0000 1.0000
27.3600 644.0000 1.0000
27.3700 608.0000 1.0000
27.3800 644.0000 1.0000
27.3900 607.0000 1.0000
27.4000 610.0000 1.0000
27.4100 611.0000 1.0000
27.4200 624.0000 1.0000
27.4300 650.0000 1.0000
27.4400 606.0000 1.0000
27.4500 638.0000 1.0000
27.4600 635.0000 1.0000
27.4700 634.0000 1.0000
27.4800 611.0000 1.0000
27.4900 603.0000 1.0000
27.5000 610.0000 1.0000
27.5100 609.0000 1.0000
27.5200 620.0000 1.0000
27.5300 614.0000 1.0000
27.5400 625.0000 1.0000
27.5500 591.0000 1.0000
27.5600 577.0000 1.0000
27.5700 644.0000 1.0000
27.5800 617.0000 1.0000
27.5900 603.0000 1.0000
27.6000 602.0000 1.0000
27.6100 605.0000 1.0000
27.6200 626.0000 1.0000
27.6300 603.0000 1.0000
27.6400 607.0000 1.0000
27.6500 605.0000 1.0000
27.6600 617.0000 1.0000
27.6700 652.0000 1.0000
27.6800 586.0000 1.0000
27.6900 578.0000 1.0000
27.7000 657.0000 1.0000
27.7100 623.0000 1.0000
27.7200 616.0000 1.0000
27.7300 613.0000 1.0000
27.7400 579.0000 1.0000
27.7500 614.0000 1.0000
27.7600 655.0000 1.0000
27.7700 589.0000 1.0000
27.7800 596.0000 1.0000
27.7900 605.0000 1.0000
27.8000 585.0000 1.0000
27.8100 594.0000 1.0000
27.8200 629.0000 1.0000
27.8300 604.0000 1.0000
27.8400 599.0000 1.0000
27.8500 621.0000 1.0000
27.8600 601.0000 1.0000
27.8700 589.0000 1.0000
27.8800 571.0000 1.0000
27.8900 564.0000 1.0000
27.9000 592.0000 1.0000
27.9100 598.0000 1.0000
27.9200 566.0000 1.0000
27.9300 574.0000 1.0000
27.9400 569.0000 1.0000
27.9500 643.0000 1.0000
27.9600 564.0000 1.0000
27.9700 592.0000 1.0000
27.9800 586.0000 1.0000
27.9900 592.0000 1.0000
28.0000 605.0000 1.0000
28.0100 626.0000 1.0000
28.0200 650.0000 1.0000
28.0300 629.0000 1.0000
28.0400 611.0000 1.0000
28.0500 588.0000 1.0000
28.0600 665.0000 1.0000
28.0700 594.0000 1.0000
28.0800 623.0000 1.0000
28.0900 566.0000 1.0000
28.1000 570.0000 1.0000
28.1100 606.0000 1.0000
28.1200 620.0000 1.0000
28.1300 531.0000 1.0000
28.1400 582.0000 1.0000
28.1500 610.0000 1.0000
28.1600 576.0000 1.0000
28.1700 565.0000 1.0000
28.1800 563.0000 1.0000
28.1900 590.0000 1.0000
28.2000 590.0000 1.0000
28.2100 581.0000 1.0000
28.2200 586.0000 1.0000
28.2300 569.0000 1.0000
28.2400 605.0000 1.0000
28.2500 642.0000 1.0000
28.2600 628.0000 1.0000
28.2700 593.0000 1.0000
28.2800 601.0000 1.0000
28.2900 576.0000 1.0000
28.3000 548.0000 1.0000
28.3100 558.0000 1.0000
28.3200 577.0000 1.0000
28.3300 548.0000 1.0000
28.3400 606.0000 1.0000
28.3500 578.0000 1.0000
28.3600 531.0000 1.0000
28.3700 593.0000 1.0000
28.3800 597.0000 1.0000
28.3900 562.0000 1.0000
28.4000 599.0000 1.0000
28.4100 630.0000 1.0000
28.4200 622.0000 1.0000
28.4300 612.0000 1.0000
28.4400 563.0000 1.0000
28.4500 601.0000 1.0000
28.4600 595.0000 1.0000
28.4700 570.0000 1.0000
28.4800 608.0000 1.0000
28.4900 598.0000 1.0000
28.5000 608.0000 1.0000
28.5100 593.0000 1.0000
28.5200 552.0000 1.0000
28.5300 609.0000 1.0000
28.5400 567.0000 1.0000
28.5500 648.0000 1.0000
28.5600 539.0000 1.0000
28.5700 583.0000 1.0000
28.5800 566.0000 1.0000
28.5900 552.0000 1.0000
28.6000 552.0000 1.0000
28.6100 588.0000 1.0000
28.6200 584.0000 1.0000
28.6300 574.0000 1.0000
28.6400 527.0000 1.0000
28.6500 582.0000 1.0000
28.6600 577.0000 1.0000
28.6700 551.0000 1.0000
28.6800 550.0000 1.0000
28.6900 570.0000 1.0000
28.7000 583.0000 1.0000
28.7100 596.0000 1.0000
28.7200 567.0000 1.0000
28.7300 516.0000 1.0000
28.7400 543.0000 1.0000
28.7500 553.0000 1.0000
28.7600 571.0000 1.0000
28.7700 562.0000 1.0000
28.7800 573.0000 1.0000
28.7900 564.0000 1.0000
28.8000 568.0000 1.0000
28.8100 595.0000 1.0000
28.8200 607.0000 1.0000
28.8300 599.0000 1.0000
28.8400 608.0000 1.0000
28.8500 532.0000 1.0000
28.8600 559.0000 1.0000
28.8700 563.0000 1.0000
28.8800 623.0000 1.0000
28.8900 567.0000 1.0000
28.9000 568.0000 1.0000
28.9100 572.0000 1.0000
28.9200 555.0000 1.0000
28.9300 553.0000 1.0000
28.9400 582.0000 1.0000
28.9500 549.0000 1.0000
28.9600 567.0000 1.0000
28.9700 576.0000 1.0000
28.9800 567.0000 1.0000
28.9900 569.0000 1.0000
29.0000 568.0000 1.0000
29.0100 534.0000 1.0000
29.0200 545.0000 1.0000
29.0300 578.0000 1.0000
29.0400 577.0000 1.0000
29.0500 563.0000 1.0000
29.0600 583.0000 1.0000
29.0700 567.0000 1.0000
29.0800 589.0000 1.0000
29.0900 579.0000 1.0000
29.1000 516.0000 1.0000
29.1100 553.0000 1.0000
29.1200 565.0000 1.0000
29.1300 575.0000 1.0000
29.1400 570.0000 1.0000
29.1500 548.0000 1.0000
29.1600 547.0000 1.0000
29.1700 575.0000 1.0000
29.1800 549.0000 1.0000
29.1900 533.0000 1.0000
29.2000 572.0000 1.0000
29.2100 562.0000 1.0000
29.2200 589.0000 1.0000
29.2300 544.0000 1.0000
29.2400 559.0000 1.0000
29.2500 575.0000 1.0000
29.2600 573.0000 1.0000
29.2700 590.0000 1.0000
29.2800 577.0000 1.0000
29.2900 549.0000 1.0000
29.3000 570.0000 1.0000
29.3100 550.0000 1.0000
29.3200 561.0000 1.0000
29.3300 546.0000 1.0000
29.3400 532.0000 1.0000
29.3500 579.0000 1.0000
29.3600 548.0000 1.0000
29.3700 559.0000 1.0000
29.3800 533.0000 1.0000
29.3900 544.0000 1.0000
29.4000 530.0000 1.0000
29.4100 576.0000 1.0000
29.4200 553.0000 1.0000
29.4300 598.0000 1.0000
29.4400 570.0000 1.0000
29.4500 552.0000 1.0000
29.4600 563.0000 1.0000
29.4700 582.0000 1.0000
29.4800 553.0000 1.0000
29.4900 526.0000 1.0000
29.5000 546.0000 1.0000
29.5100 558.0000 1.0000
29.5200 535.0000 1.0000
29.5300 505.0000 1.0000
29.5400 539.0000 1.0000
29.5500 572.0000 1.0000
29.5600 578.0000 1.0000
29.5700 575.0000 1.0000
29.5800 590.0000 1.0000
29.5900 553.0000 1.0000
29.6000 577.0000 1.0000
29.6100 518.0000 1.0000
29.6200 569.0000 1.0000
29.6300 589.0000 1.0000
29.6400 549.0000 1.0000
29.6500 566.0000 1.0000
29.6600 557.0000 1.0000
29.6700 566.0000 1.0000
29.6800 569.0000 1.0000
29.6900 533.0000 1.0000
29.7000 532.0000 1.0000
29.7100 517.0000 1.0000
29.7200 565.0000 1.0000
29.7300 582.0000 1.0000
29.7400 557.0000 1.0000
29.7500 598.0000 1.0000
29.7600 531.0000 1.0000
29.7700 545.0000 1.0000
29.7800 558.0000 1.0000
29.7900 545.0000 1.0000
29.8000 570.0000 1.0000
29.8100 564.0000 1.0000
29.8200 541.0000 1.0000
29.8300 520.0000 1.0000
29.8400 540.0000 1.0000
29.8500 551.0000 1.0000
29.8600 532.0000 1.0000
29.8700 571.0000 1.0000
29.8800 527.0000 1.0000
29.8900 546.0000 1.0000
29.9000 519.0000 1.0000
29.9100 518.0000 1.0000
29.9200 546.0000 1.0000
29.9300 515.0000 1.0000
29.9400 563.0000 1.0000
29.9500 547.0000 1.0000
29.9600 543.0000 1.0000
29.9700 522.0000 1.0000
29.9800 517.0000 1.0000
29.9900 505.0000 1.0000
30.0000 526.0000 1.0000
30.0100 564.0000 1.0000
30.0200 568.0000 1.0000
30.0300 552.0000 1.0000
30.0400 528.0000 1.0000
30.0500 478.0000 1.0000
30.0600 567.0000 1.0000
30.0700 521.0000 1.0000
30.0800 571.0000 1.0000
30.0900 531.0000 1.0000
30.1000 543.0000 1.0000
30.1100 550.0000 1.0000
30.1200 562.0000 1.0000
30.1300 547.0000 1.0000
30.1400 534.0000 1.0000
30.1500 553.0000 1.0000
30.1600 508.0000 1.0000
30.1700 562.0000 1.0000
30.1800 580.0000 1.0000
30.1900 499.0000 1.0000
30.2000 548.0000 1.0000
30.2100 494.0000 1.0000
30.2200 558.0000 1.0000
30.2300 552.0000 1.0000
30.2400 580.0000 1.0000
30.2500 539.0000 1.0000
30.2600 511.0000 1.0000
30.2700 515.0000 1.0000
30.2800 548.0000 1.0000
30.2900 514.0000 1.0000
30.3000 555.0000 1.0000
30.3100 538.0000 1.0000
30.3200 564.0000 1.0000
30.3300 503.0000 1.0000
30.3400 553.0000 1.0000
30.3500 537.0000 1.0000
30.3600 550.0000 1.0000
30.3700 531.0000 1.0000
30.3800 581.0000 1.0000
30.3900 526.0000 1.0000
30.4000 488.0000 1.0000
30.4100 534.0000 1.0000
30.4200 552.0000 1.0000
30.4300 502.0000 1.0000
30.4400 510.0000 1.0000
30.4500 502.0000 1.0000
30.4600 508.0000 1.0000
30.4700 491.0000 1.0000
30.4800 519.0000 1.0000
30.4900 573.0000 1.0000
30.5000 533.0000 1.0000
30.5100 506.0000 1.0000
30.5200 549.0000 1.0000
30.5300 581.0000 1.0000
30.5400 561.0000 1.0000
30.5500 536.0000 1.0000
30.5600 570.0000 1.0000
30.5700 557.0000 1.0000
30.5800 570.0000 1.0000
30.5900 498.0000 1.0000
30.6000 542.0000 1.0000
30.6100 547.0000 1.0000
30.6200 522.0000 1.0000
30.6300 515.0000 1.0000
30.6400 541.0000 1.0000
30.6500 517.0000 1.0000
30.6600 499.0000 1.0000
30.6700 515.0000 1.0000
30.6800 543.0000 1.0000
30.6900 518.0000 1.0000
30.7000 502.0000 1.0000
30.7100 571.0000 1.0000
30.7200 529.0000 1.0000
30.7300 541.0000 1.0000
30.7400 485.0000 1.0000
30.7500 522.0000 1.0000
30.7600 532.0000 1.0000
30.7700 516.0000 1.0000
30.7800 529.0000 1.0000
30.7900 520.0000 1.0000
30.8000 467.0000 1.0000
30.8100 535.0000 1.0000
30.8200 529.0000 1.0000
30.8300 502.0000 1.0000
30.8400 520.0000 1.0000
30.8500 518.0000 1.0000
30.8600 545.0000 1.0000
30.8700 535.0000 1.0000
30.8800 536.0000 1.0000
30.8900 532.0000 1.0000
30.9000 531.0000 1.0000
30.9100 533.0000 1.0000
30.9200 487.0000 1.0000
30.9300 514.0000 1.0000
30.9400 548.0000 1.0000
30.9500 579.0000 1.0000
30.9600 542.0000 1.0000
30.9700 544.0000 1.0000
30.9800 542.0000 1.0000
30.9900 512.0000 1.0000
31.0000 551.0000 1.0000
31.0100 568.0000 1.0000
31.0200 530.0000 1.0000
31.0300 576.0000 1.0000
31.0400 482.0000 1.0000
31.0500 538.0000 1.0000
31.0600 549.0000 1.0000
31.0700 538.0000 1.0000
31.0800 548.0000 1.0000
31.0900 547.0000 1.0000
31.1000 563.0000 1.0000
31.1100 579.0000 1.0000
31.1200 543.0000 1.0000
31.1300 529.0000 1.0000
31.1400 542.0000 1.0000
31.1500 571.0000 1.0000
31.1600 531.0000 1.0000
31.1700 541.0000 1.0000
31.1800 554.0000 1.0000
31.1900 516.0000 1.0000
31.2000 558.0000 1.0000
31.2100 547.0000 1.0000
31.2200 528.0000 1.0000
31.2300 544.0000 1.0000
31.2400 574.0000 1.0000
31.2500 528.0000 1.0000
31.2600 566.0000 1.0000
31.2700 535.0000 1.0000
31.2800 534.0000 1.0000
31.2900 496.0000 1.0000
31.3000 525.0000 1.0000
31.3100 527.0000 1.0000
31.3200 507.0000 1.0000
31.3300 538.0000 1.0000
31.3400 499.0000 1.0000
31.3500 543.0000 1.0000
31.3600 510.0000 1.0000
31.3700 508.0000 1.0000
31.3800 528.0000 1.0000
31.3900 503.0000 1.0000
31.4000 482.0000 1.0000
31.4100 525.0000 1.0000
31.4200 558.0000 1.0000
31.4300 527.0000 1.0000
31.4400 534.0000 1.0000
31.4500 534.0000 1.0000
31.4600 533.0000 1.0000
31.4700 547.0000 1.0000
31.4800 512.0000 1.0000
31.4900 511.0000 1.0000
31.5000 545.0000 1.0000
31.5100 516.0000 1.0000
31.5200 534.0000 1.0000
31.5300 540.0000 1.0000
31.5400 555.0000 1.0000
31.5500 499.0000 1.0000
31.5600 537.0000 1.0000
31.5700 525.0000 1.0000
31.5800 510.0000 1.0000
31.5900 515.0000 1.0000
31.6000 509.0000 1.0000
31.6100 514.0000 1.0000
31.6200 533.0000 1.0000
31.6300 557.0000 1.0000
31.6400 547.0000 1.0000
31.6500 536.0000 1.0000
31.6600 494.0000 1.0000
31.6700 530.0000 1.0000
31.6800 513.0000 1.0000
31.6900 538.0000 1.0000
31.7000 505.0000 1.0000
31.7100 503.0000 1.0000
31.7200 527.0000 1.0000
31.7300 529.0000 1.0000
31.7400 510.0000 1.0000
31.7500 539.0000 1.0000
31.7600 499.0000 1.0000
31.7700 515.0000 1.0000
31.7800 491.0000 1.0000
31.7900 515.0000 1.0000
31.8000 490.0000 1.0000
31.8100 470.0000 1.0000
31.8200 540.0000 1.0000
31.8300 506.0000 1.0000
31.8400 563.0000 1.0000
31.8500 497.0000 1.0000
31.8600 502.0000 1.0000
31.8700 525.0000 1.0000
31.8800 472.0000 1.0000
31.8900 506.0000 1.0000
31.9000 509.0000 1.0000
31.9100 535.0000 1.0000
31.9200 550.0000 1.0000
31.9300 542.0000 1.0000
31.9400 546.0000 1.0000
31.9500 488.0000 1.0000
31.9600 518.0000 1.0000
31.9700 551.0000 1.0000
31.9800 529.0000 1.0000
31.9900 518.0000 1.0000
32.0000 504.0000 1.0000
32.0100 505.0000 1.0000
32.0200 524.0000 1.0000
32.0300 515.0000 1.0000
32.0400 515.0000 1.0000
32.0500 490.0000 1.0000
32.0600 497.0000 1.0000
32.0700 508.0000 1.0000
32.0800 519.0000 1.0000
32.0900 510.0000 1.0000
32.1000 477.0000 1.0000
32.1100 519.0000 1.0000
32.1200 495.0000 1.0000
32.1300 506.0000 1.0000
32.1400 536.0000 1.0000
32.1500 493.0000 1.0000
32.1600 469.0000 1.0000
32.1700 505.0000 1.0000
32.1800 493.0000 1.0000
32.1900 485.0000 1.0000
32.2000 485.0000 1.0000
32.2100 490.0000 1.0000
32.2200 507.0000 1.0000
32.2300 505.0000 1.0000
32.2400 511.0000 1.0000
32.2500 476.0000 1.0000
32.2600 504.0000 1.0000
32.2700 488.0000 1.0000
32.2800 512.0000 1.0000
32.2900 495.0000 1.0000
32.3000 468.0000 1.0000
32.3100 461.0000 1.0000
32.3200 507.0000 1.0000
32.3300 484.0000 1.0000
32.3400 476.0000 1.0000
32.3500 497.0000 1.0000
32.3600 492.0000 1.0000
32.3700 460.0000 1.0000
32.3800 527.0000 1.0000
32.3900 514.0000 1.0000
32.4000 510.0000 1.0000
32.4100 476.0000 1.0000
32.4200 469.0000 1.0000
32.4300 504.0000 1.0000
32.4400 490.0000 1.0000
32.4500 501.0000 1.0000
32.4600 503.0000 1.0000
32.4700 497.0000 1.0000
32.4800 512.0000 1.0000
32.4900 534.0000 1.0000
32.5000 484.0000 1.0000
32.5100 522.0000 1.0000
32.5200 535.0000 1.0000
32.5300 502.0000 1.0000
32.5400 504.0000 1.0000
32.5500 490.0000 1.0000
32.5600 500.0000 1.0000
32.5700 542.0000 1.0000
32.5800 491.0000 1.0000
32.5900 523.0000 1.0000
32.6000 510.0000 1.0000
32.6100 482.0000 1.0000
32.6200 499.0000 1.0000
32.6300 483.0000 1.0000
32.6400 434.0000 1.0000
32.6500 474.0000 1.0000
32.6600 485.0000 1.0000
32.6700 503.0000 1.0000
32.6800 519.0000 1.0000
32.6900 490.0000 1.0000
32.7000 526.0000 1.0000
32.7100 515.0000 1.0000
32.7200 522.0000 1.0000
32.7300 502.0000 1.0000
32.7400 476.0000 1.0000
32.7500 508.0000 1.0000
32.7600 521.0000 1.0000
32.7700 491.0000 1.0000
32.7800 493.0000 1.0000
32.7900 501.0000 1.0000
32.8000 478.0000 1.0000
32.8100 524.0000 1.0000
32.8200 522.0000 1.0000
32.8300 501.0000 1.0000
32.8400 489.0000 1.0000
32.8500 510.0000 1.0000
32.8600 526.0000 1.0000
32.8700 506.0000 1.0000
32.8800 503.0000 1.0000
32.8900 504.0000 1.0000
32.9000 511.0000 1.0000
32.9100 516.0000 1.0000
32.9200 528.0000 1.0000
32.9300 505.0000 1.0000
32.9400 511.0000 1.0000
32.9500 535.0000 1.0000
32.9600 533.0000 1.0000
32.9700 492.0000 1.0000
32.9800 515.0000 1.0000
32.9900 510.0000 1.0000
33.0000 546.0000 1.0000
33.0100 516.0000 1.0000
33.0200 516.0000 1.0000
33.0300 512.0000 1.0000
33.0400 549.0000 1.0000
33.0500 542.0000 1.0000
33.0600 529.0000 1.0000
33.0700 547.0000 1.0000
33.0800 569.0000 1.0000
33.0900 540.0000 1.0000
33.1000 547.0000 1.0000
33.1100 528.0000 1.0000
33.1200 554.0000 1.0000
33.1300 558.0000 1.0000
33.1400 566.0000 1.0000
33.1500 562.0000 1.0000
33.1600 515.0000 1.0000
33.1700 588.0000 1.0000
33.1800 531.0000 1.0000
33.1900 525.0000 1.0000
33.2000 566.0000 1.0000
33.2100 539.0000 1.0000
33.2200 544.0000 1.0000
33.2300 563.0000 1.0000
33.2400 529.0000 1.0000
33.2500 545.0000 1.0000
33.2600 547.0000 1.0000
33.2700 508.0000 1.0000
33.2800 517.0000 1.0000
33.2900 528.0000 1.0000
33.3000 515.0000 1.0000
33.3100 543.0000 1.0000
33.3200 573.0000 1.0000
33.3300 535.0000 1.0000
33.3400 531.0000 1.0000
33.3500 550.0000 1.0000
33.3600 549.0000 1.0000
33.3700 542.0000 1.0000
33.3800 572.0000 1.0000
33.3900 554.0000 1.0000
33.4000 531.0000 1.0000
33.4100 529.0000 1.0000
33.4200 549.0000 1.0000
33.4300 539.0000 1.0000
33.4400 527.0000 1.0000
33.4500 553.0000 1.0000
33.4600 571.0000 1.0000
33.4700 573.0000 1.0000
33.4800 553.0000 1.0000
33.4900 606.0000 1.0000
33.5000 636.0000 1.0000
33.5100 572.0000 1.0000
33.5200 563.0000 1.0000
33.5300 577.0000 1.0000
33.5400 607.0000 1.0000
33.5500 639.0000 1.0000
33.5600 608.0000 1.0000
33.5700 648.0000 1.0000
33.5800 604.0000 1.0000
33.5900 612.0000 1.0000
33.6000 597.0000 1.0000
33.6100 617.0000 1.0000
33.6200 651.0000 1.0000
33.6300 638.0000 1.0000
33.6400 629.0000 1.0000
33.6500 633.0000 1.0000
33.6600 675.0000 1.0000
33.6700 656.0000 1.0000
33.6800 653.0000 1.0000
33.6900 676.0000 1.0000
33.7000 623.0000 1.0000
33.7100 628.0000 1.0000
33.7200 629.0000 1.0000
33.7300 627.0000 1.0000
33.7400 623.0000 1.0000
33.7500 625.0000 1.0000
33.7600 668.0000 1.0000
33.7700 653.0000 1.0000
33.7800 636.0000 1.0000
33.7900 603.0000 1.0000
33.8000 605.0000 1.0000
33.8100 603.0000 1.0000
33.8200 625.0000 1.0000
33.8300 581.0000 1.0000
33.8400 579.0000 1.0000
33.8500 579.0000 1.0000
33.8600 594.0000 1.0000
33.8700 574.0000 1.0000
33.8800 542.0000 1.0000
33.8900 588.0000 1.0000
33.9000 580.0000 1.0000
33.9100 563.0000 1.0000
33.9200 585.0000 1.0000
33.9300 550.0000 1.0000
33.9400 559.0000 1.0000
33.9500 563.0000 1.0000
33.9600 526.0000 1.0000
33.9700 540.0000 1.0000
33.9800 490.0000 1.0000
33.9900 501.0000 1.0000
34.0000 533.0000 1.0000
34.0100 494.0000 1.0000
34.0200 520.0000 1.0000
34.0300 526.0000 1.0000
34.0400 524.0000 1.0000
34.0500 493.0000 1.0000
34.0600 473.0000 1.0000
34.0700 514.0000 1.0000
34.0800 498.0000 1.0000
34.0900 503.0000 1.0000
34.1000 493.0000 1.0000
34.1100 451.0000 1.0000
34.1200 476.0000 1.0000
34.1300 509.0000 1.0000
34.1400 474.0000 1.0000
34.1500 456.0000 1.0000
34.1600 459.0000 1.0000
34.1700 483.0000 1.0000
34.1800 487.0000 1.0000
34.1900 459.0000 1.0000
34.2000 462.0000 1.0000
34.2100 492.0000 1.0000
34.2200 509.0000 1.0000
34.2300 497.0000 1.0000
34.2400 447.0000 1.0000
34.2500 475.0000 1.0000
34.2600 481.0000 1.0000
34.2700 461.0000 1.0000
34.2800 453.0000 1.0000
34.2900 478.0000 1.0000
34.3000 443.0000 1.0000
34.3100 428.0000 1.0000
34.3200 465.0000 1.0000
34.3300 482.0000 1.0000
34.3400 443.0000 1.0000
34.3500 487.0000 1.0000
34.3600 488.0000 1.0000
34.3700 432.0000 1.0000
34.3800 422.0000 1.0000
34.3900 454.0000 1.0000
34.4000 447.0000 1.0000
34.4100 436.0000 1.0000
34.4200 427.0000 1.0000
34.4300 449.0000 1.0000
34.4400 447.0000 1.0000
34.4500 437.0000 1.0000
34.4600 439.0000 1.0000
34.4700 422.0000 1.0000
34.4800 443.0000 1.0000
34.4900 438.0000 1.0000
34.5000 454.0000 1.0000
34.5100 467.0000 1.0000
34.5200 442.0000 1.0000
34.5300 427.0000 1.0000
34.5400 440.0000 1.0000
34.5500 436.0000 1.0000
34.5600 411.0000 1.0000
34.5700 436.0000 1.0000
34.5800 463.0000 1.0000
34.5900 463.0000 1.0000
34.6000 447.0000 1.0000
34.6100 475.0000 1.0000
34.6200 457.0000 1.0000
34.6300 463.0000 1.0000
34.6400 459.0000 1.0000
34.6500 483.0000 1.0000
34.6600 463.0000 1.0000
34.6700 452.0000 1.0000
34.6800 433.0000 1.0000
34.6900 433.0000 1.0000
34.7000 424.0000 1.0000
34.7100 428.0000 1.0000
34.7200 455.0000 1.0000
34.7300 469.0000 1.0000
34.7400 457.0000 1.0000
34.7500 446.0000 1.0000
34.7600 444.0000 1.0000
34.7700 428.0000 1.0000
34.7800 439.0000 1.0000
34.7900 416.0000 1.0000
34.8000 430.0000 1.0000
34.8100 403.0000 1.0000
34.8200 418.0000 1.0000
34.8300 406.0000 1.0000
34.8400 430.0000 1.0000
34.8500 435.0000 1.0000
34.8600 422.0000 1.0000
34.8700 444.0000 1.0000
34.8800 460.0000 1.0000
34.8900 461.0000 1.0000
34.9000 434.0000 1.0000
34.9100 457.0000 1.0000
34.9200 444.0000 1.0000
34.9300 455.0000 1.0000
34.9400 448.0000 1.0000
34.9500 425.0000 1.0000
34.9600 425.0000 1.0000
34.9700 450.0000 1.0000
34.9800 455.0000 1.0000
34.9900 426.0000 1.0000
35.0000 446.0000 1.0000
35.0100 488.0000 1.0000
35.0200 434.0000 1.0000
35.0300 429.0000 1.0000
35.0400 435.0000 1.0000
35.0500 432.0000 1.0000
35.0600 426.0000 1.0000
35.0700 438.0000 1.0000
35.0800 459.0000 1.0000
35.0900 414.0000 1.0000
35.1000 428.0000 1.0000
35.1100 414.0000 1.0000
35.1200 445.0000 1.0000
35.1300 433.0000 1.0000
35.1400 441.0000 1.0000
35.1500 428.0000 1.0000
35.1600 450.0000 1.0000
35.1700 421.0000 1.0000
35.1800 424.0000 1.0000
35.1900 450.0000 1.0000
35.2000 439.0000 1.0000
35.2100 459.0000 1.0000
35.2200 459.0000 1.0000
35.2300 425.0000 1.0000
35.2400 429.0000 1.0000
35.2500 450.0000 1.0000
35.2600 488.0000 1.0000
35.2700 461.0000 1.0000
35.2800 450.0000 1.0000
35.2900 462.0000 1.0000
35.3000 491.0000 1.0000
35.3100 492.0000 1.0000
35.3200 478.0000 1.0000
35.3300 480.0000 1.0000
35.3400 463.0000 1.0000
35.3500 458.0000 1.0000
35.3600 481.0000 1.0000
35.3700 474.0000 1.0000
35.3800 456.0000 1.0000
35.3900 503.0000 1.0000
35.4000 513.0000 1.0000
35.4100 496.0000 1.0000
35.4200 535.0000 1.0000
35.4300 527.0000 1.0000
35.4400 512.0000 1.0000
35.4500 567.0000 1.0000
35.4600 552.0000 1.0000
35.4700 530.0000 1.0000
35.4800 606.0000 1.0000
35.4900 570.0000 1.0000
35.5000 609.0000 1.0000
35.5100 611.0000 1.0000
35.5200 669.0000 1.0000
35.5300 659.0000 1.0000
35.5400 620.0000 1.0000
35.5500 641.0000 1.0000
35.5600 671.0000 1.0000
35.5700 706.0000 1.0000
35.5800 670.0000 1.0000
35.5900 708.0000 1.0000
35.6000 676.0000 1.0000
35.6100 670.0000 1.0000
35.6200 674.0000 1.0000
35.6300 650.0000 1.0000
35.6400 683.0000 1.0000
35.6500 655.0000 1.0000
35.6600 658.0000 1.0000
35.6700 615.0000 1.0000
35.6800 599.0000 1.0000
35.6900 612.0000 1.0000
35.7000 599.0000 1.0000
35.7100 555.0000 1.0000
35.7200 569.0000 1.0000
35.7300 553.0000 1.0000
35.7400 546.0000 1.0000
35.7500 538.0000 1.0000
35.7600 528.0000 1.0000
35.7700 530.0000 1.0000
35.7800 486.0000 1.0000
35.7900 483.0000 1.0000
35.8000 473.0000 1.0000
35.8100 451.0000 1.0000
35.8200 480.0000 1.0000
35.8300 461.0000 1.0000
35.8400 407.0000 1.0000
35.8500 477.0000 1.0000
35.8600 462.0000 1.0000
35.8700 446.0000 1.0000
35.8800 460.0000 1.0000
35.8900 429.0000 1.0000
35.9000 445.0000 1.0000
35.9100 434.0000 1.0000
35.9200 440.0000 1.0000
35.9300 437.0000 1.0000
35.9400 436.0000 1.0000
35.9500 444.0000 1.0000
35.9600 421.0000 1.0000
35.9700 413.0000 1.0000
35.9800 438.0000 1.0000
35.9900 412.0000 1.0000
36.0000 396.0000 1.0000
36.0100 442.0000 1.0000
36.0200 463.0000 1.0000
36.0300 426.0000 1.0000
36.0400 441.0000 1.0000
36.0500 409.0000 1.0000
36.0600 437.0000 1.0000
36.0700 397.0000 1.0000
36.0800 419.0000 1.0000
36.0900 467.0000 1.0000
36.1000 433.0000 1.0000
36.1100 393.0000 1.0000
36.1200 413.0000 1.0000
36.1300 397.0000 1.0000
36.1400 426.0000 1.0000
36.1500 427.0000 1.0000
36.1600 398.0000 1.0000
36.1700 425.0000 1.0000
36.1800 421.0000 1.0000
36.1900 391.0000 1.0000
36.2000 413.0000 1.0000
36.2100 407.0000 1.0000
36.2200 408.0000 1.0000
36.2300 391.0000 1.0000
36.2400 415.0000 1.0000
36.2500 399.0000 1.0000
36.2600 425.0000 1.0000
36.2700 432.0000 1.0000
36.2800 398.0000 1.0000
36.2900 423.0000 1.0000
36.3000 398.0000 1.0000
36.3100 421.0000 1.0000
36.3200 359.0000 1.0000
36.3300 420.0000 1.0000
36.3400 425.0000 1.0000
36.3500 410.0000 1.0000
36.3600 464.0000 1.0000
36.3700 415.0000 1.0000
36.3800 411.0000 1.0000
36.3900 407.0000 1.0000
36.4000 431.0000 1.0000
36.4100 410.0000 1.0000
36.4200 429.0000 1.0000
36.4300 397.0000 1.0000
36.4400 387.0000 1.0000
36.4500 416.0000 1.0000
36.4600 421.0000 1.0000
36.4700 420.0000 1.0000
36.4800 396.0000 1.0000
36.4900 420.0000 1.0000
36.5000 378.0000 1.0000
36.5100 386.0000 1.0000
36.5200 405.0000 1.0000
36.5300 414.0000 1.0000
36.5400 426.0000 1.0000
36.5500 414.0000 1.0000
36.5600 379.0000 1.0000
36.5700 437.0000 1.0000
36.5800 395.0000 1.0000
36.5900 421.0000 1.0000
36.6000 401.0000 1.0000
36.6100 395.0000 1.0000
36.6200 429.0000 1.0000
36.6300 411.0000 1.0000
36.6400 386.0000 1.0000
36.6500 409.0000 1.0000
36.6600 391.0000 1.0000
36.6700 399.0000 1.0000
36.6800 418.0000 1.0000
36.6900 428.0000 1.0000
36.7000 431.0000 1.0000
36.7100 397.0000 1.0000
36.7200 409.0000 1.0000
36.7300 424.0000 1.0000
36.7400 388.0000 1.0000
36.7500 399.0000 1.0000
36.7600 434.0000 1.0000
36.7700 391.0000 1.0000
36.7800 401.0000 1.0000
36.7900 428.0000 1.0000
36.8000 426.0000 1.0000
36.8100 438.0000 1.0000
36.8200 418.0000 1.0000
36.8300 420.0000 1.0000
36.8400 389.0000 1.0000
36.8500 425.0000 1.0000
36.8600 405.0000 1.0000
36.8700 384.0000 1.0000
36.8800 402.0000 1.0000
36.8900 425.0000 1.0000
36.9000 406.0000 1.0000
36.9100 424.0000 1.0000
36.9200 402.0000 1.0000
36.9300 438.0000 1.0000
36.9400 410.0000 1.0000
36.9500 375.0000 1.0000
36.9600 385.0000 1.0000
36.9700 376.0000 1.0000
36.9800 401.0000 1.0000
36.9900 399.0000 1.0000
37.0000 429.0000 1.0000
37.0100 424.0000 1.0000
37.0200 412.0000 1.0000
37.0300 415.0000 1.0000
37.0400 428.0000 1.0000
37.0500 433.0000 1.0000
37.0600 427.0000 1.0000
37.0700 434.0000 1.0000
37.0800 427.0000 1.0000
37.0900 435.0000 1.0000
37.1000 438.0000 1.0000
37.1100 448.0000 1.0000
37.1200 434.0000 1.0000
37.1300 454.0000 1.0000
37.1400 442.0000 1.0000
37.1500 453.0000 1.0000
37.1600 451.0000 1.0000
37.1700 451.0000 1.0000
37.1800 429.0000 1.0000
37.1900 429.0000 1.0000
37.2000 451.0000 1.0000
37.2100 481.0000 1.0000
37.2200 473.0000 1.0000
37.2300 476.0000 1.0000
37.2400 503.0000 1.0000
37.2500 469.0000 1.0000
37.2600 472.0000 1.0000
37.2700 536.0000 1.0000
37.2800 473.0000 1.0000
37.2900 482.0000 1.0000
37.3000 525.0000 1.0000
37.3100 561.0000 1.0000
37.3200 519.0000 1.0000
37.3300 536.0000 1.0000
37.3400 572.0000 1.0000
37.3500 566.0000 1.0000
37.3600 596.0000 1.0000
37.3700 606.0000 1.0000
37.3800 618.0000 1.0000
37.3900 658.0000 1.0000
37.4000 662.0000 1.0000
37.4100 698.0000 1.0000
37.4200 659.0000 1.0000
37.4300 726.0000 1.0000
37.4400 710.0000 1.0000
37.4500 754.0000 1.0000
37.4600 793.0000 1.0000
37.4700 813.0000 1.0000
37.4800 891.0000 1.0000
37.4900 858.0000 1.0000
37.5000 943.0000 1.0000
37.5100 979.0000 1.0000
37.5200 1034.0000 1.0000
37.5300 1095.0000 1.0000
37.5400 1146.0000 1.0000
37.5500 1282.0000 1.0000
37.5600 1306.0000 1.0000
37.5700 1337.0000 1.0000
37.5800 1406.0000 1.0000
37.5900 1532.0000 1.0000
37.6000 1718.0000 1.0000
37.6100 1670.0000 1.0000
37.6200 1868.0000 1.0000
37.6300 1991.0000 1.0000
37.6400 2130.0000 1.0000
37.6500 2273.0000 1.0000
37.6600 2334.0000 1.0000
37.6700 2470.0000 1.0000
37.6800 2615.0000 1.0000
37.6900 2731.0000 1.0000
37.7000 2802.0000 1.0000
37.7100 2978.0000 1.0000
37.7200 2964.0000 1.0000
37.7300 2910.0000 1.0000
37.7400 2898.0000 1.0000
37.7500 2894.0000 1.0000
37.7600 2887.0000 1.0000
37.7700 2859.0000 1.0000
37.7800 2751.0000 1.0000
37.7900 2725.0000 1.0000
37.8000 2645.0000 1.0000
37.8100 2579.0000 1.0000
37.8200 2459.0000 1.0000
37.8300 2352.0000 1.0000
37.8400 2230.0000 1.0000
37.8500 2093.0000 1.0000
37.8600 2007.0000 1.0000
37.8700 1882.0000 1.0000
37.8800 1796.0000 1.0000
37.8900 1627.0000 1.0000
37.9000 1507.0000 1.0000
37.9100 1409.0000 1.0000
37.9200 1352.0000 1.0000
37.9300 1233.0000 1.0000
37.9400 1146.0000 1.0000
37.9500 1037.0000 1.0000
37.9600 1054.0000 1.0000
37.9700 974.0000 1.0000
37.9800 940.0000 1.0000
37.9900 875.0000 1.0000
38.0000 864.0000 1.0000
38.0100 833.0000 1.0000
38.0200 788.0000 1.0000
38.0300 745.0000 1.0000
38.0400 783.0000 1.0000
38.0500 693.0000 1.0000
38.0600 685.0000 1.0000
38.0700 632.0000 1.0000
38.0800 593.0000 1.0000
38.0900 593.0000 1.0000
38.1000 588.0000 1.0000
38.1100 544.0000 1.0000
38.1200 596.0000 1.0000
38.1300 562.0000 1.0000
38.1400 577.0000 1.0000
38.1500 554.0000 1.0000
38.1600 504.0000 1.0000
38.1700 481.0000 1.0000
38.1800 496.0000 1.0000
38.1900 501.0000 1.0000
38.2000 481.0000 1.0000
38.2100 431.0000 1.0000
38.2200 444.0000 1.0000
38.2300 451.0000 1.0000
38.2400 474.0000 1.0000
38.2500 443.0000 1.0000
38.2600 421.0000 1.0000
38.2700 426.0000 1.0000
38.2800 458.0000 1.0000
38.2900 401.0000 1.0000
38.3000 392.0000 1.0000
38.3100 417.0000 1.0000
38.3200 414.0000 1.0000
38.3300 409.0000 1.0000
38.3400 405.0000 1.0000
38.3500 410.0000 1.0000
38.3600 417.0000 1.0000
38.3700 414.0000 1.0000
38.3800 443.0000 1.0000
38.3900 384.0000 1.0000
38.4000 383.0000 1.0000
38.4100 395.0000 1.0000
38.4200 366.0000 1.0000
38.4300 366.0000 1.0000
38.4400 347.0000 1.0000
38.4500 365.0000 1.0000
38.4600 387.0000 1.0000
38.4700 382.0000 1.0000
38.4800 417.0000 1.0000
38.4900 364.0000 1.0000
38.5000 356.0000 1.0000
38.5100 397.0000 1.0000
38.5200 381.0000 1.0000
38.5300 376.0000 1.0000
38.5400 368.0000 1.0000
38.5500 419.0000 1.0000
38.5600 374.0000 1.0000
38.5700 399.0000 1.0000
38.5800 376.0000 1.0000
38.5900 353.0000 1.0000
38.6000 381.0000 1.0000
38.6100 395.0000 1.0000
38.6200 364.0000 1.0000
38.6300 384.0000 1.0000
38.6400 348.0000 1.0000
38.6500 352.0000 1.0000
38.6600 391.0000 1.0000
38.6700 371.0000 1.0000
38.6800 355.0000 1.0000
38.6900 372.0000 1.0000
38.7000 377.0000 1.0000
38.7100 365.0000 1.0000
38.7200 368.0000 1.0000
38.7300 386.0000 1.0000
38.7400 377.0000 1.0000
38.7500 356.0000 1.0000
38.7600 372.0000 1.0000
38.7700 374.0000 1.0000
38.7800 369.0000 1.0000
38.7900 380.0000 1.0000
38.8000 383.0000 1.0000
38.8100 379.0000 1.0000
38.8200 393.0000 1.0000
38.8300 383.0000 1.0000
38.8400 360.0000 1.0000
38.8500 393.0000 1.0000
38.8600 369.0000 1.0000
38.8700 328.0000 1.0000
38.8800 376.0000 1.0000
38.8900 365.0000 1.0000
38.9000 337.0000 1.0000
38.9100 367.0000 1.0000
38.9200 366.0000 1.0000
38.9300 351.0000 1.0000
38.9400 355.0000 1.0000
38.9500 339.0000 1.0000
38.9600 328.0000 1.0000
38.9700 339.0000 1.0000
38.9800 333.0000 1.0000
38.9900 357.0000 1.0000
39.0000 337.0000 1.0000
39.0100 352.0000 1.0000
39.0200 363.0000 1.0000
39.0300 366.0000 1.0000
39.0400 355.0000 1.0000
39.0500 358.0000 1.0000
39.0600 339.0000 1.0000
39.0700 370.0000 1.0000
39.0800 329.0000 1.0000
39.0900 322.0000 1.0000
39.1000 347.0000 1.0000
39.1100 334.0000 1.0000
39.1200 316.0000 1.0000
39.1300 351.0000 1.0000
39.1400 346.0000 1.0000
39.1500 346.0000 1.0000
39.1600 379.0000 1.0000
39.1700 345.0000 1.0000
39.1800 362.0000 1.0000
39.1900 347.0000 1.0000
39.2000 353.0000 1.0000
39.2100 357.0000 1.0000
39.2200 336.0000 1.0000
39.2300 335.0000 1.0000
39.2400 318.0000 1.0000
39.2500 342.0000 1.0000
39.2600 334.0000 1.0000
39.2700 302.0000 1.0000
39.2800 329.0000 1.0000
39.2900 349.0000 1.0000
39.3000 356.0000 1.0000
39.3100 349.0000 1.0000
39.3200 353.0000 1.0000
39.3300 314.0000 1.0000
39.3400 340.0000 1.0000
39.3500 335.0000 1.0000
39.3600 343.0000 1.0000
39.3700 342.0000 1.0000
39.3800 353.0000 1.0000
39.3900 361.0000 1.0000
39.4000 332.0000 1.0000
39.4100 301.0000 1.0000
39.4200 346.0000 1.0000
39.4300 327.0000 1.0000
39.4400 340.0000 1.0000
39.4500 345.0000 1.0000
39.4600 343.0000 1.0000
39.4700 334.0000 1.0000
39.4800 319.0000 1.0000
39.4900 332.0000 1.0000
39.5000 342.0000 1.0000
39.5100 321.0000 1.0000
39.5200 331.0000 1.0000
39.5300 328.0000 1.0000
39.5400 325.0000 1.0000
39.5500 332.0000 1.0000
39.5600 349.0000 1.0000
39.5700 330.0000 1.0000
39.5800 319.0000 1.0000
39.5900 344.0000 1.0000
39.6000 323.0000 1.0000
39.6100 330.0000 1.0000
39.6200 351.0000 1.0000
39.6300 354.0000 1.0000
39.6400 347.0000 1.0000
39.6500 361.0000 1.0000
39.6600 339.0000 1.0000
39.6700 334.0000 1.0000
39.6800 355.0000 1.0000
39.6900 350.0000 1.0000
39.7000 326.0000 1.0000
39.7100 318.0000 1.0000
39.7200 348.0000 1.0000
39.7300 324.0000 1.0000
39.7400 337.0000 1.0000
39.7500 345.0000 1.0000
39.7600 334.0000 1.0000
39.7700 308.0000 1.0000
39.7800 320.0000 1.0000
39.7900 319.0000 1.0000
39.8000 344.0000 1.0000
39.8100 348.0000 1.0000
39.8200 343.0000 1.0000
39.8300 355.0000 1.0000
39.8400 336.0000 1.0000
39.8500 329.0000 1.0000
39.8600 305.0000 1.0000
39.8700 351.0000 1.0000
39.8800 320.0000 1.0000
39.8900 338.0000 1.0000
39.9000 348.0000 1.0000
39.9100 383.0000 1.0000
39.9200 347.0000 1.0000
39.9300 327.0000 1.0000
39.9400 335.0000 1.0000
39.9500 330.0000 1.0000
39.9600 323.0000 1.0000
39.9700 310.0000 1.0000
39.9800 305.0000 1.0000
39.9900 334.0000 1.0000
40.0000 335.0000 1.0000
40.0100 318.0000 1.0000
40.0200 308.0000 1.0000
40.0300 322.0000 1.0000
40.0400 350.0000 1.0000
40.0500 325.0000 1.0000
40.0600 329.0000 1.0000
40.0700 333.0000 1.0000
40.0800 342.0000 1.0000
40.0900 336.0000 1.0000
40.1000 307.0000 1.0000
40.1100 326.0000 1.0000
40.1200 327.0000 1.0000
40.1300 305.0000 1.0000
40.1400 310.0000 1.0000
40.1500 328.0000 1.0000
40.1600 310.0000 1.0000
40.1700 326.0000 1.0000
40.1800 318.0000 1.0000
40.1900 300.0000 1.0000
40.2000 318.0000 1.0000
40.2100 330.0000 1.0000
40.2200 334.0000 1.0000
40.2300 324.0000 1.0000
40.2400 363.0000 1.0000
40.2500 368.0000 1.0000
40.2600 314.0000 1.0000
40.2700 335.0000 1.0000
40.2800 317.0000 1.0000
40.2900 324.0000 1.0000
40.3000 330.0000 1.0000
40.3100 314.0000 1.0000
40.3200 333.0000 1.0000
40.3300 312.0000 1.0000
40.3400 312.0000 1.0000
40.3500 322.0000 1.0000
40.3600 351.0000 1.0000
40.3700 329.0000 1.0000
40.3800 342.0000 1.0000
40.3900 307.0000 1.0000
40.4000 331.0000 1.0000
40.4100 326.0000 1.0000
40.4200 322.0000 1.0000
40.4300 318.0000 1.0000
40.4400 320.0000 1.0000
40.4500 354.0000 1.0000
40.4600 316.0000 1.0000
40.4700 309.0000 1.0000
40.4800 316.0000 1.0000
40.4900 303.0000 1.0000
40.5000 313.0000 1.0000
40.5100 334.0000 1.0000
40.5200 296.0000 1.0000
40.5300 320.0000 1.0000
40.5400 314.0000 1.0000
40.5500 307.0000 1.0000
40.5600 321.0000 1.0000
40.5700 342.0000 1.0000
40.5800 341.0000 1.0000
40.5900 316.0000 1.0000
40.6000 330.0000 1.0000
40.6100 303.0000 1.0000
40.6200 318.0000 1.0000
40.6300 306.0000 1.0000
40.6400 336.0000 1.0000
40.6500 310.0000 1.0000
40.6600 328.0000 1.0000
40.6700 330.0000 1.0000
40.6800 344.0000 1.0000
40.6900 343.0000 1.0000
40.7000 362.0000 1.0000
40.7100 370.0000 1.0000
40.7200 337.0000 1.0000
40.7300 325.0000 1.0000
40.7400 335.0000 1.0000
40.7500 342.0000 1.0000
40.7600 339.0000 1.0000
40.7700 336.0000 1.0000
40.7800 320.0000 1.0000
40.7900 326.0000 1.0000
40.8000 320.0000 1.0000
40.8100 338.0000 1.0000
40.8200 316.0000 1.0000
40.8300 322.0000 1.0000
40.8400 338.0000 1.0000
40.8500 346.0000 1.0000
40.8600 354.0000 1.0000
40.8700 359.0000 1.0000
40.8800 331.0000 1.0000
40.8900 327.0000 1.0000
40.9000 337.0000 1.0000
40.9100 333.0000 1.0000
40.9200 315.0000 1.0000
40.9300 320.0000 1.0000
40.9400 357.0000 1.0000
40.9500 303.0000 1.0000
40.9600 333.0000 1.0000
40.9700 320.0000 1.0000
40.9800 341.0000 1.0000
40.9900 352.0000 1.0000
41.0000 327.0000 1.0000
41.0100 328.0000 1.0000
41.0200 314.0000 1.0000
41.0300 367.0000 1.0000
41.0400 280.0000 1.0000
41.0500 303.0000 1.0000
41.0600 348.0000 1.0000
41.0700 328.0000 1.0000
41.0800 347.0000 1.0000
41.0900 323.0000 1.0000
41.1000 334.0000 1.0000
41.1100 320.0000 1.0000
41.1200 332.0000 1.0000
41.1300 345.0000 1.0000
41.1400 332.0000 1.0000
41.1500 323.0000 1.0000
41.1600 337.0000 1.0000
41.1700 328.0000 1.0000
41.1800 322.0000 1.0000
41.1900 298.0000 1.0000
41.2000 314.0000 1.0000
41.2100 300.0000 1.0000
41.2200 336.0000 1.0000
41.2300 325.0000 1.0000
41.2400 323.0000 1.0000
41.2500 336.0000 1.0000
41.2600 322.0000 1.0000
41.2700 316.0000 1.0000
41.2800 338.0000 1.0000
41.2900 353.0000 1.0000
41.3000 339.0000 1.0000
41.3100 332.0000 1.0000
41.3200 321.0000 1.0000
41.3300 325.0000 1.0000
41.3400 309.0000 1.0000
41.3500 318.0000 1.0000
41.3600 326.0000 1.0000
41.3700 314.0000 1.0000
41.3800 315.0000 1.0000
41.3900 297.0000 1.0000
41.4000 297.0000 1.0000
41.4100 340.0000 1.0000
41.4200 306.0000 1.0000
41.4300 296.0000 1.0000
41.4400 338.0000 1.0000
41.4500 318.0000 1.0000
41.4600 316.0000 1.0000
41.4700 308.0000 1.0000
41.4800 333.0000 1.0000
41.4900 316.0000 1.0000
41.5000 318.0000 1.0000
41.5100 311.0000 1.0000
41.5200 313.0000 1.0000
41.5300 323.0000 1.0000
41.5400 322.0000 1.0000
41.5500 302.0000 1.0000
41.5600 285.0000 1.0000
41.5700 313.0000 1.0000
41.5800 318.0000 1.0000
41.5900 334.0000 1.0000
41.6000 293.0000 1.0000
41.6100 339.0000 1.0000
41.6200 309.0000 1.0000
41.6300 338.0000 1.0000
41.6400 338.0000 1.0000
41.6500 299.0000 1.0000
41.6600 328.0000 1.0000
41.6700 315.0000 1.0000
41.6800 296.0000 1.0000
41.6900 334.0000 1.0000
41.7000 333.0000 1.0000
41.7100 323.0000 1.0000
41.7200 339.0000 1.0000
41.7300 331.0000 1.0000
41.7400 298.0000 1.0000
41.7500 330.0000 1.0000
41.7600 331.0000 1.0000
41.7700 321.0000 1.0000
41.7800 314.0000 1.0000
41.7900 305.0000 1.0000
41.8000 320.0000 1.0000
41.8100 339.0000 1.0000
41.8200 322.0000 1.0000
41.8300 292.0000 1.0000
41.8400 301.0000 1.0000
41.8500 320.0000 1.0000
41.8600 328.0000 1.0000
41.8700 326.0000 1.0000
41.8800 343.0000 1.0000
41.8900 326.0000 1.0000
41.9000 327.0000 1.0000
41.9100 326.0000 1.0000
41.9200 302.0000 1.0000
41.9300 308.0000 1.0000
41.9400 324.0000 1.0000
41.9500 320.0000 1.0000
41.9600 334.0000 1.0000
41.9700 314.0000 1.0000
41.9800 328.0000 1.0000
41.9900 319.0000 1.0000
42.0000 333.0000 1.0000
42.0100 327.0000 1.0000
42.0200 310.0000 1.0000
42.0300 329.0000 1.0000
42.0400 330.0000 1.0000
42.0500 324.0000 1.0000
42.0600 338.0000 1.0000
42.0700 330.0000 1.0000
42.0800 335.0000 1.0000
42.0900 313.0000 1.0000
42.1000 314.0000 1.0000
42.1100 289.0000 1.0000
42.1200 290.0000 1.0000
42.1300 311.0000 1.0000
42.1400 309.0000 1.0000
42.1500 305.0000 1.0000
42.1600 303.0000 1.0000
42.1700 301.0000 1.0000
42.1800 316.0000 1.0000
42.1900 315.0000 1.0000
42.2000 318.0000 1.0000
42.2100 323.0000 1.0000
42.2200 302.0000 1.0000
42.2300 300.0000 1.0000
42.2400 319.0000 1.0000
42.2500 303.0000 1.0000
42.2600 320.0000 1.0000
42.2700 325.0000 1.0000
42.2800 306.0000 1.0000
42.2900 304.0000 1.0000
42.3000 311.0000 1.0000
42.3100 320.0000 1.0000
42.3200 324.0000 1.0000
42.3300 311.0000 1.0000
42.3400 298.0000 1.0000
42.3500 307.0000 1.0000
42.3600 314.0000 1.0000
42.3700 324.0000 1.0000
42.3800 335.0000 1.0000
42.3900 341.0000 1.0000
42.4000 360.0000 1.0000
42.4100 328.0000 1.0000
42.4200 339.0000 1.0000
42.4300 331.0000 1.0000
42.4400 342.0000 1.0000
42.4500 338.0000 1.0000
42.4600 310.0000 1.0000
42.4700 306.0000 1.0000
42.4800 302.0000 1.0000
42.4900 332.0000 1.0000
42.5000 318.0000 1.0000
42.5100 324.0000 1.0000
42.5200 338.0000 1.0000
42.5300 352.0000 1.0000
42.5400 317.0000 1.0000
42.5500 341.0000 1.0000
42.5600 316.0000 1.0000
42.5700 307.0000 1.0000
42.5800 312.0000 1.0000
42.5900 328.0000 1.0000
42.6000 294.0000 1.0000
42.6100 315.0000 1.0000
42.6200 325.0000 1.0000
42.6300 329.0000 1.0000
42.6400 316.0000 1.0000
42.6500 298.0000 1.0000
42.6600 306.0000 1.0000
42.6700 335.0000 1.0000
42.6800 322.0000 1.0000
42.6900 296.0000 1.0000
42.7000 309.0000 1.0000
42.7100 318.0000 1.0000
42.7200 302.0000 1.0000
42.7300 335.0000 1.0000
42.7400 296.0000 1.0000
42.7500 276.0000 1.0000
42.7600 307.0000 1.0000
42.7700 358.0000 1.0000
42.7800 337.0000 1.0000
42.7900 318.0000 1.0000
42.8000 298.0000 1.0000
42.8100 301.0000 1.0000
42.8200 289.0000 1.0000
42.8300 320.0000 1.0000
42.8400 334.0000 1.0000
42.8500 304.0000 1.0000
42.8600 305.0000 1.0000
42.8700 297.0000 1.0000
42.8800 309.0000 1.0000
42.8900 305.0000 1.0000
42.9000 324.0000 1.0000
42.9100 306.0000 1.0000
42.9200 314.0000 1.0000
42.9300 312.0000 1.0000
42.9400 305.0000 1.0000
42.9500 279.0000 1.0000
42.9600 302.0000 1.0000
42.9700 331.0000 1.0000
42.9800 295.0000 1.0000
42.9900 290.0000 1.0000
43.0000 316.0000 1.0000
43.0100 313.0000 1.0000
43.0200 315.0000 1.0000
43.0300 316.0000 1.0000
43.0400 318.0000 1.0000
43.0500 318.0000 1.0000
43.0600 292.0000 1.0000
43.0700 296.0000 1.0000
43.0800 305.0000 1.0000
43.0900 312.0000 1.0000
43.1000 332.0000 1.0000
43.1100 336.0000 1.0000
43.1200 301.0000 1.0000
43.1300 293.0000 1.0000
43.1400 307.0000 1.0000
43.1500 272.0000 1.0000
43.1600 285.0000 1.0000
43.1700 300.0000 1.0000
43.1800 318.0000 1.0000
43.1900 311.0000 1.0000
43.2000 292.0000 1.0000
43.2100 302.0000 1.0000
43.2200 288.0000 1.0000
43.2300 309.0000 1.0000
43.2400 308.0000 1.0000
43.2500 290.0000 1.0000
43.2600 294.0000 1.0000
43.2700 284.0000 1.0000
43.2800 297.0000 1.0000
43.2900 294.0000 1.0000
43.3000 293.0000 1.0000
43.3100 293.0000 1.0000
43.3200 305.0000 1.0000
43.3300 305.0000 1.0000
43.3400 312.0000 1.0000
43.3500 290.0000 1.0000
43.3600 321.0000 1.0000
43.3700 309.0000 1.0000
43.3800 326.0000 1.0000
43.3900 302.0000 1.0000
43.4000 323.0000 1.0000
43.4100 299.0000 1.0000
43.4200 311.0000 1.0000
43.4300 309.0000 1.0000
43.4400 298.0000 1.0000
43.4500 309.0000 1.0000
43.4600 307.0000 1.0000
43.4700 319.0000 1.0000
43.4800 332.0000 1.0000
43.4900 304.0000 1.0000
43.5000 308.0000 1.0000
43.5100 299.0000 1.0000
43.5200 308.0000 1.0000
43.5300 278.0000 1.0000
43.5400 300.0000 1.0000
43.5500 302.0000 1.0000
43.5600 317.0000 1.0000
43.5700 326.0000 1.0000
43.5800 314.0000 1.0000
43.5900 314.0000 1.0000
43.6000 299.0000 1.0000
43.6100 289.0000 1.0000
43.6200 319.0000 1.0000
43.6300 299.0000 1.0000
43.6400 310.0000 1.0000
43.6500 299.0000 1.0000
43.6600 287.0000 1.0000
43.6700 331.0000 1.0000
43.6800 278.0000 1.0000
43.6900 311.0000 1.0000
43.7000 278.0000 1.0000
43.7100 276.0000 1.0000
43.7200 303.0000 1.0000
43.7300 313.0000 1.0000
43.7400 349.0000 1.0000
43.7500 321.0000 1.0000
43.7600 284.0000 1.0000
43.7700 322.0000 1.0000
43.7800 290.0000 1.0000
43.7900 299.0000 1.0000
43.8000 315.0000 1.0000
43.8100 299.0000 1.0000
43.8200 266.0000 1.0000
43.8300 303.0000 1.0000
43.8400 282.0000 1.0000
43.8500 300.0000 1.0000
43.8600 273.0000 1.0000
43.8700 294.0000 1.0000
43.8800 296.0000 1.0000
43.8900 296.0000 1.0000
43.9000 298.0000 1.0000
43.9100 334.0000 1.0000
43.9200 292.0000 1.0000
43.9300 307.0000 1.0000
43.9400 305.0000 1.0000
43.9500 292.0000 1.0000
43.9600 297.0000 1.0000
43.9700 311.0000 1.0000
43.9800 310.0000 1.0000
43.9900 279.0000 1.0000
44.0000 291.0000 1.0000
44.0100 296.0000 1.0000
44.0200 286.0000 1.0000
44.0300 281.0000 1.0000
44.0400 294.0000 1.0000
44.0500 306.0000 1.0000
44.0600 307.0000 1.0000
44.0700 292.0000 1.0000
44.0800 299.0000 1.0000
44.0900 269.0000 1.0000
44.1000 276.0000 1.0000
44.1100 295.0000 1.0000
44.1200 320.0000 1.0000
44.1300 274.0000 1.0000
44.1400 286.0000 1.0000
44.1500 286.0000 1.0000
44.1600 303.0000 1.0000
44.1700 299.0000 1.0000
44.1800 311.0000 1.0000
44.1900 305.0000 1.0000
44.2000 330.0000 1.0000
44.2100 270.0000 1.0000
44.2200 304.0000 1.0000
44.2300 296.0000 1.0000
44.2400 276.0000 1.0000
44.2500 304.0000 1.0000
44.2600 295.0000 1.0000
44.2700 298.0000 1.0000
44.2800 281.0000 1.0000
44.2900 304.0000 1.0000
44.3000 301.0000 1.0000
44.3100 288.0000 1.0000
44.3200 268.0000 1.0000
44.3300 292.0000 1.0000
44.3400 310.0000 1.0000
44.3500 288.0000 1.0000
44.3600 306.0000 1.0000
44.3700 296.0000 1.0000
44.3800 292.0000 1.0000
44.3900 301.0000 1.0000
44.4000 308.0000 1.0000
44.4100 301.0000 1.0000
44.4200 320.0000 1.0000
44.4300 274.0000 1.0000
44.4400 304.0000 1.0000
44.4500 300.0000 1.0000
44.4600 278.0000 1.0000
44.4700 304.0000 1.0000
44.4800 271.0000 1.0000
44.4900 292.0000 1.0000
44.5000 286.0000 1.0000
44.5100 279.0000 1.0000
44.5200 279.0000 1.0000
44.5300 273.0000 1.0000
44.5400 288.0000 1.0000
44.5500 281.0000 1.0000
44.5600 291.0000 1.0000
44.5700 288.0000 1.0000
44.5800 296.0000 1.0000
44.5900 290.0000 1.0000
44.6000 303.0000 1.0000
44.6100 291.0000 1.0000
44.6200 255.0000 1.0000
44.6300 283.0000 1.0000
44.6400 325.0000 1.0000
44.6500 323.0000 1.0000
44.6600 294.0000 1.0000
44.6700 277.0000 1.0000
44.6800 280.0000 1.0000
44.6900 289.0000 1.0000
44.7000 281.0000 1.0000
44.7100 317.0000 1.0000
44.7200 253.0000 1.0000
44.7300 306.0000 1.0000
44.7400 275.0000 1.0000
44.7500 281.0000 1.0000
44.7600 301.0000 1.0000
44.7700 290.0000 1.0000
44.7800 305.0000 1.0000
44.7900 290.0000 1.0000
44.8000 286.0000 1.0000
44.8100 312.0000 1.0000
44.8200 285.0000 1.0000
44.8300 305.0000 1.0000
44.8400 290.0000 1.0000
44.8500 303.0000 1.0000
44.8600 297.0000 1.0000
44.8700 299.0000 1.0000
44.8800 294.0000 1.0000
44.8900 286.0000 1.0000
44.9000 341.0000 1.0000
44.9100 297.0000 1.0000
44.9200 311.0000 1.0000
44.9300 296.0000 1.0000
44.9400 285.0000 1.0000
44.9500 292.0000 1.0000
44.9600 283.0000 1.0000
44.9700 293.0000 1.0000
44.9800 267.0000 1.0000
44.9900 325.0000 1.0000
45.0000 301.0000 1.0000
45.0100 301.0000 1.0000
45.0200 278.0000 1.0000
45.0300 294.0000 1.0000
45.0400 285.0000 1.0000
45.0500 300.0000 1.0000
45.0600 287.0000 1.0000
45.0700 296.0000 1.0000
45.0800 288.0000 1.0000
45.0900 309.0000 1.0000
45.1000 313.0000 1.0000
45.1100 296.0000 1.0000
45.1200 274.0000 1.0000
45.1300 281.0000 1.0000
45.1400 292.0000 1.0000
45.1500 309.0000 1.0000
45.1600 302.0000 1.0000
45.1700 298.0000 1.0000
45.1800 289.0000 1.0000
45.1900 319.0000 1.0000
45.2000 284.0000 1.0000
45.2100 288.0000 1.0000
45.2200 278.0000 1.0000
45.2300 309.0000 1.0000
45.2400 283.0000 1.0000
45.2500 308.0000 1.0000
45.2600 319.0000 1.0000
45.2700 304.0000 1.0000
45.2800 295.0000 1.0000
45.2900 293.0000 1.0000
45.3000 273.0000 1.0000
45.3100 286.0000 1.0000
45.3200 302.0000 1.0000
45.3300 268.0000 1.0000
45.3400 287.0000 1.0000
45.3500 293.0000 1.0000
45.3600 276.0000 1.0000
45.3700 287.0000 1.0000
45.3800 291.0000 1.0000
45.3900 290.0000 1.0000
45.4000 279.0000 1.0000
45.4100 276.0000 1.0000
45.4200 280.0000 1.0000
45.4300 260.0000 1.0000
45.4400 273.0000 1.0000
45.4500 289.0000 1.0000
45.4600 265.0000 1.0000
45.4700 280.0000 1.0000
45.4800 263.0000 1.0000
45.4900 303.0000 1.0000
45.5000 303.0000 1.0000
45.5100 260.0000 1.0000
45.5200 255.0000 1.0000
45.5300 277.0000 1.0000
45.5400 280.0000 1.0000
45.5500 264.0000 1.0000
45.5600 287.0000 1.0000
45.5700 305.0000 1.0000
45.5800 296.0000 1.0000
45.5900 295.0000 1.0000
45.6000 267.0000 1.0000
45.6100 275.0000 1.0000
45.6200 266.0000 1.0000
45.6300 258.0000 1.0000
45.6400 282.0000 1.0000
45.6500 294.0000 1.0000
45.6600 280.0000 1.0000
45.6700 296.0000 1.0000
45.6800 288.0000 1.0000
45.6900 296.0000 1.0000
45.7000 309.0000 1.0000
45.7100 266.0000 1.0000
45.7200 270.0000 1.0000
45.7300 267.0000 1.0000
45.7400 270.0000 1.0000
45.7500 285.0000 1.0000
45.7600 282.0000 1.0000
45.7700 258.0000 1.0000
45.7800 262.0000 1.0000
45.7900 250.0000 1.0000
45.8000 274.0000 1.0000
45.8100 299.0000 1.0000
45.8200 272.0000 1.0000
45.8300 294.0000 1.0000
45.8400 280.0000 1.0000
45.8500 283.0000 1.0000
45.8600 290.0000 1.0000
45.8700 281.0000 1.0000
45.8800 265.0000 1.0000
45.8900 260.0000 1.0000
45.9000 285.0000 1.0000
45.9100 280.0000 1.0000
45.9200 293.0000 1.0000
45.9300 301.0000 1.0000
45.9400 274.0000 1.0000
45.9500 268.0000 1.0000
45.9600 316.0000 1.0000
45.9700 272.0000 1.0000
45.9800 251.0000 1.0000
45.9900 251.0000 1.0000
46.0000 261.0000 1.0000
46.0100 296.0000 1.0000
46.0200 295.0000 1.0000
46.0300 271.0000 1.0000
46.0400 298.0000 1.0000
46.0500 283.0000 1.0000
46.0600 268.0000 1.0000
46.0700 298.0000 1.0000
46.0800 304.0000 1.0000
46.0900 292.0000 1.0000
46.1000 247.0000 1.0000
46.1100 271.0000 1.0000
46.1200 281.0000 1.0000
46.1300 273.0000 1.0000
46.1400 287.0000 1.0000
46.1500 275.0000 1.0000
46.1600 296.0000 1.0000
46.1700 268.0000 1.0000
46.1800 277.0000 1.0000
46.1900 279.0000 1.0000
46.2000 252.0000 1.0000
46.2100 270.0000 1.0000
46.2200 251.0000 1.0000
46.2300 286.0000 1.0000
46.2400 288.0000 1.0000
46.2500 280.0000 1.0000
46.2600 281.0000 1.0000
46.2700 294.0000 1.0000
46.2800 282.0000 1.0000
46.2900 282.0000 1.0000
46.3000 273.0000 1.0000
46.3100 312.0000 1.0000
46.3200 308.0000 1.0000
46.3300 289.0000 1.0000
46.3400 285.0000 1.0000
46.3500 258.0000 1.0000
46.3600 297.0000 1.0000
46.3700 261.0000 1.0000
46.3800 280.0000 1.0000
46.3900 292.0000 1.0000
46.4000 283.0000 1.0000
46.4100 294.0000 1.0000
46.4200 273.0000 1.0000
46.4300 283.0000 1.0000
46.4400 280.0000 1.0000
46.4500 274.0000 1.0000
46.4600 277.0000 1.0000
46.4700 296.0000 1.0000
46.4800 276.0000 1.0000
46.4900 276.0000 1.0000
46.5000 289.0000 1.0000
46.5100 277.0000 1.0000
46.5200 272.0000 1.0000
46.5300 275.0000 1.0000
46.5400 272.0000 1.0000
46.5500 283.0000 1.0000
46.5600 259.0000 1.0000
46.5700 294.0000 1.0000
46.5800 299.0000 1.0000
46.5900 287.0000 1.0000
46.6000 297.0000 1.0000
46.6100 291.0000 1.0000
46.6200 245.0000 1.0000
46.6300 250.0000 1.0000
46.6400 253.0000 1.0000
46.6500 259.0000 1.0000
46.6600 258.0000 1.0000
46.6700 257.0000 1.0000
46.6800 276.0000 1.0000
46.6900 263.0000 1.0000
46.7000 282.0000 1.0000
46.7100 287.0000 1.0000
46.7200 305.0000 1.0000
46.7300 288.0000 1.0000
46.7400 288.0000 1.0000
46.7500 284.0000 1.0000
46.7600 282.0000 1.0000
46.7700 288.0000 1.0000
46.7800 265.0000 1.0000
46.7900 268.0000 1.0000
46.8000 265.0000 1.0000
46.8100 268.0000 1.0000
46.8200 295.0000 1.0000
46.8300 275.0000 1.0000
46.8400 297.0000 1.0000
46.8500 272.0000 1.0000
46.8600 263.0000 1.0000
46.8700 283.0000 1.0000
46.8800 270.0000 1.0000
46.8900 265.0000 1.0000
46.9000 286.0000 1.0000
46.9100 250.0000 1.0000
46.9200 255.0000 1.0000
46.9300 267.0000 1.0000
46.9400 299.0000 1.0000
46.9500 290.0000 1.0000
46.9600 283.0000 1.0000
46.9700 262.0000 1.0000
46.9800 248.0000 1.0000
46.9900 272.0000 1.0000
47.0000 276.0000 1.0000
47.0100 265.0000 1.0000
47.0200 276.0000 1.0000
47.0300 276.0000 1.0000
47.0400 266.0000 1.0000
47.0500 283.0000 1.0000
47.0600 280.0000 1.0000
47.0700 277.0000 1.0000
47.0800 283.0000 1.0000
47.0900 262.0000 1.0000
47.1000 268.0000 1.0000
47.1100 271.0000 1.0000
47.1200 269.0000 1.0000
47.1300 280.0000 1.0000
47.1400 272.0000 1.0000
47.1500 260.0000 1.0000
47.1600 271.0000 1.0000
47.1700 260.0000 1.0000
47.1800 263.0000 1.0000
47.1900 252.0000 1.0000
47.2000 293.0000 1.0000
47.2100 280.0000 1.0000
47.2200 286.0000 1.0000
47.2300 289.0000 1.0000
47.2400 282.0000 1.0000
47.2500 284.0000 1.0000
47.2600 279.0000 1.0000
47.2700 269.0000 1.0000
47.2800 258.0000 1.0000
47.2900 274.0000 1.0000
47.3000 267.0000 1.0000
47.3100 280.0000 1.0000
47.3200 254.0000 1.0000
47.3300 277.0000 1.0000
47.3400 284.0000 1.0000
47.3500 266.0000 1.0000
47.3600 283.0000 1.0000
47.3700 302.0000 1.0000
47.3800 239.0000 1.0000
47.3900 272.0000 1.0000
47.4000 264.0000 1.0000
47.4100 268.0000 1.0000
47.4200 260.0000 1.0000
47.4300 277.0000 1.0000
47.4400 258.0000 1.0000
47.4500 273.0000 1.0000
47.4600 252.0000 1.0000
47.4700 278.0000 1.0000
47.4800 272.0000 1.0000
47.4900 283.0000 1.0000
47.5000 285.0000 1.0000
47.5100 271.0000 1.0000
47.5200 303.0000 1.0000
47.5300 245.0000 1.0000
47.5400 267.0000 1.0000
47.5500 272.0000 1.0000
47.5600 263.0000 1.0000
47.5700 289.0000 1.0000
47.5800 269.0000 1.0000
47.5900 282.0000 1.0000
47.6000 272.0000 1.0000
47.6100 283.0000 1.0000
47.6200 257.0000 1.0000
47.6300 267.0000 1.0000
47.6400 259.0000 1.0000
47.6500 249.0000 1.0000
47.6600 294.0000 1.0000
47.6700 262.0000 1.0000
47.6800 276.0000 1.0000
47.6900 268.0000 1.0000
47.7000 267.0000 1.0000
47.7100 266.0000 1.0000
47.7200 295.0000 1.0000
47.7300 274.0000 1.0000
47.7400 267.0000 1.0000
47.7500 266.0000 1.0000
47.7600 257.0000 1.0000
47.7700 270.0000 1.0000
47.7800 268.0000 1.0000
47.7900 250.0000 1.0000
47.8000 259.0000 1.0000
47.8100 271.0000 1.0000
47.8200 258.0000 1.0000
47.8300 271.0000 1.0000
47.8400 270.0000 1.0000
47.8500 256.0000 1.0000
47.8600 250.0000 1.0000
47.8700 257.0000 1.0000
47.8800 233.0000 1.0000
47.8900 228.0000 1.0000
47.9000 253.0000 1.0000
47.9100 269.0000 1.0000
47.9200 243.0000 1.0000
47.9300 237.0000 1.0000
47.9400 235.0000 1.0000
47.9500 277.0000 1.0000
47.9600 275.0000 1.0000
47.9700 278.0000 1.0000
47.9800 263.0000 1.0000
47.9900 252.0000 1.0000
48.0000 259.0000 1.0000
48.0100 251.0000 1.0000
48.0200 260.0000 1.0000
48.0300 246.0000 1.0000
48.0400 276.0000 1.0000
48.0500 265.0000 1.0000
48.0600 270.0000 1.0000
48.0700 251.0000 1.0000
48.0800 260.0000 1.0000
48.0900 280.0000 1.0000
48.1000 263.0000 1.0000
48.1100 281.0000 1.0000
48.1200 266.0000 1.0000
48.1300 267.0000 1.0000
48.1400 285.0000 1.0000
48.1500 261.0000 1.0000
48.1600 273.0000 1.0000
48.1700 262.0000 1.0000
48.1800 273.0000 1.0000
48.1900 278.0000 1.0000
48.2000 259.0000 1.0000
48.2100 252.0000 1.0000
48.2200 257.0000 1.0000
48.2300 256.0000 1.0000
48.2400 261.0000 1.0000
48.2500 249.0000 1.0000
48.2600 280.0000 1.0000
48.2700 254.0000 1.0000
48.2800 264.0000 1.0000
48.2900 273.0000 1.0000
48.3000 248.0000 1.0000
48.3100 263.0000 1.0000
48.3200 259.0000 1.0000
48.3300 265.0000 1.0000
48.3400 254.0000 1.0000
48.3500 247.0000 1.0000
48.3600 289.0000 1.0000
48.3700 274.0000 1.0000
48.3800 251.0000 1.0000
48.3900 250.0000 1.0000
48.4000 261.0000 1.0000
48.4100 246.0000 1.0000
48.4200 278.0000 1.0000
48.4300 263.0000 1.0000
48.4400 283.0000 1.0000
48.4500 257.0000 1.0000
48.4600 281.0000 1.0000
48.4700 276.0000 1.0000
48.4800 261.0000 1.0000
48.4900 266.0000 1.0000
48.5000 245.0000 1.0000
48.5100 242.0000 1.0000
48.5200 270.0000 1.0000
48.5300 266.0000 1.0000
48.5400 265.0000 1.0000
48.5500 247.0000 1.0000
48.5600 247.0000 1.0000
48.5700 261.0000 1.0000
48.5800 255.0000 1.0000
48.5900 245.0000 1.0000
48.6000 266.0000 1.0000
48.6100 250.0000 1.0000
48.6200 270.0000 1.0000
48.6300 267.0000 1.0000
48.6400 249.0000 1.0000
48.6500 259.0000 1.0000
48.6600 275.0000 1.0000
48.6700 266.0000 1.0000
48.6800 276.0000 1.0000
48.6900 249.0000 1.0000
48.7000 258.0000 1.0000
48.7100 275.0000 1.0000
48.7200 257.0000 1.0000
48.7300 263.0000 1.0000
48.7400 260.0000 1.0000
48.7500 279.0000 1.0000
48.7600 272.0000 1.0000
48.7700 280.0000 1.0000
48.7800 250.0000 1.0000
48.7900 263.0000 1.0000
48.8000 268.0000 1.0000
48.8100 248.0000 1.0000
48.8200 249.0000 1.0000
48.8300 273.0000 1.0000
48.8400 247.0000 1.0000
48.8500 260.0000 1.0000
48.8600 265.0000 1.0000
48.8700 272.0000 1.0000
48.8800 258.0000 1.0000
48.8900 247.0000 1.0000
48.9000 243.0000 1.0000
48.9100 268.0000 1.0000
48.9200 281.0000 1.0000
48.9300 254.0000 1.0000
48.9400 268.0000 1.0000
48.9500 260.0000 1.0000
48.9600 274.0000 1.0000
48.9700 251.0000 1.0000
48.9800 264.0000 1.0000
48.9900 288.0000 1.0000
49.0000 290.0000 1.0000
49.0100 276.0000 1.0000
49.0200 277.0000 1.0000
49.0300 252.0000 1.0000
49.0400 252.0000 1.0000
49.0500 256.0000 1.0000
49.0600 272.0000 1.0000
49.0700 262.0000 1.0000
49.0800 250.0000 1.0000
49.0900 258.0000 1.0000
49.1000 254.0000 1.0000
49.1100 271.0000 1.0000
49.1200 250.0000 1.0000
49.1300 242.0000 1.0000
49.1400 281.0000 1.0000
49.1500 252.0000 1.0000
49.1600 252.0000 1.0000
49.1700 245.0000 1.0000
49.1800 263.0000 1.0000
49.1900 238.0000 1.0000
49.2000 244.0000 1.0000
49.2100 264.0000 1.0000
49.2200 241.0000 1.0000
49.2300 263.0000 1.0000
49.2400 267.0000 1.0000
49.2500 284.0000 1.0000
49.2600 263.0000 1.0000
49.2700 262.0000 1.0000
49.2800 268.0000 1.0000
49.2900 275.0000 1.0000
49.3000 251.0000 1.0000
49.3100 241.0000 1.0000
49.3200 287.0000 1.0000
49.3300 277.0000 1.0000
49.3400 269.0000 1.0000
49.3500 283.0000 1.0000
49.3600 263.0000 1.0000
49.3700 273.0000 1.0000
49.3800 281.0000 1.0000
49.3900 273.0000 1.0000
49.4000 287.0000 1.0000
49.4100 283.0000 1.0000
49.4200 285.0000 1.0000
49.4300 279.0000 1.0000
49.4400 282.0000 1.0000
49.4500 266.0000 1.0000
49.4600 316.0000 1.0000
49.4700 307.0000 1.0000
49.4800 295.0000 1.0000
49.4900 283.0000 1.0000
49.5000 280.0000 1.0000
49.5100 280.0000 1.0000
49.5200 302.0000 1.0000
49.5300 253.0000 1.0000
49.5400 254.0000 1.0000
49.5500 272.0000 1.0000
49.5600 274.0000 1.0000
49.5700 268.0000 1.0000
49.5800 290.0000 1.0000
49.5900 268.0000 1.0000
49.6000 262.0000 1.0000
49.6100 260.0000 1.0000
49.6200 273.0000 1.0000
49.6300 289.0000 1.0000
49.6400 269.0000 1.0000
49.6500 271.0000 1.0000
49.6600 300.0000 1.0000
49.6700 254.0000 1.0000
49.6800 264.0000 1.0000
49.6900 235.0000 1.0000
49.7000 274.0000 1.0000
49.7100 214.0000 1.0000
49.7200 242.0000 1.0000
49.7300 264.0000 1.0000
49.7400 275.0000 1.0000
49.7500 273.0000 1.0000
49.7600 266.0000 1.0000
49.7700 262.0000 1.0000
49.7800 260.0000 1.0000
49.7900 281.0000 1.0000
49.8000 253.0000 1.0000
49.8100 270.0000 1.0000
49.8200 247.0000 1.0000
49.8300 266.0000 1.0000
49.8400 280.0000 1.0000
49.8500 255.0000 1.0000
49.8600 232.0000 1.0000
49.8700 236.0000 1.0000
49.8800 258.0000 1.0000
49.8900 271.0000 1.0000
49.9000 268.0000 1.0000
49.9100 275.0000 1.0000
49.9200 271.0000 1.0000
49.9300 251.0000 1.0000
49.9400 249.0000 1.0000
49.9500 235.0000 1.0000
49.9600 254.0000 1.0000
49.9700 257.0000 1.0000
49.9800 274.0000 1.0000
49.9900 268.0000 1.0000
50.0000 242.0000 1.0000
50.0100 257.0000 1.0000
50.0200 254.0000 1.0000
50.0300 262.0000 1.0000
50.0400 254.0000 1.0000
50.0500 234.0000 1.0000
50.0600 260.0000 1.0000
50.0700 296.0000 1.0000
50.0800 255.0000 1.0000
50.0900 246.0000 1.0000
50.1000 255.0000 1.0000
50.1100 258.0000 1.0000
50.1200 266.0000 1.0000
50.1300 263.0000 1.0000
50.1400 254.0000 1.0000
50.1500 271.0000 1.0000
50.1600 251.0000 1.0000
50.1700 231.0000 1.0000
50.1800 283.0000 1.0000
50.1900 275.0000 1.0000
50.2000 271.0000 1.0000
50.2100 243.0000 1.0000
50.2200 224.0000 1.0000
50.2300 251.0000 1.0000
50.2400 263.0000 1.0000
50.2500 268.0000 1.0000
50.2600 273.0000 1.0000
50.2700 275.0000 1.0000
50.2800 259.0000 1.0000
50.2900 263.0000 1.0000
50.3000 296.0000 1.0000
50.3100 254.0000 1.0000
50.3200 250.0000 1.0000
50.3300 275.0000 1.0000
50.3400 289.0000 1.0000
50.3500 248.0000 1.0000
50.3600 257.0000 1.0000
50.3700 267.0000 1.0000
50.3800 288.0000 1.0000
50.3900 260.0000 1.0000
50.4000 255.0000 1.0000
50.4100 242.0000 1.0000
50.4200 282.0000 1.0000
50.4300 255.0000 1.0000
50.4400 271.0000 1.0000
50.4500 282.0000 1.0000
50.4600 253.0000 1.0000
50.4700 258.0000 1.0000
50.4800 258.0000 1.0000
50.4900 263.0000 1.0000
50.5000 263.0000 1.0000
50.5100 277.0000 1.0000
50.5200 257.0000 1.0000
50.5300 268.0000 1.0000
50.5400 251.0000 1.0000
50.5500 253.0000 1.0000
50.5600 257.0000 1.0000
50.5700 268.0000 1.0000
50.5800 283.0000 1.0000
50.5900 254.0000 1.0000
50.6000 265.0000 1.0000
50.6100 247.0000 1.0000
50.6200 245.0000 1.0000
50.6300 251.0000 1.0000
50.6400 263.0000 1.0000
50.6500 218.0000 1.0000
50.6600 261.0000 1.0000
50.6700 270.0000 1.0000
50.6800 276.0000 1.0000
50.6900 275.0000 1.0000
50.7000 246.0000 1.0000
50.7100 281.0000 1.0000
50.7200 265.0000 1.0000
50.7300 261.0000 1.0000
50.7400 273.0000 1.0000
50.7500 245.0000 1.0000
50.7600 253.0000 1.0000
50.7700 254.0000 1.0000
50.7800 273.0000 1.0000
50.7900 236.0000 1.0000
50.8000 255.0000 1.0000
50.8100 281.0000 1.0000
50.8200 266.0000 1.0000
50.8300 269.0000 1.0000
50.8400 254.0000 1.0000
50.8500 255.0000 1.0000
50.8600 248.0000 1.0000
50.8700 279.0000 1.0000
50.8800 283.0000 1.0000
50.8900 277.0000 1.0000
50.9000 269.0000 1.0000
50.9100 273.0000 1.0000
50.9200 287.0000 1.0000
50.9300 278.0000 1.0000
50.9400 238.0000 1.0000
50.9500 247.0000 1.0000
50.9600 253.0000 1.0000
50.9700 264.0000 1.0000
50.9800 264.0000 1.0000
50.9900 288.0000 1.0000
51.0000 274.0000 1.0000
51.0100 273.0000 1.0000
51.0200 298.0000 1.0000
51.0300 278.0000 1.0000
51.0400 276.0000 1.0000
51.0500 290.0000 1.0000
51.0600 296.0000 1.0000
51.0700 277.0000 1.0000
51.0800 296.0000 1.0000
51.0900 295.0000 1.0000
51.1000 299.0000 1.0000
51.1100 291.0000 1.0000
51.1200 311.0000 1.0000
51.1300 290.0000 1.0000
51.1400 306.0000 1.0000
51.1500 304.0000 1.0000
51.1600 305.0000 1.0000
51.1700 341.0000 1.0000
51.1800 341.0000 1.0000
51.1900 323.0000 1.0000
51.2000 315.0000 1.0000
51.2100 343.0000 1.0000
51.2200 358.0000 1.0000
51.2300 366.0000 1.0000
51.2400 383.0000 1.0000
51.2500 378.0000 1.0000
51.2600 407.0000 1.0000
51.2700 385.0000 1.0000
51.2800 408.0000 1.0000
51.2900 434.0000 1.0000
51.3000 460.0000 1.0000
51.3100 441.0000 1.0000
51.3200 424.0000 1.0000
51.3300 490.0000 1.0000
51.3400 538.0000 1.0000
51.3500 524.0000 1.0000
51.3600 558.0000 1.0000
51.3700 604.0000 1.0000
51.3800 613.0000 1.0000
51.3900 651.0000 1.0000
51.4000 706.0000 1.0000
51.4100 744.0000 1.0000
51.4200 743.0000 1.0000
51.4300 742.0000 1.0000
51.4400 745.0000 1.0000
51.4500 858.0000 1.0000
51.4600 846.0000 1.0000
51.4700 875.0000 1.0000
51.4800 843.0000 1.0000
51.4900 863.0000 1.0000
51.5000 919.0000 1.0000
51.5100 861.0000 1.0000
51.5200 815.0000 1.0000
51.5300 824.0000 1.0000
51.5400 813.0000 1.0000
51.5500 725.0000 1.0000
51.5600 807.0000 1.0000
51.5700 759.0000 1.0000
51.5800 743.0000 1.0000
51.5900 726.0000 1.0000
51.6000 761.0000 1.0000
51.6100 680.0000 1.0000
51.6200 663.0000 1.0000
51.6300 655.0000 1.0000
51.6400 624.0000 1.0000
51.6500 589.0000 1.0000
51.6600 575.0000 1.0000
51.6700 496.0000 1.0000
51.6800 523.0000 1.0000
51.6900 483.0000 1.0000
51.7000 501.0000 1.0000
51.7100 491.0000 1.0000
51.7200 442.0000 1.0000
51.7300 443.0000 1.0000
51.7400 460.0000 1.0000
51.7500 417.0000 1.0000
51.7600 394.0000 1.0000
51.7700 406.0000 1.0000
51.7800 387.0000 1.0000
51.7900 394.0000 1.0000
51.8000 360.0000 1.0000
51.8100 353.0000 1.0000
51.8200 308.0000 1.0000
51.8300 334.0000 1.0000
51.8400 332.0000 1.0000
51.8500 308.0000 1.0000
51.8600 309.0000 1.0000
51.8700 329.0000 1.0000
51.8800 314.0000 1.0000
51.8900 321.0000 1.0000
51.9000 296.0000 1.0000
51.9100 301.0000 1.0000
51.9200 325.0000 1.0000
51.9300 321.0000 1.0000
51.9400 317.0000 1.0000
51.9500 316.0000 1.0000
51.9600 284.0000 1.0000
51.9700 287.0000 1.0000
51.9800 286.0000 1.0000
51.9900 284.0000 1.0000
52.0000 284.0000 1.0000
52.0100 293.0000 1.0000
52.0200 295.0000 1.0000
52.0300 269.0000 1.0000
52.0400 276.0000 1.0000
52.0500 269.0000 1.0000
52.0600 292.0000 1.0000
52.0700 303.0000 1.0000
52.0800 291.0000 1.0000
52.0900 274.0000 1.0000
52.1000 271.0000 1.0000
52.1100 276.0000 1.0000
52.1200 267.0000 1.0000
52.1300 275.0000 1.0000
52.1400 288.0000 1.0000
52.1500 278.0000 1.0000
52.1600 285.0000 1.0000
52.1700 254.0000 1.0000
52.1800 259.0000 1.0000
52.1900 268.0000 1.0000
52.2000 264.0000 1.0000
52.2100 252.0000 1.0000
52.2200 240.0000 1.0000
52.2300 280.0000 1.0000
52.2400 263.0000 1.0000
52.2500 271.0000 1.0000
52.2600 248.0000 1.0000
52.2700 277.0000 1.0000
52.2800 262.0000 1.0000
52.2900 269.0000 1.0000
52.3000 242.0000 1.0000
52.3100 249.0000 1.0000
52.3200 247.0000 1.0000
52.3300 233.0000 1.0000
52.3400 263.0000 1.0000
52.3500 272.0000 1.0000
52.3600 267.0000 1.0000
52.3700 263.0000 1.0000
52.3800 262.0000 1.0000
52.3900 250.0000 1.0000
52.4000 239.0000 1.0000
52.4100 250.0000 1.0000
52.4200 264.0000 1.0000
52.4300 265.0000 1.0000
52.4400 267.0000 1.0000
52.4500 239.0000 1.0000
52.4600 258.0000 1.0000
52.4700 253.0000 1.0000
52.4800 260.0000 1.0000
52.4900 235.0000 1.0000
52.5000 242.0000 1.0000
52.5100 277.0000 1.0000
52.5200 284.0000 1.0000
52.5300 231.0000 1.0000
52.5400 256.0000 1.0000
52.5500 249.0000 1.0000
52.5600 276.0000 1.0000
52.5700 270.0000 1.0000
52.5800 267.0000 1.0000
52.5900 254.0000 1.0000
52.6000 264.0000 1.0000
52.6100 261.0000 1.0000
52.6200 252.0000 1.0000
52.6300 258.0000 1.0000
52.6400 264.0000 1.0000
52.6500 255.0000 1.0000
52.6600 266.0000 1.0000
52.6700 249.0000 1.0000
52.6800 277.0000 1.0000
52.6900 264.0000 1.0000
52.7000 283.0000 1.0000
52.7100 240.0000 1.0000
52.7200 258.0000 1.0000
52.7300 270.0000 1.0000
52.7400 243.0000 1.0000
52.7500 266.0000 1.0000
52.7600 224.0000 1.0000
52.7700 242.0000 1.0000
52.7800 253.0000 1.0000
52.7900 239.0000 1.0000
52.8000 257.0000 1.0000
52.8100 283.0000 1.0000
52.8200 235.0000 1.0000
52.8300 247.0000 1.0000
52.8400 250.0000 1.0000
52.8500 259.0000 1.0000
52.8600 274.0000 1.0000
52.8700 253.0000 1.0000
52.8800 265.0000 1.0000
52.8900 256.0000 1.0000
52.9000 251.0000 1.0000
52.9100 246.0000 1.0000
52.9200 234.0000 1.0000
52.9300 267.0000 1.0000
52.9400 254.0000 1.0000
52.9500 257.0000 1.0000
52.9600 253.0000 1.0000
52.9700 253.0000 1.0000
52.9800 263.0000 1.0000
52.9900 252.0000 1.0000
53.0000 267.0000 1.0000
53.0100 277.0000 1.0000
53.0200 247.0000 1.0000
53.0300 262.0000 1.0000
53.0400 230.0000 1.0000
53.0500 255.0000 1.0000
53.0600 252.0000 1.0000
53.0700 245.0000 1.0000
53.0800 263.0000 1.0000
53.0900 283.0000 1.0000
53.1000 254.0000 1.0000
53.1100 262.0000 1.0000
53.1200 245.0000 1.0000
53.1300 226.0000 1.0000
53.1400 222.0000 1.0000
53.1500 268.0000 1.0000
53.1600 253.0000 1.0000
53.1700 234.0000 1.0000
53.1800 251.0000 1.0000
53.1900 249.0000 1.0000
53.2000 262.0000 1.0000
53.2100 227.0000 1.0000
53.2200 244.0000 1.0000
53.2300 266.0000 1.0000
53.2400 237.0000 1.0000
53.2500 248.0000 1.0000
53.2600 267.0000 1.0000
53.2700 259.0000 1.0000
53.2800 256.0000 1.0000
53.2900 263.0000 1.0000
53.3000 240.0000 1.0000
53.3100 241.0000 1.0000
53.3200 262.0000 1.0000
53.3300 256.0000 1.0000
53.3400 267.0000 1.0000
53.3500 241.0000 1.0000
53.3600 258.0000 1.0000
53.3700 258.0000 1.0000
53.3800 255.0000 1.0000
53.3900 228.0000 1.0000
53.4000 235.0000 1.0000
53.4100 251.0000 1.0000
53.4200 251.0000 1.0000
53.4300 247.0000 1.0000
53.4400 227.0000 1.0000
53.4500 226.0000 1.0000
53.4600 253.0000 1.0000
53.4700 269.0000 1.0000
53.4800 232.0000 1.0000
53.4900 246.0000 1.0000
53.5000 242.0000 1.0000
53.5100 258.0000 1.0000
53.5200 281.0000 1.0000
53.5300 253.0000 1.0000
53.5400 247.0000 1.0000
53.5500 255.0000 1.0000
53.5600 258.0000 1.0000
53.5700 229.0000 1.0000
53.5800 217.0000 1.0000
53.5900 240.0000 1.0000
53.6000 253.0000 1.0000
53.6100 245.0000 1.0000
53.6200 237.0000 1.0000
53.6300 260.0000 1.0000
53.6400 247.0000 1.0000
53.6500 288.0000 1.0000
53.6600 253.0000 1.0000
53.6700 239.0000 1.0000
53.6800 261.0000 1.0000
53.6900 275.0000 1.0000
53.7000 261.0000 1.0000
53.7100 253.0000 1.0000
53.7200 262.0000 1.0000
53.7300 263.0000 1.0000
53.7400 221.0000 1.0000
53.7500 258.0000 1.0000
53.7600 239.0000 1.0000
53.7700 251.0000 1.0000
53.7800 258.0000 1.0000
53.7900 243.0000 1.0000
53.8000 230.0000 1.0000
53.8100 231.0000 1.0000
53.8200 270.0000 1.0000
53.8300 249.0000 1.0000
53.8400 250.0000 1.0000
53.8500 257.0000 1.0000
53.8600 245.0000 1.0000
53.8700 258.0000 1.0000
53.8800 253.0000 1.0000
53.8900 218.0000 1.0000
53.9000 261.0000 1.0000
53.9100 240.0000 1.0000
53.9200 285.0000 1.0000
53.9300 281.0000 1.0000
53.9400 263.0000 1.0000
53.9500 269.0000 1.0000
53.9600 255.0000 1.0000
53.9700 257.0000 1.0000
53.9800 242.0000 1.0000
53.9900 246.0000 1.0000
54.0000 257.0000 1.0000
54.0100 273.0000 1.0000
54.0200 292.0000 1.0000
54.0300 276.0000 1.0000
54.0400 276.0000 1.0000
54.0500 270.0000 1.0000
54.0600 288.0000 1.0000
54.0700 289.0000 1.0000
54.0800 263.0000 1.0000
54.0900 263.0000 1.0000
54.1000 262.0000 1.0000
54.1100 275.0000 1.0000
54.1200 293.0000 1.0000
54.1300 285.0000 1.0000
54.1400 257.0000 1.0000
54.1500 270.0000 1.0000
54.1600 279.0000 1.0000
54.1700 267.0000 1.0000
54.1800 248.0000 1.0000
54.1900 267.0000 1.0000
54.2000 272.0000 1.0000
54.2100 259.0000 1.0000
54.2200 260.0000 1.0000
54.2300 252.0000 1.0000
54.2400 265.0000 1.0000
54.2500 267.0000 1.0000
54.2600 278.0000 1.0000
54.2700 260.0000 1.0000
54.2800 282.0000 1.0000
54.2900 297.0000 1.0000
54.3000 283.0000 1.0000
54.3100 271.0000 1.0000
54.3200 265.0000 1.0000
54.3300 283.0000 1.0000
54.3400 285.0000 1.0000
54.3500 266.0000 1.0000
54.3600 255.0000 1.0000
54.3700 294.0000 1.0000
54.3800 317.0000 1.0000
54.3900 287.0000 1.0000
54.4000 287.0000 1.0000
54.4100 270.0000 1.0000
54.4200 275.0000 1.0000
54.4300 303.0000 1.0000
54.4400 324.0000 1.0000
54.4500 326.0000 1.0000
54.4600 294.0000 1.0000
54.4700 300.0000 1.0000
54.4800 284.0000 1.0000
54.4900 295.0000 1.0000
54.5000 300.0000 1.0000
54.5100 306.0000 1.0000
54.5200 297.0000 1.0000
54.5300 306.0000 1.0000
54.5400 299.0000 1.0000
54.5500 305.0000 1.0000
54.5600 295.0000 1.0000
54.5700 285.0000 1.0000
54.5800 312.0000 1.0000
54.5900 330.0000 1.0000
54.6000 313.0000 1.0000
54.6100 312.0000 1.0000
54.6200 275.0000 1.0000
54.6300 272.0000 1.0000
54.6400 298.0000 1.0000
54.6500 273.0000 1.0000
54.6600 298.0000 1.0000
54.6700 302.0000 1.0000
54.6800 290.0000 1.0000
54.6900 295.0000 1.0000
54.7000 275.0000 1.0000
54.7100 287.0000 1.0000
54.7200 263.0000 1.0000
54.7300 284.0000 1.0000
54.7400 277.0000 1.0000
54.7500 271.0000 1.0000
54.7600 274.0000 1.0000
54.7700 268.0000 1.0000
54.7800 272.0000 1.0000
54.7900 269.0000 1.0000
54.8000 268.0000 1.0000
54.8100 269.0000 1.0000
54.8200 257.0000 1.0000
54.8300 293.0000 1.0000
54.8400 245.0000 1.0000
54.8500 265.0000 1.0000
54.8600 263.0000 1.0000
54.8700 260.0000 1.0000
54.8800 275.0000 1.0000
54.8900 265.0000 1.0000
54.9000 266.0000 1.0000
54.9100 259.0000 1.0000
54.9200 286.0000 1.0000
54.9300 261.0000 1.0000
54.9400 251.0000 1.0000
54.9500 258.0000 1.0000
54.9600 235.0000 1.0000
54.9700 239.0000 1.0000
54.9800 261.0000 1.0000
54.9900 259.0000 1.0000
55.0000 245.0000 1.0000
55.0100 236.0000 1.0000
55.0200 230.0000 1.0000
55.0300 250.0000 1.0000
55.0400 247.0000 1.0000
55.0500 245.0000 1.0000
55.0600 229.0000 1.0000
55.0700 257.0000 1.0000
55.0800 257.0000 1.0000
55.0900 246.0000 1.0000
55.1000 230.0000 1.0000
55.1100 259.0000 1.0000
55.1200 229.0000 1.0000
55.1300 236.0000 1.0000
55.1400 249.0000 1.0000
55.1500 235.0000 1.0000
55.1600 241.0000 1.0000
55.1700 240.0000 1.0000
55.1800 239.0000 1.0000
55.1900 235.0000 1.0000
55.2000 261.0000 1.0000
55.2100 255.0000 1.0000
55.2200 232.0000 1.0000
55.2300 266.0000 1.0000
55.2400 241.0000 1.0000
55.2500 251.0000 1.0000
55.2600 223.0000 1.0000
55.2700 232.0000 1.0000
55.2800 237.0000 1.0000
55.2900 249.0000 1.0000
55.3000 249.0000 1.0000
55.3100 228.0000 1.0000
55.3200 248.0000 1.0000
55.3300 238.0000 1.0000
55.3400 226.0000 1.0000
55.3500 217.0000 1.0000
55.3600 234.0000 1.0000
55.3700 243.0000 1.0000
55.3800 254.0000 1.0000
55.3900 248.0000 1.0000
55.4000 241.0000 1.0000
55.4100 256.0000 1.0000
55.4200 269.0000 1.0000
55.4300 231.0000 1.0000
55.4400 242.0000 1.0000
55.4500 249.0000 1.0000
55.4600 275.0000 1.0000
55.4700 243.0000 1.0000
55.4800 237.0000 1.0000
55.4900 240.0000 1.0000
55.5000 243.0000 1.0000
55.5100 224.0000 1.0000
55.5200 230.0000 1.0000
55.5300 240.0000 1.0000
55.5400 259.0000 1.0000
55.5500 266.0000 1.0000
55.5600 213.0000 1.0000
55.5700 223.0000 1.0000
55.5800 227.0000 1.0000
55.5900 229.0000 1.0000
55.6000 258.0000 1.0000
55.6100 254.0000 1.0000
55.6200 253.0000 1.0000
55.6300 249.0000 1.0000
55.6400 229.0000 1.0000
55.6500 233.0000 1.0000
55.6600 241.0000 1.0000
55.6700 257.0000 1.0000
55.6800 246.0000 1.0000
55.6900 236.0000 1.0000
55.7000 269.0000 1.0000
55.7100 238.0000 1.0000
55.7200 243.0000 1.0000
55.7300 239.0000 1.0000
55.7400 242.0000 1.0000
55.7500 259.0000 1.0000
55.7600 235.0000 1.0000
55.7700 266.0000 1.0000
55.7800 250.0000 1.0000
55.7900 224.0000 1.0000
55.8000 224.0000 1.0000
55.8100 234.0000 1.0000
55.8200 238.0000 1.0000
55.8300 250.0000 1.0000
55.8400 236.0000 1.0000
55.8500 235.0000 1.0000
55.8600 249.0000 1.0000
55.8700 241.0000 1.0000
55.8800 246.0000 1.0000
55.8900 229.0000 1.0000
55.9000 234.0000 1.0000
55.9100 239.0000 1.0000
55.9200 246.0000 1.0000
55.9300 229.0000 1.0000
55.9400 242.0000 1.0000
55.9500 232.0000 1.0000
55.9600 239.0000 1.0000
55.9700 227.0000 1.0000
55.9800 228.0000 1.0000
55.9900 228.0000 1.0000
56.0000 198.0000 1.0000
56.0100 243.0000 1.0000
56.0200 244.0000 1.0000
56.0300 232.0000 1.0000
56.0400 256.0000 1.0000
56.0500 244.0000 1.0000
56.0600 230.0000 1.0000
56.0700 219.0000 1.0000
56.0800 264.0000 1.0000
56.0900 214.0000 1.0000
56.1000 240.0000 1.0000
56.1100 216.0000 1.0000
56.1200 244.0000 1.0000
56.1300 250.0000 1.0000
56.1400 247.0000 1.0000
56.1500 236.0000 1.0000
56.1600 230.0000 1.0000
56.1700 239.0000 1.0000
56.1800 231.0000 1.0000
56.1900 232.0000 1.0000
56.2000 231.0000 1.0000
56.2100 242.0000 1.0000
56.2200 251.0000 1.0000
56.2300 253.0000 1.0000
56.2400 221.0000 1.0000
56.2500 260.0000 1.0000
56.2600 241.0000 1.0000
56.2700 240.0000 1.0000
56.2800 246.0000 1.0000
56.2900 231.0000 1.0000
56.3000 252.0000 1.0000
56.3100 220.0000 1.0000
56.3200 233.0000 1.0000
56.3300 226.0000 1.0000
56.3400 221.0000 1.0000
56.3500 249.0000 1.0000
56.3600 243.0000 1.0000
56.3700 249.0000 1.0000
56.3800 248.0000 1.0000
56.3900 257.0000 1.0000
56.4000 259.0000 1.0000
56.4100 240.0000 1.0000
56.4200 252.0000 1.0000
56.4300 253.0000 1.0000
56.4400 238.0000 1.0000
56.4500 239.0000 1.0000
56.4600 256.0000 1.0000
56.4700 256.0000 1.0000
56.4800 248.0000 1.0000
56.4900 244.0000 1.0000
56.5000 252.0000 1.0000
56.5100 225.0000 1.0000
56.5200 253.0000 1.0000
56.5300 265.0000 1.0000
56.5400 237.0000 1.0000
56.5500 232.0000 1.0000
56.5600 230.0000 1.0000
56.5700 222.0000 1.0000
56.5800 229.0000 1.0000
56.5900 244.0000 1.0000
56.6000 218.0000 1.0000
56.6100 263.0000 1.0000
56.6200 228.0000 1.0000
56.6300 261.0000 1.0000
56.6400 249.0000 1.0000
56.6500 238.0000 1.0000
56.6600 240.0000 1.0000
56.6700 235.0000 1.0000
56.6800 233.0000 1.0000
56.6900 237.0000 1.0000
56.7000 232.0000 1.0000
56.7100 234.0000 1.0000
56.7200 230.0000 1.0000
56.7300 255.0000 1.0000
56.7400 263.0000 1.0000
56.7500 245.0000 1.0000
56.7600 251.0000 1.0000
56.7700 239.0000 1.0000
56.7800 230.0000 1.0000
56.7900 241.0000 1.0000
56.8000 227.0000 1.0000
56.8100 238.0000 1.0000
56.8200 226.0000 1.0000
56.8300 249.0000 1.0000
56.8400 258.0000 1.0000
56.8500 242.0000 1.0000
56.8600 254.0000 1.0000
56.8700 243.0000 1.0000
56.8800 232.0000 1.0000
56.8900 235.0000 1.0000
56.9000 243.0000 1.0000
56.9100 248.0000 1.0000
56.9200 256.0000 1.0000
56.9300 243.0000 1.0000
56.9400 230.0000 1.0000
56.9500 223.0000 1.0000
56.9600 217.0000 1.0000
56.9700 245.0000 1.0000
56.9800 242.0000 1.0000
56.9900 252.0000 1.0000
57.0000 230.0000 1.0000
57.0100 234.0000 1.0000
57.0200 240.0000 1.0000
57.0300 230.0000 1.0000
57.0400 238.0000 1.0000
57.0500 228.0000 1.0000
57.0600 225.0000 1.0000
57.0700 209.0000 1.0000
57.0800 235.0000 1.0000
57.0900 253.0000 1.0000
57.1000 223.0000 1.0000
57.1100 233.0000 1.0000
57.1200 243.0000 1.0000
57.1300 257.0000 1.0000
57.1400 232.0000 1.0000
57.1500 218.0000 1.0000
57.1600 256.0000 1.0000
57.1700 227.0000 1.0000
57.1800 258.0000 1.0000
57.1900 247.0000 1.0000
57.2000 259.0000 1.0000
57.2100 268.0000 1.0000
57.2200 233.0000 1.0000
57.2300 239.0000 1.0000
57.2400 231.0000 1.0000
57.2500 219.0000 1.0000
57.2600 230.0000 1.0000
57.2700 234.0000 1.0000
57.2800 234.0000 1.0000
57.2900 229.0000 1.0000
57.3000 242.0000 1.0000
57.3100 253.0000 1.0000
57.3200 233.0000 1.0000
57.3300 246.0000 1.0000
57.3400 241.0000 1.0000
57.3500 242.0000 1.0000
57.3600 232.0000 1.0000
57.3700 238.0000 1.0000
57.3800 222.0000 1.0000
57.3900 228.0000 1.0000
57.4000 236.0000 1.0000
57.4100 256.0000 1.0000
57.4200 239.0000 1.0000
57.4300 244.0000 1.0000
57.4400 247.0000 1.0000
57.4500 239.0000 1.0000
57.4600 235.0000 1.0000
57.4700 234.0000 1.0000
57.4800 247.0000 1.0000
57.4900 244.0000 1.0000
57.5000 232.0000 1.0000
57.5100 213.0000 1.0000
57.5200 230.0000 1.0000
57.5300 235.0000 1.0000
57.5400 284.0000 1.0000
57.5500 259.0000 1.0000
57.5600 231.0000 1.0000
57.5700 240.0000 1.0000
57.5800 268.0000 1.0000
57.5900 264.0000 1.0000
57.6000 281.0000 1.0000
57.6100 270.0000 1.0000
57.6200 258.0000 1.0000
57.6300 215.0000 1.0000
57.6400 248.0000 1.0000
57.6500 228.0000 1.0000
57.6600 222.0000 1.0000
57.6700 227.0000 1.0000
57.6800 234.0000 1.0000
57.6900 229.0000 1.0000
57.7000 234.0000 1.0000
57.7100 241.0000 1.0000
57.7200 243.0000 1.0000
57.7300 248.0000 1.0000
57.7400 251.0000 1.0000
57.7500 228.0000 1.0000
57.7600 237.0000 1.0000
57.7700 231.0000 1.0000
57.7800 241.0000 1.0000
57.7900 213.0000 1.0000
57.8000 229.0000 1.0000
57.8100 239.0000 1.0000
57.8200 239.0000 1.0000
57.8300 273.0000 1.0000
57.8400 263.0000 1.0000
57.8500 248.0000 1.0000
57.8600 252.0000 1.0000
57.8700 244.0000 1.0000
57.8800 256.0000 1.0000
57.8900 245.0000 1.0000
57.9000 247.0000 1.0000
57.9100 260.0000 1.0000
57.9200 260.0000 1.0000
57.9300 216.0000 1.0000
57.9400 220.0000 1.0000
57.9500 230.0000 1.0000
57.9600 215.0000 1.0000
57.9700 232.0000 1.0000
57.9800 220.0000 1.0000
57.9900 245.0000 1.0000
58.0000 240.0000 1.0000
58.0100 187.0000 1.0000
58.0200 233.0000 1.0000
58.0300 245.0000 1.0000
58.0400 248.0000 1.0000
58.0500 216.0000 1.0000
58.0600 252.0000 1.0000
58.0700 253.0000 1.0000
58.0800 235.0000 1.0000
58.0900 237.0000 1.0000
58.1000 228.0000 1.0000
58.1100 227.0000 1.0000
58.1200 218.0000 1.0000
58.1300 229.0000 1.0000
58.1400 243.0000 1.0000
58.1500 238.0000 1.0000
58.1600 224.0000 1.0000
58.1700 241.0000 1.0000
58.1800 236.0000 1.0000
58.1900 234.0000 1.0000
58.2000 229.0000 1.0000
58.2100 230.0000 1.0000
58.2200 246.0000 1.0000
58.2300 245.0000 1.0000
58.2400 236.0000 1.0000
58.2500 221.0000 1.0000
58.2600 231.0000 1.0000
58.2700 243.0000 1.0000
58.2800 236.0000 1.0000
58.2900 232.0000 1.0000
58.3000 250.0000 1.0000
58.3100 255.0000 1.0000
58.3200 252.0000 1.0000
58.3300 240.0000 1.0000
58.3400 241.0000 1.0000
58.3500 236.0000 1.0000
58.3600 242.0000 1.0000
58.3700 248.0000 1.0000
58.3800 219.0000 1.0000
58.3900 248.0000 1.0000
58.4000 237.0000 1.0000
58.4100 244.0000 1.0000
58.4200 223.0000 1.0000
58.4300 270.0000 1.0000
58.4400 278.0000 1.0000
58.4500 251.0000 1.0000
58.4600 261.0000 1.0000
58.4700 244.0000 1.0000
58.4800 247.0000 1.0000
58.4900 239.0000 1.0000
58.5000 253.0000 1.0000
58.5100 248.0000 1.0000
58.5200 236.0000 1.0000
58.5300 240.0000 1.0000
58.5400 235.0000 1.0000
58.5500 225.0000 1.0000
58.5600 226.0000 1.0000
58.5700 251.0000 1.0000
58.5800 247.0000 1.0000
58.5900 254.0000 1.0000
58.6000 214.0000 1.0000
58.6100 226.0000 1.0000
58.6200 242.0000 1.0000
58.6300 221.0000 1.0000
58.6400 253.0000 1.0000
58.6500 269.0000 1.0000
58.6600 224.0000 1.0000
58.6700 241.0000 1.0000
58.6800 241.0000 1.0000
58.6900 215.0000 1.0000
58.7000 281.0000 1.0000
58.7100 259.0000 1.0000
58.7200 239.0000 1.0000
58.7300 215.0000 1.0000
58.7400 240.0000 1.0000
58.7500 238.0000 1.0000
58.7600 252.0000 1.0000
58.7700 242.0000 1.0000
58.7800 247.0000 1.0000
58.7900 209.0000 1.0000
58.8000 238.0000 1.0000
58.8100 242.0000 1.0000
58.8200 234.0000 1.0000
58.8300 244.0000 1.0000
58.8400 257.0000 1.0000
58.8500 245.0000 1.0000
58.8600 252.0000 1.0000
58.8700 240.0000 1.0000
58.8800 217.0000 1.0000
58.8900 232.0000 1.0000
58.9000 240.0000 1.0000
58.9100 262.0000 1.0000
58.9200 236.0000 1.0000
58.9300 251.0000 1.0000
58.9400 234.0000 1.0000
58.9500 225.0000 1.0000
58.9600 261.0000 1.0000
58.9700 219.0000 1.0000
58.9800 263.0000 1.0000
58.9900 234.0000 1.0000
59.0000 211.0000 1.0000
59.0100 198.0000 1.0000
59.0200 220.0000 1.0000
59.0300 226.0000 1.0000
59.0400 198.0000 1.0000
59.0500 218.0000 1.0000
59.0600 233.0000 1.0000
59.0700 230.0000 1.0000
59.0800 248.0000 1.0000
59.0900 264.0000 1.0000
59.1000 230.0000 1.0000
59.1100 241.0000 1.0000
59.1200 246.0000 1.0000
59.1300 243.0000 1.0000
59.1400 231.0000 1.0000
59.1500 242.0000 1.0000
59.1600 242.0000 1.0000
59.1700 217.0000 1.0000
59.1800 223.0000 1.0000
59.1900 233.0000 1.0000
59.2000 213.0000 1.0000
59.2100 208.0000 1.0000
59.2200 220.0000 1.0000
59.2300 276.0000 1.0000
59.2400 233.0000 1.0000
59.2500 226.0000 1.0000
59.2600 243.0000 1.0000
59.2700 234.0000 1.0000
59.2800 235.0000 1.0000
59.2900 222.0000 1.0000
59.3000 216.0000 1.0000
59.3100 244.0000 1.0000
59.3200 251.0000 1.0000
59.3300 248.0000 1.0000
59.3400 241.0000 1.0000
59.3500 232.0000 1.0000
59.3600 212.0000 1.0000
59.3700 217.0000 1.0000
59.3800 237.0000 1.0000
59.3900 237.0000 1.0000
59.4000 245.0000 1.0000
59.4100 267.0000 1.0000
59.4200 224.0000 1.0000
59.4300 227.0000 1.0000
59.4400 251.0000 1.0000
59.4500 223.0000 1.0000
59.4600 250.0000 1.0000
59.4700 234.0000 1.0000
59.4800 238.0000 1.0000
59.4900 246.0000 1.0000
59.5000 198.0000 1.0000
59.5100 223.0000 1.0000
59.5200 232.0000 1.0000
59.5300 253.0000 1.0000
59.5400 209.0000 1.0000
59.5500 234.0000 1.0000
59.5600 233.0000 1.0000
59.5700 250.0000 1.0000
59.5800 242.0000 1.0000
59.5900 244.0000 1.0000
59.6000 272.0000 1.0000
59.6100 239.0000 1.0000
59.6200 237.0000 1.0000
59.6300 245.0000 1.0000
59.6400 257.0000 1.0000
59.6500 231.0000 1.0000
59.6600 233.0000 1.0000
59.6700 255.0000 1.0000
59.6800 244.0000 1.0000
59.6900 244.0000 1.0000
59.7000 239.0000 1.0000
59.7100 218.0000 1.0000
59.7200 218.0000 1.0000
59.7300 232.0000 1.0000
59.7400 241.0000 1.0000
59.7500 255.0000 1.0000
59.7600 241.0000 1.0000
59.7700 218.0000 1.0000
59.7800 226.0000 1.0000
59.7900 215.0000 1.0000
59.8000 225.0000 1.0000
59.8100 223.0000 1.0000
59.8200 262.0000 1.0000
59.8300 276.0000 1.0000
59.8400 251.0000 1.0000
59.8500 232.0000 1.0000
59.8600 243.0000 1.0000
59.8700 219.0000 1.0000
59.8800 228.0000 1.0000
59.8900 243.0000 1.0000
59.9000 262.0000 1.0000
59.9100 249.0000 1.0000
59.9200 240.0000 1.0000
59.9300 244.0000 1.0000
59.9400 208.0000 1.0000
59.9500 223.0000 1.0000
59.9600 222.0000 1.0000
59.9700 229.0000 1.0000
59.9800 244.0000 1.0000
59.9900 249.0000 1.0000
60.0000 238.0000 1.0000
60.0100 239.0000 1.0000
60.0200 210.0000 1.0000
60.0300 233.0000 1.0000
60.0400 260.0000 1.0000
60.0500 229.0000 1.0000
60.0600 238.0000 1.0000
60.0700 236.0000 1.0000
60.0800 253.0000 1.0000
60.0900 239.0000 1.0000
60.1000 236.0000 1.0000
60.1100 244.0000 1.0000
60.1200 265.0000 1.0000
60.1300 236.0000 1.0000
60.1400 214.0000 1.0000
60.1500 240.0000 1.0000
60.1600 237.0000 1.0000
60.1700 237.0000 1.0000
60.1800 244.0000 1.0000
60.1900 251.0000 1.0000
60.2000 229.0000 1.0000
60.2100 233.0000 1.0000
60.2200 232.0000 1.0000
60.2300 203.0000 1.0000
60.2400 250.0000 1.0000
60.2500 227.0000 1.0000
60.2600 215.0000 1.0000
60.2700 215.0000 1.0000
60.2800 233.0000 1.0000
60.2900 241.0000 1.0000
60.3000 230.0000 1.0000
60.3100 242.0000 1.0000
60.3200 238.0000 1.0000
60.3300 244.0000 1.0000
60.3400 238.0000 1.0000
60.3500 254.0000 1.0000
60.3600 242.0000 1.0000
60.3700 217.0000 1.0000
60.3800 247.0000 1.0000
60.3900 248.0000 1.0000
60.4000 241.0000 1.0000
60.4100 238.0000 1.0000
60.4200 230.0000 1.0000
60.4300 232.0000 1.0000
60.4400 208.0000 1.0000
60.4500 225.0000 1.0000
60.4600 232.0000 1.0000
60.4700 229.0000 1.0000
60.4800 236.0000 1.0000
60.4900 227.0000 1.0000
60.5000 225.0000 1.0000
60.5100 229.0000 1.0000
60.5200 233.0000 1.0000
60.5300 252.0000 1.0000
60.5400 247.0000 1.0000
60.5500 245.0000 1.0000
60.5600 246.0000 1.0000
60.5700 232.0000 1.0000
60.5800 233.0000 1.0000
60.5900 270.0000 1.0000
60.6000 254.0000 1.0000
60.6100 263.0000 1.0000
60.6200 218.0000 1.0000
60.6300 233.0000 1.0000
60.6400 231.0000 1.0000
60.6500 250.0000 1.0000
60.6600 259.0000 1.0000
60.6700 243.0000 1.0000
60.6800 254.0000 1.0000
60.6900 258.0000 1.0000
60.7000 277.0000 1.0000
60.7100 245.0000 1.0000
60.7200 221.0000 1.0000
60.7300 254.0000 1.0000
60.7400 238.0000 1.0000
60.7500 237.0000 1.0000
60.7600 264.0000 1.0000
60.7700 246.0000 1.0000
60.7800 243.0000 1.0000
60.7900 261.0000 1.0000
60.8000 237.0000 1.0000
60.8100 232.0000 1.0000
60.8200 238.0000 1.0000
60.8300 246.0000 1.0000
60.8400 254.0000 1.0000
60.8500 226.0000 1.0000
60.8600 281.0000 1.0000
60.8700 266.0000 1.0000
60.8800 267.0000 1.0000
60.8900 255.0000 1.0000
60.9000 257.0000 1.0000
60.9100 261.0000 1.0000
60.9200 257.0000 1.0000
60.9300 248.0000 1.0000
60.9400 262.0000 1.0000
60.9500 268.0000 1.0000
60.9600 252.0000 1.0000
60.9700 236.0000 1.0000
60.9800 247.0000 1.0000
60.9900 248.0000 1.0000
61.0000 260.0000 1.0000
61.0100 241.0000 1.0000
61.0200 263.0000 1.0000
61.0300 255.0000 1.0000
61.0400 255.0000 1.0000
61.0500 259.0000 1.0000
61.0600 267.0000 1.0000
61.0700 289.0000 1.0000
61.0800 287.0000 1.0000
61.0900 273.0000 1.0000
61.1000 276.0000 1.0000
61.1100 274.0000 1.0000
61.1200 268.0000 1.0000
61.1300 275.0000 1.0000
61.1400 293.0000 1.0000
61.1500 257.0000 1.0000
61.1600 240.0000 1.0000
61.1700 288.0000 1.0000
61.1800 273.0000 1.0000
61.1900 277.0000 1.0000
61.2000 327.0000 1.0000
61.2100 292.0000 1.0000
61.2200 287.0000 1.0000
61.2300 336.0000 1.0000
61.2400 336.0000 1.0000
61.2500 315.0000 1.0000
61.2600 302.0000 1.0000
61.2700 305.0000 1.0000
61.2800 291.0000 1.0000
61.2900 303.0000 1.0000
61.3000 320.0000 1.0000
61.3100 347.0000 1.0000
61.3200 336.0000 1.0000
61.3300 330.0000 1.0000
61.3400 358.0000 1.0000
61.3500 364.0000 1.0000
61.3600 411.0000 1.0000
61.3700 407.0000 1.0000
61.3800 371.0000 1.0000
61.3900 395.0000 1.0000
61.4000 385.0000 1.0000
61.4100 420.0000 1.0000
61.4200 411.0000 1.0000
61.4300 450.0000 1.0000
61.4400 459.0000 1.0000
61.4500 421.0000 1.0000
61.4600 432.0000 1.0000
61.4700 479.0000 1.0000
61.4800 468.0000 1.0000
61.4900 480.0000 1.0000
61.5000 480.0000 1.0000
61.5100 479.0000 1.0000
61.5200 529.0000 1.0000
61.5300 503.0000 1.0000
61.5400 525.0000 1.0000
61.5500 481.0000 1.0000
61.5600 470.0000 1.0000
61.5700 530.0000 1.0000
61.5800 528.0000 1.0000
61.5900 516.0000 1.0000
61.6000 497.0000 1.0000
61.6100 495.0000 1.0000
61.6200 516.0000 1.0000
61.6300 535.0000 1.0000
61.6400 501.0000 1.0000
61.6500 501.0000 1.0000
61.6600 532.0000 1.0000
61.6700 478.0000 1.0000
61.6800 481.0000 1.0000
61.6900 499.0000 1.0000
61.7000 501.0000 1.0000
61.7100 450.0000 1.0000
61.7200 479.0000 1.0000
61.7300 464.0000 1.0000
61.7400 459.0000 1.0000
61.7500 467.0000 1.0000
61.7600 470.0000 1.0000
61.7700 453.0000 1.0000
61.7800 433.0000 1.0000
61.7900 444.0000 1.0000
61.8000 427.0000 1.0000
61.8100 398.0000 1.0000
61.8200 409.0000 1.0000
61.8300 386.0000 1.0000
61.8400 392.0000 1.0000
61.8500 393.0000 1.0000
61.8600 369.0000 1.0000
61.8700 407.0000 1.0000
61.8800 386.0000 1.0000
61.8900 407.0000 1.0000
61.9000 380.0000 1.0000
61.9100 368.0000 1.0000
61.9200 309.0000 1.0000
61.9300 353.0000 1.0000
61.9400 347.0000 1.0000
61.9500 348.0000 1.0000
61.9600 344.0000 1.0000
61.9700 319.0000 1.0000
61.9800 311.0000 1.0000
61.9900 305.0000 1.0000
62.0000 329.0000 1.0000
62.0100 288.0000 1.0000
62.0200 285.0000 1.0000
62.0300 300.0000 1.0000
62.0400 289.0000 1.0000
62.0500 303.0000 1.0000
62.0600 298.0000 1.0000
62.0700 280.0000 1.0000
62.0800 308.0000 1.0000
62.0900 280.0000 1.0000
62.1000 274.0000 1.0000
62.1100 272.0000 1.0000
62.1200 272.0000 1.0000
62.1300 278.0000 1.0000
62.1400 310.0000 1.0000
62.1500 279.0000 1.0000
62.1600 268.0000 1.0000
62.1700 296.0000 1.0000
62.1800 270.0000 1.0000
62.1900 296.0000 1.0000
62.2000 266.0000 1.0000
62.2100 288.0000 1.0000
62.2200 277.0000 1.0000
62.2300 269.0000 1.0000
62.2400 263.0000 1.0000
62.2500 282.0000 1.0000
62.2600 291.0000 1.0000
62.2700 263.0000 1.0000
62.2800 250.0000 1.0000
62.2900 277.0000 1.0000
62.3000 280.0000 1.0000
62.3100 268.0000 1.0000
62.3200 267.0000 1.0000
62.3300 274.0000 1.0000
62.3400 267.0000 1.0000
62.3500 271.0000 1.0000
62.3600 230.0000 1.0000
62.3700 248.0000 1.0000
62.3800 271.0000 1.0000
62.3900 252.0000 1.0000
62.4000 264.0000 1.0000
62.4100 262.0000 1.0000
62.4200 258.0000 1.0000
62.4300 285.0000 1.0000
62.4400 279.0000 1.0000
62.4500 259.0000 1.0000
62.4600 234.0000 1.0000
62.4700 253.0000 1.0000
62.4800 264.0000 1.0000
62.4900 265.0000 1.0000
62.5000 275.0000 1.0000
62.5100 236.0000 1.0000
62.5200 224.0000 1.0000
62.5300 230.0000 1.0000
62.5400 264.0000 1.0000
62.5500 246.0000 1.0000
62.5600 241.0000 1.0000
62.5700 240.0000 1.0000
62.5800 239.0000 1.0000
62.5900 262.0000 1.0000
62.6000 274.0000 1.0000
62.6100 263.0000 1.0000
62.6200 228.0000 1.0000
62.6300 257.0000 1.0000
62.6400 241.0000 1.0000
62.6500 246.0000 1.0000
62.6600 241.0000 1.0000
62.6700 235.0000 1.0000
62.6800 250.0000 1.0000
62.6900 247.0000 1.0000
62.7000 247.0000 1.0000
62.7100 246.0000 1.0000
62.7200 238.0000 1.0000
62.7300 268.0000 1.0000
62.7400 234.0000 1.0000
62.7500 229.0000 1.0000
62.7600 260.0000 1.0000
62.7700 256.0000 1.0000
62.7800 227.0000 1.0000
62.7900 218.0000 1.0000
62.8000 243.0000 1.0000
62.8100 240.0000 1.0000
62.8200 240.0000 1.0000
62.8300 265.0000 1.0000
62.8400 248.0000 1.0000
62.8500 260.0000 1.0000
62.8600 225.0000 1.0000
62.8700 241.0000 1.0000
62.8800 253.0000 1.0000
62.8900 252.0000 1.0000
62.9000 250.0000 1.0000
62.9100 248.0000 1.0000
62.9200 252.0000 1.0000
62.9300 250.0000 1.0000
62.9400 240.0000 1.0000
62.9500 244.0000 1.0000
62.9600 229.0000 1.0000
62.9700 204.0000 1.0000
62.9800 250.0000 1.0000
62.9900 248.0000 1.0000
63.0000 223.0000 1.0000
63.0100 243.0000 1.0000
63.0200 243.0000 1.0000
63.0300 232.0000 1.0000
63.0400 242.0000 1.0000
63.0500 227.0000 1.0000
63.0600 246.0000 1.0000
63.0700 244.0000 1.0000
63.0800 257.0000 1.0000
63.0900 266.0000 1.0000
63.1000 259.0000 1.0000
63.1100 262.0000 1.0000
63.1200 247.0000 1.0000
63.1300 238.0000 1.0000
63.1400 252.0000 1.0000
63.1500 244.0000 1.0000
63.1600 265.0000 1.0000
63.1700 249.0000 1.0000
63.1800 251.0000 1.0000
63.1900 253.0000 1.0000
63.2000 256.0000 1.0000
63.2100 233.0000 1.0000
63.2200 266.0000 1.0000
63.2300 236.0000 1.0000
63.2400 243.0000 1.0000
63.2500 247.0000 1.0000
63.2600 253.0000 1.0000
63.2700 245.0000 1.0000
63.2800 275.0000 1.0000
63.2900 278.0000 1.0000
63.3000 223.0000 1.0000
63.3100 260.0000 1.0000
63.3200 233.0000 1.0000
63.3300 291.0000 1.0000
63.3400 238.0000 1.0000
63.3500 238.0000 1.0000
63.3600 232.0000 1.0000
63.3700 234.0000 1.0000
63.3800 234.0000 1.0000
63.3900 249.0000 1.0000
63.4000 232.0000 1.0000
63.4100 245.0000 1.0000
63.4200 249.0000 1.0000
63.4300 265.0000 1.0000
63.4400 200.0000 1.0000
63.4500 249.0000 1.0000
63.4600 249.0000 1.0000
63.4700 234.0000 1.0000
63.4800 248.0000 1.0000
63.4900 256.0000 1.0000
63.5000 268.0000 1.0000
63.5100 238.0000 1.0000
63.5200 221.0000 1.0000
63.5300 253.0000 1.0000
63.5400 252.0000 1.0000
63.5500 214.0000 1.0000
63.5600 243.0000 1.0000
63.5700 254.0000 1.0000
63.5800 265.0000 1.0000
63.5900 255.0000 1.0000
63.6000 247.0000 1.0000
63.6100 241.0000 1.0000
63.6200 254.0000 1.0000
63.6300 247.0000 1.0000
63.6400 265.0000 1.0000
63.6500 258.0000 1.0000
63.6600 239.0000 1.0000
63.6700 249.0000 1.0000
63.6800 258.0000 1.0000
63.6900 271.0000 1.0000
63.7000 251.0000 1.0000
63.7100 268.0000 1.0000
63.7200 265.0000 1.0000
63.7300 259.0000 1.0000
63.7400 244.0000 1.0000
63.7500 254.0000 1.0000
63.7600 260.0000 1.0000
63.7700 265.0000 1.0000
63.7800 237.0000 1.0000
63.7900 283.0000 1.0000
63.8000 247.0000 1.0000
63.8100 239.0000 1.0000
63.8200 271.0000 1.0000
63.8300 262.0000 1.0000
63.8400 276.0000 1.0000
63.8500 271.0000 1.0000
63.8600 282.0000 1.0000
63.8700 247.0000 1.0000
63.8800 277.0000 1.0000
63.8900 281.0000 1.0000
63.9000 252.0000 1.0000
63.9100 246.0000 1.0000
63.9200 267.0000 1.0000
63.9300 277.0000 1.0000
63.9400 275.0000 1.0000
63.9500 284.0000 1.0000
63.9600 290.0000 1.0000
63.9700 270.0000 1.0000
63.9800 268.0000 1.0000
63.9900 286.0000 1.0000
64.0000 242.0000 1.0000
64.0100 258.0000 1.0000
64.0200 285.0000 1.0000
64.0300 287.0000 1.0000
64.0400 290.0000 1.0000
64.0500 263.0000 1.0000
64.0600 238.0000 1.0000
64.0700 259.0000 1.0000
64.0800 284.0000 1.0000
64.0900 289.0000 1.0000
64.1000 266.0000 1.0000
64.1100 248.0000 1.0000
64.1200 279.0000 1.0000
64.1300 242.0000 1.0000
64.1400 283.0000 1.0000
64.1500 286.0000 1.0000
64.1600 293.0000 1.0000
64.1700 284.0000 1.0000
64.1800 266.0000 1.0000
64.1900 260.0000 1.0000
64.2000 295.0000 1.0000
64.2100 275.0000 1.0000
64.2200 247.0000 1.0000
64.2300 265.0000 1.0000
64.2400 257.0000 1.0000
64.2500 229.0000 1.0000
64.2600 266.0000 1.0000
64.2700 267.0000 1.0000
64.2800 250.0000 1.0000
64.2900 250.0000 1.0000
64.3000 271.0000 1.0000
64.3100 268.0000 1.0000
64.3200 235.0000 1.0000
64.3300 241.0000 1.0000
64.3400 248.0000 1.0000
64.3500 237.0000 1.0000
64.3600 259.0000 1.0000
64.3700 257.0000 1.0000
64.3800 279.0000 1.0000
64.3900 241.0000 1.0000
64.4000 252.0000 1.0000
64.4100 220.0000 1.0000
64.4200 234.0000 1.0000
64.4300 225.0000 1.0000
64.4400 233.0000 1.0000
64.4500 262.0000 1.0000
64.4600 272.0000 1.0000
64.4700 247.0000 1.0000
64.4800 247.0000 1.0000
64.4900 246.0000 1.0000
64.5000 241.0000 1.0000
64.5100 260.0000 1.0000
64.5200 265.0000 1.0000
64.5300 234.0000 1.0000
64.5400 218.0000 1.0000
64.5500 269.0000 1.0000
64.5600 263.0000 1.0000
64.5700 252.0000 1.0000
64.5800 272.0000 1.0000
64.5900 241.0000 1.0000
64.6000 269.0000 1.0000
64.6100 246.0000 1.0000
64.6200 271.0000 1.0000
64.6300 244.0000 1.0000
64.6400 242.0000 1.0000
64.6500 242.0000 1.0000
64.6600 256.0000 1.0000
64.6700 227.0000 1.0000
64.6800 247.0000 1.0000
64.6900 265.0000 1.0000
64.7000 258.0000 1.0000
64.7100 272.0000 1.0000
64.7200 231.0000 1.0000
64.7300 268.0000 1.0000
64.7400 213.0000 1.0000
64.7500 262.0000 1.0000
64.7600 249.0000 1.0000
64.7700 261.0000 1.0000
64.7800 254.0000 1.0000
64.7900 264.0000 1.0000
64.8000 266.0000 1.0000
64.8100 259.0000 1.0000
64.8200 253.0000 1.0000
64.8300 244.0000 1.0000
64.8400 275.0000 1.0000
64.8500 262.0000 1.0000
64.8600 265.0000 1.0000
64.8700 244.0000 1.0000
64.8800 262.0000 1.0000
64.8900 266.0000 1.0000
64.9000 276.0000 1.0000
64.9100 265.0000 1.0000
64.9200 268.0000 1.0000
64.9300 252.0000 1.0000
64.9400 243.0000 1.0000
64.9500 269.0000 1.0000
64.9600 303.0000 1.0000
64.9700 293.0000 1.0000
64.9800 264.0000 1.0000
64.9900 261.0000 1.0000
65.0000 282.0000 1.0000
65.0100 264.0000 1.0000
65.0200 297.0000 1.0000
65.0300 275.0000 1.0000
65.0400 283.0000 1.0000
65.0500 240.0000 1.0000
65.0600 293.0000 1.0000
65.0700 275.0000 1.0000
65.0800 294.0000 1.0000
65.0900 292.0000 1.0000
65.1000 319.0000 1.0000
65.1100 289.0000 1.0000
65.1200 286.0000 1.0000
65.1300 308.0000 1.0000
65.1400 322.0000 1.0000
65.1500 313.0000 1.0000
65.1600 330.0000 1.0000
65.1700 340.0000 1.0000
65.1800 326.0000 1.0000
65.1900 337.0000 1.0000
65.2000 313.0000 1.0000
65.2100 329.0000 1.0000
65.2200 338.0000 1.0000
65.2300 374.0000 1.0000
65.2400 358.0000 1.0000
65.2500 345.0000 1.0000
65.2600 352.0000 1.0000
65.2700 382.0000 1.0000
65.2800 396.0000 1.0000
65.2900 413.0000 1.0000
65.3000 432.0000 1.0000
65.3100 458.0000 1.0000
65.3200 423.0000 1.0000
65.3300 449.0000 1.0000
65.3400 445.0000 1.0000
65.3500 489.0000 1.0000
65.3600 488.0000 1.0000
65.3700 522.0000 1.0000
65.3800 570.0000 1.0000
65.3900 574.0000 1.0000
65.4000 615.0000 1.0000
65.4100 597.0000 1.0000
65.4200 647.0000 1.0000
65.4300 652.0000 1.0000
65.4400 690.0000 1.0000
65.4500 685.0000 1.0000
65.4600 721.0000 1.0000
65.4700 738.0000 1.0000
65.4800 765.0000 1.0000
65.4900 767.0000 1.0000
65.5000 778.0000 1.0000
65.5100 789.0000 1.0000
65.5200 782.0000 1.0000
65.5300 719.0000 1.0000
65.5400 742.0000 1.0000
65.5500 754.0000 1.0000
65.5600 703.0000 1.0000
65.5700 700.0000 1.0000
65.5800 702.0000 1.0000
65.5900 694.0000 1.0000
65.6000 701.0000 1.0000
65.6100 720.0000 1.0000
65.6200 651.0000 1.0000
65.6300 656.0000 1.0000
65.6400 668.0000 1.0000
65.6500 619.0000 1.0000
65.6600 647.0000 1.0000
65.6700 649.0000 1.0000
65.6800 648.0000 1.0000
65.6900 587.0000 1.0000
65.7000 583.0000 1.0000
65.7100 567.0000 1.0000
65.7200 529.0000 1.0000
65.7300 545.0000 1.0000
65.7400 505.0000 1.0000
65.7500 473.0000 1.0000
65.7600 458.0000 1.0000
65.7700 515.0000 1.0000
65.7800 459.0000 1.0000
65.7900 441.0000 1.0000
65.8000 429.0000 1.0000
65.8100 427.0000 1.0000
65.8200 429.0000 1.0000
65.8300 421.0000 1.0000
65.8400 374.0000 1.0000
65.8500 354.0000 1.0000
65.8600 374.0000 1.0000
65.8700 347.0000 1.0000
65.8800 366.0000 1.0000
65.8900 383.0000 1.0000
65.9000 355.0000 1.0000
65.9100 313.0000 1.0000
65.9200 327.0000 1.0000
65.9300 323.0000 1.0000
65.9400 326.0000 1.0000
65.9500 300.0000 1.0000
65.9600 313.0000 1.0000
65.9700 291.0000 1.0000
65.9800 290.0000 1.0000
65.9900 270.0000 1.0000
66.0000 310.0000 1.0000
66.0100 298.0000 1.0000
66.0200 299.0000 1.0000
66.0300 283.0000 1.0000
66.0400 259.0000 1.0000
66.0500 258.0000 1.0000
66.0600 291.0000 1.0000
66.0700 267.0000 1.0000
66.0800 256.0000 1.0000
66.0900 259.0000 1.0000
66.1000 243.0000 1.0000
66.1100 250.0000 1.0000
66.1200 241.0000 1.0000
66.1300 258.0000 1.0000
66.1400 265.0000 1.0000
66.1500 255.0000 1.0000
66.1600 248.0000 1.0000
66.1700 261.0000 1.0000
66.1800 229.0000 1.0000
66.1900 250.0000 1.0000
66.2000 232.0000 1.0000
66.2100 239.0000 1.0000
66.2200 241.0000 1.0000
66.2300 259.0000 1.0000
66.2400 237.0000 1.0000
66.2500 236.0000 1.0000
66.2600 238.0000 1.0000
66.2700 256.0000 1.0000
66.2800 250.0000 1.0000
66.2900 254.0000 1.0000
66.3000 227.0000 1.0000
66.3100 251.0000 1.0000
66.3200 241.0000 1.0000
66.3300 236.0000 1.0000
66.3400 226.0000 1.0000
66.3500 239.0000 1.0000
66.3600 236.0000 1.0000
66.3700 215.0000 1.0000
66.3800 224.0000 1.0000
66.3900 249.0000 1.0000
66.4000 247.0000 1.0000
66.4100 245.0000 1.0000
66.4200 239.0000 1.0000
66.4300 231.0000 1.0000
66.4400 239.0000 1.0000
66.4500 249.0000 1.0000
66.4600 239.0000 1.0000
66.4700 238.0000 1.0000
66.4800 231.0000 1.0000
66.4900 190.0000 1.0000
66.5000 216.0000 1.0000
66.5100 227.0000 1.0000
66.5200 236.0000 1.0000
66.5300 237.0000 1.0000
66.5400 218.0000 1.0000
66.5500 215.0000 1.0000
66.5600 222.0000 1.0000
66.5700 250.0000 1.0000
66.5800 221.0000 1.0000
66.5900 215.0000 1.0000
66.6000 210.0000 1.0000
66.6100 228.0000 1.0000
66.6200 236.0000 1.0000
66.6300 222.0000 1.0000
66.6400 200.0000 1.0000
66.6500 198.0000 1.0000
66.6600 224.0000 1.0000
66.6700 229.0000 1.0000
66.6800 243.0000 1.0000
66.6900 220.0000 1.0000
66.7000 241.0000 1.0000
66.7100 230.0000 1.0000
66.7200 224.0000 1.0000
66.7300 237.0000 1.0000
66.7400 214.0000 1.0000
66.7500 208.0000 1.0000
66.7600 234.0000 1.0000
66.7700 257.0000 1.0000
66.7800 240.0000 1.0000
66.7900 242.0000 1.0000
66.8000 262.0000 1.0000
66.8100 225.0000 1.0000
66.8200 211.0000 1.0000
66.8300 222.0000 1.0000
66.8400 241.0000 1.0000
66.8500 231.0000 1.0000
66.8600 229.0000 1.0000
66.8700 221.0000 1.0000
66.8800 238.0000 1.0000
66.8900 226.0000 1.0000
66.9000 216.0000 1.0000
66.9100 217.0000 1.0000
66.9200 225.0000 1.0000
66.9300 227.0000 1.0000
66.9400 228.0000 1.0000
66.9500 228.0000 1.0000
66.9600 219.0000 1.0000
66.9700 203.0000 1.0000
66.9800 246.0000 1.0000
66.9900 248.0000 1.0000
67.0000 243.0000 1.0000
67.0100 241.0000 1.0000
67.0200 222.0000 1.0000
67.0300 225.0000 1.0000
67.0400 207.0000 1.0000
67.0500 216.0000 1.0000
67.0600 217.0000 1.0000
67.0700 202.0000 1.0000
67.0800 232.0000 1.0000
67.0900 232.0000 1.0000
67.1000 229.0000 1.0000
67.1100 236.0000 1.0000
67.1200 231.0000 1.0000
67.1300 207.0000 1.0000
67.1400 224.0000 1.0000
67.1500 212.0000 1.0000
67.1600 222.0000 1.0000
67.1700 206.0000 1.0000
67.1800 229.0000 1.0000
67.1900 239.0000 1.0000
67.2000 230.0000 1.0000
67.2100 226.0000 1.0000
67.2200 220.0000 1.0000
67.2300 232.0000 1.0000
67.2400 188.0000 1.0000
67.2500 211.0000 1.0000
67.2600 207.0000 1.0000
67.2700 198.0000 1.0000
67.2800 228.0000 1.0000
67.2900 213.0000 1.0000
67.3000 207.0000 1.0000
67.3100 191.0000 1.0000
67.3200 204.0000 1.0000
67.3300 216.0000 1.0000
67.3400 232.0000 1.0000
67.3500 231.0000 1.0000
67.3600 193.0000 1.0000
67.3700 217.0000 1.0000
67.3800 212.0000 1.0000
67.3900 190.0000 1.0000
67.4000 216.0000 1.0000
67.4100 216.0000 1.0000
67.4200 210.0000 1.0000
67.4300 194.0000 1.0000
67.4400 229.0000 1.0000
67.4500 210.0000 1.0000
67.4600 248.0000 1.0000
67.4700 213.0000 1.0000
67.4800 222.0000 1.0000
67.4900 217.0000 1.0000
67.5000 208.0000 1.0000
67.5100 221.0000 1.0000
67.5200 224.0000 1.0000
67.5300 234.0000 1.0000
67.5400 236.0000 1.0000
67.5500 223.0000 1.0000
67.5600 208.0000 1.0000
67.5700 203.0000 1.0000
67.5800 239.0000 1.0000
67.5900 236.0000 1.0000
67.6000 190.0000 1.0000
67.6100 214.0000 1.0000
67.6200 209.0000 1.0000
67.6300 195.0000 1.0000
67.6400 231.0000 1.0000
67.6500 238.0000 1.0000
67.6600 208.0000 1.0000
67.6700 205.0000 1.0000
67.6800 207.0000 1.0000
67.6900 208.0000 1.0000
67.7000 226.0000 1.0000
67.7100 224.0000 1.0000
67.7200 212.0000 1.0000
67.7300 194.0000 1.0000
67.7400 235.0000 1.0000
67.7500 232.0000 1.0000
67.7600 218.0000 1.0000
67.7700 221.0000 1.0000
67.7800 214.0000 1.0000
67.7900 197.0000 1.0000
67.8000 239.0000 1.0000
67.8100 214.0000 1.0000
67.8200 203.0000 1.0000
67.8300 220.0000 1.0000
67.8400 208.0000 1.0000
67.8500 210.0000 1.0000
67.8600 205.0000 1.0000
67.8700 202.0000 1.0000
67.8800 215.0000 1.0000
67.8900 225.0000 1.0000
67.9000 231.0000 1.0000
67.9100 230.0000 1.0000
67.9200 220.0000 1.0000
67.9300 205.0000 1.0000
67.9400 210.0000 1.0000
67.9500 206.0000 1.0000
67.9600 217.0000 1.0000
67.9700 227.0000 1.0000
67.9800 216.0000 1.0000
67.9900 200.0000 1.0000
68.0000 242.0000 1.0000
68.0100 239.0000 1.0000
68.0200 217.0000 1.0000
68.0300 204.0000 1.0000
68.0400 196.0000 1.0000
68.0500 191.0000 1.0000
68.0600 230.0000 1.0000
68.0700 219.0000 1.0000
68.0800 234.0000 1.0000
68.0900 216.0000 1.0000
68.1000 218.0000 1.0000
68.1100 182.0000 1.0000
68.1200 212.0000 1.0000
68.1300 209.0000 1.0000
68.1400 180.0000 1.0000
68.1500 244.0000 1.0000
68.1600 202.0000 1.0000
68.1700 212.0000 1.0000
68.1800 203.0000 1.0000
68.1900 261.0000 1.0000
68.2000 201.0000 1.0000
68.2100 224.0000 1.0000
68.2200 210.0000 1.0000
68.2300 210.0000 1.0000
68.2400 212.0000 1.0000
68.2500 212.0000 1.0000
68.2600 214.0000 1.0000
68.2700 226.0000 1.0000
68.2800 211.0000 1.0000
68.2900 226.0000 1.0000
68.3000 205.0000 1.0000
68.3100 203.0000 1.0000
68.3200 214.0000 1.0000
68.3300 194.0000 1.0000
68.3400 210.0000 1.0000
68.3500 239.0000 1.0000
68.3600 215.0000 1.0000
68.3700 207.0000 1.0000
68.3800 212.0000 1.0000
68.3900 190.0000 1.0000
68.4000 210.0000 1.0000
68.4100 219.0000 1.0000
68.4200 214.0000 1.0000
68.4300 203.0000 1.0000
68.4400 203.0000 1.0000
68.4500 212.0000 1.0000
68.4600 223.0000 1.0000
68.4700 206.0000 1.0000
68.4800 205.0000 1.0000
68.4900 225.0000 1.0000
68.5000 210.0000 1.0000
68.5100 215.0000 1.0000
68.5200 198.0000 1.0000
68.5300 222.0000 1.0000
68.5400 199.0000 1.0000
68.5500 171.0000 1.0000
68.5600 202.0000 1.0000
68.5700 227.0000 1.0000
68.5800 195.0000 1.0000
68.5900 197.0000 1.0000
68.6000 217.0000 1.0000
68.6100 203.0000 1.0000
68.6200 197.0000 1.0000
68.6300 213.0000 1.0000
68.6400 201.0000 1.0000
68.6500 196.0000 1.0000
68.6600 220.0000 1.0000
68.6700 199.0000 1.0000
68.6800 192.0000 1.0000
68.6900 214.0000 1.0000
68.7000 211.0000 1.0000
68.7100 214.0000 1.0000
68.7200 214.0000 1.0000
68.7300 195.0000 1.0000
68.7400 218.0000 1.0000
68.7500 208.0000 1.0000
68.7600 211.0000 1.0000
68.7700 211.0000 1.0000
68.7800 214.0000 1.0000
68.7900 201.0000 1.0000
68.8000 229.0000 1.0000
68.8100 203.0000 1.0000
68.8200 206.0000 1.0000
68.8300 229.0000 1.0000
68.8400 226.0000 1.0000
68.8500 200.0000 1.0000
68.8600 224.0000 1.0000
68.8700 192.0000 1.0000
68.8800 200.0000 1.0000
68.8900 199.0000 1.0000
68.9000 212.0000 1.0000
68.9100 234.0000 1.0000
68.9200 220.0000 1.0000
68.9300 230.0000 1.0000
68.9400 182.0000 1.0000
68.9500 195.0000 1.0000
68.9600 214.0000 1.0000
68.9700 215.0000 1.0000
68.9800 189.0000 1.0000
68.9900 211.0000 1.0000
69.0000 221.0000 1.0000
69.0100 208.0000 1.0000
69.0200 215.0000 1.0000
69.0300 251.0000 1.0000
69.0400 207.0000 1.0000
69.0500 190.0000 1.0000
69.0600 220.0000 1.0000
69.0700 214.0000 1.0000
69.0800 217.0000 1.0000
69.0900 220.0000 1.0000
69.1000 230.0000 1.0000
69.1100 205.0000 1.0000
69.1200 196.0000 1.0000
69.1300 205.0000 1.0000
69.1400 219.0000 1.0000
69.1500 204.0000 1.0000
69.1600 226.0000 1.0000
69.1700 194.0000 1.0000
69.1800 208.0000 1.0000
69.1900 209.0000 1.0000
69.2000 231.0000 1.0000
69.2100 216.0000 1.0000
69.2200 212.0000 1.0000
69.2300 220.0000 1.0000
69.2400 193.0000 1.0000
69.2500 208.0000 1.0000
69.2600 206.0000 1.0000
69.2700 205.0000 1.0000
69.2800 209.0000 1.0000
69.2900 205.0000 1.0000
69.3000 195.0000 1.0000
69.3100 213.0000 1.0000
69.3200 207.0000 1.0000
69.3300 197.0000 1.0000
69.3400 212.0000 1.0000
69.3500 220.0000 1.0000
69.3600 201.0000 1.0000
69.3700 214.0000 1.0000
69.3800 207.0000 1.0000
69.3900 217.0000 1.0000
69.4000 210.0000 1.0000
69.4100 199.0000 1.0000
69.4200 203.0000 1.0000
69.4300 215.0000 1.0000
69.4400 196.0000 1.0000
69.4500 210.0000 1.0000
69.4600 198.0000 1.0000
69.4700 180.0000 1.0000
69.4800 215.0000 1.0000
69.4900 191.0000 1.0000
69.5000 219.0000 1.0000
69.5100 222.0000 1.0000
69.5200 202.0000 1.0000
69.5300 196.0000 1.0000
69.5400 218.0000 1.0000
69.5500 182.0000 1.0000
69.5600 201.0000 1.0000
69.5700 202.0000 1.0000
69.5800 185.0000 1.0000
69.5900 217.0000 1.0000
69.6000 210.0000 1.0000
69.6100 200.0000 1.0000
69.6200 211.0000 1.0000
69.6300 219.0000 1.0000
69.6400 206.0000 1.0000
69.6500 198.0000 1.0000
69.6600 203.0000 1.0000
69.6700 200.0000 1.0000
69.6800 200.0000 1.0000
69.6900 206.0000 1.0000
69.7000 191.0000 1.0000
69.7100 188.0000 1.0000
69.7200 207.0000 1.0000
69.7300 189.0000 1.0000
69.7400 209.0000 1.0000
69.7500 199.0000 1.0000
69.7600 187.0000 1.0000
69.7700 200.0000 1.0000
69.7800 196.0000 1.0000
69.7900 220.0000 1.0000
69.8000 187.0000 1.0000
69.8100 221.0000 1.0000
69.8200 208.0000 1.0000
69.8300 195.0000 1.0000
69.8400 192.0000 1.0000
69.8500 200.0000 1.0000
69.8600 192.0000 1.0000
69.8700 182.0000 1.0000
69.8800 193.0000 1.0000
69.8900 208.0000 1.0000
69.9000 208.0000 1.0000
69.9100 192.0000 1.0000
69.9200 185.0000 1.0000
69.9300 197.0000 1.0000
69.9400 205.0000 1.0000
69.9500 198.0000 1.0000
69.9600 185.0000 1.0000
69.9700 178.0000 1.0000
69.9800 199.0000 1.0000
69.9900 204.0000 1.0000
70.0000 201.0000 1.0000
*RAS_INT_END
*RAS_TEMPERATURE_START
*RAS_TEMPERATURE_END
*RAS_DATA_END
