*RAS_DATA_START
*RAS_HEADER_START
*DISP_FMT_X "%.2f"
*DISP_FMT_Y "%.0f"
*DISP_FULLSCALE "15230.0000000000"
*DISP_LINE_COLOR "255.0000000000"
*DISP_LINE_STYLE "0.0000000000"
*DISP_LINE_WIDTH "0.2500000000"
*DISP_NOTE "測定データ-5"
*DISP_OFFSET_Y "0.0000000000"
*DISP_PEAKSEARCH_UNIT_Y "cps"
*DISP_RANGE_BOTTOM "0.0000000000"
*DISP_RANGE_LEFT "20.0000000000"
*DISP_RANGE_LOGCUTOFF "0.0100000000"
*DISP_RANGE_RIGHT "70.0000000000"
*DISP_RANGE_TOP "15230.0000000000"
*DISP_SCALE_MODE_Y "0.0000000000"
*DISP_TAB_NAME "2θ/θ"
*DISP_TITLE_Y "強度"
*DISP_UNIT_Y "cps"
*DISP_WINDOW_NAME "MSG_MACROENGINE"
*FILE_COMMENT " "
*FILE_MD5 ""
*FILE_MEMO " "
*FILE_OPERATOR "Administrator"
*FILE_SAMPLE " "
*FILE_TYPE "RAS_RAW"
*FILE_USERGROUP "システムマネージャ"
*FILE_VERSION "1.0000000000"
*HW_ATTACHMENT_ID "ATT0025"
*HW_ATTACHMENT_NAME "標準|Standard"
*HW_COUNTER_ID-0 "CUT0025"
*HW_COUNTER_ID-1 "CUT0020"
*HW_COUNTER_ID-2 "CUT0020"
*HW_COUNTER_ID-3 "CSL0021"
*HW_COUNTER_ID-4 "CMC0021"
*HW_COUNTER_NAME-0 "D/teX Ultra|D/teX Ultra"
*HW_COUNTER_NAME-1 "None|None"
*HW_COUNTER_NAME-2 "None|None"
*HW_COUNTER_NAME-3 "BBM|BBM"
*HW_COUNTER_NAME-4 "検出器モノクロメータ|Detector monochromator"
*HW_COUNTER_SELECT_NAME "D/teX Ultra|D/teX Ultra"
*HW_GONIOMETER_ID "GON0023"
*HW_GONIOMETER_NAME "SmartLab|SmartLab"
*HW_GONIOMETER_RADIUS-0 "90.0"
*HW_GONIOMETER_RADIUS-1 "114.0"
*HW_GONIOMETER_RADIUS-2 "190.0"
*HW_GONIOMETER_RADIUS-3 "300.0"
*HW_GONIOMETER_RADIUS-4 "187.0"
*HW_GONIOMETER_RADIUS-5 "300.0"
*HW_GONIOMETER_RADIUS-6 "113.0"
*HW_GONIOMETER_RADIUS-7 "331.0"
*HW_I_OPT_ID-0 "CBO0021"
*HW_I_OPT_ID-1 "ICR0023"
*HW_I_OPT_ID-2 "ISL0021"
*HW_I_OPT_ID-3 "ISO0021"
*HW_I_OPT_ID-4 "IAD0021"
*HW_I_OPT_ID-5 "IPR0001"
*HW_I_OPT_NAME-0 "CBOユニット|CBO unit"
*HW_I_OPT_NAME-1 "標準入射光学ユニット|Standard incident optical unit"
*HW_I_OPT_NAME-2 "標準入射スリットボックス|Standard incident slit box"
*HW_I_OPT_NAME-3 "入射平行スリット|Incident parallel slit"
*HW_I_OPT_NAME-4 "長手制限スリット|Length limiting slit"
*HW_I_OPT_NAME-5 "None|None"
*HW_R_ATTENUATER_AUTOMODE "0"
*HW_R_OPT_ID-0 "RSS0021"
*HW_R_OPT_ID-1 "RCR0023"
*HW_R_OPT_ID-2 "RSO0021"
*HW_R_OPT_ID-3 "RRS0021"
*HW_R_OPT_ID-4 "ATN0021"
*HW_R_OPT_ID-5 "RFL0021"
*HW_R_OPT_ID-6 "RAD0021"
*HW_R_OPT_NAME-0 "標準受光スリットボックス1|Standard receiving slit box # 1"
*HW_R_OPT_NAME-1 "標準受光光学ユニット1|Standard receiving unit # 1"
*HW_R_OPT_NAME-2 "標準受光光学ユニット2|Standard receiving optical unit # 2"
*HW_R_OPT_NAME-3 "標準受光スリットボックス2|Standard receiving slit box # 2"
*HW_R_OPT_NAME-4 "標準アッテネータ|Standard Attenuator"
*HW_R_OPT_NAME-5 "Cu Kβ|Cu K-beta"
*HW_R_OPT_NAME-6 "調整用受光スリット|Alignment receiving slit"
*HW_SAMPLE_HOLDER_ID "SMP0023"
*HW_SAMPLE_HOLDER_NAME "標準Zステージ|Standard Z stage"
*HW_XG_CURRENT_MAX "50"
*HW_XG_CURRENT_MIN "2"
*HW_XG_CURRENT_RESOLUTION "1"
*HW_XG_CURRENT_UNIT "mA"
*HW_XG_FOCUS "1mm x 10mm"
*HW_XG_FOCUS_TYPE "Normal"
*HW_XG_ID ""
*HW_XG_NAME "3kW 封入管(ID:1200)|3kW Sealed tube(ID:1200)"
*HW_XG_TARGET_ATOMIC_NUMBER "29.0000000000"
*HW_XG_TARGET_NAME "Cu"
*HW_XG_TYPE "Hermetic"
*HW_XG_VOLTAGE_MAX "60"
*HW_XG_VOLTAGE_MIN "20"
*HW_XG_VOLTAGE_RESOLUTION "1"
*HW_XG_VOLTAGE_UNIT "kV"
*HW_XG_WATT_MAX "1.500"
*HW_XG_WATT_UNIT "kW"
*HW_XG_WAVE_LENGTH_ALPHA1 "1.540593"
*HW_XG_WAVE_LENGTH_ALPHA2 "1.544414"
*HW_XG_WAVE_LENGTH_BETA "1.392250"
*MEAS_COND_AXIS_NAME-0 "2θ/θ"
*MEAS_COND_AXIS_NAME-1 "2θ"
*MEAS_COND_AXIS_NAME-2 "ω"
*MEAS_COND_AXIS_NAME-3 "Z"
*MEAS_COND_AXIS_NAME-4 "2θ/ω"
*MEAS_COND_AXIS_NAME-5 "θs"
*MEAS_COND_AXIS_NAME-6 "θd"
*MEAS_COND_AXIS_NAME-7 "Ts"
*MEAS_COND_AXIS_NAME-8 "CBO選択スリット"
*MEAS_COND_AXIS_NAME-9 "M"
*MEAS_COND_AXIS_NAME-10 "入射平行スリット"
*MEAS_COND_AXIS_NAME-11 "入射スリット"
*MEAS_COND_AXIS_NAME-12 ""
*MEAS_COND_AXIS_NAME-13 "Zs"
*MEAS_COND_AXIS_NAME-14 "入射光学素子"
*MEAS_COND_AXIS_NAME-15 "長手制限スリット"
*MEAS_COND_AXIS_NAME-16 "センタースリット"
*MEAS_COND_AXIS_NAME-17 "フィルター"
*MEAS_COND_AXIS_NAME-18 "受光スリット1"
*MEAS_COND_AXIS_NAME-19 "受光スリット2"
*MEAS_COND_AXIS_NAME-20 "受光光学素子"
*MEAS_COND_AXIS_NAME-21 "受光平行スリット"
*MEAS_COND_AXIS_NAME-22 "調整用受光スリット"
*MEAS_COND_AXIS_NAME-23 ""
*MEAS_COND_AXIS_NAME-24 ""
*MEAS_COND_AXIS_NAME-25 "Zd"
*MEAS_COND_AXIS_NAME-26 "アッテネータ"
*MEAS_COND_AXIS_NAME-27 "検出器モノクロメータ"
*MEAS_COND_AXIS_NAME-28 "モノクロメータスリット"
*MEAS_COND_AXIS_NAME-29 "プライマリビーム"
*MEAS_COND_AXIS_NAME-30 "PHA"
*MEAS_COND_AXIS_NAME_INTERNAL-0 "TwoThetaTheta"
*MEAS_COND_AXIS_NAME_INTERNAL-1 "TwoTheta"
*MEAS_COND_AXIS_NAME_INTERNAL-2 "Omega"
*MEAS_COND_AXIS_NAME_INTERNAL-3 "Z"
*MEAS_COND_AXIS_NAME_INTERNAL-4 "TwoThetaOmega"
*MEAS_COND_AXIS_NAME_INTERNAL-5 "ThetaS"
*MEAS_COND_AXIS_NAME_INTERNAL-6 "ThetaD"
*MEAS_COND_AXIS_NAME_INTERNAL-7 "Ts"
*MEAS_COND_AXIS_NAME_INTERNAL-8 "CBO"
*MEAS_COND_AXIS_NAME_INTERNAL-9 "CBO-M"
*MEAS_COND_AXIS_NAME_INTERNAL-10 "IncidentSollerSlit"
*MEAS_COND_AXIS_NAME_INTERNAL-11 "IncidentSlitBox"
*MEAS_COND_AXIS_NAME_INTERNAL-12 "IncidentSlitBox-_Axis"
*MEAS_COND_AXIS_NAME_INTERNAL-13 "Zs"
*MEAS_COND_AXIS_NAME_INTERNAL-14 "IncidentMonochromator"
*MEAS_COND_AXIS_NAME_INTERNAL-15 "IncidentAxdSlit"
*MEAS_COND_AXIS_NAME_INTERNAL-16 "CenterSlit"
*MEAS_COND_AXIS_NAME_INTERNAL-17 "Filter"
*MEAS_COND_AXIS_NAME_INTERNAL-18 "ReceivingSlitBox1"
*MEAS_COND_AXIS_NAME_INTERNAL-19 "ReceivingSlitBox2"
*MEAS_COND_AXIS_NAME_INTERNAL-20 "ReceivingOptics"
*MEAS_COND_AXIS_NAME_INTERNAL-21 "ReceivingSollerSlit"
*MEAS_COND_AXIS_NAME_INTERNAL-22 "ReceivingAxdSlit"
*MEAS_COND_AXIS_NAME_INTERNAL-23 "ReceivingSlitBox1-_Axis"
*MEAS_COND_AXIS_NAME_INTERNAL-24 "ReceivingSlitBox2-_Axis"
*MEAS_COND_AXIS_NAME_INTERNAL-25 "ReceivingSlitBox2-Zd"
*MEAS_COND_AXIS_NAME_INTERNAL-26 "Attenuator"
*MEAS_COND_AXIS_NAME_INTERNAL-27 "CounterMonochromator"
*MEAS_COND_AXIS_NAME_INTERNAL-28 "CounterSlit"
*MEAS_COND_AXIS_NAME_INTERNAL-29 "IncidentPrimary"
*MEAS_COND_AXIS_NAME_INTERNAL-30 "PHA"
*MEAS_COND_AXIS_NAME_MAGICNO-0 "83951616.0000000000"
*MEAS_COND_AXIS_NAME_MAGICNO-1 "268632064.0000000000"
*MEAS_COND_AXIS_NAME_MAGICNO-2 "268500992.0000000000"
*MEAS_COND_AXIS_NAME_MAGICNO-3 "285278208.0000000000"
*MEAS_COND_AXIS_NAME_MAGICNO-4 "83951616.0000000000"
*MEAS_COND_AXIS_NAME_MAGICNO-5 "131072.0000000000"
*MEAS_COND_AXIS_NAME_MAGICNO-6 "131072.0000000000"
*MEAS_COND_AXIS_NAME_MAGICNO-7 "318898176.0000000000"
*MEAS_COND_AXIS_NAME_MAGICNO-8 "20971521.0000000000"
*MEAS_COND_AXIS_NAME_MAGICNO-9 "285343744.0000000000"
*MEAS_COND_AXIS_NAME_MAGICNO-10 "20971521.0000000000"
*MEAS_COND_AXIS_NAME_MAGICNO-11 "22020097.0000000000"
*MEAS_COND_AXIS_NAME_MAGICNO-12 "25165824.0000000000"
*MEAS_COND_AXIS_NAME_MAGICNO-13 "318898176.0000000000"
*MEAS_COND_AXIS_NAME_MAGICNO-14 "1.0000000000"
*MEAS_COND_AXIS_NAME_MAGICNO-15 "20971521.0000000000"
*MEAS_COND_AXIS_NAME_MAGICNO-16 "20971521.0000000000"
*MEAS_COND_AXIS_NAME_MAGICNO-17 "20971521.0000000000"
*MEAS_COND_AXIS_NAME_MAGICNO-18 "23068673.0000000000"
*MEAS_COND_AXIS_NAME_MAGICNO-19 "23068673.0000000000"
*MEAS_COND_AXIS_NAME_MAGICNO-20 "20971521.0000000000"
*MEAS_COND_AXIS_NAME_MAGICNO-21 "20971521.0000000000"
*MEAS_COND_AXIS_NAME_MAGICNO-22 "20971521.0000000000"
*MEAS_COND_AXIS_NAME_MAGICNO-23 "25165824.0000000000"
*MEAS_COND_AXIS_NAME_MAGICNO-24 "25165824.0000000000"
*MEAS_COND_AXIS_NAME_MAGICNO-25 "285343744.0000000000"
*MEAS_COND_AXIS_NAME_MAGICNO-26 "17301505.0000000000"
*MEAS_COND_AXIS_NAME_MAGICNO-27 "20971521.0000000000"
*MEAS_COND_AXIS_NAME_MAGICNO-28 "20971521.0000000000"
*MEAS_COND_AXIS_NAME_MAGICNO-29 "20971521.0000000000"
*MEAS_COND_AXIS_NAME_MAGICNO-30 "0.0000000000"
*MEAS_COND_AXIS_OFFSET-0 "-"
*MEAS_COND_AXIS_OFFSET-1 "-0.0310000000"
*MEAS_COND_AXIS_OFFSET-2 "0.3957000000"
*MEAS_COND_AXIS_OFFSET-3 "-"
*MEAS_COND_AXIS_OFFSET-4 "-"
*MEAS_COND_AXIS_OFFSET-5 "0.3957000000"
*MEAS_COND_AXIS_OFFSET-6 "-0.4267000000"
*MEAS_COND_AXIS_OFFSET-7 "-"
*MEAS_COND_AXIS_OFFSET-8 "-"
*MEAS_COND_AXIS_OFFSET-9 "-"
*MEAS_COND_AXIS_OFFSET-10 "-"
*MEAS_COND_AXIS_OFFSET-11 "-"
*MEAS_COND_AXIS_OFFSET-12 "-"
*MEAS_COND_AXIS_OFFSET-13 "-"
*MEAS_COND_AXIS_OFFSET-14 "-"
*MEAS_COND_AXIS_OFFSET-15 "-"
*MEAS_COND_AXIS_OFFSET-16 "-"
*MEAS_COND_AXIS_OFFSET-17 "-"
*MEAS_COND_AXIS_OFFSET-18 "-"
*MEAS_COND_AXIS_OFFSET-19 "-"
*MEAS_COND_AXIS_OFFSET-20 "-"
*MEAS_COND_AXIS_OFFSET-21 "-"
*MEAS_COND_AXIS_OFFSET-22 "-"
*MEAS_COND_AXIS_OFFSET-23 "-"
*MEAS_COND_AXIS_OFFSET-24 "-"
*MEAS_COND_AXIS_OFFSET-25 "-"
*MEAS_COND_AXIS_OFFSET-26 "-"
*MEAS_COND_AXIS_OFFSET-27 "-"
*MEAS_COND_AXIS_OFFSET-28 "-"
*MEAS_COND_AXIS_OFFSET-29 "-"
*MEAS_COND_AXIS_OFFSET-30 "-"
*MEAS_COND_AXIS_POSITION-0 "0.0000000000"
*MEAS_COND_AXIS_POSITION-1 "0.0000000000"
*MEAS_COND_AXIS_POSITION-2 "0.0000000000"
*MEAS_COND_AXIS_POSITION-3 "-2.8588600000"
*MEAS_COND_AXIS_POSITION-4 "0.0000000000"
*MEAS_COND_AXIS_POSITION-5 "0.0000000000"
*MEAS_COND_AXIS_POSITION-6 "0.0000000000"
*MEAS_COND_AXIS_POSITION-7 "-0.7498700000"
*MEAS_COND_AXIS_POSITION-8 "BB"
*MEAS_COND_AXIS_POSITION-9 "0.0000000000"
*MEAS_COND_AXIS_POSITION-10 "Soller_slit_5.0deg"
*MEAS_COND_AXIS_POSITION-11 "2/3deg"
*MEAS_COND_AXIS_POSITION-12 "2.2088000000"
*MEAS_COND_AXIS_POSITION-13 "-0.6412500000"
*MEAS_COND_AXIS_POSITION-14 "0.0000000000"
*MEAS_COND_AXIS_POSITION-15 "10.0mm"
*MEAS_COND_AXIS_POSITION-16 "None"
*MEAS_COND_AXIS_POSITION-17 "Cu_K-beta"
*MEAS_COND_AXIS_POSITION-18 "13.000mm"
*MEAS_COND_AXIS_POSITION-19 "13.000mm"
*MEAS_COND_AXIS_POSITION-20 "No_unit"
*MEAS_COND_AXIS_POSITION-21 "Soller_slit_5.0deg"
*MEAS_COND_AXIS_POSITION-22 "None"
*MEAS_COND_AXIS_POSITION-23 "13.0000000000"
*MEAS_COND_AXIS_POSITION-24 "13.0000000000"
*MEAS_COND_AXIS_POSITION-25 "0.0281300000"
*MEAS_COND_AXIS_POSITION-26 "Open"
*MEAS_COND_AXIS_POSITION-27 "None"
*MEAS_COND_AXIS_POSITION-28 "None"
*MEAS_COND_AXIS_POSITION-29 "None"
*MEAS_COND_AXIS_POSITION-30 "38.0000000000"
*MEAS_COND_AXIS_UNIT-0 "deg"
*MEAS_COND_AXIS_UNIT-1 "deg"
*MEAS_COND_AXIS_UNIT-2 "deg"
*MEAS_COND_AXIS_UNIT-3 "mm"
*MEAS_COND_AXIS_UNIT-4 "deg"
*MEAS_COND_AXIS_UNIT-5 "deg"
*MEAS_COND_AXIS_UNIT-6 "deg"
*MEAS_COND_AXIS_UNIT-7 "mm"
*MEAS_COND_AXIS_UNIT-8 ""
*MEAS_COND_AXIS_UNIT-9 "pulse"
*MEAS_COND_AXIS_UNIT-10 ""
*MEAS_COND_AXIS_UNIT-11 ""
*MEAS_COND_AXIS_UNIT-12 "mm"
*MEAS_COND_AXIS_UNIT-13 "mm"
*MEAS_COND_AXIS_UNIT-14 ""
*MEAS_COND_AXIS_UNIT-15 ""
*MEAS_COND_AXIS_UNIT-16 ""
*MEAS_COND_AXIS_UNIT-17 ""
*MEAS_COND_AXIS_UNIT-18 ""
*MEAS_COND_AXIS_UNIT-19 ""
*MEAS_COND_AXIS_UNIT-20 ""
*MEAS_COND_AXIS_UNIT-21 ""
*MEAS_COND_AXIS_UNIT-22 ""
*MEAS_COND_AXIS_UNIT-23 "mm"
*MEAS_COND_AXIS_UNIT-24 "mm"
*MEAS_COND_AXIS_UNIT-25 "mm"
*MEAS_COND_AXIS_UNIT-26 ""
*MEAS_COND_AXIS_UNIT-27 ""
*MEAS_COND_AXIS_UNIT-28 ""
*MEAS_COND_AXIS_UNIT-29 ""
*MEAS_COND_AXIS_UNIT-30 "div"
*MEAS_COND_COUNTER_CNTLOSS_CORR "0.0000000000"
*MEAS_COND_COUNTER_PHABASE "38.0000000000"
*MEAS_COND_COUNTER_PHAWINDOW "16.0000000000"
*MEAS_COND_COUNTER_PHA_UNIT "div"
*MEAS_COND_COUNTER_TAUDIFF "30.0000000000"
*MEAS_COND_COUNTER_TAUINT "0.0000000000"
*MEAS_COND_IRRADIATION_MODE "OFF"
*MEAS_COND_IRRADIATION_WIDTH ""
*MEAS_COND_OPT_ATTR "集中法"
*MEAS_COND_OPT_NAME "@集中法"
*MEAS_COND_UNSYMMETRIC_MODE "OFF"
*MEAS_COND_XG_CURRENT "30.0000000000"
*MEAS_COND_XG_VOLTAGE "40.0000000000"
*MEAS_COND_XG_WAVE_TYPE "Ka"
*MEAS_DATA_COUNT "5001.0000000000"
*MEAS_SCAN_AXIS_X "2θ/θ"
*MEAS_SCAN_AXIS_X_INTERNAL "TwoThetaTheta"
*MEAS_SCAN_END_TIME "01/29/24 12:27:01"
*MEAS_SCAN_MODE "CONTINUOUS"
*MEAS_SCAN_MONITOR "0"
*MEAS_SCAN_RESOLUTION_X "0.0002"
*MEAS_SCAN_SPEED "2.5"
*MEAS_SCAN_SPEED_UNIT "deg/min"
*MEAS_SCAN_START "20.0000000000"
*MEAS_SCAN_START_TIME "01/29/24 12:05:37"
*MEAS_SCAN_STEP "0.0100000000"
*MEAS_SCAN_STOP "70.0000000000"
*MEAS_SCAN_UNIT_X "deg"
*MEAS_SCAN_UNIT_Y "counts"
*RAS_HEADER_END
*RAS_INT_START
20.0000 820.0000 1.0000
20.0100 760.0000 1.0000
20.0200 776.0000 1.0000
20.0300 734.0000 1.0000
20.0400 785.0000 1.0000
20.0500 743.0000 1.0000
20.0600 732.0000 1.0000
20.0700 753.0000 1.0000
20.0800 724.0000 1.0000
20.0900 695.0000 1.0000
20.1000 730.0000 1.0000
20.1100 755.0000 1.0000
20.1200 752.0000 1.0000
20.1300 711.0000 1.0000
20.1400 753.0000 1.0000
20.1500 746.0000 1.0000
20.1600 746.0000 1.0000
20.1700 762.0000 1.0000
20.1800 770.0000 1.0000
20.1900 741.0000 1.0000
20.2000 762.0000 1.0000
20.2100 753.0000 1.0000
20.2200 760.0000 1.0000
20.2300 723.0000 1.0000
20.2400 740.0000 1.0000
20.2500 749.0000 1.0000
20.2600 710.0000 1.0000
20.2700 758.0000 1.0000
20.2800 742.0000 1.0000
20.2900 775.0000 1.0000
20.3000 768.0000 1.0000
20.3100 750.0000 1.0000
20.3200 749.0000 1.0000
20.3300 764.0000 1.0000
20.3400 740.0000 1.0000
20.3500 734.0000 1.0000
20.3600 738.0000 1.0000
20.3700 746.0000 1.0000
20.3800 745.0000 1.0000
20.3900 776.0000 1.0000
20.4000 762.0000 1.0000
20.4100 733.0000 1.0000
20.4200 735.0000 1.0000
20.4300 730.0000 1.0000
20.4400 796.0000 1.0000
20.4500 758.0000 1.0000
20.4600 719.0000 1.0000
20.4700 764.0000 1.0000
20.4800 730.0000 1.0000
20.4900 739.0000 1.0000
20.5000 735.0000 1.0000
20.5100 756.0000 1.0000
20.5200 746.0000 1.0000
20.5300 744.0000 1.0000
20.5400 733.0000 1.0000
20.5500 727.0000 1.0000
20.5600 705.0000 1.0000
20.5700 726.0000 1.0000
20.5800 708.0000 1.0000
20.5900 715.0000 1.0000
20.6000 734.0000 1.0000
20.6100 747.0000 1.0000
20.6200 745.0000 1.0000
20.6300 735.0000 1.0000
20.6400 794.0000 1.0000
20.6500 760.0000 1.0000
20.6600 733.0000 1.0000
20.6700 758.0000 1.0000
20.6800 774.0000 1.0000
20.6900 764.0000 1.0000
20.7000 757.0000 1.0000
20.7100 721.0000 1.0000
20.7200 675.0000 1.0000
20.7300 748.0000 1.0000
20.7400 758.0000 1.0000
20.7500 723.0000 1.0000
20.7600 763.0000 1.0000
20.7700 709.0000 1.0000
20.7800 753.0000 1.0000
20.7900 773.0000 1.0000
20.8000 757.0000 1.0000
20.8100 742.0000 1.0000
20.8200 737.0000 1.0000
20.8300 742.0000 1.0000
20.8400 715.0000 1.0000
20.8500 745.0000 1.0000
20.8600 759.0000 1.0000
20.8700 716.0000 1.0000
20.8800 689.0000 1.0000
20.8900 743.0000 1.0000
20.9000 726.0000 1.0000
20.9100 759.0000 1.0000
20.9200 789.0000 1.0000
20.9300 737.0000 1.0000
20.9400 748.0000 1.0000
20.9500 709.0000 1.0000
20.9600 743.0000 1.0000
20.9700 764.0000 1.0000
20.9800 795.0000 1.0000
20.9900 745.0000 1.0000
21.0000 718.0000 1.0000
21.0100 697.0000 1.0000
21.0200 737.0000 1.0000
21.0300 731.0000 1.0000
21.0400 731.0000 1.0000
21.0500 773.0000 1.0000
21.0600 761.0000 1.0000
21.0700 741.0000 1.0000
21.0800 752.0000 1.0000
21.0900 723.0000 1.0000
21.1000 747.0000 1.0000
21.1100 731.0000 1.0000
21.1200 721.0000 1.0000
21.1300 787.0000 1.0000
21.1400 755.0000 1.0000
21.1500 734.0000 1.0000
21.1600 713.0000 1.0000
21.1700 753.0000 1.0000
21.1800 730.0000 1.0000
21.1900 758.0000 1.0000
21.2000 717.0000 1.0000
21.2100 724.0000 1.0000
21.2200 726.0000 1.0000
21.2300 722.0000 1.0000
21.2400 722.0000 1.0000
21.2500 737.0000 1.0000
21.2600 707.0000 1.0000
21.2700 717.0000 1.0000
21.2800 784.0000 1.0000
21.2900 761.0000 1.0000
21.3000 688.0000 1.0000
21.3100 745.0000 1.0000
21.3200 719.0000 1.0000
21.3300 712.0000 1.0000
21.3400 748.0000 1.0000
21.3500 772.0000 1.0000
21.3600 738.0000 1.0000
21.3700 685.0000 1.0000
21.3800 723.0000 1.0000
21.3900 733.0000 1.0000
21.4000 745.0000 1.0000
21.4100 741.0000 1.0000
21.4200 741.0000 1.0000
21.4300 718.0000 1.0000
21.4400 740.0000 1.0000
21.4500 765.0000 1.0000
21.4600 748.0000 1.0000
21.4700 696.0000 1.0000
21.4800 711.0000 1.0000
21.4900 699.0000 1.0000
21.5000 752.0000 1.0000
21.5100 723.0000 1.0000
21.5200 732.0000 1.0000
21.5300 748.0000 1.0000
21.5400 772.0000 1.0000
21.5500 761.0000 1.0000
21.5600 754.0000 1.0000
21.5700 712.0000 1.0000
21.5800 723.0000 1.0000
21.5900 691.0000 1.0000
21.6000 759.0000 1.0000
21.6100 719.0000 1.0000
21.6200 726.0000 1.0000
21.6300 716.0000 1.0000
21.6400 719.0000 1.0000
21.6500 758.0000 1.0000
21.6600 726.0000 1.0000
21.6700 712.0000 1.0000
21.6800 766.0000 1.0000
21.6900 769.0000 1.0000
21.7000 791.0000 1.0000
21.7100 720.0000 1.0000
21.7200 735.0000 1.0000
21.7300 770.0000 1.0000
21.7400 709.0000 1.0000
21.7500 729.0000 1.0000
21.7600 748.0000 1.0000
21.7700 693.0000 1.0000
21.7800 714.0000 1.0000
21.7900 713.0000 1.0000
21.8000 745.0000 1.0000
21.8100 757.0000 1.0000
21.8200 729.0000 1.0000
21.8300 718.0000 1.0000
21.8400 709.0000 1.0000
21.8500 722.0000 1.0000
21.8600 725.0000 1.0000
21.8700 748.0000 1.0000
21.8800 748.0000 1.0000
21.8900 756.0000 1.0000
21.9000 702.0000 1.0000
21.9100 740.0000 1.0000
21.9200 743.0000 1.0000
21.9300 725.0000 1.0000
21.9400 742.0000 1.0000
21.9500 719.0000 1.0000
21.9600 743.0000 1.0000
21.9700 753.0000 1.0000
21.9800 720.0000 1.0000
21.9900 736.0000 1.0000
22.0000 777.0000 1.0000
22.0100 733.0000 1.0000
22.0200 713.0000 1.0000
22.0300 721.0000 1.0000
22.0400 746.0000 1.0000
22.0500 726.0000 1.0000
22.0600 737.0000 1.0000
22.0700 720.0000 1.0000
22.0800 703.0000 1.0000
22.0900 675.0000 1.0000
22.1000 680.0000 1.0000
22.1100 719.0000 1.0000
22.1200 734.0000 1.0000
22.1300 750.0000 1.0000
22.1400 716.0000 1.0000
22.1500 722.0000 1.0000
22.1600 704.0000 1.0000
22.1700 732.0000 1.0000
22.1800 709.0000 1.0000
22.1900 735.0000 1.0000
22.2000 743.0000 1.0000
22.2100 775.0000 1.0000
22.2200 749.0000 1.0000
22.2300 723.0000 1.0000
22.2400 712.0000 1.0000
22.2500 769.0000 1.0000
22.2600 728.0000 1.0000
22.2700 761.0000 1.0000
22.2800 732.0000 1.0000
22.2900 701.0000 1.0000
22.3000 733.0000 1.0000
22.3100 719.0000 1.0000
22.3200 749.0000 1.0000
22.3300 728.0000 1.0000
22.3400 716.0000 1.0000
22.3500 737.0000 1.0000
22.3600 740.0000 1.0000
22.3700 752.0000 1.0000
22.3800 719.0000 1.0000
22.3900 754.0000 1.0000
22.4000 753.0000 1.0000
22.4100 774.0000 1.0000
22.4200 719.0000 1.0000
22.4300 695.0000 1.0000
22.4400 731.0000 1.0000
22.4500 699.0000 1.0000
22.4600 695.0000 1.0000
22.4700 678.0000 1.0000
22.4800 711.0000 1.0000
22.4900 741.0000 1.0000
22.5000 705.0000 1.0000
22.5100 731.0000 1.0000
22.5200 713.0000 1.0000
22.5300 721.0000 1.0000
22.5400 715.0000 1.0000
22.5500 679.0000 1.0000
22.5600 692.0000 1.0000
22.5700 732.0000 1.0000
22.5800 700.0000 1.0000
22.5900 747.0000 1.0000
22.6000 717.0000 1.0000
22.6100 715.0000 1.0000
22.6200 683.0000 1.0000
22.6300 693.0000 1.0000
22.6400 678.0000 1.0000
22.6500 783.0000 1.0000
22.6600 716.0000 1.0000
22.6700 705.0000 1.0000
22.6800 668.0000 1.0000
22.6900 715.0000 1.0000
22.7000 730.0000 1.0000
22.7100 745.0000 1.0000
22.7200 735.0000 1.0000
22.7300 728.0000 1.0000
22.7400 711.0000 1.0000
22.7500 701.0000 1.0000
22.7600 724.0000 1.0000
22.7700 722.0000 1.0000
22.7800 697.0000 1.0000
22.7900 715.0000 1.0000
22.8000 676.0000 1.0000
22.8100 700.0000 1.0000
22.8200 754.0000 1.0000
22.8300 718.0000 1.0000
22.8400 724.0000 1.0000
22.8500 762.0000 1.0000
22.8600 723.0000 1.0000
22.8700 724.0000 1.0000
22.8800 750.0000 1.0000
22.8900 687.0000 1.0000
22.9000 738.0000 1.0000
22.9100 707.0000 1.0000
22.9200 748.0000 1.0000
22.9300 714.0000 1.0000
22.9400 708.0000 1.0000
22.9500 775.0000 1.0000
22.9600 688.0000 1.0000
22.9700 673.0000 1.0000
22.9800 724.0000 1.0000
22.9900 718.0000 1.0000
23.0000 691.0000 1.0000
23.0100 730.0000 1.0000
23.0200 759.0000 1.0000
23.0300 766.0000 1.0000
23.0400 697.0000 1.0000
23.0500 709.0000 1.0000
23.0600 719.0000 1.0000
23.0700 698.0000 1.0000
23.0800 679.0000 1.0000
23.0900 719.0000 1.0000
23.1000 693.0000 1.0000
23.1100 745.0000 1.0000
23.1200 758.0000 1.0000
23.1300 749.0000 1.0000
23.1400 681.0000 1.0000
23.1500 694.0000 1.0000
23.1600 708.0000 1.0000
23.1700 714.0000 1.0000
23.1800 726.0000 1.0000
23.1900 705.0000 1.0000
23.2000 712.0000 1.0000
23.2100 713.0000 1.0000
23.2200 722.0000 1.0000
23.2300 674.0000 1.0000
23.2400 689.0000 1.0000
23.2500 708.0000 1.0000
23.2600 719.0000 1.0000
23.2700 744.0000 1.0000
23.2800 730.0000 1.0000
23.2900 733.0000 1.0000
23.3000 698.0000 1.0000
23.3100 688.0000 1.0000
23.3200 714.0000 1.0000
23.3300 773.0000 1.0000
23.3400 695.0000 1.0000
23.3500 708.0000 1.0000
23.3600 721.0000 1.0000
23.3700 686.0000 1.0000
23.3800 721.0000 1.0000
23.3900 739.0000 1.0000
23.4000 705.0000 1.0000
23.4100 728.0000 1.0000
23.4200 722.0000 1.0000
23.4300 684.0000 1.0000
23.4400 703.0000 1.0000
23.4500 737.0000 1.0000
23.4600 763.0000 1.0000
23.4700 744.0000 1.0000
23.4800 691.0000 1.0000
23.4900 691.0000 1.0000
23.5000 701.0000 1.0000
23.5100 668.0000 1.0000
23.5200 712.0000 1.0000
23.5300 702.0000 1.0000
23.5400 712.0000 1.0000
23.5500 738.0000 1.0000
23.5600 692.0000 1.0000
23.5700 710.0000 1.0000
23.5800 728.0000 1.0000
23.5900 744.0000 1.0000
23.6000 683.0000 1.0000
23.6100 751.0000 1.0000
23.6200 680.0000 1.0000
23.6300 715.0000 1.0000
23.6400 737.0000 1.0000
23.6500 720.0000 1.0000
23.6600 708.0000 1.0000
23.6700 683.0000 1.0000
23.6800 699.0000 1.0000
23.6900 710.0000 1.0000
23.7000 693.0000 1.0000
23.7100 739.0000 1.0000
23.7200 725.0000 1.0000
23.7300 691.0000 1.0000
23.7400 733.0000 1.0000
23.7500 703.0000 1.0000
23.7600 715.0000 1.0000
23.7700 737.0000 1.0000
23.7800 724.0000 1.0000
23.7900 696.0000 1.0000
23.8000 710.0000 1.0000
23.8100 731.0000 1.0000
23.8200 720.0000 1.0000
23.8300 716.0000 1.0000
23.8400 690.0000 1.0000
23.8500 706.0000 1.0000
23.8600 667.0000 1.0000
23.8700 713.0000 1.0000
23.8800 700.0000 1.0000
23.8900 770.0000 1.0000
23.9000 789.0000 1.0000
23.9100 733.0000 1.0000
23.9200 736.0000 1.0000
23.9300 741.0000 1.0000
23.9400 758.0000 1.0000
23.9500 705.0000 1.0000
23.9600 746.0000 1.0000
23.9700 740.0000 1.0000
23.9800 754.0000 1.0000
23.9900 714.0000 1.0000
24.0000 747.0000 1.0000
24.0100 763.0000 1.0000
24.0200 756.0000 1.0000
24.0300 794.0000 1.0000
24.0400 813.0000 1.0000
24.0500 757.0000 1.0000
24.0600 772.0000 1.0000
24.0700 809.0000 1.0000
24.0800 735.0000 1.0000
24.0900 828.0000 1.0000
24.1000 814.0000 1.0000
24.1100 769.0000 1.0000
24.1200 792.0000 1.0000
24.1300 758.0000 1.0000
24.1400 773.0000 1.0000
24.1500 811.0000 1.0000
24.1600 772.0000 1.0000
24.1700 722.0000 1.0000
24.1800 743.0000 1.0000
24.1900 754.0000 1.0000
24.2000 726.0000 1.0000
24.2100 728.0000 1.0000
24.2200 733.0000 1.0000
24.2300 748.0000 1.0000
24.2400 707.0000 1.0000
24.2500 720.0000 1.0000
24.2600 775.0000 1.0000
24.2700 703.0000 1.0000
24.2800 711.0000 1.0000
24.2900 679.0000 1.0000
24.3000 731.0000 1.0000
24.3100 776.0000 1.0000
24.3200 725.0000 1.0000
24.3300 692.0000 1.0000
24.3400 717.0000 1.0000
24.3500 740.0000 1.0000
24.3600 698.0000 1.0000
24.3700 760.0000 1.0000
24.3800 715.0000 1.0000
24.3900 704.0000 1.0000
24.4000 719.0000 1.0000
24.4100 700.0000 1.0000
24.4200 732.0000 1.0000
24.4300 767.0000 1.0000
24.4400 706.0000 1.0000
24.4500 720.0000 1.0000
24.4600 670.0000 1.0000
24.4700 741.0000 1.0000
24.4800 722.0000 1.0000
24.4900 703.0000 1.0000
24.5000 682.0000 1.0000
24.5100 672.0000 1.0000
24.5200 726.0000 1.0000
24.5300 718.0000 1.0000
24.5400 681.0000 1.0000
24.5500 685.0000 1.0000
24.5600 731.0000 1.0000
24.5700 710.0000 1.0000
24.5800 725.0000 1.0000
24.5900 719.0000 1.0000
24.6000 705.0000 1.0000
24.6100 724.0000 1.0000
24.6200 672.0000 1.0000
24.6300 711.0000 1.0000
24.6400 688.0000 1.0000
24.6500 667.0000 1.0000
24.6600 684.0000 1.0000
24.6700 705.0000 1.0000
24.6800 713.0000 1.0000
24.6900 723.0000 1.0000
24.7000 673.0000 1.0000
24.7100 700.0000 1.0000
24.7200 645.0000 1.0000
24.7300 721.0000 1.0000
24.7400 703.0000 1.0000
24.7500 714.0000 1.0000
24.7600 695.0000 1.0000
24.7700 682.0000 1.0000
24.7800 664.0000 1.0000
24.7900 725.0000 1.0000
24.8000 705.0000 1.0000
24.8100 709.0000 1.0000
24.8200 705.0000 1.0000
24.8300 653.0000 1.0000
24.8400 683.0000 1.0000
24.8500 693.0000 1.0000
24.8600 688.0000 1.0000
24.8700 703.0000 1.0000
24.8800 679.0000 1.0000
24.8900 662.0000 1.0000
24.9000 676.0000 1.0000
24.9100 705.0000 1.0000
24.9200 666.0000 1.0000
24.9300 690.0000 1.0000
24.9400 689.0000 1.0000
24.9500 689.0000 1.0000
24.9600 672.0000 1.0000
24.9700 720.0000 1.0000
24.9800 735.0000 1.0000
24.9900 733.0000 1.0000
25.0000 679.0000 1.0000
25.0100 682.0000 1.0000
25.0200 737.0000 1.0000
25.0300 684.0000 1.0000
25.0400 693.0000 1.0000
25.0500 638.0000 1.0000
25.0600 742.0000 1.0000
25.0700 681.0000 1.0000
25.0800 690.0000 1.0000
25.0900 673.0000 1.0000
25.1000 710.0000 1.0000
25.1100 704.0000 1.0000
25.1200 732.0000 1.0000
25.1300 695.0000 1.0000
25.1400 659.0000 1.0000
25.1500 683.0000 1.0000
25.1600 639.0000 1.0000
25.1700 642.0000 1.0000
25.1800 677.0000 1.0000
25.1900 658.0000 1.0000
25.2000 709.0000 1.0000
25.2100 675.0000 1.0000
25.2200 653.0000 1.0000
25.2300 701.0000 1.0000
25.2400 688.0000 1.0000
25.2500 728.0000 1.0000
25.2600 722.0000 1.0000
25.2700 744.0000 1.0000
25.2800 681.0000 1.0000
25.2900 699.0000 1.0000
25.3000 686.0000 1.0000
25.3100 707.0000 1.0000
25.3200 684.0000 1.0000
25.3300 697.0000 1.0000
25.3400 678.0000 1.0000
25.3500 718.0000 1.0000
25.3600 682.0000 1.0000
25.3700 696.0000 1.0000
25.3800 726.0000 1.0000
25.3900 706.0000 1.0000
25.4000 686.0000 1.0000
25.4100 708.0000 1.0000
25.4200 669.0000 1.0000
25.4300 730.0000 1.0000
25.4400 665.0000 1.0000
25.4500 713.0000 1.0000
25.4600 671.0000 1.0000
25.4700 671.0000 1.0000
25.4800 685.0000 1.0000
25.4900 701.0000 1.0000
25.5000 707.0000 1.0000
25.5100 728.0000 1.0000
25.5200 685.0000 1.0000
25.5300 712.0000 1.0000
25.5400 702.0000 1.0000
25.5500 702.0000 1.0000
25.5600 729.0000 1.0000
25.5700 676.0000 1.0000
25.5800 694.0000 1.0000
25.5900 661.0000 1.0000
25.6000 692.0000 1.0000
25.6100 736.0000 1.0000
25.6200 644.0000 1.0000
25.6300 705.0000 1.0000
25.6400 695.0000 1.0000
25.6500 713.0000 1.0000
25.6600 726.0000 1.0000
25.6700 676.0000 1.0000
25.6800 711.0000 1.0000
25.6900 700.0000 1.0000
25.7000 704.0000 1.0000
25.7100 642.0000 1.0000
25.7200 678.0000 1.0000
25.7300 700.0000 1.0000
25.7400 708.0000 1.0000
25.7500 669.0000 1.0000
25.7600 717.0000 1.0000
25.7700 696.0000 1.0000
25.7800 694.0000 1.0000
25.7900 676.0000 1.0000
25.8000 685.0000 1.0000
25.8100 731.0000 1.0000
25.8200 673.0000 1.0000
25.8300 671.0000 1.0000
25.8400 676.0000 1.0000
25.8500 766.0000 1.0000
25.8600 718.0000 1.0000
25.8700 713.0000 1.0000
25.8800 689.0000 1.0000
25.8900 747.0000 1.0000
25.9000 706.0000 1.0000
25.9100 701.0000 1.0000
25.9200 711.0000 1.0000
25.9300 759.0000 1.0000
25.9400 707.0000 1.0000
25.9500 709.0000 1.0000
25.9600 721.0000 1.0000
25.9700 737.0000 1.0000
25.9800 776.0000 1.0000
25.9900 740.0000 1.0000
26.0000 733.0000 1.0000
26.0100 721.0000 1.0000
26.0200 747.0000 1.0000
26.0300 776.0000 1.0000
26.0400 768.0000 1.0000
26.0500 773.0000 1.0000
26.0600 770.0000 1.0000
26.0700 778.0000 1.0000
26.0800 780.0000 1.0000
26.0900 801.0000 1.0000
26.1000 795.0000 1.0000
26.1100 791.0000 1.0000
26.1200 806.0000 1.0000
26.1300 769.0000 1.0000
26.1400 774.0000 1.0000
26.1500 851.0000 1.0000
26.1600 918.0000 1.0000
26.1700 885.0000 1.0000
26.1800 861.0000 1.0000
26.1900 843.0000 1.0000
26.2000 876.0000 1.0000
26.2100 886.0000 1.0000
26.2200 895.0000 1.0000
26.2300 921.0000 1.0000
26.2400 885.0000 1.0000
26.2500 991.0000 1.0000
26.2600 943.0000 1.0000
26.2700 1069.0000 1.0000
26.2800 1020.0000 1.0000
26.2900 1093.0000 1.0000
26.3000 1096.0000 1.0000
26.3100 1014.0000 1.0000
26.3200 1152.0000 1.0000
26.3300 1135.0000 1.0000
26.3400 1195.0000 1.0000
26.3500 1228.0000 1.0000
26.3600 1253.0000 1.0000
26.3700 1229.0000 1.0000
26.3800 1299.0000 1.0000
26.3900 1385.0000 1.0000
26.4000 1351.0000 1.0000
26.4100 1398.0000 1.0000
26.4200 1358.0000 1.0000
26.4300 1458.0000 1.0000
26.4400 1419.0000 1.0000
26.4500 1428.0000 1.0000
26.4600 1381.0000 1.0000
26.4700 1408.0000 1.0000
26.4800 1320.0000 1.0000
26.4900 1303.0000 1.0000
26.5000 1346.0000 1.0000
26.5100 1311.0000 1.0000
26.5200 1206.0000 1.0000
26.5300 1155.0000 1.0000
26.5400 1227.0000 1.0000
26.5500 1125.0000 1.0000
26.5600 1144.0000 1.0000
26.5700 1115.0000 1.0000
26.5800 1102.0000 1.0000
26.5900 1063.0000 1.0000
26.6000 1068.0000 1.0000
26.6100 1017.0000 1.0000
26.6200 968.0000 1.0000
26.6300 963.0000 1.0000
26.6400 990.0000 1.0000
26.6500 949.0000 1.0000
26.6600 973.0000 1.0000
26.6700 884.0000 1.0000
26.6800 933.0000 1.0000
26.6900 908.0000 1.0000
26.7000 830.0000 1.0000
26.7100 840.0000 1.0000
26.7200 869.0000 1.0000
26.7300 848.0000 1.0000
26.7400 814.0000 1.0000
26.7500 826.0000 1.0000
26.7600 791.0000 1.0000
26.7700 796.0000 1.0000
26.7800 757.0000 1.0000
26.7900 757.0000 1.0000
26.8000 755.0000 1.0000
26.8100 775.0000 1.0000
26.8200 719.0000 1.0000
26.8300 739.0000 1.0000
26.8400 720.0000 1.0000
26.8500 758.0000 1.0000
26.8600 699.0000 1.0000
26.8700 670.0000 1.0000
26.8800 681.0000 1.0000
26.8900 643.0000 1.0000
26.9000 689.0000 1.0000
26.9100 728.0000 1.0000
26.9200 706.0000 1.0000
26.9300 684.0000 1.0000
26.9400 667.0000 1.0000
26.9500 687.0000 1.0000
26.9600 675.0000 1.0000
26.9700 718.0000 1.0000
26.9800 681.0000 1.0000
26.9900 736.0000 1.0000
27.0000 714.0000 1.0000
27.0100 676.0000 1.0000
27.0200 706.0000 1.0000
27.0300 660.0000 1.0000
27.0400 709.0000 1.0000
27.0500 676.0000 1.0000
27.0600 703.0000 1.0000
27.0700 669.0000 1.0000
27.0800 685.0000 1.0000
27.0900 668.0000 1.0000
27.1000 655.0000 1.0000
27.1100 679.0000 1.0000
27.1200 666.0000 1.0000
27.1300 685.0000 1.0000
27.1400 668.0000 1.0000
27.1500 661.0000 1.0000
27.1600 712.0000 1.0000
27.1700 698.0000 1.0000
27.1800 679.0000 1.0000
27.1900 678.0000 1.0000
27.2000 655.0000 1.0000
27.2100 684.0000 1.0000
27.2200 649.0000 1.0000
27.2300 704.0000 1.0000
27.2400 673.0000 1.0000
27.2500 657.0000 1.0000
27.2600 621.0000 1.0000
27.2700 617.0000 1.0000
27.2800 605.0000 1.0000
27.2900 648.0000 1.0000
27.3000 671.0000 1.0000
27.3100 665.0000 1.0000
27.3200 641.0000 1.0000
27.3300 648.0000 1.0000
27.3400 606.0000 1.0000
27.3500 640.0000 1.0000
27.3600 627.0000 1.0000
27.3700 662.0000 1.0000
27.3800 630.0000 1.0000
27.3900 603.0000 1.0000
27.4000 618.0000 1.0000
27.4100 647.0000 1.0000
27.4200 614.0000 1.0000
27.4300 637.0000 1.0000
27.4400 618.0000 1.0000
27.4500 661.0000 1.0000
27.4600 622.0000 1.0000
27.4700 624.0000 1.0000
27.4800 623.0000 1.0000
27.4900 610.0000 1.0000
27.5000 611.0000 1.0000
27.5100 655.0000 1.0000
27.5200 619.0000 1.0000
27.5300 621.0000 1.0000
27.5400 628.0000 1.0000
27.5500 609.0000 1.0000
27.5600 609.0000 1.0000
27.5700 666.0000 1.0000
27.5800 637.0000 1.0000
27.5900 646.0000 1.0000
27.6000 600.0000 1.0000
27.6100 623.0000 1.0000
27.6200 622.0000 1.0000
27.6300 623.0000 1.0000
27.6400 629.0000 1.0000
27.6500 627.0000 1.0000
27.6600 663.0000 1.0000
27.6700 643.0000 1.0000
27.6800 629.0000 1.0000
27.6900 605.0000 1.0000
27.7000 613.0000 1.0000
27.7100 673.0000 1.0000
27.7200 615.0000 1.0000
27.7300 620.0000 1.0000
27.7400 595.0000 1.0000
27.7500 615.0000 1.0000
27.7600 632.0000 1.0000
27.7700 650.0000 1.0000
27.7800 634.0000 1.0000
27.7900 604.0000 1.0000
27.8000 621.0000 1.0000
27.8100 605.0000 1.0000
27.8200 657.0000 1.0000
27.8300 627.0000 1.0000
27.8400 639.0000 1.0000
27.8500 616.0000 1.0000
27.8600 611.0000 1.0000
27.8700 622.0000 1.0000
27.8800 634.0000 1.0000
27.8900 607.0000 1.0000
27.9000 607.0000 1.0000
27.9100 580.0000 1.0000
27.9200 627.0000 1.0000
27.9300 630.0000 1.0000
27.9400 588.0000 1.0000
27.9500 601.0000 1.0000
27.9600 603.0000 1.0000
27.9700 596.0000 1.0000
27.9800 604.0000 1.0000
27.9900 632.0000 1.0000
28.0000 632.0000 1.0000
28.0100 592.0000 1.0000
28.0200 646.0000 1.0000
28.0300 628.0000 1.0000
28.0400 639.0000 1.0000
28.0500 629.0000 1.0000
28.0600 602.0000 1.0000
28.0700 651.0000 1.0000
28.0800 664.0000 1.0000
28.0900 604.0000 1.0000
28.1000 605.0000 1.0000
28.1100 592.0000 1.0000
28.1200 627.0000 1.0000
28.1300 610.0000 1.0000
28.1400 612.0000 1.0000
28.1500 620.0000 1.0000
28.1600 615.0000 1.0000
28.1700 612.0000 1.0000
28.1800 630.0000 1.0000
28.1900 613.0000 1.0000
28.2000 612.0000 1.0000
28.2100 607.0000 1.0000
28.2200 629.0000 1.0000
28.2300 645.0000 1.0000
28.2400 657.0000 1.0000
28.2500 640.0000 1.0000
28.2600 619.0000 1.0000
28.2700 610.0000 1.0000
28.2800 575.0000 1.0000
28.2900 600.0000 1.0000
28.3000 647.0000 1.0000
28.3100 623.0000 1.0000
28.3200 623.0000 1.0000
28.3300 626.0000 1.0000
28.3400 617.0000 1.0000
28.3500 615.0000 1.0000
28.3600 599.0000 1.0000
28.3700 622.0000 1.0000
28.3800 592.0000 1.0000
28.3900 592.0000 1.0000
28.4000 644.0000 1.0000
28.4100 601.0000 1.0000
28.4200 647.0000 1.0000
28.4300 597.0000 1.0000
28.4400 586.0000 1.0000
28.4500 567.0000 1.0000
28.4600 613.0000 1.0000
28.4700 601.0000 1.0000
28.4800 590.0000 1.0000
28.4900 572.0000 1.0000
28.5000 605.0000 1.0000
28.5100 610.0000 1.0000
28.5200 634.0000 1.0000
28.5300 598.0000 1.0000
28.5400 589.0000 1.0000
28.5500 571.0000 1.0000
28.5600 627.0000 1.0000
28.5700 617.0000 1.0000
28.5800 615.0000 1.0000
28.5900 592.0000 1.0000
28.6000 603.0000 1.0000
28.6100 556.0000 1.0000
28.6200 610.0000 1.0000
28.6300 583.0000 1.0000
28.6400 567.0000 1.0000
28.6500 605.0000 1.0000
28.6600 593.0000 1.0000
28.6700 546.0000 1.0000
28.6800 584.0000 1.0000
28.6900 573.0000 1.0000
28.7000 603.0000 1.0000
28.7100 607.0000 1.0000
28.7200 591.0000 1.0000
28.7300 570.0000 1.0000
28.7400 602.0000 1.0000
28.7500 592.0000 1.0000
28.7600 617.0000 1.0000
28.7700 577.0000 1.0000
28.7800 597.0000 1.0000
28.7900 613.0000 1.0000
28.8000 593.0000 1.0000
28.8100 606.0000 1.0000
28.8200 590.0000 1.0000
28.8300 586.0000 1.0000
28.8400 592.0000 1.0000
28.8500 561.0000 1.0000
28.8600 601.0000 1.0000
28.8700 615.0000 1.0000
28.8800 561.0000 1.0000
28.8900 579.0000 1.0000
28.9000 600.0000 1.0000
28.9100 586.0000 1.0000
28.9200 574.0000 1.0000
28.9300 580.0000 1.0000
28.9400 588.0000 1.0000
28.9500 549.0000 1.0000
28.9600 561.0000 1.0000
28.9700 572.0000 1.0000
28.9800 581.0000 1.0000
28.9900 608.0000 1.0000
29.0000 601.0000 1.0000
29.0100 548.0000 1.0000
29.0200 551.0000 1.0000
29.0300 570.0000 1.0000
29.0400 562.0000 1.0000
29.0500 611.0000 1.0000
29.0600 573.0000 1.0000
29.0700 553.0000 1.0000
29.0800 578.0000 1.0000
29.0900 587.0000 1.0000
29.1000 607.0000 1.0000
29.1100 592.0000 1.0000
29.1200 563.0000 1.0000
29.1300 582.0000 1.0000
29.1400 592.0000 1.0000
29.1500 572.0000 1.0000
29.1600 573.0000 1.0000
29.1700 568.0000 1.0000
29.1800 576.0000 1.0000
29.1900 577.0000 1.0000
29.2000 581.0000 1.0000
29.2100 582.0000 1.0000
29.2200 583.0000 1.0000
29.2300 527.0000 1.0000
29.2400 591.0000 1.0000
29.2500 573.0000 1.0000
29.2600 556.0000 1.0000
29.2700 553.0000 1.0000
29.2800 557.0000 1.0000
29.2900 594.0000 1.0000
29.3000 558.0000 1.0000
29.3100 549.0000 1.0000
29.3200 568.0000 1.0000
29.3300 586.0000 1.0000
29.3400 605.0000 1.0000
29.3500 601.0000 1.0000
29.3600 565.0000 1.0000
29.3700 554.0000 1.0000
29.3800 593.0000 1.0000
29.3900 593.0000 1.0000
29.4000 570.0000 1.0000
29.4100 585.0000 1.0000
29.4200 586.0000 1.0000
29.4300 542.0000 1.0000
29.4400 545.0000 1.0000
29.4500 585.0000 1.0000
29.4600 565.0000 1.0000
29.4700 571.0000 1.0000
29.4800 553.0000 1.0000
29.4900 550.0000 1.0000
29.5000 579.0000 1.0000
29.5100 568.0000 1.0000
29.5200 585.0000 1.0000
29.5300 596.0000 1.0000
29.5400 560.0000 1.0000
29.5500 578.0000 1.0000
29.5600 550.0000 1.0000
29.5700 574.0000 1.0000
29.5800 516.0000 1.0000
29.5900 579.0000 1.0000
29.6000 554.0000 1.0000
29.6100 568.0000 1.0000
29.6200 518.0000 1.0000
29.6300 558.0000 1.0000
29.6400 562.0000 1.0000
29.6500 544.0000 1.0000
29.6600 534.0000 1.0000
29.6700 566.0000 1.0000
29.6800 546.0000 1.0000
29.6900 553.0000 1.0000
29.7000 603.0000 1.0000
29.7100 558.0000 1.0000
29.7200 554.0000 1.0000
29.7300 570.0000 1.0000
29.7400 551.0000 1.0000
29.7500 536.0000 1.0000
29.7600 536.0000 1.0000
29.7700 601.0000 1.0000
29.7800 564.0000 1.0000
29.7900 539.0000 1.0000
29.8000 609.0000 1.0000
29.8100 553.0000 1.0000
29.8200 557.0000 1.0000
29.8300 528.0000 1.0000
29.8400 577.0000 1.0000
29.8500 534.0000 1.0000
29.8600 528.0000 1.0000
29.8700 569.0000 1.0000
29.8800 544.0000 1.0000
29.8900 575.0000 1.0000
29.9000 535.0000 1.0000
29.9100 561.0000 1.0000
29.9200 546.0000 1.0000
29.9300 553.0000 1.0000
29.9400 568.0000 1.0000
29.9500 558.0000 1.0000
29.9600 535.0000 1.0000
29.9700 542.0000 1.0000
29.9800 568.0000 1.0000
29.9900 576.0000 1.0000
30.0000 548.0000 1.0000
30.0100 553.0000 1.0000
30.0200 565.0000 1.0000
30.0300 532.0000 1.0000
30.0400 540.0000 1.0000
30.0500 559.0000 1.0000
30.0600 528.0000 1.0000
30.0700 571.0000 1.0000
30.0800 551.0000 1.0000
30.0900 527.0000 1.0000
30.1000 562.0000 1.0000
30.1100 550.0000 1.0000
30.1200 562.0000 1.0000
30.1300 577.0000 1.0000
30.1400 524.0000 1.0000
30.1500 557.0000 1.0000
30.1600 508.0000 1.0000
30.1700 539.0000 1.0000
30.1800 531.0000 1.0000
30.1900 505.0000 1.0000
30.2000 571.0000 1.0000
30.2100 561.0000 1.0000
30.2200 528.0000 1.0000
30.2300 536.0000 1.0000
30.2400 537.0000 1.0000
30.2500 528.0000 1.0000
30.2600 536.0000 1.0000
30.2700 545.0000 1.0000
30.2800 547.0000 1.0000
30.2900 557.0000 1.0000
30.3000 532.0000 1.0000
30.3100 547.0000 1.0000
30.3200 549.0000 1.0000
30.3300 565.0000 1.0000
30.3400 524.0000 1.0000
30.3500 551.0000 1.0000
30.3600 523.0000 1.0000
30.3700 541.0000 1.0000
30.3800 589.0000 1.0000
30.3900 561.0000 1.0000
30.4000 561.0000 1.0000
30.4100 544.0000 1.0000
30.4200 541.0000 1.0000
30.4300 510.0000 1.0000
30.4400 534.0000 1.0000
30.4500 572.0000 1.0000
30.4600 550.0000 1.0000
30.4700 541.0000 1.0000
30.4800 539.0000 1.0000
30.4900 557.0000 1.0000
30.5000 538.0000 1.0000
30.5100 505.0000 1.0000
30.5200 518.0000 1.0000
30.5300 557.0000 1.0000
30.5400 532.0000 1.0000
30.5500 515.0000 1.0000
30.5600 535.0000 1.0000
30.5700 565.0000 1.0000
30.5800 526.0000 1.0000
30.5900 539.0000 1.0000
30.6000 511.0000 1.0000
30.6100 560.0000 1.0000
30.6200 555.0000 1.0000
30.6300 545.0000 1.0000
30.6400 551.0000 1.0000
30.6500 535.0000 1.0000
30.6600 585.0000 1.0000
30.6700 572.0000 1.0000
30.6800 522.0000 1.0000
30.6900 543.0000 1.0000
30.7000 520.0000 1.0000
30.7100 539.0000 1.0000
30.7200 520.0000 1.0000
30.7300 516.0000 1.0000
30.7400 539.0000 1.0000
30.7500 523.0000 1.0000
30.7600 515.0000 1.0000
30.7700 534.0000 1.0000
30.7800 555.0000 1.0000
30.7900 497.0000 1.0000
30.8000 512.0000 1.0000
30.8100 546.0000 1.0000
30.8200 527.0000 1.0000
30.8300 533.0000 1.0000
30.8400 510.0000 1.0000
30.8500 495.0000 1.0000
30.8600 533.0000 1.0000
30.8700 507.0000 1.0000
30.8800 556.0000 1.0000
30.8900 515.0000 1.0000
30.9000 526.0000 1.0000
30.9100 567.0000 1.0000
30.9200 542.0000 1.0000
30.9300 549.0000 1.0000
30.9400 557.0000 1.0000
30.9500 521.0000 1.0000
30.9600 547.0000 1.0000
30.9700 540.0000 1.0000
30.9800 525.0000 1.0000
30.9900 522.0000 1.0000
31.0000 563.0000 1.0000
31.0100 507.0000 1.0000
31.0200 537.0000 1.0000
31.0300 557.0000 1.0000
31.0400 555.0000 1.0000
31.0500 537.0000 1.0000
31.0600 563.0000 1.0000
31.0700 526.0000 1.0000
31.0800 532.0000 1.0000
31.0900 593.0000 1.0000
31.1000 567.0000 1.0000
31.1100 550.0000 1.0000
31.1200 527.0000 1.0000
31.1300 566.0000 1.0000
31.1400 529.0000 1.0000
31.1500 550.0000 1.0000
31.1600 562.0000 1.0000
31.1700 553.0000 1.0000
31.1800 556.0000 1.0000
31.1900 570.0000 1.0000
31.2000 565.0000 1.0000
31.2100 562.0000 1.0000
31.2200 533.0000 1.0000
31.2300 534.0000 1.0000
31.2400 553.0000 1.0000
31.2500 549.0000 1.0000
31.2600 529.0000 1.0000
31.2700 557.0000 1.0000
31.2800 564.0000 1.0000
31.2900 500.0000 1.0000
31.3000 497.0000 1.0000
31.3100 561.0000 1.0000
31.3200 550.0000 1.0000
31.3300 519.0000 1.0000
31.3400 539.0000 1.0000
31.3500 507.0000 1.0000
31.3600 535.0000 1.0000
31.3700 558.0000 1.0000
31.3800 535.0000 1.0000
31.3900 536.0000 1.0000
31.4000 542.0000 1.0000
31.4100 545.0000 1.0000
31.4200 525.0000 1.0000
31.4300 539.0000 1.0000
31.4400 524.0000 1.0000
31.4500 561.0000 1.0000
31.4600 534.0000 1.0000
31.4700 548.0000 1.0000
31.4800 483.0000 1.0000
31.4900 515.0000 1.0000
31.5000 542.0000 1.0000
31.5100 504.0000 1.0000
31.5200 485.0000 1.0000
31.5300 519.0000 1.0000
31.5400 506.0000 1.0000
31.5500 522.0000 1.0000
31.5600 520.0000 1.0000
31.5700 560.0000 1.0000
31.5800 535.0000 1.0000
31.5900 520.0000 1.0000
31.6000 550.0000 1.0000
31.6100 492.0000 1.0000
31.6200 505.0000 1.0000
31.6300 502.0000 1.0000
31.6400 490.0000 1.0000
31.6500 534.0000 1.0000
31.6600 509.0000 1.0000
31.6700 520.0000 1.0000
31.6800 513.0000 1.0000
31.6900 526.0000 1.0000
31.7000 529.0000 1.0000
31.7100 537.0000 1.0000
31.7200 541.0000 1.0000
31.7300 513.0000 1.0000
31.7400 535.0000 1.0000
31.7500 510.0000 1.0000
31.7600 507.0000 1.0000
31.7700 514.0000 1.0000
31.7800 518.0000 1.0000
31.7900 511.0000 1.0000
31.8000 542.0000 1.0000
31.8100 502.0000 1.0000
31.8200 527.0000 1.0000
31.8300 564.0000 1.0000
31.8400 530.0000 1.0000
31.8500 523.0000 1.0000
31.8600 513.0000 1.0000
31.8700 494.0000 1.0000
31.8800 534.0000 1.0000
31.8900 505.0000 1.0000
31.9000 529.0000 1.0000
31.9100 525.0000 1.0000
31.9200 476.0000 1.0000
31.9300 519.0000 1.0000
31.9400 538.0000 1.0000
31.9500 502.0000 1.0000
31.9600 483.0000 1.0000
31.9700 533.0000 1.0000
31.9800 530.0000 1.0000
31.9900 547.0000 1.0000
32.0000 529.0000 1.0000
32.0100 513.0000 1.0000
32.0200 524.0000 1.0000
32.0300 519.0000 1.0000
32.0400 509.0000 1.0000
32.0500 514.0000 1.0000
32.0600 516.0000 1.0000
32.0700 507.0000 1.0000
32.0800 514.0000 1.0000
32.0900 513.0000 1.0000
32.1000 510.0000 1.0000
32.1100 503.0000 1.0000
32.1200 536.0000 1.0000
32.1300 553.0000 1.0000
32.1400 479.0000 1.0000
32.1500 481.0000 1.0000
32.1600 529.0000 1.0000
32.1700 493.0000 1.0000
32.1800 490.0000 1.0000
32.1900 447.0000 1.0000
32.2000 523.0000 1.0000
32.2100 496.0000 1.0000
32.2200 534.0000 1.0000
32.2300 498.0000 1.0000
32.2400 510.0000 1.0000
32.2500 520.0000 1.0000
32.2600 531.0000 1.0000
32.2700 494.0000 1.0000
32.2800 484.0000 1.0000
32.2900 501.0000 1.0000
32.3000 471.0000 1.0000
32.3100 519.0000 1.0000
32.3200 510.0000 1.0000
32.3300 496.0000 1.0000
32.3400 521.0000 1.0000
32.3500 517.0000 1.0000
32.3600 491.0000 1.0000
32.3700 479.0000 1.0000
32.3800 507.0000 1.0000
32.3900 499.0000 1.0000
32.4000 522.0000 1.0000
32.4100 521.0000 1.0000
32.4200 513.0000 1.0000
32.4300 505.0000 1.0000
32.4400 505.0000 1.0000
32.4500 516.0000 1.0000
32.4600 509.0000 1.0000
32.4700 523.0000 1.0000
32.4800 493.0000 1.0000
32.4900 502.0000 1.0000
32.5000 457.0000 1.0000
32.5100 518.0000 1.0000
32.5200 513.0000 1.0000
32.5300 501.0000 1.0000
32.5400 500.0000 1.0000
32.5500 519.0000 1.0000
32.5600 488.0000 1.0000
32.5700 511.0000 1.0000
32.5800 526.0000 1.0000
32.5900 516.0000 1.0000
32.6000 488.0000 1.0000
32.6100 515.0000 1.0000
32.6200 514.0000 1.0000
32.6300 476.0000 1.0000
32.6400 522.0000 1.0000
32.6500 508.0000 1.0000
32.6600 502.0000 1.0000
32.6700 502.0000 1.0000
32.6800 487.0000 1.0000
32.6900 488.0000 1.0000
32.7000 533.0000 1.0000
32.7100 499.0000 1.0000
32.7200 489.0000 1.0000
32.7300 505.0000 1.0000
32.7400 506.0000 1.0000
32.7500 502.0000 1.0000
32.7600 464.0000 1.0000
32.7700 505.0000 1.0000
32.7800 473.0000 1.0000
32.7900 500.0000 1.0000
32.8000 512.0000 1.0000
32.8100 528.0000 1.0000
32.8200 528.0000 1.0000
32.8300 493.0000 1.0000
32.8400 538.0000 1.0000
32.8500 541.0000 1.0000
32.8600 532.0000 1.0000
32.8700 491.0000 1.0000
32.8800 540.0000 1.0000
32.8900 485.0000 1.0000
32.9000 539.0000 1.0000
32.9100 538.0000 1.0000
32.9200 549.0000 1.0000
32.9300 527.0000 1.0000
32.9400 567.0000 1.0000
32.9500 547.0000 1.0000
32.9600 581.0000 1.0000
32.9700 563.0000 1.0000
32.9800 579.0000 1.0000
32.9900 603.0000 1.0000
33.0000 555.0000 1.0000
33.0100 588.0000 1.0000
33.0200 601.0000 1.0000
33.0300 615.0000 1.0000
33.0400 589.0000 1.0000
33.0500 612.0000 1.0000
33.0600 599.0000 1.0000
33.0700 596.0000 1.0000
33.0800 622.0000 1.0000
33.0900 600.0000 1.0000
33.1000 599.0000 1.0000
33.1100 616.0000 1.0000
33.1200 588.0000 1.0000
33.1300 579.0000 1.0000
33.1400 614.0000 1.0000
33.1500 620.0000 1.0000
33.1600 579.0000 1.0000
33.1700 592.0000 1.0000
33.1800 573.0000 1.0000
33.1900 592.0000 1.0000
33.2000 595.0000 1.0000
33.2100 610.0000 1.0000
33.2200 629.0000 1.0000
33.2300 590.0000 1.0000
33.2400 548.0000 1.0000
33.2500 585.0000 1.0000
33.2600 614.0000 1.0000
33.2700 553.0000 1.0000
33.2800 556.0000 1.0000
33.2900 589.0000 1.0000
33.3000 542.0000 1.0000
33.3100 578.0000 1.0000
33.3200 563.0000 1.0000
33.3300 537.0000 1.0000
33.3400 550.0000 1.0000
33.3500 545.0000 1.0000
33.3600 536.0000 1.0000
33.3700 551.0000 1.0000
33.3800 551.0000 1.0000
33.3900 567.0000 1.0000
33.4000 571.0000 1.0000
33.4100 576.0000 1.0000
33.4200 541.0000 1.0000
33.4300 559.0000 1.0000
33.4400 589.0000 1.0000
33.4500 630.0000 1.0000
33.4600 585.0000 1.0000
33.4700 566.0000 1.0000
33.4800 616.0000 1.0000
33.4900 615.0000 1.0000
33.5000 605.0000 1.0000
33.5100 620.0000 1.0000
33.5200 656.0000 1.0000
33.5300 637.0000 1.0000
33.5400 662.0000 1.0000
33.5500 604.0000 1.0000
33.5600 634.0000 1.0000
33.5700 666.0000 1.0000
33.5800 650.0000 1.0000
33.5900 647.0000 1.0000
33.6000 636.0000 1.0000
33.6100 657.0000 1.0000
33.6200 693.0000 1.0000
33.6300 639.0000 1.0000
33.6400 693.0000 1.0000
33.6500 685.0000 1.0000
33.6600 705.0000 1.0000
33.6700 661.0000 1.0000
33.6800 677.0000 1.0000
33.6900 695.0000 1.0000
33.7000 640.0000 1.0000
33.7100 640.0000 1.0000
33.7200 664.0000 1.0000
33.7300 670.0000 1.0000
33.7400 644.0000 1.0000
33.7500 630.0000 1.0000
33.7600 649.0000 1.0000
33.7700 636.0000 1.0000
33.7800 641.0000 1.0000
33.7900 647.0000 1.0000
33.8000 611.0000 1.0000
33.8100 618.0000 1.0000
33.8200 618.0000 1.0000
33.8300 574.0000 1.0000
33.8400 575.0000 1.0000
33.8500 576.0000 1.0000
33.8600 570.0000 1.0000
33.8700 554.0000 1.0000
33.8800 579.0000 1.0000
33.8900 558.0000 1.0000
33.9000 572.0000 1.0000
33.9100 556.0000 1.0000
33.9200 552.0000 1.0000
33.9300 539.0000 1.0000
33.9400 564.0000 1.0000
33.9500 533.0000 1.0000
33.9600 548.0000 1.0000
33.9700 500.0000 1.0000
33.9800 491.0000 1.0000
33.9900 517.0000 1.0000
34.0000 511.0000 1.0000
34.0100 554.0000 1.0000
34.0200 499.0000 1.0000
34.0300 515.0000 1.0000
34.0400 538.0000 1.0000
34.0500 531.0000 1.0000
34.0600 492.0000 1.0000
34.0700 470.0000 1.0000
34.0800 522.0000 1.0000
34.0900 498.0000 1.0000
34.1000 532.0000 1.0000
34.1100 477.0000 1.0000
34.1200 491.0000 1.0000
34.1300 488.0000 1.0000
34.1400 505.0000 1.0000
34.1500 442.0000 1.0000
34.1600 456.0000 1.0000
34.1700 474.0000 1.0000
34.1800 469.0000 1.0000
34.1900 493.0000 1.0000
34.2000 442.0000 1.0000
34.2100 474.0000 1.0000
34.2200 505.0000 1.0000
34.2300 505.0000 1.0000
34.2400 489.0000 1.0000
34.2500 493.0000 1.0000
34.2600 475.0000 1.0000
34.2700 473.0000 1.0000
34.2800 487.0000 1.0000
34.2900 489.0000 1.0000
34.3000 479.0000 1.0000
34.3100 461.0000 1.0000
34.3200 488.0000 1.0000
34.3300 458.0000 1.0000
34.3400 469.0000 1.0000
34.3500 453.0000 1.0000
34.3600 444.0000 1.0000
34.3700 432.0000 1.0000
34.3800 462.0000 1.0000
34.3900 462.0000 1.0000
34.4000 451.0000 1.0000
34.4100 426.0000 1.0000
34.4200 431.0000 1.0000
34.4300 442.0000 1.0000
34.4400 491.0000 1.0000
34.4500 480.0000 1.0000
34.4600 467.0000 1.0000
34.4700 477.0000 1.0000
34.4800 505.0000 1.0000
34.4900 449.0000 1.0000
34.5000 427.0000 1.0000
34.5100 439.0000 1.0000
34.5200 429.0000 1.0000
34.5300 483.0000 1.0000
34.5400 449.0000 1.0000
34.5500 440.0000 1.0000
34.5600 426.0000 1.0000
34.5700 412.0000 1.0000
34.5800 472.0000 1.0000
34.5900 405.0000 1.0000
34.6000 422.0000 1.0000
34.6100 419.0000 1.0000
34.6200 466.0000 1.0000
34.6300 439.0000 1.0000
34.6400 420.0000 1.0000
34.6500 456.0000 1.0000
34.6600 459.0000 1.0000
34.6700 422.0000 1.0000
34.6800 436.0000 1.0000
34.6900 466.0000 1.0000
34.7000 455.0000 1.0000
34.7100 446.0000 1.0000
34.7200 416.0000 1.0000
34.7300 422.0000 1.0000
34.7400 417.0000 1.0000
34.7500 439.0000 1.0000
34.7600 452.0000 1.0000
34.7700 451.0000 1.0000
34.7800 445.0000 1.0000
34.7900 450.0000 1.0000
34.8000 409.0000 1.0000
34.8100 443.0000 1.0000
34.8200 470.0000 1.0000
34.8300 439.0000 1.0000
34.8400 425.0000 1.0000
34.8500 466.0000 1.0000
34.8600 421.0000 1.0000
34.8700 438.0000 1.0000
34.8800 456.0000 1.0000
34.8900 441.0000 1.0000
34.9000 432.0000 1.0000
34.9100 401.0000 1.0000
34.9200 422.0000 1.0000
34.9300 451.0000 1.0000
34.9400 451.0000 1.0000
34.9500 431.0000 1.0000
34.9600 439.0000 1.0000
34.9700 416.0000 1.0000
34.9800 439.0000 1.0000
34.9900 422.0000 1.0000
35.0000 397.0000 1.0000
35.0100 395.0000 1.0000
35.0200 447.0000 1.0000
35.0300 442.0000 1.0000
35.0400 417.0000 1.0000
35.0500 408.0000 1.0000
35.0600 405.0000 1.0000
35.0700 464.0000 1.0000
35.0800 420.0000 1.0000
35.0900 451.0000 1.0000
35.1000 452.0000 1.0000
35.1100 426.0000 1.0000
35.1200 469.0000 1.0000
35.1300 435.0000 1.0000
35.1400 449.0000 1.0000
35.1500 461.0000 1.0000
35.1600 444.0000 1.0000
35.1700 453.0000 1.0000
35.1800 450.0000 1.0000
35.1900 433.0000 1.0000
35.2000 433.0000 1.0000
35.2100 447.0000 1.0000
35.2200 463.0000 1.0000
35.2300 479.0000 1.0000
35.2400 431.0000 1.0000
35.2500 477.0000 1.0000
35.2600 481.0000 1.0000
35.2700 500.0000 1.0000
35.2800 443.0000 1.0000
35.2900 464.0000 1.0000
35.3000 496.0000 1.0000
35.3100 480.0000 1.0000
35.3200 498.0000 1.0000
35.3300 517.0000 1.0000
35.3400 535.0000 1.0000
35.3500 473.0000 1.0000
35.3600 520.0000 1.0000
35.3700 498.0000 1.0000
35.3800 533.0000 1.0000
35.3900 562.0000 1.0000
35.4000 524.0000 1.0000
35.4100 565.0000 1.0000
35.4200 589.0000 1.0000
35.4300 579.0000 1.0000
35.4400 589.0000 1.0000
35.4500 609.0000 1.0000
35.4600 628.0000 1.0000
35.4700 642.0000 1.0000
35.4800 655.0000 1.0000
35.4900 647.0000 1.0000
35.5000 680.0000 1.0000
35.5100 686.0000 1.0000
35.5200 702.0000 1.0000
35.5300 694.0000 1.0000
35.5400 684.0000 1.0000
35.5500 673.0000 1.0000
35.5600 756.0000 1.0000
35.5700 736.0000 1.0000
35.5800 718.0000 1.0000
35.5900 708.0000 1.0000
35.6000 722.0000 1.0000
35.6100 756.0000 1.0000
35.6200 715.0000 1.0000
35.6300 712.0000 1.0000
35.6400 692.0000 1.0000
35.6500 653.0000 1.0000
35.6600 643.0000 1.0000
35.6700 614.0000 1.0000
35.6800 621.0000 1.0000
35.6900 636.0000 1.0000
35.7000 599.0000 1.0000
35.7100 593.0000 1.0000
35.7200 605.0000 1.0000
35.7300 546.0000 1.0000
35.7400 545.0000 1.0000
35.7500 527.0000 1.0000
35.7600 504.0000 1.0000
35.7700 513.0000 1.0000
35.7800 516.0000 1.0000
35.7900 471.0000 1.0000
35.8000 469.0000 1.0000
35.8100 485.0000 1.0000
35.8200 512.0000 1.0000
35.8300 477.0000 1.0000
35.8400 454.0000 1.0000
35.8500 463.0000 1.0000
35.8600 468.0000 1.0000
35.8700 467.0000 1.0000
35.8800 441.0000 1.0000
35.8900 431.0000 1.0000
35.9000 442.0000 1.0000
35.9100 419.0000 1.0000
35.9200 442.0000 1.0000
35.9300 444.0000 1.0000
35.9400 409.0000 1.0000
35.9500 417.0000 1.0000
35.9600 427.0000 1.0000
35.9700 411.0000 1.0000
35.9800 395.0000 1.0000
35.9900 440.0000 1.0000
36.0000 425.0000 1.0000
36.0100 441.0000 1.0000
36.0200 399.0000 1.0000
36.0300 441.0000 1.0000
36.0400 419.0000 1.0000
36.0500 412.0000 1.0000
36.0600 404.0000 1.0000
36.0700 414.0000 1.0000
36.0800 416.0000 1.0000
36.0900 438.0000 1.0000
36.1000 401.0000 1.0000
36.1100 407.0000 1.0000
36.1200 408.0000 1.0000
36.1300 405.0000 1.0000
36.1400 426.0000 1.0000
36.1500 440.0000 1.0000
36.1600 422.0000 1.0000
36.1700 421.0000 1.0000
36.1800 423.0000 1.0000
36.1900 420.0000 1.0000
36.2000 406.0000 1.0000
36.2100 421.0000 1.0000
36.2200 408.0000 1.0000
36.2300 409.0000 1.0000
36.2400 396.0000 1.0000
36.2500 430.0000 1.0000
36.2600 379.0000 1.0000
36.2700 432.0000 1.0000
36.2800 376.0000 1.0000
36.2900 392.0000 1.0000
36.3000 395.0000 1.0000
36.3100 421.0000 1.0000
36.3200 412.0000 1.0000
36.3300 429.0000 1.0000
36.3400 427.0000 1.0000
36.3500 386.0000 1.0000
36.3600 433.0000 1.0000
36.3700 425.0000 1.0000
36.3800 437.0000 1.0000
36.3900 407.0000 1.0000
36.4000 390.0000 1.0000
36.4100 419.0000 1.0000
36.4200 398.0000 1.0000
36.4300 421.0000 1.0000
36.4400 456.0000 1.0000
36.4500 412.0000 1.0000
36.4600 417.0000 1.0000
36.4700 389.0000 1.0000
36.4800 393.0000 1.0000
36.4900 384.0000 1.0000
36.5000 404.0000 1.0000
36.5100 431.0000 1.0000
36.5200 403.0000 1.0000
36.5300 411.0000 1.0000
36.5400 445.0000 1.0000
36.5500 404.0000 1.0000
36.5600 413.0000 1.0000
36.5700 448.0000 1.0000
36.5800 414.0000 1.0000
36.5900 422.0000 1.0000
36.6000 404.0000 1.0000
36.6100 433.0000 1.0000
36.6200 433.0000 1.0000
36.6300 453.0000 1.0000
36.6400 421.0000 1.0000
36.6500 407.0000 1.0000
36.6600 398.0000 1.0000
36.6700 422.0000 1.0000
36.6800 414.0000 1.0000
36.6900 403.0000 1.0000
36.7000 425.0000 1.0000
36.7100 414.0000 1.0000
36.7200 384.0000 1.0000
36.7300 422.0000 1.0000
36.7400 418.0000 1.0000
36.7500 440.0000 1.0000
36.7600 398.0000 1.0000
36.7700 419.0000 1.0000
36.7800 430.0000 1.0000
36.7900 396.0000 1.0000
36.8000 422.0000 1.0000
36.8100 418.0000 1.0000
36.8200 372.0000 1.0000
36.8300 387.0000 1.0000
36.8400 407.0000 1.0000
36.8500 422.0000 1.0000
36.8600 419.0000 1.0000
36.8700 454.0000 1.0000
36.8800 422.0000 1.0000
36.8900 388.0000 1.0000
36.9000 420.0000 1.0000
36.9100 431.0000 1.0000
36.9200 441.0000 1.0000
36.9300 443.0000 1.0000
36.9400 396.0000 1.0000
36.9500 445.0000 1.0000
36.9600 454.0000 1.0000
36.9700 428.0000 1.0000
36.9800 433.0000 1.0000
36.9900 458.0000 1.0000
37.0000 410.0000 1.0000
37.0100 385.0000 1.0000
37.0200 429.0000 1.0000
37.0300 450.0000 1.0000
37.0400 449.0000 1.0000
37.0500 425.0000 1.0000
37.0600 458.0000 1.0000
37.0700 422.0000 1.0000
37.0800 430.0000 1.0000
37.0900 429.0000 1.0000
37.1000 444.0000 1.0000
37.1100 441.0000 1.0000
37.1200 457.0000 1.0000
37.1300 450.0000 1.0000
37.1400 444.0000 1.0000
37.1500 457.0000 1.0000
37.1600 466.0000 1.0000
37.1700 456.0000 1.0000
37.1800 426.0000 1.0000
37.1900 464.0000 1.0000
37.2000 471.0000 1.0000
37.2100 455.0000 1.0000
37.2200 448.0000 1.0000
37.2300 502.0000 1.0000
37.2400 487.0000 1.0000
37.2500 511.0000 1.0000
37.2600 513.0000 1.0000
37.2700 542.0000 1.0000
37.2800 498.0000 1.0000
37.2900 489.0000 1.0000
37.3000 568.0000 1.0000
37.3100 531.0000 1.0000
37.3200 551.0000 1.0000
37.3300 577.0000 1.0000
37.3400 573.0000 1.0000
37.3500 552.0000 1.0000
37.3600 577.0000 1.0000
37.3700 614.0000 1.0000
37.3800 603.0000 1.0000
37.3900 634.0000 1.0000
37.4000 651.0000 1.0000
37.4100 667.0000 1.0000
37.4200 704.0000 1.0000
37.4300 734.0000 1.0000
37.4400 810.0000 1.0000
37.4500 785.0000 1.0000
37.4600 795.0000 1.0000
37.4700 856.0000 1.0000
37.4800 890.0000 1.0000
37.4900 953.0000 1.0000
37.5000 975.0000 1.0000
37.5100 1040.0000 1.0000
37.5200 1118.0000 1.0000
37.5300 1152.0000 1.0000
37.5400 1225.0000 1.0000
37.5500 1301.0000 1.0000
37.5600 1399.0000 1.0000
37.5700 1468.0000 1.0000
37.5800 1567.0000 1.0000
37.5900 1668.0000 1.0000
37.6000 1708.0000 1.0000
37.6100 1875.0000 1.0000
37.6200 1995.0000 1.0000
37.6300 2179.0000 1.0000
37.6400 2339.0000 1.0000
37.6500 2464.0000 1.0000
37.6600 2540.0000 1.0000
37.6700 2560.0000 1.0000
37.6800 2649.0000 1.0000
37.6900 2826.0000 1.0000
37.7000 2887.0000 1.0000
37.7100 3046.0000 1.0000
37.7200 3044.0000 1.0000
37.7300 3008.0000 1.0000
37.7400 3020.0000 1.0000
37.7500 2921.0000 1.0000
37.7600 2841.0000 1.0000
37.7700 2815.0000 1.0000
37.7800 2791.0000 1.0000
37.7900 2676.0000 1.0000
37.8000 2501.0000 1.0000
37.8100 2385.0000 1.0000
37.8200 2298.0000 1.0000
37.8300 2291.0000 1.0000
37.8400 2167.0000 1.0000
37.8500 1977.0000 1.0000
37.8600 1850.0000 1.0000
37.8700 1811.0000 1.0000
37.8800 1627.0000 1.0000
37.8900 1509.0000 1.0000
37.9000 1495.0000 1.0000
37.9100 1428.0000 1.0000
37.9200 1214.0000 1.0000
37.9300 1225.0000 1.0000
37.9400 1118.0000 1.0000
37.9500 1030.0000 1.0000
37.9600 968.0000 1.0000
37.9700 925.0000 1.0000
37.9800 835.0000 1.0000
37.9900 856.0000 1.0000
38.0000 828.0000 1.0000
38.0100 750.0000 1.0000
38.0200 723.0000 1.0000
38.0300 716.0000 1.0000
38.0400 656.0000 1.0000
38.0500 667.0000 1.0000
38.0600 598.0000 1.0000
38.0700 621.0000 1.0000
38.0800 589.0000 1.0000
38.0900 527.0000 1.0000
38.1000 560.0000 1.0000
38.1100 554.0000 1.0000
38.1200 541.0000 1.0000
38.1300 528.0000 1.0000
38.1400 525.0000 1.0000
38.1500 490.0000 1.0000
38.1600 510.0000 1.0000
38.1700 512.0000 1.0000
38.1800 490.0000 1.0000
38.1900 496.0000 1.0000
38.2000 456.0000 1.0000
38.2100 450.0000 1.0000
38.2200 437.0000 1.0000
38.2300 435.0000 1.0000
38.2400 418.0000 1.0000
38.2500 425.0000 1.0000
38.2600 400.0000 1.0000
38.2700 399.0000 1.0000
38.2800 440.0000 1.0000
38.2900 432.0000 1.0000
38.3000 418.0000 1.0000
38.3100 418.0000 1.0000
38.3200 390.0000 1.0000
38.3300 396.0000 1.0000
38.3400 379.0000 1.0000
38.3500 406.0000 1.0000
38.3600 399.0000 1.0000
38.3700 412.0000 1.0000
38.3800 427.0000 1.0000
38.3900 406.0000 1.0000
38.4000 383.0000 1.0000
38.4100 400.0000 1.0000
38.4200 386.0000 1.0000
38.4300 382.0000 1.0000
38.4400 391.0000 1.0000
38.4500 399.0000 1.0000
38.4600 384.0000 1.0000
38.4700 354.0000 1.0000
38.4800 402.0000 1.0000
38.4900 381.0000 1.0000
38.5000 382.0000 1.0000
38.5100 374.0000 1.0000
38.5200 352.0000 1.0000
38.5300 392.0000 1.0000
38.5400 365.0000 1.0000
38.5500 383.0000 1.0000
38.5600 346.0000 1.0000
38.5700 377.0000 1.0000
38.5800 340.0000 1.0000
38.5900 366.0000 1.0000
38.6000 373.0000 1.0000
38.6100 351.0000 1.0000
38.6200 358.0000 1.0000
38.6300 367.0000 1.0000
38.6400 367.0000 1.0000
38.6500 410.0000 1.0000
38.6600 360.0000 1.0000
38.6700 368.0000 1.0000
38.6800 393.0000 1.0000
38.6900 384.0000 1.0000
38.7000 386.0000 1.0000
38.7100 377.0000 1.0000
38.7200 342.0000 1.0000
38.7300 395.0000 1.0000
38.7400 379.0000 1.0000
38.7500 370.0000 1.0000
38.7600 360.0000 1.0000
38.7700 351.0000 1.0000
38.7800 354.0000 1.0000
38.7900 364.0000 1.0000
38.8000 381.0000 1.0000
38.8100 352.0000 1.0000
38.8200 384.0000 1.0000
38.8300 352.0000 1.0000
38.8400 373.0000 1.0000
38.8500 361.0000 1.0000
38.8600 309.0000 1.0000
38.8700 357.0000 1.0000
38.8800 379.0000 1.0000
38.8900 390.0000 1.0000
38.9000 364.0000 1.0000
38.9100 345.0000 1.0000
38.9200 348.0000 1.0000
38.9300 360.0000 1.0000
38.9400 368.0000 1.0000
38.9500 360.0000 1.0000
38.9600 344.0000 1.0000
38.9700 353.0000 1.0000
38.9800 349.0000 1.0000
38.9900 370.0000 1.0000
39.0000 337.0000 1.0000
39.0100 376.0000 1.0000
39.0200 355.0000 1.0000
39.0300 346.0000 1.0000
39.0400 346.0000 1.0000
39.0500 365.0000 1.0000
39.0600 336.0000 1.0000
39.0700 335.0000 1.0000
39.0800 339.0000 1.0000
39.0900 330.0000 1.0000
39.1000 335.0000 1.0000
39.1100 356.0000 1.0000
39.1200 401.0000 1.0000
39.1300 329.0000 1.0000
39.1400 360.0000 1.0000
39.1500 363.0000 1.0000
39.1600 358.0000 1.0000
39.1700 368.0000 1.0000
39.1800 353.0000 1.0000
39.1900 371.0000 1.0000
39.2000 338.0000 1.0000
39.2100 350.0000 1.0000
39.2200 332.0000 1.0000
39.2300 327.0000 1.0000
39.2400 366.0000 1.0000
39.2500 364.0000 1.0000
39.2600 304.0000 1.0000
39.2700 337.0000 1.0000
39.2800 328.0000 1.0000
39.2900 367.0000 1.0000
39.3000 355.0000 1.0000
39.3100 359.0000 1.0000
39.3200 344.0000 1.0000
39.3300 316.0000 1.0000
39.3400 340.0000 1.0000
39.3500 373.0000 1.0000
39.3600 376.0000 1.0000
39.3700 337.0000 1.0000
39.3800 340.0000 1.0000
39.3900 347.0000 1.0000
39.4000 331.0000 1.0000
39.4100 346.0000 1.0000
39.4200 331.0000 1.0000
39.4300 329.0000 1.0000
39.4400 336.0000 1.0000
39.4500 348.0000 1.0000
39.4600 333.0000 1.0000
39.4700 356.0000 1.0000
39.4800 314.0000 1.0000
39.4900 343.0000 1.0000
39.5000 353.0000 1.0000
39.5100 339.0000 1.0000
39.5200 344.0000 1.0000
39.5300 315.0000 1.0000
39.5400 329.0000 1.0000
39.5500 340.0000 1.0000
39.5600 363.0000 1.0000
39.5700 324.0000 1.0000
39.5800 363.0000 1.0000
39.5900 301.0000 1.0000
39.6000 312.0000 1.0000
39.6100 349.0000 1.0000
39.6200 336.0000 1.0000
39.6300 317.0000 1.0000
39.6400 334.0000 1.0000
39.6500 339.0000 1.0000
39.6600 328.0000 1.0000
39.6700 336.0000 1.0000
39.6800 318.0000 1.0000
39.6900 314.0000 1.0000
39.7000 326.0000 1.0000
39.7100 330.0000 1.0000
39.7200 321.0000 1.0000
39.7300 333.0000 1.0000
39.7400 352.0000 1.0000
39.7500 343.0000 1.0000
39.7600 339.0000 1.0000
39.7700 346.0000 1.0000
39.7800 341.0000 1.0000
39.7900 333.0000 1.0000
39.8000 353.0000 1.0000
39.8100 328.0000 1.0000
39.8200 331.0000 1.0000
39.8300 332.0000 1.0000
39.8400 324.0000 1.0000
39.8500 321.0000 1.0000
39.8600 311.0000 1.0000
39.8700 340.0000 1.0000
39.8800 358.0000 1.0000
39.8900 329.0000 1.0000
39.9000 354.0000 1.0000
39.9100 344.0000 1.0000
39.9200 368.0000 1.0000
39.9300 344.0000 1.0000
39.9400 326.0000 1.0000
39.9500 337.0000 1.0000
39.9600 326.0000 1.0000
39.9700 350.0000 1.0000
39.9800 344.0000 1.0000
39.9900 325.0000 1.0000
40.0000 325.0000 1.0000
40.0100 352.0000 1.0000
40.0200 330.0000 1.0000
40.0300 346.0000 1.0000
40.0400 335.0000 1.0000
40.0500 322.0000 1.0000
40.0600 356.0000 1.0000
40.0700 334.0000 1.0000
40.0800 318.0000 1.0000
40.0900 352.0000 1.0000
40.1000 359.0000 1.0000
40.1100 350.0000 1.0000
40.1200 332.0000 1.0000
40.1300 347.0000 1.0000
40.1400 354.0000 1.0000
40.1500 344.0000 1.0000
40.1600 329.0000 1.0000
40.1700 309.0000 1.0000
40.1800 348.0000 1.0000
40.1900 339.0000 1.0000
40.2000 356.0000 1.0000
40.2100 304.0000 1.0000
40.2200 332.0000 1.0000
40.2300 321.0000 1.0000
40.2400 357.0000 1.0000
40.2500 317.0000 1.0000
40.2600 337.0000 1.0000
40.2700 343.0000 1.0000
40.2800 313.0000 1.0000
40.2900 336.0000 1.0000
40.3000 366.0000 1.0000
40.3100 332.0000 1.0000
40.3200 343.0000 1.0000
40.3300 334.0000 1.0000
40.3400 327.0000 1.0000
40.3500 335.0000 1.0000
40.3600 341.0000 1.0000
40.3700 359.0000 1.0000
40.3800 359.0000 1.0000
40.3900 351.0000 1.0000
40.4000 347.0000 1.0000
40.4100 338.0000 1.0000
40.4200 335.0000 1.0000
40.4300 351.0000 1.0000
40.4400 330.0000 1.0000
40.4500 336.0000 1.0000
40.4600 333.0000 1.0000
40.4700 333.0000 1.0000
40.4800 347.0000 1.0000
40.4900 313.0000 1.0000
40.5000 311.0000 1.0000
40.5100 344.0000 1.0000
40.5200 324.0000 1.0000
40.5300 328.0000 1.0000
40.5400 338.0000 1.0000
40.5500 333.0000 1.0000
40.5600 350.0000 1.0000
40.5700 354.0000 1.0000
40.5800 348.0000 1.0000
40.5900 330.0000 1.0000
40.6000 340.0000 1.0000
40.6100 332.0000 1.0000
40.6200 354.0000 1.0000
40.6300 344.0000 1.0000
40.6400 339.0000 1.0000
40.6500 351.0000 1.0000
40.6600 335.0000 1.0000
40.6700 384.0000 1.0000
40.6800 357.0000 1.0000
40.6900 358.0000 1.0000
40.7000 367.0000 1.0000
40.7100 358.0000 1.0000
40.7200 352.0000 1.0000
40.7300 389.0000 1.0000
40.7400 366.0000 1.0000
40.7500 332.0000 1.0000
40.7600 353.0000 1.0000
40.7700 364.0000 1.0000
40.7800 384.0000 1.0000
40.7900 367.0000 1.0000
40.8000 340.0000 1.0000
40.8100 371.0000 1.0000
40.8200 379.0000 1.0000
40.8300 370.0000 1.0000
40.8400 385.0000 1.0000
40.8500 366.0000 1.0000
40.8600 354.0000 1.0000
40.8700 336.0000 1.0000
40.8800 348.0000 1.0000
40.8900 386.0000 1.0000
40.9000 329.0000 1.0000
40.9100 347.0000 1.0000
40.9200 300.0000 1.0000
40.9300 363.0000 1.0000
40.9400 368.0000 1.0000
40.9500 357.0000 1.0000
40.9600 355.0000 1.0000
40.9700 322.0000 1.0000
40.9800 332.0000 1.0000
40.9900 349.0000 1.0000
41.0000 325.0000 1.0000
41.0100 361.0000 1.0000
41.0200 354.0000 1.0000
41.0300 332.0000 1.0000
41.0400 321.0000 1.0000
41.0500 319.0000 1.0000
41.0600 324.0000 1.0000
41.0700 318.0000 1.0000
41.0800 322.0000 1.0000
41.0900 332.0000 1.0000
41.1000 315.0000 1.0000
41.1100 324.0000 1.0000
41.1200 309.0000 1.0000
41.1300 321.0000 1.0000
41.1400 299.0000 1.0000
41.1500 307.0000 1.0000
41.1600 333.0000 1.0000
41.1700 305.0000 1.0000
41.1800 336.0000 1.0000
41.1900 330.0000 1.0000
41.2000 330.0000 1.0000
41.2100 336.0000 1.0000
41.2200 313.0000 1.0000
41.2300 297.0000 1.0000
41.2400 336.0000 1.0000
41.2500 347.0000 1.0000
41.2600 312.0000 1.0000
41.2700 326.0000 1.0000
41.2800 325.0000 1.0000
41.2900 301.0000 1.0000
41.3000 306.0000 1.0000
41.3100 338.0000 1.0000
41.3200 355.0000 1.0000
41.3300 331.0000 1.0000
41.3400 363.0000 1.0000
41.3500 326.0000 1.0000
41.3600 309.0000 1.0000
41.3700 336.0000 1.0000
41.3800 325.0000 1.0000
41.3900 332.0000 1.0000
41.4000 307.0000 1.0000
41.4100 314.0000 1.0000
41.4200 297.0000 1.0000
41.4300 323.0000 1.0000
41.4400 301.0000 1.0000
41.4500 299.0000 1.0000
41.4600 312.0000 1.0000
41.4700 349.0000 1.0000
41.4800 328.0000 1.0000
41.4900 321.0000 1.0000
41.5000 320.0000 1.0000
41.5100 306.0000 1.0000
41.5200 321.0000 1.0000
41.5300 311.0000 1.0000
41.5400 310.0000 1.0000
41.5500 314.0000 1.0000
41.5600 317.0000 1.0000
41.5700 298.0000 1.0000
41.5800 329.0000 1.0000
41.5900 323.0000 1.0000
41.6000 353.0000 1.0000
41.6100 307.0000 1.0000
41.6200 331.0000 1.0000
41.6300 323.0000 1.0000
41.6400 329.0000 1.0000
41.6500 310.0000 1.0000
41.6600 313.0000 1.0000
41.6700 310.0000 1.0000
41.6800 297.0000 1.0000
41.6900 314.0000 1.0000
41.7000 325.0000 1.0000
41.7100 335.0000 1.0000
41.7200 334.0000 1.0000
41.7300 286.0000 1.0000
41.7400 327.0000 1.0000
41.7500 345.0000 1.0000
41.7600 318.0000 1.0000
41.7700 319.0000 1.0000
41.7800 328.0000 1.0000
41.7900 320.0000 1.0000
41.8000 308.0000 1.0000
41.8100 323.0000 1.0000
41.8200 325.0000 1.0000
41.8300 330.0000 1.0000
41.8400 329.0000 1.0000
41.8500 309.0000 1.0000
41.8600 295.0000 1.0000
41.8700 332.0000 1.0000
41.8800 336.0000 1.0000
41.8900 352.0000 1.0000
41.9000 337.0000 1.0000
41.9100 321.0000 1.0000
41.9200 302.0000 1.0000
41.9300 303.0000 1.0000
41.9400 332.0000 1.0000
41.9500 331.0000 1.0000
41.9600 302.0000 1.0000
41.9700 315.0000 1.0000
41.9800 312.0000 1.0000
41.9900 311.0000 1.0000
42.0000 343.0000 1.0000
42.0100 327.0000 1.0000
42.0200 329.0000 1.0000
42.0300 337.0000 1.0000
42.0400 315.0000 1.0000
42.0500 322.0000 1.0000
42.0600 333.0000 1.0000
42.0700 319.0000 1.0000
42.0800 292.0000 1.0000
42.0900 305.0000 1.0000
42.1000 299.0000 1.0000
42.1100 301.0000 1.0000
42.1200 307.0000 1.0000
42.1300 328.0000 1.0000
42.1400 340.0000 1.0000
42.1500 328.0000 1.0000
42.1600 316.0000 1.0000
42.1700 320.0000 1.0000
42.1800 325.0000 1.0000
42.1900 334.0000 1.0000
42.2000 320.0000 1.0000
42.2100 297.0000 1.0000
42.2200 331.0000 1.0000
42.2300 314.0000 1.0000
42.2400 342.0000 1.0000
42.2500 313.0000 1.0000
42.2600 342.0000 1.0000
42.2700 323.0000 1.0000
42.2800 307.0000 1.0000
42.2900 347.0000 1.0000
42.3000 330.0000 1.0000
42.3100 342.0000 1.0000
42.3200 291.0000 1.0000
42.3300 315.0000 1.0000
42.3400 335.0000 1.0000
42.3500 369.0000 1.0000
42.3600 342.0000 1.0000
42.3700 332.0000 1.0000
42.3800 323.0000 1.0000
42.3900 337.0000 1.0000
42.4000 335.0000 1.0000
42.4100 309.0000 1.0000
42.4200 337.0000 1.0000
42.4300 360.0000 1.0000
42.4400 322.0000 1.0000
42.4500 315.0000 1.0000
42.4600 349.0000 1.0000
42.4700 314.0000 1.0000
42.4800 318.0000 1.0000
42.4900 339.0000 1.0000
42.5000 308.0000 1.0000
42.5100 323.0000 1.0000
42.5200 341.0000 1.0000
42.5300 338.0000 1.0000
42.5400 310.0000 1.0000
42.5500 324.0000 1.0000
42.5600 308.0000 1.0000
42.5700 331.0000 1.0000
42.5800 306.0000 1.0000
42.5900 317.0000 1.0000
42.6000 336.0000 1.0000
42.6100 312.0000 1.0000
42.6200 320.0000 1.0000
42.6300 347.0000 1.0000
42.6400 329.0000 1.0000
42.6500 337.0000 1.0000
42.6600 354.0000 1.0000
42.6700 290.0000 1.0000
42.6800 318.0000 1.0000
42.6900 324.0000 1.0000
42.7000 329.0000 1.0000
42.7100 309.0000 1.0000
42.7200 299.0000 1.0000
42.7300 301.0000 1.0000
42.7400 315.0000 1.0000
42.7500 319.0000 1.0000
42.7600 333.0000 1.0000
42.7700 326.0000 1.0000
42.7800 315.0000 1.0000
42.7900 304.0000 1.0000
42.8000 309.0000 1.0000
42.8100 299.0000 1.0000
42.8200 316.0000 1.0000
42.8300 318.0000 1.0000
42.8400 339.0000 1.0000
42.8500 304.0000 1.0000
42.8600 306.0000 1.0000
42.8700 323.0000 1.0000
42.8800 309.0000 1.0000
42.8900 322.0000 1.0000
42.9000 298.0000 1.0000
42.9100 335.0000 1.0000
42.9200 341.0000 1.0000
42.9300 300.0000 1.0000
42.9400 313.0000 1.0000
42.9500 322.0000 1.0000
42.9600 336.0000 1.0000
42.9700 308.0000 1.0000
42.9800 300.0000 1.0000
42.9900 298.0000 1.0000
43.0000 313.0000 1.0000
43.0100 299.0000 1.0000
43.0200 293.0000 1.0000
43.0300 310.0000 1.0000
43.0400 306.0000 1.0000
43.0500 292.0000 1.0000
43.0600 297.0000 1.0000
43.0700 295.0000 1.0000
43.0800 278.0000 1.0000
43.0900 295.0000 1.0000
43.1000 321.0000 1.0000
43.1100 331.0000 1.0000
43.1200 328.0000 1.0000
43.1300 326.0000 1.0000
43.1400 309.0000 1.0000
43.1500 305.0000 1.0000
43.1600 312.0000 1.0000
43.1700 315.0000 1.0000
43.1800 296.0000 1.0000
43.1900 294.0000 1.0000
43.2000 307.0000 1.0000
43.2100 301.0000 1.0000
43.2200 315.0000 1.0000
43.2300 321.0000 1.0000
43.2400 312.0000 1.0000
43.2500 297.0000 1.0000
43.2600 276.0000 1.0000
43.2700 313.0000 1.0000
43.2800 301.0000 1.0000
43.2900 306.0000 1.0000
43.3000 293.0000 1.0000
43.3100 305.0000 1.0000
43.3200 321.0000 1.0000
43.3300 291.0000 1.0000
43.3400 307.0000 1.0000
43.3500 315.0000 1.0000
43.3600 298.0000 1.0000
43.3700 327.0000 1.0000
43.3800 307.0000 1.0000
43.3900 313.0000 1.0000
43.4000 280.0000 1.0000
43.4100 307.0000 1.0000
43.4200 292.0000 1.0000
43.4300 337.0000 1.0000
43.4400 318.0000 1.0000
43.4500 294.0000 1.0000
43.4600 299.0000 1.0000
43.4700 323.0000 1.0000
43.4800 326.0000 1.0000
43.4900 319.0000 1.0000
43.5000 303.0000 1.0000
43.5100 337.0000 1.0000
43.5200 295.0000 1.0000
43.5300 297.0000 1.0000
43.5400 321.0000 1.0000
43.5500 313.0000 1.0000
43.5600 336.0000 1.0000
43.5700 305.0000 1.0000
43.5800 302.0000 1.0000
43.5900 299.0000 1.0000
43.6000 309.0000 1.0000
43.6100 333.0000 1.0000
43.6200 326.0000 1.0000
43.6300 303.0000 1.0000
43.6400 286.0000 1.0000
43.6500 280.0000 1.0000
43.6600 296.0000 1.0000
43.6700 311.0000 1.0000
43.6800 301.0000 1.0000
43.6900 314.0000 1.0000
43.7000 292.0000 1.0000
43.7100 319.0000 1.0000
43.7200 306.0000 1.0000
43.7300 308.0000 1.0000
43.7400 293.0000 1.0000
43.7500 318.0000 1.0000
43.7600 320.0000 1.0000
43.7700 299.0000 1.0000
43.7800 289.0000 1.0000
43.7900 295.0000 1.0000
43.8000 294.0000 1.0000
43.8100 318.0000 1.0000
43.8200 309.0000 1.0000
43.8300 284.0000 1.0000
43.8400 286.0000 1.0000
43.8500 324.0000 1.0000
43.8600 317.0000 1.0000
43.8700 303.0000 1.0000
43.8800 313.0000 1.0000
43.8900 302.0000 1.0000
43.9000 266.0000 1.0000
43.9100 294.0000 1.0000
43.9200 282.0000 1.0000
43.9300 294.0000 1.0000
43.9400 295.0000 1.0000
43.9500 271.0000 1.0000
43.9600 294.0000 1.0000
43.9700 306.0000 1.0000
43.9800 322.0000 1.0000
43.9900 297.0000 1.0000
44.0000 298.0000 1.0000
44.0100 318.0000 1.0000
44.0200 321.0000 1.0000
44.0300 315.0000 1.0000
44.0400 284.0000 1.0000
44.0500 273.0000 1.0000
44.0600 258.0000 1.0000
44.0700 262.0000 1.0000
44.0800 302.0000 1.0000
44.0900 309.0000 1.0000
44.1000 319.0000 1.0000
44.1100 298.0000 1.0000
44.1200 286.0000 1.0000
44.1300 316.0000 1.0000
44.1400 310.0000 1.0000
44.1500 330.0000 1.0000
44.1600 308.0000 1.0000
44.1700 309.0000 1.0000
44.1800 307.0000 1.0000
44.1900 303.0000 1.0000
44.2000 325.0000 1.0000
44.2100 310.0000 1.0000
44.2200 303.0000 1.0000
44.2300 275.0000 1.0000
44.2400 312.0000 1.0000
44.2500 289.0000 1.0000
44.2600 322.0000 1.0000
44.2700 309.0000 1.0000
44.2800 300.0000 1.0000
44.2900 304.0000 1.0000
44.3000 304.0000 1.0000
44.3100 300.0000 1.0000
44.3200 276.0000 1.0000
44.3300 303.0000 1.0000
44.3400 299.0000 1.0000
44.3500 296.0000 1.0000
44.3600 317.0000 1.0000
44.3700 292.0000 1.0000
44.3800 308.0000 1.0000
44.3900 283.0000 1.0000
44.4000 284.0000 1.0000
44.4100 299.0000 1.0000
44.4200 304.0000 1.0000
44.4300 287.0000 1.0000
44.4400 302.0000 1.0000
44.4500 298.0000 1.0000
44.4600 273.0000 1.0000
44.4700 302.0000 1.0000
44.4800 296.0000 1.0000
44.4900 287.0000 1.0000
44.5000 294.0000 1.0000
44.5100 308.0000 1.0000
44.5200 302.0000 1.0000
44.5300 295.0000 1.0000
44.5400 269.0000 1.0000
44.5500 324.0000 1.0000
44.5600 312.0000 1.0000
44.5700 296.0000 1.0000
44.5800 291.0000 1.0000
44.5900 298.0000 1.0000
44.6000 303.0000 1.0000
44.6100 288.0000 1.0000
44.6200 296.0000 1.0000
44.6300 284.0000 1.0000
44.6400 306.0000 1.0000
44.6500 345.0000 1.0000
44.6600 310.0000 1.0000
44.6700 301.0000 1.0000
44.6800 290.0000 1.0000
44.6900 285.0000 1.0000
44.7000 316.0000 1.0000
44.7100 308.0000 1.0000
44.7200 290.0000 1.0000
44.7300 323.0000 1.0000
44.7400 296.0000 1.0000
44.7500 305.0000 1.0000
44.7600 297.0000 1.0000
44.7700 270.0000 1.0000
44.7800 290.0000 1.0000
44.7900 268.0000 1.0000
44.8000 327.0000 1.0000
44.8100 272.0000 1.0000
44.8200 280.0000 1.0000
44.8300 315.0000 1.0000
44.8400 309.0000 1.0000
44.8500 267.0000 1.0000
44.8600 304.0000 1.0000
44.8700 288.0000 1.0000
44.8800 289.0000 1.0000
44.8900 287.0000 1.0000
44.9000 292.0000 1.0000
44.9100 320.0000 1.0000
44.9200 296.0000 1.0000
44.9300 274.0000 1.0000
44.9400 314.0000 1.0000
44.9500 287.0000 1.0000
44.9600 274.0000 1.0000
44.9700 275.0000 1.0000
44.9800 305.0000 1.0000
44.9900 300.0000 1.0000
45.0000 295.0000 1.0000
45.0100 295.0000 1.0000
45.0200 274.0000 1.0000
45.0300 285.0000 1.0000
45.0400 292.0000 1.0000
45.0500 279.0000 1.0000
45.0600 297.0000 1.0000
45.0700 313.0000 1.0000
45.0800 299.0000 1.0000
45.0900 338.0000 1.0000
45.1000 306.0000 1.0000
45.1100 295.0000 1.0000
45.1200 307.0000 1.0000
45.1300 291.0000 1.0000
45.1400 298.0000 1.0000
45.1500 289.0000 1.0000
45.1600 289.0000 1.0000
45.1700 291.0000 1.0000
45.1800 282.0000 1.0000
45.1900 290.0000 1.0000
45.2000 292.0000 1.0000
45.2100 277.0000 1.0000
45.2200 289.0000 1.0000
45.2300 287.0000 1.0000
45.2400 281.0000 1.0000
45.2500 288.0000 1.0000
45.2600 271.0000 1.0000
45.2700 290.0000 1.0000
45.2800 292.0000 1.0000
45.2900 283.0000 1.0000
45.3000 266.0000 1.0000
45.3100 279.0000 1.0000
45.3200 261.0000 1.0000
45.3300 281.0000 1.0000
45.3400 254.0000 1.0000
45.3500 268.0000 1.0000
45.3600 284.0000 1.0000
45.3700 270.0000 1.0000
45.3800 289.0000 1.0000
45.3900 291.0000 1.0000
45.4000 301.0000 1.0000
45.4100 280.0000 1.0000
45.4200 293.0000 1.0000
45.4300 265.0000 1.0000
45.4400 287.0000 1.0000
45.4500 290.0000 1.0000
45.4600 308.0000 1.0000
45.4700 281.0000 1.0000
45.4800 323.0000 1.0000
45.4900 311.0000 1.0000
45.5000 301.0000 1.0000
45.5100 306.0000 1.0000
45.5200 283.0000 1.0000
45.5300 305.0000 1.0000
45.5400 289.0000 1.0000
45.5500 308.0000 1.0000
45.5600 284.0000 1.0000
45.5700 305.0000 1.0000
45.5800 295.0000 1.0000
45.5900 281.0000 1.0000
45.6000 307.0000 1.0000
45.6100 279.0000 1.0000
45.6200 295.0000 1.0000
45.6300 267.0000 1.0000
45.6400 285.0000 1.0000
45.6500 279.0000 1.0000
45.6600 291.0000 1.0000
45.6700 299.0000 1.0000
45.6800 273.0000 1.0000
45.6900 295.0000 1.0000
45.7000 292.0000 1.0000
45.7100 297.0000 1.0000
45.7200 268.0000 1.0000
45.7300 263.0000 1.0000
45.7400 269.0000 1.0000
45.7500 272.0000 1.0000
45.7600 285.0000 1.0000
45.7700 295.0000 1.0000
45.7800 274.0000 1.0000
45.7900 308.0000 1.0000
45.8000 285.0000 1.0000
45.8100 277.0000 1.0000
45.8200 285.0000 1.0000
45.8300 321.0000 1.0000
45.8400 284.0000 1.0000
45.8500 286.0000 1.0000
45.8600 281.0000 1.0000
45.8700 294.0000 1.0000
45.8800 284.0000 1.0000
45.8900 300.0000 1.0000
45.9000 309.0000 1.0000
45.9100 295.0000 1.0000
45.9200 289.0000 1.0000
45.9300 289.0000 1.0000
45.9400 293.0000 1.0000
45.9500 308.0000 1.0000
45.9600 282.0000 1.0000
45.9700 299.0000 1.0000
45.9800 305.0000 1.0000
45.9900 285.0000 1.0000
46.0000 273.0000 1.0000
46.0100 273.0000 1.0000
46.0200 276.0000 1.0000
46.0300 287.0000 1.0000
46.0400 285.0000 1.0000
46.0500 317.0000 1.0000
46.0600 303.0000 1.0000
46.0700 315.0000 1.0000
46.0800 301.0000 1.0000
46.0900 287.0000 1.0000
46.1000 296.0000 1.0000
46.1100 293.0000 1.0000
46.1200 276.0000 1.0000
46.1300 299.0000 1.0000
46.1400 287.0000 1.0000
46.1500 291.0000 1.0000
46.1600 305.0000 1.0000
46.1700 310.0000 1.0000
46.1800 291.0000 1.0000
46.1900 285.0000 1.0000
46.2000 308.0000 1.0000
46.2100 292.0000 1.0000
46.2200 319.0000 1.0000
46.2300 292.0000 1.0000
46.2400 275.0000 1.0000
46.2500 293.0000 1.0000
46.2600 293.0000 1.0000
46.2700 251.0000 1.0000
46.2800 280.0000 1.0000
46.2900 274.0000 1.0000
46.3000 273.0000 1.0000
46.3100 288.0000 1.0000
46.3200 270.0000 1.0000
46.3300 299.0000 1.0000
46.3400 294.0000 1.0000
46.3500 313.0000 1.0000
46.3600 285.0000 1.0000
46.3700 270.0000 1.0000
46.3800 283.0000 1.0000
46.3900 282.0000 1.0000
46.4000 278.0000 1.0000
46.4100 292.0000 1.0000
46.4200 272.0000 1.0000
46.4300 283.0000 1.0000
46.4400 270.0000 1.0000
46.4500 277.0000 1.0000
46.4600 287.0000 1.0000
46.4700 295.0000 1.0000
46.4800 292.0000 1.0000
46.4900 275.0000 1.0000
46.5000 285.0000 1.0000
46.5100 289.0000 1.0000
46.5200 282.0000 1.0000
46.5300 306.0000 1.0000
46.5400 264.0000 1.0000
46.5500 272.0000 1.0000
46.5600 255.0000 1.0000
46.5700 281.0000 1.0000
46.5800 292.0000 1.0000
46.5900 298.0000 1.0000
46.6000 276.0000 1.0000
46.6100 272.0000 1.0000
46.6200 296.0000 1.0000
46.6300 286.0000 1.0000
46.6400 280.0000 1.0000
46.6500 264.0000 1.0000
46.6600 290.0000 1.0000
46.6700 305.0000 1.0000
46.6800 290.0000 1.0000
46.6900 289.0000 1.0000
46.7000 306.0000 1.0000
46.7100 296.0000 1.0000
46.7200 283.0000 1.0000
46.7300 273.0000 1.0000
46.7400 284.0000 1.0000
46.7500 267.0000 1.0000
46.7600 282.0000 1.0000
46.7700 286.0000 1.0000
46.7800 225.0000 1.0000
46.7900 269.0000 1.0000
46.8000 284.0000 1.0000
46.8100 273.0000 1.0000
46.8200 275.0000 1.0000
46.8300 282.0000 1.0000
46.8400 303.0000 1.0000
46.8500 288.0000 1.0000
46.8600 287.0000 1.0000
46.8700 273.0000 1.0000
46.8800 284.0000 1.0000
46.8900 290.0000 1.0000
46.9000 263.0000 1.0000
46.9100 281.0000 1.0000
46.9200 291.0000 1.0000
46.9300 268.0000 1.0000
46.9400 265.0000 1.0000
46.9500 259.0000 1.0000
46.9600 252.0000 1.0000
46.9700 272.0000 1.0000
46.9800 276.0000 1.0000
46.9900 269.0000 1.0000
47.0000 278.0000 1.0000
47.0100 250.0000 1.0000
47.0200 269.0000 1.0000
47.0300 279.0000 1.0000
47.0400 267.0000 1.0000
47.0500 277.0000 1.0000
47.0600 279.0000 1.0000
47.0700 291.0000 1.0000
47.0800 290.0000 1.0000
47.0900 269.0000 1.0000
47.1000 253.0000 1.0000
47.1100 281.0000 1.0000
47.1200 272.0000 1.0000
47.1300 257.0000 1.0000
47.1400 287.0000 1.0000
47.1500 288.0000 1.0000
47.1600 283.0000 1.0000
47.1700 262.0000 1.0000
47.1800 271.0000 1.0000
47.1900 305.0000 1.0000
47.2000 268.0000 1.0000
47.2100 284.0000 1.0000
47.2200 271.0000 1.0000
47.2300 269.0000 1.0000
47.2400 297.0000 1.0000
47.2500 270.0000 1.0000
47.2600 282.0000 1.0000
47.2700 251.0000 1.0000
47.2800 281.0000 1.0000
47.2900 274.0000 1.0000
47.3000 297.0000 1.0000
47.3100 297.0000 1.0000
47.3200 281.0000 1.0000
47.3300 287.0000 1.0000
47.3400 260.0000 1.0000
47.3500 251.0000 1.0000
47.3600 292.0000 1.0000
47.3700 276.0000 1.0000
47.3800 271.0000 1.0000
47.3900 286.0000 1.0000
47.4000 293.0000 1.0000
47.4100 250.0000 1.0000
47.4200 279.0000 1.0000
47.4300 293.0000 1.0000
47.4400 266.0000 1.0000
47.4500 277.0000 1.0000
47.4600 287.0000 1.0000
47.4700 315.0000 1.0000
47.4800 273.0000 1.0000
47.4900 270.0000 1.0000
47.5000 285.0000 1.0000
47.5100 263.0000 1.0000
47.5200 282.0000 1.0000
47.5300 242.0000 1.0000
47.5400 292.0000 1.0000
47.5500 280.0000 1.0000
47.5600 282.0000 1.0000
47.5700 270.0000 1.0000
47.5800 293.0000 1.0000
47.5900 288.0000 1.0000
47.6000 333.0000 1.0000
47.6100 252.0000 1.0000
47.6200 270.0000 1.0000
47.6300 292.0000 1.0000
47.6400 277.0000 1.0000
47.6500 266.0000 1.0000
47.6600 265.0000 1.0000
47.6700 269.0000 1.0000
47.6800 259.0000 1.0000
47.6900 262.0000 1.0000
47.7000 275.0000 1.0000
47.7100 268.0000 1.0000
47.7200 246.0000 1.0000
47.7300 249.0000 1.0000
47.7400 255.0000 1.0000
47.7500 294.0000 1.0000
47.7600 270.0000 1.0000
47.7700 268.0000 1.0000
47.7800 280.0000 1.0000
47.7900 285.0000 1.0000
47.8000 258.0000 1.0000
47.8100 260.0000 1.0000
47.8200 297.0000 1.0000
47.8300 261.0000 1.0000
47.8400 293.0000 1.0000
47.8500 251.0000 1.0000
47.8600 241.0000 1.0000
47.8700 303.0000 1.0000
47.8800 272.0000 1.0000
47.8900 285.0000 1.0000
47.9000 273.0000 1.0000
47.9100 257.0000 1.0000
47.9200 277.0000 1.0000
47.9300 261.0000 1.0000
47.9400 267.0000 1.0000
47.9500 281.0000 1.0000
47.9600 248.0000 1.0000
47.9700 233.0000 1.0000
47.9800 253.0000 1.0000
47.9900 273.0000 1.0000
48.0000 267.0000 1.0000
48.0100 252.0000 1.0000
48.0200 288.0000 1.0000
48.0300 285.0000 1.0000
48.0400 287.0000 1.0000
48.0500 274.0000 1.0000
48.0600 264.0000 1.0000
48.0700 269.0000 1.0000
48.0800 290.0000 1.0000
48.0900 282.0000 1.0000
48.1000 266.0000 1.0000
48.1100 274.0000 1.0000
48.1200 287.0000 1.0000
48.1300 272.0000 1.0000
48.1400 289.0000 1.0000
48.1500 291.0000 1.0000
48.1600 289.0000 1.0000
48.1700 277.0000 1.0000
48.1800 249.0000 1.0000
48.1900 256.0000 1.0000
48.2000 263.0000 1.0000
48.2100 255.0000 1.0000
48.2200 258.0000 1.0000
48.2300 259.0000 1.0000
48.2400 276.0000 1.0000
48.2500 277.0000 1.0000
48.2600 258.0000 1.0000
48.2700 283.0000 1.0000
48.2800 267.0000 1.0000
48.2900 275.0000 1.0000
48.3000 275.0000 1.0000
48.3100 270.0000 1.0000
48.3200 260.0000 1.0000
48.3300 268.0000 1.0000
48.3400 273.0000 1.0000
48.3500 274.0000 1.0000
48.3600 270.0000 1.0000
48.3700 266.0000 1.0000
48.3800 266.0000 1.0000
48.3900 260.0000 1.0000
48.4000 254.0000 1.0000
48.4100 291.0000 1.0000
48.4200 264.0000 1.0000
48.4300 266.0000 1.0000
48.4400 270.0000 1.0000
48.4500 255.0000 1.0000
48.4600 279.0000 1.0000
48.4700 264.0000 1.0000
48.4800 269.0000 1.0000
48.4900 257.0000 1.0000
48.5000 286.0000 1.0000
48.5100 275.0000 1.0000
48.5200 265.0000 1.0000
48.5300 254.0000 1.0000
48.5400 262.0000 1.0000
48.5500 252.0000 1.0000
48.5600 267.0000 1.0000
48.5700 254.0000 1.0000
48.5800 284.0000 1.0000
48.5900 261.0000 1.0000
48.6000 288.0000 1.0000
48.6100 256.0000 1.0000
48.6200 271.0000 1.0000
48.6300 258.0000 1.0000
48.6400 280.0000 1.0000
48.6500 248.0000 1.0000
48.6600 277.0000 1.0000
48.6700 270.0000 1.0000
48.6800 266.0000 1.0000
48.6900 256.0000 1.0000
48.7000 281.0000 1.0000
48.7100 277.0000 1.0000
48.7200 287.0000 1.0000
48.7300 270.0000 1.0000
48.7400 287.0000 1.0000
48.7500 280.0000 1.0000
48.7600 292.0000 1.0000
48.7700 260.0000 1.0000
48.7800 261.0000 1.0000
48.7900 282.0000 1.0000
48.8000 268.0000 1.0000
48.8100 288.0000 1.0000
48.8200 272.0000 1.0000
48.8300 278.0000 1.0000
48.8400 283.0000 1.0000
48.8500 254.0000 1.0000
48.8600 267.0000 1.0000
48.8700 255.0000 1.0000
48.8800 274.0000 1.0000
48.8900 265.0000 1.0000
48.9000 276.0000 1.0000
48.9100 280.0000 1.0000
48.9200 266.0000 1.0000
48.9300 288.0000 1.0000
48.9400 259.0000 1.0000
48.9500 292.0000 1.0000
48.9600 278.0000 1.0000
48.9700 273.0000 1.0000
48.9800 290.0000 1.0000
48.9900 267.0000 1.0000
49.0000 267.0000 1.0000
49.0100 251.0000 1.0000
49.0200 251.0000 1.0000
49.0300 266.0000 1.0000
49.0400 277.0000 1.0000
49.0500 260.0000 1.0000
49.0600 280.0000 1.0000
49.0700 249.0000 1.0000
49.0800 245.0000 1.0000
49.0900 255.0000 1.0000
49.1000 271.0000 1.0000
49.1100 274.0000 1.0000
49.1200 246.0000 1.0000
49.1300 270.0000 1.0000
49.1400 275.0000 1.0000
49.1500 261.0000 1.0000
49.1600 291.0000 1.0000
49.1700 268.0000 1.0000
49.1800 272.0000 1.0000
49.1900 234.0000 1.0000
49.2000 258.0000 1.0000
49.2100 259.0000 1.0000
49.2200 258.0000 1.0000
49.2300 286.0000 1.0000
49.2400 276.0000 1.0000
49.2500 269.0000 1.0000
49.2600 256.0000 1.0000
49.2700 276.0000 1.0000
49.2800 295.0000 1.0000
49.2900 303.0000 1.0000
49.3000 293.0000 1.0000
49.3100 319.0000 1.0000
49.3200 297.0000 1.0000
49.3300 319.0000 1.0000
49.3400 316.0000 1.0000
49.3500 318.0000 1.0000
49.3600 295.0000 1.0000
49.3700 295.0000 1.0000
49.3800 307.0000 1.0000
49.3900 308.0000 1.0000
49.4000 312.0000 1.0000
49.4100 303.0000 1.0000
49.4200 311.0000 1.0000
49.4300 311.0000 1.0000
49.4400 321.0000 1.0000
49.4500 313.0000 1.0000
49.4600 312.0000 1.0000
49.4700 313.0000 1.0000
49.4800 321.0000 1.0000
49.4900 303.0000 1.0000
49.5000 300.0000 1.0000
49.5100 268.0000 1.0000
49.5200 299.0000 1.0000
49.5300 297.0000 1.0000
49.5400 291.0000 1.0000
49.5500 327.0000 1.0000
49.5600 303.0000 1.0000
49.5700 285.0000 1.0000
49.5800 311.0000 1.0000
49.5900 288.0000 1.0000
49.6000 275.0000 1.0000
49.6100 284.0000 1.0000
49.6200 308.0000 1.0000
49.6300 291.0000 1.0000
49.6400 255.0000 1.0000
49.6500 287.0000 1.0000
49.6600 275.0000 1.0000
49.6700 262.0000 1.0000
49.6800 267.0000 1.0000
49.6900 276.0000 1.0000
49.7000 282.0000 1.0000
49.7100 279.0000 1.0000
49.7200 273.0000 1.0000
49.7300 294.0000 1.0000
49.7400 267.0000 1.0000
49.7500 258.0000 1.0000
49.7600 282.0000 1.0000
49.7700 273.0000 1.0000
49.7800 283.0000 1.0000
49.7900 286.0000 1.0000
49.8000 268.0000 1.0000
49.8100 231.0000 1.0000
49.8200 267.0000 1.0000
49.8300 263.0000 1.0000
49.8400 290.0000 1.0000
49.8500 261.0000 1.0000
49.8600 279.0000 1.0000
49.8700 264.0000 1.0000
49.8800 250.0000 1.0000
49.8900 267.0000 1.0000
49.9000 294.0000 1.0000
49.9100 255.0000 1.0000
49.9200 259.0000 1.0000
49.9300 267.0000 1.0000
49.9400 278.0000 1.0000
49.9500 265.0000 1.0000
49.9600 255.0000 1.0000
49.9700 264.0000 1.0000
49.9800 252.0000 1.0000
49.9900 256.0000 1.0000
50.0000 292.0000 1.0000
50.0100 278.0000 1.0000
50.0200 267.0000 1.0000
50.0300 279.0000 1.0000
50.0400 278.0000 1.0000
50.0500 293.0000 1.0000
50.0600 301.0000 1.0000
50.0700 276.0000 1.0000
50.0800 252.0000 1.0000
50.0900 260.0000 1.0000
50.1000 254.0000 1.0000
50.1100 260.0000 1.0000
50.1200 296.0000 1.0000
50.1300 287.0000 1.0000
50.1400 253.0000 1.0000
50.1500 259.0000 1.0000
50.1600 251.0000 1.0000
50.1700 273.0000 1.0000
50.1800 237.0000 1.0000
50.1900 258.0000 1.0000
50.2000 267.0000 1.0000
50.2100 269.0000 1.0000
50.2200 275.0000 1.0000
50.2300 296.0000 1.0000
50.2400 274.0000 1.0000
50.2500 269.0000 1.0000
50.2600 243.0000 1.0000
50.2700 265.0000 1.0000
50.2800 266.0000 1.0000
50.2900 256.0000 1.0000
50.3000 272.0000 1.0000
50.3100 281.0000 1.0000
50.3200 249.0000 1.0000
50.3300 253.0000 1.0000
50.3400 279.0000 1.0000
50.3500 262.0000 1.0000
50.3600 266.0000 1.0000
50.3700 263.0000 1.0000
50.3800 258.0000 1.0000
50.3900 288.0000 1.0000
50.4000 290.0000 1.0000
50.4100 277.0000 1.0000
50.4200 274.0000 1.0000
50.4300 290.0000 1.0000
50.4400 257.0000 1.0000
50.4500 262.0000 1.0000
50.4600 263.0000 1.0000
50.4700 290.0000 1.0000
50.4800 271.0000 1.0000
50.4900 263.0000 1.0000
50.5000 254.0000 1.0000
50.5100 284.0000 1.0000
50.5200 270.0000 1.0000
50.5300 283.0000 1.0000
50.5400 239.0000 1.0000
50.5500 265.0000 1.0000
50.5600 277.0000 1.0000
50.5700 277.0000 1.0000
50.5800 278.0000 1.0000
50.5900 260.0000 1.0000
50.6000 247.0000 1.0000
50.6100 284.0000 1.0000
50.6200 292.0000 1.0000
50.6300 274.0000 1.0000
50.6400 264.0000 1.0000
50.6500 264.0000 1.0000
50.6600 258.0000 1.0000
50.6700 267.0000 1.0000
50.6800 296.0000 1.0000
50.6900 280.0000 1.0000
50.7000 281.0000 1.0000
50.7100 286.0000 1.0000
50.7200 264.0000 1.0000
50.7300 257.0000 1.0000
50.7400 271.0000 1.0000
50.7500 266.0000 1.0000
50.7600 267.0000 1.0000
50.7700 264.0000 1.0000
50.7800 287.0000 1.0000
50.7900 259.0000 1.0000
50.8000 276.0000 1.0000
50.8100 286.0000 1.0000
50.8200 276.0000 1.0000
50.8300 271.0000 1.0000
50.8400 271.0000 1.0000
50.8500 256.0000 1.0000
50.8600 257.0000 1.0000
50.8700 270.0000 1.0000
50.8800 273.0000 1.0000
50.8900 254.0000 1.0000
50.9000 256.0000 1.0000
50.9100 264.0000 1.0000
50.9200 307.0000 1.0000
50.9300 294.0000 1.0000
50.9400 281.0000 1.0000
50.9500 255.0000 1.0000
50.9600 257.0000 1.0000
50.9700 312.0000 1.0000
50.9800 268.0000 1.0000
50.9900 312.0000 1.0000
51.0000 300.0000 1.0000
51.0100 272.0000 1.0000
51.0200 256.0000 1.0000
51.0300 295.0000 1.0000
51.0400 279.0000 1.0000
51.0500 284.0000 1.0000
51.0600 298.0000 1.0000
51.0700 274.0000 1.0000
51.0800 282.0000 1.0000
51.0900 320.0000 1.0000
51.1000 272.0000 1.0000
51.1100 305.0000 1.0000
51.1200 336.0000 1.0000
51.1300 328.0000 1.0000
51.1400 345.0000 1.0000
51.1500 297.0000 1.0000
51.1600 327.0000 1.0000
51.1700 340.0000 1.0000
51.1800 333.0000 1.0000
51.1900 324.0000 1.0000
51.2000 346.0000 1.0000
51.2100 374.0000 1.0000
51.2200 365.0000 1.0000
51.2300 364.0000 1.0000
51.2400 361.0000 1.0000
51.2500 418.0000 1.0000
51.2600 367.0000 1.0000
51.2700 442.0000 1.0000
51.2800 434.0000 1.0000
51.2900 461.0000 1.0000
51.3000 514.0000 1.0000
51.3100 522.0000 1.0000
51.3200 509.0000 1.0000
51.3300 565.0000 1.0000
51.3400 602.0000 1.0000
51.3500 607.0000 1.0000
51.3600 621.0000 1.0000
51.3700 676.0000 1.0000
51.3800 713.0000 1.0000
51.3900 738.0000 1.0000
51.4000 781.0000 1.0000
51.4100 789.0000 1.0000
51.4200 829.0000 1.0000
51.4300 898.0000 1.0000
51.4400 891.0000 1.0000
51.4500 884.0000 1.0000
51.4600 887.0000 1.0000
51.4700 891.0000 1.0000
51.4800 908.0000 1.0000
51.4900 966.0000 1.0000
51.5000 958.0000 1.0000
51.5100 896.0000 1.0000
51.5200 828.0000 1.0000
51.5300 864.0000 1.0000
51.5400 873.0000 1.0000
51.5500 822.0000 1.0000
51.5600 847.0000 1.0000
51.5700 820.0000 1.0000
51.5800 798.0000 1.0000
51.5900 766.0000 1.0000
51.6000 718.0000 1.0000
51.6100 706.0000 1.0000
51.6200 716.0000 1.0000
51.6300 632.0000 1.0000
51.6400 603.0000 1.0000
51.6500 560.0000 1.0000
51.6600 584.0000 1.0000
51.6700 528.0000 1.0000
51.6800 559.0000 1.0000
51.6900 551.0000 1.0000
51.7000 502.0000 1.0000
51.7100 463.0000 1.0000
51.7200 487.0000 1.0000
51.7300 464.0000 1.0000
51.7400 420.0000 1.0000
51.7500 407.0000 1.0000
51.7600 413.0000 1.0000
51.7700 385.0000 1.0000
51.7800 364.0000 1.0000
51.7900 390.0000 1.0000
51.8000 396.0000 1.0000
51.8100 342.0000 1.0000
51.8200 355.0000 1.0000
51.8300 336.0000 1.0000
51.8400 312.0000 1.0000
51.8500 341.0000 1.0000
51.8600 305.0000 1.0000
51.8700 350.0000 1.0000
51.8800 345.0000 1.0000
51.8900 322.0000 1.0000
51.9000 320.0000 1.0000
51.9100 313.0000 1.0000
51.9200 342.0000 1.0000
51.9300 289.0000 1.0000
51.9400 316.0000 1.0000
51.9500 310.0000 1.0000
51.9600 286.0000 1.0000
51.9700 298.0000 1.0000
51.9800 287.0000 1.0000
51.9900 312.0000 1.0000
52.0000 292.0000 1.0000
52.0100 325.0000 1.0000
52.0200 301.0000 1.0000
52.0300 262.0000 1.0000
52.0400 266.0000 1.0000
52.0500 297.0000 1.0000
52.0600 282.0000 1.0000
52.0700 264.0000 1.0000
52.0800 264.0000 1.0000
52.0900 296.0000 1.0000
52.1000 290.0000 1.0000
52.1100 307.0000 1.0000
52.1200 287.0000 1.0000
52.1300 286.0000 1.0000
52.1400 261.0000 1.0000
52.1500 264.0000 1.0000
52.1600 288.0000 1.0000
52.1700 290.0000 1.0000
52.1800 315.0000 1.0000
52.1900 266.0000 1.0000
52.2000 269.0000 1.0000
52.2100 269.0000 1.0000
52.2200 270.0000 1.0000
52.2300 291.0000 1.0000
52.2400 256.0000 1.0000
52.2500 265.0000 1.0000
52.2600 286.0000 1.0000
52.2700 299.0000 1.0000
52.2800 296.0000 1.0000
52.2900 270.0000 1.0000
52.3000 271.0000 1.0000
52.3100 290.0000 1.0000
52.3200 252.0000 1.0000
52.3300 276.0000 1.0000
52.3400 267.0000 1.0000
52.3500 296.0000 1.0000
52.3600 298.0000 1.0000
52.3700 296.0000 1.0000
52.3800 272.0000 1.0000
52.3900 271.0000 1.0000
52.4000 270.0000 1.0000
52.4100 277.0000 1.0000
52.4200 256.0000 1.0000
52.4300 255.0000 1.0000
52.4400 279.0000 1.0000
52.4500 284.0000 1.0000
52.4600 280.0000 1.0000
52.4700 261.0000 1.0000
52.4800 250.0000 1.0000
52.4900 285.0000 1.0000
52.5000 260.0000 1.0000
52.5100 259.0000 1.0000
52.5200 272.0000 1.0000
52.5300 269.0000 1.0000
52.5400 236.0000 1.0000
52.5500 278.0000 1.0000
52.5600 272.0000 1.0000
52.5700 274.0000 1.0000
52.5800 279.0000 1.0000
52.5900 254.0000 1.0000
52.6000 261.0000 1.0000
52.6100 256.0000 1.0000
52.6200 268.0000 1.0000
52.6300 255.0000 1.0000
52.6400 232.0000 1.0000
52.6500 267.0000 1.0000
52.6600 259.0000 1.0000
52.6700 259.0000 1.0000
52.6800 255.0000 1.0000
52.6900 253.0000 1.0000
52.7000 267.0000 1.0000
52.7100 265.0000 1.0000
52.7200 266.0000 1.0000
52.7300 248.0000 1.0000
52.7400 269.0000 1.0000
52.7500 252.0000 1.0000
52.7600 233.0000 1.0000
52.7700 261.0000 1.0000
52.7800 274.0000 1.0000
52.7900 264.0000 1.0000
52.8000 244.0000 1.0000
52.8100 247.0000 1.0000
52.8200 257.0000 1.0000
52.8300 260.0000 1.0000
52.8400 265.0000 1.0000
52.8500 256.0000 1.0000
52.8600 280.0000 1.0000
52.8700 251.0000 1.0000
52.8800 249.0000 1.0000
52.8900 271.0000 1.0000
52.9000 252.0000 1.0000
52.9100 225.0000 1.0000
52.9200 269.0000 1.0000
52.9300 248.0000 1.0000
52.9400 249.0000 1.0000
52.9500 269.0000 1.0000
52.9600 286.0000 1.0000
52.9700 246.0000 1.0000
52.9800 245.0000 1.0000
52.9900 267.0000 1.0000
53.0000 250.0000 1.0000
53.0100 242.0000 1.0000
53.0200 258.0000 1.0000
53.0300 256.0000 1.0000
53.0400 257.0000 1.0000
53.0500 255.0000 1.0000
53.0600 255.0000 1.0000
53.0700 265.0000 1.0000
53.0800 216.0000 1.0000
53.0900 271.0000 1.0000
53.1000 279.0000 1.0000
53.1100 257.0000 1.0000
53.1200 233.0000 1.0000
53.1300 257.0000 1.0000
53.1400 259.0000 1.0000
53.1500 250.0000 1.0000
53.1600 244.0000 1.0000
53.1700 249.0000 1.0000
53.1800 253.0000 1.0000
53.1900 273.0000 1.0000
53.2000 263.0000 1.0000
53.2100 252.0000 1.0000
53.2200 242.0000 1.0000
53.2300 231.0000 1.0000
53.2400 259.0000 1.0000
53.2500 265.0000 1.0000
53.2600 254.0000 1.0000
53.2700 232.0000 1.0000
53.2800 245.0000 1.0000
53.2900 256.0000 1.0000
53.3000 253.0000 1.0000
53.3100 282.0000 1.0000
53.3200 257.0000 1.0000
53.3300 261.0000 1.0000
53.3400 280.0000 1.0000
53.3500 257.0000 1.0000
53.3600 231.0000 1.0000
53.3700 241.0000 1.0000
53.3800 251.0000 1.0000
53.3900 255.0000 1.0000
53.4000 250.0000 1.0000
53.4100 248.0000 1.0000
53.4200 256.0000 1.0000
53.4300 252.0000 1.0000
53.4400 246.0000 1.0000
53.4500 240.0000 1.0000
53.4600 264.0000 1.0000
53.4700 273.0000 1.0000
53.4800 268.0000 1.0000
53.4900 224.0000 1.0000
53.5000 247.0000 1.0000
53.5100 253.0000 1.0000
53.5200 250.0000 1.0000
53.5300 237.0000 1.0000
53.5400 273.0000 1.0000
53.5500 271.0000 1.0000
53.5600 279.0000 1.0000
53.5700 237.0000 1.0000
53.5800 258.0000 1.0000
53.5900 256.0000 1.0000
53.6000 242.0000 1.0000
53.6100 267.0000 1.0000
53.6200 258.0000 1.0000
53.6300 249.0000 1.0000
53.6400 264.0000 1.0000
53.6500 279.0000 1.0000
53.6600 248.0000 1.0000
53.6700 263.0000 1.0000
53.6800 238.0000 1.0000
53.6900 274.0000 1.0000
53.7000 258.0000 1.0000
53.7100 281.0000 1.0000
53.7200 251.0000 1.0000
53.7300 262.0000 1.0000
53.7400 265.0000 1.0000
53.7500 259.0000 1.0000
53.7600 295.0000 1.0000
53.7700 272.0000 1.0000
53.7800 262.0000 1.0000
53.7900 250.0000 1.0000
53.8000 264.0000 1.0000
53.8100 268.0000 1.0000
53.8200 317.0000 1.0000
53.8300 298.0000 1.0000
53.8400 275.0000 1.0000
53.8500 305.0000 1.0000
53.8600 281.0000 1.0000
53.8700 263.0000 1.0000
53.8800 256.0000 1.0000
53.8900 297.0000 1.0000
53.9000 287.0000 1.0000
53.9100 285.0000 1.0000
53.9200 256.0000 1.0000
53.9300 279.0000 1.0000
53.9400 282.0000 1.0000
53.9500 291.0000 1.0000
53.9600 272.0000 1.0000
53.9700 275.0000 1.0000
53.9800 276.0000 1.0000
53.9900 293.0000 1.0000
54.0000 266.0000 1.0000
54.0100 303.0000 1.0000
54.0200 291.0000 1.0000
54.0300 296.0000 1.0000
54.0400 277.0000 1.0000
54.0500 283.0000 1.0000
54.0600 265.0000 1.0000
54.0700 276.0000 1.0000
54.0800 301.0000 1.0000
54.0900 299.0000 1.0000
54.1000 283.0000 1.0000
54.1100 285.0000 1.0000
54.1200 291.0000 1.0000
54.1300 316.0000 1.0000
54.1400 292.0000 1.0000
54.1500 296.0000 1.0000
54.1600 277.0000 1.0000
54.1700 278.0000 1.0000
54.1800 307.0000 1.0000
54.1900 272.0000 1.0000
54.2000 282.0000 1.0000
54.2100 293.0000 1.0000
54.2200 294.0000 1.0000
54.2300 298.0000 1.0000
54.2400 299.0000 1.0000
54.2500 295.0000 1.0000
54.2600 268.0000 1.0000
54.2700 267.0000 1.0000
54.2800 293.0000 1.0000
54.2900 278.0000 1.0000
54.3000 280.0000 1.0000
54.3100 279.0000 1.0000
54.3200 287.0000 1.0000
54.3300 282.0000 1.0000
54.3400 312.0000 1.0000
54.3500 302.0000 1.0000
54.3600 286.0000 1.0000
54.3700 293.0000 1.0000
54.3800 333.0000 1.0000
54.3900 317.0000 1.0000
54.4000 304.0000 1.0000
54.4100 299.0000 1.0000
54.4200 326.0000 1.0000
54.4300 314.0000 1.0000
54.4400 305.0000 1.0000
54.4500 325.0000 1.0000
54.4600 316.0000 1.0000
54.4700 288.0000 1.0000
54.4800 294.0000 1.0000
54.4900 325.0000 1.0000
54.5000 331.0000 1.0000
54.5100 300.0000 1.0000
54.5200 336.0000 1.0000
54.5300 302.0000 1.0000
54.5400 288.0000 1.0000
54.5500 324.0000 1.0000
54.5600 300.0000 1.0000
54.5700 292.0000 1.0000
54.5800 317.0000 1.0000
54.5900 325.0000 1.0000
54.6000 302.0000 1.0000
54.6100 297.0000 1.0000
54.6200 285.0000 1.0000
54.6300 309.0000 1.0000
54.6400 303.0000 1.0000
54.6500 319.0000 1.0000
54.6600 305.0000 1.0000
54.6700 289.0000 1.0000
54.6800 257.0000 1.0000
54.6900 297.0000 1.0000
54.7000 304.0000 1.0000
54.7100 277.0000 1.0000
54.7200 270.0000 1.0000
54.7300 276.0000 1.0000
54.7400 276.0000 1.0000
54.7500 295.0000 1.0000
54.7600 296.0000 1.0000
54.7700 274.0000 1.0000
54.7800 282.0000 1.0000
54.7900 249.0000 1.0000
54.8000 278.0000 1.0000
54.8100 256.0000 1.0000
54.8200 295.0000 1.0000
54.8300 258.0000 1.0000
54.8400 261.0000 1.0000
54.8500 281.0000 1.0000
54.8600 253.0000 1.0000
54.8700 248.0000 1.0000
54.8800 252.0000 1.0000
54.8900 272.0000 1.0000
54.9000 249.0000 1.0000
54.9100 251.0000 1.0000
54.9200 280.0000 1.0000
54.9300 257.0000 1.0000
54.9400 248.0000 1.0000
54.9500 267.0000 1.0000
54.9600 265.0000 1.0000
54.9700 254.0000 1.0000
54.9800 253.0000 1.0000
54.9900 280.0000 1.0000
55.0000 274.0000 1.0000
55.0100 254.0000 1.0000
55.0200 279.0000 1.0000
55.0300 246.0000 1.0000
55.0400 251.0000 1.0000
55.0500 239.0000 1.0000
55.0600 259.0000 1.0000
55.0700 255.0000 1.0000
55.0800 275.0000 1.0000
55.0900 261.0000 1.0000
55.1000 235.0000 1.0000
55.1100 266.0000 1.0000
55.1200 247.0000 1.0000
55.1300 257.0000 1.0000
55.1400 246.0000 1.0000
55.1500 247.0000 1.0000
55.1600 250.0000 1.0000
55.1700 255.0000 1.0000
55.1800 265.0000 1.0000
55.1900 245.0000 1.0000
55.2000 271.0000 1.0000
55.2100 261.0000 1.0000
55.2200 223.0000 1.0000
55.2300 233.0000 1.0000
55.2400 228.0000 1.0000
55.2500 237.0000 1.0000
55.2600 256.0000 1.0000
55.2700 246.0000 1.0000
55.2800 271.0000 1.0000
55.2900 278.0000 1.0000
55.3000 216.0000 1.0000
55.3100 258.0000 1.0000
55.3200 250.0000 1.0000
55.3300 251.0000 1.0000
55.3400 245.0000 1.0000
55.3500 270.0000 1.0000
55.3600 245.0000 1.0000
55.3700 244.0000 1.0000
55.3800 255.0000 1.0000
55.3900 259.0000 1.0000
55.4000 255.0000 1.0000
55.4100 231.0000 1.0000
55.4200 259.0000 1.0000
55.4300 257.0000 1.0000
55.4400 243.0000 1.0000
55.4500 264.0000 1.0000
55.4600 246.0000 1.0000
55.4700 233.0000 1.0000
55.4800 239.0000 1.0000
55.4900 230.0000 1.0000
55.5000 251.0000 1.0000
55.5100 234.0000 1.0000
55.5200 238.0000 1.0000
55.5300 224.0000 1.0000
55.5400 225.0000 1.0000
55.5500 240.0000 1.0000
55.5600 254.0000 1.0000
55.5700 257.0000 1.0000
55.5800 219.0000 1.0000
55.5900 242.0000 1.0000
55.6000 259.0000 1.0000
55.6100 232.0000 1.0000
55.6200 238.0000 1.0000
55.6300 234.0000 1.0000
55.6400 244.0000 1.0000
55.6500 245.0000 1.0000
55.6600 248.0000 1.0000
55.6700 273.0000 1.0000
55.6800 227.0000 1.0000
55.6900 229.0000 1.0000
55.7000 248.0000 1.0000
55.7100 234.0000 1.0000
55.7200 250.0000 1.0000
55.7300 264.0000 1.0000
55.7400 238.0000 1.0000
55.7500 243.0000 1.0000
55.7600 246.0000 1.0000
55.7700 277.0000 1.0000
55.7800 256.0000 1.0000
55.7900 238.0000 1.0000
55.8000 238.0000 1.0000
55.8100 245.0000 1.0000
55.8200 250.0000 1.0000
55.8300 268.0000 1.0000
55.8400 230.0000 1.0000
55.8500 220.0000 1.0000
55.8600 216.0000 1.0000
55.8700 250.0000 1.0000
55.8800 255.0000 1.0000
55.8900 251.0000 1.0000
55.9000 246.0000 1.0000
55.9100 251.0000 1.0000
55.9200 247.0000 1.0000
55.9300 261.0000 1.0000
55.9400 229.0000 1.0000
55.9500 251.0000 1.0000
55.9600 228.0000 1.0000
55.9700 243.0000 1.0000
55.9800 238.0000 1.0000
55.9900 250.0000 1.0000
56.0000 240.0000 1.0000
56.0100 232.0000 1.0000
56.0200 253.0000 1.0000
56.0300 260.0000 1.0000
56.0400 250.0000 1.0000
56.0500 242.0000 1.0000
56.0600 239.0000 1.0000
56.0700 238.0000 1.0000
56.0800 232.0000 1.0000
56.0900 245.0000 1.0000
56.1000 219.0000 1.0000
56.1100 227.0000 1.0000
56.1200 230.0000 1.0000
56.1300 222.0000 1.0000
56.1400 234.0000 1.0000
56.1500 245.0000 1.0000
56.1600 240.0000 1.0000
56.1700 245.0000 1.0000
56.1800 264.0000 1.0000
56.1900 228.0000 1.0000
56.2000 255.0000 1.0000
56.2100 269.0000 1.0000
56.2200 238.0000 1.0000
56.2300 240.0000 1.0000
56.2400 261.0000 1.0000
56.2500 221.0000 1.0000
56.2600 241.0000 1.0000
56.2700 245.0000 1.0000
56.2800 249.0000 1.0000
56.2900 237.0000 1.0000
56.3000 227.0000 1.0000
56.3100 248.0000 1.0000
56.3200 243.0000 1.0000
56.3300 243.0000 1.0000
56.3400 254.0000 1.0000
56.3500 239.0000 1.0000
56.3600 254.0000 1.0000
56.3700 239.0000 1.0000
56.3800 255.0000 1.0000
56.3900 251.0000 1.0000
56.4000 248.0000 1.0000
56.4100 245.0000 1.0000
56.4200 260.0000 1.0000
56.4300 270.0000 1.0000
56.4400 215.0000 1.0000
56.4500 243.0000 1.0000
56.4600 256.0000 1.0000
56.4700 242.0000 1.0000
56.4800 239.0000 1.0000
56.4900 272.0000 1.0000
56.5000 276.0000 1.0000
56.5100 250.0000 1.0000
56.5200 245.0000 1.0000
56.5300 253.0000 1.0000
56.5400 243.0000 1.0000
56.5500 213.0000 1.0000
56.5600 229.0000 1.0000
56.5700 243.0000 1.0000
56.5800 251.0000 1.0000
56.5900 233.0000 1.0000
56.6000 221.0000 1.0000
56.6100 252.0000 1.0000
56.6200 282.0000 1.0000
56.6300 241.0000 1.0000
56.6400 221.0000 1.0000
56.6500 237.0000 1.0000
56.6600 225.0000 1.0000
56.6700 259.0000 1.0000
56.6800 252.0000 1.0000
56.6900 267.0000 1.0000
56.7000 251.0000 1.0000
56.7100 245.0000 1.0000
56.7200 250.0000 1.0000
56.7300 219.0000 1.0000
56.7400 234.0000 1.0000
56.7500 253.0000 1.0000
56.7600 247.0000 1.0000
56.7700 223.0000 1.0000
56.7800 249.0000 1.0000
56.7900 238.0000 1.0000
56.8000 254.0000 1.0000
56.8100 254.0000 1.0000
56.8200 251.0000 1.0000
56.8300 252.0000 1.0000
56.8400 222.0000 1.0000
56.8500 244.0000 1.0000
56.8600 247.0000 1.0000
56.8700 243.0000 1.0000
56.8800 252.0000 1.0000
56.8900 258.0000 1.0000
56.9000 244.0000 1.0000
56.9100 240.0000 1.0000
56.9200 234.0000 1.0000
56.9300 225.0000 1.0000
56.9400 249.0000 1.0000
56.9500 260.0000 1.0000
56.9600 244.0000 1.0000
56.9700 242.0000 1.0000
56.9800 272.0000 1.0000
56.9900 258.0000 1.0000
57.0000 221.0000 1.0000
57.0100 239.0000 1.0000
57.0200 282.0000 1.0000
57.0300 257.0000 1.0000
57.0400 263.0000 1.0000
57.0500 250.0000 1.0000
57.0600 249.0000 1.0000
57.0700 259.0000 1.0000
57.0800 221.0000 1.0000
57.0900 237.0000 1.0000
57.1000 236.0000 1.0000
57.1100 240.0000 1.0000
57.1200 228.0000 1.0000
57.1300 243.0000 1.0000
57.1400 244.0000 1.0000
57.1500 249.0000 1.0000
57.1600 227.0000 1.0000
57.1700 221.0000 1.0000
57.1800 257.0000 1.0000
57.1900 255.0000 1.0000
57.2000 254.0000 1.0000
57.2100 238.0000 1.0000
57.2200 248.0000 1.0000
57.2300 234.0000 1.0000
57.2400 250.0000 1.0000
57.2500 241.0000 1.0000
57.2600 228.0000 1.0000
57.2700 234.0000 1.0000
57.2800 227.0000 1.0000
57.2900 255.0000 1.0000
57.3000 258.0000 1.0000
57.3100 279.0000 1.0000
57.3200 250.0000 1.0000
57.3300 243.0000 1.0000
57.3400 249.0000 1.0000
57.3500 255.0000 1.0000
57.3600 238.0000 1.0000
57.3700 236.0000 1.0000
57.3800 272.0000 1.0000
57.3900 253.0000 1.0000
57.4000 275.0000 1.0000
57.4100 253.0000 1.0000
57.4200 259.0000 1.0000
57.4300 250.0000 1.0000
57.4400 251.0000 1.0000
57.4500 250.0000 1.0000
57.4600 246.0000 1.0000
57.4700 257.0000 1.0000
57.4800 232.0000 1.0000
57.4900 227.0000 1.0000
57.5000 240.0000 1.0000
57.5100 239.0000 1.0000
57.5200 274.0000 1.0000
57.5300 252.0000 1.0000
57.5400 245.0000 1.0000
57.5500 232.0000 1.0000
57.5600 287.0000 1.0000
57.5700 246.0000 1.0000
57.5800 235.0000 1.0000
57.5900 248.0000 1.0000
57.6000 257.0000 1.0000
57.6100 258.0000 1.0000
57.6200 249.0000 1.0000
57.6300 264.0000 1.0000
57.6400 256.0000 1.0000
57.6500 263.0000 1.0000
57.6600 247.0000 1.0000
57.6700 252.0000 1.0000
57.6800 271.0000 1.0000
57.6900 296.0000 1.0000
57.7000 240.0000 1.0000
57.7100 264.0000 1.0000
57.7200 228.0000 1.0000
57.7300 260.0000 1.0000
57.7400 239.0000 1.0000
57.7500 247.0000 1.0000
57.7600 236.0000 1.0000
57.7700 235.0000 1.0000
57.7800 226.0000 1.0000
57.7900 241.0000 1.0000
57.8000 268.0000 1.0000
57.8100 246.0000 1.0000
57.8200 248.0000 1.0000
57.8300 243.0000 1.0000
57.8400 249.0000 1.0000
57.8500 260.0000 1.0000
57.8600 232.0000 1.0000
57.8700 244.0000 1.0000
57.8800 237.0000 1.0000
57.8900 231.0000 1.0000
57.9000 233.0000 1.0000
57.9100 240.0000 1.0000
57.9200 250.0000 1.0000
57.9300 254.0000 1.0000
57.9400 233.0000 1.0000
57.9500 258.0000 1.0000
57.9600 256.0000 1.0000
57.9700 274.0000 1.0000
57.9800 230.0000 1.0000
57.9900 211.0000 1.0000
58.0000 223.0000 1.0000
58.0100 239.0000 1.0000
58.0200 250.0000 1.0000
58.0300 251.0000 1.0000
58.0400 230.0000 1.0000
58.0500 248.0000 1.0000
58.0600 266.0000 1.0000
58.0700 242.0000 1.0000
58.0800 216.0000 1.0000
58.0900 238.0000 1.0000
58.1000 232.0000 1.0000
58.1100 231.0000 1.0000
58.1200 259.0000 1.0000
58.1300 226.0000 1.0000
58.1400 243.0000 1.0000
58.1500 241.0000 1.0000
58.1600 213.0000 1.0000
58.1700 230.0000 1.0000
58.1800 240.0000 1.0000
58.1900 240.0000 1.0000
58.2000 223.0000 1.0000
58.2100 247.0000 1.0000
58.2200 250.0000 1.0000
58.2300 230.0000 1.0000
58.2400 213.0000 1.0000
58.2500 240.0000 1.0000
58.2600 233.0000 1.0000
58.2700 236.0000 1.0000
58.2800 251.0000 1.0000
58.2900 250.0000 1.0000
58.3000 251.0000 1.0000
58.3100 250.0000 1.0000
58.3200 242.0000 1.0000
58.3300 237.0000 1.0000
58.3400 260.0000 1.0000
58.3500 251.0000 1.0000
58.3600 244.0000 1.0000
58.3700 233.0000 1.0000
58.3800 234.0000 1.0000
58.3900 240.0000 1.0000
58.4000 230.0000 1.0000
58.4100 245.0000 1.0000
58.4200 254.0000 1.0000
58.4300 249.0000 1.0000
58.4400 238.0000 1.0000
58.4500 266.0000 1.0000
58.4600 234.0000 1.0000
58.4700 253.0000 1.0000
58.4800 252.0000 1.0000
58.4900 238.0000 1.0000
58.5000 248.0000 1.0000
58.5100 249.0000 1.0000
58.5200 251.0000 1.0000
58.5300 277.0000 1.0000
58.5400 255.0000 1.0000
58.5500 270.0000 1.0000
58.5600 244.0000 1.0000
58.5700 249.0000 1.0000
58.5800 254.0000 1.0000
58.5900 241.0000 1.0000
58.6000 262.0000 1.0000
58.6100 261.0000 1.0000
58.6200 245.0000 1.0000
58.6300 232.0000 1.0000
58.6400 250.0000 1.0000
58.6500 253.0000 1.0000
58.6600 234.0000 1.0000
58.6700 236.0000 1.0000
58.6800 256.0000 1.0000
58.6900 252.0000 1.0000
58.7000 234.0000 1.0000
58.7100 253.0000 1.0000
58.7200 262.0000 1.0000
58.7300 240.0000 1.0000
58.7400 249.0000 1.0000
58.7500 265.0000 1.0000
58.7600 239.0000 1.0000
58.7700 249.0000 1.0000
58.7800 247.0000 1.0000
58.7900 214.0000 1.0000
58.8000 227.0000 1.0000
58.8100 238.0000 1.0000
58.8200 231.0000 1.0000
58.8300 226.0000 1.0000
58.8400 237.0000 1.0000
58.8500 292.0000 1.0000
58.8600 267.0000 1.0000
58.8700 242.0000 1.0000
58.8800 260.0000 1.0000
58.8900 236.0000 1.0000
58.9000 225.0000 1.0000
58.9100 235.0000 1.0000
58.9200 247.0000 1.0000
58.9300 262.0000 1.0000
58.9400 254.0000 1.0000
58.9500 227.0000 1.0000
58.9600 235.0000 1.0000
58.9700 257.0000 1.0000
58.9800 206.0000 1.0000
58.9900 242.0000 1.0000
59.0000 229.0000 1.0000
59.0100 237.0000 1.0000
59.0200 257.0000 1.0000
59.0300 250.0000 1.0000
59.0400 211.0000 1.0000
59.0500 233.0000 1.0000
59.0600 245.0000 1.0000
59.0700 240.0000 1.0000
59.0800 231.0000 1.0000
59.0900 229.0000 1.0000
59.1000 237.0000 1.0000
59.1100 241.0000 1.0000
59.1200 243.0000 1.0000
59.1300 246.0000 1.0000
59.1400 228.0000 1.0000
59.1500 219.0000 1.0000
59.1600 226.0000 1.0000
59.1700 227.0000 1.0000
59.1800 229.0000 1.0000
59.1900 248.0000 1.0000
59.2000 250.0000 1.0000
59.2100 258.0000 1.0000
59.2200 246.0000 1.0000
59.2300 241.0000 1.0000
59.2400 238.0000 1.0000
59.2500 234.0000 1.0000
59.2600 276.0000 1.0000
59.2700 248.0000 1.0000
59.2800 219.0000 1.0000
59.2900 210.0000 1.0000
59.3000 228.0000 1.0000
59.3100 240.0000 1.0000
59.3200 258.0000 1.0000
59.3300 230.0000 1.0000
59.3400 239.0000 1.0000
59.3500 247.0000 1.0000
59.3600 237.0000 1.0000
59.3700 258.0000 1.0000
59.3800 246.0000 1.0000
59.3900 276.0000 1.0000
59.4000 233.0000 1.0000
59.4100 259.0000 1.0000
59.4200 285.0000 1.0000
59.4300 235.0000 1.0000
59.4400 224.0000 1.0000
59.4500 233.0000 1.0000
59.4600 242.0000 1.0000
59.4700 261.0000 1.0000
59.4800 237.0000 1.0000
59.4900 235.0000 1.0000
59.5000 237.0000 1.0000
59.5100 245.0000 1.0000
59.5200 233.0000 1.0000
59.5300 231.0000 1.0000
59.5400 262.0000 1.0000
59.5500 233.0000 1.0000
59.5600 242.0000 1.0000
59.5700 265.0000 1.0000
59.5800 235.0000 1.0000
59.5900 248.0000 1.0000
59.6000 237.0000 1.0000
59.6100 236.0000 1.0000
59.6200 230.0000 1.0000
59.6300 239.0000 1.0000
59.6400 242.0000 1.0000
59.6500 240.0000 1.0000
59.6600 238.0000 1.0000
59.6700 244.0000 1.0000
59.6800 243.0000 1.0000
59.6900 262.0000 1.0000
59.7000 259.0000 1.0000
59.7100 256.0000 1.0000
59.7200 228.0000 1.0000
59.7300 246.0000 1.0000
59.7400 238.0000 1.0000
59.7500 246.0000 1.0000
59.7600 252.0000 1.0000
59.7700 277.0000 1.0000
59.7800 231.0000 1.0000
59.7900 254.0000 1.0000
59.8000 258.0000 1.0000
59.8100 260.0000 1.0000
59.8200 244.0000 1.0000
59.8300 257.0000 1.0000
59.8400 248.0000 1.0000
59.8500 248.0000 1.0000
59.8600 254.0000 1.0000
59.8700 217.0000 1.0000
59.8800 224.0000 1.0000
59.8900 249.0000 1.0000
59.9000 233.0000 1.0000
59.9100 242.0000 1.0000
59.9200 230.0000 1.0000
59.9300 248.0000 1.0000
59.9400 252.0000 1.0000
59.9500 219.0000 1.0000
59.9600 267.0000 1.0000
59.9700 254.0000 1.0000
59.9800 273.0000 1.0000
59.9900 242.0000 1.0000
60.0000 220.0000 1.0000
60.0100 248.0000 1.0000
60.0200 245.0000 1.0000
60.0300 243.0000 1.0000
60.0400 244.0000 1.0000
60.0500 251.0000 1.0000
60.0600 265.0000 1.0000
60.0700 237.0000 1.0000
60.0800 254.0000 1.0000
60.0900 234.0000 1.0000
60.1000 260.0000 1.0000
60.1100 255.0000 1.0000
60.1200 243.0000 1.0000
60.1300 225.0000 1.0000
60.1400 225.0000 1.0000
60.1500 226.0000 1.0000
60.1600 249.0000 1.0000
60.1700 226.0000 1.0000
60.1800 240.0000 1.0000
60.1900 264.0000 1.0000
60.2000 269.0000 1.0000
60.2100 251.0000 1.0000
60.2200 235.0000 1.0000
60.2300 215.0000 1.0000
60.2400 243.0000 1.0000
60.2500 248.0000 1.0000
60.2600 244.0000 1.0000
60.2700 233.0000 1.0000
60.2800 251.0000 1.0000
60.2900 242.0000 1.0000
60.3000 237.0000 1.0000
60.3100 236.0000 1.0000
60.3200 251.0000 1.0000
60.3300 240.0000 1.0000
60.3400 240.0000 1.0000
60.3500 247.0000 1.0000
60.3600 249.0000 1.0000
60.3700 260.0000 1.0000
60.3800 237.0000 1.0000
60.3900 228.0000 1.0000
60.4000 225.0000 1.0000
60.4100 253.0000 1.0000
60.4200 234.0000 1.0000
60.4300 230.0000 1.0000
60.4400 238.0000 1.0000
60.4500 248.0000 1.0000
60.4600 235.0000 1.0000
60.4700 240.0000 1.0000
60.4800 234.0000 1.0000
60.4900 238.0000 1.0000
60.5000 235.0000 1.0000
60.5100 246.0000 1.0000
60.5200 240.0000 1.0000
60.5300 259.0000 1.0000
60.5400 230.0000 1.0000
60.5500 229.0000 1.0000
60.5600 242.0000 1.0000
60.5700 262.0000 1.0000
60.5800 242.0000 1.0000
60.5900 258.0000 1.0000
60.6000 264.0000 1.0000
60.6100 258.0000 1.0000
60.6200 263.0000 1.0000
60.6300 253.0000 1.0000
60.6400 266.0000 1.0000
60.6500 251.0000 1.0000
60.6600 277.0000 1.0000
60.6700 222.0000 1.0000
60.6800 252.0000 1.0000
60.6900 255.0000 1.0000
60.7000 253.0000 1.0000
60.7100 250.0000 1.0000
60.7200 247.0000 1.0000
60.7300 253.0000 1.0000
60.7400 244.0000 1.0000
60.7500 252.0000 1.0000
60.7600 249.0000 1.0000
60.7700 259.0000 1.0000
60.7800 282.0000 1.0000
60.7900 252.0000 1.0000
60.8000 254.0000 1.0000
60.8100 249.0000 1.0000
60.8200 238.0000 1.0000
60.8300 272.0000 1.0000
60.8400 258.0000 1.0000
60.8500 256.0000 1.0000
60.8600 262.0000 1.0000
60.8700 260.0000 1.0000
60.8800 249.0000 1.0000
60.8900 275.0000 1.0000
60.9000 220.0000 1.0000
60.9100 224.0000 1.0000
60.9200 258.0000 1.0000
60.9300 253.0000 1.0000
60.9400 256.0000 1.0000
60.9500 274.0000 1.0000
60.9600 278.0000 1.0000
60.9700 256.0000 1.0000
60.9800 248.0000 1.0000
60.9900 234.0000 1.0000
61.0000 252.0000 1.0000
61.0100 254.0000 1.0000
61.0200 272.0000 1.0000
61.0300 273.0000 1.0000
61.0400 270.0000 1.0000
61.0500 289.0000 1.0000
61.0600 278.0000 1.0000
61.0700 274.0000 1.0000
61.0800 288.0000 1.0000
61.0900 258.0000 1.0000
61.1000 268.0000 1.0000
61.1100 304.0000 1.0000
61.1200 297.0000 1.0000
61.1300 278.0000 1.0000
61.1400 271.0000 1.0000
61.1500 275.0000 1.0000
61.1600 259.0000 1.0000
61.1700 268.0000 1.0000
61.1800 316.0000 1.0000
61.1900 310.0000 1.0000
61.2000 285.0000 1.0000
61.2100 301.0000 1.0000
61.2200 289.0000 1.0000
61.2300 320.0000 1.0000
61.2400 298.0000 1.0000
61.2500 339.0000 1.0000
61.2600 322.0000 1.0000
61.2700 315.0000 1.0000
61.2800 327.0000 1.0000
61.2900 339.0000 1.0000
61.3000 366.0000 1.0000
61.3100 347.0000 1.0000
61.3200 377.0000 1.0000
61.3300 347.0000 1.0000
61.3400 371.0000 1.0000
61.3500 367.0000 1.0000
61.3600 392.0000 1.0000
61.3700 390.0000 1.0000
61.3800 418.0000 1.0000
61.3900 396.0000 1.0000
61.4000 415.0000 1.0000
61.4100 429.0000 1.0000
61.4200 420.0000 1.0000
61.4300 423.0000 1.0000
61.4400 424.0000 1.0000
61.4500 453.0000 1.0000
61.4600 457.0000 1.0000
61.4700 453.0000 1.0000
61.4800 518.0000 1.0000
61.4900 489.0000 1.0000
61.5000 463.0000 1.0000
61.5100 498.0000 1.0000
61.5200 520.0000 1.0000
61.5300 501.0000 1.0000
61.5400 492.0000 1.0000
61.5500 492.0000 1.0000
61.5600 530.0000 1.0000
61.5700 522.0000 1.0000
61.5800 561.0000 1.0000
61.5900 542.0000 1.0000
61.6000 501.0000 1.0000
61.6100 534.0000 1.0000
61.6200 508.0000 1.0000
61.6300 525.0000 1.0000
61.6400 522.0000 1.0000
61.6500 475.0000 1.0000
61.6600 498.0000 1.0000
61.6700 484.0000 1.0000
61.6800 463.0000 1.0000
61.6900 481.0000 1.0000
61.7000 489.0000 1.0000
61.7100 495.0000 1.0000
61.7200 478.0000 1.0000
61.7300 479.0000 1.0000
61.7400 459.0000 1.0000
61.7500 443.0000 1.0000
61.7600 387.0000 1.0000
61.7700 440.0000 1.0000
61.7800 449.0000 1.0000
61.7900 439.0000 1.0000
61.8000 412.0000 1.0000
61.8100 432.0000 1.0000
61.8200 395.0000 1.0000
61.8300 372.0000 1.0000
61.8400 368.0000 1.0000
61.8500 417.0000 1.0000
61.8600 383.0000 1.0000
61.8700 370.0000 1.0000
61.8800 370.0000 1.0000
61.8900 387.0000 1.0000
61.9000 349.0000 1.0000
61.9100 316.0000 1.0000
61.9200 360.0000 1.0000
61.9300 378.0000 1.0000
61.9400 335.0000 1.0000
61.9500 324.0000 1.0000
61.9600 347.0000 1.0000
61.9700 351.0000 1.0000
61.9800 324.0000 1.0000
61.9900 323.0000 1.0000
62.0000 310.0000 1.0000
62.0100 319.0000 1.0000
62.0200 310.0000 1.0000
62.0300 295.0000 1.0000
62.0400 328.0000 1.0000
62.0500 283.0000 1.0000
62.0600 288.0000 1.0000
62.0700 296.0000 1.0000
62.0800 310.0000 1.0000
62.0900 301.0000 1.0000
62.1000 301.0000 1.0000
62.1100 313.0000 1.0000
62.1200 317.0000 1.0000
62.1300 276.0000 1.0000
62.1400 304.0000 1.0000
62.1500 316.0000 1.0000
62.1600 281.0000 1.0000
62.1700 278.0000 1.0000
62.1800 278.0000 1.0000
62.1900 281.0000 1.0000
62.2000 297.0000 1.0000
62.2100 300.0000 1.0000
62.2200 297.0000 1.0000
62.2300 275.0000 1.0000
62.2400 299.0000 1.0000
62.2500 315.0000 1.0000
62.2600 274.0000 1.0000
62.2700 286.0000 1.0000
62.2800 275.0000 1.0000
62.2900 292.0000 1.0000
62.3000 278.0000 1.0000
62.3100 270.0000 1.0000
62.3200 286.0000 1.0000
62.3300 288.0000 1.0000
62.3400 288.0000 1.0000
62.3500 294.0000 1.0000
62.3600 299.0000 1.0000
62.3700 269.0000 1.0000
62.3800 271.0000 1.0000
62.3900 272.0000 1.0000
62.4000 266.0000 1.0000
62.4100 298.0000 1.0000
62.4200 291.0000 1.0000
62.4300 255.0000 1.0000
62.4400 287.0000 1.0000
62.4500 300.0000 1.0000
62.4600 276.0000 1.0000
62.4700 271.0000 1.0000
62.4800 282.0000 1.0000
62.4900 278.0000 1.0000
62.5000 259.0000 1.0000
62.5100 268.0000 1.0000
62.5200 258.0000 1.0000
62.5300 268.0000 1.0000
62.5400 284.0000 1.0000
62.5500 284.0000 1.0000
62.5600 260.0000 1.0000
62.5700 286.0000 1.0000
62.5800 270.0000 1.0000
62.5900 290.0000 1.0000
62.6000 250.0000 1.0000
62.6100 263.0000 1.0000
62.6200 266.0000 1.0000
62.6300 240.0000 1.0000
62.6400 256.0000 1.0000
62.6500 263.0000 1.0000
62.6600 250.0000 1.0000
62.6700 261.0000 1.0000
62.6800 249.0000 1.0000
62.6900 263.0000 1.0000
62.7000 279.0000 1.0000
62.7100 279.0000 1.0000
62.7200 267.0000 1.0000
62.7300 260.0000 1.0000
62.7400 278.0000 1.0000
62.7500 241.0000 1.0000
62.7600 247.0000 1.0000
62.7700 267.0000 1.0000
62.7800 279.0000 1.0000
62.7900 252.0000 1.0000
62.8000 257.0000 1.0000
62.8100 263.0000 1.0000
62.8200 248.0000 1.0000
62.8300 237.0000 1.0000
62.8400 272.0000 1.0000
62.8500 247.0000 1.0000
62.8600 256.0000 1.0000
62.8700 262.0000 1.0000
62.8800 240.0000 1.0000
62.8900 268.0000 1.0000
62.9000 248.0000 1.0000
62.9100 257.0000 1.0000
62.9200 231.0000 1.0000
62.9300 267.0000 1.0000
62.9400 272.0000 1.0000
62.9500 259.0000 1.0000
62.9600 239.0000 1.0000
62.9700 255.0000 1.0000
62.9800 246.0000 1.0000
62.9900 246.0000 1.0000
63.0000 238.0000 1.0000
63.0100 250.0000 1.0000
63.0200 278.0000 1.0000
63.0300 239.0000 1.0000
63.0400 254.0000 1.0000
63.0500 262.0000 1.0000
63.0600 250.0000 1.0000
63.0700 253.0000 1.0000
63.0800 253.0000 1.0000
63.0900 267.0000 1.0000
63.1000 278.0000 1.0000
63.1100 249.0000 1.0000
63.1200 289.0000 1.0000
63.1300 269.0000 1.0000
63.1400 239.0000 1.0000
63.1500 270.0000 1.0000
63.1600 264.0000 1.0000
63.1700 239.0000 1.0000
63.1800 266.0000 1.0000
63.1900 239.0000 1.0000
63.2000 250.0000 1.0000
63.2100 237.0000 1.0000
63.2200 234.0000 1.0000
63.2300 245.0000 1.0000
63.2400 226.0000 1.0000
63.2500 249.0000 1.0000
63.2600 265.0000 1.0000
63.2700 236.0000 1.0000
63.2800 260.0000 1.0000
63.2900 284.0000 1.0000
63.3000 233.0000 1.0000
63.3100 221.0000 1.0000
63.3200 230.0000 1.0000
63.3300 241.0000 1.0000
63.3400 242.0000 1.0000
63.3500 239.0000 1.0000
63.3600 262.0000 1.0000
63.3700 274.0000 1.0000
63.3800 253.0000 1.0000
63.3900 237.0000 1.0000
63.4000 239.0000 1.0000
63.4100 247.0000 1.0000
63.4200 255.0000 1.0000
63.4300 272.0000 1.0000
63.4400 260.0000 1.0000
63.4500 243.0000 1.0000
63.4600 245.0000 1.0000
63.4700 248.0000 1.0000
63.4800 263.0000 1.0000
63.4900 254.0000 1.0000
63.5000 258.0000 1.0000
63.5100 254.0000 1.0000
63.5200 251.0000 1.0000
63.5300 242.0000 1.0000
63.5400 244.0000 1.0000
63.5500 278.0000 1.0000
63.5600 275.0000 1.0000
63.5700 252.0000 1.0000
63.5800 245.0000 1.0000
63.5900 264.0000 1.0000
63.6000 249.0000 1.0000
63.6100 246.0000 1.0000
63.6200 264.0000 1.0000
63.6300 239.0000 1.0000
63.6400 243.0000 1.0000
63.6500 253.0000 1.0000
63.6600 256.0000 1.0000
63.6700 247.0000 1.0000
63.6800 278.0000 1.0000
63.6900 257.0000 1.0000
63.7000 286.0000 1.0000
63.7100 287.0000 1.0000
63.7200 254.0000 1.0000
63.7300 243.0000 1.0000
63.7400 267.0000 1.0000
63.7500 261.0000 1.0000
63.7600 291.0000 1.0000
63.7700 271.0000 1.0000
63.7800 252.0000 1.0000
63.7900 267.0000 1.0000
63.8000 267.0000 1.0000
63.8100 267.0000 1.0000
63.8200 265.0000 1.0000
63.8300 276.0000 1.0000
63.8400 270.0000 1.0000
63.8500 253.0000 1.0000
63.8600 283.0000 1.0000
63.8700 302.0000 1.0000
63.8800 309.0000 1.0000
63.8900 281.0000 1.0000
63.9000 288.0000 1.0000
63.9100 286.0000 1.0000
63.9200 310.0000 1.0000
63.9300 327.0000 1.0000
63.9400 305.0000 1.0000
63.9500 295.0000 1.0000
63.9600 297.0000 1.0000
63.9700 285.0000 1.0000
63.9800 258.0000 1.0000
63.9900 293.0000 1.0000
64.0000 316.0000 1.0000
64.0100 260.0000 1.0000
64.0200 273.0000 1.0000
64.0300 281.0000 1.0000
64.0400 279.0000 1.0000
64.0500 289.0000 1.0000
64.0600 281.0000 1.0000
64.0700 296.0000 1.0000
64.0800 283.0000 1.0000
64.0900 276.0000 1.0000
64.1000 279.0000 1.0000
64.1100 262.0000 1.0000
64.1200 249.0000 1.0000
64.1300 268.0000 1.0000
64.1400 272.0000 1.0000
64.1500 275.0000 1.0000
64.1600 279.0000 1.0000
64.1700 263.0000 1.0000
64.1800 319.0000 1.0000
64.1900 299.0000 1.0000
64.2000 267.0000 1.0000
64.2100 273.0000 1.0000
64.2200 263.0000 1.0000
64.2300 257.0000 1.0000
64.2400 272.0000 1.0000
64.2500 239.0000 1.0000
64.2600 271.0000 1.0000
64.2700 256.0000 1.0000
64.2800 242.0000 1.0000
64.2900 251.0000 1.0000
64.3000 266.0000 1.0000
64.3100 250.0000 1.0000
64.3200 251.0000 1.0000
64.3300 263.0000 1.0000
64.3400 271.0000 1.0000
64.3500 277.0000 1.0000
64.3600 243.0000 1.0000
64.3700 255.0000 1.0000
64.3800 240.0000 1.0000
64.3900 265.0000 1.0000
64.4000 232.0000 1.0000
64.4100 256.0000 1.0000
64.4200 256.0000 1.0000
64.4300 235.0000 1.0000
64.4400 257.0000 1.0000
64.4500 236.0000 1.0000
64.4600 270.0000 1.0000
64.4700 241.0000 1.0000
64.4800 268.0000 1.0000
64.4900 273.0000 1.0000
64.5000 271.0000 1.0000
64.5100 268.0000 1.0000
64.5200 297.0000 1.0000
64.5300 261.0000 1.0000
64.5400 264.0000 1.0000
64.5500 235.0000 1.0000
64.5600 257.0000 1.0000
64.5700 235.0000 1.0000
64.5800 251.0000 1.0000
64.5900 262.0000 1.0000
64.6000 275.0000 1.0000
64.6100 234.0000 1.0000
64.6200 287.0000 1.0000
64.6300 254.0000 1.0000
64.6400 228.0000 1.0000
64.6500 240.0000 1.0000
64.6600 231.0000 1.0000
64.6700 270.0000 1.0000
64.6800 275.0000 1.0000
64.6900 245.0000 1.0000
64.7000 244.0000 1.0000
64.7100 244.0000 1.0000
64.7200 283.0000 1.0000
64.7300 274.0000 1.0000
64.7400 260.0000 1.0000
64.7500 249.0000 1.0000
64.7600 239.0000 1.0000
64.7700 264.0000 1.0000
64.7800 285.0000 1.0000
64.7900 281.0000 1.0000
64.8000 261.0000 1.0000
64.8100 263.0000 1.0000
64.8200 245.0000 1.0000
64.8300 250.0000 1.0000
64.8400 286.0000 1.0000
64.8500 269.0000 1.0000
64.8600 260.0000 1.0000
64.8700 253.0000 1.0000
64.8800 255.0000 1.0000
64.8900 277.0000 1.0000
64.9000 295.0000 1.0000
64.9100 272.0000 1.0000
64.9200 271.0000 1.0000
64.9300 279.0000 1.0000
64.9400 280.0000 1.0000
64.9500 267.0000 1.0000
64.9600 272.0000 1.0000
64.9700 235.0000 1.0000
64.9800 251.0000 1.0000
64.9900 268.0000 1.0000
65.0000 280.0000 1.0000
65.0100 266.0000 1.0000
65.0200 262.0000 1.0000
65.0300 301.0000 1.0000
65.0400 276.0000 1.0000
65.0500 315.0000 1.0000
65.0600 306.0000 1.0000
65.0700 292.0000 1.0000
65.0800 307.0000 1.0000
65.0900 318.0000 1.0000
65.1000 304.0000 1.0000
65.1100 324.0000 1.0000
65.1200 339.0000 1.0000
65.1300 319.0000 1.0000
65.1400 323.0000 1.0000
65.1500 285.0000 1.0000
65.1600 304.0000 1.0000
65.1700 318.0000 1.0000
65.1800 328.0000 1.0000
65.1900 326.0000 1.0000
65.2000 376.0000 1.0000
65.2100 318.0000 1.0000
65.2200 365.0000 1.0000
65.2300 352.0000 1.0000
65.2400 356.0000 1.0000
65.2500 384.0000 1.0000
65.2600 386.0000 1.0000
65.2700 404.0000 1.0000
65.2800 397.0000 1.0000
65.2900 432.0000 1.0000
65.3000 452.0000 1.0000
65.3100 445.0000 1.0000
65.3200 452.0000 1.0000
65.3300 456.0000 1.0000
65.3400 492.0000 1.0000
65.3500 521.0000 1.0000
65.3600 498.0000 1.0000
65.3700 556.0000 1.0000
65.3800 612.0000 1.0000
65.3900 611.0000 1.0000
65.4000 687.0000 1.0000
65.4100 656.0000 1.0000
65.4200 674.0000 1.0000
65.4300 745.0000 1.0000
65.4400 720.0000 1.0000
65.4500 771.0000 1.0000
65.4600 791.0000 1.0000
65.4700 792.0000 1.0000
65.4800 835.0000 1.0000
65.4900 854.0000 1.0000
65.5000 809.0000 1.0000
65.5100 809.0000 1.0000
65.5200 819.0000 1.0000
65.5300 773.0000 1.0000
65.5400 781.0000 1.0000
65.5500 787.0000 1.0000
65.5600 763.0000 1.0000
65.5700 734.0000 1.0000
65.5800 731.0000 1.0000
65.5900 707.0000 1.0000
65.6000 742.0000 1.0000
65.6100 717.0000 1.0000
65.6200 756.0000 1.0000
65.6300 734.0000 1.0000
65.6400 657.0000 1.0000
65.6500 649.0000 1.0000
65.6600 707.0000 1.0000
65.6700 690.0000 1.0000
65.6800 663.0000 1.0000
65.6900 615.0000 1.0000
65.7000 630.0000 1.0000
65.7100 577.0000 1.0000
65.7200 563.0000 1.0000
65.7300 575.0000 1.0000
65.7400 550.0000 1.0000
65.7500 505.0000 1.0000
65.7600 498.0000 1.0000
65.7700 462.0000 1.0000
65.7800 480.0000 1.0000
65.7900 471.0000 1.0000
65.8000 421.0000 1.0000
65.8100 387.0000 1.0000
65.8200 379.0000 1.0000
65.8300 425.0000 1.0000
65.8400 387.0000 1.0000
65.8500 373.0000 1.0000
65.8600 371.0000 1.0000
65.8700 369.0000 1.0000
65.8800 363.0000 1.0000
65.8900 363.0000 1.0000
65.9000 353.0000 1.0000
65.9100 337.0000 1.0000
65.9200 325.0000 1.0000
65.9300 315.0000 1.0000
65.9400 322.0000 1.0000
65.9500 302.0000 1.0000
65.9600 297.0000 1.0000
65.9700 306.0000 1.0000
65.9800 306.0000 1.0000
65.9900 292.0000 1.0000
66.0000 326.0000 1.0000
66.0100 320.0000 1.0000
66.0200 258.0000 1.0000
66.0300 302.0000 1.0000
66.0400 283.0000 1.0000
66.0500 299.0000 1.0000
66.0600 275.0000 1.0000
66.0700 296.0000 1.0000
66.0800 257.0000 1.0000
66.0900 271.0000 1.0000
66.1000 266.0000 1.0000
66.1100 247.0000 1.0000
66.1200 274.0000 1.0000
66.1300 263.0000 1.0000
66.1400 262.0000 1.0000
66.1500 263.0000 1.0000
66.1600 266.0000 1.0000
66.1700 269.0000 1.0000
66.1800 255.0000 1.0000
66.1900 229.0000 1.0000
66.2000 264.0000 1.0000
66.2100 249.0000 1.0000
66.2200 267.0000 1.0000
66.2300 270.0000 1.0000
66.2400 281.0000 1.0000
66.2500 260.0000 1.0000
66.2600 265.0000 1.0000
66.2700 237.0000 1.0000
66.2800 260.0000 1.0000
66.2900 271.0000 1.0000
66.3000 244.0000 1.0000
66.3100 276.0000 1.0000
66.3200 262.0000 1.0000
66.3300 243.0000 1.0000
66.3400 255.0000 1.0000
66.3500 251.0000 1.0000
66.3600 243.0000 1.0000
66.3700 262.0000 1.0000
66.3800 265.0000 1.0000
66.3900 252.0000 1.0000
66.4000 233.0000 1.0000
66.4100 253.0000 1.0000
66.4200 248.0000 1.0000
66.4300 223.0000 1.0000
66.4400 233.0000 1.0000
66.4500 223.0000 1.0000
66.4600 239.0000 1.0000
66.4700 250.0000 1.0000
66.4800 237.0000 1.0000
66.4900 239.0000 1.0000
66.5000 245.0000 1.0000
66.5100 261.0000 1.0000
66.5200 251.0000 1.0000
66.5300 250.0000 1.0000
66.5400 234.0000 1.0000
66.5500 240.0000 1.0000
66.5600 239.0000 1.0000
66.5700 237.0000 1.0000
66.5800 259.0000 1.0000
66.5900 233.0000 1.0000
66.6000 221.0000 1.0000
66.6100 238.0000 1.0000
66.6200 230.0000 1.0000
66.6300 239.0000 1.0000
66.6400 227.0000 1.0000
66.6500 221.0000 1.0000
66.6600 229.0000 1.0000
66.6700 240.0000 1.0000
66.6800 240.0000 1.0000
66.6900 235.0000 1.0000
66.7000 242.0000 1.0000
66.7100 233.0000 1.0000
66.7200 249.0000 1.0000
66.7300 240.0000 1.0000
66.7400 229.0000 1.0000
66.7500 246.0000 1.0000
66.7600 241.0000 1.0000
66.7700 251.0000 1.0000
66.7800 247.0000 1.0000
66.7900 235.0000 1.0000
66.8000 227.0000 1.0000
66.8100 219.0000 1.0000
66.8200 224.0000 1.0000
66.8300 229.0000 1.0000
66.8400 206.0000 1.0000
66.8500 224.0000 1.0000
66.8600 226.0000 1.0000
66.8700 221.0000 1.0000
66.8800 232.0000 1.0000
66.8900 231.0000 1.0000
66.9000 238.0000 1.0000
66.9100 222.0000 1.0000
66.9200 228.0000 1.0000
66.9300 256.0000 1.0000
66.9400 221.0000 1.0000
66.9500 238.0000 1.0000
66.9600 247.0000 1.0000
66.9700 230.0000 1.0000
66.9800 224.0000 1.0000
66.9900 218.0000 1.0000
67.0000 211.0000 1.0000
67.0100 246.0000 1.0000
67.0200 216.0000 1.0000
67.0300 243.0000 1.0000
67.0400 246.0000 1.0000
67.0500 233.0000 1.0000
67.0600 187.0000 1.0000
67.0700 223.0000 1.0000
67.0800 255.0000 1.0000
67.0900 245.0000 1.0000
67.1000 207.0000 1.0000
67.1100 212.0000 1.0000
67.1200 237.0000 1.0000
67.1300 226.0000 1.0000
67.1400 210.0000 1.0000
67.1500 228.0000 1.0000
67.1600 223.0000 1.0000
67.1700 234.0000 1.0000
67.1800 228.0000 1.0000
67.1900 212.0000 1.0000
67.2000 192.0000 1.0000
67.2100 194.0000 1.0000
67.2200 224.0000 1.0000
67.2300 219.0000 1.0000
67.2400 240.0000 1.0000
67.2500 225.0000 1.0000
67.2600 227.0000 1.0000
67.2700 232.0000 1.0000
67.2800 242.0000 1.0000
67.2900 242.0000 1.0000
67.3000 214.0000 1.0000
67.3100 223.0000 1.0000
67.3200 229.0000 1.0000
67.3300 204.0000 1.0000
67.3400 224.0000 1.0000
67.3500 211.0000 1.0000
67.3600 202.0000 1.0000
67.3700 214.0000 1.0000
67.3800 228.0000 1.0000
67.3900 246.0000 1.0000
67.4000 210.0000 1.0000
67.4100 211.0000 1.0000
67.4200 232.0000 1.0000
67.4300 227.0000 1.0000
67.4400 229.0000 1.0000
67.4500 240.0000 1.0000
67.4600 212.0000 1.0000
67.4700 222.0000 1.0000
67.4800 235.0000 1.0000
67.4900 238.0000 1.0000
67.5000 230.0000 1.0000
67.5100 215.0000 1.0000
67.5200 226.0000 1.0000
67.5300 221.0000 1.0000
67.5400 221.0000 1.0000
67.5500 216.0000 1.0000
67.5600 225.0000 1.0000
67.5700 226.0000 1.0000
67.5800 227.0000 1.0000
67.5900 231.0000 1.0000
67.6000 230.0000 1.0000
67.6100 228.0000 1.0000
67.6200 244.0000 1.0000
67.6300 225.0000 1.0000
67.6400 205.0000 1.0000
67.6500 214.0000 1.0000
67.6600 241.0000 1.0000
67.6700 235.0000 1.0000
67.6800 239.0000 1.0000
67.6900 213.0000 1.0000
67.7000 232.0000 1.0000
67.7100 222.0000 1.0000
67.7200 211.0000 1.0000
67.7300 220.0000 1.0000
67.7400 230.0000 1.0000
67.7500 237.0000 1.0000
67.7600 223.0000 1.0000
67.7700 222.0000 1.0000
67.7800 206.0000 1.0000
67.7900 229.0000 1.0000
67.8000 216.0000 1.0000
67.8100 207.0000 1.0000
67.8200 217.0000 1.0000
67.8300 211.0000 1.0000
67.8400 220.0000 1.0000
67.8500 190.0000 1.0000
67.8600 198.0000 1.0000
67.8700 219.0000 1.0000
67.8800 194.0000 1.0000
67.8900 215.0000 1.0000
67.9000 229.0000 1.0000
67.9100 218.0000 1.0000
67.9200 239.0000 1.0000
67.9300 211.0000 1.0000
67.9400 239.0000 1.0000
67.9500 232.0000 1.0000
67.9600 214.0000 1.0000
67.9700 194.0000 1.0000
67.9800 227.0000 1.0000
67.9900 204.0000 1.0000
68.0000 240.0000 1.0000
68.0100 232.0000 1.0000
68.0200 212.0000 1.0000
68.0300 230.0000 1.0000
68.0400 242.0000 1.0000
68.0500 253.0000 1.0000
68.0600 220.0000 1.0000
68.0700 228.0000 1.0000
68.0800 206.0000 1.0000
68.0900 231.0000 1.0000
68.1000 218.0000 1.0000
68.1100 190.0000 1.0000
68.1200 206.0000 1.0000
68.1300 208.0000 1.0000
68.1400 212.0000 1.0000
68.1500 205.0000 1.0000
68.1600 203.0000 1.0000
68.1700 214.0000 1.0000
68.1800 240.0000 1.0000
68.1900 222.0000 1.0000
68.2000 217.0000 1.0000
68.2100 213.0000 1.0000
68.2200 215.0000 1.0000
68.2300 213.0000 1.0000
68.2400 201.0000 1.0000
68.2500 225.0000 1.0000
68.2600 211.0000 1.0000
68.2700 232.0000 1.0000
68.2800 211.0000 1.0000
68.2900 215.0000 1.0000
68.3000 194.0000 1.0000
68.3100 212.0000 1.0000
68.3200 212.0000 1.0000
68.3300 213.0000 1.0000
68.3400 197.0000 1.0000
68.3500 223.0000 1.0000
68.3600 227.0000 1.0000
68.3700 219.0000 1.0000
68.3800 238.0000 1.0000
68.3900 206.0000 1.0000
68.4000 236.0000 1.0000
68.4100 204.0000 1.0000
68.4200 192.0000 1.0000
68.4300 227.0000 1.0000
68.4400 221.0000 1.0000
68.4500 209.0000 1.0000
68.4600 220.0000 1.0000
68.4700 236.0000 1.0000
68.4800 230.0000 1.0000
68.4900 196.0000 1.0000
68.5000 197.0000 1.0000
68.5100 196.0000 1.0000
68.5200 222.0000 1.0000
68.5300 208.0000 1.0000
68.5400 194.0000 1.0000
68.5500 240.0000 1.0000
68.5600 223.0000 1.0000
68.5700 209.0000 1.0000
68.5800 218.0000 1.0000
68.5900 218.0000 1.0000
68.6000 200.0000 1.0000
68.6100 215.0000 1.0000
68.6200 206.0000 1.0000
68.6300 200.0000 1.0000
68.6400 196.0000 1.0000
68.6500 220.0000 1.0000
68.6600 207.0000 1.0000
68.6700 214.0000 1.0000
68.6800 193.0000 1.0000
68.6900 208.0000 1.0000
68.7000 217.0000 1.0000
68.7100 232.0000 1.0000
68.7200 209.0000 1.0000
68.7300 211.0000 1.0000
68.7400 204.0000 1.0000
68.7500 188.0000 1.0000
68.7600 205.0000 1.0000
68.7700 228.0000 1.0000
68.7800 229.0000 1.0000
68.7900 218.0000 1.0000
68.8000 208.0000 1.0000
68.8100 244.0000 1.0000
68.8200 205.0000 1.0000
68.8300 213.0000 1.0000
68.8400 198.0000 1.0000
68.8500 190.0000 1.0000
68.8600 211.0000 1.0000
68.8700 216.0000 1.0000
68.8800 217.0000 1.0000
68.8900 231.0000 1.0000
68.9000 221.0000 1.0000
68.9100 202.0000 1.0000
68.9200 205.0000 1.0000
68.9300 221.0000 1.0000
68.9400 226.0000 1.0000
68.9500 206.0000 1.0000
68.9600 220.0000 1.0000
68.9700 232.0000 1.0000
68.9800 229.0000 1.0000
68.9900 229.0000 1.0000
69.0000 228.0000 1.0000
69.0100 202.0000 1.0000
69.0200 199.0000 1.0000
69.0300 212.0000 1.0000
69.0400 212.0000 1.0000
69.0500 243.0000 1.0000
69.0600 203.0000 1.0000
69.0700 176.0000 1.0000
69.0800 223.0000 1.0000
69.0900 202.0000 1.0000
69.1000 210.0000 1.0000
69.1100 174.0000 1.0000
69.1200 234.0000 1.0000
69.1300 203.0000 1.0000
69.1400 214.0000 1.0000
69.1500 229.0000 1.0000
69.1600 238.0000 1.0000
69.1700 225.0000 1.0000
69.1800 202.0000 1.0000
69.1900 192.0000 1.0000
69.2000 218.0000 1.0000
69.2100 217.0000 1.0000
69.2200 193.0000 1.0000
69.2300 192.0000 1.0000
69.2400 197.0000 1.0000
69.2500 206.0000 1.0000
69.2600 208.0000 1.0000
69.2700 206.0000 1.0000
69.2800 210.0000 1.0000
69.2900 219.0000 1.0000
69.3000 201.0000 1.0000
69.3100 208.0000 1.0000
69.3200 192.0000 1.0000
69.3300 194.0000 1.0000
69.3400 194.0000 1.0000
69.3500 211.0000 1.0000
69.3600 198.0000 1.0000
69.3700 218.0000 1.0000
69.3800 217.0000 1.0000
69.3900 208.0000 1.0000
69.4000 207.0000 1.0000
69.4100 225.0000 1.0000
69.4200 229.0000 1.0000
69.4300 200.0000 1.0000
69.4400 215.0000 1.0000
69.4500 209.0000 1.0000
69.4600 205.0000 1.0000
69.4700 242.0000 1.0000
69.4800 202.0000 1.0000
69.4900 213.0000 1.0000
69.5000 209.0000 1.0000
69.5100 207.0000 1.0000
69.5200 199.0000 1.0000
69.5300 182.0000 1.0000
69.5400 225.0000 1.0000
69.5500 221.0000 1.0000
69.5600 228.0000 1.0000
69.5700 232.0000 1.0000
69.5800 236.0000 1.0000
69.5900 202.0000 1.0000
69.6000 184.0000 1.0000
69.6100 209.0000 1.0000
69.6200 214.0000 1.0000
69.6300 211.0000 1.0000
69.6400 206.0000 1.0000
69.6500 208.0000 1.0000
69.6600 209.0000 1.0000
69.6700 212.0000 1.0000
69.6800 218.0000 1.0000
69.6900 189.0000 1.0000
69.7000 212.0000 1.0000
69.7100 227.0000 1.0000
69.7200 216.0000 1.0000
69.7300 206.0000 1.0000
69.7400 230.0000 1.0000
69.7500 226.0000 1.0000
69.7600 219.0000 1.0000
69.7700 199.0000 1.0000
69.7800 217.0000 1.0000
69.7900 216.0000 1.0000
69.8000 217.0000 1.0000
69.8100 218.0000 1.0000
69.8200 218.0000 1.0000
69.8300 197.0000 1.0000
69.8400 186.0000 1.0000
69.8500 211.0000 1.0000
69.8600 203.0000 1.0000
69.8700 196.0000 1.0000
69.8800 199.0000 1.0000
69.8900 211.0000 1.0000
69.9000 219.0000 1.0000
69.9100 224.0000 1.0000
69.9200 194.0000 1.0000
69.9300 189.0000 1.0000
69.9400 221.0000 1.0000
69.9500 227.0000 1.0000
69.9600 211.0000 1.0000
69.9700 217.0000 1.0000
69.9800 205.0000 1.0000
69.9900 201.0000 1.0000
70.0000 214.0000 1.0000
*RAS_INT_END
*RAS_TEMPERATURE_START
*RAS_TEMPERATURE_END
*RAS_DATA_END
