*RAS_DATA_START
*RAS_HEADER_START
*DISP_FMT_X "%.2f"
*DISP_FMT_Y "%.0f"
*DISP_FULLSCALE "15830.0000000000"
*DISP_LINE_COLOR "255.0000000000"
*DISP_LINE_STYLE "0.0000000000"
*DISP_LINE_WIDTH "0.2500000000"
*DISP_NOTE "測定データ-12"
*DISP_OFFSET_Y "0.0000000000"
*DISP_PEAKSEARCH_UNIT_Y "cps"
*DISP_RANGE_BOTTOM "0.0000000000"
*DISP_RANGE_LEFT "20.0000000000"
*DISP_RANGE_LOGCUTOFF "0.0100000000"
*DISP_RANGE_RIGHT "70.0000000000"
*DISP_RANGE_TOP "15830.0000000000"
*DISP_SCALE_MODE_Y "0.0000000000"
*DISP_TAB_NAME "2θ/θ"
*DISP_TITLE_Y "強度"
*DISP_UNIT_Y "cps"
*DISP_WINDOW_NAME "MSG_MACROENGINE"
*FILE_COMMENT " "
*FILE_MD5 ""
*FILE_MEMO " "
*FILE_OPERATOR "Administrator"
*FILE_SAMPLE " "
*FILE_TYPE "RAS_RAW"
*FILE_USERGROUP "システムマネージャ"
*FILE_VERSION "1.0000000000"
*HW_ATTACHMENT_ID "ATT0025"
*HW_ATTACHMENT_NAME "標準|Standard"
*HW_COUNTER_ID-0 "CUT0025"
*HW_COUNTER_ID-1 "CUT0020"
*HW_COUNTER_ID-2 "CUT0020"
*HW_COUNTER_ID-3 "CSL0021"
*HW_COUNTER_ID-4 "CMC0021"
*HW_COUNTER_NAME-0 "D/teX Ultra|D/teX Ultra"
*HW_COUNTER_NAME-1 "None|None"
*HW_COUNTER_NAME-2 "None|None"
*HW_COUNTER_NAME-3 "BBM|BBM"
*HW_COUNTER_NAME-4 "検出器モノクロメータ|Detector monochromator"
*HW_COUNTER_SELECT_NAME "D/teX Ultra|D/teX Ultra"
*HW_GONIOMETER_ID "GON0023"
*HW_GONIOMETER_NAME "SmartLab|SmartLab"
*HW_GONIOMETER_RADIUS-0 "90.0"
*HW_GONIOMETER_RADIUS-1 "114.0"
*HW_GONIOMETER_RADIUS-2 "190.0"
*HW_GONIOMETER_RADIUS-3 "300.0"
*HW_GONIOMETER_RADIUS-4 "187.0"
*HW_GONIOMETER_RADIUS-5 "300.0"
*HW_GONIOMETER_RADIUS-6 "113.0"
*HW_GONIOMETER_RADIUS-7 "331.0"
*HW_I_OPT_ID-0 "CBO0021"
*HW_I_OPT_ID-1 "ICR0023"
*HW_I_OPT_ID-2 "ISL0021"
*HW_I_OPT_ID-3 "ISO0021"
*HW_I_OPT_ID-4 "IAD0021"
*HW_I_OPT_ID-5 "IPR0001"
*HW_I_OPT_NAME-0 "CBOユニット|CBO unit"
*HW_I_OPT_NAME-1 "標準入射光学ユニット|Standard incident optical unit"
*HW_I_OPT_NAME-2 "標準入射スリットボックス|Standard incident slit box"
*HW_I_OPT_NAME-3 "入射平行スリット|Incident parallel slit"
*HW_I_OPT_NAME-4 "長手制限スリット|Length limiting slit"
*HW_I_OPT_NAME-5 "None|None"
*HW_R_ATTENUATER_AUTOMODE "0"
*HW_R_OPT_ID-0 "RSS0021"
*HW_R_OPT_ID-1 "RCR0023"
*HW_R_OPT_ID-2 "RSO0021"
*HW_R_OPT_ID-3 "RRS0021"
*HW_R_OPT_ID-4 "ATN0021"
*HW_R_OPT_ID-5 "RFL0021"
*HW_R_OPT_ID-6 "RAD0021"
*HW_R_OPT_NAME-0 "標準受光スリットボックス1|Standard receiving slit box # 1"
*HW_R_OPT_NAME-1 "標準受光光学ユニット1|Standard receiving unit # 1"
*HW_R_OPT_NAME-2 "標準受光光学ユニット2|Standard receiving optical unit # 2"
*HW_R_OPT_NAME-3 "標準受光スリットボックス2|Standard receiving slit box # 2"
*HW_R_OPT_NAME-4 "標準アッテネータ|Standard Attenuator"
*HW_R_OPT_NAME-5 "Cu Kβ|Cu K-beta"
*HW_R_OPT_NAME-6 "調整用受光スリット|Alignment receiving slit"
*HW_SAMPLE_HOLDER_ID "SMP0023"
*HW_SAMPLE_HOLDER_NAME "標準Zステージ|Standard Z stage"
*HW_XG_CURRENT_MAX "50"
*HW_XG_CURRENT_MIN "2"
*HW_XG_CURRENT_RESOLUTION "1"
*HW_XG_CURRENT_UNIT "mA"
*HW_XG_FOCUS "1mm x 10mm"
*HW_XG_FOCUS_TYPE "Normal"
*HW_XG_ID ""
*HW_XG_NAME "3kW 封入管(ID:1200)|3kW Sealed tube(ID:1200)"
*HW_XG_TARGET_ATOMIC_NUMBER "29.0000000000"
*HW_XG_TARGET_NAME "Cu"
*HW_XG_TYPE "Hermetic"
*HW_XG_VOLTAGE_MAX "60"
*HW_XG_VOLTAGE_MIN "20"
*HW_XG_VOLTAGE_RESOLUTION "1"
*HW_XG_VOLTAGE_UNIT "kV"
*HW_XG_WATT_MAX "1.500"
*HW_XG_WATT_UNIT "kW"
*HW_XG_WAVE_LENGTH_ALPHA1 "1.540593"
*HW_XG_WAVE_LENGTH_ALPHA2 "1.544414"
*HW_XG_WAVE_LENGTH_BETA "1.392250"
*MEAS_COND_AXIS_NAME-0 "2θ/θ"
*MEAS_COND_AXIS_NAME-1 "2θ"
*MEAS_COND_AXIS_NAME-2 "ω"
*MEAS_COND_AXIS_NAME-3 "Z"
*MEAS_COND_AXIS_NAME-4 "2θ/ω"
*MEAS_COND_AXIS_NAME-5 "θs"
*MEAS_COND_AXIS_NAME-6 "θd"
*MEAS_COND_AXIS_NAME-7 "Ts"
*MEAS_COND_AXIS_NAME-8 "CBO選択スリット"
*MEAS_COND_AXIS_NAME-9 "M"
*MEAS_COND_AXIS_NAME-10 "入射平行スリット"
*MEAS_COND_AXIS_NAME-11 "入射スリット"
*MEAS_COND_AXIS_NAME-12 ""
*MEAS_COND_AXIS_NAME-13 "Zs"
*MEAS_COND_AXIS_NAME-14 "入射光学素子"
*MEAS_COND_AXIS_NAME-15 "長手制限スリット"
*MEAS_COND_AXIS_NAME-16 "センタースリット"
*MEAS_COND_AXIS_NAME-17 "フィルター"
*MEAS_COND_AXIS_NAME-18 "受光スリット1"
*MEAS_COND_AXIS_NAME-19 "受光スリット2"
*MEAS_COND_AXIS_NAME-20 "受光光学素子"
*MEAS_COND_AXIS_NAME-21 "受光平行スリット"
*MEAS_COND_AXIS_NAME-22 "調整用受光スリット"
*MEAS_COND_AXIS_NAME-23 ""
*MEAS_COND_AXIS_NAME-24 ""
*MEAS_COND_AXIS_NAME-25 "Zd"
*MEAS_COND_AXIS_NAME-26 "アッテネータ"
*MEAS_COND_AXIS_NAME-27 "検出器モノクロメータ"
*MEAS_COND_AXIS_NAME-28 "モノクロメータスリット"
*MEAS_COND_AXIS_NAME-29 "プライマリビーム"
*MEAS_COND_AXIS_NAME-30 "PHA"
*MEAS_COND_AXIS_NAME_INTERNAL-0 "TwoThetaTheta"
*MEAS_COND_AXIS_NAME_INTERNAL-1 "TwoTheta"
*MEAS_COND_AXIS_NAME_INTERNAL-2 "Omega"
*MEAS_COND_AXIS_NAME_INTERNAL-3 "Z"
*MEAS_COND_AXIS_NAME_INTERNAL-4 "TwoThetaOmega"
*MEAS_COND_AXIS_NAME_INTERNAL-5 "ThetaS"
*MEAS_COND_AXIS_NAME_INTERNAL-6 "ThetaD"
*MEAS_COND_AXIS_NAME_INTERNAL-7 "Ts"
*MEAS_COND_AXIS_NAME_INTERNAL-8 "CBO"
*MEAS_COND_AXIS_NAME_INTERNAL-9 "CBO-M"
*MEAS_COND_AXIS_NAME_INTERNAL-10 "IncidentSollerSlit"
*MEAS_COND_AXIS_NAME_INTERNAL-11 "IncidentSlitBox"
*MEAS_COND_AXIS_NAME_INTERNAL-12 "IncidentSlitBox-_Axis"
*MEAS_COND_AXIS_NAME_INTERNAL-13 "Zs"
*MEAS_COND_AXIS_NAME_INTERNAL-14 "IncidentMonochromator"
*MEAS_COND_AXIS_NAME_INTERNAL-15 "IncidentAxdSlit"
*MEAS_COND_AXIS_NAME_INTERNAL-16 "CenterSlit"
*MEAS_COND_AXIS_NAME_INTERNAL-17 "Filter"
*MEAS_COND_AXIS_NAME_INTERNAL-18 "ReceivingSlitBox1"
*MEAS_COND_AXIS_NAME_INTERNAL-19 "ReceivingSlitBox2"
*MEAS_COND_AXIS_NAME_INTERNAL-20 "ReceivingOptics"
*MEAS_COND_AXIS_NAME_INTERNAL-21 "ReceivingSollerSlit"
*MEAS_COND_AXIS_NAME_INTERNAL-22 "ReceivingAxdSlit"
*MEAS_COND_AXIS_NAME_INTERNAL-23 "ReceivingSlitBox1-_Axis"
*MEAS_COND_AXIS_NAME_INTERNAL-24 "ReceivingSlitBox2-_Axis"
*MEAS_COND_AXIS_NAME_INTERNAL-25 "ReceivingSlitBox2-Zd"
*MEAS_COND_AXIS_NAME_INTERNAL-26 "Attenuator"
*MEAS_COND_AXIS_NAME_INTERNAL-27 "CounterMonochromator"
*MEAS_COND_AXIS_NAME_INTERNAL-28 "CounterSlit"
*MEAS_COND_AXIS_NAME_INTERNAL-29 "IncidentPrimary"
*MEAS_COND_AXIS_NAME_INTERNAL-30 "PHA"
*MEAS_COND_AXIS_NAME_MAGICNO-0 "83951616.0000000000"
*MEAS_COND_AXIS_NAME_MAGICNO-1 "268632064.0000000000"
*MEAS_COND_AXIS_NAME_MAGICNO-2 "268500992.0000000000"
*MEAS_COND_AXIS_NAME_MAGICNO-3 "285278208.0000000000"
*MEAS_COND_AXIS_NAME_MAGICNO-4 "83951616.0000000000"
*MEAS_COND_AXIS_NAME_MAGICNO-5 "131072.0000000000"
*MEAS_COND_AXIS_NAME_MAGICNO-6 "131072.0000000000"
*MEAS_COND_AXIS_NAME_MAGICNO-7 "318898176.0000000000"
*MEAS_COND_AXIS_NAME_MAGICNO-8 "20971521.0000000000"
*MEAS_COND_AXIS_NAME_MAGICNO-9 "285343744.0000000000"
*MEAS_COND_AXIS_NAME_MAGICNO-10 "20971521.0000000000"
*MEAS_COND_AXIS_NAME_MAGICNO-11 "22020097.0000000000"
*MEAS_COND_AXIS_NAME_MAGICNO-12 "25165824.0000000000"
*MEAS_COND_AXIS_NAME_MAGICNO-13 "318898176.0000000000"
*MEAS_COND_AXIS_NAME_MAGICNO-14 "1.0000000000"
*MEAS_COND_AXIS_NAME_MAGICNO-15 "20971521.0000000000"
*MEAS_COND_AXIS_NAME_MAGICNO-16 "20971521.0000000000"
*MEAS_COND_AXIS_NAME_MAGICNO-17 "20971521.0000000000"
*MEAS_COND_AXIS_NAME_MAGICNO-18 "23068673.0000000000"
*MEAS_COND_AXIS_NAME_MAGICNO-19 "23068673.0000000000"
*MEAS_COND_AXIS_NAME_MAGICNO-20 "20971521.0000000000"
*MEAS_COND_AXIS_NAME_MAGICNO-21 "20971521.0000000000"
*MEAS_COND_AXIS_NAME_MAGICNO-22 "20971521.0000000000"
*MEAS_COND_AXIS_NAME_MAGICNO-23 "25165824.0000000000"
*MEAS_COND_AXIS_NAME_MAGICNO-24 "25165824.0000000000"
*MEAS_COND_AXIS_NAME_MAGICNO-25 "285343744.0000000000"
*MEAS_COND_AXIS_NAME_MAGICNO-26 "17301505.0000000000"
*MEAS_COND_AXIS_NAME_MAGICNO-27 "20971521.0000000000"
*MEAS_COND_AXIS_NAME_MAGICNO-28 "20971521.0000000000"
*MEAS_COND_AXIS_NAME_MAGICNO-29 "20971521.0000000000"
*MEAS_COND_AXIS_NAME_MAGICNO-30 "0.0000000000"
*MEAS_COND_AXIS_OFFSET-0 "-"
*MEAS_COND_AXIS_OFFSET-1 "-0.0310000000"
*MEAS_COND_AXIS_OFFSET-2 "0.3957000000"
*MEAS_COND_AXIS_OFFSET-3 "-"
*MEAS_COND_AXIS_OFFSET-4 "-"
*MEAS_COND_AXIS_OFFSET-5 "0.3957000000"
*MEAS_COND_AXIS_OFFSET-6 "-0.4267000000"
*MEAS_COND_AXIS_OFFSET-7 "-"
*MEAS_COND_AXIS_OFFSET-8 "-"
*MEAS_COND_AXIS_OFFSET-9 "-"
*MEAS_COND_AXIS_OFFSET-10 "-"
*MEAS_COND_AXIS_OFFSET-11 "-"
*MEAS_COND_AXIS_OFFSET-12 "-"
*MEAS_COND_AXIS_OFFSET-13 "-"
*MEAS_COND_AXIS_OFFSET-14 "-"
*MEAS_COND_AXIS_OFFSET-15 "-"
*MEAS_COND_AXIS_OFFSET-16 "-"
*MEAS_COND_AXIS_OFFSET-17 "-"
*MEAS_COND_AXIS_OFFSET-18 "-"
*MEAS_COND_AXIS_OFFSET-19 "-"
*MEAS_COND_AXIS_OFFSET-20 "-"
*MEAS_COND_AXIS_OFFSET-21 "-"
*MEAS_COND_AXIS_OFFSET-22 "-"
*MEAS_COND_AXIS_OFFSET-23 "-"
*MEAS_COND_AXIS_OFFSET-24 "-"
*MEAS_COND_AXIS_OFFSET-25 "-"
*MEAS_COND_AXIS_OFFSET-26 "-"
*MEAS_COND_AXIS_OFFSET-27 "-"
*MEAS_COND_AXIS_OFFSET-28 "-"
*MEAS_COND_AXIS_OFFSET-29 "-"
*MEAS_COND_AXIS_OFFSET-30 "-"
*MEAS_COND_AXIS_POSITION-0 "0.0000000000"
*MEAS_COND_AXIS_POSITION-1 "0.0000000000"
*MEAS_COND_AXIS_POSITION-2 "0.0000000000"
*MEAS_COND_AXIS_POSITION-3 "-2.9656400000"
*MEAS_COND_AXIS_POSITION-4 "0.0000000000"
*MEAS_COND_AXIS_POSITION-5 "0.0000000000"
*MEAS_COND_AXIS_POSITION-6 "0.0000000000"
*MEAS_COND_AXIS_POSITION-7 "-0.7498700000"
*MEAS_COND_AXIS_POSITION-8 "BB"
*MEAS_COND_AXIS_POSITION-9 "0.0000000000"
*MEAS_COND_AXIS_POSITION-10 "Soller_slit_5.0deg"
*MEAS_COND_AXIS_POSITION-11 "2/3deg"
*MEAS_COND_AXIS_POSITION-12 "2.2088000000"
*MEAS_COND_AXIS_POSITION-13 "-0.6412500000"
*MEAS_COND_AXIS_POSITION-14 "0.0000000000"
*MEAS_COND_AXIS_POSITION-15 "10.0mm"
*MEAS_COND_AXIS_POSITION-16 "None"
*MEAS_COND_AXIS_POSITION-17 "Cu_K-beta"
*MEAS_COND_AXIS_POSITION-18 "13.000mm"
*MEAS_COND_AXIS_POSITION-19 "13.000mm"
*MEAS_COND_AXIS_POSITION-20 "No_unit"
*MEAS_COND_AXIS_POSITION-21 "Soller_slit_5.0deg"
*MEAS_COND_AXIS_POSITION-22 "None"
*MEAS_COND_AXIS_POSITION-23 "13.0000000000"
*MEAS_COND_AXIS_POSITION-24 "13.0000000000"
*MEAS_COND_AXIS_POSITION-25 "0.0281300000"
*MEAS_COND_AXIS_POSITION-26 "Open"
*MEAS_COND_AXIS_POSITION-27 "None"
*MEAS_COND_AXIS_POSITION-28 "None"
*MEAS_COND_AXIS_POSITION-29 "None"
*MEAS_COND_AXIS_POSITION-30 "38.0000000000"
*MEAS_COND_AXIS_UNIT-0 "deg"
*MEAS_COND_AXIS_UNIT-1 "deg"
*MEAS_COND_AXIS_UNIT-2 "deg"
*MEAS_COND_AXIS_UNIT-3 "mm"
*MEAS_COND_AXIS_UNIT-4 "deg"
*MEAS_COND_AXIS_UNIT-5 "deg"
*MEAS_COND_AXIS_UNIT-6 "deg"
*MEAS_COND_AXIS_UNIT-7 "mm"
*MEAS_COND_AXIS_UNIT-8 ""
*MEAS_COND_AXIS_UNIT-9 "pulse"
*MEAS_COND_AXIS_UNIT-10 ""
*MEAS_COND_AXIS_UNIT-11 ""
*MEAS_COND_AXIS_UNIT-12 "mm"
*MEAS_COND_AXIS_UNIT-13 "mm"
*MEAS_COND_AXIS_UNIT-14 ""
*MEAS_COND_AXIS_UNIT-15 ""
*MEAS_COND_AXIS_UNIT-16 ""
*MEAS_COND_AXIS_UNIT-17 ""
*MEAS_COND_AXIS_UNIT-18 ""
*MEAS_COND_AXIS_UNIT-19 ""
*MEAS_COND_AXIS_UNIT-20 ""
*MEAS_COND_AXIS_UNIT-21 ""
*MEAS_COND_AXIS_UNIT-22 ""
*MEAS_COND_AXIS_UNIT-23 "mm"
*MEAS_COND_AXIS_UNIT-24 "mm"
*MEAS_COND_AXIS_UNIT-25 "mm"
*MEAS_COND_AXIS_UNIT-26 ""
*MEAS_COND_AXIS_UNIT-27 ""
*MEAS_COND_AXIS_UNIT-28 ""
*MEAS_COND_AXIS_UNIT-29 ""
*MEAS_COND_AXIS_UNIT-30 "div"
*MEAS_COND_COUNTER_CNTLOSS_CORR "0.0000000000"
*MEAS_COND_COUNTER_PHABASE "38.0000000000"
*MEAS_COND_COUNTER_PHAWINDOW "16.0000000000"
*MEAS_COND_COUNTER_PHA_UNIT "div"
*MEAS_COND_COUNTER_TAUDIFF "30.0000000000"
*MEAS_COND_COUNTER_TAUINT "0.0000000000"
*MEAS_COND_IRRADIATION_MODE "OFF"
*MEAS_COND_IRRADIATION_WIDTH ""
*MEAS_COND_OPT_ATTR "集中法"
*MEAS_COND_OPT_NAME "@集中法"
*MEAS_COND_UNSYMMETRIC_MODE "OFF"
*MEAS_COND_XG_CURRENT "30.0000000000"
*MEAS_COND_XG_VOLTAGE "40.0000000000"
*MEAS_COND_XG_WAVE_TYPE "Ka"
*MEAS_DATA_COUNT "5001.0000000000"
*MEAS_SCAN_AXIS_X "2θ/θ"
*MEAS_SCAN_AXIS_X_INTERNAL "TwoThetaTheta"
*MEAS_SCAN_END_TIME "02/14/24 21:25:04"
*MEAS_SCAN_MODE "CONTINUOUS"
*MEAS_SCAN_MONITOR "0"
*MEAS_SCAN_RESOLUTION_X "0.0002"
*MEAS_SCAN_SPEED "2.5"
*MEAS_SCAN_SPEED_UNIT "deg/min"
*MEAS_SCAN_START "20.0000000000"
*MEAS_SCAN_START_TIME "02/14/24 21:03:40"
*MEAS_SCAN_STEP "0.0100000000"
*MEAS_SCAN_STOP "70.0000000000"
*MEAS_SCAN_UNIT_X "deg"
*MEAS_SCAN_UNIT_Y "counts"
*RAS_HEADER_END
*RAS_INT_START
20.0000 755.0000 1.0000
20.0100 774.0000 1.0000
20.0200 717.0000 1.0000
20.0300 723.0000 1.0000
20.0400 745.0000 1.0000
20.0500 797.0000 1.0000
20.0600 755.0000 1.0000
20.0700 842.0000 1.0000
20.0800 778.0000 1.0000
20.0900 728.0000 1.0000
20.1000 719.0000 1.0000
20.1100 730.0000 1.0000
20.1200 760.0000 1.0000
20.1300 730.0000 1.0000
20.1400 714.0000 1.0000
20.1500 723.0000 1.0000
20.1600 759.0000 1.0000
20.1700 761.0000 1.0000
20.1800 764.0000 1.0000
20.1900 743.0000 1.0000
20.2000 747.0000 1.0000
20.2100 716.0000 1.0000
20.2200 732.0000 1.0000
20.2300 745.0000 1.0000
20.2400 733.0000 1.0000
20.2500 748.0000 1.0000
20.2600 717.0000 1.0000
20.2700 737.0000 1.0000
20.2800 745.0000 1.0000
20.2900 713.0000 1.0000
20.3000 752.0000 1.0000
20.3100 779.0000 1.0000
20.3200 752.0000 1.0000
20.3300 765.0000 1.0000
20.3400 759.0000 1.0000
20.3500 760.0000 1.0000
20.3600 737.0000 1.0000
20.3700 760.0000 1.0000
20.3800 759.0000 1.0000
20.3900 726.0000 1.0000
20.4000 719.0000 1.0000
20.4100 717.0000 1.0000
20.4200 759.0000 1.0000
20.4300 734.0000 1.0000
20.4400 748.0000 1.0000
20.4500 707.0000 1.0000
20.4600 720.0000 1.0000
20.4700 717.0000 1.0000
20.4800 716.0000 1.0000
20.4900 761.0000 1.0000
20.5000 752.0000 1.0000
20.5100 727.0000 1.0000
20.5200 756.0000 1.0000
20.5300 762.0000 1.0000
20.5400 689.0000 1.0000
20.5500 725.0000 1.0000
20.5600 737.0000 1.0000
20.5700 772.0000 1.0000
20.5800 760.0000 1.0000
20.5900 738.0000 1.0000
20.6000 763.0000 1.0000
20.6100 759.0000 1.0000
20.6200 735.0000 1.0000
20.6300 752.0000 1.0000
20.6400 762.0000 1.0000
20.6500 714.0000 1.0000
20.6600 747.0000 1.0000
20.6700 734.0000 1.0000
20.6800 778.0000 1.0000
20.6900 753.0000 1.0000
20.7000 744.0000 1.0000
20.7100 770.0000 1.0000
20.7200 790.0000 1.0000
20.7300 755.0000 1.0000
20.7400 773.0000 1.0000
20.7500 741.0000 1.0000
20.7600 733.0000 1.0000
20.7700 711.0000 1.0000
20.7800 758.0000 1.0000
20.7900 766.0000 1.0000
20.8000 721.0000 1.0000
20.8100 720.0000 1.0000
20.8200 734.0000 1.0000
20.8300 725.0000 1.0000
20.8400 745.0000 1.0000
20.8500 711.0000 1.0000
20.8600 718.0000 1.0000
20.8700 746.0000 1.0000
20.8800 706.0000 1.0000
20.8900 764.0000 1.0000
20.9000 760.0000 1.0000
20.9100 724.0000 1.0000
20.9200 755.0000 1.0000
20.9300 727.0000 1.0000
20.9400 759.0000 1.0000
20.9500 704.0000 1.0000
20.9600 726.0000 1.0000
20.9700 694.0000 1.0000
20.9800 688.0000 1.0000
20.9900 725.0000 1.0000
21.0000 775.0000 1.0000
21.0100 746.0000 1.0000
21.0200 754.0000 1.0000
21.0300 735.0000 1.0000
21.0400 749.0000 1.0000
21.0500 749.0000 1.0000
21.0600 750.0000 1.0000
21.0700 793.0000 1.0000
21.0800 775.0000 1.0000
21.0900 756.0000 1.0000
21.1000 723.0000 1.0000
21.1100 749.0000 1.0000
21.1200 715.0000 1.0000
21.1300 743.0000 1.0000
21.1400 712.0000 1.0000
21.1500 735.0000 1.0000
21.1600 748.0000 1.0000
21.1700 719.0000 1.0000
21.1800 704.0000 1.0000
21.1900 748.0000 1.0000
21.2000 737.0000 1.0000
21.2100 740.0000 1.0000
21.2200 727.0000 1.0000
21.2300 740.0000 1.0000
21.2400 730.0000 1.0000
21.2500 761.0000 1.0000
21.2600 744.0000 1.0000
21.2700 746.0000 1.0000
21.2800 701.0000 1.0000
21.2900 734.0000 1.0000
21.3000 742.0000 1.0000
21.3100 737.0000 1.0000
21.3200 752.0000 1.0000
21.3300 749.0000 1.0000
21.3400 765.0000 1.0000
21.3500 793.0000 1.0000
21.3600 762.0000 1.0000
21.3700 725.0000 1.0000
21.3800 738.0000 1.0000
21.3900 747.0000 1.0000
21.4000 756.0000 1.0000
21.4100 749.0000 1.0000
21.4200 730.0000 1.0000
21.4300 730.0000 1.0000
21.4400 739.0000 1.0000
21.4500 749.0000 1.0000
21.4600 720.0000 1.0000
21.4700 740.0000 1.0000
21.4800 725.0000 1.0000
21.4900 708.0000 1.0000
21.5000 708.0000 1.0000
21.5100 753.0000 1.0000
21.5200 701.0000 1.0000
21.5300 699.0000 1.0000
21.5400 723.0000 1.0000
21.5500 728.0000 1.0000
21.5600 706.0000 1.0000
21.5700 749.0000 1.0000
21.5800 777.0000 1.0000
21.5900 740.0000 1.0000
21.6000 715.0000 1.0000
21.6100 699.0000 1.0000
21.6200 685.0000 1.0000
21.6300 739.0000 1.0000
21.6400 722.0000 1.0000
21.6500 718.0000 1.0000
21.6600 737.0000 1.0000
21.6700 712.0000 1.0000
21.6800 749.0000 1.0000
21.6900 754.0000 1.0000
21.7000 727.0000 1.0000
21.7100 762.0000 1.0000
21.7200 737.0000 1.0000
21.7300 757.0000 1.0000
21.7400 755.0000 1.0000
21.7500 751.0000 1.0000
21.7600 725.0000 1.0000
21.7700 758.0000 1.0000
21.7800 748.0000 1.0000
21.7900 695.0000 1.0000
21.8000 748.0000 1.0000
21.8100 713.0000 1.0000
21.8200 687.0000 1.0000
21.8300 717.0000 1.0000
21.8400 736.0000 1.0000
21.8500 707.0000 1.0000
21.8600 735.0000 1.0000
21.8700 736.0000 1.0000
21.8800 750.0000 1.0000
21.8900 727.0000 1.0000
21.9000 706.0000 1.0000
21.9100 726.0000 1.0000
21.9200 732.0000 1.0000
21.9300 724.0000 1.0000
21.9400 742.0000 1.0000
21.9500 713.0000 1.0000
21.9600 735.0000 1.0000
21.9700 761.0000 1.0000
21.9800 712.0000 1.0000
21.9900 739.0000 1.0000
22.0000 738.0000 1.0000
22.0100 726.0000 1.0000
22.0200 758.0000 1.0000
22.0300 738.0000 1.0000
22.0400 768.0000 1.0000
22.0500 704.0000 1.0000
22.0600 729.0000 1.0000
22.0700 748.0000 1.0000
22.0800 705.0000 1.0000
22.0900 736.0000 1.0000
22.1000 731.0000 1.0000
22.1100 721.0000 1.0000
22.1200 751.0000 1.0000
22.1300 726.0000 1.0000
22.1400 723.0000 1.0000
22.1500 745.0000 1.0000
22.1600 745.0000 1.0000
22.1700 758.0000 1.0000
22.1800 790.0000 1.0000
22.1900 744.0000 1.0000
22.2000 748.0000 1.0000
22.2100 725.0000 1.0000
22.2200 753.0000 1.0000
22.2300 735.0000 1.0000
22.2400 763.0000 1.0000
22.2500 721.0000 1.0000
22.2600 718.0000 1.0000
22.2700 749.0000 1.0000
22.2800 702.0000 1.0000
22.2900 685.0000 1.0000
22.3000 716.0000 1.0000
22.3100 743.0000 1.0000
22.3200 753.0000 1.0000
22.3300 745.0000 1.0000
22.3400 792.0000 1.0000
22.3500 739.0000 1.0000
22.3600 738.0000 1.0000
22.3700 718.0000 1.0000
22.3800 718.0000 1.0000
22.3900 760.0000 1.0000
22.4000 726.0000 1.0000
22.4100 762.0000 1.0000
22.4200 702.0000 1.0000
22.4300 727.0000 1.0000
22.4400 774.0000 1.0000
22.4500 766.0000 1.0000
22.4600 764.0000 1.0000
22.4700 758.0000 1.0000
22.4800 740.0000 1.0000
22.4900 781.0000 1.0000
22.5000 736.0000 1.0000
22.5100 753.0000 1.0000
22.5200 647.0000 1.0000
22.5300 726.0000 1.0000
22.5400 771.0000 1.0000
22.5500 763.0000 1.0000
22.5600 758.0000 1.0000
22.5700 733.0000 1.0000
22.5800 736.0000 1.0000
22.5900 746.0000 1.0000
22.6000 705.0000 1.0000
22.6100 683.0000 1.0000
22.6200 725.0000 1.0000
22.6300 707.0000 1.0000
22.6400 694.0000 1.0000
22.6500 709.0000 1.0000
22.6600 743.0000 1.0000
22.6700 729.0000 1.0000
22.6800 758.0000 1.0000
22.6900 747.0000 1.0000
22.7000 745.0000 1.0000
22.7100 766.0000 1.0000
22.7200 704.0000 1.0000
22.7300 765.0000 1.0000
22.7400 756.0000 1.0000
22.7500 752.0000 1.0000
22.7600 705.0000 1.0000
22.7700 700.0000 1.0000
22.7800 754.0000 1.0000
22.7900 738.0000 1.0000
22.8000 758.0000 1.0000
22.8100 726.0000 1.0000
22.8200 703.0000 1.0000
22.8300 734.0000 1.0000
22.8400 726.0000 1.0000
22.8500 710.0000 1.0000
22.8600 759.0000 1.0000
22.8700 753.0000 1.0000
22.8800 749.0000 1.0000
22.8900 719.0000 1.0000
22.9000 733.0000 1.0000
22.9100 738.0000 1.0000
22.9200 733.0000 1.0000
22.9300 701.0000 1.0000
22.9400 687.0000 1.0000
22.9500 707.0000 1.0000
22.9600 716.0000 1.0000
22.9700 692.0000 1.0000
22.9800 717.0000 1.0000
22.9900 704.0000 1.0000
23.0000 704.0000 1.0000
23.0100 702.0000 1.0000
23.0200 676.0000 1.0000
23.0300 721.0000 1.0000
23.0400 710.0000 1.0000
23.0500 697.0000 1.0000
23.0600 778.0000 1.0000
23.0700 691.0000 1.0000
23.0800 718.0000 1.0000
23.0900 745.0000 1.0000
23.1000 701.0000 1.0000
23.1100 689.0000 1.0000
23.1200 721.0000 1.0000
23.1300 725.0000 1.0000
23.1400 694.0000 1.0000
23.1500 727.0000 1.0000
23.1600 756.0000 1.0000
23.1700 742.0000 1.0000
23.1800 751.0000 1.0000
23.1900 712.0000 1.0000
23.2000 746.0000 1.0000
23.2100 716.0000 1.0000
23.2200 737.0000 1.0000
23.2300 754.0000 1.0000
23.2400 724.0000 1.0000
23.2500 739.0000 1.0000
23.2600 725.0000 1.0000
23.2700 745.0000 1.0000
23.2800 714.0000 1.0000
23.2900 728.0000 1.0000
23.3000 777.0000 1.0000
23.3100 718.0000 1.0000
23.3200 716.0000 1.0000
23.3300 723.0000 1.0000
23.3400 693.0000 1.0000
23.3500 723.0000 1.0000
23.3600 713.0000 1.0000
23.3700 723.0000 1.0000
23.3800 673.0000 1.0000
23.3900 714.0000 1.0000
23.4000 722.0000 1.0000
23.4100 743.0000 1.0000
23.4200 709.0000 1.0000
23.4300 744.0000 1.0000
23.4400 726.0000 1.0000
23.4500 753.0000 1.0000
23.4600 745.0000 1.0000
23.4700 731.0000 1.0000
23.4800 742.0000 1.0000
23.4900 691.0000 1.0000
23.5000 706.0000 1.0000
23.5100 712.0000 1.0000
23.5200 760.0000 1.0000
23.5300 752.0000 1.0000
23.5400 732.0000 1.0000
23.5500 728.0000 1.0000
23.5600 732.0000 1.0000
23.5700 727.0000 1.0000
23.5800 734.0000 1.0000
23.5900 701.0000 1.0000
23.6000 679.0000 1.0000
23.6100 707.0000 1.0000
23.6200 691.0000 1.0000
23.6300 768.0000 1.0000
23.6400 726.0000 1.0000
23.6500 717.0000 1.0000
23.6600 728.0000 1.0000
23.6700 758.0000 1.0000
23.6800 768.0000 1.0000
23.6900 725.0000 1.0000
23.7000 680.0000 1.0000
23.7100 701.0000 1.0000
23.7200 690.0000 1.0000
23.7300 711.0000 1.0000
23.7400 700.0000 1.0000
23.7500 730.0000 1.0000
23.7600 721.0000 1.0000
23.7700 792.0000 1.0000
23.7800 719.0000 1.0000
23.7900 710.0000 1.0000
23.8000 731.0000 1.0000
23.8100 700.0000 1.0000
23.8200 722.0000 1.0000
23.8300 772.0000 1.0000
23.8400 766.0000 1.0000
23.8500 731.0000 1.0000
23.8600 722.0000 1.0000
23.8700 724.0000 1.0000
23.8800 717.0000 1.0000
23.8900 727.0000 1.0000
23.9000 741.0000 1.0000
23.9100 748.0000 1.0000
23.9200 722.0000 1.0000
23.9300 750.0000 1.0000
23.9400 767.0000 1.0000
23.9500 746.0000 1.0000
23.9600 763.0000 1.0000
23.9700 754.0000 1.0000
23.9800 743.0000 1.0000
23.9900 758.0000 1.0000
24.0000 767.0000 1.0000
24.0100 784.0000 1.0000
24.0200 785.0000 1.0000
24.0300 855.0000 1.0000
24.0400 809.0000 1.0000
24.0500 798.0000 1.0000
24.0600 848.0000 1.0000
24.0700 799.0000 1.0000
24.0800 838.0000 1.0000
24.0900 857.0000 1.0000
24.1000 820.0000 1.0000
24.1100 881.0000 1.0000
24.1200 819.0000 1.0000
24.1300 808.0000 1.0000
24.1400 802.0000 1.0000
24.1500 808.0000 1.0000
24.1600 800.0000 1.0000
24.1700 756.0000 1.0000
24.1800 790.0000 1.0000
24.1900 784.0000 1.0000
24.2000 772.0000 1.0000
24.2100 749.0000 1.0000
24.2200 773.0000 1.0000
24.2300 731.0000 1.0000
24.2400 737.0000 1.0000
24.2500 757.0000 1.0000
24.2600 796.0000 1.0000
24.2700 723.0000 1.0000
24.2800 751.0000 1.0000
24.2900 732.0000 1.0000
24.3000 721.0000 1.0000
24.3100 704.0000 1.0000
24.3200 718.0000 1.0000
24.3300 739.0000 1.0000
24.3400 740.0000 1.0000
24.3500 721.0000 1.0000
24.3600 738.0000 1.0000
24.3700 768.0000 1.0000
24.3800 737.0000 1.0000
24.3900 699.0000 1.0000
24.4000 741.0000 1.0000
24.4100 765.0000 1.0000
24.4200 682.0000 1.0000
24.4300 712.0000 1.0000
24.4400 736.0000 1.0000
24.4500 732.0000 1.0000
24.4600 760.0000 1.0000
24.4700 686.0000 1.0000
24.4800 748.0000 1.0000
24.4900 724.0000 1.0000
24.5000 688.0000 1.0000
24.5100 714.0000 1.0000
24.5200 686.0000 1.0000
24.5300 706.0000 1.0000
24.5400 712.0000 1.0000
24.5500 669.0000 1.0000
24.5600 713.0000 1.0000
24.5700 712.0000 1.0000
24.5800 702.0000 1.0000
24.5900 733.0000 1.0000
24.6000 720.0000 1.0000
24.6100 682.0000 1.0000
24.6200 703.0000 1.0000
24.6300 757.0000 1.0000
24.6400 747.0000 1.0000
24.6500 738.0000 1.0000
24.6600 721.0000 1.0000
24.6700 703.0000 1.0000
24.6800 753.0000 1.0000
24.6900 728.0000 1.0000
24.7000 703.0000 1.0000
24.7100 749.0000 1.0000
24.7200 714.0000 1.0000
24.7300 686.0000 1.0000
24.7400 736.0000 1.0000
24.7500 729.0000 1.0000
24.7600 714.0000 1.0000
24.7700 693.0000 1.0000
24.7800 729.0000 1.0000
24.7900 710.0000 1.0000
24.8000 718.0000 1.0000
24.8100 688.0000 1.0000
24.8200 705.0000 1.0000
24.8300 709.0000 1.0000
24.8400 720.0000 1.0000
24.8500 680.0000 1.0000
24.8600 721.0000 1.0000
24.8700 720.0000 1.0000
24.8800 734.0000 1.0000
24.8900 635.0000 1.0000
24.9000 646.0000 1.0000
24.9100 677.0000 1.0000
24.9200 732.0000 1.0000
24.9300 693.0000 1.0000
24.9400 696.0000 1.0000
24.9500 714.0000 1.0000
24.9600 685.0000 1.0000
24.9700 650.0000 1.0000
24.9800 653.0000 1.0000
24.9900 693.0000 1.0000
25.0000 665.0000 1.0000
25.0100 704.0000 1.0000
25.0200 686.0000 1.0000
25.0300 702.0000 1.0000
25.0400 696.0000 1.0000
25.0500 724.0000 1.0000
25.0600 644.0000 1.0000
25.0700 726.0000 1.0000
25.0800 703.0000 1.0000
25.0900 717.0000 1.0000
25.1000 666.0000 1.0000
25.1100 677.0000 1.0000
25.1200 689.0000 1.0000
25.1300 730.0000 1.0000
25.1400 670.0000 1.0000
25.1500 679.0000 1.0000
25.1600 637.0000 1.0000
25.1700 697.0000 1.0000
25.1800 699.0000 1.0000
25.1900 669.0000 1.0000
25.2000 700.0000 1.0000
25.2100 750.0000 1.0000
25.2200 726.0000 1.0000
25.2300 702.0000 1.0000
25.2400 727.0000 1.0000
25.2500 713.0000 1.0000
25.2600 678.0000 1.0000
25.2700 672.0000 1.0000
25.2800 678.0000 1.0000
25.2900 697.0000 1.0000
25.3000 698.0000 1.0000
25.3100 696.0000 1.0000
25.3200 701.0000 1.0000
25.3300 682.0000 1.0000
25.3400 671.0000 1.0000
25.3500 728.0000 1.0000
25.3600 724.0000 1.0000
25.3700 724.0000 1.0000
25.3800 729.0000 1.0000
25.3900 731.0000 1.0000
25.4000 757.0000 1.0000
25.4100 702.0000 1.0000
25.4200 724.0000 1.0000
25.4300 718.0000 1.0000
25.4400 690.0000 1.0000
25.4500 679.0000 1.0000
25.4600 681.0000 1.0000
25.4700 735.0000 1.0000
25.4800 719.0000 1.0000
25.4900 708.0000 1.0000
25.5000 723.0000 1.0000
25.5100 736.0000 1.0000
25.5200 755.0000 1.0000
25.5300 679.0000 1.0000
25.5400 703.0000 1.0000
25.5500 687.0000 1.0000
25.5600 715.0000 1.0000
25.5700 710.0000 1.0000
25.5800 701.0000 1.0000
25.5900 659.0000 1.0000
25.6000 720.0000 1.0000
25.6100 678.0000 1.0000
25.6200 697.0000 1.0000
25.6300 701.0000 1.0000
25.6400 704.0000 1.0000
25.6500 712.0000 1.0000
25.6600 729.0000 1.0000
25.6700 699.0000 1.0000
25.6800 708.0000 1.0000
25.6900 741.0000 1.0000
25.7000 687.0000 1.0000
25.7100 712.0000 1.0000
25.7200 707.0000 1.0000
25.7300 776.0000 1.0000
25.7400 711.0000 1.0000
25.7500 726.0000 1.0000
25.7600 701.0000 1.0000
25.7700 656.0000 1.0000
25.7800 708.0000 1.0000
25.7900 656.0000 1.0000
25.8000 752.0000 1.0000
25.8100 765.0000 1.0000
25.8200 723.0000 1.0000
25.8300 730.0000 1.0000
25.8400 746.0000 1.0000
25.8500 703.0000 1.0000
25.8600 712.0000 1.0000
25.8700 752.0000 1.0000
25.8800 715.0000 1.0000
25.8900 723.0000 1.0000
25.9000 724.0000 1.0000
25.9100 752.0000 1.0000
25.9200 765.0000 1.0000
25.9300 786.0000 1.0000
25.9400 712.0000 1.0000
25.9500 739.0000 1.0000
25.9600 764.0000 1.0000
25.9700 717.0000 1.0000
25.9800 735.0000 1.0000
25.9900 752.0000 1.0000
26.0000 777.0000 1.0000
26.0100 760.0000 1.0000
26.0200 722.0000 1.0000
26.0300 744.0000 1.0000
26.0400 761.0000 1.0000
26.0500 726.0000 1.0000
26.0600 793.0000 1.0000
26.0700 835.0000 1.0000
26.0800 812.0000 1.0000
26.0900 784.0000 1.0000
26.1000 836.0000 1.0000
26.1100 833.0000 1.0000
26.1200 806.0000 1.0000
26.1300 769.0000 1.0000
26.1400 829.0000 1.0000
26.1500 835.0000 1.0000
26.1600 831.0000 1.0000
26.1700 825.0000 1.0000
26.1800 846.0000 1.0000
26.1900 851.0000 1.0000
26.2000 862.0000 1.0000
26.2100 935.0000 1.0000
26.2200 929.0000 1.0000
26.2300 879.0000 1.0000
26.2400 943.0000 1.0000
26.2500 1017.0000 1.0000
26.2600 1008.0000 1.0000
26.2700 963.0000 1.0000
26.2800 1013.0000 1.0000
26.2900 1050.0000 1.0000
26.3000 1044.0000 1.0000
26.3100 1067.0000 1.0000
26.3200 1079.0000 1.0000
26.3300 1161.0000 1.0000
26.3400 1124.0000 1.0000
26.3500 1124.0000 1.0000
26.3600 1230.0000 1.0000
26.3700 1252.0000 1.0000
26.3800 1188.0000 1.0000
26.3900 1310.0000 1.0000
26.4000 1310.0000 1.0000
26.4100 1387.0000 1.0000
26.4200 1331.0000 1.0000
26.4300 1380.0000 1.0000
26.4400 1455.0000 1.0000
26.4500 1351.0000 1.0000
26.4600 1378.0000 1.0000
26.4700 1404.0000 1.0000
26.4800 1344.0000 1.0000
26.4900 1372.0000 1.0000
26.5000 1343.0000 1.0000
26.5100 1256.0000 1.0000
26.5200 1314.0000 1.0000
26.5300 1299.0000 1.0000
26.5400 1242.0000 1.0000
26.5500 1231.0000 1.0000
26.5600 1150.0000 1.0000
26.5700 1148.0000 1.0000
26.5800 1130.0000 1.0000
26.5900 1102.0000 1.0000
26.6000 1062.0000 1.0000
26.6100 994.0000 1.0000
26.6200 1047.0000 1.0000
26.6300 994.0000 1.0000
26.6400 918.0000 1.0000
26.6500 939.0000 1.0000
26.6600 941.0000 1.0000
26.6700 912.0000 1.0000
26.6800 900.0000 1.0000
26.6900 881.0000 1.0000
26.7000 830.0000 1.0000
26.7100 827.0000 1.0000
26.7200 804.0000 1.0000
26.7300 807.0000 1.0000
26.7400 828.0000 1.0000
26.7500 855.0000 1.0000
26.7600 828.0000 1.0000
26.7700 796.0000 1.0000
26.7800 752.0000 1.0000
26.7900 795.0000 1.0000
26.8000 789.0000 1.0000
26.8100 750.0000 1.0000
26.8200 790.0000 1.0000
26.8300 807.0000 1.0000
26.8400 793.0000 1.0000
26.8500 768.0000 1.0000
26.8600 805.0000 1.0000
26.8700 759.0000 1.0000
26.8800 733.0000 1.0000
26.8900 726.0000 1.0000
26.9000 743.0000 1.0000
26.9100 725.0000 1.0000
26.9200 708.0000 1.0000
26.9300 709.0000 1.0000
26.9400 710.0000 1.0000
26.9500 728.0000 1.0000
26.9600 724.0000 1.0000
26.9700 677.0000 1.0000
26.9800 673.0000 1.0000
26.9900 718.0000 1.0000
27.0000 701.0000 1.0000
27.0100 685.0000 1.0000
27.0200 722.0000 1.0000
27.0300 684.0000 1.0000
27.0400 713.0000 1.0000
27.0500 686.0000 1.0000
27.0600 686.0000 1.0000
27.0700 659.0000 1.0000
27.0800 684.0000 1.0000
27.0900 681.0000 1.0000
27.1000 680.0000 1.0000
27.1100 684.0000 1.0000
27.1200 666.0000 1.0000
27.1300 658.0000 1.0000
27.1400 685.0000 1.0000
27.1500 700.0000 1.0000
27.1600 697.0000 1.0000
27.1700 654.0000 1.0000
27.1800 634.0000 1.0000
27.1900 658.0000 1.0000
27.2000 689.0000 1.0000
27.2100 645.0000 1.0000
27.2200 677.0000 1.0000
27.2300 691.0000 1.0000
27.2400 687.0000 1.0000
27.2500 664.0000 1.0000
27.2600 670.0000 1.0000
27.2700 672.0000 1.0000
27.2800 675.0000 1.0000
27.2900 665.0000 1.0000
27.3000 657.0000 1.0000
27.3100 658.0000 1.0000
27.3200 641.0000 1.0000
27.3300 663.0000 1.0000
27.3400 654.0000 1.0000
27.3500 652.0000 1.0000
27.3600 641.0000 1.0000
27.3700 650.0000 1.0000
27.3800 658.0000 1.0000
27.3900 675.0000 1.0000
27.4000 636.0000 1.0000
27.4100 630.0000 1.0000
27.4200 650.0000 1.0000
27.4300 631.0000 1.0000
27.4400 681.0000 1.0000
27.4500 658.0000 1.0000
27.4600 626.0000 1.0000
27.4700 660.0000 1.0000
27.4800 634.0000 1.0000
27.4900 630.0000 1.0000
27.5000 658.0000 1.0000
27.5100 618.0000 1.0000
27.5200 588.0000 1.0000
27.5300 619.0000 1.0000
27.5400 633.0000 1.0000
27.5500 666.0000 1.0000
27.5600 608.0000 1.0000
27.5700 622.0000 1.0000
27.5800 641.0000 1.0000
27.5900 633.0000 1.0000
27.6000 622.0000 1.0000
27.6100 590.0000 1.0000
27.6200 585.0000 1.0000
27.6300 656.0000 1.0000
27.6400 624.0000 1.0000
27.6500 628.0000 1.0000
27.6600 633.0000 1.0000
27.6700 649.0000 1.0000
27.6800 619.0000 1.0000
27.6900 630.0000 1.0000
27.7000 628.0000 1.0000
27.7100 630.0000 1.0000
27.7200 685.0000 1.0000
27.7300 619.0000 1.0000
27.7400 626.0000 1.0000
27.7500 630.0000 1.0000
27.7600 634.0000 1.0000
27.7700 623.0000 1.0000
27.7800 629.0000 1.0000
27.7900 608.0000 1.0000
27.8000 647.0000 1.0000
27.8100 666.0000 1.0000
27.8200 594.0000 1.0000
27.8300 627.0000 1.0000
27.8400 652.0000 1.0000
27.8500 647.0000 1.0000
27.8600 655.0000 1.0000
27.8700 609.0000 1.0000
27.8800 611.0000 1.0000
27.8900 618.0000 1.0000
27.9000 616.0000 1.0000
27.9100 626.0000 1.0000
27.9200 623.0000 1.0000
27.9300 614.0000 1.0000
27.9400 596.0000 1.0000
27.9500 626.0000 1.0000
27.9600 580.0000 1.0000
27.9700 618.0000 1.0000
27.9800 587.0000 1.0000
27.9900 606.0000 1.0000
28.0000 601.0000 1.0000
28.0100 643.0000 1.0000
28.0200 601.0000 1.0000
28.0300 603.0000 1.0000
28.0400 637.0000 1.0000
28.0500 644.0000 1.0000
28.0600 649.0000 1.0000
28.0700 622.0000 1.0000
28.0800 651.0000 1.0000
28.0900 582.0000 1.0000
28.1000 637.0000 1.0000
28.1100 635.0000 1.0000
28.1200 637.0000 1.0000
28.1300 632.0000 1.0000
28.1400 644.0000 1.0000
28.1500 637.0000 1.0000
28.1600 631.0000 1.0000
28.1700 634.0000 1.0000
28.1800 607.0000 1.0000
28.1900 590.0000 1.0000
28.2000 628.0000 1.0000
28.2100 592.0000 1.0000
28.2200 596.0000 1.0000
28.2300 613.0000 1.0000
28.2400 618.0000 1.0000
28.2500 623.0000 1.0000
28.2600 629.0000 1.0000
28.2700 599.0000 1.0000
28.2800 620.0000 1.0000
28.2900 585.0000 1.0000
28.3000 639.0000 1.0000
28.3100 620.0000 1.0000
28.3200 633.0000 1.0000
28.3300 588.0000 1.0000
28.3400 605.0000 1.0000
28.3500 624.0000 1.0000
28.3600 637.0000 1.0000
28.3700 623.0000 1.0000
28.3800 597.0000 1.0000
28.3900 585.0000 1.0000
28.4000 627.0000 1.0000
28.4100 616.0000 1.0000
28.4200 653.0000 1.0000
28.4300 618.0000 1.0000
28.4400 604.0000 1.0000
28.4500 600.0000 1.0000
28.4600 625.0000 1.0000
28.4700 614.0000 1.0000
28.4800 593.0000 1.0000
28.4900 583.0000 1.0000
28.5000 644.0000 1.0000
28.5100 639.0000 1.0000
28.5200 586.0000 1.0000
28.5300 606.0000 1.0000
28.5400 587.0000 1.0000
28.5500 567.0000 1.0000
28.5600 581.0000 1.0000
28.5700 603.0000 1.0000
28.5800 616.0000 1.0000
28.5900 593.0000 1.0000
28.6000 606.0000 1.0000
28.6100 584.0000 1.0000
28.6200 586.0000 1.0000
28.6300 588.0000 1.0000
28.6400 595.0000 1.0000
28.6500 578.0000 1.0000
28.6600 616.0000 1.0000
28.6700 627.0000 1.0000
28.6800 604.0000 1.0000
28.6900 616.0000 1.0000
28.7000 597.0000 1.0000
28.7100 619.0000 1.0000
28.7200 607.0000 1.0000
28.7300 585.0000 1.0000
28.7400 612.0000 1.0000
28.7500 639.0000 1.0000
28.7600 593.0000 1.0000
28.7700 562.0000 1.0000
28.7800 571.0000 1.0000
28.7900 580.0000 1.0000
28.8000 596.0000 1.0000
28.8100 573.0000 1.0000
28.8200 563.0000 1.0000
28.8300 575.0000 1.0000
28.8400 587.0000 1.0000
28.8500 580.0000 1.0000
28.8600 587.0000 1.0000
28.8700 596.0000 1.0000
28.8800 574.0000 1.0000
28.8900 563.0000 1.0000
28.9000 572.0000 1.0000
28.9100 596.0000 1.0000
28.9200 632.0000 1.0000
28.9300 566.0000 1.0000
28.9400 591.0000 1.0000
28.9500 603.0000 1.0000
28.9600 589.0000 1.0000
28.9700 578.0000 1.0000
28.9800 540.0000 1.0000
28.9900 581.0000 1.0000
29.0000 580.0000 1.0000
29.0100 585.0000 1.0000
29.0200 574.0000 1.0000
29.0300 591.0000 1.0000
29.0400 602.0000 1.0000
29.0500 580.0000 1.0000
29.0600 592.0000 1.0000
29.0700 599.0000 1.0000
29.0800 606.0000 1.0000
29.0900 605.0000 1.0000
29.1000 559.0000 1.0000
29.1100 605.0000 1.0000
29.1200 586.0000 1.0000
29.1300 564.0000 1.0000
29.1400 558.0000 1.0000
29.1500 607.0000 1.0000
29.1600 583.0000 1.0000
29.1700 590.0000 1.0000
29.1800 596.0000 1.0000
29.1900 585.0000 1.0000
29.2000 556.0000 1.0000
29.2100 586.0000 1.0000
29.2200 598.0000 1.0000
29.2300 576.0000 1.0000
29.2400 583.0000 1.0000
29.2500 581.0000 1.0000
29.2600 583.0000 1.0000
29.2700 549.0000 1.0000
29.2800 614.0000 1.0000
29.2900 567.0000 1.0000
29.3000 574.0000 1.0000
29.3100 568.0000 1.0000
29.3200 583.0000 1.0000
29.3300 591.0000 1.0000
29.3400 573.0000 1.0000
29.3500 588.0000 1.0000
29.3600 586.0000 1.0000
29.3700 595.0000 1.0000
29.3800 584.0000 1.0000
29.3900 597.0000 1.0000
29.4000 625.0000 1.0000
29.4100 576.0000 1.0000
29.4200 581.0000 1.0000
29.4300 598.0000 1.0000
29.4400 577.0000 1.0000
29.4500 571.0000 1.0000
29.4600 600.0000 1.0000
29.4700 588.0000 1.0000
29.4800 578.0000 1.0000
29.4900 563.0000 1.0000
29.5000 557.0000 1.0000
29.5100 536.0000 1.0000
29.5200 561.0000 1.0000
29.5300 563.0000 1.0000
29.5400 579.0000 1.0000
29.5500 556.0000 1.0000
29.5600 580.0000 1.0000
29.5700 592.0000 1.0000
29.5800 568.0000 1.0000
29.5900 564.0000 1.0000
29.6000 569.0000 1.0000
29.6100 592.0000 1.0000
29.6200 579.0000 1.0000
29.6300 562.0000 1.0000
29.6400 599.0000 1.0000
29.6500 593.0000 1.0000
29.6600 584.0000 1.0000
29.6700 565.0000 1.0000
29.6800 588.0000 1.0000
29.6900 558.0000 1.0000
29.7000 560.0000 1.0000
29.7100 542.0000 1.0000
29.7200 535.0000 1.0000
29.7300 534.0000 1.0000
29.7400 539.0000 1.0000
29.7500 560.0000 1.0000
29.7600 600.0000 1.0000
29.7700 549.0000 1.0000
29.7800 512.0000 1.0000
29.7900 575.0000 1.0000
29.8000 564.0000 1.0000
29.8100 534.0000 1.0000
29.8200 592.0000 1.0000
29.8300 562.0000 1.0000
29.8400 566.0000 1.0000
29.8500 561.0000 1.0000
29.8600 592.0000 1.0000
29.8700 584.0000 1.0000
29.8800 598.0000 1.0000
29.8900 584.0000 1.0000
29.9000 551.0000 1.0000
29.9100 545.0000 1.0000
29.9200 570.0000 1.0000
29.9300 584.0000 1.0000
29.9400 560.0000 1.0000
29.9500 590.0000 1.0000
29.9600 541.0000 1.0000
29.9700 539.0000 1.0000
29.9800 553.0000 1.0000
29.9900 570.0000 1.0000
30.0000 580.0000 1.0000
30.0100 564.0000 1.0000
30.0200 562.0000 1.0000
30.0300 543.0000 1.0000
30.0400 549.0000 1.0000
30.0500 572.0000 1.0000
30.0600 564.0000 1.0000
30.0700 583.0000 1.0000
30.0800 575.0000 1.0000
30.0900 566.0000 1.0000
30.1000 529.0000 1.0000
30.1100 563.0000 1.0000
30.1200 606.0000 1.0000
30.1300 600.0000 1.0000
30.1400 571.0000 1.0000
30.1500 589.0000 1.0000
30.1600 536.0000 1.0000
30.1700 572.0000 1.0000
30.1800 539.0000 1.0000
30.1900 535.0000 1.0000
30.2000 537.0000 1.0000
30.2100 559.0000 1.0000
30.2200 587.0000 1.0000
30.2300 584.0000 1.0000
30.2400 546.0000 1.0000
30.2500 566.0000 1.0000
30.2600 563.0000 1.0000
30.2700 537.0000 1.0000
30.2800 540.0000 1.0000
30.2900 551.0000 1.0000
30.3000 519.0000 1.0000
30.3100 562.0000 1.0000
30.3200 550.0000 1.0000
30.3300 559.0000 1.0000
30.3400 517.0000 1.0000
30.3500 562.0000 1.0000
30.3600 551.0000 1.0000
30.3700 581.0000 1.0000
30.3800 551.0000 1.0000
30.3900 543.0000 1.0000
30.4000 585.0000 1.0000
30.4100 557.0000 1.0000
30.4200 574.0000 1.0000
30.4300 594.0000 1.0000
30.4400 528.0000 1.0000
30.4500 553.0000 1.0000
30.4600 572.0000 1.0000
30.4700 576.0000 1.0000
30.4800 516.0000 1.0000
30.4900 564.0000 1.0000
30.5000 563.0000 1.0000
30.5100 539.0000 1.0000
30.5200 515.0000 1.0000
30.5300 522.0000 1.0000
30.5400 529.0000 1.0000
30.5500 533.0000 1.0000
30.5600 539.0000 1.0000
30.5700 556.0000 1.0000
30.5800 561.0000 1.0000
30.5900 542.0000 1.0000
30.6000 542.0000 1.0000
30.6100 517.0000 1.0000
30.6200 515.0000 1.0000
30.6300 536.0000 1.0000
30.6400 550.0000 1.0000
30.6500 569.0000 1.0000
30.6600 554.0000 1.0000
30.6700 528.0000 1.0000
30.6800 540.0000 1.0000
30.6900 530.0000 1.0000
30.7000 565.0000 1.0000
30.7100 552.0000 1.0000
30.7200 549.0000 1.0000
30.7300 576.0000 1.0000
30.7400 537.0000 1.0000
30.7500 547.0000 1.0000
30.7600 531.0000 1.0000
30.7700 573.0000 1.0000
30.7800 574.0000 1.0000
30.7900 505.0000 1.0000
30.8000 556.0000 1.0000
30.8100 558.0000 1.0000
30.8200 547.0000 1.0000
30.8300 545.0000 1.0000
30.8400 543.0000 1.0000
30.8500 536.0000 1.0000
30.8600 540.0000 1.0000
30.8700 508.0000 1.0000
30.8800 538.0000 1.0000
30.8900 548.0000 1.0000
30.9000 546.0000 1.0000
30.9100 547.0000 1.0000
30.9200 519.0000 1.0000
30.9300 554.0000 1.0000
30.9400 551.0000 1.0000
30.9500 548.0000 1.0000
30.9600 496.0000 1.0000
30.9700 542.0000 1.0000
30.9800 544.0000 1.0000
30.9900 529.0000 1.0000
31.0000 565.0000 1.0000
31.0100 543.0000 1.0000
31.0200 497.0000 1.0000
31.0300 552.0000 1.0000
31.0400 592.0000 1.0000
31.0500 591.0000 1.0000
31.0600 600.0000 1.0000
31.0700 600.0000 1.0000
31.0800 567.0000 1.0000
31.0900 573.0000 1.0000
31.1000 573.0000 1.0000
31.1100 568.0000 1.0000
31.1200 567.0000 1.0000
31.1300 592.0000 1.0000
31.1400 587.0000 1.0000
31.1500 588.0000 1.0000
31.1600 587.0000 1.0000
31.1700 524.0000 1.0000
31.1800 544.0000 1.0000
31.1900 562.0000 1.0000
31.2000 581.0000 1.0000
31.2100 544.0000 1.0000
31.2200 554.0000 1.0000
31.2300 567.0000 1.0000
31.2400 542.0000 1.0000
31.2500 559.0000 1.0000
31.2600 530.0000 1.0000
31.2700 543.0000 1.0000
31.2800 561.0000 1.0000
31.2900 554.0000 1.0000
31.3000 554.0000 1.0000
31.3100 601.0000 1.0000
31.3200 589.0000 1.0000
31.3300 586.0000 1.0000
31.3400 578.0000 1.0000
31.3500 507.0000 1.0000
31.3600 547.0000 1.0000
31.3700 551.0000 1.0000
31.3800 560.0000 1.0000
31.3900 557.0000 1.0000
31.4000 504.0000 1.0000
31.4100 556.0000 1.0000
31.4200 526.0000 1.0000
31.4300 515.0000 1.0000
31.4400 558.0000 1.0000
31.4500 554.0000 1.0000
31.4600 515.0000 1.0000
31.4700 541.0000 1.0000
31.4800 582.0000 1.0000
31.4900 566.0000 1.0000
31.5000 550.0000 1.0000
31.5100 566.0000 1.0000
31.5200 544.0000 1.0000
31.5300 519.0000 1.0000
31.5400 525.0000 1.0000
31.5500 529.0000 1.0000
31.5600 571.0000 1.0000
31.5700 531.0000 1.0000
31.5800 539.0000 1.0000
31.5900 528.0000 1.0000
31.6000 501.0000 1.0000
31.6100 530.0000 1.0000
31.6200 528.0000 1.0000
31.6300 533.0000 1.0000
31.6400 569.0000 1.0000
31.6500 552.0000 1.0000
31.6600 506.0000 1.0000
31.6700 535.0000 1.0000
31.6800 525.0000 1.0000
31.6900 523.0000 1.0000
31.7000 506.0000 1.0000
31.7100 557.0000 1.0000
31.7200 512.0000 1.0000
31.7300 553.0000 1.0000
31.7400 531.0000 1.0000
31.7500 515.0000 1.0000
31.7600 501.0000 1.0000
31.7700 541.0000 1.0000
31.7800 525.0000 1.0000
31.7900 528.0000 1.0000
31.8000 546.0000 1.0000
31.8100 526.0000 1.0000
31.8200 502.0000 1.0000
31.8300 503.0000 1.0000
31.8400 558.0000 1.0000
31.8500 531.0000 1.0000
31.8600 539.0000 1.0000
31.8700 550.0000 1.0000
31.8800 506.0000 1.0000
31.8900 545.0000 1.0000
31.9000 522.0000 1.0000
31.9100 534.0000 1.0000
31.9200 537.0000 1.0000
31.9300 523.0000 1.0000
31.9400 534.0000 1.0000
31.9500 497.0000 1.0000
31.9600 528.0000 1.0000
31.9700 552.0000 1.0000
31.9800 542.0000 1.0000
31.9900 501.0000 1.0000
32.0000 524.0000 1.0000
32.0100 514.0000 1.0000
32.0200 530.0000 1.0000
32.0300 559.0000 1.0000
32.0400 505.0000 1.0000
32.0500 532.0000 1.0000
32.0600 554.0000 1.0000
32.0700 513.0000 1.0000
32.0800 496.0000 1.0000
32.0900 522.0000 1.0000
32.1000 487.0000 1.0000
32.1100 510.0000 1.0000
32.1200 545.0000 1.0000
32.1300 561.0000 1.0000
32.1400 506.0000 1.0000
32.1500 520.0000 1.0000
32.1600 496.0000 1.0000
32.1700 515.0000 1.0000
32.1800 560.0000 1.0000
32.1900 536.0000 1.0000
32.2000 511.0000 1.0000
32.2100 493.0000 1.0000
32.2200 522.0000 1.0000
32.2300 505.0000 1.0000
32.2400 492.0000 1.0000
32.2500 501.0000 1.0000
32.2600 514.0000 1.0000
32.2700 493.0000 1.0000
32.2800 503.0000 1.0000
32.2900 502.0000 1.0000
32.3000 498.0000 1.0000
32.3100 561.0000 1.0000
32.3200 553.0000 1.0000
32.3300 540.0000 1.0000
32.3400 544.0000 1.0000
32.3500 496.0000 1.0000
32.3600 486.0000 1.0000
32.3700 515.0000 1.0000
32.3800 505.0000 1.0000
32.3900 527.0000 1.0000
32.4000 558.0000 1.0000
32.4100 517.0000 1.0000
32.4200 521.0000 1.0000
32.4300 511.0000 1.0000
32.4400 530.0000 1.0000
32.4500 503.0000 1.0000
32.4600 497.0000 1.0000
32.4700 515.0000 1.0000
32.4800 530.0000 1.0000
32.4900 514.0000 1.0000
32.5000 534.0000 1.0000
32.5100 583.0000 1.0000
32.5200 508.0000 1.0000
32.5300 482.0000 1.0000
32.5400 480.0000 1.0000
32.5500 551.0000 1.0000
32.5600 560.0000 1.0000
32.5700 492.0000 1.0000
32.5800 543.0000 1.0000
32.5900 511.0000 1.0000
32.6000 490.0000 1.0000
32.6100 532.0000 1.0000
32.6200 521.0000 1.0000
32.6300 504.0000 1.0000
32.6400 548.0000 1.0000
32.6500 527.0000 1.0000
32.6600 492.0000 1.0000
32.6700 468.0000 1.0000
32.6800 504.0000 1.0000
32.6900 524.0000 1.0000
32.7000 527.0000 1.0000
32.7100 510.0000 1.0000
32.7200 512.0000 1.0000
32.7300 512.0000 1.0000
32.7400 523.0000 1.0000
32.7500 472.0000 1.0000
32.7600 515.0000 1.0000
32.7700 531.0000 1.0000
32.7800 529.0000 1.0000
32.7900 535.0000 1.0000
32.8000 531.0000 1.0000
32.8100 507.0000 1.0000
32.8200 520.0000 1.0000
32.8300 535.0000 1.0000
32.8400 549.0000 1.0000
32.8500 536.0000 1.0000
32.8600 539.0000 1.0000
32.8700 540.0000 1.0000
32.8800 521.0000 1.0000
32.8900 547.0000 1.0000
32.9000 565.0000 1.0000
32.9100 582.0000 1.0000
32.9200 534.0000 1.0000
32.9300 529.0000 1.0000
32.9400 566.0000 1.0000
32.9500 554.0000 1.0000
32.9600 564.0000 1.0000
32.9700 610.0000 1.0000
32.9800 609.0000 1.0000
32.9900 571.0000 1.0000
33.0000 587.0000 1.0000
33.0100 630.0000 1.0000
33.0200 669.0000 1.0000
33.0300 576.0000 1.0000
33.0400 679.0000 1.0000
33.0500 688.0000 1.0000
33.0600 664.0000 1.0000
33.0700 658.0000 1.0000
33.0800 654.0000 1.0000
33.0900 682.0000 1.0000
33.1000 701.0000 1.0000
33.1100 718.0000 1.0000
33.1200 737.0000 1.0000
33.1300 684.0000 1.0000
33.1400 685.0000 1.0000
33.1500 696.0000 1.0000
33.1600 688.0000 1.0000
33.1700 686.0000 1.0000
33.1800 689.0000 1.0000
33.1900 660.0000 1.0000
33.2000 636.0000 1.0000
33.2100 633.0000 1.0000
33.2200 642.0000 1.0000
33.2300 642.0000 1.0000
33.2400 652.0000 1.0000
33.2500 594.0000 1.0000
33.2600 622.0000 1.0000
33.2700 615.0000 1.0000
33.2800 597.0000 1.0000
33.2900 579.0000 1.0000
33.3000 550.0000 1.0000
33.3100 581.0000 1.0000
33.3200 589.0000 1.0000
33.3300 556.0000 1.0000
33.3400 531.0000 1.0000
33.3500 536.0000 1.0000
33.3600 583.0000 1.0000
33.3700 544.0000 1.0000
33.3800 578.0000 1.0000
33.3900 561.0000 1.0000
33.4000 552.0000 1.0000
33.4100 580.0000 1.0000
33.4200 595.0000 1.0000
33.4300 599.0000 1.0000
33.4400 590.0000 1.0000
33.4500 598.0000 1.0000
33.4600 572.0000 1.0000
33.4700 599.0000 1.0000
33.4800 599.0000 1.0000
33.4900 611.0000 1.0000
33.5000 593.0000 1.0000
33.5100 621.0000 1.0000
33.5200 605.0000 1.0000
33.5300 625.0000 1.0000
33.5400 623.0000 1.0000
33.5500 618.0000 1.0000
33.5600 615.0000 1.0000
33.5700 669.0000 1.0000
33.5800 664.0000 1.0000
33.5900 627.0000 1.0000
33.6000 631.0000 1.0000
33.6100 690.0000 1.0000
33.6200 672.0000 1.0000
33.6300 676.0000 1.0000
33.6400 709.0000 1.0000
33.6500 713.0000 1.0000
33.6600 696.0000 1.0000
33.6700 678.0000 1.0000
33.6800 656.0000 1.0000
33.6900 682.0000 1.0000
33.7000 654.0000 1.0000
33.7100 670.0000 1.0000
33.7200 694.0000 1.0000
33.7300 663.0000 1.0000
33.7400 666.0000 1.0000
33.7500 651.0000 1.0000
33.7600 651.0000 1.0000
33.7700 635.0000 1.0000
33.7800 648.0000 1.0000
33.7900 643.0000 1.0000
33.8000 639.0000 1.0000
33.8100 628.0000 1.0000
33.8200 593.0000 1.0000
33.8300 597.0000 1.0000
33.8400 618.0000 1.0000
33.8500 633.0000 1.0000
33.8600 602.0000 1.0000
33.8700 610.0000 1.0000
33.8800 542.0000 1.0000
33.8900 586.0000 1.0000
33.9000 570.0000 1.0000
33.9100 546.0000 1.0000
33.9200 530.0000 1.0000
33.9300 511.0000 1.0000
33.9400 552.0000 1.0000
33.9500 579.0000 1.0000
33.9600 535.0000 1.0000
33.9700 552.0000 1.0000
33.9800 557.0000 1.0000
33.9900 567.0000 1.0000
34.0000 530.0000 1.0000
34.0100 508.0000 1.0000
34.0200 537.0000 1.0000
34.0300 565.0000 1.0000
34.0400 526.0000 1.0000
34.0500 491.0000 1.0000
34.0600 511.0000 1.0000
34.0700 530.0000 1.0000
34.0800 503.0000 1.0000
34.0900 488.0000 1.0000
34.1000 486.0000 1.0000
34.1100 498.0000 1.0000
34.1200 502.0000 1.0000
34.1300 500.0000 1.0000
34.1400 538.0000 1.0000
34.1500 532.0000 1.0000
34.1600 503.0000 1.0000
34.1700 470.0000 1.0000
34.1800 493.0000 1.0000
34.1900 440.0000 1.0000
34.2000 486.0000 1.0000
34.2100 503.0000 1.0000
34.2200 512.0000 1.0000
34.2300 486.0000 1.0000
34.2400 486.0000 1.0000
34.2500 479.0000 1.0000
34.2600 511.0000 1.0000
34.2700 500.0000 1.0000
34.2800 479.0000 1.0000
34.2900 483.0000 1.0000
34.3000 493.0000 1.0000
34.3100 433.0000 1.0000
34.3200 435.0000 1.0000
34.3300 508.0000 1.0000
34.3400 490.0000 1.0000
34.3500 475.0000 1.0000
34.3600 444.0000 1.0000
34.3700 476.0000 1.0000
34.3800 470.0000 1.0000
34.3900 478.0000 1.0000
34.4000 485.0000 1.0000
34.4100 478.0000 1.0000
34.4200 480.0000 1.0000
34.4300 480.0000 1.0000
34.4400 483.0000 1.0000
34.4500 452.0000 1.0000
34.4600 435.0000 1.0000
34.4700 467.0000 1.0000
34.4800 466.0000 1.0000
34.4900 493.0000 1.0000
34.5000 440.0000 1.0000
34.5100 470.0000 1.0000
34.5200 466.0000 1.0000
34.5300 433.0000 1.0000
34.5400 453.0000 1.0000
34.5500 455.0000 1.0000
34.5600 483.0000 1.0000
34.5700 467.0000 1.0000
34.5800 472.0000 1.0000
34.5900 473.0000 1.0000
34.6000 466.0000 1.0000
34.6100 465.0000 1.0000
34.6200 457.0000 1.0000
34.6300 455.0000 1.0000
34.6400 461.0000 1.0000
34.6500 458.0000 1.0000
34.6600 447.0000 1.0000
34.6700 454.0000 1.0000
34.6800 415.0000 1.0000
34.6900 465.0000 1.0000
34.7000 450.0000 1.0000
34.7100 440.0000 1.0000
34.7200 462.0000 1.0000
34.7300 455.0000 1.0000
34.7400 487.0000 1.0000
34.7500 501.0000 1.0000
34.7600 434.0000 1.0000
34.7700 408.0000 1.0000
34.7800 448.0000 1.0000
34.7900 462.0000 1.0000
34.8000 440.0000 1.0000
34.8100 460.0000 1.0000
34.8200 442.0000 1.0000
34.8300 471.0000 1.0000
34.8400 461.0000 1.0000
34.8500 441.0000 1.0000
34.8600 428.0000 1.0000
34.8700 436.0000 1.0000
34.8800 431.0000 1.0000
34.8900 444.0000 1.0000
34.9000 462.0000 1.0000
34.9100 441.0000 1.0000
34.9200 457.0000 1.0000
34.9300 450.0000 1.0000
34.9400 457.0000 1.0000
34.9500 438.0000 1.0000
34.9600 419.0000 1.0000
34.9700 460.0000 1.0000
34.9800 419.0000 1.0000
34.9900 440.0000 1.0000
35.0000 432.0000 1.0000
35.0100 442.0000 1.0000
35.0200 440.0000 1.0000
35.0300 462.0000 1.0000
35.0400 474.0000 1.0000
35.0500 419.0000 1.0000
35.0600 402.0000 1.0000
35.0700 452.0000 1.0000
35.0800 416.0000 1.0000
35.0900 452.0000 1.0000
35.1000 464.0000 1.0000
35.1100 445.0000 1.0000
35.1200 451.0000 1.0000
35.1300 489.0000 1.0000
35.1400 465.0000 1.0000
35.1500 462.0000 1.0000
35.1600 472.0000 1.0000
35.1700 445.0000 1.0000
35.1800 475.0000 1.0000
35.1900 452.0000 1.0000
35.2000 454.0000 1.0000
35.2100 483.0000 1.0000
35.2200 467.0000 1.0000
35.2300 450.0000 1.0000
35.2400 484.0000 1.0000
35.2500 487.0000 1.0000
35.2600 471.0000 1.0000
35.2700 457.0000 1.0000
35.2800 443.0000 1.0000
35.2900 442.0000 1.0000
35.3000 458.0000 1.0000
35.3100 443.0000 1.0000
35.3200 512.0000 1.0000
35.3300 469.0000 1.0000
35.3400 481.0000 1.0000
35.3500 537.0000 1.0000
35.3600 504.0000 1.0000
35.3700 506.0000 1.0000
35.3800 473.0000 1.0000
35.3900 537.0000 1.0000
35.4000 522.0000 1.0000
35.4100 512.0000 1.0000
35.4200 534.0000 1.0000
35.4300 580.0000 1.0000
35.4400 572.0000 1.0000
35.4500 629.0000 1.0000
35.4600 613.0000 1.0000
35.4700 646.0000 1.0000
35.4800 638.0000 1.0000
35.4900 656.0000 1.0000
35.5000 697.0000 1.0000
35.5100 636.0000 1.0000
35.5200 651.0000 1.0000
35.5300 714.0000 1.0000
35.5400 764.0000 1.0000
35.5500 760.0000 1.0000
35.5600 798.0000 1.0000
35.5700 823.0000 1.0000
35.5800 832.0000 1.0000
35.5900 791.0000 1.0000
35.6000 779.0000 1.0000
35.6100 767.0000 1.0000
35.6200 768.0000 1.0000
35.6300 819.0000 1.0000
35.6400 744.0000 1.0000
35.6500 738.0000 1.0000
35.6600 657.0000 1.0000
35.6700 687.0000 1.0000
35.6800 661.0000 1.0000
35.6900 666.0000 1.0000
35.7000 607.0000 1.0000
35.7100 647.0000 1.0000
35.7200 634.0000 1.0000
35.7300 551.0000 1.0000
35.7400 518.0000 1.0000
35.7500 544.0000 1.0000
35.7600 572.0000 1.0000
35.7700 551.0000 1.0000
35.7800 510.0000 1.0000
35.7900 479.0000 1.0000
35.8000 486.0000 1.0000
35.8100 505.0000 1.0000
35.8200 464.0000 1.0000
35.8300 475.0000 1.0000
35.8400 493.0000 1.0000
35.8500 436.0000 1.0000
35.8600 419.0000 1.0000
35.8700 428.0000 1.0000
35.8800 442.0000 1.0000
35.8900 446.0000 1.0000
35.9000 497.0000 1.0000
35.9100 448.0000 1.0000
35.9200 472.0000 1.0000
35.9300 472.0000 1.0000
35.9400 383.0000 1.0000
35.9500 445.0000 1.0000
35.9600 441.0000 1.0000
35.9700 454.0000 1.0000
35.9800 447.0000 1.0000
35.9900 429.0000 1.0000
36.0000 423.0000 1.0000
36.0100 430.0000 1.0000
36.0200 415.0000 1.0000
36.0300 410.0000 1.0000
36.0400 417.0000 1.0000
36.0500 467.0000 1.0000
36.0600 461.0000 1.0000
36.0700 395.0000 1.0000
36.0800 424.0000 1.0000
36.0900 404.0000 1.0000
36.1000 436.0000 1.0000
36.1100 420.0000 1.0000
36.1200 407.0000 1.0000
36.1300 379.0000 1.0000
36.1400 411.0000 1.0000
36.1500 423.0000 1.0000
36.1600 421.0000 1.0000
36.1700 431.0000 1.0000
36.1800 437.0000 1.0000
36.1900 431.0000 1.0000
36.2000 436.0000 1.0000
36.2100 400.0000 1.0000
36.2200 404.0000 1.0000
36.2300 389.0000 1.0000
36.2400 427.0000 1.0000
36.2500 445.0000 1.0000
36.2600 465.0000 1.0000
36.2700 440.0000 1.0000
36.2800 428.0000 1.0000
36.2900 429.0000 1.0000
36.3000 430.0000 1.0000
36.3100 418.0000 1.0000
36.3200 447.0000 1.0000
36.3300 432.0000 1.0000
36.3400 417.0000 1.0000
36.3500 434.0000 1.0000
36.3600 411.0000 1.0000
36.3700 416.0000 1.0000
36.3800 422.0000 1.0000
36.3900 438.0000 1.0000
36.4000 425.0000 1.0000
36.4100 418.0000 1.0000
36.4200 398.0000 1.0000
36.4300 427.0000 1.0000
36.4400 401.0000 1.0000
36.4500 398.0000 1.0000
36.4600 437.0000 1.0000
36.4700 424.0000 1.0000
36.4800 426.0000 1.0000
36.4900 424.0000 1.0000
36.5000 430.0000 1.0000
36.5100 412.0000 1.0000
36.5200 435.0000 1.0000
36.5300 446.0000 1.0000
36.5400 469.0000 1.0000
36.5500 447.0000 1.0000
36.5600 433.0000 1.0000
36.5700 440.0000 1.0000
36.5800 418.0000 1.0000
36.5900 432.0000 1.0000
36.6000 434.0000 1.0000
36.6100 374.0000 1.0000
36.6200 421.0000 1.0000
36.6300 419.0000 1.0000
36.6400 419.0000 1.0000
36.6500 414.0000 1.0000
36.6600 418.0000 1.0000
36.6700 405.0000 1.0000
36.6800 441.0000 1.0000
36.6900 455.0000 1.0000
36.7000 452.0000 1.0000
36.7100 398.0000 1.0000
36.7200 422.0000 1.0000
36.7300 401.0000 1.0000
36.7400 385.0000 1.0000
36.7500 417.0000 1.0000
36.7600 425.0000 1.0000
36.7700 413.0000 1.0000
36.7800 438.0000 1.0000
36.7900 404.0000 1.0000
36.8000 403.0000 1.0000
36.8100 423.0000 1.0000
36.8200 415.0000 1.0000
36.8300 423.0000 1.0000
36.8400 420.0000 1.0000
36.8500 419.0000 1.0000
36.8600 415.0000 1.0000
36.8700 443.0000 1.0000
36.8800 453.0000 1.0000
36.8900 419.0000 1.0000
36.9000 451.0000 1.0000
36.9100 456.0000 1.0000
36.9200 410.0000 1.0000
36.9300 434.0000 1.0000
36.9400 414.0000 1.0000
36.9500 443.0000 1.0000
36.9600 434.0000 1.0000
36.9700 442.0000 1.0000
36.9800 428.0000 1.0000
36.9900 444.0000 1.0000
37.0000 454.0000 1.0000
37.0100 438.0000 1.0000
37.0200 418.0000 1.0000
37.0300 428.0000 1.0000
37.0400 472.0000 1.0000
37.0500 432.0000 1.0000
37.0600 407.0000 1.0000
37.0700 448.0000 1.0000
37.0800 458.0000 1.0000
37.0900 442.0000 1.0000
37.1000 472.0000 1.0000
37.1100 434.0000 1.0000
37.1200 477.0000 1.0000
37.1300 446.0000 1.0000
37.1400 493.0000 1.0000
37.1500 481.0000 1.0000
37.1600 469.0000 1.0000
37.1700 460.0000 1.0000
37.1800 436.0000 1.0000
37.1900 474.0000 1.0000
37.2000 465.0000 1.0000
37.2100 502.0000 1.0000
37.2200 506.0000 1.0000
37.2300 462.0000 1.0000
37.2400 488.0000 1.0000
37.2500 503.0000 1.0000
37.2600 467.0000 1.0000
37.2700 490.0000 1.0000
37.2800 496.0000 1.0000
37.2900 523.0000 1.0000
37.3000 559.0000 1.0000
37.3100 543.0000 1.0000
37.3200 561.0000 1.0000
37.3300 588.0000 1.0000
37.3400 584.0000 1.0000
37.3500 588.0000 1.0000
37.3600 599.0000 1.0000
37.3700 614.0000 1.0000
37.3800 601.0000 1.0000
37.3900 650.0000 1.0000
37.4000 617.0000 1.0000
37.4100 643.0000 1.0000
37.4200 684.0000 1.0000
37.4300 682.0000 1.0000
37.4400 727.0000 1.0000
37.4500 794.0000 1.0000
37.4600 798.0000 1.0000
37.4700 839.0000 1.0000
37.4800 854.0000 1.0000
37.4900 902.0000 1.0000
37.5000 964.0000 1.0000
37.5100 1047.0000 1.0000
37.5200 1031.0000 1.0000
37.5300 1064.0000 1.0000
37.5400 1194.0000 1.0000
37.5500 1288.0000 1.0000
37.5600 1303.0000 1.0000
37.5700 1439.0000 1.0000
37.5800 1505.0000 1.0000
37.5900 1602.0000 1.0000
37.6000 1690.0000 1.0000
37.6100 1852.0000 1.0000
37.6200 1996.0000 1.0000
37.6300 2077.0000 1.0000
37.6400 2186.0000 1.0000
37.6500 2283.0000 1.0000
37.6600 2423.0000 1.0000
37.6700 2532.0000 1.0000
37.6800 2711.0000 1.0000
37.6900 2785.0000 1.0000
37.7000 2929.0000 1.0000
37.7100 2978.0000 1.0000
37.7200 3064.0000 1.0000
37.7300 3150.0000 1.0000
37.7400 3123.0000 1.0000
37.7500 3166.0000 1.0000
37.7600 3026.0000 1.0000
37.7700 2961.0000 1.0000
37.7800 2961.0000 1.0000
37.7900 2795.0000 1.0000
37.8000 2780.0000 1.0000
37.8100 2605.0000 1.0000
37.8200 2463.0000 1.0000
37.8300 2449.0000 1.0000
37.8400 2308.0000 1.0000
37.8500 2120.0000 1.0000
37.8600 1989.0000 1.0000
37.8700 1845.0000 1.0000
37.8800 1780.0000 1.0000
37.8900 1713.0000 1.0000
37.9000 1533.0000 1.0000
37.9100 1439.0000 1.0000
37.9200 1382.0000 1.0000
37.9300 1305.0000 1.0000
37.9400 1196.0000 1.0000
37.9500 1107.0000 1.0000
37.9600 1067.0000 1.0000
37.9700 1043.0000 1.0000
37.9800 962.0000 1.0000
37.9900 893.0000 1.0000
38.0000 856.0000 1.0000
38.0100 798.0000 1.0000
38.0200 769.0000 1.0000
38.0300 808.0000 1.0000
38.0400 724.0000 1.0000
38.0500 691.0000 1.0000
38.0600 701.0000 1.0000
38.0700 694.0000 1.0000
38.0800 637.0000 1.0000
38.0900 638.0000 1.0000
38.1000 603.0000 1.0000
38.1100 554.0000 1.0000
38.1200 559.0000 1.0000
38.1300 564.0000 1.0000
38.1400 524.0000 1.0000
38.1500 525.0000 1.0000
38.1600 519.0000 1.0000
38.1700 475.0000 1.0000
38.1800 491.0000 1.0000
38.1900 496.0000 1.0000
38.2000 466.0000 1.0000
38.2100 473.0000 1.0000
38.2200 494.0000 1.0000
38.2300 480.0000 1.0000
38.2400 478.0000 1.0000
38.2500 411.0000 1.0000
38.2600 439.0000 1.0000
38.2700 454.0000 1.0000
38.2800 442.0000 1.0000
38.2900 424.0000 1.0000
38.3000 431.0000 1.0000
38.3100 428.0000 1.0000
38.3200 434.0000 1.0000
38.3300 407.0000 1.0000
38.3400 443.0000 1.0000
38.3500 411.0000 1.0000
38.3600 455.0000 1.0000
38.3700 434.0000 1.0000
38.3800 415.0000 1.0000
38.3900 417.0000 1.0000
38.4000 411.0000 1.0000
38.4100 384.0000 1.0000
38.4200 359.0000 1.0000
38.4300 399.0000 1.0000
38.4400 390.0000 1.0000
38.4500 382.0000 1.0000
38.4600 399.0000 1.0000
38.4700 384.0000 1.0000
38.4800 403.0000 1.0000
38.4900 369.0000 1.0000
38.5000 381.0000 1.0000
38.5100 376.0000 1.0000
38.5200 396.0000 1.0000
38.5300 402.0000 1.0000
38.5400 380.0000 1.0000
38.5500 411.0000 1.0000
38.5600 368.0000 1.0000
38.5700 388.0000 1.0000
38.5800 384.0000 1.0000
38.5900 399.0000 1.0000
38.6000 401.0000 1.0000
38.6100 390.0000 1.0000
38.6200 391.0000 1.0000
38.6300 370.0000 1.0000
38.6400 380.0000 1.0000
38.6500 400.0000 1.0000
38.6600 367.0000 1.0000
38.6700 411.0000 1.0000
38.6800 381.0000 1.0000
38.6900 381.0000 1.0000
38.7000 399.0000 1.0000
38.7100 378.0000 1.0000
38.7200 397.0000 1.0000
38.7300 377.0000 1.0000
38.7400 361.0000 1.0000
38.7500 363.0000 1.0000
38.7600 374.0000 1.0000
38.7700 373.0000 1.0000
38.7800 362.0000 1.0000
38.7900 358.0000 1.0000
38.8000 376.0000 1.0000
38.8100 407.0000 1.0000
38.8200 362.0000 1.0000
38.8300 367.0000 1.0000
38.8400 386.0000 1.0000
38.8500 357.0000 1.0000
38.8600 387.0000 1.0000
38.8700 393.0000 1.0000
38.8800 384.0000 1.0000
38.8900 353.0000 1.0000
38.9000 381.0000 1.0000
38.9100 381.0000 1.0000
38.9200 381.0000 1.0000
38.9300 338.0000 1.0000
38.9400 386.0000 1.0000
38.9500 359.0000 1.0000
38.9600 368.0000 1.0000
38.9700 360.0000 1.0000
38.9800 351.0000 1.0000
38.9900 352.0000 1.0000
39.0000 375.0000 1.0000
39.0100 375.0000 1.0000
39.0200 381.0000 1.0000
39.0300 349.0000 1.0000
39.0400 341.0000 1.0000
39.0500 406.0000 1.0000
39.0600 390.0000 1.0000
39.0700 369.0000 1.0000
39.0800 357.0000 1.0000
39.0900 364.0000 1.0000
39.1000 372.0000 1.0000
39.1100 390.0000 1.0000
39.1200 377.0000 1.0000
39.1300 354.0000 1.0000
39.1400 340.0000 1.0000
39.1500 336.0000 1.0000
39.1600 390.0000 1.0000
39.1700 368.0000 1.0000
39.1800 375.0000 1.0000
39.1900 344.0000 1.0000
39.2000 364.0000 1.0000
39.2100 341.0000 1.0000
39.2200 358.0000 1.0000
39.2300 328.0000 1.0000
39.2400 376.0000 1.0000
39.2500 368.0000 1.0000
39.2600 356.0000 1.0000
39.2700 347.0000 1.0000
39.2800 358.0000 1.0000
39.2900 334.0000 1.0000
39.3000 349.0000 1.0000
39.3100 363.0000 1.0000
39.3200 354.0000 1.0000
39.3300 354.0000 1.0000
39.3400 347.0000 1.0000
39.3500 331.0000 1.0000
39.3600 344.0000 1.0000
39.3700 330.0000 1.0000
39.3800 404.0000 1.0000
39.3900 357.0000 1.0000
39.4000 348.0000 1.0000
39.4100 343.0000 1.0000
39.4200 323.0000 1.0000
39.4300 365.0000 1.0000
39.4400 335.0000 1.0000
39.4500 361.0000 1.0000
39.4600 361.0000 1.0000
39.4700 327.0000 1.0000
39.4800 359.0000 1.0000
39.4900 356.0000 1.0000
39.5000 371.0000 1.0000
39.5100 319.0000 1.0000
39.5200 334.0000 1.0000
39.5300 352.0000 1.0000
39.5400 355.0000 1.0000
39.5500 352.0000 1.0000
39.5600 332.0000 1.0000
39.5700 372.0000 1.0000
39.5800 349.0000 1.0000
39.5900 336.0000 1.0000
39.6000 339.0000 1.0000
39.6100 341.0000 1.0000
39.6200 357.0000 1.0000
39.6300 332.0000 1.0000
39.6400 329.0000 1.0000
39.6500 342.0000 1.0000
39.6600 339.0000 1.0000
39.6700 349.0000 1.0000
39.6800 366.0000 1.0000
39.6900 330.0000 1.0000
39.7000 324.0000 1.0000
39.7100 345.0000 1.0000
39.7200 365.0000 1.0000
39.7300 327.0000 1.0000
39.7400 345.0000 1.0000
39.7500 332.0000 1.0000
39.7600 328.0000 1.0000
39.7700 339.0000 1.0000
39.7800 353.0000 1.0000
39.7900 349.0000 1.0000
39.8000 337.0000 1.0000
39.8100 342.0000 1.0000
39.8200 354.0000 1.0000
39.8300 328.0000 1.0000
39.8400 319.0000 1.0000
39.8500 335.0000 1.0000
39.8600 357.0000 1.0000
39.8700 346.0000 1.0000
39.8800 356.0000 1.0000
39.8900 342.0000 1.0000
39.9000 341.0000 1.0000
39.9100 331.0000 1.0000
39.9200 349.0000 1.0000
39.9300 368.0000 1.0000
39.9400 324.0000 1.0000
39.9500 316.0000 1.0000
39.9600 340.0000 1.0000
39.9700 341.0000 1.0000
39.9800 343.0000 1.0000
39.9900 337.0000 1.0000
40.0000 345.0000 1.0000
40.0100 355.0000 1.0000
40.0200 337.0000 1.0000
40.0300 334.0000 1.0000
40.0400 356.0000 1.0000
40.0500 324.0000 1.0000
40.0600 363.0000 1.0000
40.0700 325.0000 1.0000
40.0800 347.0000 1.0000
40.0900 329.0000 1.0000
40.1000 347.0000 1.0000
40.1100 343.0000 1.0000
40.1200 320.0000 1.0000
40.1300 341.0000 1.0000
40.1400 337.0000 1.0000
40.1500 334.0000 1.0000
40.1600 331.0000 1.0000
40.1700 334.0000 1.0000
40.1800 360.0000 1.0000
40.1900 337.0000 1.0000
40.2000 330.0000 1.0000
40.2100 349.0000 1.0000
40.2200 317.0000 1.0000
40.2300 358.0000 1.0000
40.2400 378.0000 1.0000
40.2500 316.0000 1.0000
40.2600 312.0000 1.0000
40.2700 351.0000 1.0000
40.2800 347.0000 1.0000
40.2900 340.0000 1.0000
40.3000 317.0000 1.0000
40.3100 335.0000 1.0000
40.3200 328.0000 1.0000
40.3300 323.0000 1.0000
40.3400 318.0000 1.0000
40.3500 336.0000 1.0000
40.3600 314.0000 1.0000
40.3700 299.0000 1.0000
40.3800 345.0000 1.0000
40.3900 317.0000 1.0000
40.4000 337.0000 1.0000
40.4100 330.0000 1.0000
40.4200 341.0000 1.0000
40.4300 323.0000 1.0000
40.4400 348.0000 1.0000
40.4500 367.0000 1.0000
40.4600 358.0000 1.0000
40.4700 337.0000 1.0000
40.4800 332.0000 1.0000
40.4900 368.0000 1.0000
40.5000 340.0000 1.0000
40.5100 326.0000 1.0000
40.5200 353.0000 1.0000
40.5300 349.0000 1.0000
40.5400 363.0000 1.0000
40.5500 325.0000 1.0000
40.5600 329.0000 1.0000
40.5700 338.0000 1.0000
40.5800 334.0000 1.0000
40.5900 335.0000 1.0000
40.6000 356.0000 1.0000
40.6100 355.0000 1.0000
40.6200 337.0000 1.0000
40.6300 348.0000 1.0000
40.6400 350.0000 1.0000
40.6500 361.0000 1.0000
40.6600 358.0000 1.0000
40.6700 333.0000 1.0000
40.6800 360.0000 1.0000
40.6900 369.0000 1.0000
40.7000 371.0000 1.0000
40.7100 362.0000 1.0000
40.7200 381.0000 1.0000
40.7300 361.0000 1.0000
40.7400 342.0000 1.0000
40.7500 388.0000 1.0000
40.7600 359.0000 1.0000
40.7700 358.0000 1.0000
40.7800 387.0000 1.0000
40.7900 371.0000 1.0000
40.8000 401.0000 1.0000
40.8100 414.0000 1.0000
40.8200 371.0000 1.0000
40.8300 371.0000 1.0000
40.8400 394.0000 1.0000
40.8500 411.0000 1.0000
40.8600 395.0000 1.0000
40.8700 385.0000 1.0000
40.8800 378.0000 1.0000
40.8900 380.0000 1.0000
40.9000 362.0000 1.0000
40.9100 376.0000 1.0000
40.9200 383.0000 1.0000
40.9300 365.0000 1.0000
40.9400 369.0000 1.0000
40.9500 346.0000 1.0000
40.9600 378.0000 1.0000
40.9700 367.0000 1.0000
40.9800 347.0000 1.0000
40.9900 350.0000 1.0000
41.0000 387.0000 1.0000
41.0100 386.0000 1.0000
41.0200 358.0000 1.0000
41.0300 353.0000 1.0000
41.0400 329.0000 1.0000
41.0500 351.0000 1.0000
41.0600 316.0000 1.0000
41.0700 332.0000 1.0000
41.0800 341.0000 1.0000
41.0900 354.0000 1.0000
41.1000 361.0000 1.0000
41.1100 325.0000 1.0000
41.1200 349.0000 1.0000
41.1300 357.0000 1.0000
41.1400 377.0000 1.0000
41.1500 333.0000 1.0000
41.1600 388.0000 1.0000
41.1700 360.0000 1.0000
41.1800 337.0000 1.0000
41.1900 366.0000 1.0000
41.2000 326.0000 1.0000
41.2100 339.0000 1.0000
41.2200 318.0000 1.0000
41.2300 315.0000 1.0000
41.2400 346.0000 1.0000
41.2500 360.0000 1.0000
41.2600 338.0000 1.0000
41.2700 346.0000 1.0000
41.2800 335.0000 1.0000
41.2900 345.0000 1.0000
41.3000 321.0000 1.0000
41.3100 321.0000 1.0000
41.3200 326.0000 1.0000
41.3300 328.0000 1.0000
41.3400 314.0000 1.0000
41.3500 320.0000 1.0000
41.3600 310.0000 1.0000
41.3700 349.0000 1.0000
41.3800 336.0000 1.0000
41.3900 354.0000 1.0000
41.4000 331.0000 1.0000
41.4100 312.0000 1.0000
41.4200 324.0000 1.0000
41.4300 317.0000 1.0000
41.4400 325.0000 1.0000
41.4500 305.0000 1.0000
41.4600 368.0000 1.0000
41.4700 356.0000 1.0000
41.4800 326.0000 1.0000
41.4900 340.0000 1.0000
41.5000 332.0000 1.0000
41.5100 311.0000 1.0000
41.5200 348.0000 1.0000
41.5300 334.0000 1.0000
41.5400 338.0000 1.0000
41.5500 341.0000 1.0000
41.5600 333.0000 1.0000
41.5700 332.0000 1.0000
41.5800 306.0000 1.0000
41.5900 356.0000 1.0000
41.6000 322.0000 1.0000
41.6100 302.0000 1.0000
41.6200 328.0000 1.0000
41.6300 329.0000 1.0000
41.6400 287.0000 1.0000
41.6500 325.0000 1.0000
41.6600 331.0000 1.0000
41.6700 326.0000 1.0000
41.6800 315.0000 1.0000
41.6900 327.0000 1.0000
41.7000 324.0000 1.0000
41.7100 353.0000 1.0000
41.7200 353.0000 1.0000
41.7300 345.0000 1.0000
41.7400 337.0000 1.0000
41.7500 340.0000 1.0000
41.7600 336.0000 1.0000
41.7700 348.0000 1.0000
41.7800 327.0000 1.0000
41.7900 324.0000 1.0000
41.8000 331.0000 1.0000
41.8100 350.0000 1.0000
41.8200 340.0000 1.0000
41.8300 348.0000 1.0000
41.8400 331.0000 1.0000
41.8500 340.0000 1.0000
41.8600 313.0000 1.0000
41.8700 320.0000 1.0000
41.8800 335.0000 1.0000
41.8900 331.0000 1.0000
41.9000 318.0000 1.0000
41.9100 322.0000 1.0000
41.9200 354.0000 1.0000
41.9300 335.0000 1.0000
41.9400 332.0000 1.0000
41.9500 326.0000 1.0000
41.9600 316.0000 1.0000
41.9700 330.0000 1.0000
41.9800 308.0000 1.0000
41.9900 315.0000 1.0000
42.0000 315.0000 1.0000
42.0100 337.0000 1.0000
42.0200 359.0000 1.0000
42.0300 320.0000 1.0000
42.0400 330.0000 1.0000
42.0500 322.0000 1.0000
42.0600 330.0000 1.0000
42.0700 323.0000 1.0000
42.0800 324.0000 1.0000
42.0900 333.0000 1.0000
42.1000 315.0000 1.0000
42.1100 305.0000 1.0000
42.1200 311.0000 1.0000
42.1300 296.0000 1.0000
42.1400 309.0000 1.0000
42.1500 327.0000 1.0000
42.1600 327.0000 1.0000
42.1700 320.0000 1.0000
42.1800 329.0000 1.0000
42.1900 325.0000 1.0000
42.2000 315.0000 1.0000
42.2100 337.0000 1.0000
42.2200 338.0000 1.0000
42.2300 329.0000 1.0000
42.2400 338.0000 1.0000
42.2500 326.0000 1.0000
42.2600 347.0000 1.0000
42.2700 311.0000 1.0000
42.2800 346.0000 1.0000
42.2900 324.0000 1.0000
42.3000 326.0000 1.0000
42.3100 340.0000 1.0000
42.3200 332.0000 1.0000
42.3300 358.0000 1.0000
42.3400 340.0000 1.0000
42.3500 364.0000 1.0000
42.3600 351.0000 1.0000
42.3700 328.0000 1.0000
42.3800 337.0000 1.0000
42.3900 366.0000 1.0000
42.4000 327.0000 1.0000
42.4100 325.0000 1.0000
42.4200 359.0000 1.0000
42.4300 399.0000 1.0000
42.4400 347.0000 1.0000
42.4500 371.0000 1.0000
42.4600 348.0000 1.0000
42.4700 349.0000 1.0000
42.4800 351.0000 1.0000
42.4900 343.0000 1.0000
42.5000 316.0000 1.0000
42.5100 316.0000 1.0000
42.5200 336.0000 1.0000
42.5300 349.0000 1.0000
42.5400 379.0000 1.0000
42.5500 357.0000 1.0000
42.5600 320.0000 1.0000
42.5700 306.0000 1.0000
42.5800 330.0000 1.0000
42.5900 337.0000 1.0000
42.6000 332.0000 1.0000
42.6100 339.0000 1.0000
42.6200 317.0000 1.0000
42.6300 337.0000 1.0000
42.6400 353.0000 1.0000
42.6500 348.0000 1.0000
42.6600 319.0000 1.0000
42.6700 327.0000 1.0000
42.6800 334.0000 1.0000
42.6900 313.0000 1.0000
42.7000 333.0000 1.0000
42.7100 338.0000 1.0000
42.7200 339.0000 1.0000
42.7300 356.0000 1.0000
42.7400 319.0000 1.0000
42.7500 317.0000 1.0000
42.7600 316.0000 1.0000
42.7700 317.0000 1.0000
42.7800 342.0000 1.0000
42.7900 325.0000 1.0000
42.8000 331.0000 1.0000
42.8100 320.0000 1.0000
42.8200 317.0000 1.0000
42.8300 342.0000 1.0000
42.8400 354.0000 1.0000
42.8500 314.0000 1.0000
42.8600 334.0000 1.0000
42.8700 325.0000 1.0000
42.8800 323.0000 1.0000
42.8900 315.0000 1.0000
42.9000 344.0000 1.0000
42.9100 312.0000 1.0000
42.9200 315.0000 1.0000
42.9300 298.0000 1.0000
42.9400 317.0000 1.0000
42.9500 312.0000 1.0000
42.9600 328.0000 1.0000
42.9700 309.0000 1.0000
42.9800 325.0000 1.0000
42.9900 319.0000 1.0000
43.0000 328.0000 1.0000
43.0100 320.0000 1.0000
43.0200 362.0000 1.0000
43.0300 333.0000 1.0000
43.0400 308.0000 1.0000
43.0500 329.0000 1.0000
43.0600 300.0000 1.0000
43.0700 310.0000 1.0000
43.0800 331.0000 1.0000
43.0900 318.0000 1.0000
43.1000 320.0000 1.0000
43.1100 321.0000 1.0000
43.1200 327.0000 1.0000
43.1300 317.0000 1.0000
43.1400 325.0000 1.0000
43.1500 306.0000 1.0000
43.1600 344.0000 1.0000
43.1700 298.0000 1.0000
43.1800 314.0000 1.0000
43.1900 315.0000 1.0000
43.2000 331.0000 1.0000
43.2100 329.0000 1.0000
43.2200 305.0000 1.0000
43.2300 327.0000 1.0000
43.2400 320.0000 1.0000
43.2500 322.0000 1.0000
43.2600 362.0000 1.0000
43.2700 309.0000 1.0000
43.2800 335.0000 1.0000
43.2900 303.0000 1.0000
43.3000 305.0000 1.0000
43.3100 336.0000 1.0000
43.3200 356.0000 1.0000
43.3300 303.0000 1.0000
43.3400 311.0000 1.0000
43.3500 322.0000 1.0000
43.3600 309.0000 1.0000
43.3700 325.0000 1.0000
43.3800 320.0000 1.0000
43.3900 332.0000 1.0000
43.4000 319.0000 1.0000
43.4100 320.0000 1.0000
43.4200 286.0000 1.0000
43.4300 328.0000 1.0000
43.4400 318.0000 1.0000
43.4500 321.0000 1.0000
43.4600 313.0000 1.0000
43.4700 308.0000 1.0000
43.4800 313.0000 1.0000
43.4900 309.0000 1.0000
43.5000 330.0000 1.0000
43.5100 334.0000 1.0000
43.5200 312.0000 1.0000
43.5300 309.0000 1.0000
43.5400 324.0000 1.0000
43.5500 308.0000 1.0000
43.5600 306.0000 1.0000
43.5700 346.0000 1.0000
43.5800 349.0000 1.0000
43.5900 317.0000 1.0000
43.6000 316.0000 1.0000
43.6100 317.0000 1.0000
43.6200 304.0000 1.0000
43.6300 305.0000 1.0000
43.6400 297.0000 1.0000
43.6500 363.0000 1.0000
43.6600 334.0000 1.0000
43.6700 294.0000 1.0000
43.6800 316.0000 1.0000
43.6900 320.0000 1.0000
43.7000 331.0000 1.0000
43.7100 329.0000 1.0000
43.7200 315.0000 1.0000
43.7300 328.0000 1.0000
43.7400 343.0000 1.0000
43.7500 308.0000 1.0000
43.7600 312.0000 1.0000
43.7700 333.0000 1.0000
43.7800 325.0000 1.0000
43.7900 342.0000 1.0000
43.8000 302.0000 1.0000
43.8100 321.0000 1.0000
43.8200 284.0000 1.0000
43.8300 315.0000 1.0000
43.8400 296.0000 1.0000
43.8500 295.0000 1.0000
43.8600 321.0000 1.0000
43.8700 311.0000 1.0000
43.8800 312.0000 1.0000
43.8900 307.0000 1.0000
43.9000 319.0000 1.0000
43.9100 321.0000 1.0000
43.9200 323.0000 1.0000
43.9300 319.0000 1.0000
43.9400 320.0000 1.0000
43.9500 307.0000 1.0000
43.9600 335.0000 1.0000
43.9700 331.0000 1.0000
43.9800 281.0000 1.0000
43.9900 305.0000 1.0000
44.0000 300.0000 1.0000
44.0100 318.0000 1.0000
44.0200 303.0000 1.0000
44.0300 328.0000 1.0000
44.0400 311.0000 1.0000
44.0500 290.0000 1.0000
44.0600 337.0000 1.0000
44.0700 337.0000 1.0000
44.0800 285.0000 1.0000
44.0900 322.0000 1.0000
44.1000 299.0000 1.0000
44.1100 298.0000 1.0000
44.1200 308.0000 1.0000
44.1300 315.0000 1.0000
44.1400 317.0000 1.0000
44.1500 327.0000 1.0000
44.1600 290.0000 1.0000
44.1700 301.0000 1.0000
44.1800 310.0000 1.0000
44.1900 311.0000 1.0000
44.2000 317.0000 1.0000
44.2100 291.0000 1.0000
44.2200 340.0000 1.0000
44.2300 311.0000 1.0000
44.2400 333.0000 1.0000
44.2500 332.0000 1.0000
44.2600 291.0000 1.0000
44.2700 302.0000 1.0000
44.2800 339.0000 1.0000
44.2900 291.0000 1.0000
44.3000 323.0000 1.0000
44.3100 302.0000 1.0000
44.3200 311.0000 1.0000
44.3300 319.0000 1.0000
44.3400 345.0000 1.0000
44.3500 293.0000 1.0000
44.3600 289.0000 1.0000
44.3700 299.0000 1.0000
44.3800 307.0000 1.0000
44.3900 314.0000 1.0000
44.4000 306.0000 1.0000
44.4100 290.0000 1.0000
44.4200 292.0000 1.0000
44.4300 327.0000 1.0000
44.4400 308.0000 1.0000
44.4500 297.0000 1.0000
44.4600 283.0000 1.0000
44.4700 321.0000 1.0000
44.4800 308.0000 1.0000
44.4900 319.0000 1.0000
44.5000 285.0000 1.0000
44.5100 291.0000 1.0000
44.5200 294.0000 1.0000
44.5300 307.0000 1.0000
44.5400 297.0000 1.0000
44.5500 302.0000 1.0000
44.5600 291.0000 1.0000
44.5700 277.0000 1.0000
44.5800 330.0000 1.0000
44.5900 311.0000 1.0000
44.6000 303.0000 1.0000
44.6100 313.0000 1.0000
44.6200 352.0000 1.0000
44.6300 337.0000 1.0000
44.6400 302.0000 1.0000
44.6500 317.0000 1.0000
44.6600 310.0000 1.0000
44.6700 303.0000 1.0000
44.6800 296.0000 1.0000
44.6900 302.0000 1.0000
44.7000 300.0000 1.0000
44.7100 291.0000 1.0000
44.7200 293.0000 1.0000
44.7300 325.0000 1.0000
44.7400 303.0000 1.0000
44.7500 301.0000 1.0000
44.7600 284.0000 1.0000
44.7700 306.0000 1.0000
44.7800 288.0000 1.0000
44.7900 320.0000 1.0000
44.8000 341.0000 1.0000
44.8100 300.0000 1.0000
44.8200 326.0000 1.0000
44.8300 314.0000 1.0000
44.8400 320.0000 1.0000
44.8500 295.0000 1.0000
44.8600 296.0000 1.0000
44.8700 289.0000 1.0000
44.8800 323.0000 1.0000
44.8900 288.0000 1.0000
44.9000 301.0000 1.0000
44.9100 326.0000 1.0000
44.9200 300.0000 1.0000
44.9300 304.0000 1.0000
44.9400 325.0000 1.0000
44.9500 299.0000 1.0000
44.9600 317.0000 1.0000
44.9700 313.0000 1.0000
44.9800 301.0000 1.0000
44.9900 330.0000 1.0000
45.0000 303.0000 1.0000
45.0100 307.0000 1.0000
45.0200 291.0000 1.0000
45.0300 286.0000 1.0000
45.0400 304.0000 1.0000
45.0500 307.0000 1.0000
45.0600 302.0000 1.0000
45.0700 303.0000 1.0000
45.0800 319.0000 1.0000
45.0900 315.0000 1.0000
45.1000 305.0000 1.0000
45.1100 332.0000 1.0000
45.1200 302.0000 1.0000
45.1300 295.0000 1.0000
45.1400 323.0000 1.0000
45.1500 327.0000 1.0000
45.1600 318.0000 1.0000
45.1700 307.0000 1.0000
45.1800 310.0000 1.0000
45.1900 295.0000 1.0000
45.2000 297.0000 1.0000
45.2100 306.0000 1.0000
45.2200 317.0000 1.0000
45.2300 319.0000 1.0000
45.2400 309.0000 1.0000
45.2500 282.0000 1.0000
45.2600 314.0000 1.0000
45.2700 279.0000 1.0000
45.2800 279.0000 1.0000
45.2900 301.0000 1.0000
45.3000 284.0000 1.0000
45.3100 310.0000 1.0000
45.3200 283.0000 1.0000
45.3300 290.0000 1.0000
45.3400 325.0000 1.0000
45.3500 307.0000 1.0000
45.3600 284.0000 1.0000
45.3700 290.0000 1.0000
45.3800 318.0000 1.0000
45.3900 309.0000 1.0000
45.4000 309.0000 1.0000
45.4100 311.0000 1.0000
45.4200 288.0000 1.0000
45.4300 273.0000 1.0000
45.4400 293.0000 1.0000
45.4500 321.0000 1.0000
45.4600 312.0000 1.0000
45.4700 302.0000 1.0000
45.4800 288.0000 1.0000
45.4900 297.0000 1.0000
45.5000 268.0000 1.0000
45.5100 293.0000 1.0000
45.5200 271.0000 1.0000
45.5300 306.0000 1.0000
45.5400 315.0000 1.0000
45.5500 294.0000 1.0000
45.5600 315.0000 1.0000
45.5700 311.0000 1.0000
45.5800 291.0000 1.0000
45.5900 278.0000 1.0000
45.6000 287.0000 1.0000
45.6100 292.0000 1.0000
45.6200 284.0000 1.0000
45.6300 283.0000 1.0000
45.6400 285.0000 1.0000
45.6500 302.0000 1.0000
45.6600 272.0000 1.0000
45.6700 283.0000 1.0000
45.6800 306.0000 1.0000
45.6900 311.0000 1.0000
45.7000 278.0000 1.0000
45.7100 294.0000 1.0000
45.7200 313.0000 1.0000
45.7300 298.0000 1.0000
45.7400 286.0000 1.0000
45.7500 280.0000 1.0000
45.7600 311.0000 1.0000
45.7700 298.0000 1.0000
45.7800 295.0000 1.0000
45.7900 296.0000 1.0000
45.8000 275.0000 1.0000
45.8100 300.0000 1.0000
45.8200 311.0000 1.0000
45.8300 326.0000 1.0000
45.8400 296.0000 1.0000
45.8500 293.0000 1.0000
45.8600 312.0000 1.0000
45.8700 297.0000 1.0000
45.8800 316.0000 1.0000
45.8900 287.0000 1.0000
45.9000 293.0000 1.0000
45.9100 278.0000 1.0000
45.9200 290.0000 1.0000
45.9300 293.0000 1.0000
45.9400 310.0000 1.0000
45.9500 303.0000 1.0000
45.9600 274.0000 1.0000
45.9700 311.0000 1.0000
45.9800 283.0000 1.0000
45.9900 298.0000 1.0000
46.0000 269.0000 1.0000
46.0100 288.0000 1.0000
46.0200 316.0000 1.0000
46.0300 265.0000 1.0000
46.0400 270.0000 1.0000
46.0500 291.0000 1.0000
46.0600 297.0000 1.0000
46.0700 278.0000 1.0000
46.0800 312.0000 1.0000
46.0900 306.0000 1.0000
46.1000 295.0000 1.0000
46.1100 302.0000 1.0000
46.1200 300.0000 1.0000
46.1300 294.0000 1.0000
46.1400 301.0000 1.0000
46.1500 293.0000 1.0000
46.1600 301.0000 1.0000
46.1700 304.0000 1.0000
46.1800 312.0000 1.0000
46.1900 287.0000 1.0000
46.2000 278.0000 1.0000
46.2100 292.0000 1.0000
46.2200 300.0000 1.0000
46.2300 273.0000 1.0000
46.2400 270.0000 1.0000
46.2500 266.0000 1.0000
46.2600 299.0000 1.0000
46.2700 292.0000 1.0000
46.2800 308.0000 1.0000
46.2900 300.0000 1.0000
46.3000 297.0000 1.0000
46.3100 287.0000 1.0000
46.3200 286.0000 1.0000
46.3300 273.0000 1.0000
46.3400 288.0000 1.0000
46.3500 289.0000 1.0000
46.3600 276.0000 1.0000
46.3700 273.0000 1.0000
46.3800 298.0000 1.0000
46.3900 270.0000 1.0000
46.4000 313.0000 1.0000
46.4100 290.0000 1.0000
46.4200 278.0000 1.0000
46.4300 283.0000 1.0000
46.4400 281.0000 1.0000
46.4500 255.0000 1.0000
46.4600 278.0000 1.0000
46.4700 306.0000 1.0000
46.4800 286.0000 1.0000
46.4900 305.0000 1.0000
46.5000 268.0000 1.0000
46.5100 281.0000 1.0000
46.5200 282.0000 1.0000
46.5300 280.0000 1.0000
46.5400 299.0000 1.0000
46.5500 302.0000 1.0000
46.5600 302.0000 1.0000
46.5700 327.0000 1.0000
46.5800 297.0000 1.0000
46.5900 305.0000 1.0000
46.6000 283.0000 1.0000
46.6100 286.0000 1.0000
46.6200 294.0000 1.0000
46.6300 281.0000 1.0000
46.6400 294.0000 1.0000
46.6500 292.0000 1.0000
46.6600 313.0000 1.0000
46.6700 297.0000 1.0000
46.6800 283.0000 1.0000
46.6900 282.0000 1.0000
46.7000 256.0000 1.0000
46.7100 297.0000 1.0000
46.7200 311.0000 1.0000
46.7300 310.0000 1.0000
46.7400 313.0000 1.0000
46.7500 299.0000 1.0000
46.7600 291.0000 1.0000
46.7700 293.0000 1.0000
46.7800 285.0000 1.0000
46.7900 279.0000 1.0000
46.8000 263.0000 1.0000
46.8100 273.0000 1.0000
46.8200 258.0000 1.0000
46.8300 282.0000 1.0000
46.8400 283.0000 1.0000
46.8500 301.0000 1.0000
46.8600 261.0000 1.0000
46.8700 292.0000 1.0000
46.8800 297.0000 1.0000
46.8900 281.0000 1.0000
46.9000 302.0000 1.0000
46.9100 280.0000 1.0000
46.9200 270.0000 1.0000
46.9300 300.0000 1.0000
46.9400 316.0000 1.0000
46.9500 283.0000 1.0000
46.9600 306.0000 1.0000
46.9700 324.0000 1.0000
46.9800 281.0000 1.0000
46.9900 308.0000 1.0000
47.0000 294.0000 1.0000
47.0100 308.0000 1.0000
47.0200 292.0000 1.0000
47.0300 288.0000 1.0000
47.0400 292.0000 1.0000
47.0500 277.0000 1.0000
47.0600 278.0000 1.0000
47.0700 317.0000 1.0000
47.0800 296.0000 1.0000
47.0900 300.0000 1.0000
47.1000 265.0000 1.0000
47.1100 251.0000 1.0000
47.1200 286.0000 1.0000
47.1300 279.0000 1.0000
47.1400 297.0000 1.0000
47.1500 285.0000 1.0000
47.1600 258.0000 1.0000
47.1700 309.0000 1.0000
47.1800 282.0000 1.0000
47.1900 262.0000 1.0000
47.2000 297.0000 1.0000
47.2100 237.0000 1.0000
47.2200 281.0000 1.0000
47.2300 285.0000 1.0000
47.2400 259.0000 1.0000
47.2500 284.0000 1.0000
47.2600 283.0000 1.0000
47.2700 291.0000 1.0000
47.2800 295.0000 1.0000
47.2900 286.0000 1.0000
47.3000 283.0000 1.0000
47.3100 276.0000 1.0000
47.3200 304.0000 1.0000
47.3300 301.0000 1.0000
47.3400 282.0000 1.0000
47.3500 266.0000 1.0000
47.3600 304.0000 1.0000
47.3700 280.0000 1.0000
47.3800 290.0000 1.0000
47.3900 291.0000 1.0000
47.4000 274.0000 1.0000
47.4100 286.0000 1.0000
47.4200 292.0000 1.0000
47.4300 277.0000 1.0000
47.4400 269.0000 1.0000
47.4500 293.0000 1.0000
47.4600 290.0000 1.0000
47.4700 272.0000 1.0000
47.4800 291.0000 1.0000
47.4900 280.0000 1.0000
47.5000 283.0000 1.0000
47.5100 297.0000 1.0000
47.5200 269.0000 1.0000
47.5300 245.0000 1.0000
47.5400 278.0000 1.0000
47.5500 301.0000 1.0000
47.5600 300.0000 1.0000
47.5700 250.0000 1.0000
47.5800 290.0000 1.0000
47.5900 290.0000 1.0000
47.6000 256.0000 1.0000
47.6100 284.0000 1.0000
47.6200 285.0000 1.0000
47.6300 274.0000 1.0000
47.6400 299.0000 1.0000
47.6500 289.0000 1.0000
47.6600 279.0000 1.0000
47.6700 281.0000 1.0000
47.6800 274.0000 1.0000
47.6900 278.0000 1.0000
47.7000 282.0000 1.0000
47.7100 264.0000 1.0000
47.7200 276.0000 1.0000
47.7300 280.0000 1.0000
47.7400 282.0000 1.0000
47.7500 282.0000 1.0000
47.7600 280.0000 1.0000
47.7700 311.0000 1.0000
47.7800 308.0000 1.0000
47.7900 272.0000 1.0000
47.8000 290.0000 1.0000
47.8100 280.0000 1.0000
47.8200 271.0000 1.0000
47.8300 278.0000 1.0000
47.8400 280.0000 1.0000
47.8500 272.0000 1.0000
47.8600 274.0000 1.0000
47.8700 280.0000 1.0000
47.8800 287.0000 1.0000
47.8900 297.0000 1.0000
47.9000 303.0000 1.0000
47.9100 268.0000 1.0000
47.9200 290.0000 1.0000
47.9300 288.0000 1.0000
47.9400 294.0000 1.0000
47.9500 319.0000 1.0000
47.9600 295.0000 1.0000
47.9700 294.0000 1.0000
47.9800 262.0000 1.0000
47.9900 302.0000 1.0000
48.0000 258.0000 1.0000
48.0100 297.0000 1.0000
48.0200 302.0000 1.0000
48.0300 272.0000 1.0000
48.0400 274.0000 1.0000
48.0500 269.0000 1.0000
48.0600 293.0000 1.0000
48.0700 277.0000 1.0000
48.0800 270.0000 1.0000
48.0900 277.0000 1.0000
48.1000 268.0000 1.0000
48.1100 284.0000 1.0000
48.1200 283.0000 1.0000
48.1300 260.0000 1.0000
48.1400 268.0000 1.0000
48.1500 252.0000 1.0000
48.1600 274.0000 1.0000
48.1700 266.0000 1.0000
48.1800 303.0000 1.0000
48.1900 283.0000 1.0000
48.2000 295.0000 1.0000
48.2100 265.0000 1.0000
48.2200 268.0000 1.0000
48.2300 290.0000 1.0000
48.2400 296.0000 1.0000
48.2500 257.0000 1.0000
48.2600 262.0000 1.0000
48.2700 291.0000 1.0000
48.2800 276.0000 1.0000
48.2900 283.0000 1.0000
48.3000 260.0000 1.0000
48.3100 281.0000 1.0000
48.3200 284.0000 1.0000
48.3300 287.0000 1.0000
48.3400 296.0000 1.0000
48.3500 267.0000 1.0000
48.3600 288.0000 1.0000
48.3700 289.0000 1.0000
48.3800 281.0000 1.0000
48.3900 258.0000 1.0000
48.4000 307.0000 1.0000
48.4100 258.0000 1.0000
48.4200 302.0000 1.0000
48.4300 302.0000 1.0000
48.4400 312.0000 1.0000
48.4500 294.0000 1.0000
48.4600 267.0000 1.0000
48.4700 267.0000 1.0000
48.4800 276.0000 1.0000
48.4900 274.0000 1.0000
48.5000 244.0000 1.0000
48.5100 276.0000 1.0000
48.5200 281.0000 1.0000
48.5300 274.0000 1.0000
48.5400 280.0000 1.0000
48.5500 270.0000 1.0000
48.5600 276.0000 1.0000
48.5700 275.0000 1.0000
48.5800 284.0000 1.0000
48.5900 285.0000 1.0000
48.6000 279.0000 1.0000
48.6100 289.0000 1.0000
48.6200 263.0000 1.0000
48.6300 256.0000 1.0000
48.6400 303.0000 1.0000
48.6500 295.0000 1.0000
48.6600 257.0000 1.0000
48.6700 249.0000 1.0000
48.6800 291.0000 1.0000
48.6900 274.0000 1.0000
48.7000 263.0000 1.0000
48.7100 246.0000 1.0000
48.7200 275.0000 1.0000
48.7300 262.0000 1.0000
48.7400 256.0000 1.0000
48.7500 283.0000 1.0000
48.7600 282.0000 1.0000
48.7700 275.0000 1.0000
48.7800 306.0000 1.0000
48.7900 257.0000 1.0000
48.8000 297.0000 1.0000
48.8100 268.0000 1.0000
48.8200 256.0000 1.0000
48.8300 298.0000 1.0000
48.8400 262.0000 1.0000
48.8500 265.0000 1.0000
48.8600 296.0000 1.0000
48.8700 268.0000 1.0000
48.8800 269.0000 1.0000
48.8900 284.0000 1.0000
48.9000 244.0000 1.0000
48.9100 271.0000 1.0000
48.9200 269.0000 1.0000
48.9300 256.0000 1.0000
48.9400 245.0000 1.0000
48.9500 277.0000 1.0000
48.9600 287.0000 1.0000
48.9700 276.0000 1.0000
48.9800 251.0000 1.0000
48.9900 287.0000 1.0000
49.0000 282.0000 1.0000
49.0100 293.0000 1.0000
49.0200 273.0000 1.0000
49.0300 265.0000 1.0000
49.0400 277.0000 1.0000
49.0500 276.0000 1.0000
49.0600 253.0000 1.0000
49.0700 262.0000 1.0000
49.0800 268.0000 1.0000
49.0900 292.0000 1.0000
49.1000 262.0000 1.0000
49.1100 267.0000 1.0000
49.1200 301.0000 1.0000
49.1300 271.0000 1.0000
49.1400 290.0000 1.0000
49.1500 269.0000 1.0000
49.1600 293.0000 1.0000
49.1700 286.0000 1.0000
49.1800 296.0000 1.0000
49.1900 295.0000 1.0000
49.2000 316.0000 1.0000
49.2100 262.0000 1.0000
49.2200 302.0000 1.0000
49.2300 297.0000 1.0000
49.2400 297.0000 1.0000
49.2500 291.0000 1.0000
49.2600 304.0000 1.0000
49.2700 300.0000 1.0000
49.2800 320.0000 1.0000
49.2900 295.0000 1.0000
49.3000 302.0000 1.0000
49.3100 288.0000 1.0000
49.3200 320.0000 1.0000
49.3300 327.0000 1.0000
49.3400 332.0000 1.0000
49.3500 297.0000 1.0000
49.3600 280.0000 1.0000
49.3700 322.0000 1.0000
49.3800 338.0000 1.0000
49.3900 335.0000 1.0000
49.4000 332.0000 1.0000
49.4100 317.0000 1.0000
49.4200 346.0000 1.0000
49.4300 345.0000 1.0000
49.4400 350.0000 1.0000
49.4500 313.0000 1.0000
49.4600 318.0000 1.0000
49.4700 308.0000 1.0000
49.4800 324.0000 1.0000
49.4900 321.0000 1.0000
49.5000 317.0000 1.0000
49.5100 313.0000 1.0000
49.5200 312.0000 1.0000
49.5300 316.0000 1.0000
49.5400 318.0000 1.0000
49.5500 310.0000 1.0000
49.5600 300.0000 1.0000
49.5700 307.0000 1.0000
49.5800 302.0000 1.0000
49.5900 312.0000 1.0000
49.6000 303.0000 1.0000
49.6100 318.0000 1.0000
49.6200 307.0000 1.0000
49.6300 303.0000 1.0000
49.6400 318.0000 1.0000
49.6500 306.0000 1.0000
49.6600 286.0000 1.0000
49.6700 259.0000 1.0000
49.6800 271.0000 1.0000
49.6900 254.0000 1.0000
49.7000 285.0000 1.0000
49.7100 275.0000 1.0000
49.7200 291.0000 1.0000
49.7300 278.0000 1.0000
49.7400 274.0000 1.0000
49.7500 299.0000 1.0000
49.7600 285.0000 1.0000
49.7700 284.0000 1.0000
49.7800 284.0000 1.0000
49.7900 266.0000 1.0000
49.8000 269.0000 1.0000
49.8100 274.0000 1.0000
49.8200 267.0000 1.0000
49.8300 257.0000 1.0000
49.8400 262.0000 1.0000
49.8500 278.0000 1.0000
49.8600 284.0000 1.0000
49.8700 281.0000 1.0000
49.8800 261.0000 1.0000
49.8900 267.0000 1.0000
49.9000 287.0000 1.0000
49.9100 281.0000 1.0000
49.9200 280.0000 1.0000
49.9300 265.0000 1.0000
49.9400 285.0000 1.0000
49.9500 273.0000 1.0000
49.9600 253.0000 1.0000
49.9700 275.0000 1.0000
49.9800 224.0000 1.0000
49.9900 287.0000 1.0000
50.0000 284.0000 1.0000
50.0100 281.0000 1.0000
50.0200 286.0000 1.0000
50.0300 275.0000 1.0000
50.0400 270.0000 1.0000
50.0500 279.0000 1.0000
50.0600 292.0000 1.0000
50.0700 260.0000 1.0000
50.0800 277.0000 1.0000
50.0900 246.0000 1.0000
50.1000 273.0000 1.0000
50.1100 285.0000 1.0000
50.1200 278.0000 1.0000
50.1300 283.0000 1.0000
50.1400 270.0000 1.0000
50.1500 287.0000 1.0000
50.1600 276.0000 1.0000
50.1700 297.0000 1.0000
50.1800 254.0000 1.0000
50.1900 285.0000 1.0000
50.2000 291.0000 1.0000
50.2100 259.0000 1.0000
50.2200 274.0000 1.0000
50.2300 298.0000 1.0000
50.2400 274.0000 1.0000
50.2500 265.0000 1.0000
50.2600 283.0000 1.0000
50.2700 271.0000 1.0000
50.2800 257.0000 1.0000
50.2900 266.0000 1.0000
50.3000 307.0000 1.0000
50.3100 287.0000 1.0000
50.3200 254.0000 1.0000
50.3300 255.0000 1.0000
50.3400 284.0000 1.0000
50.3500 275.0000 1.0000
50.3600 269.0000 1.0000
50.3700 270.0000 1.0000
50.3800 280.0000 1.0000
50.3900 303.0000 1.0000
50.4000 275.0000 1.0000
50.4100 274.0000 1.0000
50.4200 273.0000 1.0000
50.4300 265.0000 1.0000
50.4400 272.0000 1.0000
50.4500 290.0000 1.0000
50.4600 282.0000 1.0000
50.4700 289.0000 1.0000
50.4800 269.0000 1.0000
50.4900 304.0000 1.0000
50.5000 295.0000 1.0000
50.5100 273.0000 1.0000
50.5200 259.0000 1.0000
50.5300 278.0000 1.0000
50.5400 263.0000 1.0000
50.5500 274.0000 1.0000
50.5600 296.0000 1.0000
50.5700 300.0000 1.0000
50.5800 287.0000 1.0000
50.5900 266.0000 1.0000
50.6000 265.0000 1.0000
50.6100 273.0000 1.0000
50.6200 266.0000 1.0000
50.6300 281.0000 1.0000
50.6400 293.0000 1.0000
50.6500 312.0000 1.0000
50.6600 294.0000 1.0000
50.6700 276.0000 1.0000
50.6800 287.0000 1.0000
50.6900 303.0000 1.0000
50.7000 272.0000 1.0000
50.7100 252.0000 1.0000
50.7200 264.0000 1.0000
50.7300 289.0000 1.0000
50.7400 306.0000 1.0000
50.7500 282.0000 1.0000
50.7600 279.0000 1.0000
50.7700 275.0000 1.0000
50.7800 286.0000 1.0000
50.7900 303.0000 1.0000
50.8000 280.0000 1.0000
50.8100 274.0000 1.0000
50.8200 291.0000 1.0000
50.8300 285.0000 1.0000
50.8400 276.0000 1.0000
50.8500 271.0000 1.0000
50.8600 299.0000 1.0000
50.8700 262.0000 1.0000
50.8800 278.0000 1.0000
50.8900 285.0000 1.0000
50.9000 277.0000 1.0000
50.9100 285.0000 1.0000
50.9200 270.0000 1.0000
50.9300 301.0000 1.0000
50.9400 303.0000 1.0000
50.9500 275.0000 1.0000
50.9600 301.0000 1.0000
50.9700 298.0000 1.0000
50.9800 279.0000 1.0000
50.9900 297.0000 1.0000
51.0000 323.0000 1.0000
51.0100 291.0000 1.0000
51.0200 269.0000 1.0000
51.0300 313.0000 1.0000
51.0400 298.0000 1.0000
51.0500 300.0000 1.0000
51.0600 337.0000 1.0000
51.0700 306.0000 1.0000
51.0800 312.0000 1.0000
51.0900 323.0000 1.0000
51.1000 346.0000 1.0000
51.1100 315.0000 1.0000
51.1200 322.0000 1.0000
51.1300 337.0000 1.0000
51.1400 299.0000 1.0000
51.1500 343.0000 1.0000
51.1600 353.0000 1.0000
51.1700 344.0000 1.0000
51.1800 327.0000 1.0000
51.1900 313.0000 1.0000
51.2000 341.0000 1.0000
51.2100 343.0000 1.0000
51.2200 348.0000 1.0000
51.2300 371.0000 1.0000
51.2400 368.0000 1.0000
51.2500 345.0000 1.0000
51.2600 404.0000 1.0000
51.2700 373.0000 1.0000
51.2800 418.0000 1.0000
51.2900 457.0000 1.0000
51.3000 458.0000 1.0000
51.3100 517.0000 1.0000
51.3200 509.0000 1.0000
51.3300 527.0000 1.0000
51.3400 583.0000 1.0000
51.3500 548.0000 1.0000
51.3600 583.0000 1.0000
51.3700 585.0000 1.0000
51.3800 649.0000 1.0000
51.3900 718.0000 1.0000
51.4000 753.0000 1.0000
51.4100 760.0000 1.0000
51.4200 787.0000 1.0000
51.4300 832.0000 1.0000
51.4400 811.0000 1.0000
51.4500 845.0000 1.0000
51.4600 927.0000 1.0000
51.4700 927.0000 1.0000
51.4800 940.0000 1.0000
51.4900 907.0000 1.0000
51.5000 945.0000 1.0000
51.5100 875.0000 1.0000
51.5200 905.0000 1.0000
51.5300 897.0000 1.0000
51.5400 888.0000 1.0000
51.5500 863.0000 1.0000
51.5600 816.0000 1.0000
51.5700 851.0000 1.0000
51.5800 772.0000 1.0000
51.5900 790.0000 1.0000
51.6000 773.0000 1.0000
51.6100 762.0000 1.0000
51.6200 735.0000 1.0000
51.6300 658.0000 1.0000
51.6400 663.0000 1.0000
51.6500 667.0000 1.0000
51.6600 584.0000 1.0000
51.6700 541.0000 1.0000
51.6800 571.0000 1.0000
51.6900 562.0000 1.0000
51.7000 505.0000 1.0000
51.7100 493.0000 1.0000
51.7200 474.0000 1.0000
51.7300 447.0000 1.0000
51.7400 449.0000 1.0000
51.7500 454.0000 1.0000
51.7600 421.0000 1.0000
51.7700 372.0000 1.0000
51.7800 400.0000 1.0000
51.7900 423.0000 1.0000
51.8000 384.0000 1.0000
51.8100 369.0000 1.0000
51.8200 372.0000 1.0000
51.8300 384.0000 1.0000
51.8400 374.0000 1.0000
51.8500 338.0000 1.0000
51.8600 330.0000 1.0000
51.8700 358.0000 1.0000
51.8800 347.0000 1.0000
51.8900 295.0000 1.0000
51.9000 316.0000 1.0000
51.9100 332.0000 1.0000
51.9200 335.0000 1.0000
51.9300 345.0000 1.0000
51.9400 351.0000 1.0000
51.9500 329.0000 1.0000
51.9600 298.0000 1.0000
51.9700 296.0000 1.0000
51.9800 288.0000 1.0000
51.9900 311.0000 1.0000
52.0000 326.0000 1.0000
52.0100 318.0000 1.0000
52.0200 287.0000 1.0000
52.0300 317.0000 1.0000
52.0400 304.0000 1.0000
52.0500 298.0000 1.0000
52.0600 298.0000 1.0000
52.0700 304.0000 1.0000
52.0800 282.0000 1.0000
52.0900 295.0000 1.0000
52.1000 280.0000 1.0000
52.1100 293.0000 1.0000
52.1200 272.0000 1.0000
52.1300 277.0000 1.0000
52.1400 315.0000 1.0000
52.1500 286.0000 1.0000
52.1600 272.0000 1.0000
52.1700 289.0000 1.0000
52.1800 279.0000 1.0000
52.1900 271.0000 1.0000
52.2000 256.0000 1.0000
52.2100 249.0000 1.0000
52.2200 269.0000 1.0000
52.2300 294.0000 1.0000
52.2400 301.0000 1.0000
52.2500 281.0000 1.0000
52.2600 291.0000 1.0000
52.2700 291.0000 1.0000
52.2800 243.0000 1.0000
52.2900 249.0000 1.0000
52.3000 272.0000 1.0000
52.3100 267.0000 1.0000
52.3200 287.0000 1.0000
52.3300 293.0000 1.0000
52.3400 262.0000 1.0000
52.3500 262.0000 1.0000
52.3600 277.0000 1.0000
52.3700 249.0000 1.0000
52.3800 261.0000 1.0000
52.3900 274.0000 1.0000
52.4000 264.0000 1.0000
52.4100 259.0000 1.0000
52.4200 262.0000 1.0000
52.4300 278.0000 1.0000
52.4400 255.0000 1.0000
52.4500 258.0000 1.0000
52.4600 268.0000 1.0000
52.4700 264.0000 1.0000
52.4800 285.0000 1.0000
52.4900 281.0000 1.0000
52.5000 278.0000 1.0000
52.5100 266.0000 1.0000
52.5200 282.0000 1.0000
52.5300 272.0000 1.0000
52.5400 277.0000 1.0000
52.5500 268.0000 1.0000
52.5600 285.0000 1.0000
52.5700 268.0000 1.0000
52.5800 248.0000 1.0000
52.5900 278.0000 1.0000
52.6000 268.0000 1.0000
52.6100 261.0000 1.0000
52.6200 252.0000 1.0000
52.6300 269.0000 1.0000
52.6400 297.0000 1.0000
52.6500 257.0000 1.0000
52.6600 258.0000 1.0000
52.6700 281.0000 1.0000
52.6800 258.0000 1.0000
52.6900 269.0000 1.0000
52.7000 246.0000 1.0000
52.7100 281.0000 1.0000
52.7200 308.0000 1.0000
52.7300 283.0000 1.0000
52.7400 272.0000 1.0000
52.7500 266.0000 1.0000
52.7600 242.0000 1.0000
52.7700 276.0000 1.0000
52.7800 265.0000 1.0000
52.7900 257.0000 1.0000
52.8000 262.0000 1.0000
52.8100 234.0000 1.0000
52.8200 265.0000 1.0000
52.8300 279.0000 1.0000
52.8400 268.0000 1.0000
52.8500 277.0000 1.0000
52.8600 277.0000 1.0000
52.8700 252.0000 1.0000
52.8800 244.0000 1.0000
52.8900 240.0000 1.0000
52.9000 245.0000 1.0000
52.9100 252.0000 1.0000
52.9200 268.0000 1.0000
52.9300 288.0000 1.0000
52.9400 269.0000 1.0000
52.9500 275.0000 1.0000
52.9600 254.0000 1.0000
52.9700 233.0000 1.0000
52.9800 244.0000 1.0000
52.9900 243.0000 1.0000
53.0000 262.0000 1.0000
53.0100 265.0000 1.0000
53.0200 256.0000 1.0000
53.0300 283.0000 1.0000
53.0400 253.0000 1.0000
53.0500 254.0000 1.0000
53.0600 287.0000 1.0000
53.0700 262.0000 1.0000
53.0800 259.0000 1.0000
53.0900 274.0000 1.0000
53.1000 256.0000 1.0000
53.1100 256.0000 1.0000
53.1200 241.0000 1.0000
53.1300 248.0000 1.0000
53.1400 286.0000 1.0000
53.1500 277.0000 1.0000
53.1600 278.0000 1.0000
53.1700 272.0000 1.0000
53.1800 265.0000 1.0000
53.1900 229.0000 1.0000
53.2000 256.0000 1.0000
53.2100 254.0000 1.0000
53.2200 251.0000 1.0000
53.2300 272.0000 1.0000
53.2400 280.0000 1.0000
53.2500 263.0000 1.0000
53.2600 238.0000 1.0000
53.2700 247.0000 1.0000
53.2800 259.0000 1.0000
53.2900 268.0000 1.0000
53.3000 274.0000 1.0000
53.3100 274.0000 1.0000
53.3200 255.0000 1.0000
53.3300 256.0000 1.0000
53.3400 248.0000 1.0000
53.3500 284.0000 1.0000
53.3600 253.0000 1.0000
53.3700 259.0000 1.0000
53.3800 249.0000 1.0000
53.3900 275.0000 1.0000
53.4000 266.0000 1.0000
53.4100 258.0000 1.0000
53.4200 286.0000 1.0000
53.4300 262.0000 1.0000
53.4400 233.0000 1.0000
53.4500 263.0000 1.0000
53.4600 263.0000 1.0000
53.4700 261.0000 1.0000
53.4800 243.0000 1.0000
53.4900 273.0000 1.0000
53.5000 270.0000 1.0000
53.5100 270.0000 1.0000
53.5200 265.0000 1.0000
53.5300 266.0000 1.0000
53.5400 259.0000 1.0000
53.5500 262.0000 1.0000
53.5600 274.0000 1.0000
53.5700 264.0000 1.0000
53.5800 226.0000 1.0000
53.5900 251.0000 1.0000
53.6000 261.0000 1.0000
53.6100 231.0000 1.0000
53.6200 262.0000 1.0000
53.6300 283.0000 1.0000
53.6400 259.0000 1.0000
53.6500 274.0000 1.0000
53.6600 249.0000 1.0000
53.6700 259.0000 1.0000
53.6800 249.0000 1.0000
53.6900 268.0000 1.0000
53.7000 263.0000 1.0000
53.7100 261.0000 1.0000
53.7200 255.0000 1.0000
53.7300 259.0000 1.0000
53.7400 287.0000 1.0000
53.7500 273.0000 1.0000
53.7600 289.0000 1.0000
53.7700 272.0000 1.0000
53.7800 282.0000 1.0000
53.7900 313.0000 1.0000
53.8000 278.0000 1.0000
53.8100 299.0000 1.0000
53.8200 289.0000 1.0000
53.8300 276.0000 1.0000
53.8400 311.0000 1.0000
53.8500 305.0000 1.0000
53.8600 283.0000 1.0000
53.8700 256.0000 1.0000
53.8800 318.0000 1.0000
53.8900 284.0000 1.0000
53.9000 290.0000 1.0000
53.9100 302.0000 1.0000
53.9200 296.0000 1.0000
53.9300 307.0000 1.0000
53.9400 281.0000 1.0000
53.9500 286.0000 1.0000
53.9600 311.0000 1.0000
53.9700 313.0000 1.0000
53.9800 292.0000 1.0000
53.9900 343.0000 1.0000
54.0000 310.0000 1.0000
54.0100 327.0000 1.0000
54.0200 338.0000 1.0000
54.0300 315.0000 1.0000
54.0400 303.0000 1.0000
54.0500 325.0000 1.0000
54.0600 330.0000 1.0000
54.0700 315.0000 1.0000
54.0800 300.0000 1.0000
54.0900 345.0000 1.0000
54.1000 317.0000 1.0000
54.1100 321.0000 1.0000
54.1200 306.0000 1.0000
54.1300 302.0000 1.0000
54.1400 309.0000 1.0000
54.1500 298.0000 1.0000
54.1600 310.0000 1.0000
54.1700 326.0000 1.0000
54.1800 297.0000 1.0000
54.1900 313.0000 1.0000
54.2000 289.0000 1.0000
54.2100 318.0000 1.0000
54.2200 281.0000 1.0000
54.2300 291.0000 1.0000
54.2400 281.0000 1.0000
54.2500 290.0000 1.0000
54.2600 305.0000 1.0000
54.2700 326.0000 1.0000
54.2800 312.0000 1.0000
54.2900 304.0000 1.0000
54.3000 297.0000 1.0000
54.3100 299.0000 1.0000
54.3200 312.0000 1.0000
54.3300 309.0000 1.0000
54.3400 296.0000 1.0000
54.3500 290.0000 1.0000
54.3600 304.0000 1.0000
54.3700 313.0000 1.0000
54.3800 304.0000 1.0000
54.3900 348.0000 1.0000
54.4000 321.0000 1.0000
54.4100 310.0000 1.0000
54.4200 311.0000 1.0000
54.4300 308.0000 1.0000
54.4400 335.0000 1.0000
54.4500 325.0000 1.0000
54.4600 318.0000 1.0000
54.4700 290.0000 1.0000
54.4800 316.0000 1.0000
54.4900 303.0000 1.0000
54.5000 340.0000 1.0000
54.5100 322.0000 1.0000
54.5200 304.0000 1.0000
54.5300 300.0000 1.0000
54.5400 320.0000 1.0000
54.5500 336.0000 1.0000
54.5600 317.0000 1.0000
54.5700 337.0000 1.0000
54.5800 320.0000 1.0000
54.5900 330.0000 1.0000
54.6000 328.0000 1.0000
54.6100 310.0000 1.0000
54.6200 293.0000 1.0000
54.6300 318.0000 1.0000
54.6400 282.0000 1.0000
54.6500 324.0000 1.0000
54.6600 299.0000 1.0000
54.6700 291.0000 1.0000
54.6800 308.0000 1.0000
54.6900 310.0000 1.0000
54.7000 300.0000 1.0000
54.7100 332.0000 1.0000
54.7200 300.0000 1.0000
54.7300 300.0000 1.0000
54.7400 302.0000 1.0000
54.7500 295.0000 1.0000
54.7600 296.0000 1.0000
54.7700 312.0000 1.0000
54.7800 307.0000 1.0000
54.7900 275.0000 1.0000
54.8000 248.0000 1.0000
54.8100 284.0000 1.0000
54.8200 265.0000 1.0000
54.8300 242.0000 1.0000
54.8400 291.0000 1.0000
54.8500 274.0000 1.0000
54.8600 281.0000 1.0000
54.8700 290.0000 1.0000
54.8800 262.0000 1.0000
54.8900 283.0000 1.0000
54.9000 257.0000 1.0000
54.9100 275.0000 1.0000
54.9200 255.0000 1.0000
54.9300 259.0000 1.0000
54.9400 275.0000 1.0000
54.9500 276.0000 1.0000
54.9600 271.0000 1.0000
54.9700 264.0000 1.0000
54.9800 271.0000 1.0000
54.9900 278.0000 1.0000
55.0000 261.0000 1.0000
55.0100 269.0000 1.0000
55.0200 244.0000 1.0000
55.0300 267.0000 1.0000
55.0400 275.0000 1.0000
55.0500 253.0000 1.0000
55.0600 240.0000 1.0000
55.0700 265.0000 1.0000
55.0800 285.0000 1.0000
55.0900 278.0000 1.0000
55.1000 265.0000 1.0000
55.1100 268.0000 1.0000
55.1200 281.0000 1.0000
55.1300 288.0000 1.0000
55.1400 290.0000 1.0000
55.1500 269.0000 1.0000
55.1600 260.0000 1.0000
55.1700 261.0000 1.0000
55.1800 264.0000 1.0000
55.1900 243.0000 1.0000
55.2000 280.0000 1.0000
55.2100 250.0000 1.0000
55.2200 248.0000 1.0000
55.2300 263.0000 1.0000
55.2400 259.0000 1.0000
55.2500 233.0000 1.0000
55.2600 271.0000 1.0000
55.2700 254.0000 1.0000
55.2800 238.0000 1.0000
55.2900 266.0000 1.0000
55.3000 271.0000 1.0000
55.3100 258.0000 1.0000
55.3200 265.0000 1.0000
55.3300 269.0000 1.0000
55.3400 259.0000 1.0000
55.3500 262.0000 1.0000
55.3600 268.0000 1.0000
55.3700 261.0000 1.0000
55.3800 267.0000 1.0000
55.3900 251.0000 1.0000
55.4000 263.0000 1.0000
55.4100 264.0000 1.0000
55.4200 275.0000 1.0000
55.4300 263.0000 1.0000
55.4400 239.0000 1.0000
55.4500 241.0000 1.0000
55.4600 246.0000 1.0000
55.4700 260.0000 1.0000
55.4800 259.0000 1.0000
55.4900 237.0000 1.0000
55.5000 230.0000 1.0000
55.5100 227.0000 1.0000
55.5200 251.0000 1.0000
55.5300 251.0000 1.0000
55.5400 252.0000 1.0000
55.5500 250.0000 1.0000
55.5600 269.0000 1.0000
55.5700 261.0000 1.0000
55.5800 243.0000 1.0000
55.5900 248.0000 1.0000
55.6000 262.0000 1.0000
55.6100 243.0000 1.0000
55.6200 259.0000 1.0000
55.6300 249.0000 1.0000
55.6400 250.0000 1.0000
55.6500 274.0000 1.0000
55.6600 240.0000 1.0000
55.6700 272.0000 1.0000
55.6800 254.0000 1.0000
55.6900 258.0000 1.0000
55.7000 273.0000 1.0000
55.7100 246.0000 1.0000
55.7200 225.0000 1.0000
55.7300 253.0000 1.0000
55.7400 276.0000 1.0000
55.7500 234.0000 1.0000
55.7600 251.0000 1.0000
55.7700 265.0000 1.0000
55.7800 243.0000 1.0000
55.7900 273.0000 1.0000
55.8000 262.0000 1.0000
55.8100 261.0000 1.0000
55.8200 270.0000 1.0000
55.8300 257.0000 1.0000
55.8400 264.0000 1.0000
55.8500 281.0000 1.0000
55.8600 244.0000 1.0000
55.8700 234.0000 1.0000
55.8800 268.0000 1.0000
55.8900 251.0000 1.0000
55.9000 265.0000 1.0000
55.9100 252.0000 1.0000
55.9200 258.0000 1.0000
55.9300 230.0000 1.0000
55.9400 237.0000 1.0000
55.9500 251.0000 1.0000
55.9600 225.0000 1.0000
55.9700 251.0000 1.0000
55.9800 250.0000 1.0000
55.9900 251.0000 1.0000
56.0000 219.0000 1.0000
56.0100 252.0000 1.0000
56.0200 244.0000 1.0000
56.0300 244.0000 1.0000
56.0400 252.0000 1.0000
56.0500 245.0000 1.0000
56.0600 284.0000 1.0000
56.0700 276.0000 1.0000
56.0800 244.0000 1.0000
56.0900 247.0000 1.0000
56.1000 254.0000 1.0000
56.1100 283.0000 1.0000
56.1200 261.0000 1.0000
56.1300 251.0000 1.0000
56.1400 251.0000 1.0000
56.1500 255.0000 1.0000
56.1600 264.0000 1.0000
56.1700 256.0000 1.0000
56.1800 251.0000 1.0000
56.1900 260.0000 1.0000
56.2000 258.0000 1.0000
56.2100 253.0000 1.0000
56.2200 264.0000 1.0000
56.2300 260.0000 1.0000
56.2400 253.0000 1.0000
56.2500 267.0000 1.0000
56.2600 266.0000 1.0000
56.2700 242.0000 1.0000
56.2800 261.0000 1.0000
56.2900 242.0000 1.0000
56.3000 250.0000 1.0000
56.3100 258.0000 1.0000
56.3200 254.0000 1.0000
56.3300 270.0000 1.0000
56.3400 233.0000 1.0000
56.3500 249.0000 1.0000
56.3600 245.0000 1.0000
56.3700 253.0000 1.0000
56.3800 249.0000 1.0000
56.3900 235.0000 1.0000
56.4000 263.0000 1.0000
56.4100 242.0000 1.0000
56.4200 266.0000 1.0000
56.4300 249.0000 1.0000
56.4400 258.0000 1.0000
56.4500 227.0000 1.0000
56.4600 237.0000 1.0000
56.4700 259.0000 1.0000
56.4800 276.0000 1.0000
56.4900 258.0000 1.0000
56.5000 235.0000 1.0000
56.5100 277.0000 1.0000
56.5200 258.0000 1.0000
56.5300 233.0000 1.0000
56.5400 243.0000 1.0000
56.5500 227.0000 1.0000
56.5600 227.0000 1.0000
56.5700 265.0000 1.0000
56.5800 270.0000 1.0000
56.5900 259.0000 1.0000
56.6000 234.0000 1.0000
56.6100 238.0000 1.0000
56.6200 248.0000 1.0000
56.6300 251.0000 1.0000
56.6400 236.0000 1.0000
56.6500 236.0000 1.0000
56.6600 260.0000 1.0000
56.6700 267.0000 1.0000
56.6800 251.0000 1.0000
56.6900 261.0000 1.0000
56.7000 255.0000 1.0000
56.7100 251.0000 1.0000
56.7200 248.0000 1.0000
56.7300 246.0000 1.0000
56.7400 236.0000 1.0000
56.7500 234.0000 1.0000
56.7600 248.0000 1.0000
56.7700 259.0000 1.0000
56.7800 255.0000 1.0000
56.7900 264.0000 1.0000
56.8000 252.0000 1.0000
56.8100 249.0000 1.0000
56.8200 235.0000 1.0000
56.8300 231.0000 1.0000
56.8400 248.0000 1.0000
56.8500 263.0000 1.0000
56.8600 244.0000 1.0000
56.8700 223.0000 1.0000
56.8800 244.0000 1.0000
56.8900 249.0000 1.0000
56.9000 241.0000 1.0000
56.9100 249.0000 1.0000
56.9200 243.0000 1.0000
56.9300 213.0000 1.0000
56.9400 245.0000 1.0000
56.9500 261.0000 1.0000
56.9600 277.0000 1.0000
56.9700 242.0000 1.0000
56.9800 252.0000 1.0000
56.9900 282.0000 1.0000
57.0000 252.0000 1.0000
57.0100 255.0000 1.0000
57.0200 264.0000 1.0000
57.0300 264.0000 1.0000
57.0400 252.0000 1.0000
57.0500 248.0000 1.0000
57.0600 253.0000 1.0000
57.0700 242.0000 1.0000
57.0800 262.0000 1.0000
57.0900 262.0000 1.0000
57.1000 244.0000 1.0000
57.1100 236.0000 1.0000
57.1200 252.0000 1.0000
57.1300 240.0000 1.0000
57.1400 243.0000 1.0000
57.1500 239.0000 1.0000
57.1600 229.0000 1.0000
57.1700 241.0000 1.0000
57.1800 235.0000 1.0000
57.1900 254.0000 1.0000
57.2000 246.0000 1.0000
57.2100 250.0000 1.0000
57.2200 244.0000 1.0000
57.2300 258.0000 1.0000
57.2400 254.0000 1.0000
57.2500 250.0000 1.0000
57.2600 257.0000 1.0000
57.2700 247.0000 1.0000
57.2800 244.0000 1.0000
57.2900 257.0000 1.0000
57.3000 273.0000 1.0000
57.3100 258.0000 1.0000
57.3200 254.0000 1.0000
57.3300 253.0000 1.0000
57.3400 235.0000 1.0000
57.3500 241.0000 1.0000
57.3600 257.0000 1.0000
57.3700 248.0000 1.0000
57.3800 262.0000 1.0000
57.3900 274.0000 1.0000
57.4000 288.0000 1.0000
57.4100 259.0000 1.0000
57.4200 247.0000 1.0000
57.4300 273.0000 1.0000
57.4400 238.0000 1.0000
57.4500 250.0000 1.0000
57.4600 252.0000 1.0000
57.4700 245.0000 1.0000
57.4800 235.0000 1.0000
57.4900 271.0000 1.0000
57.5000 246.0000 1.0000
57.5100 257.0000 1.0000
57.5200 247.0000 1.0000
57.5300 257.0000 1.0000
57.5400 280.0000 1.0000
57.5500 257.0000 1.0000
57.5600 230.0000 1.0000
57.5700 285.0000 1.0000
57.5800 242.0000 1.0000
57.5900 241.0000 1.0000
57.6000 263.0000 1.0000
57.6100 264.0000 1.0000
57.6200 229.0000 1.0000
57.6300 247.0000 1.0000
57.6400 255.0000 1.0000
57.6500 237.0000 1.0000
57.6600 238.0000 1.0000
57.6700 251.0000 1.0000
57.6800 249.0000 1.0000
57.6900 258.0000 1.0000
57.7000 278.0000 1.0000
57.7100 247.0000 1.0000
57.7200 261.0000 1.0000
57.7300 257.0000 1.0000
57.7400 218.0000 1.0000
57.7500 232.0000 1.0000
57.7600 244.0000 1.0000
57.7700 214.0000 1.0000
57.7800 237.0000 1.0000
57.7900 240.0000 1.0000
57.8000 230.0000 1.0000
57.8100 252.0000 1.0000
57.8200 258.0000 1.0000
57.8300 251.0000 1.0000
57.8400 242.0000 1.0000
57.8500 241.0000 1.0000
57.8600 234.0000 1.0000
57.8700 242.0000 1.0000
57.8800 258.0000 1.0000
57.8900 260.0000 1.0000
57.9000 280.0000 1.0000
57.9100 250.0000 1.0000
57.9200 250.0000 1.0000
57.9300 271.0000 1.0000
57.9400 260.0000 1.0000
57.9500 249.0000 1.0000
57.9600 249.0000 1.0000
57.9700 268.0000 1.0000
57.9800 255.0000 1.0000
57.9900 249.0000 1.0000
58.0000 269.0000 1.0000
58.0100 254.0000 1.0000
58.0200 235.0000 1.0000
58.0300 264.0000 1.0000
58.0400 236.0000 1.0000
58.0500 223.0000 1.0000
58.0600 259.0000 1.0000
58.0700 236.0000 1.0000
58.0800 255.0000 1.0000
58.0900 247.0000 1.0000
58.1000 265.0000 1.0000
58.1100 252.0000 1.0000
58.1200 246.0000 1.0000
58.1300 245.0000 1.0000
58.1400 251.0000 1.0000
58.1500 257.0000 1.0000
58.1600 268.0000 1.0000
58.1700 250.0000 1.0000
58.1800 245.0000 1.0000
58.1900 267.0000 1.0000
58.2000 264.0000 1.0000
58.2100 269.0000 1.0000
58.2200 260.0000 1.0000
58.2300 246.0000 1.0000
58.2400 242.0000 1.0000
58.2500 256.0000 1.0000
58.2600 267.0000 1.0000
58.2700 268.0000 1.0000
58.2800 262.0000 1.0000
58.2900 246.0000 1.0000
58.3000 237.0000 1.0000
58.3100 260.0000 1.0000
58.3200 268.0000 1.0000
58.3300 252.0000 1.0000
58.3400 261.0000 1.0000
58.3500 266.0000 1.0000
58.3600 239.0000 1.0000
58.3700 260.0000 1.0000
58.3800 236.0000 1.0000
58.3900 266.0000 1.0000
58.4000 238.0000 1.0000
58.4100 246.0000 1.0000
58.4200 249.0000 1.0000
58.4300 287.0000 1.0000
58.4400 294.0000 1.0000
58.4500 276.0000 1.0000
58.4600 244.0000 1.0000
58.4700 237.0000 1.0000
58.4800 263.0000 1.0000
58.4900 292.0000 1.0000
58.5000 252.0000 1.0000
58.5100 253.0000 1.0000
58.5200 249.0000 1.0000
58.5300 248.0000 1.0000
58.5400 284.0000 1.0000
58.5500 242.0000 1.0000
58.5600 261.0000 1.0000
58.5700 261.0000 1.0000
58.5800 245.0000 1.0000
58.5900 256.0000 1.0000
58.6000 271.0000 1.0000
58.6100 253.0000 1.0000
58.6200 240.0000 1.0000
58.6300 267.0000 1.0000
58.6400 238.0000 1.0000
58.6500 250.0000 1.0000
58.6600 263.0000 1.0000
58.6700 255.0000 1.0000
58.6800 243.0000 1.0000
58.6900 258.0000 1.0000
58.7000 264.0000 1.0000
58.7100 255.0000 1.0000
58.7200 242.0000 1.0000
58.7300 246.0000 1.0000
58.7400 256.0000 1.0000
58.7500 219.0000 1.0000
58.7600 247.0000 1.0000
58.7700 225.0000 1.0000
58.7800 248.0000 1.0000
58.7900 236.0000 1.0000
58.8000 252.0000 1.0000
58.8100 236.0000 1.0000
58.8200 239.0000 1.0000
58.8300 245.0000 1.0000
58.8400 253.0000 1.0000
58.8500 238.0000 1.0000
58.8600 241.0000 1.0000
58.8700 243.0000 1.0000
58.8800 255.0000 1.0000
58.8900 240.0000 1.0000
58.9000 228.0000 1.0000
58.9100 229.0000 1.0000
58.9200 248.0000 1.0000
58.9300 240.0000 1.0000
58.9400 241.0000 1.0000
58.9500 255.0000 1.0000
58.9600 257.0000 1.0000
58.9700 228.0000 1.0000
58.9800 224.0000 1.0000
58.9900 257.0000 1.0000
59.0000 244.0000 1.0000
59.0100 249.0000 1.0000
59.0200 264.0000 1.0000
59.0300 271.0000 1.0000
59.0400 237.0000 1.0000
59.0500 250.0000 1.0000
59.0600 228.0000 1.0000
59.0700 239.0000 1.0000
59.0800 244.0000 1.0000
59.0900 256.0000 1.0000
59.1000 245.0000 1.0000
59.1100 234.0000 1.0000
59.1200 253.0000 1.0000
59.1300 231.0000 1.0000
59.1400 247.0000 1.0000
59.1500 262.0000 1.0000
59.1600 215.0000 1.0000
59.1700 234.0000 1.0000
59.1800 252.0000 1.0000
59.1900 261.0000 1.0000
59.2000 221.0000 1.0000
59.2100 237.0000 1.0000
59.2200 235.0000 1.0000
59.2300 230.0000 1.0000
59.2400 252.0000 1.0000
59.2500 251.0000 1.0000
59.2600 275.0000 1.0000
59.2700 241.0000 1.0000
59.2800 249.0000 1.0000
59.2900 263.0000 1.0000
59.3000 224.0000 1.0000
59.3100 224.0000 1.0000
59.3200 249.0000 1.0000
59.3300 282.0000 1.0000
59.3400 257.0000 1.0000
59.3500 279.0000 1.0000
59.3600 239.0000 1.0000
59.3700 238.0000 1.0000
59.3800 285.0000 1.0000
59.3900 245.0000 1.0000
59.4000 265.0000 1.0000
59.4100 247.0000 1.0000
59.4200 215.0000 1.0000
59.4300 260.0000 1.0000
59.4400 256.0000 1.0000
59.4500 233.0000 1.0000
59.4600 256.0000 1.0000
59.4700 238.0000 1.0000
59.4800 233.0000 1.0000
59.4900 269.0000 1.0000
59.5000 244.0000 1.0000
59.5100 247.0000 1.0000
59.5200 271.0000 1.0000
59.5300 249.0000 1.0000
59.5400 248.0000 1.0000
59.5500 245.0000 1.0000
59.5600 253.0000 1.0000
59.5700 268.0000 1.0000
59.5800 272.0000 1.0000
59.5900 228.0000 1.0000
59.6000 231.0000 1.0000
59.6100 243.0000 1.0000
59.6200 246.0000 1.0000
59.6300 256.0000 1.0000
59.6400 243.0000 1.0000
59.6500 250.0000 1.0000
59.6600 249.0000 1.0000
59.6700 250.0000 1.0000
59.6800 232.0000 1.0000
59.6900 239.0000 1.0000
59.7000 251.0000 1.0000
59.7100 269.0000 1.0000
59.7200 260.0000 1.0000
59.7300 253.0000 1.0000
59.7400 235.0000 1.0000
59.7500 244.0000 1.0000
59.7600 253.0000 1.0000
59.7700 268.0000 1.0000
59.7800 240.0000 1.0000
59.7900 244.0000 1.0000
59.8000 257.0000 1.0000
59.8100 246.0000 1.0000
59.8200 239.0000 1.0000
59.8300 247.0000 1.0000
59.8400 246.0000 1.0000
59.8500 288.0000 1.0000
59.8600 245.0000 1.0000
59.8700 254.0000 1.0000
59.8800 251.0000 1.0000
59.8900 268.0000 1.0000
59.9000 271.0000 1.0000
59.9100 277.0000 1.0000
59.9200 259.0000 1.0000
59.9300 262.0000 1.0000
59.9400 258.0000 1.0000
59.9500 256.0000 1.0000
59.9600 249.0000 1.0000
59.9700 242.0000 1.0000
59.9800 248.0000 1.0000
59.9900 263.0000 1.0000
60.0000 263.0000 1.0000
60.0100 265.0000 1.0000
60.0200 247.0000 1.0000
60.0300 228.0000 1.0000
60.0400 220.0000 1.0000
60.0500 253.0000 1.0000
60.0600 247.0000 1.0000
60.0700 258.0000 1.0000
60.0800 245.0000 1.0000
60.0900 244.0000 1.0000
60.1000 263.0000 1.0000
60.1100 241.0000 1.0000
60.1200 210.0000 1.0000
60.1300 233.0000 1.0000
60.1400 252.0000 1.0000
60.1500 254.0000 1.0000
60.1600 244.0000 1.0000
60.1700 255.0000 1.0000
60.1800 250.0000 1.0000
60.1900 249.0000 1.0000
60.2000 252.0000 1.0000
60.2100 245.0000 1.0000
60.2200 291.0000 1.0000
60.2300 258.0000 1.0000
60.2400 274.0000 1.0000
60.2500 274.0000 1.0000
60.2600 261.0000 1.0000
60.2700 245.0000 1.0000
60.2800 263.0000 1.0000
60.2900 227.0000 1.0000
60.3000 253.0000 1.0000
60.3100 256.0000 1.0000
60.3200 245.0000 1.0000
60.3300 252.0000 1.0000
60.3400 245.0000 1.0000
60.3500 252.0000 1.0000
60.3600 269.0000 1.0000
60.3700 243.0000 1.0000
60.3800 242.0000 1.0000
60.3900 273.0000 1.0000
60.4000 270.0000 1.0000
60.4100 260.0000 1.0000
60.4200 262.0000 1.0000
60.4300 265.0000 1.0000
60.4400 282.0000 1.0000
60.4500 258.0000 1.0000
60.4600 243.0000 1.0000
60.4700 258.0000 1.0000
60.4800 248.0000 1.0000
60.4900 250.0000 1.0000
60.5000 234.0000 1.0000
60.5100 256.0000 1.0000
60.5200 265.0000 1.0000
60.5300 245.0000 1.0000
60.5400 250.0000 1.0000
60.5500 235.0000 1.0000
60.5600 245.0000 1.0000
60.5700 249.0000 1.0000
60.5800 267.0000 1.0000
60.5900 264.0000 1.0000
60.6000 248.0000 1.0000
60.6100 264.0000 1.0000
60.6200 257.0000 1.0000
60.6300 243.0000 1.0000
60.6400 265.0000 1.0000
60.6500 247.0000 1.0000
60.6600 229.0000 1.0000
60.6700 249.0000 1.0000
60.6800 258.0000 1.0000
60.6900 268.0000 1.0000
60.7000 256.0000 1.0000
60.7100 273.0000 1.0000
60.7200 260.0000 1.0000
60.7300 253.0000 1.0000
60.7400 254.0000 1.0000
60.7500 274.0000 1.0000
60.7600 286.0000 1.0000
60.7700 263.0000 1.0000
60.7800 274.0000 1.0000
60.7900 251.0000 1.0000
60.8000 243.0000 1.0000
60.8100 241.0000 1.0000
60.8200 277.0000 1.0000
60.8300 236.0000 1.0000
60.8400 248.0000 1.0000
60.8500 251.0000 1.0000
60.8600 265.0000 1.0000
60.8700 261.0000 1.0000
60.8800 270.0000 1.0000
60.8900 268.0000 1.0000
60.9000 256.0000 1.0000
60.9100 274.0000 1.0000
60.9200 286.0000 1.0000
60.9300 267.0000 1.0000
60.9400 231.0000 1.0000
60.9500 259.0000 1.0000
60.9600 276.0000 1.0000
60.9700 243.0000 1.0000
60.9800 282.0000 1.0000
60.9900 300.0000 1.0000
61.0000 272.0000 1.0000
61.0100 259.0000 1.0000
61.0200 286.0000 1.0000
61.0300 260.0000 1.0000
61.0400 253.0000 1.0000
61.0500 293.0000 1.0000
61.0600 296.0000 1.0000
61.0700 286.0000 1.0000
61.0800 275.0000 1.0000
61.0900 263.0000 1.0000
61.1000 254.0000 1.0000
61.1100 289.0000 1.0000
61.1200 292.0000 1.0000
61.1300 297.0000 1.0000
61.1400 272.0000 1.0000
61.1500 295.0000 1.0000
61.1600 298.0000 1.0000
61.1700 308.0000 1.0000
61.1800 294.0000 1.0000
61.1900 303.0000 1.0000
61.2000 309.0000 1.0000
61.2100 302.0000 1.0000
61.2200 328.0000 1.0000
61.2300 307.0000 1.0000
61.2400 322.0000 1.0000
61.2500 305.0000 1.0000
61.2600 347.0000 1.0000
61.2700 332.0000 1.0000
61.2800 299.0000 1.0000
61.2900 319.0000 1.0000
61.3000 349.0000 1.0000
61.3100 353.0000 1.0000
61.3200 355.0000 1.0000
61.3300 335.0000 1.0000
61.3400 370.0000 1.0000
61.3500 384.0000 1.0000
61.3600 377.0000 1.0000
61.3700 410.0000 1.0000
61.3800 376.0000 1.0000
61.3900 422.0000 1.0000
61.4000 420.0000 1.0000
61.4100 388.0000 1.0000
61.4200 379.0000 1.0000
61.4300 430.0000 1.0000
61.4400 501.0000 1.0000
61.4500 444.0000 1.0000
61.4600 485.0000 1.0000
61.4700 453.0000 1.0000
61.4800 437.0000 1.0000
61.4900 507.0000 1.0000
61.5000 500.0000 1.0000
61.5100 523.0000 1.0000
61.5200 543.0000 1.0000
61.5300 567.0000 1.0000
61.5400 521.0000 1.0000
61.5500 498.0000 1.0000
61.5600 509.0000 1.0000
61.5700 559.0000 1.0000
61.5800 509.0000 1.0000
61.5900 502.0000 1.0000
61.6000 555.0000 1.0000
61.6100 518.0000 1.0000
61.6200 543.0000 1.0000
61.6300 502.0000 1.0000
61.6400 493.0000 1.0000
61.6500 521.0000 1.0000
61.6600 506.0000 1.0000
61.6700 510.0000 1.0000
61.6800 533.0000 1.0000
61.6900 486.0000 1.0000
61.7000 483.0000 1.0000
61.7100 461.0000 1.0000
61.7200 475.0000 1.0000
61.7300 455.0000 1.0000
61.7400 484.0000 1.0000
61.7500 435.0000 1.0000
61.7600 465.0000 1.0000
61.7700 454.0000 1.0000
61.7800 466.0000 1.0000
61.7900 426.0000 1.0000
61.8000 436.0000 1.0000
61.8100 449.0000 1.0000
61.8200 438.0000 1.0000
61.8300 420.0000 1.0000
61.8400 401.0000 1.0000
61.8500 411.0000 1.0000
61.8600 363.0000 1.0000
61.8700 378.0000 1.0000
61.8800 377.0000 1.0000
61.8900 393.0000 1.0000
61.9000 386.0000 1.0000
61.9100 361.0000 1.0000
61.9200 382.0000 1.0000
61.9300 364.0000 1.0000
61.9400 339.0000 1.0000
61.9500 340.0000 1.0000
61.9600 335.0000 1.0000
61.9700 333.0000 1.0000
61.9800 322.0000 1.0000
61.9900 337.0000 1.0000
62.0000 368.0000 1.0000
62.0100 347.0000 1.0000
62.0200 332.0000 1.0000
62.0300 320.0000 1.0000
62.0400 326.0000 1.0000
62.0500 313.0000 1.0000
62.0600 310.0000 1.0000
62.0700 323.0000 1.0000
62.0800 308.0000 1.0000
62.0900 307.0000 1.0000
62.1000 329.0000 1.0000
62.1100 305.0000 1.0000
62.1200 314.0000 1.0000
62.1300 291.0000 1.0000
62.1400 338.0000 1.0000
62.1500 289.0000 1.0000
62.1600 301.0000 1.0000
62.1700 289.0000 1.0000
62.1800 281.0000 1.0000
62.1900 326.0000 1.0000
62.2000 284.0000 1.0000
62.2100 298.0000 1.0000
62.2200 292.0000 1.0000
62.2300 266.0000 1.0000
62.2400 292.0000 1.0000
62.2500 253.0000 1.0000
62.2600 282.0000 1.0000
62.2700 301.0000 1.0000
62.2800 301.0000 1.0000
62.2900 291.0000 1.0000
62.3000 303.0000 1.0000
62.3100 311.0000 1.0000
62.3200 283.0000 1.0000
62.3300 303.0000 1.0000
62.3400 297.0000 1.0000
62.3500 283.0000 1.0000
62.3600 311.0000 1.0000
62.3700 306.0000 1.0000
62.3800 310.0000 1.0000
62.3900 298.0000 1.0000
62.4000 296.0000 1.0000
62.4100 293.0000 1.0000
62.4200 305.0000 1.0000
62.4300 286.0000 1.0000
62.4400 284.0000 1.0000
62.4500 285.0000 1.0000
62.4600 311.0000 1.0000
62.4700 264.0000 1.0000
62.4800 280.0000 1.0000
62.4900 282.0000 1.0000
62.5000 268.0000 1.0000
62.5100 291.0000 1.0000
62.5200 250.0000 1.0000
62.5300 300.0000 1.0000
62.5400 306.0000 1.0000
62.5500 295.0000 1.0000
62.5600 288.0000 1.0000
62.5700 289.0000 1.0000
62.5800 277.0000 1.0000
62.5900 290.0000 1.0000
62.6000 288.0000 1.0000
62.6100 282.0000 1.0000
62.6200 256.0000 1.0000
62.6300 272.0000 1.0000
62.6400 266.0000 1.0000
62.6500 260.0000 1.0000
62.6600 274.0000 1.0000
62.6700 293.0000 1.0000
62.6800 272.0000 1.0000
62.6900 246.0000 1.0000
62.7000 266.0000 1.0000
62.7100 257.0000 1.0000
62.7200 259.0000 1.0000
62.7300 254.0000 1.0000
62.7400 247.0000 1.0000
62.7500 267.0000 1.0000
62.7600 243.0000 1.0000
62.7700 269.0000 1.0000
62.7800 258.0000 1.0000
62.7900 257.0000 1.0000
62.8000 271.0000 1.0000
62.8100 258.0000 1.0000
62.8200 247.0000 1.0000
62.8300 254.0000 1.0000
62.8400 268.0000 1.0000
62.8500 263.0000 1.0000
62.8600 226.0000 1.0000
62.8700 257.0000 1.0000
62.8800 259.0000 1.0000
62.8900 244.0000 1.0000
62.9000 259.0000 1.0000
62.9100 247.0000 1.0000
62.9200 277.0000 1.0000
62.9300 254.0000 1.0000
62.9400 226.0000 1.0000
62.9500 249.0000 1.0000
62.9600 251.0000 1.0000
62.9700 241.0000 1.0000
62.9800 262.0000 1.0000
62.9900 255.0000 1.0000
63.0000 254.0000 1.0000
63.0100 221.0000 1.0000
63.0200 249.0000 1.0000
63.0300 238.0000 1.0000
63.0400 262.0000 1.0000
63.0500 249.0000 1.0000
63.0600 263.0000 1.0000
63.0700 244.0000 1.0000
63.0800 259.0000 1.0000
63.0900 290.0000 1.0000
63.1000 249.0000 1.0000
63.1100 244.0000 1.0000
63.1200 240.0000 1.0000
63.1300 271.0000 1.0000
63.1400 252.0000 1.0000
63.1500 225.0000 1.0000
63.1600 245.0000 1.0000
63.1700 257.0000 1.0000
63.1800 251.0000 1.0000
63.1900 275.0000 1.0000
63.2000 253.0000 1.0000
63.2100 265.0000 1.0000
63.2200 256.0000 1.0000
63.2300 269.0000 1.0000
63.2400 256.0000 1.0000
63.2500 265.0000 1.0000
63.2600 233.0000 1.0000
63.2700 253.0000 1.0000
63.2800 265.0000 1.0000
63.2900 247.0000 1.0000
63.3000 250.0000 1.0000
63.3100 238.0000 1.0000
63.3200 269.0000 1.0000
63.3300 254.0000 1.0000
63.3400 241.0000 1.0000
63.3500 262.0000 1.0000
63.3600 253.0000 1.0000
63.3700 243.0000 1.0000
63.3800 272.0000 1.0000
63.3900 242.0000 1.0000
63.4000 249.0000 1.0000
63.4100 253.0000 1.0000
63.4200 268.0000 1.0000
63.4300 249.0000 1.0000
63.4400 250.0000 1.0000
63.4500 256.0000 1.0000
63.4600 270.0000 1.0000
63.4700 260.0000 1.0000
63.4800 257.0000 1.0000
63.4900 276.0000 1.0000
63.5000 234.0000 1.0000
63.5100 254.0000 1.0000
63.5200 257.0000 1.0000
63.5300 238.0000 1.0000
63.5400 223.0000 1.0000
63.5500 236.0000 1.0000
63.5600 246.0000 1.0000
63.5700 236.0000 1.0000
63.5800 264.0000 1.0000
63.5900 264.0000 1.0000
63.6000 253.0000 1.0000
63.6100 243.0000 1.0000
63.6200 251.0000 1.0000
63.6300 247.0000 1.0000
63.6400 230.0000 1.0000
63.6500 255.0000 1.0000
63.6600 272.0000 1.0000
63.6700 251.0000 1.0000
63.6800 239.0000 1.0000
63.6900 253.0000 1.0000
63.7000 282.0000 1.0000
63.7100 279.0000 1.0000
63.7200 275.0000 1.0000
63.7300 287.0000 1.0000
63.7400 263.0000 1.0000
63.7500 228.0000 1.0000
63.7600 263.0000 1.0000
63.7700 261.0000 1.0000
63.7800 253.0000 1.0000
63.7900 261.0000 1.0000
63.8000 259.0000 1.0000
63.8100 274.0000 1.0000
63.8200 292.0000 1.0000
63.8300 274.0000 1.0000
63.8400 283.0000 1.0000
63.8500 308.0000 1.0000
63.8600 308.0000 1.0000
63.8700 275.0000 1.0000
63.8800 263.0000 1.0000
63.8900 299.0000 1.0000
63.9000 269.0000 1.0000
63.9100 309.0000 1.0000
63.9200 278.0000 1.0000
63.9300 295.0000 1.0000
63.9400 293.0000 1.0000
63.9500 305.0000 1.0000
63.9600 297.0000 1.0000
63.9700 265.0000 1.0000
63.9800 285.0000 1.0000
63.9900 318.0000 1.0000
64.0000 296.0000 1.0000
64.0100 317.0000 1.0000
64.0200 315.0000 1.0000
64.0300 279.0000 1.0000
64.0400 291.0000 1.0000
64.0500 281.0000 1.0000
64.0600 298.0000 1.0000
64.0700 292.0000 1.0000
64.0800 321.0000 1.0000
64.0900 296.0000 1.0000
64.1000 296.0000 1.0000
64.1100 291.0000 1.0000
64.1200 287.0000 1.0000
64.1300 278.0000 1.0000
64.1400 270.0000 1.0000
64.1500 311.0000 1.0000
64.1600 291.0000 1.0000
64.1700 266.0000 1.0000
64.1800 275.0000 1.0000
64.1900 283.0000 1.0000
64.2000 307.0000 1.0000
64.2100 286.0000 1.0000
64.2200 265.0000 1.0000
64.2300 266.0000 1.0000
64.2400 263.0000 1.0000
64.2500 264.0000 1.0000
64.2600 263.0000 1.0000
64.2700 244.0000 1.0000
64.2800 246.0000 1.0000
64.2900 285.0000 1.0000
64.3000 271.0000 1.0000
64.3100 272.0000 1.0000
64.3200 267.0000 1.0000
64.3300 269.0000 1.0000
64.3400 265.0000 1.0000
64.3500 259.0000 1.0000
64.3600 248.0000 1.0000
64.3700 246.0000 1.0000
64.3800 286.0000 1.0000
64.3900 263.0000 1.0000
64.4000 261.0000 1.0000
64.4100 252.0000 1.0000
64.4200 245.0000 1.0000
64.4300 232.0000 1.0000
64.4400 278.0000 1.0000
64.4500 262.0000 1.0000
64.4600 258.0000 1.0000
64.4700 269.0000 1.0000
64.4800 259.0000 1.0000
64.4900 286.0000 1.0000
64.5000 258.0000 1.0000
64.5100 272.0000 1.0000
64.5200 256.0000 1.0000
64.5300 251.0000 1.0000
64.5400 243.0000 1.0000
64.5500 275.0000 1.0000
64.5600 257.0000 1.0000
64.5700 282.0000 1.0000
64.5800 289.0000 1.0000
64.5900 258.0000 1.0000
64.6000 271.0000 1.0000
64.6100 258.0000 1.0000
64.6200 284.0000 1.0000
64.6300 285.0000 1.0000
64.6400 269.0000 1.0000
64.6500 255.0000 1.0000
64.6600 252.0000 1.0000
64.6700 235.0000 1.0000
64.6800 260.0000 1.0000
64.6900 272.0000 1.0000
64.7000 274.0000 1.0000
64.7100 259.0000 1.0000
64.7200 252.0000 1.0000
64.7300 277.0000 1.0000
64.7400 245.0000 1.0000
64.7500 250.0000 1.0000
64.7600 252.0000 1.0000
64.7700 262.0000 1.0000
64.7800 275.0000 1.0000
64.7900 274.0000 1.0000
64.8000 248.0000 1.0000
64.8100 295.0000 1.0000
64.8200 264.0000 1.0000
64.8300 259.0000 1.0000
64.8400 267.0000 1.0000
64.8500 244.0000 1.0000
64.8600 289.0000 1.0000
64.8700 284.0000 1.0000
64.8800 296.0000 1.0000
64.8900 284.0000 1.0000
64.9000 256.0000 1.0000
64.9100 269.0000 1.0000
64.9200 279.0000 1.0000
64.9300 272.0000 1.0000
64.9400 287.0000 1.0000
64.9500 278.0000 1.0000
64.9600 292.0000 1.0000
64.9700 280.0000 1.0000
64.9800 304.0000 1.0000
64.9900 281.0000 1.0000
65.0000 292.0000 1.0000
65.0100 291.0000 1.0000
65.0200 286.0000 1.0000
65.0300 282.0000 1.0000
65.0400 282.0000 1.0000
65.0500 303.0000 1.0000
65.0600 280.0000 1.0000
65.0700 299.0000 1.0000
65.0800 297.0000 1.0000
65.0900 312.0000 1.0000
65.1000 341.0000 1.0000
65.1100 334.0000 1.0000
65.1200 351.0000 1.0000
65.1300 310.0000 1.0000
65.1400 327.0000 1.0000
65.1500 352.0000 1.0000
65.1600 330.0000 1.0000
65.1700 316.0000 1.0000
65.1800 331.0000 1.0000
65.1900 347.0000 1.0000
65.2000 307.0000 1.0000
65.2100 346.0000 1.0000
65.2200 351.0000 1.0000
65.2300 381.0000 1.0000
65.2400 368.0000 1.0000
65.2500 411.0000 1.0000
65.2600 372.0000 1.0000
65.2700 408.0000 1.0000
65.2800 427.0000 1.0000
65.2900 424.0000 1.0000
65.3000 418.0000 1.0000
65.3100 426.0000 1.0000
65.3200 471.0000 1.0000
65.3300 473.0000 1.0000
65.3400 490.0000 1.0000
65.3500 492.0000 1.0000
65.3600 522.0000 1.0000
65.3700 592.0000 1.0000
65.3800 575.0000 1.0000
65.3900 622.0000 1.0000
65.4000 652.0000 1.0000
65.4100 654.0000 1.0000
65.4200 672.0000 1.0000
65.4300 716.0000 1.0000
65.4400 755.0000 1.0000
65.4500 741.0000 1.0000
65.4600 806.0000 1.0000
65.4700 757.0000 1.0000
65.4800 819.0000 1.0000
65.4900 769.0000 1.0000
65.5000 773.0000 1.0000
65.5100 802.0000 1.0000
65.5200 797.0000 1.0000
65.5300 831.0000 1.0000
65.5400 771.0000 1.0000
65.5500 777.0000 1.0000
65.5600 807.0000 1.0000
65.5700 802.0000 1.0000
65.5800 752.0000 1.0000
65.5900 738.0000 1.0000
65.6000 741.0000 1.0000
65.6100 741.0000 1.0000
65.6200 732.0000 1.0000
65.6300 706.0000 1.0000
65.6400 709.0000 1.0000
65.6500 699.0000 1.0000
65.6600 719.0000 1.0000
65.6700 664.0000 1.0000
65.6800 697.0000 1.0000
65.6900 652.0000 1.0000
65.7000 664.0000 1.0000
65.7100 617.0000 1.0000
65.7200 590.0000 1.0000
65.7300 562.0000 1.0000
65.7400 562.0000 1.0000
65.7500 558.0000 1.0000
65.7600 504.0000 1.0000
65.7700 485.0000 1.0000
65.7800 503.0000 1.0000
65.7900 475.0000 1.0000
65.8000 471.0000 1.0000
65.8100 428.0000 1.0000
65.8200 421.0000 1.0000
65.8300 444.0000 1.0000
65.8400 415.0000 1.0000
65.8500 418.0000 1.0000
65.8600 364.0000 1.0000
65.8700 365.0000 1.0000
65.8800 382.0000 1.0000
65.8900 345.0000 1.0000
65.9000 344.0000 1.0000
65.9100 383.0000 1.0000
65.9200 360.0000 1.0000
65.9300 331.0000 1.0000
65.9400 334.0000 1.0000
65.9500 335.0000 1.0000
65.9600 361.0000 1.0000
65.9700 326.0000 1.0000
65.9800 311.0000 1.0000
65.9900 313.0000 1.0000
66.0000 317.0000 1.0000
66.0100 305.0000 1.0000
66.0200 302.0000 1.0000
66.0300 286.0000 1.0000
66.0400 307.0000 1.0000
66.0500 309.0000 1.0000
66.0600 276.0000 1.0000
66.0700 294.0000 1.0000
66.0800 257.0000 1.0000
66.0900 301.0000 1.0000
66.1000 271.0000 1.0000
66.1100 279.0000 1.0000
66.1200 289.0000 1.0000
66.1300 276.0000 1.0000
66.1400 282.0000 1.0000
66.1500 271.0000 1.0000
66.1600 262.0000 1.0000
66.1700 257.0000 1.0000
66.1800 258.0000 1.0000
66.1900 249.0000 1.0000
66.2000 274.0000 1.0000
66.2100 256.0000 1.0000
66.2200 281.0000 1.0000
66.2300 272.0000 1.0000
66.2400 256.0000 1.0000
66.2500 241.0000 1.0000
66.2600 229.0000 1.0000
66.2700 268.0000 1.0000
66.2800 234.0000 1.0000
66.2900 252.0000 1.0000
66.3000 269.0000 1.0000
66.3100 273.0000 1.0000
66.3200 282.0000 1.0000
66.3300 247.0000 1.0000
66.3400 243.0000 1.0000
66.3500 264.0000 1.0000
66.3600 242.0000 1.0000
66.3700 217.0000 1.0000
66.3800 271.0000 1.0000
66.3900 283.0000 1.0000
66.4000 248.0000 1.0000
66.4100 217.0000 1.0000
66.4200 226.0000 1.0000
66.4300 247.0000 1.0000
66.4400 260.0000 1.0000
66.4500 232.0000 1.0000
66.4600 254.0000 1.0000
66.4700 246.0000 1.0000
66.4800 235.0000 1.0000
66.4900 247.0000 1.0000
66.5000 217.0000 1.0000
66.5100 248.0000 1.0000
66.5200 237.0000 1.0000
66.5300 225.0000 1.0000
66.5400 206.0000 1.0000
66.5500 221.0000 1.0000
66.5600 234.0000 1.0000
66.5700 219.0000 1.0000
66.5800 235.0000 1.0000
66.5900 244.0000 1.0000
66.6000 235.0000 1.0000
66.6100 230.0000 1.0000
66.6200 247.0000 1.0000
66.6300 224.0000 1.0000
66.6400 235.0000 1.0000
66.6500 250.0000 1.0000
66.6600 249.0000 1.0000
66.6700 238.0000 1.0000
66.6800 231.0000 1.0000
66.6900 245.0000 1.0000
66.7000 248.0000 1.0000
66.7100 244.0000 1.0000
66.7200 242.0000 1.0000
66.7300 247.0000 1.0000
66.7400 242.0000 1.0000
66.7500 235.0000 1.0000
66.7600 248.0000 1.0000
66.7700 223.0000 1.0000
66.7800 244.0000 1.0000
66.7900 244.0000 1.0000
66.8000 254.0000 1.0000
66.8100 229.0000 1.0000
66.8200 240.0000 1.0000
66.8300 247.0000 1.0000
66.8400 228.0000 1.0000
66.8500 214.0000 1.0000
66.8600 221.0000 1.0000
66.8700 227.0000 1.0000
66.8800 211.0000 1.0000
66.8900 236.0000 1.0000
66.9000 218.0000 1.0000
66.9100 235.0000 1.0000
66.9200 241.0000 1.0000
66.9300 232.0000 1.0000
66.9400 204.0000 1.0000
66.9500 226.0000 1.0000
66.9600 222.0000 1.0000
66.9700 213.0000 1.0000
66.9800 256.0000 1.0000
66.9900 221.0000 1.0000
67.0000 250.0000 1.0000
67.0100 249.0000 1.0000
67.0200 246.0000 1.0000
67.0300 261.0000 1.0000
67.0400 239.0000 1.0000
67.0500 227.0000 1.0000
67.0600 234.0000 1.0000
67.0700 222.0000 1.0000
67.0800 233.0000 1.0000
67.0900 220.0000 1.0000
67.1000 247.0000 1.0000
67.1100 264.0000 1.0000
67.1200 234.0000 1.0000
67.1300 226.0000 1.0000
67.1400 230.0000 1.0000
67.1500 237.0000 1.0000
67.1600 191.0000 1.0000
67.1700 237.0000 1.0000
67.1800 226.0000 1.0000
67.1900 226.0000 1.0000
67.2000 223.0000 1.0000
67.2100 227.0000 1.0000
67.2200 246.0000 1.0000
67.2300 220.0000 1.0000
67.2400 217.0000 1.0000
67.2500 236.0000 1.0000
67.2600 227.0000 1.0000
67.2700 236.0000 1.0000
67.2800 213.0000 1.0000
67.2900 228.0000 1.0000
67.3000 213.0000 1.0000
67.3100 231.0000 1.0000
67.3200 234.0000 1.0000
67.3300 205.0000 1.0000
67.3400 210.0000 1.0000
67.3500 242.0000 1.0000
67.3600 243.0000 1.0000
67.3700 239.0000 1.0000
67.3800 244.0000 1.0000
67.3900 222.0000 1.0000
67.4000 223.0000 1.0000
67.4100 236.0000 1.0000
67.4200 221.0000 1.0000
67.4300 238.0000 1.0000
67.4400 229.0000 1.0000
67.4500 220.0000 1.0000
67.4600 215.0000 1.0000
67.4700 236.0000 1.0000
67.4800 227.0000 1.0000
67.4900 241.0000 1.0000
67.5000 248.0000 1.0000
67.5100 233.0000 1.0000
67.5200 221.0000 1.0000
67.5300 197.0000 1.0000
67.5400 222.0000 1.0000
67.5500 202.0000 1.0000
67.5600 214.0000 1.0000
67.5700 218.0000 1.0000
67.5800 231.0000 1.0000
67.5900 208.0000 1.0000
67.6000 228.0000 1.0000
67.6100 230.0000 1.0000
67.6200 215.0000 1.0000
67.6300 231.0000 1.0000
67.6400 216.0000 1.0000
67.6500 230.0000 1.0000
67.6600 234.0000 1.0000
67.6700 216.0000 1.0000
67.6800 234.0000 1.0000
67.6900 214.0000 1.0000
67.7000 220.0000 1.0000
67.7100 231.0000 1.0000
67.7200 238.0000 1.0000
67.7300 215.0000 1.0000
67.7400 242.0000 1.0000
67.7500 232.0000 1.0000
67.7600 231.0000 1.0000
67.7700 224.0000 1.0000
67.7800 232.0000 1.0000
67.7900 223.0000 1.0000
67.8000 214.0000 1.0000
67.8100 241.0000 1.0000
67.8200 222.0000 1.0000
67.8300 204.0000 1.0000
67.8400 233.0000 1.0000
67.8500 215.0000 1.0000
67.8600 226.0000 1.0000
67.8700 242.0000 1.0000
67.8800 228.0000 1.0000
67.8900 254.0000 1.0000
67.9000 214.0000 1.0000
67.9100 225.0000 1.0000
67.9200 210.0000 1.0000
67.9300 228.0000 1.0000
67.9400 238.0000 1.0000
67.9500 224.0000 1.0000
67.9600 221.0000 1.0000
67.9700 230.0000 1.0000
67.9800 224.0000 1.0000
67.9900 219.0000 1.0000
68.0000 211.0000 1.0000
68.0100 202.0000 1.0000
68.0200 201.0000 1.0000
68.0300 229.0000 1.0000
68.0400 229.0000 1.0000
68.0500 225.0000 1.0000
68.0600 221.0000 1.0000
68.0700 221.0000 1.0000
68.0800 223.0000 1.0000
68.0900 231.0000 1.0000
68.1000 224.0000 1.0000
68.1100 232.0000 1.0000
68.1200 230.0000 1.0000
68.1300 231.0000 1.0000
68.1400 217.0000 1.0000
68.1500 221.0000 1.0000
68.1600 201.0000 1.0000
68.1700 222.0000 1.0000
68.1800 235.0000 1.0000
68.1900 244.0000 1.0000
68.2000 241.0000 1.0000
68.2100 247.0000 1.0000
68.2200 226.0000 1.0000
68.2300 229.0000 1.0000
68.2400 213.0000 1.0000
68.2500 229.0000 1.0000
68.2600 209.0000 1.0000
68.2700 236.0000 1.0000
68.2800 223.0000 1.0000
68.2900 223.0000 1.0000
68.3000 221.0000 1.0000
68.3100 196.0000 1.0000
68.3200 210.0000 1.0000
68.3300 223.0000 1.0000
68.3400 212.0000 1.0000
68.3500 219.0000 1.0000
68.3600 254.0000 1.0000
68.3700 195.0000 1.0000
68.3800 205.0000 1.0000
68.3900 243.0000 1.0000
68.4000 258.0000 1.0000
68.4100 205.0000 1.0000
68.4200 204.0000 1.0000
68.4300 236.0000 1.0000
68.4400 227.0000 1.0000
68.4500 242.0000 1.0000
68.4600 227.0000 1.0000
68.4700 235.0000 1.0000
68.4800 230.0000 1.0000
68.4900 222.0000 1.0000
68.5000 224.0000 1.0000
68.5100 206.0000 1.0000
68.5200 215.0000 1.0000
68.5300 214.0000 1.0000
68.5400 207.0000 1.0000
68.5500 225.0000 1.0000
68.5600 236.0000 1.0000
68.5700 233.0000 1.0000
68.5800 228.0000 1.0000
68.5900 247.0000 1.0000
68.6000 211.0000 1.0000
68.6100 223.0000 1.0000
68.6200 228.0000 1.0000
68.6300 211.0000 1.0000
68.6400 243.0000 1.0000
68.6500 232.0000 1.0000
68.6600 212.0000 1.0000
68.6700 223.0000 1.0000
68.6800 206.0000 1.0000
68.6900 222.0000 1.0000
68.7000 214.0000 1.0000
68.7100 222.0000 1.0000
68.7200 228.0000 1.0000
68.7300 235.0000 1.0000
68.7400 234.0000 1.0000
68.7500 244.0000 1.0000
68.7600 214.0000 1.0000
68.7700 207.0000 1.0000
68.7800 226.0000 1.0000
68.7900 189.0000 1.0000
68.8000 217.0000 1.0000
68.8100 204.0000 1.0000
68.8200 207.0000 1.0000
68.8300 242.0000 1.0000
68.8400 223.0000 1.0000
68.8500 198.0000 1.0000
68.8600 223.0000 1.0000
68.8700 220.0000 1.0000
68.8800 222.0000 1.0000
68.8900 195.0000 1.0000
68.9000 198.0000 1.0000
68.9100 204.0000 1.0000
68.9200 218.0000 1.0000
68.9300 199.0000 1.0000
68.9400 203.0000 1.0000
68.9500 212.0000 1.0000
68.9600 220.0000 1.0000
68.9700 232.0000 1.0000
68.9800 230.0000 1.0000
68.9900 223.0000 1.0000
69.0000 223.0000 1.0000
69.0100 202.0000 1.0000
69.0200 226.0000 1.0000
69.0300 220.0000 1.0000
69.0400 199.0000 1.0000
69.0500 229.0000 1.0000
69.0600 202.0000 1.0000
69.0700 200.0000 1.0000
69.0800 242.0000 1.0000
69.0900 229.0000 1.0000
69.1000 231.0000 1.0000
69.1100 208.0000 1.0000
69.1200 212.0000 1.0000
69.1300 218.0000 1.0000
69.1400 228.0000 1.0000
69.1500 232.0000 1.0000
69.1600 235.0000 1.0000
69.1700 207.0000 1.0000
69.1800 231.0000 1.0000
69.1900 226.0000 1.0000
69.2000 219.0000 1.0000
69.2100 207.0000 1.0000
69.2200 218.0000 1.0000
69.2300 222.0000 1.0000
69.2400 230.0000 1.0000
69.2500 222.0000 1.0000
69.2600 209.0000 1.0000
69.2700 186.0000 1.0000
69.2800 195.0000 1.0000
69.2900 212.0000 1.0000
69.3000 192.0000 1.0000
69.3100 232.0000 1.0000
69.3200 225.0000 1.0000
69.3300 220.0000 1.0000
69.3400 195.0000 1.0000
69.3500 231.0000 1.0000
69.3600 244.0000 1.0000
69.3700 196.0000 1.0000
69.3800 223.0000 1.0000
69.3900 212.0000 1.0000
69.4000 202.0000 1.0000
69.4100 212.0000 1.0000
69.4200 228.0000 1.0000
69.4300 228.0000 1.0000
69.4400 218.0000 1.0000
69.4500 207.0000 1.0000
69.4600 214.0000 1.0000
69.4700 199.0000 1.0000
69.4800 191.0000 1.0000
69.4900 203.0000 1.0000
69.5000 194.0000 1.0000
69.5100 209.0000 1.0000
69.5200 212.0000 1.0000
69.5300 210.0000 1.0000
69.5400 210.0000 1.0000
69.5500 208.0000 1.0000
69.5600 214.0000 1.0000
69.5700 223.0000 1.0000
69.5800 223.0000 1.0000
69.5900 229.0000 1.0000
69.6000 221.0000 1.0000
69.6100 241.0000 1.0000
69.6200 198.0000 1.0000
69.6300 226.0000 1.0000
69.6400 206.0000 1.0000
69.6500 189.0000 1.0000
69.6600 216.0000 1.0000
69.6700 216.0000 1.0000
69.6800 232.0000 1.0000
69.6900 215.0000 1.0000
69.7000 185.0000 1.0000
69.7100 191.0000 1.0000
69.7200 190.0000 1.0000
69.7300 213.0000 1.0000
69.7400 199.0000 1.0000
69.7500 213.0000 1.0000
69.7600 218.0000 1.0000
69.7700 238.0000 1.0000
69.7800 215.0000 1.0000
69.7900 210.0000 1.0000
69.8000 225.0000 1.0000
69.8100 208.0000 1.0000
69.8200 198.0000 1.0000
69.8300 213.0000 1.0000
69.8400 203.0000 1.0000
69.8500 203.0000 1.0000
69.8600 217.0000 1.0000
69.8700 218.0000 1.0000
69.8800 193.0000 1.0000
69.8900 208.0000 1.0000
69.9000 202.0000 1.0000
69.9100 209.0000 1.0000
69.9200 225.0000 1.0000
69.9300 227.0000 1.0000
69.9400 198.0000 1.0000
69.9500 221.0000 1.0000
69.9600 213.0000 1.0000
69.9700 204.0000 1.0000
69.9800 225.0000 1.0000
69.9900 198.0000 1.0000
70.0000 207.0000 1.0000
*RAS_INT_END
*RAS_TEMPERATURE_START
*RAS_TEMPERATURE_END
*RAS_DATA_END
