*RAS_DATA_START
*RAS_HEADER_START
*DISP_FMT_X "%.2f"
*DISP_FMT_Y "%.0f"
*DISP_FULLSCALE "15385.0000000000"
*DISP_LINE_COLOR "255.0000000000"
*DISP_LINE_STYLE "0.0000000000"
*DISP_LINE_WIDTH "0.2500000000"
*DISP_NOTE "測定データ-4"
*DISP_OFFSET_Y "0.0000000000"
*DISP_PEAKSEARCH_UNIT_Y "cps"
*DISP_RANGE_BOTTOM "0.0000000000"
*DISP_RANGE_LEFT "20.0000000000"
*DISP_RANGE_LOGCUTOFF "0.0100000000"
*DISP_RANGE_RIGHT "70.0000000000"
*DISP_RANGE_TOP "15385.0000000000"
*DISP_SCALE_MODE_Y "0.0000000000"
*DISP_TAB_NAME "2θ/θ"
*DISP_TITLE_Y "強度"
*DISP_UNIT_Y "cps"
*DISP_WINDOW_NAME "MSG_MACROENGINE"
*FILE_COMMENT " "
*FILE_MD5 ""
*FILE_MEMO " "
*FILE_OPERATOR "Administrator"
*FILE_SAMPLE " "
*FILE_TYPE "RAS_RAW"
*FILE_USERGROUP "システムマネージャ"
*FILE_VERSION "1.0000000000"
*HW_ATTACHMENT_ID "ATT0025"
*HW_ATTACHMENT_NAME "標準|Standard"
*HW_COUNTER_ID-0 "CUT0025"
*HW_COUNTER_ID-1 "CUT0020"
*HW_COUNTER_ID-2 "CUT0020"
*HW_COUNTER_ID-3 "CSL0021"
*HW_COUNTER_ID-4 "CMC0021"
*HW_COUNTER_NAME-0 "D/teX Ultra|D/teX Ultra"
*HW_COUNTER_NAME-1 "None|None"
*HW_COUNTER_NAME-2 "None|None"
*HW_COUNTER_NAME-3 "BBM|BBM"
*HW_COUNTER_NAME-4 "検出器モノクロメータ|Detector monochromator"
*HW_COUNTER_SELECT_NAME "D/teX Ultra|D/teX Ultra"
*HW_GONIOMETER_ID "GON0023"
*HW_GONIOMETER_NAME "SmartLab|SmartLab"
*HW_GONIOMETER_RADIUS-0 "90.0"
*HW_GONIOMETER_RADIUS-1 "114.0"
*HW_GONIOMETER_RADIUS-2 "190.0"
*HW_GONIOMETER_RADIUS-3 "300.0"
*HW_GONIOMETER_RADIUS-4 "187.0"
*HW_GONIOMETER_RADIUS-5 "300.0"
*HW_GONIOMETER_RADIUS-6 "113.0"
*HW_GONIOMETER_RADIUS-7 "331.0"
*HW_I_OPT_ID-0 "CBO0021"
*HW_I_OPT_ID-1 "ICR0023"
*HW_I_OPT_ID-2 "ISL0021"
*HW_I_OPT_ID-3 "ISO0021"
*HW_I_OPT_ID-4 "IAD0021"
*HW_I_OPT_ID-5 "IPR0001"
*HW_I_OPT_NAME-0 "CBOユニット|CBO unit"
*HW_I_OPT_NAME-1 "標準入射光学ユニット|Standard incident optical unit"
*HW_I_OPT_NAME-2 "標準入射スリットボックス|Standard incident slit box"
*HW_I_OPT_NAME-3 "入射平行スリット|Incident parallel slit"
*HW_I_OPT_NAME-4 "長手制限スリット|Length limiting slit"
*HW_I_OPT_NAME-5 "None|None"
*HW_R_ATTENUATER_AUTOMODE "0"
*HW_R_OPT_ID-0 "RSS0021"
*HW_R_OPT_ID-1 "RCR0023"
*HW_R_OPT_ID-2 "RSO0021"
*HW_R_OPT_ID-3 "RRS0021"
*HW_R_OPT_ID-4 "ATN0021"
*HW_R_OPT_ID-5 "RFL0021"
*HW_R_OPT_ID-6 "RAD0021"
*HW_R_OPT_NAME-0 "標準受光スリットボックス1|Standard receiving slit box # 1"
*HW_R_OPT_NAME-1 "標準受光光学ユニット1|Standard receiving unit # 1"
*HW_R_OPT_NAME-2 "標準受光光学ユニット2|Standard receiving optical unit # 2"
*HW_R_OPT_NAME-3 "標準受光スリットボックス2|Standard receiving slit box # 2"
*HW_R_OPT_NAME-4 "標準アッテネータ|Standard Attenuator"
*HW_R_OPT_NAME-5 "Cu Kβ|Cu K-beta"
*HW_R_OPT_NAME-6 "調整用受光スリット|Alignment receiving slit"
*HW_SAMPLE_HOLDER_ID "SMP0023"
*HW_SAMPLE_HOLDER_NAME "標準Zステージ|Standard Z stage"
*HW_XG_CURRENT_MAX "50"
*HW_XG_CURRENT_MIN "2"
*HW_XG_CURRENT_RESOLUTION "1"
*HW_XG_CURRENT_UNIT "mA"
*HW_XG_FOCUS "1mm x 10mm"
*HW_XG_FOCUS_TYPE "Normal"
*HW_XG_ID ""
*HW_XG_NAME "3kW 封入管(ID:1200)|3kW Sealed tube(ID:1200)"
*HW_XG_TARGET_ATOMIC_NUMBER "29.0000000000"
*HW_XG_TARGET_NAME "Cu"
*HW_XG_TYPE "Hermetic"
*HW_XG_VOLTAGE_MAX "60"
*HW_XG_VOLTAGE_MIN "20"
*HW_XG_VOLTAGE_RESOLUTION "1"
*HW_XG_VOLTAGE_UNIT "kV"
*HW_XG_WATT_MAX "1.500"
*HW_XG_WATT_UNIT "kW"
*HW_XG_WAVE_LENGTH_ALPHA1 "1.540593"
*HW_XG_WAVE_LENGTH_ALPHA2 "1.544414"
*HW_XG_WAVE_LENGTH_BETA "1.392250"
*MEAS_COND_AXIS_NAME-0 "2θ/θ"
*MEAS_COND_AXIS_NAME-1 "2θ"
*MEAS_COND_AXIS_NAME-2 "ω"
*MEAS_COND_AXIS_NAME-3 "Z"
*MEAS_COND_AXIS_NAME-4 "2θ/ω"
*MEAS_COND_AXIS_NAME-5 "θs"
*MEAS_COND_AXIS_NAME-6 "θd"
*MEAS_COND_AXIS_NAME-7 "Ts"
*MEAS_COND_AXIS_NAME-8 "CBO選択スリット"
*MEAS_COND_AXIS_NAME-9 "M"
*MEAS_COND_AXIS_NAME-10 "入射平行スリット"
*MEAS_COND_AXIS_NAME-11 "入射スリット"
*MEAS_COND_AXIS_NAME-12 ""
*MEAS_COND_AXIS_NAME-13 "Zs"
*MEAS_COND_AXIS_NAME-14 "入射光学素子"
*MEAS_COND_AXIS_NAME-15 "長手制限スリット"
*MEAS_COND_AXIS_NAME-16 "センタースリット"
*MEAS_COND_AXIS_NAME-17 "フィルター"
*MEAS_COND_AXIS_NAME-18 "受光スリット1"
*MEAS_COND_AXIS_NAME-19 "受光スリット2"
*MEAS_COND_AXIS_NAME-20 "受光光学素子"
*MEAS_COND_AXIS_NAME-21 "受光平行スリット"
*MEAS_COND_AXIS_NAME-22 "調整用受光スリット"
*MEAS_COND_AXIS_NAME-23 ""
*MEAS_COND_AXIS_NAME-24 ""
*MEAS_COND_AXIS_NAME-25 "Zd"
*MEAS_COND_AXIS_NAME-26 "アッテネータ"
*MEAS_COND_AXIS_NAME-27 "検出器モノクロメータ"
*MEAS_COND_AXIS_NAME-28 "モノクロメータスリット"
*MEAS_COND_AXIS_NAME-29 "プライマリビーム"
*MEAS_COND_AXIS_NAME-30 "PHA"
*MEAS_COND_AXIS_NAME_INTERNAL-0 "TwoThetaTheta"
*MEAS_COND_AXIS_NAME_INTERNAL-1 "TwoTheta"
*MEAS_COND_AXIS_NAME_INTERNAL-2 "Omega"
*MEAS_COND_AXIS_NAME_INTERNAL-3 "Z"
*MEAS_COND_AXIS_NAME_INTERNAL-4 "TwoThetaOmega"
*MEAS_COND_AXIS_NAME_INTERNAL-5 "ThetaS"
*MEAS_COND_AXIS_NAME_INTERNAL-6 "ThetaD"
*MEAS_COND_AXIS_NAME_INTERNAL-7 "Ts"
*MEAS_COND_AXIS_NAME_INTERNAL-8 "CBO"
*MEAS_COND_AXIS_NAME_INTERNAL-9 "CBO-M"
*MEAS_COND_AXIS_NAME_INTERNAL-10 "IncidentSollerSlit"
*MEAS_COND_AXIS_NAME_INTERNAL-11 "IncidentSlitBox"
*MEAS_COND_AXIS_NAME_INTERNAL-12 "IncidentSlitBox-_Axis"
*MEAS_COND_AXIS_NAME_INTERNAL-13 "Zs"
*MEAS_COND_AXIS_NAME_INTERNAL-14 "IncidentMonochromator"
*MEAS_COND_AXIS_NAME_INTERNAL-15 "IncidentAxdSlit"
*MEAS_COND_AXIS_NAME_INTERNAL-16 "CenterSlit"
*MEAS_COND_AXIS_NAME_INTERNAL-17 "Filter"
*MEAS_COND_AXIS_NAME_INTERNAL-18 "ReceivingSlitBox1"
*MEAS_COND_AXIS_NAME_INTERNAL-19 "ReceivingSlitBox2"
*MEAS_COND_AXIS_NAME_INTERNAL-20 "ReceivingOptics"
*MEAS_COND_AXIS_NAME_INTERNAL-21 "ReceivingSollerSlit"
*MEAS_COND_AXIS_NAME_INTERNAL-22 "ReceivingAxdSlit"
*MEAS_COND_AXIS_NAME_INTERNAL-23 "ReceivingSlitBox1-_Axis"
*MEAS_COND_AXIS_NAME_INTERNAL-24 "ReceivingSlitBox2-_Axis"
*MEAS_COND_AXIS_NAME_INTERNAL-25 "ReceivingSlitBox2-Zd"
*MEAS_COND_AXIS_NAME_INTERNAL-26 "Attenuator"
*MEAS_COND_AXIS_NAME_INTERNAL-27 "CounterMonochromator"
*MEAS_COND_AXIS_NAME_INTERNAL-28 "CounterSlit"
*MEAS_COND_AXIS_NAME_INTERNAL-29 "IncidentPrimary"
*MEAS_COND_AXIS_NAME_INTERNAL-30 "PHA"
*MEAS_COND_AXIS_NAME_MAGICNO-0 "83951616.0000000000"
*MEAS_COND_AXIS_NAME_MAGICNO-1 "268632064.0000000000"
*MEAS_COND_AXIS_NAME_MAGICNO-2 "268500992.0000000000"
*MEAS_COND_AXIS_NAME_MAGICNO-3 "285278208.0000000000"
*MEAS_COND_AXIS_NAME_MAGICNO-4 "83951616.0000000000"
*MEAS_COND_AXIS_NAME_MAGICNO-5 "131072.0000000000"
*MEAS_COND_AXIS_NAME_MAGICNO-6 "131072.0000000000"
*MEAS_COND_AXIS_NAME_MAGICNO-7 "318898176.0000000000"
*MEAS_COND_AXIS_NAME_MAGICNO-8 "20971521.0000000000"
*MEAS_COND_AXIS_NAME_MAGICNO-9 "285343744.0000000000"
*MEAS_COND_AXIS_NAME_MAGICNO-10 "20971521.0000000000"
*MEAS_COND_AXIS_NAME_MAGICNO-11 "22020097.0000000000"
*MEAS_COND_AXIS_NAME_MAGICNO-12 "25165824.0000000000"
*MEAS_COND_AXIS_NAME_MAGICNO-13 "318898176.0000000000"
*MEAS_COND_AXIS_NAME_MAGICNO-14 "1.0000000000"
*MEAS_COND_AXIS_NAME_MAGICNO-15 "20971521.0000000000"
*MEAS_COND_AXIS_NAME_MAGICNO-16 "20971521.0000000000"
*MEAS_COND_AXIS_NAME_MAGICNO-17 "20971521.0000000000"
*MEAS_COND_AXIS_NAME_MAGICNO-18 "23068673.0000000000"
*MEAS_COND_AXIS_NAME_MAGICNO-19 "23068673.0000000000"
*MEAS_COND_AXIS_NAME_MAGICNO-20 "20971521.0000000000"
*MEAS_COND_AXIS_NAME_MAGICNO-21 "20971521.0000000000"
*MEAS_COND_AXIS_NAME_MAGICNO-22 "20971521.0000000000"
*MEAS_COND_AXIS_NAME_MAGICNO-23 "25165824.0000000000"
*MEAS_COND_AXIS_NAME_MAGICNO-24 "25165824.0000000000"
*MEAS_COND_AXIS_NAME_MAGICNO-25 "285343744.0000000000"
*MEAS_COND_AXIS_NAME_MAGICNO-26 "17301505.0000000000"
*MEAS_COND_AXIS_NAME_MAGICNO-27 "20971521.0000000000"
*MEAS_COND_AXIS_NAME_MAGICNO-28 "20971521.0000000000"
*MEAS_COND_AXIS_NAME_MAGICNO-29 "20971521.0000000000"
*MEAS_COND_AXIS_NAME_MAGICNO-30 "0.0000000000"
*MEAS_COND_AXIS_OFFSET-0 "-"
*MEAS_COND_AXIS_OFFSET-1 "-0.0310000000"
*MEAS_COND_AXIS_OFFSET-2 "0.3957000000"
*MEAS_COND_AXIS_OFFSET-3 "-"
*MEAS_COND_AXIS_OFFSET-4 "-"
*MEAS_COND_AXIS_OFFSET-5 "0.3957000000"
*MEAS_COND_AXIS_OFFSET-6 "-0.4267000000"
*MEAS_COND_AXIS_OFFSET-7 "-"
*MEAS_COND_AXIS_OFFSET-8 "-"
*MEAS_COND_AXIS_OFFSET-9 "-"
*MEAS_COND_AXIS_OFFSET-10 "-"
*MEAS_COND_AXIS_OFFSET-11 "-"
*MEAS_COND_AXIS_OFFSET-12 "-"
*MEAS_COND_AXIS_OFFSET-13 "-"
*MEAS_COND_AXIS_OFFSET-14 "-"
*MEAS_COND_AXIS_OFFSET-15 "-"
*MEAS_COND_AXIS_OFFSET-16 "-"
*MEAS_COND_AXIS_OFFSET-17 "-"
*MEAS_COND_AXIS_OFFSET-18 "-"
*MEAS_COND_AXIS_OFFSET-19 "-"
*MEAS_COND_AXIS_OFFSET-20 "-"
*MEAS_COND_AXIS_OFFSET-21 "-"
*MEAS_COND_AXIS_OFFSET-22 "-"
*MEAS_COND_AXIS_OFFSET-23 "-"
*MEAS_COND_AXIS_OFFSET-24 "-"
*MEAS_COND_AXIS_OFFSET-25 "-"
*MEAS_COND_AXIS_OFFSET-26 "-"
*MEAS_COND_AXIS_OFFSET-27 "-"
*MEAS_COND_AXIS_OFFSET-28 "-"
*MEAS_COND_AXIS_OFFSET-29 "-"
*MEAS_COND_AXIS_OFFSET-30 "-"
*MEAS_COND_AXIS_POSITION-0 "0.0000000000"
*MEAS_COND_AXIS_POSITION-1 "0.0000000000"
*MEAS_COND_AXIS_POSITION-2 "0.0000000000"
*MEAS_COND_AXIS_POSITION-3 "-2.8588600000"
*MEAS_COND_AXIS_POSITION-4 "0.0000000000"
*MEAS_COND_AXIS_POSITION-5 "0.0000000000"
*MEAS_COND_AXIS_POSITION-6 "0.0000000000"
*MEAS_COND_AXIS_POSITION-7 "-0.7498700000"
*MEAS_COND_AXIS_POSITION-8 "BB"
*MEAS_COND_AXIS_POSITION-9 "0.0000000000"
*MEAS_COND_AXIS_POSITION-10 "Soller_slit_5.0deg"
*MEAS_COND_AXIS_POSITION-11 "2/3deg"
*MEAS_COND_AXIS_POSITION-12 "2.2088000000"
*MEAS_COND_AXIS_POSITION-13 "-0.6412500000"
*MEAS_COND_AXIS_POSITION-14 "0.0000000000"
*MEAS_COND_AXIS_POSITION-15 "10.0mm"
*MEAS_COND_AXIS_POSITION-16 "None"
*MEAS_COND_AXIS_POSITION-17 "Cu_K-beta"
*MEAS_COND_AXIS_POSITION-18 "13.000mm"
*MEAS_COND_AXIS_POSITION-19 "13.000mm"
*MEAS_COND_AXIS_POSITION-20 "No_unit"
*MEAS_COND_AXIS_POSITION-21 "Soller_slit_5.0deg"
*MEAS_COND_AXIS_POSITION-22 "None"
*MEAS_COND_AXIS_POSITION-23 "13.0000000000"
*MEAS_COND_AXIS_POSITION-24 "13.0000000000"
*MEAS_COND_AXIS_POSITION-25 "0.0281300000"
*MEAS_COND_AXIS_POSITION-26 "Open"
*MEAS_COND_AXIS_POSITION-27 "None"
*MEAS_COND_AXIS_POSITION-28 "None"
*MEAS_COND_AXIS_POSITION-29 "None"
*MEAS_COND_AXIS_POSITION-30 "38.0000000000"
*MEAS_COND_AXIS_UNIT-0 "deg"
*MEAS_COND_AXIS_UNIT-1 "deg"
*MEAS_COND_AXIS_UNIT-2 "deg"
*MEAS_COND_AXIS_UNIT-3 "mm"
*MEAS_COND_AXIS_UNIT-4 "deg"
*MEAS_COND_AXIS_UNIT-5 "deg"
*MEAS_COND_AXIS_UNIT-6 "deg"
*MEAS_COND_AXIS_UNIT-7 "mm"
*MEAS_COND_AXIS_UNIT-8 ""
*MEAS_COND_AXIS_UNIT-9 "pulse"
*MEAS_COND_AXIS_UNIT-10 ""
*MEAS_COND_AXIS_UNIT-11 ""
*MEAS_COND_AXIS_UNIT-12 "mm"
*MEAS_COND_AXIS_UNIT-13 "mm"
*MEAS_COND_AXIS_UNIT-14 ""
*MEAS_COND_AXIS_UNIT-15 ""
*MEAS_COND_AXIS_UNIT-16 ""
*MEAS_COND_AXIS_UNIT-17 ""
*MEAS_COND_AXIS_UNIT-18 ""
*MEAS_COND_AXIS_UNIT-19 ""
*MEAS_COND_AXIS_UNIT-20 ""
*MEAS_COND_AXIS_UNIT-21 ""
*MEAS_COND_AXIS_UNIT-22 ""
*MEAS_COND_AXIS_UNIT-23 "mm"
*MEAS_COND_AXIS_UNIT-24 "mm"
*MEAS_COND_AXIS_UNIT-25 "mm"
*MEAS_COND_AXIS_UNIT-26 ""
*MEAS_COND_AXIS_UNIT-27 ""
*MEAS_COND_AXIS_UNIT-28 ""
*MEAS_COND_AXIS_UNIT-29 ""
*MEAS_COND_AXIS_UNIT-30 "div"
*MEAS_COND_COUNTER_CNTLOSS_CORR "0.0000000000"
*MEAS_COND_COUNTER_PHABASE "38.0000000000"
*MEAS_COND_COUNTER_PHAWINDOW "16.0000000000"
*MEAS_COND_COUNTER_PHA_UNIT "div"
*MEAS_COND_COUNTER_TAUDIFF "30.0000000000"
*MEAS_COND_COUNTER_TAUINT "0.0000000000"
*MEAS_COND_IRRADIATION_MODE "OFF"
*MEAS_COND_IRRADIATION_WIDTH ""
*MEAS_COND_OPT_ATTR "集中法"
*MEAS_COND_OPT_NAME "@集中法"
*MEAS_COND_UNSYMMETRIC_MODE "OFF"
*MEAS_COND_XG_CURRENT "30.0000000000"
*MEAS_COND_XG_VOLTAGE "40.0000000000"
*MEAS_COND_XG_WAVE_TYPE "Ka"
*MEAS_DATA_COUNT "5001.0000000000"
*MEAS_SCAN_AXIS_X "2θ/θ"
*MEAS_SCAN_AXIS_X_INTERNAL "TwoThetaTheta"
*MEAS_SCAN_END_TIME "01/29/24 12:04:17"
*MEAS_SCAN_MODE "CONTINUOUS"
*MEAS_SCAN_MONITOR "0"
*MEAS_SCAN_RESOLUTION_X "0.0002"
*MEAS_SCAN_SPEED "2.5"
*MEAS_SCAN_SPEED_UNIT "deg/min"
*MEAS_SCAN_START "20.0000000000"
*MEAS_SCAN_START_TIME "01/29/24 11:42:52"
*MEAS_SCAN_STEP "0.0100000000"
*MEAS_SCAN_STOP "70.0000000000"
*MEAS_SCAN_UNIT_X "deg"
*MEAS_SCAN_UNIT_Y "counts"
*RAS_HEADER_END
*RAS_INT_START
20.0000 708.0000 1.0000
20.0100 708.0000 1.0000
20.0200 747.0000 1.0000
20.0300 749.0000 1.0000
20.0400 772.0000 1.0000
20.0500 759.0000 1.0000
20.0600 764.0000 1.0000
20.0700 734.0000 1.0000
20.0800 761.0000 1.0000
20.0900 743.0000 1.0000
20.1000 748.0000 1.0000
20.1100 735.0000 1.0000
20.1200 756.0000 1.0000
20.1300 760.0000 1.0000
20.1400 782.0000 1.0000
20.1500 759.0000 1.0000
20.1600 753.0000 1.0000
20.1700 764.0000 1.0000
20.1800 743.0000 1.0000
20.1900 750.0000 1.0000
20.2000 706.0000 1.0000
20.2100 745.0000 1.0000
20.2200 775.0000 1.0000
20.2300 740.0000 1.0000
20.2400 715.0000 1.0000
20.2500 700.0000 1.0000
20.2600 752.0000 1.0000
20.2700 740.0000 1.0000
20.2800 783.0000 1.0000
20.2900 777.0000 1.0000
20.3000 727.0000 1.0000
20.3100 717.0000 1.0000
20.3200 784.0000 1.0000
20.3300 757.0000 1.0000
20.3400 742.0000 1.0000
20.3500 732.0000 1.0000
20.3600 759.0000 1.0000
20.3700 734.0000 1.0000
20.3800 721.0000 1.0000
20.3900 719.0000 1.0000
20.4000 702.0000 1.0000
20.4100 768.0000 1.0000
20.4200 790.0000 1.0000
20.4300 736.0000 1.0000
20.4400 748.0000 1.0000
20.4500 729.0000 1.0000
20.4600 730.0000 1.0000
20.4700 792.0000 1.0000
20.4800 744.0000 1.0000
20.4900 708.0000 1.0000
20.5000 722.0000 1.0000
20.5100 738.0000 1.0000
20.5200 718.0000 1.0000
20.5300 745.0000 1.0000
20.5400 778.0000 1.0000
20.5500 761.0000 1.0000
20.5600 771.0000 1.0000
20.5700 751.0000 1.0000
20.5800 736.0000 1.0000
20.5900 782.0000 1.0000
20.6000 759.0000 1.0000
20.6100 750.0000 1.0000
20.6200 717.0000 1.0000
20.6300 754.0000 1.0000
20.6400 742.0000 1.0000
20.6500 774.0000 1.0000
20.6600 762.0000 1.0000
20.6700 754.0000 1.0000
20.6800 749.0000 1.0000
20.6900 729.0000 1.0000
20.7000 711.0000 1.0000
20.7100 698.0000 1.0000
20.7200 737.0000 1.0000
20.7300 747.0000 1.0000
20.7400 730.0000 1.0000
20.7500 746.0000 1.0000
20.7600 688.0000 1.0000
20.7700 728.0000 1.0000
20.7800 772.0000 1.0000
20.7900 790.0000 1.0000
20.8000 750.0000 1.0000
20.8100 715.0000 1.0000
20.8200 691.0000 1.0000
20.8300 712.0000 1.0000
20.8400 746.0000 1.0000
20.8500 742.0000 1.0000
20.8600 739.0000 1.0000
20.8700 703.0000 1.0000
20.8800 741.0000 1.0000
20.8900 741.0000 1.0000
20.9000 750.0000 1.0000
20.9100 762.0000 1.0000
20.9200 748.0000 1.0000
20.9300 681.0000 1.0000
20.9400 754.0000 1.0000
20.9500 760.0000 1.0000
20.9600 756.0000 1.0000
20.9700 739.0000 1.0000
20.9800 761.0000 1.0000
20.9900 714.0000 1.0000
21.0000 718.0000 1.0000
21.0100 752.0000 1.0000
21.0200 699.0000 1.0000
21.0300 696.0000 1.0000
21.0400 746.0000 1.0000
21.0500 750.0000 1.0000
21.0600 752.0000 1.0000
21.0700 755.0000 1.0000
21.0800 761.0000 1.0000
21.0900 764.0000 1.0000
21.1000 748.0000 1.0000
21.1100 710.0000 1.0000
21.1200 704.0000 1.0000
21.1300 736.0000 1.0000
21.1400 731.0000 1.0000
21.1500 731.0000 1.0000
21.1600 723.0000 1.0000
21.1700 735.0000 1.0000
21.1800 761.0000 1.0000
21.1900 764.0000 1.0000
21.2000 711.0000 1.0000
21.2100 734.0000 1.0000
21.2200 730.0000 1.0000
21.2300 686.0000 1.0000
21.2400 741.0000 1.0000
21.2500 712.0000 1.0000
21.2600 735.0000 1.0000
21.2700 767.0000 1.0000
21.2800 786.0000 1.0000
21.2900 777.0000 1.0000
21.3000 748.0000 1.0000
21.3100 762.0000 1.0000
21.3200 750.0000 1.0000
21.3300 709.0000 1.0000
21.3400 736.0000 1.0000
21.3500 708.0000 1.0000
21.3600 771.0000 1.0000
21.3700 729.0000 1.0000
21.3800 744.0000 1.0000
21.3900 783.0000 1.0000
21.4000 712.0000 1.0000
21.4100 744.0000 1.0000
21.4200 719.0000 1.0000
21.4300 750.0000 1.0000
21.4400 708.0000 1.0000
21.4500 760.0000 1.0000
21.4600 761.0000 1.0000
21.4700 713.0000 1.0000
21.4800 693.0000 1.0000
21.4900 735.0000 1.0000
21.5000 711.0000 1.0000
21.5100 721.0000 1.0000
21.5200 753.0000 1.0000
21.5300 780.0000 1.0000
21.5400 710.0000 1.0000
21.5500 717.0000 1.0000
21.5600 727.0000 1.0000
21.5700 727.0000 1.0000
21.5800 742.0000 1.0000
21.5900 716.0000 1.0000
21.6000 703.0000 1.0000
21.6100 715.0000 1.0000
21.6200 745.0000 1.0000
21.6300 692.0000 1.0000
21.6400 731.0000 1.0000
21.6500 709.0000 1.0000
21.6600 708.0000 1.0000
21.6700 738.0000 1.0000
21.6800 714.0000 1.0000
21.6900 715.0000 1.0000
21.7000 752.0000 1.0000
21.7100 770.0000 1.0000
21.7200 712.0000 1.0000
21.7300 758.0000 1.0000
21.7400 720.0000 1.0000
21.7500 717.0000 1.0000
21.7600 733.0000 1.0000
21.7700 773.0000 1.0000
21.7800 748.0000 1.0000
21.7900 761.0000 1.0000
21.8000 771.0000 1.0000
21.8100 709.0000 1.0000
21.8200 708.0000 1.0000
21.8300 694.0000 1.0000
21.8400 746.0000 1.0000
21.8500 710.0000 1.0000
21.8600 739.0000 1.0000
21.8700 731.0000 1.0000
21.8800 764.0000 1.0000
21.8900 744.0000 1.0000
21.9000 675.0000 1.0000
21.9100 711.0000 1.0000
21.9200 731.0000 1.0000
21.9300 788.0000 1.0000
21.9400 752.0000 1.0000
21.9500 748.0000 1.0000
21.9600 687.0000 1.0000
21.9700 725.0000 1.0000
21.9800 778.0000 1.0000
21.9900 758.0000 1.0000
22.0000 737.0000 1.0000
22.0100 746.0000 1.0000
22.0200 783.0000 1.0000
22.0300 736.0000 1.0000
22.0400 691.0000 1.0000
22.0500 717.0000 1.0000
22.0600 697.0000 1.0000
22.0700 680.0000 1.0000
22.0800 723.0000 1.0000
22.0900 746.0000 1.0000
22.1000 727.0000 1.0000
22.1100 751.0000 1.0000
22.1200 740.0000 1.0000
22.1300 725.0000 1.0000
22.1400 711.0000 1.0000
22.1500 717.0000 1.0000
22.1600 696.0000 1.0000
22.1700 734.0000 1.0000
22.1800 778.0000 1.0000
22.1900 715.0000 1.0000
22.2000 727.0000 1.0000
22.2100 678.0000 1.0000
22.2200 732.0000 1.0000
22.2300 722.0000 1.0000
22.2400 769.0000 1.0000
22.2500 758.0000 1.0000
22.2600 752.0000 1.0000
22.2700 756.0000 1.0000
22.2800 791.0000 1.0000
22.2900 749.0000 1.0000
22.3000 772.0000 1.0000
22.3100 706.0000 1.0000
22.3200 719.0000 1.0000
22.3300 713.0000 1.0000
22.3400 700.0000 1.0000
22.3500 744.0000 1.0000
22.3600 747.0000 1.0000
22.3700 703.0000 1.0000
22.3800 703.0000 1.0000
22.3900 745.0000 1.0000
22.4000 732.0000 1.0000
22.4100 720.0000 1.0000
22.4200 761.0000 1.0000
22.4300 699.0000 1.0000
22.4400 718.0000 1.0000
22.4500 724.0000 1.0000
22.4600 717.0000 1.0000
22.4700 708.0000 1.0000
22.4800 701.0000 1.0000
22.4900 706.0000 1.0000
22.5000 751.0000 1.0000
22.5100 735.0000 1.0000
22.5200 735.0000 1.0000
22.5300 752.0000 1.0000
22.5400 686.0000 1.0000
22.5500 752.0000 1.0000
22.5600 715.0000 1.0000
22.5700 714.0000 1.0000
22.5800 745.0000 1.0000
22.5900 751.0000 1.0000
22.6000 706.0000 1.0000
22.6100 685.0000 1.0000
22.6200 706.0000 1.0000
22.6300 731.0000 1.0000
22.6400 710.0000 1.0000
22.6500 731.0000 1.0000
22.6600 728.0000 1.0000
22.6700 734.0000 1.0000
22.6800 711.0000 1.0000
22.6900 720.0000 1.0000
22.7000 725.0000 1.0000
22.7100 727.0000 1.0000
22.7200 723.0000 1.0000
22.7300 736.0000 1.0000
22.7400 714.0000 1.0000
22.7500 692.0000 1.0000
22.7600 724.0000 1.0000
22.7700 760.0000 1.0000
22.7800 674.0000 1.0000
22.7900 777.0000 1.0000
22.8000 743.0000 1.0000
22.8100 733.0000 1.0000
22.8200 734.0000 1.0000
22.8300 712.0000 1.0000
22.8400 737.0000 1.0000
22.8500 725.0000 1.0000
22.8600 733.0000 1.0000
22.8700 721.0000 1.0000
22.8800 737.0000 1.0000
22.8900 732.0000 1.0000
22.9000 711.0000 1.0000
22.9100 696.0000 1.0000
22.9200 729.0000 1.0000
22.9300 731.0000 1.0000
22.9400 724.0000 1.0000
22.9500 730.0000 1.0000
22.9600 696.0000 1.0000
22.9700 683.0000 1.0000
22.9800 720.0000 1.0000
22.9900 707.0000 1.0000
23.0000 730.0000 1.0000
23.0100 721.0000 1.0000
23.0200 729.0000 1.0000
23.0300 695.0000 1.0000
23.0400 702.0000 1.0000
23.0500 715.0000 1.0000
23.0600 731.0000 1.0000
23.0700 710.0000 1.0000
23.0800 719.0000 1.0000
23.0900 724.0000 1.0000
23.1000 737.0000 1.0000
23.1100 727.0000 1.0000
23.1200 697.0000 1.0000
23.1300 735.0000 1.0000
23.1400 711.0000 1.0000
23.1500 696.0000 1.0000
23.1600 707.0000 1.0000
23.1700 719.0000 1.0000
23.1800 707.0000 1.0000
23.1900 746.0000 1.0000
23.2000 721.0000 1.0000
23.2100 720.0000 1.0000
23.2200 723.0000 1.0000
23.2300 694.0000 1.0000
23.2400 748.0000 1.0000
23.2500 755.0000 1.0000
23.2600 735.0000 1.0000
23.2700 710.0000 1.0000
23.2800 700.0000 1.0000
23.2900 773.0000 1.0000
23.3000 736.0000 1.0000
23.3100 743.0000 1.0000
23.3200 746.0000 1.0000
23.3300 715.0000 1.0000
23.3400 707.0000 1.0000
23.3500 717.0000 1.0000
23.3600 713.0000 1.0000
23.3700 770.0000 1.0000
23.3800 758.0000 1.0000
23.3900 718.0000 1.0000
23.4000 722.0000 1.0000
23.4100 735.0000 1.0000
23.4200 708.0000 1.0000
23.4300 678.0000 1.0000
23.4400 734.0000 1.0000
23.4500 686.0000 1.0000
23.4600 749.0000 1.0000
23.4700 749.0000 1.0000
23.4800 709.0000 1.0000
23.4900 744.0000 1.0000
23.5000 740.0000 1.0000
23.5100 716.0000 1.0000
23.5200 692.0000 1.0000
23.5300 702.0000 1.0000
23.5400 690.0000 1.0000
23.5500 713.0000 1.0000
23.5600 708.0000 1.0000
23.5700 744.0000 1.0000
23.5800 733.0000 1.0000
23.5900 737.0000 1.0000
23.6000 706.0000 1.0000
23.6100 718.0000 1.0000
23.6200 680.0000 1.0000
23.6300 718.0000 1.0000
23.6400 703.0000 1.0000
23.6500 688.0000 1.0000
23.6600 720.0000 1.0000
23.6700 657.0000 1.0000
23.6800 723.0000 1.0000
23.6900 715.0000 1.0000
23.7000 705.0000 1.0000
23.7100 682.0000 1.0000
23.7200 726.0000 1.0000
23.7300 702.0000 1.0000
23.7400 721.0000 1.0000
23.7500 714.0000 1.0000
23.7600 712.0000 1.0000
23.7700 722.0000 1.0000
23.7800 736.0000 1.0000
23.7900 666.0000 1.0000
23.8000 716.0000 1.0000
23.8100 735.0000 1.0000
23.8200 743.0000 1.0000
23.8300 708.0000 1.0000
23.8400 729.0000 1.0000
23.8500 713.0000 1.0000
23.8600 701.0000 1.0000
23.8700 775.0000 1.0000
23.8800 717.0000 1.0000
23.8900 724.0000 1.0000
23.9000 745.0000 1.0000
23.9100 731.0000 1.0000
23.9200 751.0000 1.0000
23.9300 708.0000 1.0000
23.9400 737.0000 1.0000
23.9500 738.0000 1.0000
23.9600 742.0000 1.0000
23.9700 723.0000 1.0000
23.9800 753.0000 1.0000
23.9900 749.0000 1.0000
24.0000 772.0000 1.0000
24.0100 753.0000 1.0000
24.0200 739.0000 1.0000
24.0300 777.0000 1.0000
24.0400 770.0000 1.0000
24.0500 776.0000 1.0000
24.0600 765.0000 1.0000
24.0700 782.0000 1.0000
24.0800 794.0000 1.0000
24.0900 780.0000 1.0000
24.1000 753.0000 1.0000
24.1100 793.0000 1.0000
24.1200 782.0000 1.0000
24.1300 790.0000 1.0000
24.1400 788.0000 1.0000
24.1500 775.0000 1.0000
24.1600 773.0000 1.0000
24.1700 810.0000 1.0000
24.1800 790.0000 1.0000
24.1900 734.0000 1.0000
24.2000 777.0000 1.0000
24.2100 727.0000 1.0000
24.2200 736.0000 1.0000
24.2300 711.0000 1.0000
24.2400 728.0000 1.0000
24.2500 740.0000 1.0000
24.2600 770.0000 1.0000
24.2700 735.0000 1.0000
24.2800 724.0000 1.0000
24.2900 710.0000 1.0000
24.3000 679.0000 1.0000
24.3100 687.0000 1.0000
24.3200 690.0000 1.0000
24.3300 774.0000 1.0000
24.3400 744.0000 1.0000
24.3500 722.0000 1.0000
24.3600 704.0000 1.0000
24.3700 704.0000 1.0000
24.3800 731.0000 1.0000
24.3900 701.0000 1.0000
24.4000 676.0000 1.0000
24.4100 716.0000 1.0000
24.4200 711.0000 1.0000
24.4300 695.0000 1.0000
24.4400 687.0000 1.0000
24.4500 699.0000 1.0000
24.4600 727.0000 1.0000
24.4700 685.0000 1.0000
24.4800 716.0000 1.0000
24.4900 687.0000 1.0000
24.5000 719.0000 1.0000
24.5100 693.0000 1.0000
24.5200 730.0000 1.0000
24.5300 743.0000 1.0000
24.5400 694.0000 1.0000
24.5500 732.0000 1.0000
24.5600 727.0000 1.0000
24.5700 712.0000 1.0000
24.5800 714.0000 1.0000
24.5900 689.0000 1.0000
24.6000 730.0000 1.0000
24.6100 713.0000 1.0000
24.6200 675.0000 1.0000
24.6300 681.0000 1.0000
24.6400 705.0000 1.0000
24.6500 705.0000 1.0000
24.6600 701.0000 1.0000
24.6700 689.0000 1.0000
24.6800 676.0000 1.0000
24.6900 693.0000 1.0000
24.7000 716.0000 1.0000
24.7100 708.0000 1.0000
24.7200 706.0000 1.0000
24.7300 718.0000 1.0000
24.7400 670.0000 1.0000
24.7500 671.0000 1.0000
24.7600 718.0000 1.0000
24.7700 692.0000 1.0000
24.7800 674.0000 1.0000
24.7900 670.0000 1.0000
24.8000 694.0000 1.0000
24.8100 713.0000 1.0000
24.8200 693.0000 1.0000
24.8300 718.0000 1.0000
24.8400 677.0000 1.0000
24.8500 693.0000 1.0000
24.8600 690.0000 1.0000
24.8700 655.0000 1.0000
24.8800 663.0000 1.0000
24.8900 707.0000 1.0000
24.9000 713.0000 1.0000
24.9100 680.0000 1.0000
24.9200 667.0000 1.0000
24.9300 691.0000 1.0000
24.9400 699.0000 1.0000
24.9500 687.0000 1.0000
24.9600 673.0000 1.0000
24.9700 695.0000 1.0000
24.9800 660.0000 1.0000
24.9900 738.0000 1.0000
25.0000 694.0000 1.0000
25.0100 703.0000 1.0000
25.0200 719.0000 1.0000
25.0300 694.0000 1.0000
25.0400 646.0000 1.0000
25.0500 709.0000 1.0000
25.0600 669.0000 1.0000
25.0700 674.0000 1.0000
25.0800 734.0000 1.0000
25.0900 691.0000 1.0000
25.1000 688.0000 1.0000
25.1100 686.0000 1.0000
25.1200 674.0000 1.0000
25.1300 668.0000 1.0000
25.1400 720.0000 1.0000
25.1500 705.0000 1.0000
25.1600 688.0000 1.0000
25.1700 693.0000 1.0000
25.1800 676.0000 1.0000
25.1900 675.0000 1.0000
25.2000 682.0000 1.0000
25.2100 692.0000 1.0000
25.2200 666.0000 1.0000
25.2300 667.0000 1.0000
25.2400 657.0000 1.0000
25.2500 695.0000 1.0000
25.2600 704.0000 1.0000
25.2700 655.0000 1.0000
25.2800 705.0000 1.0000
25.2900 709.0000 1.0000
25.3000 663.0000 1.0000
25.3100 652.0000 1.0000
25.3200 696.0000 1.0000
25.3300 739.0000 1.0000
25.3400 684.0000 1.0000
25.3500 712.0000 1.0000
25.3600 666.0000 1.0000
25.3700 694.0000 1.0000
25.3800 676.0000 1.0000
25.3900 701.0000 1.0000
25.4000 718.0000 1.0000
25.4100 722.0000 1.0000
25.4200 679.0000 1.0000
25.4300 648.0000 1.0000
25.4400 670.0000 1.0000
25.4500 708.0000 1.0000
25.4600 674.0000 1.0000
25.4700 727.0000 1.0000
25.4800 668.0000 1.0000
25.4900 681.0000 1.0000
25.5000 681.0000 1.0000
25.5100 702.0000 1.0000
25.5200 672.0000 1.0000
25.5300 716.0000 1.0000
25.5400 684.0000 1.0000
25.5500 650.0000 1.0000
25.5600 682.0000 1.0000
25.5700 716.0000 1.0000
25.5800 738.0000 1.0000
25.5900 705.0000 1.0000
25.6000 690.0000 1.0000
25.6100 700.0000 1.0000
25.6200 745.0000 1.0000
25.6300 748.0000 1.0000
25.6400 695.0000 1.0000
25.6500 753.0000 1.0000
25.6600 684.0000 1.0000
25.6700 687.0000 1.0000
25.6800 682.0000 1.0000
25.6900 705.0000 1.0000
25.7000 717.0000 1.0000
25.7100 728.0000 1.0000
25.7200 681.0000 1.0000
25.7300 672.0000 1.0000
25.7400 679.0000 1.0000
25.7500 716.0000 1.0000
25.7600 705.0000 1.0000
25.7700 709.0000 1.0000
25.7800 686.0000 1.0000
25.7900 749.0000 1.0000
25.8000 710.0000 1.0000
25.8100 728.0000 1.0000
25.8200 712.0000 1.0000
25.8300 749.0000 1.0000
25.8400 741.0000 1.0000
25.8500 664.0000 1.0000
25.8600 696.0000 1.0000
25.8700 750.0000 1.0000
25.8800 714.0000 1.0000
25.8900 734.0000 1.0000
25.9000 727.0000 1.0000
25.9100 702.0000 1.0000
25.9200 711.0000 1.0000
25.9300 734.0000 1.0000
25.9400 713.0000 1.0000
25.9500 714.0000 1.0000
25.9600 713.0000 1.0000
25.9700 725.0000 1.0000
25.9800 774.0000 1.0000
25.9900 724.0000 1.0000
26.0000 727.0000 1.0000
26.0100 739.0000 1.0000
26.0200 726.0000 1.0000
26.0300 735.0000 1.0000
26.0400 781.0000 1.0000
26.0500 797.0000 1.0000
26.0600 790.0000 1.0000
26.0700 779.0000 1.0000
26.0800 717.0000 1.0000
26.0900 768.0000 1.0000
26.1000 799.0000 1.0000
26.1100 813.0000 1.0000
26.1200 787.0000 1.0000
26.1300 776.0000 1.0000
26.1400 789.0000 1.0000
26.1500 774.0000 1.0000
26.1600 813.0000 1.0000
26.1700 837.0000 1.0000
26.1800 885.0000 1.0000
26.1900 852.0000 1.0000
26.2000 891.0000 1.0000
26.2100 833.0000 1.0000
26.2200 852.0000 1.0000
26.2300 875.0000 1.0000
26.2400 938.0000 1.0000
26.2500 908.0000 1.0000
26.2600 963.0000 1.0000
26.2700 964.0000 1.0000
26.2800 981.0000 1.0000
26.2900 1022.0000 1.0000
26.3000 1050.0000 1.0000
26.3100 1060.0000 1.0000
26.3200 1122.0000 1.0000
26.3300 1096.0000 1.0000
26.3400 1160.0000 1.0000
26.3500 1138.0000 1.0000
26.3600 1205.0000 1.0000
26.3700 1253.0000 1.0000
26.3800 1232.0000 1.0000
26.3900 1302.0000 1.0000
26.4000 1344.0000 1.0000
26.4100 1341.0000 1.0000
26.4200 1411.0000 1.0000
26.4300 1389.0000 1.0000
26.4400 1343.0000 1.0000
26.4500 1444.0000 1.0000
26.4600 1394.0000 1.0000
26.4700 1411.0000 1.0000
26.4800 1419.0000 1.0000
26.4900 1356.0000 1.0000
26.5000 1348.0000 1.0000
26.5100 1309.0000 1.0000
26.5200 1286.0000 1.0000
26.5300 1251.0000 1.0000
26.5400 1227.0000 1.0000
26.5500 1201.0000 1.0000
26.5600 1147.0000 1.0000
26.5700 1120.0000 1.0000
26.5800 1099.0000 1.0000
26.5900 1089.0000 1.0000
26.6000 1042.0000 1.0000
26.6100 1005.0000 1.0000
26.6200 991.0000 1.0000
26.6300 993.0000 1.0000
26.6400 968.0000 1.0000
26.6500 920.0000 1.0000
26.6600 919.0000 1.0000
26.6700 902.0000 1.0000
26.6800 866.0000 1.0000
26.6900 871.0000 1.0000
26.7000 848.0000 1.0000
26.7100 856.0000 1.0000
26.7200 833.0000 1.0000
26.7300 809.0000 1.0000
26.7400 789.0000 1.0000
26.7500 796.0000 1.0000
26.7600 808.0000 1.0000
26.7700 763.0000 1.0000
26.7800 808.0000 1.0000
26.7900 760.0000 1.0000
26.8000 769.0000 1.0000
26.8100 767.0000 1.0000
26.8200 735.0000 1.0000
26.8300 732.0000 1.0000
26.8400 770.0000 1.0000
26.8500 712.0000 1.0000
26.8600 717.0000 1.0000
26.8700 761.0000 1.0000
26.8800 735.0000 1.0000
26.8900 714.0000 1.0000
26.9000 730.0000 1.0000
26.9100 744.0000 1.0000
26.9200 712.0000 1.0000
26.9300 710.0000 1.0000
26.9400 696.0000 1.0000
26.9500 682.0000 1.0000
26.9600 709.0000 1.0000
26.9700 682.0000 1.0000
26.9800 715.0000 1.0000
26.9900 707.0000 1.0000
27.0000 761.0000 1.0000
27.0100 736.0000 1.0000
27.0200 658.0000 1.0000
27.0300 697.0000 1.0000
27.0400 670.0000 1.0000
27.0500 702.0000 1.0000
27.0600 694.0000 1.0000
27.0700 664.0000 1.0000
27.0800 680.0000 1.0000
27.0900 672.0000 1.0000
27.1000 673.0000 1.0000
27.1100 678.0000 1.0000
27.1200 634.0000 1.0000
27.1300 657.0000 1.0000
27.1400 671.0000 1.0000
27.1500 654.0000 1.0000
27.1600 638.0000 1.0000
27.1700 682.0000 1.0000
27.1800 642.0000 1.0000
27.1900 665.0000 1.0000
27.2000 656.0000 1.0000
27.2100 686.0000 1.0000
27.2200 634.0000 1.0000
27.2300 685.0000 1.0000
27.2400 661.0000 1.0000
27.2500 640.0000 1.0000
27.2600 669.0000 1.0000
27.2700 674.0000 1.0000
27.2800 684.0000 1.0000
27.2900 672.0000 1.0000
27.3000 644.0000 1.0000
27.3100 616.0000 1.0000
27.3200 662.0000 1.0000
27.3300 661.0000 1.0000
27.3400 643.0000 1.0000
27.3500 662.0000 1.0000
27.3600 622.0000 1.0000
27.3700 634.0000 1.0000
27.3800 589.0000 1.0000
27.3900 645.0000 1.0000
27.4000 629.0000 1.0000
27.4100 637.0000 1.0000
27.4200 633.0000 1.0000
27.4300 649.0000 1.0000
27.4400 652.0000 1.0000
27.4500 656.0000 1.0000
27.4600 654.0000 1.0000
27.4700 640.0000 1.0000
27.4800 614.0000 1.0000
27.4900 645.0000 1.0000
27.5000 631.0000 1.0000
27.5100 628.0000 1.0000
27.5200 628.0000 1.0000
27.5300 626.0000 1.0000
27.5400 631.0000 1.0000
27.5500 623.0000 1.0000
27.5600 597.0000 1.0000
27.5700 653.0000 1.0000
27.5800 597.0000 1.0000
27.5900 628.0000 1.0000
27.6000 643.0000 1.0000
27.6100 639.0000 1.0000
27.6200 650.0000 1.0000
27.6300 622.0000 1.0000
27.6400 616.0000 1.0000
27.6500 620.0000 1.0000
27.6600 627.0000 1.0000
27.6700 613.0000 1.0000
27.6800 615.0000 1.0000
27.6900 608.0000 1.0000
27.7000 654.0000 1.0000
27.7100 650.0000 1.0000
27.7200 670.0000 1.0000
27.7300 645.0000 1.0000
27.7400 632.0000 1.0000
27.7500 623.0000 1.0000
27.7600 563.0000 1.0000
27.7700 602.0000 1.0000
27.7800 623.0000 1.0000
27.7900 601.0000 1.0000
27.8000 611.0000 1.0000
27.8100 623.0000 1.0000
27.8200 612.0000 1.0000
27.8300 600.0000 1.0000
27.8400 590.0000 1.0000
27.8500 589.0000 1.0000
27.8600 585.0000 1.0000
27.8700 571.0000 1.0000
27.8800 604.0000 1.0000
27.8900 602.0000 1.0000
27.9000 607.0000 1.0000
27.9100 615.0000 1.0000
27.9200 616.0000 1.0000
27.9300 605.0000 1.0000
27.9400 619.0000 1.0000
27.9500 589.0000 1.0000
27.9600 580.0000 1.0000
27.9700 629.0000 1.0000
27.9800 631.0000 1.0000
27.9900 626.0000 1.0000
28.0000 603.0000 1.0000
28.0100 601.0000 1.0000
28.0200 629.0000 1.0000
28.0300 616.0000 1.0000
28.0400 609.0000 1.0000
28.0500 594.0000 1.0000
28.0600 590.0000 1.0000
28.0700 629.0000 1.0000
28.0800 599.0000 1.0000
28.0900 606.0000 1.0000
28.1000 590.0000 1.0000
28.1100 606.0000 1.0000
28.1200 638.0000 1.0000
28.1300 609.0000 1.0000
28.1400 599.0000 1.0000
28.1500 543.0000 1.0000
28.1600 627.0000 1.0000
28.1700 641.0000 1.0000
28.1800 627.0000 1.0000
28.1900 596.0000 1.0000
28.2000 636.0000 1.0000
28.2100 604.0000 1.0000
28.2200 622.0000 1.0000
28.2300 570.0000 1.0000
28.2400 579.0000 1.0000
28.2500 587.0000 1.0000
28.2600 626.0000 1.0000
28.2700 592.0000 1.0000
28.2800 618.0000 1.0000
28.2900 586.0000 1.0000
28.3000 641.0000 1.0000
28.3100 581.0000 1.0000
28.3200 540.0000 1.0000
28.3300 590.0000 1.0000
28.3400 624.0000 1.0000
28.3500 566.0000 1.0000
28.3600 572.0000 1.0000
28.3700 563.0000 1.0000
28.3800 598.0000 1.0000
28.3900 574.0000 1.0000
28.4000 605.0000 1.0000
28.4100 597.0000 1.0000
28.4200 582.0000 1.0000
28.4300 619.0000 1.0000
28.4400 588.0000 1.0000
28.4500 580.0000 1.0000
28.4600 573.0000 1.0000
28.4700 643.0000 1.0000
28.4800 602.0000 1.0000
28.4900 605.0000 1.0000
28.5000 608.0000 1.0000
28.5100 620.0000 1.0000
28.5200 654.0000 1.0000
28.5300 577.0000 1.0000
28.5400 606.0000 1.0000
28.5500 603.0000 1.0000
28.5600 604.0000 1.0000
28.5700 571.0000 1.0000
28.5800 590.0000 1.0000
28.5900 604.0000 1.0000
28.6000 582.0000 1.0000
28.6100 594.0000 1.0000
28.6200 586.0000 1.0000
28.6300 574.0000 1.0000
28.6400 586.0000 1.0000
28.6500 571.0000 1.0000
28.6600 606.0000 1.0000
28.6700 578.0000 1.0000
28.6800 589.0000 1.0000
28.6900 596.0000 1.0000
28.7000 563.0000 1.0000
28.7100 612.0000 1.0000
28.7200 622.0000 1.0000
28.7300 591.0000 1.0000
28.7400 580.0000 1.0000
28.7500 570.0000 1.0000
28.7600 584.0000 1.0000
28.7700 567.0000 1.0000
28.7800 563.0000 1.0000
28.7900 569.0000 1.0000
28.8000 582.0000 1.0000
28.8100 571.0000 1.0000
28.8200 599.0000 1.0000
28.8300 588.0000 1.0000
28.8400 549.0000 1.0000
28.8500 594.0000 1.0000
28.8600 566.0000 1.0000
28.8700 583.0000 1.0000
28.8800 593.0000 1.0000
28.8900 582.0000 1.0000
28.9000 552.0000 1.0000
28.9100 589.0000 1.0000
28.9200 600.0000 1.0000
28.9300 594.0000 1.0000
28.9400 554.0000 1.0000
28.9500 552.0000 1.0000
28.9600 589.0000 1.0000
28.9700 585.0000 1.0000
28.9800 574.0000 1.0000
28.9900 527.0000 1.0000
29.0000 571.0000 1.0000
29.0100 617.0000 1.0000
29.0200 549.0000 1.0000
29.0300 570.0000 1.0000
29.0400 585.0000 1.0000
29.0500 613.0000 1.0000
29.0600 628.0000 1.0000
29.0700 604.0000 1.0000
29.0800 563.0000 1.0000
29.0900 594.0000 1.0000
29.1000 548.0000 1.0000
29.1100 560.0000 1.0000
29.1200 574.0000 1.0000
29.1300 579.0000 1.0000
29.1400 561.0000 1.0000
29.1500 620.0000 1.0000
29.1600 587.0000 1.0000
29.1700 560.0000 1.0000
29.1800 617.0000 1.0000
29.1900 602.0000 1.0000
29.2000 616.0000 1.0000
29.2100 560.0000 1.0000
29.2200 557.0000 1.0000
29.2300 562.0000 1.0000
29.2400 577.0000 1.0000
29.2500 613.0000 1.0000
29.2600 566.0000 1.0000
29.2700 554.0000 1.0000
29.2800 554.0000 1.0000
29.2900 584.0000 1.0000
29.3000 541.0000 1.0000
29.3100 592.0000 1.0000
29.3200 605.0000 1.0000
29.3300 587.0000 1.0000
29.3400 605.0000 1.0000
29.3500 586.0000 1.0000
29.3600 570.0000 1.0000
29.3700 580.0000 1.0000
29.3800 568.0000 1.0000
29.3900 553.0000 1.0000
29.4000 584.0000 1.0000
29.4100 584.0000 1.0000
29.4200 573.0000 1.0000
29.4300 544.0000 1.0000
29.4400 591.0000 1.0000
29.4500 585.0000 1.0000
29.4600 592.0000 1.0000
29.4700 544.0000 1.0000
29.4800 586.0000 1.0000
29.4900 570.0000 1.0000
29.5000 597.0000 1.0000
29.5100 601.0000 1.0000
29.5200 576.0000 1.0000
29.5300 539.0000 1.0000
29.5400 636.0000 1.0000
29.5500 576.0000 1.0000
29.5600 583.0000 1.0000
29.5700 554.0000 1.0000
29.5800 580.0000 1.0000
29.5900 586.0000 1.0000
29.6000 571.0000 1.0000
29.6100 575.0000 1.0000
29.6200 571.0000 1.0000
29.6300 571.0000 1.0000
29.6400 537.0000 1.0000
29.6500 551.0000 1.0000
29.6600 554.0000 1.0000
29.6700 577.0000 1.0000
29.6800 578.0000 1.0000
29.6900 574.0000 1.0000
29.7000 577.0000 1.0000
29.7100 538.0000 1.0000
29.7200 555.0000 1.0000
29.7300 583.0000 1.0000
29.7400 565.0000 1.0000
29.7500 558.0000 1.0000
29.7600 548.0000 1.0000
29.7700 603.0000 1.0000
29.7800 617.0000 1.0000
29.7900 541.0000 1.0000
29.8000 527.0000 1.0000
29.8100 536.0000 1.0000
29.8200 562.0000 1.0000
29.8300 544.0000 1.0000
29.8400 572.0000 1.0000
29.8500 587.0000 1.0000
29.8600 546.0000 1.0000
29.8700 599.0000 1.0000
29.8800 558.0000 1.0000
29.8900 509.0000 1.0000
29.9000 544.0000 1.0000
29.9100 537.0000 1.0000
29.9200 593.0000 1.0000
29.9300 563.0000 1.0000
29.9400 556.0000 1.0000
29.9500 531.0000 1.0000
29.9600 517.0000 1.0000
29.9700 519.0000 1.0000
29.9800 537.0000 1.0000
29.9900 523.0000 1.0000
30.0000 531.0000 1.0000
30.0100 569.0000 1.0000
30.0200 590.0000 1.0000
30.0300 564.0000 1.0000
30.0400 571.0000 1.0000
30.0500 500.0000 1.0000
30.0600 497.0000 1.0000
30.0700 534.0000 1.0000
30.0800 532.0000 1.0000
30.0900 556.0000 1.0000
30.1000 604.0000 1.0000
30.1100 587.0000 1.0000
30.1200 523.0000 1.0000
30.1300 502.0000 1.0000
30.1400 563.0000 1.0000
30.1500 540.0000 1.0000
30.1600 553.0000 1.0000
30.1700 568.0000 1.0000
30.1800 554.0000 1.0000
30.1900 570.0000 1.0000
30.2000 546.0000 1.0000
30.2100 542.0000 1.0000
30.2200 555.0000 1.0000
30.2300 561.0000 1.0000
30.2400 547.0000 1.0000
30.2500 535.0000 1.0000
30.2600 548.0000 1.0000
30.2700 531.0000 1.0000
30.2800 560.0000 1.0000
30.2900 579.0000 1.0000
30.3000 533.0000 1.0000
30.3100 539.0000 1.0000
30.3200 535.0000 1.0000
30.3300 548.0000 1.0000
30.3400 566.0000 1.0000
30.3500 539.0000 1.0000
30.3600 534.0000 1.0000
30.3700 539.0000 1.0000
30.3800 531.0000 1.0000
30.3900 530.0000 1.0000
30.4000 554.0000 1.0000
30.4100 560.0000 1.0000
30.4200 530.0000 1.0000
30.4300 530.0000 1.0000
30.4400 534.0000 1.0000
30.4500 583.0000 1.0000
30.4600 551.0000 1.0000
30.4700 551.0000 1.0000
30.4800 587.0000 1.0000
30.4900 576.0000 1.0000
30.5000 531.0000 1.0000
30.5100 528.0000 1.0000
30.5200 520.0000 1.0000
30.5300 528.0000 1.0000
30.5400 553.0000 1.0000
30.5500 562.0000 1.0000
30.5600 553.0000 1.0000
30.5700 557.0000 1.0000
30.5800 508.0000 1.0000
30.5900 528.0000 1.0000
30.6000 550.0000 1.0000
30.6100 508.0000 1.0000
30.6200 511.0000 1.0000
30.6300 505.0000 1.0000
30.6400 520.0000 1.0000
30.6500 508.0000 1.0000
30.6600 555.0000 1.0000
30.6700 525.0000 1.0000
30.6800 525.0000 1.0000
30.6900 523.0000 1.0000
30.7000 550.0000 1.0000
30.7100 564.0000 1.0000
30.7200 572.0000 1.0000
30.7300 570.0000 1.0000
30.7400 547.0000 1.0000
30.7500 563.0000 1.0000
30.7600 529.0000 1.0000
30.7700 485.0000 1.0000
30.7800 498.0000 1.0000
30.7900 532.0000 1.0000
30.8000 538.0000 1.0000
30.8100 525.0000 1.0000
30.8200 501.0000 1.0000
30.8300 523.0000 1.0000
30.8400 552.0000 1.0000
30.8500 552.0000 1.0000
30.8600 538.0000 1.0000
30.8700 497.0000 1.0000
30.8800 520.0000 1.0000
30.8900 526.0000 1.0000
30.9000 504.0000 1.0000
30.9100 525.0000 1.0000
30.9200 511.0000 1.0000
30.9300 543.0000 1.0000
30.9400 505.0000 1.0000
30.9500 533.0000 1.0000
30.9600 490.0000 1.0000
30.9700 502.0000 1.0000
30.9800 572.0000 1.0000
30.9900 555.0000 1.0000
31.0000 568.0000 1.0000
31.0100 557.0000 1.0000
31.0200 562.0000 1.0000
31.0300 572.0000 1.0000
31.0400 534.0000 1.0000
31.0500 542.0000 1.0000
31.0600 522.0000 1.0000
31.0700 530.0000 1.0000
31.0800 572.0000 1.0000
31.0900 545.0000 1.0000
31.1000 569.0000 1.0000
31.1100 534.0000 1.0000
31.1200 559.0000 1.0000
31.1300 567.0000 1.0000
31.1400 570.0000 1.0000
31.1500 578.0000 1.0000
31.1600 532.0000 1.0000
31.1700 567.0000 1.0000
31.1800 572.0000 1.0000
31.1900 584.0000 1.0000
31.2000 563.0000 1.0000
31.2100 556.0000 1.0000
31.2200 533.0000 1.0000
31.2300 555.0000 1.0000
31.2400 558.0000 1.0000
31.2500 579.0000 1.0000
31.2600 569.0000 1.0000
31.2700 556.0000 1.0000
31.2800 506.0000 1.0000
31.2900 534.0000 1.0000
31.3000 558.0000 1.0000
31.3100 527.0000 1.0000
31.3200 557.0000 1.0000
31.3300 563.0000 1.0000
31.3400 546.0000 1.0000
31.3500 570.0000 1.0000
31.3600 519.0000 1.0000
31.3700 530.0000 1.0000
31.3800 500.0000 1.0000
31.3900 494.0000 1.0000
31.4000 522.0000 1.0000
31.4100 526.0000 1.0000
31.4200 533.0000 1.0000
31.4300 540.0000 1.0000
31.4400 525.0000 1.0000
31.4500 531.0000 1.0000
31.4600 519.0000 1.0000
31.4700 525.0000 1.0000
31.4800 518.0000 1.0000
31.4900 541.0000 1.0000
31.5000 540.0000 1.0000
31.5100 508.0000 1.0000
31.5200 520.0000 1.0000
31.5300 512.0000 1.0000
31.5400 511.0000 1.0000
31.5500 520.0000 1.0000
31.5600 526.0000 1.0000
31.5700 570.0000 1.0000
31.5800 554.0000 1.0000
31.5900 491.0000 1.0000
31.6000 513.0000 1.0000
31.6100 531.0000 1.0000
31.6200 519.0000 1.0000
31.6300 532.0000 1.0000
31.6400 542.0000 1.0000
31.6500 551.0000 1.0000
31.6600 529.0000 1.0000
31.6700 534.0000 1.0000
31.6800 572.0000 1.0000
31.6900 523.0000 1.0000
31.7000 483.0000 1.0000
31.7100 527.0000 1.0000
31.7200 491.0000 1.0000
31.7300 509.0000 1.0000
31.7400 541.0000 1.0000
31.7500 513.0000 1.0000
31.7600 495.0000 1.0000
31.7700 509.0000 1.0000
31.7800 569.0000 1.0000
31.7900 538.0000 1.0000
31.8000 546.0000 1.0000
31.8100 538.0000 1.0000
31.8200 531.0000 1.0000
31.8300 494.0000 1.0000
31.8400 511.0000 1.0000
31.8500 556.0000 1.0000
31.8600 514.0000 1.0000
31.8700 515.0000 1.0000
31.8800 541.0000 1.0000
31.8900 497.0000 1.0000
31.9000 504.0000 1.0000
31.9100 513.0000 1.0000
31.9200 519.0000 1.0000
31.9300 490.0000 1.0000
31.9400 471.0000 1.0000
31.9500 512.0000 1.0000
31.9600 502.0000 1.0000
31.9700 522.0000 1.0000
31.9800 549.0000 1.0000
31.9900 536.0000 1.0000
32.0000 520.0000 1.0000
32.0100 456.0000 1.0000
32.0200 506.0000 1.0000
32.0300 513.0000 1.0000
32.0400 519.0000 1.0000
32.0500 494.0000 1.0000
32.0600 486.0000 1.0000
32.0700 522.0000 1.0000
32.0800 529.0000 1.0000
32.0900 536.0000 1.0000
32.1000 525.0000 1.0000
32.1100 510.0000 1.0000
32.1200 498.0000 1.0000
32.1300 516.0000 1.0000
32.1400 499.0000 1.0000
32.1500 487.0000 1.0000
32.1600 483.0000 1.0000
32.1700 491.0000 1.0000
32.1800 497.0000 1.0000
32.1900 511.0000 1.0000
32.2000 530.0000 1.0000
32.2100 519.0000 1.0000
32.2200 472.0000 1.0000
32.2300 475.0000 1.0000
32.2400 505.0000 1.0000
32.2500 526.0000 1.0000
32.2600 503.0000 1.0000
32.2700 491.0000 1.0000
32.2800 498.0000 1.0000
32.2900 518.0000 1.0000
32.3000 517.0000 1.0000
32.3100 533.0000 1.0000
32.3200 499.0000 1.0000
32.3300 512.0000 1.0000
32.3400 475.0000 1.0000
32.3500 504.0000 1.0000
32.3600 488.0000 1.0000
32.3700 528.0000 1.0000
32.3800 522.0000 1.0000
32.3900 534.0000 1.0000
32.4000 487.0000 1.0000
32.4100 474.0000 1.0000
32.4200 525.0000 1.0000
32.4300 487.0000 1.0000
32.4400 458.0000 1.0000
32.4500 521.0000 1.0000
32.4600 507.0000 1.0000
32.4700 514.0000 1.0000
32.4800 492.0000 1.0000
32.4900 511.0000 1.0000
32.5000 500.0000 1.0000
32.5100 499.0000 1.0000
32.5200 548.0000 1.0000
32.5300 522.0000 1.0000
32.5400 472.0000 1.0000
32.5500 505.0000 1.0000
32.5600 479.0000 1.0000
32.5700 502.0000 1.0000
32.5800 482.0000 1.0000
32.5900 485.0000 1.0000
32.6000 514.0000 1.0000
32.6100 495.0000 1.0000
32.6200 494.0000 1.0000
32.6300 527.0000 1.0000
32.6400 512.0000 1.0000
32.6500 500.0000 1.0000
32.6600 535.0000 1.0000
32.6700 523.0000 1.0000
32.6800 520.0000 1.0000
32.6900 494.0000 1.0000
32.7000 535.0000 1.0000
32.7100 504.0000 1.0000
32.7200 484.0000 1.0000
32.7300 482.0000 1.0000
32.7400 493.0000 1.0000
32.7500 545.0000 1.0000
32.7600 510.0000 1.0000
32.7700 498.0000 1.0000
32.7800 511.0000 1.0000
32.7900 492.0000 1.0000
32.8000 499.0000 1.0000
32.8100 502.0000 1.0000
32.8200 502.0000 1.0000
32.8300 461.0000 1.0000
32.8400 488.0000 1.0000
32.8500 510.0000 1.0000
32.8600 485.0000 1.0000
32.8700 513.0000 1.0000
32.8800 498.0000 1.0000
32.8900 496.0000 1.0000
32.9000 517.0000 1.0000
32.9100 513.0000 1.0000
32.9200 515.0000 1.0000
32.9300 530.0000 1.0000
32.9400 557.0000 1.0000
32.9500 545.0000 1.0000
32.9600 524.0000 1.0000
32.9700 562.0000 1.0000
32.9800 570.0000 1.0000
32.9900 545.0000 1.0000
33.0000 596.0000 1.0000
33.0100 583.0000 1.0000
33.0200 569.0000 1.0000
33.0300 577.0000 1.0000
33.0400 572.0000 1.0000
33.0500 552.0000 1.0000
33.0600 597.0000 1.0000
33.0700 563.0000 1.0000
33.0800 592.0000 1.0000
33.0900 627.0000 1.0000
33.1000 635.0000 1.0000
33.1100 613.0000 1.0000
33.1200 608.0000 1.0000
33.1300 583.0000 1.0000
33.1400 570.0000 1.0000
33.1500 561.0000 1.0000
33.1600 610.0000 1.0000
33.1700 578.0000 1.0000
33.1800 591.0000 1.0000
33.1900 616.0000 1.0000
33.2000 576.0000 1.0000
33.2100 538.0000 1.0000
33.2200 568.0000 1.0000
33.2300 587.0000 1.0000
33.2400 529.0000 1.0000
33.2500 558.0000 1.0000
33.2600 540.0000 1.0000
33.2700 541.0000 1.0000
33.2800 560.0000 1.0000
33.2900 558.0000 1.0000
33.3000 588.0000 1.0000
33.3100 556.0000 1.0000
33.3200 554.0000 1.0000
33.3300 543.0000 1.0000
33.3400 554.0000 1.0000
33.3500 541.0000 1.0000
33.3600 512.0000 1.0000
33.3700 579.0000 1.0000
33.3800 509.0000 1.0000
33.3900 548.0000 1.0000
33.4000 539.0000 1.0000
33.4100 556.0000 1.0000
33.4200 608.0000 1.0000
33.4300 569.0000 1.0000
33.4400 571.0000 1.0000
33.4500 550.0000 1.0000
33.4600 553.0000 1.0000
33.4700 561.0000 1.0000
33.4800 529.0000 1.0000
33.4900 573.0000 1.0000
33.5000 635.0000 1.0000
33.5100 572.0000 1.0000
33.5200 586.0000 1.0000
33.5300 615.0000 1.0000
33.5400 608.0000 1.0000
33.5500 565.0000 1.0000
33.5600 588.0000 1.0000
33.5700 629.0000 1.0000
33.5800 666.0000 1.0000
33.5900 658.0000 1.0000
33.6000 643.0000 1.0000
33.6100 661.0000 1.0000
33.6200 683.0000 1.0000
33.6300 704.0000 1.0000
33.6400 671.0000 1.0000
33.6500 669.0000 1.0000
33.6600 647.0000 1.0000
33.6700 656.0000 1.0000
33.6800 694.0000 1.0000
33.6900 681.0000 1.0000
33.7000 664.0000 1.0000
33.7100 646.0000 1.0000
33.7200 655.0000 1.0000
33.7300 657.0000 1.0000
33.7400 646.0000 1.0000
33.7500 643.0000 1.0000
33.7600 614.0000 1.0000
33.7700 606.0000 1.0000
33.7800 646.0000 1.0000
33.7900 584.0000 1.0000
33.8000 602.0000 1.0000
33.8100 613.0000 1.0000
33.8200 624.0000 1.0000
33.8300 588.0000 1.0000
33.8400 608.0000 1.0000
33.8500 535.0000 1.0000
33.8600 601.0000 1.0000
33.8700 579.0000 1.0000
33.8800 542.0000 1.0000
33.8900 563.0000 1.0000
33.9000 565.0000 1.0000
33.9100 552.0000 1.0000
33.9200 569.0000 1.0000
33.9300 562.0000 1.0000
33.9400 559.0000 1.0000
33.9500 539.0000 1.0000
33.9600 515.0000 1.0000
33.9700 539.0000 1.0000
33.9800 520.0000 1.0000
33.9900 537.0000 1.0000
34.0000 536.0000 1.0000
34.0100 500.0000 1.0000
34.0200 527.0000 1.0000
34.0300 510.0000 1.0000
34.0400 518.0000 1.0000
34.0500 536.0000 1.0000
34.0600 513.0000 1.0000
34.0700 518.0000 1.0000
34.0800 503.0000 1.0000
34.0900 491.0000 1.0000
34.1000 503.0000 1.0000
34.1100 484.0000 1.0000
34.1200 488.0000 1.0000
34.1300 509.0000 1.0000
34.1400 497.0000 1.0000
34.1500 486.0000 1.0000
34.1600 456.0000 1.0000
34.1700 513.0000 1.0000
34.1800 470.0000 1.0000
34.1900 495.0000 1.0000
34.2000 462.0000 1.0000
34.2100 470.0000 1.0000
34.2200 496.0000 1.0000
34.2300 474.0000 1.0000
34.2400 481.0000 1.0000
34.2500 445.0000 1.0000
34.2600 455.0000 1.0000
34.2700 484.0000 1.0000
34.2800 477.0000 1.0000
34.2900 514.0000 1.0000
34.3000 487.0000 1.0000
34.3100 437.0000 1.0000
34.3200 482.0000 1.0000
34.3300 456.0000 1.0000
34.3400 474.0000 1.0000
34.3500 459.0000 1.0000
34.3600 449.0000 1.0000
34.3700 463.0000 1.0000
34.3800 477.0000 1.0000
34.3900 453.0000 1.0000
34.4000 458.0000 1.0000
34.4100 490.0000 1.0000
34.4200 466.0000 1.0000
34.4300 465.0000 1.0000
34.4400 490.0000 1.0000
34.4500 484.0000 1.0000
34.4600 463.0000 1.0000
34.4700 448.0000 1.0000
34.4800 472.0000 1.0000
34.4900 472.0000 1.0000
34.5000 461.0000 1.0000
34.5100 426.0000 1.0000
34.5200 446.0000 1.0000
34.5300 432.0000 1.0000
34.5400 436.0000 1.0000
34.5500 457.0000 1.0000
34.5600 481.0000 1.0000
34.5700 432.0000 1.0000
34.5800 458.0000 1.0000
34.5900 425.0000 1.0000
34.6000 432.0000 1.0000
34.6100 472.0000 1.0000
34.6200 451.0000 1.0000
34.6300 443.0000 1.0000
34.6400 466.0000 1.0000
34.6500 444.0000 1.0000
34.6600 444.0000 1.0000
34.6700 419.0000 1.0000
34.6800 424.0000 1.0000
34.6900 435.0000 1.0000
34.7000 452.0000 1.0000
34.7100 471.0000 1.0000
34.7200 437.0000 1.0000
34.7300 433.0000 1.0000
34.7400 412.0000 1.0000
34.7500 426.0000 1.0000
34.7600 421.0000 1.0000
34.7700 428.0000 1.0000
34.7800 451.0000 1.0000
34.7900 456.0000 1.0000
34.8000 420.0000 1.0000
34.8100 433.0000 1.0000
34.8200 427.0000 1.0000
34.8300 466.0000 1.0000
34.8400 457.0000 1.0000
34.8500 413.0000 1.0000
34.8600 426.0000 1.0000
34.8700 407.0000 1.0000
34.8800 418.0000 1.0000
34.8900 440.0000 1.0000
34.9000 467.0000 1.0000
34.9100 442.0000 1.0000
34.9200 458.0000 1.0000
34.9300 436.0000 1.0000
34.9400 445.0000 1.0000
34.9500 467.0000 1.0000
34.9600 444.0000 1.0000
34.9700 464.0000 1.0000
34.9800 464.0000 1.0000
34.9900 424.0000 1.0000
35.0000 416.0000 1.0000
35.0100 455.0000 1.0000
35.0200 434.0000 1.0000
35.0300 435.0000 1.0000
35.0400 486.0000 1.0000
35.0500 456.0000 1.0000
35.0600 475.0000 1.0000
35.0700 433.0000 1.0000
35.0800 420.0000 1.0000
35.0900 401.0000 1.0000
35.1000 427.0000 1.0000
35.1100 447.0000 1.0000
35.1200 423.0000 1.0000
35.1300 448.0000 1.0000
35.1400 455.0000 1.0000
35.1500 436.0000 1.0000
35.1600 445.0000 1.0000
35.1700 448.0000 1.0000
35.1800 438.0000 1.0000
35.1900 434.0000 1.0000
35.2000 476.0000 1.0000
35.2100 434.0000 1.0000
35.2200 423.0000 1.0000
35.2300 463.0000 1.0000
35.2400 445.0000 1.0000
35.2500 452.0000 1.0000
35.2600 481.0000 1.0000
35.2700 458.0000 1.0000
35.2800 487.0000 1.0000
35.2900 512.0000 1.0000
35.3000 496.0000 1.0000
35.3100 508.0000 1.0000
35.3200 488.0000 1.0000
35.3300 474.0000 1.0000
35.3400 482.0000 1.0000
35.3500 533.0000 1.0000
35.3600 533.0000 1.0000
35.3700 517.0000 1.0000
35.3800 516.0000 1.0000
35.3900 533.0000 1.0000
35.4000 526.0000 1.0000
35.4100 571.0000 1.0000
35.4200 580.0000 1.0000
35.4300 531.0000 1.0000
35.4400 639.0000 1.0000
35.4500 646.0000 1.0000
35.4600 658.0000 1.0000
35.4700 674.0000 1.0000
35.4800 661.0000 1.0000
35.4900 710.0000 1.0000
35.5000 728.0000 1.0000
35.5100 787.0000 1.0000
35.5200 789.0000 1.0000
35.5300 804.0000 1.0000
35.5400 851.0000 1.0000
35.5500 857.0000 1.0000
35.5600 904.0000 1.0000
35.5700 860.0000 1.0000
35.5800 908.0000 1.0000
35.5900 885.0000 1.0000
35.6000 839.0000 1.0000
35.6100 916.0000 1.0000
35.6200 967.0000 1.0000
35.6300 886.0000 1.0000
35.6400 801.0000 1.0000
35.6500 791.0000 1.0000
35.6600 744.0000 1.0000
35.6700 716.0000 1.0000
35.6800 678.0000 1.0000
35.6900 666.0000 1.0000
35.7000 703.0000 1.0000
35.7100 678.0000 1.0000
35.7200 653.0000 1.0000
35.7300 598.0000 1.0000
35.7400 602.0000 1.0000
35.7500 558.0000 1.0000
35.7600 571.0000 1.0000
35.7700 565.0000 1.0000
35.7800 525.0000 1.0000
35.7900 503.0000 1.0000
35.8000 504.0000 1.0000
35.8100 469.0000 1.0000
35.8200 487.0000 1.0000
35.8300 462.0000 1.0000
35.8400 477.0000 1.0000
35.8500 462.0000 1.0000
35.8600 496.0000 1.0000
35.8700 478.0000 1.0000
35.8800 456.0000 1.0000
35.8900 420.0000 1.0000
35.9000 437.0000 1.0000
35.9100 453.0000 1.0000
35.9200 450.0000 1.0000
35.9300 432.0000 1.0000
35.9400 407.0000 1.0000
35.9500 430.0000 1.0000
35.9600 447.0000 1.0000
35.9700 434.0000 1.0000
35.9800 401.0000 1.0000
35.9900 408.0000 1.0000
36.0000 407.0000 1.0000
36.0100 416.0000 1.0000
36.0200 417.0000 1.0000
36.0300 411.0000 1.0000
36.0400 418.0000 1.0000
36.0500 429.0000 1.0000
36.0600 406.0000 1.0000
36.0700 436.0000 1.0000
36.0800 419.0000 1.0000
36.0900 392.0000 1.0000
36.1000 401.0000 1.0000
36.1100 389.0000 1.0000
36.1200 405.0000 1.0000
36.1300 382.0000 1.0000
36.1400 415.0000 1.0000
36.1500 402.0000 1.0000
36.1600 403.0000 1.0000
36.1700 400.0000 1.0000
36.1800 408.0000 1.0000
36.1900 404.0000 1.0000
36.2000 375.0000 1.0000
36.2100 435.0000 1.0000
36.2200 403.0000 1.0000
36.2300 418.0000 1.0000
36.2400 394.0000 1.0000
36.2500 400.0000 1.0000
36.2600 412.0000 1.0000
36.2700 390.0000 1.0000
36.2800 384.0000 1.0000
36.2900 400.0000 1.0000
36.3000 402.0000 1.0000
36.3100 427.0000 1.0000
36.3200 401.0000 1.0000
36.3300 377.0000 1.0000
36.3400 399.0000 1.0000
36.3500 431.0000 1.0000
36.3600 417.0000 1.0000
36.3700 431.0000 1.0000
36.3800 415.0000 1.0000
36.3900 397.0000 1.0000
36.4000 391.0000 1.0000
36.4100 431.0000 1.0000
36.4200 397.0000 1.0000
36.4300 433.0000 1.0000
36.4400 418.0000 1.0000
36.4500 398.0000 1.0000
36.4600 424.0000 1.0000
36.4700 387.0000 1.0000
36.4800 419.0000 1.0000
36.4900 415.0000 1.0000
36.5000 414.0000 1.0000
36.5100 407.0000 1.0000
36.5200 379.0000 1.0000
36.5300 408.0000 1.0000
36.5400 410.0000 1.0000
36.5500 420.0000 1.0000
36.5600 414.0000 1.0000
36.5700 409.0000 1.0000
36.5800 400.0000 1.0000
36.5900 400.0000 1.0000
36.6000 397.0000 1.0000
36.6100 429.0000 1.0000
36.6200 402.0000 1.0000
36.6300 436.0000 1.0000
36.6400 414.0000 1.0000
36.6500 422.0000 1.0000
36.6600 435.0000 1.0000
36.6700 441.0000 1.0000
36.6800 398.0000 1.0000
36.6900 409.0000 1.0000
36.7000 401.0000 1.0000
36.7100 393.0000 1.0000
36.7200 423.0000 1.0000
36.7300 401.0000 1.0000
36.7400 416.0000 1.0000
36.7500 398.0000 1.0000
36.7600 424.0000 1.0000
36.7700 402.0000 1.0000
36.7800 410.0000 1.0000
36.7900 375.0000 1.0000
36.8000 408.0000 1.0000
36.8100 444.0000 1.0000
36.8200 401.0000 1.0000
36.8300 424.0000 1.0000
36.8400 407.0000 1.0000
36.8500 397.0000 1.0000
36.8600 405.0000 1.0000
36.8700 433.0000 1.0000
36.8800 448.0000 1.0000
36.8900 444.0000 1.0000
36.9000 426.0000 1.0000
36.9100 413.0000 1.0000
36.9200 435.0000 1.0000
36.9300 421.0000 1.0000
36.9400 406.0000 1.0000
36.9500 369.0000 1.0000
36.9600 402.0000 1.0000
36.9700 433.0000 1.0000
36.9800 427.0000 1.0000
36.9900 451.0000 1.0000
37.0000 429.0000 1.0000
37.0100 441.0000 1.0000
37.0200 428.0000 1.0000
37.0300 433.0000 1.0000
37.0400 443.0000 1.0000
37.0500 439.0000 1.0000
37.0600 433.0000 1.0000
37.0700 414.0000 1.0000
37.0800 440.0000 1.0000
37.0900 427.0000 1.0000
37.1000 449.0000 1.0000
37.1100 454.0000 1.0000
37.1200 449.0000 1.0000
37.1300 409.0000 1.0000
37.1400 440.0000 1.0000
37.1500 455.0000 1.0000
37.1600 447.0000 1.0000
37.1700 457.0000 1.0000
37.1800 458.0000 1.0000
37.1900 446.0000 1.0000
37.2000 476.0000 1.0000
37.2100 451.0000 1.0000
37.2200 473.0000 1.0000
37.2300 497.0000 1.0000
37.2400 460.0000 1.0000
37.2500 427.0000 1.0000
37.2600 483.0000 1.0000
37.2700 498.0000 1.0000
37.2800 522.0000 1.0000
37.2900 502.0000 1.0000
37.3000 493.0000 1.0000
37.3100 504.0000 1.0000
37.3200 560.0000 1.0000
37.3300 548.0000 1.0000
37.3400 582.0000 1.0000
37.3500 598.0000 1.0000
37.3600 595.0000 1.0000
37.3700 644.0000 1.0000
37.3800 615.0000 1.0000
37.3900 660.0000 1.0000
37.4000 672.0000 1.0000
37.4100 673.0000 1.0000
37.4200 722.0000 1.0000
37.4300 698.0000 1.0000
37.4400 755.0000 1.0000
37.4500 783.0000 1.0000
37.4600 816.0000 1.0000
37.4700 821.0000 1.0000
37.4800 894.0000 1.0000
37.4900 905.0000 1.0000
37.5000 1000.0000 1.0000
37.5100 990.0000 1.0000
37.5200 1092.0000 1.0000
37.5300 1125.0000 1.0000
37.5400 1177.0000 1.0000
37.5500 1210.0000 1.0000
37.5600 1295.0000 1.0000
37.5700 1420.0000 1.0000
37.5800 1522.0000 1.0000
37.5900 1634.0000 1.0000
37.6000 1707.0000 1.0000
37.6100 1810.0000 1.0000
37.6200 1988.0000 1.0000
37.6300 2154.0000 1.0000
37.6400 2249.0000 1.0000
37.6500 2442.0000 1.0000
37.6600 2480.0000 1.0000
37.6700 2602.0000 1.0000
37.6800 2720.0000 1.0000
37.6900 2848.0000 1.0000
37.7000 2904.0000 1.0000
37.7100 3077.0000 1.0000
37.7200 3057.0000 1.0000
37.7300 3032.0000 1.0000
37.7400 3033.0000 1.0000
37.7500 2997.0000 1.0000
37.7600 2909.0000 1.0000
37.7700 2831.0000 1.0000
37.7800 2801.0000 1.0000
37.7900 2722.0000 1.0000
37.8000 2634.0000 1.0000
37.8100 2455.0000 1.0000
37.8200 2369.0000 1.0000
37.8300 2224.0000 1.0000
37.8400 2173.0000 1.0000
37.8500 1997.0000 1.0000
37.8600 1901.0000 1.0000
37.8700 1777.0000 1.0000
37.8800 1667.0000 1.0000
37.8900 1549.0000 1.0000
37.9000 1458.0000 1.0000
37.9100 1414.0000 1.0000
37.9200 1271.0000 1.0000
37.9300 1220.0000 1.0000
37.9400 1126.0000 1.0000
37.9500 1112.0000 1.0000
37.9600 1026.0000 1.0000
37.9700 909.0000 1.0000
37.9800 875.0000 1.0000
37.9900 850.0000 1.0000
38.0000 802.0000 1.0000
38.0100 832.0000 1.0000
38.0200 724.0000 1.0000
38.0300 712.0000 1.0000
38.0400 681.0000 1.0000
38.0500 644.0000 1.0000
38.0600 627.0000 1.0000
38.0700 682.0000 1.0000
38.0800 634.0000 1.0000
38.0900 602.0000 1.0000
38.1000 570.0000 1.0000
38.1100 526.0000 1.0000
38.1200 533.0000 1.0000
38.1300 544.0000 1.0000
38.1400 536.0000 1.0000
38.1500 488.0000 1.0000
38.1600 503.0000 1.0000
38.1700 473.0000 1.0000
38.1800 485.0000 1.0000
38.1900 461.0000 1.0000
38.2000 513.0000 1.0000
38.2100 512.0000 1.0000
38.2200 469.0000 1.0000
38.2300 472.0000 1.0000
38.2400 460.0000 1.0000
38.2500 469.0000 1.0000
38.2600 440.0000 1.0000
38.2700 417.0000 1.0000
38.2800 411.0000 1.0000
38.2900 447.0000 1.0000
38.3000 416.0000 1.0000
38.3100 404.0000 1.0000
38.3200 411.0000 1.0000
38.3300 413.0000 1.0000
38.3400 410.0000 1.0000
38.3500 386.0000 1.0000
38.3600 424.0000 1.0000
38.3700 414.0000 1.0000
38.3800 423.0000 1.0000
38.3900 404.0000 1.0000
38.4000 390.0000 1.0000
38.4100 421.0000 1.0000
38.4200 402.0000 1.0000
38.4300 371.0000 1.0000
38.4400 380.0000 1.0000
38.4500 365.0000 1.0000
38.4600 398.0000 1.0000
38.4700 401.0000 1.0000
38.4800 402.0000 1.0000
38.4900 423.0000 1.0000
38.5000 385.0000 1.0000
38.5100 359.0000 1.0000
38.5200 371.0000 1.0000
38.5300 416.0000 1.0000
38.5400 370.0000 1.0000
38.5500 373.0000 1.0000
38.5600 393.0000 1.0000
38.5700 358.0000 1.0000
38.5800 375.0000 1.0000
38.5900 374.0000 1.0000
38.6000 387.0000 1.0000
38.6100 381.0000 1.0000
38.6200 393.0000 1.0000
38.6300 370.0000 1.0000
38.6400 385.0000 1.0000
38.6500 370.0000 1.0000
38.6600 360.0000 1.0000
38.6700 363.0000 1.0000
38.6800 391.0000 1.0000
38.6900 359.0000 1.0000
38.7000 358.0000 1.0000
38.7100 351.0000 1.0000
38.7200 356.0000 1.0000
38.7300 350.0000 1.0000
38.7400 380.0000 1.0000
38.7500 357.0000 1.0000
38.7600 373.0000 1.0000
38.7700 378.0000 1.0000
38.7800 357.0000 1.0000
38.7900 348.0000 1.0000
38.8000 391.0000 1.0000
38.8100 390.0000 1.0000
38.8200 364.0000 1.0000
38.8300 359.0000 1.0000
38.8400 341.0000 1.0000
38.8500 365.0000 1.0000
38.8600 371.0000 1.0000
38.8700 370.0000 1.0000
38.8800 388.0000 1.0000
38.8900 375.0000 1.0000
38.9000 367.0000 1.0000
38.9100 360.0000 1.0000
38.9200 346.0000 1.0000
38.9300 336.0000 1.0000
38.9400 368.0000 1.0000
38.9500 393.0000 1.0000
38.9600 357.0000 1.0000
38.9700 365.0000 1.0000
38.9800 396.0000 1.0000
38.9900 355.0000 1.0000
39.0000 371.0000 1.0000
39.0100 319.0000 1.0000
39.0200 332.0000 1.0000
39.0300 362.0000 1.0000
39.0400 362.0000 1.0000
39.0500 351.0000 1.0000
39.0600 360.0000 1.0000
39.0700 367.0000 1.0000
39.0800 353.0000 1.0000
39.0900 379.0000 1.0000
39.1000 363.0000 1.0000
39.1100 344.0000 1.0000
39.1200 383.0000 1.0000
39.1300 380.0000 1.0000
39.1400 352.0000 1.0000
39.1500 379.0000 1.0000
39.1600 376.0000 1.0000
39.1700 366.0000 1.0000
39.1800 368.0000 1.0000
39.1900 340.0000 1.0000
39.2000 361.0000 1.0000
39.2100 359.0000 1.0000
39.2200 363.0000 1.0000
39.2300 370.0000 1.0000
39.2400 354.0000 1.0000
39.2500 339.0000 1.0000
39.2600 326.0000 1.0000
39.2700 359.0000 1.0000
39.2800 345.0000 1.0000
39.2900 339.0000 1.0000
39.3000 347.0000 1.0000
39.3100 317.0000 1.0000
39.3200 359.0000 1.0000
39.3300 338.0000 1.0000
39.3400 350.0000 1.0000
39.3500 353.0000 1.0000
39.3600 341.0000 1.0000
39.3700 343.0000 1.0000
39.3800 349.0000 1.0000
39.3900 367.0000 1.0000
39.4000 359.0000 1.0000
39.4100 354.0000 1.0000
39.4200 348.0000 1.0000
39.4300 380.0000 1.0000
39.4400 327.0000 1.0000
39.4500 338.0000 1.0000
39.4600 340.0000 1.0000
39.4700 357.0000 1.0000
39.4800 341.0000 1.0000
39.4900 343.0000 1.0000
39.5000 332.0000 1.0000
39.5100 352.0000 1.0000
39.5200 339.0000 1.0000
39.5300 348.0000 1.0000
39.5400 336.0000 1.0000
39.5500 357.0000 1.0000
39.5600 345.0000 1.0000
39.5700 359.0000 1.0000
39.5800 363.0000 1.0000
39.5900 321.0000 1.0000
39.6000 342.0000 1.0000
39.6100 335.0000 1.0000
39.6200 313.0000 1.0000
39.6300 321.0000 1.0000
39.6400 330.0000 1.0000
39.6500 312.0000 1.0000
39.6600 335.0000 1.0000
39.6700 321.0000 1.0000
39.6800 364.0000 1.0000
39.6900 377.0000 1.0000
39.7000 336.0000 1.0000
39.7100 355.0000 1.0000
39.7200 317.0000 1.0000
39.7300 321.0000 1.0000
39.7400 347.0000 1.0000
39.7500 370.0000 1.0000
39.7600 343.0000 1.0000
39.7700 336.0000 1.0000
39.7800 347.0000 1.0000
39.7900 344.0000 1.0000
39.8000 301.0000 1.0000
39.8100 311.0000 1.0000
39.8200 322.0000 1.0000
39.8300 342.0000 1.0000
39.8400 345.0000 1.0000
39.8500 322.0000 1.0000
39.8600 324.0000 1.0000
39.8700 362.0000 1.0000
39.8800 325.0000 1.0000
39.8900 345.0000 1.0000
39.9000 346.0000 1.0000
39.9100 348.0000 1.0000
39.9200 308.0000 1.0000
39.9300 326.0000 1.0000
39.9400 331.0000 1.0000
39.9500 336.0000 1.0000
39.9600 327.0000 1.0000
39.9700 338.0000 1.0000
39.9800 335.0000 1.0000
39.9900 349.0000 1.0000
40.0000 319.0000 1.0000
40.0100 317.0000 1.0000
40.0200 363.0000 1.0000
40.0300 349.0000 1.0000
40.0400 329.0000 1.0000
40.0500 331.0000 1.0000
40.0600 333.0000 1.0000
40.0700 319.0000 1.0000
40.0800 323.0000 1.0000
40.0900 306.0000 1.0000
40.1000 331.0000 1.0000
40.1100 317.0000 1.0000
40.1200 350.0000 1.0000
40.1300 305.0000 1.0000
40.1400 337.0000 1.0000
40.1500 314.0000 1.0000
40.1600 315.0000 1.0000
40.1700 342.0000 1.0000
40.1800 300.0000 1.0000
40.1900 338.0000 1.0000
40.2000 303.0000 1.0000
40.2100 346.0000 1.0000
40.2200 332.0000 1.0000
40.2300 366.0000 1.0000
40.2400 330.0000 1.0000
40.2500 323.0000 1.0000
40.2600 301.0000 1.0000
40.2700 304.0000 1.0000
40.2800 286.0000 1.0000
40.2900 336.0000 1.0000
40.3000 350.0000 1.0000
40.3100 349.0000 1.0000
40.3200 325.0000 1.0000
40.3300 305.0000 1.0000
40.3400 350.0000 1.0000
40.3500 343.0000 1.0000
40.3600 322.0000 1.0000
40.3700 327.0000 1.0000
40.3800 296.0000 1.0000
40.3900 314.0000 1.0000
40.4000 346.0000 1.0000
40.4100 353.0000 1.0000
40.4200 330.0000 1.0000
40.4300 304.0000 1.0000
40.4400 313.0000 1.0000
40.4500 337.0000 1.0000
40.4600 330.0000 1.0000
40.4700 341.0000 1.0000
40.4800 333.0000 1.0000
40.4900 338.0000 1.0000
40.5000 325.0000 1.0000
40.5100 336.0000 1.0000
40.5200 297.0000 1.0000
40.5300 306.0000 1.0000
40.5400 324.0000 1.0000
40.5500 342.0000 1.0000
40.5600 341.0000 1.0000
40.5700 334.0000 1.0000
40.5800 343.0000 1.0000
40.5900 353.0000 1.0000
40.6000 308.0000 1.0000
40.6100 345.0000 1.0000
40.6200 328.0000 1.0000
40.6300 321.0000 1.0000
40.6400 364.0000 1.0000
40.6500 314.0000 1.0000
40.6600 360.0000 1.0000
40.6700 366.0000 1.0000
40.6800 341.0000 1.0000
40.6900 341.0000 1.0000
40.7000 343.0000 1.0000
40.7100 326.0000 1.0000
40.7200 334.0000 1.0000
40.7300 341.0000 1.0000
40.7400 361.0000 1.0000
40.7500 389.0000 1.0000
40.7600 331.0000 1.0000
40.7700 368.0000 1.0000
40.7800 371.0000 1.0000
40.7900 370.0000 1.0000
40.8000 371.0000 1.0000
40.8100 354.0000 1.0000
40.8200 349.0000 1.0000
40.8300 358.0000 1.0000
40.8400 341.0000 1.0000
40.8500 341.0000 1.0000
40.8600 354.0000 1.0000
40.8700 350.0000 1.0000
40.8800 340.0000 1.0000
40.8900 348.0000 1.0000
40.9000 338.0000 1.0000
40.9100 338.0000 1.0000
40.9200 328.0000 1.0000
40.9300 315.0000 1.0000
40.9400 321.0000 1.0000
40.9500 316.0000 1.0000
40.9600 334.0000 1.0000
40.9700 347.0000 1.0000
40.9800 359.0000 1.0000
40.9900 327.0000 1.0000
41.0000 348.0000 1.0000
41.0100 341.0000 1.0000
41.0200 332.0000 1.0000
41.0300 313.0000 1.0000
41.0400 317.0000 1.0000
41.0500 323.0000 1.0000
41.0600 320.0000 1.0000
41.0700 346.0000 1.0000
41.0800 340.0000 1.0000
41.0900 311.0000 1.0000
41.1000 335.0000 1.0000
41.1100 328.0000 1.0000
41.1200 315.0000 1.0000
41.1300 329.0000 1.0000
41.1400 335.0000 1.0000
41.1500 318.0000 1.0000
41.1600 346.0000 1.0000
41.1700 350.0000 1.0000
41.1800 317.0000 1.0000
41.1900 316.0000 1.0000
41.2000 327.0000 1.0000
41.2100 320.0000 1.0000
41.2200 348.0000 1.0000
41.2300 332.0000 1.0000
41.2400 298.0000 1.0000
41.2500 313.0000 1.0000
41.2600 304.0000 1.0000
41.2700 319.0000 1.0000
41.2800 325.0000 1.0000
41.2900 314.0000 1.0000
41.3000 320.0000 1.0000
41.3100 317.0000 1.0000
41.3200 314.0000 1.0000
41.3300 304.0000 1.0000
41.3400 324.0000 1.0000
41.3500 344.0000 1.0000
41.3600 355.0000 1.0000
41.3700 341.0000 1.0000
41.3800 316.0000 1.0000
41.3900 296.0000 1.0000
41.4000 329.0000 1.0000
41.4100 310.0000 1.0000
41.4200 323.0000 1.0000
41.4300 339.0000 1.0000
41.4400 316.0000 1.0000
41.4500 310.0000 1.0000
41.4600 303.0000 1.0000
41.4700 315.0000 1.0000
41.4800 289.0000 1.0000
41.4900 320.0000 1.0000
41.5000 316.0000 1.0000
41.5100 324.0000 1.0000
41.5200 323.0000 1.0000
41.5300 354.0000 1.0000
41.5400 323.0000 1.0000
41.5500 336.0000 1.0000
41.5600 342.0000 1.0000
41.5700 310.0000 1.0000
41.5800 288.0000 1.0000
41.5900 323.0000 1.0000
41.6000 328.0000 1.0000
41.6100 307.0000 1.0000
41.6200 302.0000 1.0000
41.6300 308.0000 1.0000
41.6400 338.0000 1.0000
41.6500 328.0000 1.0000
41.6600 281.0000 1.0000
41.6700 300.0000 1.0000
41.6800 318.0000 1.0000
41.6900 332.0000 1.0000
41.7000 331.0000 1.0000
41.7100 303.0000 1.0000
41.7200 310.0000 1.0000
41.7300 323.0000 1.0000
41.7400 338.0000 1.0000
41.7500 342.0000 1.0000
41.7600 324.0000 1.0000
41.7700 350.0000 1.0000
41.7800 322.0000 1.0000
41.7900 317.0000 1.0000
41.8000 331.0000 1.0000
41.8100 318.0000 1.0000
41.8200 318.0000 1.0000
41.8300 323.0000 1.0000
41.8400 342.0000 1.0000
41.8500 335.0000 1.0000
41.8600 329.0000 1.0000
41.8700 314.0000 1.0000
41.8800 345.0000 1.0000
41.8900 337.0000 1.0000
41.9000 320.0000 1.0000
41.9100 323.0000 1.0000
41.9200 321.0000 1.0000
41.9300 294.0000 1.0000
41.9400 313.0000 1.0000
41.9500 317.0000 1.0000
41.9600 321.0000 1.0000
41.9700 308.0000 1.0000
41.9800 295.0000 1.0000
41.9900 309.0000 1.0000
42.0000 311.0000 1.0000
42.0100 306.0000 1.0000
42.0200 318.0000 1.0000
42.0300 311.0000 1.0000
42.0400 311.0000 1.0000
42.0500 304.0000 1.0000
42.0600 297.0000 1.0000
42.0700 323.0000 1.0000
42.0800 326.0000 1.0000
42.0900 311.0000 1.0000
42.1000 302.0000 1.0000
42.1100 321.0000 1.0000
42.1200 342.0000 1.0000
42.1300 357.0000 1.0000
42.1400 335.0000 1.0000
42.1500 329.0000 1.0000
42.1600 321.0000 1.0000
42.1700 332.0000 1.0000
42.1800 317.0000 1.0000
42.1900 318.0000 1.0000
42.2000 332.0000 1.0000
42.2100 323.0000 1.0000
42.2200 325.0000 1.0000
42.2300 307.0000 1.0000
42.2400 324.0000 1.0000
42.2500 310.0000 1.0000
42.2600 339.0000 1.0000
42.2700 351.0000 1.0000
42.2800 312.0000 1.0000
42.2900 350.0000 1.0000
42.3000 330.0000 1.0000
42.3100 308.0000 1.0000
42.3200 329.0000 1.0000
42.3300 334.0000 1.0000
42.3400 343.0000 1.0000
42.3500 329.0000 1.0000
42.3600 347.0000 1.0000
42.3700 298.0000 1.0000
42.3800 326.0000 1.0000
42.3900 334.0000 1.0000
42.4000 311.0000 1.0000
42.4100 328.0000 1.0000
42.4200 353.0000 1.0000
42.4300 311.0000 1.0000
42.4400 346.0000 1.0000
42.4500 319.0000 1.0000
42.4600 335.0000 1.0000
42.4700 324.0000 1.0000
42.4800 338.0000 1.0000
42.4900 324.0000 1.0000
42.5000 323.0000 1.0000
42.5100 355.0000 1.0000
42.5200 355.0000 1.0000
42.5300 358.0000 1.0000
42.5400 338.0000 1.0000
42.5500 313.0000 1.0000
42.5600 345.0000 1.0000
42.5700 332.0000 1.0000
42.5800 319.0000 1.0000
42.5900 317.0000 1.0000
42.6000 313.0000 1.0000
42.6100 333.0000 1.0000
42.6200 318.0000 1.0000
42.6300 336.0000 1.0000
42.6400 337.0000 1.0000
42.6500 306.0000 1.0000
42.6600 322.0000 1.0000
42.6700 301.0000 1.0000
42.6800 291.0000 1.0000
42.6900 324.0000 1.0000
42.7000 347.0000 1.0000
42.7100 316.0000 1.0000
42.7200 333.0000 1.0000
42.7300 304.0000 1.0000
42.7400 321.0000 1.0000
42.7500 362.0000 1.0000
42.7600 322.0000 1.0000
42.7700 331.0000 1.0000
42.7800 317.0000 1.0000
42.7900 292.0000 1.0000
42.8000 291.0000 1.0000
42.8100 321.0000 1.0000
42.8200 323.0000 1.0000
42.8300 338.0000 1.0000
42.8400 320.0000 1.0000
42.8500 303.0000 1.0000
42.8600 289.0000 1.0000
42.8700 322.0000 1.0000
42.8800 296.0000 1.0000
42.8900 322.0000 1.0000
42.9000 302.0000 1.0000
42.9100 317.0000 1.0000
42.9200 326.0000 1.0000
42.9300 300.0000 1.0000
42.9400 335.0000 1.0000
42.9500 318.0000 1.0000
42.9600 309.0000 1.0000
42.9700 324.0000 1.0000
42.9800 312.0000 1.0000
42.9900 342.0000 1.0000
43.0000 297.0000 1.0000
43.0100 299.0000 1.0000
43.0200 318.0000 1.0000
43.0300 289.0000 1.0000
43.0400 340.0000 1.0000
43.0500 312.0000 1.0000
43.0600 296.0000 1.0000
43.0700 315.0000 1.0000
43.0800 327.0000 1.0000
43.0900 303.0000 1.0000
43.1000 337.0000 1.0000
43.1100 317.0000 1.0000
43.1200 312.0000 1.0000
43.1300 314.0000 1.0000
43.1400 313.0000 1.0000
43.1500 299.0000 1.0000
43.1600 315.0000 1.0000
43.1700 306.0000 1.0000
43.1800 316.0000 1.0000
43.1900 313.0000 1.0000
43.2000 286.0000 1.0000
43.2100 319.0000 1.0000
43.2200 311.0000 1.0000
43.2300 271.0000 1.0000
43.2400 283.0000 1.0000
43.2500 275.0000 1.0000
43.2600 298.0000 1.0000
43.2700 324.0000 1.0000
43.2800 338.0000 1.0000
43.2900 302.0000 1.0000
43.3000 297.0000 1.0000
43.3100 290.0000 1.0000
43.3200 332.0000 1.0000
43.3300 310.0000 1.0000
43.3400 303.0000 1.0000
43.3500 286.0000 1.0000
43.3600 307.0000 1.0000
43.3700 309.0000 1.0000
43.3800 331.0000 1.0000
43.3900 338.0000 1.0000
43.4000 316.0000 1.0000
43.4100 279.0000 1.0000
43.4200 330.0000 1.0000
43.4300 309.0000 1.0000
43.4400 304.0000 1.0000
43.4500 306.0000 1.0000
43.4600 287.0000 1.0000
43.4700 331.0000 1.0000
43.4800 335.0000 1.0000
43.4900 313.0000 1.0000
43.5000 299.0000 1.0000
43.5100 288.0000 1.0000
43.5200 314.0000 1.0000
43.5300 284.0000 1.0000
43.5400 287.0000 1.0000
43.5500 326.0000 1.0000
43.5600 311.0000 1.0000
43.5700 298.0000 1.0000
43.5800 301.0000 1.0000
43.5900 315.0000 1.0000
43.6000 319.0000 1.0000
43.6100 322.0000 1.0000
43.6200 311.0000 1.0000
43.6300 310.0000 1.0000
43.6400 260.0000 1.0000
43.6500 314.0000 1.0000
43.6600 334.0000 1.0000
43.6700 327.0000 1.0000
43.6800 290.0000 1.0000
43.6900 313.0000 1.0000
43.7000 297.0000 1.0000
43.7100 305.0000 1.0000
43.7200 326.0000 1.0000
43.7300 343.0000 1.0000
43.7400 302.0000 1.0000
43.7500 275.0000 1.0000
43.7600 297.0000 1.0000
43.7700 313.0000 1.0000
43.7800 295.0000 1.0000
43.7900 301.0000 1.0000
43.8000 306.0000 1.0000
43.8100 302.0000 1.0000
43.8200 308.0000 1.0000
43.8300 294.0000 1.0000
43.8400 305.0000 1.0000
43.8500 312.0000 1.0000
43.8600 278.0000 1.0000
43.8700 291.0000 1.0000
43.8800 282.0000 1.0000
43.8900 313.0000 1.0000
43.9000 314.0000 1.0000
43.9100 312.0000 1.0000
43.9200 298.0000 1.0000
43.9300 324.0000 1.0000
43.9400 288.0000 1.0000
43.9500 296.0000 1.0000
43.9600 306.0000 1.0000
43.9700 306.0000 1.0000
43.9800 282.0000 1.0000
43.9900 256.0000 1.0000
44.0000 288.0000 1.0000
44.0100 327.0000 1.0000
44.0200 317.0000 1.0000
44.0300 291.0000 1.0000
44.0400 311.0000 1.0000
44.0500 305.0000 1.0000
44.0600 330.0000 1.0000
44.0700 283.0000 1.0000
44.0800 270.0000 1.0000
44.0900 297.0000 1.0000
44.1000 280.0000 1.0000
44.1100 282.0000 1.0000
44.1200 300.0000 1.0000
44.1300 302.0000 1.0000
44.1400 313.0000 1.0000
44.1500 308.0000 1.0000
44.1600 312.0000 1.0000
44.1700 301.0000 1.0000
44.1800 297.0000 1.0000
44.1900 301.0000 1.0000
44.2000 308.0000 1.0000
44.2100 302.0000 1.0000
44.2200 283.0000 1.0000
44.2300 290.0000 1.0000
44.2400 296.0000 1.0000
44.2500 286.0000 1.0000
44.2600 292.0000 1.0000
44.2700 305.0000 1.0000
44.2800 320.0000 1.0000
44.2900 309.0000 1.0000
44.3000 286.0000 1.0000
44.3100 311.0000 1.0000
44.3200 307.0000 1.0000
44.3300 285.0000 1.0000
44.3400 302.0000 1.0000
44.3500 312.0000 1.0000
44.3600 281.0000 1.0000
44.3700 269.0000 1.0000
44.3800 312.0000 1.0000
44.3900 313.0000 1.0000
44.4000 295.0000 1.0000
44.4100 310.0000 1.0000
44.4200 281.0000 1.0000
44.4300 301.0000 1.0000
44.4400 269.0000 1.0000
44.4500 296.0000 1.0000
44.4600 308.0000 1.0000
44.4700 272.0000 1.0000
44.4800 284.0000 1.0000
44.4900 305.0000 1.0000
44.5000 285.0000 1.0000
44.5100 289.0000 1.0000
44.5200 302.0000 1.0000
44.5300 314.0000 1.0000
44.5400 297.0000 1.0000
44.5500 282.0000 1.0000
44.5600 289.0000 1.0000
44.5700 304.0000 1.0000
44.5800 271.0000 1.0000
44.5900 295.0000 1.0000
44.6000 314.0000 1.0000
44.6100 307.0000 1.0000
44.6200 265.0000 1.0000
44.6300 286.0000 1.0000
44.6400 298.0000 1.0000
44.6500 283.0000 1.0000
44.6600 298.0000 1.0000
44.6700 318.0000 1.0000
44.6800 279.0000 1.0000
44.6900 287.0000 1.0000
44.7000 281.0000 1.0000
44.7100 293.0000 1.0000
44.7200 287.0000 1.0000
44.7300 305.0000 1.0000
44.7400 297.0000 1.0000
44.7500 286.0000 1.0000
44.7600 280.0000 1.0000
44.7700 302.0000 1.0000
44.7800 301.0000 1.0000
44.7900 308.0000 1.0000
44.8000 311.0000 1.0000
44.8100 285.0000 1.0000
44.8200 246.0000 1.0000
44.8300 282.0000 1.0000
44.8400 278.0000 1.0000
44.8500 286.0000 1.0000
44.8600 270.0000 1.0000
44.8700 280.0000 1.0000
44.8800 277.0000 1.0000
44.8900 296.0000 1.0000
44.9000 310.0000 1.0000
44.9100 300.0000 1.0000
44.9200 271.0000 1.0000
44.9300 299.0000 1.0000
44.9400 312.0000 1.0000
44.9500 320.0000 1.0000
44.9600 280.0000 1.0000
44.9700 268.0000 1.0000
44.9800 300.0000 1.0000
44.9900 301.0000 1.0000
45.0000 283.0000 1.0000
45.0100 279.0000 1.0000
45.0200 303.0000 1.0000
45.0300 257.0000 1.0000
45.0400 289.0000 1.0000
45.0500 292.0000 1.0000
45.0600 277.0000 1.0000
45.0700 278.0000 1.0000
45.0800 274.0000 1.0000
45.0900 281.0000 1.0000
45.1000 297.0000 1.0000
45.1100 279.0000 1.0000
45.1200 301.0000 1.0000
45.1300 300.0000 1.0000
45.1400 288.0000 1.0000
45.1500 302.0000 1.0000
45.1600 290.0000 1.0000
45.1700 282.0000 1.0000
45.1800 289.0000 1.0000
45.1900 303.0000 1.0000
45.2000 308.0000 1.0000
45.2100 297.0000 1.0000
45.2200 267.0000 1.0000
45.2300 285.0000 1.0000
45.2400 269.0000 1.0000
45.2500 287.0000 1.0000
45.2600 317.0000 1.0000
45.2700 269.0000 1.0000
45.2800 298.0000 1.0000
45.2900 297.0000 1.0000
45.3000 292.0000 1.0000
45.3100 299.0000 1.0000
45.3200 312.0000 1.0000
45.3300 288.0000 1.0000
45.3400 303.0000 1.0000
45.3500 292.0000 1.0000
45.3600 292.0000 1.0000
45.3700 273.0000 1.0000
45.3800 293.0000 1.0000
45.3900 311.0000 1.0000
45.4000 303.0000 1.0000
45.4100 274.0000 1.0000
45.4200 257.0000 1.0000
45.4300 287.0000 1.0000
45.4400 287.0000 1.0000
45.4500 281.0000 1.0000
45.4600 277.0000 1.0000
45.4700 286.0000 1.0000
45.4800 298.0000 1.0000
45.4900 295.0000 1.0000
45.5000 287.0000 1.0000
45.5100 301.0000 1.0000
45.5200 265.0000 1.0000
45.5300 283.0000 1.0000
45.5400 292.0000 1.0000
45.5500 295.0000 1.0000
45.5600 298.0000 1.0000
45.5700 273.0000 1.0000
45.5800 279.0000 1.0000
45.5900 286.0000 1.0000
45.6000 278.0000 1.0000
45.6100 293.0000 1.0000
45.6200 290.0000 1.0000
45.6300 303.0000 1.0000
45.6400 288.0000 1.0000
45.6500 283.0000 1.0000
45.6600 284.0000 1.0000
45.6700 278.0000 1.0000
45.6800 285.0000 1.0000
45.6900 284.0000 1.0000
45.7000 285.0000 1.0000
45.7100 273.0000 1.0000
45.7200 268.0000 1.0000
45.7300 308.0000 1.0000
45.7400 312.0000 1.0000
45.7500 297.0000 1.0000
45.7600 289.0000 1.0000
45.7700 269.0000 1.0000
45.7800 270.0000 1.0000
45.7900 297.0000 1.0000
45.8000 308.0000 1.0000
45.8100 320.0000 1.0000
45.8200 294.0000 1.0000
45.8300 272.0000 1.0000
45.8400 290.0000 1.0000
45.8500 288.0000 1.0000
45.8600 282.0000 1.0000
45.8700 277.0000 1.0000
45.8800 271.0000 1.0000
45.8900 279.0000 1.0000
45.9000 289.0000 1.0000
45.9100 321.0000 1.0000
45.9200 292.0000 1.0000
45.9300 297.0000 1.0000
45.9400 275.0000 1.0000
45.9500 299.0000 1.0000
45.9600 277.0000 1.0000
45.9700 286.0000 1.0000
45.9800 299.0000 1.0000
45.9900 315.0000 1.0000
46.0000 282.0000 1.0000
46.0100 295.0000 1.0000
46.0200 272.0000 1.0000
46.0300 285.0000 1.0000
46.0400 296.0000 1.0000
46.0500 297.0000 1.0000
46.0600 285.0000 1.0000
46.0700 289.0000 1.0000
46.0800 295.0000 1.0000
46.0900 293.0000 1.0000
46.1000 293.0000 1.0000
46.1100 288.0000 1.0000
46.1200 284.0000 1.0000
46.1300 292.0000 1.0000
46.1400 244.0000 1.0000
46.1500 263.0000 1.0000
46.1600 289.0000 1.0000
46.1700 288.0000 1.0000
46.1800 268.0000 1.0000
46.1900 276.0000 1.0000
46.2000 294.0000 1.0000
46.2100 281.0000 1.0000
46.2200 265.0000 1.0000
46.2300 283.0000 1.0000
46.2400 291.0000 1.0000
46.2500 279.0000 1.0000
46.2600 287.0000 1.0000
46.2700 280.0000 1.0000
46.2800 287.0000 1.0000
46.2900 285.0000 1.0000
46.3000 307.0000 1.0000
46.3100 274.0000 1.0000
46.3200 275.0000 1.0000
46.3300 275.0000 1.0000
46.3400 274.0000 1.0000
46.3500 269.0000 1.0000
46.3600 288.0000 1.0000
46.3700 285.0000 1.0000
46.3800 258.0000 1.0000
46.3900 274.0000 1.0000
46.4000 293.0000 1.0000
46.4100 273.0000 1.0000
46.4200 252.0000 1.0000
46.4300 285.0000 1.0000
46.4400 282.0000 1.0000
46.4500 293.0000 1.0000
46.4600 291.0000 1.0000
46.4700 285.0000 1.0000
46.4800 289.0000 1.0000
46.4900 275.0000 1.0000
46.5000 297.0000 1.0000
46.5100 293.0000 1.0000
46.5200 299.0000 1.0000
46.5300 314.0000 1.0000
46.5400 291.0000 1.0000
46.5500 278.0000 1.0000
46.5600 303.0000 1.0000
46.5700 318.0000 1.0000
46.5800 279.0000 1.0000
46.5900 278.0000 1.0000
46.6000 300.0000 1.0000
46.6100 309.0000 1.0000
46.6200 295.0000 1.0000
46.6300 282.0000 1.0000
46.6400 284.0000 1.0000
46.6500 275.0000 1.0000
46.6600 284.0000 1.0000
46.6700 279.0000 1.0000
46.6800 266.0000 1.0000
46.6900 273.0000 1.0000
46.7000 274.0000 1.0000
46.7100 262.0000 1.0000
46.7200 258.0000 1.0000
46.7300 291.0000 1.0000
46.7400 271.0000 1.0000
46.7500 266.0000 1.0000
46.7600 283.0000 1.0000
46.7700 281.0000 1.0000
46.7800 287.0000 1.0000
46.7900 284.0000 1.0000
46.8000 266.0000 1.0000
46.8100 264.0000 1.0000
46.8200 271.0000 1.0000
46.8300 290.0000 1.0000
46.8400 254.0000 1.0000
46.8500 266.0000 1.0000
46.8600 286.0000 1.0000
46.8700 292.0000 1.0000
46.8800 268.0000 1.0000
46.8900 284.0000 1.0000
46.9000 281.0000 1.0000
46.9100 276.0000 1.0000
46.9200 296.0000 1.0000
46.9300 299.0000 1.0000
46.9400 301.0000 1.0000
46.9500 290.0000 1.0000
46.9600 270.0000 1.0000
46.9700 275.0000 1.0000
46.9800 300.0000 1.0000
46.9900 296.0000 1.0000
47.0000 279.0000 1.0000
47.0100 280.0000 1.0000
47.0200 276.0000 1.0000
47.0300 291.0000 1.0000
47.0400 258.0000 1.0000
47.0500 245.0000 1.0000
47.0600 271.0000 1.0000
47.0700 260.0000 1.0000
47.0800 272.0000 1.0000
47.0900 292.0000 1.0000
47.1000 273.0000 1.0000
47.1100 249.0000 1.0000
47.1200 280.0000 1.0000
47.1300 270.0000 1.0000
47.1400 275.0000 1.0000
47.1500 262.0000 1.0000
47.1600 291.0000 1.0000
47.1700 265.0000 1.0000
47.1800 280.0000 1.0000
47.1900 316.0000 1.0000
47.2000 284.0000 1.0000
47.2100 273.0000 1.0000
47.2200 266.0000 1.0000
47.2300 268.0000 1.0000
47.2400 261.0000 1.0000
47.2500 280.0000 1.0000
47.2600 282.0000 1.0000
47.2700 295.0000 1.0000
47.2800 267.0000 1.0000
47.2900 295.0000 1.0000
47.3000 267.0000 1.0000
47.3100 266.0000 1.0000
47.3200 259.0000 1.0000
47.3300 266.0000 1.0000
47.3400 273.0000 1.0000
47.3500 278.0000 1.0000
47.3600 272.0000 1.0000
47.3700 264.0000 1.0000
47.3800 282.0000 1.0000
47.3900 254.0000 1.0000
47.4000 249.0000 1.0000
47.4100 249.0000 1.0000
47.4200 260.0000 1.0000
47.4300 265.0000 1.0000
47.4400 278.0000 1.0000
47.4500 275.0000 1.0000
47.4600 296.0000 1.0000
47.4700 265.0000 1.0000
47.4800 280.0000 1.0000
47.4900 278.0000 1.0000
47.5000 289.0000 1.0000
47.5100 284.0000 1.0000
47.5200 246.0000 1.0000
47.5300 256.0000 1.0000
47.5400 259.0000 1.0000
47.5500 255.0000 1.0000
47.5600 278.0000 1.0000
47.5700 277.0000 1.0000
47.5800 280.0000 1.0000
47.5900 298.0000 1.0000
47.6000 272.0000 1.0000
47.6100 284.0000 1.0000
47.6200 296.0000 1.0000
47.6300 270.0000 1.0000
47.6400 272.0000 1.0000
47.6500 264.0000 1.0000
47.6600 245.0000 1.0000
47.6700 262.0000 1.0000
47.6800 286.0000 1.0000
47.6900 257.0000 1.0000
47.7000 306.0000 1.0000
47.7100 270.0000 1.0000
47.7200 281.0000 1.0000
47.7300 285.0000 1.0000
47.7400 279.0000 1.0000
47.7500 259.0000 1.0000
47.7600 270.0000 1.0000
47.7700 282.0000 1.0000
47.7800 280.0000 1.0000
47.7900 286.0000 1.0000
47.8000 252.0000 1.0000
47.8100 264.0000 1.0000
47.8200 267.0000 1.0000
47.8300 270.0000 1.0000
47.8400 267.0000 1.0000
47.8500 279.0000 1.0000
47.8600 263.0000 1.0000
47.8700 288.0000 1.0000
47.8800 273.0000 1.0000
47.8900 266.0000 1.0000
47.9000 267.0000 1.0000
47.9100 245.0000 1.0000
47.9200 247.0000 1.0000
47.9300 267.0000 1.0000
47.9400 283.0000 1.0000
47.9500 266.0000 1.0000
47.9600 271.0000 1.0000
47.9700 272.0000 1.0000
47.9800 279.0000 1.0000
47.9900 263.0000 1.0000
48.0000 292.0000 1.0000
48.0100 262.0000 1.0000
48.0200 251.0000 1.0000
48.0300 272.0000 1.0000
48.0400 290.0000 1.0000
48.0500 261.0000 1.0000
48.0600 244.0000 1.0000
48.0700 287.0000 1.0000
48.0800 255.0000 1.0000
48.0900 277.0000 1.0000
48.1000 282.0000 1.0000
48.1100 265.0000 1.0000
48.1200 249.0000 1.0000
48.1300 262.0000 1.0000
48.1400 285.0000 1.0000
48.1500 244.0000 1.0000
48.1600 259.0000 1.0000
48.1700 271.0000 1.0000
48.1800 270.0000 1.0000
48.1900 258.0000 1.0000
48.2000 270.0000 1.0000
48.2100 264.0000 1.0000
48.2200 261.0000 1.0000
48.2300 270.0000 1.0000
48.2400 257.0000 1.0000
48.2500 239.0000 1.0000
48.2600 263.0000 1.0000
48.2700 276.0000 1.0000
48.2800 271.0000 1.0000
48.2900 262.0000 1.0000
48.3000 268.0000 1.0000
48.3100 285.0000 1.0000
48.3200 289.0000 1.0000
48.3300 277.0000 1.0000
48.3400 254.0000 1.0000
48.3500 274.0000 1.0000
48.3600 258.0000 1.0000
48.3700 285.0000 1.0000
48.3800 298.0000 1.0000
48.3900 266.0000 1.0000
48.4000 271.0000 1.0000
48.4100 258.0000 1.0000
48.4200 256.0000 1.0000
48.4300 263.0000 1.0000
48.4400 265.0000 1.0000
48.4500 239.0000 1.0000
48.4600 240.0000 1.0000
48.4700 281.0000 1.0000
48.4800 263.0000 1.0000
48.4900 276.0000 1.0000
48.5000 277.0000 1.0000
48.5100 310.0000 1.0000
48.5200 262.0000 1.0000
48.5300 266.0000 1.0000
48.5400 275.0000 1.0000
48.5500 258.0000 1.0000
48.5600 258.0000 1.0000
48.5700 279.0000 1.0000
48.5800 273.0000 1.0000
48.5900 273.0000 1.0000
48.6000 260.0000 1.0000
48.6100 279.0000 1.0000
48.6200 274.0000 1.0000
48.6300 255.0000 1.0000
48.6400 282.0000 1.0000
48.6500 271.0000 1.0000
48.6600 258.0000 1.0000
48.6700 247.0000 1.0000
48.6800 244.0000 1.0000
48.6900 274.0000 1.0000
48.7000 241.0000 1.0000
48.7100 271.0000 1.0000
48.7200 258.0000 1.0000
48.7300 265.0000 1.0000
48.7400 290.0000 1.0000
48.7500 287.0000 1.0000
48.7600 244.0000 1.0000
48.7700 244.0000 1.0000
48.7800 268.0000 1.0000
48.7900 286.0000 1.0000
48.8000 259.0000 1.0000
48.8100 299.0000 1.0000
48.8200 269.0000 1.0000
48.8300 283.0000 1.0000
48.8400 292.0000 1.0000
48.8500 279.0000 1.0000
48.8600 259.0000 1.0000
48.8700 275.0000 1.0000
48.8800 250.0000 1.0000
48.8900 265.0000 1.0000
48.9000 254.0000 1.0000
48.9100 280.0000 1.0000
48.9200 286.0000 1.0000
48.9300 274.0000 1.0000
48.9400 269.0000 1.0000
48.9500 257.0000 1.0000
48.9600 277.0000 1.0000
48.9700 255.0000 1.0000
48.9800 285.0000 1.0000
48.9900 286.0000 1.0000
49.0000 237.0000 1.0000
49.0100 283.0000 1.0000
49.0200 248.0000 1.0000
49.0300 241.0000 1.0000
49.0400 265.0000 1.0000
49.0500 285.0000 1.0000
49.0600 294.0000 1.0000
49.0700 261.0000 1.0000
49.0800 258.0000 1.0000
49.0900 267.0000 1.0000
49.1000 259.0000 1.0000
49.1100 269.0000 1.0000
49.1200 285.0000 1.0000
49.1300 295.0000 1.0000
49.1400 282.0000 1.0000
49.1500 246.0000 1.0000
49.1600 277.0000 1.0000
49.1700 270.0000 1.0000
49.1800 254.0000 1.0000
49.1900 269.0000 1.0000
49.2000 264.0000 1.0000
49.2100 277.0000 1.0000
49.2200 262.0000 1.0000
49.2300 297.0000 1.0000
49.2400 270.0000 1.0000
49.2500 284.0000 1.0000
49.2600 290.0000 1.0000
49.2700 261.0000 1.0000
49.2800 281.0000 1.0000
49.2900 266.0000 1.0000
49.3000 279.0000 1.0000
49.3100 301.0000 1.0000
49.3200 270.0000 1.0000
49.3300 286.0000 1.0000
49.3400 284.0000 1.0000
49.3500 320.0000 1.0000
49.3600 281.0000 1.0000
49.3700 293.0000 1.0000
49.3800 332.0000 1.0000
49.3900 307.0000 1.0000
49.4000 331.0000 1.0000
49.4100 302.0000 1.0000
49.4200 305.0000 1.0000
49.4300 322.0000 1.0000
49.4400 287.0000 1.0000
49.4500 284.0000 1.0000
49.4600 315.0000 1.0000
49.4700 299.0000 1.0000
49.4800 306.0000 1.0000
49.4900 302.0000 1.0000
49.5000 296.0000 1.0000
49.5100 281.0000 1.0000
49.5200 280.0000 1.0000
49.5300 299.0000 1.0000
49.5400 288.0000 1.0000
49.5500 294.0000 1.0000
49.5600 267.0000 1.0000
49.5700 313.0000 1.0000
49.5800 247.0000 1.0000
49.5900 272.0000 1.0000
49.6000 282.0000 1.0000
49.6100 273.0000 1.0000
49.6200 268.0000 1.0000
49.6300 280.0000 1.0000
49.6400 295.0000 1.0000
49.6500 291.0000 1.0000
49.6600 283.0000 1.0000
49.6700 270.0000 1.0000
49.6800 253.0000 1.0000
49.6900 283.0000 1.0000
49.7000 251.0000 1.0000
49.7100 291.0000 1.0000
49.7200 278.0000 1.0000
49.7300 277.0000 1.0000
49.7400 251.0000 1.0000
49.7500 275.0000 1.0000
49.7600 282.0000 1.0000
49.7700 272.0000 1.0000
49.7800 278.0000 1.0000
49.7900 257.0000 1.0000
49.8000 252.0000 1.0000
49.8100 249.0000 1.0000
49.8200 245.0000 1.0000
49.8300 273.0000 1.0000
49.8400 282.0000 1.0000
49.8500 304.0000 1.0000
49.8600 279.0000 1.0000
49.8700 264.0000 1.0000
49.8800 262.0000 1.0000
49.8900 272.0000 1.0000
49.9000 275.0000 1.0000
49.9100 263.0000 1.0000
49.9200 289.0000 1.0000
49.9300 276.0000 1.0000
49.9400 248.0000 1.0000
49.9500 284.0000 1.0000
49.9600 272.0000 1.0000
49.9700 257.0000 1.0000
49.9800 265.0000 1.0000
49.9900 292.0000 1.0000
50.0000 247.0000 1.0000
50.0100 261.0000 1.0000
50.0200 239.0000 1.0000
50.0300 267.0000 1.0000
50.0400 283.0000 1.0000
50.0500 249.0000 1.0000
50.0600 261.0000 1.0000
50.0700 286.0000 1.0000
50.0800 263.0000 1.0000
50.0900 276.0000 1.0000
50.1000 278.0000 1.0000
50.1100 249.0000 1.0000
50.1200 252.0000 1.0000
50.1300 284.0000 1.0000
50.1400 287.0000 1.0000
50.1500 253.0000 1.0000
50.1600 266.0000 1.0000
50.1700 262.0000 1.0000
50.1800 262.0000 1.0000
50.1900 255.0000 1.0000
50.2000 279.0000 1.0000
50.2100 279.0000 1.0000
50.2200 253.0000 1.0000
50.2300 251.0000 1.0000
50.2400 266.0000 1.0000
50.2500 260.0000 1.0000
50.2600 260.0000 1.0000
50.2700 264.0000 1.0000
50.2800 257.0000 1.0000
50.2900 270.0000 1.0000
50.3000 267.0000 1.0000
50.3100 277.0000 1.0000
50.3200 276.0000 1.0000
50.3300 263.0000 1.0000
50.3400 242.0000 1.0000
50.3500 255.0000 1.0000
50.3600 281.0000 1.0000
50.3700 288.0000 1.0000
50.3800 259.0000 1.0000
50.3900 249.0000 1.0000
50.4000 269.0000 1.0000
50.4100 259.0000 1.0000
50.4200 235.0000 1.0000
50.4300 251.0000 1.0000
50.4400 275.0000 1.0000
50.4500 278.0000 1.0000
50.4600 274.0000 1.0000
50.4700 277.0000 1.0000
50.4800 263.0000 1.0000
50.4900 254.0000 1.0000
50.5000 279.0000 1.0000
50.5100 262.0000 1.0000
50.5200 275.0000 1.0000
50.5300 244.0000 1.0000
50.5400 266.0000 1.0000
50.5500 265.0000 1.0000
50.5600 276.0000 1.0000
50.5700 283.0000 1.0000
50.5800 269.0000 1.0000
50.5900 251.0000 1.0000
50.6000 240.0000 1.0000
50.6100 267.0000 1.0000
50.6200 259.0000 1.0000
50.6300 277.0000 1.0000
50.6400 246.0000 1.0000
50.6500 263.0000 1.0000
50.6600 255.0000 1.0000
50.6700 276.0000 1.0000
50.6800 247.0000 1.0000
50.6900 278.0000 1.0000
50.7000 293.0000 1.0000
50.7100 257.0000 1.0000
50.7200 263.0000 1.0000
50.7300 279.0000 1.0000
50.7400 285.0000 1.0000
50.7500 284.0000 1.0000
50.7600 282.0000 1.0000
50.7700 287.0000 1.0000
50.7800 261.0000 1.0000
50.7900 245.0000 1.0000
50.8000 276.0000 1.0000
50.8100 254.0000 1.0000
50.8200 270.0000 1.0000
50.8300 288.0000 1.0000
50.8400 284.0000 1.0000
50.8500 285.0000 1.0000
50.8600 250.0000 1.0000
50.8700 248.0000 1.0000
50.8800 270.0000 1.0000
50.8900 252.0000 1.0000
50.9000 249.0000 1.0000
50.9100 261.0000 1.0000
50.9200 295.0000 1.0000
50.9300 282.0000 1.0000
50.9400 287.0000 1.0000
50.9500 295.0000 1.0000
50.9600 305.0000 1.0000
50.9700 265.0000 1.0000
50.9800 260.0000 1.0000
50.9900 293.0000 1.0000
51.0000 291.0000 1.0000
51.0100 308.0000 1.0000
51.0200 296.0000 1.0000
51.0300 311.0000 1.0000
51.0400 318.0000 1.0000
51.0500 305.0000 1.0000
51.0600 290.0000 1.0000
51.0700 291.0000 1.0000
51.0800 283.0000 1.0000
51.0900 295.0000 1.0000
51.1000 314.0000 1.0000
51.1100 305.0000 1.0000
51.1200 311.0000 1.0000
51.1300 315.0000 1.0000
51.1400 290.0000 1.0000
51.1500 320.0000 1.0000
51.1600 333.0000 1.0000
51.1700 322.0000 1.0000
51.1800 304.0000 1.0000
51.1900 316.0000 1.0000
51.2000 341.0000 1.0000
51.2100 347.0000 1.0000
51.2200 375.0000 1.0000
51.2300 372.0000 1.0000
51.2400 406.0000 1.0000
51.2500 391.0000 1.0000
51.2600 443.0000 1.0000
51.2700 411.0000 1.0000
51.2800 414.0000 1.0000
51.2900 471.0000 1.0000
51.3000 483.0000 1.0000
51.3100 499.0000 1.0000
51.3200 482.0000 1.0000
51.3300 517.0000 1.0000
51.3400 586.0000 1.0000
51.3500 585.0000 1.0000
51.3600 672.0000 1.0000
51.3700 632.0000 1.0000
51.3800 673.0000 1.0000
51.3900 741.0000 1.0000
51.4000 747.0000 1.0000
51.4100 797.0000 1.0000
51.4200 762.0000 1.0000
51.4300 893.0000 1.0000
51.4400 874.0000 1.0000
51.4500 848.0000 1.0000
51.4600 891.0000 1.0000
51.4700 930.0000 1.0000
51.4800 904.0000 1.0000
51.4900 902.0000 1.0000
51.5000 845.0000 1.0000
51.5100 860.0000 1.0000
51.5200 873.0000 1.0000
51.5300 816.0000 1.0000
51.5400 827.0000 1.0000
51.5500 757.0000 1.0000
51.5600 777.0000 1.0000
51.5700 769.0000 1.0000
51.5800 752.0000 1.0000
51.5900 726.0000 1.0000
51.6000 722.0000 1.0000
51.6100 678.0000 1.0000
51.6200 672.0000 1.0000
51.6300 616.0000 1.0000
51.6400 662.0000 1.0000
51.6500 563.0000 1.0000
51.6600 577.0000 1.0000
51.6700 546.0000 1.0000
51.6800 537.0000 1.0000
51.6900 536.0000 1.0000
51.7000 502.0000 1.0000
51.7100 445.0000 1.0000
51.7200 450.0000 1.0000
51.7300 401.0000 1.0000
51.7400 422.0000 1.0000
51.7500 406.0000 1.0000
51.7600 416.0000 1.0000
51.7700 416.0000 1.0000
51.7800 383.0000 1.0000
51.7900 387.0000 1.0000
51.8000 370.0000 1.0000
51.8100 353.0000 1.0000
51.8200 351.0000 1.0000
51.8300 349.0000 1.0000
51.8400 330.0000 1.0000
51.8500 314.0000 1.0000
51.8600 328.0000 1.0000
51.8700 327.0000 1.0000
51.8800 341.0000 1.0000
51.8900 333.0000 1.0000
51.9000 301.0000 1.0000
51.9100 316.0000 1.0000
51.9200 312.0000 1.0000
51.9300 335.0000 1.0000
51.9400 327.0000 1.0000
51.9500 311.0000 1.0000
51.9600 312.0000 1.0000
51.9700 311.0000 1.0000
51.9800 295.0000 1.0000
51.9900 301.0000 1.0000
52.0000 300.0000 1.0000
52.0100 286.0000 1.0000
52.0200 300.0000 1.0000
52.0300 274.0000 1.0000
52.0400 292.0000 1.0000
52.0500 280.0000 1.0000
52.0600 281.0000 1.0000
52.0700 277.0000 1.0000
52.0800 272.0000 1.0000
52.0900 288.0000 1.0000
52.1000 271.0000 1.0000
52.1100 293.0000 1.0000
52.1200 271.0000 1.0000
52.1300 256.0000 1.0000
52.1400 277.0000 1.0000
52.1500 283.0000 1.0000
52.1600 258.0000 1.0000
52.1700 247.0000 1.0000
52.1800 263.0000 1.0000
52.1900 272.0000 1.0000
52.2000 257.0000 1.0000
52.2100 262.0000 1.0000
52.2200 271.0000 1.0000
52.2300 267.0000 1.0000
52.2400 242.0000 1.0000
52.2500 267.0000 1.0000
52.2600 267.0000 1.0000
52.2700 269.0000 1.0000
52.2800 238.0000 1.0000
52.2900 282.0000 1.0000
52.3000 270.0000 1.0000
52.3100 280.0000 1.0000
52.3200 272.0000 1.0000
52.3300 266.0000 1.0000
52.3400 266.0000 1.0000
52.3500 239.0000 1.0000
52.3600 251.0000 1.0000
52.3700 296.0000 1.0000
52.3800 275.0000 1.0000
52.3900 270.0000 1.0000
52.4000 272.0000 1.0000
52.4100 255.0000 1.0000
52.4200 250.0000 1.0000
52.4300 281.0000 1.0000
52.4400 248.0000 1.0000
52.4500 254.0000 1.0000
52.4600 247.0000 1.0000
52.4700 265.0000 1.0000
52.4800 243.0000 1.0000
52.4900 274.0000 1.0000
52.5000 264.0000 1.0000
52.5100 303.0000 1.0000
52.5200 281.0000 1.0000
52.5300 280.0000 1.0000
52.5400 279.0000 1.0000
52.5500 280.0000 1.0000
52.5600 294.0000 1.0000
52.5700 259.0000 1.0000
52.5800 262.0000 1.0000
52.5900 245.0000 1.0000
52.6000 242.0000 1.0000
52.6100 263.0000 1.0000
52.6200 274.0000 1.0000
52.6300 267.0000 1.0000
52.6400 257.0000 1.0000
52.6500 257.0000 1.0000
52.6600 254.0000 1.0000
52.6700 281.0000 1.0000
52.6800 248.0000 1.0000
52.6900 263.0000 1.0000
52.7000 273.0000 1.0000
52.7100 256.0000 1.0000
52.7200 270.0000 1.0000
52.7300 259.0000 1.0000
52.7400 245.0000 1.0000
52.7500 234.0000 1.0000
52.7600 245.0000 1.0000
52.7700 260.0000 1.0000
52.7800 253.0000 1.0000
52.7900 260.0000 1.0000
52.8000 262.0000 1.0000
52.8100 267.0000 1.0000
52.8200 257.0000 1.0000
52.8300 246.0000 1.0000
52.8400 246.0000 1.0000
52.8500 267.0000 1.0000
52.8600 269.0000 1.0000
52.8700 258.0000 1.0000
52.8800 255.0000 1.0000
52.8900 271.0000 1.0000
52.9000 282.0000 1.0000
52.9100 259.0000 1.0000
52.9200 269.0000 1.0000
52.9300 236.0000 1.0000
52.9400 252.0000 1.0000
52.9500 251.0000 1.0000
52.9600 255.0000 1.0000
52.9700 229.0000 1.0000
52.9800 248.0000 1.0000
52.9900 287.0000 1.0000
53.0000 252.0000 1.0000
53.0100 247.0000 1.0000
53.0200 253.0000 1.0000
53.0300 249.0000 1.0000
53.0400 252.0000 1.0000
53.0500 259.0000 1.0000
53.0600 260.0000 1.0000
53.0700 263.0000 1.0000
53.0800 234.0000 1.0000
53.0900 240.0000 1.0000
53.1000 243.0000 1.0000
53.1100 239.0000 1.0000
53.1200 262.0000 1.0000
53.1300 252.0000 1.0000
53.1400 272.0000 1.0000
53.1500 272.0000 1.0000
53.1600 268.0000 1.0000
53.1700 271.0000 1.0000
53.1800 274.0000 1.0000
53.1900 254.0000 1.0000
53.2000 235.0000 1.0000
53.2100 289.0000 1.0000
53.2200 262.0000 1.0000
53.2300 253.0000 1.0000
53.2400 267.0000 1.0000
53.2500 235.0000 1.0000
53.2600 251.0000 1.0000
53.2700 262.0000 1.0000
53.2800 236.0000 1.0000
53.2900 266.0000 1.0000
53.3000 243.0000 1.0000
53.3100 257.0000 1.0000
53.3200 248.0000 1.0000
53.3300 228.0000 1.0000
53.3400 269.0000 1.0000
53.3500 261.0000 1.0000
53.3600 269.0000 1.0000
53.3700 263.0000 1.0000
53.3800 249.0000 1.0000
53.3900 274.0000 1.0000
53.4000 264.0000 1.0000
53.4100 273.0000 1.0000
53.4200 259.0000 1.0000
53.4300 250.0000 1.0000
53.4400 261.0000 1.0000
53.4500 270.0000 1.0000
53.4600 240.0000 1.0000
53.4700 261.0000 1.0000
53.4800 284.0000 1.0000
53.4900 230.0000 1.0000
53.5000 267.0000 1.0000
53.5100 235.0000 1.0000
53.5200 256.0000 1.0000
53.5300 260.0000 1.0000
53.5400 252.0000 1.0000
53.5500 246.0000 1.0000
53.5600 245.0000 1.0000
53.5700 252.0000 1.0000
53.5800 241.0000 1.0000
53.5900 262.0000 1.0000
53.6000 255.0000 1.0000
53.6100 247.0000 1.0000
53.6200 257.0000 1.0000
53.6300 248.0000 1.0000
53.6400 259.0000 1.0000
53.6500 255.0000 1.0000
53.6600 271.0000 1.0000
53.6700 267.0000 1.0000
53.6800 266.0000 1.0000
53.6900 249.0000 1.0000
53.7000 250.0000 1.0000
53.7100 262.0000 1.0000
53.7200 244.0000 1.0000
53.7300 264.0000 1.0000
53.7400 277.0000 1.0000
53.7500 275.0000 1.0000
53.7600 260.0000 1.0000
53.7700 266.0000 1.0000
53.7800 243.0000 1.0000
53.7900 262.0000 1.0000
53.8000 261.0000 1.0000
53.8100 275.0000 1.0000
53.8200 275.0000 1.0000
53.8300 265.0000 1.0000
53.8400 273.0000 1.0000
53.8500 275.0000 1.0000
53.8600 288.0000 1.0000
53.8700 274.0000 1.0000
53.8800 269.0000 1.0000
53.8900 298.0000 1.0000
53.9000 305.0000 1.0000
53.9100 258.0000 1.0000
53.9200 262.0000 1.0000
53.9300 274.0000 1.0000
53.9400 277.0000 1.0000
53.9500 304.0000 1.0000
53.9600 305.0000 1.0000
53.9700 288.0000 1.0000
53.9800 280.0000 1.0000
53.9900 268.0000 1.0000
54.0000 289.0000 1.0000
54.0100 296.0000 1.0000
54.0200 328.0000 1.0000
54.0300 284.0000 1.0000
54.0400 299.0000 1.0000
54.0500 279.0000 1.0000
54.0600 290.0000 1.0000
54.0700 286.0000 1.0000
54.0800 271.0000 1.0000
54.0900 265.0000 1.0000
54.1000 305.0000 1.0000
54.1100 285.0000 1.0000
54.1200 303.0000 1.0000
54.1300 315.0000 1.0000
54.1400 282.0000 1.0000
54.1500 289.0000 1.0000
54.1600 293.0000 1.0000
54.1700 299.0000 1.0000
54.1800 292.0000 1.0000
54.1900 283.0000 1.0000
54.2000 309.0000 1.0000
54.2100 292.0000 1.0000
54.2200 283.0000 1.0000
54.2300 278.0000 1.0000
54.2400 323.0000 1.0000
54.2500 275.0000 1.0000
54.2600 270.0000 1.0000
54.2700 298.0000 1.0000
54.2800 294.0000 1.0000
54.2900 311.0000 1.0000
54.3000 274.0000 1.0000
54.3100 278.0000 1.0000
54.3200 292.0000 1.0000
54.3300 323.0000 1.0000
54.3400 316.0000 1.0000
54.3500 281.0000 1.0000
54.3600 286.0000 1.0000
54.3700 290.0000 1.0000
54.3800 305.0000 1.0000
54.3900 306.0000 1.0000
54.4000 310.0000 1.0000
54.4100 287.0000 1.0000
54.4200 310.0000 1.0000
54.4300 304.0000 1.0000
54.4400 300.0000 1.0000
54.4500 321.0000 1.0000
54.4600 347.0000 1.0000
54.4700 293.0000 1.0000
54.4800 323.0000 1.0000
54.4900 326.0000 1.0000
54.5000 314.0000 1.0000
54.5100 311.0000 1.0000
54.5200 309.0000 1.0000
54.5300 318.0000 1.0000
54.5400 349.0000 1.0000
54.5500 346.0000 1.0000
54.5600 324.0000 1.0000
54.5700 328.0000 1.0000
54.5800 313.0000 1.0000
54.5900 307.0000 1.0000
54.6000 293.0000 1.0000
54.6100 317.0000 1.0000
54.6200 311.0000 1.0000
54.6300 276.0000 1.0000
54.6400 295.0000 1.0000
54.6500 294.0000 1.0000
54.6600 280.0000 1.0000
54.6700 283.0000 1.0000
54.6800 287.0000 1.0000
54.6900 297.0000 1.0000
54.7000 266.0000 1.0000
54.7100 298.0000 1.0000
54.7200 287.0000 1.0000
54.7300 252.0000 1.0000
54.7400 280.0000 1.0000
54.7500 280.0000 1.0000
54.7600 258.0000 1.0000
54.7700 265.0000 1.0000
54.7800 289.0000 1.0000
54.7900 257.0000 1.0000
54.8000 271.0000 1.0000
54.8100 283.0000 1.0000
54.8200 254.0000 1.0000
54.8300 277.0000 1.0000
54.8400 269.0000 1.0000
54.8500 285.0000 1.0000
54.8600 254.0000 1.0000
54.8700 262.0000 1.0000
54.8800 271.0000 1.0000
54.8900 249.0000 1.0000
54.9000 241.0000 1.0000
54.9100 253.0000 1.0000
54.9200 238.0000 1.0000
54.9300 272.0000 1.0000
54.9400 267.0000 1.0000
54.9500 254.0000 1.0000
54.9600 240.0000 1.0000
54.9700 259.0000 1.0000
54.9800 257.0000 1.0000
54.9900 287.0000 1.0000
55.0000 259.0000 1.0000
55.0100 272.0000 1.0000
55.0200 243.0000 1.0000
55.0300 254.0000 1.0000
55.0400 226.0000 1.0000
55.0500 242.0000 1.0000
55.0600 263.0000 1.0000
55.0700 276.0000 1.0000
55.0800 258.0000 1.0000
55.0900 266.0000 1.0000
55.1000 277.0000 1.0000
55.1100 251.0000 1.0000
55.1200 242.0000 1.0000
55.1300 246.0000 1.0000
55.1400 268.0000 1.0000
55.1500 274.0000 1.0000
55.1600 251.0000 1.0000
55.1700 244.0000 1.0000
55.1800 243.0000 1.0000
55.1900 242.0000 1.0000
55.2000 247.0000 1.0000
55.2100 224.0000 1.0000
55.2200 254.0000 1.0000
55.2300 261.0000 1.0000
55.2400 245.0000 1.0000
55.2500 250.0000 1.0000
55.2600 245.0000 1.0000
55.2700 265.0000 1.0000
55.2800 225.0000 1.0000
55.2900 253.0000 1.0000
55.3000 238.0000 1.0000
55.3100 255.0000 1.0000
55.3200 248.0000 1.0000
55.3300 248.0000 1.0000
55.3400 251.0000 1.0000
55.3500 225.0000 1.0000
55.3600 237.0000 1.0000
55.3700 244.0000 1.0000
55.3800 261.0000 1.0000
55.3900 260.0000 1.0000
55.4000 244.0000 1.0000
55.4100 245.0000 1.0000
55.4200 256.0000 1.0000
55.4300 267.0000 1.0000
55.4400 251.0000 1.0000
55.4500 256.0000 1.0000
55.4600 279.0000 1.0000
55.4700 251.0000 1.0000
55.4800 252.0000 1.0000
55.4900 267.0000 1.0000
55.5000 229.0000 1.0000
55.5100 242.0000 1.0000
55.5200 230.0000 1.0000
55.5300 235.0000 1.0000
55.5400 264.0000 1.0000
55.5500 248.0000 1.0000
55.5600 240.0000 1.0000
55.5700 264.0000 1.0000
55.5800 270.0000 1.0000
55.5900 253.0000 1.0000
55.6000 232.0000 1.0000
55.6100 247.0000 1.0000
55.6200 228.0000 1.0000
55.6300 253.0000 1.0000
55.6400 253.0000 1.0000
55.6500 251.0000 1.0000
55.6600 246.0000 1.0000
55.6700 232.0000 1.0000
55.6800 215.0000 1.0000
55.6900 230.0000 1.0000
55.7000 244.0000 1.0000
55.7100 254.0000 1.0000
55.7200 250.0000 1.0000
55.7300 254.0000 1.0000
55.7400 267.0000 1.0000
55.7500 274.0000 1.0000
55.7600 237.0000 1.0000
55.7700 241.0000 1.0000
55.7800 261.0000 1.0000
55.7900 255.0000 1.0000
55.8000 262.0000 1.0000
55.8100 237.0000 1.0000
55.8200 239.0000 1.0000
55.8300 272.0000 1.0000
55.8400 260.0000 1.0000
55.8500 264.0000 1.0000
55.8600 248.0000 1.0000
55.8700 243.0000 1.0000
55.8800 241.0000 1.0000
55.8900 219.0000 1.0000
55.9000 266.0000 1.0000
55.9100 229.0000 1.0000
55.9200 262.0000 1.0000
55.9300 246.0000 1.0000
55.9400 231.0000 1.0000
55.9500 222.0000 1.0000
55.9600 272.0000 1.0000
55.9700 241.0000 1.0000
55.9800 240.0000 1.0000
55.9900 218.0000 1.0000
56.0000 284.0000 1.0000
56.0100 239.0000 1.0000
56.0200 253.0000 1.0000
56.0300 238.0000 1.0000
56.0400 236.0000 1.0000
56.0500 237.0000 1.0000
56.0600 249.0000 1.0000
56.0700 239.0000 1.0000
56.0800 236.0000 1.0000
56.0900 248.0000 1.0000
56.1000 251.0000 1.0000
56.1100 266.0000 1.0000
56.1200 242.0000 1.0000
56.1300 230.0000 1.0000
56.1400 246.0000 1.0000
56.1500 267.0000 1.0000
56.1600 252.0000 1.0000
56.1700 249.0000 1.0000
56.1800 262.0000 1.0000
56.1900 248.0000 1.0000
56.2000 239.0000 1.0000
56.2100 254.0000 1.0000
56.2200 240.0000 1.0000
56.2300 237.0000 1.0000
56.2400 244.0000 1.0000
56.2500 239.0000 1.0000
56.2600 247.0000 1.0000
56.2700 242.0000 1.0000
56.2800 235.0000 1.0000
56.2900 246.0000 1.0000
56.3000 248.0000 1.0000
56.3100 244.0000 1.0000
56.3200 241.0000 1.0000
56.3300 244.0000 1.0000
56.3400 243.0000 1.0000
56.3500 248.0000 1.0000
56.3600 239.0000 1.0000
56.3700 261.0000 1.0000
56.3800 238.0000 1.0000
56.3900 239.0000 1.0000
56.4000 240.0000 1.0000
56.4100 231.0000 1.0000
56.4200 259.0000 1.0000
56.4300 252.0000 1.0000
56.4400 236.0000 1.0000
56.4500 264.0000 1.0000
56.4600 257.0000 1.0000
56.4700 253.0000 1.0000
56.4800 260.0000 1.0000
56.4900 256.0000 1.0000
56.5000 262.0000 1.0000
56.5100 247.0000 1.0000
56.5200 234.0000 1.0000
56.5300 236.0000 1.0000
56.5400 220.0000 1.0000
56.5500 232.0000 1.0000
56.5600 259.0000 1.0000
56.5700 252.0000 1.0000
56.5800 262.0000 1.0000
56.5900 238.0000 1.0000
56.6000 242.0000 1.0000
56.6100 237.0000 1.0000
56.6200 256.0000 1.0000
56.6300 228.0000 1.0000
56.6400 243.0000 1.0000
56.6500 240.0000 1.0000
56.6600 236.0000 1.0000
56.6700 262.0000 1.0000
56.6800 215.0000 1.0000
56.6900 251.0000 1.0000
56.7000 231.0000 1.0000
56.7100 226.0000 1.0000
56.7200 231.0000 1.0000
56.7300 275.0000 1.0000
56.7400 237.0000 1.0000
56.7500 234.0000 1.0000
56.7600 234.0000 1.0000
56.7700 244.0000 1.0000
56.7800 259.0000 1.0000
56.7900 251.0000 1.0000
56.8000 258.0000 1.0000
56.8100 249.0000 1.0000
56.8200 230.0000 1.0000
56.8300 250.0000 1.0000
56.8400 259.0000 1.0000
56.8500 230.0000 1.0000
56.8600 244.0000 1.0000
56.8700 268.0000 1.0000
56.8800 243.0000 1.0000
56.8900 211.0000 1.0000
56.9000 227.0000 1.0000
56.9100 254.0000 1.0000
56.9200 257.0000 1.0000
56.9300 256.0000 1.0000
56.9400 253.0000 1.0000
56.9500 239.0000 1.0000
56.9600 233.0000 1.0000
56.9700 234.0000 1.0000
56.9800 233.0000 1.0000
56.9900 245.0000 1.0000
57.0000 236.0000 1.0000
57.0100 239.0000 1.0000
57.0200 233.0000 1.0000
57.0300 273.0000 1.0000
57.0400 264.0000 1.0000
57.0500 255.0000 1.0000
57.0600 248.0000 1.0000
57.0700 247.0000 1.0000
57.0800 254.0000 1.0000
57.0900 247.0000 1.0000
57.1000 245.0000 1.0000
57.1100 232.0000 1.0000
57.1200 248.0000 1.0000
57.1300 236.0000 1.0000
57.1400 232.0000 1.0000
57.1500 252.0000 1.0000
57.1600 257.0000 1.0000
57.1700 260.0000 1.0000
57.1800 231.0000 1.0000
57.1900 211.0000 1.0000
57.2000 227.0000 1.0000
57.2100 240.0000 1.0000
57.2200 238.0000 1.0000
57.2300 245.0000 1.0000
57.2400 264.0000 1.0000
57.2500 242.0000 1.0000
57.2600 268.0000 1.0000
57.2700 237.0000 1.0000
57.2800 245.0000 1.0000
57.2900 257.0000 1.0000
57.3000 255.0000 1.0000
57.3100 246.0000 1.0000
57.3200 254.0000 1.0000
57.3300 229.0000 1.0000
57.3400 238.0000 1.0000
57.3500 247.0000 1.0000
57.3600 245.0000 1.0000
57.3700 255.0000 1.0000
57.3800 265.0000 1.0000
57.3900 245.0000 1.0000
57.4000 266.0000 1.0000
57.4100 266.0000 1.0000
57.4200 242.0000 1.0000
57.4300 258.0000 1.0000
57.4400 264.0000 1.0000
57.4500 270.0000 1.0000
57.4600 244.0000 1.0000
57.4700 244.0000 1.0000
57.4800 255.0000 1.0000
57.4900 242.0000 1.0000
57.5000 251.0000 1.0000
57.5100 239.0000 1.0000
57.5200 232.0000 1.0000
57.5300 237.0000 1.0000
57.5400 237.0000 1.0000
57.5500 250.0000 1.0000
57.5600 269.0000 1.0000
57.5700 256.0000 1.0000
57.5800 225.0000 1.0000
57.5900 260.0000 1.0000
57.6000 247.0000 1.0000
57.6100 251.0000 1.0000
57.6200 235.0000 1.0000
57.6300 238.0000 1.0000
57.6400 252.0000 1.0000
57.6500 254.0000 1.0000
57.6600 231.0000 1.0000
57.6700 243.0000 1.0000
57.6800 244.0000 1.0000
57.6900 248.0000 1.0000
57.7000 240.0000 1.0000
57.7100 250.0000 1.0000
57.7200 239.0000 1.0000
57.7300 248.0000 1.0000
57.7400 254.0000 1.0000
57.7500 247.0000 1.0000
57.7600 224.0000 1.0000
57.7700 250.0000 1.0000
57.7800 255.0000 1.0000
57.7900 251.0000 1.0000
57.8000 264.0000 1.0000
57.8100 244.0000 1.0000
57.8200 245.0000 1.0000
57.8300 233.0000 1.0000
57.8400 253.0000 1.0000
57.8500 234.0000 1.0000
57.8600 246.0000 1.0000
57.8700 253.0000 1.0000
57.8800 240.0000 1.0000
57.8900 260.0000 1.0000
57.9000 246.0000 1.0000
57.9100 243.0000 1.0000
57.9200 241.0000 1.0000
57.9300 234.0000 1.0000
57.9400 243.0000 1.0000
57.9500 233.0000 1.0000
57.9600 238.0000 1.0000
57.9700 236.0000 1.0000
57.9800 218.0000 1.0000
57.9900 260.0000 1.0000
58.0000 240.0000 1.0000
58.0100 242.0000 1.0000
58.0200 262.0000 1.0000
58.0300 250.0000 1.0000
58.0400 232.0000 1.0000
58.0500 233.0000 1.0000
58.0600 236.0000 1.0000
58.0700 223.0000 1.0000
58.0800 252.0000 1.0000
58.0900 259.0000 1.0000
58.1000 257.0000 1.0000
58.1100 248.0000 1.0000
58.1200 254.0000 1.0000
58.1300 255.0000 1.0000
58.1400 251.0000 1.0000
58.1500 256.0000 1.0000
58.1600 239.0000 1.0000
58.1700 213.0000 1.0000
58.1800 250.0000 1.0000
58.1900 244.0000 1.0000
58.2000 232.0000 1.0000
58.2100 275.0000 1.0000
58.2200 244.0000 1.0000
58.2300 247.0000 1.0000
58.2400 252.0000 1.0000
58.2500 228.0000 1.0000
58.2600 241.0000 1.0000
58.2700 268.0000 1.0000
58.2800 233.0000 1.0000
58.2900 214.0000 1.0000
58.3000 251.0000 1.0000
58.3100 236.0000 1.0000
58.3200 231.0000 1.0000
58.3300 253.0000 1.0000
58.3400 277.0000 1.0000
58.3500 251.0000 1.0000
58.3600 248.0000 1.0000
58.3700 235.0000 1.0000
58.3800 240.0000 1.0000
58.3900 227.0000 1.0000
58.4000 221.0000 1.0000
58.4100 236.0000 1.0000
58.4200 234.0000 1.0000
58.4300 239.0000 1.0000
58.4400 223.0000 1.0000
58.4500 235.0000 1.0000
58.4600 226.0000 1.0000
58.4700 240.0000 1.0000
58.4800 256.0000 1.0000
58.4900 255.0000 1.0000
58.5000 238.0000 1.0000
58.5100 239.0000 1.0000
58.5200 238.0000 1.0000
58.5300 245.0000 1.0000
58.5400 241.0000 1.0000
58.5500 217.0000 1.0000
58.5600 243.0000 1.0000
58.5700 247.0000 1.0000
58.5800 263.0000 1.0000
58.5900 246.0000 1.0000
58.6000 224.0000 1.0000
58.6100 271.0000 1.0000
58.6200 266.0000 1.0000
58.6300 244.0000 1.0000
58.6400 247.0000 1.0000
58.6500 238.0000 1.0000
58.6600 243.0000 1.0000
58.6700 242.0000 1.0000
58.6800 239.0000 1.0000
58.6900 252.0000 1.0000
58.7000 227.0000 1.0000
58.7100 229.0000 1.0000
58.7200 240.0000 1.0000
58.7300 239.0000 1.0000
58.7400 231.0000 1.0000
58.7500 250.0000 1.0000
58.7600 223.0000 1.0000
58.7700 259.0000 1.0000
58.7800 249.0000 1.0000
58.7900 242.0000 1.0000
58.8000 241.0000 1.0000
58.8100 248.0000 1.0000
58.8200 247.0000 1.0000
58.8300 236.0000 1.0000
58.8400 256.0000 1.0000
58.8500 244.0000 1.0000
58.8600 236.0000 1.0000
58.8700 247.0000 1.0000
58.8800 268.0000 1.0000
58.8900 260.0000 1.0000
58.9000 234.0000 1.0000
58.9100 235.0000 1.0000
58.9200 244.0000 1.0000
58.9300 238.0000 1.0000
58.9400 245.0000 1.0000
58.9500 242.0000 1.0000
58.9600 243.0000 1.0000
58.9700 215.0000 1.0000
58.9800 262.0000 1.0000
58.9900 248.0000 1.0000
59.0000 226.0000 1.0000
59.0100 231.0000 1.0000
59.0200 236.0000 1.0000
59.0300 240.0000 1.0000
59.0400 256.0000 1.0000
59.0500 280.0000 1.0000
59.0600 241.0000 1.0000
59.0700 242.0000 1.0000
59.0800 231.0000 1.0000
59.0900 232.0000 1.0000
59.1000 259.0000 1.0000
59.1100 242.0000 1.0000
59.1200 215.0000 1.0000
59.1300 211.0000 1.0000
59.1400 204.0000 1.0000
59.1500 217.0000 1.0000
59.1600 220.0000 1.0000
59.1700 223.0000 1.0000
59.1800 225.0000 1.0000
59.1900 226.0000 1.0000
59.2000 233.0000 1.0000
59.2100 247.0000 1.0000
59.2200 249.0000 1.0000
59.2300 243.0000 1.0000
59.2400 217.0000 1.0000
59.2500 245.0000 1.0000
59.2600 251.0000 1.0000
59.2700 253.0000 1.0000
59.2800 249.0000 1.0000
59.2900 242.0000 1.0000
59.3000 249.0000 1.0000
59.3100 232.0000 1.0000
59.3200 237.0000 1.0000
59.3300 251.0000 1.0000
59.3400 239.0000 1.0000
59.3500 238.0000 1.0000
59.3600 223.0000 1.0000
59.3700 237.0000 1.0000
59.3800 232.0000 1.0000
59.3900 222.0000 1.0000
59.4000 237.0000 1.0000
59.4100 229.0000 1.0000
59.4200 263.0000 1.0000
59.4300 237.0000 1.0000
59.4400 240.0000 1.0000
59.4500 233.0000 1.0000
59.4600 263.0000 1.0000
59.4700 241.0000 1.0000
59.4800 261.0000 1.0000
59.4900 243.0000 1.0000
59.5000 249.0000 1.0000
59.5100 210.0000 1.0000
59.5200 219.0000 1.0000
59.5300 242.0000 1.0000
59.5400 224.0000 1.0000
59.5500 224.0000 1.0000
59.5600 254.0000 1.0000
59.5700 237.0000 1.0000
59.5800 260.0000 1.0000
59.5900 255.0000 1.0000
59.6000 238.0000 1.0000
59.6100 222.0000 1.0000
59.6200 223.0000 1.0000
59.6300 219.0000 1.0000
59.6400 235.0000 1.0000
59.6500 223.0000 1.0000
59.6600 233.0000 1.0000
59.6700 251.0000 1.0000
59.6800 216.0000 1.0000
59.6900 273.0000 1.0000
59.7000 225.0000 1.0000
59.7100 246.0000 1.0000
59.7200 231.0000 1.0000
59.7300 227.0000 1.0000
59.7400 216.0000 1.0000
59.7500 250.0000 1.0000
59.7600 243.0000 1.0000
59.7700 215.0000 1.0000
59.7800 239.0000 1.0000
59.7900 225.0000 1.0000
59.8000 209.0000 1.0000
59.8100 230.0000 1.0000
59.8200 249.0000 1.0000
59.8300 238.0000 1.0000
59.8400 236.0000 1.0000
59.8500 243.0000 1.0000
59.8600 239.0000 1.0000
59.8700 236.0000 1.0000
59.8800 237.0000 1.0000
59.8900 250.0000 1.0000
59.9000 250.0000 1.0000
59.9100 239.0000 1.0000
59.9200 259.0000 1.0000
59.9300 220.0000 1.0000
59.9400 239.0000 1.0000
59.9500 266.0000 1.0000
59.9600 226.0000 1.0000
59.9700 231.0000 1.0000
59.9800 228.0000 1.0000
59.9900 244.0000 1.0000
60.0000 245.0000 1.0000
60.0100 248.0000 1.0000
60.0200 235.0000 1.0000
60.0300 224.0000 1.0000
60.0400 217.0000 1.0000
60.0500 239.0000 1.0000
60.0600 248.0000 1.0000
60.0700 243.0000 1.0000
60.0800 247.0000 1.0000
60.0900 241.0000 1.0000
60.1000 242.0000 1.0000
60.1100 241.0000 1.0000
60.1200 264.0000 1.0000
60.1300 254.0000 1.0000
60.1400 231.0000 1.0000
60.1500 229.0000 1.0000
60.1600 252.0000 1.0000
60.1700 224.0000 1.0000
60.1800 214.0000 1.0000
60.1900 241.0000 1.0000
60.2000 250.0000 1.0000
60.2100 236.0000 1.0000
60.2200 223.0000 1.0000
60.2300 223.0000 1.0000
60.2400 231.0000 1.0000
60.2500 236.0000 1.0000
60.2600 236.0000 1.0000
60.2700 224.0000 1.0000
60.2800 248.0000 1.0000
60.2900 256.0000 1.0000
60.3000 267.0000 1.0000
60.3100 232.0000 1.0000
60.3200 231.0000 1.0000
60.3300 230.0000 1.0000
60.3400 242.0000 1.0000
60.3500 238.0000 1.0000
60.3600 234.0000 1.0000
60.3700 235.0000 1.0000
60.3800 249.0000 1.0000
60.3900 230.0000 1.0000
60.4000 248.0000 1.0000
60.4100 227.0000 1.0000
60.4200 237.0000 1.0000
60.4300 276.0000 1.0000
60.4400 264.0000 1.0000
60.4500 268.0000 1.0000
60.4600 267.0000 1.0000
60.4700 243.0000 1.0000
60.4800 249.0000 1.0000
60.4900 233.0000 1.0000
60.5000 242.0000 1.0000
60.5100 216.0000 1.0000
60.5200 241.0000 1.0000
60.5300 275.0000 1.0000
60.5400 260.0000 1.0000
60.5500 239.0000 1.0000
60.5600 274.0000 1.0000
60.5700 240.0000 1.0000
60.5800 247.0000 1.0000
60.5900 259.0000 1.0000
60.6000 231.0000 1.0000
60.6100 257.0000 1.0000
60.6200 241.0000 1.0000
60.6300 237.0000 1.0000
60.6400 265.0000 1.0000
60.6500 251.0000 1.0000
60.6600 245.0000 1.0000
60.6700 251.0000 1.0000
60.6800 247.0000 1.0000
60.6900 237.0000 1.0000
60.7000 252.0000 1.0000
60.7100 241.0000 1.0000
60.7200 255.0000 1.0000
60.7300 244.0000 1.0000
60.7400 229.0000 1.0000
60.7500 236.0000 1.0000
60.7600 263.0000 1.0000
60.7700 279.0000 1.0000
60.7800 272.0000 1.0000
60.7900 254.0000 1.0000
60.8000 243.0000 1.0000
60.8100 250.0000 1.0000
60.8200 259.0000 1.0000
60.8300 259.0000 1.0000
60.8400 292.0000 1.0000
60.8500 271.0000 1.0000
60.8600 274.0000 1.0000
60.8700 254.0000 1.0000
60.8800 247.0000 1.0000
60.8900 279.0000 1.0000
60.9000 258.0000 1.0000
60.9100 233.0000 1.0000
60.9200 245.0000 1.0000
60.9300 279.0000 1.0000
60.9400 252.0000 1.0000
60.9500 265.0000 1.0000
60.9600 272.0000 1.0000
60.9700 274.0000 1.0000
60.9800 252.0000 1.0000
60.9900 272.0000 1.0000
61.0000 301.0000 1.0000
61.0100 284.0000 1.0000
61.0200 270.0000 1.0000
61.0300 258.0000 1.0000
61.0400 274.0000 1.0000
61.0500 278.0000 1.0000
61.0600 269.0000 1.0000
61.0700 263.0000 1.0000
61.0800 289.0000 1.0000
61.0900 304.0000 1.0000
61.1000 285.0000 1.0000
61.1100 300.0000 1.0000
61.1200 298.0000 1.0000
61.1300 275.0000 1.0000
61.1400 288.0000 1.0000
61.1500 277.0000 1.0000
61.1600 261.0000 1.0000
61.1700 307.0000 1.0000
61.1800 334.0000 1.0000
61.1900 293.0000 1.0000
61.2000 315.0000 1.0000
61.2100 311.0000 1.0000
61.2200 295.0000 1.0000
61.2300 307.0000 1.0000
61.2400 304.0000 1.0000
61.2500 327.0000 1.0000
61.2600 327.0000 1.0000
61.2700 341.0000 1.0000
61.2800 301.0000 1.0000
61.2900 335.0000 1.0000
61.3000 349.0000 1.0000
61.3100 369.0000 1.0000
61.3200 350.0000 1.0000
61.3300 347.0000 1.0000
61.3400 375.0000 1.0000
61.3500 401.0000 1.0000
61.3600 352.0000 1.0000
61.3700 383.0000 1.0000
61.3800 386.0000 1.0000
61.3900 415.0000 1.0000
61.4000 410.0000 1.0000
61.4100 453.0000 1.0000
61.4200 445.0000 1.0000
61.4300 422.0000 1.0000
61.4400 434.0000 1.0000
61.4500 488.0000 1.0000
61.4600 501.0000 1.0000
61.4700 482.0000 1.0000
61.4800 460.0000 1.0000
61.4900 512.0000 1.0000
61.5000 504.0000 1.0000
61.5100 506.0000 1.0000
61.5200 505.0000 1.0000
61.5300 490.0000 1.0000
61.5400 521.0000 1.0000
61.5500 505.0000 1.0000
61.5600 495.0000 1.0000
61.5700 497.0000 1.0000
61.5800 531.0000 1.0000
61.5900 524.0000 1.0000
61.6000 485.0000 1.0000
61.6100 500.0000 1.0000
61.6200 472.0000 1.0000
61.6300 493.0000 1.0000
61.6400 545.0000 1.0000
61.6500 518.0000 1.0000
61.6600 493.0000 1.0000
61.6700 480.0000 1.0000
61.6800 499.0000 1.0000
61.6900 480.0000 1.0000
61.7000 465.0000 1.0000
61.7100 463.0000 1.0000
61.7200 490.0000 1.0000
61.7300 454.0000 1.0000
61.7400 438.0000 1.0000
61.7500 430.0000 1.0000
61.7600 461.0000 1.0000
61.7700 438.0000 1.0000
61.7800 454.0000 1.0000
61.7900 429.0000 1.0000
61.8000 454.0000 1.0000
61.8100 402.0000 1.0000
61.8200 426.0000 1.0000
61.8300 416.0000 1.0000
61.8400 393.0000 1.0000
61.8500 394.0000 1.0000
61.8600 377.0000 1.0000
61.8700 365.0000 1.0000
61.8800 378.0000 1.0000
61.8900 365.0000 1.0000
61.9000 348.0000 1.0000
61.9100 348.0000 1.0000
61.9200 325.0000 1.0000
61.9300 346.0000 1.0000
61.9400 344.0000 1.0000
61.9500 323.0000 1.0000
61.9600 340.0000 1.0000
61.9700 287.0000 1.0000
61.9800 310.0000 1.0000
61.9900 321.0000 1.0000
62.0000 308.0000 1.0000
62.0100 303.0000 1.0000
62.0200 263.0000 1.0000
62.0300 290.0000 1.0000
62.0400 293.0000 1.0000
62.0500 272.0000 1.0000
62.0600 276.0000 1.0000
62.0700 326.0000 1.0000
62.0800 299.0000 1.0000
62.0900 290.0000 1.0000
62.1000 301.0000 1.0000
62.1100 292.0000 1.0000
62.1200 297.0000 1.0000
62.1300 286.0000 1.0000
62.1400 311.0000 1.0000
62.1500 276.0000 1.0000
62.1600 267.0000 1.0000
62.1700 267.0000 1.0000
62.1800 295.0000 1.0000
62.1900 275.0000 1.0000
62.2000 265.0000 1.0000
62.2100 278.0000 1.0000
62.2200 274.0000 1.0000
62.2300 274.0000 1.0000
62.2400 282.0000 1.0000
62.2500 277.0000 1.0000
62.2600 264.0000 1.0000
62.2700 271.0000 1.0000
62.2800 312.0000 1.0000
62.2900 309.0000 1.0000
62.3000 298.0000 1.0000
62.3100 258.0000 1.0000
62.3200 276.0000 1.0000
62.3300 274.0000 1.0000
62.3400 282.0000 1.0000
62.3500 287.0000 1.0000
62.3600 274.0000 1.0000
62.3700 270.0000 1.0000
62.3800 277.0000 1.0000
62.3900 262.0000 1.0000
62.4000 317.0000 1.0000
62.4100 289.0000 1.0000
62.4200 279.0000 1.0000
62.4300 286.0000 1.0000
62.4400 273.0000 1.0000
62.4500 297.0000 1.0000
62.4600 273.0000 1.0000
62.4700 285.0000 1.0000
62.4800 278.0000 1.0000
62.4900 299.0000 1.0000
62.5000 278.0000 1.0000
62.5100 281.0000 1.0000
62.5200 282.0000 1.0000
62.5300 287.0000 1.0000
62.5400 287.0000 1.0000
62.5500 268.0000 1.0000
62.5600 280.0000 1.0000
62.5700 258.0000 1.0000
62.5800 235.0000 1.0000
62.5900 228.0000 1.0000
62.6000 247.0000 1.0000
62.6100 284.0000 1.0000
62.6200 279.0000 1.0000
62.6300 276.0000 1.0000
62.6400 269.0000 1.0000
62.6500 273.0000 1.0000
62.6600 266.0000 1.0000
62.6700 268.0000 1.0000
62.6800 265.0000 1.0000
62.6900 243.0000 1.0000
62.7000 253.0000 1.0000
62.7100 267.0000 1.0000
62.7200 270.0000 1.0000
62.7300 230.0000 1.0000
62.7400 236.0000 1.0000
62.7500 244.0000 1.0000
62.7600 231.0000 1.0000
62.7700 244.0000 1.0000
62.7800 248.0000 1.0000
62.7900 271.0000 1.0000
62.8000 244.0000 1.0000
62.8100 221.0000 1.0000
62.8200 255.0000 1.0000
62.8300 240.0000 1.0000
62.8400 266.0000 1.0000
62.8500 244.0000 1.0000
62.8600 246.0000 1.0000
62.8700 259.0000 1.0000
62.8800 257.0000 1.0000
62.8900 240.0000 1.0000
62.9000 263.0000 1.0000
62.9100 231.0000 1.0000
62.9200 258.0000 1.0000
62.9300 256.0000 1.0000
62.9400 261.0000 1.0000
62.9500 231.0000 1.0000
62.9600 239.0000 1.0000
62.9700 234.0000 1.0000
62.9800 233.0000 1.0000
62.9900 206.0000 1.0000
63.0000 265.0000 1.0000
63.0100 246.0000 1.0000
63.0200 278.0000 1.0000
63.0300 269.0000 1.0000
63.0400 252.0000 1.0000
63.0500 227.0000 1.0000
63.0600 246.0000 1.0000
63.0700 248.0000 1.0000
63.0800 237.0000 1.0000
63.0900 259.0000 1.0000
63.1000 247.0000 1.0000
63.1100 229.0000 1.0000
63.1200 257.0000 1.0000
63.1300 252.0000 1.0000
63.1400 256.0000 1.0000
63.1500 238.0000 1.0000
63.1600 260.0000 1.0000
63.1700 261.0000 1.0000
63.1800 238.0000 1.0000
63.1900 262.0000 1.0000
63.2000 262.0000 1.0000
63.2100 267.0000 1.0000
63.2200 246.0000 1.0000
63.2300 254.0000 1.0000
63.2400 230.0000 1.0000
63.2500 244.0000 1.0000
63.2600 277.0000 1.0000
63.2700 240.0000 1.0000
63.2800 249.0000 1.0000
63.2900 238.0000 1.0000
63.3000 257.0000 1.0000
63.3100 253.0000 1.0000
63.3200 257.0000 1.0000
63.3300 273.0000 1.0000
63.3400 263.0000 1.0000
63.3500 240.0000 1.0000
63.3600 230.0000 1.0000
63.3700 220.0000 1.0000
63.3800 266.0000 1.0000
63.3900 243.0000 1.0000
63.4000 244.0000 1.0000
63.4100 270.0000 1.0000
63.4200 279.0000 1.0000
63.4300 250.0000 1.0000
63.4400 246.0000 1.0000
63.4500 243.0000 1.0000
63.4600 236.0000 1.0000
63.4700 241.0000 1.0000
63.4800 258.0000 1.0000
63.4900 251.0000 1.0000
63.5000 251.0000 1.0000
63.5100 241.0000 1.0000
63.5200 240.0000 1.0000
63.5300 251.0000 1.0000
63.5400 251.0000 1.0000
63.5500 252.0000 1.0000
63.5600 264.0000 1.0000
63.5700 255.0000 1.0000
63.5800 262.0000 1.0000
63.5900 246.0000 1.0000
63.6000 239.0000 1.0000
63.6100 254.0000 1.0000
63.6200 228.0000 1.0000
63.6300 245.0000 1.0000
63.6400 241.0000 1.0000
63.6500 269.0000 1.0000
63.6600 258.0000 1.0000
63.6700 255.0000 1.0000
63.6800 246.0000 1.0000
63.6900 247.0000 1.0000
63.7000 254.0000 1.0000
63.7100 258.0000 1.0000
63.7200 267.0000 1.0000
63.7300 274.0000 1.0000
63.7400 285.0000 1.0000
63.7500 266.0000 1.0000
63.7600 252.0000 1.0000
63.7700 241.0000 1.0000
63.7800 248.0000 1.0000
63.7900 257.0000 1.0000
63.8000 267.0000 1.0000
63.8100 292.0000 1.0000
63.8200 283.0000 1.0000
63.8300 280.0000 1.0000
63.8400 248.0000 1.0000
63.8500 262.0000 1.0000
63.8600 278.0000 1.0000
63.8700 286.0000 1.0000
63.8800 278.0000 1.0000
63.8900 292.0000 1.0000
63.9000 309.0000 1.0000
63.9100 322.0000 1.0000
63.9200 301.0000 1.0000
63.9300 330.0000 1.0000
63.9400 307.0000 1.0000
63.9500 306.0000 1.0000
63.9600 296.0000 1.0000
63.9700 318.0000 1.0000
63.9800 298.0000 1.0000
63.9900 318.0000 1.0000
64.0000 295.0000 1.0000
64.0100 312.0000 1.0000
64.0200 313.0000 1.0000
64.0300 291.0000 1.0000
64.0400 294.0000 1.0000
64.0500 301.0000 1.0000
64.0600 301.0000 1.0000
64.0700 302.0000 1.0000
64.0800 304.0000 1.0000
64.0900 313.0000 1.0000
64.1000 286.0000 1.0000
64.1100 294.0000 1.0000
64.1200 282.0000 1.0000
64.1300 282.0000 1.0000
64.1400 282.0000 1.0000
64.1500 272.0000 1.0000
64.1600 285.0000 1.0000
64.1700 283.0000 1.0000
64.1800 252.0000 1.0000
64.1900 287.0000 1.0000
64.2000 263.0000 1.0000
64.2100 286.0000 1.0000
64.2200 268.0000 1.0000
64.2300 249.0000 1.0000
64.2400 278.0000 1.0000
64.2500 240.0000 1.0000
64.2600 289.0000 1.0000
64.2700 282.0000 1.0000
64.2800 253.0000 1.0000
64.2900 255.0000 1.0000
64.3000 259.0000 1.0000
64.3100 253.0000 1.0000
64.3200 255.0000 1.0000
64.3300 259.0000 1.0000
64.3400 269.0000 1.0000
64.3500 261.0000 1.0000
64.3600 277.0000 1.0000
64.3700 258.0000 1.0000
64.3800 257.0000 1.0000
64.3900 255.0000 1.0000
64.4000 263.0000 1.0000
64.4100 250.0000 1.0000
64.4200 250.0000 1.0000
64.4300 258.0000 1.0000
64.4400 261.0000 1.0000
64.4500 286.0000 1.0000
64.4600 257.0000 1.0000
64.4700 230.0000 1.0000
64.4800 254.0000 1.0000
64.4900 269.0000 1.0000
64.5000 261.0000 1.0000
64.5100 251.0000 1.0000
64.5200 260.0000 1.0000
64.5300 270.0000 1.0000
64.5400 245.0000 1.0000
64.5500 236.0000 1.0000
64.5600 263.0000 1.0000
64.5700 249.0000 1.0000
64.5800 244.0000 1.0000
64.5900 245.0000 1.0000
64.6000 256.0000 1.0000
64.6100 255.0000 1.0000
64.6200 246.0000 1.0000
64.6300 232.0000 1.0000
64.6400 219.0000 1.0000
64.6500 243.0000 1.0000
64.6600 249.0000 1.0000
64.6700 235.0000 1.0000
64.6800 253.0000 1.0000
64.6900 266.0000 1.0000
64.7000 255.0000 1.0000
64.7100 247.0000 1.0000
64.7200 247.0000 1.0000
64.7300 248.0000 1.0000
64.7400 258.0000 1.0000
64.7500 252.0000 1.0000
64.7600 272.0000 1.0000
64.7700 236.0000 1.0000
64.7800 247.0000 1.0000
64.7900 271.0000 1.0000
64.8000 275.0000 1.0000
64.8100 266.0000 1.0000
64.8200 289.0000 1.0000
64.8300 274.0000 1.0000
64.8400 257.0000 1.0000
64.8500 248.0000 1.0000
64.8600 251.0000 1.0000
64.8700 255.0000 1.0000
64.8800 273.0000 1.0000
64.8900 297.0000 1.0000
64.9000 287.0000 1.0000
64.9100 262.0000 1.0000
64.9200 258.0000 1.0000
64.9300 266.0000 1.0000
64.9400 285.0000 1.0000
64.9500 279.0000 1.0000
64.9600 269.0000 1.0000
64.9700 280.0000 1.0000
64.9800 267.0000 1.0000
64.9900 294.0000 1.0000
65.0000 303.0000 1.0000
65.0100 277.0000 1.0000
65.0200 268.0000 1.0000
65.0300 297.0000 1.0000
65.0400 261.0000 1.0000
65.0500 316.0000 1.0000
65.0600 300.0000 1.0000
65.0700 290.0000 1.0000
65.0800 310.0000 1.0000
65.0900 294.0000 1.0000
65.1000 297.0000 1.0000
65.1100 323.0000 1.0000
65.1200 290.0000 1.0000
65.1300 308.0000 1.0000
65.1400 310.0000 1.0000
65.1500 320.0000 1.0000
65.1600 354.0000 1.0000
65.1700 345.0000 1.0000
65.1800 310.0000 1.0000
65.1900 350.0000 1.0000
65.2000 369.0000 1.0000
65.2100 395.0000 1.0000
65.2200 371.0000 1.0000
65.2300 351.0000 1.0000
65.2400 348.0000 1.0000
65.2500 394.0000 1.0000
65.2600 377.0000 1.0000
65.2700 393.0000 1.0000
65.2800 442.0000 1.0000
65.2900 445.0000 1.0000
65.3000 421.0000 1.0000
65.3100 426.0000 1.0000
65.3200 450.0000 1.0000
65.3300 471.0000 1.0000
65.3400 464.0000 1.0000
65.3500 544.0000 1.0000
65.3600 549.0000 1.0000
65.3700 554.0000 1.0000
65.3800 593.0000 1.0000
65.3900 630.0000 1.0000
65.4000 644.0000 1.0000
65.4100 642.0000 1.0000
65.4200 693.0000 1.0000
65.4300 728.0000 1.0000
65.4400 776.0000 1.0000
65.4500 763.0000 1.0000
65.4600 721.0000 1.0000
65.4700 786.0000 1.0000
65.4800 839.0000 1.0000
65.4900 797.0000 1.0000
65.5000 725.0000 1.0000
65.5100 792.0000 1.0000
65.5200 781.0000 1.0000
65.5300 799.0000 1.0000
65.5400 765.0000 1.0000
65.5500 738.0000 1.0000
65.5600 754.0000 1.0000
65.5700 740.0000 1.0000
65.5800 697.0000 1.0000
65.5900 681.0000 1.0000
65.6000 716.0000 1.0000
65.6100 687.0000 1.0000
65.6200 700.0000 1.0000
65.6300 699.0000 1.0000
65.6400 611.0000 1.0000
65.6500 672.0000 1.0000
65.6600 657.0000 1.0000
65.6700 618.0000 1.0000
65.6800 619.0000 1.0000
65.6900 615.0000 1.0000
65.7000 636.0000 1.0000
65.7100 557.0000 1.0000
65.7200 576.0000 1.0000
65.7300 509.0000 1.0000
65.7400 524.0000 1.0000
65.7500 541.0000 1.0000
65.7600 484.0000 1.0000
65.7700 475.0000 1.0000
65.7800 446.0000 1.0000
65.7900 447.0000 1.0000
65.8000 401.0000 1.0000
65.8100 446.0000 1.0000
65.8200 414.0000 1.0000
65.8300 367.0000 1.0000
65.8400 375.0000 1.0000
65.8500 379.0000 1.0000
65.8600 368.0000 1.0000
65.8700 345.0000 1.0000
65.8800 366.0000 1.0000
65.8900 345.0000 1.0000
65.9000 344.0000 1.0000
65.9100 319.0000 1.0000
65.9200 326.0000 1.0000
65.9300 314.0000 1.0000
65.9400 304.0000 1.0000
65.9500 304.0000 1.0000
65.9600 333.0000 1.0000
65.9700 303.0000 1.0000
65.9800 309.0000 1.0000
65.9900 310.0000 1.0000
66.0000 282.0000 1.0000
66.0100 294.0000 1.0000
66.0200 290.0000 1.0000
66.0300 284.0000 1.0000
66.0400 268.0000 1.0000
66.0500 284.0000 1.0000
66.0600 280.0000 1.0000
66.0700 280.0000 1.0000
66.0800 307.0000 1.0000
66.0900 252.0000 1.0000
66.1000 270.0000 1.0000
66.1100 247.0000 1.0000
66.1200 264.0000 1.0000
66.1300 241.0000 1.0000
66.1400 267.0000 1.0000
66.1500 257.0000 1.0000
66.1600 236.0000 1.0000
66.1700 270.0000 1.0000
66.1800 262.0000 1.0000
66.1900 283.0000 1.0000
66.2000 262.0000 1.0000
66.2100 251.0000 1.0000
66.2200 262.0000 1.0000
66.2300 232.0000 1.0000
66.2400 255.0000 1.0000
66.2500 251.0000 1.0000
66.2600 256.0000 1.0000
66.2700 230.0000 1.0000
66.2800 249.0000 1.0000
66.2900 255.0000 1.0000
66.3000 249.0000 1.0000
66.3100 241.0000 1.0000
66.3200 264.0000 1.0000
66.3300 245.0000 1.0000
66.3400 223.0000 1.0000
66.3500 237.0000 1.0000
66.3600 266.0000 1.0000
66.3700 244.0000 1.0000
66.3800 245.0000 1.0000
66.3900 265.0000 1.0000
66.4000 264.0000 1.0000
66.4100 232.0000 1.0000
66.4200 230.0000 1.0000
66.4300 207.0000 1.0000
66.4400 250.0000 1.0000
66.4500 237.0000 1.0000
66.4600 241.0000 1.0000
66.4700 259.0000 1.0000
66.4800 236.0000 1.0000
66.4900 229.0000 1.0000
66.5000 235.0000 1.0000
66.5100 252.0000 1.0000
66.5200 247.0000 1.0000
66.5300 238.0000 1.0000
66.5400 252.0000 1.0000
66.5500 231.0000 1.0000
66.5600 215.0000 1.0000
66.5700 229.0000 1.0000
66.5800 261.0000 1.0000
66.5900 255.0000 1.0000
66.6000 244.0000 1.0000
66.6100 235.0000 1.0000
66.6200 245.0000 1.0000
66.6300 255.0000 1.0000
66.6400 227.0000 1.0000
66.6500 229.0000 1.0000
66.6600 249.0000 1.0000
66.6700 212.0000 1.0000
66.6800 223.0000 1.0000
66.6900 226.0000 1.0000
66.7000 222.0000 1.0000
66.7100 250.0000 1.0000
66.7200 223.0000 1.0000
66.7300 232.0000 1.0000
66.7400 222.0000 1.0000
66.7500 205.0000 1.0000
66.7600 208.0000 1.0000
66.7700 248.0000 1.0000
66.7800 233.0000 1.0000
66.7900 234.0000 1.0000
66.8000 228.0000 1.0000
66.8100 235.0000 1.0000
66.8200 224.0000 1.0000
66.8300 203.0000 1.0000
66.8400 223.0000 1.0000
66.8500 235.0000 1.0000
66.8600 223.0000 1.0000
66.8700 231.0000 1.0000
66.8800 239.0000 1.0000
66.8900 244.0000 1.0000
66.9000 237.0000 1.0000
66.9100 225.0000 1.0000
66.9200 229.0000 1.0000
66.9300 238.0000 1.0000
66.9400 227.0000 1.0000
66.9500 205.0000 1.0000
66.9600 186.0000 1.0000
66.9700 213.0000 1.0000
66.9800 205.0000 1.0000
66.9900 211.0000 1.0000
67.0000 229.0000 1.0000
67.0100 238.0000 1.0000
67.0200 239.0000 1.0000
67.0300 213.0000 1.0000
67.0400 214.0000 1.0000
67.0500 216.0000 1.0000
67.0600 210.0000 1.0000
67.0700 233.0000 1.0000
67.0800 221.0000 1.0000
67.0900 213.0000 1.0000
67.1000 233.0000 1.0000
67.1100 232.0000 1.0000
67.1200 224.0000 1.0000
67.1300 242.0000 1.0000
67.1400 237.0000 1.0000
67.1500 235.0000 1.0000
67.1600 234.0000 1.0000
67.1700 235.0000 1.0000
67.1800 215.0000 1.0000
67.1900 232.0000 1.0000
67.2000 222.0000 1.0000
67.2100 237.0000 1.0000
67.2200 238.0000 1.0000
67.2300 204.0000 1.0000
67.2400 234.0000 1.0000
67.2500 230.0000 1.0000
67.2600 215.0000 1.0000
67.2700 208.0000 1.0000
67.2800 230.0000 1.0000
67.2900 246.0000 1.0000
67.3000 231.0000 1.0000
67.3100 234.0000 1.0000
67.3200 208.0000 1.0000
67.3300 221.0000 1.0000
67.3400 228.0000 1.0000
67.3500 217.0000 1.0000
67.3600 221.0000 1.0000
67.3700 230.0000 1.0000
67.3800 219.0000 1.0000
67.3900 240.0000 1.0000
67.4000 233.0000 1.0000
67.4100 215.0000 1.0000
67.4200 224.0000 1.0000
67.4300 217.0000 1.0000
67.4400 204.0000 1.0000
67.4500 220.0000 1.0000
67.4600 214.0000 1.0000
67.4700 218.0000 1.0000
67.4800 214.0000 1.0000
67.4900 205.0000 1.0000
67.5000 210.0000 1.0000
67.5100 220.0000 1.0000
67.5200 226.0000 1.0000
67.5300 219.0000 1.0000
67.5400 234.0000 1.0000
67.5500 234.0000 1.0000
67.5600 215.0000 1.0000
67.5700 227.0000 1.0000
67.5800 214.0000 1.0000
67.5900 244.0000 1.0000
67.6000 215.0000 1.0000
67.6100 225.0000 1.0000
67.6200 207.0000 1.0000
67.6300 200.0000 1.0000
67.6400 202.0000 1.0000
67.6500 219.0000 1.0000
67.6600 214.0000 1.0000
67.6700 226.0000 1.0000
67.6800 233.0000 1.0000
67.6900 224.0000 1.0000
67.7000 237.0000 1.0000
67.7100 237.0000 1.0000
67.7200 236.0000 1.0000
67.7300 190.0000 1.0000
67.7400 199.0000 1.0000
67.7500 215.0000 1.0000
67.7600 224.0000 1.0000
67.7700 245.0000 1.0000
67.7800 216.0000 1.0000
67.7900 207.0000 1.0000
67.8000 203.0000 1.0000
67.8100 220.0000 1.0000
67.8200 225.0000 1.0000
67.8300 228.0000 1.0000
67.8400 208.0000 1.0000
67.8500 200.0000 1.0000
67.8600 217.0000 1.0000
67.8700 211.0000 1.0000
67.8800 198.0000 1.0000
67.8900 213.0000 1.0000
67.9000 218.0000 1.0000
67.9100 193.0000 1.0000
67.9200 214.0000 1.0000
67.9300 212.0000 1.0000
67.9400 216.0000 1.0000
67.9500 219.0000 1.0000
67.9600 199.0000 1.0000
67.9700 206.0000 1.0000
67.9800 219.0000 1.0000
67.9900 229.0000 1.0000
68.0000 213.0000 1.0000
68.0100 208.0000 1.0000
68.0200 213.0000 1.0000
68.0300 210.0000 1.0000
68.0400 233.0000 1.0000
68.0500 219.0000 1.0000
68.0600 218.0000 1.0000
68.0700 215.0000 1.0000
68.0800 210.0000 1.0000
68.0900 208.0000 1.0000
68.1000 233.0000 1.0000
68.1100 224.0000 1.0000
68.1200 201.0000 1.0000
68.1300 219.0000 1.0000
68.1400 225.0000 1.0000
68.1500 231.0000 1.0000
68.1600 201.0000 1.0000
68.1700 200.0000 1.0000
68.1800 202.0000 1.0000
68.1900 209.0000 1.0000
68.2000 219.0000 1.0000
68.2100 215.0000 1.0000
68.2200 225.0000 1.0000
68.2300 232.0000 1.0000
68.2400 227.0000 1.0000
68.2500 204.0000 1.0000
68.2600 204.0000 1.0000
68.2700 211.0000 1.0000
68.2800 214.0000 1.0000
68.2900 206.0000 1.0000
68.3000 218.0000 1.0000
68.3100 201.0000 1.0000
68.3200 182.0000 1.0000
68.3300 201.0000 1.0000
68.3400 204.0000 1.0000
68.3500 187.0000 1.0000
68.3600 218.0000 1.0000
68.3700 199.0000 1.0000
68.3800 195.0000 1.0000
68.3900 207.0000 1.0000
68.4000 214.0000 1.0000
68.4100 206.0000 1.0000
68.4200 222.0000 1.0000
68.4300 213.0000 1.0000
68.4400 222.0000 1.0000
68.4500 212.0000 1.0000
68.4600 204.0000 1.0000
68.4700 219.0000 1.0000
68.4800 228.0000 1.0000
68.4900 219.0000 1.0000
68.5000 198.0000 1.0000
68.5100 209.0000 1.0000
68.5200 202.0000 1.0000
68.5300 221.0000 1.0000
68.5400 216.0000 1.0000
68.5500 220.0000 1.0000
68.5600 216.0000 1.0000
68.5700 184.0000 1.0000
68.5800 216.0000 1.0000
68.5900 209.0000 1.0000
68.6000 197.0000 1.0000
68.6100 215.0000 1.0000
68.6200 209.0000 1.0000
68.6300 228.0000 1.0000
68.6400 233.0000 1.0000
68.6500 221.0000 1.0000
68.6600 232.0000 1.0000
68.6700 211.0000 1.0000
68.6800 223.0000 1.0000
68.6900 219.0000 1.0000
68.7000 218.0000 1.0000
68.7100 218.0000 1.0000
68.7200 210.0000 1.0000
68.7300 221.0000 1.0000
68.7400 239.0000 1.0000
68.7500 228.0000 1.0000
68.7600 223.0000 1.0000
68.7700 231.0000 1.0000
68.7800 208.0000 1.0000
68.7900 221.0000 1.0000
68.8000 208.0000 1.0000
68.8100 217.0000 1.0000
68.8200 210.0000 1.0000
68.8300 234.0000 1.0000
68.8400 221.0000 1.0000
68.8500 218.0000 1.0000
68.8600 202.0000 1.0000
68.8700 204.0000 1.0000
68.8800 211.0000 1.0000
68.8900 219.0000 1.0000
68.9000 226.0000 1.0000
68.9100 205.0000 1.0000
68.9200 189.0000 1.0000
68.9300 208.0000 1.0000
68.9400 214.0000 1.0000
68.9500 196.0000 1.0000
68.9600 210.0000 1.0000
68.9700 225.0000 1.0000
68.9800 196.0000 1.0000
68.9900 209.0000 1.0000
69.0000 212.0000 1.0000
69.0100 222.0000 1.0000
69.0200 228.0000 1.0000
69.0300 216.0000 1.0000
69.0400 208.0000 1.0000
69.0500 211.0000 1.0000
69.0600 203.0000 1.0000
69.0700 198.0000 1.0000
69.0800 217.0000 1.0000
69.0900 196.0000 1.0000
69.1000 188.0000 1.0000
69.1100 215.0000 1.0000
69.1200 192.0000 1.0000
69.1300 205.0000 1.0000
69.1400 207.0000 1.0000
69.1500 220.0000 1.0000
69.1600 219.0000 1.0000
69.1700 201.0000 1.0000
69.1800 225.0000 1.0000
69.1900 226.0000 1.0000
69.2000 240.0000 1.0000
69.2100 209.0000 1.0000
69.2200 207.0000 1.0000
69.2300 202.0000 1.0000
69.2400 205.0000 1.0000
69.2500 193.0000 1.0000
69.2600 213.0000 1.0000
69.2700 211.0000 1.0000
69.2800 224.0000 1.0000
69.2900 203.0000 1.0000
69.3000 207.0000 1.0000
69.3100 198.0000 1.0000
69.3200 206.0000 1.0000
69.3300 222.0000 1.0000
69.3400 197.0000 1.0000
69.3500 204.0000 1.0000
69.3600 213.0000 1.0000
69.3700 208.0000 1.0000
69.3800 197.0000 1.0000
69.3900 204.0000 1.0000
69.4000 224.0000 1.0000
69.4100 212.0000 1.0000
69.4200 184.0000 1.0000
69.4300 210.0000 1.0000
69.4400 211.0000 1.0000
69.4500 201.0000 1.0000
69.4600 209.0000 1.0000
69.4700 219.0000 1.0000
69.4800 227.0000 1.0000
69.4900 185.0000 1.0000
69.5000 227.0000 1.0000
69.5100 230.0000 1.0000
69.5200 210.0000 1.0000
69.5300 225.0000 1.0000
69.5400 216.0000 1.0000
69.5500 222.0000 1.0000
69.5600 219.0000 1.0000
69.5700 212.0000 1.0000
69.5800 195.0000 1.0000
69.5900 201.0000 1.0000
69.6000 208.0000 1.0000
69.6100 204.0000 1.0000
69.6200 223.0000 1.0000
69.6300 226.0000 1.0000
69.6400 225.0000 1.0000
69.6500 217.0000 1.0000
69.6600 208.0000 1.0000
69.6700 198.0000 1.0000
69.6800 201.0000 1.0000
69.6900 219.0000 1.0000
69.7000 193.0000 1.0000
69.7100 188.0000 1.0000
69.7200 203.0000 1.0000
69.7300 211.0000 1.0000
69.7400 205.0000 1.0000
69.7500 222.0000 1.0000
69.7600 221.0000 1.0000
69.7700 187.0000 1.0000
69.7800 211.0000 1.0000
69.7900 210.0000 1.0000
69.8000 197.0000 1.0000
69.8100 215.0000 1.0000
69.8200 217.0000 1.0000
69.8300 230.0000 1.0000
69.8400 193.0000 1.0000
69.8500 193.0000 1.0000
69.8600 170.0000 1.0000
69.8700 221.0000 1.0000
69.8800 208.0000 1.0000
69.8900 183.0000 1.0000
69.9000 214.0000 1.0000
69.9100 213.0000 1.0000
69.9200 201.0000 1.0000
69.9300 213.0000 1.0000
69.9400 202.0000 1.0000
69.9500 208.0000 1.0000
69.9600 210.0000 1.0000
69.9700 208.0000 1.0000
69.9800 185.0000 1.0000
69.9900 193.0000 1.0000
70.0000 203.0000 1.0000
*RAS_INT_END
*RAS_TEMPERATURE_START
*RAS_TEMPERATURE_END
*RAS_DATA_END
