*RAS_DATA_START
*RAS_HEADER_START
*DISP_FMT_X "%.2f"
*DISP_FMT_Y "%.0f"
*DISP_FULLSCALE "15835.0000000000"
*DISP_LINE_COLOR "255.0000000000"
*DISP_LINE_STYLE "0.0000000000"
*DISP_LINE_WIDTH "0.2500000000"
*DISP_NOTE "測定データ-11"
*DISP_OFFSET_Y "0.0000000000"
*DISP_PEAKSEARCH_UNIT_Y "cps"
*DISP_RANGE_BOTTOM "0.0000000000"
*DISP_RANGE_LEFT "20.0000000000"
*DISP_RANGE_LOGCUTOFF "0.0100000000"
*DISP_RANGE_RIGHT "70.0000000000"
*DISP_RANGE_TOP "15835.0000000000"
*DISP_SCALE_MODE_Y "0.0000000000"
*DISP_TAB_NAME "2θ/θ"
*DISP_TITLE_Y "強度"
*DISP_UNIT_Y "cps"
*DISP_WINDOW_NAME "MSG_MACROENGINE"
*FILE_COMMENT " "
*FILE_MD5 ""
*FILE_MEMO " "
*FILE_OPERATOR "Administrator"
*FILE_SAMPLE " "
*FILE_TYPE "RAS_RAW"
*FILE_USERGROUP "システムマネージャ"
*FILE_VERSION "1.0000000000"
*HW_ATTACHMENT_ID "ATT0025"
*HW_ATTACHMENT_NAME "標準|Standard"
*HW_COUNTER_ID-0 "CUT0025"
*HW_COUNTER_ID-1 "CUT0020"
*HW_COUNTER_ID-2 "CUT0020"
*HW_COUNTER_ID-3 "CSL0021"
*HW_COUNTER_ID-4 "CMC0021"
*HW_COUNTER_NAME-0 "D/teX Ultra|D/teX Ultra"
*HW_COUNTER_NAME-1 "None|None"
*HW_COUNTER_NAME-2 "None|None"
*HW_COUNTER_NAME-3 "BBM|BBM"
*HW_COUNTER_NAME-4 "検出器モノクロメータ|Detector monochromator"
*HW_COUNTER_SELECT_NAME "D/teX Ultra|D/teX Ultra"
*HW_GONIOMETER_ID "GON0023"
*HW_GONIOMETER_NAME "SmartLab|SmartLab"
*HW_GONIOMETER_RADIUS-0 "90.0"
*HW_GONIOMETER_RADIUS-1 "114.0"
*HW_GONIOMETER_RADIUS-2 "190.0"
*HW_GONIOMETER_RADIUS-3 "300.0"
*HW_GONIOMETER_RADIUS-4 "187.0"
*HW_GONIOMETER_RADIUS-5 "300.0"
*HW_GONIOMETER_RADIUS-6 "113.0"
*HW_GONIOMETER_RADIUS-7 "331.0"
*HW_I_OPT_ID-0 "CBO0021"
*HW_I_OPT_ID-1 "ICR0023"
*HW_I_OPT_ID-2 "ISL0021"
*HW_I_OPT_ID-3 "ISO0021"
*HW_I_OPT_ID-4 "IAD0021"
*HW_I_OPT_ID-5 "IPR0001"
*HW_I_OPT_NAME-0 "CBOユニット|CBO unit"
*HW_I_OPT_NAME-1 "標準入射光学ユニット|Standard incident optical unit"
*HW_I_OPT_NAME-2 "標準入射スリットボックス|Standard incident slit box"
*HW_I_OPT_NAME-3 "入射平行スリット|Incident parallel slit"
*HW_I_OPT_NAME-4 "長手制限スリット|Length limiting slit"
*HW_I_OPT_NAME-5 "None|None"
*HW_R_ATTENUATER_AUTOMODE "0"
*HW_R_OPT_ID-0 "RSS0021"
*HW_R_OPT_ID-1 "RCR0023"
*HW_R_OPT_ID-2 "RSO0021"
*HW_R_OPT_ID-3 "RRS0021"
*HW_R_OPT_ID-4 "ATN0021"
*HW_R_OPT_ID-5 "RFL0021"
*HW_R_OPT_ID-6 "RAD0021"
*HW_R_OPT_NAME-0 "標準受光スリットボックス1|Standard receiving slit box # 1"
*HW_R_OPT_NAME-1 "標準受光光学ユニット1|Standard receiving unit # 1"
*HW_R_OPT_NAME-2 "標準受光光学ユニット2|Standard receiving optical unit # 2"
*HW_R_OPT_NAME-3 "標準受光スリットボックス2|Standard receiving slit box # 2"
*HW_R_OPT_NAME-4 "標準アッテネータ|Standard Attenuator"
*HW_R_OPT_NAME-5 "Cu Kβ|Cu K-beta"
*HW_R_OPT_NAME-6 "調整用受光スリット|Alignment receiving slit"
*HW_SAMPLE_HOLDER_ID "SMP0023"
*HW_SAMPLE_HOLDER_NAME "標準Zステージ|Standard Z stage"
*HW_XG_CURRENT_MAX "50"
*HW_XG_CURRENT_MIN "2"
*HW_XG_CURRENT_RESOLUTION "1"
*HW_XG_CURRENT_UNIT "mA"
*HW_XG_FOCUS "1mm x 10mm"
*HW_XG_FOCUS_TYPE "Normal"
*HW_XG_ID ""
*HW_XG_NAME "3kW 封入管(ID:1200)|3kW Sealed tube(ID:1200)"
*HW_XG_TARGET_ATOMIC_NUMBER "29.0000000000"
*HW_XG_TARGET_NAME "Cu"
*HW_XG_TYPE "Hermetic"
*HW_XG_VOLTAGE_MAX "60"
*HW_XG_VOLTAGE_MIN "20"
*HW_XG_VOLTAGE_RESOLUTION "1"
*HW_XG_VOLTAGE_UNIT "kV"
*HW_XG_WATT_MAX "1.500"
*HW_XG_WATT_UNIT "kW"
*HW_XG_WAVE_LENGTH_ALPHA1 "1.540593"
*HW_XG_WAVE_LENGTH_ALPHA2 "1.544414"
*HW_XG_WAVE_LENGTH_BETA "1.392250"
*MEAS_COND_AXIS_NAME-0 "2θ/θ"
*MEAS_COND_AXIS_NAME-1 "2θ"
*MEAS_COND_AXIS_NAME-2 "ω"
*MEAS_COND_AXIS_NAME-3 "Z"
*MEAS_COND_AXIS_NAME-4 "2θ/ω"
*MEAS_COND_AXIS_NAME-5 "θs"
*MEAS_COND_AXIS_NAME-6 "θd"
*MEAS_COND_AXIS_NAME-7 "Ts"
*MEAS_COND_AXIS_NAME-8 "CBO選択スリット"
*MEAS_COND_AXIS_NAME-9 "M"
*MEAS_COND_AXIS_NAME-10 "入射平行スリット"
*MEAS_COND_AXIS_NAME-11 "入射スリット"
*MEAS_COND_AXIS_NAME-12 ""
*MEAS_COND_AXIS_NAME-13 "Zs"
*MEAS_COND_AXIS_NAME-14 "入射光学素子"
*MEAS_COND_AXIS_NAME-15 "長手制限スリット"
*MEAS_COND_AXIS_NAME-16 "センタースリット"
*MEAS_COND_AXIS_NAME-17 "フィルター"
*MEAS_COND_AXIS_NAME-18 "受光スリット1"
*MEAS_COND_AXIS_NAME-19 "受光スリット2"
*MEAS_COND_AXIS_NAME-20 "受光光学素子"
*MEAS_COND_AXIS_NAME-21 "受光平行スリット"
*MEAS_COND_AXIS_NAME-22 "調整用受光スリット"
*MEAS_COND_AXIS_NAME-23 ""
*MEAS_COND_AXIS_NAME-24 ""
*MEAS_COND_AXIS_NAME-25 "Zd"
*MEAS_COND_AXIS_NAME-26 "アッテネータ"
*MEAS_COND_AXIS_NAME-27 "検出器モノクロメータ"
*MEAS_COND_AXIS_NAME-28 "モノクロメータスリット"
*MEAS_COND_AXIS_NAME-29 "プライマリビーム"
*MEAS_COND_AXIS_NAME-30 "PHA"
*MEAS_COND_AXIS_NAME_INTERNAL-0 "TwoThetaTheta"
*MEAS_COND_AXIS_NAME_INTERNAL-1 "TwoTheta"
*MEAS_COND_AXIS_NAME_INTERNAL-2 "Omega"
*MEAS_COND_AXIS_NAME_INTERNAL-3 "Z"
*MEAS_COND_AXIS_NAME_INTERNAL-4 "TwoThetaOmega"
*MEAS_COND_AXIS_NAME_INTERNAL-5 "ThetaS"
*MEAS_COND_AXIS_NAME_INTERNAL-6 "ThetaD"
*MEAS_COND_AXIS_NAME_INTERNAL-7 "Ts"
*MEAS_COND_AXIS_NAME_INTERNAL-8 "CBO"
*MEAS_COND_AXIS_NAME_INTERNAL-9 "CBO-M"
*MEAS_COND_AXIS_NAME_INTERNAL-10 "IncidentSollerSlit"
*MEAS_COND_AXIS_NAME_INTERNAL-11 "IncidentSlitBox"
*MEAS_COND_AXIS_NAME_INTERNAL-12 "IncidentSlitBox-_Axis"
*MEAS_COND_AXIS_NAME_INTERNAL-13 "Zs"
*MEAS_COND_AXIS_NAME_INTERNAL-14 "IncidentMonochromator"
*MEAS_COND_AXIS_NAME_INTERNAL-15 "IncidentAxdSlit"
*MEAS_COND_AXIS_NAME_INTERNAL-16 "CenterSlit"
*MEAS_COND_AXIS_NAME_INTERNAL-17 "Filter"
*MEAS_COND_AXIS_NAME_INTERNAL-18 "ReceivingSlitBox1"
*MEAS_COND_AXIS_NAME_INTERNAL-19 "ReceivingSlitBox2"
*MEAS_COND_AXIS_NAME_INTERNAL-20 "ReceivingOptics"
*MEAS_COND_AXIS_NAME_INTERNAL-21 "ReceivingSollerSlit"
*MEAS_COND_AXIS_NAME_INTERNAL-22 "ReceivingAxdSlit"
*MEAS_COND_AXIS_NAME_INTERNAL-23 "ReceivingSlitBox1-_Axis"
*MEAS_COND_AXIS_NAME_INTERNAL-24 "ReceivingSlitBox2-_Axis"
*MEAS_COND_AXIS_NAME_INTERNAL-25 "ReceivingSlitBox2-Zd"
*MEAS_COND_AXIS_NAME_INTERNAL-26 "Attenuator"
*MEAS_COND_AXIS_NAME_INTERNAL-27 "CounterMonochromator"
*MEAS_COND_AXIS_NAME_INTERNAL-28 "CounterSlit"
*MEAS_COND_AXIS_NAME_INTERNAL-29 "IncidentPrimary"
*MEAS_COND_AXIS_NAME_INTERNAL-30 "PHA"
*MEAS_COND_AXIS_NAME_MAGICNO-0 "83951616.0000000000"
*MEAS_COND_AXIS_NAME_MAGICNO-1 "268632064.0000000000"
*MEAS_COND_AXIS_NAME_MAGICNO-2 "268500992.0000000000"
*MEAS_COND_AXIS_NAME_MAGICNO-3 "285278208.0000000000"
*MEAS_COND_AXIS_NAME_MAGICNO-4 "83951616.0000000000"
*MEAS_COND_AXIS_NAME_MAGICNO-5 "131072.0000000000"
*MEAS_COND_AXIS_NAME_MAGICNO-6 "131072.0000000000"
*MEAS_COND_AXIS_NAME_MAGICNO-7 "318898176.0000000000"
*MEAS_COND_AXIS_NAME_MAGICNO-8 "20971521.0000000000"
*MEAS_COND_AXIS_NAME_MAGICNO-9 "285343744.0000000000"
*MEAS_COND_AXIS_NAME_MAGICNO-10 "20971521.0000000000"
*MEAS_COND_AXIS_NAME_MAGICNO-11 "22020097.0000000000"
*MEAS_COND_AXIS_NAME_MAGICNO-12 "25165824.0000000000"
*MEAS_COND_AXIS_NAME_MAGICNO-13 "318898176.0000000000"
*MEAS_COND_AXIS_NAME_MAGICNO-14 "1.0000000000"
*MEAS_COND_AXIS_NAME_MAGICNO-15 "20971521.0000000000"
*MEAS_COND_AXIS_NAME_MAGICNO-16 "20971521.0000000000"
*MEAS_COND_AXIS_NAME_MAGICNO-17 "20971521.0000000000"
*MEAS_COND_AXIS_NAME_MAGICNO-18 "23068673.0000000000"
*MEAS_COND_AXIS_NAME_MAGICNO-19 "23068673.0000000000"
*MEAS_COND_AXIS_NAME_MAGICNO-20 "20971521.0000000000"
*MEAS_COND_AXIS_NAME_MAGICNO-21 "20971521.0000000000"
*MEAS_COND_AXIS_NAME_MAGICNO-22 "20971521.0000000000"
*MEAS_COND_AXIS_NAME_MAGICNO-23 "25165824.0000000000"
*MEAS_COND_AXIS_NAME_MAGICNO-24 "25165824.0000000000"
*MEAS_COND_AXIS_NAME_MAGICNO-25 "285343744.0000000000"
*MEAS_COND_AXIS_NAME_MAGICNO-26 "17301505.0000000000"
*MEAS_COND_AXIS_NAME_MAGICNO-27 "20971521.0000000000"
*MEAS_COND_AXIS_NAME_MAGICNO-28 "20971521.0000000000"
*MEAS_COND_AXIS_NAME_MAGICNO-29 "20971521.0000000000"
*MEAS_COND_AXIS_NAME_MAGICNO-30 "0.0000000000"
*MEAS_COND_AXIS_OFFSET-0 "-"
*MEAS_COND_AXIS_OFFSET-1 "-0.0310000000"
*MEAS_COND_AXIS_OFFSET-2 "0.3957000000"
*MEAS_COND_AXIS_OFFSET-3 "-"
*MEAS_COND_AXIS_OFFSET-4 "-"
*MEAS_COND_AXIS_OFFSET-5 "0.3957000000"
*MEAS_COND_AXIS_OFFSET-6 "-0.4267000000"
*MEAS_COND_AXIS_OFFSET-7 "-"
*MEAS_COND_AXIS_OFFSET-8 "-"
*MEAS_COND_AXIS_OFFSET-9 "-"
*MEAS_COND_AXIS_OFFSET-10 "-"
*MEAS_COND_AXIS_OFFSET-11 "-"
*MEAS_COND_AXIS_OFFSET-12 "-"
*MEAS_COND_AXIS_OFFSET-13 "-"
*MEAS_COND_AXIS_OFFSET-14 "-"
*MEAS_COND_AXIS_OFFSET-15 "-"
*MEAS_COND_AXIS_OFFSET-16 "-"
*MEAS_COND_AXIS_OFFSET-17 "-"
*MEAS_COND_AXIS_OFFSET-18 "-"
*MEAS_COND_AXIS_OFFSET-19 "-"
*MEAS_COND_AXIS_OFFSET-20 "-"
*MEAS_COND_AXIS_OFFSET-21 "-"
*MEAS_COND_AXIS_OFFSET-22 "-"
*MEAS_COND_AXIS_OFFSET-23 "-"
*MEAS_COND_AXIS_OFFSET-24 "-"
*MEAS_COND_AXIS_OFFSET-25 "-"
*MEAS_COND_AXIS_OFFSET-26 "-"
*MEAS_COND_AXIS_OFFSET-27 "-"
*MEAS_COND_AXIS_OFFSET-28 "-"
*MEAS_COND_AXIS_OFFSET-29 "-"
*MEAS_COND_AXIS_OFFSET-30 "-"
*MEAS_COND_AXIS_POSITION-0 "0.0000000000"
*MEAS_COND_AXIS_POSITION-1 "0.0000000000"
*MEAS_COND_AXIS_POSITION-2 "0.0000000000"
*MEAS_COND_AXIS_POSITION-3 "-2.9656400000"
*MEAS_COND_AXIS_POSITION-4 "0.0000000000"
*MEAS_COND_AXIS_POSITION-5 "0.0000000000"
*MEAS_COND_AXIS_POSITION-6 "0.0000000000"
*MEAS_COND_AXIS_POSITION-7 "-0.7498700000"
*MEAS_COND_AXIS_POSITION-8 "BB"
*MEAS_COND_AXIS_POSITION-9 "0.0000000000"
*MEAS_COND_AXIS_POSITION-10 "Soller_slit_5.0deg"
*MEAS_COND_AXIS_POSITION-11 "2/3deg"
*MEAS_COND_AXIS_POSITION-12 "2.2088000000"
*MEAS_COND_AXIS_POSITION-13 "-0.6412500000"
*MEAS_COND_AXIS_POSITION-14 "0.0000000000"
*MEAS_COND_AXIS_POSITION-15 "10.0mm"
*MEAS_COND_AXIS_POSITION-16 "None"
*MEAS_COND_AXIS_POSITION-17 "Cu_K-beta"
*MEAS_COND_AXIS_POSITION-18 "13.000mm"
*MEAS_COND_AXIS_POSITION-19 "13.000mm"
*MEAS_COND_AXIS_POSITION-20 "No_unit"
*MEAS_COND_AXIS_POSITION-21 "Soller_slit_5.0deg"
*MEAS_COND_AXIS_POSITION-22 "None"
*MEAS_COND_AXIS_POSITION-23 "13.0000000000"
*MEAS_COND_AXIS_POSITION-24 "13.0000000000"
*MEAS_COND_AXIS_POSITION-25 "0.0281300000"
*MEAS_COND_AXIS_POSITION-26 "Open"
*MEAS_COND_AXIS_POSITION-27 "None"
*MEAS_COND_AXIS_POSITION-28 "None"
*MEAS_COND_AXIS_POSITION-29 "None"
*MEAS_COND_AXIS_POSITION-30 "38.0000000000"
*MEAS_COND_AXIS_UNIT-0 "deg"
*MEAS_COND_AXIS_UNIT-1 "deg"
*MEAS_COND_AXIS_UNIT-2 "deg"
*MEAS_COND_AXIS_UNIT-3 "mm"
*MEAS_COND_AXIS_UNIT-4 "deg"
*MEAS_COND_AXIS_UNIT-5 "deg"
*MEAS_COND_AXIS_UNIT-6 "deg"
*MEAS_COND_AXIS_UNIT-7 "mm"
*MEAS_COND_AXIS_UNIT-8 ""
*MEAS_COND_AXIS_UNIT-9 "pulse"
*MEAS_COND_AXIS_UNIT-10 ""
*MEAS_COND_AXIS_UNIT-11 ""
*MEAS_COND_AXIS_UNIT-12 "mm"
*MEAS_COND_AXIS_UNIT-13 "mm"
*MEAS_COND_AXIS_UNIT-14 ""
*MEAS_COND_AXIS_UNIT-15 ""
*MEAS_COND_AXIS_UNIT-16 ""
*MEAS_COND_AXIS_UNIT-17 ""
*MEAS_COND_AXIS_UNIT-18 ""
*MEAS_COND_AXIS_UNIT-19 ""
*MEAS_COND_AXIS_UNIT-20 ""
*MEAS_COND_AXIS_UNIT-21 ""
*MEAS_COND_AXIS_UNIT-22 ""
*MEAS_COND_AXIS_UNIT-23 "mm"
*MEAS_COND_AXIS_UNIT-24 "mm"
*MEAS_COND_AXIS_UNIT-25 "mm"
*MEAS_COND_AXIS_UNIT-26 ""
*MEAS_COND_AXIS_UNIT-27 ""
*MEAS_COND_AXIS_UNIT-28 ""
*MEAS_COND_AXIS_UNIT-29 ""
*MEAS_COND_AXIS_UNIT-30 "div"
*MEAS_COND_COUNTER_CNTLOSS_CORR "0.0000000000"
*MEAS_COND_COUNTER_PHABASE "38.0000000000"
*MEAS_COND_COUNTER_PHAWINDOW "16.0000000000"
*MEAS_COND_COUNTER_PHA_UNIT "div"
*MEAS_COND_COUNTER_TAUDIFF "30.0000000000"
*MEAS_COND_COUNTER_TAUINT "0.0000000000"
*MEAS_COND_IRRADIATION_MODE "OFF"
*MEAS_COND_IRRADIATION_WIDTH ""
*MEAS_COND_OPT_ATTR "集中法"
*MEAS_COND_OPT_NAME "@集中法"
*MEAS_COND_UNSYMMETRIC_MODE "OFF"
*MEAS_COND_XG_CURRENT "30.0000000000"
*MEAS_COND_XG_VOLTAGE "40.0000000000"
*MEAS_COND_XG_WAVE_TYPE "Ka"
*MEAS_DATA_COUNT "5001.0000000000"
*MEAS_SCAN_AXIS_X "2θ/θ"
*MEAS_SCAN_AXIS_X_INTERNAL "TwoThetaTheta"
*MEAS_SCAN_END_TIME "02/14/24 21:02:10"
*MEAS_SCAN_MODE "CONTINUOUS"
*MEAS_SCAN_MONITOR "0"
*MEAS_SCAN_RESOLUTION_X "0.0002"
*MEAS_SCAN_SPEED "2.5"
*MEAS_SCAN_SPEED_UNIT "deg/min"
*MEAS_SCAN_START "20.0000000000"
*MEAS_SCAN_START_TIME "02/14/24 20:40:45"
*MEAS_SCAN_STEP "0.0100000000"
*MEAS_SCAN_STOP "70.0000000000"
*MEAS_SCAN_UNIT_X "deg"
*MEAS_SCAN_UNIT_Y "counts"
*RAS_HEADER_END
*RAS_INT_START
20.0000 680.0000 1.0000
20.0100 667.0000 1.0000
20.0200 755.0000 1.0000
20.0300 720.0000 1.0000
20.0400 745.0000 1.0000
20.0500 727.0000 1.0000
20.0600 686.0000 1.0000
20.0700 666.0000 1.0000
20.0800 694.0000 1.0000
20.0900 698.0000 1.0000
20.1000 674.0000 1.0000
20.1100 725.0000 1.0000
20.1200 686.0000 1.0000
20.1300 730.0000 1.0000
20.1400 709.0000 1.0000
20.1500 705.0000 1.0000
20.1600 684.0000 1.0000
20.1700 736.0000 1.0000
20.1800 687.0000 1.0000
20.1900 710.0000 1.0000
20.2000 733.0000 1.0000
20.2100 733.0000 1.0000
20.2200 768.0000 1.0000
20.2300 730.0000 1.0000
20.2400 711.0000 1.0000
20.2500 678.0000 1.0000
20.2600 701.0000 1.0000
20.2700 724.0000 1.0000
20.2800 758.0000 1.0000
20.2900 748.0000 1.0000
20.3000 725.0000 1.0000
20.3100 724.0000 1.0000
20.3200 743.0000 1.0000
20.3300 694.0000 1.0000
20.3400 671.0000 1.0000
20.3500 743.0000 1.0000
20.3600 696.0000 1.0000
20.3700 761.0000 1.0000
20.3800 713.0000 1.0000
20.3900 713.0000 1.0000
20.4000 727.0000 1.0000
20.4100 696.0000 1.0000
20.4200 697.0000 1.0000
20.4300 749.0000 1.0000
20.4400 726.0000 1.0000
20.4500 698.0000 1.0000
20.4600 711.0000 1.0000
20.4700 706.0000 1.0000
20.4800 688.0000 1.0000
20.4900 723.0000 1.0000
20.5000 676.0000 1.0000
20.5100 657.0000 1.0000
20.5200 715.0000 1.0000
20.5300 665.0000 1.0000
20.5400 712.0000 1.0000
20.5500 734.0000 1.0000
20.5600 765.0000 1.0000
20.5700 733.0000 1.0000
20.5800 735.0000 1.0000
20.5900 757.0000 1.0000
20.6000 737.0000 1.0000
20.6100 707.0000 1.0000
20.6200 729.0000 1.0000
20.6300 724.0000 1.0000
20.6400 676.0000 1.0000
20.6500 716.0000 1.0000
20.6600 720.0000 1.0000
20.6700 711.0000 1.0000
20.6800 728.0000 1.0000
20.6900 683.0000 1.0000
20.7000 713.0000 1.0000
20.7100 682.0000 1.0000
20.7200 723.0000 1.0000
20.7300 709.0000 1.0000
20.7400 710.0000 1.0000
20.7500 692.0000 1.0000
20.7600 741.0000 1.0000
20.7700 701.0000 1.0000
20.7800 691.0000 1.0000
20.7900 702.0000 1.0000
20.8000 684.0000 1.0000
20.8100 680.0000 1.0000
20.8200 698.0000 1.0000
20.8300 727.0000 1.0000
20.8400 739.0000 1.0000
20.8500 675.0000 1.0000
20.8600 692.0000 1.0000
20.8700 739.0000 1.0000
20.8800 776.0000 1.0000
20.8900 718.0000 1.0000
20.9000 757.0000 1.0000
20.9100 761.0000 1.0000
20.9200 675.0000 1.0000
20.9300 707.0000 1.0000
20.9400 706.0000 1.0000
20.9500 706.0000 1.0000
20.9600 746.0000 1.0000
20.9700 714.0000 1.0000
20.9800 748.0000 1.0000
20.9900 714.0000 1.0000
21.0000 648.0000 1.0000
21.0100 680.0000 1.0000
21.0200 721.0000 1.0000
21.0300 694.0000 1.0000
21.0400 753.0000 1.0000
21.0500 702.0000 1.0000
21.0600 678.0000 1.0000
21.0700 722.0000 1.0000
21.0800 720.0000 1.0000
21.0900 705.0000 1.0000
21.1000 728.0000 1.0000
21.1100 701.0000 1.0000
21.1200 707.0000 1.0000
21.1300 724.0000 1.0000
21.1400 768.0000 1.0000
21.1500 755.0000 1.0000
21.1600 723.0000 1.0000
21.1700 761.0000 1.0000
21.1800 760.0000 1.0000
21.1900 751.0000 1.0000
21.2000 697.0000 1.0000
21.2100 724.0000 1.0000
21.2200 744.0000 1.0000
21.2300 726.0000 1.0000
21.2400 720.0000 1.0000
21.2500 703.0000 1.0000
21.2600 690.0000 1.0000
21.2700 735.0000 1.0000
21.2800 732.0000 1.0000
21.2900 717.0000 1.0000
21.3000 663.0000 1.0000
21.3100 663.0000 1.0000
21.3200 704.0000 1.0000
21.3300 771.0000 1.0000
21.3400 732.0000 1.0000
21.3500 677.0000 1.0000
21.3600 684.0000 1.0000
21.3700 701.0000 1.0000
21.3800 712.0000 1.0000
21.3900 727.0000 1.0000
21.4000 713.0000 1.0000
21.4100 733.0000 1.0000
21.4200 742.0000 1.0000
21.4300 737.0000 1.0000
21.4400 733.0000 1.0000
21.4500 682.0000 1.0000
21.4600 718.0000 1.0000
21.4700 683.0000 1.0000
21.4800 756.0000 1.0000
21.4900 730.0000 1.0000
21.5000 720.0000 1.0000
21.5100 700.0000 1.0000
21.5200 730.0000 1.0000
21.5300 752.0000 1.0000
21.5400 738.0000 1.0000
21.5500 726.0000 1.0000
21.5600 709.0000 1.0000
21.5700 715.0000 1.0000
21.5800 741.0000 1.0000
21.5900 736.0000 1.0000
21.6000 702.0000 1.0000
21.6100 730.0000 1.0000
21.6200 686.0000 1.0000
21.6300 763.0000 1.0000
21.6400 687.0000 1.0000
21.6500 694.0000 1.0000
21.6600 711.0000 1.0000
21.6700 731.0000 1.0000
21.6800 682.0000 1.0000
21.6900 741.0000 1.0000
21.7000 748.0000 1.0000
21.7100 765.0000 1.0000
21.7200 711.0000 1.0000
21.7300 723.0000 1.0000
21.7400 666.0000 1.0000
21.7500 684.0000 1.0000
21.7600 705.0000 1.0000
21.7700 731.0000 1.0000
21.7800 737.0000 1.0000
21.7900 712.0000 1.0000
21.8000 671.0000 1.0000
21.8100 725.0000 1.0000
21.8200 740.0000 1.0000
21.8300 730.0000 1.0000
21.8400 659.0000 1.0000
21.8500 703.0000 1.0000
21.8600 710.0000 1.0000
21.8700 677.0000 1.0000
21.8800 735.0000 1.0000
21.8900 718.0000 1.0000
21.9000 685.0000 1.0000
21.9100 702.0000 1.0000
21.9200 741.0000 1.0000
21.9300 703.0000 1.0000
21.9400 673.0000 1.0000
21.9500 715.0000 1.0000
21.9600 728.0000 1.0000
21.9700 662.0000 1.0000
21.9800 701.0000 1.0000
21.9900 701.0000 1.0000
22.0000 736.0000 1.0000
22.0100 688.0000 1.0000
22.0200 776.0000 1.0000
22.0300 726.0000 1.0000
22.0400 693.0000 1.0000
22.0500 768.0000 1.0000
22.0600 721.0000 1.0000
22.0700 685.0000 1.0000
22.0800 701.0000 1.0000
22.0900 676.0000 1.0000
22.1000 732.0000 1.0000
22.1100 718.0000 1.0000
22.1200 726.0000 1.0000
22.1300 699.0000 1.0000
22.1400 664.0000 1.0000
22.1500 646.0000 1.0000
22.1600 681.0000 1.0000
22.1700 717.0000 1.0000
22.1800 724.0000 1.0000
22.1900 708.0000 1.0000
22.2000 730.0000 1.0000
22.2100 738.0000 1.0000
22.2200 717.0000 1.0000
22.2300 689.0000 1.0000
22.2400 697.0000 1.0000
22.2500 728.0000 1.0000
22.2600 723.0000 1.0000
22.2700 686.0000 1.0000
22.2800 723.0000 1.0000
22.2900 714.0000 1.0000
22.3000 746.0000 1.0000
22.3100 699.0000 1.0000
22.3200 729.0000 1.0000
22.3300 688.0000 1.0000
22.3400 680.0000 1.0000
22.3500 698.0000 1.0000
22.3600 705.0000 1.0000
22.3700 739.0000 1.0000
22.3800 700.0000 1.0000
22.3900 667.0000 1.0000
22.4000 691.0000 1.0000
22.4100 699.0000 1.0000
22.4200 707.0000 1.0000
22.4300 695.0000 1.0000
22.4400 737.0000 1.0000
22.4500 671.0000 1.0000
22.4600 710.0000 1.0000
22.4700 713.0000 1.0000
22.4800 681.0000 1.0000
22.4900 723.0000 1.0000
22.5000 696.0000 1.0000
22.5100 730.0000 1.0000
22.5200 695.0000 1.0000
22.5300 681.0000 1.0000
22.5400 702.0000 1.0000
22.5500 728.0000 1.0000
22.5600 730.0000 1.0000
22.5700 689.0000 1.0000
22.5800 718.0000 1.0000
22.5900 699.0000 1.0000
22.6000 701.0000 1.0000
22.6100 680.0000 1.0000
22.6200 719.0000 1.0000
22.6300 679.0000 1.0000
22.6400 728.0000 1.0000
22.6500 696.0000 1.0000
22.6600 673.0000 1.0000
22.6700 674.0000 1.0000
22.6800 712.0000 1.0000
22.6900 702.0000 1.0000
22.7000 748.0000 1.0000
22.7100 737.0000 1.0000
22.7200 682.0000 1.0000
22.7300 698.0000 1.0000
22.7400 687.0000 1.0000
22.7500 690.0000 1.0000
22.7600 683.0000 1.0000
22.7700 656.0000 1.0000
22.7800 697.0000 1.0000
22.7900 692.0000 1.0000
22.8000 688.0000 1.0000
22.8100 719.0000 1.0000
22.8200 721.0000 1.0000
22.8300 754.0000 1.0000
22.8400 722.0000 1.0000
22.8500 690.0000 1.0000
22.8600 695.0000 1.0000
22.8700 708.0000 1.0000
22.8800 672.0000 1.0000
22.8900 687.0000 1.0000
22.9000 730.0000 1.0000
22.9100 755.0000 1.0000
22.9200 727.0000 1.0000
22.9300 701.0000 1.0000
22.9400 693.0000 1.0000
22.9500 721.0000 1.0000
22.9600 700.0000 1.0000
22.9700 702.0000 1.0000
22.9800 683.0000 1.0000
22.9900 672.0000 1.0000
23.0000 690.0000 1.0000
23.0100 703.0000 1.0000
23.0200 723.0000 1.0000
23.0300 724.0000 1.0000
23.0400 699.0000 1.0000
23.0500 709.0000 1.0000
23.0600 682.0000 1.0000
23.0700 697.0000 1.0000
23.0800 772.0000 1.0000
23.0900 725.0000 1.0000
23.1000 704.0000 1.0000
23.1100 706.0000 1.0000
23.1200 704.0000 1.0000
23.1300 671.0000 1.0000
23.1400 722.0000 1.0000
23.1500 739.0000 1.0000
23.1600 723.0000 1.0000
23.1700 707.0000 1.0000
23.1800 714.0000 1.0000
23.1900 686.0000 1.0000
23.2000 703.0000 1.0000
23.2100 693.0000 1.0000
23.2200 668.0000 1.0000
23.2300 723.0000 1.0000
23.2400 712.0000 1.0000
23.2500 720.0000 1.0000
23.2600 734.0000 1.0000
23.2700 710.0000 1.0000
23.2800 720.0000 1.0000
23.2900 681.0000 1.0000
23.3000 697.0000 1.0000
23.3100 687.0000 1.0000
23.3200 683.0000 1.0000
23.3300 683.0000 1.0000
23.3400 686.0000 1.0000
23.3500 677.0000 1.0000
23.3600 677.0000 1.0000
23.3700 722.0000 1.0000
23.3800 662.0000 1.0000
23.3900 659.0000 1.0000
23.4000 665.0000 1.0000
23.4100 744.0000 1.0000
23.4200 692.0000 1.0000
23.4300 718.0000 1.0000
23.4400 702.0000 1.0000
23.4500 668.0000 1.0000
23.4600 724.0000 1.0000
23.4700 725.0000 1.0000
23.4800 714.0000 1.0000
23.4900 683.0000 1.0000
23.5000 742.0000 1.0000
23.5100 695.0000 1.0000
23.5200 674.0000 1.0000
23.5300 690.0000 1.0000
23.5400 728.0000 1.0000
23.5500 702.0000 1.0000
23.5600 692.0000 1.0000
23.5700 715.0000 1.0000
23.5800 708.0000 1.0000
23.5900 719.0000 1.0000
23.6000 666.0000 1.0000
23.6100 684.0000 1.0000
23.6200 694.0000 1.0000
23.6300 652.0000 1.0000
23.6400 704.0000 1.0000
23.6500 731.0000 1.0000
23.6600 700.0000 1.0000
23.6700 734.0000 1.0000
23.6800 711.0000 1.0000
23.6900 684.0000 1.0000
23.7000 691.0000 1.0000
23.7100 703.0000 1.0000
23.7200 709.0000 1.0000
23.7300 660.0000 1.0000
23.7400 730.0000 1.0000
23.7500 693.0000 1.0000
23.7600 714.0000 1.0000
23.7700 695.0000 1.0000
23.7800 729.0000 1.0000
23.7900 726.0000 1.0000
23.8000 745.0000 1.0000
23.8100 758.0000 1.0000
23.8200 699.0000 1.0000
23.8300 747.0000 1.0000
23.8400 709.0000 1.0000
23.8500 709.0000 1.0000
23.8600 715.0000 1.0000
23.8700 706.0000 1.0000
23.8800 733.0000 1.0000
23.8900 714.0000 1.0000
23.9000 685.0000 1.0000
23.9100 759.0000 1.0000
23.9200 704.0000 1.0000
23.9300 732.0000 1.0000
23.9400 719.0000 1.0000
23.9500 744.0000 1.0000
23.9600 738.0000 1.0000
23.9700 729.0000 1.0000
23.9800 781.0000 1.0000
23.9900 744.0000 1.0000
24.0000 778.0000 1.0000
24.0100 770.0000 1.0000
24.0200 761.0000 1.0000
24.0300 825.0000 1.0000
24.0400 751.0000 1.0000
24.0500 814.0000 1.0000
24.0600 815.0000 1.0000
24.0700 803.0000 1.0000
24.0800 820.0000 1.0000
24.0900 783.0000 1.0000
24.1000 836.0000 1.0000
24.1100 778.0000 1.0000
24.1200 812.0000 1.0000
24.1300 795.0000 1.0000
24.1400 761.0000 1.0000
24.1500 817.0000 1.0000
24.1600 821.0000 1.0000
24.1700 752.0000 1.0000
24.1800 775.0000 1.0000
24.1900 721.0000 1.0000
24.2000 712.0000 1.0000
24.2100 689.0000 1.0000
24.2200 721.0000 1.0000
24.2300 722.0000 1.0000
24.2400 729.0000 1.0000
24.2500 734.0000 1.0000
24.2600 732.0000 1.0000
24.2700 753.0000 1.0000
24.2800 708.0000 1.0000
24.2900 704.0000 1.0000
24.3000 707.0000 1.0000
24.3100 701.0000 1.0000
24.3200 699.0000 1.0000
24.3300 699.0000 1.0000
24.3400 704.0000 1.0000
24.3500 682.0000 1.0000
24.3600 685.0000 1.0000
24.3700 659.0000 1.0000
24.3800 719.0000 1.0000
24.3900 696.0000 1.0000
24.4000 689.0000 1.0000
24.4100 689.0000 1.0000
24.4200 743.0000 1.0000
24.4300 716.0000 1.0000
24.4400 729.0000 1.0000
24.4500 674.0000 1.0000
24.4600 689.0000 1.0000
24.4700 717.0000 1.0000
24.4800 708.0000 1.0000
24.4900 697.0000 1.0000
24.5000 677.0000 1.0000
24.5100 695.0000 1.0000
24.5200 691.0000 1.0000
24.5300 718.0000 1.0000
24.5400 715.0000 1.0000
24.5500 696.0000 1.0000
24.5600 661.0000 1.0000
24.5700 700.0000 1.0000
24.5800 668.0000 1.0000
24.5900 699.0000 1.0000
24.6000 674.0000 1.0000
24.6100 703.0000 1.0000
24.6200 662.0000 1.0000
24.6300 684.0000 1.0000
24.6400 684.0000 1.0000
24.6500 663.0000 1.0000
24.6600 682.0000 1.0000
24.6700 684.0000 1.0000
24.6800 723.0000 1.0000
24.6900 683.0000 1.0000
24.7000 685.0000 1.0000
24.7100 677.0000 1.0000
24.7200 690.0000 1.0000
24.7300 653.0000 1.0000
24.7400 685.0000 1.0000
24.7500 705.0000 1.0000
24.7600 664.0000 1.0000
24.7700 680.0000 1.0000
24.7800 704.0000 1.0000
24.7900 702.0000 1.0000
24.8000 683.0000 1.0000
24.8100 684.0000 1.0000
24.8200 713.0000 1.0000
24.8300 690.0000 1.0000
24.8400 651.0000 1.0000
24.8500 665.0000 1.0000
24.8600 701.0000 1.0000
24.8700 673.0000 1.0000
24.8800 684.0000 1.0000
24.8900 733.0000 1.0000
24.9000 667.0000 1.0000
24.9100 704.0000 1.0000
24.9200 683.0000 1.0000
24.9300 647.0000 1.0000
24.9400 673.0000 1.0000
24.9500 662.0000 1.0000
24.9600 706.0000 1.0000
24.9700 726.0000 1.0000
24.9800 694.0000 1.0000
24.9900 664.0000 1.0000
25.0000 684.0000 1.0000
25.0100 714.0000 1.0000
25.0200 677.0000 1.0000
25.0300 674.0000 1.0000
25.0400 676.0000 1.0000
25.0500 698.0000 1.0000
25.0600 695.0000 1.0000
25.0700 696.0000 1.0000
25.0800 686.0000 1.0000
25.0900 679.0000 1.0000
25.1000 662.0000 1.0000
25.1100 675.0000 1.0000
25.1200 696.0000 1.0000
25.1300 647.0000 1.0000
25.1400 706.0000 1.0000
25.1500 690.0000 1.0000
25.1600 673.0000 1.0000
25.1700 682.0000 1.0000
25.1800 640.0000 1.0000
25.1900 710.0000 1.0000
25.2000 677.0000 1.0000
25.2100 688.0000 1.0000
25.2200 672.0000 1.0000
25.2300 698.0000 1.0000
25.2400 658.0000 1.0000
25.2500 652.0000 1.0000
25.2600 685.0000 1.0000
25.2700 703.0000 1.0000
25.2800 694.0000 1.0000
25.2900 648.0000 1.0000
25.3000 637.0000 1.0000
25.3100 659.0000 1.0000
25.3200 689.0000 1.0000
25.3300 725.0000 1.0000
25.3400 720.0000 1.0000
25.3500 679.0000 1.0000
25.3600 687.0000 1.0000
25.3700 641.0000 1.0000
25.3800 671.0000 1.0000
25.3900 692.0000 1.0000
25.4000 690.0000 1.0000
25.4100 688.0000 1.0000
25.4200 679.0000 1.0000
25.4300 719.0000 1.0000
25.4400 738.0000 1.0000
25.4500 694.0000 1.0000
25.4600 693.0000 1.0000
25.4700 666.0000 1.0000
25.4800 696.0000 1.0000
25.4900 664.0000 1.0000
25.5000 648.0000 1.0000
25.5100 708.0000 1.0000
25.5200 691.0000 1.0000
25.5300 678.0000 1.0000
25.5400 659.0000 1.0000
25.5500 653.0000 1.0000
25.5600 710.0000 1.0000
25.5700 656.0000 1.0000
25.5800 701.0000 1.0000
25.5900 691.0000 1.0000
25.6000 668.0000 1.0000
25.6100 684.0000 1.0000
25.6200 705.0000 1.0000
25.6300 676.0000 1.0000
25.6400 713.0000 1.0000
25.6500 691.0000 1.0000
25.6600 635.0000 1.0000
25.6700 676.0000 1.0000
25.6800 676.0000 1.0000
25.6900 726.0000 1.0000
25.7000 710.0000 1.0000
25.7100 699.0000 1.0000
25.7200 662.0000 1.0000
25.7300 680.0000 1.0000
25.7400 715.0000 1.0000
25.7500 658.0000 1.0000
25.7600 654.0000 1.0000
25.7700 717.0000 1.0000
25.7800 731.0000 1.0000
25.7900 686.0000 1.0000
25.8000 765.0000 1.0000
25.8100 740.0000 1.0000
25.8200 713.0000 1.0000
25.8300 707.0000 1.0000
25.8400 710.0000 1.0000
25.8500 722.0000 1.0000
25.8600 696.0000 1.0000
25.8700 748.0000 1.0000
25.8800 735.0000 1.0000
25.8900 721.0000 1.0000
25.9000 694.0000 1.0000
25.9100 674.0000 1.0000
25.9200 706.0000 1.0000
25.9300 774.0000 1.0000
25.9400 729.0000 1.0000
25.9500 734.0000 1.0000
25.9600 736.0000 1.0000
25.9700 735.0000 1.0000
25.9800 720.0000 1.0000
25.9900 749.0000 1.0000
26.0000 759.0000 1.0000
26.0100 753.0000 1.0000
26.0200 675.0000 1.0000
26.0300 716.0000 1.0000
26.0400 732.0000 1.0000
26.0500 733.0000 1.0000
26.0600 731.0000 1.0000
26.0700 777.0000 1.0000
26.0800 724.0000 1.0000
26.0900 760.0000 1.0000
26.1000 779.0000 1.0000
26.1100 754.0000 1.0000
26.1200 748.0000 1.0000
26.1300 804.0000 1.0000
26.1400 757.0000 1.0000
26.1500 799.0000 1.0000
26.1600 852.0000 1.0000
26.1700 811.0000 1.0000
26.1800 804.0000 1.0000
26.1900 828.0000 1.0000
26.2000 839.0000 1.0000
26.2100 900.0000 1.0000
26.2200 868.0000 1.0000
26.2300 899.0000 1.0000
26.2400 957.0000 1.0000
26.2500 917.0000 1.0000
26.2600 970.0000 1.0000
26.2700 994.0000 1.0000
26.2800 1038.0000 1.0000
26.2900 1006.0000 1.0000
26.3000 1035.0000 1.0000
26.3100 1091.0000 1.0000
26.3200 1071.0000 1.0000
26.3300 1135.0000 1.0000
26.3400 1198.0000 1.0000
26.3500 1238.0000 1.0000
26.3600 1238.0000 1.0000
26.3700 1257.0000 1.0000
26.3800 1292.0000 1.0000
26.3900 1282.0000 1.0000
26.4000 1375.0000 1.0000
26.4100 1385.0000 1.0000
26.4200 1430.0000 1.0000
26.4300 1393.0000 1.0000
26.4400 1408.0000 1.0000
26.4500 1424.0000 1.0000
26.4600 1433.0000 1.0000
26.4700 1466.0000 1.0000
26.4800 1368.0000 1.0000
26.4900 1392.0000 1.0000
26.5000 1353.0000 1.0000
26.5100 1324.0000 1.0000
26.5200 1217.0000 1.0000
26.5300 1287.0000 1.0000
26.5400 1189.0000 1.0000
26.5500 1206.0000 1.0000
26.5600 1137.0000 1.0000
26.5700 1158.0000 1.0000
26.5800 1092.0000 1.0000
26.5900 1057.0000 1.0000
26.6000 1052.0000 1.0000
26.6100 1009.0000 1.0000
26.6200 959.0000 1.0000
26.6300 973.0000 1.0000
26.6400 934.0000 1.0000
26.6500 935.0000 1.0000
26.6600 935.0000 1.0000
26.6700 911.0000 1.0000
26.6800 884.0000 1.0000
26.6900 850.0000 1.0000
26.7000 848.0000 1.0000
26.7100 814.0000 1.0000
26.7200 805.0000 1.0000
26.7300 831.0000 1.0000
26.7400 822.0000 1.0000
26.7500 797.0000 1.0000
26.7600 780.0000 1.0000
26.7700 785.0000 1.0000
26.7800 779.0000 1.0000
26.7900 792.0000 1.0000
26.8000 760.0000 1.0000
26.8100 810.0000 1.0000
26.8200 736.0000 1.0000
26.8300 788.0000 1.0000
26.8400 757.0000 1.0000
26.8500 739.0000 1.0000
26.8600 693.0000 1.0000
26.8700 719.0000 1.0000
26.8800 737.0000 1.0000
26.8900 764.0000 1.0000
26.9000 711.0000 1.0000
26.9100 715.0000 1.0000
26.9200 709.0000 1.0000
26.9300 690.0000 1.0000
26.9400 683.0000 1.0000
26.9500 679.0000 1.0000
26.9600 712.0000 1.0000
26.9700 752.0000 1.0000
26.9800 712.0000 1.0000
26.9900 705.0000 1.0000
27.0000 665.0000 1.0000
27.0100 696.0000 1.0000
27.0200 663.0000 1.0000
27.0300 652.0000 1.0000
27.0400 665.0000 1.0000
27.0500 718.0000 1.0000
27.0600 667.0000 1.0000
27.0700 650.0000 1.0000
27.0800 652.0000 1.0000
27.0900 643.0000 1.0000
27.1000 651.0000 1.0000
27.1100 668.0000 1.0000
27.1200 662.0000 1.0000
27.1300 668.0000 1.0000
27.1400 663.0000 1.0000
27.1500 658.0000 1.0000
27.1600 640.0000 1.0000
27.1700 671.0000 1.0000
27.1800 633.0000 1.0000
27.1900 667.0000 1.0000
27.2000 663.0000 1.0000
27.2100 673.0000 1.0000
27.2200 685.0000 1.0000
27.2300 660.0000 1.0000
27.2400 598.0000 1.0000
27.2500 661.0000 1.0000
27.2600 669.0000 1.0000
27.2700 642.0000 1.0000
27.2800 632.0000 1.0000
27.2900 654.0000 1.0000
27.3000 683.0000 1.0000
27.3100 641.0000 1.0000
27.3200 687.0000 1.0000
27.3300 677.0000 1.0000
27.3400 640.0000 1.0000
27.3500 635.0000 1.0000
27.3600 645.0000 1.0000
27.3700 649.0000 1.0000
27.3800 625.0000 1.0000
27.3900 655.0000 1.0000
27.4000 622.0000 1.0000
27.4100 597.0000 1.0000
27.4200 616.0000 1.0000
27.4300 666.0000 1.0000
27.4400 664.0000 1.0000
27.4500 660.0000 1.0000
27.4600 668.0000 1.0000
27.4700 638.0000 1.0000
27.4800 658.0000 1.0000
27.4900 641.0000 1.0000
27.5000 617.0000 1.0000
27.5100 626.0000 1.0000
27.5200 627.0000 1.0000
27.5300 649.0000 1.0000
27.5400 663.0000 1.0000
27.5500 653.0000 1.0000
27.5600 619.0000 1.0000
27.5700 648.0000 1.0000
27.5800 672.0000 1.0000
27.5900 661.0000 1.0000
27.6000 679.0000 1.0000
27.6100 620.0000 1.0000
27.6200 634.0000 1.0000
27.6300 659.0000 1.0000
27.6400 592.0000 1.0000
27.6500 621.0000 1.0000
27.6600 608.0000 1.0000
27.6700 619.0000 1.0000
27.6800 604.0000 1.0000
27.6900 585.0000 1.0000
27.7000 609.0000 1.0000
27.7100 618.0000 1.0000
27.7200 627.0000 1.0000
27.7300 636.0000 1.0000
27.7400 621.0000 1.0000
27.7500 623.0000 1.0000
27.7600 598.0000 1.0000
27.7700 589.0000 1.0000
27.7800 602.0000 1.0000
27.7900 648.0000 1.0000
27.8000 614.0000 1.0000
27.8100 618.0000 1.0000
27.8200 638.0000 1.0000
27.8300 609.0000 1.0000
27.8400 607.0000 1.0000
27.8500 611.0000 1.0000
27.8600 640.0000 1.0000
27.8700 607.0000 1.0000
27.8800 603.0000 1.0000
27.8900 638.0000 1.0000
27.9000 618.0000 1.0000
27.9100 614.0000 1.0000
27.9200 578.0000 1.0000
27.9300 620.0000 1.0000
27.9400 599.0000 1.0000
27.9500 615.0000 1.0000
27.9600 629.0000 1.0000
27.9700 653.0000 1.0000
27.9800 597.0000 1.0000
27.9900 599.0000 1.0000
28.0000 622.0000 1.0000
28.0100 623.0000 1.0000
28.0200 598.0000 1.0000
28.0300 598.0000 1.0000
28.0400 598.0000 1.0000
28.0500 626.0000 1.0000
28.0600 607.0000 1.0000
28.0700 566.0000 1.0000
28.0800 600.0000 1.0000
28.0900 556.0000 1.0000
28.1000 602.0000 1.0000
28.1100 587.0000 1.0000
28.1200 603.0000 1.0000
28.1300 593.0000 1.0000
28.1400 607.0000 1.0000
28.1500 574.0000 1.0000
28.1600 589.0000 1.0000
28.1700 608.0000 1.0000
28.1800 624.0000 1.0000
28.1900 617.0000 1.0000
28.2000 588.0000 1.0000
28.2100 644.0000 1.0000
28.2200 627.0000 1.0000
28.2300 577.0000 1.0000
28.2400 620.0000 1.0000
28.2500 570.0000 1.0000
28.2600 600.0000 1.0000
28.2700 619.0000 1.0000
28.2800 619.0000 1.0000
28.2900 593.0000 1.0000
28.3000 579.0000 1.0000
28.3100 626.0000 1.0000
28.3200 646.0000 1.0000
28.3300 633.0000 1.0000
28.3400 603.0000 1.0000
28.3500 608.0000 1.0000
28.3600 600.0000 1.0000
28.3700 615.0000 1.0000
28.3800 580.0000 1.0000
28.3900 571.0000 1.0000
28.4000 573.0000 1.0000
28.4100 589.0000 1.0000
28.4200 542.0000 1.0000
28.4300 589.0000 1.0000
28.4400 581.0000 1.0000
28.4500 566.0000 1.0000
28.4600 602.0000 1.0000
28.4700 615.0000 1.0000
28.4800 574.0000 1.0000
28.4900 616.0000 1.0000
28.5000 594.0000 1.0000
28.5100 603.0000 1.0000
28.5200 595.0000 1.0000
28.5300 580.0000 1.0000
28.5400 586.0000 1.0000
28.5500 594.0000 1.0000
28.5600 633.0000 1.0000
28.5700 587.0000 1.0000
28.5800 576.0000 1.0000
28.5900 595.0000 1.0000
28.6000 565.0000 1.0000
28.6100 575.0000 1.0000
28.6200 585.0000 1.0000
28.6300 570.0000 1.0000
28.6400 605.0000 1.0000
28.6500 578.0000 1.0000
28.6600 586.0000 1.0000
28.6700 619.0000 1.0000
28.6800 578.0000 1.0000
28.6900 558.0000 1.0000
28.7000 567.0000 1.0000
28.7100 561.0000 1.0000
28.7200 546.0000 1.0000
28.7300 578.0000 1.0000
28.7400 562.0000 1.0000
28.7500 582.0000 1.0000
28.7600 542.0000 1.0000
28.7700 639.0000 1.0000
28.7800 630.0000 1.0000
28.7900 610.0000 1.0000
28.8000 569.0000 1.0000
28.8100 597.0000 1.0000
28.8200 598.0000 1.0000
28.8300 556.0000 1.0000
28.8400 566.0000 1.0000
28.8500 605.0000 1.0000
28.8600 583.0000 1.0000
28.8700 644.0000 1.0000
28.8800 583.0000 1.0000
28.8900 591.0000 1.0000
28.9000 556.0000 1.0000
28.9100 604.0000 1.0000
28.9200 534.0000 1.0000
28.9300 547.0000 1.0000
28.9400 543.0000 1.0000
28.9500 561.0000 1.0000
28.9600 571.0000 1.0000
28.9700 572.0000 1.0000
28.9800 562.0000 1.0000
28.9900 585.0000 1.0000
29.0000 588.0000 1.0000
29.0100 548.0000 1.0000
29.0200 573.0000 1.0000
29.0300 548.0000 1.0000
29.0400 584.0000 1.0000
29.0500 620.0000 1.0000
29.0600 605.0000 1.0000
29.0700 591.0000 1.0000
29.0800 606.0000 1.0000
29.0900 594.0000 1.0000
29.1000 572.0000 1.0000
29.1100 568.0000 1.0000
29.1200 570.0000 1.0000
29.1300 565.0000 1.0000
29.1400 554.0000 1.0000
29.1500 574.0000 1.0000
29.1600 572.0000 1.0000
29.1700 546.0000 1.0000
29.1800 555.0000 1.0000
29.1900 566.0000 1.0000
29.2000 553.0000 1.0000
29.2100 543.0000 1.0000
29.2200 577.0000 1.0000
29.2300 610.0000 1.0000
29.2400 548.0000 1.0000
29.2500 583.0000 1.0000
29.2600 579.0000 1.0000
29.2700 583.0000 1.0000
29.2800 552.0000 1.0000
29.2900 544.0000 1.0000
29.3000 527.0000 1.0000
29.3100 589.0000 1.0000
29.3200 580.0000 1.0000
29.3300 614.0000 1.0000
29.3400 616.0000 1.0000
29.3500 580.0000 1.0000
29.3600 557.0000 1.0000
29.3700 563.0000 1.0000
29.3800 562.0000 1.0000
29.3900 585.0000 1.0000
29.4000 577.0000 1.0000
29.4100 573.0000 1.0000
29.4200 541.0000 1.0000
29.4300 553.0000 1.0000
29.4400 576.0000 1.0000
29.4500 565.0000 1.0000
29.4600 519.0000 1.0000
29.4700 555.0000 1.0000
29.4800 573.0000 1.0000
29.4900 581.0000 1.0000
29.5000 547.0000 1.0000
29.5100 560.0000 1.0000
29.5200 548.0000 1.0000
29.5300 551.0000 1.0000
29.5400 555.0000 1.0000
29.5500 596.0000 1.0000
29.5600 570.0000 1.0000
29.5700 584.0000 1.0000
29.5800 592.0000 1.0000
29.5900 602.0000 1.0000
29.6000 569.0000 1.0000
29.6100 548.0000 1.0000
29.6200 563.0000 1.0000
29.6300 526.0000 1.0000
29.6400 565.0000 1.0000
29.6500 552.0000 1.0000
29.6600 536.0000 1.0000
29.6700 593.0000 1.0000
29.6800 581.0000 1.0000
29.6900 538.0000 1.0000
29.7000 562.0000 1.0000
29.7100 554.0000 1.0000
29.7200 527.0000 1.0000
29.7300 548.0000 1.0000
29.7400 519.0000 1.0000
29.7500 553.0000 1.0000
29.7600 536.0000 1.0000
29.7700 573.0000 1.0000
29.7800 557.0000 1.0000
29.7900 586.0000 1.0000
29.8000 537.0000 1.0000
29.8100 539.0000 1.0000
29.8200 560.0000 1.0000
29.8300 529.0000 1.0000
29.8400 548.0000 1.0000
29.8500 523.0000 1.0000
29.8600 567.0000 1.0000
29.8700 513.0000 1.0000
29.8800 548.0000 1.0000
29.8900 584.0000 1.0000
29.9000 557.0000 1.0000
29.9100 576.0000 1.0000
29.9200 542.0000 1.0000
29.9300 545.0000 1.0000
29.9400 547.0000 1.0000
29.9500 574.0000 1.0000
29.9600 582.0000 1.0000
29.9700 592.0000 1.0000
29.9800 546.0000 1.0000
29.9900 547.0000 1.0000
30.0000 555.0000 1.0000
30.0100 561.0000 1.0000
30.0200 573.0000 1.0000
30.0300 546.0000 1.0000
30.0400 545.0000 1.0000
30.0500 552.0000 1.0000
30.0600 528.0000 1.0000
30.0700 573.0000 1.0000
30.0800 535.0000 1.0000
30.0900 613.0000 1.0000
30.1000 525.0000 1.0000
30.1100 539.0000 1.0000
30.1200 515.0000 1.0000
30.1300 553.0000 1.0000
30.1400 540.0000 1.0000
30.1500 524.0000 1.0000
30.1600 532.0000 1.0000
30.1700 554.0000 1.0000
30.1800 591.0000 1.0000
30.1900 571.0000 1.0000
30.2000 534.0000 1.0000
30.2100 536.0000 1.0000
30.2200 515.0000 1.0000
30.2300 510.0000 1.0000
30.2400 547.0000 1.0000
30.2500 584.0000 1.0000
30.2600 528.0000 1.0000
30.2700 520.0000 1.0000
30.2800 557.0000 1.0000
30.2900 547.0000 1.0000
30.3000 535.0000 1.0000
30.3100 556.0000 1.0000
30.3200 531.0000 1.0000
30.3300 585.0000 1.0000
30.3400 541.0000 1.0000
30.3500 546.0000 1.0000
30.3600 514.0000 1.0000
30.3700 503.0000 1.0000
30.3800 517.0000 1.0000
30.3900 531.0000 1.0000
30.4000 545.0000 1.0000
30.4100 531.0000 1.0000
30.4200 524.0000 1.0000
30.4300 540.0000 1.0000
30.4400 546.0000 1.0000
30.4500 514.0000 1.0000
30.4600 553.0000 1.0000
30.4700 554.0000 1.0000
30.4800 550.0000 1.0000
30.4900 576.0000 1.0000
30.5000 524.0000 1.0000
30.5100 541.0000 1.0000
30.5200 517.0000 1.0000
30.5300 554.0000 1.0000
30.5400 540.0000 1.0000
30.5500 559.0000 1.0000
30.5600 527.0000 1.0000
30.5700 487.0000 1.0000
30.5800 501.0000 1.0000
30.5900 504.0000 1.0000
30.6000 523.0000 1.0000
30.6100 566.0000 1.0000
30.6200 501.0000 1.0000
30.6300 503.0000 1.0000
30.6400 528.0000 1.0000
30.6500 528.0000 1.0000
30.6600 548.0000 1.0000
30.6700 576.0000 1.0000
30.6800 565.0000 1.0000
30.6900 562.0000 1.0000
30.7000 549.0000 1.0000
30.7100 568.0000 1.0000
30.7200 539.0000 1.0000
30.7300 574.0000 1.0000
30.7400 539.0000 1.0000
30.7500 553.0000 1.0000
30.7600 540.0000 1.0000
30.7700 534.0000 1.0000
30.7800 543.0000 1.0000
30.7900 562.0000 1.0000
30.8000 526.0000 1.0000
30.8100 543.0000 1.0000
30.8200 528.0000 1.0000
30.8300 520.0000 1.0000
30.8400 562.0000 1.0000
30.8500 519.0000 1.0000
30.8600 533.0000 1.0000
30.8700 541.0000 1.0000
30.8800 563.0000 1.0000
30.8900 528.0000 1.0000
30.9000 534.0000 1.0000
30.9100 523.0000 1.0000
30.9200 546.0000 1.0000
30.9300 551.0000 1.0000
30.9400 578.0000 1.0000
30.9500 577.0000 1.0000
30.9600 555.0000 1.0000
30.9700 523.0000 1.0000
30.9800 527.0000 1.0000
30.9900 545.0000 1.0000
31.0000 516.0000 1.0000
31.0100 543.0000 1.0000
31.0200 550.0000 1.0000
31.0300 567.0000 1.0000
31.0400 570.0000 1.0000
31.0500 552.0000 1.0000
31.0600 542.0000 1.0000
31.0700 598.0000 1.0000
31.0800 520.0000 1.0000
31.0900 549.0000 1.0000
31.1000 588.0000 1.0000
31.1100 545.0000 1.0000
31.1200 558.0000 1.0000
31.1300 574.0000 1.0000
31.1400 546.0000 1.0000
31.1500 538.0000 1.0000
31.1600 522.0000 1.0000
31.1700 543.0000 1.0000
31.1800 561.0000 1.0000
31.1900 577.0000 1.0000
31.2000 552.0000 1.0000
31.2100 627.0000 1.0000
31.2200 574.0000 1.0000
31.2300 570.0000 1.0000
31.2400 567.0000 1.0000
31.2500 534.0000 1.0000
31.2600 524.0000 1.0000
31.2700 538.0000 1.0000
31.2800 550.0000 1.0000
31.2900 583.0000 1.0000
31.3000 530.0000 1.0000
31.3100 526.0000 1.0000
31.3200 549.0000 1.0000
31.3300 563.0000 1.0000
31.3400 537.0000 1.0000
31.3500 520.0000 1.0000
31.3600 497.0000 1.0000
31.3700 526.0000 1.0000
31.3800 500.0000 1.0000
31.3900 489.0000 1.0000
31.4000 543.0000 1.0000
31.4100 528.0000 1.0000
31.4200 549.0000 1.0000
31.4300 503.0000 1.0000
31.4400 542.0000 1.0000
31.4500 531.0000 1.0000
31.4600 509.0000 1.0000
31.4700 545.0000 1.0000
31.4800 504.0000 1.0000
31.4900 544.0000 1.0000
31.5000 557.0000 1.0000
31.5100 506.0000 1.0000
31.5200 510.0000 1.0000
31.5300 501.0000 1.0000
31.5400 546.0000 1.0000
31.5500 548.0000 1.0000
31.5600 520.0000 1.0000
31.5700 519.0000 1.0000
31.5800 500.0000 1.0000
31.5900 556.0000 1.0000
31.6000 543.0000 1.0000
31.6100 509.0000 1.0000
31.6200 547.0000 1.0000
31.6300 526.0000 1.0000
31.6400 517.0000 1.0000
31.6500 558.0000 1.0000
31.6600 522.0000 1.0000
31.6700 534.0000 1.0000
31.6800 530.0000 1.0000
31.6900 533.0000 1.0000
31.7000 539.0000 1.0000
31.7100 500.0000 1.0000
31.7200 509.0000 1.0000
31.7300 499.0000 1.0000
31.7400 511.0000 1.0000
31.7500 490.0000 1.0000
31.7600 541.0000 1.0000
31.7700 526.0000 1.0000
31.7800 528.0000 1.0000
31.7900 532.0000 1.0000
31.8000 535.0000 1.0000
31.8100 529.0000 1.0000
31.8200 534.0000 1.0000
31.8300 554.0000 1.0000
31.8400 502.0000 1.0000
31.8500 495.0000 1.0000
31.8600 493.0000 1.0000
31.8700 499.0000 1.0000
31.8800 521.0000 1.0000
31.8900 497.0000 1.0000
31.9000 525.0000 1.0000
31.9100 524.0000 1.0000
31.9200 476.0000 1.0000
31.9300 532.0000 1.0000
31.9400 553.0000 1.0000
31.9500 527.0000 1.0000
31.9600 549.0000 1.0000
31.9700 516.0000 1.0000
31.9800 523.0000 1.0000
31.9900 542.0000 1.0000
32.0000 510.0000 1.0000
32.0100 494.0000 1.0000
32.0200 523.0000 1.0000
32.0300 494.0000 1.0000
32.0400 525.0000 1.0000
32.0500 494.0000 1.0000
32.0600 467.0000 1.0000
32.0700 492.0000 1.0000
32.0800 510.0000 1.0000
32.0900 500.0000 1.0000
32.1000 502.0000 1.0000
32.1100 525.0000 1.0000
32.1200 537.0000 1.0000
32.1300 518.0000 1.0000
32.1400 521.0000 1.0000
32.1500 518.0000 1.0000
32.1600 525.0000 1.0000
32.1700 519.0000 1.0000
32.1800 521.0000 1.0000
32.1900 517.0000 1.0000
32.2000 525.0000 1.0000
32.2100 528.0000 1.0000
32.2200 507.0000 1.0000
32.2300 484.0000 1.0000
32.2400 539.0000 1.0000
32.2500 532.0000 1.0000
32.2600 492.0000 1.0000
32.2700 508.0000 1.0000
32.2800 498.0000 1.0000
32.2900 484.0000 1.0000
32.3000 498.0000 1.0000
32.3100 529.0000 1.0000
32.3200 522.0000 1.0000
32.3300 487.0000 1.0000
32.3400 511.0000 1.0000
32.3500 546.0000 1.0000
32.3600 518.0000 1.0000
32.3700 493.0000 1.0000
32.3800 505.0000 1.0000
32.3900 509.0000 1.0000
32.4000 449.0000 1.0000
32.4100 493.0000 1.0000
32.4200 505.0000 1.0000
32.4300 471.0000 1.0000
32.4400 459.0000 1.0000
32.4500 482.0000 1.0000
32.4600 483.0000 1.0000
32.4700 479.0000 1.0000
32.4800 480.0000 1.0000
32.4900 437.0000 1.0000
32.5000 473.0000 1.0000
32.5100 509.0000 1.0000
32.5200 471.0000 1.0000
32.5300 498.0000 1.0000
32.5400 502.0000 1.0000
32.5500 495.0000 1.0000
32.5600 519.0000 1.0000
32.5700 514.0000 1.0000
32.5800 517.0000 1.0000
32.5900 473.0000 1.0000
32.6000 502.0000 1.0000
32.6100 483.0000 1.0000
32.6200 494.0000 1.0000
32.6300 490.0000 1.0000
32.6400 507.0000 1.0000
32.6500 447.0000 1.0000
32.6600 484.0000 1.0000
32.6700 486.0000 1.0000
32.6800 501.0000 1.0000
32.6900 504.0000 1.0000
32.7000 482.0000 1.0000
32.7100 483.0000 1.0000
32.7200 465.0000 1.0000
32.7300 470.0000 1.0000
32.7400 497.0000 1.0000
32.7500 476.0000 1.0000
32.7600 461.0000 1.0000
32.7700 508.0000 1.0000
32.7800 514.0000 1.0000
32.7900 470.0000 1.0000
32.8000 507.0000 1.0000
32.8100 498.0000 1.0000
32.8200 510.0000 1.0000
32.8300 507.0000 1.0000
32.8400 494.0000 1.0000
32.8500 483.0000 1.0000
32.8600 506.0000 1.0000
32.8700 519.0000 1.0000
32.8800 554.0000 1.0000
32.8900 515.0000 1.0000
32.9000 519.0000 1.0000
32.9100 514.0000 1.0000
32.9200 543.0000 1.0000
32.9300 548.0000 1.0000
32.9400 590.0000 1.0000
32.9500 564.0000 1.0000
32.9600 571.0000 1.0000
32.9700 555.0000 1.0000
32.9800 545.0000 1.0000
32.9900 546.0000 1.0000
33.0000 581.0000 1.0000
33.0100 586.0000 1.0000
33.0200 601.0000 1.0000
33.0300 582.0000 1.0000
33.0400 636.0000 1.0000
33.0500 614.0000 1.0000
33.0600 607.0000 1.0000
33.0700 599.0000 1.0000
33.0800 637.0000 1.0000
33.0900 629.0000 1.0000
33.1000 664.0000 1.0000
33.1100 676.0000 1.0000
33.1200 660.0000 1.0000
33.1300 637.0000 1.0000
33.1400 612.0000 1.0000
33.1500 639.0000 1.0000
33.1600 652.0000 1.0000
33.1700 611.0000 1.0000
33.1800 644.0000 1.0000
33.1900 584.0000 1.0000
33.2000 562.0000 1.0000
33.2100 583.0000 1.0000
33.2200 590.0000 1.0000
33.2300 577.0000 1.0000
33.2400 556.0000 1.0000
33.2500 571.0000 1.0000
33.2600 557.0000 1.0000
33.2700 561.0000 1.0000
33.2800 544.0000 1.0000
33.2900 559.0000 1.0000
33.3000 525.0000 1.0000
33.3100 532.0000 1.0000
33.3200 550.0000 1.0000
33.3300 526.0000 1.0000
33.3400 531.0000 1.0000
33.3500 551.0000 1.0000
33.3600 546.0000 1.0000
33.3700 558.0000 1.0000
33.3800 534.0000 1.0000
33.3900 571.0000 1.0000
33.4000 581.0000 1.0000
33.4100 567.0000 1.0000
33.4200 547.0000 1.0000
33.4300 521.0000 1.0000
33.4400 543.0000 1.0000
33.4500 572.0000 1.0000
33.4600 583.0000 1.0000
33.4700 616.0000 1.0000
33.4800 600.0000 1.0000
33.4900 605.0000 1.0000
33.5000 599.0000 1.0000
33.5100 601.0000 1.0000
33.5200 626.0000 1.0000
33.5300 609.0000 1.0000
33.5400 610.0000 1.0000
33.5500 657.0000 1.0000
33.5600 634.0000 1.0000
33.5700 675.0000 1.0000
33.5800 656.0000 1.0000
33.5900 636.0000 1.0000
33.6000 626.0000 1.0000
33.6100 640.0000 1.0000
33.6200 660.0000 1.0000
33.6300 669.0000 1.0000
33.6400 667.0000 1.0000
33.6500 626.0000 1.0000
33.6600 662.0000 1.0000
33.6700 688.0000 1.0000
33.6800 631.0000 1.0000
33.6900 635.0000 1.0000
33.7000 663.0000 1.0000
33.7100 685.0000 1.0000
33.7200 644.0000 1.0000
33.7300 662.0000 1.0000
33.7400 648.0000 1.0000
33.7500 656.0000 1.0000
33.7600 669.0000 1.0000
33.7700 649.0000 1.0000
33.7800 608.0000 1.0000
33.7900 597.0000 1.0000
33.8000 552.0000 1.0000
33.8100 575.0000 1.0000
33.8200 589.0000 1.0000
33.8300 571.0000 1.0000
33.8400 584.0000 1.0000
33.8500 596.0000 1.0000
33.8600 578.0000 1.0000
33.8700 578.0000 1.0000
33.8800 617.0000 1.0000
33.8900 608.0000 1.0000
33.9000 573.0000 1.0000
33.9100 540.0000 1.0000
33.9200 524.0000 1.0000
33.9300 535.0000 1.0000
33.9400 518.0000 1.0000
33.9500 573.0000 1.0000
33.9600 539.0000 1.0000
33.9700 545.0000 1.0000
33.9800 562.0000 1.0000
33.9900 570.0000 1.0000
34.0000 533.0000 1.0000
34.0100 544.0000 1.0000
34.0200 543.0000 1.0000
34.0300 532.0000 1.0000
34.0400 512.0000 1.0000
34.0500 490.0000 1.0000
34.0600 479.0000 1.0000
34.0700 503.0000 1.0000
34.0800 499.0000 1.0000
34.0900 494.0000 1.0000
34.1000 501.0000 1.0000
34.1100 480.0000 1.0000
34.1200 445.0000 1.0000
34.1300 473.0000 1.0000
34.1400 532.0000 1.0000
34.1500 520.0000 1.0000
34.1600 493.0000 1.0000
34.1700 470.0000 1.0000
34.1800 481.0000 1.0000
34.1900 483.0000 1.0000
34.2000 482.0000 1.0000
34.2100 493.0000 1.0000
34.2200 463.0000 1.0000
34.2300 499.0000 1.0000
34.2400 468.0000 1.0000
34.2500 448.0000 1.0000
34.2600 469.0000 1.0000
34.2700 498.0000 1.0000
34.2800 460.0000 1.0000
34.2900 465.0000 1.0000
34.3000 447.0000 1.0000
34.3100 491.0000 1.0000
34.3200 504.0000 1.0000
34.3300 506.0000 1.0000
34.3400 485.0000 1.0000
34.3500 483.0000 1.0000
34.3600 440.0000 1.0000
34.3700 434.0000 1.0000
34.3800 448.0000 1.0000
34.3900 481.0000 1.0000
34.4000 480.0000 1.0000
34.4100 455.0000 1.0000
34.4200 454.0000 1.0000
34.4300 461.0000 1.0000
34.4400 448.0000 1.0000
34.4500 436.0000 1.0000
34.4600 443.0000 1.0000
34.4700 434.0000 1.0000
34.4800 472.0000 1.0000
34.4900 463.0000 1.0000
34.5000 453.0000 1.0000
34.5100 474.0000 1.0000
34.5200 490.0000 1.0000
34.5300 445.0000 1.0000
34.5400 461.0000 1.0000
34.5500 444.0000 1.0000
34.5600 463.0000 1.0000
34.5700 453.0000 1.0000
34.5800 444.0000 1.0000
34.5900 464.0000 1.0000
34.6000 435.0000 1.0000
34.6100 440.0000 1.0000
34.6200 486.0000 1.0000
34.6300 438.0000 1.0000
34.6400 448.0000 1.0000
34.6500 454.0000 1.0000
34.6600 450.0000 1.0000
34.6700 466.0000 1.0000
34.6800 449.0000 1.0000
34.6900 457.0000 1.0000
34.7000 440.0000 1.0000
34.7100 450.0000 1.0000
34.7200 439.0000 1.0000
34.7300 419.0000 1.0000
34.7400 434.0000 1.0000
34.7500 431.0000 1.0000
34.7600 465.0000 1.0000
34.7700 424.0000 1.0000
34.7800 462.0000 1.0000
34.7900 438.0000 1.0000
34.8000 455.0000 1.0000
34.8100 421.0000 1.0000
34.8200 439.0000 1.0000
34.8300 421.0000 1.0000
34.8400 445.0000 1.0000
34.8500 442.0000 1.0000
34.8600 404.0000 1.0000
34.8700 456.0000 1.0000
34.8800 456.0000 1.0000
34.8900 432.0000 1.0000
34.9000 450.0000 1.0000
34.9100 457.0000 1.0000
34.9200 421.0000 1.0000
34.9300 440.0000 1.0000
34.9400 420.0000 1.0000
34.9500 436.0000 1.0000
34.9600 476.0000 1.0000
34.9700 449.0000 1.0000
34.9800 407.0000 1.0000
34.9900 451.0000 1.0000
35.0000 416.0000 1.0000
35.0100 423.0000 1.0000
35.0200 407.0000 1.0000
35.0300 426.0000 1.0000
35.0400 460.0000 1.0000
35.0500 457.0000 1.0000
35.0600 444.0000 1.0000
35.0700 421.0000 1.0000
35.0800 457.0000 1.0000
35.0900 436.0000 1.0000
35.1000 441.0000 1.0000
35.1100 455.0000 1.0000
35.1200 478.0000 1.0000
35.1300 429.0000 1.0000
35.1400 439.0000 1.0000
35.1500 448.0000 1.0000
35.1600 441.0000 1.0000
35.1700 440.0000 1.0000
35.1800 390.0000 1.0000
35.1900 443.0000 1.0000
35.2000 445.0000 1.0000
35.2100 430.0000 1.0000
35.2200 422.0000 1.0000
35.2300 421.0000 1.0000
35.2400 463.0000 1.0000
35.2500 452.0000 1.0000
35.2600 438.0000 1.0000
35.2700 460.0000 1.0000
35.2800 465.0000 1.0000
35.2900 471.0000 1.0000
35.3000 460.0000 1.0000
35.3100 465.0000 1.0000
35.3200 451.0000 1.0000
35.3300 453.0000 1.0000
35.3400 472.0000 1.0000
35.3500 485.0000 1.0000
35.3600 498.0000 1.0000
35.3700 472.0000 1.0000
35.3800 533.0000 1.0000
35.3900 520.0000 1.0000
35.4000 557.0000 1.0000
35.4100 567.0000 1.0000
35.4200 502.0000 1.0000
35.4300 566.0000 1.0000
35.4400 588.0000 1.0000
35.4500 622.0000 1.0000
35.4600 632.0000 1.0000
35.4700 578.0000 1.0000
35.4800 643.0000 1.0000
35.4900 673.0000 1.0000
35.5000 679.0000 1.0000
35.5100 701.0000 1.0000
35.5200 747.0000 1.0000
35.5300 762.0000 1.0000
35.5400 800.0000 1.0000
35.5500 769.0000 1.0000
35.5600 742.0000 1.0000
35.5700 771.0000 1.0000
35.5800 743.0000 1.0000
35.5900 779.0000 1.0000
35.6000 763.0000 1.0000
35.6100 773.0000 1.0000
35.6200 791.0000 1.0000
35.6300 780.0000 1.0000
35.6400 719.0000 1.0000
35.6500 727.0000 1.0000
35.6600 715.0000 1.0000
35.6700 702.0000 1.0000
35.6800 651.0000 1.0000
35.6900 651.0000 1.0000
35.7000 598.0000 1.0000
35.7100 606.0000 1.0000
35.7200 599.0000 1.0000
35.7300 593.0000 1.0000
35.7400 545.0000 1.0000
35.7500 530.0000 1.0000
35.7600 514.0000 1.0000
35.7700 501.0000 1.0000
35.7800 495.0000 1.0000
35.7900 465.0000 1.0000
35.8000 462.0000 1.0000
35.8100 463.0000 1.0000
35.8200 482.0000 1.0000
35.8300 480.0000 1.0000
35.8400 473.0000 1.0000
35.8500 454.0000 1.0000
35.8600 450.0000 1.0000
35.8700 462.0000 1.0000
35.8800 444.0000 1.0000
35.8900 438.0000 1.0000
35.9000 418.0000 1.0000
35.9100 404.0000 1.0000
35.9200 413.0000 1.0000
35.9300 420.0000 1.0000
35.9400 438.0000 1.0000
35.9500 415.0000 1.0000
35.9600 423.0000 1.0000
35.9700 400.0000 1.0000
35.9800 415.0000 1.0000
35.9900 384.0000 1.0000
36.0000 397.0000 1.0000
36.0100 432.0000 1.0000
36.0200 409.0000 1.0000
36.0300 387.0000 1.0000
36.0400 423.0000 1.0000
36.0500 433.0000 1.0000
36.0600 415.0000 1.0000
36.0700 362.0000 1.0000
36.0800 412.0000 1.0000
36.0900 409.0000 1.0000
36.1000 395.0000 1.0000
36.1100 388.0000 1.0000
36.1200 396.0000 1.0000
36.1300 399.0000 1.0000
36.1400 370.0000 1.0000
36.1500 402.0000 1.0000
36.1600 421.0000 1.0000
36.1700 416.0000 1.0000
36.1800 381.0000 1.0000
36.1900 414.0000 1.0000
36.2000 424.0000 1.0000
36.2100 406.0000 1.0000
36.2200 398.0000 1.0000
36.2300 426.0000 1.0000
36.2400 403.0000 1.0000
36.2500 399.0000 1.0000
36.2600 414.0000 1.0000
36.2700 419.0000 1.0000
36.2800 398.0000 1.0000
36.2900 406.0000 1.0000
36.3000 416.0000 1.0000
36.3100 439.0000 1.0000
36.3200 458.0000 1.0000
36.3300 418.0000 1.0000
36.3400 409.0000 1.0000
36.3500 424.0000 1.0000
36.3600 423.0000 1.0000
36.3700 407.0000 1.0000
36.3800 403.0000 1.0000
36.3900 384.0000 1.0000
36.4000 424.0000 1.0000
36.4100 426.0000 1.0000
36.4200 401.0000 1.0000
36.4300 393.0000 1.0000
36.4400 442.0000 1.0000
36.4500 427.0000 1.0000
36.4600 444.0000 1.0000
36.4700 428.0000 1.0000
36.4800 412.0000 1.0000
36.4900 432.0000 1.0000
36.5000 410.0000 1.0000
36.5100 384.0000 1.0000
36.5200 397.0000 1.0000
36.5300 417.0000 1.0000
36.5400 399.0000 1.0000
36.5500 417.0000 1.0000
36.5600 433.0000 1.0000
36.5700 432.0000 1.0000
36.5800 394.0000 1.0000
36.5900 414.0000 1.0000
36.6000 394.0000 1.0000
36.6100 390.0000 1.0000
36.6200 409.0000 1.0000
36.6300 414.0000 1.0000
36.6400 410.0000 1.0000
36.6500 413.0000 1.0000
36.6600 400.0000 1.0000
36.6700 424.0000 1.0000
36.6800 454.0000 1.0000
36.6900 397.0000 1.0000
36.7000 444.0000 1.0000
36.7100 389.0000 1.0000
36.7200 395.0000 1.0000
36.7300 427.0000 1.0000
36.7400 396.0000 1.0000
36.7500 414.0000 1.0000
36.7600 424.0000 1.0000
36.7700 418.0000 1.0000
36.7800 425.0000 1.0000
36.7900 406.0000 1.0000
36.8000 401.0000 1.0000
36.8100 396.0000 1.0000
36.8200 376.0000 1.0000
36.8300 398.0000 1.0000
36.8400 376.0000 1.0000
36.8500 396.0000 1.0000
36.8600 412.0000 1.0000
36.8700 436.0000 1.0000
36.8800 422.0000 1.0000
36.8900 396.0000 1.0000
36.9000 381.0000 1.0000
36.9100 418.0000 1.0000
36.9200 397.0000 1.0000
36.9300 414.0000 1.0000
36.9400 408.0000 1.0000
36.9500 416.0000 1.0000
36.9600 431.0000 1.0000
36.9700 400.0000 1.0000
36.9800 427.0000 1.0000
36.9900 446.0000 1.0000
37.0000 408.0000 1.0000
37.0100 411.0000 1.0000
37.0200 401.0000 1.0000
37.0300 414.0000 1.0000
37.0400 432.0000 1.0000
37.0500 417.0000 1.0000
37.0600 423.0000 1.0000
37.0700 429.0000 1.0000
37.0800 436.0000 1.0000
37.0900 461.0000 1.0000
37.1000 471.0000 1.0000
37.1100 422.0000 1.0000
37.1200 472.0000 1.0000
37.1300 477.0000 1.0000
37.1400 439.0000 1.0000
37.1500 434.0000 1.0000
37.1600 468.0000 1.0000
37.1700 456.0000 1.0000
37.1800 453.0000 1.0000
37.1900 484.0000 1.0000
37.2000 499.0000 1.0000
37.2100 483.0000 1.0000
37.2200 440.0000 1.0000
37.2300 482.0000 1.0000
37.2400 514.0000 1.0000
37.2500 512.0000 1.0000
37.2600 526.0000 1.0000
37.2700 488.0000 1.0000
37.2800 505.0000 1.0000
37.2900 509.0000 1.0000
37.3000 512.0000 1.0000
37.3100 533.0000 1.0000
37.3200 549.0000 1.0000
37.3300 580.0000 1.0000
37.3400 528.0000 1.0000
37.3500 574.0000 1.0000
37.3600 605.0000 1.0000
37.3700 650.0000 1.0000
37.3800 662.0000 1.0000
37.3900 651.0000 1.0000
37.4000 656.0000 1.0000
37.4100 701.0000 1.0000
37.4200 710.0000 1.0000
37.4300 726.0000 1.0000
37.4400 792.0000 1.0000
37.4500 840.0000 1.0000
37.4600 834.0000 1.0000
37.4700 848.0000 1.0000
37.4800 909.0000 1.0000
37.4900 931.0000 1.0000
37.5000 970.0000 1.0000
37.5100 1016.0000 1.0000
37.5200 1058.0000 1.0000
37.5300 1194.0000 1.0000
37.5400 1252.0000 1.0000
37.5500 1313.0000 1.0000
37.5600 1325.0000 1.0000
37.5700 1400.0000 1.0000
37.5800 1522.0000 1.0000
37.5900 1650.0000 1.0000
37.6000 1814.0000 1.0000
37.6100 1851.0000 1.0000
37.6200 2075.0000 1.0000
37.6300 2272.0000 1.0000
37.6400 2233.0000 1.0000
37.6500 2478.0000 1.0000
37.6600 2572.0000 1.0000
37.6700 2689.0000 1.0000
37.6800 2860.0000 1.0000
37.6900 3041.0000 1.0000
37.7000 2982.0000 1.0000
37.7100 3104.0000 1.0000
37.7200 3167.0000 1.0000
37.7300 3118.0000 1.0000
37.7400 3096.0000 1.0000
37.7500 3154.0000 1.0000
37.7600 3008.0000 1.0000
37.7700 2924.0000 1.0000
37.7800 2863.0000 1.0000
37.7900 2818.0000 1.0000
37.8000 2725.0000 1.0000
37.8100 2576.0000 1.0000
37.8200 2433.0000 1.0000
37.8300 2353.0000 1.0000
37.8400 2207.0000 1.0000
37.8500 2136.0000 1.0000
37.8600 1988.0000 1.0000
37.8700 1831.0000 1.0000
37.8800 1712.0000 1.0000
37.8900 1576.0000 1.0000
37.9000 1542.0000 1.0000
37.9100 1360.0000 1.0000
37.9200 1284.0000 1.0000
37.9300 1204.0000 1.0000
37.9400 1161.0000 1.0000
37.9500 1090.0000 1.0000
37.9600 1011.0000 1.0000
37.9700 986.0000 1.0000
37.9800 943.0000 1.0000
37.9900 842.0000 1.0000
38.0000 819.0000 1.0000
38.0100 775.0000 1.0000
38.0200 787.0000 1.0000
38.0300 720.0000 1.0000
38.0400 723.0000 1.0000
38.0500 671.0000 1.0000
38.0600 660.0000 1.0000
38.0700 586.0000 1.0000
38.0800 645.0000 1.0000
38.0900 617.0000 1.0000
38.1000 553.0000 1.0000
38.1100 561.0000 1.0000
38.1200 546.0000 1.0000
38.1300 539.0000 1.0000
38.1400 534.0000 1.0000
38.1500 467.0000 1.0000
38.1600 482.0000 1.0000
38.1700 494.0000 1.0000
38.1800 478.0000 1.0000
38.1900 493.0000 1.0000
38.2000 493.0000 1.0000
38.2100 475.0000 1.0000
38.2200 438.0000 1.0000
38.2300 450.0000 1.0000
38.2400 460.0000 1.0000
38.2500 457.0000 1.0000
38.2600 447.0000 1.0000
38.2700 424.0000 1.0000
38.2800 453.0000 1.0000
38.2900 459.0000 1.0000
38.3000 417.0000 1.0000
38.3100 408.0000 1.0000
38.3200 400.0000 1.0000
38.3300 397.0000 1.0000
38.3400 396.0000 1.0000
38.3500 406.0000 1.0000
38.3600 396.0000 1.0000
38.3700 429.0000 1.0000
38.3800 437.0000 1.0000
38.3900 397.0000 1.0000
38.4000 397.0000 1.0000
38.4100 386.0000 1.0000
38.4200 376.0000 1.0000
38.4300 412.0000 1.0000
38.4400 405.0000 1.0000
38.4500 386.0000 1.0000
38.4600 395.0000 1.0000
38.4700 372.0000 1.0000
38.4800 377.0000 1.0000
38.4900 373.0000 1.0000
38.5000 354.0000 1.0000
38.5100 353.0000 1.0000
38.5200 363.0000 1.0000
38.5300 377.0000 1.0000
38.5400 347.0000 1.0000
38.5500 341.0000 1.0000
38.5600 364.0000 1.0000
38.5700 393.0000 1.0000
38.5800 365.0000 1.0000
38.5900 368.0000 1.0000
38.6000 347.0000 1.0000
38.6100 388.0000 1.0000
38.6200 348.0000 1.0000
38.6300 381.0000 1.0000
38.6400 393.0000 1.0000
38.6500 378.0000 1.0000
38.6600 354.0000 1.0000
38.6700 366.0000 1.0000
38.6800 366.0000 1.0000
38.6900 377.0000 1.0000
38.7000 399.0000 1.0000
38.7100 388.0000 1.0000
38.7200 394.0000 1.0000
38.7300 400.0000 1.0000
38.7400 369.0000 1.0000
38.7500 362.0000 1.0000
38.7600 340.0000 1.0000
38.7700 382.0000 1.0000
38.7800 401.0000 1.0000
38.7900 337.0000 1.0000
38.8000 384.0000 1.0000
38.8100 346.0000 1.0000
38.8200 365.0000 1.0000
38.8300 383.0000 1.0000
38.8400 383.0000 1.0000
38.8500 356.0000 1.0000
38.8600 324.0000 1.0000
38.8700 376.0000 1.0000
38.8800 393.0000 1.0000
38.8900 377.0000 1.0000
38.9000 373.0000 1.0000
38.9100 376.0000 1.0000
38.9200 395.0000 1.0000
38.9300 360.0000 1.0000
38.9400 376.0000 1.0000
38.9500 353.0000 1.0000
38.9600 336.0000 1.0000
38.9700 369.0000 1.0000
38.9800 364.0000 1.0000
38.9900 325.0000 1.0000
39.0000 341.0000 1.0000
39.0100 345.0000 1.0000
39.0200 359.0000 1.0000
39.0300 342.0000 1.0000
39.0400 335.0000 1.0000
39.0500 331.0000 1.0000
39.0600 364.0000 1.0000
39.0700 370.0000 1.0000
39.0800 342.0000 1.0000
39.0900 366.0000 1.0000
39.1000 364.0000 1.0000
39.1100 366.0000 1.0000
39.1200 353.0000 1.0000
39.1300 352.0000 1.0000
39.1400 372.0000 1.0000
39.1500 337.0000 1.0000
39.1600 341.0000 1.0000
39.1700 365.0000 1.0000
39.1800 347.0000 1.0000
39.1900 359.0000 1.0000
39.2000 357.0000 1.0000
39.2100 338.0000 1.0000
39.2200 338.0000 1.0000
39.2300 340.0000 1.0000
39.2400 363.0000 1.0000
39.2500 341.0000 1.0000
39.2600 358.0000 1.0000
39.2700 340.0000 1.0000
39.2800 337.0000 1.0000
39.2900 359.0000 1.0000
39.3000 332.0000 1.0000
39.3100 356.0000 1.0000
39.3200 330.0000 1.0000
39.3300 330.0000 1.0000
39.3400 334.0000 1.0000
39.3500 327.0000 1.0000
39.3600 356.0000 1.0000
39.3700 340.0000 1.0000
39.3800 342.0000 1.0000
39.3900 350.0000 1.0000
39.4000 338.0000 1.0000
39.4100 358.0000 1.0000
39.4200 335.0000 1.0000
39.4300 362.0000 1.0000
39.4400 334.0000 1.0000
39.4500 360.0000 1.0000
39.4600 346.0000 1.0000
39.4700 340.0000 1.0000
39.4800 322.0000 1.0000
39.4900 319.0000 1.0000
39.5000 366.0000 1.0000
39.5100 362.0000 1.0000
39.5200 330.0000 1.0000
39.5300 334.0000 1.0000
39.5400 331.0000 1.0000
39.5500 324.0000 1.0000
39.5600 353.0000 1.0000
39.5700 337.0000 1.0000
39.5800 338.0000 1.0000
39.5900 331.0000 1.0000
39.6000 353.0000 1.0000
39.6100 340.0000 1.0000
39.6200 389.0000 1.0000
39.6300 362.0000 1.0000
39.6400 351.0000 1.0000
39.6500 353.0000 1.0000
39.6600 374.0000 1.0000
39.6700 383.0000 1.0000
39.6800 360.0000 1.0000
39.6900 333.0000 1.0000
39.7000 341.0000 1.0000
39.7100 352.0000 1.0000
39.7200 350.0000 1.0000
39.7300 352.0000 1.0000
39.7400 346.0000 1.0000
39.7500 338.0000 1.0000
39.7600 353.0000 1.0000
39.7700 346.0000 1.0000
39.7800 325.0000 1.0000
39.7900 335.0000 1.0000
39.8000 333.0000 1.0000
39.8100 361.0000 1.0000
39.8200 341.0000 1.0000
39.8300 338.0000 1.0000
39.8400 343.0000 1.0000
39.8500 319.0000 1.0000
39.8600 337.0000 1.0000
39.8700 325.0000 1.0000
39.8800 355.0000 1.0000
39.8900 353.0000 1.0000
39.9000 327.0000 1.0000
39.9100 338.0000 1.0000
39.9200 323.0000 1.0000
39.9300 334.0000 1.0000
39.9400 328.0000 1.0000
39.9500 323.0000 1.0000
39.9600 339.0000 1.0000
39.9700 314.0000 1.0000
39.9800 325.0000 1.0000
39.9900 325.0000 1.0000
40.0000 331.0000 1.0000
40.0100 333.0000 1.0000
40.0200 342.0000 1.0000
40.0300 349.0000 1.0000
40.0400 329.0000 1.0000
40.0500 332.0000 1.0000
40.0600 338.0000 1.0000
40.0700 319.0000 1.0000
40.0800 336.0000 1.0000
40.0900 324.0000 1.0000
40.1000 341.0000 1.0000
40.1100 312.0000 1.0000
40.1200 349.0000 1.0000
40.1300 336.0000 1.0000
40.1400 352.0000 1.0000
40.1500 329.0000 1.0000
40.1600 318.0000 1.0000
40.1700 336.0000 1.0000
40.1800 346.0000 1.0000
40.1900 336.0000 1.0000
40.2000 325.0000 1.0000
40.2100 346.0000 1.0000
40.2200 344.0000 1.0000
40.2300 358.0000 1.0000
40.2400 331.0000 1.0000
40.2500 337.0000 1.0000
40.2600 325.0000 1.0000
40.2700 324.0000 1.0000
40.2800 314.0000 1.0000
40.2900 331.0000 1.0000
40.3000 343.0000 1.0000
40.3100 338.0000 1.0000
40.3200 293.0000 1.0000
40.3300 332.0000 1.0000
40.3400 340.0000 1.0000
40.3500 335.0000 1.0000
40.3600 330.0000 1.0000
40.3700 362.0000 1.0000
40.3800 359.0000 1.0000
40.3900 361.0000 1.0000
40.4000 334.0000 1.0000
40.4100 335.0000 1.0000
40.4200 327.0000 1.0000
40.4300 369.0000 1.0000
40.4400 368.0000 1.0000
40.4500 336.0000 1.0000
40.4600 338.0000 1.0000
40.4700 350.0000 1.0000
40.4800 350.0000 1.0000
40.4900 353.0000 1.0000
40.5000 345.0000 1.0000
40.5100 351.0000 1.0000
40.5200 314.0000 1.0000
40.5300 337.0000 1.0000
40.5400 362.0000 1.0000
40.5500 385.0000 1.0000
40.5600 350.0000 1.0000
40.5700 329.0000 1.0000
40.5800 336.0000 1.0000
40.5900 340.0000 1.0000
40.6000 333.0000 1.0000
40.6100 333.0000 1.0000
40.6200 337.0000 1.0000
40.6300 344.0000 1.0000
40.6400 358.0000 1.0000
40.6500 353.0000 1.0000
40.6600 373.0000 1.0000
40.6700 349.0000 1.0000
40.6800 346.0000 1.0000
40.6900 368.0000 1.0000
40.7000 357.0000 1.0000
40.7100 372.0000 1.0000
40.7200 364.0000 1.0000
40.7300 365.0000 1.0000
40.7400 333.0000 1.0000
40.7500 339.0000 1.0000
40.7600 345.0000 1.0000
40.7700 393.0000 1.0000
40.7800 378.0000 1.0000
40.7900 387.0000 1.0000
40.8000 371.0000 1.0000
40.8100 407.0000 1.0000
40.8200 412.0000 1.0000
40.8300 389.0000 1.0000
40.8400 397.0000 1.0000
40.8500 311.0000 1.0000
40.8600 353.0000 1.0000
40.8700 386.0000 1.0000
40.8800 359.0000 1.0000
40.8900 366.0000 1.0000
40.9000 353.0000 1.0000
40.9100 417.0000 1.0000
40.9200 386.0000 1.0000
40.9300 322.0000 1.0000
40.9400 378.0000 1.0000
40.9500 383.0000 1.0000
40.9600 363.0000 1.0000
40.9700 362.0000 1.0000
40.9800 351.0000 1.0000
40.9900 352.0000 1.0000
41.0000 373.0000 1.0000
41.0100 348.0000 1.0000
41.0200 341.0000 1.0000
41.0300 348.0000 1.0000
41.0400 308.0000 1.0000
41.0500 344.0000 1.0000
41.0600 314.0000 1.0000
41.0700 327.0000 1.0000
41.0800 355.0000 1.0000
41.0900 321.0000 1.0000
41.1000 342.0000 1.0000
41.1100 341.0000 1.0000
41.1200 362.0000 1.0000
41.1300 326.0000 1.0000
41.1400 348.0000 1.0000
41.1500 363.0000 1.0000
41.1600 333.0000 1.0000
41.1700 338.0000 1.0000
41.1800 338.0000 1.0000
41.1900 316.0000 1.0000
41.2000 344.0000 1.0000
41.2100 307.0000 1.0000
41.2200 298.0000 1.0000
41.2300 320.0000 1.0000
41.2400 344.0000 1.0000
41.2500 330.0000 1.0000
41.2600 331.0000 1.0000
41.2700 306.0000 1.0000
41.2800 323.0000 1.0000
41.2900 342.0000 1.0000
41.3000 323.0000 1.0000
41.3100 331.0000 1.0000
41.3200 328.0000 1.0000
41.3300 332.0000 1.0000
41.3400 325.0000 1.0000
41.3500 317.0000 1.0000
41.3600 330.0000 1.0000
41.3700 337.0000 1.0000
41.3800 317.0000 1.0000
41.3900 338.0000 1.0000
41.4000 350.0000 1.0000
41.4100 327.0000 1.0000
41.4200 330.0000 1.0000
41.4300 339.0000 1.0000
41.4400 349.0000 1.0000
41.4500 332.0000 1.0000
41.4600 325.0000 1.0000
41.4700 313.0000 1.0000
41.4800 341.0000 1.0000
41.4900 335.0000 1.0000
41.5000 346.0000 1.0000
41.5100 332.0000 1.0000
41.5200 359.0000 1.0000
41.5300 324.0000 1.0000
41.5400 328.0000 1.0000
41.5500 368.0000 1.0000
41.5600 330.0000 1.0000
41.5700 332.0000 1.0000
41.5800 366.0000 1.0000
41.5900 302.0000 1.0000
41.6000 321.0000 1.0000
41.6100 362.0000 1.0000
41.6200 355.0000 1.0000
41.6300 331.0000 1.0000
41.6400 350.0000 1.0000
41.6500 341.0000 1.0000
41.6600 343.0000 1.0000
41.6700 311.0000 1.0000
41.6800 328.0000 1.0000
41.6900 323.0000 1.0000
41.7000 292.0000 1.0000
41.7100 274.0000 1.0000
41.7200 329.0000 1.0000
41.7300 327.0000 1.0000
41.7400 323.0000 1.0000
41.7500 301.0000 1.0000
41.7600 298.0000 1.0000
41.7700 322.0000 1.0000
41.7800 347.0000 1.0000
41.7900 332.0000 1.0000
41.8000 324.0000 1.0000
41.8100 315.0000 1.0000
41.8200 312.0000 1.0000
41.8300 297.0000 1.0000
41.8400 314.0000 1.0000
41.8500 290.0000 1.0000
41.8600 322.0000 1.0000
41.8700 330.0000 1.0000
41.8800 316.0000 1.0000
41.8900 329.0000 1.0000
41.9000 295.0000 1.0000
41.9100 314.0000 1.0000
41.9200 301.0000 1.0000
41.9300 336.0000 1.0000
41.9400 336.0000 1.0000
41.9500 313.0000 1.0000
41.9600 322.0000 1.0000
41.9700 322.0000 1.0000
41.9800 326.0000 1.0000
41.9900 342.0000 1.0000
42.0000 321.0000 1.0000
42.0100 309.0000 1.0000
42.0200 323.0000 1.0000
42.0300 341.0000 1.0000
42.0400 324.0000 1.0000
42.0500 304.0000 1.0000
42.0600 306.0000 1.0000
42.0700 323.0000 1.0000
42.0800 294.0000 1.0000
42.0900 309.0000 1.0000
42.1000 327.0000 1.0000
42.1100 329.0000 1.0000
42.1200 333.0000 1.0000
42.1300 319.0000 1.0000
42.1400 317.0000 1.0000
42.1500 300.0000 1.0000
42.1600 340.0000 1.0000
42.1700 323.0000 1.0000
42.1800 345.0000 1.0000
42.1900 319.0000 1.0000
42.2000 316.0000 1.0000
42.2100 306.0000 1.0000
42.2200 326.0000 1.0000
42.2300 294.0000 1.0000
42.2400 312.0000 1.0000
42.2500 322.0000 1.0000
42.2600 339.0000 1.0000
42.2700 345.0000 1.0000
42.2800 325.0000 1.0000
42.2900 283.0000 1.0000
42.3000 349.0000 1.0000
42.3100 332.0000 1.0000
42.3200 329.0000 1.0000
42.3300 340.0000 1.0000
42.3400 342.0000 1.0000
42.3500 335.0000 1.0000
42.3600 325.0000 1.0000
42.3700 350.0000 1.0000
42.3800 364.0000 1.0000
42.3900 347.0000 1.0000
42.4000 353.0000 1.0000
42.4100 372.0000 1.0000
42.4200 327.0000 1.0000
42.4300 317.0000 1.0000
42.4400 335.0000 1.0000
42.4500 286.0000 1.0000
42.4600 350.0000 1.0000
42.4700 344.0000 1.0000
42.4800 337.0000 1.0000
42.4900 324.0000 1.0000
42.5000 345.0000 1.0000
42.5100 336.0000 1.0000
42.5200 346.0000 1.0000
42.5300 318.0000 1.0000
42.5400 334.0000 1.0000
42.5500 306.0000 1.0000
42.5600 286.0000 1.0000
42.5700 316.0000 1.0000
42.5800 301.0000 1.0000
42.5900 327.0000 1.0000
42.6000 331.0000 1.0000
42.6100 360.0000 1.0000
42.6200 343.0000 1.0000
42.6300 333.0000 1.0000
42.6400 316.0000 1.0000
42.6500 314.0000 1.0000
42.6600 324.0000 1.0000
42.6700 320.0000 1.0000
42.6800 290.0000 1.0000
42.6900 309.0000 1.0000
42.7000 308.0000 1.0000
42.7100 294.0000 1.0000
42.7200 303.0000 1.0000
42.7300 305.0000 1.0000
42.7400 346.0000 1.0000
42.7500 323.0000 1.0000
42.7600 301.0000 1.0000
42.7700 313.0000 1.0000
42.7800 314.0000 1.0000
42.7900 287.0000 1.0000
42.8000 339.0000 1.0000
42.8100 315.0000 1.0000
42.8200 301.0000 1.0000
42.8300 344.0000 1.0000
42.8400 325.0000 1.0000
42.8500 295.0000 1.0000
42.8600 292.0000 1.0000
42.8700 303.0000 1.0000
42.8800 317.0000 1.0000
42.8900 314.0000 1.0000
42.9000 309.0000 1.0000
42.9100 295.0000 1.0000
42.9200 309.0000 1.0000
42.9300 304.0000 1.0000
42.9400 294.0000 1.0000
42.9500 300.0000 1.0000
42.9600 321.0000 1.0000
42.9700 308.0000 1.0000
42.9800 317.0000 1.0000
42.9900 300.0000 1.0000
43.0000 295.0000 1.0000
43.0100 293.0000 1.0000
43.0200 318.0000 1.0000
43.0300 298.0000 1.0000
43.0400 311.0000 1.0000
43.0500 296.0000 1.0000
43.0600 328.0000 1.0000
43.0700 290.0000 1.0000
43.0800 315.0000 1.0000
43.0900 327.0000 1.0000
43.1000 338.0000 1.0000
43.1100 315.0000 1.0000
43.1200 290.0000 1.0000
43.1300 271.0000 1.0000
43.1400 294.0000 1.0000
43.1500 301.0000 1.0000
43.1600 301.0000 1.0000
43.1700 307.0000 1.0000
43.1800 332.0000 1.0000
43.1900 287.0000 1.0000
43.2000 304.0000 1.0000
43.2100 313.0000 1.0000
43.2200 318.0000 1.0000
43.2300 320.0000 1.0000
43.2400 308.0000 1.0000
43.2500 332.0000 1.0000
43.2600 329.0000 1.0000
43.2700 345.0000 1.0000
43.2800 308.0000 1.0000
43.2900 296.0000 1.0000
43.3000 316.0000 1.0000
43.3100 320.0000 1.0000
43.3200 346.0000 1.0000
43.3300 336.0000 1.0000
43.3400 322.0000 1.0000
43.3500 309.0000 1.0000
43.3600 297.0000 1.0000
43.3700 295.0000 1.0000
43.3800 322.0000 1.0000
43.3900 282.0000 1.0000
43.4000 312.0000 1.0000
43.4100 311.0000 1.0000
43.4200 331.0000 1.0000
43.4300 304.0000 1.0000
43.4400 320.0000 1.0000
43.4500 330.0000 1.0000
43.4600 300.0000 1.0000
43.4700 323.0000 1.0000
43.4800 321.0000 1.0000
43.4900 309.0000 1.0000
43.5000 298.0000 1.0000
43.5100 332.0000 1.0000
43.5200 315.0000 1.0000
43.5300 303.0000 1.0000
43.5400 299.0000 1.0000
43.5500 309.0000 1.0000
43.5600 309.0000 1.0000
43.5700 306.0000 1.0000
43.5800 313.0000 1.0000
43.5900 334.0000 1.0000
43.6000 308.0000 1.0000
43.6100 309.0000 1.0000
43.6200 325.0000 1.0000
43.6300 340.0000 1.0000
43.6400 298.0000 1.0000
43.6500 307.0000 1.0000
43.6600 318.0000 1.0000
43.6700 311.0000 1.0000
43.6800 310.0000 1.0000
43.6900 324.0000 1.0000
43.7000 304.0000 1.0000
43.7100 284.0000 1.0000
43.7200 294.0000 1.0000
43.7300 290.0000 1.0000
43.7400 306.0000 1.0000
43.7500 303.0000 1.0000
43.7600 326.0000 1.0000
43.7700 346.0000 1.0000
43.7800 327.0000 1.0000
43.7900 334.0000 1.0000
43.8000 316.0000 1.0000
43.8100 316.0000 1.0000
43.8200 319.0000 1.0000
43.8300 362.0000 1.0000
43.8400 311.0000 1.0000
43.8500 313.0000 1.0000
43.8600 296.0000 1.0000
43.8700 297.0000 1.0000
43.8800 299.0000 1.0000
43.8900 306.0000 1.0000
43.9000 299.0000 1.0000
43.9100 286.0000 1.0000
43.9200 278.0000 1.0000
43.9300 311.0000 1.0000
43.9400 329.0000 1.0000
43.9500 317.0000 1.0000
43.9600 324.0000 1.0000
43.9700 307.0000 1.0000
43.9800 311.0000 1.0000
43.9900 313.0000 1.0000
44.0000 295.0000 1.0000
44.0100 301.0000 1.0000
44.0200 286.0000 1.0000
44.0300 274.0000 1.0000
44.0400 294.0000 1.0000
44.0500 300.0000 1.0000
44.0600 283.0000 1.0000
44.0700 283.0000 1.0000
44.0800 269.0000 1.0000
44.0900 306.0000 1.0000
44.1000 325.0000 1.0000
44.1100 308.0000 1.0000
44.1200 299.0000 1.0000
44.1300 310.0000 1.0000
44.1400 323.0000 1.0000
44.1500 268.0000 1.0000
44.1600 297.0000 1.0000
44.1700 301.0000 1.0000
44.1800 311.0000 1.0000
44.1900 320.0000 1.0000
44.2000 289.0000 1.0000
44.2100 294.0000 1.0000
44.2200 310.0000 1.0000
44.2300 305.0000 1.0000
44.2400 316.0000 1.0000
44.2500 326.0000 1.0000
44.2600 265.0000 1.0000
44.2700 298.0000 1.0000
44.2800 296.0000 1.0000
44.2900 321.0000 1.0000
44.3000 288.0000 1.0000
44.3100 276.0000 1.0000
44.3200 284.0000 1.0000
44.3300 270.0000 1.0000
44.3400 292.0000 1.0000
44.3500 291.0000 1.0000
44.3600 315.0000 1.0000
44.3700 280.0000 1.0000
44.3800 298.0000 1.0000
44.3900 290.0000 1.0000
44.4000 302.0000 1.0000
44.4100 307.0000 1.0000
44.4200 310.0000 1.0000
44.4300 315.0000 1.0000
44.4400 312.0000 1.0000
44.4500 314.0000 1.0000
44.4600 286.0000 1.0000
44.4700 281.0000 1.0000
44.4800 300.0000 1.0000
44.4900 308.0000 1.0000
44.5000 287.0000 1.0000
44.5100 314.0000 1.0000
44.5200 261.0000 1.0000
44.5300 304.0000 1.0000
44.5400 315.0000 1.0000
44.5500 271.0000 1.0000
44.5600 291.0000 1.0000
44.5700 292.0000 1.0000
44.5800 284.0000 1.0000
44.5900 327.0000 1.0000
44.6000 303.0000 1.0000
44.6100 299.0000 1.0000
44.6200 301.0000 1.0000
44.6300 292.0000 1.0000
44.6400 296.0000 1.0000
44.6500 286.0000 1.0000
44.6600 284.0000 1.0000
44.6700 302.0000 1.0000
44.6800 285.0000 1.0000
44.6900 284.0000 1.0000
44.7000 283.0000 1.0000
44.7100 305.0000 1.0000
44.7200 286.0000 1.0000
44.7300 293.0000 1.0000
44.7400 276.0000 1.0000
44.7500 284.0000 1.0000
44.7600 295.0000 1.0000
44.7700 279.0000 1.0000
44.7800 263.0000 1.0000
44.7900 292.0000 1.0000
44.8000 275.0000 1.0000
44.8100 260.0000 1.0000
44.8200 280.0000 1.0000
44.8300 297.0000 1.0000
44.8400 294.0000 1.0000
44.8500 290.0000 1.0000
44.8600 305.0000 1.0000
44.8700 317.0000 1.0000
44.8800 307.0000 1.0000
44.8900 342.0000 1.0000
44.9000 284.0000 1.0000
44.9100 297.0000 1.0000
44.9200 279.0000 1.0000
44.9300 287.0000 1.0000
44.9400 291.0000 1.0000
44.9500 292.0000 1.0000
44.9600 301.0000 1.0000
44.9700 275.0000 1.0000
44.9800 295.0000 1.0000
44.9900 283.0000 1.0000
45.0000 300.0000 1.0000
45.0100 283.0000 1.0000
45.0200 284.0000 1.0000
45.0300 295.0000 1.0000
45.0400 293.0000 1.0000
45.0500 297.0000 1.0000
45.0600 307.0000 1.0000
45.0700 290.0000 1.0000
45.0800 277.0000 1.0000
45.0900 337.0000 1.0000
45.1000 308.0000 1.0000
45.1100 285.0000 1.0000
45.1200 282.0000 1.0000
45.1300 286.0000 1.0000
45.1400 313.0000 1.0000
45.1500 282.0000 1.0000
45.1600 304.0000 1.0000
45.1700 298.0000 1.0000
45.1800 303.0000 1.0000
45.1900 296.0000 1.0000
45.2000 315.0000 1.0000
45.2100 295.0000 1.0000
45.2200 257.0000 1.0000
45.2300 302.0000 1.0000
45.2400 292.0000 1.0000
45.2500 289.0000 1.0000
45.2600 303.0000 1.0000
45.2700 288.0000 1.0000
45.2800 284.0000 1.0000
45.2900 301.0000 1.0000
45.3000 318.0000 1.0000
45.3100 310.0000 1.0000
45.3200 285.0000 1.0000
45.3300 310.0000 1.0000
45.3400 308.0000 1.0000
45.3500 300.0000 1.0000
45.3600 302.0000 1.0000
45.3700 288.0000 1.0000
45.3800 284.0000 1.0000
45.3900 276.0000 1.0000
45.4000 288.0000 1.0000
45.4100 282.0000 1.0000
45.4200 290.0000 1.0000
45.4300 269.0000 1.0000
45.4400 301.0000 1.0000
45.4500 285.0000 1.0000
45.4600 274.0000 1.0000
45.4700 283.0000 1.0000
45.4800 285.0000 1.0000
45.4900 256.0000 1.0000
45.5000 274.0000 1.0000
45.5100 263.0000 1.0000
45.5200 289.0000 1.0000
45.5300 286.0000 1.0000
45.5400 295.0000 1.0000
45.5500 279.0000 1.0000
45.5600 277.0000 1.0000
45.5700 284.0000 1.0000
45.5800 281.0000 1.0000
45.5900 293.0000 1.0000
45.6000 279.0000 1.0000
45.6100 286.0000 1.0000
45.6200 264.0000 1.0000
45.6300 294.0000 1.0000
45.6400 305.0000 1.0000
45.6500 294.0000 1.0000
45.6600 296.0000 1.0000
45.6700 304.0000 1.0000
45.6800 282.0000 1.0000
45.6900 274.0000 1.0000
45.7000 275.0000 1.0000
45.7100 300.0000 1.0000
45.7200 244.0000 1.0000
45.7300 300.0000 1.0000
45.7400 276.0000 1.0000
45.7500 286.0000 1.0000
45.7600 299.0000 1.0000
45.7700 276.0000 1.0000
45.7800 293.0000 1.0000
45.7900 296.0000 1.0000
45.8000 278.0000 1.0000
45.8100 293.0000 1.0000
45.8200 280.0000 1.0000
45.8300 279.0000 1.0000
45.8400 281.0000 1.0000
45.8500 287.0000 1.0000
45.8600 269.0000 1.0000
45.8700 294.0000 1.0000
45.8800 291.0000 1.0000
45.8900 276.0000 1.0000
45.9000 304.0000 1.0000
45.9100 302.0000 1.0000
45.9200 303.0000 1.0000
45.9300 294.0000 1.0000
45.9400 280.0000 1.0000
45.9500 303.0000 1.0000
45.9600 291.0000 1.0000
45.9700 319.0000 1.0000
45.9800 288.0000 1.0000
45.9900 272.0000 1.0000
46.0000 276.0000 1.0000
46.0100 280.0000 1.0000
46.0200 270.0000 1.0000
46.0300 302.0000 1.0000
46.0400 292.0000 1.0000
46.0500 255.0000 1.0000
46.0600 284.0000 1.0000
46.0700 304.0000 1.0000
46.0800 280.0000 1.0000
46.0900 317.0000 1.0000
46.1000 294.0000 1.0000
46.1100 268.0000 1.0000
46.1200 278.0000 1.0000
46.1300 294.0000 1.0000
46.1400 279.0000 1.0000
46.1500 289.0000 1.0000
46.1600 290.0000 1.0000
46.1700 301.0000 1.0000
46.1800 307.0000 1.0000
46.1900 315.0000 1.0000
46.2000 287.0000 1.0000
46.2100 306.0000 1.0000
46.2200 279.0000 1.0000
46.2300 286.0000 1.0000
46.2400 307.0000 1.0000
46.2500 278.0000 1.0000
46.2600 284.0000 1.0000
46.2700 293.0000 1.0000
46.2800 287.0000 1.0000
46.2900 299.0000 1.0000
46.3000 257.0000 1.0000
46.3100 264.0000 1.0000
46.3200 301.0000 1.0000
46.3300 276.0000 1.0000
46.3400 272.0000 1.0000
46.3500 292.0000 1.0000
46.3600 274.0000 1.0000
46.3700 298.0000 1.0000
46.3800 300.0000 1.0000
46.3900 277.0000 1.0000
46.4000 297.0000 1.0000
46.4100 269.0000 1.0000
46.4200 271.0000 1.0000
46.4300 273.0000 1.0000
46.4400 284.0000 1.0000
46.4500 292.0000 1.0000
46.4600 268.0000 1.0000
46.4700 305.0000 1.0000
46.4800 271.0000 1.0000
46.4900 288.0000 1.0000
46.5000 295.0000 1.0000
46.5100 258.0000 1.0000
46.5200 241.0000 1.0000
46.5300 270.0000 1.0000
46.5400 301.0000 1.0000
46.5500 270.0000 1.0000
46.5600 290.0000 1.0000
46.5700 297.0000 1.0000
46.5800 282.0000 1.0000
46.5900 296.0000 1.0000
46.6000 263.0000 1.0000
46.6100 272.0000 1.0000
46.6200 264.0000 1.0000
46.6300 277.0000 1.0000
46.6400 254.0000 1.0000
46.6500 286.0000 1.0000
46.6600 278.0000 1.0000
46.6700 279.0000 1.0000
46.6800 285.0000 1.0000
46.6900 283.0000 1.0000
46.7000 285.0000 1.0000
46.7100 274.0000 1.0000
46.7200 281.0000 1.0000
46.7300 259.0000 1.0000
46.7400 260.0000 1.0000
46.7500 293.0000 1.0000
46.7600 273.0000 1.0000
46.7700 299.0000 1.0000
46.7800 276.0000 1.0000
46.7900 280.0000 1.0000
46.8000 289.0000 1.0000
46.8100 280.0000 1.0000
46.8200 258.0000 1.0000
46.8300 282.0000 1.0000
46.8400 290.0000 1.0000
46.8500 287.0000 1.0000
46.8600 293.0000 1.0000
46.8700 294.0000 1.0000
46.8800 261.0000 1.0000
46.8900 267.0000 1.0000
46.9000 289.0000 1.0000
46.9100 282.0000 1.0000
46.9200 274.0000 1.0000
46.9300 268.0000 1.0000
46.9400 275.0000 1.0000
46.9500 266.0000 1.0000
46.9600 267.0000 1.0000
46.9700 291.0000 1.0000
46.9800 272.0000 1.0000
46.9900 245.0000 1.0000
47.0000 256.0000 1.0000
47.0100 297.0000 1.0000
47.0200 275.0000 1.0000
47.0300 269.0000 1.0000
47.0400 284.0000 1.0000
47.0500 264.0000 1.0000
47.0600 282.0000 1.0000
47.0700 307.0000 1.0000
47.0800 293.0000 1.0000
47.0900 286.0000 1.0000
47.1000 302.0000 1.0000
47.1100 265.0000 1.0000
47.1200 270.0000 1.0000
47.1300 261.0000 1.0000
47.1400 272.0000 1.0000
47.1500 282.0000 1.0000
47.1600 287.0000 1.0000
47.1700 276.0000 1.0000
47.1800 291.0000 1.0000
47.1900 283.0000 1.0000
47.2000 299.0000 1.0000
47.2100 281.0000 1.0000
47.2200 277.0000 1.0000
47.2300 283.0000 1.0000
47.2400 286.0000 1.0000
47.2500 281.0000 1.0000
47.2600 270.0000 1.0000
47.2700 278.0000 1.0000
47.2800 293.0000 1.0000
47.2900 277.0000 1.0000
47.3000 267.0000 1.0000
47.3100 273.0000 1.0000
47.3200 275.0000 1.0000
47.3300 273.0000 1.0000
47.3400 265.0000 1.0000
47.3500 290.0000 1.0000
47.3600 294.0000 1.0000
47.3700 266.0000 1.0000
47.3800 273.0000 1.0000
47.3900 260.0000 1.0000
47.4000 285.0000 1.0000
47.4100 264.0000 1.0000
47.4200 290.0000 1.0000
47.4300 313.0000 1.0000
47.4400 307.0000 1.0000
47.4500 296.0000 1.0000
47.4600 292.0000 1.0000
47.4700 259.0000 1.0000
47.4800 255.0000 1.0000
47.4900 277.0000 1.0000
47.5000 256.0000 1.0000
47.5100 271.0000 1.0000
47.5200 276.0000 1.0000
47.5300 262.0000 1.0000
47.5400 280.0000 1.0000
47.5500 253.0000 1.0000
47.5600 291.0000 1.0000
47.5700 292.0000 1.0000
47.5800 255.0000 1.0000
47.5900 269.0000 1.0000
47.6000 268.0000 1.0000
47.6100 276.0000 1.0000
47.6200 271.0000 1.0000
47.6300 280.0000 1.0000
47.6400 282.0000 1.0000
47.6500 278.0000 1.0000
47.6600 263.0000 1.0000
47.6700 272.0000 1.0000
47.6800 266.0000 1.0000
47.6900 278.0000 1.0000
47.7000 294.0000 1.0000
47.7100 276.0000 1.0000
47.7200 276.0000 1.0000
47.7300 275.0000 1.0000
47.7400 262.0000 1.0000
47.7500 292.0000 1.0000
47.7600 270.0000 1.0000
47.7700 278.0000 1.0000
47.7800 267.0000 1.0000
47.7900 270.0000 1.0000
47.8000 260.0000 1.0000
47.8100 299.0000 1.0000
47.8200 273.0000 1.0000
47.8300 267.0000 1.0000
47.8400 268.0000 1.0000
47.8500 259.0000 1.0000
47.8600 261.0000 1.0000
47.8700 259.0000 1.0000
47.8800 257.0000 1.0000
47.8900 278.0000 1.0000
47.9000 272.0000 1.0000
47.9100 266.0000 1.0000
47.9200 273.0000 1.0000
47.9300 269.0000 1.0000
47.9400 262.0000 1.0000
47.9500 256.0000 1.0000
47.9600 286.0000 1.0000
47.9700 244.0000 1.0000
47.9800 301.0000 1.0000
47.9900 253.0000 1.0000
48.0000 258.0000 1.0000
48.0100 255.0000 1.0000
48.0200 252.0000 1.0000
48.0300 259.0000 1.0000
48.0400 278.0000 1.0000
48.0500 272.0000 1.0000
48.0600 277.0000 1.0000
48.0700 275.0000 1.0000
48.0800 263.0000 1.0000
48.0900 273.0000 1.0000
48.1000 248.0000 1.0000
48.1100 256.0000 1.0000
48.1200 279.0000 1.0000
48.1300 251.0000 1.0000
48.1400 263.0000 1.0000
48.1500 287.0000 1.0000
48.1600 253.0000 1.0000
48.1700 258.0000 1.0000
48.1800 276.0000 1.0000
48.1900 280.0000 1.0000
48.2000 261.0000 1.0000
48.2100 240.0000 1.0000
48.2200 267.0000 1.0000
48.2300 250.0000 1.0000
48.2400 275.0000 1.0000
48.2500 267.0000 1.0000
48.2600 288.0000 1.0000
48.2700 263.0000 1.0000
48.2800 291.0000 1.0000
48.2900 254.0000 1.0000
48.3000 273.0000 1.0000
48.3100 247.0000 1.0000
48.3200 237.0000 1.0000
48.3300 283.0000 1.0000
48.3400 259.0000 1.0000
48.3500 265.0000 1.0000
48.3600 270.0000 1.0000
48.3700 280.0000 1.0000
48.3800 255.0000 1.0000
48.3900 272.0000 1.0000
48.4000 296.0000 1.0000
48.4100 273.0000 1.0000
48.4200 265.0000 1.0000
48.4300 257.0000 1.0000
48.4400 272.0000 1.0000
48.4500 253.0000 1.0000
48.4600 272.0000 1.0000
48.4700 265.0000 1.0000
48.4800 266.0000 1.0000
48.4900 262.0000 1.0000
48.5000 247.0000 1.0000
48.5100 270.0000 1.0000
48.5200 246.0000 1.0000
48.5300 232.0000 1.0000
48.5400 244.0000 1.0000
48.5500 261.0000 1.0000
48.5600 248.0000 1.0000
48.5700 248.0000 1.0000
48.5800 269.0000 1.0000
48.5900 242.0000 1.0000
48.6000 263.0000 1.0000
48.6100 252.0000 1.0000
48.6200 275.0000 1.0000
48.6300 249.0000 1.0000
48.6400 258.0000 1.0000
48.6500 285.0000 1.0000
48.6600 280.0000 1.0000
48.6700 262.0000 1.0000
48.6800 267.0000 1.0000
48.6900 274.0000 1.0000
48.7000 290.0000 1.0000
48.7100 248.0000 1.0000
48.7200 284.0000 1.0000
48.7300 269.0000 1.0000
48.7400 273.0000 1.0000
48.7500 292.0000 1.0000
48.7600 266.0000 1.0000
48.7700 281.0000 1.0000
48.7800 290.0000 1.0000
48.7900 263.0000 1.0000
48.8000 259.0000 1.0000
48.8100 249.0000 1.0000
48.8200 273.0000 1.0000
48.8300 258.0000 1.0000
48.8400 276.0000 1.0000
48.8500 265.0000 1.0000
48.8600 281.0000 1.0000
48.8700 268.0000 1.0000
48.8800 237.0000 1.0000
48.8900 271.0000 1.0000
48.9000 256.0000 1.0000
48.9100 269.0000 1.0000
48.9200 273.0000 1.0000
48.9300 284.0000 1.0000
48.9400 279.0000 1.0000
48.9500 270.0000 1.0000
48.9600 261.0000 1.0000
48.9700 274.0000 1.0000
48.9800 248.0000 1.0000
48.9900 262.0000 1.0000
49.0000 252.0000 1.0000
49.0100 277.0000 1.0000
49.0200 252.0000 1.0000
49.0300 272.0000 1.0000
49.0400 273.0000 1.0000
49.0500 263.0000 1.0000
49.0600 271.0000 1.0000
49.0700 254.0000 1.0000
49.0800 260.0000 1.0000
49.0900 281.0000 1.0000
49.1000 282.0000 1.0000
49.1100 283.0000 1.0000
49.1200 294.0000 1.0000
49.1300 281.0000 1.0000
49.1400 276.0000 1.0000
49.1500 304.0000 1.0000
49.1600 277.0000 1.0000
49.1700 303.0000 1.0000
49.1800 266.0000 1.0000
49.1900 281.0000 1.0000
49.2000 294.0000 1.0000
49.2100 265.0000 1.0000
49.2200 280.0000 1.0000
49.2300 268.0000 1.0000
49.2400 272.0000 1.0000
49.2500 306.0000 1.0000
49.2600 292.0000 1.0000
49.2700 300.0000 1.0000
49.2800 285.0000 1.0000
49.2900 303.0000 1.0000
49.3000 318.0000 1.0000
49.3100 283.0000 1.0000
49.3200 290.0000 1.0000
49.3300 289.0000 1.0000
49.3400 304.0000 1.0000
49.3500 338.0000 1.0000
49.3600 336.0000 1.0000
49.3700 282.0000 1.0000
49.3800 300.0000 1.0000
49.3900 310.0000 1.0000
49.4000 332.0000 1.0000
49.4100 329.0000 1.0000
49.4200 307.0000 1.0000
49.4300 299.0000 1.0000
49.4400 318.0000 1.0000
49.4500 307.0000 1.0000
49.4600 303.0000 1.0000
49.4700 334.0000 1.0000
49.4800 301.0000 1.0000
49.4900 321.0000 1.0000
49.5000 278.0000 1.0000
49.5100 296.0000 1.0000
49.5200 292.0000 1.0000
49.5300 308.0000 1.0000
49.5400 331.0000 1.0000
49.5500 312.0000 1.0000
49.5600 326.0000 1.0000
49.5700 281.0000 1.0000
49.5800 295.0000 1.0000
49.5900 303.0000 1.0000
49.6000 297.0000 1.0000
49.6100 287.0000 1.0000
49.6200 251.0000 1.0000
49.6300 260.0000 1.0000
49.6400 270.0000 1.0000
49.6500 274.0000 1.0000
49.6600 274.0000 1.0000
49.6700 274.0000 1.0000
49.6800 272.0000 1.0000
49.6900 289.0000 1.0000
49.7000 292.0000 1.0000
49.7100 261.0000 1.0000
49.7200 277.0000 1.0000
49.7300 274.0000 1.0000
49.7400 290.0000 1.0000
49.7500 288.0000 1.0000
49.7600 266.0000 1.0000
49.7700 251.0000 1.0000
49.7800 293.0000 1.0000
49.7900 271.0000 1.0000
49.8000 283.0000 1.0000
49.8100 281.0000 1.0000
49.8200 255.0000 1.0000
49.8300 263.0000 1.0000
49.8400 279.0000 1.0000
49.8500 247.0000 1.0000
49.8600 240.0000 1.0000
49.8700 260.0000 1.0000
49.8800 249.0000 1.0000
49.8900 262.0000 1.0000
49.9000 255.0000 1.0000
49.9100 258.0000 1.0000
49.9200 273.0000 1.0000
49.9300 276.0000 1.0000
49.9400 280.0000 1.0000
49.9500 272.0000 1.0000
49.9600 268.0000 1.0000
49.9700 254.0000 1.0000
49.9800 271.0000 1.0000
49.9900 294.0000 1.0000
50.0000 290.0000 1.0000
50.0100 249.0000 1.0000
50.0200 257.0000 1.0000
50.0300 294.0000 1.0000
50.0400 259.0000 1.0000
50.0500 262.0000 1.0000
50.0600 264.0000 1.0000
50.0700 258.0000 1.0000
50.0800 276.0000 1.0000
50.0900 262.0000 1.0000
50.1000 280.0000 1.0000
50.1100 237.0000 1.0000
50.1200 261.0000 1.0000
50.1300 265.0000 1.0000
50.1400 255.0000 1.0000
50.1500 272.0000 1.0000
50.1600 254.0000 1.0000
50.1700 263.0000 1.0000
50.1800 237.0000 1.0000
50.1900 254.0000 1.0000
50.2000 260.0000 1.0000
50.2100 272.0000 1.0000
50.2200 269.0000 1.0000
50.2300 248.0000 1.0000
50.2400 283.0000 1.0000
50.2500 260.0000 1.0000
50.2600 279.0000 1.0000
50.2700 262.0000 1.0000
50.2800 257.0000 1.0000
50.2900 268.0000 1.0000
50.3000 277.0000 1.0000
50.3100 259.0000 1.0000
50.3200 250.0000 1.0000
50.3300 262.0000 1.0000
50.3400 271.0000 1.0000
50.3500 279.0000 1.0000
50.3600 273.0000 1.0000
50.3700 272.0000 1.0000
50.3800 299.0000 1.0000
50.3900 257.0000 1.0000
50.4000 267.0000 1.0000
50.4100 256.0000 1.0000
50.4200 257.0000 1.0000
50.4300 267.0000 1.0000
50.4400 270.0000 1.0000
50.4500 271.0000 1.0000
50.4600 257.0000 1.0000
50.4700 251.0000 1.0000
50.4800 246.0000 1.0000
50.4900 310.0000 1.0000
50.5000 286.0000 1.0000
50.5100 270.0000 1.0000
50.5200 297.0000 1.0000
50.5300 230.0000 1.0000
50.5400 242.0000 1.0000
50.5500 237.0000 1.0000
50.5600 263.0000 1.0000
50.5700 273.0000 1.0000
50.5800 296.0000 1.0000
50.5900 258.0000 1.0000
50.6000 272.0000 1.0000
50.6100 265.0000 1.0000
50.6200 260.0000 1.0000
50.6300 274.0000 1.0000
50.6400 248.0000 1.0000
50.6500 250.0000 1.0000
50.6600 254.0000 1.0000
50.6700 252.0000 1.0000
50.6800 259.0000 1.0000
50.6900 274.0000 1.0000
50.7000 291.0000 1.0000
50.7100 287.0000 1.0000
50.7200 245.0000 1.0000
50.7300 262.0000 1.0000
50.7400 253.0000 1.0000
50.7500 256.0000 1.0000
50.7600 259.0000 1.0000
50.7700 249.0000 1.0000
50.7800 247.0000 1.0000
50.7900 243.0000 1.0000
50.8000 266.0000 1.0000
50.8100 272.0000 1.0000
50.8200 290.0000 1.0000
50.8300 288.0000 1.0000
50.8400 281.0000 1.0000
50.8500 245.0000 1.0000
50.8600 242.0000 1.0000
50.8700 265.0000 1.0000
50.8800 300.0000 1.0000
50.8900 312.0000 1.0000
50.9000 269.0000 1.0000
50.9100 271.0000 1.0000
50.9200 299.0000 1.0000
50.9300 306.0000 1.0000
50.9400 295.0000 1.0000
50.9500 291.0000 1.0000
50.9600 289.0000 1.0000
50.9700 278.0000 1.0000
50.9800 262.0000 1.0000
50.9900 291.0000 1.0000
51.0000 278.0000 1.0000
51.0100 287.0000 1.0000
51.0200 283.0000 1.0000
51.0300 280.0000 1.0000
51.0400 284.0000 1.0000
51.0500 289.0000 1.0000
51.0600 286.0000 1.0000
51.0700 295.0000 1.0000
51.0800 302.0000 1.0000
51.0900 319.0000 1.0000
51.1000 315.0000 1.0000
51.1100 295.0000 1.0000
51.1200 318.0000 1.0000
51.1300 311.0000 1.0000
51.1400 330.0000 1.0000
51.1500 324.0000 1.0000
51.1600 309.0000 1.0000
51.1700 316.0000 1.0000
51.1800 348.0000 1.0000
51.1900 360.0000 1.0000
51.2000 329.0000 1.0000
51.2100 372.0000 1.0000
51.2200 369.0000 1.0000
51.2300 379.0000 1.0000
51.2400 368.0000 1.0000
51.2500 372.0000 1.0000
51.2600 429.0000 1.0000
51.2700 383.0000 1.0000
51.2800 435.0000 1.0000
51.2900 456.0000 1.0000
51.3000 421.0000 1.0000
51.3100 503.0000 1.0000
51.3200 499.0000 1.0000
51.3300 496.0000 1.0000
51.3400 525.0000 1.0000
51.3500 556.0000 1.0000
51.3600 638.0000 1.0000
51.3700 649.0000 1.0000
51.3800 650.0000 1.0000
51.3900 657.0000 1.0000
51.4000 739.0000 1.0000
51.4100 779.0000 1.0000
51.4200 773.0000 1.0000
51.4300 804.0000 1.0000
51.4400 810.0000 1.0000
51.4500 899.0000 1.0000
51.4600 887.0000 1.0000
51.4700 888.0000 1.0000
51.4800 878.0000 1.0000
51.4900 886.0000 1.0000
51.5000 879.0000 1.0000
51.5100 862.0000 1.0000
51.5200 831.0000 1.0000
51.5300 821.0000 1.0000
51.5400 802.0000 1.0000
51.5500 760.0000 1.0000
51.5600 763.0000 1.0000
51.5700 786.0000 1.0000
51.5800 725.0000 1.0000
51.5900 749.0000 1.0000
51.6000 724.0000 1.0000
51.6100 670.0000 1.0000
51.6200 683.0000 1.0000
51.6300 620.0000 1.0000
51.6400 592.0000 1.0000
51.6500 612.0000 1.0000
51.6600 586.0000 1.0000
51.6700 563.0000 1.0000
51.6800 508.0000 1.0000
51.6900 552.0000 1.0000
51.7000 483.0000 1.0000
51.7100 469.0000 1.0000
51.7200 426.0000 1.0000
51.7300 442.0000 1.0000
51.7400 435.0000 1.0000
51.7500 399.0000 1.0000
51.7600 430.0000 1.0000
51.7700 380.0000 1.0000
51.7800 360.0000 1.0000
51.7900 384.0000 1.0000
51.8000 375.0000 1.0000
51.8100 377.0000 1.0000
51.8200 372.0000 1.0000
51.8300 341.0000 1.0000
51.8400 333.0000 1.0000
51.8500 321.0000 1.0000
51.8600 348.0000 1.0000
51.8700 331.0000 1.0000
51.8800 348.0000 1.0000
51.8900 336.0000 1.0000
51.9000 319.0000 1.0000
51.9100 298.0000 1.0000
51.9200 322.0000 1.0000
51.9300 319.0000 1.0000
51.9400 323.0000 1.0000
51.9500 315.0000 1.0000
51.9600 328.0000 1.0000
51.9700 300.0000 1.0000
51.9800 282.0000 1.0000
51.9900 280.0000 1.0000
52.0000 277.0000 1.0000
52.0100 259.0000 1.0000
52.0200 307.0000 1.0000
52.0300 299.0000 1.0000
52.0400 294.0000 1.0000
52.0500 287.0000 1.0000
52.0600 272.0000 1.0000
52.0700 304.0000 1.0000
52.0800 288.0000 1.0000
52.0900 291.0000 1.0000
52.1000 273.0000 1.0000
52.1100 251.0000 1.0000
52.1200 265.0000 1.0000
52.1300 283.0000 1.0000
52.1400 246.0000 1.0000
52.1500 289.0000 1.0000
52.1600 284.0000 1.0000
52.1700 252.0000 1.0000
52.1800 264.0000 1.0000
52.1900 289.0000 1.0000
52.2000 271.0000 1.0000
52.2100 295.0000 1.0000
52.2200 283.0000 1.0000
52.2300 284.0000 1.0000
52.2400 285.0000 1.0000
52.2500 286.0000 1.0000
52.2600 261.0000 1.0000
52.2700 266.0000 1.0000
52.2800 270.0000 1.0000
52.2900 288.0000 1.0000
52.3000 274.0000 1.0000
52.3100 278.0000 1.0000
52.3200 304.0000 1.0000
52.3300 259.0000 1.0000
52.3400 255.0000 1.0000
52.3500 252.0000 1.0000
52.3600 262.0000 1.0000
52.3700 285.0000 1.0000
52.3800 249.0000 1.0000
52.3900 241.0000 1.0000
52.4000 257.0000 1.0000
52.4100 278.0000 1.0000
52.4200 256.0000 1.0000
52.4300 261.0000 1.0000
52.4400 284.0000 1.0000
52.4500 264.0000 1.0000
52.4600 275.0000 1.0000
52.4700 281.0000 1.0000
52.4800 252.0000 1.0000
52.4900 284.0000 1.0000
52.5000 271.0000 1.0000
52.5100 258.0000 1.0000
52.5200 259.0000 1.0000
52.5300 259.0000 1.0000
52.5400 258.0000 1.0000
52.5500 278.0000 1.0000
52.5600 263.0000 1.0000
52.5700 261.0000 1.0000
52.5800 262.0000 1.0000
52.5900 244.0000 1.0000
52.6000 263.0000 1.0000
52.6100 277.0000 1.0000
52.6200 276.0000 1.0000
52.6300 286.0000 1.0000
52.6400 250.0000 1.0000
52.6500 286.0000 1.0000
52.6600 269.0000 1.0000
52.6700 257.0000 1.0000
52.6800 264.0000 1.0000
52.6900 273.0000 1.0000
52.7000 269.0000 1.0000
52.7100 255.0000 1.0000
52.7200 249.0000 1.0000
52.7300 267.0000 1.0000
52.7400 272.0000 1.0000
52.7500 253.0000 1.0000
52.7600 275.0000 1.0000
52.7700 239.0000 1.0000
52.7800 280.0000 1.0000
52.7900 258.0000 1.0000
52.8000 254.0000 1.0000
52.8100 277.0000 1.0000
52.8200 280.0000 1.0000
52.8300 300.0000 1.0000
52.8400 244.0000 1.0000
52.8500 262.0000 1.0000
52.8600 265.0000 1.0000
52.8700 253.0000 1.0000
52.8800 265.0000 1.0000
52.8900 231.0000 1.0000
52.9000 219.0000 1.0000
52.9100 247.0000 1.0000
52.9200 268.0000 1.0000
52.9300 232.0000 1.0000
52.9400 251.0000 1.0000
52.9500 246.0000 1.0000
52.9600 270.0000 1.0000
52.9700 228.0000 1.0000
52.9800 242.0000 1.0000
52.9900 251.0000 1.0000
53.0000 274.0000 1.0000
53.0100 274.0000 1.0000
53.0200 256.0000 1.0000
53.0300 267.0000 1.0000
53.0400 275.0000 1.0000
53.0500 268.0000 1.0000
53.0600 253.0000 1.0000
53.0700 253.0000 1.0000
53.0800 244.0000 1.0000
53.0900 252.0000 1.0000
53.1000 247.0000 1.0000
53.1100 258.0000 1.0000
53.1200 249.0000 1.0000
53.1300 257.0000 1.0000
53.1400 257.0000 1.0000
53.1500 235.0000 1.0000
53.1600 263.0000 1.0000
53.1700 255.0000 1.0000
53.1800 243.0000 1.0000
53.1900 260.0000 1.0000
53.2000 255.0000 1.0000
53.2100 267.0000 1.0000
53.2200 254.0000 1.0000
53.2300 238.0000 1.0000
53.2400 242.0000 1.0000
53.2500 247.0000 1.0000
53.2600 258.0000 1.0000
53.2700 247.0000 1.0000
53.2800 242.0000 1.0000
53.2900 243.0000 1.0000
53.3000 232.0000 1.0000
53.3100 259.0000 1.0000
53.3200 252.0000 1.0000
53.3300 265.0000 1.0000
53.3400 253.0000 1.0000
53.3500 255.0000 1.0000
53.3600 246.0000 1.0000
53.3700 229.0000 1.0000
53.3800 249.0000 1.0000
53.3900 237.0000 1.0000
53.4000 249.0000 1.0000
53.4100 257.0000 1.0000
53.4200 259.0000 1.0000
53.4300 277.0000 1.0000
53.4400 275.0000 1.0000
53.4500 279.0000 1.0000
53.4600 260.0000 1.0000
53.4700 265.0000 1.0000
53.4800 260.0000 1.0000
53.4900 295.0000 1.0000
53.5000 250.0000 1.0000
53.5100 265.0000 1.0000
53.5200 274.0000 1.0000
53.5300 263.0000 1.0000
53.5400 254.0000 1.0000
53.5500 268.0000 1.0000
53.5600 248.0000 1.0000
53.5700 241.0000 1.0000
53.5800 249.0000 1.0000
53.5900 273.0000 1.0000
53.6000 238.0000 1.0000
53.6100 276.0000 1.0000
53.6200 251.0000 1.0000
53.6300 246.0000 1.0000
53.6400 267.0000 1.0000
53.6500 283.0000 1.0000
53.6600 266.0000 1.0000
53.6700 272.0000 1.0000
53.6800 277.0000 1.0000
53.6900 248.0000 1.0000
53.7000 263.0000 1.0000
53.7100 243.0000 1.0000
53.7200 259.0000 1.0000
53.7300 259.0000 1.0000
53.7400 255.0000 1.0000
53.7500 269.0000 1.0000
53.7600 297.0000 1.0000
53.7700 290.0000 1.0000
53.7800 251.0000 1.0000
53.7900 260.0000 1.0000
53.8000 280.0000 1.0000
53.8100 255.0000 1.0000
53.8200 258.0000 1.0000
53.8300 244.0000 1.0000
53.8400 260.0000 1.0000
53.8500 283.0000 1.0000
53.8600 273.0000 1.0000
53.8700 278.0000 1.0000
53.8800 262.0000 1.0000
53.8900 275.0000 1.0000
53.9000 271.0000 1.0000
53.9100 270.0000 1.0000
53.9200 284.0000 1.0000
53.9300 262.0000 1.0000
53.9400 269.0000 1.0000
53.9500 271.0000 1.0000
53.9600 251.0000 1.0000
53.9700 265.0000 1.0000
53.9800 289.0000 1.0000
53.9900 316.0000 1.0000
54.0000 295.0000 1.0000
54.0100 304.0000 1.0000
54.0200 325.0000 1.0000
54.0300 286.0000 1.0000
54.0400 275.0000 1.0000
54.0500 262.0000 1.0000
54.0600 290.0000 1.0000
54.0700 293.0000 1.0000
54.0800 303.0000 1.0000
54.0900 302.0000 1.0000
54.1000 299.0000 1.0000
54.1100 255.0000 1.0000
54.1200 271.0000 1.0000
54.1300 287.0000 1.0000
54.1400 294.0000 1.0000
54.1500 315.0000 1.0000
54.1600 304.0000 1.0000
54.1700 286.0000 1.0000
54.1800 264.0000 1.0000
54.1900 273.0000 1.0000
54.2000 270.0000 1.0000
54.2100 288.0000 1.0000
54.2200 306.0000 1.0000
54.2300 292.0000 1.0000
54.2400 282.0000 1.0000
54.2500 272.0000 1.0000
54.2600 264.0000 1.0000
54.2700 273.0000 1.0000
54.2800 307.0000 1.0000
54.2900 266.0000 1.0000
54.3000 292.0000 1.0000
54.3100 283.0000 1.0000
54.3200 309.0000 1.0000
54.3300 305.0000 1.0000
54.3400 292.0000 1.0000
54.3500 285.0000 1.0000
54.3600 282.0000 1.0000
54.3700 297.0000 1.0000
54.3800 285.0000 1.0000
54.3900 279.0000 1.0000
54.4000 312.0000 1.0000
54.4100 328.0000 1.0000
54.4200 338.0000 1.0000
54.4300 319.0000 1.0000
54.4400 314.0000 1.0000
54.4500 314.0000 1.0000
54.4600 340.0000 1.0000
54.4700 337.0000 1.0000
54.4800 300.0000 1.0000
54.4900 305.0000 1.0000
54.5000 287.0000 1.0000
54.5100 309.0000 1.0000
54.5200 302.0000 1.0000
54.5300 322.0000 1.0000
54.5400 324.0000 1.0000
54.5500 272.0000 1.0000
54.5600 297.0000 1.0000
54.5700 335.0000 1.0000
54.5800 325.0000 1.0000
54.5900 316.0000 1.0000
54.6000 287.0000 1.0000
54.6100 342.0000 1.0000
54.6200 319.0000 1.0000
54.6300 299.0000 1.0000
54.6400 322.0000 1.0000
54.6500 331.0000 1.0000
54.6600 320.0000 1.0000
54.6700 280.0000 1.0000
54.6800 293.0000 1.0000
54.6900 304.0000 1.0000
54.7000 299.0000 1.0000
54.7100 275.0000 1.0000
54.7200 259.0000 1.0000
54.7300 265.0000 1.0000
54.7400 294.0000 1.0000
54.7500 273.0000 1.0000
54.7600 283.0000 1.0000
54.7700 288.0000 1.0000
54.7800 289.0000 1.0000
54.7900 293.0000 1.0000
54.8000 267.0000 1.0000
54.8100 306.0000 1.0000
54.8200 276.0000 1.0000
54.8300 275.0000 1.0000
54.8400 279.0000 1.0000
54.8500 263.0000 1.0000
54.8600 249.0000 1.0000
54.8700 254.0000 1.0000
54.8800 259.0000 1.0000
54.8900 272.0000 1.0000
54.9000 253.0000 1.0000
54.9100 255.0000 1.0000
54.9200 258.0000 1.0000
54.9300 261.0000 1.0000
54.9400 252.0000 1.0000
54.9500 256.0000 1.0000
54.9600 276.0000 1.0000
54.9700 247.0000 1.0000
54.9800 256.0000 1.0000
54.9900 256.0000 1.0000
55.0000 246.0000 1.0000
55.0100 264.0000 1.0000
55.0200 273.0000 1.0000
55.0300 282.0000 1.0000
55.0400 243.0000 1.0000
55.0500 277.0000 1.0000
55.0600 271.0000 1.0000
55.0700 252.0000 1.0000
55.0800 254.0000 1.0000
55.0900 256.0000 1.0000
55.1000 269.0000 1.0000
55.1100 265.0000 1.0000
55.1200 266.0000 1.0000
55.1300 283.0000 1.0000
55.1400 221.0000 1.0000
55.1500 234.0000 1.0000
55.1600 271.0000 1.0000
55.1700 265.0000 1.0000
55.1800 226.0000 1.0000
55.1900 246.0000 1.0000
55.2000 253.0000 1.0000
55.2100 254.0000 1.0000
55.2200 229.0000 1.0000
55.2300 237.0000 1.0000
55.2400 246.0000 1.0000
55.2500 237.0000 1.0000
55.2600 260.0000 1.0000
55.2700 254.0000 1.0000
55.2800 258.0000 1.0000
55.2900 263.0000 1.0000
55.3000 249.0000 1.0000
55.3100 253.0000 1.0000
55.3200 285.0000 1.0000
55.3300 250.0000 1.0000
55.3400 220.0000 1.0000
55.3500 211.0000 1.0000
55.3600 265.0000 1.0000
55.3700 237.0000 1.0000
55.3800 267.0000 1.0000
55.3900 269.0000 1.0000
55.4000 242.0000 1.0000
55.4100 221.0000 1.0000
55.4200 247.0000 1.0000
55.4300 260.0000 1.0000
55.4400 247.0000 1.0000
55.4500 241.0000 1.0000
55.4600 248.0000 1.0000
55.4700 243.0000 1.0000
55.4800 229.0000 1.0000
55.4900 264.0000 1.0000
55.5000 264.0000 1.0000
55.5100 246.0000 1.0000
55.5200 269.0000 1.0000
55.5300 258.0000 1.0000
55.5400 250.0000 1.0000
55.5500 247.0000 1.0000
55.5600 247.0000 1.0000
55.5700 243.0000 1.0000
55.5800 274.0000 1.0000
55.5900 246.0000 1.0000
55.6000 256.0000 1.0000
55.6100 270.0000 1.0000
55.6200 251.0000 1.0000
55.6300 254.0000 1.0000
55.6400 249.0000 1.0000
55.6500 231.0000 1.0000
55.6600 250.0000 1.0000
55.6700 239.0000 1.0000
55.6800 236.0000 1.0000
55.6900 261.0000 1.0000
55.7000 252.0000 1.0000
55.7100 251.0000 1.0000
55.7200 231.0000 1.0000
55.7300 267.0000 1.0000
55.7400 247.0000 1.0000
55.7500 236.0000 1.0000
55.7600 260.0000 1.0000
55.7700 234.0000 1.0000
55.7800 237.0000 1.0000
55.7900 247.0000 1.0000
55.8000 254.0000 1.0000
55.8100 254.0000 1.0000
55.8200 231.0000 1.0000
55.8300 250.0000 1.0000
55.8400 249.0000 1.0000
55.8500 243.0000 1.0000
55.8600 251.0000 1.0000
55.8700 267.0000 1.0000
55.8800 260.0000 1.0000
55.8900 273.0000 1.0000
55.9000 245.0000 1.0000
55.9100 231.0000 1.0000
55.9200 243.0000 1.0000
55.9300 240.0000 1.0000
55.9400 251.0000 1.0000
55.9500 257.0000 1.0000
55.9600 270.0000 1.0000
55.9700 254.0000 1.0000
55.9800 248.0000 1.0000
55.9900 237.0000 1.0000
56.0000 253.0000 1.0000
56.0100 242.0000 1.0000
56.0200 258.0000 1.0000
56.0300 244.0000 1.0000
56.0400 254.0000 1.0000
56.0500 255.0000 1.0000
56.0600 223.0000 1.0000
56.0700 269.0000 1.0000
56.0800 238.0000 1.0000
56.0900 254.0000 1.0000
56.1000 266.0000 1.0000
56.1100 258.0000 1.0000
56.1200 239.0000 1.0000
56.1300 234.0000 1.0000
56.1400 252.0000 1.0000
56.1500 236.0000 1.0000
56.1600 236.0000 1.0000
56.1700 210.0000 1.0000
56.1800 236.0000 1.0000
56.1900 239.0000 1.0000
56.2000 233.0000 1.0000
56.2100 257.0000 1.0000
56.2200 200.0000 1.0000
56.2300 252.0000 1.0000
56.2400 232.0000 1.0000
56.2500 259.0000 1.0000
56.2600 257.0000 1.0000
56.2700 236.0000 1.0000
56.2800 252.0000 1.0000
56.2900 255.0000 1.0000
56.3000 247.0000 1.0000
56.3100 244.0000 1.0000
56.3200 251.0000 1.0000
56.3300 261.0000 1.0000
56.3400 236.0000 1.0000
56.3500 231.0000 1.0000
56.3600 228.0000 1.0000
56.3700 215.0000 1.0000
56.3800 228.0000 1.0000
56.3900 219.0000 1.0000
56.4000 247.0000 1.0000
56.4100 244.0000 1.0000
56.4200 260.0000 1.0000
56.4300 259.0000 1.0000
56.4400 230.0000 1.0000
56.4500 270.0000 1.0000
56.4600 267.0000 1.0000
56.4700 259.0000 1.0000
56.4800 233.0000 1.0000
56.4900 262.0000 1.0000
56.5000 240.0000 1.0000
56.5100 243.0000 1.0000
56.5200 268.0000 1.0000
56.5300 227.0000 1.0000
56.5400 226.0000 1.0000
56.5500 255.0000 1.0000
56.5600 275.0000 1.0000
56.5700 263.0000 1.0000
56.5800 234.0000 1.0000
56.5900 227.0000 1.0000
56.6000 239.0000 1.0000
56.6100 237.0000 1.0000
56.6200 247.0000 1.0000
56.6300 251.0000 1.0000
56.6400 249.0000 1.0000
56.6500 246.0000 1.0000
56.6600 273.0000 1.0000
56.6700 231.0000 1.0000
56.6800 247.0000 1.0000
56.6900 225.0000 1.0000
56.7000 226.0000 1.0000
56.7100 241.0000 1.0000
56.7200 236.0000 1.0000
56.7300 240.0000 1.0000
56.7400 228.0000 1.0000
56.7500 234.0000 1.0000
56.7600 219.0000 1.0000
56.7700 236.0000 1.0000
56.7800 244.0000 1.0000
56.7900 237.0000 1.0000
56.8000 244.0000 1.0000
56.8100 265.0000 1.0000
56.8200 256.0000 1.0000
56.8300 256.0000 1.0000
56.8400 250.0000 1.0000
56.8500 255.0000 1.0000
56.8600 248.0000 1.0000
56.8700 235.0000 1.0000
56.8800 229.0000 1.0000
56.8900 255.0000 1.0000
56.9000 248.0000 1.0000
56.9100 231.0000 1.0000
56.9200 223.0000 1.0000
56.9300 266.0000 1.0000
56.9400 240.0000 1.0000
56.9500 227.0000 1.0000
56.9600 254.0000 1.0000
56.9700 264.0000 1.0000
56.9800 234.0000 1.0000
56.9900 219.0000 1.0000
57.0000 221.0000 1.0000
57.0100 241.0000 1.0000
57.0200 231.0000 1.0000
57.0300 214.0000 1.0000
57.0400 231.0000 1.0000
57.0500 247.0000 1.0000
57.0600 251.0000 1.0000
57.0700 226.0000 1.0000
57.0800 253.0000 1.0000
57.0900 229.0000 1.0000
57.1000 234.0000 1.0000
57.1100 223.0000 1.0000
57.1200 256.0000 1.0000
57.1300 250.0000 1.0000
57.1400 251.0000 1.0000
57.1500 244.0000 1.0000
57.1600 233.0000 1.0000
57.1700 235.0000 1.0000
57.1800 226.0000 1.0000
57.1900 241.0000 1.0000
57.2000 241.0000 1.0000
57.2100 230.0000 1.0000
57.2200 247.0000 1.0000
57.2300 247.0000 1.0000
57.2400 242.0000 1.0000
57.2500 273.0000 1.0000
57.2600 236.0000 1.0000
57.2700 254.0000 1.0000
57.2800 239.0000 1.0000
57.2900 253.0000 1.0000
57.3000 261.0000 1.0000
57.3100 264.0000 1.0000
57.3200 279.0000 1.0000
57.3300 252.0000 1.0000
57.3400 254.0000 1.0000
57.3500 260.0000 1.0000
57.3600 254.0000 1.0000
57.3700 255.0000 1.0000
57.3800 252.0000 1.0000
57.3900 228.0000 1.0000
57.4000 248.0000 1.0000
57.4100 269.0000 1.0000
57.4200 252.0000 1.0000
57.4300 258.0000 1.0000
57.4400 255.0000 1.0000
57.4500 260.0000 1.0000
57.4600 242.0000 1.0000
57.4700 271.0000 1.0000
57.4800 243.0000 1.0000
57.4900 244.0000 1.0000
57.5000 241.0000 1.0000
57.5100 261.0000 1.0000
57.5200 241.0000 1.0000
57.5300 241.0000 1.0000
57.5400 264.0000 1.0000
57.5500 229.0000 1.0000
57.5600 216.0000 1.0000
57.5700 257.0000 1.0000
57.5800 255.0000 1.0000
57.5900 238.0000 1.0000
57.6000 259.0000 1.0000
57.6100 255.0000 1.0000
57.6200 247.0000 1.0000
57.6300 247.0000 1.0000
57.6400 245.0000 1.0000
57.6500 235.0000 1.0000
57.6600 236.0000 1.0000
57.6700 244.0000 1.0000
57.6800 221.0000 1.0000
57.6900 246.0000 1.0000
57.7000 225.0000 1.0000
57.7100 250.0000 1.0000
57.7200 244.0000 1.0000
57.7300 241.0000 1.0000
57.7400 262.0000 1.0000
57.7500 243.0000 1.0000
57.7600 253.0000 1.0000
57.7700 254.0000 1.0000
57.7800 227.0000 1.0000
57.7900 247.0000 1.0000
57.8000 245.0000 1.0000
57.8100 245.0000 1.0000
57.8200 225.0000 1.0000
57.8300 247.0000 1.0000
57.8400 245.0000 1.0000
57.8500 262.0000 1.0000
57.8600 231.0000 1.0000
57.8700 238.0000 1.0000
57.8800 254.0000 1.0000
57.8900 217.0000 1.0000
57.9000 232.0000 1.0000
57.9100 235.0000 1.0000
57.9200 234.0000 1.0000
57.9300 234.0000 1.0000
57.9400 258.0000 1.0000
57.9500 242.0000 1.0000
57.9600 266.0000 1.0000
57.9700 241.0000 1.0000
57.9800 237.0000 1.0000
57.9900 263.0000 1.0000
58.0000 250.0000 1.0000
58.0100 232.0000 1.0000
58.0200 233.0000 1.0000
58.0300 261.0000 1.0000
58.0400 238.0000 1.0000
58.0500 246.0000 1.0000
58.0600 241.0000 1.0000
58.0700 232.0000 1.0000
58.0800 259.0000 1.0000
58.0900 221.0000 1.0000
58.1000 230.0000 1.0000
58.1100 230.0000 1.0000
58.1200 219.0000 1.0000
58.1300 234.0000 1.0000
58.1400 253.0000 1.0000
58.1500 255.0000 1.0000
58.1600 254.0000 1.0000
58.1700 245.0000 1.0000
58.1800 246.0000 1.0000
58.1900 233.0000 1.0000
58.2000 259.0000 1.0000
58.2100 216.0000 1.0000
58.2200 237.0000 1.0000
58.2300 247.0000 1.0000
58.2400 270.0000 1.0000
58.2500 248.0000 1.0000
58.2600 239.0000 1.0000
58.2700 221.0000 1.0000
58.2800 238.0000 1.0000
58.2900 242.0000 1.0000
58.3000 248.0000 1.0000
58.3100 246.0000 1.0000
58.3200 262.0000 1.0000
58.3300 259.0000 1.0000
58.3400 249.0000 1.0000
58.3500 249.0000 1.0000
58.3600 266.0000 1.0000
58.3700 245.0000 1.0000
58.3800 255.0000 1.0000
58.3900 250.0000 1.0000
58.4000 237.0000 1.0000
58.4100 256.0000 1.0000
58.4200 242.0000 1.0000
58.4300 244.0000 1.0000
58.4400 271.0000 1.0000
58.4500 260.0000 1.0000
58.4600 255.0000 1.0000
58.4700 237.0000 1.0000
58.4800 231.0000 1.0000
58.4900 250.0000 1.0000
58.5000 255.0000 1.0000
58.5100 231.0000 1.0000
58.5200 229.0000 1.0000
58.5300 249.0000 1.0000
58.5400 251.0000 1.0000
58.5500 251.0000 1.0000
58.5600 255.0000 1.0000
58.5700 230.0000 1.0000
58.5800 242.0000 1.0000
58.5900 253.0000 1.0000
58.6000 253.0000 1.0000
58.6100 239.0000 1.0000
58.6200 242.0000 1.0000
58.6300 244.0000 1.0000
58.6400 244.0000 1.0000
58.6500 254.0000 1.0000
58.6600 236.0000 1.0000
58.6700 247.0000 1.0000
58.6800 237.0000 1.0000
58.6900 241.0000 1.0000
58.7000 253.0000 1.0000
58.7100 235.0000 1.0000
58.7200 264.0000 1.0000
58.7300 263.0000 1.0000
58.7400 237.0000 1.0000
58.7500 221.0000 1.0000
58.7600 255.0000 1.0000
58.7700 246.0000 1.0000
58.7800 246.0000 1.0000
58.7900 241.0000 1.0000
58.8000 246.0000 1.0000
58.8100 243.0000 1.0000
58.8200 235.0000 1.0000
58.8300 223.0000 1.0000
58.8400 244.0000 1.0000
58.8500 250.0000 1.0000
58.8600 239.0000 1.0000
58.8700 222.0000 1.0000
58.8800 222.0000 1.0000
58.8900 232.0000 1.0000
58.9000 241.0000 1.0000
58.9100 220.0000 1.0000
58.9200 248.0000 1.0000
58.9300 247.0000 1.0000
58.9400 245.0000 1.0000
58.9500 261.0000 1.0000
58.9600 232.0000 1.0000
58.9700 242.0000 1.0000
58.9800 219.0000 1.0000
58.9900 265.0000 1.0000
59.0000 240.0000 1.0000
59.0100 245.0000 1.0000
59.0200 265.0000 1.0000
59.0300 240.0000 1.0000
59.0400 246.0000 1.0000
59.0500 238.0000 1.0000
59.0600 254.0000 1.0000
59.0700 237.0000 1.0000
59.0800 231.0000 1.0000
59.0900 223.0000 1.0000
59.1000 243.0000 1.0000
59.1100 232.0000 1.0000
59.1200 235.0000 1.0000
59.1300 253.0000 1.0000
59.1400 257.0000 1.0000
59.1500 263.0000 1.0000
59.1600 259.0000 1.0000
59.1700 247.0000 1.0000
59.1800 256.0000 1.0000
59.1900 229.0000 1.0000
59.2000 248.0000 1.0000
59.2100 235.0000 1.0000
59.2200 233.0000 1.0000
59.2300 251.0000 1.0000
59.2400 244.0000 1.0000
59.2500 223.0000 1.0000
59.2600 230.0000 1.0000
59.2700 245.0000 1.0000
59.2800 247.0000 1.0000
59.2900 210.0000 1.0000
59.3000 226.0000 1.0000
59.3100 246.0000 1.0000
59.3200 243.0000 1.0000
59.3300 237.0000 1.0000
59.3400 232.0000 1.0000
59.3500 249.0000 1.0000
59.3600 229.0000 1.0000
59.3700 232.0000 1.0000
59.3800 239.0000 1.0000
59.3900 252.0000 1.0000
59.4000 247.0000 1.0000
59.4100 234.0000 1.0000
59.4200 223.0000 1.0000
59.4300 249.0000 1.0000
59.4400 249.0000 1.0000
59.4500 272.0000 1.0000
59.4600 226.0000 1.0000
59.4700 229.0000 1.0000
59.4800 252.0000 1.0000
59.4900 223.0000 1.0000
59.5000 231.0000 1.0000
59.5100 242.0000 1.0000
59.5200 255.0000 1.0000
59.5300 237.0000 1.0000
59.5400 235.0000 1.0000
59.5500 239.0000 1.0000
59.5600 261.0000 1.0000
59.5700 267.0000 1.0000
59.5800 229.0000 1.0000
59.5900 263.0000 1.0000
59.6000 243.0000 1.0000
59.6100 246.0000 1.0000
59.6200 239.0000 1.0000
59.6300 215.0000 1.0000
59.6400 243.0000 1.0000
59.6500 236.0000 1.0000
59.6600 260.0000 1.0000
59.6700 238.0000 1.0000
59.6800 239.0000 1.0000
59.6900 252.0000 1.0000
59.7000 264.0000 1.0000
59.7100 245.0000 1.0000
59.7200 239.0000 1.0000
59.7300 231.0000 1.0000
59.7400 245.0000 1.0000
59.7500 232.0000 1.0000
59.7600 246.0000 1.0000
59.7700 240.0000 1.0000
59.7800 241.0000 1.0000
59.7900 245.0000 1.0000
59.8000 252.0000 1.0000
59.8100 239.0000 1.0000
59.8200 266.0000 1.0000
59.8300 254.0000 1.0000
59.8400 232.0000 1.0000
59.8500 237.0000 1.0000
59.8600 225.0000 1.0000
59.8700 252.0000 1.0000
59.8800 227.0000 1.0000
59.8900 241.0000 1.0000
59.9000 228.0000 1.0000
59.9100 232.0000 1.0000
59.9200 235.0000 1.0000
59.9300 250.0000 1.0000
59.9400 232.0000 1.0000
59.9500 212.0000 1.0000
59.9600 224.0000 1.0000
59.9700 243.0000 1.0000
59.9800 233.0000 1.0000
59.9900 236.0000 1.0000
60.0000 242.0000 1.0000
60.0100 236.0000 1.0000
60.0200 234.0000 1.0000
60.0300 269.0000 1.0000
60.0400 270.0000 1.0000
60.0500 231.0000 1.0000
60.0600 267.0000 1.0000
60.0700 230.0000 1.0000
60.0800 241.0000 1.0000
60.0900 230.0000 1.0000
60.1000 217.0000 1.0000
60.1100 256.0000 1.0000
60.1200 243.0000 1.0000
60.1300 257.0000 1.0000
60.1400 223.0000 1.0000
60.1500 239.0000 1.0000
60.1600 253.0000 1.0000
60.1700 241.0000 1.0000
60.1800 224.0000 1.0000
60.1900 227.0000 1.0000
60.2000 248.0000 1.0000
60.2100 233.0000 1.0000
60.2200 255.0000 1.0000
60.2300 252.0000 1.0000
60.2400 212.0000 1.0000
60.2500 254.0000 1.0000
60.2600 258.0000 1.0000
60.2700 234.0000 1.0000
60.2800 234.0000 1.0000
60.2900 251.0000 1.0000
60.3000 252.0000 1.0000
60.3100 236.0000 1.0000
60.3200 264.0000 1.0000
60.3300 246.0000 1.0000
60.3400 238.0000 1.0000
60.3500 233.0000 1.0000
60.3600 263.0000 1.0000
60.3700 242.0000 1.0000
60.3800 235.0000 1.0000
60.3900 244.0000 1.0000
60.4000 244.0000 1.0000
60.4100 255.0000 1.0000
60.4200 251.0000 1.0000
60.4300 267.0000 1.0000
60.4400 234.0000 1.0000
60.4500 253.0000 1.0000
60.4600 261.0000 1.0000
60.4700 244.0000 1.0000
60.4800 233.0000 1.0000
60.4900 227.0000 1.0000
60.5000 248.0000 1.0000
60.5100 254.0000 1.0000
60.5200 234.0000 1.0000
60.5300 231.0000 1.0000
60.5400 218.0000 1.0000
60.5500 244.0000 1.0000
60.5600 239.0000 1.0000
60.5700 262.0000 1.0000
60.5800 238.0000 1.0000
60.5900 257.0000 1.0000
60.6000 238.0000 1.0000
60.6100 246.0000 1.0000
60.6200 262.0000 1.0000
60.6300 245.0000 1.0000
60.6400 235.0000 1.0000
60.6500 274.0000 1.0000
60.6600 233.0000 1.0000
60.6700 248.0000 1.0000
60.6800 243.0000 1.0000
60.6900 256.0000 1.0000
60.7000 258.0000 1.0000
60.7100 260.0000 1.0000
60.7200 231.0000 1.0000
60.7300 273.0000 1.0000
60.7400 263.0000 1.0000
60.7500 257.0000 1.0000
60.7600 266.0000 1.0000
60.7700 284.0000 1.0000
60.7800 265.0000 1.0000
60.7900 240.0000 1.0000
60.8000 272.0000 1.0000
60.8100 289.0000 1.0000
60.8200 260.0000 1.0000
60.8300 231.0000 1.0000
60.8400 251.0000 1.0000
60.8500 257.0000 1.0000
60.8600 248.0000 1.0000
60.8700 244.0000 1.0000
60.8800 235.0000 1.0000
60.8900 252.0000 1.0000
60.9000 253.0000 1.0000
60.9100 239.0000 1.0000
60.9200 263.0000 1.0000
60.9300 276.0000 1.0000
60.9400 306.0000 1.0000
60.9500 286.0000 1.0000
60.9600 246.0000 1.0000
60.9700 241.0000 1.0000
60.9800 267.0000 1.0000
60.9900 259.0000 1.0000
61.0000 278.0000 1.0000
61.0100 261.0000 1.0000
61.0200 277.0000 1.0000
61.0300 275.0000 1.0000
61.0400 268.0000 1.0000
61.0500 274.0000 1.0000
61.0600 272.0000 1.0000
61.0700 293.0000 1.0000
61.0800 288.0000 1.0000
61.0900 280.0000 1.0000
61.1000 290.0000 1.0000
61.1100 287.0000 1.0000
61.1200 287.0000 1.0000
61.1300 258.0000 1.0000
61.1400 276.0000 1.0000
61.1500 312.0000 1.0000
61.1600 322.0000 1.0000
61.1700 300.0000 1.0000
61.1800 306.0000 1.0000
61.1900 298.0000 1.0000
61.2000 300.0000 1.0000
61.2100 325.0000 1.0000
61.2200 327.0000 1.0000
61.2300 324.0000 1.0000
61.2400 334.0000 1.0000
61.2500 312.0000 1.0000
61.2600 328.0000 1.0000
61.2700 326.0000 1.0000
61.2800 330.0000 1.0000
61.2900 344.0000 1.0000
61.3000 359.0000 1.0000
61.3100 351.0000 1.0000
61.3200 370.0000 1.0000
61.3300 369.0000 1.0000
61.3400 379.0000 1.0000
61.3500 377.0000 1.0000
61.3600 385.0000 1.0000
61.3700 413.0000 1.0000
61.3800 422.0000 1.0000
61.3900 414.0000 1.0000
61.4000 420.0000 1.0000
61.4100 428.0000 1.0000
61.4200 445.0000 1.0000
61.4300 449.0000 1.0000
61.4400 464.0000 1.0000
61.4500 494.0000 1.0000
61.4600 449.0000 1.0000
61.4700 472.0000 1.0000
61.4800 469.0000 1.0000
61.4900 474.0000 1.0000
61.5000 535.0000 1.0000
61.5100 511.0000 1.0000
61.5200 454.0000 1.0000
61.5300 490.0000 1.0000
61.5400 514.0000 1.0000
61.5500 505.0000 1.0000
61.5600 534.0000 1.0000
61.5700 501.0000 1.0000
61.5800 522.0000 1.0000
61.5900 554.0000 1.0000
61.6000 522.0000 1.0000
61.6100 515.0000 1.0000
61.6200 540.0000 1.0000
61.6300 520.0000 1.0000
61.6400 511.0000 1.0000
61.6500 501.0000 1.0000
61.6600 508.0000 1.0000
61.6700 533.0000 1.0000
61.6800 513.0000 1.0000
61.6900 489.0000 1.0000
61.7000 478.0000 1.0000
61.7100 487.0000 1.0000
61.7200 478.0000 1.0000
61.7300 448.0000 1.0000
61.7400 484.0000 1.0000
61.7500 453.0000 1.0000
61.7600 453.0000 1.0000
61.7700 461.0000 1.0000
61.7800 460.0000 1.0000
61.7900 419.0000 1.0000
61.8000 425.0000 1.0000
61.8100 397.0000 1.0000
61.8200 392.0000 1.0000
61.8300 403.0000 1.0000
61.8400 394.0000 1.0000
61.8500 394.0000 1.0000
61.8600 399.0000 1.0000
61.8700 377.0000 1.0000
61.8800 387.0000 1.0000
61.8900 358.0000 1.0000
61.9000 350.0000 1.0000
61.9100 343.0000 1.0000
61.9200 327.0000 1.0000
61.9300 355.0000 1.0000
61.9400 306.0000 1.0000
61.9500 340.0000 1.0000
61.9600 327.0000 1.0000
61.9700 346.0000 1.0000
61.9800 327.0000 1.0000
61.9900 314.0000 1.0000
62.0000 306.0000 1.0000
62.0100 311.0000 1.0000
62.0200 333.0000 1.0000
62.0300 330.0000 1.0000
62.0400 346.0000 1.0000
62.0500 308.0000 1.0000
62.0600 293.0000 1.0000
62.0700 305.0000 1.0000
62.0800 300.0000 1.0000
62.0900 290.0000 1.0000
62.1000 287.0000 1.0000
62.1100 294.0000 1.0000
62.1200 281.0000 1.0000
62.1300 278.0000 1.0000
62.1400 256.0000 1.0000
62.1500 290.0000 1.0000
62.1600 273.0000 1.0000
62.1700 297.0000 1.0000
62.1800 283.0000 1.0000
62.1900 290.0000 1.0000
62.2000 298.0000 1.0000
62.2100 292.0000 1.0000
62.2200 293.0000 1.0000
62.2300 282.0000 1.0000
62.2400 276.0000 1.0000
62.2500 295.0000 1.0000
62.2600 279.0000 1.0000
62.2700 293.0000 1.0000
62.2800 310.0000 1.0000
62.2900 285.0000 1.0000
62.3000 282.0000 1.0000
62.3100 324.0000 1.0000
62.3200 277.0000 1.0000
62.3300 321.0000 1.0000
62.3400 297.0000 1.0000
62.3500 281.0000 1.0000
62.3600 312.0000 1.0000
62.3700 288.0000 1.0000
62.3800 298.0000 1.0000
62.3900 299.0000 1.0000
62.4000 311.0000 1.0000
62.4100 312.0000 1.0000
62.4200 292.0000 1.0000
62.4300 296.0000 1.0000
62.4400 295.0000 1.0000
62.4500 284.0000 1.0000
62.4600 298.0000 1.0000
62.4700 273.0000 1.0000
62.4800 260.0000 1.0000
62.4900 288.0000 1.0000
62.5000 281.0000 1.0000
62.5100 308.0000 1.0000
62.5200 304.0000 1.0000
62.5300 284.0000 1.0000
62.5400 276.0000 1.0000
62.5500 303.0000 1.0000
62.5600 309.0000 1.0000
62.5700 279.0000 1.0000
62.5800 268.0000 1.0000
62.5900 259.0000 1.0000
62.6000 264.0000 1.0000
62.6100 269.0000 1.0000
62.6200 308.0000 1.0000
62.6300 277.0000 1.0000
62.6400 255.0000 1.0000
62.6500 274.0000 1.0000
62.6600 247.0000 1.0000
62.6700 250.0000 1.0000
62.6800 242.0000 1.0000
62.6900 271.0000 1.0000
62.7000 239.0000 1.0000
62.7100 286.0000 1.0000
62.7200 254.0000 1.0000
62.7300 263.0000 1.0000
62.7400 237.0000 1.0000
62.7500 263.0000 1.0000
62.7600 269.0000 1.0000
62.7700 236.0000 1.0000
62.7800 266.0000 1.0000
62.7900 253.0000 1.0000
62.8000 251.0000 1.0000
62.8100 249.0000 1.0000
62.8200 262.0000 1.0000
62.8300 250.0000 1.0000
62.8400 235.0000 1.0000
62.8500 246.0000 1.0000
62.8600 253.0000 1.0000
62.8700 230.0000 1.0000
62.8800 262.0000 1.0000
62.8900 236.0000 1.0000
62.9000 243.0000 1.0000
62.9100 236.0000 1.0000
62.9200 229.0000 1.0000
62.9300 228.0000 1.0000
62.9400 263.0000 1.0000
62.9500 237.0000 1.0000
62.9600 233.0000 1.0000
62.9700 229.0000 1.0000
62.9800 275.0000 1.0000
62.9900 248.0000 1.0000
63.0000 236.0000 1.0000
63.0100 250.0000 1.0000
63.0200 222.0000 1.0000
63.0300 265.0000 1.0000
63.0400 250.0000 1.0000
63.0500 255.0000 1.0000
63.0600 247.0000 1.0000
63.0700 251.0000 1.0000
63.0800 256.0000 1.0000
63.0900 233.0000 1.0000
63.1000 265.0000 1.0000
63.1100 250.0000 1.0000
63.1200 221.0000 1.0000
63.1300 250.0000 1.0000
63.1400 256.0000 1.0000
63.1500 238.0000 1.0000
63.1600 236.0000 1.0000
63.1700 252.0000 1.0000
63.1800 247.0000 1.0000
63.1900 248.0000 1.0000
63.2000 227.0000 1.0000
63.2100 234.0000 1.0000
63.2200 228.0000 1.0000
63.2300 245.0000 1.0000
63.2400 246.0000 1.0000
63.2500 239.0000 1.0000
63.2600 265.0000 1.0000
63.2700 232.0000 1.0000
63.2800 244.0000 1.0000
63.2900 248.0000 1.0000
63.3000 236.0000 1.0000
63.3100 260.0000 1.0000
63.3200 233.0000 1.0000
63.3300 232.0000 1.0000
63.3400 236.0000 1.0000
63.3500 243.0000 1.0000
63.3600 244.0000 1.0000
63.3700 247.0000 1.0000
63.3800 243.0000 1.0000
63.3900 249.0000 1.0000
63.4000 231.0000 1.0000
63.4100 243.0000 1.0000
63.4200 274.0000 1.0000
63.4300 248.0000 1.0000
63.4400 250.0000 1.0000
63.4500 236.0000 1.0000
63.4600 229.0000 1.0000
63.4700 247.0000 1.0000
63.4800 266.0000 1.0000
63.4900 270.0000 1.0000
63.5000 243.0000 1.0000
63.5100 240.0000 1.0000
63.5200 239.0000 1.0000
63.5300 245.0000 1.0000
63.5400 251.0000 1.0000
63.5500 273.0000 1.0000
63.5600 238.0000 1.0000
63.5700 252.0000 1.0000
63.5800 251.0000 1.0000
63.5900 272.0000 1.0000
63.6000 250.0000 1.0000
63.6100 244.0000 1.0000
63.6200 266.0000 1.0000
63.6300 266.0000 1.0000
63.6400 261.0000 1.0000
63.6500 248.0000 1.0000
63.6600 270.0000 1.0000
63.6700 237.0000 1.0000
63.6800 246.0000 1.0000
63.6900 259.0000 1.0000
63.7000 251.0000 1.0000
63.7100 281.0000 1.0000
63.7200 259.0000 1.0000
63.7300 266.0000 1.0000
63.7400 254.0000 1.0000
63.7500 271.0000 1.0000
63.7600 239.0000 1.0000
63.7700 262.0000 1.0000
63.7800 243.0000 1.0000
63.7900 276.0000 1.0000
63.8000 265.0000 1.0000
63.8100 265.0000 1.0000
63.8200 283.0000 1.0000
63.8300 291.0000 1.0000
63.8400 290.0000 1.0000
63.8500 233.0000 1.0000
63.8600 261.0000 1.0000
63.8700 289.0000 1.0000
63.8800 303.0000 1.0000
63.8900 303.0000 1.0000
63.9000 285.0000 1.0000
63.9100 269.0000 1.0000
63.9200 294.0000 1.0000
63.9300 281.0000 1.0000
63.9400 273.0000 1.0000
63.9500 292.0000 1.0000
63.9600 264.0000 1.0000
63.9700 300.0000 1.0000
63.9800 293.0000 1.0000
63.9900 305.0000 1.0000
64.0000 284.0000 1.0000
64.0100 295.0000 1.0000
64.0200 293.0000 1.0000
64.0300 261.0000 1.0000
64.0400 311.0000 1.0000
64.0500 307.0000 1.0000
64.0600 295.0000 1.0000
64.0700 286.0000 1.0000
64.0800 307.0000 1.0000
64.0900 302.0000 1.0000
64.1000 298.0000 1.0000
64.1100 275.0000 1.0000
64.1200 306.0000 1.0000
64.1300 257.0000 1.0000
64.1400 287.0000 1.0000
64.1500 285.0000 1.0000
64.1600 286.0000 1.0000
64.1700 247.0000 1.0000
64.1800 298.0000 1.0000
64.1900 265.0000 1.0000
64.2000 251.0000 1.0000
64.2100 271.0000 1.0000
64.2200 270.0000 1.0000
64.2300 273.0000 1.0000
64.2400 260.0000 1.0000
64.2500 280.0000 1.0000
64.2600 270.0000 1.0000
64.2700 283.0000 1.0000
64.2800 270.0000 1.0000
64.2900 272.0000 1.0000
64.3000 275.0000 1.0000
64.3100 270.0000 1.0000
64.3200 245.0000 1.0000
64.3300 259.0000 1.0000
64.3400 286.0000 1.0000
64.3500 253.0000 1.0000
64.3600 258.0000 1.0000
64.3700 250.0000 1.0000
64.3800 268.0000 1.0000
64.3900 232.0000 1.0000
64.4000 247.0000 1.0000
64.4100 257.0000 1.0000
64.4200 265.0000 1.0000
64.4300 249.0000 1.0000
64.4400 248.0000 1.0000
64.4500 265.0000 1.0000
64.4600 239.0000 1.0000
64.4700 267.0000 1.0000
64.4800 257.0000 1.0000
64.4900 263.0000 1.0000
64.5000 265.0000 1.0000
64.5100 243.0000 1.0000
64.5200 253.0000 1.0000
64.5300 255.0000 1.0000
64.5400 248.0000 1.0000
64.5500 240.0000 1.0000
64.5600 224.0000 1.0000
64.5700 273.0000 1.0000
64.5800 278.0000 1.0000
64.5900 240.0000 1.0000
64.6000 252.0000 1.0000
64.6100 246.0000 1.0000
64.6200 263.0000 1.0000
64.6300 273.0000 1.0000
64.6400 262.0000 1.0000
64.6500 270.0000 1.0000
64.6600 257.0000 1.0000
64.6700 251.0000 1.0000
64.6800 235.0000 1.0000
64.6900 254.0000 1.0000
64.7000 245.0000 1.0000
64.7100 237.0000 1.0000
64.7200 237.0000 1.0000
64.7300 256.0000 1.0000
64.7400 247.0000 1.0000
64.7500 249.0000 1.0000
64.7600 251.0000 1.0000
64.7700 258.0000 1.0000
64.7800 238.0000 1.0000
64.7900 228.0000 1.0000
64.8000 225.0000 1.0000
64.8100 230.0000 1.0000
64.8200 290.0000 1.0000
64.8300 264.0000 1.0000
64.8400 264.0000 1.0000
64.8500 263.0000 1.0000
64.8600 272.0000 1.0000
64.8700 284.0000 1.0000
64.8800 275.0000 1.0000
64.8900 266.0000 1.0000
64.9000 245.0000 1.0000
64.9100 269.0000 1.0000
64.9200 250.0000 1.0000
64.9300 294.0000 1.0000
64.9400 282.0000 1.0000
64.9500 264.0000 1.0000
64.9600 289.0000 1.0000
64.9700 280.0000 1.0000
64.9800 279.0000 1.0000
64.9900 301.0000 1.0000
65.0000 283.0000 1.0000
65.0100 285.0000 1.0000
65.0200 283.0000 1.0000
65.0300 271.0000 1.0000
65.0400 285.0000 1.0000
65.0500 302.0000 1.0000
65.0600 286.0000 1.0000
65.0700 281.0000 1.0000
65.0800 327.0000 1.0000
65.0900 307.0000 1.0000
65.1000 288.0000 1.0000
65.1100 307.0000 1.0000
65.1200 286.0000 1.0000
65.1300 264.0000 1.0000
65.1400 297.0000 1.0000
65.1500 312.0000 1.0000
65.1600 322.0000 1.0000
65.1700 324.0000 1.0000
65.1800 343.0000 1.0000
65.1900 342.0000 1.0000
65.2000 343.0000 1.0000
65.2100 331.0000 1.0000
65.2200 349.0000 1.0000
65.2300 374.0000 1.0000
65.2400 379.0000 1.0000
65.2500 407.0000 1.0000
65.2600 391.0000 1.0000
65.2700 394.0000 1.0000
65.2800 376.0000 1.0000
65.2900 414.0000 1.0000
65.3000 426.0000 1.0000
65.3100 450.0000 1.0000
65.3200 432.0000 1.0000
65.3300 487.0000 1.0000
65.3400 506.0000 1.0000
65.3500 531.0000 1.0000
65.3600 528.0000 1.0000
65.3700 522.0000 1.0000
65.3800 552.0000 1.0000
65.3900 598.0000 1.0000
65.4000 589.0000 1.0000
65.4100 634.0000 1.0000
65.4200 635.0000 1.0000
65.4300 710.0000 1.0000
65.4400 704.0000 1.0000
65.4500 741.0000 1.0000
65.4600 762.0000 1.0000
65.4700 786.0000 1.0000
65.4800 746.0000 1.0000
65.4900 812.0000 1.0000
65.5000 803.0000 1.0000
65.5100 745.0000 1.0000
65.5200 790.0000 1.0000
65.5300 790.0000 1.0000
65.5400 742.0000 1.0000
65.5500 726.0000 1.0000
65.5600 758.0000 1.0000
65.5700 767.0000 1.0000
65.5800 725.0000 1.0000
65.5900 693.0000 1.0000
65.6000 684.0000 1.0000
65.6100 677.0000 1.0000
65.6200 652.0000 1.0000
65.6300 682.0000 1.0000
65.6400 654.0000 1.0000
65.6500 612.0000 1.0000
65.6600 653.0000 1.0000
65.6700 660.0000 1.0000
65.6800 667.0000 1.0000
65.6900 629.0000 1.0000
65.7000 607.0000 1.0000
65.7100 561.0000 1.0000
65.7200 574.0000 1.0000
65.7300 539.0000 1.0000
65.7400 524.0000 1.0000
65.7500 523.0000 1.0000
65.7600 494.0000 1.0000
65.7700 465.0000 1.0000
65.7800 449.0000 1.0000
65.7900 458.0000 1.0000
65.8000 440.0000 1.0000
65.8100 436.0000 1.0000
65.8200 418.0000 1.0000
65.8300 386.0000 1.0000
65.8400 397.0000 1.0000
65.8500 362.0000 1.0000
65.8600 377.0000 1.0000
65.8700 346.0000 1.0000
65.8800 365.0000 1.0000
65.8900 359.0000 1.0000
65.9000 348.0000 1.0000
65.9100 313.0000 1.0000
65.9200 297.0000 1.0000
65.9300 299.0000 1.0000
65.9400 306.0000 1.0000
65.9500 306.0000 1.0000
65.9600 309.0000 1.0000
65.9700 306.0000 1.0000
65.9800 308.0000 1.0000
65.9900 291.0000 1.0000
66.0000 306.0000 1.0000
66.0100 317.0000 1.0000
66.0200 277.0000 1.0000
66.0300 288.0000 1.0000
66.0400 276.0000 1.0000
66.0500 312.0000 1.0000
66.0600 284.0000 1.0000
66.0700 268.0000 1.0000
66.0800 292.0000 1.0000
66.0900 290.0000 1.0000
66.1000 290.0000 1.0000
66.1100 278.0000 1.0000
66.1200 238.0000 1.0000
66.1300 275.0000 1.0000
66.1400 247.0000 1.0000
66.1500 270.0000 1.0000
66.1600 250.0000 1.0000
66.1700 256.0000 1.0000
66.1800 259.0000 1.0000
66.1900 257.0000 1.0000
66.2000 240.0000 1.0000
66.2100 234.0000 1.0000
66.2200 233.0000 1.0000
66.2300 253.0000 1.0000
66.2400 246.0000 1.0000
66.2500 235.0000 1.0000
66.2600 253.0000 1.0000
66.2700 259.0000 1.0000
66.2800 229.0000 1.0000
66.2900 253.0000 1.0000
66.3000 246.0000 1.0000
66.3100 267.0000 1.0000
66.3200 261.0000 1.0000
66.3300 232.0000 1.0000
66.3400 239.0000 1.0000
66.3500 258.0000 1.0000
66.3600 232.0000 1.0000
66.3700 243.0000 1.0000
66.3800 235.0000 1.0000
66.3900 254.0000 1.0000
66.4000 251.0000 1.0000
66.4100 229.0000 1.0000
66.4200 243.0000 1.0000
66.4300 238.0000 1.0000
66.4400 255.0000 1.0000
66.4500 229.0000 1.0000
66.4600 231.0000 1.0000
66.4700 218.0000 1.0000
66.4800 225.0000 1.0000
66.4900 243.0000 1.0000
66.5000 244.0000 1.0000
66.5100 241.0000 1.0000
66.5200 228.0000 1.0000
66.5300 246.0000 1.0000
66.5400 244.0000 1.0000
66.5500 229.0000 1.0000
66.5600 253.0000 1.0000
66.5700 225.0000 1.0000
66.5800 218.0000 1.0000
66.5900 228.0000 1.0000
66.6000 240.0000 1.0000
66.6100 217.0000 1.0000
66.6200 249.0000 1.0000
66.6300 228.0000 1.0000
66.6400 237.0000 1.0000
66.6500 212.0000 1.0000
66.6600 213.0000 1.0000
66.6700 224.0000 1.0000
66.6800 239.0000 1.0000
66.6900 234.0000 1.0000
66.7000 224.0000 1.0000
66.7100 215.0000 1.0000
66.7200 220.0000 1.0000
66.7300 211.0000 1.0000
66.7400 211.0000 1.0000
66.7500 242.0000 1.0000
66.7600 230.0000 1.0000
66.7700 215.0000 1.0000
66.7800 232.0000 1.0000
66.7900 217.0000 1.0000
66.8000 239.0000 1.0000
66.8100 231.0000 1.0000
66.8200 221.0000 1.0000
66.8300 240.0000 1.0000
66.8400 240.0000 1.0000
66.8500 236.0000 1.0000
66.8600 234.0000 1.0000
66.8700 213.0000 1.0000
66.8800 210.0000 1.0000
66.8900 223.0000 1.0000
66.9000 216.0000 1.0000
66.9100 220.0000 1.0000
66.9200 223.0000 1.0000
66.9300 230.0000 1.0000
66.9400 257.0000 1.0000
66.9500 255.0000 1.0000
66.9600 227.0000 1.0000
66.9700 249.0000 1.0000
66.9800 200.0000 1.0000
66.9900 209.0000 1.0000
67.0000 225.0000 1.0000
67.0100 220.0000 1.0000
67.0200 207.0000 1.0000
67.0300 223.0000 1.0000
67.0400 209.0000 1.0000
67.0500 219.0000 1.0000
67.0600 212.0000 1.0000
67.0700 238.0000 1.0000
67.0800 251.0000 1.0000
67.0900 252.0000 1.0000
67.1000 216.0000 1.0000
67.1100 240.0000 1.0000
67.1200 227.0000 1.0000
67.1300 256.0000 1.0000
67.1400 223.0000 1.0000
67.1500 240.0000 1.0000
67.1600 230.0000 1.0000
67.1700 219.0000 1.0000
67.1800 212.0000 1.0000
67.1900 221.0000 1.0000
67.2000 218.0000 1.0000
67.2100 242.0000 1.0000
67.2200 218.0000 1.0000
67.2300 244.0000 1.0000
67.2400 221.0000 1.0000
67.2500 214.0000 1.0000
67.2600 213.0000 1.0000
67.2700 218.0000 1.0000
67.2800 216.0000 1.0000
67.2900 220.0000 1.0000
67.3000 234.0000 1.0000
67.3100 223.0000 1.0000
67.3200 234.0000 1.0000
67.3300 223.0000 1.0000
67.3400 215.0000 1.0000
67.3500 219.0000 1.0000
67.3600 227.0000 1.0000
67.3700 217.0000 1.0000
67.3800 226.0000 1.0000
67.3900 226.0000 1.0000
67.4000 226.0000 1.0000
67.4100 215.0000 1.0000
67.4200 234.0000 1.0000
67.4300 230.0000 1.0000
67.4400 242.0000 1.0000
67.4500 205.0000 1.0000
67.4600 230.0000 1.0000
67.4700 220.0000 1.0000
67.4800 209.0000 1.0000
67.4900 214.0000 1.0000
67.5000 226.0000 1.0000
67.5100 231.0000 1.0000
67.5200 245.0000 1.0000
67.5300 230.0000 1.0000
67.5400 219.0000 1.0000
67.5500 210.0000 1.0000
67.5600 239.0000 1.0000
67.5700 214.0000 1.0000
67.5800 226.0000 1.0000
67.5900 196.0000 1.0000
67.6000 208.0000 1.0000
67.6100 215.0000 1.0000
67.6200 225.0000 1.0000
67.6300 216.0000 1.0000
67.6400 222.0000 1.0000
67.6500 211.0000 1.0000
67.6600 210.0000 1.0000
67.6700 195.0000 1.0000
67.6800 223.0000 1.0000
67.6900 212.0000 1.0000
67.7000 232.0000 1.0000
67.7100 230.0000 1.0000
67.7200 223.0000 1.0000
67.7300 211.0000 1.0000
67.7400 225.0000 1.0000
67.7500 232.0000 1.0000
67.7600 238.0000 1.0000
67.7700 222.0000 1.0000
67.7800 215.0000 1.0000
67.7900 220.0000 1.0000
67.8000 228.0000 1.0000
67.8100 225.0000 1.0000
67.8200 221.0000 1.0000
67.8300 217.0000 1.0000
67.8400 226.0000 1.0000
67.8500 219.0000 1.0000
67.8600 215.0000 1.0000
67.8700 230.0000 1.0000
67.8800 222.0000 1.0000
67.8900 194.0000 1.0000
67.9000 218.0000 1.0000
67.9100 219.0000 1.0000
67.9200 231.0000 1.0000
67.9300 211.0000 1.0000
67.9400 215.0000 1.0000
67.9500 240.0000 1.0000
67.9600 215.0000 1.0000
67.9700 201.0000 1.0000
67.9800 224.0000 1.0000
67.9900 207.0000 1.0000
68.0000 206.0000 1.0000
68.0100 226.0000 1.0000
68.0200 202.0000 1.0000
68.0300 219.0000 1.0000
68.0400 206.0000 1.0000
68.0500 229.0000 1.0000
68.0600 207.0000 1.0000
68.0700 222.0000 1.0000
68.0800 208.0000 1.0000
68.0900 213.0000 1.0000
68.1000 219.0000 1.0000
68.1100 218.0000 1.0000
68.1200 206.0000 1.0000
68.1300 230.0000 1.0000
68.1400 222.0000 1.0000
68.1500 209.0000 1.0000
68.1600 215.0000 1.0000
68.1700 211.0000 1.0000
68.1800 224.0000 1.0000
68.1900 203.0000 1.0000
68.2000 215.0000 1.0000
68.2100 234.0000 1.0000
68.2200 205.0000 1.0000
68.2300 209.0000 1.0000
68.2400 208.0000 1.0000
68.2500 191.0000 1.0000
68.2600 199.0000 1.0000
68.2700 210.0000 1.0000
68.2800 222.0000 1.0000
68.2900 209.0000 1.0000
68.3000 208.0000 1.0000
68.3100 203.0000 1.0000
68.3200 222.0000 1.0000
68.3300 232.0000 1.0000
68.3400 210.0000 1.0000
68.3500 232.0000 1.0000
68.3600 216.0000 1.0000
68.3700 213.0000 1.0000
68.3800 199.0000 1.0000
68.3900 223.0000 1.0000
68.4000 219.0000 1.0000
68.4100 214.0000 1.0000
68.4200 201.0000 1.0000
68.4300 205.0000 1.0000
68.4400 225.0000 1.0000
68.4500 220.0000 1.0000
68.4600 221.0000 1.0000
68.4700 210.0000 1.0000
68.4800 217.0000 1.0000
68.4900 248.0000 1.0000
68.5000 218.0000 1.0000
68.5100 202.0000 1.0000
68.5200 201.0000 1.0000
68.5300 203.0000 1.0000
68.5400 211.0000 1.0000
68.5500 192.0000 1.0000
68.5600 204.0000 1.0000
68.5700 226.0000 1.0000
68.5800 205.0000 1.0000
68.5900 201.0000 1.0000
68.6000 221.0000 1.0000
68.6100 224.0000 1.0000
68.6200 199.0000 1.0000
68.6300 192.0000 1.0000
68.6400 221.0000 1.0000
68.6500 232.0000 1.0000
68.6600 187.0000 1.0000
68.6700 204.0000 1.0000
68.6800 205.0000 1.0000
68.6900 212.0000 1.0000
68.7000 209.0000 1.0000
68.7100 208.0000 1.0000
68.7200 205.0000 1.0000
68.7300 202.0000 1.0000
68.7400 203.0000 1.0000
68.7500 212.0000 1.0000
68.7600 212.0000 1.0000
68.7700 222.0000 1.0000
68.7800 194.0000 1.0000
68.7900 209.0000 1.0000
68.8000 207.0000 1.0000
68.8100 212.0000 1.0000
68.8200 227.0000 1.0000
68.8300 188.0000 1.0000
68.8400 189.0000 1.0000
68.8500 185.0000 1.0000
68.8600 216.0000 1.0000
68.8700 218.0000 1.0000
68.8800 214.0000 1.0000
68.8900 198.0000 1.0000
68.9000 177.0000 1.0000
68.9100 218.0000 1.0000
68.9200 233.0000 1.0000
68.9300 213.0000 1.0000
68.9400 210.0000 1.0000
68.9500 213.0000 1.0000
68.9600 216.0000 1.0000
68.9700 232.0000 1.0000
68.9800 235.0000 1.0000
68.9900 212.0000 1.0000
69.0000 223.0000 1.0000
69.0100 197.0000 1.0000
69.0200 231.0000 1.0000
69.0300 212.0000 1.0000
69.0400 208.0000 1.0000
69.0500 209.0000 1.0000
69.0600 212.0000 1.0000
69.0700 211.0000 1.0000
69.0800 232.0000 1.0000
69.0900 234.0000 1.0000
69.1000 201.0000 1.0000
69.1100 203.0000 1.0000
69.1200 197.0000 1.0000
69.1300 202.0000 1.0000
69.1400 200.0000 1.0000
69.1500 207.0000 1.0000
69.1600 208.0000 1.0000
69.1700 202.0000 1.0000
69.1800 212.0000 1.0000
69.1900 217.0000 1.0000
69.2000 202.0000 1.0000
69.2100 219.0000 1.0000
69.2200 211.0000 1.0000
69.2300 209.0000 1.0000
69.2400 214.0000 1.0000
69.2500 211.0000 1.0000
69.2600 231.0000 1.0000
69.2700 213.0000 1.0000
69.2800 224.0000 1.0000
69.2900 210.0000 1.0000
69.3000 206.0000 1.0000
69.3100 236.0000 1.0000
69.3200 218.0000 1.0000
69.3300 195.0000 1.0000
69.3400 221.0000 1.0000
69.3500 184.0000 1.0000
69.3600 202.0000 1.0000
69.3700 217.0000 1.0000
69.3800 229.0000 1.0000
69.3900 220.0000 1.0000
69.4000 199.0000 1.0000
69.4100 212.0000 1.0000
69.4200 198.0000 1.0000
69.4300 177.0000 1.0000
69.4400 196.0000 1.0000
69.4500 214.0000 1.0000
69.4600 208.0000 1.0000
69.4700 173.0000 1.0000
69.4800 192.0000 1.0000
69.4900 184.0000 1.0000
69.5000 198.0000 1.0000
69.5100 207.0000 1.0000
69.5200 191.0000 1.0000
69.5300 226.0000 1.0000
69.5400 227.0000 1.0000
69.5500 226.0000 1.0000
69.5600 222.0000 1.0000
69.5700 220.0000 1.0000
69.5800 221.0000 1.0000
69.5900 215.0000 1.0000
69.6000 194.0000 1.0000
69.6100 202.0000 1.0000
69.6200 211.0000 1.0000
69.6300 216.0000 1.0000
69.6400 223.0000 1.0000
69.6500 206.0000 1.0000
69.6600 203.0000 1.0000
69.6700 181.0000 1.0000
69.6800 210.0000 1.0000
69.6900 211.0000 1.0000
69.7000 220.0000 1.0000
69.7100 219.0000 1.0000
69.7200 213.0000 1.0000
69.7300 196.0000 1.0000
69.7400 226.0000 1.0000
69.7500 224.0000 1.0000
69.7600 211.0000 1.0000
69.7700 204.0000 1.0000
69.7800 202.0000 1.0000
69.7900 227.0000 1.0000
69.8000 208.0000 1.0000
69.8100 219.0000 1.0000
69.8200 214.0000 1.0000
69.8300 211.0000 1.0000
69.8400 210.0000 1.0000
69.8500 214.0000 1.0000
69.8600 205.0000 1.0000
69.8700 195.0000 1.0000
69.8800 205.0000 1.0000
69.8900 238.0000 1.0000
69.9000 209.0000 1.0000
69.9100 178.0000 1.0000
69.9200 204.0000 1.0000
69.9300 198.0000 1.0000
69.9400 222.0000 1.0000
69.9500 213.0000 1.0000
69.9600 212.0000 1.0000
69.9700 204.0000 1.0000
69.9800 201.0000 1.0000
69.9900 221.0000 1.0000
70.0000 219.0000 1.0000
*RAS_INT_END
*RAS_TEMPERATURE_START
*RAS_TEMPERATURE_END
*RAS_DATA_END
