*RAS_DATA_START
*RAS_HEADER_START
*DISP_FMT_X "%.2f"
*DISP_FMT_Y "%.0f"
*DISP_FULLSCALE "15575.0000000000"
*DISP_LINE_COLOR "255.0000000000"
*DISP_LINE_STYLE "0.0000000000"
*DISP_LINE_WIDTH "0.2500000000"
*DISP_NOTE "測定データ-6"
*DISP_OFFSET_Y "0.0000000000"
*DISP_PEAKSEARCH_UNIT_Y "cps"
*DISP_RANGE_BOTTOM "0.0000000000"
*DISP_RANGE_LEFT "20.0000000000"
*DISP_RANGE_LOGCUTOFF "0.0100000000"
*DISP_RANGE_RIGHT "70.0000000000"
*DISP_RANGE_TOP "15575.0000000000"
*DISP_SCALE_MODE_Y "0.0000000000"
*DISP_TAB_NAME "2θ/θ"
*DISP_TITLE_Y "強度"
*DISP_UNIT_Y "cps"
*DISP_WINDOW_NAME "MSG_MACROENGINE"
*FILE_COMMENT " "
*FILE_MD5 ""
*FILE_MEMO " "
*FILE_OPERATOR "Administrator"
*FILE_SAMPLE " "
*FILE_TYPE "RAS_RAW"
*FILE_USERGROUP "システムマネージャ"
*FILE_VERSION "1.0000000000"
*HW_ATTACHMENT_ID "ATT0025"
*HW_ATTACHMENT_NAME "標準|Standard"
*HW_COUNTER_ID-0 "CUT0025"
*HW_COUNTER_ID-1 "CUT0020"
*HW_COUNTER_ID-2 "CUT0020"
*HW_COUNTER_ID-3 "CSL0021"
*HW_COUNTER_ID-4 "CMC0021"
*HW_COUNTER_NAME-0 "D/teX Ultra|D/teX Ultra"
*HW_COUNTER_NAME-1 "None|None"
*HW_COUNTER_NAME-2 "None|None"
*HW_COUNTER_NAME-3 "BBM|BBM"
*HW_COUNTER_NAME-4 "検出器モノクロメータ|Detector monochromator"
*HW_COUNTER_SELECT_NAME "D/teX Ultra|D/teX Ultra"
*HW_GONIOMETER_ID "GON0023"
*HW_GONIOMETER_NAME "SmartLab|SmartLab"
*HW_GONIOMETER_RADIUS-0 "90.0"
*HW_GONIOMETER_RADIUS-1 "114.0"
*HW_GONIOMETER_RADIUS-2 "190.0"
*HW_GONIOMETER_RADIUS-3 "300.0"
*HW_GONIOMETER_RADIUS-4 "187.0"
*HW_GONIOMETER_RADIUS-5 "300.0"
*HW_GONIOMETER_RADIUS-6 "113.0"
*HW_GONIOMETER_RADIUS-7 "331.0"
*HW_I_OPT_ID-0 "CBO0021"
*HW_I_OPT_ID-1 "ICR0023"
*HW_I_OPT_ID-2 "ISL0021"
*HW_I_OPT_ID-3 "ISO0021"
*HW_I_OPT_ID-4 "IAD0021"
*HW_I_OPT_ID-5 "IPR0001"
*HW_I_OPT_NAME-0 "CBOユニット|CBO unit"
*HW_I_OPT_NAME-1 "標準入射光学ユニット|Standard incident optical unit"
*HW_I_OPT_NAME-2 "標準入射スリットボックス|Standard incident slit box"
*HW_I_OPT_NAME-3 "入射平行スリット|Incident parallel slit"
*HW_I_OPT_NAME-4 "長手制限スリット|Length limiting slit"
*HW_I_OPT_NAME-5 "None|None"
*HW_R_ATTENUATER_AUTOMODE "0"
*HW_R_OPT_ID-0 "RSS0021"
*HW_R_OPT_ID-1 "RCR0023"
*HW_R_OPT_ID-2 "RSO0021"
*HW_R_OPT_ID-3 "RRS0021"
*HW_R_OPT_ID-4 "ATN0021"
*HW_R_OPT_ID-5 "RFL0021"
*HW_R_OPT_ID-6 "RAD0021"
*HW_R_OPT_NAME-0 "標準受光スリットボックス1|Standard receiving slit box # 1"
*HW_R_OPT_NAME-1 "標準受光光学ユニット1|Standard receiving unit # 1"
*HW_R_OPT_NAME-2 "標準受光光学ユニット2|Standard receiving optical unit # 2"
*HW_R_OPT_NAME-3 "標準受光スリットボックス2|Standard receiving slit box # 2"
*HW_R_OPT_NAME-4 "標準アッテネータ|Standard Attenuator"
*HW_R_OPT_NAME-5 "Cu Kβ|Cu K-beta"
*HW_R_OPT_NAME-6 "調整用受光スリット|Alignment receiving slit"
*HW_SAMPLE_HOLDER_ID "SMP0023"
*HW_SAMPLE_HOLDER_NAME "標準Zステージ|Standard Z stage"
*HW_XG_CURRENT_MAX "50"
*HW_XG_CURRENT_MIN "2"
*HW_XG_CURRENT_RESOLUTION "1"
*HW_XG_CURRENT_UNIT "mA"
*HW_XG_FOCUS "1mm x 10mm"
*HW_XG_FOCUS_TYPE "Normal"
*HW_XG_ID ""
*HW_XG_NAME "3kW 封入管(ID:1200)|3kW Sealed tube(ID:1200)"
*HW_XG_TARGET_ATOMIC_NUMBER "29.0000000000"
*HW_XG_TARGET_NAME "Cu"
*HW_XG_TYPE "Hermetic"
*HW_XG_VOLTAGE_MAX "60"
*HW_XG_VOLTAGE_MIN "20"
*HW_XG_VOLTAGE_RESOLUTION "1"
*HW_XG_VOLTAGE_UNIT "kV"
*HW_XG_WATT_MAX "1.500"
*HW_XG_WATT_UNIT "kW"
*HW_XG_WAVE_LENGTH_ALPHA1 "1.540593"
*HW_XG_WAVE_LENGTH_ALPHA2 "1.544414"
*HW_XG_WAVE_LENGTH_BETA "1.392250"
*MEAS_COND_AXIS_NAME-0 "2θ/θ"
*MEAS_COND_AXIS_NAME-1 "2θ"
*MEAS_COND_AXIS_NAME-2 "ω"
*MEAS_COND_AXIS_NAME-3 "Z"
*MEAS_COND_AXIS_NAME-4 "2θ/ω"
*MEAS_COND_AXIS_NAME-5 "θs"
*MEAS_COND_AXIS_NAME-6 "θd"
*MEAS_COND_AXIS_NAME-7 "Ts"
*MEAS_COND_AXIS_NAME-8 "CBO選択スリット"
*MEAS_COND_AXIS_NAME-9 "M"
*MEAS_COND_AXIS_NAME-10 "入射平行スリット"
*MEAS_COND_AXIS_NAME-11 "入射スリット"
*MEAS_COND_AXIS_NAME-12 ""
*MEAS_COND_AXIS_NAME-13 "Zs"
*MEAS_COND_AXIS_NAME-14 "入射光学素子"
*MEAS_COND_AXIS_NAME-15 "長手制限スリット"
*MEAS_COND_AXIS_NAME-16 "センタースリット"
*MEAS_COND_AXIS_NAME-17 "フィルター"
*MEAS_COND_AXIS_NAME-18 "受光スリット1"
*MEAS_COND_AXIS_NAME-19 "受光スリット2"
*MEAS_COND_AXIS_NAME-20 "受光光学素子"
*MEAS_COND_AXIS_NAME-21 "受光平行スリット"
*MEAS_COND_AXIS_NAME-22 "調整用受光スリット"
*MEAS_COND_AXIS_NAME-23 ""
*MEAS_COND_AXIS_NAME-24 ""
*MEAS_COND_AXIS_NAME-25 "Zd"
*MEAS_COND_AXIS_NAME-26 "アッテネータ"
*MEAS_COND_AXIS_NAME-27 "検出器モノクロメータ"
*MEAS_COND_AXIS_NAME-28 "モノクロメータスリット"
*MEAS_COND_AXIS_NAME-29 "プライマリビーム"
*MEAS_COND_AXIS_NAME-30 "PHA"
*MEAS_COND_AXIS_NAME_INTERNAL-0 "TwoThetaTheta"
*MEAS_COND_AXIS_NAME_INTERNAL-1 "TwoTheta"
*MEAS_COND_AXIS_NAME_INTERNAL-2 "Omega"
*MEAS_COND_AXIS_NAME_INTERNAL-3 "Z"
*MEAS_COND_AXIS_NAME_INTERNAL-4 "TwoThetaOmega"
*MEAS_COND_AXIS_NAME_INTERNAL-5 "ThetaS"
*MEAS_COND_AXIS_NAME_INTERNAL-6 "ThetaD"
*MEAS_COND_AXIS_NAME_INTERNAL-7 "Ts"
*MEAS_COND_AXIS_NAME_INTERNAL-8 "CBO"
*MEAS_COND_AXIS_NAME_INTERNAL-9 "CBO-M"
*MEAS_COND_AXIS_NAME_INTERNAL-10 "IncidentSollerSlit"
*MEAS_COND_AXIS_NAME_INTERNAL-11 "IncidentSlitBox"
*MEAS_COND_AXIS_NAME_INTERNAL-12 "IncidentSlitBox-_Axis"
*MEAS_COND_AXIS_NAME_INTERNAL-13 "Zs"
*MEAS_COND_AXIS_NAME_INTERNAL-14 "IncidentMonochromator"
*MEAS_COND_AXIS_NAME_INTERNAL-15 "IncidentAxdSlit"
*MEAS_COND_AXIS_NAME_INTERNAL-16 "CenterSlit"
*MEAS_COND_AXIS_NAME_INTERNAL-17 "Filter"
*MEAS_COND_AXIS_NAME_INTERNAL-18 "ReceivingSlitBox1"
*MEAS_COND_AXIS_NAME_INTERNAL-19 "ReceivingSlitBox2"
*MEAS_COND_AXIS_NAME_INTERNAL-20 "ReceivingOptics"
*MEAS_COND_AXIS_NAME_INTERNAL-21 "ReceivingSollerSlit"
*MEAS_COND_AXIS_NAME_INTERNAL-22 "ReceivingAxdSlit"
*MEAS_COND_AXIS_NAME_INTERNAL-23 "ReceivingSlitBox1-_Axis"
*MEAS_COND_AXIS_NAME_INTERNAL-24 "ReceivingSlitBox2-_Axis"
*MEAS_COND_AXIS_NAME_INTERNAL-25 "ReceivingSlitBox2-Zd"
*MEAS_COND_AXIS_NAME_INTERNAL-26 "Attenuator"
*MEAS_COND_AXIS_NAME_INTERNAL-27 "CounterMonochromator"
*MEAS_COND_AXIS_NAME_INTERNAL-28 "CounterSlit"
*MEAS_COND_AXIS_NAME_INTERNAL-29 "IncidentPrimary"
*MEAS_COND_AXIS_NAME_INTERNAL-30 "PHA"
*MEAS_COND_AXIS_NAME_MAGICNO-0 "83951616.0000000000"
*MEAS_COND_AXIS_NAME_MAGICNO-1 "268632064.0000000000"
*MEAS_COND_AXIS_NAME_MAGICNO-2 "268500992.0000000000"
*MEAS_COND_AXIS_NAME_MAGICNO-3 "285278208.0000000000"
*MEAS_COND_AXIS_NAME_MAGICNO-4 "83951616.0000000000"
*MEAS_COND_AXIS_NAME_MAGICNO-5 "131072.0000000000"
*MEAS_COND_AXIS_NAME_MAGICNO-6 "131072.0000000000"
*MEAS_COND_AXIS_NAME_MAGICNO-7 "318898176.0000000000"
*MEAS_COND_AXIS_NAME_MAGICNO-8 "20971521.0000000000"
*MEAS_COND_AXIS_NAME_MAGICNO-9 "285343744.0000000000"
*MEAS_COND_AXIS_NAME_MAGICNO-10 "20971521.0000000000"
*MEAS_COND_AXIS_NAME_MAGICNO-11 "22020097.0000000000"
*MEAS_COND_AXIS_NAME_MAGICNO-12 "25165824.0000000000"
*MEAS_COND_AXIS_NAME_MAGICNO-13 "318898176.0000000000"
*MEAS_COND_AXIS_NAME_MAGICNO-14 "1.0000000000"
*MEAS_COND_AXIS_NAME_MAGICNO-15 "20971521.0000000000"
*MEAS_COND_AXIS_NAME_MAGICNO-16 "20971521.0000000000"
*MEAS_COND_AXIS_NAME_MAGICNO-17 "20971521.0000000000"
*MEAS_COND_AXIS_NAME_MAGICNO-18 "23068673.0000000000"
*MEAS_COND_AXIS_NAME_MAGICNO-19 "23068673.0000000000"
*MEAS_COND_AXIS_NAME_MAGICNO-20 "20971521.0000000000"
*MEAS_COND_AXIS_NAME_MAGICNO-21 "20971521.0000000000"
*MEAS_COND_AXIS_NAME_MAGICNO-22 "20971521.0000000000"
*MEAS_COND_AXIS_NAME_MAGICNO-23 "25165824.0000000000"
*MEAS_COND_AXIS_NAME_MAGICNO-24 "25165824.0000000000"
*MEAS_COND_AXIS_NAME_MAGICNO-25 "285343744.0000000000"
*MEAS_COND_AXIS_NAME_MAGICNO-26 "17301505.0000000000"
*MEAS_COND_AXIS_NAME_MAGICNO-27 "20971521.0000000000"
*MEAS_COND_AXIS_NAME_MAGICNO-28 "20971521.0000000000"
*MEAS_COND_AXIS_NAME_MAGICNO-29 "20971521.0000000000"
*MEAS_COND_AXIS_NAME_MAGICNO-30 "0.0000000000"
*MEAS_COND_AXIS_OFFSET-0 "-"
*MEAS_COND_AXIS_OFFSET-1 "-0.0310000000"
*MEAS_COND_AXIS_OFFSET-2 "0.3957000000"
*MEAS_COND_AXIS_OFFSET-3 "-"
*MEAS_COND_AXIS_OFFSET-4 "-"
*MEAS_COND_AXIS_OFFSET-5 "0.3957000000"
*MEAS_COND_AXIS_OFFSET-6 "-0.4267000000"
*MEAS_COND_AXIS_OFFSET-7 "-"
*MEAS_COND_AXIS_OFFSET-8 "-"
*MEAS_COND_AXIS_OFFSET-9 "-"
*MEAS_COND_AXIS_OFFSET-10 "-"
*MEAS_COND_AXIS_OFFSET-11 "-"
*MEAS_COND_AXIS_OFFSET-12 "-"
*MEAS_COND_AXIS_OFFSET-13 "-"
*MEAS_COND_AXIS_OFFSET-14 "-"
*MEAS_COND_AXIS_OFFSET-15 "-"
*MEAS_COND_AXIS_OFFSET-16 "-"
*MEAS_COND_AXIS_OFFSET-17 "-"
*MEAS_COND_AXIS_OFFSET-18 "-"
*MEAS_COND_AXIS_OFFSET-19 "-"
*MEAS_COND_AXIS_OFFSET-20 "-"
*MEAS_COND_AXIS_OFFSET-21 "-"
*MEAS_COND_AXIS_OFFSET-22 "-"
*MEAS_COND_AXIS_OFFSET-23 "-"
*MEAS_COND_AXIS_OFFSET-24 "-"
*MEAS_COND_AXIS_OFFSET-25 "-"
*MEAS_COND_AXIS_OFFSET-26 "-"
*MEAS_COND_AXIS_OFFSET-27 "-"
*MEAS_COND_AXIS_OFFSET-28 "-"
*MEAS_COND_AXIS_OFFSET-29 "-"
*MEAS_COND_AXIS_OFFSET-30 "-"
*MEAS_COND_AXIS_POSITION-0 "0.0000000000"
*MEAS_COND_AXIS_POSITION-1 "0.0000000000"
*MEAS_COND_AXIS_POSITION-2 "0.0000000000"
*MEAS_COND_AXIS_POSITION-3 "-2.8588600000"
*MEAS_COND_AXIS_POSITION-4 "0.0000000000"
*MEAS_COND_AXIS_POSITION-5 "0.0000000000"
*MEAS_COND_AXIS_POSITION-6 "0.0000000000"
*MEAS_COND_AXIS_POSITION-7 "-0.7498700000"
*MEAS_COND_AXIS_POSITION-8 "BB"
*MEAS_COND_AXIS_POSITION-9 "0.0000000000"
*MEAS_COND_AXIS_POSITION-10 "Soller_slit_5.0deg"
*MEAS_COND_AXIS_POSITION-11 "2/3deg"
*MEAS_COND_AXIS_POSITION-12 "2.2088000000"
*MEAS_COND_AXIS_POSITION-13 "-0.6412500000"
*MEAS_COND_AXIS_POSITION-14 "0.0000000000"
*MEAS_COND_AXIS_POSITION-15 "10.0mm"
*MEAS_COND_AXIS_POSITION-16 "None"
*MEAS_COND_AXIS_POSITION-17 "Cu_K-beta"
*MEAS_COND_AXIS_POSITION-18 "13.000mm"
*MEAS_COND_AXIS_POSITION-19 "13.000mm"
*MEAS_COND_AXIS_POSITION-20 "No_unit"
*MEAS_COND_AXIS_POSITION-21 "Soller_slit_5.0deg"
*MEAS_COND_AXIS_POSITION-22 "None"
*MEAS_COND_AXIS_POSITION-23 "13.0000000000"
*MEAS_COND_AXIS_POSITION-24 "13.0000000000"
*MEAS_COND_AXIS_POSITION-25 "0.0281300000"
*MEAS_COND_AXIS_POSITION-26 "Open"
*MEAS_COND_AXIS_POSITION-27 "None"
*MEAS_COND_AXIS_POSITION-28 "None"
*MEAS_COND_AXIS_POSITION-29 "None"
*MEAS_COND_AXIS_POSITION-30 "38.0000000000"
*MEAS_COND_AXIS_UNIT-0 "deg"
*MEAS_COND_AXIS_UNIT-1 "deg"
*MEAS_COND_AXIS_UNIT-2 "deg"
*MEAS_COND_AXIS_UNIT-3 "mm"
*MEAS_COND_AXIS_UNIT-4 "deg"
*MEAS_COND_AXIS_UNIT-5 "deg"
*MEAS_COND_AXIS_UNIT-6 "deg"
*MEAS_COND_AXIS_UNIT-7 "mm"
*MEAS_COND_AXIS_UNIT-8 ""
*MEAS_COND_AXIS_UNIT-9 "pulse"
*MEAS_COND_AXIS_UNIT-10 ""
*MEAS_COND_AXIS_UNIT-11 ""
*MEAS_COND_AXIS_UNIT-12 "mm"
*MEAS_COND_AXIS_UNIT-13 "mm"
*MEAS_COND_AXIS_UNIT-14 ""
*MEAS_COND_AXIS_UNIT-15 ""
*MEAS_COND_AXIS_UNIT-16 ""
*MEAS_COND_AXIS_UNIT-17 ""
*MEAS_COND_AXIS_UNIT-18 ""
*MEAS_COND_AXIS_UNIT-19 ""
*MEAS_COND_AXIS_UNIT-20 ""
*MEAS_COND_AXIS_UNIT-21 ""
*MEAS_COND_AXIS_UNIT-22 ""
*MEAS_COND_AXIS_UNIT-23 "mm"
*MEAS_COND_AXIS_UNIT-24 "mm"
*MEAS_COND_AXIS_UNIT-25 "mm"
*MEAS_COND_AXIS_UNIT-26 ""
*MEAS_COND_AXIS_UNIT-27 ""
*MEAS_COND_AXIS_UNIT-28 ""
*MEAS_COND_AXIS_UNIT-29 ""
*MEAS_COND_AXIS_UNIT-30 "div"
*MEAS_COND_COUNTER_CNTLOSS_CORR "0.0000000000"
*MEAS_COND_COUNTER_PHABASE "38.0000000000"
*MEAS_COND_COUNTER_PHAWINDOW "16.0000000000"
*MEAS_COND_COUNTER_PHA_UNIT "div"
*MEAS_COND_COUNTER_TAUDIFF "30.0000000000"
*MEAS_COND_COUNTER_TAUINT "0.0000000000"
*MEAS_COND_IRRADIATION_MODE "OFF"
*MEAS_COND_IRRADIATION_WIDTH ""
*MEAS_COND_OPT_ATTR "集中法"
*MEAS_COND_OPT_NAME "@集中法"
*MEAS_COND_UNSYMMETRIC_MODE "OFF"
*MEAS_COND_XG_CURRENT "30.0000000000"
*MEAS_COND_XG_VOLTAGE "40.0000000000"
*MEAS_COND_XG_WAVE_TYPE "Ka"
*MEAS_DATA_COUNT "5001.0000000000"
*MEAS_SCAN_AXIS_X "2θ/θ"
*MEAS_SCAN_AXIS_X_INTERNAL "TwoThetaTheta"
*MEAS_SCAN_END_TIME "01/29/24 12:49:23"
*MEAS_SCAN_MODE "CONTINUOUS"
*MEAS_SCAN_MONITOR "0"
*MEAS_SCAN_RESOLUTION_X "0.0002"
*MEAS_SCAN_SPEED "2.5"
*MEAS_SCAN_SPEED_UNIT "deg/min"
*MEAS_SCAN_START "20.0000000000"
*MEAS_SCAN_START_TIME "01/29/24 12:27:59"
*MEAS_SCAN_STEP "0.0100000000"
*MEAS_SCAN_STOP "70.0000000000"
*MEAS_SCAN_UNIT_X "deg"
*MEAS_SCAN_UNIT_Y "counts"
*RAS_HEADER_END
*RAS_INT_START
20.0000 746.0000 1.0000
20.0100 793.0000 1.0000
20.0200 766.0000 1.0000
20.0300 762.0000 1.0000
20.0400 787.0000 1.0000
20.0500 760.0000 1.0000
20.0600 787.0000 1.0000
20.0700 757.0000 1.0000
20.0800 738.0000 1.0000
20.0900 741.0000 1.0000
20.1000 787.0000 1.0000
20.1100 749.0000 1.0000
20.1200 751.0000 1.0000
20.1300 754.0000 1.0000
20.1400 788.0000 1.0000
20.1500 788.0000 1.0000
20.1600 782.0000 1.0000
20.1700 771.0000 1.0000
20.1800 757.0000 1.0000
20.1900 736.0000 1.0000
20.2000 792.0000 1.0000
20.2100 780.0000 1.0000
20.2200 760.0000 1.0000
20.2300 782.0000 1.0000
20.2400 741.0000 1.0000
20.2500 756.0000 1.0000
20.2600 728.0000 1.0000
20.2700 727.0000 1.0000
20.2800 763.0000 1.0000
20.2900 719.0000 1.0000
20.3000 774.0000 1.0000
20.3100 751.0000 1.0000
20.3200 732.0000 1.0000
20.3300 747.0000 1.0000
20.3400 752.0000 1.0000
20.3500 730.0000 1.0000
20.3600 730.0000 1.0000
20.3700 704.0000 1.0000
20.3800 728.0000 1.0000
20.3900 767.0000 1.0000
20.4000 751.0000 1.0000
20.4100 763.0000 1.0000
20.4200 792.0000 1.0000
20.4300 760.0000 1.0000
20.4400 791.0000 1.0000
20.4500 773.0000 1.0000
20.4600 727.0000 1.0000
20.4700 762.0000 1.0000
20.4800 759.0000 1.0000
20.4900 748.0000 1.0000
20.5000 758.0000 1.0000
20.5100 758.0000 1.0000
20.5200 781.0000 1.0000
20.5300 723.0000 1.0000
20.5400 763.0000 1.0000
20.5500 767.0000 1.0000
20.5600 758.0000 1.0000
20.5700 780.0000 1.0000
20.5800 717.0000 1.0000
20.5900 746.0000 1.0000
20.6000 806.0000 1.0000
20.6100 716.0000 1.0000
20.6200 758.0000 1.0000
20.6300 718.0000 1.0000
20.6400 804.0000 1.0000
20.6500 739.0000 1.0000
20.6600 750.0000 1.0000
20.6700 740.0000 1.0000
20.6800 794.0000 1.0000
20.6900 780.0000 1.0000
20.7000 773.0000 1.0000
20.7100 788.0000 1.0000
20.7200 759.0000 1.0000
20.7300 736.0000 1.0000
20.7400 736.0000 1.0000
20.7500 741.0000 1.0000
20.7600 754.0000 1.0000
20.7700 766.0000 1.0000
20.7800 762.0000 1.0000
20.7900 751.0000 1.0000
20.8000 786.0000 1.0000
20.8100 761.0000 1.0000
20.8200 751.0000 1.0000
20.8300 740.0000 1.0000
20.8400 723.0000 1.0000
20.8500 788.0000 1.0000
20.8600 752.0000 1.0000
20.8700 742.0000 1.0000
20.8800 784.0000 1.0000
20.8900 766.0000 1.0000
20.9000 783.0000 1.0000
20.9100 761.0000 1.0000
20.9200 796.0000 1.0000
20.9300 779.0000 1.0000
20.9400 703.0000 1.0000
20.9500 766.0000 1.0000
20.9600 755.0000 1.0000
20.9700 749.0000 1.0000
20.9800 799.0000 1.0000
20.9900 811.0000 1.0000
21.0000 760.0000 1.0000
21.0100 717.0000 1.0000
21.0200 787.0000 1.0000
21.0300 768.0000 1.0000
21.0400 746.0000 1.0000
21.0500 714.0000 1.0000
21.0600 732.0000 1.0000
21.0700 770.0000 1.0000
21.0800 735.0000 1.0000
21.0900 752.0000 1.0000
21.1000 763.0000 1.0000
21.1100 789.0000 1.0000
21.1200 773.0000 1.0000
21.1300 746.0000 1.0000
21.1400 768.0000 1.0000
21.1500 797.0000 1.0000
21.1600 748.0000 1.0000
21.1700 719.0000 1.0000
21.1800 758.0000 1.0000
21.1900 776.0000 1.0000
21.2000 753.0000 1.0000
21.2100 762.0000 1.0000
21.2200 754.0000 1.0000
21.2300 812.0000 1.0000
21.2400 785.0000 1.0000
21.2500 745.0000 1.0000
21.2600 718.0000 1.0000
21.2700 758.0000 1.0000
21.2800 754.0000 1.0000
21.2900 721.0000 1.0000
21.3000 752.0000 1.0000
21.3100 748.0000 1.0000
21.3200 767.0000 1.0000
21.3300 755.0000 1.0000
21.3400 769.0000 1.0000
21.3500 730.0000 1.0000
21.3600 757.0000 1.0000
21.3700 721.0000 1.0000
21.3800 729.0000 1.0000
21.3900 735.0000 1.0000
21.4000 739.0000 1.0000
21.4100 740.0000 1.0000
21.4200 753.0000 1.0000
21.4300 740.0000 1.0000
21.4400 736.0000 1.0000
21.4500 747.0000 1.0000
21.4600 760.0000 1.0000
21.4700 724.0000 1.0000
21.4800 719.0000 1.0000
21.4900 726.0000 1.0000
21.5000 706.0000 1.0000
21.5100 735.0000 1.0000
21.5200 750.0000 1.0000
21.5300 782.0000 1.0000
21.5400 781.0000 1.0000
21.5500 738.0000 1.0000
21.5600 784.0000 1.0000
21.5700 759.0000 1.0000
21.5800 736.0000 1.0000
21.5900 803.0000 1.0000
21.6000 740.0000 1.0000
21.6100 746.0000 1.0000
21.6200 722.0000 1.0000
21.6300 713.0000 1.0000
21.6400 743.0000 1.0000
21.6500 767.0000 1.0000
21.6600 782.0000 1.0000
21.6700 737.0000 1.0000
21.6800 727.0000 1.0000
21.6900 730.0000 1.0000
21.7000 778.0000 1.0000
21.7100 760.0000 1.0000
21.7200 727.0000 1.0000
21.7300 718.0000 1.0000
21.7400 738.0000 1.0000
21.7500 758.0000 1.0000
21.7600 744.0000 1.0000
21.7700 743.0000 1.0000
21.7800 695.0000 1.0000
21.7900 741.0000 1.0000
21.8000 753.0000 1.0000
21.8100 734.0000 1.0000
21.8200 736.0000 1.0000
21.8300 728.0000 1.0000
21.8400 705.0000 1.0000
21.8500 722.0000 1.0000
21.8600 742.0000 1.0000
21.8700 703.0000 1.0000
21.8800 719.0000 1.0000
21.8900 730.0000 1.0000
21.9000 779.0000 1.0000
21.9100 763.0000 1.0000
21.9200 749.0000 1.0000
21.9300 765.0000 1.0000
21.9400 767.0000 1.0000
21.9500 748.0000 1.0000
21.9600 719.0000 1.0000
21.9700 739.0000 1.0000
21.9800 737.0000 1.0000
21.9900 716.0000 1.0000
22.0000 745.0000 1.0000
22.0100 710.0000 1.0000
22.0200 716.0000 1.0000
22.0300 716.0000 1.0000
22.0400 741.0000 1.0000
22.0500 715.0000 1.0000
22.0600 722.0000 1.0000
22.0700 728.0000 1.0000
22.0800 732.0000 1.0000
22.0900 727.0000 1.0000
22.1000 748.0000 1.0000
22.1100 771.0000 1.0000
22.1200 787.0000 1.0000
22.1300 718.0000 1.0000
22.1400 719.0000 1.0000
22.1500 768.0000 1.0000
22.1600 754.0000 1.0000
22.1700 729.0000 1.0000
22.1800 764.0000 1.0000
22.1900 715.0000 1.0000
22.2000 709.0000 1.0000
22.2100 752.0000 1.0000
22.2200 742.0000 1.0000
22.2300 735.0000 1.0000
22.2400 720.0000 1.0000
22.2500 748.0000 1.0000
22.2600 757.0000 1.0000
22.2700 773.0000 1.0000
22.2800 780.0000 1.0000
22.2900 763.0000 1.0000
22.3000 746.0000 1.0000
22.3100 723.0000 1.0000
22.3200 732.0000 1.0000
22.3300 769.0000 1.0000
22.3400 760.0000 1.0000
22.3500 730.0000 1.0000
22.3600 719.0000 1.0000
22.3700 748.0000 1.0000
22.3800 737.0000 1.0000
22.3900 718.0000 1.0000
22.4000 735.0000 1.0000
22.4100 744.0000 1.0000
22.4200 747.0000 1.0000
22.4300 730.0000 1.0000
22.4400 728.0000 1.0000
22.4500 726.0000 1.0000
22.4600 715.0000 1.0000
22.4700 732.0000 1.0000
22.4800 757.0000 1.0000
22.4900 721.0000 1.0000
22.5000 729.0000 1.0000
22.5100 743.0000 1.0000
22.5200 746.0000 1.0000
22.5300 740.0000 1.0000
22.5400 757.0000 1.0000
22.5500 737.0000 1.0000
22.5600 763.0000 1.0000
22.5700 765.0000 1.0000
22.5800 743.0000 1.0000
22.5900 755.0000 1.0000
22.6000 728.0000 1.0000
22.6100 709.0000 1.0000
22.6200 720.0000 1.0000
22.6300 767.0000 1.0000
22.6400 745.0000 1.0000
22.6500 682.0000 1.0000
22.6600 727.0000 1.0000
22.6700 753.0000 1.0000
22.6800 746.0000 1.0000
22.6900 738.0000 1.0000
22.7000 787.0000 1.0000
22.7100 762.0000 1.0000
22.7200 733.0000 1.0000
22.7300 765.0000 1.0000
22.7400 736.0000 1.0000
22.7500 765.0000 1.0000
22.7600 735.0000 1.0000
22.7700 804.0000 1.0000
22.7800 792.0000 1.0000
22.7900 747.0000 1.0000
22.8000 743.0000 1.0000
22.8100 742.0000 1.0000
22.8200 776.0000 1.0000
22.8300 749.0000 1.0000
22.8400 728.0000 1.0000
22.8500 705.0000 1.0000
22.8600 782.0000 1.0000
22.8700 739.0000 1.0000
22.8800 789.0000 1.0000
22.8900 767.0000 1.0000
22.9000 746.0000 1.0000
22.9100 737.0000 1.0000
22.9200 710.0000 1.0000
22.9300 740.0000 1.0000
22.9400 746.0000 1.0000
22.9500 719.0000 1.0000
22.9600 723.0000 1.0000
22.9700 690.0000 1.0000
22.9800 755.0000 1.0000
22.9900 731.0000 1.0000
23.0000 727.0000 1.0000
23.0100 705.0000 1.0000
23.0200 709.0000 1.0000
23.0300 755.0000 1.0000
23.0400 722.0000 1.0000
23.0500 719.0000 1.0000
23.0600 727.0000 1.0000
23.0700 703.0000 1.0000
23.0800 725.0000 1.0000
23.0900 722.0000 1.0000
23.1000 729.0000 1.0000
23.1100 678.0000 1.0000
23.1200 698.0000 1.0000
23.1300 730.0000 1.0000
23.1400 702.0000 1.0000
23.1500 694.0000 1.0000
23.1600 742.0000 1.0000
23.1700 763.0000 1.0000
23.1800 763.0000 1.0000
23.1900 736.0000 1.0000
23.2000 740.0000 1.0000
23.2100 720.0000 1.0000
23.2200 693.0000 1.0000
23.2300 745.0000 1.0000
23.2400 728.0000 1.0000
23.2500 744.0000 1.0000
23.2600 687.0000 1.0000
23.2700 719.0000 1.0000
23.2800 727.0000 1.0000
23.2900 755.0000 1.0000
23.3000 700.0000 1.0000
23.3100 736.0000 1.0000
23.3200 747.0000 1.0000
23.3300 746.0000 1.0000
23.3400 738.0000 1.0000
23.3500 719.0000 1.0000
23.3600 668.0000 1.0000
23.3700 758.0000 1.0000
23.3800 774.0000 1.0000
23.3900 725.0000 1.0000
23.4000 690.0000 1.0000
23.4100 752.0000 1.0000
23.4200 753.0000 1.0000
23.4300 741.0000 1.0000
23.4400 701.0000 1.0000
23.4500 717.0000 1.0000
23.4600 727.0000 1.0000
23.4700 711.0000 1.0000
23.4800 740.0000 1.0000
23.4900 724.0000 1.0000
23.5000 730.0000 1.0000
23.5100 743.0000 1.0000
23.5200 755.0000 1.0000
23.5300 729.0000 1.0000
23.5400 729.0000 1.0000
23.5500 741.0000 1.0000
23.5600 733.0000 1.0000
23.5700 708.0000 1.0000
23.5800 743.0000 1.0000
23.5900 679.0000 1.0000
23.6000 703.0000 1.0000
23.6100 699.0000 1.0000
23.6200 699.0000 1.0000
23.6300 732.0000 1.0000
23.6400 696.0000 1.0000
23.6500 776.0000 1.0000
23.6600 701.0000 1.0000
23.6700 725.0000 1.0000
23.6800 722.0000 1.0000
23.6900 727.0000 1.0000
23.7000 693.0000 1.0000
23.7100 743.0000 1.0000
23.7200 716.0000 1.0000
23.7300 730.0000 1.0000
23.7400 718.0000 1.0000
23.7500 713.0000 1.0000
23.7600 718.0000 1.0000
23.7700 707.0000 1.0000
23.7800 696.0000 1.0000
23.7900 711.0000 1.0000
23.8000 701.0000 1.0000
23.8100 730.0000 1.0000
23.8200 712.0000 1.0000
23.8300 722.0000 1.0000
23.8400 738.0000 1.0000
23.8500 724.0000 1.0000
23.8600 734.0000 1.0000
23.8700 713.0000 1.0000
23.8800 756.0000 1.0000
23.8900 732.0000 1.0000
23.9000 734.0000 1.0000
23.9100 734.0000 1.0000
23.9200 746.0000 1.0000
23.9300 757.0000 1.0000
23.9400 749.0000 1.0000
23.9500 773.0000 1.0000
23.9600 821.0000 1.0000
23.9700 788.0000 1.0000
23.9800 724.0000 1.0000
23.9900 699.0000 1.0000
24.0000 762.0000 1.0000
24.0100 796.0000 1.0000
24.0200 815.0000 1.0000
24.0300 791.0000 1.0000
24.0400 759.0000 1.0000
24.0500 805.0000 1.0000
24.0600 779.0000 1.0000
24.0700 865.0000 1.0000
24.0800 789.0000 1.0000
24.0900 784.0000 1.0000
24.1000 814.0000 1.0000
24.1100 796.0000 1.0000
24.1200 805.0000 1.0000
24.1300 826.0000 1.0000
24.1400 798.0000 1.0000
24.1500 781.0000 1.0000
24.1600 767.0000 1.0000
24.1700 760.0000 1.0000
24.1800 799.0000 1.0000
24.1900 774.0000 1.0000
24.2000 743.0000 1.0000
24.2100 794.0000 1.0000
24.2200 794.0000 1.0000
24.2300 781.0000 1.0000
24.2400 777.0000 1.0000
24.2500 756.0000 1.0000
24.2600 745.0000 1.0000
24.2700 784.0000 1.0000
24.2800 769.0000 1.0000
24.2900 735.0000 1.0000
24.3000 759.0000 1.0000
24.3100 746.0000 1.0000
24.3200 759.0000 1.0000
24.3300 736.0000 1.0000
24.3400 729.0000 1.0000
24.3500 735.0000 1.0000
24.3600 803.0000 1.0000
24.3700 774.0000 1.0000
24.3800 687.0000 1.0000
24.3900 752.0000 1.0000
24.4000 722.0000 1.0000
24.4100 701.0000 1.0000
24.4200 753.0000 1.0000
24.4300 729.0000 1.0000
24.4400 753.0000 1.0000
24.4500 746.0000 1.0000
24.4600 770.0000 1.0000
24.4700 709.0000 1.0000
24.4800 728.0000 1.0000
24.4900 727.0000 1.0000
24.5000 749.0000 1.0000
24.5100 763.0000 1.0000
24.5200 717.0000 1.0000
24.5300 734.0000 1.0000
24.5400 721.0000 1.0000
24.5500 727.0000 1.0000
24.5600 720.0000 1.0000
24.5700 703.0000 1.0000
24.5800 719.0000 1.0000
24.5900 714.0000 1.0000
24.6000 714.0000 1.0000
24.6100 726.0000 1.0000
24.6200 731.0000 1.0000
24.6300 725.0000 1.0000
24.6400 742.0000 1.0000
24.6500 726.0000 1.0000
24.6600 728.0000 1.0000
24.6700 750.0000 1.0000
24.6800 736.0000 1.0000
24.6900 732.0000 1.0000
24.7000 719.0000 1.0000
24.7100 747.0000 1.0000
24.7200 721.0000 1.0000
24.7300 711.0000 1.0000
24.7400 731.0000 1.0000
24.7500 700.0000 1.0000
24.7600 726.0000 1.0000
24.7700 746.0000 1.0000
24.7800 702.0000 1.0000
24.7900 728.0000 1.0000
24.8000 717.0000 1.0000
24.8100 706.0000 1.0000
24.8200 711.0000 1.0000
24.8300 717.0000 1.0000
24.8400 692.0000 1.0000
24.8500 731.0000 1.0000
24.8600 679.0000 1.0000
24.8700 693.0000 1.0000
24.8800 637.0000 1.0000
24.8900 685.0000 1.0000
24.9000 730.0000 1.0000
24.9100 690.0000 1.0000
24.9200 742.0000 1.0000
24.9300 684.0000 1.0000
24.9400 745.0000 1.0000
24.9500 727.0000 1.0000
24.9600 690.0000 1.0000
24.9700 723.0000 1.0000
24.9800 679.0000 1.0000
24.9900 688.0000 1.0000
25.0000 720.0000 1.0000
25.0100 680.0000 1.0000
25.0200 683.0000 1.0000
25.0300 664.0000 1.0000
25.0400 713.0000 1.0000
25.0500 698.0000 1.0000
25.0600 726.0000 1.0000
25.0700 680.0000 1.0000
25.0800 693.0000 1.0000
25.0900 714.0000 1.0000
25.1000 693.0000 1.0000
25.1100 719.0000 1.0000
25.1200 719.0000 1.0000
25.1300 692.0000 1.0000
25.1400 765.0000 1.0000
25.1500 700.0000 1.0000
25.1600 690.0000 1.0000
25.1700 705.0000 1.0000
25.1800 710.0000 1.0000
25.1900 682.0000 1.0000
25.2000 716.0000 1.0000
25.2100 729.0000 1.0000
25.2200 676.0000 1.0000
25.2300 711.0000 1.0000
25.2400 702.0000 1.0000
25.2500 653.0000 1.0000
25.2600 680.0000 1.0000
25.2700 666.0000 1.0000
25.2800 735.0000 1.0000
25.2900 702.0000 1.0000
25.3000 716.0000 1.0000
25.3100 723.0000 1.0000
25.3200 692.0000 1.0000
25.3300 714.0000 1.0000
25.3400 723.0000 1.0000
25.3500 717.0000 1.0000
25.3600 715.0000 1.0000
25.3700 691.0000 1.0000
25.3800 700.0000 1.0000
25.3900 693.0000 1.0000
25.4000 675.0000 1.0000
25.4100 694.0000 1.0000
25.4200 699.0000 1.0000
25.4300 708.0000 1.0000
25.4400 700.0000 1.0000
25.4500 689.0000 1.0000
25.4600 674.0000 1.0000
25.4700 703.0000 1.0000
25.4800 710.0000 1.0000
25.4900 718.0000 1.0000
25.5000 663.0000 1.0000
25.5100 690.0000 1.0000
25.5200 754.0000 1.0000
25.5300 736.0000 1.0000
25.5400 682.0000 1.0000
25.5500 764.0000 1.0000
25.5600 709.0000 1.0000
25.5700 731.0000 1.0000
25.5800 728.0000 1.0000
25.5900 695.0000 1.0000
25.6000 717.0000 1.0000
25.6100 723.0000 1.0000
25.6200 736.0000 1.0000
25.6300 733.0000 1.0000
25.6400 691.0000 1.0000
25.6500 735.0000 1.0000
25.6600 708.0000 1.0000
25.6700 716.0000 1.0000
25.6800 715.0000 1.0000
25.6900 756.0000 1.0000
25.7000 703.0000 1.0000
25.7100 685.0000 1.0000
25.7200 720.0000 1.0000
25.7300 719.0000 1.0000
25.7400 742.0000 1.0000
25.7500 718.0000 1.0000
25.7600 688.0000 1.0000
25.7700 721.0000 1.0000
25.7800 705.0000 1.0000
25.7900 715.0000 1.0000
25.8000 696.0000 1.0000
25.8100 731.0000 1.0000
25.8200 702.0000 1.0000
25.8300 718.0000 1.0000
25.8400 747.0000 1.0000
25.8500 739.0000 1.0000
25.8600 726.0000 1.0000
25.8700 721.0000 1.0000
25.8800 707.0000 1.0000
25.8900 720.0000 1.0000
25.9000 771.0000 1.0000
25.9100 701.0000 1.0000
25.9200 741.0000 1.0000
25.9300 743.0000 1.0000
25.9400 725.0000 1.0000
25.9500 757.0000 1.0000
25.9600 700.0000 1.0000
25.9700 742.0000 1.0000
25.9800 751.0000 1.0000
25.9900 729.0000 1.0000
26.0000 778.0000 1.0000
26.0100 723.0000 1.0000
26.0200 789.0000 1.0000
26.0300 716.0000 1.0000
26.0400 749.0000 1.0000
26.0500 741.0000 1.0000
26.0600 782.0000 1.0000
26.0700 757.0000 1.0000
26.0800 792.0000 1.0000
26.0900 803.0000 1.0000
26.1000 768.0000 1.0000
26.1100 832.0000 1.0000
26.1200 806.0000 1.0000
26.1300 823.0000 1.0000
26.1400 872.0000 1.0000
26.1500 810.0000 1.0000
26.1600 838.0000 1.0000
26.1700 855.0000 1.0000
26.1800 881.0000 1.0000
26.1900 849.0000 1.0000
26.2000 859.0000 1.0000
26.2100 869.0000 1.0000
26.2200 891.0000 1.0000
26.2300 901.0000 1.0000
26.2400 927.0000 1.0000
26.2500 919.0000 1.0000
26.2600 1001.0000 1.0000
26.2700 984.0000 1.0000
26.2800 929.0000 1.0000
26.2900 985.0000 1.0000
26.3000 1057.0000 1.0000
26.3100 1056.0000 1.0000
26.3200 1094.0000 1.0000
26.3300 1110.0000 1.0000
26.3400 1112.0000 1.0000
26.3500 1207.0000 1.0000
26.3600 1209.0000 1.0000
26.3700 1249.0000 1.0000
26.3800 1257.0000 1.0000
26.3900 1288.0000 1.0000
26.4000 1299.0000 1.0000
26.4100 1384.0000 1.0000
26.4200 1397.0000 1.0000
26.4300 1428.0000 1.0000
26.4400 1427.0000 1.0000
26.4500 1481.0000 1.0000
26.4600 1423.0000 1.0000
26.4700 1438.0000 1.0000
26.4800 1446.0000 1.0000
26.4900 1418.0000 1.0000
26.5000 1426.0000 1.0000
26.5100 1392.0000 1.0000
26.5200 1376.0000 1.0000
26.5300 1352.0000 1.0000
26.5400 1298.0000 1.0000
26.5500 1289.0000 1.0000
26.5600 1271.0000 1.0000
26.5700 1191.0000 1.0000
26.5800 1131.0000 1.0000
26.5900 1112.0000 1.0000
26.6000 1050.0000 1.0000
26.6100 1078.0000 1.0000
26.6200 1050.0000 1.0000
26.6300 1021.0000 1.0000
26.6400 1004.0000 1.0000
26.6500 975.0000 1.0000
26.6600 970.0000 1.0000
26.6700 897.0000 1.0000
26.6800 895.0000 1.0000
26.6900 923.0000 1.0000
26.7000 908.0000 1.0000
26.7100 868.0000 1.0000
26.7200 867.0000 1.0000
26.7300 852.0000 1.0000
26.7400 877.0000 1.0000
26.7500 830.0000 1.0000
26.7600 844.0000 1.0000
26.7700 836.0000 1.0000
26.7800 788.0000 1.0000
26.7900 800.0000 1.0000
26.8000 760.0000 1.0000
26.8100 770.0000 1.0000
26.8200 765.0000 1.0000
26.8300 799.0000 1.0000
26.8400 769.0000 1.0000
26.8500 747.0000 1.0000
26.8600 740.0000 1.0000
26.8700 793.0000 1.0000
26.8800 754.0000 1.0000
26.8900 742.0000 1.0000
26.9000 730.0000 1.0000
26.9100 740.0000 1.0000
26.9200 707.0000 1.0000
26.9300 729.0000 1.0000
26.9400 723.0000 1.0000
26.9500 728.0000 1.0000
26.9600 712.0000 1.0000
26.9700 729.0000 1.0000
26.9800 753.0000 1.0000
26.9900 710.0000 1.0000
27.0000 712.0000 1.0000
27.0100 710.0000 1.0000
27.0200 741.0000 1.0000
27.0300 703.0000 1.0000
27.0400 709.0000 1.0000
27.0500 745.0000 1.0000
27.0600 687.0000 1.0000
27.0700 644.0000 1.0000
27.0800 733.0000 1.0000
27.0900 690.0000 1.0000
27.1000 691.0000 1.0000
27.1100 710.0000 1.0000
27.1200 708.0000 1.0000
27.1300 730.0000 1.0000
27.1400 688.0000 1.0000
27.1500 665.0000 1.0000
27.1600 670.0000 1.0000
27.1700 665.0000 1.0000
27.1800 674.0000 1.0000
27.1900 647.0000 1.0000
27.2000 645.0000 1.0000
27.2100 647.0000 1.0000
27.2200 669.0000 1.0000
27.2300 675.0000 1.0000
27.2400 709.0000 1.0000
27.2500 644.0000 1.0000
27.2600 684.0000 1.0000
27.2700 675.0000 1.0000
27.2800 645.0000 1.0000
27.2900 692.0000 1.0000
27.3000 698.0000 1.0000
27.3100 651.0000 1.0000
27.3200 665.0000 1.0000
27.3300 669.0000 1.0000
27.3400 698.0000 1.0000
27.3500 700.0000 1.0000
27.3600 652.0000 1.0000
27.3700 665.0000 1.0000
27.3800 670.0000 1.0000
27.3900 632.0000 1.0000
27.4000 675.0000 1.0000
27.4100 640.0000 1.0000
27.4200 606.0000 1.0000
27.4300 636.0000 1.0000
27.4400 652.0000 1.0000
27.4500 603.0000 1.0000
27.4600 669.0000 1.0000
27.4700 673.0000 1.0000
27.4800 668.0000 1.0000
27.4900 615.0000 1.0000
27.5000 668.0000 1.0000
27.5100 654.0000 1.0000
27.5200 629.0000 1.0000
27.5300 658.0000 1.0000
27.5400 622.0000 1.0000
27.5500 650.0000 1.0000
27.5600 611.0000 1.0000
27.5700 651.0000 1.0000
27.5800 657.0000 1.0000
27.5900 702.0000 1.0000
27.6000 668.0000 1.0000
27.6100 608.0000 1.0000
27.6200 632.0000 1.0000
27.6300 661.0000 1.0000
27.6400 661.0000 1.0000
27.6500 631.0000 1.0000
27.6600 634.0000 1.0000
27.6700 625.0000 1.0000
27.6800 654.0000 1.0000
27.6900 648.0000 1.0000
27.7000 620.0000 1.0000
27.7100 646.0000 1.0000
27.7200 645.0000 1.0000
27.7300 650.0000 1.0000
27.7400 641.0000 1.0000
27.7500 613.0000 1.0000
27.7600 625.0000 1.0000
27.7700 647.0000 1.0000
27.7800 647.0000 1.0000
27.7900 660.0000 1.0000
27.8000 629.0000 1.0000
27.8100 601.0000 1.0000
27.8200 624.0000 1.0000
27.8300 631.0000 1.0000
27.8400 643.0000 1.0000
27.8500 632.0000 1.0000
27.8600 608.0000 1.0000
27.8700 596.0000 1.0000
27.8800 625.0000 1.0000
27.8900 622.0000 1.0000
27.9000 631.0000 1.0000
27.9100 658.0000 1.0000
27.9200 620.0000 1.0000
27.9300 623.0000 1.0000
27.9400 636.0000 1.0000
27.9500 646.0000 1.0000
27.9600 605.0000 1.0000
27.9700 625.0000 1.0000
27.9800 623.0000 1.0000
27.9900 644.0000 1.0000
28.0000 623.0000 1.0000
28.0100 602.0000 1.0000
28.0200 608.0000 1.0000
28.0300 594.0000 1.0000
28.0400 617.0000 1.0000
28.0500 669.0000 1.0000
28.0600 634.0000 1.0000
28.0700 636.0000 1.0000
28.0800 597.0000 1.0000
28.0900 618.0000 1.0000
28.1000 638.0000 1.0000
28.1100 643.0000 1.0000
28.1200 629.0000 1.0000
28.1300 606.0000 1.0000
28.1400 638.0000 1.0000
28.1500 605.0000 1.0000
28.1600 615.0000 1.0000
28.1700 665.0000 1.0000
28.1800 658.0000 1.0000
28.1900 615.0000 1.0000
28.2000 609.0000 1.0000
28.2100 639.0000 1.0000
28.2200 618.0000 1.0000
28.2300 630.0000 1.0000
28.2400 611.0000 1.0000
28.2500 667.0000 1.0000
28.2600 642.0000 1.0000
28.2700 631.0000 1.0000
28.2800 641.0000 1.0000
28.2900 663.0000 1.0000
28.3000 634.0000 1.0000
28.3100 630.0000 1.0000
28.3200 609.0000 1.0000
28.3300 619.0000 1.0000
28.3400 616.0000 1.0000
28.3500 622.0000 1.0000
28.3600 636.0000 1.0000
28.3700 602.0000 1.0000
28.3800 626.0000 1.0000
28.3900 649.0000 1.0000
28.4000 630.0000 1.0000
28.4100 653.0000 1.0000
28.4200 641.0000 1.0000
28.4300 632.0000 1.0000
28.4400 628.0000 1.0000
28.4500 563.0000 1.0000
28.4600 579.0000 1.0000
28.4700 593.0000 1.0000
28.4800 599.0000 1.0000
28.4900 597.0000 1.0000
28.5000 630.0000 1.0000
28.5100 602.0000 1.0000
28.5200 641.0000 1.0000
28.5300 584.0000 1.0000
28.5400 609.0000 1.0000
28.5500 609.0000 1.0000
28.5600 599.0000 1.0000
28.5700 581.0000 1.0000
28.5800 604.0000 1.0000
28.5900 612.0000 1.0000
28.6000 601.0000 1.0000
28.6100 600.0000 1.0000
28.6200 611.0000 1.0000
28.6300 602.0000 1.0000
28.6400 631.0000 1.0000
28.6500 634.0000 1.0000
28.6600 583.0000 1.0000
28.6700 605.0000 1.0000
28.6800 596.0000 1.0000
28.6900 601.0000 1.0000
28.7000 621.0000 1.0000
28.7100 640.0000 1.0000
28.7200 644.0000 1.0000
28.7300 611.0000 1.0000
28.7400 585.0000 1.0000
28.7500 590.0000 1.0000
28.7600 595.0000 1.0000
28.7700 598.0000 1.0000
28.7800 617.0000 1.0000
28.7900 602.0000 1.0000
28.8000 614.0000 1.0000
28.8100 597.0000 1.0000
28.8200 619.0000 1.0000
28.8300 619.0000 1.0000
28.8400 591.0000 1.0000
28.8500 607.0000 1.0000
28.8600 595.0000 1.0000
28.8700 608.0000 1.0000
28.8800 591.0000 1.0000
28.8900 548.0000 1.0000
28.9000 595.0000 1.0000
28.9100 627.0000 1.0000
28.9200 620.0000 1.0000
28.9300 556.0000 1.0000
28.9400 631.0000 1.0000
28.9500 607.0000 1.0000
28.9600 616.0000 1.0000
28.9700 617.0000 1.0000
28.9800 581.0000 1.0000
28.9900 578.0000 1.0000
29.0000 610.0000 1.0000
29.0100 614.0000 1.0000
29.0200 607.0000 1.0000
29.0300 583.0000 1.0000
29.0400 606.0000 1.0000
29.0500 624.0000 1.0000
29.0600 586.0000 1.0000
29.0700 585.0000 1.0000
29.0800 559.0000 1.0000
29.0900 599.0000 1.0000
29.1000 632.0000 1.0000
29.1100 553.0000 1.0000
29.1200 602.0000 1.0000
29.1300 624.0000 1.0000
29.1400 608.0000 1.0000
29.1500 590.0000 1.0000
29.1600 590.0000 1.0000
29.1700 637.0000 1.0000
29.1800 606.0000 1.0000
29.1900 613.0000 1.0000
29.2000 599.0000 1.0000
29.2100 583.0000 1.0000
29.2200 588.0000 1.0000
29.2300 570.0000 1.0000
29.2400 547.0000 1.0000
29.2500 578.0000 1.0000
29.2600 603.0000 1.0000
29.2700 654.0000 1.0000
29.2800 575.0000 1.0000
29.2900 556.0000 1.0000
29.3000 602.0000 1.0000
29.3100 592.0000 1.0000
29.3200 601.0000 1.0000
29.3300 568.0000 1.0000
29.3400 598.0000 1.0000
29.3500 570.0000 1.0000
29.3600 600.0000 1.0000
29.3700 587.0000 1.0000
29.3800 580.0000 1.0000
29.3900 579.0000 1.0000
29.4000 604.0000 1.0000
29.4100 603.0000 1.0000
29.4200 570.0000 1.0000
29.4300 637.0000 1.0000
29.4400 585.0000 1.0000
29.4500 571.0000 1.0000
29.4600 585.0000 1.0000
29.4700 614.0000 1.0000
29.4800 596.0000 1.0000
29.4900 614.0000 1.0000
29.5000 557.0000 1.0000
29.5100 573.0000 1.0000
29.5200 564.0000 1.0000
29.5300 553.0000 1.0000
29.5400 584.0000 1.0000
29.5500 570.0000 1.0000
29.5600 576.0000 1.0000
29.5700 609.0000 1.0000
29.5800 571.0000 1.0000
29.5900 585.0000 1.0000
29.6000 561.0000 1.0000
29.6100 589.0000 1.0000
29.6200 584.0000 1.0000
29.6300 593.0000 1.0000
29.6400 585.0000 1.0000
29.6500 615.0000 1.0000
29.6600 594.0000 1.0000
29.6700 552.0000 1.0000
29.6800 609.0000 1.0000
29.6900 566.0000 1.0000
29.7000 587.0000 1.0000
29.7100 579.0000 1.0000
29.7200 601.0000 1.0000
29.7300 583.0000 1.0000
29.7400 591.0000 1.0000
29.7500 602.0000 1.0000
29.7600 589.0000 1.0000
29.7700 569.0000 1.0000
29.7800 550.0000 1.0000
29.7900 576.0000 1.0000
29.8000 592.0000 1.0000
29.8100 586.0000 1.0000
29.8200 549.0000 1.0000
29.8300 567.0000 1.0000
29.8400 593.0000 1.0000
29.8500 586.0000 1.0000
29.8600 566.0000 1.0000
29.8700 547.0000 1.0000
29.8800 594.0000 1.0000
29.8900 619.0000 1.0000
29.9000 597.0000 1.0000
29.9100 608.0000 1.0000
29.9200 564.0000 1.0000
29.9300 577.0000 1.0000
29.9400 559.0000 1.0000
29.9500 528.0000 1.0000
29.9600 576.0000 1.0000
29.9700 576.0000 1.0000
29.9800 532.0000 1.0000
29.9900 612.0000 1.0000
30.0000 562.0000 1.0000
30.0100 574.0000 1.0000
30.0200 557.0000 1.0000
30.0300 572.0000 1.0000
30.0400 581.0000 1.0000
30.0500 568.0000 1.0000
30.0600 535.0000 1.0000
30.0700 594.0000 1.0000
30.0800 581.0000 1.0000
30.0900 568.0000 1.0000
30.1000 573.0000 1.0000
30.1100 560.0000 1.0000
30.1200 575.0000 1.0000
30.1300 592.0000 1.0000
30.1400 595.0000 1.0000
30.1500 564.0000 1.0000
30.1600 573.0000 1.0000
30.1700 585.0000 1.0000
30.1800 594.0000 1.0000
30.1900 554.0000 1.0000
30.2000 579.0000 1.0000
30.2100 556.0000 1.0000
30.2200 559.0000 1.0000
30.2300 598.0000 1.0000
30.2400 601.0000 1.0000
30.2500 572.0000 1.0000
30.2600 558.0000 1.0000
30.2700 554.0000 1.0000
30.2800 538.0000 1.0000
30.2900 550.0000 1.0000
30.3000 566.0000 1.0000
30.3100 576.0000 1.0000
30.3200 548.0000 1.0000
30.3300 562.0000 1.0000
30.3400 529.0000 1.0000
30.3500 558.0000 1.0000
30.3600 562.0000 1.0000
30.3700 560.0000 1.0000
30.3800 533.0000 1.0000
30.3900 530.0000 1.0000
30.4000 555.0000 1.0000
30.4100 576.0000 1.0000
30.4200 584.0000 1.0000
30.4300 554.0000 1.0000
30.4400 559.0000 1.0000
30.4500 555.0000 1.0000
30.4600 549.0000 1.0000
30.4700 566.0000 1.0000
30.4800 571.0000 1.0000
30.4900 562.0000 1.0000
30.5000 553.0000 1.0000
30.5100 552.0000 1.0000
30.5200 587.0000 1.0000
30.5300 552.0000 1.0000
30.5400 577.0000 1.0000
30.5500 559.0000 1.0000
30.5600 538.0000 1.0000
30.5700 564.0000 1.0000
30.5800 568.0000 1.0000
30.5900 549.0000 1.0000
30.6000 556.0000 1.0000
30.6100 553.0000 1.0000
30.6200 561.0000 1.0000
30.6300 585.0000 1.0000
30.6400 584.0000 1.0000
30.6500 540.0000 1.0000
30.6600 540.0000 1.0000
30.6700 501.0000 1.0000
30.6800 563.0000 1.0000
30.6900 530.0000 1.0000
30.7000 524.0000 1.0000
30.7100 487.0000 1.0000
30.7200 541.0000 1.0000
30.7300 583.0000 1.0000
30.7400 562.0000 1.0000
30.7500 570.0000 1.0000
30.7600 556.0000 1.0000
30.7700 522.0000 1.0000
30.7800 537.0000 1.0000
30.7900 545.0000 1.0000
30.8000 547.0000 1.0000
30.8100 571.0000 1.0000
30.8200 528.0000 1.0000
30.8300 562.0000 1.0000
30.8400 550.0000 1.0000
30.8500 558.0000 1.0000
30.8600 560.0000 1.0000
30.8700 558.0000 1.0000
30.8800 541.0000 1.0000
30.8900 529.0000 1.0000
30.9000 564.0000 1.0000
30.9100 528.0000 1.0000
30.9200 512.0000 1.0000
30.9300 550.0000 1.0000
30.9400 563.0000 1.0000
30.9500 547.0000 1.0000
30.9600 536.0000 1.0000
30.9700 529.0000 1.0000
30.9800 565.0000 1.0000
30.9900 566.0000 1.0000
31.0000 549.0000 1.0000
31.0100 587.0000 1.0000
31.0200 557.0000 1.0000
31.0300 549.0000 1.0000
31.0400 556.0000 1.0000
31.0500 579.0000 1.0000
31.0600 531.0000 1.0000
31.0700 565.0000 1.0000
31.0800 569.0000 1.0000
31.0900 564.0000 1.0000
31.1000 530.0000 1.0000
31.1100 547.0000 1.0000
31.1200 560.0000 1.0000
31.1300 586.0000 1.0000
31.1400 578.0000 1.0000
31.1500 596.0000 1.0000
31.1600 568.0000 1.0000
31.1700 610.0000 1.0000
31.1800 621.0000 1.0000
31.1900 588.0000 1.0000
31.2000 568.0000 1.0000
31.2100 557.0000 1.0000
31.2200 587.0000 1.0000
31.2300 570.0000 1.0000
31.2400 549.0000 1.0000
31.2500 571.0000 1.0000
31.2600 559.0000 1.0000
31.2700 570.0000 1.0000
31.2800 575.0000 1.0000
31.2900 559.0000 1.0000
31.3000 529.0000 1.0000
31.3100 538.0000 1.0000
31.3200 566.0000 1.0000
31.3300 548.0000 1.0000
31.3400 566.0000 1.0000
31.3500 589.0000 1.0000
31.3600 501.0000 1.0000
31.3700 566.0000 1.0000
31.3800 539.0000 1.0000
31.3900 544.0000 1.0000
31.4000 562.0000 1.0000
31.4100 558.0000 1.0000
31.4200 568.0000 1.0000
31.4300 566.0000 1.0000
31.4400 542.0000 1.0000
31.4500 524.0000 1.0000
31.4600 543.0000 1.0000
31.4700 536.0000 1.0000
31.4800 532.0000 1.0000
31.4900 541.0000 1.0000
31.5000 565.0000 1.0000
31.5100 544.0000 1.0000
31.5200 544.0000 1.0000
31.5300 530.0000 1.0000
31.5400 526.0000 1.0000
31.5500 550.0000 1.0000
31.5600 544.0000 1.0000
31.5700 533.0000 1.0000
31.5800 549.0000 1.0000
31.5900 571.0000 1.0000
31.6000 532.0000 1.0000
31.6100 538.0000 1.0000
31.6200 556.0000 1.0000
31.6300 528.0000 1.0000
31.6400 560.0000 1.0000
31.6500 547.0000 1.0000
31.6600 537.0000 1.0000
31.6700 573.0000 1.0000
31.6800 538.0000 1.0000
31.6900 510.0000 1.0000
31.7000 530.0000 1.0000
31.7100 553.0000 1.0000
31.7200 535.0000 1.0000
31.7300 523.0000 1.0000
31.7400 525.0000 1.0000
31.7500 535.0000 1.0000
31.7600 560.0000 1.0000
31.7700 551.0000 1.0000
31.7800 487.0000 1.0000
31.7900 521.0000 1.0000
31.8000 543.0000 1.0000
31.8100 526.0000 1.0000
31.8200 542.0000 1.0000
31.8300 560.0000 1.0000
31.8400 545.0000 1.0000
31.8500 569.0000 1.0000
31.8600 505.0000 1.0000
31.8700 517.0000 1.0000
31.8800 486.0000 1.0000
31.8900 525.0000 1.0000
31.9000 530.0000 1.0000
31.9100 536.0000 1.0000
31.9200 512.0000 1.0000
31.9300 509.0000 1.0000
31.9400 506.0000 1.0000
31.9500 499.0000 1.0000
31.9600 546.0000 1.0000
31.9700 510.0000 1.0000
31.9800 521.0000 1.0000
31.9900 529.0000 1.0000
32.0000 535.0000 1.0000
32.0100 494.0000 1.0000
32.0200 485.0000 1.0000
32.0300 536.0000 1.0000
32.0400 572.0000 1.0000
32.0500 538.0000 1.0000
32.0600 513.0000 1.0000
32.0700 558.0000 1.0000
32.0800 556.0000 1.0000
32.0900 533.0000 1.0000
32.1000 523.0000 1.0000
32.1100 523.0000 1.0000
32.1200 511.0000 1.0000
32.1300 503.0000 1.0000
32.1400 463.0000 1.0000
32.1500 529.0000 1.0000
32.1600 526.0000 1.0000
32.1700 496.0000 1.0000
32.1800 508.0000 1.0000
32.1900 515.0000 1.0000
32.2000 518.0000 1.0000
32.2100 499.0000 1.0000
32.2200 513.0000 1.0000
32.2300 528.0000 1.0000
32.2400 518.0000 1.0000
32.2500 513.0000 1.0000
32.2600 532.0000 1.0000
32.2700 527.0000 1.0000
32.2800 528.0000 1.0000
32.2900 506.0000 1.0000
32.3000 525.0000 1.0000
32.3100 488.0000 1.0000
32.3200 508.0000 1.0000
32.3300 513.0000 1.0000
32.3400 515.0000 1.0000
32.3500 505.0000 1.0000
32.3600 530.0000 1.0000
32.3700 503.0000 1.0000
32.3800 551.0000 1.0000
32.3900 525.0000 1.0000
32.4000 523.0000 1.0000
32.4100 538.0000 1.0000
32.4200 544.0000 1.0000
32.4300 534.0000 1.0000
32.4400 514.0000 1.0000
32.4500 518.0000 1.0000
32.4600 481.0000 1.0000
32.4700 544.0000 1.0000
32.4800 504.0000 1.0000
32.4900 511.0000 1.0000
32.5000 516.0000 1.0000
32.5100 508.0000 1.0000
32.5200 525.0000 1.0000
32.5300 518.0000 1.0000
32.5400 503.0000 1.0000
32.5500 505.0000 1.0000
32.5600 535.0000 1.0000
32.5700 515.0000 1.0000
32.5800 505.0000 1.0000
32.5900 517.0000 1.0000
32.6000 528.0000 1.0000
32.6100 500.0000 1.0000
32.6200 533.0000 1.0000
32.6300 491.0000 1.0000
32.6400 483.0000 1.0000
32.6500 524.0000 1.0000
32.6600 500.0000 1.0000
32.6700 516.0000 1.0000
32.6800 541.0000 1.0000
32.6900 524.0000 1.0000
32.7000 555.0000 1.0000
32.7100 538.0000 1.0000
32.7200 537.0000 1.0000
32.7300 527.0000 1.0000
32.7400 516.0000 1.0000
32.7500 524.0000 1.0000
32.7600 519.0000 1.0000
32.7700 538.0000 1.0000
32.7800 519.0000 1.0000
32.7900 533.0000 1.0000
32.8000 521.0000 1.0000
32.8100 539.0000 1.0000
32.8200 506.0000 1.0000
32.8300 483.0000 1.0000
32.8400 504.0000 1.0000
32.8500 528.0000 1.0000
32.8600 515.0000 1.0000
32.8700 572.0000 1.0000
32.8800 543.0000 1.0000
32.8900 517.0000 1.0000
32.9000 547.0000 1.0000
32.9100 530.0000 1.0000
32.9200 532.0000 1.0000
32.9300 547.0000 1.0000
32.9400 547.0000 1.0000
32.9500 564.0000 1.0000
32.9600 529.0000 1.0000
32.9700 556.0000 1.0000
32.9800 564.0000 1.0000
32.9900 597.0000 1.0000
33.0000 591.0000 1.0000
33.0100 584.0000 1.0000
33.0200 578.0000 1.0000
33.0300 610.0000 1.0000
33.0400 579.0000 1.0000
33.0500 587.0000 1.0000
33.0600 595.0000 1.0000
33.0700 592.0000 1.0000
33.0800 554.0000 1.0000
33.0900 584.0000 1.0000
33.1000 624.0000 1.0000
33.1100 629.0000 1.0000
33.1200 631.0000 1.0000
33.1300 607.0000 1.0000
33.1400 600.0000 1.0000
33.1500 603.0000 1.0000
33.1600 589.0000 1.0000
33.1700 610.0000 1.0000
33.1800 607.0000 1.0000
33.1900 624.0000 1.0000
33.2000 603.0000 1.0000
33.2100 569.0000 1.0000
33.2200 578.0000 1.0000
33.2300 602.0000 1.0000
33.2400 566.0000 1.0000
33.2500 586.0000 1.0000
33.2600 561.0000 1.0000
33.2700 581.0000 1.0000
33.2800 518.0000 1.0000
33.2900 539.0000 1.0000
33.3000 581.0000 1.0000
33.3100 577.0000 1.0000
33.3200 535.0000 1.0000
33.3300 541.0000 1.0000
33.3400 593.0000 1.0000
33.3500 560.0000 1.0000
33.3600 543.0000 1.0000
33.3700 566.0000 1.0000
33.3800 564.0000 1.0000
33.3900 587.0000 1.0000
33.4000 562.0000 1.0000
33.4100 573.0000 1.0000
33.4200 546.0000 1.0000
33.4300 571.0000 1.0000
33.4400 599.0000 1.0000
33.4500 593.0000 1.0000
33.4600 581.0000 1.0000
33.4700 586.0000 1.0000
33.4800 548.0000 1.0000
33.4900 586.0000 1.0000
33.5000 635.0000 1.0000
33.5100 607.0000 1.0000
33.5200 610.0000 1.0000
33.5300 602.0000 1.0000
33.5400 622.0000 1.0000
33.5500 658.0000 1.0000
33.5600 599.0000 1.0000
33.5700 639.0000 1.0000
33.5800 639.0000 1.0000
33.5900 596.0000 1.0000
33.6000 646.0000 1.0000
33.6100 623.0000 1.0000
33.6200 700.0000 1.0000
33.6300 692.0000 1.0000
33.6400 642.0000 1.0000
33.6500 705.0000 1.0000
33.6600 692.0000 1.0000
33.6700 659.0000 1.0000
33.6800 683.0000 1.0000
33.6900 693.0000 1.0000
33.7000 722.0000 1.0000
33.7100 638.0000 1.0000
33.7200 689.0000 1.0000
33.7300 711.0000 1.0000
33.7400 698.0000 1.0000
33.7500 622.0000 1.0000
33.7600 678.0000 1.0000
33.7700 643.0000 1.0000
33.7800 651.0000 1.0000
33.7900 633.0000 1.0000
33.8000 655.0000 1.0000
33.8100 646.0000 1.0000
33.8200 653.0000 1.0000
33.8300 628.0000 1.0000
33.8400 618.0000 1.0000
33.8500 587.0000 1.0000
33.8600 552.0000 1.0000
33.8700 600.0000 1.0000
33.8800 578.0000 1.0000
33.8900 601.0000 1.0000
33.9000 581.0000 1.0000
33.9100 567.0000 1.0000
33.9200 600.0000 1.0000
33.9300 585.0000 1.0000
33.9400 557.0000 1.0000
33.9500 542.0000 1.0000
33.9600 542.0000 1.0000
33.9700 569.0000 1.0000
33.9800 554.0000 1.0000
33.9900 508.0000 1.0000
34.0000 550.0000 1.0000
34.0100 515.0000 1.0000
34.0200 506.0000 1.0000
34.0300 518.0000 1.0000
34.0400 526.0000 1.0000
34.0500 521.0000 1.0000
34.0600 491.0000 1.0000
34.0700 495.0000 1.0000
34.0800 517.0000 1.0000
34.0900 523.0000 1.0000
34.1000 522.0000 1.0000
34.1100 517.0000 1.0000
34.1200 513.0000 1.0000
34.1300 511.0000 1.0000
34.1400 500.0000 1.0000
34.1500 484.0000 1.0000
34.1600 491.0000 1.0000
34.1700 513.0000 1.0000
34.1800 502.0000 1.0000
34.1900 477.0000 1.0000
34.2000 470.0000 1.0000
34.2100 478.0000 1.0000
34.2200 500.0000 1.0000
34.2300 504.0000 1.0000
34.2400 506.0000 1.0000
34.2500 515.0000 1.0000
34.2600 504.0000 1.0000
34.2700 452.0000 1.0000
34.2800 458.0000 1.0000
34.2900 463.0000 1.0000
34.3000 474.0000 1.0000
34.3100 475.0000 1.0000
34.3200 485.0000 1.0000
34.3300 489.0000 1.0000
34.3400 463.0000 1.0000
34.3500 448.0000 1.0000
34.3600 486.0000 1.0000
34.3700 486.0000 1.0000
34.3800 454.0000 1.0000
34.3900 497.0000 1.0000
34.4000 472.0000 1.0000
34.4100 469.0000 1.0000
34.4200 481.0000 1.0000
34.4300 469.0000 1.0000
34.4400 467.0000 1.0000
34.4500 452.0000 1.0000
34.4600 471.0000 1.0000
34.4700 489.0000 1.0000
34.4800 450.0000 1.0000
34.4900 422.0000 1.0000
34.5000 455.0000 1.0000
34.5100 438.0000 1.0000
34.5200 474.0000 1.0000
34.5300 468.0000 1.0000
34.5400 497.0000 1.0000
34.5500 458.0000 1.0000
34.5600 436.0000 1.0000
34.5700 444.0000 1.0000
34.5800 479.0000 1.0000
34.5900 449.0000 1.0000
34.6000 471.0000 1.0000
34.6100 489.0000 1.0000
34.6200 431.0000 1.0000
34.6300 515.0000 1.0000
34.6400 492.0000 1.0000
34.6500 456.0000 1.0000
34.6600 434.0000 1.0000
34.6700 473.0000 1.0000
34.6800 465.0000 1.0000
34.6900 462.0000 1.0000
34.7000 452.0000 1.0000
34.7100 445.0000 1.0000
34.7200 473.0000 1.0000
34.7300 416.0000 1.0000
34.7400 460.0000 1.0000
34.7500 428.0000 1.0000
34.7600 459.0000 1.0000
34.7700 431.0000 1.0000
34.7800 445.0000 1.0000
34.7900 434.0000 1.0000
34.8000 456.0000 1.0000
34.8100 491.0000 1.0000
34.8200 458.0000 1.0000
34.8300 463.0000 1.0000
34.8400 468.0000 1.0000
34.8500 480.0000 1.0000
34.8600 466.0000 1.0000
34.8700 475.0000 1.0000
34.8800 475.0000 1.0000
34.8900 465.0000 1.0000
34.9000 446.0000 1.0000
34.9100 458.0000 1.0000
34.9200 469.0000 1.0000
34.9300 439.0000 1.0000
34.9400 459.0000 1.0000
34.9500 422.0000 1.0000
34.9600 466.0000 1.0000
34.9700 442.0000 1.0000
34.9800 454.0000 1.0000
34.9900 451.0000 1.0000
35.0000 422.0000 1.0000
35.0100 463.0000 1.0000
35.0200 434.0000 1.0000
35.0300 407.0000 1.0000
35.0400 459.0000 1.0000
35.0500 430.0000 1.0000
35.0600 482.0000 1.0000
35.0700 459.0000 1.0000
35.0800 430.0000 1.0000
35.0900 455.0000 1.0000
35.1000 461.0000 1.0000
35.1100 462.0000 1.0000
35.1200 461.0000 1.0000
35.1300 491.0000 1.0000
35.1400 464.0000 1.0000
35.1500 465.0000 1.0000
35.1600 455.0000 1.0000
35.1700 480.0000 1.0000
35.1800 479.0000 1.0000
35.1900 435.0000 1.0000
35.2000 456.0000 1.0000
35.2100 431.0000 1.0000
35.2200 486.0000 1.0000
35.2300 464.0000 1.0000
35.2400 474.0000 1.0000
35.2500 457.0000 1.0000
35.2600 457.0000 1.0000
35.2700 500.0000 1.0000
35.2800 500.0000 1.0000
35.2900 498.0000 1.0000
35.3000 471.0000 1.0000
35.3100 543.0000 1.0000
35.3200 506.0000 1.0000
35.3300 533.0000 1.0000
35.3400 508.0000 1.0000
35.3500 550.0000 1.0000
35.3600 540.0000 1.0000
35.3700 531.0000 1.0000
35.3800 545.0000 1.0000
35.3900 525.0000 1.0000
35.4000 571.0000 1.0000
35.4100 607.0000 1.0000
35.4200 566.0000 1.0000
35.4300 577.0000 1.0000
35.4400 598.0000 1.0000
35.4500 638.0000 1.0000
35.4600 611.0000 1.0000
35.4700 651.0000 1.0000
35.4800 632.0000 1.0000
35.4900 674.0000 1.0000
35.5000 723.0000 1.0000
35.5100 761.0000 1.0000
35.5200 789.0000 1.0000
35.5300 760.0000 1.0000
35.5400 799.0000 1.0000
35.5500 837.0000 1.0000
35.5600 836.0000 1.0000
35.5700 864.0000 1.0000
35.5800 871.0000 1.0000
35.5900 879.0000 1.0000
35.6000 849.0000 1.0000
35.6100 871.0000 1.0000
35.6200 854.0000 1.0000
35.6300 807.0000 1.0000
35.6400 807.0000 1.0000
35.6500 864.0000 1.0000
35.6600 856.0000 1.0000
35.6700 791.0000 1.0000
35.6800 783.0000 1.0000
35.6900 768.0000 1.0000
35.7000 717.0000 1.0000
35.7100 668.0000 1.0000
35.7200 655.0000 1.0000
35.7300 675.0000 1.0000
35.7400 632.0000 1.0000
35.7500 597.0000 1.0000
35.7600 555.0000 1.0000
35.7700 591.0000 1.0000
35.7800 573.0000 1.0000
35.7900 553.0000 1.0000
35.8000 493.0000 1.0000
35.8100 498.0000 1.0000
35.8200 540.0000 1.0000
35.8300 507.0000 1.0000
35.8400 490.0000 1.0000
35.8500 492.0000 1.0000
35.8600 483.0000 1.0000
35.8700 486.0000 1.0000
35.8800 483.0000 1.0000
35.8900 453.0000 1.0000
35.9000 427.0000 1.0000
35.9100 437.0000 1.0000
35.9200 442.0000 1.0000
35.9300 421.0000 1.0000
35.9400 455.0000 1.0000
35.9500 473.0000 1.0000
35.9600 442.0000 1.0000
35.9700 436.0000 1.0000
35.9800 460.0000 1.0000
35.9900 444.0000 1.0000
36.0000 431.0000 1.0000
36.0100 433.0000 1.0000
36.0200 447.0000 1.0000
36.0300 439.0000 1.0000
36.0400 433.0000 1.0000
36.0500 431.0000 1.0000
36.0600 448.0000 1.0000
36.0700 457.0000 1.0000
36.0800 426.0000 1.0000
36.0900 427.0000 1.0000
36.1000 411.0000 1.0000
36.1100 446.0000 1.0000
36.1200 435.0000 1.0000
36.1300 444.0000 1.0000
36.1400 399.0000 1.0000
36.1500 401.0000 1.0000
36.1600 459.0000 1.0000
36.1700 421.0000 1.0000
36.1800 430.0000 1.0000
36.1900 430.0000 1.0000
36.2000 436.0000 1.0000
36.2100 439.0000 1.0000
36.2200 417.0000 1.0000
36.2300 410.0000 1.0000
36.2400 452.0000 1.0000
36.2500 421.0000 1.0000
36.2600 457.0000 1.0000
36.2700 422.0000 1.0000
36.2800 444.0000 1.0000
36.2900 415.0000 1.0000
36.3000 422.0000 1.0000
36.3100 434.0000 1.0000
36.3200 447.0000 1.0000
36.3300 434.0000 1.0000
36.3400 449.0000 1.0000
36.3500 416.0000 1.0000
36.3600 411.0000 1.0000
36.3700 442.0000 1.0000
36.3800 458.0000 1.0000
36.3900 445.0000 1.0000
36.4000 433.0000 1.0000
36.4100 417.0000 1.0000
36.4200 398.0000 1.0000
36.4300 432.0000 1.0000
36.4400 416.0000 1.0000
36.4500 413.0000 1.0000
36.4600 400.0000 1.0000
36.4700 429.0000 1.0000
36.4800 409.0000 1.0000
36.4900 434.0000 1.0000
36.5000 451.0000 1.0000
36.5100 427.0000 1.0000
36.5200 413.0000 1.0000
36.5300 437.0000 1.0000
36.5400 440.0000 1.0000
36.5500 438.0000 1.0000
36.5600 462.0000 1.0000
36.5700 427.0000 1.0000
36.5800 459.0000 1.0000
36.5900 434.0000 1.0000
36.6000 398.0000 1.0000
36.6100 416.0000 1.0000
36.6200 435.0000 1.0000
36.6300 433.0000 1.0000
36.6400 435.0000 1.0000
36.6500 423.0000 1.0000
36.6600 437.0000 1.0000
36.6700 434.0000 1.0000
36.6800 445.0000 1.0000
36.6900 425.0000 1.0000
36.7000 402.0000 1.0000
36.7100 425.0000 1.0000
36.7200 406.0000 1.0000
36.7300 430.0000 1.0000
36.7400 397.0000 1.0000
36.7500 413.0000 1.0000
36.7600 429.0000 1.0000
36.7700 461.0000 1.0000
36.7800 439.0000 1.0000
36.7900 395.0000 1.0000
36.8000 410.0000 1.0000
36.8100 441.0000 1.0000
36.8200 420.0000 1.0000
36.8300 424.0000 1.0000
36.8400 411.0000 1.0000
36.8500 417.0000 1.0000
36.8600 433.0000 1.0000
36.8700 406.0000 1.0000
36.8800 424.0000 1.0000
36.8900 443.0000 1.0000
36.9000 420.0000 1.0000
36.9100 433.0000 1.0000
36.9200 418.0000 1.0000
36.9300 475.0000 1.0000
36.9400 442.0000 1.0000
36.9500 420.0000 1.0000
36.9600 439.0000 1.0000
36.9700 450.0000 1.0000
36.9800 453.0000 1.0000
36.9900 428.0000 1.0000
37.0000 443.0000 1.0000
37.0100 436.0000 1.0000
37.0200 410.0000 1.0000
37.0300 443.0000 1.0000
37.0400 413.0000 1.0000
37.0500 445.0000 1.0000
37.0600 457.0000 1.0000
37.0700 441.0000 1.0000
37.0800 429.0000 1.0000
37.0900 413.0000 1.0000
37.1000 469.0000 1.0000
37.1100 424.0000 1.0000
37.1200 465.0000 1.0000
37.1300 442.0000 1.0000
37.1400 444.0000 1.0000
37.1500 478.0000 1.0000
37.1600 475.0000 1.0000
37.1700 456.0000 1.0000
37.1800 465.0000 1.0000
37.1900 437.0000 1.0000
37.2000 463.0000 1.0000
37.2100 451.0000 1.0000
37.2200 487.0000 1.0000
37.2300 482.0000 1.0000
37.2400 484.0000 1.0000
37.2500 465.0000 1.0000
37.2600 492.0000 1.0000
37.2700 497.0000 1.0000
37.2800 490.0000 1.0000
37.2900 512.0000 1.0000
37.3000 524.0000 1.0000
37.3100 526.0000 1.0000
37.3200 568.0000 1.0000
37.3300 560.0000 1.0000
37.3400 520.0000 1.0000
37.3500 546.0000 1.0000
37.3600 574.0000 1.0000
37.3700 599.0000 1.0000
37.3800 634.0000 1.0000
37.3900 599.0000 1.0000
37.4000 622.0000 1.0000
37.4100 686.0000 1.0000
37.4200 650.0000 1.0000
37.4300 672.0000 1.0000
37.4400 710.0000 1.0000
37.4500 736.0000 1.0000
37.4600 789.0000 1.0000
37.4700 786.0000 1.0000
37.4800 811.0000 1.0000
37.4900 915.0000 1.0000
37.5000 858.0000 1.0000
37.5100 929.0000 1.0000
37.5200 945.0000 1.0000
37.5300 1000.0000 1.0000
37.5400 1128.0000 1.0000
37.5500 1105.0000 1.0000
37.5600 1176.0000 1.0000
37.5700 1272.0000 1.0000
37.5800 1377.0000 1.0000
37.5900 1467.0000 1.0000
37.6000 1487.0000 1.0000
37.6100 1645.0000 1.0000
37.6200 1732.0000 1.0000
37.6300 1869.0000 1.0000
37.6400 2032.0000 1.0000
37.6500 2142.0000 1.0000
37.6600 2209.0000 1.0000
37.6700 2386.0000 1.0000
37.6800 2463.0000 1.0000
37.6900 2651.0000 1.0000
37.7000 2705.0000 1.0000
37.7100 2811.0000 1.0000
37.7200 2882.0000 1.0000
37.7300 2992.0000 1.0000
37.7400 3052.0000 1.0000
37.7500 3070.0000 1.0000
37.7600 3111.0000 1.0000
37.7700 3091.0000 1.0000
37.7800 3115.0000 1.0000
37.7900 2967.0000 1.0000
37.8000 2901.0000 1.0000
37.8100 2812.0000 1.0000
37.8200 2690.0000 1.0000
37.8300 2574.0000 1.0000
37.8400 2448.0000 1.0000
37.8500 2330.0000 1.0000
37.8600 2287.0000 1.0000
37.8700 2098.0000 1.0000
37.8800 1976.0000 1.0000
37.8900 1858.0000 1.0000
37.9000 1727.0000 1.0000
37.9100 1599.0000 1.0000
37.9200 1524.0000 1.0000
37.9300 1452.0000 1.0000
37.9400 1385.0000 1.0000
37.9500 1275.0000 1.0000
37.9600 1123.0000 1.0000
37.9700 1095.0000 1.0000
37.9800 1052.0000 1.0000
37.9900 1012.0000 1.0000
38.0000 973.0000 1.0000
38.0100 899.0000 1.0000
38.0200 853.0000 1.0000
38.0300 768.0000 1.0000
38.0400 754.0000 1.0000
38.0500 738.0000 1.0000
38.0600 709.0000 1.0000
38.0700 737.0000 1.0000
38.0800 662.0000 1.0000
38.0900 653.0000 1.0000
38.1000 588.0000 1.0000
38.1100 623.0000 1.0000
38.1200 602.0000 1.0000
38.1300 618.0000 1.0000
38.1400 575.0000 1.0000
38.1500 569.0000 1.0000
38.1600 584.0000 1.0000
38.1700 487.0000 1.0000
38.1800 543.0000 1.0000
38.1900 566.0000 1.0000
38.2000 516.0000 1.0000
38.2100 483.0000 1.0000
38.2200 482.0000 1.0000
38.2300 478.0000 1.0000
38.2400 492.0000 1.0000
38.2500 467.0000 1.0000
38.2600 473.0000 1.0000
38.2700 446.0000 1.0000
38.2800 450.0000 1.0000
38.2900 428.0000 1.0000
38.3000 409.0000 1.0000
38.3100 430.0000 1.0000
38.3200 444.0000 1.0000
38.3300 465.0000 1.0000
38.3400 419.0000 1.0000
38.3500 423.0000 1.0000
38.3600 409.0000 1.0000
38.3700 485.0000 1.0000
38.3800 442.0000 1.0000
38.3900 421.0000 1.0000
38.4000 407.0000 1.0000
38.4100 431.0000 1.0000
38.4200 397.0000 1.0000
38.4300 408.0000 1.0000
38.4400 402.0000 1.0000
38.4500 437.0000 1.0000
38.4600 434.0000 1.0000
38.4700 431.0000 1.0000
38.4800 438.0000 1.0000
38.4900 411.0000 1.0000
38.5000 458.0000 1.0000
38.5100 405.0000 1.0000
38.5200 397.0000 1.0000
38.5300 392.0000 1.0000
38.5400 395.0000 1.0000
38.5500 406.0000 1.0000
38.5600 377.0000 1.0000
38.5700 402.0000 1.0000
38.5800 398.0000 1.0000
38.5900 422.0000 1.0000
38.6000 385.0000 1.0000
38.6100 359.0000 1.0000
38.6200 396.0000 1.0000
38.6300 382.0000 1.0000
38.6400 368.0000 1.0000
38.6500 371.0000 1.0000
38.6600 390.0000 1.0000
38.6700 404.0000 1.0000
38.6800 391.0000 1.0000
38.6900 367.0000 1.0000
38.7000 358.0000 1.0000
38.7100 415.0000 1.0000
38.7200 419.0000 1.0000
38.7300 399.0000 1.0000
38.7400 384.0000 1.0000
38.7500 395.0000 1.0000
38.7600 367.0000 1.0000
38.7700 389.0000 1.0000
38.7800 380.0000 1.0000
38.7900 385.0000 1.0000
38.8000 391.0000 1.0000
38.8100 381.0000 1.0000
38.8200 358.0000 1.0000
38.8300 398.0000 1.0000
38.8400 392.0000 1.0000
38.8500 362.0000 1.0000
38.8600 424.0000 1.0000
38.8700 376.0000 1.0000
38.8800 399.0000 1.0000
38.8900 393.0000 1.0000
38.9000 358.0000 1.0000
38.9100 385.0000 1.0000
38.9200 343.0000 1.0000
38.9300 350.0000 1.0000
38.9400 330.0000 1.0000
38.9500 367.0000 1.0000
38.9600 405.0000 1.0000
38.9700 372.0000 1.0000
38.9800 366.0000 1.0000
38.9900 365.0000 1.0000
39.0000 378.0000 1.0000
39.0100 356.0000 1.0000
39.0200 381.0000 1.0000
39.0300 338.0000 1.0000
39.0400 371.0000 1.0000
39.0500 343.0000 1.0000
39.0600 396.0000 1.0000
39.0700 383.0000 1.0000
39.0800 345.0000 1.0000
39.0900 372.0000 1.0000
39.1000 361.0000 1.0000
39.1100 365.0000 1.0000
39.1200 383.0000 1.0000
39.1300 373.0000 1.0000
39.1400 348.0000 1.0000
39.1500 375.0000 1.0000
39.1600 347.0000 1.0000
39.1700 349.0000 1.0000
39.1800 364.0000 1.0000
39.1900 361.0000 1.0000
39.2000 370.0000 1.0000
39.2100 372.0000 1.0000
39.2200 349.0000 1.0000
39.2300 368.0000 1.0000
39.2400 353.0000 1.0000
39.2500 394.0000 1.0000
39.2600 371.0000 1.0000
39.2700 355.0000 1.0000
39.2800 364.0000 1.0000
39.2900 370.0000 1.0000
39.3000 358.0000 1.0000
39.3100 337.0000 1.0000
39.3200 340.0000 1.0000
39.3300 355.0000 1.0000
39.3400 351.0000 1.0000
39.3500 348.0000 1.0000
39.3600 351.0000 1.0000
39.3700 337.0000 1.0000
39.3800 367.0000 1.0000
39.3900 351.0000 1.0000
39.4000 380.0000 1.0000
39.4100 369.0000 1.0000
39.4200 352.0000 1.0000
39.4300 339.0000 1.0000
39.4400 366.0000 1.0000
39.4500 346.0000 1.0000
39.4600 331.0000 1.0000
39.4700 353.0000 1.0000
39.4800 373.0000 1.0000
39.4900 342.0000 1.0000
39.5000 375.0000 1.0000
39.5100 330.0000 1.0000
39.5200 344.0000 1.0000
39.5300 339.0000 1.0000
39.5400 368.0000 1.0000
39.5500 333.0000 1.0000
39.5600 371.0000 1.0000
39.5700 377.0000 1.0000
39.5800 381.0000 1.0000
39.5900 381.0000 1.0000
39.6000 327.0000 1.0000
39.6100 338.0000 1.0000
39.6200 342.0000 1.0000
39.6300 350.0000 1.0000
39.6400 339.0000 1.0000
39.6500 349.0000 1.0000
39.6600 369.0000 1.0000
39.6700 343.0000 1.0000
39.6800 328.0000 1.0000
39.6900 338.0000 1.0000
39.7000 368.0000 1.0000
39.7100 330.0000 1.0000
39.7200 349.0000 1.0000
39.7300 335.0000 1.0000
39.7400 348.0000 1.0000
39.7500 358.0000 1.0000
39.7600 324.0000 1.0000
39.7700 338.0000 1.0000
39.7800 378.0000 1.0000
39.7900 344.0000 1.0000
39.8000 344.0000 1.0000
39.8100 341.0000 1.0000
39.8200 353.0000 1.0000
39.8300 346.0000 1.0000
39.8400 336.0000 1.0000
39.8500 344.0000 1.0000
39.8600 342.0000 1.0000
39.8700 336.0000 1.0000
39.8800 359.0000 1.0000
39.8900 331.0000 1.0000
39.9000 329.0000 1.0000
39.9100 358.0000 1.0000
39.9200 355.0000 1.0000
39.9300 346.0000 1.0000
39.9400 356.0000 1.0000
39.9500 338.0000 1.0000
39.9600 365.0000 1.0000
39.9700 356.0000 1.0000
39.9800 314.0000 1.0000
39.9900 358.0000 1.0000
40.0000 310.0000 1.0000
40.0100 327.0000 1.0000
40.0200 316.0000 1.0000
40.0300 352.0000 1.0000
40.0400 337.0000 1.0000
40.0500 356.0000 1.0000
40.0600 327.0000 1.0000
40.0700 380.0000 1.0000
40.0800 325.0000 1.0000
40.0900 331.0000 1.0000
40.1000 344.0000 1.0000
40.1100 337.0000 1.0000
40.1200 347.0000 1.0000
40.1300 360.0000 1.0000
40.1400 339.0000 1.0000
40.1500 354.0000 1.0000
40.1600 346.0000 1.0000
40.1700 340.0000 1.0000
40.1800 358.0000 1.0000
40.1900 365.0000 1.0000
40.2000 349.0000 1.0000
40.2100 337.0000 1.0000
40.2200 332.0000 1.0000
40.2300 356.0000 1.0000
40.2400 339.0000 1.0000
40.2500 328.0000 1.0000
40.2600 333.0000 1.0000
40.2700 340.0000 1.0000
40.2800 327.0000 1.0000
40.2900 348.0000 1.0000
40.3000 331.0000 1.0000
40.3100 335.0000 1.0000
40.3200 350.0000 1.0000
40.3300 321.0000 1.0000
40.3400 381.0000 1.0000
40.3500 345.0000 1.0000
40.3600 348.0000 1.0000
40.3700 337.0000 1.0000
40.3800 350.0000 1.0000
40.3900 376.0000 1.0000
40.4000 333.0000 1.0000
40.4100 328.0000 1.0000
40.4200 352.0000 1.0000
40.4300 378.0000 1.0000
40.4400 359.0000 1.0000
40.4500 358.0000 1.0000
40.4600 371.0000 1.0000
40.4700 333.0000 1.0000
40.4800 349.0000 1.0000
40.4900 352.0000 1.0000
40.5000 342.0000 1.0000
40.5100 355.0000 1.0000
40.5200 348.0000 1.0000
40.5300 319.0000 1.0000
40.5400 382.0000 1.0000
40.5500 363.0000 1.0000
40.5600 361.0000 1.0000
40.5700 327.0000 1.0000
40.5800 369.0000 1.0000
40.5900 363.0000 1.0000
40.6000 346.0000 1.0000
40.6100 329.0000 1.0000
40.6200 336.0000 1.0000
40.6300 352.0000 1.0000
40.6400 348.0000 1.0000
40.6500 345.0000 1.0000
40.6600 348.0000 1.0000
40.6700 350.0000 1.0000
40.6800 376.0000 1.0000
40.6900 362.0000 1.0000
40.7000 347.0000 1.0000
40.7100 328.0000 1.0000
40.7200 356.0000 1.0000
40.7300 323.0000 1.0000
40.7400 349.0000 1.0000
40.7500 385.0000 1.0000
40.7600 354.0000 1.0000
40.7700 364.0000 1.0000
40.7800 346.0000 1.0000
40.7900 313.0000 1.0000
40.8000 391.0000 1.0000
40.8100 376.0000 1.0000
40.8200 362.0000 1.0000
40.8300 364.0000 1.0000
40.8400 349.0000 1.0000
40.8500 383.0000 1.0000
40.8600 395.0000 1.0000
40.8700 361.0000 1.0000
40.8800 370.0000 1.0000
40.8900 333.0000 1.0000
40.9000 364.0000 1.0000
40.9100 347.0000 1.0000
40.9200 340.0000 1.0000
40.9300 336.0000 1.0000
40.9400 351.0000 1.0000
40.9500 382.0000 1.0000
40.9600 366.0000 1.0000
40.9700 364.0000 1.0000
40.9800 325.0000 1.0000
40.9900 348.0000 1.0000
41.0000 346.0000 1.0000
41.0100 330.0000 1.0000
41.0200 362.0000 1.0000
41.0300 320.0000 1.0000
41.0400 342.0000 1.0000
41.0500 333.0000 1.0000
41.0600 321.0000 1.0000
41.0700 345.0000 1.0000
41.0800 356.0000 1.0000
41.0900 347.0000 1.0000
41.1000 356.0000 1.0000
41.1100 363.0000 1.0000
41.1200 345.0000 1.0000
41.1300 315.0000 1.0000
41.1400 329.0000 1.0000
41.1500 332.0000 1.0000
41.1600 356.0000 1.0000
41.1700 298.0000 1.0000
41.1800 323.0000 1.0000
41.1900 317.0000 1.0000
41.2000 328.0000 1.0000
41.2100 343.0000 1.0000
41.2200 361.0000 1.0000
41.2300 337.0000 1.0000
41.2400 345.0000 1.0000
41.2500 326.0000 1.0000
41.2600 331.0000 1.0000
41.2700 342.0000 1.0000
41.2800 311.0000 1.0000
41.2900 348.0000 1.0000
41.3000 357.0000 1.0000
41.3100 341.0000 1.0000
41.3200 359.0000 1.0000
41.3300 354.0000 1.0000
41.3400 330.0000 1.0000
41.3500 348.0000 1.0000
41.3600 318.0000 1.0000
41.3700 325.0000 1.0000
41.3800 310.0000 1.0000
41.3900 329.0000 1.0000
41.4000 333.0000 1.0000
41.4100 342.0000 1.0000
41.4200 323.0000 1.0000
41.4300 325.0000 1.0000
41.4400 329.0000 1.0000
41.4500 354.0000 1.0000
41.4600 335.0000 1.0000
41.4700 344.0000 1.0000
41.4800 347.0000 1.0000
41.4900 363.0000 1.0000
41.5000 329.0000 1.0000
41.5100 335.0000 1.0000
41.5200 360.0000 1.0000
41.5300 357.0000 1.0000
41.5400 364.0000 1.0000
41.5500 319.0000 1.0000
41.5600 347.0000 1.0000
41.5700 326.0000 1.0000
41.5800 312.0000 1.0000
41.5900 305.0000 1.0000
41.6000 323.0000 1.0000
41.6100 356.0000 1.0000
41.6200 329.0000 1.0000
41.6300 312.0000 1.0000
41.6400 327.0000 1.0000
41.6500 302.0000 1.0000
41.6600 366.0000 1.0000
41.6700 337.0000 1.0000
41.6800 331.0000 1.0000
41.6900 342.0000 1.0000
41.7000 352.0000 1.0000
41.7100 306.0000 1.0000
41.7200 289.0000 1.0000
41.7300 315.0000 1.0000
41.7400 330.0000 1.0000
41.7500 338.0000 1.0000
41.7600 302.0000 1.0000
41.7700 316.0000 1.0000
41.7800 346.0000 1.0000
41.7900 347.0000 1.0000
41.8000 319.0000 1.0000
41.8100 331.0000 1.0000
41.8200 339.0000 1.0000
41.8300 324.0000 1.0000
41.8400 321.0000 1.0000
41.8500 353.0000 1.0000
41.8600 328.0000 1.0000
41.8700 341.0000 1.0000
41.8800 348.0000 1.0000
41.8900 335.0000 1.0000
41.9000 352.0000 1.0000
41.9100 342.0000 1.0000
41.9200 341.0000 1.0000
41.9300 339.0000 1.0000
41.9400 322.0000 1.0000
41.9500 334.0000 1.0000
41.9600 348.0000 1.0000
41.9700 337.0000 1.0000
41.9800 346.0000 1.0000
41.9900 349.0000 1.0000
42.0000 330.0000 1.0000
42.0100 337.0000 1.0000
42.0200 336.0000 1.0000
42.0300 328.0000 1.0000
42.0400 350.0000 1.0000
42.0500 313.0000 1.0000
42.0600 327.0000 1.0000
42.0700 332.0000 1.0000
42.0800 322.0000 1.0000
42.0900 307.0000 1.0000
42.1000 330.0000 1.0000
42.1100 359.0000 1.0000
42.1200 357.0000 1.0000
42.1300 344.0000 1.0000
42.1400 317.0000 1.0000
42.1500 335.0000 1.0000
42.1600 307.0000 1.0000
42.1700 327.0000 1.0000
42.1800 323.0000 1.0000
42.1900 315.0000 1.0000
42.2000 331.0000 1.0000
42.2100 332.0000 1.0000
42.2200 303.0000 1.0000
42.2300 344.0000 1.0000
42.2400 338.0000 1.0000
42.2500 315.0000 1.0000
42.2600 354.0000 1.0000
42.2700 344.0000 1.0000
42.2800 312.0000 1.0000
42.2900 340.0000 1.0000
42.3000 327.0000 1.0000
42.3100 329.0000 1.0000
42.3200 366.0000 1.0000
42.3300 321.0000 1.0000
42.3400 313.0000 1.0000
42.3500 329.0000 1.0000
42.3600 354.0000 1.0000
42.3700 366.0000 1.0000
42.3800 360.0000 1.0000
42.3900 348.0000 1.0000
42.4000 334.0000 1.0000
42.4100 329.0000 1.0000
42.4200 350.0000 1.0000
42.4300 348.0000 1.0000
42.4400 358.0000 1.0000
42.4500 348.0000 1.0000
42.4600 326.0000 1.0000
42.4700 315.0000 1.0000
42.4800 325.0000 1.0000
42.4900 349.0000 1.0000
42.5000 337.0000 1.0000
42.5100 340.0000 1.0000
42.5200 341.0000 1.0000
42.5300 338.0000 1.0000
42.5400 354.0000 1.0000
42.5500 329.0000 1.0000
42.5600 347.0000 1.0000
42.5700 340.0000 1.0000
42.5800 325.0000 1.0000
42.5900 344.0000 1.0000
42.6000 315.0000 1.0000
42.6100 335.0000 1.0000
42.6200 350.0000 1.0000
42.6300 298.0000 1.0000
42.6400 325.0000 1.0000
42.6500 340.0000 1.0000
42.6600 340.0000 1.0000
42.6700 321.0000 1.0000
42.6800 329.0000 1.0000
42.6900 341.0000 1.0000
42.7000 333.0000 1.0000
42.7100 316.0000 1.0000
42.7200 326.0000 1.0000
42.7300 310.0000 1.0000
42.7400 328.0000 1.0000
42.7500 287.0000 1.0000
42.7600 322.0000 1.0000
42.7700 316.0000 1.0000
42.7800 318.0000 1.0000
42.7900 325.0000 1.0000
42.8000 318.0000 1.0000
42.8100 323.0000 1.0000
42.8200 313.0000 1.0000
42.8300 297.0000 1.0000
42.8400 290.0000 1.0000
42.8500 311.0000 1.0000
42.8600 333.0000 1.0000
42.8700 309.0000 1.0000
42.8800 328.0000 1.0000
42.8900 299.0000 1.0000
42.9000 318.0000 1.0000
42.9100 327.0000 1.0000
42.9200 343.0000 1.0000
42.9300 319.0000 1.0000
42.9400 313.0000 1.0000
42.9500 332.0000 1.0000
42.9600 351.0000 1.0000
42.9700 356.0000 1.0000
42.9800 311.0000 1.0000
42.9900 304.0000 1.0000
43.0000 327.0000 1.0000
43.0100 329.0000 1.0000
43.0200 336.0000 1.0000
43.0300 308.0000 1.0000
43.0400 319.0000 1.0000
43.0500 303.0000 1.0000
43.0600 315.0000 1.0000
43.0700 333.0000 1.0000
43.0800 312.0000 1.0000
43.0900 313.0000 1.0000
43.1000 355.0000 1.0000
43.1100 305.0000 1.0000
43.1200 319.0000 1.0000
43.1300 325.0000 1.0000
43.1400 304.0000 1.0000
43.1500 309.0000 1.0000
43.1600 309.0000 1.0000
43.1700 319.0000 1.0000
43.1800 301.0000 1.0000
43.1900 323.0000 1.0000
43.2000 313.0000 1.0000
43.2100 324.0000 1.0000
43.2200 338.0000 1.0000
43.2300 286.0000 1.0000
43.2400 313.0000 1.0000
43.2500 327.0000 1.0000
43.2600 293.0000 1.0000
43.2700 321.0000 1.0000
43.2800 326.0000 1.0000
43.2900 299.0000 1.0000
43.3000 308.0000 1.0000
43.3100 316.0000 1.0000
43.3200 344.0000 1.0000
43.3300 307.0000 1.0000
43.3400 319.0000 1.0000
43.3500 343.0000 1.0000
43.3600 330.0000 1.0000
43.3700 318.0000 1.0000
43.3800 304.0000 1.0000
43.3900 313.0000 1.0000
43.4000 316.0000 1.0000
43.4100 348.0000 1.0000
43.4200 304.0000 1.0000
43.4300 302.0000 1.0000
43.4400 328.0000 1.0000
43.4500 302.0000 1.0000
43.4600 305.0000 1.0000
43.4700 324.0000 1.0000
43.4800 321.0000 1.0000
43.4900 306.0000 1.0000
43.5000 310.0000 1.0000
43.5100 322.0000 1.0000
43.5200 311.0000 1.0000
43.5300 315.0000 1.0000
43.5400 324.0000 1.0000
43.5500 302.0000 1.0000
43.5600 308.0000 1.0000
43.5700 292.0000 1.0000
43.5800 310.0000 1.0000
43.5900 319.0000 1.0000
43.6000 332.0000 1.0000
43.6100 335.0000 1.0000
43.6200 315.0000 1.0000
43.6300 326.0000 1.0000
43.6400 313.0000 1.0000
43.6500 359.0000 1.0000
43.6600 339.0000 1.0000
43.6700 313.0000 1.0000
43.6800 298.0000 1.0000
43.6900 299.0000 1.0000
43.7000 334.0000 1.0000
43.7100 307.0000 1.0000
43.7200 320.0000 1.0000
43.7300 302.0000 1.0000
43.7400 309.0000 1.0000
43.7500 305.0000 1.0000
43.7600 314.0000 1.0000
43.7700 296.0000 1.0000
43.7800 302.0000 1.0000
43.7900 352.0000 1.0000
43.8000 325.0000 1.0000
43.8100 293.0000 1.0000
43.8200 299.0000 1.0000
43.8300 304.0000 1.0000
43.8400 310.0000 1.0000
43.8500 332.0000 1.0000
43.8600 299.0000 1.0000
43.8700 306.0000 1.0000
43.8800 308.0000 1.0000
43.8900 287.0000 1.0000
43.9000 299.0000 1.0000
43.9100 310.0000 1.0000
43.9200 319.0000 1.0000
43.9300 312.0000 1.0000
43.9400 296.0000 1.0000
43.9500 320.0000 1.0000
43.9600 316.0000 1.0000
43.9700 303.0000 1.0000
43.9800 314.0000 1.0000
43.9900 316.0000 1.0000
44.0000 291.0000 1.0000
44.0100 285.0000 1.0000
44.0200 308.0000 1.0000
44.0300 292.0000 1.0000
44.0400 322.0000 1.0000
44.0500 322.0000 1.0000
44.0600 311.0000 1.0000
44.0700 314.0000 1.0000
44.0800 302.0000 1.0000
44.0900 283.0000 1.0000
44.1000 281.0000 1.0000
44.1100 333.0000 1.0000
44.1200 320.0000 1.0000
44.1300 307.0000 1.0000
44.1400 325.0000 1.0000
44.1500 306.0000 1.0000
44.1600 294.0000 1.0000
44.1700 319.0000 1.0000
44.1800 339.0000 1.0000
44.1900 284.0000 1.0000
44.2000 291.0000 1.0000
44.2100 326.0000 1.0000
44.2200 288.0000 1.0000
44.2300 309.0000 1.0000
44.2400 300.0000 1.0000
44.2500 308.0000 1.0000
44.2600 324.0000 1.0000
44.2700 297.0000 1.0000
44.2800 314.0000 1.0000
44.2900 296.0000 1.0000
44.3000 293.0000 1.0000
44.3100 313.0000 1.0000
44.3200 321.0000 1.0000
44.3300 333.0000 1.0000
44.3400 286.0000 1.0000
44.3500 327.0000 1.0000
44.3600 308.0000 1.0000
44.3700 321.0000 1.0000
44.3800 323.0000 1.0000
44.3900 335.0000 1.0000
44.4000 333.0000 1.0000
44.4100 313.0000 1.0000
44.4200 298.0000 1.0000
44.4300 298.0000 1.0000
44.4400 300.0000 1.0000
44.4500 300.0000 1.0000
44.4600 312.0000 1.0000
44.4700 304.0000 1.0000
44.4800 320.0000 1.0000
44.4900 303.0000 1.0000
44.5000 301.0000 1.0000
44.5100 313.0000 1.0000
44.5200 311.0000 1.0000
44.5300 294.0000 1.0000
44.5400 287.0000 1.0000
44.5500 301.0000 1.0000
44.5600 292.0000 1.0000
44.5700 317.0000 1.0000
44.5800 293.0000 1.0000
44.5900 298.0000 1.0000
44.6000 321.0000 1.0000
44.6100 299.0000 1.0000
44.6200 321.0000 1.0000
44.6300 313.0000 1.0000
44.6400 331.0000 1.0000
44.6500 305.0000 1.0000
44.6600 317.0000 1.0000
44.6700 314.0000 1.0000
44.6800 302.0000 1.0000
44.6900 319.0000 1.0000
44.7000 298.0000 1.0000
44.7100 286.0000 1.0000
44.7200 293.0000 1.0000
44.7300 281.0000 1.0000
44.7400 301.0000 1.0000
44.7500 329.0000 1.0000
44.7600 333.0000 1.0000
44.7700 285.0000 1.0000
44.7800 311.0000 1.0000
44.7900 299.0000 1.0000
44.8000 286.0000 1.0000
44.8100 282.0000 1.0000
44.8200 314.0000 1.0000
44.8300 332.0000 1.0000
44.8400 305.0000 1.0000
44.8500 308.0000 1.0000
44.8600 282.0000 1.0000
44.8700 292.0000 1.0000
44.8800 311.0000 1.0000
44.8900 311.0000 1.0000
44.9000 305.0000 1.0000
44.9100 291.0000 1.0000
44.9200 310.0000 1.0000
44.9300 290.0000 1.0000
44.9400 291.0000 1.0000
44.9500 292.0000 1.0000
44.9600 297.0000 1.0000
44.9700 294.0000 1.0000
44.9800 297.0000 1.0000
44.9900 295.0000 1.0000
45.0000 320.0000 1.0000
45.0100 294.0000 1.0000
45.0200 273.0000 1.0000
45.0300 307.0000 1.0000
45.0400 286.0000 1.0000
45.0500 288.0000 1.0000
45.0600 264.0000 1.0000
45.0700 283.0000 1.0000
45.0800 294.0000 1.0000
45.0900 309.0000 1.0000
45.1000 281.0000 1.0000
45.1100 273.0000 1.0000
45.1200 323.0000 1.0000
45.1300 275.0000 1.0000
45.1400 300.0000 1.0000
45.1500 266.0000 1.0000
45.1600 293.0000 1.0000
45.1700 305.0000 1.0000
45.1800 292.0000 1.0000
45.1900 317.0000 1.0000
45.2000 270.0000 1.0000
45.2100 296.0000 1.0000
45.2200 308.0000 1.0000
45.2300 264.0000 1.0000
45.2400 304.0000 1.0000
45.2500 296.0000 1.0000
45.2600 305.0000 1.0000
45.2700 309.0000 1.0000
45.2800 302.0000 1.0000
45.2900 299.0000 1.0000
45.3000 307.0000 1.0000
45.3100 263.0000 1.0000
45.3200 312.0000 1.0000
45.3300 325.0000 1.0000
45.3400 306.0000 1.0000
45.3500 275.0000 1.0000
45.3600 283.0000 1.0000
45.3700 302.0000 1.0000
45.3800 300.0000 1.0000
45.3900 295.0000 1.0000
45.4000 312.0000 1.0000
45.4100 299.0000 1.0000
45.4200 325.0000 1.0000
45.4300 297.0000 1.0000
45.4400 299.0000 1.0000
45.4500 308.0000 1.0000
45.4600 325.0000 1.0000
45.4700 286.0000 1.0000
45.4800 294.0000 1.0000
45.4900 289.0000 1.0000
45.5000 328.0000 1.0000
45.5100 307.0000 1.0000
45.5200 268.0000 1.0000
45.5300 312.0000 1.0000
45.5400 283.0000 1.0000
45.5500 289.0000 1.0000
45.5600 310.0000 1.0000
45.5700 291.0000 1.0000
45.5800 298.0000 1.0000
45.5900 300.0000 1.0000
45.6000 292.0000 1.0000
45.6100 313.0000 1.0000
45.6200 305.0000 1.0000
45.6300 318.0000 1.0000
45.6400 293.0000 1.0000
45.6500 309.0000 1.0000
45.6600 276.0000 1.0000
45.6700 290.0000 1.0000
45.6800 272.0000 1.0000
45.6900 323.0000 1.0000
45.7000 287.0000 1.0000
45.7100 265.0000 1.0000
45.7200 302.0000 1.0000
45.7300 271.0000 1.0000
45.7400 293.0000 1.0000
45.7500 279.0000 1.0000
45.7600 300.0000 1.0000
45.7700 305.0000 1.0000
45.7800 297.0000 1.0000
45.7900 267.0000 1.0000
45.8000 285.0000 1.0000
45.8100 276.0000 1.0000
45.8200 327.0000 1.0000
45.8300 308.0000 1.0000
45.8400 278.0000 1.0000
45.8500 299.0000 1.0000
45.8600 293.0000 1.0000
45.8700 271.0000 1.0000
45.8800 290.0000 1.0000
45.8900 284.0000 1.0000
45.9000 278.0000 1.0000
45.9100 288.0000 1.0000
45.9200 308.0000 1.0000
45.9300 327.0000 1.0000
45.9400 289.0000 1.0000
45.9500 268.0000 1.0000
45.9600 318.0000 1.0000
45.9700 282.0000 1.0000
45.9800 304.0000 1.0000
45.9900 282.0000 1.0000
46.0000 259.0000 1.0000
46.0100 298.0000 1.0000
46.0200 307.0000 1.0000
46.0300 313.0000 1.0000
46.0400 298.0000 1.0000
46.0500 299.0000 1.0000
46.0600 289.0000 1.0000
46.0700 295.0000 1.0000
46.0800 303.0000 1.0000
46.0900 276.0000 1.0000
46.1000 301.0000 1.0000
46.1100 282.0000 1.0000
46.1200 267.0000 1.0000
46.1300 281.0000 1.0000
46.1400 287.0000 1.0000
46.1500 297.0000 1.0000
46.1600 300.0000 1.0000
46.1700 295.0000 1.0000
46.1800 303.0000 1.0000
46.1900 295.0000 1.0000
46.2000 266.0000 1.0000
46.2100 295.0000 1.0000
46.2200 285.0000 1.0000
46.2300 307.0000 1.0000
46.2400 311.0000 1.0000
46.2500 266.0000 1.0000
46.2600 291.0000 1.0000
46.2700 286.0000 1.0000
46.2800 290.0000 1.0000
46.2900 292.0000 1.0000
46.3000 291.0000 1.0000
46.3100 277.0000 1.0000
46.3200 310.0000 1.0000
46.3300 277.0000 1.0000
46.3400 279.0000 1.0000
46.3500 280.0000 1.0000
46.3600 294.0000 1.0000
46.3700 304.0000 1.0000
46.3800 293.0000 1.0000
46.3900 271.0000 1.0000
46.4000 259.0000 1.0000
46.4100 273.0000 1.0000
46.4200 305.0000 1.0000
46.4300 267.0000 1.0000
46.4400 290.0000 1.0000
46.4500 283.0000 1.0000
46.4600 290.0000 1.0000
46.4700 299.0000 1.0000
46.4800 294.0000 1.0000
46.4900 305.0000 1.0000
46.5000 307.0000 1.0000
46.5100 283.0000 1.0000
46.5200 270.0000 1.0000
46.5300 282.0000 1.0000
46.5400 305.0000 1.0000
46.5500 284.0000 1.0000
46.5600 281.0000 1.0000
46.5700 285.0000 1.0000
46.5800 275.0000 1.0000
46.5900 294.0000 1.0000
46.6000 289.0000 1.0000
46.6100 278.0000 1.0000
46.6200 294.0000 1.0000
46.6300 302.0000 1.0000
46.6400 286.0000 1.0000
46.6500 281.0000 1.0000
46.6600 275.0000 1.0000
46.6700 279.0000 1.0000
46.6800 297.0000 1.0000
46.6900 283.0000 1.0000
46.7000 267.0000 1.0000
46.7100 287.0000 1.0000
46.7200 294.0000 1.0000
46.7300 293.0000 1.0000
46.7400 301.0000 1.0000
46.7500 265.0000 1.0000
46.7600 285.0000 1.0000
46.7700 289.0000 1.0000
46.7800 269.0000 1.0000
46.7900 278.0000 1.0000
46.8000 297.0000 1.0000
46.8100 275.0000 1.0000
46.8200 291.0000 1.0000
46.8300 291.0000 1.0000
46.8400 307.0000 1.0000
46.8500 266.0000 1.0000
46.8600 295.0000 1.0000
46.8700 311.0000 1.0000
46.8800 311.0000 1.0000
46.8900 318.0000 1.0000
46.9000 277.0000 1.0000
46.9100 315.0000 1.0000
46.9200 310.0000 1.0000
46.9300 306.0000 1.0000
46.9400 277.0000 1.0000
46.9500 278.0000 1.0000
46.9600 295.0000 1.0000
46.9700 287.0000 1.0000
46.9800 304.0000 1.0000
46.9900 283.0000 1.0000
47.0000 272.0000 1.0000
47.0100 260.0000 1.0000
47.0200 272.0000 1.0000
47.0300 281.0000 1.0000
47.0400 299.0000 1.0000
47.0500 296.0000 1.0000
47.0600 297.0000 1.0000
47.0700 262.0000 1.0000
47.0800 267.0000 1.0000
47.0900 289.0000 1.0000
47.1000 275.0000 1.0000
47.1100 279.0000 1.0000
47.1200 272.0000 1.0000
47.1300 298.0000 1.0000
47.1400 303.0000 1.0000
47.1500 305.0000 1.0000
47.1600 280.0000 1.0000
47.1700 315.0000 1.0000
47.1800 278.0000 1.0000
47.1900 276.0000 1.0000
47.2000 300.0000 1.0000
47.2100 312.0000 1.0000
47.2200 312.0000 1.0000
47.2300 297.0000 1.0000
47.2400 285.0000 1.0000
47.2500 313.0000 1.0000
47.2600 280.0000 1.0000
47.2700 274.0000 1.0000
47.2800 267.0000 1.0000
47.2900 283.0000 1.0000
47.3000 287.0000 1.0000
47.3100 279.0000 1.0000
47.3200 270.0000 1.0000
47.3300 286.0000 1.0000
47.3400 309.0000 1.0000
47.3500 303.0000 1.0000
47.3600 302.0000 1.0000
47.3700 276.0000 1.0000
47.3800 281.0000 1.0000
47.3900 283.0000 1.0000
47.4000 263.0000 1.0000
47.4100 307.0000 1.0000
47.4200 309.0000 1.0000
47.4300 290.0000 1.0000
47.4400 289.0000 1.0000
47.4500 272.0000 1.0000
47.4600 279.0000 1.0000
47.4700 257.0000 1.0000
47.4800 281.0000 1.0000
47.4900 262.0000 1.0000
47.5000 274.0000 1.0000
47.5100 291.0000 1.0000
47.5200 264.0000 1.0000
47.5300 264.0000 1.0000
47.5400 283.0000 1.0000
47.5500 290.0000 1.0000
47.5600 307.0000 1.0000
47.5700 275.0000 1.0000
47.5800 267.0000 1.0000
47.5900 276.0000 1.0000
47.6000 257.0000 1.0000
47.6100 284.0000 1.0000
47.6200 324.0000 1.0000
47.6300 289.0000 1.0000
47.6400 273.0000 1.0000
47.6500 258.0000 1.0000
47.6600 272.0000 1.0000
47.6700 265.0000 1.0000
47.6800 289.0000 1.0000
47.6900 275.0000 1.0000
47.7000 286.0000 1.0000
47.7100 286.0000 1.0000
47.7200 283.0000 1.0000
47.7300 261.0000 1.0000
47.7400 282.0000 1.0000
47.7500 273.0000 1.0000
47.7600 304.0000 1.0000
47.7700 273.0000 1.0000
47.7800 260.0000 1.0000
47.7900 306.0000 1.0000
47.8000 288.0000 1.0000
47.8100 277.0000 1.0000
47.8200 297.0000 1.0000
47.8300 292.0000 1.0000
47.8400 276.0000 1.0000
47.8500 287.0000 1.0000
47.8600 305.0000 1.0000
47.8700 309.0000 1.0000
47.8800 289.0000 1.0000
47.8900 255.0000 1.0000
47.9000 278.0000 1.0000
47.9100 295.0000 1.0000
47.9200 297.0000 1.0000
47.9300 268.0000 1.0000
47.9400 281.0000 1.0000
47.9500 248.0000 1.0000
47.9600 285.0000 1.0000
47.9700 275.0000 1.0000
47.9800 263.0000 1.0000
47.9900 283.0000 1.0000
48.0000 283.0000 1.0000
48.0100 272.0000 1.0000
48.0200 274.0000 1.0000
48.0300 285.0000 1.0000
48.0400 302.0000 1.0000
48.0500 275.0000 1.0000
48.0600 256.0000 1.0000
48.0700 274.0000 1.0000
48.0800 270.0000 1.0000
48.0900 265.0000 1.0000
48.1000 250.0000 1.0000
48.1100 256.0000 1.0000
48.1200 271.0000 1.0000
48.1300 278.0000 1.0000
48.1400 277.0000 1.0000
48.1500 268.0000 1.0000
48.1600 286.0000 1.0000
48.1700 260.0000 1.0000
48.1800 270.0000 1.0000
48.1900 271.0000 1.0000
48.2000 284.0000 1.0000
48.2100 299.0000 1.0000
48.2200 311.0000 1.0000
48.2300 275.0000 1.0000
48.2400 283.0000 1.0000
48.2500 266.0000 1.0000
48.2600 258.0000 1.0000
48.2700 250.0000 1.0000
48.2800 269.0000 1.0000
48.2900 275.0000 1.0000
48.3000 292.0000 1.0000
48.3100 254.0000 1.0000
48.3200 250.0000 1.0000
48.3300 260.0000 1.0000
48.3400 281.0000 1.0000
48.3500 289.0000 1.0000
48.3600 259.0000 1.0000
48.3700 253.0000 1.0000
48.3800 276.0000 1.0000
48.3900 280.0000 1.0000
48.4000 268.0000 1.0000
48.4100 288.0000 1.0000
48.4200 271.0000 1.0000
48.4300 291.0000 1.0000
48.4400 254.0000 1.0000
48.4500 279.0000 1.0000
48.4600 278.0000 1.0000
48.4700 272.0000 1.0000
48.4800 266.0000 1.0000
48.4900 288.0000 1.0000
48.5000 273.0000 1.0000
48.5100 253.0000 1.0000
48.5200 280.0000 1.0000
48.5300 288.0000 1.0000
48.5400 270.0000 1.0000
48.5500 280.0000 1.0000
48.5600 263.0000 1.0000
48.5700 305.0000 1.0000
48.5800 281.0000 1.0000
48.5900 288.0000 1.0000
48.6000 301.0000 1.0000
48.6100 269.0000 1.0000
48.6200 288.0000 1.0000
48.6300 282.0000 1.0000
48.6400 280.0000 1.0000
48.6500 277.0000 1.0000
48.6600 278.0000 1.0000
48.6700 280.0000 1.0000
48.6800 267.0000 1.0000
48.6900 252.0000 1.0000
48.7000 277.0000 1.0000
48.7100 256.0000 1.0000
48.7200 298.0000 1.0000
48.7300 277.0000 1.0000
48.7400 266.0000 1.0000
48.7500 284.0000 1.0000
48.7600 276.0000 1.0000
48.7700 281.0000 1.0000
48.7800 255.0000 1.0000
48.7900 277.0000 1.0000
48.8000 285.0000 1.0000
48.8100 289.0000 1.0000
48.8200 294.0000 1.0000
48.8300 262.0000 1.0000
48.8400 276.0000 1.0000
48.8500 271.0000 1.0000
48.8600 243.0000 1.0000
48.8700 281.0000 1.0000
48.8800 273.0000 1.0000
48.8900 282.0000 1.0000
48.9000 283.0000 1.0000
48.9100 286.0000 1.0000
48.9200 276.0000 1.0000
48.9300 294.0000 1.0000
48.9400 272.0000 1.0000
48.9500 263.0000 1.0000
48.9600 302.0000 1.0000
48.9700 290.0000 1.0000
48.9800 262.0000 1.0000
48.9900 280.0000 1.0000
49.0000 274.0000 1.0000
49.0100 284.0000 1.0000
49.0200 264.0000 1.0000
49.0300 271.0000 1.0000
49.0400 283.0000 1.0000
49.0500 255.0000 1.0000
49.0600 261.0000 1.0000
49.0700 275.0000 1.0000
49.0800 268.0000 1.0000
49.0900 263.0000 1.0000
49.1000 277.0000 1.0000
49.1100 270.0000 1.0000
49.1200 266.0000 1.0000
49.1300 283.0000 1.0000
49.1400 296.0000 1.0000
49.1500 275.0000 1.0000
49.1600 273.0000 1.0000
49.1700 276.0000 1.0000
49.1800 288.0000 1.0000
49.1900 284.0000 1.0000
49.2000 285.0000 1.0000
49.2100 299.0000 1.0000
49.2200 289.0000 1.0000
49.2300 249.0000 1.0000
49.2400 277.0000 1.0000
49.2500 283.0000 1.0000
49.2600 313.0000 1.0000
49.2700 296.0000 1.0000
49.2800 275.0000 1.0000
49.2900 272.0000 1.0000
49.3000 291.0000 1.0000
49.3100 292.0000 1.0000
49.3200 279.0000 1.0000
49.3300 268.0000 1.0000
49.3400 309.0000 1.0000
49.3500 305.0000 1.0000
49.3600 317.0000 1.0000
49.3700 293.0000 1.0000
49.3800 327.0000 1.0000
49.3900 303.0000 1.0000
49.4000 301.0000 1.0000
49.4100 303.0000 1.0000
49.4200 344.0000 1.0000
49.4300 299.0000 1.0000
49.4400 304.0000 1.0000
49.4500 307.0000 1.0000
49.4600 297.0000 1.0000
49.4700 297.0000 1.0000
49.4800 288.0000 1.0000
49.4900 277.0000 1.0000
49.5000 299.0000 1.0000
49.5100 295.0000 1.0000
49.5200 328.0000 1.0000
49.5300 334.0000 1.0000
49.5400 292.0000 1.0000
49.5500 275.0000 1.0000
49.5600 307.0000 1.0000
49.5700 309.0000 1.0000
49.5800 290.0000 1.0000
49.5900 279.0000 1.0000
49.6000 316.0000 1.0000
49.6100 333.0000 1.0000
49.6200 317.0000 1.0000
49.6300 312.0000 1.0000
49.6400 283.0000 1.0000
49.6500 311.0000 1.0000
49.6600 326.0000 1.0000
49.6700 269.0000 1.0000
49.6800 271.0000 1.0000
49.6900 284.0000 1.0000
49.7000 282.0000 1.0000
49.7100 260.0000 1.0000
49.7200 283.0000 1.0000
49.7300 300.0000 1.0000
49.7400 294.0000 1.0000
49.7500 241.0000 1.0000
49.7600 268.0000 1.0000
49.7700 289.0000 1.0000
49.7800 285.0000 1.0000
49.7900 242.0000 1.0000
49.8000 260.0000 1.0000
49.8100 286.0000 1.0000
49.8200 288.0000 1.0000
49.8300 299.0000 1.0000
49.8400 295.0000 1.0000
49.8500 283.0000 1.0000
49.8600 292.0000 1.0000
49.8700 302.0000 1.0000
49.8800 285.0000 1.0000
49.8900 267.0000 1.0000
49.9000 268.0000 1.0000
49.9100 272.0000 1.0000
49.9200 287.0000 1.0000
49.9300 282.0000 1.0000
49.9400 271.0000 1.0000
49.9500 260.0000 1.0000
49.9600 251.0000 1.0000
49.9700 252.0000 1.0000
49.9800 246.0000 1.0000
49.9900 299.0000 1.0000
50.0000 282.0000 1.0000
50.0100 284.0000 1.0000
50.0200 274.0000 1.0000
50.0300 272.0000 1.0000
50.0400 321.0000 1.0000
50.0500 258.0000 1.0000
50.0600 265.0000 1.0000
50.0700 251.0000 1.0000
50.0800 277.0000 1.0000
50.0900 277.0000 1.0000
50.1000 246.0000 1.0000
50.1100 258.0000 1.0000
50.1200 294.0000 1.0000
50.1300 263.0000 1.0000
50.1400 283.0000 1.0000
50.1500 282.0000 1.0000
50.1600 253.0000 1.0000
50.1700 272.0000 1.0000
50.1800 254.0000 1.0000
50.1900 287.0000 1.0000
50.2000 271.0000 1.0000
50.2100 294.0000 1.0000
50.2200 320.0000 1.0000
50.2300 281.0000 1.0000
50.2400 244.0000 1.0000
50.2500 273.0000 1.0000
50.2600 299.0000 1.0000
50.2700 292.0000 1.0000
50.2800 269.0000 1.0000
50.2900 270.0000 1.0000
50.3000 276.0000 1.0000
50.3100 266.0000 1.0000
50.3200 295.0000 1.0000
50.3300 302.0000 1.0000
50.3400 268.0000 1.0000
50.3500 275.0000 1.0000
50.3600 277.0000 1.0000
50.3700 291.0000 1.0000
50.3800 275.0000 1.0000
50.3900 273.0000 1.0000
50.4000 266.0000 1.0000
50.4100 267.0000 1.0000
50.4200 259.0000 1.0000
50.4300 295.0000 1.0000
50.4400 274.0000 1.0000
50.4500 276.0000 1.0000
50.4600 281.0000 1.0000
50.4700 276.0000 1.0000
50.4800 283.0000 1.0000
50.4900 230.0000 1.0000
50.5000 268.0000 1.0000
50.5100 272.0000 1.0000
50.5200 269.0000 1.0000
50.5300 276.0000 1.0000
50.5400 284.0000 1.0000
50.5500 277.0000 1.0000
50.5600 272.0000 1.0000
50.5700 270.0000 1.0000
50.5800 273.0000 1.0000
50.5900 254.0000 1.0000
50.6000 268.0000 1.0000
50.6100 244.0000 1.0000
50.6200 262.0000 1.0000
50.6300 249.0000 1.0000
50.6400 252.0000 1.0000
50.6500 275.0000 1.0000
50.6600 308.0000 1.0000
50.6700 302.0000 1.0000
50.6800 272.0000 1.0000
50.6900 274.0000 1.0000
50.7000 271.0000 1.0000
50.7100 273.0000 1.0000
50.7200 284.0000 1.0000
50.7300 259.0000 1.0000
50.7400 288.0000 1.0000
50.7500 296.0000 1.0000
50.7600 261.0000 1.0000
50.7700 260.0000 1.0000
50.7800 274.0000 1.0000
50.7900 273.0000 1.0000
50.8000 307.0000 1.0000
50.8100 275.0000 1.0000
50.8200 272.0000 1.0000
50.8300 279.0000 1.0000
50.8400 290.0000 1.0000
50.8500 289.0000 1.0000
50.8600 275.0000 1.0000
50.8700 288.0000 1.0000
50.8800 267.0000 1.0000
50.8900 294.0000 1.0000
50.9000 291.0000 1.0000
50.9100 287.0000 1.0000
50.9200 276.0000 1.0000
50.9300 281.0000 1.0000
50.9400 291.0000 1.0000
50.9500 285.0000 1.0000
50.9600 300.0000 1.0000
50.9700 324.0000 1.0000
50.9800 281.0000 1.0000
50.9900 309.0000 1.0000
51.0000 304.0000 1.0000
51.0100 290.0000 1.0000
51.0200 295.0000 1.0000
51.0300 299.0000 1.0000
51.0400 296.0000 1.0000
51.0500 296.0000 1.0000
51.0600 315.0000 1.0000
51.0700 320.0000 1.0000
51.0800 286.0000 1.0000
51.0900 302.0000 1.0000
51.1000 296.0000 1.0000
51.1100 321.0000 1.0000
51.1200 308.0000 1.0000
51.1300 322.0000 1.0000
51.1400 349.0000 1.0000
51.1500 315.0000 1.0000
51.1600 319.0000 1.0000
51.1700 316.0000 1.0000
51.1800 324.0000 1.0000
51.1900 349.0000 1.0000
51.2000 319.0000 1.0000
51.2100 348.0000 1.0000
51.2200 375.0000 1.0000
51.2300 383.0000 1.0000
51.2400 347.0000 1.0000
51.2500 347.0000 1.0000
51.2600 397.0000 1.0000
51.2700 394.0000 1.0000
51.2800 401.0000 1.0000
51.2900 390.0000 1.0000
51.3000 410.0000 1.0000
51.3100 454.0000 1.0000
51.3200 453.0000 1.0000
51.3300 493.0000 1.0000
51.3400 507.0000 1.0000
51.3500 543.0000 1.0000
51.3600 532.0000 1.0000
51.3700 594.0000 1.0000
51.3800 620.0000 1.0000
51.3900 648.0000 1.0000
51.4000 670.0000 1.0000
51.4100 701.0000 1.0000
51.4200 743.0000 1.0000
51.4300 793.0000 1.0000
51.4400 901.0000 1.0000
51.4500 870.0000 1.0000
51.4600 845.0000 1.0000
51.4700 877.0000 1.0000
51.4800 897.0000 1.0000
51.4900 911.0000 1.0000
51.5000 895.0000 1.0000
51.5100 927.0000 1.0000
51.5200 882.0000 1.0000
51.5300 918.0000 1.0000
51.5400 884.0000 1.0000
51.5500 895.0000 1.0000
51.5600 857.0000 1.0000
51.5700 792.0000 1.0000
51.5800 786.0000 1.0000
51.5900 804.0000 1.0000
51.6000 786.0000 1.0000
51.6100 735.0000 1.0000
51.6200 754.0000 1.0000
51.6300 706.0000 1.0000
51.6400 695.0000 1.0000
51.6500 664.0000 1.0000
51.6600 622.0000 1.0000
51.6700 653.0000 1.0000
51.6800 603.0000 1.0000
51.6900 599.0000 1.0000
51.7000 553.0000 1.0000
51.7100 507.0000 1.0000
51.7200 503.0000 1.0000
51.7300 469.0000 1.0000
51.7400 473.0000 1.0000
51.7500 417.0000 1.0000
51.7600 456.0000 1.0000
51.7700 445.0000 1.0000
51.7800 444.0000 1.0000
51.7900 421.0000 1.0000
51.8000 362.0000 1.0000
51.8100 373.0000 1.0000
51.8200 324.0000 1.0000
51.8300 374.0000 1.0000
51.8400 346.0000 1.0000
51.8500 352.0000 1.0000
51.8600 363.0000 1.0000
51.8700 361.0000 1.0000
51.8800 361.0000 1.0000
51.8900 341.0000 1.0000
51.9000 327.0000 1.0000
51.9100 339.0000 1.0000
51.9200 321.0000 1.0000
51.9300 308.0000 1.0000
51.9400 317.0000 1.0000
51.9500 347.0000 1.0000
51.9600 328.0000 1.0000
51.9700 329.0000 1.0000
51.9800 315.0000 1.0000
51.9900 313.0000 1.0000
52.0000 294.0000 1.0000
52.0100 299.0000 1.0000
52.0200 329.0000 1.0000
52.0300 297.0000 1.0000
52.0400 315.0000 1.0000
52.0500 308.0000 1.0000
52.0600 290.0000 1.0000
52.0700 291.0000 1.0000
52.0800 297.0000 1.0000
52.0900 295.0000 1.0000
52.1000 279.0000 1.0000
52.1100 283.0000 1.0000
52.1200 281.0000 1.0000
52.1300 288.0000 1.0000
52.1400 294.0000 1.0000
52.1500 293.0000 1.0000
52.1600 277.0000 1.0000
52.1700 271.0000 1.0000
52.1800 277.0000 1.0000
52.1900 277.0000 1.0000
52.2000 299.0000 1.0000
52.2100 315.0000 1.0000
52.2200 260.0000 1.0000
52.2300 292.0000 1.0000
52.2400 288.0000 1.0000
52.2500 308.0000 1.0000
52.2600 303.0000 1.0000
52.2700 273.0000 1.0000
52.2800 251.0000 1.0000
52.2900 285.0000 1.0000
52.3000 296.0000 1.0000
52.3100 288.0000 1.0000
52.3200 274.0000 1.0000
52.3300 270.0000 1.0000
52.3400 298.0000 1.0000
52.3500 281.0000 1.0000
52.3600 315.0000 1.0000
52.3700 278.0000 1.0000
52.3800 279.0000 1.0000
52.3900 290.0000 1.0000
52.4000 246.0000 1.0000
52.4100 256.0000 1.0000
52.4200 262.0000 1.0000
52.4300 264.0000 1.0000
52.4400 257.0000 1.0000
52.4500 252.0000 1.0000
52.4600 250.0000 1.0000
52.4700 263.0000 1.0000
52.4800 282.0000 1.0000
52.4900 266.0000 1.0000
52.5000 287.0000 1.0000
52.5100 288.0000 1.0000
52.5200 254.0000 1.0000
52.5300 267.0000 1.0000
52.5400 276.0000 1.0000
52.5500 283.0000 1.0000
52.5600 256.0000 1.0000
52.5700 268.0000 1.0000
52.5800 260.0000 1.0000
52.5900 257.0000 1.0000
52.6000 269.0000 1.0000
52.6100 257.0000 1.0000
52.6200 259.0000 1.0000
52.6300 264.0000 1.0000
52.6400 245.0000 1.0000
52.6500 273.0000 1.0000
52.6600 281.0000 1.0000
52.6700 261.0000 1.0000
52.6800 245.0000 1.0000
52.6900 249.0000 1.0000
52.7000 232.0000 1.0000
52.7100 276.0000 1.0000
52.7200 297.0000 1.0000
52.7300 265.0000 1.0000
52.7400 278.0000 1.0000
52.7500 262.0000 1.0000
52.7600 257.0000 1.0000
52.7700 286.0000 1.0000
52.7800 277.0000 1.0000
52.7900 247.0000 1.0000
52.8000 280.0000 1.0000
52.8100 257.0000 1.0000
52.8200 243.0000 1.0000
52.8300 274.0000 1.0000
52.8400 266.0000 1.0000
52.8500 259.0000 1.0000
52.8600 281.0000 1.0000
52.8700 252.0000 1.0000
52.8800 291.0000 1.0000
52.8900 270.0000 1.0000
52.9000 268.0000 1.0000
52.9100 275.0000 1.0000
52.9200 268.0000 1.0000
52.9300 258.0000 1.0000
52.9400 251.0000 1.0000
52.9500 289.0000 1.0000
52.9600 251.0000 1.0000
52.9700 271.0000 1.0000
52.9800 273.0000 1.0000
52.9900 251.0000 1.0000
53.0000 266.0000 1.0000
53.0100 249.0000 1.0000
53.0200 235.0000 1.0000
53.0300 258.0000 1.0000
53.0400 260.0000 1.0000
53.0500 269.0000 1.0000
53.0600 253.0000 1.0000
53.0700 261.0000 1.0000
53.0800 251.0000 1.0000
53.0900 269.0000 1.0000
53.1000 257.0000 1.0000
53.1100 258.0000 1.0000
53.1200 272.0000 1.0000
53.1300 286.0000 1.0000
53.1400 252.0000 1.0000
53.1500 257.0000 1.0000
53.1600 266.0000 1.0000
53.1700 301.0000 1.0000
53.1800 286.0000 1.0000
53.1900 263.0000 1.0000
53.2000 283.0000 1.0000
53.2100 256.0000 1.0000
53.2200 261.0000 1.0000
53.2300 291.0000 1.0000
53.2400 275.0000 1.0000
53.2500 271.0000 1.0000
53.2600 276.0000 1.0000
53.2700 252.0000 1.0000
53.2800 255.0000 1.0000
53.2900 270.0000 1.0000
53.3000 264.0000 1.0000
53.3100 258.0000 1.0000
53.3200 280.0000 1.0000
53.3300 257.0000 1.0000
53.3400 278.0000 1.0000
53.3500 279.0000 1.0000
53.3600 276.0000 1.0000
53.3700 279.0000 1.0000
53.3800 266.0000 1.0000
53.3900 272.0000 1.0000
53.4000 252.0000 1.0000
53.4100 244.0000 1.0000
53.4200 260.0000 1.0000
53.4300 269.0000 1.0000
53.4400 268.0000 1.0000
53.4500 262.0000 1.0000
53.4600 226.0000 1.0000
53.4700 270.0000 1.0000
53.4800 275.0000 1.0000
53.4900 261.0000 1.0000
53.5000 265.0000 1.0000
53.5100 287.0000 1.0000
53.5200 264.0000 1.0000
53.5300 280.0000 1.0000
53.5400 293.0000 1.0000
53.5500 266.0000 1.0000
53.5600 238.0000 1.0000
53.5700 263.0000 1.0000
53.5800 240.0000 1.0000
53.5900 273.0000 1.0000
53.6000 253.0000 1.0000
53.6100 251.0000 1.0000
53.6200 280.0000 1.0000
53.6300 286.0000 1.0000
53.6400 265.0000 1.0000
53.6500 260.0000 1.0000
53.6600 267.0000 1.0000
53.6700 283.0000 1.0000
53.6800 256.0000 1.0000
53.6900 271.0000 1.0000
53.7000 280.0000 1.0000
53.7100 257.0000 1.0000
53.7200 257.0000 1.0000
53.7300 259.0000 1.0000
53.7400 270.0000 1.0000
53.7500 239.0000 1.0000
53.7600 250.0000 1.0000
53.7700 267.0000 1.0000
53.7800 281.0000 1.0000
53.7900 256.0000 1.0000
53.8000 255.0000 1.0000
53.8100 246.0000 1.0000
53.8200 280.0000 1.0000
53.8300 279.0000 1.0000
53.8400 269.0000 1.0000
53.8500 297.0000 1.0000
53.8600 281.0000 1.0000
53.8700 265.0000 1.0000
53.8800 283.0000 1.0000
53.8900 286.0000 1.0000
53.9000 283.0000 1.0000
53.9100 277.0000 1.0000
53.9200 289.0000 1.0000
53.9300 273.0000 1.0000
53.9400 282.0000 1.0000
53.9500 290.0000 1.0000
53.9600 292.0000 1.0000
53.9700 299.0000 1.0000
53.9800 256.0000 1.0000
53.9900 298.0000 1.0000
54.0000 307.0000 1.0000
54.0100 253.0000 1.0000
54.0200 295.0000 1.0000
54.0300 282.0000 1.0000
54.0400 272.0000 1.0000
54.0500 277.0000 1.0000
54.0600 279.0000 1.0000
54.0700 286.0000 1.0000
54.0800 297.0000 1.0000
54.0900 268.0000 1.0000
54.1000 279.0000 1.0000
54.1100 283.0000 1.0000
54.1200 315.0000 1.0000
54.1300 288.0000 1.0000
54.1400 270.0000 1.0000
54.1500 304.0000 1.0000
54.1600 292.0000 1.0000
54.1700 305.0000 1.0000
54.1800 259.0000 1.0000
54.1900 272.0000 1.0000
54.2000 279.0000 1.0000
54.2100 283.0000 1.0000
54.2200 269.0000 1.0000
54.2300 286.0000 1.0000
54.2400 300.0000 1.0000
54.2500 284.0000 1.0000
54.2600 276.0000 1.0000
54.2700 281.0000 1.0000
54.2800 297.0000 1.0000
54.2900 293.0000 1.0000
54.3000 268.0000 1.0000
54.3100 276.0000 1.0000
54.3200 293.0000 1.0000
54.3300 319.0000 1.0000
54.3400 280.0000 1.0000
54.3500 291.0000 1.0000
54.3600 301.0000 1.0000
54.3700 282.0000 1.0000
54.3800 313.0000 1.0000
54.3900 304.0000 1.0000
54.4000 299.0000 1.0000
54.4100 322.0000 1.0000
54.4200 320.0000 1.0000
54.4300 331.0000 1.0000
54.4400 348.0000 1.0000
54.4500 322.0000 1.0000
54.4600 306.0000 1.0000
54.4700 306.0000 1.0000
54.4800 312.0000 1.0000
54.4900 312.0000 1.0000
54.5000 315.0000 1.0000
54.5100 307.0000 1.0000
54.5200 323.0000 1.0000
54.5300 327.0000 1.0000
54.5400 340.0000 1.0000
54.5500 315.0000 1.0000
54.5600 320.0000 1.0000
54.5700 343.0000 1.0000
54.5800 327.0000 1.0000
54.5900 297.0000 1.0000
54.6000 324.0000 1.0000
54.6100 310.0000 1.0000
54.6200 308.0000 1.0000
54.6300 322.0000 1.0000
54.6400 304.0000 1.0000
54.6500 279.0000 1.0000
54.6600 311.0000 1.0000
54.6700 305.0000 1.0000
54.6800 282.0000 1.0000
54.6900 295.0000 1.0000
54.7000 305.0000 1.0000
54.7100 315.0000 1.0000
54.7200 279.0000 1.0000
54.7300 248.0000 1.0000
54.7400 297.0000 1.0000
54.7500 289.0000 1.0000
54.7600 288.0000 1.0000
54.7700 296.0000 1.0000
54.7800 249.0000 1.0000
54.7900 283.0000 1.0000
54.8000 267.0000 1.0000
54.8100 275.0000 1.0000
54.8200 298.0000 1.0000
54.8300 269.0000 1.0000
54.8400 273.0000 1.0000
54.8500 259.0000 1.0000
54.8600 282.0000 1.0000
54.8700 269.0000 1.0000
54.8800 277.0000 1.0000
54.8900 292.0000 1.0000
54.9000 256.0000 1.0000
54.9100 251.0000 1.0000
54.9200 233.0000 1.0000
54.9300 259.0000 1.0000
54.9400 235.0000 1.0000
54.9500 284.0000 1.0000
54.9600 265.0000 1.0000
54.9700 284.0000 1.0000
54.9800 243.0000 1.0000
54.9900 237.0000 1.0000
55.0000 267.0000 1.0000
55.0100 279.0000 1.0000
55.0200 255.0000 1.0000
55.0300 253.0000 1.0000
55.0400 252.0000 1.0000
55.0500 257.0000 1.0000
55.0600 249.0000 1.0000
55.0700 281.0000 1.0000
55.0800 264.0000 1.0000
55.0900 264.0000 1.0000
55.1000 262.0000 1.0000
55.1100 239.0000 1.0000
55.1200 257.0000 1.0000
55.1300 237.0000 1.0000
55.1400 272.0000 1.0000
55.1500 256.0000 1.0000
55.1600 240.0000 1.0000
55.1700 254.0000 1.0000
55.1800 246.0000 1.0000
55.1900 261.0000 1.0000
55.2000 255.0000 1.0000
55.2100 259.0000 1.0000
55.2200 247.0000 1.0000
55.2300 272.0000 1.0000
55.2400 264.0000 1.0000
55.2500 239.0000 1.0000
55.2600 274.0000 1.0000
55.2700 275.0000 1.0000
55.2800 260.0000 1.0000
55.2900 234.0000 1.0000
55.3000 259.0000 1.0000
55.3100 268.0000 1.0000
55.3200 281.0000 1.0000
55.3300 286.0000 1.0000
55.3400 262.0000 1.0000
55.3500 269.0000 1.0000
55.3600 229.0000 1.0000
55.3700 258.0000 1.0000
55.3800 248.0000 1.0000
55.3900 256.0000 1.0000
55.4000 245.0000 1.0000
55.4100 264.0000 1.0000
55.4200 229.0000 1.0000
55.4300 244.0000 1.0000
55.4400 270.0000 1.0000
55.4500 265.0000 1.0000
55.4600 245.0000 1.0000
55.4700 259.0000 1.0000
55.4800 259.0000 1.0000
55.4900 256.0000 1.0000
55.5000 254.0000 1.0000
55.5100 240.0000 1.0000
55.5200 244.0000 1.0000
55.5300 244.0000 1.0000
55.5400 257.0000 1.0000
55.5500 271.0000 1.0000
55.5600 250.0000 1.0000
55.5700 279.0000 1.0000
55.5800 269.0000 1.0000
55.5900 272.0000 1.0000
55.6000 232.0000 1.0000
55.6100 249.0000 1.0000
55.6200 279.0000 1.0000
55.6300 274.0000 1.0000
55.6400 245.0000 1.0000
55.6500 242.0000 1.0000
55.6600 237.0000 1.0000
55.6700 238.0000 1.0000
55.6800 263.0000 1.0000
55.6900 261.0000 1.0000
55.7000 245.0000 1.0000
55.7100 251.0000 1.0000
55.7200 247.0000 1.0000
55.7300 264.0000 1.0000
55.7400 255.0000 1.0000
55.7500 232.0000 1.0000
55.7600 233.0000 1.0000
55.7700 222.0000 1.0000
55.7800 272.0000 1.0000
55.7900 248.0000 1.0000
55.8000 252.0000 1.0000
55.8100 255.0000 1.0000
55.8200 249.0000 1.0000
55.8300 236.0000 1.0000
55.8400 229.0000 1.0000
55.8500 268.0000 1.0000
55.8600 280.0000 1.0000
55.8700 235.0000 1.0000
55.8800 253.0000 1.0000
55.8900 224.0000 1.0000
55.9000 266.0000 1.0000
55.9100 266.0000 1.0000
55.9200 241.0000 1.0000
55.9300 249.0000 1.0000
55.9400 244.0000 1.0000
55.9500 227.0000 1.0000
55.9600 228.0000 1.0000
55.9700 247.0000 1.0000
55.9800 234.0000 1.0000
55.9900 244.0000 1.0000
56.0000 257.0000 1.0000
56.0100 260.0000 1.0000
56.0200 257.0000 1.0000
56.0300 263.0000 1.0000
56.0400 232.0000 1.0000
56.0500 241.0000 1.0000
56.0600 259.0000 1.0000
56.0700 267.0000 1.0000
56.0800 250.0000 1.0000
56.0900 253.0000 1.0000
56.1000 244.0000 1.0000
56.1100 239.0000 1.0000
56.1200 250.0000 1.0000
56.1300 245.0000 1.0000
56.1400 256.0000 1.0000
56.1500 245.0000 1.0000
56.1600 283.0000 1.0000
56.1700 235.0000 1.0000
56.1800 245.0000 1.0000
56.1900 258.0000 1.0000
56.2000 238.0000 1.0000
56.2100 254.0000 1.0000
56.2200 239.0000 1.0000
56.2300 262.0000 1.0000
56.2400 268.0000 1.0000
56.2500 263.0000 1.0000
56.2600 259.0000 1.0000
56.2700 232.0000 1.0000
56.2800 245.0000 1.0000
56.2900 249.0000 1.0000
56.3000 250.0000 1.0000
56.3100 215.0000 1.0000
56.3200 255.0000 1.0000
56.3300 231.0000 1.0000
56.3400 268.0000 1.0000
56.3500 253.0000 1.0000
56.3600 274.0000 1.0000
56.3700 253.0000 1.0000
56.3800 250.0000 1.0000
56.3900 256.0000 1.0000
56.4000 277.0000 1.0000
56.4100 244.0000 1.0000
56.4200 229.0000 1.0000
56.4300 271.0000 1.0000
56.4400 242.0000 1.0000
56.4500 230.0000 1.0000
56.4600 272.0000 1.0000
56.4700 254.0000 1.0000
56.4800 268.0000 1.0000
56.4900 271.0000 1.0000
56.5000 241.0000 1.0000
56.5100 266.0000 1.0000
56.5200 268.0000 1.0000
56.5300 258.0000 1.0000
56.5400 266.0000 1.0000
56.5500 258.0000 1.0000
56.5600 227.0000 1.0000
56.5700 244.0000 1.0000
56.5800 267.0000 1.0000
56.5900 245.0000 1.0000
56.6000 241.0000 1.0000
56.6100 248.0000 1.0000
56.6200 260.0000 1.0000
56.6300 238.0000 1.0000
56.6400 243.0000 1.0000
56.6500 228.0000 1.0000
56.6600 267.0000 1.0000
56.6700 271.0000 1.0000
56.6800 250.0000 1.0000
56.6900 265.0000 1.0000
56.7000 255.0000 1.0000
56.7100 243.0000 1.0000
56.7200 243.0000 1.0000
56.7300 277.0000 1.0000
56.7400 239.0000 1.0000
56.7500 227.0000 1.0000
56.7600 230.0000 1.0000
56.7700 249.0000 1.0000
56.7800 245.0000 1.0000
56.7900 228.0000 1.0000
56.8000 233.0000 1.0000
56.8100 255.0000 1.0000
56.8200 256.0000 1.0000
56.8300 246.0000 1.0000
56.8400 260.0000 1.0000
56.8500 255.0000 1.0000
56.8600 255.0000 1.0000
56.8700 258.0000 1.0000
56.8800 246.0000 1.0000
56.8900 243.0000 1.0000
56.9000 249.0000 1.0000
56.9100 245.0000 1.0000
56.9200 245.0000 1.0000
56.9300 247.0000 1.0000
56.9400 245.0000 1.0000
56.9500 239.0000 1.0000
56.9600 273.0000 1.0000
56.9700 264.0000 1.0000
56.9800 241.0000 1.0000
56.9900 249.0000 1.0000
57.0000 237.0000 1.0000
57.0100 246.0000 1.0000
57.0200 234.0000 1.0000
57.0300 237.0000 1.0000
57.0400 249.0000 1.0000
57.0500 249.0000 1.0000
57.0600 242.0000 1.0000
57.0700 235.0000 1.0000
57.0800 251.0000 1.0000
57.0900 246.0000 1.0000
57.1000 258.0000 1.0000
57.1100 241.0000 1.0000
57.1200 250.0000 1.0000
57.1300 253.0000 1.0000
57.1400 237.0000 1.0000
57.1500 256.0000 1.0000
57.1600 251.0000 1.0000
57.1700 263.0000 1.0000
57.1800 246.0000 1.0000
57.1900 254.0000 1.0000
57.2000 256.0000 1.0000
57.2100 257.0000 1.0000
57.2200 244.0000 1.0000
57.2300 224.0000 1.0000
57.2400 237.0000 1.0000
57.2500 244.0000 1.0000
57.2600 247.0000 1.0000
57.2700 223.0000 1.0000
57.2800 243.0000 1.0000
57.2900 266.0000 1.0000
57.3000 263.0000 1.0000
57.3100 254.0000 1.0000
57.3200 249.0000 1.0000
57.3300 218.0000 1.0000
57.3400 232.0000 1.0000
57.3500 278.0000 1.0000
57.3600 253.0000 1.0000
57.3700 251.0000 1.0000
57.3800 263.0000 1.0000
57.3900 247.0000 1.0000
57.4000 262.0000 1.0000
57.4100 246.0000 1.0000
57.4200 274.0000 1.0000
57.4300 279.0000 1.0000
57.4400 240.0000 1.0000
57.4500 265.0000 1.0000
57.4600 248.0000 1.0000
57.4700 206.0000 1.0000
57.4800 247.0000 1.0000
57.4900 273.0000 1.0000
57.5000 242.0000 1.0000
57.5100 239.0000 1.0000
57.5200 268.0000 1.0000
57.5300 252.0000 1.0000
57.5400 234.0000 1.0000
57.5500 263.0000 1.0000
57.5600 255.0000 1.0000
57.5700 264.0000 1.0000
57.5800 229.0000 1.0000
57.5900 272.0000 1.0000
57.6000 254.0000 1.0000
57.6100 259.0000 1.0000
57.6200 233.0000 1.0000
57.6300 249.0000 1.0000
57.6400 269.0000 1.0000
57.6500 266.0000 1.0000
57.6600 258.0000 1.0000
57.6700 245.0000 1.0000
57.6800 254.0000 1.0000
57.6900 240.0000 1.0000
57.7000 236.0000 1.0000
57.7100 266.0000 1.0000
57.7200 268.0000 1.0000
57.7300 244.0000 1.0000
57.7400 235.0000 1.0000
57.7500 261.0000 1.0000
57.7600 268.0000 1.0000
57.7700 260.0000 1.0000
57.7800 254.0000 1.0000
57.7900 249.0000 1.0000
57.8000 278.0000 1.0000
57.8100 264.0000 1.0000
57.8200 267.0000 1.0000
57.8300 268.0000 1.0000
57.8400 259.0000 1.0000
57.8500 276.0000 1.0000
57.8600 253.0000 1.0000
57.8700 231.0000 1.0000
57.8800 264.0000 1.0000
57.8900 256.0000 1.0000
57.9000 249.0000 1.0000
57.9100 286.0000 1.0000
57.9200 277.0000 1.0000
57.9300 245.0000 1.0000
57.9400 273.0000 1.0000
57.9500 243.0000 1.0000
57.9600 256.0000 1.0000
57.9700 246.0000 1.0000
57.9800 240.0000 1.0000
57.9900 282.0000 1.0000
58.0000 229.0000 1.0000
58.0100 245.0000 1.0000
58.0200 244.0000 1.0000
58.0300 247.0000 1.0000
58.0400 263.0000 1.0000
58.0500 260.0000 1.0000
58.0600 247.0000 1.0000
58.0700 263.0000 1.0000
58.0800 229.0000 1.0000
58.0900 242.0000 1.0000
58.1000 240.0000 1.0000
58.1100 250.0000 1.0000
58.1200 251.0000 1.0000
58.1300 274.0000 1.0000
58.1400 256.0000 1.0000
58.1500 244.0000 1.0000
58.1600 265.0000 1.0000
58.1700 251.0000 1.0000
58.1800 247.0000 1.0000
58.1900 249.0000 1.0000
58.2000 265.0000 1.0000
58.2100 282.0000 1.0000
58.2200 241.0000 1.0000
58.2300 248.0000 1.0000
58.2400 262.0000 1.0000
58.2500 241.0000 1.0000
58.2600 250.0000 1.0000
58.2700 261.0000 1.0000
58.2800 261.0000 1.0000
58.2900 269.0000 1.0000
58.3000 256.0000 1.0000
58.3100 252.0000 1.0000
58.3200 278.0000 1.0000
58.3300 256.0000 1.0000
58.3400 238.0000 1.0000
58.3500 225.0000 1.0000
58.3600 237.0000 1.0000
58.3700 257.0000 1.0000
58.3800 249.0000 1.0000
58.3900 233.0000 1.0000
58.4000 240.0000 1.0000
58.4100 231.0000 1.0000
58.4200 254.0000 1.0000
58.4300 271.0000 1.0000
58.4400 244.0000 1.0000
58.4500 235.0000 1.0000
58.4600 260.0000 1.0000
58.4700 273.0000 1.0000
58.4800 253.0000 1.0000
58.4900 250.0000 1.0000
58.5000 219.0000 1.0000
58.5100 219.0000 1.0000
58.5200 249.0000 1.0000
58.5300 255.0000 1.0000
58.5400 249.0000 1.0000
58.5500 250.0000 1.0000
58.5600 243.0000 1.0000
58.5700 230.0000 1.0000
58.5800 263.0000 1.0000
58.5900 247.0000 1.0000
58.6000 261.0000 1.0000
58.6100 266.0000 1.0000
58.6200 260.0000 1.0000
58.6300 226.0000 1.0000
58.6400 250.0000 1.0000
58.6500 250.0000 1.0000
58.6600 244.0000 1.0000
58.6700 242.0000 1.0000
58.6800 229.0000 1.0000
58.6900 250.0000 1.0000
58.7000 254.0000 1.0000
58.7100 274.0000 1.0000
58.7200 246.0000 1.0000
58.7300 250.0000 1.0000
58.7400 244.0000 1.0000
58.7500 246.0000 1.0000
58.7600 239.0000 1.0000
58.7700 249.0000 1.0000
58.7800 255.0000 1.0000
58.7900 248.0000 1.0000
58.8000 266.0000 1.0000
58.8100 248.0000 1.0000
58.8200 284.0000 1.0000
58.8300 252.0000 1.0000
58.8400 267.0000 1.0000
58.8500 253.0000 1.0000
58.8600 247.0000 1.0000
58.8700 237.0000 1.0000
58.8800 244.0000 1.0000
58.8900 264.0000 1.0000
58.9000 230.0000 1.0000
58.9100 241.0000 1.0000
58.9200 256.0000 1.0000
58.9300 234.0000 1.0000
58.9400 241.0000 1.0000
58.9500 261.0000 1.0000
58.9600 257.0000 1.0000
58.9700 260.0000 1.0000
58.9800 270.0000 1.0000
58.9900 222.0000 1.0000
59.0000 247.0000 1.0000
59.0100 237.0000 1.0000
59.0200 249.0000 1.0000
59.0300 251.0000 1.0000
59.0400 255.0000 1.0000
59.0500 238.0000 1.0000
59.0600 258.0000 1.0000
59.0700 256.0000 1.0000
59.0800 229.0000 1.0000
59.0900 254.0000 1.0000
59.1000 231.0000 1.0000
59.1100 225.0000 1.0000
59.1200 231.0000 1.0000
59.1300 253.0000 1.0000
59.1400 231.0000 1.0000
59.1500 246.0000 1.0000
59.1600 244.0000 1.0000
59.1700 233.0000 1.0000
59.1800 217.0000 1.0000
59.1900 247.0000 1.0000
59.2000 246.0000 1.0000
59.2100 240.0000 1.0000
59.2200 250.0000 1.0000
59.2300 236.0000 1.0000
59.2400 240.0000 1.0000
59.2500 251.0000 1.0000
59.2600 225.0000 1.0000
59.2700 243.0000 1.0000
59.2800 222.0000 1.0000
59.2900 244.0000 1.0000
59.3000 247.0000 1.0000
59.3100 249.0000 1.0000
59.3200 236.0000 1.0000
59.3300 250.0000 1.0000
59.3400 259.0000 1.0000
59.3500 241.0000 1.0000
59.3600 252.0000 1.0000
59.3700 263.0000 1.0000
59.3800 240.0000 1.0000
59.3900 260.0000 1.0000
59.4000 231.0000 1.0000
59.4100 221.0000 1.0000
59.4200 261.0000 1.0000
59.4300 264.0000 1.0000
59.4400 235.0000 1.0000
59.4500 245.0000 1.0000
59.4600 223.0000 1.0000
59.4700 259.0000 1.0000
59.4800 256.0000 1.0000
59.4900 220.0000 1.0000
59.5000 208.0000 1.0000
59.5100 255.0000 1.0000
59.5200 241.0000 1.0000
59.5300 222.0000 1.0000
59.5400 232.0000 1.0000
59.5500 266.0000 1.0000
59.5600 252.0000 1.0000
59.5700 240.0000 1.0000
59.5800 253.0000 1.0000
59.5900 238.0000 1.0000
59.6000 243.0000 1.0000
59.6100 245.0000 1.0000
59.6200 256.0000 1.0000
59.6300 246.0000 1.0000
59.6400 241.0000 1.0000
59.6500 227.0000 1.0000
59.6600 253.0000 1.0000
59.6700 247.0000 1.0000
59.6800 258.0000 1.0000
59.6900 247.0000 1.0000
59.7000 238.0000 1.0000
59.7100 231.0000 1.0000
59.7200 233.0000 1.0000
59.7300 248.0000 1.0000
59.7400 268.0000 1.0000
59.7500 269.0000 1.0000
59.7600 250.0000 1.0000
59.7700 247.0000 1.0000
59.7800 253.0000 1.0000
59.7900 245.0000 1.0000
59.8000 238.0000 1.0000
59.8100 259.0000 1.0000
59.8200 262.0000 1.0000
59.8300 242.0000 1.0000
59.8400 250.0000 1.0000
59.8500 232.0000 1.0000
59.8600 229.0000 1.0000
59.8700 267.0000 1.0000
59.8800 243.0000 1.0000
59.8900 255.0000 1.0000
59.9000 251.0000 1.0000
59.9100 264.0000 1.0000
59.9200 266.0000 1.0000
59.9300 244.0000 1.0000
59.9400 227.0000 1.0000
59.9500 260.0000 1.0000
59.9600 235.0000 1.0000
59.9700 260.0000 1.0000
59.9800 240.0000 1.0000
59.9900 232.0000 1.0000
60.0000 274.0000 1.0000
60.0100 257.0000 1.0000
60.0200 266.0000 1.0000
60.0300 257.0000 1.0000
60.0400 231.0000 1.0000
60.0500 244.0000 1.0000
60.0600 250.0000 1.0000
60.0700 250.0000 1.0000
60.0800 243.0000 1.0000
60.0900 232.0000 1.0000
60.1000 262.0000 1.0000
60.1100 256.0000 1.0000
60.1200 251.0000 1.0000
60.1300 253.0000 1.0000
60.1400 245.0000 1.0000
60.1500 237.0000 1.0000
60.1600 267.0000 1.0000
60.1700 242.0000 1.0000
60.1800 218.0000 1.0000
60.1900 240.0000 1.0000
60.2000 249.0000 1.0000
60.2100 241.0000 1.0000
60.2200 234.0000 1.0000
60.2300 243.0000 1.0000
60.2400 246.0000 1.0000
60.2500 239.0000 1.0000
60.2600 261.0000 1.0000
60.2700 257.0000 1.0000
60.2800 229.0000 1.0000
60.2900 239.0000 1.0000
60.3000 244.0000 1.0000
60.3100 244.0000 1.0000
60.3200 237.0000 1.0000
60.3300 217.0000 1.0000
60.3400 245.0000 1.0000
60.3500 241.0000 1.0000
60.3600 238.0000 1.0000
60.3700 255.0000 1.0000
60.3800 257.0000 1.0000
60.3900 234.0000 1.0000
60.4000 252.0000 1.0000
60.4100 258.0000 1.0000
60.4200 245.0000 1.0000
60.4300 230.0000 1.0000
60.4400 271.0000 1.0000
60.4500 263.0000 1.0000
60.4600 262.0000 1.0000
60.4700 238.0000 1.0000
60.4800 258.0000 1.0000
60.4900 244.0000 1.0000
60.5000 259.0000 1.0000
60.5100 242.0000 1.0000
60.5200 248.0000 1.0000
60.5300 250.0000 1.0000
60.5400 271.0000 1.0000
60.5500 255.0000 1.0000
60.5600 251.0000 1.0000
60.5700 265.0000 1.0000
60.5800 267.0000 1.0000
60.5900 278.0000 1.0000
60.6000 254.0000 1.0000
60.6100 261.0000 1.0000
60.6200 235.0000 1.0000
60.6300 269.0000 1.0000
60.6400 264.0000 1.0000
60.6500 254.0000 1.0000
60.6600 272.0000 1.0000
60.6700 265.0000 1.0000
60.6800 259.0000 1.0000
60.6900 262.0000 1.0000
60.7000 249.0000 1.0000
60.7100 256.0000 1.0000
60.7200 248.0000 1.0000
60.7300 260.0000 1.0000
60.7400 258.0000 1.0000
60.7500 254.0000 1.0000
60.7600 257.0000 1.0000
60.7700 260.0000 1.0000
60.7800 249.0000 1.0000
60.7900 266.0000 1.0000
60.8000 273.0000 1.0000
60.8100 245.0000 1.0000
60.8200 274.0000 1.0000
60.8300 266.0000 1.0000
60.8400 255.0000 1.0000
60.8500 268.0000 1.0000
60.8600 234.0000 1.0000
60.8700 250.0000 1.0000
60.8800 255.0000 1.0000
60.8900 274.0000 1.0000
60.9000 255.0000 1.0000
60.9100 253.0000 1.0000
60.9200 301.0000 1.0000
60.9300 271.0000 1.0000
60.9400 261.0000 1.0000
60.9500 274.0000 1.0000
60.9600 283.0000 1.0000
60.9700 276.0000 1.0000
60.9800 261.0000 1.0000
60.9900 254.0000 1.0000
61.0000 276.0000 1.0000
61.0100 287.0000 1.0000
61.0200 270.0000 1.0000
61.0300 273.0000 1.0000
61.0400 296.0000 1.0000
61.0500 282.0000 1.0000
61.0600 267.0000 1.0000
61.0700 275.0000 1.0000
61.0800 257.0000 1.0000
61.0900 266.0000 1.0000
61.1000 275.0000 1.0000
61.1100 303.0000 1.0000
61.1200 291.0000 1.0000
61.1300 278.0000 1.0000
61.1400 285.0000 1.0000
61.1500 297.0000 1.0000
61.1600 276.0000 1.0000
61.1700 291.0000 1.0000
61.1800 298.0000 1.0000
61.1900 296.0000 1.0000
61.2000 301.0000 1.0000
61.2100 315.0000 1.0000
61.2200 288.0000 1.0000
61.2300 303.0000 1.0000
61.2400 309.0000 1.0000
61.2500 309.0000 1.0000
61.2600 315.0000 1.0000
61.2700 316.0000 1.0000
61.2800 317.0000 1.0000
61.2900 328.0000 1.0000
61.3000 325.0000 1.0000
61.3100 333.0000 1.0000
61.3200 377.0000 1.0000
61.3300 354.0000 1.0000
61.3400 378.0000 1.0000
61.3500 402.0000 1.0000
61.3600 390.0000 1.0000
61.3700 399.0000 1.0000
61.3800 400.0000 1.0000
61.3900 388.0000 1.0000
61.4000 393.0000 1.0000
61.4100 415.0000 1.0000
61.4200 437.0000 1.0000
61.4300 440.0000 1.0000
61.4400 424.0000 1.0000
61.4500 407.0000 1.0000
61.4600 460.0000 1.0000
61.4700 471.0000 1.0000
61.4800 507.0000 1.0000
61.4900 501.0000 1.0000
61.5000 491.0000 1.0000
61.5100 499.0000 1.0000
61.5200 522.0000 1.0000
61.5300 482.0000 1.0000
61.5400 498.0000 1.0000
61.5500 504.0000 1.0000
61.5600 488.0000 1.0000
61.5700 515.0000 1.0000
61.5800 536.0000 1.0000
61.5900 511.0000 1.0000
61.6000 500.0000 1.0000
61.6100 556.0000 1.0000
61.6200 551.0000 1.0000
61.6300 527.0000 1.0000
61.6400 554.0000 1.0000
61.6500 532.0000 1.0000
61.6600 535.0000 1.0000
61.6700 555.0000 1.0000
61.6800 530.0000 1.0000
61.6900 491.0000 1.0000
61.7000 535.0000 1.0000
61.7100 499.0000 1.0000
61.7200 512.0000 1.0000
61.7300 474.0000 1.0000
61.7400 499.0000 1.0000
61.7500 490.0000 1.0000
61.7600 485.0000 1.0000
61.7700 431.0000 1.0000
61.7800 464.0000 1.0000
61.7900 424.0000 1.0000
61.8000 453.0000 1.0000
61.8100 428.0000 1.0000
61.8200 445.0000 1.0000
61.8300 434.0000 1.0000
61.8400 390.0000 1.0000
61.8500 408.0000 1.0000
61.8600 417.0000 1.0000
61.8700 391.0000 1.0000
61.8800 389.0000 1.0000
61.8900 386.0000 1.0000
61.9000 392.0000 1.0000
61.9100 378.0000 1.0000
61.9200 386.0000 1.0000
61.9300 371.0000 1.0000
61.9400 356.0000 1.0000
61.9500 334.0000 1.0000
61.9600 335.0000 1.0000
61.9700 374.0000 1.0000
61.9800 359.0000 1.0000
61.9900 366.0000 1.0000
62.0000 334.0000 1.0000
62.0100 358.0000 1.0000
62.0200 319.0000 1.0000
62.0300 343.0000 1.0000
62.0400 317.0000 1.0000
62.0500 337.0000 1.0000
62.0600 317.0000 1.0000
62.0700 310.0000 1.0000
62.0800 342.0000 1.0000
62.0900 288.0000 1.0000
62.1000 302.0000 1.0000
62.1100 312.0000 1.0000
62.1200 298.0000 1.0000
62.1300 276.0000 1.0000
62.1400 282.0000 1.0000
62.1500 311.0000 1.0000
62.1600 304.0000 1.0000
62.1700 294.0000 1.0000
62.1800 278.0000 1.0000
62.1900 342.0000 1.0000
62.2000 303.0000 1.0000
62.2100 280.0000 1.0000
62.2200 299.0000 1.0000
62.2300 309.0000 1.0000
62.2400 259.0000 1.0000
62.2500 285.0000 1.0000
62.2600 271.0000 1.0000
62.2700 319.0000 1.0000
62.2800 297.0000 1.0000
62.2900 264.0000 1.0000
62.3000 272.0000 1.0000
62.3100 284.0000 1.0000
62.3200 286.0000 1.0000
62.3300 319.0000 1.0000
62.3400 266.0000 1.0000
62.3500 298.0000 1.0000
62.3600 307.0000 1.0000
62.3700 307.0000 1.0000
62.3800 303.0000 1.0000
62.3900 288.0000 1.0000
62.4000 289.0000 1.0000
62.4100 301.0000 1.0000
62.4200 293.0000 1.0000
62.4300 266.0000 1.0000
62.4400 283.0000 1.0000
62.4500 273.0000 1.0000
62.4600 284.0000 1.0000
62.4700 319.0000 1.0000
62.4800 316.0000 1.0000
62.4900 275.0000 1.0000
62.5000 289.0000 1.0000
62.5100 305.0000 1.0000
62.5200 285.0000 1.0000
62.5300 278.0000 1.0000
62.5400 268.0000 1.0000
62.5500 297.0000 1.0000
62.5600 270.0000 1.0000
62.5700 298.0000 1.0000
62.5800 269.0000 1.0000
62.5900 247.0000 1.0000
62.6000 262.0000 1.0000
62.6100 270.0000 1.0000
62.6200 263.0000 1.0000
62.6300 270.0000 1.0000
62.6400 298.0000 1.0000
62.6500 267.0000 1.0000
62.6600 265.0000 1.0000
62.6700 261.0000 1.0000
62.6800 269.0000 1.0000
62.6900 270.0000 1.0000
62.7000 272.0000 1.0000
62.7100 258.0000 1.0000
62.7200 286.0000 1.0000
62.7300 273.0000 1.0000
62.7400 249.0000 1.0000
62.7500 240.0000 1.0000
62.7600 250.0000 1.0000
62.7700 256.0000 1.0000
62.7800 258.0000 1.0000
62.7900 258.0000 1.0000
62.8000 267.0000 1.0000
62.8100 257.0000 1.0000
62.8200 251.0000 1.0000
62.8300 267.0000 1.0000
62.8400 278.0000 1.0000
62.8500 239.0000 1.0000
62.8600 232.0000 1.0000
62.8700 254.0000 1.0000
62.8800 260.0000 1.0000
62.8900 269.0000 1.0000
62.9000 287.0000 1.0000
62.9100 259.0000 1.0000
62.9200 238.0000 1.0000
62.9300 253.0000 1.0000
62.9400 265.0000 1.0000
62.9500 245.0000 1.0000
62.9600 255.0000 1.0000
62.9700 259.0000 1.0000
62.9800 240.0000 1.0000
62.9900 261.0000 1.0000
63.0000 255.0000 1.0000
63.0100 233.0000 1.0000
63.0200 261.0000 1.0000
63.0300 259.0000 1.0000
63.0400 251.0000 1.0000
63.0500 245.0000 1.0000
63.0600 257.0000 1.0000
63.0700 255.0000 1.0000
63.0800 277.0000 1.0000
63.0900 230.0000 1.0000
63.1000 248.0000 1.0000
63.1100 254.0000 1.0000
63.1200 243.0000 1.0000
63.1300 253.0000 1.0000
63.1400 253.0000 1.0000
63.1500 260.0000 1.0000
63.1600 224.0000 1.0000
63.1700 235.0000 1.0000
63.1800 261.0000 1.0000
63.1900 253.0000 1.0000
63.2000 238.0000 1.0000
63.2100 250.0000 1.0000
63.2200 249.0000 1.0000
63.2300 278.0000 1.0000
63.2400 247.0000 1.0000
63.2500 249.0000 1.0000
63.2600 276.0000 1.0000
63.2700 252.0000 1.0000
63.2800 262.0000 1.0000
63.2900 271.0000 1.0000
63.3000 252.0000 1.0000
63.3100 251.0000 1.0000
63.3200 270.0000 1.0000
63.3300 250.0000 1.0000
63.3400 255.0000 1.0000
63.3500 247.0000 1.0000
63.3600 246.0000 1.0000
63.3700 266.0000 1.0000
63.3800 244.0000 1.0000
63.3900 244.0000 1.0000
63.4000 256.0000 1.0000
63.4100 245.0000 1.0000
63.4200 251.0000 1.0000
63.4300 240.0000 1.0000
63.4400 262.0000 1.0000
63.4500 237.0000 1.0000
63.4600 237.0000 1.0000
63.4700 249.0000 1.0000
63.4800 258.0000 1.0000
63.4900 266.0000 1.0000
63.5000 249.0000 1.0000
63.5100 226.0000 1.0000
63.5200 223.0000 1.0000
63.5300 246.0000 1.0000
63.5400 252.0000 1.0000
63.5500 248.0000 1.0000
63.5600 252.0000 1.0000
63.5700 267.0000 1.0000
63.5800 249.0000 1.0000
63.5900 279.0000 1.0000
63.6000 258.0000 1.0000
63.6100 256.0000 1.0000
63.6200 264.0000 1.0000
63.6300 267.0000 1.0000
63.6400 241.0000 1.0000
63.6500 262.0000 1.0000
63.6600 241.0000 1.0000
63.6700 271.0000 1.0000
63.6800 249.0000 1.0000
63.6900 247.0000 1.0000
63.7000 265.0000 1.0000
63.7100 263.0000 1.0000
63.7200 250.0000 1.0000
63.7300 241.0000 1.0000
63.7400 259.0000 1.0000
63.7500 242.0000 1.0000
63.7600 262.0000 1.0000
63.7700 263.0000 1.0000
63.7800 254.0000 1.0000
63.7900 267.0000 1.0000
63.8000 269.0000 1.0000
63.8100 252.0000 1.0000
63.8200 266.0000 1.0000
63.8300 272.0000 1.0000
63.8400 282.0000 1.0000
63.8500 283.0000 1.0000
63.8600 281.0000 1.0000
63.8700 283.0000 1.0000
63.8800 283.0000 1.0000
63.8900 282.0000 1.0000
63.9000 278.0000 1.0000
63.9100 319.0000 1.0000
63.9200 285.0000 1.0000
63.9300 296.0000 1.0000
63.9400 289.0000 1.0000
63.9500 305.0000 1.0000
63.9600 296.0000 1.0000
63.9700 273.0000 1.0000
63.9800 288.0000 1.0000
63.9900 294.0000 1.0000
64.0000 289.0000 1.0000
64.0100 275.0000 1.0000
64.0200 275.0000 1.0000
64.0300 295.0000 1.0000
64.0400 295.0000 1.0000
64.0500 318.0000 1.0000
64.0600 305.0000 1.0000
64.0700 336.0000 1.0000
64.0800 292.0000 1.0000
64.0900 297.0000 1.0000
64.1000 304.0000 1.0000
64.1100 300.0000 1.0000
64.1200 280.0000 1.0000
64.1300 264.0000 1.0000
64.1400 287.0000 1.0000
64.1500 283.0000 1.0000
64.1600 274.0000 1.0000
64.1700 272.0000 1.0000
64.1800 316.0000 1.0000
64.1900 310.0000 1.0000
64.2000 274.0000 1.0000
64.2100 261.0000 1.0000
64.2200 263.0000 1.0000
64.2300 277.0000 1.0000
64.2400 285.0000 1.0000
64.2500 309.0000 1.0000
64.2600 270.0000 1.0000
64.2700 290.0000 1.0000
64.2800 278.0000 1.0000
64.2900 260.0000 1.0000
64.3000 259.0000 1.0000
64.3100 274.0000 1.0000
64.3200 264.0000 1.0000
64.3300 247.0000 1.0000
64.3400 280.0000 1.0000
64.3500 289.0000 1.0000
64.3600 278.0000 1.0000
64.3700 263.0000 1.0000
64.3800 268.0000 1.0000
64.3900 279.0000 1.0000
64.4000 287.0000 1.0000
64.4100 273.0000 1.0000
64.4200 261.0000 1.0000
64.4300 251.0000 1.0000
64.4400 247.0000 1.0000
64.4500 265.0000 1.0000
64.4600 260.0000 1.0000
64.4700 269.0000 1.0000
64.4800 256.0000 1.0000
64.4900 241.0000 1.0000
64.5000 256.0000 1.0000
64.5100 239.0000 1.0000
64.5200 259.0000 1.0000
64.5300 274.0000 1.0000
64.5400 294.0000 1.0000
64.5500 270.0000 1.0000
64.5600 275.0000 1.0000
64.5700 260.0000 1.0000
64.5800 261.0000 1.0000
64.5900 246.0000 1.0000
64.6000 276.0000 1.0000
64.6100 285.0000 1.0000
64.6200 262.0000 1.0000
64.6300 263.0000 1.0000
64.6400 268.0000 1.0000
64.6500 266.0000 1.0000
64.6600 245.0000 1.0000
64.6700 267.0000 1.0000
64.6800 270.0000 1.0000
64.6900 238.0000 1.0000
64.7000 238.0000 1.0000
64.7100 265.0000 1.0000
64.7200 273.0000 1.0000
64.7300 265.0000 1.0000
64.7400 270.0000 1.0000
64.7500 307.0000 1.0000
64.7600 272.0000 1.0000
64.7700 277.0000 1.0000
64.7800 264.0000 1.0000
64.7900 265.0000 1.0000
64.8000 268.0000 1.0000
64.8100 269.0000 1.0000
64.8200 265.0000 1.0000
64.8300 263.0000 1.0000
64.8400 280.0000 1.0000
64.8500 273.0000 1.0000
64.8600 285.0000 1.0000
64.8700 241.0000 1.0000
64.8800 261.0000 1.0000
64.8900 287.0000 1.0000
64.9000 306.0000 1.0000
64.9100 293.0000 1.0000
64.9200 272.0000 1.0000
64.9300 292.0000 1.0000
64.9400 287.0000 1.0000
64.9500 271.0000 1.0000
64.9600 287.0000 1.0000
64.9700 274.0000 1.0000
64.9800 283.0000 1.0000
64.9900 293.0000 1.0000
65.0000 265.0000 1.0000
65.0100 277.0000 1.0000
65.0200 282.0000 1.0000
65.0300 297.0000 1.0000
65.0400 302.0000 1.0000
65.0500 296.0000 1.0000
65.0600 287.0000 1.0000
65.0700 300.0000 1.0000
65.0800 314.0000 1.0000
65.0900 313.0000 1.0000
65.1000 287.0000 1.0000
65.1100 284.0000 1.0000
65.1200 294.0000 1.0000
65.1300 300.0000 1.0000
65.1400 312.0000 1.0000
65.1500 329.0000 1.0000
65.1600 315.0000 1.0000
65.1700 338.0000 1.0000
65.1800 330.0000 1.0000
65.1900 320.0000 1.0000
65.2000 337.0000 1.0000
65.2100 355.0000 1.0000
65.2200 362.0000 1.0000
65.2300 355.0000 1.0000
65.2400 380.0000 1.0000
65.2500 387.0000 1.0000
65.2600 391.0000 1.0000
65.2700 385.0000 1.0000
65.2800 379.0000 1.0000
65.2900 390.0000 1.0000
65.3000 404.0000 1.0000
65.3100 426.0000 1.0000
65.3200 401.0000 1.0000
65.3300 438.0000 1.0000
65.3400 442.0000 1.0000
65.3500 456.0000 1.0000
65.3600 485.0000 1.0000
65.3700 487.0000 1.0000
65.3800 510.0000 1.0000
65.3900 561.0000 1.0000
65.4000 589.0000 1.0000
65.4100 620.0000 1.0000
65.4200 586.0000 1.0000
65.4300 652.0000 1.0000
65.4400 649.0000 1.0000
65.4500 720.0000 1.0000
65.4600 734.0000 1.0000
65.4700 740.0000 1.0000
65.4800 764.0000 1.0000
65.4900 762.0000 1.0000
65.5000 751.0000 1.0000
65.5100 792.0000 1.0000
65.5200 778.0000 1.0000
65.5300 789.0000 1.0000
65.5400 778.0000 1.0000
65.5500 798.0000 1.0000
65.5600 788.0000 1.0000
65.5700 803.0000 1.0000
65.5800 788.0000 1.0000
65.5900 802.0000 1.0000
65.6000 752.0000 1.0000
65.6100 714.0000 1.0000
65.6200 737.0000 1.0000
65.6300 701.0000 1.0000
65.6400 732.0000 1.0000
65.6500 668.0000 1.0000
65.6600 700.0000 1.0000
65.6700 706.0000 1.0000
65.6800 647.0000 1.0000
65.6900 642.0000 1.0000
65.7000 640.0000 1.0000
65.7100 644.0000 1.0000
65.7200 685.0000 1.0000
65.7300 661.0000 1.0000
65.7400 570.0000 1.0000
65.7500 570.0000 1.0000
65.7600 591.0000 1.0000
65.7700 555.0000 1.0000
65.7800 521.0000 1.0000
65.7900 510.0000 1.0000
65.8000 494.0000 1.0000
65.8100 463.0000 1.0000
65.8200 471.0000 1.0000
65.8300 437.0000 1.0000
65.8400 414.0000 1.0000
65.8500 394.0000 1.0000
65.8600 395.0000 1.0000
65.8700 385.0000 1.0000
65.8800 400.0000 1.0000
65.8900 360.0000 1.0000
65.9000 372.0000 1.0000
65.9100 357.0000 1.0000
65.9200 311.0000 1.0000
65.9300 348.0000 1.0000
65.9400 331.0000 1.0000
65.9500 324.0000 1.0000
65.9600 304.0000 1.0000
65.9700 315.0000 1.0000
65.9800 326.0000 1.0000
65.9900 318.0000 1.0000
66.0000 295.0000 1.0000
66.0100 325.0000 1.0000
66.0200 300.0000 1.0000
66.0300 287.0000 1.0000
66.0400 321.0000 1.0000
66.0500 294.0000 1.0000
66.0600 262.0000 1.0000
66.0700 274.0000 1.0000
66.0800 258.0000 1.0000
66.0900 273.0000 1.0000
66.1000 283.0000 1.0000
66.1100 299.0000 1.0000
66.1200 284.0000 1.0000
66.1300 282.0000 1.0000
66.1400 255.0000 1.0000
66.1500 272.0000 1.0000
66.1600 279.0000 1.0000
66.1700 292.0000 1.0000
66.1800 273.0000 1.0000
66.1900 272.0000 1.0000
66.2000 281.0000 1.0000
66.2100 286.0000 1.0000
66.2200 256.0000 1.0000
66.2300 241.0000 1.0000
66.2400 254.0000 1.0000
66.2500 267.0000 1.0000
66.2600 273.0000 1.0000
66.2700 252.0000 1.0000
66.2800 240.0000 1.0000
66.2900 259.0000 1.0000
66.3000 267.0000 1.0000
66.3100 245.0000 1.0000
66.3200 253.0000 1.0000
66.3300 241.0000 1.0000
66.3400 246.0000 1.0000
66.3500 247.0000 1.0000
66.3600 232.0000 1.0000
66.3700 249.0000 1.0000
66.3800 224.0000 1.0000
66.3900 248.0000 1.0000
66.4000 248.0000 1.0000
66.4100 230.0000 1.0000
66.4200 210.0000 1.0000
66.4300 247.0000 1.0000
66.4400 249.0000 1.0000
66.4500 228.0000 1.0000
66.4600 258.0000 1.0000
66.4700 240.0000 1.0000
66.4800 227.0000 1.0000
66.4900 235.0000 1.0000
66.5000 227.0000 1.0000
66.5100 254.0000 1.0000
66.5200 250.0000 1.0000
66.5300 260.0000 1.0000
66.5400 258.0000 1.0000
66.5500 247.0000 1.0000
66.5600 238.0000 1.0000
66.5700 223.0000 1.0000
66.5800 226.0000 1.0000
66.5900 207.0000 1.0000
66.6000 251.0000 1.0000
66.6100 207.0000 1.0000
66.6200 239.0000 1.0000
66.6300 230.0000 1.0000
66.6400 243.0000 1.0000
66.6500 249.0000 1.0000
66.6600 259.0000 1.0000
66.6700 258.0000 1.0000
66.6800 261.0000 1.0000
66.6900 231.0000 1.0000
66.7000 241.0000 1.0000
66.7100 247.0000 1.0000
66.7200 253.0000 1.0000
66.7300 252.0000 1.0000
66.7400 253.0000 1.0000
66.7500 208.0000 1.0000
66.7600 227.0000 1.0000
66.7700 228.0000 1.0000
66.7800 225.0000 1.0000
66.7900 228.0000 1.0000
66.8000 224.0000 1.0000
66.8100 232.0000 1.0000
66.8200 218.0000 1.0000
66.8300 248.0000 1.0000
66.8400 233.0000 1.0000
66.8500 238.0000 1.0000
66.8600 235.0000 1.0000
66.8700 215.0000 1.0000
66.8800 258.0000 1.0000
66.8900 245.0000 1.0000
66.9000 235.0000 1.0000
66.9100 244.0000 1.0000
66.9200 237.0000 1.0000
66.9300 223.0000 1.0000
66.9400 234.0000 1.0000
66.9500 253.0000 1.0000
66.9600 243.0000 1.0000
66.9700 225.0000 1.0000
66.9800 233.0000 1.0000
66.9900 234.0000 1.0000
67.0000 224.0000 1.0000
67.0100 236.0000 1.0000
67.0200 225.0000 1.0000
67.0300 217.0000 1.0000
67.0400 224.0000 1.0000
67.0500 235.0000 1.0000
67.0600 226.0000 1.0000
67.0700 209.0000 1.0000
67.0800 231.0000 1.0000
67.0900 218.0000 1.0000
67.1000 230.0000 1.0000
67.1100 248.0000 1.0000
67.1200 228.0000 1.0000
67.1300 225.0000 1.0000
67.1400 212.0000 1.0000
67.1500 242.0000 1.0000
67.1600 218.0000 1.0000
67.1700 233.0000 1.0000
67.1800 228.0000 1.0000
67.1900 228.0000 1.0000
67.2000 259.0000 1.0000
67.2100 225.0000 1.0000
67.2200 221.0000 1.0000
67.2300 239.0000 1.0000
67.2400 242.0000 1.0000
67.2500 227.0000 1.0000
67.2600 218.0000 1.0000
67.2700 241.0000 1.0000
67.2800 227.0000 1.0000
67.2900 249.0000 1.0000
67.3000 216.0000 1.0000
67.3100 231.0000 1.0000
67.3200 220.0000 1.0000
67.3300 236.0000 1.0000
67.3400 209.0000 1.0000
67.3500 225.0000 1.0000
67.3600 216.0000 1.0000
67.3700 236.0000 1.0000
67.3800 212.0000 1.0000
67.3900 246.0000 1.0000
67.4000 255.0000 1.0000
67.4100 218.0000 1.0000
67.4200 228.0000 1.0000
67.4300 238.0000 1.0000
67.4400 219.0000 1.0000
67.4500 248.0000 1.0000
67.4600 231.0000 1.0000
67.4700 245.0000 1.0000
67.4800 235.0000 1.0000
67.4900 211.0000 1.0000
67.5000 221.0000 1.0000
67.5100 237.0000 1.0000
67.5200 237.0000 1.0000
67.5300 255.0000 1.0000
67.5400 252.0000 1.0000
67.5500 226.0000 1.0000
67.5600 231.0000 1.0000
67.5700 237.0000 1.0000
67.5800 236.0000 1.0000
67.5900 221.0000 1.0000
67.6000 231.0000 1.0000
67.6100 218.0000 1.0000
67.6200 223.0000 1.0000
67.6300 229.0000 1.0000
67.6400 226.0000 1.0000
67.6500 220.0000 1.0000
67.6600 228.0000 1.0000
67.6700 234.0000 1.0000
67.6800 230.0000 1.0000
67.6900 234.0000 1.0000
67.7000 235.0000 1.0000
67.7100 215.0000 1.0000
67.7200 224.0000 1.0000
67.7300 239.0000 1.0000
67.7400 214.0000 1.0000
67.7500 244.0000 1.0000
67.7600 224.0000 1.0000
67.7700 221.0000 1.0000
67.7800 214.0000 1.0000
67.7900 224.0000 1.0000
67.8000 230.0000 1.0000
67.8100 222.0000 1.0000
67.8200 240.0000 1.0000
67.8300 224.0000 1.0000
67.8400 232.0000 1.0000
67.8500 241.0000 1.0000
67.8600 218.0000 1.0000
67.8700 225.0000 1.0000
67.8800 241.0000 1.0000
67.8900 249.0000 1.0000
67.9000 221.0000 1.0000
67.9100 241.0000 1.0000
67.9200 208.0000 1.0000
67.9300 230.0000 1.0000
67.9400 262.0000 1.0000
67.9500 237.0000 1.0000
67.9600 215.0000 1.0000
67.9700 219.0000 1.0000
67.9800 218.0000 1.0000
67.9900 221.0000 1.0000
68.0000 190.0000 1.0000
68.0100 220.0000 1.0000
68.0200 218.0000 1.0000
68.0300 214.0000 1.0000
68.0400 234.0000 1.0000
68.0500 213.0000 1.0000
68.0600 222.0000 1.0000
68.0700 219.0000 1.0000
68.0800 235.0000 1.0000
68.0900 237.0000 1.0000
68.1000 227.0000 1.0000
68.1100 247.0000 1.0000
68.1200 242.0000 1.0000
68.1300 245.0000 1.0000
68.1400 230.0000 1.0000
68.1500 221.0000 1.0000
68.1600 207.0000 1.0000
68.1700 226.0000 1.0000
68.1800 247.0000 1.0000
68.1900 217.0000 1.0000
68.2000 234.0000 1.0000
68.2100 221.0000 1.0000
68.2200 237.0000 1.0000
68.2300 227.0000 1.0000
68.2400 201.0000 1.0000
68.2500 224.0000 1.0000
68.2600 231.0000 1.0000
68.2700 217.0000 1.0000
68.2800 233.0000 1.0000
68.2900 227.0000 1.0000
68.3000 203.0000 1.0000
68.3100 207.0000 1.0000
68.3200 232.0000 1.0000
68.3300 215.0000 1.0000
68.3400 220.0000 1.0000
68.3500 236.0000 1.0000
68.3600 206.0000 1.0000
68.3700 216.0000 1.0000
68.3800 190.0000 1.0000
68.3900 192.0000 1.0000
68.4000 217.0000 1.0000
68.4100 213.0000 1.0000
68.4200 211.0000 1.0000
68.4300 211.0000 1.0000
68.4400 241.0000 1.0000
68.4500 239.0000 1.0000
68.4600 208.0000 1.0000
68.4700 201.0000 1.0000
68.4800 195.0000 1.0000
68.4900 199.0000 1.0000
68.5000 209.0000 1.0000
68.5100 212.0000 1.0000
68.5200 215.0000 1.0000
68.5300 219.0000 1.0000
68.5400 204.0000 1.0000
68.5500 204.0000 1.0000
68.5600 232.0000 1.0000
68.5700 234.0000 1.0000
68.5800 231.0000 1.0000
68.5900 225.0000 1.0000
68.6000 226.0000 1.0000
68.6100 219.0000 1.0000
68.6200 235.0000 1.0000
68.6300 212.0000 1.0000
68.6400 225.0000 1.0000
68.6500 199.0000 1.0000
68.6600 226.0000 1.0000
68.6700 205.0000 1.0000
68.6800 198.0000 1.0000
68.6900 206.0000 1.0000
68.7000 234.0000 1.0000
68.7100 228.0000 1.0000
68.7200 224.0000 1.0000
68.7300 210.0000 1.0000
68.7400 203.0000 1.0000
68.7500 223.0000 1.0000
68.7600 230.0000 1.0000
68.7700 235.0000 1.0000
68.7800 211.0000 1.0000
68.7900 218.0000 1.0000
68.8000 207.0000 1.0000
68.8100 237.0000 1.0000
68.8200 229.0000 1.0000
68.8300 212.0000 1.0000
68.8400 200.0000 1.0000
68.8500 229.0000 1.0000
68.8600 202.0000 1.0000
68.8700 221.0000 1.0000
68.8800 240.0000 1.0000
68.8900 231.0000 1.0000
68.9000 227.0000 1.0000
68.9100 206.0000 1.0000
68.9200 216.0000 1.0000
68.9300 249.0000 1.0000
68.9400 222.0000 1.0000
68.9500 208.0000 1.0000
68.9600 205.0000 1.0000
68.9700 211.0000 1.0000
68.9800 212.0000 1.0000
68.9900 215.0000 1.0000
69.0000 219.0000 1.0000
69.0100 209.0000 1.0000
69.0200 235.0000 1.0000
69.0300 246.0000 1.0000
69.0400 230.0000 1.0000
69.0500 213.0000 1.0000
69.0600 217.0000 1.0000
69.0700 221.0000 1.0000
69.0800 229.0000 1.0000
69.0900 224.0000 1.0000
69.1000 218.0000 1.0000
69.1100 220.0000 1.0000
69.1200 227.0000 1.0000
69.1300 217.0000 1.0000
69.1400 203.0000 1.0000
69.1500 208.0000 1.0000
69.1600 199.0000 1.0000
69.1700 214.0000 1.0000
69.1800 194.0000 1.0000
69.1900 212.0000 1.0000
69.2000 228.0000 1.0000
69.2100 234.0000 1.0000
69.2200 208.0000 1.0000
69.2300 238.0000 1.0000
69.2400 217.0000 1.0000
69.2500 202.0000 1.0000
69.2600 189.0000 1.0000
69.2700 214.0000 1.0000
69.2800 215.0000 1.0000
69.2900 220.0000 1.0000
69.3000 240.0000 1.0000
69.3100 221.0000 1.0000
69.3200 184.0000 1.0000
69.3300 206.0000 1.0000
69.3400 210.0000 1.0000
69.3500 219.0000 1.0000
69.3600 220.0000 1.0000
69.3700 208.0000 1.0000
69.3800 222.0000 1.0000
69.3900 219.0000 1.0000
69.4000 205.0000 1.0000
69.4100 221.0000 1.0000
69.4200 229.0000 1.0000
69.4300 221.0000 1.0000
69.4400 243.0000 1.0000
69.4500 212.0000 1.0000
69.4600 225.0000 1.0000
69.4700 209.0000 1.0000
69.4800 209.0000 1.0000
69.4900 203.0000 1.0000
69.5000 205.0000 1.0000
69.5100 224.0000 1.0000
69.5200 222.0000 1.0000
69.5300 225.0000 1.0000
69.5400 260.0000 1.0000
69.5500 196.0000 1.0000
69.5600 237.0000 1.0000
69.5700 223.0000 1.0000
69.5800 223.0000 1.0000
69.5900 222.0000 1.0000
69.6000 229.0000 1.0000
69.6100 228.0000 1.0000
69.6200 214.0000 1.0000
69.6300 225.0000 1.0000
69.6400 235.0000 1.0000
69.6500 237.0000 1.0000
69.6600 254.0000 1.0000
69.6700 242.0000 1.0000
69.6800 218.0000 1.0000
69.6900 213.0000 1.0000
69.7000 226.0000 1.0000
69.7100 204.0000 1.0000
69.7200 210.0000 1.0000
69.7300 209.0000 1.0000
69.7400 182.0000 1.0000
69.7500 222.0000 1.0000
69.7600 225.0000 1.0000
69.7700 226.0000 1.0000
69.7800 225.0000 1.0000
69.7900 232.0000 1.0000
69.8000 220.0000 1.0000
69.8100 188.0000 1.0000
69.8200 181.0000 1.0000
69.8300 236.0000 1.0000
69.8400 207.0000 1.0000
69.8500 204.0000 1.0000
69.8600 203.0000 1.0000
69.8700 213.0000 1.0000
69.8800 210.0000 1.0000
69.8900 221.0000 1.0000
69.9000 199.0000 1.0000
69.9100 220.0000 1.0000
69.9200 221.0000 1.0000
69.9300 225.0000 1.0000
69.9400 191.0000 1.0000
69.9500 206.0000 1.0000
69.9600 200.0000 1.0000
69.9700 215.0000 1.0000
69.9800 212.0000 1.0000
69.9900 193.0000 1.0000
70.0000 228.0000 1.0000
*RAS_INT_END
*RAS_TEMPERATURE_START
*RAS_TEMPERATURE_END
*RAS_DATA_END
