*RAS_DATA_START
*RAS_HEADER_START
*DISP_FMT_X "%.2f"
*DISP_FMT_Y "%.0f"
*DISP_FULLSCALE "15485.0000000000"
*DISP_LINE_COLOR "255.0000000000"
*DISP_LINE_STYLE "0.0000000000"
*DISP_LINE_WIDTH "0.2500000000"
*DISP_NOTE "測定データ-3"
*DISP_OFFSET_Y "0.0000000000"
*DISP_PEAKSEARCH_UNIT_Y "cps"
*DISP_RANGE_BOTTOM "0.0000000000"
*DISP_RANGE_LEFT "20.0000000000"
*DISP_RANGE_LOGCUTOFF "0.0100000000"
*DISP_RANGE_RIGHT "70.0000000000"
*DISP_RANGE_TOP "15485.0000000000"
*DISP_SCALE_MODE_Y "0.0000000000"
*DISP_TAB_NAME "2θ/θ"
*DISP_TITLE_Y "強度"
*DISP_UNIT_Y "cps"
*DISP_WINDOW_NAME "MSG_MACROENGINE"
*FILE_COMMENT " "
*FILE_MD5 ""
*FILE_MEMO " "
*FILE_OPERATOR "Administrator"
*FILE_SAMPLE " "
*FILE_TYPE "RAS_RAW"
*FILE_USERGROUP "システムマネージャ"
*FILE_VERSION "1.0000000000"
*HW_ATTACHMENT_ID "ATT0025"
*HW_ATTACHMENT_NAME "標準|Standard"
*HW_COUNTER_ID-0 "CUT0025"
*HW_COUNTER_ID-1 "CUT0020"
*HW_COUNTER_ID-2 "CUT0020"
*HW_COUNTER_ID-3 "CSL0021"
*HW_COUNTER_ID-4 "CMC0021"
*HW_COUNTER_NAME-0 "D/teX Ultra|D/teX Ultra"
*HW_COUNTER_NAME-1 "None|None"
*HW_COUNTER_NAME-2 "None|None"
*HW_COUNTER_NAME-3 "BBM|BBM"
*HW_COUNTER_NAME-4 "検出器モノクロメータ|Detector monochromator"
*HW_COUNTER_SELECT_NAME "D/teX Ultra|D/teX Ultra"
*HW_GONIOMETER_ID "GON0023"
*HW_GONIOMETER_NAME "SmartLab|SmartLab"
*HW_GONIOMETER_RADIUS-0 "90.0"
*HW_GONIOMETER_RADIUS-1 "114.0"
*HW_GONIOMETER_RADIUS-2 "190.0"
*HW_GONIOMETER_RADIUS-3 "300.0"
*HW_GONIOMETER_RADIUS-4 "187.0"
*HW_GONIOMETER_RADIUS-5 "300.0"
*HW_GONIOMETER_RADIUS-6 "113.0"
*HW_GONIOMETER_RADIUS-7 "331.0"
*HW_I_OPT_ID-0 "CBO0021"
*HW_I_OPT_ID-1 "ICR0023"
*HW_I_OPT_ID-2 "ISL0021"
*HW_I_OPT_ID-3 "ISO0021"
*HW_I_OPT_ID-4 "IAD0021"
*HW_I_OPT_ID-5 "IPR0001"
*HW_I_OPT_NAME-0 "CBOユニット|CBO unit"
*HW_I_OPT_NAME-1 "標準入射光学ユニット|Standard incident optical unit"
*HW_I_OPT_NAME-2 "標準入射スリットボックス|Standard incident slit box"
*HW_I_OPT_NAME-3 "入射平行スリット|Incident parallel slit"
*HW_I_OPT_NAME-4 "長手制限スリット|Length limiting slit"
*HW_I_OPT_NAME-5 "None|None"
*HW_R_ATTENUATER_AUTOMODE "0"
*HW_R_OPT_ID-0 "RSS0021"
*HW_R_OPT_ID-1 "RCR0023"
*HW_R_OPT_ID-2 "RSO0021"
*HW_R_OPT_ID-3 "RRS0021"
*HW_R_OPT_ID-4 "ATN0021"
*HW_R_OPT_ID-5 "RFL0021"
*HW_R_OPT_ID-6 "RAD0021"
*HW_R_OPT_NAME-0 "標準受光スリットボックス1|Standard receiving slit box # 1"
*HW_R_OPT_NAME-1 "標準受光光学ユニット1|Standard receiving unit # 1"
*HW_R_OPT_NAME-2 "標準受光光学ユニット2|Standard receiving optical unit # 2"
*HW_R_OPT_NAME-3 "標準受光スリットボックス2|Standard receiving slit box # 2"
*HW_R_OPT_NAME-4 "標準アッテネータ|Standard Attenuator"
*HW_R_OPT_NAME-5 "Cu Kβ|Cu K-beta"
*HW_R_OPT_NAME-6 "調整用受光スリット|Alignment receiving slit"
*HW_SAMPLE_HOLDER_ID "SMP0023"
*HW_SAMPLE_HOLDER_NAME "標準Zステージ|Standard Z stage"
*HW_XG_CURRENT_MAX "50"
*HW_XG_CURRENT_MIN "2"
*HW_XG_CURRENT_RESOLUTION "1"
*HW_XG_CURRENT_UNIT "mA"
*HW_XG_FOCUS "1mm x 10mm"
*HW_XG_FOCUS_TYPE "Normal"
*HW_XG_ID ""
*HW_XG_NAME "3kW 封入管(ID:1200)|3kW Sealed tube(ID:1200)"
*HW_XG_TARGET_ATOMIC_NUMBER "29.0000000000"
*HW_XG_TARGET_NAME "Cu"
*HW_XG_TYPE "Hermetic"
*HW_XG_VOLTAGE_MAX "60"
*HW_XG_VOLTAGE_MIN "20"
*HW_XG_VOLTAGE_RESOLUTION "1"
*HW_XG_VOLTAGE_UNIT "kV"
*HW_XG_WATT_MAX "1.500"
*HW_XG_WATT_UNIT "kW"
*HW_XG_WAVE_LENGTH_ALPHA1 "1.540593"
*HW_XG_WAVE_LENGTH_ALPHA2 "1.544414"
*HW_XG_WAVE_LENGTH_BETA "1.392250"
*MEAS_COND_AXIS_NAME-0 "2θ/θ"
*MEAS_COND_AXIS_NAME-1 "2θ"
*MEAS_COND_AXIS_NAME-2 "ω"
*MEAS_COND_AXIS_NAME-3 "Z"
*MEAS_COND_AXIS_NAME-4 "2θ/ω"
*MEAS_COND_AXIS_NAME-5 "θs"
*MEAS_COND_AXIS_NAME-6 "θd"
*MEAS_COND_AXIS_NAME-7 "Ts"
*MEAS_COND_AXIS_NAME-8 "CBO選択スリット"
*MEAS_COND_AXIS_NAME-9 "M"
*MEAS_COND_AXIS_NAME-10 "入射平行スリット"
*MEAS_COND_AXIS_NAME-11 "入射スリット"
*MEAS_COND_AXIS_NAME-12 ""
*MEAS_COND_AXIS_NAME-13 "Zs"
*MEAS_COND_AXIS_NAME-14 "入射光学素子"
*MEAS_COND_AXIS_NAME-15 "長手制限スリット"
*MEAS_COND_AXIS_NAME-16 "センタースリット"
*MEAS_COND_AXIS_NAME-17 "フィルター"
*MEAS_COND_AXIS_NAME-18 "受光スリット1"
*MEAS_COND_AXIS_NAME-19 "受光スリット2"
*MEAS_COND_AXIS_NAME-20 "受光光学素子"
*MEAS_COND_AXIS_NAME-21 "受光平行スリット"
*MEAS_COND_AXIS_NAME-22 "調整用受光スリット"
*MEAS_COND_AXIS_NAME-23 ""
*MEAS_COND_AXIS_NAME-24 ""
*MEAS_COND_AXIS_NAME-25 "Zd"
*MEAS_COND_AXIS_NAME-26 "アッテネータ"
*MEAS_COND_AXIS_NAME-27 "検出器モノクロメータ"
*MEAS_COND_AXIS_NAME-28 "モノクロメータスリット"
*MEAS_COND_AXIS_NAME-29 "プライマリビーム"
*MEAS_COND_AXIS_NAME-30 "PHA"
*MEAS_COND_AXIS_NAME_INTERNAL-0 "TwoThetaTheta"
*MEAS_COND_AXIS_NAME_INTERNAL-1 "TwoTheta"
*MEAS_COND_AXIS_NAME_INTERNAL-2 "Omega"
*MEAS_COND_AXIS_NAME_INTERNAL-3 "Z"
*MEAS_COND_AXIS_NAME_INTERNAL-4 "TwoThetaOmega"
*MEAS_COND_AXIS_NAME_INTERNAL-5 "ThetaS"
*MEAS_COND_AXIS_NAME_INTERNAL-6 "ThetaD"
*MEAS_COND_AXIS_NAME_INTERNAL-7 "Ts"
*MEAS_COND_AXIS_NAME_INTERNAL-8 "CBO"
*MEAS_COND_AXIS_NAME_INTERNAL-9 "CBO-M"
*MEAS_COND_AXIS_NAME_INTERNAL-10 "IncidentSollerSlit"
*MEAS_COND_AXIS_NAME_INTERNAL-11 "IncidentSlitBox"
*MEAS_COND_AXIS_NAME_INTERNAL-12 "IncidentSlitBox-_Axis"
*MEAS_COND_AXIS_NAME_INTERNAL-13 "Zs"
*MEAS_COND_AXIS_NAME_INTERNAL-14 "IncidentMonochromator"
*MEAS_COND_AXIS_NAME_INTERNAL-15 "IncidentAxdSlit"
*MEAS_COND_AXIS_NAME_INTERNAL-16 "CenterSlit"
*MEAS_COND_AXIS_NAME_INTERNAL-17 "Filter"
*MEAS_COND_AXIS_NAME_INTERNAL-18 "ReceivingSlitBox1"
*MEAS_COND_AXIS_NAME_INTERNAL-19 "ReceivingSlitBox2"
*MEAS_COND_AXIS_NAME_INTERNAL-20 "ReceivingOptics"
*MEAS_COND_AXIS_NAME_INTERNAL-21 "ReceivingSollerSlit"
*MEAS_COND_AXIS_NAME_INTERNAL-22 "ReceivingAxdSlit"
*MEAS_COND_AXIS_NAME_INTERNAL-23 "ReceivingSlitBox1-_Axis"
*MEAS_COND_AXIS_NAME_INTERNAL-24 "ReceivingSlitBox2-_Axis"
*MEAS_COND_AXIS_NAME_INTERNAL-25 "ReceivingSlitBox2-Zd"
*MEAS_COND_AXIS_NAME_INTERNAL-26 "Attenuator"
*MEAS_COND_AXIS_NAME_INTERNAL-27 "CounterMonochromator"
*MEAS_COND_AXIS_NAME_INTERNAL-28 "CounterSlit"
*MEAS_COND_AXIS_NAME_INTERNAL-29 "IncidentPrimary"
*MEAS_COND_AXIS_NAME_INTERNAL-30 "PHA"
*MEAS_COND_AXIS_NAME_MAGICNO-0 "83951616.0000000000"
*MEAS_COND_AXIS_NAME_MAGICNO-1 "268632064.0000000000"
*MEAS_COND_AXIS_NAME_MAGICNO-2 "268500992.0000000000"
*MEAS_COND_AXIS_NAME_MAGICNO-3 "285278208.0000000000"
*MEAS_COND_AXIS_NAME_MAGICNO-4 "83951616.0000000000"
*MEAS_COND_AXIS_NAME_MAGICNO-5 "131072.0000000000"
*MEAS_COND_AXIS_NAME_MAGICNO-6 "131072.0000000000"
*MEAS_COND_AXIS_NAME_MAGICNO-7 "318898176.0000000000"
*MEAS_COND_AXIS_NAME_MAGICNO-8 "20971521.0000000000"
*MEAS_COND_AXIS_NAME_MAGICNO-9 "285343744.0000000000"
*MEAS_COND_AXIS_NAME_MAGICNO-10 "20971521.0000000000"
*MEAS_COND_AXIS_NAME_MAGICNO-11 "22020097.0000000000"
*MEAS_COND_AXIS_NAME_MAGICNO-12 "25165824.0000000000"
*MEAS_COND_AXIS_NAME_MAGICNO-13 "318898176.0000000000"
*MEAS_COND_AXIS_NAME_MAGICNO-14 "1.0000000000"
*MEAS_COND_AXIS_NAME_MAGICNO-15 "20971521.0000000000"
*MEAS_COND_AXIS_NAME_MAGICNO-16 "20971521.0000000000"
*MEAS_COND_AXIS_NAME_MAGICNO-17 "20971521.0000000000"
*MEAS_COND_AXIS_NAME_MAGICNO-18 "23068673.0000000000"
*MEAS_COND_AXIS_NAME_MAGICNO-19 "23068673.0000000000"
*MEAS_COND_AXIS_NAME_MAGICNO-20 "20971521.0000000000"
*MEAS_COND_AXIS_NAME_MAGICNO-21 "20971521.0000000000"
*MEAS_COND_AXIS_NAME_MAGICNO-22 "20971521.0000000000"
*MEAS_COND_AXIS_NAME_MAGICNO-23 "25165824.0000000000"
*MEAS_COND_AXIS_NAME_MAGICNO-24 "25165824.0000000000"
*MEAS_COND_AXIS_NAME_MAGICNO-25 "285343744.0000000000"
*MEAS_COND_AXIS_NAME_MAGICNO-26 "17301505.0000000000"
*MEAS_COND_AXIS_NAME_MAGICNO-27 "20971521.0000000000"
*MEAS_COND_AXIS_NAME_MAGICNO-28 "20971521.0000000000"
*MEAS_COND_AXIS_NAME_MAGICNO-29 "20971521.0000000000"
*MEAS_COND_AXIS_NAME_MAGICNO-30 "0.0000000000"
*MEAS_COND_AXIS_OFFSET-0 "-"
*MEAS_COND_AXIS_OFFSET-1 "-0.0310000000"
*MEAS_COND_AXIS_OFFSET-2 "0.3957000000"
*MEAS_COND_AXIS_OFFSET-3 "-"
*MEAS_COND_AXIS_OFFSET-4 "-"
*MEAS_COND_AXIS_OFFSET-5 "0.3957000000"
*MEAS_COND_AXIS_OFFSET-6 "-0.4267000000"
*MEAS_COND_AXIS_OFFSET-7 "-"
*MEAS_COND_AXIS_OFFSET-8 "-"
*MEAS_COND_AXIS_OFFSET-9 "-"
*MEAS_COND_AXIS_OFFSET-10 "-"
*MEAS_COND_AXIS_OFFSET-11 "-"
*MEAS_COND_AXIS_OFFSET-12 "-"
*MEAS_COND_AXIS_OFFSET-13 "-"
*MEAS_COND_AXIS_OFFSET-14 "-"
*MEAS_COND_AXIS_OFFSET-15 "-"
*MEAS_COND_AXIS_OFFSET-16 "-"
*MEAS_COND_AXIS_OFFSET-17 "-"
*MEAS_COND_AXIS_OFFSET-18 "-"
*MEAS_COND_AXIS_OFFSET-19 "-"
*MEAS_COND_AXIS_OFFSET-20 "-"
*MEAS_COND_AXIS_OFFSET-21 "-"
*MEAS_COND_AXIS_OFFSET-22 "-"
*MEAS_COND_AXIS_OFFSET-23 "-"
*MEAS_COND_AXIS_OFFSET-24 "-"
*MEAS_COND_AXIS_OFFSET-25 "-"
*MEAS_COND_AXIS_OFFSET-26 "-"
*MEAS_COND_AXIS_OFFSET-27 "-"
*MEAS_COND_AXIS_OFFSET-28 "-"
*MEAS_COND_AXIS_OFFSET-29 "-"
*MEAS_COND_AXIS_OFFSET-30 "-"
*MEAS_COND_AXIS_POSITION-0 "0.0000000000"
*MEAS_COND_AXIS_POSITION-1 "0.0000000000"
*MEAS_COND_AXIS_POSITION-2 "0.0000000000"
*MEAS_COND_AXIS_POSITION-3 "-2.8588600000"
*MEAS_COND_AXIS_POSITION-4 "0.0000000000"
*MEAS_COND_AXIS_POSITION-5 "0.0000000000"
*MEAS_COND_AXIS_POSITION-6 "0.0000000000"
*MEAS_COND_AXIS_POSITION-7 "-0.7498700000"
*MEAS_COND_AXIS_POSITION-8 "BB"
*MEAS_COND_AXIS_POSITION-9 "0.0000000000"
*MEAS_COND_AXIS_POSITION-10 "Soller_slit_5.0deg"
*MEAS_COND_AXIS_POSITION-11 "2/3deg"
*MEAS_COND_AXIS_POSITION-12 "2.2088000000"
*MEAS_COND_AXIS_POSITION-13 "-0.6412500000"
*MEAS_COND_AXIS_POSITION-14 "0.0000000000"
*MEAS_COND_AXIS_POSITION-15 "10.0mm"
*MEAS_COND_AXIS_POSITION-16 "None"
*MEAS_COND_AXIS_POSITION-17 "Cu_K-beta"
*MEAS_COND_AXIS_POSITION-18 "13.000mm"
*MEAS_COND_AXIS_POSITION-19 "13.000mm"
*MEAS_COND_AXIS_POSITION-20 "No_unit"
*MEAS_COND_AXIS_POSITION-21 "Soller_slit_5.0deg"
*MEAS_COND_AXIS_POSITION-22 "None"
*MEAS_COND_AXIS_POSITION-23 "13.0000000000"
*MEAS_COND_AXIS_POSITION-24 "13.0000000000"
*MEAS_COND_AXIS_POSITION-25 "0.0281300000"
*MEAS_COND_AXIS_POSITION-26 "Open"
*MEAS_COND_AXIS_POSITION-27 "None"
*MEAS_COND_AXIS_POSITION-28 "None"
*MEAS_COND_AXIS_POSITION-29 "None"
*MEAS_COND_AXIS_POSITION-30 "38.0000000000"
*MEAS_COND_AXIS_UNIT-0 "deg"
*MEAS_COND_AXIS_UNIT-1 "deg"
*MEAS_COND_AXIS_UNIT-2 "deg"
*MEAS_COND_AXIS_UNIT-3 "mm"
*MEAS_COND_AXIS_UNIT-4 "deg"
*MEAS_COND_AXIS_UNIT-5 "deg"
*MEAS_COND_AXIS_UNIT-6 "deg"
*MEAS_COND_AXIS_UNIT-7 "mm"
*MEAS_COND_AXIS_UNIT-8 ""
*MEAS_COND_AXIS_UNIT-9 "pulse"
*MEAS_COND_AXIS_UNIT-10 ""
*MEAS_COND_AXIS_UNIT-11 ""
*MEAS_COND_AXIS_UNIT-12 "mm"
*MEAS_COND_AXIS_UNIT-13 "mm"
*MEAS_COND_AXIS_UNIT-14 ""
*MEAS_COND_AXIS_UNIT-15 ""
*MEAS_COND_AXIS_UNIT-16 ""
*MEAS_COND_AXIS_UNIT-17 ""
*MEAS_COND_AXIS_UNIT-18 ""
*MEAS_COND_AXIS_UNIT-19 ""
*MEAS_COND_AXIS_UNIT-20 ""
*MEAS_COND_AXIS_UNIT-21 ""
*MEAS_COND_AXIS_UNIT-22 ""
*MEAS_COND_AXIS_UNIT-23 "mm"
*MEAS_COND_AXIS_UNIT-24 "mm"
*MEAS_COND_AXIS_UNIT-25 "mm"
*MEAS_COND_AXIS_UNIT-26 ""
*MEAS_COND_AXIS_UNIT-27 ""
*MEAS_COND_AXIS_UNIT-28 ""
*MEAS_COND_AXIS_UNIT-29 ""
*MEAS_COND_AXIS_UNIT-30 "div"
*MEAS_COND_COUNTER_CNTLOSS_CORR "0.0000000000"
*MEAS_COND_COUNTER_PHABASE "38.0000000000"
*MEAS_COND_COUNTER_PHAWINDOW "16.0000000000"
*MEAS_COND_COUNTER_PHA_UNIT "div"
*MEAS_COND_COUNTER_TAUDIFF "30.0000000000"
*MEAS_COND_COUNTER_TAUINT "0.0000000000"
*MEAS_COND_IRRADIATION_MODE "OFF"
*MEAS_COND_IRRADIATION_WIDTH ""
*MEAS_COND_OPT_ATTR "集中法"
*MEAS_COND_OPT_NAME "@集中法"
*MEAS_COND_UNSYMMETRIC_MODE "OFF"
*MEAS_COND_XG_CURRENT "30.0000000000"
*MEAS_COND_XG_VOLTAGE "40.0000000000"
*MEAS_COND_XG_WAVE_TYPE "Ka"
*MEAS_DATA_COUNT "5001.0000000000"
*MEAS_SCAN_AXIS_X "2θ/θ"
*MEAS_SCAN_AXIS_X_INTERNAL "TwoThetaTheta"
*MEAS_SCAN_END_TIME "01/29/24 11:41:37"
*MEAS_SCAN_MODE "CONTINUOUS"
*MEAS_SCAN_MONITOR "0"
*MEAS_SCAN_RESOLUTION_X "0.0002"
*MEAS_SCAN_SPEED "2.5"
*MEAS_SCAN_SPEED_UNIT "deg/min"
*MEAS_SCAN_START "20.0000000000"
*MEAS_SCAN_START_TIME "01/29/24 11:20:13"
*MEAS_SCAN_STEP "0.0100000000"
*MEAS_SCAN_STOP "70.0000000000"
*MEAS_SCAN_UNIT_X "deg"
*MEAS_SCAN_UNIT_Y "counts"
*RAS_HEADER_END
*RAS_INT_START
20.0000 721.0000 1.0000
20.0100 764.0000 1.0000
20.0200 748.0000 1.0000
20.0300 725.0000 1.0000
20.0400 728.0000 1.0000
20.0500 721.0000 1.0000
20.0600 689.0000 1.0000
20.0700 704.0000 1.0000
20.0800 739.0000 1.0000
20.0900 742.0000 1.0000
20.1000 757.0000 1.0000
20.1100 743.0000 1.0000
20.1200 723.0000 1.0000
20.1300 737.0000 1.0000
20.1400 728.0000 1.0000
20.1500 693.0000 1.0000
20.1600 774.0000 1.0000
20.1700 729.0000 1.0000
20.1800 688.0000 1.0000
20.1900 734.0000 1.0000
20.2000 753.0000 1.0000
20.2100 747.0000 1.0000
20.2200 752.0000 1.0000
20.2300 740.0000 1.0000
20.2400 738.0000 1.0000
20.2500 733.0000 1.0000
20.2600 704.0000 1.0000
20.2700 690.0000 1.0000
20.2800 710.0000 1.0000
20.2900 735.0000 1.0000
20.3000 741.0000 1.0000
20.3100 732.0000 1.0000
20.3200 702.0000 1.0000
20.3300 723.0000 1.0000
20.3400 794.0000 1.0000
20.3500 762.0000 1.0000
20.3600 717.0000 1.0000
20.3700 711.0000 1.0000
20.3800 734.0000 1.0000
20.3900 748.0000 1.0000
20.4000 721.0000 1.0000
20.4100 755.0000 1.0000
20.4200 736.0000 1.0000
20.4300 720.0000 1.0000
20.4400 778.0000 1.0000
20.4500 748.0000 1.0000
20.4600 763.0000 1.0000
20.4700 735.0000 1.0000
20.4800 731.0000 1.0000
20.4900 752.0000 1.0000
20.5000 768.0000 1.0000
20.5100 780.0000 1.0000
20.5200 721.0000 1.0000
20.5300 728.0000 1.0000
20.5400 742.0000 1.0000
20.5500 726.0000 1.0000
20.5600 721.0000 1.0000
20.5700 736.0000 1.0000
20.5800 739.0000 1.0000
20.5900 762.0000 1.0000
20.6000 719.0000 1.0000
20.6100 748.0000 1.0000
20.6200 733.0000 1.0000
20.6300 745.0000 1.0000
20.6400 730.0000 1.0000
20.6500 713.0000 1.0000
20.6600 711.0000 1.0000
20.6700 784.0000 1.0000
20.6800 760.0000 1.0000
20.6900 751.0000 1.0000
20.7000 777.0000 1.0000
20.7100 768.0000 1.0000
20.7200 749.0000 1.0000
20.7300 725.0000 1.0000
20.7400 765.0000 1.0000
20.7500 757.0000 1.0000
20.7600 730.0000 1.0000
20.7700 738.0000 1.0000
20.7800 740.0000 1.0000
20.7900 710.0000 1.0000
20.8000 688.0000 1.0000
20.8100 751.0000 1.0000
20.8200 753.0000 1.0000
20.8300 699.0000 1.0000
20.8400 724.0000 1.0000
20.8500 701.0000 1.0000
20.8600 707.0000 1.0000
20.8700 743.0000 1.0000
20.8800 705.0000 1.0000
20.8900 743.0000 1.0000
20.9000 726.0000 1.0000
20.9100 694.0000 1.0000
20.9200 675.0000 1.0000
20.9300 730.0000 1.0000
20.9400 704.0000 1.0000
20.9500 727.0000 1.0000
20.9600 692.0000 1.0000
20.9700 716.0000 1.0000
20.9800 726.0000 1.0000
20.9900 726.0000 1.0000
21.0000 699.0000 1.0000
21.0100 734.0000 1.0000
21.0200 705.0000 1.0000
21.0300 747.0000 1.0000
21.0400 705.0000 1.0000
21.0500 741.0000 1.0000
21.0600 764.0000 1.0000
21.0700 728.0000 1.0000
21.0800 701.0000 1.0000
21.0900 745.0000 1.0000
21.1000 774.0000 1.0000
21.1100 752.0000 1.0000
21.1200 765.0000 1.0000
21.1300 713.0000 1.0000
21.1400 721.0000 1.0000
21.1500 748.0000 1.0000
21.1600 728.0000 1.0000
21.1700 739.0000 1.0000
21.1800 749.0000 1.0000
21.1900 724.0000 1.0000
21.2000 679.0000 1.0000
21.2100 744.0000 1.0000
21.2200 745.0000 1.0000
21.2300 729.0000 1.0000
21.2400 716.0000 1.0000
21.2500 721.0000 1.0000
21.2600 699.0000 1.0000
21.2700 735.0000 1.0000
21.2800 710.0000 1.0000
21.2900 710.0000 1.0000
21.3000 717.0000 1.0000
21.3100 711.0000 1.0000
21.3200 746.0000 1.0000
21.3300 711.0000 1.0000
21.3400 737.0000 1.0000
21.3500 715.0000 1.0000
21.3600 750.0000 1.0000
21.3700 714.0000 1.0000
21.3800 692.0000 1.0000
21.3900 757.0000 1.0000
21.4000 751.0000 1.0000
21.4100 729.0000 1.0000
21.4200 700.0000 1.0000
21.4300 760.0000 1.0000
21.4400 705.0000 1.0000
21.4500 735.0000 1.0000
21.4600 736.0000 1.0000
21.4700 725.0000 1.0000
21.4800 714.0000 1.0000
21.4900 721.0000 1.0000
21.5000 713.0000 1.0000
21.5100 738.0000 1.0000
21.5200 724.0000 1.0000
21.5300 772.0000 1.0000
21.5400 752.0000 1.0000
21.5500 714.0000 1.0000
21.5600 745.0000 1.0000
21.5700 704.0000 1.0000
21.5800 700.0000 1.0000
21.5900 724.0000 1.0000
21.6000 717.0000 1.0000
21.6100 738.0000 1.0000
21.6200 720.0000 1.0000
21.6300 730.0000 1.0000
21.6400 763.0000 1.0000
21.6500 763.0000 1.0000
21.6600 733.0000 1.0000
21.6700 734.0000 1.0000
21.6800 738.0000 1.0000
21.6900 749.0000 1.0000
21.7000 734.0000 1.0000
21.7100 721.0000 1.0000
21.7200 752.0000 1.0000
21.7300 748.0000 1.0000
21.7400 686.0000 1.0000
21.7500 731.0000 1.0000
21.7600 747.0000 1.0000
21.7700 740.0000 1.0000
21.7800 738.0000 1.0000
21.7900 759.0000 1.0000
21.8000 710.0000 1.0000
21.8100 728.0000 1.0000
21.8200 739.0000 1.0000
21.8300 738.0000 1.0000
21.8400 730.0000 1.0000
21.8500 757.0000 1.0000
21.8600 748.0000 1.0000
21.8700 765.0000 1.0000
21.8800 744.0000 1.0000
21.8900 732.0000 1.0000
21.9000 742.0000 1.0000
21.9100 770.0000 1.0000
21.9200 713.0000 1.0000
21.9300 670.0000 1.0000
21.9400 674.0000 1.0000
21.9500 749.0000 1.0000
21.9600 707.0000 1.0000
21.9700 720.0000 1.0000
21.9800 702.0000 1.0000
21.9900 711.0000 1.0000
22.0000 699.0000 1.0000
22.0100 711.0000 1.0000
22.0200 724.0000 1.0000
22.0300 678.0000 1.0000
22.0400 734.0000 1.0000
22.0500 721.0000 1.0000
22.0600 746.0000 1.0000
22.0700 713.0000 1.0000
22.0800 739.0000 1.0000
22.0900 697.0000 1.0000
22.1000 775.0000 1.0000
22.1100 741.0000 1.0000
22.1200 698.0000 1.0000
22.1300 704.0000 1.0000
22.1400 718.0000 1.0000
22.1500 739.0000 1.0000
22.1600 701.0000 1.0000
22.1700 705.0000 1.0000
22.1800 684.0000 1.0000
22.1900 736.0000 1.0000
22.2000 765.0000 1.0000
22.2100 711.0000 1.0000
22.2200 702.0000 1.0000
22.2300 689.0000 1.0000
22.2400 727.0000 1.0000
22.2500 707.0000 1.0000
22.2600 776.0000 1.0000
22.2700 739.0000 1.0000
22.2800 760.0000 1.0000
22.2900 743.0000 1.0000
22.3000 725.0000 1.0000
22.3100 705.0000 1.0000
22.3200 720.0000 1.0000
22.3300 750.0000 1.0000
22.3400 722.0000 1.0000
22.3500 724.0000 1.0000
22.3600 704.0000 1.0000
22.3700 718.0000 1.0000
22.3800 747.0000 1.0000
22.3900 735.0000 1.0000
22.4000 747.0000 1.0000
22.4100 732.0000 1.0000
22.4200 708.0000 1.0000
22.4300 764.0000 1.0000
22.4400 716.0000 1.0000
22.4500 691.0000 1.0000
22.4600 739.0000 1.0000
22.4700 729.0000 1.0000
22.4800 741.0000 1.0000
22.4900 755.0000 1.0000
22.5000 663.0000 1.0000
22.5100 719.0000 1.0000
22.5200 714.0000 1.0000
22.5300 695.0000 1.0000
22.5400 698.0000 1.0000
22.5500 710.0000 1.0000
22.5600 747.0000 1.0000
22.5700 723.0000 1.0000
22.5800 793.0000 1.0000
22.5900 714.0000 1.0000
22.6000 708.0000 1.0000
22.6100 714.0000 1.0000
22.6200 691.0000 1.0000
22.6300 731.0000 1.0000
22.6400 698.0000 1.0000
22.6500 679.0000 1.0000
22.6600 704.0000 1.0000
22.6700 727.0000 1.0000
22.6800 732.0000 1.0000
22.6900 721.0000 1.0000
22.7000 724.0000 1.0000
22.7100 733.0000 1.0000
22.7200 729.0000 1.0000
22.7300 712.0000 1.0000
22.7400 710.0000 1.0000
22.7500 716.0000 1.0000
22.7600 711.0000 1.0000
22.7700 713.0000 1.0000
22.7800 704.0000 1.0000
22.7900 699.0000 1.0000
22.8000 728.0000 1.0000
22.8100 751.0000 1.0000
22.8200 732.0000 1.0000
22.8300 758.0000 1.0000
22.8400 696.0000 1.0000
22.8500 739.0000 1.0000
22.8600 708.0000 1.0000
22.8700 735.0000 1.0000
22.8800 713.0000 1.0000
22.8900 727.0000 1.0000
22.9000 724.0000 1.0000
22.9100 681.0000 1.0000
22.9200 700.0000 1.0000
22.9300 725.0000 1.0000
22.9400 752.0000 1.0000
22.9500 700.0000 1.0000
22.9600 731.0000 1.0000
22.9700 728.0000 1.0000
22.9800 712.0000 1.0000
22.9900 743.0000 1.0000
23.0000 724.0000 1.0000
23.0100 691.0000 1.0000
23.0200 771.0000 1.0000
23.0300 727.0000 1.0000
23.0400 709.0000 1.0000
23.0500 687.0000 1.0000
23.0600 728.0000 1.0000
23.0700 732.0000 1.0000
23.0800 728.0000 1.0000
23.0900 753.0000 1.0000
23.1000 712.0000 1.0000
23.1100 711.0000 1.0000
23.1200 643.0000 1.0000
23.1300 693.0000 1.0000
23.1400 729.0000 1.0000
23.1500 713.0000 1.0000
23.1600 717.0000 1.0000
23.1700 713.0000 1.0000
23.1800 714.0000 1.0000
23.1900 724.0000 1.0000
23.2000 735.0000 1.0000
23.2100 710.0000 1.0000
23.2200 707.0000 1.0000
23.2300 693.0000 1.0000
23.2400 713.0000 1.0000
23.2500 742.0000 1.0000
23.2600 704.0000 1.0000
23.2700 733.0000 1.0000
23.2800 739.0000 1.0000
23.2900 742.0000 1.0000
23.3000 725.0000 1.0000
23.3100 724.0000 1.0000
23.3200 715.0000 1.0000
23.3300 738.0000 1.0000
23.3400 704.0000 1.0000
23.3500 697.0000 1.0000
23.3600 721.0000 1.0000
23.3700 680.0000 1.0000
23.3800 682.0000 1.0000
23.3900 667.0000 1.0000
23.4000 690.0000 1.0000
23.4100 717.0000 1.0000
23.4200 693.0000 1.0000
23.4300 702.0000 1.0000
23.4400 707.0000 1.0000
23.4500 691.0000 1.0000
23.4600 739.0000 1.0000
23.4700 721.0000 1.0000
23.4800 695.0000 1.0000
23.4900 723.0000 1.0000
23.5000 650.0000 1.0000
23.5100 700.0000 1.0000
23.5200 686.0000 1.0000
23.5300 687.0000 1.0000
23.5400 694.0000 1.0000
23.5500 675.0000 1.0000
23.5600 732.0000 1.0000
23.5700 689.0000 1.0000
23.5800 690.0000 1.0000
23.5900 734.0000 1.0000
23.6000 715.0000 1.0000
23.6100 725.0000 1.0000
23.6200 677.0000 1.0000
23.6300 726.0000 1.0000
23.6400 741.0000 1.0000
23.6500 667.0000 1.0000
23.6600 691.0000 1.0000
23.6700 718.0000 1.0000
23.6800 689.0000 1.0000
23.6900 723.0000 1.0000
23.7000 705.0000 1.0000
23.7100 722.0000 1.0000
23.7200 733.0000 1.0000
23.7300 729.0000 1.0000
23.7400 708.0000 1.0000
23.7500 700.0000 1.0000
23.7600 692.0000 1.0000
23.7700 735.0000 1.0000
23.7800 722.0000 1.0000
23.7900 714.0000 1.0000
23.8000 694.0000 1.0000
23.8100 737.0000 1.0000
23.8200 729.0000 1.0000
23.8300 734.0000 1.0000
23.8400 728.0000 1.0000
23.8500 705.0000 1.0000
23.8600 709.0000 1.0000
23.8700 750.0000 1.0000
23.8800 690.0000 1.0000
23.8900 696.0000 1.0000
23.9000 753.0000 1.0000
23.9100 717.0000 1.0000
23.9200 712.0000 1.0000
23.9300 731.0000 1.0000
23.9400 760.0000 1.0000
23.9500 771.0000 1.0000
23.9600 701.0000 1.0000
23.9700 727.0000 1.0000
23.9800 760.0000 1.0000
23.9900 787.0000 1.0000
24.0000 748.0000 1.0000
24.0100 752.0000 1.0000
24.0200 731.0000 1.0000
24.0300 727.0000 1.0000
24.0400 747.0000 1.0000
24.0500 741.0000 1.0000
24.0600 773.0000 1.0000
24.0700 798.0000 1.0000
24.0800 784.0000 1.0000
24.0900 764.0000 1.0000
24.1000 746.0000 1.0000
24.1100 756.0000 1.0000
24.1200 766.0000 1.0000
24.1300 755.0000 1.0000
24.1400 754.0000 1.0000
24.1500 789.0000 1.0000
24.1600 783.0000 1.0000
24.1700 737.0000 1.0000
24.1800 740.0000 1.0000
24.1900 730.0000 1.0000
24.2000 776.0000 1.0000
24.2100 753.0000 1.0000
24.2200 722.0000 1.0000
24.2300 743.0000 1.0000
24.2400 706.0000 1.0000
24.2500 746.0000 1.0000
24.2600 701.0000 1.0000
24.2700 730.0000 1.0000
24.2800 724.0000 1.0000
24.2900 750.0000 1.0000
24.3000 709.0000 1.0000
24.3100 690.0000 1.0000
24.3200 712.0000 1.0000
24.3300 718.0000 1.0000
24.3400 718.0000 1.0000
24.3500 736.0000 1.0000
24.3600 687.0000 1.0000
24.3700 724.0000 1.0000
24.3800 661.0000 1.0000
24.3900 704.0000 1.0000
24.4000 679.0000 1.0000
24.4100 725.0000 1.0000
24.4200 717.0000 1.0000
24.4300 739.0000 1.0000
24.4400 714.0000 1.0000
24.4500 663.0000 1.0000
24.4600 707.0000 1.0000
24.4700 703.0000 1.0000
24.4800 724.0000 1.0000
24.4900 689.0000 1.0000
24.5000 688.0000 1.0000
24.5100 659.0000 1.0000
24.5200 697.0000 1.0000
24.5300 710.0000 1.0000
24.5400 746.0000 1.0000
24.5500 681.0000 1.0000
24.5600 664.0000 1.0000
24.5700 716.0000 1.0000
24.5800 620.0000 1.0000
24.5900 658.0000 1.0000
24.6000 657.0000 1.0000
24.6100 726.0000 1.0000
24.6200 724.0000 1.0000
24.6300 676.0000 1.0000
24.6400 656.0000 1.0000
24.6500 652.0000 1.0000
24.6600 685.0000 1.0000
24.6700 700.0000 1.0000
24.6800 726.0000 1.0000
24.6900 688.0000 1.0000
24.7000 711.0000 1.0000
24.7100 720.0000 1.0000
24.7200 706.0000 1.0000
24.7300 642.0000 1.0000
24.7400 662.0000 1.0000
24.7500 708.0000 1.0000
24.7600 644.0000 1.0000
24.7700 657.0000 1.0000
24.7800 675.0000 1.0000
24.7900 701.0000 1.0000
24.8000 673.0000 1.0000
24.8100 709.0000 1.0000
24.8200 677.0000 1.0000
24.8300 706.0000 1.0000
24.8400 721.0000 1.0000
24.8500 720.0000 1.0000
24.8600 692.0000 1.0000
24.8700 640.0000 1.0000
24.8800 690.0000 1.0000
24.8900 697.0000 1.0000
24.9000 690.0000 1.0000
24.9100 729.0000 1.0000
24.9200 679.0000 1.0000
24.9300 707.0000 1.0000
24.9400 710.0000 1.0000
24.9500 706.0000 1.0000
24.9600 700.0000 1.0000
24.9700 726.0000 1.0000
24.9800 718.0000 1.0000
24.9900 675.0000 1.0000
25.0000 702.0000 1.0000
25.0100 664.0000 1.0000
25.0200 664.0000 1.0000
25.0300 673.0000 1.0000
25.0400 697.0000 1.0000
25.0500 610.0000 1.0000
25.0600 680.0000 1.0000
25.0700 698.0000 1.0000
25.0800 693.0000 1.0000
25.0900 686.0000 1.0000
25.1000 714.0000 1.0000
25.1100 694.0000 1.0000
25.1200 684.0000 1.0000
25.1300 724.0000 1.0000
25.1400 710.0000 1.0000
25.1500 686.0000 1.0000
25.1600 683.0000 1.0000
25.1700 670.0000 1.0000
25.1800 669.0000 1.0000
25.1900 692.0000 1.0000
25.2000 665.0000 1.0000
25.2100 639.0000 1.0000
25.2200 675.0000 1.0000
25.2300 703.0000 1.0000
25.2400 701.0000 1.0000
25.2500 681.0000 1.0000
25.2600 677.0000 1.0000
25.2700 718.0000 1.0000
25.2800 705.0000 1.0000
25.2900 678.0000 1.0000
25.3000 688.0000 1.0000
25.3100 671.0000 1.0000
25.3200 701.0000 1.0000
25.3300 711.0000 1.0000
25.3400 711.0000 1.0000
25.3500 693.0000 1.0000
25.3600 689.0000 1.0000
25.3700 676.0000 1.0000
25.3800 686.0000 1.0000
25.3900 698.0000 1.0000
25.4000 670.0000 1.0000
25.4100 686.0000 1.0000
25.4200 725.0000 1.0000
25.4300 714.0000 1.0000
25.4400 683.0000 1.0000
25.4500 697.0000 1.0000
25.4600 690.0000 1.0000
25.4700 652.0000 1.0000
25.4800 697.0000 1.0000
25.4900 675.0000 1.0000
25.5000 699.0000 1.0000
25.5100 715.0000 1.0000
25.5200 706.0000 1.0000
25.5300 698.0000 1.0000
25.5400 645.0000 1.0000
25.5500 687.0000 1.0000
25.5600 656.0000 1.0000
25.5700 718.0000 1.0000
25.5800 703.0000 1.0000
25.5900 670.0000 1.0000
25.6000 647.0000 1.0000
25.6100 696.0000 1.0000
25.6200 647.0000 1.0000
25.6300 691.0000 1.0000
25.6400 750.0000 1.0000
25.6500 702.0000 1.0000
25.6600 680.0000 1.0000
25.6700 717.0000 1.0000
25.6800 696.0000 1.0000
25.6900 709.0000 1.0000
25.7000 670.0000 1.0000
25.7100 717.0000 1.0000
25.7200 709.0000 1.0000
25.7300 686.0000 1.0000
25.7400 702.0000 1.0000
25.7500 742.0000 1.0000
25.7600 705.0000 1.0000
25.7700 691.0000 1.0000
25.7800 729.0000 1.0000
25.7900 666.0000 1.0000
25.8000 725.0000 1.0000
25.8100 702.0000 1.0000
25.8200 644.0000 1.0000
25.8300 722.0000 1.0000
25.8400 692.0000 1.0000
25.8500 661.0000 1.0000
25.8600 674.0000 1.0000
25.8700 679.0000 1.0000
25.8800 695.0000 1.0000
25.8900 716.0000 1.0000
25.9000 687.0000 1.0000
25.9100 755.0000 1.0000
25.9200 752.0000 1.0000
25.9300 721.0000 1.0000
25.9400 699.0000 1.0000
25.9500 693.0000 1.0000
25.9600 730.0000 1.0000
25.9700 764.0000 1.0000
25.9800 724.0000 1.0000
25.9900 734.0000 1.0000
26.0000 747.0000 1.0000
26.0100 769.0000 1.0000
26.0200 757.0000 1.0000
26.0300 750.0000 1.0000
26.0400 703.0000 1.0000
26.0500 721.0000 1.0000
26.0600 780.0000 1.0000
26.0700 768.0000 1.0000
26.0800 789.0000 1.0000
26.0900 760.0000 1.0000
26.1000 759.0000 1.0000
26.1100 774.0000 1.0000
26.1200 833.0000 1.0000
26.1300 832.0000 1.0000
26.1400 787.0000 1.0000
26.1500 798.0000 1.0000
26.1600 892.0000 1.0000
26.1700 818.0000 1.0000
26.1800 860.0000 1.0000
26.1900 835.0000 1.0000
26.2000 909.0000 1.0000
26.2100 886.0000 1.0000
26.2200 899.0000 1.0000
26.2300 936.0000 1.0000
26.2400 945.0000 1.0000
26.2500 959.0000 1.0000
26.2600 916.0000 1.0000
26.2700 882.0000 1.0000
26.2800 995.0000 1.0000
26.2900 1033.0000 1.0000
26.3000 1078.0000 1.0000
26.3100 1097.0000 1.0000
26.3200 1094.0000 1.0000
26.3300 1151.0000 1.0000
26.3400 1166.0000 1.0000
26.3500 1205.0000 1.0000
26.3600 1234.0000 1.0000
26.3700 1258.0000 1.0000
26.3800 1334.0000 1.0000
26.3900 1364.0000 1.0000
26.4000 1328.0000 1.0000
26.4100 1427.0000 1.0000
26.4200 1383.0000 1.0000
26.4300 1430.0000 1.0000
26.4400 1429.0000 1.0000
26.4500 1479.0000 1.0000
26.4600 1425.0000 1.0000
26.4700 1410.0000 1.0000
26.4800 1347.0000 1.0000
26.4900 1408.0000 1.0000
26.5000 1326.0000 1.0000
26.5100 1299.0000 1.0000
26.5200 1345.0000 1.0000
26.5300 1342.0000 1.0000
26.5400 1227.0000 1.0000
26.5500 1178.0000 1.0000
26.5600 1170.0000 1.0000
26.5700 1138.0000 1.0000
26.5800 1087.0000 1.0000
26.5900 1082.0000 1.0000
26.6000 1070.0000 1.0000
26.6100 1023.0000 1.0000
26.6200 993.0000 1.0000
26.6300 965.0000 1.0000
26.6400 977.0000 1.0000
26.6500 965.0000 1.0000
26.6600 936.0000 1.0000
26.6700 905.0000 1.0000
26.6800 916.0000 1.0000
26.6900 887.0000 1.0000
26.7000 910.0000 1.0000
26.7100 867.0000 1.0000
26.7200 815.0000 1.0000
26.7300 782.0000 1.0000
26.7400 792.0000 1.0000
26.7500 870.0000 1.0000
26.7600 805.0000 1.0000
26.7700 805.0000 1.0000
26.7800 788.0000 1.0000
26.7900 818.0000 1.0000
26.8000 830.0000 1.0000
26.8100 749.0000 1.0000
26.8200 768.0000 1.0000
26.8300 760.0000 1.0000
26.8400 726.0000 1.0000
26.8500 712.0000 1.0000
26.8600 738.0000 1.0000
26.8700 749.0000 1.0000
26.8800 722.0000 1.0000
26.8900 702.0000 1.0000
26.9000 764.0000 1.0000
26.9100 697.0000 1.0000
26.9200 728.0000 1.0000
26.9300 683.0000 1.0000
26.9400 694.0000 1.0000
26.9500 668.0000 1.0000
26.9600 681.0000 1.0000
26.9700 688.0000 1.0000
26.9800 686.0000 1.0000
26.9900 664.0000 1.0000
27.0000 683.0000 1.0000
27.0100 690.0000 1.0000
27.0200 629.0000 1.0000
27.0300 625.0000 1.0000
27.0400 640.0000 1.0000
27.0500 649.0000 1.0000
27.0600 650.0000 1.0000
27.0700 650.0000 1.0000
27.0800 668.0000 1.0000
27.0900 665.0000 1.0000
27.1000 693.0000 1.0000
27.1100 675.0000 1.0000
27.1200 660.0000 1.0000
27.1300 641.0000 1.0000
27.1400 667.0000 1.0000
27.1500 674.0000 1.0000
27.1600 633.0000 1.0000
27.1700 701.0000 1.0000
27.1800 659.0000 1.0000
27.1900 640.0000 1.0000
27.2000 658.0000 1.0000
27.2100 665.0000 1.0000
27.2200 648.0000 1.0000
27.2300 624.0000 1.0000
27.2400 634.0000 1.0000
27.2500 627.0000 1.0000
27.2600 626.0000 1.0000
27.2700 653.0000 1.0000
27.2800 672.0000 1.0000
27.2900 646.0000 1.0000
27.3000 668.0000 1.0000
27.3100 605.0000 1.0000
27.3200 655.0000 1.0000
27.3300 640.0000 1.0000
27.3400 611.0000 1.0000
27.3500 663.0000 1.0000
27.3600 608.0000 1.0000
27.3700 616.0000 1.0000
27.3800 647.0000 1.0000
27.3900 631.0000 1.0000
27.4000 618.0000 1.0000
27.4100 668.0000 1.0000
27.4200 621.0000 1.0000
27.4300 666.0000 1.0000
27.4400 660.0000 1.0000
27.4500 656.0000 1.0000
27.4600 638.0000 1.0000
27.4700 645.0000 1.0000
27.4800 612.0000 1.0000
27.4900 605.0000 1.0000
27.5000 640.0000 1.0000
27.5100 606.0000 1.0000
27.5200 580.0000 1.0000
27.5300 603.0000 1.0000
27.5400 620.0000 1.0000
27.5500 608.0000 1.0000
27.5600 648.0000 1.0000
27.5700 605.0000 1.0000
27.5800 610.0000 1.0000
27.5900 679.0000 1.0000
27.6000 606.0000 1.0000
27.6100 635.0000 1.0000
27.6200 604.0000 1.0000
27.6300 641.0000 1.0000
27.6400 637.0000 1.0000
27.6500 601.0000 1.0000
27.6600 609.0000 1.0000
27.6700 617.0000 1.0000
27.6800 598.0000 1.0000
27.6900 624.0000 1.0000
27.7000 638.0000 1.0000
27.7100 580.0000 1.0000
27.7200 577.0000 1.0000
27.7300 637.0000 1.0000
27.7400 610.0000 1.0000
27.7500 644.0000 1.0000
27.7600 638.0000 1.0000
27.7700 661.0000 1.0000
27.7800 639.0000 1.0000
27.7900 620.0000 1.0000
27.8000 609.0000 1.0000
27.8100 637.0000 1.0000
27.8200 625.0000 1.0000
27.8300 625.0000 1.0000
27.8400 604.0000 1.0000
27.8500 621.0000 1.0000
27.8600 576.0000 1.0000
27.8700 579.0000 1.0000
27.8800 591.0000 1.0000
27.8900 606.0000 1.0000
27.9000 584.0000 1.0000
27.9100 640.0000 1.0000
27.9200 659.0000 1.0000
27.9300 613.0000 1.0000
27.9400 611.0000 1.0000
27.9500 603.0000 1.0000
27.9600 590.0000 1.0000
27.9700 620.0000 1.0000
27.9800 587.0000 1.0000
27.9900 586.0000 1.0000
28.0000 586.0000 1.0000
28.0100 599.0000 1.0000
28.0200 649.0000 1.0000
28.0300 636.0000 1.0000
28.0400 599.0000 1.0000
28.0500 613.0000 1.0000
28.0600 625.0000 1.0000
28.0700 592.0000 1.0000
28.0800 577.0000 1.0000
28.0900 578.0000 1.0000
28.1000 561.0000 1.0000
28.1100 597.0000 1.0000
28.1200 590.0000 1.0000
28.1300 604.0000 1.0000
28.1400 552.0000 1.0000
28.1500 594.0000 1.0000
28.1600 613.0000 1.0000
28.1700 590.0000 1.0000
28.1800 588.0000 1.0000
28.1900 612.0000 1.0000
28.2000 608.0000 1.0000
28.2100 589.0000 1.0000
28.2200 578.0000 1.0000
28.2300 591.0000 1.0000
28.2400 633.0000 1.0000
28.2500 596.0000 1.0000
28.2600 624.0000 1.0000
28.2700 619.0000 1.0000
28.2800 641.0000 1.0000
28.2900 568.0000 1.0000
28.3000 614.0000 1.0000
28.3100 592.0000 1.0000
28.3200 568.0000 1.0000
28.3300 620.0000 1.0000
28.3400 622.0000 1.0000
28.3500 544.0000 1.0000
28.3600 548.0000 1.0000
28.3700 594.0000 1.0000
28.3800 601.0000 1.0000
28.3900 636.0000 1.0000
28.4000 605.0000 1.0000
28.4100 579.0000 1.0000
28.4200 630.0000 1.0000
28.4300 660.0000 1.0000
28.4400 611.0000 1.0000
28.4500 589.0000 1.0000
28.4600 578.0000 1.0000
28.4700 605.0000 1.0000
28.4800 595.0000 1.0000
28.4900 592.0000 1.0000
28.5000 629.0000 1.0000
28.5100 610.0000 1.0000
28.5200 576.0000 1.0000
28.5300 572.0000 1.0000
28.5400 591.0000 1.0000
28.5500 585.0000 1.0000
28.5600 569.0000 1.0000
28.5700 546.0000 1.0000
28.5800 619.0000 1.0000
28.5900 595.0000 1.0000
28.6000 593.0000 1.0000
28.6100 626.0000 1.0000
28.6200 624.0000 1.0000
28.6300 567.0000 1.0000
28.6400 552.0000 1.0000
28.6500 624.0000 1.0000
28.6600 586.0000 1.0000
28.6700 585.0000 1.0000
28.6800 607.0000 1.0000
28.6900 592.0000 1.0000
28.7000 574.0000 1.0000
28.7100 568.0000 1.0000
28.7200 560.0000 1.0000
28.7300 608.0000 1.0000
28.7400 629.0000 1.0000
28.7500 596.0000 1.0000
28.7600 554.0000 1.0000
28.7700 593.0000 1.0000
28.7800 566.0000 1.0000
28.7900 562.0000 1.0000
28.8000 539.0000 1.0000
28.8100 601.0000 1.0000
28.8200 551.0000 1.0000
28.8300 633.0000 1.0000
28.8400 561.0000 1.0000
28.8500 616.0000 1.0000
28.8600 572.0000 1.0000
28.8700 535.0000 1.0000
28.8800 555.0000 1.0000
28.8900 574.0000 1.0000
28.9000 549.0000 1.0000
28.9100 592.0000 1.0000
28.9200 553.0000 1.0000
28.9300 591.0000 1.0000
28.9400 578.0000 1.0000
28.9500 583.0000 1.0000
28.9600 602.0000 1.0000
28.9700 578.0000 1.0000
28.9800 561.0000 1.0000
28.9900 566.0000 1.0000
29.0000 554.0000 1.0000
29.0100 571.0000 1.0000
29.0200 610.0000 1.0000
29.0300 568.0000 1.0000
29.0400 586.0000 1.0000
29.0500 586.0000 1.0000
29.0600 574.0000 1.0000
29.0700 590.0000 1.0000
29.0800 574.0000 1.0000
29.0900 591.0000 1.0000
29.1000 559.0000 1.0000
29.1100 595.0000 1.0000
29.1200 606.0000 1.0000
29.1300 562.0000 1.0000
29.1400 586.0000 1.0000
29.1500 560.0000 1.0000
29.1600 598.0000 1.0000
29.1700 585.0000 1.0000
29.1800 578.0000 1.0000
29.1900 562.0000 1.0000
29.2000 571.0000 1.0000
29.2100 579.0000 1.0000
29.2200 550.0000 1.0000
29.2300 589.0000 1.0000
29.2400 551.0000 1.0000
29.2500 568.0000 1.0000
29.2600 571.0000 1.0000
29.2700 535.0000 1.0000
29.2800 586.0000 1.0000
29.2900 552.0000 1.0000
29.3000 565.0000 1.0000
29.3100 552.0000 1.0000
29.3200 571.0000 1.0000
29.3300 574.0000 1.0000
29.3400 566.0000 1.0000
29.3500 557.0000 1.0000
29.3600 558.0000 1.0000
29.3700 535.0000 1.0000
29.3800 574.0000 1.0000
29.3900 565.0000 1.0000
29.4000 518.0000 1.0000
29.4100 556.0000 1.0000
29.4200 596.0000 1.0000
29.4300 580.0000 1.0000
29.4400 578.0000 1.0000
29.4500 535.0000 1.0000
29.4600 549.0000 1.0000
29.4700 567.0000 1.0000
29.4800 625.0000 1.0000
29.4900 551.0000 1.0000
29.5000 575.0000 1.0000
29.5100 526.0000 1.0000
29.5200 508.0000 1.0000
29.5300 539.0000 1.0000
29.5400 579.0000 1.0000
29.5500 577.0000 1.0000
29.5600 535.0000 1.0000
29.5700 518.0000 1.0000
29.5800 550.0000 1.0000
29.5900 562.0000 1.0000
29.6000 564.0000 1.0000
29.6100 600.0000 1.0000
29.6200 561.0000 1.0000
29.6300 540.0000 1.0000
29.6400 546.0000 1.0000
29.6500 591.0000 1.0000
29.6600 562.0000 1.0000
29.6700 545.0000 1.0000
29.6800 547.0000 1.0000
29.6900 536.0000 1.0000
29.7000 536.0000 1.0000
29.7100 544.0000 1.0000
29.7200 558.0000 1.0000
29.7300 526.0000 1.0000
29.7400 547.0000 1.0000
29.7500 517.0000 1.0000
29.7600 560.0000 1.0000
29.7700 539.0000 1.0000
29.7800 566.0000 1.0000
29.7900 532.0000 1.0000
29.8000 552.0000 1.0000
29.8100 555.0000 1.0000
29.8200 560.0000 1.0000
29.8300 542.0000 1.0000
29.8400 569.0000 1.0000
29.8500 588.0000 1.0000
29.8600 535.0000 1.0000
29.8700 522.0000 1.0000
29.8800 561.0000 1.0000
29.8900 548.0000 1.0000
29.9000 556.0000 1.0000
29.9100 514.0000 1.0000
29.9200 554.0000 1.0000
29.9300 524.0000 1.0000
29.9400 568.0000 1.0000
29.9500 586.0000 1.0000
29.9600 559.0000 1.0000
29.9700 568.0000 1.0000
29.9800 550.0000 1.0000
29.9900 515.0000 1.0000
30.0000 563.0000 1.0000
30.0100 549.0000 1.0000
30.0200 546.0000 1.0000
30.0300 541.0000 1.0000
30.0400 558.0000 1.0000
30.0500 520.0000 1.0000
30.0600 563.0000 1.0000
30.0700 563.0000 1.0000
30.0800 563.0000 1.0000
30.0900 522.0000 1.0000
30.1000 526.0000 1.0000
30.1100 534.0000 1.0000
30.1200 517.0000 1.0000
30.1300 517.0000 1.0000
30.1400 591.0000 1.0000
30.1500 581.0000 1.0000
30.1600 543.0000 1.0000
30.1700 509.0000 1.0000
30.1800 559.0000 1.0000
30.1900 544.0000 1.0000
30.2000 532.0000 1.0000
30.2100 556.0000 1.0000
30.2200 519.0000 1.0000
30.2300 517.0000 1.0000
30.2400 547.0000 1.0000
30.2500 563.0000 1.0000
30.2600 548.0000 1.0000
30.2700 547.0000 1.0000
30.2800 525.0000 1.0000
30.2900 538.0000 1.0000
30.3000 573.0000 1.0000
30.3100 544.0000 1.0000
30.3200 538.0000 1.0000
30.3300 543.0000 1.0000
30.3400 567.0000 1.0000
30.3500 563.0000 1.0000
30.3600 556.0000 1.0000
30.3700 532.0000 1.0000
30.3800 568.0000 1.0000
30.3900 539.0000 1.0000
30.4000 541.0000 1.0000
30.4100 554.0000 1.0000
30.4200 545.0000 1.0000
30.4300 534.0000 1.0000
30.4400 520.0000 1.0000
30.4500 516.0000 1.0000
30.4600 541.0000 1.0000
30.4700 528.0000 1.0000
30.4800 550.0000 1.0000
30.4900 571.0000 1.0000
30.5000 525.0000 1.0000
30.5100 511.0000 1.0000
30.5200 527.0000 1.0000
30.5300 523.0000 1.0000
30.5400 560.0000 1.0000
30.5500 538.0000 1.0000
30.5600 555.0000 1.0000
30.5700 538.0000 1.0000
30.5800 550.0000 1.0000
30.5900 576.0000 1.0000
30.6000 555.0000 1.0000
30.6100 508.0000 1.0000
30.6200 546.0000 1.0000
30.6300 527.0000 1.0000
30.6400 551.0000 1.0000
30.6500 523.0000 1.0000
30.6600 509.0000 1.0000
30.6700 521.0000 1.0000
30.6800 531.0000 1.0000
30.6900 521.0000 1.0000
30.7000 518.0000 1.0000
30.7100 555.0000 1.0000
30.7200 519.0000 1.0000
30.7300 522.0000 1.0000
30.7400 524.0000 1.0000
30.7500 534.0000 1.0000
30.7600 518.0000 1.0000
30.7700 503.0000 1.0000
30.7800 519.0000 1.0000
30.7900 548.0000 1.0000
30.8000 518.0000 1.0000
30.8100 547.0000 1.0000
30.8200 537.0000 1.0000
30.8300 551.0000 1.0000
30.8400 511.0000 1.0000
30.8500 516.0000 1.0000
30.8600 534.0000 1.0000
30.8700 531.0000 1.0000
30.8800 539.0000 1.0000
30.8900 541.0000 1.0000
30.9000 510.0000 1.0000
30.9100 582.0000 1.0000
30.9200 518.0000 1.0000
30.9300 528.0000 1.0000
30.9400 541.0000 1.0000
30.9500 540.0000 1.0000
30.9600 533.0000 1.0000
30.9700 523.0000 1.0000
30.9800 504.0000 1.0000
30.9900 546.0000 1.0000
31.0000 563.0000 1.0000
31.0100 524.0000 1.0000
31.0200 546.0000 1.0000
31.0300 505.0000 1.0000
31.0400 580.0000 1.0000
31.0500 556.0000 1.0000
31.0600 569.0000 1.0000
31.0700 575.0000 1.0000
31.0800 592.0000 1.0000
31.0900 542.0000 1.0000
31.1000 487.0000 1.0000
31.1100 550.0000 1.0000
31.1200 551.0000 1.0000
31.1300 560.0000 1.0000
31.1400 519.0000 1.0000
31.1500 535.0000 1.0000
31.1600 542.0000 1.0000
31.1700 511.0000 1.0000
31.1800 546.0000 1.0000
31.1900 533.0000 1.0000
31.2000 584.0000 1.0000
31.2100 547.0000 1.0000
31.2200 569.0000 1.0000
31.2300 526.0000 1.0000
31.2400 517.0000 1.0000
31.2500 552.0000 1.0000
31.2600 568.0000 1.0000
31.2700 554.0000 1.0000
31.2800 537.0000 1.0000
31.2900 538.0000 1.0000
31.3000 524.0000 1.0000
31.3100 531.0000 1.0000
31.3200 508.0000 1.0000
31.3300 529.0000 1.0000
31.3400 556.0000 1.0000
31.3500 514.0000 1.0000
31.3600 499.0000 1.0000
31.3700 536.0000 1.0000
31.3800 510.0000 1.0000
31.3900 504.0000 1.0000
31.4000 527.0000 1.0000
31.4100 509.0000 1.0000
31.4200 510.0000 1.0000
31.4300 523.0000 1.0000
31.4400 527.0000 1.0000
31.4500 496.0000 1.0000
31.4600 504.0000 1.0000
31.4700 546.0000 1.0000
31.4800 531.0000 1.0000
31.4900 527.0000 1.0000
31.5000 520.0000 1.0000
31.5100 527.0000 1.0000
31.5200 508.0000 1.0000
31.5300 551.0000 1.0000
31.5400 523.0000 1.0000
31.5500 516.0000 1.0000
31.5600 477.0000 1.0000
31.5700 497.0000 1.0000
31.5800 500.0000 1.0000
31.5900 520.0000 1.0000
31.6000 496.0000 1.0000
31.6100 464.0000 1.0000
31.6200 513.0000 1.0000
31.6300 503.0000 1.0000
31.6400 527.0000 1.0000
31.6500 526.0000 1.0000
31.6600 526.0000 1.0000
31.6700 530.0000 1.0000
31.6800 536.0000 1.0000
31.6900 491.0000 1.0000
31.7000 512.0000 1.0000
31.7100 488.0000 1.0000
31.7200 503.0000 1.0000
31.7300 530.0000 1.0000
31.7400 483.0000 1.0000
31.7500 516.0000 1.0000
31.7600 516.0000 1.0000
31.7700 509.0000 1.0000
31.7800 477.0000 1.0000
31.7900 499.0000 1.0000
31.8000 519.0000 1.0000
31.8100 507.0000 1.0000
31.8200 458.0000 1.0000
31.8300 527.0000 1.0000
31.8400 480.0000 1.0000
31.8500 521.0000 1.0000
31.8600 532.0000 1.0000
31.8700 529.0000 1.0000
31.8800 535.0000 1.0000
31.8900 478.0000 1.0000
31.9000 490.0000 1.0000
31.9100 481.0000 1.0000
31.9200 498.0000 1.0000
31.9300 482.0000 1.0000
31.9400 529.0000 1.0000
31.9500 516.0000 1.0000
31.9600 539.0000 1.0000
31.9700 519.0000 1.0000
31.9800 504.0000 1.0000
31.9900 501.0000 1.0000
32.0000 502.0000 1.0000
32.0100 534.0000 1.0000
32.0200 496.0000 1.0000
32.0300 508.0000 1.0000
32.0400 527.0000 1.0000
32.0500 507.0000 1.0000
32.0600 486.0000 1.0000
32.0700 513.0000 1.0000
32.0800 538.0000 1.0000
32.0900 534.0000 1.0000
32.1000 510.0000 1.0000
32.1100 502.0000 1.0000
32.1200 483.0000 1.0000
32.1300 514.0000 1.0000
32.1400 524.0000 1.0000
32.1500 520.0000 1.0000
32.1600 525.0000 1.0000
32.1700 486.0000 1.0000
32.1800 477.0000 1.0000
32.1900 477.0000 1.0000
32.2000 521.0000 1.0000
32.2100 507.0000 1.0000
32.2200 524.0000 1.0000
32.2300 484.0000 1.0000
32.2400 501.0000 1.0000
32.2500 524.0000 1.0000
32.2600 538.0000 1.0000
32.2700 501.0000 1.0000
32.2800 546.0000 1.0000
32.2900 529.0000 1.0000
32.3000 530.0000 1.0000
32.3100 542.0000 1.0000
32.3200 492.0000 1.0000
32.3300 457.0000 1.0000
32.3400 490.0000 1.0000
32.3500 489.0000 1.0000
32.3600 499.0000 1.0000
32.3700 536.0000 1.0000
32.3800 493.0000 1.0000
32.3900 484.0000 1.0000
32.4000 467.0000 1.0000
32.4100 503.0000 1.0000
32.4200 500.0000 1.0000
32.4300 473.0000 1.0000
32.4400 510.0000 1.0000
32.4500 483.0000 1.0000
32.4600 472.0000 1.0000
32.4700 497.0000 1.0000
32.4800 481.0000 1.0000
32.4900 480.0000 1.0000
32.5000 476.0000 1.0000
32.5100 466.0000 1.0000
32.5200 494.0000 1.0000
32.5300 507.0000 1.0000
32.5400 499.0000 1.0000
32.5500 520.0000 1.0000
32.5600 478.0000 1.0000
32.5700 481.0000 1.0000
32.5800 494.0000 1.0000
32.5900 479.0000 1.0000
32.6000 530.0000 1.0000
32.6100 512.0000 1.0000
32.6200 488.0000 1.0000
32.6300 473.0000 1.0000
32.6400 492.0000 1.0000
32.6500 494.0000 1.0000
32.6600 494.0000 1.0000
32.6700 499.0000 1.0000
32.6800 469.0000 1.0000
32.6900 518.0000 1.0000
32.7000 476.0000 1.0000
32.7100 505.0000 1.0000
32.7200 509.0000 1.0000
32.7300 485.0000 1.0000
32.7400 515.0000 1.0000
32.7500 502.0000 1.0000
32.7600 522.0000 1.0000
32.7700 491.0000 1.0000
32.7800 498.0000 1.0000
32.7900 494.0000 1.0000
32.8000 519.0000 1.0000
32.8100 522.0000 1.0000
32.8200 458.0000 1.0000
32.8300 490.0000 1.0000
32.8400 545.0000 1.0000
32.8500 516.0000 1.0000
32.8600 513.0000 1.0000
32.8700 513.0000 1.0000
32.8800 515.0000 1.0000
32.8900 532.0000 1.0000
32.9000 508.0000 1.0000
32.9100 523.0000 1.0000
32.9200 501.0000 1.0000
32.9300 537.0000 1.0000
32.9400 519.0000 1.0000
32.9500 538.0000 1.0000
32.9600 533.0000 1.0000
32.9700 511.0000 1.0000
32.9800 519.0000 1.0000
32.9900 531.0000 1.0000
33.0000 538.0000 1.0000
33.0100 504.0000 1.0000
33.0200 550.0000 1.0000
33.0300 543.0000 1.0000
33.0400 559.0000 1.0000
33.0500 570.0000 1.0000
33.0600 572.0000 1.0000
33.0700 598.0000 1.0000
33.0800 551.0000 1.0000
33.0900 597.0000 1.0000
33.1000 583.0000 1.0000
33.1100 570.0000 1.0000
33.1200 579.0000 1.0000
33.1300 589.0000 1.0000
33.1400 579.0000 1.0000
33.1500 543.0000 1.0000
33.1600 600.0000 1.0000
33.1700 573.0000 1.0000
33.1800 572.0000 1.0000
33.1900 575.0000 1.0000
33.2000 568.0000 1.0000
33.2100 508.0000 1.0000
33.2200 557.0000 1.0000
33.2300 549.0000 1.0000
33.2400 597.0000 1.0000
33.2500 544.0000 1.0000
33.2600 547.0000 1.0000
33.2700 551.0000 1.0000
33.2800 534.0000 1.0000
33.2900 515.0000 1.0000
33.3000 537.0000 1.0000
33.3100 521.0000 1.0000
33.3200 520.0000 1.0000
33.3300 525.0000 1.0000
33.3400 522.0000 1.0000
33.3500 521.0000 1.0000
33.3600 549.0000 1.0000
33.3700 537.0000 1.0000
33.3800 524.0000 1.0000
33.3900 541.0000 1.0000
33.4000 581.0000 1.0000
33.4100 567.0000 1.0000
33.4200 543.0000 1.0000
33.4300 525.0000 1.0000
33.4400 559.0000 1.0000
33.4500 584.0000 1.0000
33.4600 544.0000 1.0000
33.4700 551.0000 1.0000
33.4800 569.0000 1.0000
33.4900 601.0000 1.0000
33.5000 556.0000 1.0000
33.5100 587.0000 1.0000
33.5200 607.0000 1.0000
33.5300 619.0000 1.0000
33.5400 601.0000 1.0000
33.5500 602.0000 1.0000
33.5600 643.0000 1.0000
33.5700 612.0000 1.0000
33.5800 603.0000 1.0000
33.5900 635.0000 1.0000
33.6000 661.0000 1.0000
33.6100 642.0000 1.0000
33.6200 694.0000 1.0000
33.6300 692.0000 1.0000
33.6400 662.0000 1.0000
33.6500 631.0000 1.0000
33.6600 667.0000 1.0000
33.6700 688.0000 1.0000
33.6800 671.0000 1.0000
33.6900 616.0000 1.0000
33.7000 659.0000 1.0000
33.7100 661.0000 1.0000
33.7200 658.0000 1.0000
33.7300 644.0000 1.0000
33.7400 641.0000 1.0000
33.7500 645.0000 1.0000
33.7600 630.0000 1.0000
33.7700 633.0000 1.0000
33.7800 632.0000 1.0000
33.7900 637.0000 1.0000
33.8000 619.0000 1.0000
33.8100 591.0000 1.0000
33.8200 616.0000 1.0000
33.8300 641.0000 1.0000
33.8400 592.0000 1.0000
33.8500 579.0000 1.0000
33.8600 554.0000 1.0000
33.8700 529.0000 1.0000
33.8800 579.0000 1.0000
33.8900 550.0000 1.0000
33.9000 575.0000 1.0000
33.9100 552.0000 1.0000
33.9200 544.0000 1.0000
33.9300 559.0000 1.0000
33.9400 557.0000 1.0000
33.9500 571.0000 1.0000
33.9600 551.0000 1.0000
33.9700 541.0000 1.0000
33.9800 533.0000 1.0000
33.9900 520.0000 1.0000
34.0000 508.0000 1.0000
34.0100 513.0000 1.0000
34.0200 525.0000 1.0000
34.0300 479.0000 1.0000
34.0400 478.0000 1.0000
34.0500 508.0000 1.0000
34.0600 516.0000 1.0000
34.0700 533.0000 1.0000
34.0800 490.0000 1.0000
34.0900 448.0000 1.0000
34.1000 540.0000 1.0000
34.1100 454.0000 1.0000
34.1200 457.0000 1.0000
34.1300 457.0000 1.0000
34.1400 484.0000 1.0000
34.1500 445.0000 1.0000
34.1600 486.0000 1.0000
34.1700 453.0000 1.0000
34.1800 497.0000 1.0000
34.1900 464.0000 1.0000
34.2000 476.0000 1.0000
34.2100 443.0000 1.0000
34.2200 498.0000 1.0000
34.2300 488.0000 1.0000
34.2400 473.0000 1.0000
34.2500 472.0000 1.0000
34.2600 478.0000 1.0000
34.2700 457.0000 1.0000
34.2800 488.0000 1.0000
34.2900 467.0000 1.0000
34.3000 444.0000 1.0000
34.3100 481.0000 1.0000
34.3200 454.0000 1.0000
34.3300 460.0000 1.0000
34.3400 470.0000 1.0000
34.3500 468.0000 1.0000
34.3600 463.0000 1.0000
34.3700 455.0000 1.0000
34.3800 467.0000 1.0000
34.3900 457.0000 1.0000
34.4000 475.0000 1.0000
34.4100 448.0000 1.0000
34.4200 441.0000 1.0000
34.4300 457.0000 1.0000
34.4400 422.0000 1.0000
34.4500 448.0000 1.0000
34.4600 452.0000 1.0000
34.4700 476.0000 1.0000
34.4800 475.0000 1.0000
34.4900 457.0000 1.0000
34.5000 477.0000 1.0000
34.5100 452.0000 1.0000
34.5200 455.0000 1.0000
34.5300 471.0000 1.0000
34.5400 429.0000 1.0000
34.5500 458.0000 1.0000
34.5600 467.0000 1.0000
34.5700 421.0000 1.0000
34.5800 425.0000 1.0000
34.5900 466.0000 1.0000
34.6000 438.0000 1.0000
34.6100 432.0000 1.0000
34.6200 468.0000 1.0000
34.6300 455.0000 1.0000
34.6400 503.0000 1.0000
34.6500 411.0000 1.0000
34.6600 444.0000 1.0000
34.6700 447.0000 1.0000
34.6800 443.0000 1.0000
34.6900 439.0000 1.0000
34.7000 452.0000 1.0000
34.7100 433.0000 1.0000
34.7200 434.0000 1.0000
34.7300 464.0000 1.0000
34.7400 452.0000 1.0000
34.7500 427.0000 1.0000
34.7600 432.0000 1.0000
34.7700 438.0000 1.0000
34.7800 411.0000 1.0000
34.7900 412.0000 1.0000
34.8000 446.0000 1.0000
34.8100 445.0000 1.0000
34.8200 431.0000 1.0000
34.8300 440.0000 1.0000
34.8400 428.0000 1.0000
34.8500 416.0000 1.0000
34.8600 439.0000 1.0000
34.8700 428.0000 1.0000
34.8800 438.0000 1.0000
34.8900 427.0000 1.0000
34.9000 440.0000 1.0000
34.9100 414.0000 1.0000
34.9200 438.0000 1.0000
34.9300 472.0000 1.0000
34.9400 449.0000 1.0000
34.9500 442.0000 1.0000
34.9600 439.0000 1.0000
34.9700 440.0000 1.0000
34.9800 400.0000 1.0000
34.9900 442.0000 1.0000
35.0000 430.0000 1.0000
35.0100 422.0000 1.0000
35.0200 452.0000 1.0000
35.0300 441.0000 1.0000
35.0400 429.0000 1.0000
35.0500 428.0000 1.0000
35.0600 453.0000 1.0000
35.0700 416.0000 1.0000
35.0800 455.0000 1.0000
35.0900 435.0000 1.0000
35.1000 455.0000 1.0000
35.1100 457.0000 1.0000
35.1200 426.0000 1.0000
35.1300 433.0000 1.0000
35.1400 461.0000 1.0000
35.1500 424.0000 1.0000
35.1600 422.0000 1.0000
35.1700 440.0000 1.0000
35.1800 456.0000 1.0000
35.1900 447.0000 1.0000
35.2000 431.0000 1.0000
35.2100 418.0000 1.0000
35.2200 510.0000 1.0000
35.2300 436.0000 1.0000
35.2400 461.0000 1.0000
35.2500 456.0000 1.0000
35.2600 448.0000 1.0000
35.2700 449.0000 1.0000
35.2800 453.0000 1.0000
35.2900 445.0000 1.0000
35.3000 505.0000 1.0000
35.3100 473.0000 1.0000
35.3200 469.0000 1.0000
35.3300 478.0000 1.0000
35.3400 502.0000 1.0000
35.3500 515.0000 1.0000
35.3600 479.0000 1.0000
35.3700 488.0000 1.0000
35.3800 510.0000 1.0000
35.3900 528.0000 1.0000
35.4000 520.0000 1.0000
35.4100 521.0000 1.0000
35.4200 546.0000 1.0000
35.4300 609.0000 1.0000
35.4400 568.0000 1.0000
35.4500 602.0000 1.0000
35.4600 635.0000 1.0000
35.4700 644.0000 1.0000
35.4800 675.0000 1.0000
35.4900 663.0000 1.0000
35.5000 746.0000 1.0000
35.5100 752.0000 1.0000
35.5200 798.0000 1.0000
35.5300 847.0000 1.0000
35.5400 842.0000 1.0000
35.5500 887.0000 1.0000
35.5600 865.0000 1.0000
35.5700 897.0000 1.0000
35.5800 924.0000 1.0000
35.5900 838.0000 1.0000
35.6000 918.0000 1.0000
35.6100 855.0000 1.0000
35.6200 857.0000 1.0000
35.6300 840.0000 1.0000
35.6400 805.0000 1.0000
35.6500 791.0000 1.0000
35.6600 799.0000 1.0000
35.6700 743.0000 1.0000
35.6800 736.0000 1.0000
35.6900 682.0000 1.0000
35.7000 675.0000 1.0000
35.7100 634.0000 1.0000
35.7200 609.0000 1.0000
35.7300 623.0000 1.0000
35.7400 597.0000 1.0000
35.7500 547.0000 1.0000
35.7600 549.0000 1.0000
35.7700 537.0000 1.0000
35.7800 488.0000 1.0000
35.7900 514.0000 1.0000
35.8000 478.0000 1.0000
35.8100 465.0000 1.0000
35.8200 448.0000 1.0000
35.8300 455.0000 1.0000
35.8400 460.0000 1.0000
35.8500 469.0000 1.0000
35.8600 415.0000 1.0000
35.8700 442.0000 1.0000
35.8800 448.0000 1.0000
35.8900 432.0000 1.0000
35.9000 435.0000 1.0000
35.9100 445.0000 1.0000
35.9200 436.0000 1.0000
35.9300 418.0000 1.0000
35.9400 416.0000 1.0000
35.9500 410.0000 1.0000
35.9600 413.0000 1.0000
35.9700 429.0000 1.0000
35.9800 417.0000 1.0000
35.9900 425.0000 1.0000
36.0000 377.0000 1.0000
36.0100 408.0000 1.0000
36.0200 447.0000 1.0000
36.0300 427.0000 1.0000
36.0400 438.0000 1.0000
36.0500 462.0000 1.0000
36.0600 449.0000 1.0000
36.0700 404.0000 1.0000
36.0800 448.0000 1.0000
36.0900 421.0000 1.0000
36.1000 428.0000 1.0000
36.1100 388.0000 1.0000
36.1200 384.0000 1.0000
36.1300 419.0000 1.0000
36.1400 401.0000 1.0000
36.1500 396.0000 1.0000
36.1600 412.0000 1.0000
36.1700 419.0000 1.0000
36.1800 406.0000 1.0000
36.1900 402.0000 1.0000
36.2000 418.0000 1.0000
36.2100 378.0000 1.0000
36.2200 393.0000 1.0000
36.2300 417.0000 1.0000
36.2400 416.0000 1.0000
36.2500 407.0000 1.0000
36.2600 380.0000 1.0000
36.2700 376.0000 1.0000
36.2800 388.0000 1.0000
36.2900 373.0000 1.0000
36.3000 369.0000 1.0000
36.3100 402.0000 1.0000
36.3200 414.0000 1.0000
36.3300 383.0000 1.0000
36.3400 406.0000 1.0000
36.3500 409.0000 1.0000
36.3600 403.0000 1.0000
36.3700 427.0000 1.0000
36.3800 431.0000 1.0000
36.3900 414.0000 1.0000
36.4000 413.0000 1.0000
36.4100 376.0000 1.0000
36.4200 371.0000 1.0000
36.4300 415.0000 1.0000
36.4400 399.0000 1.0000
36.4500 398.0000 1.0000
36.4600 413.0000 1.0000
36.4700 448.0000 1.0000
36.4800 438.0000 1.0000
36.4900 392.0000 1.0000
36.5000 405.0000 1.0000
36.5100 401.0000 1.0000
36.5200 433.0000 1.0000
36.5300 451.0000 1.0000
36.5400 433.0000 1.0000
36.5500 375.0000 1.0000
36.5600 425.0000 1.0000
36.5700 411.0000 1.0000
36.5800 415.0000 1.0000
36.5900 440.0000 1.0000
36.6000 433.0000 1.0000
36.6100 414.0000 1.0000
36.6200 425.0000 1.0000
36.6300 411.0000 1.0000
36.6400 388.0000 1.0000
36.6500 413.0000 1.0000
36.6600 405.0000 1.0000
36.6700 346.0000 1.0000
36.6800 411.0000 1.0000
36.6900 451.0000 1.0000
36.7000 438.0000 1.0000
36.7100 412.0000 1.0000
36.7200 381.0000 1.0000
36.7300 396.0000 1.0000
36.7400 411.0000 1.0000
36.7500 414.0000 1.0000
36.7600 419.0000 1.0000
36.7700 404.0000 1.0000
36.7800 424.0000 1.0000
36.7900 410.0000 1.0000
36.8000 397.0000 1.0000
36.8100 425.0000 1.0000
36.8200 440.0000 1.0000
36.8300 417.0000 1.0000
36.8400 397.0000 1.0000
36.8500 450.0000 1.0000
36.8600 440.0000 1.0000
36.8700 431.0000 1.0000
36.8800 409.0000 1.0000
36.8900 405.0000 1.0000
36.9000 387.0000 1.0000
36.9100 429.0000 1.0000
36.9200 428.0000 1.0000
36.9300 414.0000 1.0000
36.9400 434.0000 1.0000
36.9500 420.0000 1.0000
36.9600 422.0000 1.0000
36.9700 418.0000 1.0000
36.9800 432.0000 1.0000
36.9900 437.0000 1.0000
37.0000 443.0000 1.0000
37.0100 456.0000 1.0000
37.0200 414.0000 1.0000
37.0300 455.0000 1.0000
37.0400 445.0000 1.0000
37.0500 450.0000 1.0000
37.0600 422.0000 1.0000
37.0700 439.0000 1.0000
37.0800 446.0000 1.0000
37.0900 422.0000 1.0000
37.1000 433.0000 1.0000
37.1100 400.0000 1.0000
37.1200 431.0000 1.0000
37.1300 426.0000 1.0000
37.1400 439.0000 1.0000
37.1500 479.0000 1.0000
37.1600 477.0000 1.0000
37.1700 468.0000 1.0000
37.1800 437.0000 1.0000
37.1900 454.0000 1.0000
37.2000 491.0000 1.0000
37.2100 484.0000 1.0000
37.2200 429.0000 1.0000
37.2300 452.0000 1.0000
37.2400 473.0000 1.0000
37.2500 511.0000 1.0000
37.2600 506.0000 1.0000
37.2700 507.0000 1.0000
37.2800 474.0000 1.0000
37.2900 487.0000 1.0000
37.3000 515.0000 1.0000
37.3100 509.0000 1.0000
37.3200 524.0000 1.0000
37.3300 533.0000 1.0000
37.3400 545.0000 1.0000
37.3500 567.0000 1.0000
37.3600 582.0000 1.0000
37.3700 592.0000 1.0000
37.3800 615.0000 1.0000
37.3900 663.0000 1.0000
37.4000 654.0000 1.0000
37.4100 657.0000 1.0000
37.4200 670.0000 1.0000
37.4300 759.0000 1.0000
37.4400 816.0000 1.0000
37.4500 769.0000 1.0000
37.4600 824.0000 1.0000
37.4700 842.0000 1.0000
37.4800 828.0000 1.0000
37.4900 905.0000 1.0000
37.5000 967.0000 1.0000
37.5100 1038.0000 1.0000
37.5200 1062.0000 1.0000
37.5300 1144.0000 1.0000
37.5400 1205.0000 1.0000
37.5500 1244.0000 1.0000
37.5600 1422.0000 1.0000
37.5700 1437.0000 1.0000
37.5800 1605.0000 1.0000
37.5900 1658.0000 1.0000
37.6000 1682.0000 1.0000
37.6100 1906.0000 1.0000
37.6200 2057.0000 1.0000
37.6300 2209.0000 1.0000
37.6400 2208.0000 1.0000
37.6500 2315.0000 1.0000
37.6600 2565.0000 1.0000
37.6700 2716.0000 1.0000
37.6800 2868.0000 1.0000
37.6900 2835.0000 1.0000
37.7000 2887.0000 1.0000
37.7100 3025.0000 1.0000
37.7200 3066.0000 1.0000
37.7300 3052.0000 1.0000
37.7400 3049.0000 1.0000
37.7500 3097.0000 1.0000
37.7600 3005.0000 1.0000
37.7700 2827.0000 1.0000
37.7800 2716.0000 1.0000
37.7900 2668.0000 1.0000
37.8000 2515.0000 1.0000
37.8100 2367.0000 1.0000
37.8200 2408.0000 1.0000
37.8300 2302.0000 1.0000
37.8400 2156.0000 1.0000
37.8500 2092.0000 1.0000
37.8600 1842.0000 1.0000
37.8700 1802.0000 1.0000
37.8800 1610.0000 1.0000
37.8900 1541.0000 1.0000
37.9000 1454.0000 1.0000
37.9100 1368.0000 1.0000
37.9200 1245.0000 1.0000
37.9300 1193.0000 1.0000
37.9400 1113.0000 1.0000
37.9500 1023.0000 1.0000
37.9600 1031.0000 1.0000
37.9700 948.0000 1.0000
37.9800 881.0000 1.0000
37.9900 859.0000 1.0000
38.0000 818.0000 1.0000
38.0100 771.0000 1.0000
38.0200 692.0000 1.0000
38.0300 728.0000 1.0000
38.0400 676.0000 1.0000
38.0500 671.0000 1.0000
38.0600 631.0000 1.0000
38.0700 645.0000 1.0000
38.0800 599.0000 1.0000
38.0900 568.0000 1.0000
38.1000 576.0000 1.0000
38.1100 564.0000 1.0000
38.1200 554.0000 1.0000
38.1300 540.0000 1.0000
38.1400 518.0000 1.0000
38.1500 523.0000 1.0000
38.1600 466.0000 1.0000
38.1700 470.0000 1.0000
38.1800 492.0000 1.0000
38.1900 474.0000 1.0000
38.2000 488.0000 1.0000
38.2100 485.0000 1.0000
38.2200 477.0000 1.0000
38.2300 441.0000 1.0000
38.2400 443.0000 1.0000
38.2500 460.0000 1.0000
38.2600 408.0000 1.0000
38.2700 457.0000 1.0000
38.2800 423.0000 1.0000
38.2900 439.0000 1.0000
38.3000 429.0000 1.0000
38.3100 426.0000 1.0000
38.3200 399.0000 1.0000
38.3300 408.0000 1.0000
38.3400 419.0000 1.0000
38.3500 426.0000 1.0000
38.3600 419.0000 1.0000
38.3700 411.0000 1.0000
38.3800 397.0000 1.0000
38.3900 374.0000 1.0000
38.4000 400.0000 1.0000
38.4100 381.0000 1.0000
38.4200 369.0000 1.0000
38.4300 369.0000 1.0000
38.4400 369.0000 1.0000
38.4500 395.0000 1.0000
38.4600 384.0000 1.0000
38.4700 394.0000 1.0000
38.4800 366.0000 1.0000
38.4900 402.0000 1.0000
38.5000 398.0000 1.0000
38.5100 370.0000 1.0000
38.5200 395.0000 1.0000
38.5300 370.0000 1.0000
38.5400 374.0000 1.0000
38.5500 367.0000 1.0000
38.5600 366.0000 1.0000
38.5700 359.0000 1.0000
38.5800 386.0000 1.0000
38.5900 340.0000 1.0000
38.6000 372.0000 1.0000
38.6100 362.0000 1.0000
38.6200 381.0000 1.0000
38.6300 351.0000 1.0000
38.6400 342.0000 1.0000
38.6500 386.0000 1.0000
38.6600 390.0000 1.0000
38.6700 359.0000 1.0000
38.6800 344.0000 1.0000
38.6900 360.0000 1.0000
38.7000 346.0000 1.0000
38.7100 370.0000 1.0000
38.7200 374.0000 1.0000
38.7300 382.0000 1.0000
38.7400 364.0000 1.0000
38.7500 383.0000 1.0000
38.7600 353.0000 1.0000
38.7700 362.0000 1.0000
38.7800 366.0000 1.0000
38.7900 401.0000 1.0000
38.8000 357.0000 1.0000
38.8100 358.0000 1.0000
38.8200 342.0000 1.0000
38.8300 361.0000 1.0000
38.8400 357.0000 1.0000
38.8500 379.0000 1.0000
38.8600 365.0000 1.0000
38.8700 397.0000 1.0000
38.8800 350.0000 1.0000
38.8900 376.0000 1.0000
38.9000 365.0000 1.0000
38.9100 370.0000 1.0000
38.9200 365.0000 1.0000
38.9300 352.0000 1.0000
38.9400 355.0000 1.0000
38.9500 362.0000 1.0000
38.9600 374.0000 1.0000
38.9700 361.0000 1.0000
38.9800 325.0000 1.0000
38.9900 351.0000 1.0000
39.0000 346.0000 1.0000
39.0100 346.0000 1.0000
39.0200 375.0000 1.0000
39.0300 358.0000 1.0000
39.0400 336.0000 1.0000
39.0500 317.0000 1.0000
39.0600 343.0000 1.0000
39.0700 358.0000 1.0000
39.0800 400.0000 1.0000
39.0900 344.0000 1.0000
39.1000 390.0000 1.0000
39.1100 354.0000 1.0000
39.1200 348.0000 1.0000
39.1300 357.0000 1.0000
39.1400 373.0000 1.0000
39.1500 380.0000 1.0000
39.1600 367.0000 1.0000
39.1700 385.0000 1.0000
39.1800 374.0000 1.0000
39.1900 346.0000 1.0000
39.2000 369.0000 1.0000
39.2100 370.0000 1.0000
39.2200 353.0000 1.0000
39.2300 355.0000 1.0000
39.2400 341.0000 1.0000
39.2500 341.0000 1.0000
39.2600 367.0000 1.0000
39.2700 334.0000 1.0000
39.2800 345.0000 1.0000
39.2900 350.0000 1.0000
39.3000 342.0000 1.0000
39.3100 371.0000 1.0000
39.3200 363.0000 1.0000
39.3300 359.0000 1.0000
39.3400 325.0000 1.0000
39.3500 345.0000 1.0000
39.3600 350.0000 1.0000
39.3700 354.0000 1.0000
39.3800 329.0000 1.0000
39.3900 366.0000 1.0000
39.4000 368.0000 1.0000
39.4100 339.0000 1.0000
39.4200 321.0000 1.0000
39.4300 338.0000 1.0000
39.4400 349.0000 1.0000
39.4500 334.0000 1.0000
39.4600 323.0000 1.0000
39.4700 340.0000 1.0000
39.4800 349.0000 1.0000
39.4900 330.0000 1.0000
39.5000 336.0000 1.0000
39.5100 312.0000 1.0000
39.5200 337.0000 1.0000
39.5300 325.0000 1.0000
39.5400 314.0000 1.0000
39.5500 326.0000 1.0000
39.5600 332.0000 1.0000
39.5700 335.0000 1.0000
39.5800 324.0000 1.0000
39.5900 337.0000 1.0000
39.6000 305.0000 1.0000
39.6100 368.0000 1.0000
39.6200 318.0000 1.0000
39.6300 332.0000 1.0000
39.6400 337.0000 1.0000
39.6500 335.0000 1.0000
39.6600 354.0000 1.0000
39.6700 353.0000 1.0000
39.6800 326.0000 1.0000
39.6900 350.0000 1.0000
39.7000 343.0000 1.0000
39.7100 327.0000 1.0000
39.7200 339.0000 1.0000
39.7300 321.0000 1.0000
39.7400 322.0000 1.0000
39.7500 330.0000 1.0000
39.7600 340.0000 1.0000
39.7700 336.0000 1.0000
39.7800 313.0000 1.0000
39.7900 341.0000 1.0000
39.8000 326.0000 1.0000
39.8100 330.0000 1.0000
39.8200 318.0000 1.0000
39.8300 320.0000 1.0000
39.8400 318.0000 1.0000
39.8500 316.0000 1.0000
39.8600 344.0000 1.0000
39.8700 313.0000 1.0000
39.8800 329.0000 1.0000
39.8900 358.0000 1.0000
39.9000 369.0000 1.0000
39.9100 345.0000 1.0000
39.9200 364.0000 1.0000
39.9300 343.0000 1.0000
39.9400 337.0000 1.0000
39.9500 331.0000 1.0000
39.9600 323.0000 1.0000
39.9700 321.0000 1.0000
39.9800 339.0000 1.0000
39.9900 342.0000 1.0000
40.0000 330.0000 1.0000
40.0100 337.0000 1.0000
40.0200 346.0000 1.0000
40.0300 358.0000 1.0000
40.0400 380.0000 1.0000
40.0500 330.0000 1.0000
40.0600 335.0000 1.0000
40.0700 338.0000 1.0000
40.0800 334.0000 1.0000
40.0900 335.0000 1.0000
40.1000 303.0000 1.0000
40.1100 332.0000 1.0000
40.1200 316.0000 1.0000
40.1300 317.0000 1.0000
40.1400 352.0000 1.0000
40.1500 311.0000 1.0000
40.1600 311.0000 1.0000
40.1700 331.0000 1.0000
40.1800 324.0000 1.0000
40.1900 324.0000 1.0000
40.2000 313.0000 1.0000
40.2100 334.0000 1.0000
40.2200 332.0000 1.0000
40.2300 322.0000 1.0000
40.2400 339.0000 1.0000
40.2500 338.0000 1.0000
40.2600 332.0000 1.0000
40.2700 307.0000 1.0000
40.2800 292.0000 1.0000
40.2900 315.0000 1.0000
40.3000 311.0000 1.0000
40.3100 318.0000 1.0000
40.3200 346.0000 1.0000
40.3300 312.0000 1.0000
40.3400 347.0000 1.0000
40.3500 319.0000 1.0000
40.3600 347.0000 1.0000
40.3700 333.0000 1.0000
40.3800 334.0000 1.0000
40.3900 341.0000 1.0000
40.4000 302.0000 1.0000
40.4100 273.0000 1.0000
40.4200 303.0000 1.0000
40.4300 325.0000 1.0000
40.4400 321.0000 1.0000
40.4500 317.0000 1.0000
40.4600 337.0000 1.0000
40.4700 338.0000 1.0000
40.4800 318.0000 1.0000
40.4900 323.0000 1.0000
40.5000 310.0000 1.0000
40.5100 314.0000 1.0000
40.5200 321.0000 1.0000
40.5300 324.0000 1.0000
40.5400 331.0000 1.0000
40.5500 293.0000 1.0000
40.5600 328.0000 1.0000
40.5700 315.0000 1.0000
40.5800 355.0000 1.0000
40.5900 364.0000 1.0000
40.6000 353.0000 1.0000
40.6100 326.0000 1.0000
40.6200 327.0000 1.0000
40.6300 337.0000 1.0000
40.6400 348.0000 1.0000
40.6500 326.0000 1.0000
40.6600 342.0000 1.0000
40.6700 357.0000 1.0000
40.6800 351.0000 1.0000
40.6900 332.0000 1.0000
40.7000 308.0000 1.0000
40.7100 347.0000 1.0000
40.7200 357.0000 1.0000
40.7300 310.0000 1.0000
40.7400 351.0000 1.0000
40.7500 339.0000 1.0000
40.7600 408.0000 1.0000
40.7700 387.0000 1.0000
40.7800 351.0000 1.0000
40.7900 385.0000 1.0000
40.8000 360.0000 1.0000
40.8100 361.0000 1.0000
40.8200 363.0000 1.0000
40.8300 350.0000 1.0000
40.8400 348.0000 1.0000
40.8500 337.0000 1.0000
40.8600 359.0000 1.0000
40.8700 349.0000 1.0000
40.8800 354.0000 1.0000
40.8900 338.0000 1.0000
40.9000 356.0000 1.0000
40.9100 321.0000 1.0000
40.9200 345.0000 1.0000
40.9300 353.0000 1.0000
40.9400 323.0000 1.0000
40.9500 355.0000 1.0000
40.9600 372.0000 1.0000
40.9700 348.0000 1.0000
40.9800 327.0000 1.0000
40.9900 326.0000 1.0000
41.0000 311.0000 1.0000
41.0100 341.0000 1.0000
41.0200 352.0000 1.0000
41.0300 309.0000 1.0000
41.0400 313.0000 1.0000
41.0500 331.0000 1.0000
41.0600 336.0000 1.0000
41.0700 366.0000 1.0000
41.0800 351.0000 1.0000
41.0900 335.0000 1.0000
41.1000 322.0000 1.0000
41.1100 335.0000 1.0000
41.1200 317.0000 1.0000
41.1300 314.0000 1.0000
41.1400 338.0000 1.0000
41.1500 321.0000 1.0000
41.1600 320.0000 1.0000
41.1700 344.0000 1.0000
41.1800 346.0000 1.0000
41.1900 321.0000 1.0000
41.2000 314.0000 1.0000
41.2100 302.0000 1.0000
41.2200 335.0000 1.0000
41.2300 323.0000 1.0000
41.2400 321.0000 1.0000
41.2500 315.0000 1.0000
41.2600 323.0000 1.0000
41.2700 329.0000 1.0000
41.2800 331.0000 1.0000
41.2900 329.0000 1.0000
41.3000 320.0000 1.0000
41.3100 318.0000 1.0000
41.3200 318.0000 1.0000
41.3300 342.0000 1.0000
41.3400 324.0000 1.0000
41.3500 301.0000 1.0000
41.3600 331.0000 1.0000
41.3700 313.0000 1.0000
41.3800 337.0000 1.0000
41.3900 306.0000 1.0000
41.4000 327.0000 1.0000
41.4100 317.0000 1.0000
41.4200 323.0000 1.0000
41.4300 321.0000 1.0000
41.4400 310.0000 1.0000
41.4500 308.0000 1.0000
41.4600 301.0000 1.0000
41.4700 313.0000 1.0000
41.4800 332.0000 1.0000
41.4900 317.0000 1.0000
41.5000 342.0000 1.0000
41.5100 300.0000 1.0000
41.5200 308.0000 1.0000
41.5300 336.0000 1.0000
41.5400 332.0000 1.0000
41.5500 333.0000 1.0000
41.5600 291.0000 1.0000
41.5700 295.0000 1.0000
41.5800 320.0000 1.0000
41.5900 312.0000 1.0000
41.6000 329.0000 1.0000
41.6100 336.0000 1.0000
41.6200 329.0000 1.0000
41.6300 303.0000 1.0000
41.6400 307.0000 1.0000
41.6500 320.0000 1.0000
41.6600 291.0000 1.0000
41.6700 307.0000 1.0000
41.6800 329.0000 1.0000
41.6900 343.0000 1.0000
41.7000 329.0000 1.0000
41.7100 313.0000 1.0000
41.7200 336.0000 1.0000
41.7300 325.0000 1.0000
41.7400 301.0000 1.0000
41.7500 296.0000 1.0000
41.7600 326.0000 1.0000
41.7700 325.0000 1.0000
41.7800 301.0000 1.0000
41.7900 303.0000 1.0000
41.8000 320.0000 1.0000
41.8100 340.0000 1.0000
41.8200 322.0000 1.0000
41.8300 303.0000 1.0000
41.8400 307.0000 1.0000
41.8500 314.0000 1.0000
41.8600 298.0000 1.0000
41.8700 340.0000 1.0000
41.8800 311.0000 1.0000
41.8900 312.0000 1.0000
41.9000 319.0000 1.0000
41.9100 319.0000 1.0000
41.9200 315.0000 1.0000
41.9300 325.0000 1.0000
41.9400 338.0000 1.0000
41.9500 338.0000 1.0000
41.9600 303.0000 1.0000
41.9700 315.0000 1.0000
41.9800 329.0000 1.0000
41.9900 320.0000 1.0000
42.0000 303.0000 1.0000
42.0100 333.0000 1.0000
42.0200 332.0000 1.0000
42.0300 295.0000 1.0000
42.0400 309.0000 1.0000
42.0500 330.0000 1.0000
42.0600 318.0000 1.0000
42.0700 331.0000 1.0000
42.0800 313.0000 1.0000
42.0900 317.0000 1.0000
42.1000 323.0000 1.0000
42.1100 333.0000 1.0000
42.1200 327.0000 1.0000
42.1300 345.0000 1.0000
42.1400 325.0000 1.0000
42.1500 319.0000 1.0000
42.1600 325.0000 1.0000
42.1700 337.0000 1.0000
42.1800 323.0000 1.0000
42.1900 352.0000 1.0000
42.2000 352.0000 1.0000
42.2100 327.0000 1.0000
42.2200 320.0000 1.0000
42.2300 330.0000 1.0000
42.2400 322.0000 1.0000
42.2500 294.0000 1.0000
42.2600 313.0000 1.0000
42.2700 301.0000 1.0000
42.2800 339.0000 1.0000
42.2900 333.0000 1.0000
42.3000 316.0000 1.0000
42.3100 323.0000 1.0000
42.3200 339.0000 1.0000
42.3300 321.0000 1.0000
42.3400 293.0000 1.0000
42.3500 288.0000 1.0000
42.3600 350.0000 1.0000
42.3700 326.0000 1.0000
42.3800 317.0000 1.0000
42.3900 319.0000 1.0000
42.4000 319.0000 1.0000
42.4100 296.0000 1.0000
42.4200 323.0000 1.0000
42.4300 315.0000 1.0000
42.4400 329.0000 1.0000
42.4500 335.0000 1.0000
42.4600 316.0000 1.0000
42.4700 324.0000 1.0000
42.4800 326.0000 1.0000
42.4900 318.0000 1.0000
42.5000 332.0000 1.0000
42.5100 304.0000 1.0000
42.5200 327.0000 1.0000
42.5300 347.0000 1.0000
42.5400 341.0000 1.0000
42.5500 325.0000 1.0000
42.5600 310.0000 1.0000
42.5700 296.0000 1.0000
42.5800 317.0000 1.0000
42.5900 332.0000 1.0000
42.6000 345.0000 1.0000
42.6100 311.0000 1.0000
42.6200 343.0000 1.0000
42.6300 334.0000 1.0000
42.6400 310.0000 1.0000
42.6500 319.0000 1.0000
42.6600 321.0000 1.0000
42.6700 320.0000 1.0000
42.6800 340.0000 1.0000
42.6900 300.0000 1.0000
42.7000 310.0000 1.0000
42.7100 333.0000 1.0000
42.7200 302.0000 1.0000
42.7300 286.0000 1.0000
42.7400 324.0000 1.0000
42.7500 319.0000 1.0000
42.7600 335.0000 1.0000
42.7700 299.0000 1.0000
42.7800 332.0000 1.0000
42.7900 333.0000 1.0000
42.8000 317.0000 1.0000
42.8100 321.0000 1.0000
42.8200 272.0000 1.0000
42.8300 310.0000 1.0000
42.8400 318.0000 1.0000
42.8500 321.0000 1.0000
42.8600 302.0000 1.0000
42.8700 327.0000 1.0000
42.8800 325.0000 1.0000
42.8900 300.0000 1.0000
42.9000 307.0000 1.0000
42.9100 314.0000 1.0000
42.9200 297.0000 1.0000
42.9300 282.0000 1.0000
42.9400 307.0000 1.0000
42.9500 319.0000 1.0000
42.9600 320.0000 1.0000
42.9700 311.0000 1.0000
42.9800 292.0000 1.0000
42.9900 324.0000 1.0000
43.0000 276.0000 1.0000
43.0100 281.0000 1.0000
43.0200 281.0000 1.0000
43.0300 304.0000 1.0000
43.0400 324.0000 1.0000
43.0500 291.0000 1.0000
43.0600 330.0000 1.0000
43.0700 325.0000 1.0000
43.0800 315.0000 1.0000
43.0900 337.0000 1.0000
43.1000 304.0000 1.0000
43.1100 307.0000 1.0000
43.1200 322.0000 1.0000
43.1300 284.0000 1.0000
43.1400 309.0000 1.0000
43.1500 319.0000 1.0000
43.1600 286.0000 1.0000
43.1700 314.0000 1.0000
43.1800 311.0000 1.0000
43.1900 298.0000 1.0000
43.2000 288.0000 1.0000
43.2100 311.0000 1.0000
43.2200 298.0000 1.0000
43.2300 312.0000 1.0000
43.2400 307.0000 1.0000
43.2500 314.0000 1.0000
43.2600 301.0000 1.0000
43.2700 298.0000 1.0000
43.2800 282.0000 1.0000
43.2900 292.0000 1.0000
43.3000 283.0000 1.0000
43.3100 315.0000 1.0000
43.3200 304.0000 1.0000
43.3300 318.0000 1.0000
43.3400 291.0000 1.0000
43.3500 316.0000 1.0000
43.3600 299.0000 1.0000
43.3700 296.0000 1.0000
43.3800 296.0000 1.0000
43.3900 303.0000 1.0000
43.4000 343.0000 1.0000
43.4100 311.0000 1.0000
43.4200 324.0000 1.0000
43.4300 313.0000 1.0000
43.4400 289.0000 1.0000
43.4500 293.0000 1.0000
43.4600 308.0000 1.0000
43.4700 297.0000 1.0000
43.4800 319.0000 1.0000
43.4900 291.0000 1.0000
43.5000 305.0000 1.0000
43.5100 306.0000 1.0000
43.5200 276.0000 1.0000
43.5300 307.0000 1.0000
43.5400 333.0000 1.0000
43.5500 329.0000 1.0000
43.5600 324.0000 1.0000
43.5700 302.0000 1.0000
43.5800 295.0000 1.0000
43.5900 305.0000 1.0000
43.6000 291.0000 1.0000
43.6100 294.0000 1.0000
43.6200 293.0000 1.0000
43.6300 305.0000 1.0000
43.6400 295.0000 1.0000
43.6500 286.0000 1.0000
43.6600 289.0000 1.0000
43.6700 305.0000 1.0000
43.6800 317.0000 1.0000
43.6900 300.0000 1.0000
43.7000 320.0000 1.0000
43.7100 282.0000 1.0000
43.7200 327.0000 1.0000
43.7300 314.0000 1.0000
43.7400 289.0000 1.0000
43.7500 273.0000 1.0000
43.7600 324.0000 1.0000
43.7700 291.0000 1.0000
43.7800 310.0000 1.0000
43.7900 278.0000 1.0000
43.8000 303.0000 1.0000
43.8100 292.0000 1.0000
43.8200 295.0000 1.0000
43.8300 288.0000 1.0000
43.8400 305.0000 1.0000
43.8500 275.0000 1.0000
43.8600 325.0000 1.0000
43.8700 272.0000 1.0000
43.8800 300.0000 1.0000
43.8900 323.0000 1.0000
43.9000 277.0000 1.0000
43.9100 290.0000 1.0000
43.9200 311.0000 1.0000
43.9300 320.0000 1.0000
43.9400 266.0000 1.0000
43.9500 291.0000 1.0000
43.9600 293.0000 1.0000
43.9700 274.0000 1.0000
43.9800 309.0000 1.0000
43.9900 303.0000 1.0000
44.0000 325.0000 1.0000
44.0100 318.0000 1.0000
44.0200 294.0000 1.0000
44.0300 303.0000 1.0000
44.0400 330.0000 1.0000
44.0500 296.0000 1.0000
44.0600 311.0000 1.0000
44.0700 299.0000 1.0000
44.0800 316.0000 1.0000
44.0900 297.0000 1.0000
44.1000 299.0000 1.0000
44.1100 306.0000 1.0000
44.1200 306.0000 1.0000
44.1300 279.0000 1.0000
44.1400 266.0000 1.0000
44.1500 283.0000 1.0000
44.1600 322.0000 1.0000
44.1700 295.0000 1.0000
44.1800 302.0000 1.0000
44.1900 315.0000 1.0000
44.2000 272.0000 1.0000
44.2100 278.0000 1.0000
44.2200 297.0000 1.0000
44.2300 305.0000 1.0000
44.2400 321.0000 1.0000
44.2500 296.0000 1.0000
44.2600 311.0000 1.0000
44.2700 317.0000 1.0000
44.2800 263.0000 1.0000
44.2900 281.0000 1.0000
44.3000 296.0000 1.0000
44.3100 300.0000 1.0000
44.3200 289.0000 1.0000
44.3300 273.0000 1.0000
44.3400 270.0000 1.0000
44.3500 292.0000 1.0000
44.3600 318.0000 1.0000
44.3700 288.0000 1.0000
44.3800 308.0000 1.0000
44.3900 310.0000 1.0000
44.4000 284.0000 1.0000
44.4100 301.0000 1.0000
44.4200 302.0000 1.0000
44.4300 302.0000 1.0000
44.4400 312.0000 1.0000
44.4500 302.0000 1.0000
44.4600 269.0000 1.0000
44.4700 290.0000 1.0000
44.4800 280.0000 1.0000
44.4900 289.0000 1.0000
44.5000 279.0000 1.0000
44.5100 290.0000 1.0000
44.5200 293.0000 1.0000
44.5300 310.0000 1.0000
44.5400 297.0000 1.0000
44.5500 292.0000 1.0000
44.5600 312.0000 1.0000
44.5700 276.0000 1.0000
44.5800 295.0000 1.0000
44.5900 295.0000 1.0000
44.6000 295.0000 1.0000
44.6100 291.0000 1.0000
44.6200 303.0000 1.0000
44.6300 279.0000 1.0000
44.6400 300.0000 1.0000
44.6500 299.0000 1.0000
44.6600 261.0000 1.0000
44.6700 263.0000 1.0000
44.6800 275.0000 1.0000
44.6900 309.0000 1.0000
44.7000 299.0000 1.0000
44.7100 314.0000 1.0000
44.7200 285.0000 1.0000
44.7300 281.0000 1.0000
44.7400 296.0000 1.0000
44.7500 300.0000 1.0000
44.7600 289.0000 1.0000
44.7700 272.0000 1.0000
44.7800 303.0000 1.0000
44.7900 295.0000 1.0000
44.8000 279.0000 1.0000
44.8100 279.0000 1.0000
44.8200 263.0000 1.0000
44.8300 304.0000 1.0000
44.8400 267.0000 1.0000
44.8500 289.0000 1.0000
44.8600 270.0000 1.0000
44.8700 302.0000 1.0000
44.8800 294.0000 1.0000
44.8900 284.0000 1.0000
44.9000 250.0000 1.0000
44.9100 310.0000 1.0000
44.9200 296.0000 1.0000
44.9300 288.0000 1.0000
44.9400 269.0000 1.0000
44.9500 270.0000 1.0000
44.9600 299.0000 1.0000
44.9700 270.0000 1.0000
44.9800 270.0000 1.0000
44.9900 264.0000 1.0000
45.0000 272.0000 1.0000
45.0100 303.0000 1.0000
45.0200 270.0000 1.0000
45.0300 283.0000 1.0000
45.0400 335.0000 1.0000
45.0500 323.0000 1.0000
45.0600 283.0000 1.0000
45.0700 289.0000 1.0000
45.0800 287.0000 1.0000
45.0900 284.0000 1.0000
45.1000 288.0000 1.0000
45.1100 279.0000 1.0000
45.1200 309.0000 1.0000
45.1300 278.0000 1.0000
45.1400 294.0000 1.0000
45.1500 307.0000 1.0000
45.1600 294.0000 1.0000
45.1700 271.0000 1.0000
45.1800 265.0000 1.0000
45.1900 286.0000 1.0000
45.2000 301.0000 1.0000
45.2100 298.0000 1.0000
45.2200 310.0000 1.0000
45.2300 314.0000 1.0000
45.2400 287.0000 1.0000
45.2500 293.0000 1.0000
45.2600 314.0000 1.0000
45.2700 261.0000 1.0000
45.2800 264.0000 1.0000
45.2900 307.0000 1.0000
45.3000 266.0000 1.0000
45.3100 284.0000 1.0000
45.3200 302.0000 1.0000
45.3300 285.0000 1.0000
45.3400 265.0000 1.0000
45.3500 278.0000 1.0000
45.3600 285.0000 1.0000
45.3700 293.0000 1.0000
45.3800 280.0000 1.0000
45.3900 304.0000 1.0000
45.4000 273.0000 1.0000
45.4100 308.0000 1.0000
45.4200 290.0000 1.0000
45.4300 249.0000 1.0000
45.4400 272.0000 1.0000
45.4500 287.0000 1.0000
45.4600 286.0000 1.0000
45.4700 283.0000 1.0000
45.4800 264.0000 1.0000
45.4900 292.0000 1.0000
45.5000 277.0000 1.0000
45.5100 295.0000 1.0000
45.5200 285.0000 1.0000
45.5300 298.0000 1.0000
45.5400 271.0000 1.0000
45.5500 286.0000 1.0000
45.5600 293.0000 1.0000
45.5700 265.0000 1.0000
45.5800 273.0000 1.0000
45.5900 282.0000 1.0000
45.6000 297.0000 1.0000
45.6100 271.0000 1.0000
45.6200 276.0000 1.0000
45.6300 263.0000 1.0000
45.6400 272.0000 1.0000
45.6500 294.0000 1.0000
45.6600 256.0000 1.0000
45.6700 267.0000 1.0000
45.6800 293.0000 1.0000
45.6900 307.0000 1.0000
45.7000 276.0000 1.0000
45.7100 267.0000 1.0000
45.7200 288.0000 1.0000
45.7300 290.0000 1.0000
45.7400 310.0000 1.0000
45.7500 294.0000 1.0000
45.7600 287.0000 1.0000
45.7700 267.0000 1.0000
45.7800 295.0000 1.0000
45.7900 280.0000 1.0000
45.8000 282.0000 1.0000
45.8100 261.0000 1.0000
45.8200 288.0000 1.0000
45.8300 257.0000 1.0000
45.8400 280.0000 1.0000
45.8500 299.0000 1.0000
45.8600 296.0000 1.0000
45.8700 259.0000 1.0000
45.8800 302.0000 1.0000
45.8900 295.0000 1.0000
45.9000 295.0000 1.0000
45.9100 269.0000 1.0000
45.9200 282.0000 1.0000
45.9300 249.0000 1.0000
45.9400 266.0000 1.0000
45.9500 258.0000 1.0000
45.9600 269.0000 1.0000
45.9700 283.0000 1.0000
45.9800 259.0000 1.0000
45.9900 321.0000 1.0000
46.0000 311.0000 1.0000
46.0100 259.0000 1.0000
46.0200 284.0000 1.0000
46.0300 281.0000 1.0000
46.0400 278.0000 1.0000
46.0500 255.0000 1.0000
46.0600 289.0000 1.0000
46.0700 300.0000 1.0000
46.0800 313.0000 1.0000
46.0900 293.0000 1.0000
46.1000 283.0000 1.0000
46.1100 310.0000 1.0000
46.1200 294.0000 1.0000
46.1300 297.0000 1.0000
46.1400 282.0000 1.0000
46.1500 269.0000 1.0000
46.1600 300.0000 1.0000
46.1700 293.0000 1.0000
46.1800 309.0000 1.0000
46.1900 289.0000 1.0000
46.2000 282.0000 1.0000
46.2100 280.0000 1.0000
46.2200 266.0000 1.0000
46.2300 285.0000 1.0000
46.2400 294.0000 1.0000
46.2500 291.0000 1.0000
46.2600 275.0000 1.0000
46.2700 287.0000 1.0000
46.2800 281.0000 1.0000
46.2900 291.0000 1.0000
46.3000 284.0000 1.0000
46.3100 282.0000 1.0000
46.3200 260.0000 1.0000
46.3300 277.0000 1.0000
46.3400 295.0000 1.0000
46.3500 275.0000 1.0000
46.3600 308.0000 1.0000
46.3700 295.0000 1.0000
46.3800 271.0000 1.0000
46.3900 266.0000 1.0000
46.4000 245.0000 1.0000
46.4100 258.0000 1.0000
46.4200 301.0000 1.0000
46.4300 277.0000 1.0000
46.4400 291.0000 1.0000
46.4500 281.0000 1.0000
46.4600 307.0000 1.0000
46.4700 268.0000 1.0000
46.4800 275.0000 1.0000
46.4900 271.0000 1.0000
46.5000 275.0000 1.0000
46.5100 267.0000 1.0000
46.5200 287.0000 1.0000
46.5300 257.0000 1.0000
46.5400 254.0000 1.0000
46.5500 249.0000 1.0000
46.5600 281.0000 1.0000
46.5700 289.0000 1.0000
46.5800 286.0000 1.0000
46.5900 281.0000 1.0000
46.6000 272.0000 1.0000
46.6100 282.0000 1.0000
46.6200 296.0000 1.0000
46.6300 283.0000 1.0000
46.6400 283.0000 1.0000
46.6500 284.0000 1.0000
46.6600 272.0000 1.0000
46.6700 294.0000 1.0000
46.6800 256.0000 1.0000
46.6900 275.0000 1.0000
46.7000 291.0000 1.0000
46.7100 280.0000 1.0000
46.7200 250.0000 1.0000
46.7300 260.0000 1.0000
46.7400 281.0000 1.0000
46.7500 278.0000 1.0000
46.7600 273.0000 1.0000
46.7700 287.0000 1.0000
46.7800 259.0000 1.0000
46.7900 253.0000 1.0000
46.8000 288.0000 1.0000
46.8100 276.0000 1.0000
46.8200 270.0000 1.0000
46.8300 256.0000 1.0000
46.8400 262.0000 1.0000
46.8500 283.0000 1.0000
46.8600 277.0000 1.0000
46.8700 289.0000 1.0000
46.8800 302.0000 1.0000
46.8900 244.0000 1.0000
46.9000 256.0000 1.0000
46.9100 274.0000 1.0000
46.9200 258.0000 1.0000
46.9300 278.0000 1.0000
46.9400 288.0000 1.0000
46.9500 263.0000 1.0000
46.9600 268.0000 1.0000
46.9700 273.0000 1.0000
46.9800 292.0000 1.0000
46.9900 275.0000 1.0000
47.0000 274.0000 1.0000
47.0100 275.0000 1.0000
47.0200 252.0000 1.0000
47.0300 292.0000 1.0000
47.0400 260.0000 1.0000
47.0500 278.0000 1.0000
47.0600 274.0000 1.0000
47.0700 267.0000 1.0000
47.0800 294.0000 1.0000
47.0900 286.0000 1.0000
47.1000 296.0000 1.0000
47.1100 286.0000 1.0000
47.1200 266.0000 1.0000
47.1300 262.0000 1.0000
47.1400 282.0000 1.0000
47.1500 255.0000 1.0000
47.1600 278.0000 1.0000
47.1700 263.0000 1.0000
47.1800 267.0000 1.0000
47.1900 255.0000 1.0000
47.2000 255.0000 1.0000
47.2100 272.0000 1.0000
47.2200 262.0000 1.0000
47.2300 286.0000 1.0000
47.2400 271.0000 1.0000
47.2500 244.0000 1.0000
47.2600 261.0000 1.0000
47.2700 274.0000 1.0000
47.2800 280.0000 1.0000
47.2900 253.0000 1.0000
47.3000 264.0000 1.0000
47.3100 265.0000 1.0000
47.3200 274.0000 1.0000
47.3300 276.0000 1.0000
47.3400 290.0000 1.0000
47.3500 263.0000 1.0000
47.3600 262.0000 1.0000
47.3700 273.0000 1.0000
47.3800 265.0000 1.0000
47.3900 299.0000 1.0000
47.4000 278.0000 1.0000
47.4100 274.0000 1.0000
47.4200 230.0000 1.0000
47.4300 261.0000 1.0000
47.4400 268.0000 1.0000
47.4500 235.0000 1.0000
47.4600 263.0000 1.0000
47.4700 288.0000 1.0000
47.4800 263.0000 1.0000
47.4900 273.0000 1.0000
47.5000 262.0000 1.0000
47.5100 278.0000 1.0000
47.5200 281.0000 1.0000
47.5300 291.0000 1.0000
47.5400 281.0000 1.0000
47.5500 259.0000 1.0000
47.5600 261.0000 1.0000
47.5700 273.0000 1.0000
47.5800 268.0000 1.0000
47.5900 267.0000 1.0000
47.6000 256.0000 1.0000
47.6100 275.0000 1.0000
47.6200 277.0000 1.0000
47.6300 272.0000 1.0000
47.6400 276.0000 1.0000
47.6500 256.0000 1.0000
47.6600 288.0000 1.0000
47.6700 269.0000 1.0000
47.6800 287.0000 1.0000
47.6900 254.0000 1.0000
47.7000 251.0000 1.0000
47.7100 272.0000 1.0000
47.7200 294.0000 1.0000
47.7300 232.0000 1.0000
47.7400 248.0000 1.0000
47.7500 263.0000 1.0000
47.7600 263.0000 1.0000
47.7700 268.0000 1.0000
47.7800 260.0000 1.0000
47.7900 263.0000 1.0000
47.8000 244.0000 1.0000
47.8100 300.0000 1.0000
47.8200 289.0000 1.0000
47.8300 294.0000 1.0000
47.8400 292.0000 1.0000
47.8500 239.0000 1.0000
47.8600 266.0000 1.0000
47.8700 254.0000 1.0000
47.8800 246.0000 1.0000
47.8900 252.0000 1.0000
47.9000 278.0000 1.0000
47.9100 252.0000 1.0000
47.9200 283.0000 1.0000
47.9300 269.0000 1.0000
47.9400 269.0000 1.0000
47.9500 261.0000 1.0000
47.9600 274.0000 1.0000
47.9700 266.0000 1.0000
47.9800 284.0000 1.0000
47.9900 286.0000 1.0000
48.0000 277.0000 1.0000
48.0100 288.0000 1.0000
48.0200 267.0000 1.0000
48.0300 278.0000 1.0000
48.0400 275.0000 1.0000
48.0500 272.0000 1.0000
48.0600 265.0000 1.0000
48.0700 282.0000 1.0000
48.0800 276.0000 1.0000
48.0900 250.0000 1.0000
48.1000 268.0000 1.0000
48.1100 269.0000 1.0000
48.1200 257.0000 1.0000
48.1300 245.0000 1.0000
48.1400 266.0000 1.0000
48.1500 264.0000 1.0000
48.1600 252.0000 1.0000
48.1700 264.0000 1.0000
48.1800 285.0000 1.0000
48.1900 245.0000 1.0000
48.2000 280.0000 1.0000
48.2100 276.0000 1.0000
48.2200 283.0000 1.0000
48.2300 282.0000 1.0000
48.2400 255.0000 1.0000
48.2500 261.0000 1.0000
48.2600 265.0000 1.0000
48.2700 271.0000 1.0000
48.2800 277.0000 1.0000
48.2900 272.0000 1.0000
48.3000 279.0000 1.0000
48.3100 263.0000 1.0000
48.3200 265.0000 1.0000
48.3300 266.0000 1.0000
48.3400 261.0000 1.0000
48.3500 247.0000 1.0000
48.3600 280.0000 1.0000
48.3700 267.0000 1.0000
48.3800 275.0000 1.0000
48.3900 265.0000 1.0000
48.4000 275.0000 1.0000
48.4100 235.0000 1.0000
48.4200 265.0000 1.0000
48.4300 238.0000 1.0000
48.4400 254.0000 1.0000
48.4500 254.0000 1.0000
48.4600 270.0000 1.0000
48.4700 267.0000 1.0000
48.4800 235.0000 1.0000
48.4900 258.0000 1.0000
48.5000 259.0000 1.0000
48.5100 254.0000 1.0000
48.5200 268.0000 1.0000
48.5300 259.0000 1.0000
48.5400 277.0000 1.0000
48.5500 259.0000 1.0000
48.5600 230.0000 1.0000
48.5700 238.0000 1.0000
48.5800 266.0000 1.0000
48.5900 262.0000 1.0000
48.6000 264.0000 1.0000
48.6100 270.0000 1.0000
48.6200 280.0000 1.0000
48.6300 285.0000 1.0000
48.6400 263.0000 1.0000
48.6500 290.0000 1.0000
48.6600 273.0000 1.0000
48.6700 260.0000 1.0000
48.6800 244.0000 1.0000
48.6900 266.0000 1.0000
48.7000 266.0000 1.0000
48.7100 258.0000 1.0000
48.7200 257.0000 1.0000
48.7300 250.0000 1.0000
48.7400 279.0000 1.0000
48.7500 267.0000 1.0000
48.7600 254.0000 1.0000
48.7700 254.0000 1.0000
48.7800 263.0000 1.0000
48.7900 250.0000 1.0000
48.8000 256.0000 1.0000
48.8100 272.0000 1.0000
48.8200 255.0000 1.0000
48.8300 277.0000 1.0000
48.8400 273.0000 1.0000
48.8500 285.0000 1.0000
48.8600 248.0000 1.0000
48.8700 277.0000 1.0000
48.8800 260.0000 1.0000
48.8900 264.0000 1.0000
48.9000 270.0000 1.0000
48.9100 275.0000 1.0000
48.9200 279.0000 1.0000
48.9300 270.0000 1.0000
48.9400 235.0000 1.0000
48.9500 266.0000 1.0000
48.9600 279.0000 1.0000
48.9700 296.0000 1.0000
48.9800 263.0000 1.0000
48.9900 264.0000 1.0000
49.0000 278.0000 1.0000
49.0100 264.0000 1.0000
49.0200 263.0000 1.0000
49.0300 238.0000 1.0000
49.0400 274.0000 1.0000
49.0500 280.0000 1.0000
49.0600 273.0000 1.0000
49.0700 274.0000 1.0000
49.0800 257.0000 1.0000
49.0900 268.0000 1.0000
49.1000 258.0000 1.0000
49.1100 247.0000 1.0000
49.1200 272.0000 1.0000
49.1300 258.0000 1.0000
49.1400 290.0000 1.0000
49.1500 295.0000 1.0000
49.1600 265.0000 1.0000
49.1700 275.0000 1.0000
49.1800 297.0000 1.0000
49.1900 294.0000 1.0000
49.2000 284.0000 1.0000
49.2100 269.0000 1.0000
49.2200 281.0000 1.0000
49.2300 258.0000 1.0000
49.2400 275.0000 1.0000
49.2500 269.0000 1.0000
49.2600 275.0000 1.0000
49.2700 268.0000 1.0000
49.2800 286.0000 1.0000
49.2900 285.0000 1.0000
49.3000 299.0000 1.0000
49.3100 324.0000 1.0000
49.3200 297.0000 1.0000
49.3300 283.0000 1.0000
49.3400 266.0000 1.0000
49.3500 279.0000 1.0000
49.3600 289.0000 1.0000
49.3700 318.0000 1.0000
49.3800 321.0000 1.0000
49.3900 306.0000 1.0000
49.4000 304.0000 1.0000
49.4100 333.0000 1.0000
49.4200 276.0000 1.0000
49.4300 292.0000 1.0000
49.4400 331.0000 1.0000
49.4500 303.0000 1.0000
49.4600 298.0000 1.0000
49.4700 301.0000 1.0000
49.4800 309.0000 1.0000
49.4900 308.0000 1.0000
49.5000 299.0000 1.0000
49.5100 317.0000 1.0000
49.5200 302.0000 1.0000
49.5300 323.0000 1.0000
49.5400 300.0000 1.0000
49.5500 326.0000 1.0000
49.5600 297.0000 1.0000
49.5700 292.0000 1.0000
49.5800 283.0000 1.0000
49.5900 278.0000 1.0000
49.6000 280.0000 1.0000
49.6100 272.0000 1.0000
49.6200 290.0000 1.0000
49.6300 269.0000 1.0000
49.6400 290.0000 1.0000
49.6500 271.0000 1.0000
49.6600 254.0000 1.0000
49.6700 266.0000 1.0000
49.6800 267.0000 1.0000
49.6900 268.0000 1.0000
49.7000 274.0000 1.0000
49.7100 278.0000 1.0000
49.7200 251.0000 1.0000
49.7300 251.0000 1.0000
49.7400 275.0000 1.0000
49.7500 281.0000 1.0000
49.7600 266.0000 1.0000
49.7700 267.0000 1.0000
49.7800 277.0000 1.0000
49.7900 292.0000 1.0000
49.8000 265.0000 1.0000
49.8100 259.0000 1.0000
49.8200 269.0000 1.0000
49.8300 242.0000 1.0000
49.8400 266.0000 1.0000
49.8500 258.0000 1.0000
49.8600 268.0000 1.0000
49.8700 295.0000 1.0000
49.8800 263.0000 1.0000
49.8900 253.0000 1.0000
49.9000 281.0000 1.0000
49.9100 287.0000 1.0000
49.9200 274.0000 1.0000
49.9300 254.0000 1.0000
49.9400 240.0000 1.0000
49.9500 253.0000 1.0000
49.9600 238.0000 1.0000
49.9700 265.0000 1.0000
49.9800 261.0000 1.0000
49.9900 261.0000 1.0000
50.0000 262.0000 1.0000
50.0100 241.0000 1.0000
50.0200 306.0000 1.0000
50.0300 316.0000 1.0000
50.0400 259.0000 1.0000
50.0500 272.0000 1.0000
50.0600 246.0000 1.0000
50.0700 271.0000 1.0000
50.0800 267.0000 1.0000
50.0900 261.0000 1.0000
50.1000 239.0000 1.0000
50.1100 279.0000 1.0000
50.1200 271.0000 1.0000
50.1300 278.0000 1.0000
50.1400 303.0000 1.0000
50.1500 275.0000 1.0000
50.1600 279.0000 1.0000
50.1700 278.0000 1.0000
50.1800 295.0000 1.0000
50.1900 274.0000 1.0000
50.2000 248.0000 1.0000
50.2100 246.0000 1.0000
50.2200 267.0000 1.0000
50.2300 260.0000 1.0000
50.2400 268.0000 1.0000
50.2500 269.0000 1.0000
50.2600 282.0000 1.0000
50.2700 249.0000 1.0000
50.2800 275.0000 1.0000
50.2900 281.0000 1.0000
50.3000 271.0000 1.0000
50.3100 256.0000 1.0000
50.3200 246.0000 1.0000
50.3300 258.0000 1.0000
50.3400 260.0000 1.0000
50.3500 259.0000 1.0000
50.3600 245.0000 1.0000
50.3700 275.0000 1.0000
50.3800 278.0000 1.0000
50.3900 239.0000 1.0000
50.4000 258.0000 1.0000
50.4100 254.0000 1.0000
50.4200 266.0000 1.0000
50.4300 270.0000 1.0000
50.4400 252.0000 1.0000
50.4500 261.0000 1.0000
50.4600 263.0000 1.0000
50.4700 260.0000 1.0000
50.4800 278.0000 1.0000
50.4900 275.0000 1.0000
50.5000 260.0000 1.0000
50.5100 266.0000 1.0000
50.5200 266.0000 1.0000
50.5300 255.0000 1.0000
50.5400 237.0000 1.0000
50.5500 246.0000 1.0000
50.5600 276.0000 1.0000
50.5700 266.0000 1.0000
50.5800 267.0000 1.0000
50.5900 262.0000 1.0000
50.6000 284.0000 1.0000
50.6100 259.0000 1.0000
50.6200 253.0000 1.0000
50.6300 239.0000 1.0000
50.6400 242.0000 1.0000
50.6500 250.0000 1.0000
50.6600 271.0000 1.0000
50.6700 281.0000 1.0000
50.6800 261.0000 1.0000
50.6900 270.0000 1.0000
50.7000 280.0000 1.0000
50.7100 303.0000 1.0000
50.7200 265.0000 1.0000
50.7300 254.0000 1.0000
50.7400 271.0000 1.0000
50.7500 260.0000 1.0000
50.7600 256.0000 1.0000
50.7700 268.0000 1.0000
50.7800 272.0000 1.0000
50.7900 285.0000 1.0000
50.8000 254.0000 1.0000
50.8100 286.0000 1.0000
50.8200 276.0000 1.0000
50.8300 261.0000 1.0000
50.8400 275.0000 1.0000
50.8500 265.0000 1.0000
50.8600 267.0000 1.0000
50.8700 252.0000 1.0000
50.8800 279.0000 1.0000
50.8900 289.0000 1.0000
50.9000 281.0000 1.0000
50.9100 268.0000 1.0000
50.9200 279.0000 1.0000
50.9300 267.0000 1.0000
50.9400 274.0000 1.0000
50.9500 292.0000 1.0000
50.9600 286.0000 1.0000
50.9700 272.0000 1.0000
50.9800 297.0000 1.0000
50.9900 283.0000 1.0000
51.0000 256.0000 1.0000
51.0100 301.0000 1.0000
51.0200 290.0000 1.0000
51.0300 309.0000 1.0000
51.0400 311.0000 1.0000
51.0500 293.0000 1.0000
51.0600 289.0000 1.0000
51.0700 297.0000 1.0000
51.0800 302.0000 1.0000
51.0900 284.0000 1.0000
51.1000 273.0000 1.0000
51.1100 276.0000 1.0000
51.1200 293.0000 1.0000
51.1300 295.0000 1.0000
51.1400 312.0000 1.0000
51.1500 322.0000 1.0000
51.1600 331.0000 1.0000
51.1700 319.0000 1.0000
51.1800 342.0000 1.0000
51.1900 320.0000 1.0000
51.2000 355.0000 1.0000
51.2100 385.0000 1.0000
51.2200 354.0000 1.0000
51.2300 362.0000 1.0000
51.2400 376.0000 1.0000
51.2500 404.0000 1.0000
51.2600 413.0000 1.0000
51.2700 383.0000 1.0000
51.2800 423.0000 1.0000
51.2900 432.0000 1.0000
51.3000 423.0000 1.0000
51.3100 430.0000 1.0000
51.3200 467.0000 1.0000
51.3300 504.0000 1.0000
51.3400 546.0000 1.0000
51.3500 551.0000 1.0000
51.3600 559.0000 1.0000
51.3700 645.0000 1.0000
51.3800 672.0000 1.0000
51.3900 728.0000 1.0000
51.4000 770.0000 1.0000
51.4100 729.0000 1.0000
51.4200 808.0000 1.0000
51.4300 797.0000 1.0000
51.4400 784.0000 1.0000
51.4500 864.0000 1.0000
51.4600 841.0000 1.0000
51.4700 883.0000 1.0000
51.4800 865.0000 1.0000
51.4900 869.0000 1.0000
51.5000 877.0000 1.0000
51.5100 768.0000 1.0000
51.5200 869.0000 1.0000
51.5300 847.0000 1.0000
51.5400 781.0000 1.0000
51.5500 771.0000 1.0000
51.5600 752.0000 1.0000
51.5700 821.0000 1.0000
51.5800 731.0000 1.0000
51.5900 721.0000 1.0000
51.6000 737.0000 1.0000
51.6100 696.0000 1.0000
51.6200 657.0000 1.0000
51.6300 665.0000 1.0000
51.6400 637.0000 1.0000
51.6500 606.0000 1.0000
51.6600 529.0000 1.0000
51.6700 546.0000 1.0000
51.6800 515.0000 1.0000
51.6900 488.0000 1.0000
51.7000 491.0000 1.0000
51.7100 470.0000 1.0000
51.7200 456.0000 1.0000
51.7300 446.0000 1.0000
51.7400 427.0000 1.0000
51.7500 416.0000 1.0000
51.7600 398.0000 1.0000
51.7700 389.0000 1.0000
51.7800 391.0000 1.0000
51.7900 357.0000 1.0000
51.8000 350.0000 1.0000
51.8100 367.0000 1.0000
51.8200 349.0000 1.0000
51.8300 336.0000 1.0000
51.8400 353.0000 1.0000
51.8500 325.0000 1.0000
51.8600 332.0000 1.0000
51.8700 306.0000 1.0000
51.8800 328.0000 1.0000
51.8900 310.0000 1.0000
51.9000 324.0000 1.0000
51.9100 318.0000 1.0000
51.9200 283.0000 1.0000
51.9300 318.0000 1.0000
51.9400 305.0000 1.0000
51.9500 291.0000 1.0000
51.9600 299.0000 1.0000
51.9700 292.0000 1.0000
51.9800 313.0000 1.0000
51.9900 262.0000 1.0000
52.0000 285.0000 1.0000
52.0100 269.0000 1.0000
52.0200 304.0000 1.0000
52.0300 305.0000 1.0000
52.0400 283.0000 1.0000
52.0500 298.0000 1.0000
52.0600 287.0000 1.0000
52.0700 277.0000 1.0000
52.0800 309.0000 1.0000
52.0900 289.0000 1.0000
52.1000 266.0000 1.0000
52.1100 267.0000 1.0000
52.1200 270.0000 1.0000
52.1300 263.0000 1.0000
52.1400 257.0000 1.0000
52.1500 280.0000 1.0000
52.1600 290.0000 1.0000
52.1700 290.0000 1.0000
52.1800 262.0000 1.0000
52.1900 280.0000 1.0000
52.2000 286.0000 1.0000
52.2100 276.0000 1.0000
52.2200 286.0000 1.0000
52.2300 327.0000 1.0000
52.2400 273.0000 1.0000
52.2500 274.0000 1.0000
52.2600 265.0000 1.0000
52.2700 282.0000 1.0000
52.2800 285.0000 1.0000
52.2900 245.0000 1.0000
52.3000 266.0000 1.0000
52.3100 264.0000 1.0000
52.3200 292.0000 1.0000
52.3300 282.0000 1.0000
52.3400 255.0000 1.0000
52.3500 280.0000 1.0000
52.3600 280.0000 1.0000
52.3700 252.0000 1.0000
52.3800 250.0000 1.0000
52.3900 281.0000 1.0000
52.4000 237.0000 1.0000
52.4100 237.0000 1.0000
52.4200 240.0000 1.0000
52.4300 286.0000 1.0000
52.4400 261.0000 1.0000
52.4500 250.0000 1.0000
52.4600 232.0000 1.0000
52.4700 232.0000 1.0000
52.4800 264.0000 1.0000
52.4900 268.0000 1.0000
52.5000 268.0000 1.0000
52.5100 271.0000 1.0000
52.5200 276.0000 1.0000
52.5300 269.0000 1.0000
52.5400 262.0000 1.0000
52.5500 282.0000 1.0000
52.5600 242.0000 1.0000
52.5700 253.0000 1.0000
52.5800 252.0000 1.0000
52.5900 261.0000 1.0000
52.6000 228.0000 1.0000
52.6100 265.0000 1.0000
52.6200 247.0000 1.0000
52.6300 278.0000 1.0000
52.6400 240.0000 1.0000
52.6500 251.0000 1.0000
52.6600 254.0000 1.0000
52.6700 261.0000 1.0000
52.6800 252.0000 1.0000
52.6900 281.0000 1.0000
52.7000 260.0000 1.0000
52.7100 271.0000 1.0000
52.7200 258.0000 1.0000
52.7300 251.0000 1.0000
52.7400 268.0000 1.0000
52.7500 247.0000 1.0000
52.7600 241.0000 1.0000
52.7700 255.0000 1.0000
52.7800 261.0000 1.0000
52.7900 242.0000 1.0000
52.8000 253.0000 1.0000
52.8100 274.0000 1.0000
52.8200 277.0000 1.0000
52.8300 252.0000 1.0000
52.8400 262.0000 1.0000
52.8500 236.0000 1.0000
52.8600 255.0000 1.0000
52.8700 249.0000 1.0000
52.8800 264.0000 1.0000
52.8900 259.0000 1.0000
52.9000 265.0000 1.0000
52.9100 240.0000 1.0000
52.9200 254.0000 1.0000
52.9300 273.0000 1.0000
52.9400 221.0000 1.0000
52.9500 251.0000 1.0000
52.9600 245.0000 1.0000
52.9700 248.0000 1.0000
52.9800 251.0000 1.0000
52.9900 239.0000 1.0000
53.0000 260.0000 1.0000
53.0100 253.0000 1.0000
53.0200 257.0000 1.0000
53.0300 242.0000 1.0000
53.0400 263.0000 1.0000
53.0500 250.0000 1.0000
53.0600 252.0000 1.0000
53.0700 263.0000 1.0000
53.0800 268.0000 1.0000
53.0900 289.0000 1.0000
53.1000 283.0000 1.0000
53.1100 247.0000 1.0000
53.1200 247.0000 1.0000
53.1300 235.0000 1.0000
53.1400 259.0000 1.0000
53.1500 275.0000 1.0000
53.1600 242.0000 1.0000
53.1700 256.0000 1.0000
53.1800 261.0000 1.0000
53.1900 272.0000 1.0000
53.2000 249.0000 1.0000
53.2100 267.0000 1.0000
53.2200 237.0000 1.0000
53.2300 258.0000 1.0000
53.2400 253.0000 1.0000
53.2500 259.0000 1.0000
53.2600 262.0000 1.0000
53.2700 243.0000 1.0000
53.2800 243.0000 1.0000
53.2900 264.0000 1.0000
53.3000 261.0000 1.0000
53.3100 262.0000 1.0000
53.3200 235.0000 1.0000
53.3300 254.0000 1.0000
53.3400 228.0000 1.0000
53.3500 232.0000 1.0000
53.3600 254.0000 1.0000
53.3700 258.0000 1.0000
53.3800 235.0000 1.0000
53.3900 245.0000 1.0000
53.4000 262.0000 1.0000
53.4100 245.0000 1.0000
53.4200 262.0000 1.0000
53.4300 262.0000 1.0000
53.4400 255.0000 1.0000
53.4500 234.0000 1.0000
53.4600 264.0000 1.0000
53.4700 267.0000 1.0000
53.4800 252.0000 1.0000
53.4900 254.0000 1.0000
53.5000 243.0000 1.0000
53.5100 252.0000 1.0000
53.5200 228.0000 1.0000
53.5300 258.0000 1.0000
53.5400 258.0000 1.0000
53.5500 256.0000 1.0000
53.5600 254.0000 1.0000
53.5700 241.0000 1.0000
53.5800 244.0000 1.0000
53.5900 255.0000 1.0000
53.6000 249.0000 1.0000
53.6100 259.0000 1.0000
53.6200 264.0000 1.0000
53.6300 274.0000 1.0000
53.6400 239.0000 1.0000
53.6500 253.0000 1.0000
53.6600 238.0000 1.0000
53.6700 241.0000 1.0000
53.6800 218.0000 1.0000
53.6900 276.0000 1.0000
53.7000 265.0000 1.0000
53.7100 271.0000 1.0000
53.7200 277.0000 1.0000
53.7300 247.0000 1.0000
53.7400 232.0000 1.0000
53.7500 253.0000 1.0000
53.7600 259.0000 1.0000
53.7700 246.0000 1.0000
53.7800 260.0000 1.0000
53.7900 265.0000 1.0000
53.8000 270.0000 1.0000
53.8100 252.0000 1.0000
53.8200 249.0000 1.0000
53.8300 289.0000 1.0000
53.8400 299.0000 1.0000
53.8500 282.0000 1.0000
53.8600 261.0000 1.0000
53.8700 251.0000 1.0000
53.8800 253.0000 1.0000
53.8900 280.0000 1.0000
53.9000 287.0000 1.0000
53.9100 256.0000 1.0000
53.9200 288.0000 1.0000
53.9300 281.0000 1.0000
53.9400 286.0000 1.0000
53.9500 289.0000 1.0000
53.9600 261.0000 1.0000
53.9700 260.0000 1.0000
53.9800 276.0000 1.0000
53.9900 300.0000 1.0000
54.0000 279.0000 1.0000
54.0100 265.0000 1.0000
54.0200 282.0000 1.0000
54.0300 264.0000 1.0000
54.0400 270.0000 1.0000
54.0500 263.0000 1.0000
54.0600 253.0000 1.0000
54.0700 278.0000 1.0000
54.0800 279.0000 1.0000
54.0900 297.0000 1.0000
54.1000 272.0000 1.0000
54.1100 294.0000 1.0000
54.1200 288.0000 1.0000
54.1300 288.0000 1.0000
54.1400 313.0000 1.0000
54.1500 300.0000 1.0000
54.1600 275.0000 1.0000
54.1700 274.0000 1.0000
54.1800 237.0000 1.0000
54.1900 261.0000 1.0000
54.2000 297.0000 1.0000
54.2100 281.0000 1.0000
54.2200 273.0000 1.0000
54.2300 255.0000 1.0000
54.2400 257.0000 1.0000
54.2500 289.0000 1.0000
54.2600 302.0000 1.0000
54.2700 285.0000 1.0000
54.2800 285.0000 1.0000
54.2900 293.0000 1.0000
54.3000 289.0000 1.0000
54.3100 287.0000 1.0000
54.3200 279.0000 1.0000
54.3300 264.0000 1.0000
54.3400 283.0000 1.0000
54.3500 289.0000 1.0000
54.3600 284.0000 1.0000
54.3700 296.0000 1.0000
54.3800 319.0000 1.0000
54.3900 314.0000 1.0000
54.4000 286.0000 1.0000
54.4100 289.0000 1.0000
54.4200 298.0000 1.0000
54.4300 305.0000 1.0000
54.4400 307.0000 1.0000
54.4500 300.0000 1.0000
54.4600 284.0000 1.0000
54.4700 286.0000 1.0000
54.4800 296.0000 1.0000
54.4900 317.0000 1.0000
54.5000 299.0000 1.0000
54.5100 303.0000 1.0000
54.5200 299.0000 1.0000
54.5300 281.0000 1.0000
54.5400 293.0000 1.0000
54.5500 303.0000 1.0000
54.5600 342.0000 1.0000
54.5700 309.0000 1.0000
54.5800 303.0000 1.0000
54.5900 326.0000 1.0000
54.6000 306.0000 1.0000
54.6100 309.0000 1.0000
54.6200 288.0000 1.0000
54.6300 315.0000 1.0000
54.6400 327.0000 1.0000
54.6500 329.0000 1.0000
54.6600 315.0000 1.0000
54.6700 316.0000 1.0000
54.6800 267.0000 1.0000
54.6900 298.0000 1.0000
54.7000 271.0000 1.0000
54.7100 284.0000 1.0000
54.7200 296.0000 1.0000
54.7300 293.0000 1.0000
54.7400 295.0000 1.0000
54.7500 271.0000 1.0000
54.7600 283.0000 1.0000
54.7700 300.0000 1.0000
54.7800 290.0000 1.0000
54.7900 264.0000 1.0000
54.8000 259.0000 1.0000
54.8100 282.0000 1.0000
54.8200 278.0000 1.0000
54.8300 250.0000 1.0000
54.8400 276.0000 1.0000
54.8500 265.0000 1.0000
54.8600 269.0000 1.0000
54.8700 263.0000 1.0000
54.8800 247.0000 1.0000
54.8900 257.0000 1.0000
54.9000 275.0000 1.0000
54.9100 238.0000 1.0000
54.9200 268.0000 1.0000
54.9300 257.0000 1.0000
54.9400 273.0000 1.0000
54.9500 256.0000 1.0000
54.9600 270.0000 1.0000
54.9700 242.0000 1.0000
54.9800 237.0000 1.0000
54.9900 246.0000 1.0000
55.0000 275.0000 1.0000
55.0100 270.0000 1.0000
55.0200 247.0000 1.0000
55.0300 249.0000 1.0000
55.0400 251.0000 1.0000
55.0500 258.0000 1.0000
55.0600 244.0000 1.0000
55.0700 272.0000 1.0000
55.0800 236.0000 1.0000
55.0900 250.0000 1.0000
55.1000 265.0000 1.0000
55.1100 280.0000 1.0000
55.1200 223.0000 1.0000
55.1300 226.0000 1.0000
55.1400 226.0000 1.0000
55.1500 235.0000 1.0000
55.1600 238.0000 1.0000
55.1700 246.0000 1.0000
55.1800 261.0000 1.0000
55.1900 271.0000 1.0000
55.2000 248.0000 1.0000
55.2100 282.0000 1.0000
55.2200 257.0000 1.0000
55.2300 252.0000 1.0000
55.2400 224.0000 1.0000
55.2500 255.0000 1.0000
55.2600 265.0000 1.0000
55.2700 246.0000 1.0000
55.2800 260.0000 1.0000
55.2900 258.0000 1.0000
55.3000 248.0000 1.0000
55.3100 245.0000 1.0000
55.3200 259.0000 1.0000
55.3300 253.0000 1.0000
55.3400 215.0000 1.0000
55.3500 236.0000 1.0000
55.3600 250.0000 1.0000
55.3700 248.0000 1.0000
55.3800 259.0000 1.0000
55.3900 247.0000 1.0000
55.4000 237.0000 1.0000
55.4100 254.0000 1.0000
55.4200 269.0000 1.0000
55.4300 253.0000 1.0000
55.4400 252.0000 1.0000
55.4500 253.0000 1.0000
55.4600 240.0000 1.0000
55.4700 242.0000 1.0000
55.4800 229.0000 1.0000
55.4900 246.0000 1.0000
55.5000 277.0000 1.0000
55.5100 278.0000 1.0000
55.5200 239.0000 1.0000
55.5300 225.0000 1.0000
55.5400 226.0000 1.0000
55.5500 224.0000 1.0000
55.5600 214.0000 1.0000
55.5700 259.0000 1.0000
55.5800 240.0000 1.0000
55.5900 246.0000 1.0000
55.6000 247.0000 1.0000
55.6100 263.0000 1.0000
55.6200 242.0000 1.0000
55.6300 259.0000 1.0000
55.6400 246.0000 1.0000
55.6500 245.0000 1.0000
55.6600 251.0000 1.0000
55.6700 264.0000 1.0000
55.6800 266.0000 1.0000
55.6900 251.0000 1.0000
55.7000 234.0000 1.0000
55.7100 233.0000 1.0000
55.7200 241.0000 1.0000
55.7300 225.0000 1.0000
55.7400 226.0000 1.0000
55.7500 236.0000 1.0000
55.7600 245.0000 1.0000
55.7700 227.0000 1.0000
55.7800 249.0000 1.0000
55.7900 209.0000 1.0000
55.8000 233.0000 1.0000
55.8100 236.0000 1.0000
55.8200 261.0000 1.0000
55.8300 239.0000 1.0000
55.8400 264.0000 1.0000
55.8500 247.0000 1.0000
55.8600 244.0000 1.0000
55.8700 251.0000 1.0000
55.8800 255.0000 1.0000
55.8900 253.0000 1.0000
55.9000 258.0000 1.0000
55.9100 215.0000 1.0000
55.9200 225.0000 1.0000
55.9300 245.0000 1.0000
55.9400 228.0000 1.0000
55.9500 251.0000 1.0000
55.9600 256.0000 1.0000
55.9700 256.0000 1.0000
55.9800 224.0000 1.0000
55.9900 234.0000 1.0000
56.0000 271.0000 1.0000
56.0100 255.0000 1.0000
56.0200 251.0000 1.0000
56.0300 265.0000 1.0000
56.0400 230.0000 1.0000
56.0500 252.0000 1.0000
56.0600 236.0000 1.0000
56.0700 256.0000 1.0000
56.0800 238.0000 1.0000
56.0900 252.0000 1.0000
56.1000 245.0000 1.0000
56.1100 244.0000 1.0000
56.1200 240.0000 1.0000
56.1300 245.0000 1.0000
56.1400 237.0000 1.0000
56.1500 261.0000 1.0000
56.1600 267.0000 1.0000
56.1700 233.0000 1.0000
56.1800 249.0000 1.0000
56.1900 240.0000 1.0000
56.2000 250.0000 1.0000
56.2100 253.0000 1.0000
56.2200 259.0000 1.0000
56.2300 243.0000 1.0000
56.2400 214.0000 1.0000
56.2500 236.0000 1.0000
56.2600 240.0000 1.0000
56.2700 223.0000 1.0000
56.2800 239.0000 1.0000
56.2900 251.0000 1.0000
56.3000 230.0000 1.0000
56.3100 215.0000 1.0000
56.3200 230.0000 1.0000
56.3300 241.0000 1.0000
56.3400 247.0000 1.0000
56.3500 250.0000 1.0000
56.3600 226.0000 1.0000
56.3700 244.0000 1.0000
56.3800 248.0000 1.0000
56.3900 232.0000 1.0000
56.4000 233.0000 1.0000
56.4100 225.0000 1.0000
56.4200 233.0000 1.0000
56.4300 215.0000 1.0000
56.4400 238.0000 1.0000
56.4500 229.0000 1.0000
56.4600 235.0000 1.0000
56.4700 239.0000 1.0000
56.4800 244.0000 1.0000
56.4900 245.0000 1.0000
56.5000 252.0000 1.0000
56.5100 262.0000 1.0000
56.5200 258.0000 1.0000
56.5300 220.0000 1.0000
56.5400 247.0000 1.0000
56.5500 246.0000 1.0000
56.5600 242.0000 1.0000
56.5700 272.0000 1.0000
56.5800 247.0000 1.0000
56.5900 212.0000 1.0000
56.6000 238.0000 1.0000
56.6100 234.0000 1.0000
56.6200 253.0000 1.0000
56.6300 237.0000 1.0000
56.6400 257.0000 1.0000
56.6500 215.0000 1.0000
56.6600 227.0000 1.0000
56.6700 234.0000 1.0000
56.6800 225.0000 1.0000
56.6900 229.0000 1.0000
56.7000 239.0000 1.0000
56.7100 228.0000 1.0000
56.7200 251.0000 1.0000
56.7300 242.0000 1.0000
56.7400 229.0000 1.0000
56.7500 238.0000 1.0000
56.7600 250.0000 1.0000
56.7700 266.0000 1.0000
56.7800 236.0000 1.0000
56.7900 259.0000 1.0000
56.8000 220.0000 1.0000
56.8100 244.0000 1.0000
56.8200 255.0000 1.0000
56.8300 217.0000 1.0000
56.8400 236.0000 1.0000
56.8500 232.0000 1.0000
56.8600 237.0000 1.0000
56.8700 268.0000 1.0000
56.8800 231.0000 1.0000
56.8900 244.0000 1.0000
56.9000 249.0000 1.0000
56.9100 228.0000 1.0000
56.9200 235.0000 1.0000
56.9300 223.0000 1.0000
56.9400 235.0000 1.0000
56.9500 231.0000 1.0000
56.9600 236.0000 1.0000
56.9700 224.0000 1.0000
56.9800 223.0000 1.0000
56.9900 227.0000 1.0000
57.0000 232.0000 1.0000
57.0100 220.0000 1.0000
57.0200 230.0000 1.0000
57.0300 221.0000 1.0000
57.0400 229.0000 1.0000
57.0500 229.0000 1.0000
57.0600 213.0000 1.0000
57.0700 231.0000 1.0000
57.0800 235.0000 1.0000
57.0900 239.0000 1.0000
57.1000 261.0000 1.0000
57.1100 244.0000 1.0000
57.1200 249.0000 1.0000
57.1300 244.0000 1.0000
57.1400 240.0000 1.0000
57.1500 253.0000 1.0000
57.1600 246.0000 1.0000
57.1700 258.0000 1.0000
57.1800 244.0000 1.0000
57.1900 217.0000 1.0000
57.2000 252.0000 1.0000
57.2100 230.0000 1.0000
57.2200 204.0000 1.0000
57.2300 230.0000 1.0000
57.2400 231.0000 1.0000
57.2500 250.0000 1.0000
57.2600 246.0000 1.0000
57.2700 260.0000 1.0000
57.2800 274.0000 1.0000
57.2900 233.0000 1.0000
57.3000 271.0000 1.0000
57.3100 241.0000 1.0000
57.3200 272.0000 1.0000
57.3300 249.0000 1.0000
57.3400 243.0000 1.0000
57.3500 227.0000 1.0000
57.3600 240.0000 1.0000
57.3700 237.0000 1.0000
57.3800 246.0000 1.0000
57.3900 261.0000 1.0000
57.4000 252.0000 1.0000
57.4100 278.0000 1.0000
57.4200 256.0000 1.0000
57.4300 251.0000 1.0000
57.4400 271.0000 1.0000
57.4500 235.0000 1.0000
57.4600 231.0000 1.0000
57.4700 237.0000 1.0000
57.4800 253.0000 1.0000
57.4900 251.0000 1.0000
57.5000 239.0000 1.0000
57.5100 249.0000 1.0000
57.5200 256.0000 1.0000
57.5300 266.0000 1.0000
57.5400 253.0000 1.0000
57.5500 242.0000 1.0000
57.5600 242.0000 1.0000
57.5700 239.0000 1.0000
57.5800 274.0000 1.0000
57.5900 257.0000 1.0000
57.6000 254.0000 1.0000
57.6100 260.0000 1.0000
57.6200 263.0000 1.0000
57.6300 235.0000 1.0000
57.6400 217.0000 1.0000
57.6500 234.0000 1.0000
57.6600 236.0000 1.0000
57.6700 239.0000 1.0000
57.6800 250.0000 1.0000
57.6900 243.0000 1.0000
57.7000 228.0000 1.0000
57.7100 230.0000 1.0000
57.7200 250.0000 1.0000
57.7300 230.0000 1.0000
57.7400 239.0000 1.0000
57.7500 264.0000 1.0000
57.7600 234.0000 1.0000
57.7700 236.0000 1.0000
57.7800 244.0000 1.0000
57.7900 234.0000 1.0000
57.8000 251.0000 1.0000
57.8100 254.0000 1.0000
57.8200 232.0000 1.0000
57.8300 241.0000 1.0000
57.8400 243.0000 1.0000
57.8500 213.0000 1.0000
57.8600 236.0000 1.0000
57.8700 224.0000 1.0000
57.8800 234.0000 1.0000
57.8900 240.0000 1.0000
57.9000 237.0000 1.0000
57.9100 227.0000 1.0000
57.9200 250.0000 1.0000
57.9300 225.0000 1.0000
57.9400 249.0000 1.0000
57.9500 266.0000 1.0000
57.9600 238.0000 1.0000
57.9700 239.0000 1.0000
57.9800 224.0000 1.0000
57.9900 228.0000 1.0000
58.0000 251.0000 1.0000
58.0100 239.0000 1.0000
58.0200 237.0000 1.0000
58.0300 242.0000 1.0000
58.0400 235.0000 1.0000
58.0500 236.0000 1.0000
58.0600 252.0000 1.0000
58.0700 234.0000 1.0000
58.0800 244.0000 1.0000
58.0900 238.0000 1.0000
58.1000 230.0000 1.0000
58.1100 241.0000 1.0000
58.1200 238.0000 1.0000
58.1300 234.0000 1.0000
58.1400 227.0000 1.0000
58.1500 215.0000 1.0000
58.1600 229.0000 1.0000
58.1700 231.0000 1.0000
58.1800 244.0000 1.0000
58.1900 213.0000 1.0000
58.2000 252.0000 1.0000
58.2100 260.0000 1.0000
58.2200 236.0000 1.0000
58.2300 250.0000 1.0000
58.2400 233.0000 1.0000
58.2500 259.0000 1.0000
58.2600 213.0000 1.0000
58.2700 223.0000 1.0000
58.2800 229.0000 1.0000
58.2900 241.0000 1.0000
58.3000 234.0000 1.0000
58.3100 229.0000 1.0000
58.3200 222.0000 1.0000
58.3300 243.0000 1.0000
58.3400 236.0000 1.0000
58.3500 239.0000 1.0000
58.3600 257.0000 1.0000
58.3700 245.0000 1.0000
58.3800 237.0000 1.0000
58.3900 239.0000 1.0000
58.4000 256.0000 1.0000
58.4100 216.0000 1.0000
58.4200 237.0000 1.0000
58.4300 231.0000 1.0000
58.4400 238.0000 1.0000
58.4500 259.0000 1.0000
58.4600 229.0000 1.0000
58.4700 236.0000 1.0000
58.4800 228.0000 1.0000
58.4900 217.0000 1.0000
58.5000 225.0000 1.0000
58.5100 219.0000 1.0000
58.5200 273.0000 1.0000
58.5300 241.0000 1.0000
58.5400 262.0000 1.0000
58.5500 251.0000 1.0000
58.5600 249.0000 1.0000
58.5700 255.0000 1.0000
58.5800 266.0000 1.0000
58.5900 246.0000 1.0000
58.6000 232.0000 1.0000
58.6100 230.0000 1.0000
58.6200 233.0000 1.0000
58.6300 231.0000 1.0000
58.6400 238.0000 1.0000
58.6500 237.0000 1.0000
58.6600 236.0000 1.0000
58.6700 245.0000 1.0000
58.6800 261.0000 1.0000
58.6900 266.0000 1.0000
58.7000 227.0000 1.0000
58.7100 226.0000 1.0000
58.7200 234.0000 1.0000
58.7300 234.0000 1.0000
58.7400 248.0000 1.0000
58.7500 231.0000 1.0000
58.7600 244.0000 1.0000
58.7700 216.0000 1.0000
58.7800 228.0000 1.0000
58.7900 233.0000 1.0000
58.8000 247.0000 1.0000
58.8100 241.0000 1.0000
58.8200 228.0000 1.0000
58.8300 236.0000 1.0000
58.8400 225.0000 1.0000
58.8500 235.0000 1.0000
58.8600 220.0000 1.0000
58.8700 212.0000 1.0000
58.8800 229.0000 1.0000
58.8900 234.0000 1.0000
58.9000 229.0000 1.0000
58.9100 233.0000 1.0000
58.9200 237.0000 1.0000
58.9300 246.0000 1.0000
58.9400 237.0000 1.0000
58.9500 235.0000 1.0000
58.9600 226.0000 1.0000
58.9700 239.0000 1.0000
58.9800 231.0000 1.0000
58.9900 231.0000 1.0000
59.0000 238.0000 1.0000
59.0100 234.0000 1.0000
59.0200 246.0000 1.0000
59.0300 248.0000 1.0000
59.0400 247.0000 1.0000
59.0500 246.0000 1.0000
59.0600 239.0000 1.0000
59.0700 235.0000 1.0000
59.0800 221.0000 1.0000
59.0900 218.0000 1.0000
59.1000 231.0000 1.0000
59.1100 248.0000 1.0000
59.1200 255.0000 1.0000
59.1300 238.0000 1.0000
59.1400 234.0000 1.0000
59.1500 221.0000 1.0000
59.1600 239.0000 1.0000
59.1700 235.0000 1.0000
59.1800 223.0000 1.0000
59.1900 272.0000 1.0000
59.2000 232.0000 1.0000
59.2100 228.0000 1.0000
59.2200 240.0000 1.0000
59.2300 233.0000 1.0000
59.2400 254.0000 1.0000
59.2500 239.0000 1.0000
59.2600 228.0000 1.0000
59.2700 240.0000 1.0000
59.2800 211.0000 1.0000
59.2900 229.0000 1.0000
59.3000 246.0000 1.0000
59.3100 228.0000 1.0000
59.3200 263.0000 1.0000
59.3300 239.0000 1.0000
59.3400 242.0000 1.0000
59.3500 226.0000 1.0000
59.3600 237.0000 1.0000
59.3700 239.0000 1.0000
59.3800 241.0000 1.0000
59.3900 240.0000 1.0000
59.4000 247.0000 1.0000
59.4100 268.0000 1.0000
59.4200 242.0000 1.0000
59.4300 234.0000 1.0000
59.4400 206.0000 1.0000
59.4500 214.0000 1.0000
59.4600 244.0000 1.0000
59.4700 248.0000 1.0000
59.4800 255.0000 1.0000
59.4900 230.0000 1.0000
59.5000 229.0000 1.0000
59.5100 232.0000 1.0000
59.5200 235.0000 1.0000
59.5300 232.0000 1.0000
59.5400 240.0000 1.0000
59.5500 235.0000 1.0000
59.5600 244.0000 1.0000
59.5700 253.0000 1.0000
59.5800 246.0000 1.0000
59.5900 228.0000 1.0000
59.6000 218.0000 1.0000
59.6100 223.0000 1.0000
59.6200 226.0000 1.0000
59.6300 213.0000 1.0000
59.6400 243.0000 1.0000
59.6500 230.0000 1.0000
59.6600 238.0000 1.0000
59.6700 266.0000 1.0000
59.6800 249.0000 1.0000
59.6900 246.0000 1.0000
59.7000 235.0000 1.0000
59.7100 245.0000 1.0000
59.7200 237.0000 1.0000
59.7300 236.0000 1.0000
59.7400 240.0000 1.0000
59.7500 241.0000 1.0000
59.7600 261.0000 1.0000
59.7700 257.0000 1.0000
59.7800 234.0000 1.0000
59.7900 242.0000 1.0000
59.8000 224.0000 1.0000
59.8100 246.0000 1.0000
59.8200 244.0000 1.0000
59.8300 226.0000 1.0000
59.8400 229.0000 1.0000
59.8500 235.0000 1.0000
59.8600 240.0000 1.0000
59.8700 248.0000 1.0000
59.8800 233.0000 1.0000
59.8900 245.0000 1.0000
59.9000 265.0000 1.0000
59.9100 231.0000 1.0000
59.9200 229.0000 1.0000
59.9300 249.0000 1.0000
59.9400 234.0000 1.0000
59.9500 248.0000 1.0000
59.9600 212.0000 1.0000
59.9700 229.0000 1.0000
59.9800 240.0000 1.0000
59.9900 244.0000 1.0000
60.0000 246.0000 1.0000
60.0100 260.0000 1.0000
60.0200 230.0000 1.0000
60.0300 224.0000 1.0000
60.0400 233.0000 1.0000
60.0500 243.0000 1.0000
60.0600 225.0000 1.0000
60.0700 232.0000 1.0000
60.0800 232.0000 1.0000
60.0900 235.0000 1.0000
60.1000 245.0000 1.0000
60.1100 234.0000 1.0000
60.1200 214.0000 1.0000
60.1300 230.0000 1.0000
60.1400 220.0000 1.0000
60.1500 253.0000 1.0000
60.1600 241.0000 1.0000
60.1700 244.0000 1.0000
60.1800 233.0000 1.0000
60.1900 234.0000 1.0000
60.2000 245.0000 1.0000
60.2100 236.0000 1.0000
60.2200 250.0000 1.0000
60.2300 246.0000 1.0000
60.2400 249.0000 1.0000
60.2500 249.0000 1.0000
60.2600 239.0000 1.0000
60.2700 218.0000 1.0000
60.2800 237.0000 1.0000
60.2900 250.0000 1.0000
60.3000 241.0000 1.0000
60.3100 245.0000 1.0000
60.3200 238.0000 1.0000
60.3300 249.0000 1.0000
60.3400 247.0000 1.0000
60.3500 241.0000 1.0000
60.3600 220.0000 1.0000
60.3700 250.0000 1.0000
60.3800 236.0000 1.0000
60.3900 249.0000 1.0000
60.4000 270.0000 1.0000
60.4100 239.0000 1.0000
60.4200 268.0000 1.0000
60.4300 233.0000 1.0000
60.4400 241.0000 1.0000
60.4500 258.0000 1.0000
60.4600 243.0000 1.0000
60.4700 252.0000 1.0000
60.4800 244.0000 1.0000
60.4900 244.0000 1.0000
60.5000 233.0000 1.0000
60.5100 237.0000 1.0000
60.5200 238.0000 1.0000
60.5300 245.0000 1.0000
60.5400 264.0000 1.0000
60.5500 238.0000 1.0000
60.5600 240.0000 1.0000
60.5700 231.0000 1.0000
60.5800 252.0000 1.0000
60.5900 262.0000 1.0000
60.6000 234.0000 1.0000
60.6100 234.0000 1.0000
60.6200 277.0000 1.0000
60.6300 248.0000 1.0000
60.6400 254.0000 1.0000
60.6500 268.0000 1.0000
60.6600 231.0000 1.0000
60.6700 242.0000 1.0000
60.6800 241.0000 1.0000
60.6900 259.0000 1.0000
60.7000 251.0000 1.0000
60.7100 255.0000 1.0000
60.7200 236.0000 1.0000
60.7300 248.0000 1.0000
60.7400 258.0000 1.0000
60.7500 251.0000 1.0000
60.7600 269.0000 1.0000
60.7700 254.0000 1.0000
60.7800 238.0000 1.0000
60.7900 240.0000 1.0000
60.8000 234.0000 1.0000
60.8100 264.0000 1.0000
60.8200 227.0000 1.0000
60.8300 239.0000 1.0000
60.8400 239.0000 1.0000
60.8500 242.0000 1.0000
60.8600 271.0000 1.0000
60.8700 274.0000 1.0000
60.8800 230.0000 1.0000
60.8900 249.0000 1.0000
60.9000 242.0000 1.0000
60.9100 251.0000 1.0000
60.9200 235.0000 1.0000
60.9300 235.0000 1.0000
60.9400 249.0000 1.0000
60.9500 274.0000 1.0000
60.9600 247.0000 1.0000
60.9700 262.0000 1.0000
60.9800 253.0000 1.0000
60.9900 278.0000 1.0000
61.0000 250.0000 1.0000
61.0100 242.0000 1.0000
61.0200 250.0000 1.0000
61.0300 271.0000 1.0000
61.0400 262.0000 1.0000
61.0500 251.0000 1.0000
61.0600 266.0000 1.0000
61.0700 268.0000 1.0000
61.0800 261.0000 1.0000
61.0900 311.0000 1.0000
61.1000 287.0000 1.0000
61.1100 287.0000 1.0000
61.1200 287.0000 1.0000
61.1300 281.0000 1.0000
61.1400 294.0000 1.0000
61.1500 294.0000 1.0000
61.1600 258.0000 1.0000
61.1700 277.0000 1.0000
61.1800 305.0000 1.0000
61.1900 279.0000 1.0000
61.2000 301.0000 1.0000
61.2100 303.0000 1.0000
61.2200 296.0000 1.0000
61.2300 290.0000 1.0000
61.2400 322.0000 1.0000
61.2500 319.0000 1.0000
61.2600 297.0000 1.0000
61.2700 313.0000 1.0000
61.2800 328.0000 1.0000
61.2900 342.0000 1.0000
61.3000 339.0000 1.0000
61.3100 324.0000 1.0000
61.3200 387.0000 1.0000
61.3300 373.0000 1.0000
61.3400 375.0000 1.0000
61.3500 405.0000 1.0000
61.3600 403.0000 1.0000
61.3700 390.0000 1.0000
61.3800 380.0000 1.0000
61.3900 414.0000 1.0000
61.4000 419.0000 1.0000
61.4100 394.0000 1.0000
61.4200 422.0000 1.0000
61.4300 424.0000 1.0000
61.4400 457.0000 1.0000
61.4500 515.0000 1.0000
61.4600 477.0000 1.0000
61.4700 476.0000 1.0000
61.4800 432.0000 1.0000
61.4900 485.0000 1.0000
61.5000 522.0000 1.0000
61.5100 509.0000 1.0000
61.5200 477.0000 1.0000
61.5300 513.0000 1.0000
61.5400 535.0000 1.0000
61.5500 549.0000 1.0000
61.5600 558.0000 1.0000
61.5700 493.0000 1.0000
61.5800 541.0000 1.0000
61.5900 503.0000 1.0000
61.6000 491.0000 1.0000
61.6100 513.0000 1.0000
61.6200 512.0000 1.0000
61.6300 497.0000 1.0000
61.6400 483.0000 1.0000
61.6500 524.0000 1.0000
61.6600 515.0000 1.0000
61.6700 487.0000 1.0000
61.6800 489.0000 1.0000
61.6900 446.0000 1.0000
61.7000 494.0000 1.0000
61.7100 479.0000 1.0000
61.7200 502.0000 1.0000
61.7300 436.0000 1.0000
61.7400 453.0000 1.0000
61.7500 461.0000 1.0000
61.7600 445.0000 1.0000
61.7700 445.0000 1.0000
61.7800 419.0000 1.0000
61.7900 421.0000 1.0000
61.8000 443.0000 1.0000
61.8100 442.0000 1.0000
61.8200 406.0000 1.0000
61.8300 360.0000 1.0000
61.8400 401.0000 1.0000
61.8500 387.0000 1.0000
61.8600 404.0000 1.0000
61.8700 352.0000 1.0000
61.8800 381.0000 1.0000
61.8900 392.0000 1.0000
61.9000 338.0000 1.0000
61.9100 348.0000 1.0000
61.9200 328.0000 1.0000
61.9300 322.0000 1.0000
61.9400 345.0000 1.0000
61.9500 341.0000 1.0000
61.9600 320.0000 1.0000
61.9700 341.0000 1.0000
61.9800 347.0000 1.0000
61.9900 296.0000 1.0000
62.0000 314.0000 1.0000
62.0100 314.0000 1.0000
62.0200 306.0000 1.0000
62.0300 297.0000 1.0000
62.0400 291.0000 1.0000
62.0500 301.0000 1.0000
62.0600 282.0000 1.0000
62.0700 278.0000 1.0000
62.0800 295.0000 1.0000
62.0900 301.0000 1.0000
62.1000 295.0000 1.0000
62.1100 289.0000 1.0000
62.1200 266.0000 1.0000
62.1300 278.0000 1.0000
62.1400 284.0000 1.0000
62.1500 272.0000 1.0000
62.1600 288.0000 1.0000
62.1700 282.0000 1.0000
62.1800 292.0000 1.0000
62.1900 285.0000 1.0000
62.2000 263.0000 1.0000
62.2100 272.0000 1.0000
62.2200 276.0000 1.0000
62.2300 256.0000 1.0000
62.2400 282.0000 1.0000
62.2500 268.0000 1.0000
62.2600 266.0000 1.0000
62.2700 294.0000 1.0000
62.2800 259.0000 1.0000
62.2900 289.0000 1.0000
62.3000 278.0000 1.0000
62.3100 256.0000 1.0000
62.3200 291.0000 1.0000
62.3300 302.0000 1.0000
62.3400 267.0000 1.0000
62.3500 310.0000 1.0000
62.3600 278.0000 1.0000
62.3700 288.0000 1.0000
62.3800 279.0000 1.0000
62.3900 285.0000 1.0000
62.4000 304.0000 1.0000
62.4100 274.0000 1.0000
62.4200 272.0000 1.0000
62.4300 293.0000 1.0000
62.4400 279.0000 1.0000
62.4500 272.0000 1.0000
62.4600 272.0000 1.0000
62.4700 269.0000 1.0000
62.4800 257.0000 1.0000
62.4900 282.0000 1.0000
62.5000 231.0000 1.0000
62.5100 266.0000 1.0000
62.5200 301.0000 1.0000
62.5300 269.0000 1.0000
62.5400 266.0000 1.0000
62.5500 261.0000 1.0000
62.5600 265.0000 1.0000
62.5700 261.0000 1.0000
62.5800 264.0000 1.0000
62.5900 245.0000 1.0000
62.6000 261.0000 1.0000
62.6100 241.0000 1.0000
62.6200 260.0000 1.0000
62.6300 265.0000 1.0000
62.6400 254.0000 1.0000
62.6500 244.0000 1.0000
62.6600 261.0000 1.0000
62.6700 296.0000 1.0000
62.6800 292.0000 1.0000
62.6900 237.0000 1.0000
62.7000 242.0000 1.0000
62.7100 259.0000 1.0000
62.7200 263.0000 1.0000
62.7300 237.0000 1.0000
62.7400 225.0000 1.0000
62.7500 261.0000 1.0000
62.7600 257.0000 1.0000
62.7700 258.0000 1.0000
62.7800 268.0000 1.0000
62.7900 249.0000 1.0000
62.8000 239.0000 1.0000
62.8100 252.0000 1.0000
62.8200 243.0000 1.0000
62.8300 249.0000 1.0000
62.8400 232.0000 1.0000
62.8500 230.0000 1.0000
62.8600 232.0000 1.0000
62.8700 237.0000 1.0000
62.8800 228.0000 1.0000
62.8900 245.0000 1.0000
62.9000 225.0000 1.0000
62.9100 269.0000 1.0000
62.9200 242.0000 1.0000
62.9300 234.0000 1.0000
62.9400 238.0000 1.0000
62.9500 250.0000 1.0000
62.9600 252.0000 1.0000
62.9700 278.0000 1.0000
62.9800 228.0000 1.0000
62.9900 237.0000 1.0000
63.0000 240.0000 1.0000
63.0100 255.0000 1.0000
63.0200 235.0000 1.0000
63.0300 216.0000 1.0000
63.0400 249.0000 1.0000
63.0500 251.0000 1.0000
63.0600 230.0000 1.0000
63.0700 229.0000 1.0000
63.0800 231.0000 1.0000
63.0900 226.0000 1.0000
63.1000 256.0000 1.0000
63.1100 240.0000 1.0000
63.1200 259.0000 1.0000
63.1300 217.0000 1.0000
63.1400 250.0000 1.0000
63.1500 245.0000 1.0000
63.1600 227.0000 1.0000
63.1700 217.0000 1.0000
63.1800 239.0000 1.0000
63.1900 224.0000 1.0000
63.2000 239.0000 1.0000
63.2100 246.0000 1.0000
63.2200 232.0000 1.0000
63.2300 250.0000 1.0000
63.2400 225.0000 1.0000
63.2500 229.0000 1.0000
63.2600 251.0000 1.0000
63.2700 215.0000 1.0000
63.2800 244.0000 1.0000
63.2900 245.0000 1.0000
63.3000 233.0000 1.0000
63.3100 237.0000 1.0000
63.3200 240.0000 1.0000
63.3300 228.0000 1.0000
63.3400 242.0000 1.0000
63.3500 235.0000 1.0000
63.3600 268.0000 1.0000
63.3700 261.0000 1.0000
63.3800 236.0000 1.0000
63.3900 214.0000 1.0000
63.4000 220.0000 1.0000
63.4100 238.0000 1.0000
63.4200 262.0000 1.0000
63.4300 231.0000 1.0000
63.4400 244.0000 1.0000
63.4500 251.0000 1.0000
63.4600 255.0000 1.0000
63.4700 246.0000 1.0000
63.4800 253.0000 1.0000
63.4900 245.0000 1.0000
63.5000 238.0000 1.0000
63.5100 241.0000 1.0000
63.5200 258.0000 1.0000
63.5300 246.0000 1.0000
63.5400 224.0000 1.0000
63.5500 229.0000 1.0000
63.5600 233.0000 1.0000
63.5700 240.0000 1.0000
63.5800 235.0000 1.0000
63.5900 252.0000 1.0000
63.6000 235.0000 1.0000
63.6100 236.0000 1.0000
63.6200 272.0000 1.0000
63.6300 263.0000 1.0000
63.6400 246.0000 1.0000
63.6500 257.0000 1.0000
63.6600 239.0000 1.0000
63.6700 259.0000 1.0000
63.6800 251.0000 1.0000
63.6900 268.0000 1.0000
63.7000 229.0000 1.0000
63.7100 247.0000 1.0000
63.7200 251.0000 1.0000
63.7300 287.0000 1.0000
63.7400 264.0000 1.0000
63.7500 245.0000 1.0000
63.7600 267.0000 1.0000
63.7700 250.0000 1.0000
63.7800 253.0000 1.0000
63.7900 258.0000 1.0000
63.8000 280.0000 1.0000
63.8100 283.0000 1.0000
63.8200 257.0000 1.0000
63.8300 269.0000 1.0000
63.8400 259.0000 1.0000
63.8500 264.0000 1.0000
63.8600 261.0000 1.0000
63.8700 291.0000 1.0000
63.8800 306.0000 1.0000
63.8900 276.0000 1.0000
63.9000 299.0000 1.0000
63.9100 277.0000 1.0000
63.9200 298.0000 1.0000
63.9300 270.0000 1.0000
63.9400 297.0000 1.0000
63.9500 272.0000 1.0000
63.9600 289.0000 1.0000
63.9700 271.0000 1.0000
63.9800 294.0000 1.0000
63.9900 293.0000 1.0000
64.0000 263.0000 1.0000
64.0100 269.0000 1.0000
64.0200 278.0000 1.0000
64.0300 270.0000 1.0000
64.0400 300.0000 1.0000
64.0500 290.0000 1.0000
64.0600 286.0000 1.0000
64.0700 304.0000 1.0000
64.0800 291.0000 1.0000
64.0900 293.0000 1.0000
64.1000 311.0000 1.0000
64.1100 290.0000 1.0000
64.1200 274.0000 1.0000
64.1300 285.0000 1.0000
64.1400 262.0000 1.0000
64.1500 310.0000 1.0000
64.1600 274.0000 1.0000
64.1700 294.0000 1.0000
64.1800 263.0000 1.0000
64.1900 255.0000 1.0000
64.2000 261.0000 1.0000
64.2100 278.0000 1.0000
64.2200 259.0000 1.0000
64.2300 277.0000 1.0000
64.2400 255.0000 1.0000
64.2500 249.0000 1.0000
64.2600 277.0000 1.0000
64.2700 255.0000 1.0000
64.2800 221.0000 1.0000
64.2900 228.0000 1.0000
64.3000 246.0000 1.0000
64.3100 273.0000 1.0000
64.3200 258.0000 1.0000
64.3300 245.0000 1.0000
64.3400 233.0000 1.0000
64.3500 239.0000 1.0000
64.3600 240.0000 1.0000
64.3700 279.0000 1.0000
64.3800 252.0000 1.0000
64.3900 243.0000 1.0000
64.4000 266.0000 1.0000
64.4100 245.0000 1.0000
64.4200 262.0000 1.0000
64.4300 232.0000 1.0000
64.4400 247.0000 1.0000
64.4500 235.0000 1.0000
64.4600 230.0000 1.0000
64.4700 264.0000 1.0000
64.4800 245.0000 1.0000
64.4900 259.0000 1.0000
64.5000 242.0000 1.0000
64.5100 242.0000 1.0000
64.5200 227.0000 1.0000
64.5300 238.0000 1.0000
64.5400 261.0000 1.0000
64.5500 267.0000 1.0000
64.5600 252.0000 1.0000
64.5700 266.0000 1.0000
64.5800 245.0000 1.0000
64.5900 244.0000 1.0000
64.6000 232.0000 1.0000
64.6100 251.0000 1.0000
64.6200 252.0000 1.0000
64.6300 278.0000 1.0000
64.6400 266.0000 1.0000
64.6500 236.0000 1.0000
64.6600 255.0000 1.0000
64.6700 246.0000 1.0000
64.6800 255.0000 1.0000
64.6900 266.0000 1.0000
64.7000 258.0000 1.0000
64.7100 257.0000 1.0000
64.7200 273.0000 1.0000
64.7300 250.0000 1.0000
64.7400 240.0000 1.0000
64.7500 236.0000 1.0000
64.7600 248.0000 1.0000
64.7700 246.0000 1.0000
64.7800 245.0000 1.0000
64.7900 270.0000 1.0000
64.8000 254.0000 1.0000
64.8100 260.0000 1.0000
64.8200 273.0000 1.0000
64.8300 260.0000 1.0000
64.8400 259.0000 1.0000
64.8500 225.0000 1.0000
64.8600 269.0000 1.0000
64.8700 268.0000 1.0000
64.8800 261.0000 1.0000
64.8900 236.0000 1.0000
64.9000 240.0000 1.0000
64.9100 263.0000 1.0000
64.9200 279.0000 1.0000
64.9300 267.0000 1.0000
64.9400 244.0000 1.0000
64.9500 270.0000 1.0000
64.9600 274.0000 1.0000
64.9700 288.0000 1.0000
64.9800 269.0000 1.0000
64.9900 288.0000 1.0000
65.0000 261.0000 1.0000
65.0100 293.0000 1.0000
65.0200 264.0000 1.0000
65.0300 281.0000 1.0000
65.0400 282.0000 1.0000
65.0500 321.0000 1.0000
65.0600 304.0000 1.0000
65.0700 252.0000 1.0000
65.0800 282.0000 1.0000
65.0900 318.0000 1.0000
65.1000 306.0000 1.0000
65.1100 272.0000 1.0000
65.1200 314.0000 1.0000
65.1300 302.0000 1.0000
65.1400 309.0000 1.0000
65.1500 315.0000 1.0000
65.1600 290.0000 1.0000
65.1700 325.0000 1.0000
65.1800 326.0000 1.0000
65.1900 335.0000 1.0000
65.2000 347.0000 1.0000
65.2100 345.0000 1.0000
65.2200 339.0000 1.0000
65.2300 332.0000 1.0000
65.2400 330.0000 1.0000
65.2500 370.0000 1.0000
65.2600 407.0000 1.0000
65.2700 412.0000 1.0000
65.2800 389.0000 1.0000
65.2900 406.0000 1.0000
65.3000 451.0000 1.0000
65.3100 454.0000 1.0000
65.3200 419.0000 1.0000
65.3300 475.0000 1.0000
65.3400 520.0000 1.0000
65.3500 494.0000 1.0000
65.3600 539.0000 1.0000
65.3700 557.0000 1.0000
65.3800 599.0000 1.0000
65.3900 625.0000 1.0000
65.4000 613.0000 1.0000
65.4100 617.0000 1.0000
65.4200 644.0000 1.0000
65.4300 661.0000 1.0000
65.4400 693.0000 1.0000
65.4500 679.0000 1.0000
65.4600 745.0000 1.0000
65.4700 754.0000 1.0000
65.4800 770.0000 1.0000
65.4900 753.0000 1.0000
65.5000 735.0000 1.0000
65.5100 713.0000 1.0000
65.5200 746.0000 1.0000
65.5300 760.0000 1.0000
65.5400 723.0000 1.0000
65.5500 692.0000 1.0000
65.5600 731.0000 1.0000
65.5700 716.0000 1.0000
65.5800 675.0000 1.0000
65.5900 694.0000 1.0000
65.6000 715.0000 1.0000
65.6100 730.0000 1.0000
65.6200 700.0000 1.0000
65.6300 639.0000 1.0000
65.6400 621.0000 1.0000
65.6500 619.0000 1.0000
65.6600 655.0000 1.0000
65.6700 628.0000 1.0000
65.6800 618.0000 1.0000
65.6900 576.0000 1.0000
65.7000 572.0000 1.0000
65.7100 602.0000 1.0000
65.7200 531.0000 1.0000
65.7300 522.0000 1.0000
65.7400 532.0000 1.0000
65.7500 482.0000 1.0000
65.7600 468.0000 1.0000
65.7700 465.0000 1.0000
65.7800 438.0000 1.0000
65.7900 455.0000 1.0000
65.8000 435.0000 1.0000
65.8100 431.0000 1.0000
65.8200 422.0000 1.0000
65.8300 389.0000 1.0000
65.8400 397.0000 1.0000
65.8500 346.0000 1.0000
65.8600 371.0000 1.0000
65.8700 365.0000 1.0000
65.8800 340.0000 1.0000
65.8900 354.0000 1.0000
65.9000 346.0000 1.0000
65.9100 323.0000 1.0000
65.9200 314.0000 1.0000
65.9300 300.0000 1.0000
65.9400 300.0000 1.0000
65.9500 292.0000 1.0000
65.9600 318.0000 1.0000
65.9700 317.0000 1.0000
65.9800 313.0000 1.0000
65.9900 301.0000 1.0000
66.0000 280.0000 1.0000
66.0100 274.0000 1.0000
66.0200 269.0000 1.0000
66.0300 289.0000 1.0000
66.0400 278.0000 1.0000
66.0500 258.0000 1.0000
66.0600 267.0000 1.0000
66.0700 264.0000 1.0000
66.0800 273.0000 1.0000
66.0900 270.0000 1.0000
66.1000 272.0000 1.0000
66.1100 256.0000 1.0000
66.1200 274.0000 1.0000
66.1300 254.0000 1.0000
66.1400 250.0000 1.0000
66.1500 232.0000 1.0000
66.1600 256.0000 1.0000
66.1700 281.0000 1.0000
66.1800 239.0000 1.0000
66.1900 260.0000 1.0000
66.2000 277.0000 1.0000
66.2100 239.0000 1.0000
66.2200 262.0000 1.0000
66.2300 258.0000 1.0000
66.2400 254.0000 1.0000
66.2500 243.0000 1.0000
66.2600 236.0000 1.0000
66.2700 246.0000 1.0000
66.2800 249.0000 1.0000
66.2900 255.0000 1.0000
66.3000 237.0000 1.0000
66.3100 243.0000 1.0000
66.3200 222.0000 1.0000
66.3300 267.0000 1.0000
66.3400 249.0000 1.0000
66.3500 243.0000 1.0000
66.3600 263.0000 1.0000
66.3700 233.0000 1.0000
66.3800 240.0000 1.0000
66.3900 228.0000 1.0000
66.4000 259.0000 1.0000
66.4100 239.0000 1.0000
66.4200 265.0000 1.0000
66.4300 237.0000 1.0000
66.4400 241.0000 1.0000
66.4500 257.0000 1.0000
66.4600 240.0000 1.0000
66.4700 262.0000 1.0000
66.4800 247.0000 1.0000
66.4900 249.0000 1.0000
66.5000 227.0000 1.0000
66.5100 240.0000 1.0000
66.5200 212.0000 1.0000
66.5300 254.0000 1.0000
66.5400 237.0000 1.0000
66.5500 236.0000 1.0000
66.5600 234.0000 1.0000
66.5700 236.0000 1.0000
66.5800 242.0000 1.0000
66.5900 235.0000 1.0000
66.6000 245.0000 1.0000
66.6100 225.0000 1.0000
66.6200 206.0000 1.0000
66.6300 223.0000 1.0000
66.6400 194.0000 1.0000
66.6500 215.0000 1.0000
66.6600 242.0000 1.0000
66.6700 228.0000 1.0000
66.6800 221.0000 1.0000
66.6900 221.0000 1.0000
66.7000 251.0000 1.0000
66.7100 233.0000 1.0000
66.7200 196.0000 1.0000
66.7300 212.0000 1.0000
66.7400 225.0000 1.0000
66.7500 233.0000 1.0000
66.7600 229.0000 1.0000
66.7700 242.0000 1.0000
66.7800 218.0000 1.0000
66.7900 217.0000 1.0000
66.8000 221.0000 1.0000
66.8100 218.0000 1.0000
66.8200 238.0000 1.0000
66.8300 217.0000 1.0000
66.8400 234.0000 1.0000
66.8500 245.0000 1.0000
66.8600 236.0000 1.0000
66.8700 236.0000 1.0000
66.8800 212.0000 1.0000
66.8900 216.0000 1.0000
66.9000 214.0000 1.0000
66.9100 186.0000 1.0000
66.9200 206.0000 1.0000
66.9300 214.0000 1.0000
66.9400 207.0000 1.0000
66.9500 232.0000 1.0000
66.9600 221.0000 1.0000
66.9700 198.0000 1.0000
66.9800 216.0000 1.0000
66.9900 238.0000 1.0000
67.0000 221.0000 1.0000
67.0100 207.0000 1.0000
67.0200 244.0000 1.0000
67.0300 228.0000 1.0000
67.0400 223.0000 1.0000
67.0500 230.0000 1.0000
67.0600 209.0000 1.0000
67.0700 208.0000 1.0000
67.0800 206.0000 1.0000
67.0900 237.0000 1.0000
67.1000 238.0000 1.0000
67.1100 211.0000 1.0000
67.1200 228.0000 1.0000
67.1300 217.0000 1.0000
67.1400 224.0000 1.0000
67.1500 226.0000 1.0000
67.1600 223.0000 1.0000
67.1700 209.0000 1.0000
67.1800 235.0000 1.0000
67.1900 210.0000 1.0000
67.2000 212.0000 1.0000
67.2100 217.0000 1.0000
67.2200 228.0000 1.0000
67.2300 218.0000 1.0000
67.2400 226.0000 1.0000
67.2500 228.0000 1.0000
67.2600 241.0000 1.0000
67.2700 200.0000 1.0000
67.2800 231.0000 1.0000
67.2900 215.0000 1.0000
67.3000 195.0000 1.0000
67.3100 231.0000 1.0000
67.3200 206.0000 1.0000
67.3300 218.0000 1.0000
67.3400 221.0000 1.0000
67.3500 228.0000 1.0000
67.3600 213.0000 1.0000
67.3700 223.0000 1.0000
67.3800 221.0000 1.0000
67.3900 239.0000 1.0000
67.4000 233.0000 1.0000
67.4100 220.0000 1.0000
67.4200 232.0000 1.0000
67.4300 242.0000 1.0000
67.4400 250.0000 1.0000
67.4500 224.0000 1.0000
67.4600 223.0000 1.0000
67.4700 204.0000 1.0000
67.4800 211.0000 1.0000
67.4900 231.0000 1.0000
67.5000 235.0000 1.0000
67.5100 225.0000 1.0000
67.5200 220.0000 1.0000
67.5300 236.0000 1.0000
67.5400 230.0000 1.0000
67.5500 211.0000 1.0000
67.5600 220.0000 1.0000
67.5700 196.0000 1.0000
67.5800 228.0000 1.0000
67.5900 243.0000 1.0000
67.6000 234.0000 1.0000
67.6100 205.0000 1.0000
67.6200 202.0000 1.0000
67.6300 239.0000 1.0000
67.6400 217.0000 1.0000
67.6500 221.0000 1.0000
67.6600 234.0000 1.0000
67.6700 208.0000 1.0000
67.6800 219.0000 1.0000
67.6900 213.0000 1.0000
67.7000 226.0000 1.0000
67.7100 225.0000 1.0000
67.7200 213.0000 1.0000
67.7300 233.0000 1.0000
67.7400 196.0000 1.0000
67.7500 187.0000 1.0000
67.7600 206.0000 1.0000
67.7700 199.0000 1.0000
67.7800 191.0000 1.0000
67.7900 206.0000 1.0000
67.8000 201.0000 1.0000
67.8100 223.0000 1.0000
67.8200 220.0000 1.0000
67.8300 215.0000 1.0000
67.8400 204.0000 1.0000
67.8500 221.0000 1.0000
67.8600 203.0000 1.0000
67.8700 219.0000 1.0000
67.8800 220.0000 1.0000
67.8900 221.0000 1.0000
67.9000 228.0000 1.0000
67.9100 230.0000 1.0000
67.9200 210.0000 1.0000
67.9300 211.0000 1.0000
67.9400 213.0000 1.0000
67.9500 221.0000 1.0000
67.9600 223.0000 1.0000
67.9700 231.0000 1.0000
67.9800 231.0000 1.0000
67.9900 202.0000 1.0000
68.0000 222.0000 1.0000
68.0100 218.0000 1.0000
68.0200 208.0000 1.0000
68.0300 226.0000 1.0000
68.0400 231.0000 1.0000
68.0500 234.0000 1.0000
68.0600 219.0000 1.0000
68.0700 198.0000 1.0000
68.0800 209.0000 1.0000
68.0900 219.0000 1.0000
68.1000 225.0000 1.0000
68.1100 206.0000 1.0000
68.1200 207.0000 1.0000
68.1300 226.0000 1.0000
68.1400 212.0000 1.0000
68.1500 219.0000 1.0000
68.1600 230.0000 1.0000
68.1700 218.0000 1.0000
68.1800 220.0000 1.0000
68.1900 209.0000 1.0000
68.2000 220.0000 1.0000
68.2100 232.0000 1.0000
68.2200 216.0000 1.0000
68.2300 211.0000 1.0000
68.2400 210.0000 1.0000
68.2500 213.0000 1.0000
68.2600 209.0000 1.0000
68.2700 204.0000 1.0000
68.2800 206.0000 1.0000
68.2900 215.0000 1.0000
68.3000 209.0000 1.0000
68.3100 227.0000 1.0000
68.3200 225.0000 1.0000
68.3300 198.0000 1.0000
68.3400 207.0000 1.0000
68.3500 205.0000 1.0000
68.3600 204.0000 1.0000
68.3700 224.0000 1.0000
68.3800 216.0000 1.0000
68.3900 211.0000 1.0000
68.4000 210.0000 1.0000
68.4100 191.0000 1.0000
68.4200 202.0000 1.0000
68.4300 204.0000 1.0000
68.4400 217.0000 1.0000
68.4500 205.0000 1.0000
68.4600 212.0000 1.0000
68.4700 206.0000 1.0000
68.4800 227.0000 1.0000
68.4900 210.0000 1.0000
68.5000 217.0000 1.0000
68.5100 216.0000 1.0000
68.5200 205.0000 1.0000
68.5300 224.0000 1.0000
68.5400 193.0000 1.0000
68.5500 223.0000 1.0000
68.5600 200.0000 1.0000
68.5700 195.0000 1.0000
68.5800 216.0000 1.0000
68.5900 213.0000 1.0000
68.6000 214.0000 1.0000
68.6100 206.0000 1.0000
68.6200 210.0000 1.0000
68.6300 218.0000 1.0000
68.6400 201.0000 1.0000
68.6500 231.0000 1.0000
68.6600 236.0000 1.0000
68.6700 218.0000 1.0000
68.6800 202.0000 1.0000
68.6900 222.0000 1.0000
68.7000 190.0000 1.0000
68.7100 229.0000 1.0000
68.7200 231.0000 1.0000
68.7300 218.0000 1.0000
68.7400 213.0000 1.0000
68.7500 207.0000 1.0000
68.7600 200.0000 1.0000
68.7700 210.0000 1.0000
68.7800 223.0000 1.0000
68.7900 227.0000 1.0000
68.8000 204.0000 1.0000
68.8100 220.0000 1.0000
68.8200 230.0000 1.0000
68.8300 211.0000 1.0000
68.8400 196.0000 1.0000
68.8500 224.0000 1.0000
68.8600 223.0000 1.0000
68.8700 199.0000 1.0000
68.8800 207.0000 1.0000
68.8900 231.0000 1.0000
68.9000 189.0000 1.0000
68.9100 210.0000 1.0000
68.9200 213.0000 1.0000
68.9300 196.0000 1.0000
68.9400 191.0000 1.0000
68.9500 189.0000 1.0000
68.9600 215.0000 1.0000
68.9700 210.0000 1.0000
68.9800 191.0000 1.0000
68.9900 223.0000 1.0000
69.0000 212.0000 1.0000
69.0100 210.0000 1.0000
69.0200 194.0000 1.0000
69.0300 200.0000 1.0000
69.0400 193.0000 1.0000
69.0500 184.0000 1.0000
69.0600 201.0000 1.0000
69.0700 197.0000 1.0000
69.0800 198.0000 1.0000
69.0900 211.0000 1.0000
69.1000 210.0000 1.0000
69.1100 217.0000 1.0000
69.1200 208.0000 1.0000
69.1300 223.0000 1.0000
69.1400 204.0000 1.0000
69.1500 213.0000 1.0000
69.1600 234.0000 1.0000
69.1700 209.0000 1.0000
69.1800 227.0000 1.0000
69.1900 213.0000 1.0000
69.2000 203.0000 1.0000
69.2100 209.0000 1.0000
69.2200 208.0000 1.0000
69.2300 198.0000 1.0000
69.2400 201.0000 1.0000
69.2500 215.0000 1.0000
69.2600 225.0000 1.0000
69.2700 209.0000 1.0000
69.2800 200.0000 1.0000
69.2900 179.0000 1.0000
69.3000 220.0000 1.0000
69.3100 225.0000 1.0000
69.3200 211.0000 1.0000
69.3300 197.0000 1.0000
69.3400 212.0000 1.0000
69.3500 215.0000 1.0000
69.3600 199.0000 1.0000
69.3700 214.0000 1.0000
69.3800 213.0000 1.0000
69.3900 210.0000 1.0000
69.4000 200.0000 1.0000
69.4100 211.0000 1.0000
69.4200 199.0000 1.0000
69.4300 201.0000 1.0000
69.4400 228.0000 1.0000
69.4500 192.0000 1.0000
69.4600 223.0000 1.0000
69.4700 207.0000 1.0000
69.4800 193.0000 1.0000
69.4900 197.0000 1.0000
69.5000 206.0000 1.0000
69.5100 191.0000 1.0000
69.5200 206.0000 1.0000
69.5300 192.0000 1.0000
69.5400 214.0000 1.0000
69.5500 216.0000 1.0000
69.5600 200.0000 1.0000
69.5700 210.0000 1.0000
69.5800 196.0000 1.0000
69.5900 200.0000 1.0000
69.6000 207.0000 1.0000
69.6100 208.0000 1.0000
69.6200 200.0000 1.0000
69.6300 189.0000 1.0000
69.6400 209.0000 1.0000
69.6500 190.0000 1.0000
69.6600 212.0000 1.0000
69.6700 213.0000 1.0000
69.6800 212.0000 1.0000
69.6900 183.0000 1.0000
69.7000 194.0000 1.0000
69.7100 204.0000 1.0000
69.7200 210.0000 1.0000
69.7300 217.0000 1.0000
69.7400 211.0000 1.0000
69.7500 185.0000 1.0000
69.7600 215.0000 1.0000
69.7700 193.0000 1.0000
69.7800 196.0000 1.0000
69.7900 196.0000 1.0000
69.8000 216.0000 1.0000
69.8100 214.0000 1.0000
69.8200 222.0000 1.0000
69.8300 189.0000 1.0000
69.8400 207.0000 1.0000
69.8500 190.0000 1.0000
69.8600 208.0000 1.0000
69.8700 195.0000 1.0000
69.8800 214.0000 1.0000
69.8900 174.0000 1.0000
69.9000 196.0000 1.0000
69.9100 211.0000 1.0000
69.9200 196.0000 1.0000
69.9300 215.0000 1.0000
69.9400 194.0000 1.0000
69.9500 196.0000 1.0000
69.9600 206.0000 1.0000
69.9700 181.0000 1.0000
69.9800 194.0000 1.0000
69.9900 213.0000 1.0000
70.0000 200.0000 1.0000
*RAS_INT_END
*RAS_TEMPERATURE_START
*RAS_TEMPERATURE_END
*RAS_DATA_END
