*RAS_DATA_START
*RAS_HEADER_START
*DISP_FMT_X "%.2f"
*DISP_FMT_Y "%.0f"
*DISP_FULLSCALE "15675.0000000000"
*DISP_LINE_COLOR "255.0000000000"
*DISP_LINE_STYLE "0.0000000000"
*DISP_LINE_WIDTH "0.2500000000"
*DISP_NOTE "測定データ-15"
*DISP_OFFSET_Y "0.0000000000"
*DISP_PEAKSEARCH_UNIT_Y "cps"
*DISP_RANGE_BOTTOM "0.0000000000"
*DISP_RANGE_LEFT "20.0000000000"
*DISP_RANGE_LOGCUTOFF "0.0100000000"
*DISP_RANGE_RIGHT "70.0000000000"
*DISP_RANGE_TOP "15675.0000000000"
*DISP_SCALE_MODE_Y "0.0000000000"
*DISP_TAB_NAME "2θ/θ"
*DISP_TITLE_Y "強度"
*DISP_UNIT_Y "cps"
*DISP_WINDOW_NAME "MSG_MACROENGINE"
*FILE_COMMENT " "
*FILE_MD5 ""
*FILE_MEMO " "
*FILE_OPERATOR "Administrator"
*FILE_SAMPLE " "
*FILE_TYPE "RAS_RAW"
*FILE_USERGROUP "システムマネージャ"
*FILE_VERSION "1.0000000000"
*HW_ATTACHMENT_ID "ATT0025"
*HW_ATTACHMENT_NAME "標準|Standard"
*HW_COUNTER_ID-0 "CUT0025"
*HW_COUNTER_ID-1 "CUT0020"
*HW_COUNTER_ID-2 "CUT0020"
*HW_COUNTER_ID-3 "CSL0021"
*HW_COUNTER_ID-4 "CMC0021"
*HW_COUNTER_NAME-0 "D/teX Ultra|D/teX Ultra"
*HW_COUNTER_NAME-1 "None|None"
*HW_COUNTER_NAME-2 "None|None"
*HW_COUNTER_NAME-3 "BBM|BBM"
*HW_COUNTER_NAME-4 "検出器モノクロメータ|Detector monochromator"
*HW_COUNTER_SELECT_NAME "D/teX Ultra|D/teX Ultra"
*HW_GONIOMETER_ID "GON0023"
*HW_GONIOMETER_NAME "SmartLab|SmartLab"
*HW_GONIOMETER_RADIUS-0 "90.0"
*HW_GONIOMETER_RADIUS-1 "114.0"
*HW_GONIOMETER_RADIUS-2 "190.0"
*HW_GONIOMETER_RADIUS-3 "300.0"
*HW_GONIOMETER_RADIUS-4 "187.0"
*HW_GONIOMETER_RADIUS-5 "300.0"
*HW_GONIOMETER_RADIUS-6 "113.0"
*HW_GONIOMETER_RADIUS-7 "331.0"
*HW_I_OPT_ID-0 "CBO0021"
*HW_I_OPT_ID-1 "ICR0023"
*HW_I_OPT_ID-2 "ISL0021"
*HW_I_OPT_ID-3 "ISO0021"
*HW_I_OPT_ID-4 "IAD0021"
*HW_I_OPT_ID-5 "IPR0001"
*HW_I_OPT_NAME-0 "CBOユニット|CBO unit"
*HW_I_OPT_NAME-1 "標準入射光学ユニット|Standard incident optical unit"
*HW_I_OPT_NAME-2 "標準入射スリットボックス|Standard incident slit box"
*HW_I_OPT_NAME-3 "入射平行スリット|Incident parallel slit"
*HW_I_OPT_NAME-4 "長手制限スリット|Length limiting slit"
*HW_I_OPT_NAME-5 "None|None"
*HW_R_ATTENUATER_AUTOMODE "0"
*HW_R_OPT_ID-0 "RSS0021"
*HW_R_OPT_ID-1 "RCR0023"
*HW_R_OPT_ID-2 "RSO0021"
*HW_R_OPT_ID-3 "RRS0021"
*HW_R_OPT_ID-4 "ATN0021"
*HW_R_OPT_ID-5 "RFL0021"
*HW_R_OPT_ID-6 "RAD0021"
*HW_R_OPT_NAME-0 "標準受光スリットボックス1|Standard receiving slit box # 1"
*HW_R_OPT_NAME-1 "標準受光光学ユニット1|Standard receiving unit # 1"
*HW_R_OPT_NAME-2 "標準受光光学ユニット2|Standard receiving optical unit # 2"
*HW_R_OPT_NAME-3 "標準受光スリットボックス2|Standard receiving slit box # 2"
*HW_R_OPT_NAME-4 "標準アッテネータ|Standard Attenuator"
*HW_R_OPT_NAME-5 "Cu Kβ|Cu K-beta"
*HW_R_OPT_NAME-6 "調整用受光スリット|Alignment receiving slit"
*HW_SAMPLE_HOLDER_ID "SMP0023"
*HW_SAMPLE_HOLDER_NAME "標準Zステージ|Standard Z stage"
*HW_XG_CURRENT_MAX "50"
*HW_XG_CURRENT_MIN "2"
*HW_XG_CURRENT_RESOLUTION "1"
*HW_XG_CURRENT_UNIT "mA"
*HW_XG_FOCUS "1mm x 10mm"
*HW_XG_FOCUS_TYPE "Normal"
*HW_XG_ID ""
*HW_XG_NAME "3kW 封入管(ID:1200)|3kW Sealed tube(ID:1200)"
*HW_XG_TARGET_ATOMIC_NUMBER "29.0000000000"
*HW_XG_TARGET_NAME "Cu"
*HW_XG_TYPE "Hermetic"
*HW_XG_VOLTAGE_MAX "60"
*HW_XG_VOLTAGE_MIN "20"
*HW_XG_VOLTAGE_RESOLUTION "1"
*HW_XG_VOLTAGE_UNIT "kV"
*HW_XG_WATT_MAX "1.500"
*HW_XG_WATT_UNIT "kW"
*HW_XG_WAVE_LENGTH_ALPHA1 "1.540593"
*HW_XG_WAVE_LENGTH_ALPHA2 "1.544414"
*HW_XG_WAVE_LENGTH_BETA "1.392250"
*MEAS_COND_AXIS_NAME-0 "2θ/θ"
*MEAS_COND_AXIS_NAME-1 "2θ"
*MEAS_COND_AXIS_NAME-2 "ω"
*MEAS_COND_AXIS_NAME-3 "Z"
*MEAS_COND_AXIS_NAME-4 "2θ/ω"
*MEAS_COND_AXIS_NAME-5 "θs"
*MEAS_COND_AXIS_NAME-6 "θd"
*MEAS_COND_AXIS_NAME-7 "Ts"
*MEAS_COND_AXIS_NAME-8 "CBO選択スリット"
*MEAS_COND_AXIS_NAME-9 "M"
*MEAS_COND_AXIS_NAME-10 "入射平行スリット"
*MEAS_COND_AXIS_NAME-11 "入射スリット"
*MEAS_COND_AXIS_NAME-12 ""
*MEAS_COND_AXIS_NAME-13 "Zs"
*MEAS_COND_AXIS_NAME-14 "入射光学素子"
*MEAS_COND_AXIS_NAME-15 "長手制限スリット"
*MEAS_COND_AXIS_NAME-16 "センタースリット"
*MEAS_COND_AXIS_NAME-17 "フィルター"
*MEAS_COND_AXIS_NAME-18 "受光スリット1"
*MEAS_COND_AXIS_NAME-19 "受光スリット2"
*MEAS_COND_AXIS_NAME-20 "受光光学素子"
*MEAS_COND_AXIS_NAME-21 "受光平行スリット"
*MEAS_COND_AXIS_NAME-22 "調整用受光スリット"
*MEAS_COND_AXIS_NAME-23 ""
*MEAS_COND_AXIS_NAME-24 ""
*MEAS_COND_AXIS_NAME-25 "Zd"
*MEAS_COND_AXIS_NAME-26 "アッテネータ"
*MEAS_COND_AXIS_NAME-27 "検出器モノクロメータ"
*MEAS_COND_AXIS_NAME-28 "モノクロメータスリット"
*MEAS_COND_AXIS_NAME-29 "プライマリビーム"
*MEAS_COND_AXIS_NAME-30 "PHA"
*MEAS_COND_AXIS_NAME_INTERNAL-0 "TwoThetaTheta"
*MEAS_COND_AXIS_NAME_INTERNAL-1 "TwoTheta"
*MEAS_COND_AXIS_NAME_INTERNAL-2 "Omega"
*MEAS_COND_AXIS_NAME_INTERNAL-3 "Z"
*MEAS_COND_AXIS_NAME_INTERNAL-4 "TwoThetaOmega"
*MEAS_COND_AXIS_NAME_INTERNAL-5 "ThetaS"
*MEAS_COND_AXIS_NAME_INTERNAL-6 "ThetaD"
*MEAS_COND_AXIS_NAME_INTERNAL-7 "Ts"
*MEAS_COND_AXIS_NAME_INTERNAL-8 "CBO"
*MEAS_COND_AXIS_NAME_INTERNAL-9 "CBO-M"
*MEAS_COND_AXIS_NAME_INTERNAL-10 "IncidentSollerSlit"
*MEAS_COND_AXIS_NAME_INTERNAL-11 "IncidentSlitBox"
*MEAS_COND_AXIS_NAME_INTERNAL-12 "IncidentSlitBox-_Axis"
*MEAS_COND_AXIS_NAME_INTERNAL-13 "Zs"
*MEAS_COND_AXIS_NAME_INTERNAL-14 "IncidentMonochromator"
*MEAS_COND_AXIS_NAME_INTERNAL-15 "IncidentAxdSlit"
*MEAS_COND_AXIS_NAME_INTERNAL-16 "CenterSlit"
*MEAS_COND_AXIS_NAME_INTERNAL-17 "Filter"
*MEAS_COND_AXIS_NAME_INTERNAL-18 "ReceivingSlitBox1"
*MEAS_COND_AXIS_NAME_INTERNAL-19 "ReceivingSlitBox2"
*MEAS_COND_AXIS_NAME_INTERNAL-20 "ReceivingOptics"
*MEAS_COND_AXIS_NAME_INTERNAL-21 "ReceivingSollerSlit"
*MEAS_COND_AXIS_NAME_INTERNAL-22 "ReceivingAxdSlit"
*MEAS_COND_AXIS_NAME_INTERNAL-23 "ReceivingSlitBox1-_Axis"
*MEAS_COND_AXIS_NAME_INTERNAL-24 "ReceivingSlitBox2-_Axis"
*MEAS_COND_AXIS_NAME_INTERNAL-25 "ReceivingSlitBox2-Zd"
*MEAS_COND_AXIS_NAME_INTERNAL-26 "Attenuator"
*MEAS_COND_AXIS_NAME_INTERNAL-27 "CounterMonochromator"
*MEAS_COND_AXIS_NAME_INTERNAL-28 "CounterSlit"
*MEAS_COND_AXIS_NAME_INTERNAL-29 "IncidentPrimary"
*MEAS_COND_AXIS_NAME_INTERNAL-30 "PHA"
*MEAS_COND_AXIS_NAME_MAGICNO-0 "83951616.0000000000"
*MEAS_COND_AXIS_NAME_MAGICNO-1 "268632064.0000000000"
*MEAS_COND_AXIS_NAME_MAGICNO-2 "268500992.0000000000"
*MEAS_COND_AXIS_NAME_MAGICNO-3 "285278208.0000000000"
*MEAS_COND_AXIS_NAME_MAGICNO-4 "83951616.0000000000"
*MEAS_COND_AXIS_NAME_MAGICNO-5 "131072.0000000000"
*MEAS_COND_AXIS_NAME_MAGICNO-6 "131072.0000000000"
*MEAS_COND_AXIS_NAME_MAGICNO-7 "318898176.0000000000"
*MEAS_COND_AXIS_NAME_MAGICNO-8 "20971521.0000000000"
*MEAS_COND_AXIS_NAME_MAGICNO-9 "285343744.0000000000"
*MEAS_COND_AXIS_NAME_MAGICNO-10 "20971521.0000000000"
*MEAS_COND_AXIS_NAME_MAGICNO-11 "22020097.0000000000"
*MEAS_COND_AXIS_NAME_MAGICNO-12 "25165824.0000000000"
*MEAS_COND_AXIS_NAME_MAGICNO-13 "318898176.0000000000"
*MEAS_COND_AXIS_NAME_MAGICNO-14 "1.0000000000"
*MEAS_COND_AXIS_NAME_MAGICNO-15 "20971521.0000000000"
*MEAS_COND_AXIS_NAME_MAGICNO-16 "20971521.0000000000"
*MEAS_COND_AXIS_NAME_MAGICNO-17 "20971521.0000000000"
*MEAS_COND_AXIS_NAME_MAGICNO-18 "23068673.0000000000"
*MEAS_COND_AXIS_NAME_MAGICNO-19 "23068673.0000000000"
*MEAS_COND_AXIS_NAME_MAGICNO-20 "20971521.0000000000"
*MEAS_COND_AXIS_NAME_MAGICNO-21 "20971521.0000000000"
*MEAS_COND_AXIS_NAME_MAGICNO-22 "20971521.0000000000"
*MEAS_COND_AXIS_NAME_MAGICNO-23 "25165824.0000000000"
*MEAS_COND_AXIS_NAME_MAGICNO-24 "25165824.0000000000"
*MEAS_COND_AXIS_NAME_MAGICNO-25 "285343744.0000000000"
*MEAS_COND_AXIS_NAME_MAGICNO-26 "17301505.0000000000"
*MEAS_COND_AXIS_NAME_MAGICNO-27 "20971521.0000000000"
*MEAS_COND_AXIS_NAME_MAGICNO-28 "20971521.0000000000"
*MEAS_COND_AXIS_NAME_MAGICNO-29 "20971521.0000000000"
*MEAS_COND_AXIS_NAME_MAGICNO-30 "0.0000000000"
*MEAS_COND_AXIS_OFFSET-0 "-"
*MEAS_COND_AXIS_OFFSET-1 "-0.0310000000"
*MEAS_COND_AXIS_OFFSET-2 "0.3957000000"
*MEAS_COND_AXIS_OFFSET-3 "-"
*MEAS_COND_AXIS_OFFSET-4 "-"
*MEAS_COND_AXIS_OFFSET-5 "0.3957000000"
*MEAS_COND_AXIS_OFFSET-6 "-0.4267000000"
*MEAS_COND_AXIS_OFFSET-7 "-"
*MEAS_COND_AXIS_OFFSET-8 "-"
*MEAS_COND_AXIS_OFFSET-9 "-"
*MEAS_COND_AXIS_OFFSET-10 "-"
*MEAS_COND_AXIS_OFFSET-11 "-"
*MEAS_COND_AXIS_OFFSET-12 "-"
*MEAS_COND_AXIS_OFFSET-13 "-"
*MEAS_COND_AXIS_OFFSET-14 "-"
*MEAS_COND_AXIS_OFFSET-15 "-"
*MEAS_COND_AXIS_OFFSET-16 "-"
*MEAS_COND_AXIS_OFFSET-17 "-"
*MEAS_COND_AXIS_OFFSET-18 "-"
*MEAS_COND_AXIS_OFFSET-19 "-"
*MEAS_COND_AXIS_OFFSET-20 "-"
*MEAS_COND_AXIS_OFFSET-21 "-"
*MEAS_COND_AXIS_OFFSET-22 "-"
*MEAS_COND_AXIS_OFFSET-23 "-"
*MEAS_COND_AXIS_OFFSET-24 "-"
*MEAS_COND_AXIS_OFFSET-25 "-"
*MEAS_COND_AXIS_OFFSET-26 "-"
*MEAS_COND_AXIS_OFFSET-27 "-"
*MEAS_COND_AXIS_OFFSET-28 "-"
*MEAS_COND_AXIS_OFFSET-29 "-"
*MEAS_COND_AXIS_OFFSET-30 "-"
*MEAS_COND_AXIS_POSITION-0 "0.0000000000"
*MEAS_COND_AXIS_POSITION-1 "0.0000000000"
*MEAS_COND_AXIS_POSITION-2 "0.0000000000"
*MEAS_COND_AXIS_POSITION-3 "-2.9656400000"
*MEAS_COND_AXIS_POSITION-4 "0.0000000000"
*MEAS_COND_AXIS_POSITION-5 "0.0000000000"
*MEAS_COND_AXIS_POSITION-6 "0.0000000000"
*MEAS_COND_AXIS_POSITION-7 "-0.7498700000"
*MEAS_COND_AXIS_POSITION-8 "BB"
*MEAS_COND_AXIS_POSITION-9 "0.0000000000"
*MEAS_COND_AXIS_POSITION-10 "Soller_slit_5.0deg"
*MEAS_COND_AXIS_POSITION-11 "2/3deg"
*MEAS_COND_AXIS_POSITION-12 "2.2088000000"
*MEAS_COND_AXIS_POSITION-13 "-0.6412500000"
*MEAS_COND_AXIS_POSITION-14 "0.0000000000"
*MEAS_COND_AXIS_POSITION-15 "10.0mm"
*MEAS_COND_AXIS_POSITION-16 "None"
*MEAS_COND_AXIS_POSITION-17 "Cu_K-beta"
*MEAS_COND_AXIS_POSITION-18 "13.000mm"
*MEAS_COND_AXIS_POSITION-19 "13.000mm"
*MEAS_COND_AXIS_POSITION-20 "No_unit"
*MEAS_COND_AXIS_POSITION-21 "Soller_slit_5.0deg"
*MEAS_COND_AXIS_POSITION-22 "None"
*MEAS_COND_AXIS_POSITION-23 "13.0000000000"
*MEAS_COND_AXIS_POSITION-24 "13.0000000000"
*MEAS_COND_AXIS_POSITION-25 "0.0281300000"
*MEAS_COND_AXIS_POSITION-26 "Open"
*MEAS_COND_AXIS_POSITION-27 "None"
*MEAS_COND_AXIS_POSITION-28 "None"
*MEAS_COND_AXIS_POSITION-29 "None"
*MEAS_COND_AXIS_POSITION-30 "38.0000000000"
*MEAS_COND_AXIS_UNIT-0 "deg"
*MEAS_COND_AXIS_UNIT-1 "deg"
*MEAS_COND_AXIS_UNIT-2 "deg"
*MEAS_COND_AXIS_UNIT-3 "mm"
*MEAS_COND_AXIS_UNIT-4 "deg"
*MEAS_COND_AXIS_UNIT-5 "deg"
*MEAS_COND_AXIS_UNIT-6 "deg"
*MEAS_COND_AXIS_UNIT-7 "mm"
*MEAS_COND_AXIS_UNIT-8 ""
*MEAS_COND_AXIS_UNIT-9 "pulse"
*MEAS_COND_AXIS_UNIT-10 ""
*MEAS_COND_AXIS_UNIT-11 ""
*MEAS_COND_AXIS_UNIT-12 "mm"
*MEAS_COND_AXIS_UNIT-13 "mm"
*MEAS_COND_AXIS_UNIT-14 ""
*MEAS_COND_AXIS_UNIT-15 ""
*MEAS_COND_AXIS_UNIT-16 ""
*MEAS_COND_AXIS_UNIT-17 ""
*MEAS_COND_AXIS_UNIT-18 ""
*MEAS_COND_AXIS_UNIT-19 ""
*MEAS_COND_AXIS_UNIT-20 ""
*MEAS_COND_AXIS_UNIT-21 ""
*MEAS_COND_AXIS_UNIT-22 ""
*MEAS_COND_AXIS_UNIT-23 "mm"
*MEAS_COND_AXIS_UNIT-24 "mm"
*MEAS_COND_AXIS_UNIT-25 "mm"
*MEAS_COND_AXIS_UNIT-26 ""
*MEAS_COND_AXIS_UNIT-27 ""
*MEAS_COND_AXIS_UNIT-28 ""
*MEAS_COND_AXIS_UNIT-29 ""
*MEAS_COND_AXIS_UNIT-30 "div"
*MEAS_COND_COUNTER_CNTLOSS_CORR "0.0000000000"
*MEAS_COND_COUNTER_PHABASE "38.0000000000"
*MEAS_COND_COUNTER_PHAWINDOW "16.0000000000"
*MEAS_COND_COUNTER_PHA_UNIT "div"
*MEAS_COND_COUNTER_TAUDIFF "30.0000000000"
*MEAS_COND_COUNTER_TAUINT "0.0000000000"
*MEAS_COND_IRRADIATION_MODE "OFF"
*MEAS_COND_IRRADIATION_WIDTH ""
*MEAS_COND_OPT_ATTR "集中法"
*MEAS_COND_OPT_NAME "@集中法"
*MEAS_COND_UNSYMMETRIC_MODE "OFF"
*MEAS_COND_XG_CURRENT "30.0000000000"
*MEAS_COND_XG_VOLTAGE "40.0000000000"
*MEAS_COND_XG_WAVE_TYPE "Ka"
*MEAS_DATA_COUNT "5001.0000000000"
*MEAS_SCAN_AXIS_X "2θ/θ"
*MEAS_SCAN_AXIS_X_INTERNAL "TwoThetaTheta"
*MEAS_SCAN_END_TIME "02/14/24 22:41:23"
*MEAS_SCAN_MODE "CONTINUOUS"
*MEAS_SCAN_MONITOR "0"
*MEAS_SCAN_RESOLUTION_X "0.0002"
*MEAS_SCAN_SPEED "2.5"
*MEAS_SCAN_SPEED_UNIT "deg/min"
*MEAS_SCAN_START "20.0000000000"
*MEAS_SCAN_START_TIME "02/14/24 22:19:59"
*MEAS_SCAN_STEP "0.0100000000"
*MEAS_SCAN_STOP "70.0000000000"
*MEAS_SCAN_UNIT_X "deg"
*MEAS_SCAN_UNIT_Y "counts"
*RAS_HEADER_END
*RAS_INT_START
20.0000 808.0000 1.0000
20.0100 751.0000 1.0000
20.0200 754.0000 1.0000
20.0300 739.0000 1.0000
20.0400 777.0000 1.0000
20.0500 766.0000 1.0000
20.0600 784.0000 1.0000
20.0700 771.0000 1.0000
20.0800 786.0000 1.0000
20.0900 796.0000 1.0000
20.1000 790.0000 1.0000
20.1100 756.0000 1.0000
20.1200 766.0000 1.0000
20.1300 759.0000 1.0000
20.1400 769.0000 1.0000
20.1500 747.0000 1.0000
20.1600 788.0000 1.0000
20.1700 771.0000 1.0000
20.1800 742.0000 1.0000
20.1900 781.0000 1.0000
20.2000 755.0000 1.0000
20.2100 754.0000 1.0000
20.2200 778.0000 1.0000
20.2300 789.0000 1.0000
20.2400 784.0000 1.0000
20.2500 815.0000 1.0000
20.2600 768.0000 1.0000
20.2700 760.0000 1.0000
20.2800 789.0000 1.0000
20.2900 755.0000 1.0000
20.3000 753.0000 1.0000
20.3100 788.0000 1.0000
20.3200 785.0000 1.0000
20.3300 788.0000 1.0000
20.3400 758.0000 1.0000
20.3500 749.0000 1.0000
20.3600 789.0000 1.0000
20.3700 759.0000 1.0000
20.3800 758.0000 1.0000
20.3900 783.0000 1.0000
20.4000 755.0000 1.0000
20.4100 774.0000 1.0000
20.4200 774.0000 1.0000
20.4300 729.0000 1.0000
20.4400 765.0000 1.0000
20.4500 782.0000 1.0000
20.4600 778.0000 1.0000
20.4700 739.0000 1.0000
20.4800 761.0000 1.0000
20.4900 805.0000 1.0000
20.5000 770.0000 1.0000
20.5100 774.0000 1.0000
20.5200 769.0000 1.0000
20.5300 771.0000 1.0000
20.5400 745.0000 1.0000
20.5500 759.0000 1.0000
20.5600 805.0000 1.0000
20.5700 758.0000 1.0000
20.5800 758.0000 1.0000
20.5900 779.0000 1.0000
20.6000 768.0000 1.0000
20.6100 751.0000 1.0000
20.6200 744.0000 1.0000
20.6300 720.0000 1.0000
20.6400 785.0000 1.0000
20.6500 774.0000 1.0000
20.6600 776.0000 1.0000
20.6700 782.0000 1.0000
20.6800 811.0000 1.0000
20.6900 761.0000 1.0000
20.7000 768.0000 1.0000
20.7100 784.0000 1.0000
20.7200 772.0000 1.0000
20.7300 753.0000 1.0000
20.7400 801.0000 1.0000
20.7500 753.0000 1.0000
20.7600 756.0000 1.0000
20.7700 829.0000 1.0000
20.7800 767.0000 1.0000
20.7900 778.0000 1.0000
20.8000 768.0000 1.0000
20.8100 814.0000 1.0000
20.8200 775.0000 1.0000
20.8300 756.0000 1.0000
20.8400 720.0000 1.0000
20.8500 788.0000 1.0000
20.8600 750.0000 1.0000
20.8700 803.0000 1.0000
20.8800 765.0000 1.0000
20.8900 751.0000 1.0000
20.9000 801.0000 1.0000
20.9100 809.0000 1.0000
20.9200 785.0000 1.0000
20.9300 781.0000 1.0000
20.9400 752.0000 1.0000
20.9500 743.0000 1.0000
20.9600 763.0000 1.0000
20.9700 722.0000 1.0000
20.9800 786.0000 1.0000
20.9900 815.0000 1.0000
21.0000 814.0000 1.0000
21.0100 764.0000 1.0000
21.0200 744.0000 1.0000
21.0300 745.0000 1.0000
21.0400 721.0000 1.0000
21.0500 692.0000 1.0000
21.0600 754.0000 1.0000
21.0700 784.0000 1.0000
21.0800 797.0000 1.0000
21.0900 744.0000 1.0000
21.1000 782.0000 1.0000
21.1100 784.0000 1.0000
21.1200 771.0000 1.0000
21.1300 741.0000 1.0000
21.1400 745.0000 1.0000
21.1500 773.0000 1.0000
21.1600 764.0000 1.0000
21.1700 782.0000 1.0000
21.1800 797.0000 1.0000
21.1900 736.0000 1.0000
21.2000 765.0000 1.0000
21.2100 761.0000 1.0000
21.2200 757.0000 1.0000
21.2300 762.0000 1.0000
21.2400 717.0000 1.0000
21.2500 776.0000 1.0000
21.2600 779.0000 1.0000
21.2700 802.0000 1.0000
21.2800 748.0000 1.0000
21.2900 740.0000 1.0000
21.3000 753.0000 1.0000
21.3100 738.0000 1.0000
21.3200 786.0000 1.0000
21.3300 776.0000 1.0000
21.3400 764.0000 1.0000
21.3500 761.0000 1.0000
21.3600 776.0000 1.0000
21.3700 753.0000 1.0000
21.3800 773.0000 1.0000
21.3900 725.0000 1.0000
21.4000 783.0000 1.0000
21.4100 787.0000 1.0000
21.4200 796.0000 1.0000
21.4300 749.0000 1.0000
21.4400 777.0000 1.0000
21.4500 759.0000 1.0000
21.4600 802.0000 1.0000
21.4700 811.0000 1.0000
21.4800 743.0000 1.0000
21.4900 777.0000 1.0000
21.5000 773.0000 1.0000
21.5100 745.0000 1.0000
21.5200 766.0000 1.0000
21.5300 752.0000 1.0000
21.5400 740.0000 1.0000
21.5500 743.0000 1.0000
21.5600 752.0000 1.0000
21.5700 789.0000 1.0000
21.5800 788.0000 1.0000
21.5900 754.0000 1.0000
21.6000 786.0000 1.0000
21.6100 741.0000 1.0000
21.6200 745.0000 1.0000
21.6300 775.0000 1.0000
21.6400 734.0000 1.0000
21.6500 740.0000 1.0000
21.6600 749.0000 1.0000
21.6700 741.0000 1.0000
21.6800 716.0000 1.0000
21.6900 761.0000 1.0000
21.7000 765.0000 1.0000
21.7100 751.0000 1.0000
21.7200 732.0000 1.0000
21.7300 745.0000 1.0000
21.7400 757.0000 1.0000
21.7500 797.0000 1.0000
21.7600 753.0000 1.0000
21.7700 769.0000 1.0000
21.7800 752.0000 1.0000
21.7900 787.0000 1.0000
21.8000 724.0000 1.0000
21.8100 766.0000 1.0000
21.8200 749.0000 1.0000
21.8300 730.0000 1.0000
21.8400 767.0000 1.0000
21.8500 792.0000 1.0000
21.8600 790.0000 1.0000
21.8700 761.0000 1.0000
21.8800 726.0000 1.0000
21.8900 711.0000 1.0000
21.9000 764.0000 1.0000
21.9100 743.0000 1.0000
21.9200 734.0000 1.0000
21.9300 740.0000 1.0000
21.9400 737.0000 1.0000
21.9500 805.0000 1.0000
21.9600 771.0000 1.0000
21.9700 738.0000 1.0000
21.9800 722.0000 1.0000
21.9900 762.0000 1.0000
22.0000 787.0000 1.0000
22.0100 768.0000 1.0000
22.0200 782.0000 1.0000
22.0300 804.0000 1.0000
22.0400 795.0000 1.0000
22.0500 801.0000 1.0000
22.0600 756.0000 1.0000
22.0700 759.0000 1.0000
22.0800 791.0000 1.0000
22.0900 767.0000 1.0000
22.1000 766.0000 1.0000
22.1100 737.0000 1.0000
22.1200 728.0000 1.0000
22.1300 714.0000 1.0000
22.1400 765.0000 1.0000
22.1500 780.0000 1.0000
22.1600 759.0000 1.0000
22.1700 744.0000 1.0000
22.1800 793.0000 1.0000
22.1900 788.0000 1.0000
22.2000 728.0000 1.0000
22.2100 796.0000 1.0000
22.2200 711.0000 1.0000
22.2300 750.0000 1.0000
22.2400 740.0000 1.0000
22.2500 739.0000 1.0000
22.2600 733.0000 1.0000
22.2700 747.0000 1.0000
22.2800 754.0000 1.0000
22.2900 781.0000 1.0000
22.3000 741.0000 1.0000
22.3100 739.0000 1.0000
22.3200 736.0000 1.0000
22.3300 715.0000 1.0000
22.3400 705.0000 1.0000
22.3500 728.0000 1.0000
22.3600 761.0000 1.0000
22.3700 810.0000 1.0000
22.3800 768.0000 1.0000
22.3900 735.0000 1.0000
22.4000 763.0000 1.0000
22.4100 725.0000 1.0000
22.4200 722.0000 1.0000
22.4300 782.0000 1.0000
22.4400 740.0000 1.0000
22.4500 739.0000 1.0000
22.4600 774.0000 1.0000
22.4700 778.0000 1.0000
22.4800 739.0000 1.0000
22.4900 776.0000 1.0000
22.5000 777.0000 1.0000
22.5100 746.0000 1.0000
22.5200 764.0000 1.0000
22.5300 727.0000 1.0000
22.5400 699.0000 1.0000
22.5500 771.0000 1.0000
22.5600 753.0000 1.0000
22.5700 794.0000 1.0000
22.5800 762.0000 1.0000
22.5900 739.0000 1.0000
22.6000 712.0000 1.0000
22.6100 749.0000 1.0000
22.6200 739.0000 1.0000
22.6300 781.0000 1.0000
22.6400 740.0000 1.0000
22.6500 715.0000 1.0000
22.6600 786.0000 1.0000
22.6700 778.0000 1.0000
22.6800 705.0000 1.0000
22.6900 775.0000 1.0000
22.7000 742.0000 1.0000
22.7100 751.0000 1.0000
22.7200 731.0000 1.0000
22.7300 742.0000 1.0000
22.7400 776.0000 1.0000
22.7500 742.0000 1.0000
22.7600 721.0000 1.0000
22.7700 715.0000 1.0000
22.7800 695.0000 1.0000
22.7900 726.0000 1.0000
22.8000 745.0000 1.0000
22.8100 739.0000 1.0000
22.8200 754.0000 1.0000
22.8300 734.0000 1.0000
22.8400 752.0000 1.0000
22.8500 782.0000 1.0000
22.8600 783.0000 1.0000
22.8700 730.0000 1.0000
22.8800 719.0000 1.0000
22.8900 735.0000 1.0000
22.9000 750.0000 1.0000
22.9100 733.0000 1.0000
22.9200 712.0000 1.0000
22.9300 728.0000 1.0000
22.9400 712.0000 1.0000
22.9500 739.0000 1.0000
22.9600 701.0000 1.0000
22.9700 695.0000 1.0000
22.9800 749.0000 1.0000
22.9900 710.0000 1.0000
23.0000 725.0000 1.0000
23.0100 738.0000 1.0000
23.0200 764.0000 1.0000
23.0300 764.0000 1.0000
23.0400 712.0000 1.0000
23.0500 758.0000 1.0000
23.0600 734.0000 1.0000
23.0700 757.0000 1.0000
23.0800 724.0000 1.0000
23.0900 721.0000 1.0000
23.1000 743.0000 1.0000
23.1100 728.0000 1.0000
23.1200 728.0000 1.0000
23.1300 768.0000 1.0000
23.1400 723.0000 1.0000
23.1500 772.0000 1.0000
23.1600 745.0000 1.0000
23.1700 792.0000 1.0000
23.1800 788.0000 1.0000
23.1900 766.0000 1.0000
23.2000 762.0000 1.0000
23.2100 756.0000 1.0000
23.2200 735.0000 1.0000
23.2300 717.0000 1.0000
23.2400 723.0000 1.0000
23.2500 716.0000 1.0000
23.2600 721.0000 1.0000
23.2700 715.0000 1.0000
23.2800 749.0000 1.0000
23.2900 723.0000 1.0000
23.3000 771.0000 1.0000
23.3100 751.0000 1.0000
23.3200 714.0000 1.0000
23.3300 748.0000 1.0000
23.3400 764.0000 1.0000
23.3500 720.0000 1.0000
23.3600 721.0000 1.0000
23.3700 725.0000 1.0000
23.3800 766.0000 1.0000
23.3900 777.0000 1.0000
23.4000 769.0000 1.0000
23.4100 743.0000 1.0000
23.4200 745.0000 1.0000
23.4300 710.0000 1.0000
23.4400 734.0000 1.0000
23.4500 740.0000 1.0000
23.4600 704.0000 1.0000
23.4700 733.0000 1.0000
23.4800 720.0000 1.0000
23.4900 698.0000 1.0000
23.5000 734.0000 1.0000
23.5100 734.0000 1.0000
23.5200 750.0000 1.0000
23.5300 750.0000 1.0000
23.5400 721.0000 1.0000
23.5500 745.0000 1.0000
23.5600 758.0000 1.0000
23.5700 762.0000 1.0000
23.5800 729.0000 1.0000
23.5900 728.0000 1.0000
23.6000 709.0000 1.0000
23.6100 730.0000 1.0000
23.6200 673.0000 1.0000
23.6300 719.0000 1.0000
23.6400 750.0000 1.0000
23.6500 739.0000 1.0000
23.6600 731.0000 1.0000
23.6700 789.0000 1.0000
23.6800 722.0000 1.0000
23.6900 699.0000 1.0000
23.7000 750.0000 1.0000
23.7100 714.0000 1.0000
23.7200 750.0000 1.0000
23.7300 744.0000 1.0000
23.7400 771.0000 1.0000
23.7500 748.0000 1.0000
23.7600 746.0000 1.0000
23.7700 757.0000 1.0000
23.7800 741.0000 1.0000
23.7900 752.0000 1.0000
23.8000 716.0000 1.0000
23.8100 739.0000 1.0000
23.8200 759.0000 1.0000
23.8300 742.0000 1.0000
23.8400 740.0000 1.0000
23.8500 741.0000 1.0000
23.8600 757.0000 1.0000
23.8700 740.0000 1.0000
23.8800 682.0000 1.0000
23.8900 720.0000 1.0000
23.9000 779.0000 1.0000
23.9100 757.0000 1.0000
23.9200 771.0000 1.0000
23.9300 725.0000 1.0000
23.9400 747.0000 1.0000
23.9500 760.0000 1.0000
23.9600 734.0000 1.0000
23.9700 740.0000 1.0000
23.9800 782.0000 1.0000
23.9900 801.0000 1.0000
24.0000 773.0000 1.0000
24.0100 760.0000 1.0000
24.0200 823.0000 1.0000
24.0300 775.0000 1.0000
24.0400 802.0000 1.0000
24.0500 821.0000 1.0000
24.0600 819.0000 1.0000
24.0700 780.0000 1.0000
24.0800 801.0000 1.0000
24.0900 824.0000 1.0000
24.1000 853.0000 1.0000
24.1100 827.0000 1.0000
24.1200 810.0000 1.0000
24.1300 813.0000 1.0000
24.1400 798.0000 1.0000
24.1500 807.0000 1.0000
24.1600 829.0000 1.0000
24.1700 810.0000 1.0000
24.1800 761.0000 1.0000
24.1900 775.0000 1.0000
24.2000 750.0000 1.0000
24.2100 754.0000 1.0000
24.2200 802.0000 1.0000
24.2300 760.0000 1.0000
24.2400 746.0000 1.0000
24.2500 744.0000 1.0000
24.2600 780.0000 1.0000
24.2700 738.0000 1.0000
24.2800 731.0000 1.0000
24.2900 805.0000 1.0000
24.3000 778.0000 1.0000
24.3100 766.0000 1.0000
24.3200 763.0000 1.0000
24.3300 760.0000 1.0000
24.3400 720.0000 1.0000
24.3500 749.0000 1.0000
24.3600 755.0000 1.0000
24.3700 720.0000 1.0000
24.3800 741.0000 1.0000
24.3900 713.0000 1.0000
24.4000 728.0000 1.0000
24.4100 691.0000 1.0000
24.4200 743.0000 1.0000
24.4300 718.0000 1.0000
24.4400 718.0000 1.0000
24.4500 747.0000 1.0000
24.4600 693.0000 1.0000
24.4700 702.0000 1.0000
24.4800 704.0000 1.0000
24.4900 740.0000 1.0000
24.5000 735.0000 1.0000
24.5100 732.0000 1.0000
24.5200 709.0000 1.0000
24.5300 702.0000 1.0000
24.5400 747.0000 1.0000
24.5500 742.0000 1.0000
24.5600 720.0000 1.0000
24.5700 734.0000 1.0000
24.5800 695.0000 1.0000
24.5900 734.0000 1.0000
24.6000 752.0000 1.0000
24.6100 744.0000 1.0000
24.6200 742.0000 1.0000
24.6300 711.0000 1.0000
24.6400 741.0000 1.0000
24.6500 724.0000 1.0000
24.6600 729.0000 1.0000
24.6700 729.0000 1.0000
24.6800 752.0000 1.0000
24.6900 704.0000 1.0000
24.7000 675.0000 1.0000
24.7100 678.0000 1.0000
24.7200 719.0000 1.0000
24.7300 716.0000 1.0000
24.7400 668.0000 1.0000
24.7500 726.0000 1.0000
24.7600 756.0000 1.0000
24.7700 705.0000 1.0000
24.7800 688.0000 1.0000
24.7900 727.0000 1.0000
24.8000 749.0000 1.0000
24.8100 698.0000 1.0000
24.8200 704.0000 1.0000
24.8300 720.0000 1.0000
24.8400 715.0000 1.0000
24.8500 720.0000 1.0000
24.8600 708.0000 1.0000
24.8700 702.0000 1.0000
24.8800 702.0000 1.0000
24.8900 719.0000 1.0000
24.9000 716.0000 1.0000
24.9100 702.0000 1.0000
24.9200 746.0000 1.0000
24.9300 765.0000 1.0000
24.9400 712.0000 1.0000
24.9500 749.0000 1.0000
24.9600 705.0000 1.0000
24.9700 698.0000 1.0000
24.9800 735.0000 1.0000
24.9900 700.0000 1.0000
25.0000 694.0000 1.0000
25.0100 701.0000 1.0000
25.0200 731.0000 1.0000
25.0300 748.0000 1.0000
25.0400 724.0000 1.0000
25.0500 703.0000 1.0000
25.0600 693.0000 1.0000
25.0700 738.0000 1.0000
25.0800 682.0000 1.0000
25.0900 735.0000 1.0000
25.1000 665.0000 1.0000
25.1100 705.0000 1.0000
25.1200 699.0000 1.0000
25.1300 664.0000 1.0000
25.1400 711.0000 1.0000
25.1500 747.0000 1.0000
25.1600 705.0000 1.0000
25.1700 683.0000 1.0000
25.1800 698.0000 1.0000
25.1900 682.0000 1.0000
25.2000 755.0000 1.0000
25.2100 698.0000 1.0000
25.2200 703.0000 1.0000
25.2300 699.0000 1.0000
25.2400 714.0000 1.0000
25.2500 725.0000 1.0000
25.2600 716.0000 1.0000
25.2700 716.0000 1.0000
25.2800 702.0000 1.0000
25.2900 744.0000 1.0000
25.3000 670.0000 1.0000
25.3100 707.0000 1.0000
25.3200 697.0000 1.0000
25.3300 693.0000 1.0000
25.3400 737.0000 1.0000
25.3500 731.0000 1.0000
25.3600 737.0000 1.0000
25.3700 720.0000 1.0000
25.3800 713.0000 1.0000
25.3900 700.0000 1.0000
25.4000 700.0000 1.0000
25.4100 721.0000 1.0000
25.4200 737.0000 1.0000
25.4300 713.0000 1.0000
25.4400 676.0000 1.0000
25.4500 677.0000 1.0000
25.4600 671.0000 1.0000
25.4700 724.0000 1.0000
25.4800 688.0000 1.0000
25.4900 759.0000 1.0000
25.5000 713.0000 1.0000
25.5100 689.0000 1.0000
25.5200 686.0000 1.0000
25.5300 737.0000 1.0000
25.5400 690.0000 1.0000
25.5500 706.0000 1.0000
25.5600 718.0000 1.0000
25.5700 718.0000 1.0000
25.5800 681.0000 1.0000
25.5900 696.0000 1.0000
25.6000 703.0000 1.0000
25.6100 653.0000 1.0000
25.6200 718.0000 1.0000
25.6300 762.0000 1.0000
25.6400 707.0000 1.0000
25.6500 722.0000 1.0000
25.6600 724.0000 1.0000
25.6700 733.0000 1.0000
25.6800 718.0000 1.0000
25.6900 728.0000 1.0000
25.7000 776.0000 1.0000
25.7100 748.0000 1.0000
25.7200 746.0000 1.0000
25.7300 770.0000 1.0000
25.7400 704.0000 1.0000
25.7500 703.0000 1.0000
25.7600 728.0000 1.0000
25.7700 669.0000 1.0000
25.7800 754.0000 1.0000
25.7900 751.0000 1.0000
25.8000 719.0000 1.0000
25.8100 715.0000 1.0000
25.8200 693.0000 1.0000
25.8300 717.0000 1.0000
25.8400 710.0000 1.0000
25.8500 760.0000 1.0000
25.8600 737.0000 1.0000
25.8700 729.0000 1.0000
25.8800 731.0000 1.0000
25.8900 720.0000 1.0000
25.9000 722.0000 1.0000
25.9100 728.0000 1.0000
25.9200 769.0000 1.0000
25.9300 791.0000 1.0000
25.9400 782.0000 1.0000
25.9500 783.0000 1.0000
25.9600 776.0000 1.0000
25.9700 785.0000 1.0000
25.9800 717.0000 1.0000
25.9900 740.0000 1.0000
26.0000 806.0000 1.0000
26.0100 740.0000 1.0000
26.0200 782.0000 1.0000
26.0300 790.0000 1.0000
26.0400 807.0000 1.0000
26.0500 768.0000 1.0000
26.0600 765.0000 1.0000
26.0700 846.0000 1.0000
26.0800 871.0000 1.0000
26.0900 789.0000 1.0000
26.1000 817.0000 1.0000
26.1100 844.0000 1.0000
26.1200 865.0000 1.0000
26.1300 822.0000 1.0000
26.1400 861.0000 1.0000
26.1500 836.0000 1.0000
26.1600 861.0000 1.0000
26.1700 841.0000 1.0000
26.1800 857.0000 1.0000
26.1900 902.0000 1.0000
26.2000 890.0000 1.0000
26.2100 939.0000 1.0000
26.2200 950.0000 1.0000
26.2300 948.0000 1.0000
26.2400 948.0000 1.0000
26.2500 1023.0000 1.0000
26.2600 1025.0000 1.0000
26.2700 1059.0000 1.0000
26.2800 1081.0000 1.0000
26.2900 1084.0000 1.0000
26.3000 1094.0000 1.0000
26.3100 1054.0000 1.0000
26.3200 1159.0000 1.0000
26.3300 1209.0000 1.0000
26.3400 1214.0000 1.0000
26.3500 1213.0000 1.0000
26.3600 1268.0000 1.0000
26.3700 1384.0000 1.0000
26.3800 1348.0000 1.0000
26.3900 1372.0000 1.0000
26.4000 1434.0000 1.0000
26.4100 1444.0000 1.0000
26.4200 1423.0000 1.0000
26.4300 1503.0000 1.0000
26.4400 1411.0000 1.0000
26.4500 1412.0000 1.0000
26.4600 1462.0000 1.0000
26.4700 1464.0000 1.0000
26.4800 1427.0000 1.0000
26.4900 1415.0000 1.0000
26.5000 1381.0000 1.0000
26.5100 1358.0000 1.0000
26.5200 1315.0000 1.0000
26.5300 1278.0000 1.0000
26.5400 1236.0000 1.0000
26.5500 1204.0000 1.0000
26.5600 1179.0000 1.0000
26.5700 1169.0000 1.0000
26.5800 1150.0000 1.0000
26.5900 1038.0000 1.0000
26.6000 1049.0000 1.0000
26.6100 1067.0000 1.0000
26.6200 1014.0000 1.0000
26.6300 996.0000 1.0000
26.6400 975.0000 1.0000
26.6500 981.0000 1.0000
26.6600 983.0000 1.0000
26.6700 908.0000 1.0000
26.6800 928.0000 1.0000
26.6900 908.0000 1.0000
26.7000 871.0000 1.0000
26.7100 907.0000 1.0000
26.7200 901.0000 1.0000
26.7300 848.0000 1.0000
26.7400 848.0000 1.0000
26.7500 829.0000 1.0000
26.7600 850.0000 1.0000
26.7700 780.0000 1.0000
26.7800 798.0000 1.0000
26.7900 755.0000 1.0000
26.8000 807.0000 1.0000
26.8100 848.0000 1.0000
26.8200 767.0000 1.0000
26.8300 745.0000 1.0000
26.8400 765.0000 1.0000
26.8500 718.0000 1.0000
26.8600 724.0000 1.0000
26.8700 779.0000 1.0000
26.8800 722.0000 1.0000
26.8900 742.0000 1.0000
26.9000 758.0000 1.0000
26.9100 741.0000 1.0000
26.9200 697.0000 1.0000
26.9300 709.0000 1.0000
26.9400 724.0000 1.0000
26.9500 728.0000 1.0000
26.9600 696.0000 1.0000
26.9700 721.0000 1.0000
26.9800 743.0000 1.0000
26.9900 753.0000 1.0000
27.0000 768.0000 1.0000
27.0100 706.0000 1.0000
27.0200 663.0000 1.0000
27.0300 673.0000 1.0000
27.0400 672.0000 1.0000
27.0500 667.0000 1.0000
27.0600 734.0000 1.0000
27.0700 705.0000 1.0000
27.0800 683.0000 1.0000
27.0900 673.0000 1.0000
27.1000 682.0000 1.0000
27.1100 646.0000 1.0000
27.1200 686.0000 1.0000
27.1300 651.0000 1.0000
27.1400 648.0000 1.0000
27.1500 673.0000 1.0000
27.1600 649.0000 1.0000
27.1700 698.0000 1.0000
27.1800 673.0000 1.0000
27.1900 691.0000 1.0000
27.2000 710.0000 1.0000
27.2100 686.0000 1.0000
27.2200 685.0000 1.0000
27.2300 642.0000 1.0000
27.2400 717.0000 1.0000
27.2500 736.0000 1.0000
27.2600 751.0000 1.0000
27.2700 682.0000 1.0000
27.2800 652.0000 1.0000
27.2900 657.0000 1.0000
27.3000 606.0000 1.0000
27.3100 672.0000 1.0000
27.3200 661.0000 1.0000
27.3300 660.0000 1.0000
27.3400 672.0000 1.0000
27.3500 652.0000 1.0000
27.3600 627.0000 1.0000
27.3700 684.0000 1.0000
27.3800 624.0000 1.0000
27.3900 658.0000 1.0000
27.4000 637.0000 1.0000
27.4100 637.0000 1.0000
27.4200 619.0000 1.0000
27.4300 630.0000 1.0000
27.4400 632.0000 1.0000
27.4500 654.0000 1.0000
27.4600 654.0000 1.0000
27.4700 630.0000 1.0000
27.4800 635.0000 1.0000
27.4900 659.0000 1.0000
27.5000 651.0000 1.0000
27.5100 643.0000 1.0000
27.5200 646.0000 1.0000
27.5300 663.0000 1.0000
27.5400 646.0000 1.0000
27.5500 633.0000 1.0000
27.5600 639.0000 1.0000
27.5700 652.0000 1.0000
27.5800 667.0000 1.0000
27.5900 678.0000 1.0000
27.6000 637.0000 1.0000
27.6100 655.0000 1.0000
27.6200 619.0000 1.0000
27.6300 663.0000 1.0000
27.6400 650.0000 1.0000
27.6500 651.0000 1.0000
27.6600 650.0000 1.0000
27.6700 624.0000 1.0000
27.6800 663.0000 1.0000
27.6900 640.0000 1.0000
27.7000 642.0000 1.0000
27.7100 638.0000 1.0000
27.7200 649.0000 1.0000
27.7300 633.0000 1.0000
27.7400 634.0000 1.0000
27.7500 657.0000 1.0000
27.7600 653.0000 1.0000
27.7700 608.0000 1.0000
27.7800 639.0000 1.0000
27.7900 604.0000 1.0000
27.8000 573.0000 1.0000
27.8100 641.0000 1.0000
27.8200 618.0000 1.0000
27.8300 624.0000 1.0000
27.8400 603.0000 1.0000
27.8500 587.0000 1.0000
27.8600 629.0000 1.0000
27.8700 648.0000 1.0000
27.8800 610.0000 1.0000
27.8900 664.0000 1.0000
27.9000 637.0000 1.0000
27.9100 635.0000 1.0000
27.9200 643.0000 1.0000
27.9300 618.0000 1.0000
27.9400 624.0000 1.0000
27.9500 636.0000 1.0000
27.9600 597.0000 1.0000
27.9700 646.0000 1.0000
27.9800 649.0000 1.0000
27.9900 644.0000 1.0000
28.0000 619.0000 1.0000
28.0100 631.0000 1.0000
28.0200 625.0000 1.0000
28.0300 625.0000 1.0000
28.0400 605.0000 1.0000
28.0500 641.0000 1.0000
28.0600 669.0000 1.0000
28.0700 653.0000 1.0000
28.0800 625.0000 1.0000
28.0900 615.0000 1.0000
28.1000 666.0000 1.0000
28.1100 685.0000 1.0000
28.1200 608.0000 1.0000
28.1300 623.0000 1.0000
28.1400 614.0000 1.0000
28.1500 629.0000 1.0000
28.1600 622.0000 1.0000
28.1700 652.0000 1.0000
28.1800 688.0000 1.0000
28.1900 657.0000 1.0000
28.2000 602.0000 1.0000
28.2100 627.0000 1.0000
28.2200 646.0000 1.0000
28.2300 663.0000 1.0000
28.2400 625.0000 1.0000
28.2500 686.0000 1.0000
28.2600 670.0000 1.0000
28.2700 706.0000 1.0000
28.2800 717.0000 1.0000
28.2900 653.0000 1.0000
28.3000 719.0000 1.0000
28.3100 683.0000 1.0000
28.3200 664.0000 1.0000
28.3300 703.0000 1.0000
28.3400 692.0000 1.0000
28.3500 643.0000 1.0000
28.3600 658.0000 1.0000
28.3700 660.0000 1.0000
28.3800 669.0000 1.0000
28.3900 678.0000 1.0000
28.4000 659.0000 1.0000
28.4100 620.0000 1.0000
28.4200 681.0000 1.0000
28.4300 632.0000 1.0000
28.4400 667.0000 1.0000
28.4500 641.0000 1.0000
28.4600 604.0000 1.0000
28.4700 660.0000 1.0000
28.4800 663.0000 1.0000
28.4900 672.0000 1.0000
28.5000 654.0000 1.0000
28.5100 649.0000 1.0000
28.5200 612.0000 1.0000
28.5300 669.0000 1.0000
28.5400 614.0000 1.0000
28.5500 587.0000 1.0000
28.5600 601.0000 1.0000
28.5700 620.0000 1.0000
28.5800 569.0000 1.0000
28.5900 628.0000 1.0000
28.6000 594.0000 1.0000
28.6100 625.0000 1.0000
28.6200 588.0000 1.0000
28.6300 603.0000 1.0000
28.6400 601.0000 1.0000
28.6500 657.0000 1.0000
28.6600 609.0000 1.0000
28.6700 607.0000 1.0000
28.6800 609.0000 1.0000
28.6900 586.0000 1.0000
28.7000 590.0000 1.0000
28.7100 599.0000 1.0000
28.7200 608.0000 1.0000
28.7300 627.0000 1.0000
28.7400 595.0000 1.0000
28.7500 576.0000 1.0000
28.7600 604.0000 1.0000
28.7700 569.0000 1.0000
28.7800 588.0000 1.0000
28.7900 608.0000 1.0000
28.8000 616.0000 1.0000
28.8100 603.0000 1.0000
28.8200 584.0000 1.0000
28.8300 602.0000 1.0000
28.8400 588.0000 1.0000
28.8500 565.0000 1.0000
28.8600 609.0000 1.0000
28.8700 580.0000 1.0000
28.8800 613.0000 1.0000
28.8900 586.0000 1.0000
28.9000 628.0000 1.0000
28.9100 626.0000 1.0000
28.9200 615.0000 1.0000
28.9300 589.0000 1.0000
28.9400 571.0000 1.0000
28.9500 614.0000 1.0000
28.9600 617.0000 1.0000
28.9700 615.0000 1.0000
28.9800 627.0000 1.0000
28.9900 617.0000 1.0000
29.0000 579.0000 1.0000
29.0100 610.0000 1.0000
29.0200 597.0000 1.0000
29.0300 554.0000 1.0000
29.0400 559.0000 1.0000
29.0500 552.0000 1.0000
29.0600 613.0000 1.0000
29.0700 597.0000 1.0000
29.0800 623.0000 1.0000
29.0900 577.0000 1.0000
29.1000 601.0000 1.0000
29.1100 585.0000 1.0000
29.1200 565.0000 1.0000
29.1300 585.0000 1.0000
29.1400 573.0000 1.0000
29.1500 588.0000 1.0000
29.1600 605.0000 1.0000
29.1700 557.0000 1.0000
29.1800 593.0000 1.0000
29.1900 586.0000 1.0000
29.2000 611.0000 1.0000
29.2100 599.0000 1.0000
29.2200 589.0000 1.0000
29.2300 554.0000 1.0000
29.2400 576.0000 1.0000
29.2500 569.0000 1.0000
29.2600 580.0000 1.0000
29.2700 573.0000 1.0000
29.2800 554.0000 1.0000
29.2900 605.0000 1.0000
29.3000 607.0000 1.0000
29.3100 582.0000 1.0000
29.3200 602.0000 1.0000
29.3300 611.0000 1.0000
29.3400 594.0000 1.0000
29.3500 597.0000 1.0000
29.3600 591.0000 1.0000
29.3700 558.0000 1.0000
29.3800 599.0000 1.0000
29.3900 585.0000 1.0000
29.4000 575.0000 1.0000
29.4100 570.0000 1.0000
29.4200 547.0000 1.0000
29.4300 598.0000 1.0000
29.4400 590.0000 1.0000
29.4500 591.0000 1.0000
29.4600 578.0000 1.0000
29.4700 590.0000 1.0000
29.4800 557.0000 1.0000
29.4900 526.0000 1.0000
29.5000 554.0000 1.0000
29.5100 573.0000 1.0000
29.5200 596.0000 1.0000
29.5300 601.0000 1.0000
29.5400 539.0000 1.0000
29.5500 558.0000 1.0000
29.5600 559.0000 1.0000
29.5700 582.0000 1.0000
29.5800 616.0000 1.0000
29.5900 598.0000 1.0000
29.6000 586.0000 1.0000
29.6100 548.0000 1.0000
29.6200 569.0000 1.0000
29.6300 572.0000 1.0000
29.6400 542.0000 1.0000
29.6500 553.0000 1.0000
29.6600 615.0000 1.0000
29.6700 583.0000 1.0000
29.6800 559.0000 1.0000
29.6900 587.0000 1.0000
29.7000 573.0000 1.0000
29.7100 570.0000 1.0000
29.7200 579.0000 1.0000
29.7300 526.0000 1.0000
29.7400 553.0000 1.0000
29.7500 547.0000 1.0000
29.7600 569.0000 1.0000
29.7700 560.0000 1.0000
29.7800 592.0000 1.0000
29.7900 592.0000 1.0000
29.8000 546.0000 1.0000
29.8100 563.0000 1.0000
29.8200 582.0000 1.0000
29.8300 559.0000 1.0000
29.8400 560.0000 1.0000
29.8500 611.0000 1.0000
29.8600 604.0000 1.0000
29.8700 585.0000 1.0000
29.8800 576.0000 1.0000
29.8900 604.0000 1.0000
29.9000 573.0000 1.0000
29.9100 553.0000 1.0000
29.9200 556.0000 1.0000
29.9300 537.0000 1.0000
29.9400 594.0000 1.0000
29.9500 566.0000 1.0000
29.9600 588.0000 1.0000
29.9700 511.0000 1.0000
29.9800 542.0000 1.0000
29.9900 563.0000 1.0000
30.0000 566.0000 1.0000
30.0100 568.0000 1.0000
30.0200 560.0000 1.0000
30.0300 550.0000 1.0000
30.0400 574.0000 1.0000
30.0500 556.0000 1.0000
30.0600 558.0000 1.0000
30.0700 546.0000 1.0000
30.0800 594.0000 1.0000
30.0900 601.0000 1.0000
30.1000 559.0000 1.0000
30.1100 551.0000 1.0000
30.1200 538.0000 1.0000
30.1300 550.0000 1.0000
30.1400 580.0000 1.0000
30.1500 577.0000 1.0000
30.1600 532.0000 1.0000
30.1700 550.0000 1.0000
30.1800 578.0000 1.0000
30.1900 558.0000 1.0000
30.2000 532.0000 1.0000
30.2100 513.0000 1.0000
30.2200 556.0000 1.0000
30.2300 580.0000 1.0000
30.2400 554.0000 1.0000
30.2500 568.0000 1.0000
30.2600 576.0000 1.0000
30.2700 586.0000 1.0000
30.2800 596.0000 1.0000
30.2900 603.0000 1.0000
30.3000 566.0000 1.0000
30.3100 550.0000 1.0000
30.3200 562.0000 1.0000
30.3300 568.0000 1.0000
30.3400 570.0000 1.0000
30.3500 598.0000 1.0000
30.3600 571.0000 1.0000
30.3700 565.0000 1.0000
30.3800 591.0000 1.0000
30.3900 554.0000 1.0000
30.4000 592.0000 1.0000
30.4100 572.0000 1.0000
30.4200 613.0000 1.0000
30.4300 551.0000 1.0000
30.4400 549.0000 1.0000
30.4500 547.0000 1.0000
30.4600 537.0000 1.0000
30.4700 554.0000 1.0000
30.4800 570.0000 1.0000
30.4900 588.0000 1.0000
30.5000 586.0000 1.0000
30.5100 587.0000 1.0000
30.5200 582.0000 1.0000
30.5300 577.0000 1.0000
30.5400 549.0000 1.0000
30.5500 591.0000 1.0000
30.5600 593.0000 1.0000
30.5700 552.0000 1.0000
30.5800 550.0000 1.0000
30.5900 572.0000 1.0000
30.6000 537.0000 1.0000
30.6100 549.0000 1.0000
30.6200 542.0000 1.0000
30.6300 569.0000 1.0000
30.6400 567.0000 1.0000
30.6500 548.0000 1.0000
30.6600 520.0000 1.0000
30.6700 587.0000 1.0000
30.6800 589.0000 1.0000
30.6900 566.0000 1.0000
30.7000 541.0000 1.0000
30.7100 581.0000 1.0000
30.7200 575.0000 1.0000
30.7300 552.0000 1.0000
30.7400 554.0000 1.0000
30.7500 544.0000 1.0000
30.7600 561.0000 1.0000
30.7700 576.0000 1.0000
30.7800 542.0000 1.0000
30.7900 579.0000 1.0000
30.8000 563.0000 1.0000
30.8100 548.0000 1.0000
30.8200 568.0000 1.0000
30.8300 529.0000 1.0000
30.8400 562.0000 1.0000
30.8500 554.0000 1.0000
30.8600 581.0000 1.0000
30.8700 566.0000 1.0000
30.8800 546.0000 1.0000
30.8900 561.0000 1.0000
30.9000 532.0000 1.0000
30.9100 571.0000 1.0000
30.9200 562.0000 1.0000
30.9300 552.0000 1.0000
30.9400 593.0000 1.0000
30.9500 547.0000 1.0000
30.9600 567.0000 1.0000
30.9700 553.0000 1.0000
30.9800 562.0000 1.0000
30.9900 571.0000 1.0000
31.0000 582.0000 1.0000
31.0100 572.0000 1.0000
31.0200 570.0000 1.0000
31.0300 592.0000 1.0000
31.0400 577.0000 1.0000
31.0500 610.0000 1.0000
31.0600 595.0000 1.0000
31.0700 601.0000 1.0000
31.0800 569.0000 1.0000
31.0900 578.0000 1.0000
31.1000 579.0000 1.0000
31.1100 617.0000 1.0000
31.1200 621.0000 1.0000
31.1300 633.0000 1.0000
31.1400 565.0000 1.0000
31.1500 572.0000 1.0000
31.1600 600.0000 1.0000
31.1700 610.0000 1.0000
31.1800 640.0000 1.0000
31.1900 611.0000 1.0000
31.2000 616.0000 1.0000
31.2100 632.0000 1.0000
31.2200 616.0000 1.0000
31.2300 647.0000 1.0000
31.2400 616.0000 1.0000
31.2500 651.0000 1.0000
31.2600 637.0000 1.0000
31.2700 605.0000 1.0000
31.2800 662.0000 1.0000
31.2900 656.0000 1.0000
31.3000 643.0000 1.0000
31.3100 685.0000 1.0000
31.3200 717.0000 1.0000
31.3300 721.0000 1.0000
31.3400 764.0000 1.0000
31.3500 734.0000 1.0000
31.3600 763.0000 1.0000
31.3700 783.0000 1.0000
31.3800 797.0000 1.0000
31.3900 903.0000 1.0000
31.4000 887.0000 1.0000
31.4100 871.0000 1.0000
31.4200 867.0000 1.0000
31.4300 964.0000 1.0000
31.4400 1016.0000 1.0000
31.4500 1080.0000 1.0000
31.4600 1090.0000 1.0000
31.4700 1101.0000 1.0000
31.4800 1157.0000 1.0000
31.4900 1225.0000 1.0000
31.5000 1258.0000 1.0000
31.5100 1275.0000 1.0000
31.5200 1255.0000 1.0000
31.5300 1301.0000 1.0000
31.5400 1362.0000 1.0000
31.5500 1439.0000 1.0000
31.5600 1446.0000 1.0000
31.5700 1459.0000 1.0000
31.5800 1543.0000 1.0000
31.5900 1618.0000 1.0000
31.6000 1586.0000 1.0000
31.6100 1659.0000 1.0000
31.6200 1614.0000 1.0000
31.6300 1610.0000 1.0000
31.6400 1544.0000 1.0000
31.6500 1477.0000 1.0000
31.6600 1392.0000 1.0000
31.6700 1323.0000 1.0000
31.6800 1362.0000 1.0000
31.6900 1242.0000 1.0000
31.7000 1146.0000 1.0000
31.7100 1105.0000 1.0000
31.7200 1072.0000 1.0000
31.7300 1014.0000 1.0000
31.7400 909.0000 1.0000
31.7500 827.0000 1.0000
31.7600 795.0000 1.0000
31.7700 727.0000 1.0000
31.7800 746.0000 1.0000
31.7900 672.0000 1.0000
31.8000 669.0000 1.0000
31.8100 640.0000 1.0000
31.8200 628.0000 1.0000
31.8300 605.0000 1.0000
31.8400 660.0000 1.0000
31.8500 592.0000 1.0000
31.8600 604.0000 1.0000
31.8700 597.0000 1.0000
31.8800 588.0000 1.0000
31.8900 586.0000 1.0000
31.9000 593.0000 1.0000
31.9100 554.0000 1.0000
31.9200 511.0000 1.0000
31.9300 536.0000 1.0000
31.9400 570.0000 1.0000
31.9500 579.0000 1.0000
31.9600 577.0000 1.0000
31.9700 527.0000 1.0000
31.9800 554.0000 1.0000
31.9900 518.0000 1.0000
32.0000 554.0000 1.0000
32.0100 522.0000 1.0000
32.0200 515.0000 1.0000
32.0300 543.0000 1.0000
32.0400 541.0000 1.0000
32.0500 527.0000 1.0000
32.0600 545.0000 1.0000
32.0700 546.0000 1.0000
32.0800 498.0000 1.0000
32.0900 489.0000 1.0000
32.1000 525.0000 1.0000
32.1100 562.0000 1.0000
32.1200 570.0000 1.0000
32.1300 542.0000 1.0000
32.1400 542.0000 1.0000
32.1500 533.0000 1.0000
32.1600 562.0000 1.0000
32.1700 566.0000 1.0000
32.1800 551.0000 1.0000
32.1900 539.0000 1.0000
32.2000 524.0000 1.0000
32.2100 537.0000 1.0000
32.2200 525.0000 1.0000
32.2300 523.0000 1.0000
32.2400 510.0000 1.0000
32.2500 534.0000 1.0000
32.2600 493.0000 1.0000
32.2700 552.0000 1.0000
32.2800 581.0000 1.0000
32.2900 537.0000 1.0000
32.3000 528.0000 1.0000
32.3100 523.0000 1.0000
32.3200 530.0000 1.0000
32.3300 516.0000 1.0000
32.3400 511.0000 1.0000
32.3500 493.0000 1.0000
32.3600 527.0000 1.0000
32.3700 521.0000 1.0000
32.3800 555.0000 1.0000
32.3900 519.0000 1.0000
32.4000 516.0000 1.0000
32.4100 512.0000 1.0000
32.4200 504.0000 1.0000
32.4300 497.0000 1.0000
32.4400 556.0000 1.0000
32.4500 552.0000 1.0000
32.4600 534.0000 1.0000
32.4700 536.0000 1.0000
32.4800 517.0000 1.0000
32.4900 497.0000 1.0000
32.5000 529.0000 1.0000
32.5100 507.0000 1.0000
32.5200 531.0000 1.0000
32.5300 559.0000 1.0000
32.5400 575.0000 1.0000
32.5500 522.0000 1.0000
32.5600 523.0000 1.0000
32.5700 540.0000 1.0000
32.5800 563.0000 1.0000
32.5900 552.0000 1.0000
32.6000 529.0000 1.0000
32.6100 531.0000 1.0000
32.6200 512.0000 1.0000
32.6300 502.0000 1.0000
32.6400 510.0000 1.0000
32.6500 509.0000 1.0000
32.6600 542.0000 1.0000
32.6700 537.0000 1.0000
32.6800 523.0000 1.0000
32.6900 503.0000 1.0000
32.7000 510.0000 1.0000
32.7100 504.0000 1.0000
32.7200 513.0000 1.0000
32.7300 578.0000 1.0000
32.7400 520.0000 1.0000
32.7500 502.0000 1.0000
32.7600 517.0000 1.0000
32.7700 511.0000 1.0000
32.7800 526.0000 1.0000
32.7900 520.0000 1.0000
32.8000 562.0000 1.0000
32.8100 529.0000 1.0000
32.8200 562.0000 1.0000
32.8300 583.0000 1.0000
32.8400 533.0000 1.0000
32.8500 598.0000 1.0000
32.8600 599.0000 1.0000
32.8700 529.0000 1.0000
32.8800 590.0000 1.0000
32.8900 584.0000 1.0000
32.9000 565.0000 1.0000
32.9100 546.0000 1.0000
32.9200 556.0000 1.0000
32.9300 531.0000 1.0000
32.9400 571.0000 1.0000
32.9500 567.0000 1.0000
32.9600 565.0000 1.0000
32.9700 567.0000 1.0000
32.9800 585.0000 1.0000
32.9900 616.0000 1.0000
33.0000 563.0000 1.0000
33.0100 633.0000 1.0000
33.0200 666.0000 1.0000
33.0300 639.0000 1.0000
33.0400 590.0000 1.0000
33.0500 622.0000 1.0000
33.0600 612.0000 1.0000
33.0700 648.0000 1.0000
33.0800 641.0000 1.0000
33.0900 639.0000 1.0000
33.1000 655.0000 1.0000
33.1100 681.0000 1.0000
33.1200 641.0000 1.0000
33.1300 655.0000 1.0000
33.1400 630.0000 1.0000
33.1500 620.0000 1.0000
33.1600 639.0000 1.0000
33.1700 637.0000 1.0000
33.1800 635.0000 1.0000
33.1900 622.0000 1.0000
33.2000 585.0000 1.0000
33.2100 570.0000 1.0000
33.2200 627.0000 1.0000
33.2300 606.0000 1.0000
33.2400 580.0000 1.0000
33.2500 591.0000 1.0000
33.2600 567.0000 1.0000
33.2700 539.0000 1.0000
33.2800 556.0000 1.0000
33.2900 542.0000 1.0000
33.3000 581.0000 1.0000
33.3100 572.0000 1.0000
33.3200 548.0000 1.0000
33.3300 580.0000 1.0000
33.3400 598.0000 1.0000
33.3500 579.0000 1.0000
33.3600 604.0000 1.0000
33.3700 576.0000 1.0000
33.3800 560.0000 1.0000
33.3900 580.0000 1.0000
33.4000 541.0000 1.0000
33.4100 566.0000 1.0000
33.4200 593.0000 1.0000
33.4300 593.0000 1.0000
33.4400 598.0000 1.0000
33.4500 599.0000 1.0000
33.4600 555.0000 1.0000
33.4700 585.0000 1.0000
33.4800 617.0000 1.0000
33.4900 582.0000 1.0000
33.5000 609.0000 1.0000
33.5100 573.0000 1.0000
33.5200 619.0000 1.0000
33.5300 655.0000 1.0000
33.5400 648.0000 1.0000
33.5500 631.0000 1.0000
33.5600 698.0000 1.0000
33.5700 655.0000 1.0000
33.5800 680.0000 1.0000
33.5900 645.0000 1.0000
33.6000 658.0000 1.0000
33.6100 690.0000 1.0000
33.6200 702.0000 1.0000
33.6300 694.0000 1.0000
33.6400 720.0000 1.0000
33.6500 723.0000 1.0000
33.6600 696.0000 1.0000
33.6700 712.0000 1.0000
33.6800 740.0000 1.0000
33.6900 705.0000 1.0000
33.7000 690.0000 1.0000
33.7100 674.0000 1.0000
33.7200 687.0000 1.0000
33.7300 680.0000 1.0000
33.7400 699.0000 1.0000
33.7500 617.0000 1.0000
33.7600 620.0000 1.0000
33.7700 638.0000 1.0000
33.7800 660.0000 1.0000
33.7900 646.0000 1.0000
33.8000 627.0000 1.0000
33.8100 650.0000 1.0000
33.8200 584.0000 1.0000
33.8300 611.0000 1.0000
33.8400 605.0000 1.0000
33.8500 612.0000 1.0000
33.8600 593.0000 1.0000
33.8700 616.0000 1.0000
33.8800 573.0000 1.0000
33.8900 595.0000 1.0000
33.9000 559.0000 1.0000
33.9100 571.0000 1.0000
33.9200 532.0000 1.0000
33.9300 569.0000 1.0000
33.9400 550.0000 1.0000
33.9500 586.0000 1.0000
33.9600 558.0000 1.0000
33.9700 575.0000 1.0000
33.9800 607.0000 1.0000
33.9900 557.0000 1.0000
34.0000 571.0000 1.0000
34.0100 569.0000 1.0000
34.0200 541.0000 1.0000
34.0300 517.0000 1.0000
34.0400 545.0000 1.0000
34.0500 521.0000 1.0000
34.0600 537.0000 1.0000
34.0700 508.0000 1.0000
34.0800 505.0000 1.0000
34.0900 486.0000 1.0000
34.1000 516.0000 1.0000
34.1100 498.0000 1.0000
34.1200 493.0000 1.0000
34.1300 511.0000 1.0000
34.1400 483.0000 1.0000
34.1500 526.0000 1.0000
34.1600 515.0000 1.0000
34.1700 545.0000 1.0000
34.1800 477.0000 1.0000
34.1900 498.0000 1.0000
34.2000 490.0000 1.0000
34.2100 461.0000 1.0000
34.2200 490.0000 1.0000
34.2300 445.0000 1.0000
34.2400 443.0000 1.0000
34.2500 488.0000 1.0000
34.2600 486.0000 1.0000
34.2700 480.0000 1.0000
34.2800 457.0000 1.0000
34.2900 463.0000 1.0000
34.3000 460.0000 1.0000
34.3100 499.0000 1.0000
34.3200 483.0000 1.0000
34.3300 470.0000 1.0000
34.3400 423.0000 1.0000
34.3500 479.0000 1.0000
34.3600 467.0000 1.0000
34.3700 470.0000 1.0000
34.3800 484.0000 1.0000
34.3900 489.0000 1.0000
34.4000 497.0000 1.0000
34.4100 484.0000 1.0000
34.4200 472.0000 1.0000
34.4300 465.0000 1.0000
34.4400 495.0000 1.0000
34.4500 450.0000 1.0000
34.4600 463.0000 1.0000
34.4700 469.0000 1.0000
34.4800 466.0000 1.0000
34.4900 483.0000 1.0000
34.5000 512.0000 1.0000
34.5100 426.0000 1.0000
34.5200 445.0000 1.0000
34.5300 453.0000 1.0000
34.5400 438.0000 1.0000
34.5500 439.0000 1.0000
34.5600 491.0000 1.0000
34.5700 489.0000 1.0000
34.5800 487.0000 1.0000
34.5900 473.0000 1.0000
34.6000 490.0000 1.0000
34.6100 474.0000 1.0000
34.6200 490.0000 1.0000
34.6300 457.0000 1.0000
34.6400 443.0000 1.0000
34.6500 438.0000 1.0000
34.6600 449.0000 1.0000
34.6700 494.0000 1.0000
34.6800 466.0000 1.0000
34.6900 474.0000 1.0000
34.7000 473.0000 1.0000
34.7100 474.0000 1.0000
34.7200 452.0000 1.0000
34.7300 454.0000 1.0000
34.7400 442.0000 1.0000
34.7500 421.0000 1.0000
34.7600 451.0000 1.0000
34.7700 457.0000 1.0000
34.7800 459.0000 1.0000
34.7900 461.0000 1.0000
34.8000 476.0000 1.0000
34.8100 448.0000 1.0000
34.8200 435.0000 1.0000
34.8300 432.0000 1.0000
34.8400 459.0000 1.0000
34.8500 474.0000 1.0000
34.8600 449.0000 1.0000
34.8700 433.0000 1.0000
34.8800 469.0000 1.0000
34.8900 448.0000 1.0000
34.9000 452.0000 1.0000
34.9100 491.0000 1.0000
34.9200 437.0000 1.0000
34.9300 468.0000 1.0000
34.9400 432.0000 1.0000
34.9500 432.0000 1.0000
34.9600 409.0000 1.0000
34.9700 436.0000 1.0000
34.9800 457.0000 1.0000
34.9900 449.0000 1.0000
35.0000 457.0000 1.0000
35.0100 460.0000 1.0000
35.0200 481.0000 1.0000
35.0300 457.0000 1.0000
35.0400 429.0000 1.0000
35.0500 449.0000 1.0000
35.0600 448.0000 1.0000
35.0700 480.0000 1.0000
35.0800 466.0000 1.0000
35.0900 465.0000 1.0000
35.1000 417.0000 1.0000
35.1100 439.0000 1.0000
35.1200 437.0000 1.0000
35.1300 433.0000 1.0000
35.1400 407.0000 1.0000
35.1500 436.0000 1.0000
35.1600 467.0000 1.0000
35.1700 454.0000 1.0000
35.1800 482.0000 1.0000
35.1900 461.0000 1.0000
35.2000 435.0000 1.0000
35.2100 488.0000 1.0000
35.2200 467.0000 1.0000
35.2300 490.0000 1.0000
35.2400 449.0000 1.0000
35.2500 502.0000 1.0000
35.2600 447.0000 1.0000
35.2700 499.0000 1.0000
35.2800 499.0000 1.0000
35.2900 462.0000 1.0000
35.3000 507.0000 1.0000
35.3100 497.0000 1.0000
35.3200 491.0000 1.0000
35.3300 459.0000 1.0000
35.3400 513.0000 1.0000
35.3500 520.0000 1.0000
35.3600 544.0000 1.0000
35.3700 542.0000 1.0000
35.3800 534.0000 1.0000
35.3900 537.0000 1.0000
35.4000 582.0000 1.0000
35.4100 568.0000 1.0000
35.4200 611.0000 1.0000
35.4300 599.0000 1.0000
35.4400 618.0000 1.0000
35.4500 633.0000 1.0000
35.4600 691.0000 1.0000
35.4700 691.0000 1.0000
35.4800 690.0000 1.0000
35.4900 725.0000 1.0000
35.5000 789.0000 1.0000
35.5100 759.0000 1.0000
35.5200 806.0000 1.0000
35.5300 772.0000 1.0000
35.5400 835.0000 1.0000
35.5500 837.0000 1.0000
35.5600 896.0000 1.0000
35.5700 848.0000 1.0000
35.5800 808.0000 1.0000
35.5900 860.0000 1.0000
35.6000 831.0000 1.0000
35.6100 875.0000 1.0000
35.6200 862.0000 1.0000
35.6300 851.0000 1.0000
35.6400 787.0000 1.0000
35.6500 767.0000 1.0000
35.6600 752.0000 1.0000
35.6700 737.0000 1.0000
35.6800 674.0000 1.0000
35.6900 665.0000 1.0000
35.7000 656.0000 1.0000
35.7100 632.0000 1.0000
35.7200 617.0000 1.0000
35.7300 614.0000 1.0000
35.7400 550.0000 1.0000
35.7500 592.0000 1.0000
35.7600 510.0000 1.0000
35.7700 534.0000 1.0000
35.7800 519.0000 1.0000
35.7900 492.0000 1.0000
35.8000 506.0000 1.0000
35.8100 488.0000 1.0000
35.8200 470.0000 1.0000
35.8300 510.0000 1.0000
35.8400 485.0000 1.0000
35.8500 472.0000 1.0000
35.8600 469.0000 1.0000
35.8700 482.0000 1.0000
35.8800 452.0000 1.0000
35.8900 435.0000 1.0000
35.9000 441.0000 1.0000
35.9100 448.0000 1.0000
35.9200 416.0000 1.0000
35.9300 427.0000 1.0000
35.9400 448.0000 1.0000
35.9500 417.0000 1.0000
35.9600 462.0000 1.0000
35.9700 432.0000 1.0000
35.9800 427.0000 1.0000
35.9900 418.0000 1.0000
36.0000 385.0000 1.0000
36.0100 442.0000 1.0000
36.0200 431.0000 1.0000
36.0300 441.0000 1.0000
36.0400 426.0000 1.0000
36.0500 422.0000 1.0000
36.0600 454.0000 1.0000
36.0700 424.0000 1.0000
36.0800 421.0000 1.0000
36.0900 431.0000 1.0000
36.1000 426.0000 1.0000
36.1100 407.0000 1.0000
36.1200 406.0000 1.0000
36.1300 421.0000 1.0000
36.1400 429.0000 1.0000
36.1500 437.0000 1.0000
36.1600 444.0000 1.0000
36.1700 438.0000 1.0000
36.1800 422.0000 1.0000
36.1900 424.0000 1.0000
36.2000 410.0000 1.0000
36.2100 448.0000 1.0000
36.2200 400.0000 1.0000
36.2300 454.0000 1.0000
36.2400 423.0000 1.0000
36.2500 432.0000 1.0000
36.2600 432.0000 1.0000
36.2700 404.0000 1.0000
36.2800 375.0000 1.0000
36.2900 416.0000 1.0000
36.3000 416.0000 1.0000
36.3100 444.0000 1.0000
36.3200 427.0000 1.0000
36.3300 452.0000 1.0000
36.3400 419.0000 1.0000
36.3500 398.0000 1.0000
36.3600 399.0000 1.0000
36.3700 448.0000 1.0000
36.3800 415.0000 1.0000
36.3900 476.0000 1.0000
36.4000 422.0000 1.0000
36.4100 424.0000 1.0000
36.4200 404.0000 1.0000
36.4300 425.0000 1.0000
36.4400 435.0000 1.0000
36.4500 412.0000 1.0000
36.4600 430.0000 1.0000
36.4700 424.0000 1.0000
36.4800 450.0000 1.0000
36.4900 418.0000 1.0000
36.5000 406.0000 1.0000
36.5100 440.0000 1.0000
36.5200 457.0000 1.0000
36.5300 430.0000 1.0000
36.5400 391.0000 1.0000
36.5500 425.0000 1.0000
36.5600 392.0000 1.0000
36.5700 403.0000 1.0000
36.5800 410.0000 1.0000
36.5900 395.0000 1.0000
36.6000 402.0000 1.0000
36.6100 407.0000 1.0000
36.6200 500.0000 1.0000
36.6300 458.0000 1.0000
36.6400 423.0000 1.0000
36.6500 406.0000 1.0000
36.6600 428.0000 1.0000
36.6700 439.0000 1.0000
36.6800 404.0000 1.0000
36.6900 395.0000 1.0000
36.7000 413.0000 1.0000
36.7100 429.0000 1.0000
36.7200 464.0000 1.0000
36.7300 434.0000 1.0000
36.7400 417.0000 1.0000
36.7500 408.0000 1.0000
36.7600 406.0000 1.0000
36.7700 431.0000 1.0000
36.7800 439.0000 1.0000
36.7900 398.0000 1.0000
36.8000 412.0000 1.0000
36.8100 403.0000 1.0000
36.8200 425.0000 1.0000
36.8300 421.0000 1.0000
36.8400 419.0000 1.0000
36.8500 452.0000 1.0000
36.8600 432.0000 1.0000
36.8700 439.0000 1.0000
36.8800 438.0000 1.0000
36.8900 436.0000 1.0000
36.9000 411.0000 1.0000
36.9100 454.0000 1.0000
36.9200 426.0000 1.0000
36.9300 424.0000 1.0000
36.9400 410.0000 1.0000
36.9500 416.0000 1.0000
36.9600 413.0000 1.0000
36.9700 429.0000 1.0000
36.9800 447.0000 1.0000
36.9900 433.0000 1.0000
37.0000 451.0000 1.0000
37.0100 393.0000 1.0000
37.0200 443.0000 1.0000
37.0300 438.0000 1.0000
37.0400 442.0000 1.0000
37.0500 398.0000 1.0000
37.0600 427.0000 1.0000
37.0700 466.0000 1.0000
37.0800 472.0000 1.0000
37.0900 451.0000 1.0000
37.1000 442.0000 1.0000
37.1100 415.0000 1.0000
37.1200 444.0000 1.0000
37.1300 437.0000 1.0000
37.1400 478.0000 1.0000
37.1500 463.0000 1.0000
37.1600 460.0000 1.0000
37.1700 454.0000 1.0000
37.1800 457.0000 1.0000
37.1900 440.0000 1.0000
37.2000 468.0000 1.0000
37.2100 477.0000 1.0000
37.2200 485.0000 1.0000
37.2300 530.0000 1.0000
37.2400 524.0000 1.0000
37.2500 548.0000 1.0000
37.2600 548.0000 1.0000
37.2700 503.0000 1.0000
37.2800 524.0000 1.0000
37.2900 509.0000 1.0000
37.3000 542.0000 1.0000
37.3100 555.0000 1.0000
37.3200 570.0000 1.0000
37.3300 562.0000 1.0000
37.3400 598.0000 1.0000
37.3500 591.0000 1.0000
37.3600 609.0000 1.0000
37.3700 658.0000 1.0000
37.3800 647.0000 1.0000
37.3900 626.0000 1.0000
37.4000 652.0000 1.0000
37.4100 717.0000 1.0000
37.4200 713.0000 1.0000
37.4300 747.0000 1.0000
37.4400 797.0000 1.0000
37.4500 829.0000 1.0000
37.4600 887.0000 1.0000
37.4700 889.0000 1.0000
37.4800 924.0000 1.0000
37.4900 940.0000 1.0000
37.5000 998.0000 1.0000
37.5100 1072.0000 1.0000
37.5200 1178.0000 1.0000
37.5300 1222.0000 1.0000
37.5400 1275.0000 1.0000
37.5500 1363.0000 1.0000
37.5600 1346.0000 1.0000
37.5700 1513.0000 1.0000
37.5800 1628.0000 1.0000
37.5900 1711.0000 1.0000
37.6000 1865.0000 1.0000
37.6100 1936.0000 1.0000
37.6200 2039.0000 1.0000
37.6300 2267.0000 1.0000
37.6400 2292.0000 1.0000
37.6500 2553.0000 1.0000
37.6600 2622.0000 1.0000
37.6700 2635.0000 1.0000
37.6800 2866.0000 1.0000
37.6900 2895.0000 1.0000
37.7000 2994.0000 1.0000
37.7100 3074.0000 1.0000
37.7200 3118.0000 1.0000
37.7300 3135.0000 1.0000
37.7400 3128.0000 1.0000
37.7500 3071.0000 1.0000
37.7600 3054.0000 1.0000
37.7700 2923.0000 1.0000
37.7800 2879.0000 1.0000
37.7900 2724.0000 1.0000
37.8000 2700.0000 1.0000
37.8100 2600.0000 1.0000
37.8200 2426.0000 1.0000
37.8300 2289.0000 1.0000
37.8400 2258.0000 1.0000
37.8500 2080.0000 1.0000
37.8600 1937.0000 1.0000
37.8700 1901.0000 1.0000
37.8800 1707.0000 1.0000
37.8900 1557.0000 1.0000
37.9000 1514.0000 1.0000
37.9100 1469.0000 1.0000
37.9200 1289.0000 1.0000
37.9300 1234.0000 1.0000
37.9400 1193.0000 1.0000
37.9500 1039.0000 1.0000
37.9600 1059.0000 1.0000
37.9700 976.0000 1.0000
37.9800 862.0000 1.0000
37.9900 834.0000 1.0000
38.0000 810.0000 1.0000
38.0100 789.0000 1.0000
38.0200 748.0000 1.0000
38.0300 706.0000 1.0000
38.0400 684.0000 1.0000
38.0500 672.0000 1.0000
38.0600 651.0000 1.0000
38.0700 605.0000 1.0000
38.0800 588.0000 1.0000
38.0900 590.0000 1.0000
38.1000 625.0000 1.0000
38.1100 568.0000 1.0000
38.1200 547.0000 1.0000
38.1300 537.0000 1.0000
38.1400 571.0000 1.0000
38.1500 542.0000 1.0000
38.1600 508.0000 1.0000
38.1700 464.0000 1.0000
38.1800 481.0000 1.0000
38.1900 489.0000 1.0000
38.2000 467.0000 1.0000
38.2100 494.0000 1.0000
38.2200 447.0000 1.0000
38.2300 460.0000 1.0000
38.2400 424.0000 1.0000
38.2500 432.0000 1.0000
38.2600 449.0000 1.0000
38.2700 437.0000 1.0000
38.2800 454.0000 1.0000
38.2900 452.0000 1.0000
38.3000 403.0000 1.0000
38.3100 431.0000 1.0000
38.3200 473.0000 1.0000
38.3300 426.0000 1.0000
38.3400 428.0000 1.0000
38.3500 443.0000 1.0000
38.3600 421.0000 1.0000
38.3700 401.0000 1.0000
38.3800 412.0000 1.0000
38.3900 414.0000 1.0000
38.4000 412.0000 1.0000
38.4100 442.0000 1.0000
38.4200 400.0000 1.0000
38.4300 420.0000 1.0000
38.4400 387.0000 1.0000
38.4500 370.0000 1.0000
38.4600 394.0000 1.0000
38.4700 374.0000 1.0000
38.4800 416.0000 1.0000
38.4900 406.0000 1.0000
38.5000 366.0000 1.0000
38.5100 372.0000 1.0000
38.5200 368.0000 1.0000
38.5300 379.0000 1.0000
38.5400 399.0000 1.0000
38.5500 396.0000 1.0000
38.5600 378.0000 1.0000
38.5700 390.0000 1.0000
38.5800 390.0000 1.0000
38.5900 349.0000 1.0000
38.6000 377.0000 1.0000
38.6100 388.0000 1.0000
38.6200 388.0000 1.0000
38.6300 407.0000 1.0000
38.6400 394.0000 1.0000
38.6500 389.0000 1.0000
38.6600 371.0000 1.0000
38.6700 376.0000 1.0000
38.6800 416.0000 1.0000
38.6900 387.0000 1.0000
38.7000 358.0000 1.0000
38.7100 377.0000 1.0000
38.7200 374.0000 1.0000
38.7300 363.0000 1.0000
38.7400 352.0000 1.0000
38.7500 384.0000 1.0000
38.7600 387.0000 1.0000
38.7700 395.0000 1.0000
38.7800 421.0000 1.0000
38.7900 383.0000 1.0000
38.8000 383.0000 1.0000
38.8100 387.0000 1.0000
38.8200 391.0000 1.0000
38.8300 387.0000 1.0000
38.8400 363.0000 1.0000
38.8500 356.0000 1.0000
38.8600 363.0000 1.0000
38.8700 356.0000 1.0000
38.8800 375.0000 1.0000
38.8900 362.0000 1.0000
38.9000 359.0000 1.0000
38.9100 356.0000 1.0000
38.9200 380.0000 1.0000
38.9300 353.0000 1.0000
38.9400 366.0000 1.0000
38.9500 392.0000 1.0000
38.9600 350.0000 1.0000
38.9700 381.0000 1.0000
38.9800 422.0000 1.0000
38.9900 364.0000 1.0000
39.0000 398.0000 1.0000
39.0100 352.0000 1.0000
39.0200 370.0000 1.0000
39.0300 397.0000 1.0000
39.0400 376.0000 1.0000
39.0500 327.0000 1.0000
39.0600 378.0000 1.0000
39.0700 388.0000 1.0000
39.0800 362.0000 1.0000
39.0900 358.0000 1.0000
39.1000 380.0000 1.0000
39.1100 391.0000 1.0000
39.1200 374.0000 1.0000
39.1300 366.0000 1.0000
39.1400 387.0000 1.0000
39.1500 368.0000 1.0000
39.1600 344.0000 1.0000
39.1700 367.0000 1.0000
39.1800 343.0000 1.0000
39.1900 350.0000 1.0000
39.2000 351.0000 1.0000
39.2100 377.0000 1.0000
39.2200 379.0000 1.0000
39.2300 398.0000 1.0000
39.2400 354.0000 1.0000
39.2500 340.0000 1.0000
39.2600 377.0000 1.0000
39.2700 364.0000 1.0000
39.2800 354.0000 1.0000
39.2900 345.0000 1.0000
39.3000 348.0000 1.0000
39.3100 338.0000 1.0000
39.3200 377.0000 1.0000
39.3300 320.0000 1.0000
39.3400 318.0000 1.0000
39.3500 328.0000 1.0000
39.3600 367.0000 1.0000
39.3700 343.0000 1.0000
39.3800 344.0000 1.0000
39.3900 347.0000 1.0000
39.4000 331.0000 1.0000
39.4100 357.0000 1.0000
39.4200 371.0000 1.0000
39.4300 334.0000 1.0000
39.4400 353.0000 1.0000
39.4500 346.0000 1.0000
39.4600 363.0000 1.0000
39.4700 347.0000 1.0000
39.4800 373.0000 1.0000
39.4900 347.0000 1.0000
39.5000 362.0000 1.0000
39.5100 343.0000 1.0000
39.5200 350.0000 1.0000
39.5300 374.0000 1.0000
39.5400 376.0000 1.0000
39.5500 324.0000 1.0000
39.5600 353.0000 1.0000
39.5700 363.0000 1.0000
39.5800 339.0000 1.0000
39.5900 320.0000 1.0000
39.6000 330.0000 1.0000
39.6100 341.0000 1.0000
39.6200 345.0000 1.0000
39.6300 318.0000 1.0000
39.6400 333.0000 1.0000
39.6500 347.0000 1.0000
39.6600 366.0000 1.0000
39.6700 357.0000 1.0000
39.6800 324.0000 1.0000
39.6900 343.0000 1.0000
39.7000 329.0000 1.0000
39.7100 363.0000 1.0000
39.7200 362.0000 1.0000
39.7300 343.0000 1.0000
39.7400 357.0000 1.0000
39.7500 365.0000 1.0000
39.7600 327.0000 1.0000
39.7700 345.0000 1.0000
39.7800 306.0000 1.0000
39.7900 327.0000 1.0000
39.8000 369.0000 1.0000
39.8100 354.0000 1.0000
39.8200 358.0000 1.0000
39.8300 364.0000 1.0000
39.8400 348.0000 1.0000
39.8500 339.0000 1.0000
39.8600 320.0000 1.0000
39.8700 342.0000 1.0000
39.8800 381.0000 1.0000
39.8900 353.0000 1.0000
39.9000 323.0000 1.0000
39.9100 353.0000 1.0000
39.9200 323.0000 1.0000
39.9300 362.0000 1.0000
39.9400 342.0000 1.0000
39.9500 341.0000 1.0000
39.9600 342.0000 1.0000
39.9700 371.0000 1.0000
39.9800 347.0000 1.0000
39.9900 339.0000 1.0000
40.0000 341.0000 1.0000
40.0100 360.0000 1.0000
40.0200 323.0000 1.0000
40.0300 338.0000 1.0000
40.0400 334.0000 1.0000
40.0500 333.0000 1.0000
40.0600 337.0000 1.0000
40.0700 351.0000 1.0000
40.0800 315.0000 1.0000
40.0900 327.0000 1.0000
40.1000 320.0000 1.0000
40.1100 318.0000 1.0000
40.1200 365.0000 1.0000
40.1300 342.0000 1.0000
40.1400 338.0000 1.0000
40.1500 370.0000 1.0000
40.1600 337.0000 1.0000
40.1700 356.0000 1.0000
40.1800 311.0000 1.0000
40.1900 341.0000 1.0000
40.2000 346.0000 1.0000
40.2100 342.0000 1.0000
40.2200 345.0000 1.0000
40.2300 368.0000 1.0000
40.2400 349.0000 1.0000
40.2500 329.0000 1.0000
40.2600 315.0000 1.0000
40.2700 304.0000 1.0000
40.2800 316.0000 1.0000
40.2900 355.0000 1.0000
40.3000 347.0000 1.0000
40.3100 339.0000 1.0000
40.3200 338.0000 1.0000
40.3300 377.0000 1.0000
40.3400 361.0000 1.0000
40.3500 362.0000 1.0000
40.3600 374.0000 1.0000
40.3700 321.0000 1.0000
40.3800 351.0000 1.0000
40.3900 340.0000 1.0000
40.4000 363.0000 1.0000
40.4100 365.0000 1.0000
40.4200 368.0000 1.0000
40.4300 371.0000 1.0000
40.4400 397.0000 1.0000
40.4500 374.0000 1.0000
40.4600 362.0000 1.0000
40.4700 395.0000 1.0000
40.4800 412.0000 1.0000
40.4900 397.0000 1.0000
40.5000 361.0000 1.0000
40.5100 383.0000 1.0000
40.5200 389.0000 1.0000
40.5300 370.0000 1.0000
40.5400 383.0000 1.0000
40.5500 386.0000 1.0000
40.5600 407.0000 1.0000
40.5700 395.0000 1.0000
40.5800 360.0000 1.0000
40.5900 385.0000 1.0000
40.6000 387.0000 1.0000
40.6100 394.0000 1.0000
40.6200 385.0000 1.0000
40.6300 359.0000 1.0000
40.6400 358.0000 1.0000
40.6500 389.0000 1.0000
40.6600 412.0000 1.0000
40.6700 403.0000 1.0000
40.6800 400.0000 1.0000
40.6900 391.0000 1.0000
40.7000 379.0000 1.0000
40.7100 400.0000 1.0000
40.7200 348.0000 1.0000
40.7300 381.0000 1.0000
40.7400 359.0000 1.0000
40.7500 400.0000 1.0000
40.7600 392.0000 1.0000
40.7700 392.0000 1.0000
40.7800 396.0000 1.0000
40.7900 348.0000 1.0000
40.8000 388.0000 1.0000
40.8100 402.0000 1.0000
40.8200 384.0000 1.0000
40.8300 371.0000 1.0000
40.8400 365.0000 1.0000
40.8500 366.0000 1.0000
40.8600 378.0000 1.0000
40.8700 383.0000 1.0000
40.8800 345.0000 1.0000
40.8900 389.0000 1.0000
40.9000 376.0000 1.0000
40.9100 397.0000 1.0000
40.9200 399.0000 1.0000
40.9300 377.0000 1.0000
40.9400 372.0000 1.0000
40.9500 334.0000 1.0000
40.9600 352.0000 1.0000
40.9700 341.0000 1.0000
40.9800 345.0000 1.0000
40.9900 356.0000 1.0000
41.0000 349.0000 1.0000
41.0100 360.0000 1.0000
41.0200 344.0000 1.0000
41.0300 330.0000 1.0000
41.0400 335.0000 1.0000
41.0500 353.0000 1.0000
41.0600 347.0000 1.0000
41.0700 351.0000 1.0000
41.0800 351.0000 1.0000
41.0900 338.0000 1.0000
41.1000 345.0000 1.0000
41.1100 354.0000 1.0000
41.1200 347.0000 1.0000
41.1300 361.0000 1.0000
41.1400 351.0000 1.0000
41.1500 346.0000 1.0000
41.1600 326.0000 1.0000
41.1700 344.0000 1.0000
41.1800 358.0000 1.0000
41.1900 329.0000 1.0000
41.2000 298.0000 1.0000
41.2100 348.0000 1.0000
41.2200 338.0000 1.0000
41.2300 361.0000 1.0000
41.2400 340.0000 1.0000
41.2500 304.0000 1.0000
41.2600 330.0000 1.0000
41.2700 346.0000 1.0000
41.2800 354.0000 1.0000
41.2900 315.0000 1.0000
41.3000 342.0000 1.0000
41.3100 300.0000 1.0000
41.3200 303.0000 1.0000
41.3300 331.0000 1.0000
41.3400 336.0000 1.0000
41.3500 326.0000 1.0000
41.3600 319.0000 1.0000
41.3700 346.0000 1.0000
41.3800 331.0000 1.0000
41.3900 318.0000 1.0000
41.4000 332.0000 1.0000
41.4100 300.0000 1.0000
41.4200 302.0000 1.0000
41.4300 321.0000 1.0000
41.4400 341.0000 1.0000
41.4500 328.0000 1.0000
41.4600 303.0000 1.0000
41.4700 328.0000 1.0000
41.4800 344.0000 1.0000
41.4900 346.0000 1.0000
41.5000 358.0000 1.0000
41.5100 340.0000 1.0000
41.5200 313.0000 1.0000
41.5300 337.0000 1.0000
41.5400 328.0000 1.0000
41.5500 329.0000 1.0000
41.5600 323.0000 1.0000
41.5700 347.0000 1.0000
41.5800 345.0000 1.0000
41.5900 328.0000 1.0000
41.6000 337.0000 1.0000
41.6100 329.0000 1.0000
41.6200 294.0000 1.0000
41.6300 298.0000 1.0000
41.6400 327.0000 1.0000
41.6500 333.0000 1.0000
41.6600 300.0000 1.0000
41.6700 320.0000 1.0000
41.6800 320.0000 1.0000
41.6900 341.0000 1.0000
41.7000 321.0000 1.0000
41.7100 331.0000 1.0000
41.7200 326.0000 1.0000
41.7300 327.0000 1.0000
41.7400 313.0000 1.0000
41.7500 296.0000 1.0000
41.7600 314.0000 1.0000
41.7700 329.0000 1.0000
41.7800 346.0000 1.0000
41.7900 326.0000 1.0000
41.8000 325.0000 1.0000
41.8100 328.0000 1.0000
41.8200 337.0000 1.0000
41.8300 339.0000 1.0000
41.8400 325.0000 1.0000
41.8500 302.0000 1.0000
41.8600 337.0000 1.0000
41.8700 304.0000 1.0000
41.8800 304.0000 1.0000
41.8900 317.0000 1.0000
41.9000 306.0000 1.0000
41.9100 315.0000 1.0000
41.9200 336.0000 1.0000
41.9300 344.0000 1.0000
41.9400 335.0000 1.0000
41.9500 322.0000 1.0000
41.9600 338.0000 1.0000
41.9700 336.0000 1.0000
41.9800 342.0000 1.0000
41.9900 311.0000 1.0000
42.0000 324.0000 1.0000
42.0100 331.0000 1.0000
42.0200 360.0000 1.0000
42.0300 319.0000 1.0000
42.0400 347.0000 1.0000
42.0500 320.0000 1.0000
42.0600 345.0000 1.0000
42.0700 321.0000 1.0000
42.0800 309.0000 1.0000
42.0900 323.0000 1.0000
42.1000 335.0000 1.0000
42.1100 344.0000 1.0000
42.1200 319.0000 1.0000
42.1300 343.0000 1.0000
42.1400 329.0000 1.0000
42.1500 332.0000 1.0000
42.1600 330.0000 1.0000
42.1700 307.0000 1.0000
42.1800 337.0000 1.0000
42.1900 317.0000 1.0000
42.2000 313.0000 1.0000
42.2100 332.0000 1.0000
42.2200 312.0000 1.0000
42.2300 338.0000 1.0000
42.2400 327.0000 1.0000
42.2500 322.0000 1.0000
42.2600 348.0000 1.0000
42.2700 332.0000 1.0000
42.2800 313.0000 1.0000
42.2900 340.0000 1.0000
42.3000 351.0000 1.0000
42.3100 352.0000 1.0000
42.3200 338.0000 1.0000
42.3300 312.0000 1.0000
42.3400 356.0000 1.0000
42.3500 344.0000 1.0000
42.3600 355.0000 1.0000
42.3700 319.0000 1.0000
42.3800 328.0000 1.0000
42.3900 332.0000 1.0000
42.4000 366.0000 1.0000
42.4100 340.0000 1.0000
42.4200 334.0000 1.0000
42.4300 333.0000 1.0000
42.4400 364.0000 1.0000
42.4500 352.0000 1.0000
42.4600 354.0000 1.0000
42.4700 337.0000 1.0000
42.4800 351.0000 1.0000
42.4900 354.0000 1.0000
42.5000 359.0000 1.0000
42.5100 351.0000 1.0000
42.5200 333.0000 1.0000
42.5300 322.0000 1.0000
42.5400 351.0000 1.0000
42.5500 343.0000 1.0000
42.5600 369.0000 1.0000
42.5700 330.0000 1.0000
42.5800 343.0000 1.0000
42.5900 316.0000 1.0000
42.6000 363.0000 1.0000
42.6100 337.0000 1.0000
42.6200 315.0000 1.0000
42.6300 325.0000 1.0000
42.6400 324.0000 1.0000
42.6500 321.0000 1.0000
42.6600 340.0000 1.0000
42.6700 340.0000 1.0000
42.6800 342.0000 1.0000
42.6900 344.0000 1.0000
42.7000 294.0000 1.0000
42.7100 332.0000 1.0000
42.7200 320.0000 1.0000
42.7300 368.0000 1.0000
42.7400 322.0000 1.0000
42.7500 318.0000 1.0000
42.7600 334.0000 1.0000
42.7700 332.0000 1.0000
42.7800 296.0000 1.0000
42.7900 332.0000 1.0000
42.8000 343.0000 1.0000
42.8100 328.0000 1.0000
42.8200 314.0000 1.0000
42.8300 307.0000 1.0000
42.8400 301.0000 1.0000
42.8500 315.0000 1.0000
42.8600 309.0000 1.0000
42.8700 335.0000 1.0000
42.8800 320.0000 1.0000
42.8900 310.0000 1.0000
42.9000 342.0000 1.0000
42.9100 306.0000 1.0000
42.9200 298.0000 1.0000
42.9300 331.0000 1.0000
42.9400 296.0000 1.0000
42.9500 312.0000 1.0000
42.9600 315.0000 1.0000
42.9700 324.0000 1.0000
42.9800 315.0000 1.0000
42.9900 340.0000 1.0000
43.0000 312.0000 1.0000
43.0100 332.0000 1.0000
43.0200 321.0000 1.0000
43.0300 320.0000 1.0000
43.0400 310.0000 1.0000
43.0500 303.0000 1.0000
43.0600 301.0000 1.0000
43.0700 314.0000 1.0000
43.0800 315.0000 1.0000
43.0900 337.0000 1.0000
43.1000 341.0000 1.0000
43.1100 332.0000 1.0000
43.1200 292.0000 1.0000
43.1300 296.0000 1.0000
43.1400 296.0000 1.0000
43.1500 294.0000 1.0000
43.1600 329.0000 1.0000
43.1700 334.0000 1.0000
43.1800 324.0000 1.0000
43.1900 336.0000 1.0000
43.2000 312.0000 1.0000
43.2100 304.0000 1.0000
43.2200 327.0000 1.0000
43.2300 339.0000 1.0000
43.2400 294.0000 1.0000
43.2500 305.0000 1.0000
43.2600 340.0000 1.0000
43.2700 338.0000 1.0000
43.2800 317.0000 1.0000
43.2900 318.0000 1.0000
43.3000 303.0000 1.0000
43.3100 300.0000 1.0000
43.3200 306.0000 1.0000
43.3300 309.0000 1.0000
43.3400 345.0000 1.0000
43.3500 313.0000 1.0000
43.3600 321.0000 1.0000
43.3700 311.0000 1.0000
43.3800 319.0000 1.0000
43.3900 312.0000 1.0000
43.4000 327.0000 1.0000
43.4100 314.0000 1.0000
43.4200 333.0000 1.0000
43.4300 314.0000 1.0000
43.4400 301.0000 1.0000
43.4500 307.0000 1.0000
43.4600 317.0000 1.0000
43.4700 286.0000 1.0000
43.4800 288.0000 1.0000
43.4900 306.0000 1.0000
43.5000 328.0000 1.0000
43.5100 309.0000 1.0000
43.5200 309.0000 1.0000
43.5300 328.0000 1.0000
43.5400 323.0000 1.0000
43.5500 332.0000 1.0000
43.5600 324.0000 1.0000
43.5700 339.0000 1.0000
43.5800 308.0000 1.0000
43.5900 307.0000 1.0000
43.6000 297.0000 1.0000
43.6100 313.0000 1.0000
43.6200 299.0000 1.0000
43.6300 288.0000 1.0000
43.6400 311.0000 1.0000
43.6500 318.0000 1.0000
43.6600 332.0000 1.0000
43.6700 336.0000 1.0000
43.6800 350.0000 1.0000
43.6900 307.0000 1.0000
43.7000 290.0000 1.0000
43.7100 309.0000 1.0000
43.7200 303.0000 1.0000
43.7300 318.0000 1.0000
43.7400 328.0000 1.0000
43.7500 328.0000 1.0000
43.7600 307.0000 1.0000
43.7700 327.0000 1.0000
43.7800 316.0000 1.0000
43.7900 301.0000 1.0000
43.8000 309.0000 1.0000
43.8100 337.0000 1.0000
43.8200 285.0000 1.0000
43.8300 327.0000 1.0000
43.8400 318.0000 1.0000
43.8500 303.0000 1.0000
43.8600 306.0000 1.0000
43.8700 306.0000 1.0000
43.8800 318.0000 1.0000
43.8900 293.0000 1.0000
43.9000 293.0000 1.0000
43.9100 299.0000 1.0000
43.9200 302.0000 1.0000
43.9300 296.0000 1.0000
43.9400 305.0000 1.0000
43.9500 329.0000 1.0000
43.9600 297.0000 1.0000
43.9700 305.0000 1.0000
43.9800 299.0000 1.0000
43.9900 309.0000 1.0000
44.0000 337.0000 1.0000
44.0100 321.0000 1.0000
44.0200 291.0000 1.0000
44.0300 290.0000 1.0000
44.0400 304.0000 1.0000
44.0500 296.0000 1.0000
44.0600 292.0000 1.0000
44.0700 337.0000 1.0000
44.0800 268.0000 1.0000
44.0900 295.0000 1.0000
44.1000 325.0000 1.0000
44.1100 326.0000 1.0000
44.1200 314.0000 1.0000
44.1300 287.0000 1.0000
44.1400 315.0000 1.0000
44.1500 308.0000 1.0000
44.1600 319.0000 1.0000
44.1700 297.0000 1.0000
44.1800 304.0000 1.0000
44.1900 314.0000 1.0000
44.2000 318.0000 1.0000
44.2100 327.0000 1.0000
44.2200 329.0000 1.0000
44.2300 309.0000 1.0000
44.2400 325.0000 1.0000
44.2500 317.0000 1.0000
44.2600 309.0000 1.0000
44.2700 300.0000 1.0000
44.2800 312.0000 1.0000
44.2900 296.0000 1.0000
44.3000 322.0000 1.0000
44.3100 307.0000 1.0000
44.3200 291.0000 1.0000
44.3300 302.0000 1.0000
44.3400 310.0000 1.0000
44.3500 282.0000 1.0000
44.3600 292.0000 1.0000
44.3700 299.0000 1.0000
44.3800 298.0000 1.0000
44.3900 297.0000 1.0000
44.4000 333.0000 1.0000
44.4100 312.0000 1.0000
44.4200 290.0000 1.0000
44.4300 312.0000 1.0000
44.4400 305.0000 1.0000
44.4500 299.0000 1.0000
44.4600 325.0000 1.0000
44.4700 287.0000 1.0000
44.4800 295.0000 1.0000
44.4900 297.0000 1.0000
44.5000 326.0000 1.0000
44.5100 303.0000 1.0000
44.5200 311.0000 1.0000
44.5300 304.0000 1.0000
44.5400 306.0000 1.0000
44.5500 304.0000 1.0000
44.5600 298.0000 1.0000
44.5700 322.0000 1.0000
44.5800 298.0000 1.0000
44.5900 284.0000 1.0000
44.6000 281.0000 1.0000
44.6100 308.0000 1.0000
44.6200 301.0000 1.0000
44.6300 263.0000 1.0000
44.6400 316.0000 1.0000
44.6500 307.0000 1.0000
44.6600 291.0000 1.0000
44.6700 315.0000 1.0000
44.6800 294.0000 1.0000
44.6900 314.0000 1.0000
44.7000 289.0000 1.0000
44.7100 301.0000 1.0000
44.7200 298.0000 1.0000
44.7300 280.0000 1.0000
44.7400 299.0000 1.0000
44.7500 318.0000 1.0000
44.7600 303.0000 1.0000
44.7700 300.0000 1.0000
44.7800 282.0000 1.0000
44.7900 292.0000 1.0000
44.8000 317.0000 1.0000
44.8100 300.0000 1.0000
44.8200 285.0000 1.0000
44.8300 329.0000 1.0000
44.8400 303.0000 1.0000
44.8500 269.0000 1.0000
44.8600 301.0000 1.0000
44.8700 302.0000 1.0000
44.8800 297.0000 1.0000
44.8900 290.0000 1.0000
44.9000 325.0000 1.0000
44.9100 336.0000 1.0000
44.9200 331.0000 1.0000
44.9300 315.0000 1.0000
44.9400 318.0000 1.0000
44.9500 293.0000 1.0000
44.9600 297.0000 1.0000
44.9700 290.0000 1.0000
44.9800 286.0000 1.0000
44.9900 320.0000 1.0000
45.0000 302.0000 1.0000
45.0100 302.0000 1.0000
45.0200 328.0000 1.0000
45.0300 308.0000 1.0000
45.0400 305.0000 1.0000
45.0500 324.0000 1.0000
45.0600 316.0000 1.0000
45.0700 298.0000 1.0000
45.0800 296.0000 1.0000
45.0900 328.0000 1.0000
45.1000 283.0000 1.0000
45.1100 302.0000 1.0000
45.1200 297.0000 1.0000
45.1300 290.0000 1.0000
45.1400 314.0000 1.0000
45.1500 293.0000 1.0000
45.1600 310.0000 1.0000
45.1700 330.0000 1.0000
45.1800 311.0000 1.0000
45.1900 291.0000 1.0000
45.2000 284.0000 1.0000
45.2100 282.0000 1.0000
45.2200 282.0000 1.0000
45.2300 307.0000 1.0000
45.2400 325.0000 1.0000
45.2500 299.0000 1.0000
45.2600 298.0000 1.0000
45.2700 316.0000 1.0000
45.2800 306.0000 1.0000
45.2900 313.0000 1.0000
45.3000 329.0000 1.0000
45.3100 306.0000 1.0000
45.3200 321.0000 1.0000
45.3300 310.0000 1.0000
45.3400 308.0000 1.0000
45.3500 304.0000 1.0000
45.3600 300.0000 1.0000
45.3700 285.0000 1.0000
45.3800 299.0000 1.0000
45.3900 282.0000 1.0000
45.4000 321.0000 1.0000
45.4100 291.0000 1.0000
45.4200 306.0000 1.0000
45.4300 326.0000 1.0000
45.4400 311.0000 1.0000
45.4500 287.0000 1.0000
45.4600 327.0000 1.0000
45.4700 306.0000 1.0000
45.4800 305.0000 1.0000
45.4900 297.0000 1.0000
45.5000 314.0000 1.0000
45.5100 346.0000 1.0000
45.5200 292.0000 1.0000
45.5300 299.0000 1.0000
45.5400 298.0000 1.0000
45.5500 316.0000 1.0000
45.5600 289.0000 1.0000
45.5700 302.0000 1.0000
45.5800 274.0000 1.0000
45.5900 315.0000 1.0000
45.6000 304.0000 1.0000
45.6100 287.0000 1.0000
45.6200 301.0000 1.0000
45.6300 293.0000 1.0000
45.6400 293.0000 1.0000
45.6500 275.0000 1.0000
45.6600 259.0000 1.0000
45.6700 299.0000 1.0000
45.6800 304.0000 1.0000
45.6900 284.0000 1.0000
45.7000 286.0000 1.0000
45.7100 284.0000 1.0000
45.7200 291.0000 1.0000
45.7300 289.0000 1.0000
45.7400 281.0000 1.0000
45.7500 280.0000 1.0000
45.7600 308.0000 1.0000
45.7700 291.0000 1.0000
45.7800 272.0000 1.0000
45.7900 293.0000 1.0000
45.8000 297.0000 1.0000
45.8100 302.0000 1.0000
45.8200 311.0000 1.0000
45.8300 308.0000 1.0000
45.8400 278.0000 1.0000
45.8500 280.0000 1.0000
45.8600 274.0000 1.0000
45.8700 303.0000 1.0000
45.8800 332.0000 1.0000
45.8900 306.0000 1.0000
45.9000 262.0000 1.0000
45.9100 294.0000 1.0000
45.9200 263.0000 1.0000
45.9300 296.0000 1.0000
45.9400 281.0000 1.0000
45.9500 296.0000 1.0000
45.9600 278.0000 1.0000
45.9700 304.0000 1.0000
45.9800 310.0000 1.0000
45.9900 290.0000 1.0000
46.0000 254.0000 1.0000
46.0100 292.0000 1.0000
46.0200 303.0000 1.0000
46.0300 294.0000 1.0000
46.0400 293.0000 1.0000
46.0500 300.0000 1.0000
46.0600 281.0000 1.0000
46.0700 312.0000 1.0000
46.0800 288.0000 1.0000
46.0900 275.0000 1.0000
46.1000 280.0000 1.0000
46.1100 272.0000 1.0000
46.1200 283.0000 1.0000
46.1300 300.0000 1.0000
46.1400 281.0000 1.0000
46.1500 308.0000 1.0000
46.1600 278.0000 1.0000
46.1700 300.0000 1.0000
46.1800 295.0000 1.0000
46.1900 296.0000 1.0000
46.2000 288.0000 1.0000
46.2100 302.0000 1.0000
46.2200 331.0000 1.0000
46.2300 291.0000 1.0000
46.2400 287.0000 1.0000
46.2500 300.0000 1.0000
46.2600 286.0000 1.0000
46.2700 277.0000 1.0000
46.2800 288.0000 1.0000
46.2900 297.0000 1.0000
46.3000 311.0000 1.0000
46.3100 299.0000 1.0000
46.3200 297.0000 1.0000
46.3300 275.0000 1.0000
46.3400 291.0000 1.0000
46.3500 261.0000 1.0000
46.3600 292.0000 1.0000
46.3700 309.0000 1.0000
46.3800 281.0000 1.0000
46.3900 285.0000 1.0000
46.4000 295.0000 1.0000
46.4100 297.0000 1.0000
46.4200 272.0000 1.0000
46.4300 274.0000 1.0000
46.4400 286.0000 1.0000
46.4500 274.0000 1.0000
46.4600 302.0000 1.0000
46.4700 282.0000 1.0000
46.4800 254.0000 1.0000
46.4900 262.0000 1.0000
46.5000 264.0000 1.0000
46.5100 268.0000 1.0000
46.5200 283.0000 1.0000
46.5300 295.0000 1.0000
46.5400 285.0000 1.0000
46.5500 308.0000 1.0000
46.5600 292.0000 1.0000
46.5700 288.0000 1.0000
46.5800 267.0000 1.0000
46.5900 261.0000 1.0000
46.6000 265.0000 1.0000
46.6100 266.0000 1.0000
46.6200 259.0000 1.0000
46.6300 272.0000 1.0000
46.6400 285.0000 1.0000
46.6500 279.0000 1.0000
46.6600 292.0000 1.0000
46.6700 284.0000 1.0000
46.6800 269.0000 1.0000
46.6900 271.0000 1.0000
46.7000 288.0000 1.0000
46.7100 304.0000 1.0000
46.7200 259.0000 1.0000
46.7300 281.0000 1.0000
46.7400 294.0000 1.0000
46.7500 305.0000 1.0000
46.7600 268.0000 1.0000
46.7700 277.0000 1.0000
46.7800 279.0000 1.0000
46.7900 305.0000 1.0000
46.8000 266.0000 1.0000
46.8100 273.0000 1.0000
46.8200 257.0000 1.0000
46.8300 282.0000 1.0000
46.8400 261.0000 1.0000
46.8500 259.0000 1.0000
46.8600 290.0000 1.0000
46.8700 289.0000 1.0000
46.8800 279.0000 1.0000
46.8900 267.0000 1.0000
46.9000 264.0000 1.0000
46.9100 252.0000 1.0000
46.9200 283.0000 1.0000
46.9300 308.0000 1.0000
46.9400 276.0000 1.0000
46.9500 277.0000 1.0000
46.9600 287.0000 1.0000
46.9700 262.0000 1.0000
46.9800 290.0000 1.0000
46.9900 288.0000 1.0000
47.0000 285.0000 1.0000
47.0100 294.0000 1.0000
47.0200 287.0000 1.0000
47.0300 285.0000 1.0000
47.0400 269.0000 1.0000
47.0500 275.0000 1.0000
47.0600 282.0000 1.0000
47.0700 292.0000 1.0000
47.0800 299.0000 1.0000
47.0900 288.0000 1.0000
47.1000 294.0000 1.0000
47.1100 285.0000 1.0000
47.1200 274.0000 1.0000
47.1300 281.0000 1.0000
47.1400 247.0000 1.0000
47.1500 286.0000 1.0000
47.1600 285.0000 1.0000
47.1700 258.0000 1.0000
47.1800 279.0000 1.0000
47.1900 258.0000 1.0000
47.2000 255.0000 1.0000
47.2100 271.0000 1.0000
47.2200 279.0000 1.0000
47.2300 271.0000 1.0000
47.2400 292.0000 1.0000
47.2500 273.0000 1.0000
47.2600 261.0000 1.0000
47.2700 262.0000 1.0000
47.2800 315.0000 1.0000
47.2900 313.0000 1.0000
47.3000 295.0000 1.0000
47.3100 286.0000 1.0000
47.3200 302.0000 1.0000
47.3300 250.0000 1.0000
47.3400 270.0000 1.0000
47.3500 297.0000 1.0000
47.3600 275.0000 1.0000
47.3700 278.0000 1.0000
47.3800 270.0000 1.0000
47.3900 258.0000 1.0000
47.4000 300.0000 1.0000
47.4100 301.0000 1.0000
47.4200 276.0000 1.0000
47.4300 269.0000 1.0000
47.4400 307.0000 1.0000
47.4500 267.0000 1.0000
47.4600 277.0000 1.0000
47.4700 268.0000 1.0000
47.4800 276.0000 1.0000
47.4900 280.0000 1.0000
47.5000 279.0000 1.0000
47.5100 292.0000 1.0000
47.5200 282.0000 1.0000
47.5300 283.0000 1.0000
47.5400 254.0000 1.0000
47.5500 268.0000 1.0000
47.5600 278.0000 1.0000
47.5700 274.0000 1.0000
47.5800 309.0000 1.0000
47.5900 273.0000 1.0000
47.6000 297.0000 1.0000
47.6100 280.0000 1.0000
47.6200 303.0000 1.0000
47.6300 307.0000 1.0000
47.6400 264.0000 1.0000
47.6500 258.0000 1.0000
47.6600 270.0000 1.0000
47.6700 269.0000 1.0000
47.6800 279.0000 1.0000
47.6900 271.0000 1.0000
47.7000 287.0000 1.0000
47.7100 275.0000 1.0000
47.7200 277.0000 1.0000
47.7300 266.0000 1.0000
47.7400 279.0000 1.0000
47.7500 278.0000 1.0000
47.7600 291.0000 1.0000
47.7700 281.0000 1.0000
47.7800 283.0000 1.0000
47.7900 279.0000 1.0000
47.8000 270.0000 1.0000
47.8100 279.0000 1.0000
47.8200 268.0000 1.0000
47.8300 277.0000 1.0000
47.8400 269.0000 1.0000
47.8500 285.0000 1.0000
47.8600 264.0000 1.0000
47.8700 289.0000 1.0000
47.8800 274.0000 1.0000
47.8900 260.0000 1.0000
47.9000 278.0000 1.0000
47.9100 271.0000 1.0000
47.9200 273.0000 1.0000
47.9300 273.0000 1.0000
47.9400 278.0000 1.0000
47.9500 282.0000 1.0000
47.9600 279.0000 1.0000
47.9700 258.0000 1.0000
47.9800 257.0000 1.0000
47.9900 250.0000 1.0000
48.0000 263.0000 1.0000
48.0100 255.0000 1.0000
48.0200 274.0000 1.0000
48.0300 267.0000 1.0000
48.0400 291.0000 1.0000
48.0500 265.0000 1.0000
48.0600 247.0000 1.0000
48.0700 276.0000 1.0000
48.0800 296.0000 1.0000
48.0900 289.0000 1.0000
48.1000 296.0000 1.0000
48.1100 271.0000 1.0000
48.1200 272.0000 1.0000
48.1300 262.0000 1.0000
48.1400 270.0000 1.0000
48.1500 282.0000 1.0000
48.1600 264.0000 1.0000
48.1700 260.0000 1.0000
48.1800 281.0000 1.0000
48.1900 281.0000 1.0000
48.2000 265.0000 1.0000
48.2100 272.0000 1.0000
48.2200 258.0000 1.0000
48.2300 277.0000 1.0000
48.2400 270.0000 1.0000
48.2500 262.0000 1.0000
48.2600 273.0000 1.0000
48.2700 248.0000 1.0000
48.2800 272.0000 1.0000
48.2900 259.0000 1.0000
48.3000 274.0000 1.0000
48.3100 273.0000 1.0000
48.3200 279.0000 1.0000
48.3300 254.0000 1.0000
48.3400 271.0000 1.0000
48.3500 246.0000 1.0000
48.3600 268.0000 1.0000
48.3700 262.0000 1.0000
48.3800 284.0000 1.0000
48.3900 280.0000 1.0000
48.4000 279.0000 1.0000
48.4100 273.0000 1.0000
48.4200 271.0000 1.0000
48.4300 296.0000 1.0000
48.4400 270.0000 1.0000
48.4500 256.0000 1.0000
48.4600 260.0000 1.0000
48.4700 281.0000 1.0000
48.4800 259.0000 1.0000
48.4900 246.0000 1.0000
48.5000 251.0000 1.0000
48.5100 291.0000 1.0000
48.5200 289.0000 1.0000
48.5300 258.0000 1.0000
48.5400 262.0000 1.0000
48.5500 254.0000 1.0000
48.5600 282.0000 1.0000
48.5700 259.0000 1.0000
48.5800 260.0000 1.0000
48.5900 261.0000 1.0000
48.6000 281.0000 1.0000
48.6100 251.0000 1.0000
48.6200 288.0000 1.0000
48.6300 302.0000 1.0000
48.6400 296.0000 1.0000
48.6500 254.0000 1.0000
48.6600 272.0000 1.0000
48.6700 301.0000 1.0000
48.6800 284.0000 1.0000
48.6900 289.0000 1.0000
48.7000 291.0000 1.0000
48.7100 280.0000 1.0000
48.7200 274.0000 1.0000
48.7300 267.0000 1.0000
48.7400 251.0000 1.0000
48.7500 266.0000 1.0000
48.7600 281.0000 1.0000
48.7700 278.0000 1.0000
48.7800 281.0000 1.0000
48.7900 267.0000 1.0000
48.8000 268.0000 1.0000
48.8100 280.0000 1.0000
48.8200 280.0000 1.0000
48.8300 252.0000 1.0000
48.8400 239.0000 1.0000
48.8500 265.0000 1.0000
48.8600 277.0000 1.0000
48.8700 291.0000 1.0000
48.8800 256.0000 1.0000
48.8900 282.0000 1.0000
48.9000 269.0000 1.0000
48.9100 259.0000 1.0000
48.9200 266.0000 1.0000
48.9300 281.0000 1.0000
48.9400 300.0000 1.0000
48.9500 258.0000 1.0000
48.9600 265.0000 1.0000
48.9700 278.0000 1.0000
48.9800 287.0000 1.0000
48.9900 269.0000 1.0000
49.0000 266.0000 1.0000
49.0100 270.0000 1.0000
49.0200 267.0000 1.0000
49.0300 277.0000 1.0000
49.0400 273.0000 1.0000
49.0500 286.0000 1.0000
49.0600 270.0000 1.0000
49.0700 242.0000 1.0000
49.0800 278.0000 1.0000
49.0900 265.0000 1.0000
49.1000 255.0000 1.0000
49.1100 277.0000 1.0000
49.1200 269.0000 1.0000
49.1300 273.0000 1.0000
49.1400 265.0000 1.0000
49.1500 286.0000 1.0000
49.1600 288.0000 1.0000
49.1700 276.0000 1.0000
49.1800 287.0000 1.0000
49.1900 302.0000 1.0000
49.2000 284.0000 1.0000
49.2100 274.0000 1.0000
49.2200 304.0000 1.0000
49.2300 291.0000 1.0000
49.2400 284.0000 1.0000
49.2500 308.0000 1.0000
49.2600 303.0000 1.0000
49.2700 310.0000 1.0000
49.2800 275.0000 1.0000
49.2900 294.0000 1.0000
49.3000 303.0000 1.0000
49.3100 296.0000 1.0000
49.3200 302.0000 1.0000
49.3300 326.0000 1.0000
49.3400 296.0000 1.0000
49.3500 294.0000 1.0000
49.3600 318.0000 1.0000
49.3700 342.0000 1.0000
49.3800 333.0000 1.0000
49.3900 315.0000 1.0000
49.4000 308.0000 1.0000
49.4100 323.0000 1.0000
49.4200 288.0000 1.0000
49.4300 332.0000 1.0000
49.4400 329.0000 1.0000
49.4500 292.0000 1.0000
49.4600 313.0000 1.0000
49.4700 314.0000 1.0000
49.4800 313.0000 1.0000
49.4900 310.0000 1.0000
49.5000 295.0000 1.0000
49.5100 317.0000 1.0000
49.5200 332.0000 1.0000
49.5300 326.0000 1.0000
49.5400 305.0000 1.0000
49.5500 310.0000 1.0000
49.5600 312.0000 1.0000
49.5700 287.0000 1.0000
49.5800 340.0000 1.0000
49.5900 312.0000 1.0000
49.6000 290.0000 1.0000
49.6100 286.0000 1.0000
49.6200 293.0000 1.0000
49.6300 282.0000 1.0000
49.6400 297.0000 1.0000
49.6500 288.0000 1.0000
49.6600 298.0000 1.0000
49.6700 286.0000 1.0000
49.6800 292.0000 1.0000
49.6900 288.0000 1.0000
49.7000 256.0000 1.0000
49.7100 285.0000 1.0000
49.7200 280.0000 1.0000
49.7300 271.0000 1.0000
49.7400 243.0000 1.0000
49.7500 260.0000 1.0000
49.7600 281.0000 1.0000
49.7700 297.0000 1.0000
49.7800 267.0000 1.0000
49.7900 270.0000 1.0000
49.8000 294.0000 1.0000
49.8100 274.0000 1.0000
49.8200 286.0000 1.0000
49.8300 295.0000 1.0000
49.8400 272.0000 1.0000
49.8500 298.0000 1.0000
49.8600 282.0000 1.0000
49.8700 281.0000 1.0000
49.8800 291.0000 1.0000
49.8900 278.0000 1.0000
49.9000 280.0000 1.0000
49.9100 293.0000 1.0000
49.9200 287.0000 1.0000
49.9300 284.0000 1.0000
49.9400 277.0000 1.0000
49.9500 278.0000 1.0000
49.9600 289.0000 1.0000
49.9700 280.0000 1.0000
49.9800 275.0000 1.0000
49.9900 268.0000 1.0000
50.0000 287.0000 1.0000
50.0100 268.0000 1.0000
50.0200 270.0000 1.0000
50.0300 296.0000 1.0000
50.0400 294.0000 1.0000
50.0500 263.0000 1.0000
50.0600 279.0000 1.0000
50.0700 267.0000 1.0000
50.0800 276.0000 1.0000
50.0900 260.0000 1.0000
50.1000 285.0000 1.0000
50.1100 257.0000 1.0000
50.1200 248.0000 1.0000
50.1300 259.0000 1.0000
50.1400 277.0000 1.0000
50.1500 273.0000 1.0000
50.1600 279.0000 1.0000
50.1700 275.0000 1.0000
50.1800 288.0000 1.0000
50.1900 294.0000 1.0000
50.2000 266.0000 1.0000
50.2100 263.0000 1.0000
50.2200 288.0000 1.0000
50.2300 274.0000 1.0000
50.2400 283.0000 1.0000
50.2500 263.0000 1.0000
50.2600 295.0000 1.0000
50.2700 269.0000 1.0000
50.2800 267.0000 1.0000
50.2900 276.0000 1.0000
50.3000 289.0000 1.0000
50.3100 264.0000 1.0000
50.3200 273.0000 1.0000
50.3300 290.0000 1.0000
50.3400 276.0000 1.0000
50.3500 268.0000 1.0000
50.3600 281.0000 1.0000
50.3700 280.0000 1.0000
50.3800 276.0000 1.0000
50.3900 273.0000 1.0000
50.4000 300.0000 1.0000
50.4100 275.0000 1.0000
50.4200 268.0000 1.0000
50.4300 269.0000 1.0000
50.4400 271.0000 1.0000
50.4500 290.0000 1.0000
50.4600 285.0000 1.0000
50.4700 238.0000 1.0000
50.4800 278.0000 1.0000
50.4900 234.0000 1.0000
50.5000 265.0000 1.0000
50.5100 290.0000 1.0000
50.5200 277.0000 1.0000
50.5300 264.0000 1.0000
50.5400 273.0000 1.0000
50.5500 266.0000 1.0000
50.5600 288.0000 1.0000
50.5700 265.0000 1.0000
50.5800 260.0000 1.0000
50.5900 282.0000 1.0000
50.6000 256.0000 1.0000
50.6100 263.0000 1.0000
50.6200 262.0000 1.0000
50.6300 293.0000 1.0000
50.6400 280.0000 1.0000
50.6500 267.0000 1.0000
50.6600 254.0000 1.0000
50.6700 281.0000 1.0000
50.6800 269.0000 1.0000
50.6900 285.0000 1.0000
50.7000 279.0000 1.0000
50.7100 318.0000 1.0000
50.7200 294.0000 1.0000
50.7300 306.0000 1.0000
50.7400 265.0000 1.0000
50.7500 306.0000 1.0000
50.7600 290.0000 1.0000
50.7700 276.0000 1.0000
50.7800 281.0000 1.0000
50.7900 274.0000 1.0000
50.8000 284.0000 1.0000
50.8100 273.0000 1.0000
50.8200 251.0000 1.0000
50.8300 255.0000 1.0000
50.8400 274.0000 1.0000
50.8500 291.0000 1.0000
50.8600 277.0000 1.0000
50.8700 273.0000 1.0000
50.8800 292.0000 1.0000
50.8900 288.0000 1.0000
50.9000 302.0000 1.0000
50.9100 288.0000 1.0000
50.9200 286.0000 1.0000
50.9300 289.0000 1.0000
50.9400 271.0000 1.0000
50.9500 286.0000 1.0000
50.9600 288.0000 1.0000
50.9700 281.0000 1.0000
50.9800 256.0000 1.0000
50.9900 297.0000 1.0000
51.0000 270.0000 1.0000
51.0100 287.0000 1.0000
51.0200 301.0000 1.0000
51.0300 309.0000 1.0000
51.0400 321.0000 1.0000
51.0500 309.0000 1.0000
51.0600 289.0000 1.0000
51.0700 297.0000 1.0000
51.0800 277.0000 1.0000
51.0900 322.0000 1.0000
51.1000 298.0000 1.0000
51.1100 312.0000 1.0000
51.1200 322.0000 1.0000
51.1300 317.0000 1.0000
51.1400 321.0000 1.0000
51.1500 330.0000 1.0000
51.1600 329.0000 1.0000
51.1700 319.0000 1.0000
51.1800 361.0000 1.0000
51.1900 344.0000 1.0000
51.2000 363.0000 1.0000
51.2100 365.0000 1.0000
51.2200 361.0000 1.0000
51.2300 377.0000 1.0000
51.2400 426.0000 1.0000
51.2500 419.0000 1.0000
51.2600 416.0000 1.0000
51.2700 390.0000 1.0000
51.2800 476.0000 1.0000
51.2900 467.0000 1.0000
51.3000 474.0000 1.0000
51.3100 465.0000 1.0000
51.3200 505.0000 1.0000
51.3300 519.0000 1.0000
51.3400 529.0000 1.0000
51.3500 572.0000 1.0000
51.3600 660.0000 1.0000
51.3700 674.0000 1.0000
51.3800 682.0000 1.0000
51.3900 724.0000 1.0000
51.4000 749.0000 1.0000
51.4100 815.0000 1.0000
51.4200 825.0000 1.0000
51.4300 757.0000 1.0000
51.4400 904.0000 1.0000
51.4500 857.0000 1.0000
51.4600 891.0000 1.0000
51.4700 904.0000 1.0000
51.4800 885.0000 1.0000
51.4900 871.0000 1.0000
51.5000 855.0000 1.0000
51.5100 862.0000 1.0000
51.5200 902.0000 1.0000
51.5300 830.0000 1.0000
51.5400 829.0000 1.0000
51.5500 814.0000 1.0000
51.5600 793.0000 1.0000
51.5700 806.0000 1.0000
51.5800 739.0000 1.0000
51.5900 757.0000 1.0000
51.6000 776.0000 1.0000
51.6100 736.0000 1.0000
51.6200 737.0000 1.0000
51.6300 648.0000 1.0000
51.6400 621.0000 1.0000
51.6500 644.0000 1.0000
51.6600 619.0000 1.0000
51.6700 562.0000 1.0000
51.6800 539.0000 1.0000
51.6900 511.0000 1.0000
51.7000 495.0000 1.0000
51.7100 464.0000 1.0000
51.7200 470.0000 1.0000
51.7300 423.0000 1.0000
51.7400 408.0000 1.0000
51.7500 420.0000 1.0000
51.7600 419.0000 1.0000
51.7700 426.0000 1.0000
51.7800 379.0000 1.0000
51.7900 378.0000 1.0000
51.8000 387.0000 1.0000
51.8100 352.0000 1.0000
51.8200 354.0000 1.0000
51.8300 343.0000 1.0000
51.8400 307.0000 1.0000
51.8500 356.0000 1.0000
51.8600 350.0000 1.0000
51.8700 359.0000 1.0000
51.8800 333.0000 1.0000
51.8900 317.0000 1.0000
51.9000 299.0000 1.0000
51.9100 324.0000 1.0000
51.9200 301.0000 1.0000
51.9300 289.0000 1.0000
51.9400 325.0000 1.0000
51.9500 327.0000 1.0000
51.9600 324.0000 1.0000
51.9700 326.0000 1.0000
51.9800 305.0000 1.0000
51.9900 310.0000 1.0000
52.0000 320.0000 1.0000
52.0100 299.0000 1.0000
52.0200 310.0000 1.0000
52.0300 289.0000 1.0000
52.0400 277.0000 1.0000
52.0500 267.0000 1.0000
52.0600 280.0000 1.0000
52.0700 286.0000 1.0000
52.0800 312.0000 1.0000
52.0900 298.0000 1.0000
52.1000 285.0000 1.0000
52.1100 305.0000 1.0000
52.1200 272.0000 1.0000
52.1300 281.0000 1.0000
52.1400 279.0000 1.0000
52.1500 245.0000 1.0000
52.1600 255.0000 1.0000
52.1700 251.0000 1.0000
52.1800 285.0000 1.0000
52.1900 283.0000 1.0000
52.2000 307.0000 1.0000
52.2100 272.0000 1.0000
52.2200 297.0000 1.0000
52.2300 239.0000 1.0000
52.2400 269.0000 1.0000
52.2500 251.0000 1.0000
52.2600 250.0000 1.0000
52.2700 262.0000 1.0000
52.2800 260.0000 1.0000
52.2900 305.0000 1.0000
52.3000 289.0000 1.0000
52.3100 267.0000 1.0000
52.3200 298.0000 1.0000
52.3300 283.0000 1.0000
52.3400 273.0000 1.0000
52.3500 276.0000 1.0000
52.3600 275.0000 1.0000
52.3700 297.0000 1.0000
52.3800 262.0000 1.0000
52.3900 303.0000 1.0000
52.4000 261.0000 1.0000
52.4100 270.0000 1.0000
52.4200 273.0000 1.0000
52.4300 283.0000 1.0000
52.4400 273.0000 1.0000
52.4500 283.0000 1.0000
52.4600 274.0000 1.0000
52.4700 279.0000 1.0000
52.4800 265.0000 1.0000
52.4900 307.0000 1.0000
52.5000 283.0000 1.0000
52.5100 295.0000 1.0000
52.5200 269.0000 1.0000
52.5300 258.0000 1.0000
52.5400 270.0000 1.0000
52.5500 253.0000 1.0000
52.5600 262.0000 1.0000
52.5700 259.0000 1.0000
52.5800 283.0000 1.0000
52.5900 273.0000 1.0000
52.6000 265.0000 1.0000
52.6100 247.0000 1.0000
52.6200 276.0000 1.0000
52.6300 241.0000 1.0000
52.6400 252.0000 1.0000
52.6500 293.0000 1.0000
52.6600 262.0000 1.0000
52.6700 277.0000 1.0000
52.6800 244.0000 1.0000
52.6900 243.0000 1.0000
52.7000 254.0000 1.0000
52.7100 270.0000 1.0000
52.7200 309.0000 1.0000
52.7300 259.0000 1.0000
52.7400 278.0000 1.0000
52.7500 268.0000 1.0000
52.7600 255.0000 1.0000
52.7700 264.0000 1.0000
52.7800 248.0000 1.0000
52.7900 262.0000 1.0000
52.8000 276.0000 1.0000
52.8100 288.0000 1.0000
52.8200 287.0000 1.0000
52.8300 284.0000 1.0000
52.8400 248.0000 1.0000
52.8500 267.0000 1.0000
52.8600 273.0000 1.0000
52.8700 286.0000 1.0000
52.8800 266.0000 1.0000
52.8900 253.0000 1.0000
52.9000 258.0000 1.0000
52.9100 246.0000 1.0000
52.9200 225.0000 1.0000
52.9300 234.0000 1.0000
52.9400 239.0000 1.0000
52.9500 269.0000 1.0000
52.9600 228.0000 1.0000
52.9700 275.0000 1.0000
52.9800 261.0000 1.0000
52.9900 248.0000 1.0000
53.0000 270.0000 1.0000
53.0100 244.0000 1.0000
53.0200 278.0000 1.0000
53.0300 263.0000 1.0000
53.0400 267.0000 1.0000
53.0500 262.0000 1.0000
53.0600 263.0000 1.0000
53.0700 273.0000 1.0000
53.0800 244.0000 1.0000
53.0900 265.0000 1.0000
53.1000 255.0000 1.0000
53.1100 266.0000 1.0000
53.1200 274.0000 1.0000
53.1300 261.0000 1.0000
53.1400 271.0000 1.0000
53.1500 293.0000 1.0000
53.1600 248.0000 1.0000
53.1700 280.0000 1.0000
53.1800 261.0000 1.0000
53.1900 273.0000 1.0000
53.2000 256.0000 1.0000
53.2100 270.0000 1.0000
53.2200 283.0000 1.0000
53.2300 265.0000 1.0000
53.2400 263.0000 1.0000
53.2500 242.0000 1.0000
53.2600 251.0000 1.0000
53.2700 228.0000 1.0000
53.2800 252.0000 1.0000
53.2900 264.0000 1.0000
53.3000 254.0000 1.0000
53.3100 280.0000 1.0000
53.3200 263.0000 1.0000
53.3300 250.0000 1.0000
53.3400 260.0000 1.0000
53.3500 273.0000 1.0000
53.3600 279.0000 1.0000
53.3700 220.0000 1.0000
53.3800 233.0000 1.0000
53.3900 277.0000 1.0000
53.4000 280.0000 1.0000
53.4100 276.0000 1.0000
53.4200 264.0000 1.0000
53.4300 261.0000 1.0000
53.4400 249.0000 1.0000
53.4500 253.0000 1.0000
53.4600 281.0000 1.0000
53.4700 259.0000 1.0000
53.4800 272.0000 1.0000
53.4900 252.0000 1.0000
53.5000 276.0000 1.0000
53.5100 277.0000 1.0000
53.5200 241.0000 1.0000
53.5300 256.0000 1.0000
53.5400 255.0000 1.0000
53.5500 259.0000 1.0000
53.5600 248.0000 1.0000
53.5700 265.0000 1.0000
53.5800 243.0000 1.0000
53.5900 250.0000 1.0000
53.6000 254.0000 1.0000
53.6100 283.0000 1.0000
53.6200 284.0000 1.0000
53.6300 276.0000 1.0000
53.6400 273.0000 1.0000
53.6500 253.0000 1.0000
53.6600 240.0000 1.0000
53.6700 270.0000 1.0000
53.6800 277.0000 1.0000
53.6900 265.0000 1.0000
53.7000 276.0000 1.0000
53.7100 275.0000 1.0000
53.7200 287.0000 1.0000
53.7300 269.0000 1.0000
53.7400 271.0000 1.0000
53.7500 281.0000 1.0000
53.7600 266.0000 1.0000
53.7700 271.0000 1.0000
53.7800 254.0000 1.0000
53.7900 267.0000 1.0000
53.8000 290.0000 1.0000
53.8100 293.0000 1.0000
53.8200 259.0000 1.0000
53.8300 305.0000 1.0000
53.8400 276.0000 1.0000
53.8500 276.0000 1.0000
53.8600 276.0000 1.0000
53.8700 272.0000 1.0000
53.8800 276.0000 1.0000
53.8900 279.0000 1.0000
53.9000 302.0000 1.0000
53.9100 299.0000 1.0000
53.9200 307.0000 1.0000
53.9300 301.0000 1.0000
53.9400 291.0000 1.0000
53.9500 295.0000 1.0000
53.9600 292.0000 1.0000
53.9700 290.0000 1.0000
53.9800 293.0000 1.0000
53.9900 284.0000 1.0000
54.0000 279.0000 1.0000
54.0100 304.0000 1.0000
54.0200 318.0000 1.0000
54.0300 331.0000 1.0000
54.0400 287.0000 1.0000
54.0500 280.0000 1.0000
54.0600 298.0000 1.0000
54.0700 301.0000 1.0000
54.0800 305.0000 1.0000
54.0900 324.0000 1.0000
54.1000 297.0000 1.0000
54.1100 285.0000 1.0000
54.1200 287.0000 1.0000
54.1300 298.0000 1.0000
54.1400 319.0000 1.0000
54.1500 288.0000 1.0000
54.1600 300.0000 1.0000
54.1700 289.0000 1.0000
54.1800 277.0000 1.0000
54.1900 295.0000 1.0000
54.2000 309.0000 1.0000
54.2100 338.0000 1.0000
54.2200 288.0000 1.0000
54.2300 271.0000 1.0000
54.2400 307.0000 1.0000
54.2500 295.0000 1.0000
54.2600 291.0000 1.0000
54.2700 294.0000 1.0000
54.2800 318.0000 1.0000
54.2900 291.0000 1.0000
54.3000 287.0000 1.0000
54.3100 286.0000 1.0000
54.3200 279.0000 1.0000
54.3300 276.0000 1.0000
54.3400 303.0000 1.0000
54.3500 321.0000 1.0000
54.3600 310.0000 1.0000
54.3700 290.0000 1.0000
54.3800 307.0000 1.0000
54.3900 296.0000 1.0000
54.4000 328.0000 1.0000
54.4100 317.0000 1.0000
54.4200 333.0000 1.0000
54.4300 323.0000 1.0000
54.4400 307.0000 1.0000
54.4500 319.0000 1.0000
54.4600 320.0000 1.0000
54.4700 317.0000 1.0000
54.4800 325.0000 1.0000
54.4900 348.0000 1.0000
54.5000 338.0000 1.0000
54.5100 330.0000 1.0000
54.5200 352.0000 1.0000
54.5300 342.0000 1.0000
54.5400 317.0000 1.0000
54.5500 323.0000 1.0000
54.5600 306.0000 1.0000
54.5700 306.0000 1.0000
54.5800 316.0000 1.0000
54.5900 334.0000 1.0000
54.6000 329.0000 1.0000
54.6100 318.0000 1.0000
54.6200 295.0000 1.0000
54.6300 314.0000 1.0000
54.6400 307.0000 1.0000
54.6500 291.0000 1.0000
54.6600 309.0000 1.0000
54.6700 293.0000 1.0000
54.6800 318.0000 1.0000
54.6900 308.0000 1.0000
54.7000 284.0000 1.0000
54.7100 283.0000 1.0000
54.7200 321.0000 1.0000
54.7300 290.0000 1.0000
54.7400 255.0000 1.0000
54.7500 270.0000 1.0000
54.7600 263.0000 1.0000
54.7700 265.0000 1.0000
54.7800 272.0000 1.0000
54.7900 242.0000 1.0000
54.8000 272.0000 1.0000
54.8100 305.0000 1.0000
54.8200 289.0000 1.0000
54.8300 282.0000 1.0000
54.8400 275.0000 1.0000
54.8500 279.0000 1.0000
54.8600 270.0000 1.0000
54.8700 285.0000 1.0000
54.8800 276.0000 1.0000
54.8900 261.0000 1.0000
54.9000 273.0000 1.0000
54.9100 285.0000 1.0000
54.9200 277.0000 1.0000
54.9300 259.0000 1.0000
54.9400 269.0000 1.0000
54.9500 284.0000 1.0000
54.9600 272.0000 1.0000
54.9700 280.0000 1.0000
54.9800 251.0000 1.0000
54.9900 261.0000 1.0000
55.0000 266.0000 1.0000
55.0100 278.0000 1.0000
55.0200 267.0000 1.0000
55.0300 244.0000 1.0000
55.0400 255.0000 1.0000
55.0500 260.0000 1.0000
55.0600 256.0000 1.0000
55.0700 257.0000 1.0000
55.0800 253.0000 1.0000
55.0900 272.0000 1.0000
55.1000 257.0000 1.0000
55.1100 245.0000 1.0000
55.1200 252.0000 1.0000
55.1300 282.0000 1.0000
55.1400 271.0000 1.0000
55.1500 272.0000 1.0000
55.1600 262.0000 1.0000
55.1700 272.0000 1.0000
55.1800 270.0000 1.0000
55.1900 257.0000 1.0000
55.2000 265.0000 1.0000
55.2100 257.0000 1.0000
55.2200 252.0000 1.0000
55.2300 269.0000 1.0000
55.2400 277.0000 1.0000
55.2500 261.0000 1.0000
55.2600 267.0000 1.0000
55.2700 247.0000 1.0000
55.2800 277.0000 1.0000
55.2900 259.0000 1.0000
55.3000 276.0000 1.0000
55.3100 251.0000 1.0000
55.3200 241.0000 1.0000
55.3300 267.0000 1.0000
55.3400 257.0000 1.0000
55.3500 249.0000 1.0000
55.3600 267.0000 1.0000
55.3700 253.0000 1.0000
55.3800 251.0000 1.0000
55.3900 240.0000 1.0000
55.4000 245.0000 1.0000
55.4100 271.0000 1.0000
55.4200 262.0000 1.0000
55.4300 251.0000 1.0000
55.4400 243.0000 1.0000
55.4500 263.0000 1.0000
55.4600 247.0000 1.0000
55.4700 246.0000 1.0000
55.4800 233.0000 1.0000
55.4900 273.0000 1.0000
55.5000 233.0000 1.0000
55.5100 267.0000 1.0000
55.5200 245.0000 1.0000
55.5300 252.0000 1.0000
55.5400 264.0000 1.0000
55.5500 242.0000 1.0000
55.5600 246.0000 1.0000
55.5700 244.0000 1.0000
55.5800 264.0000 1.0000
55.5900 220.0000 1.0000
55.6000 239.0000 1.0000
55.6100 258.0000 1.0000
55.6200 275.0000 1.0000
55.6300 253.0000 1.0000
55.6400 265.0000 1.0000
55.6500 298.0000 1.0000
55.6600 264.0000 1.0000
55.6700 240.0000 1.0000
55.6800 261.0000 1.0000
55.6900 250.0000 1.0000
55.7000 241.0000 1.0000
55.7100 271.0000 1.0000
55.7200 247.0000 1.0000
55.7300 250.0000 1.0000
55.7400 277.0000 1.0000
55.7500 236.0000 1.0000
55.7600 249.0000 1.0000
55.7700 285.0000 1.0000
55.7800 272.0000 1.0000
55.7900 212.0000 1.0000
55.8000 265.0000 1.0000
55.8100 269.0000 1.0000
55.8200 233.0000 1.0000
55.8300 264.0000 1.0000
55.8400 248.0000 1.0000
55.8500 259.0000 1.0000
55.8600 257.0000 1.0000
55.8700 276.0000 1.0000
55.8800 261.0000 1.0000
55.8900 240.0000 1.0000
55.9000 265.0000 1.0000
55.9100 236.0000 1.0000
55.9200 250.0000 1.0000
55.9300 272.0000 1.0000
55.9400 273.0000 1.0000
55.9500 258.0000 1.0000
55.9600 272.0000 1.0000
55.9700 227.0000 1.0000
55.9800 264.0000 1.0000
55.9900 272.0000 1.0000
56.0000 256.0000 1.0000
56.0100 254.0000 1.0000
56.0200 261.0000 1.0000
56.0300 252.0000 1.0000
56.0400 243.0000 1.0000
56.0500 252.0000 1.0000
56.0600 242.0000 1.0000
56.0700 273.0000 1.0000
56.0800 256.0000 1.0000
56.0900 264.0000 1.0000
56.1000 262.0000 1.0000
56.1100 240.0000 1.0000
56.1200 239.0000 1.0000
56.1300 246.0000 1.0000
56.1400 229.0000 1.0000
56.1500 229.0000 1.0000
56.1600 219.0000 1.0000
56.1700 247.0000 1.0000
56.1800 261.0000 1.0000
56.1900 237.0000 1.0000
56.2000 237.0000 1.0000
56.2100 252.0000 1.0000
56.2200 260.0000 1.0000
56.2300 239.0000 1.0000
56.2400 228.0000 1.0000
56.2500 263.0000 1.0000
56.2600 256.0000 1.0000
56.2700 255.0000 1.0000
56.2800 246.0000 1.0000
56.2900 239.0000 1.0000
56.3000 233.0000 1.0000
56.3100 262.0000 1.0000
56.3200 271.0000 1.0000
56.3300 271.0000 1.0000
56.3400 280.0000 1.0000
56.3500 259.0000 1.0000
56.3600 278.0000 1.0000
56.3700 226.0000 1.0000
56.3800 252.0000 1.0000
56.3900 245.0000 1.0000
56.4000 239.0000 1.0000
56.4100 244.0000 1.0000
56.4200 271.0000 1.0000
56.4300 266.0000 1.0000
56.4400 266.0000 1.0000
56.4500 259.0000 1.0000
56.4600 265.0000 1.0000
56.4700 234.0000 1.0000
56.4800 251.0000 1.0000
56.4900 261.0000 1.0000
56.5000 232.0000 1.0000
56.5100 245.0000 1.0000
56.5200 244.0000 1.0000
56.5300 252.0000 1.0000
56.5400 233.0000 1.0000
56.5500 242.0000 1.0000
56.5600 230.0000 1.0000
56.5700 251.0000 1.0000
56.5800 239.0000 1.0000
56.5900 268.0000 1.0000
56.6000 251.0000 1.0000
56.6100 281.0000 1.0000
56.6200 266.0000 1.0000
56.6300 247.0000 1.0000
56.6400 226.0000 1.0000
56.6500 259.0000 1.0000
56.6600 263.0000 1.0000
56.6700 223.0000 1.0000
56.6800 244.0000 1.0000
56.6900 267.0000 1.0000
56.7000 252.0000 1.0000
56.7100 253.0000 1.0000
56.7200 229.0000 1.0000
56.7300 246.0000 1.0000
56.7400 260.0000 1.0000
56.7500 247.0000 1.0000
56.7600 258.0000 1.0000
56.7700 233.0000 1.0000
56.7800 238.0000 1.0000
56.7900 264.0000 1.0000
56.8000 251.0000 1.0000
56.8100 235.0000 1.0000
56.8200 234.0000 1.0000
56.8300 235.0000 1.0000
56.8400 254.0000 1.0000
56.8500 246.0000 1.0000
56.8600 268.0000 1.0000
56.8700 261.0000 1.0000
56.8800 244.0000 1.0000
56.8900 246.0000 1.0000
56.9000 277.0000 1.0000
56.9100 242.0000 1.0000
56.9200 262.0000 1.0000
56.9300 216.0000 1.0000
56.9400 258.0000 1.0000
56.9500 268.0000 1.0000
56.9600 259.0000 1.0000
56.9700 248.0000 1.0000
56.9800 236.0000 1.0000
56.9900 268.0000 1.0000
57.0000 246.0000 1.0000
57.0100 271.0000 1.0000
57.0200 254.0000 1.0000
57.0300 247.0000 1.0000
57.0400 256.0000 1.0000
57.0500 264.0000 1.0000
57.0600 258.0000 1.0000
57.0700 254.0000 1.0000
57.0800 251.0000 1.0000
57.0900 260.0000 1.0000
57.1000 256.0000 1.0000
57.1100 259.0000 1.0000
57.1200 245.0000 1.0000
57.1300 245.0000 1.0000
57.1400 251.0000 1.0000
57.1500 263.0000 1.0000
57.1600 235.0000 1.0000
57.1700 247.0000 1.0000
57.1800 237.0000 1.0000
57.1900 258.0000 1.0000
57.2000 246.0000 1.0000
57.2100 243.0000 1.0000
57.2200 251.0000 1.0000
57.2300 243.0000 1.0000
57.2400 248.0000 1.0000
57.2500 269.0000 1.0000
57.2600 265.0000 1.0000
57.2700 257.0000 1.0000
57.2800 236.0000 1.0000
57.2900 265.0000 1.0000
57.3000 254.0000 1.0000
57.3100 245.0000 1.0000
57.3200 260.0000 1.0000
57.3300 239.0000 1.0000
57.3400 252.0000 1.0000
57.3500 254.0000 1.0000
57.3600 275.0000 1.0000
57.3700 247.0000 1.0000
57.3800 264.0000 1.0000
57.3900 244.0000 1.0000
57.4000 239.0000 1.0000
57.4100 228.0000 1.0000
57.4200 249.0000 1.0000
57.4300 283.0000 1.0000
57.4400 269.0000 1.0000
57.4500 220.0000 1.0000
57.4600 256.0000 1.0000
57.4700 256.0000 1.0000
57.4800 233.0000 1.0000
57.4900 250.0000 1.0000
57.5000 234.0000 1.0000
57.5100 278.0000 1.0000
57.5200 268.0000 1.0000
57.5300 247.0000 1.0000
57.5400 254.0000 1.0000
57.5500 218.0000 1.0000
57.5600 239.0000 1.0000
57.5700 232.0000 1.0000
57.5800 276.0000 1.0000
57.5900 252.0000 1.0000
57.6000 243.0000 1.0000
57.6100 279.0000 1.0000
57.6200 277.0000 1.0000
57.6300 251.0000 1.0000
57.6400 261.0000 1.0000
57.6500 281.0000 1.0000
57.6600 259.0000 1.0000
57.6700 227.0000 1.0000
57.6800 235.0000 1.0000
57.6900 249.0000 1.0000
57.7000 266.0000 1.0000
57.7100 260.0000 1.0000
57.7200 247.0000 1.0000
57.7300 259.0000 1.0000
57.7400 230.0000 1.0000
57.7500 240.0000 1.0000
57.7600 253.0000 1.0000
57.7700 260.0000 1.0000
57.7800 265.0000 1.0000
57.7900 269.0000 1.0000
57.8000 241.0000 1.0000
57.8100 243.0000 1.0000
57.8200 236.0000 1.0000
57.8300 266.0000 1.0000
57.8400 262.0000 1.0000
57.8500 243.0000 1.0000
57.8600 235.0000 1.0000
57.8700 236.0000 1.0000
57.8800 235.0000 1.0000
57.8900 258.0000 1.0000
57.9000 252.0000 1.0000
57.9100 253.0000 1.0000
57.9200 252.0000 1.0000
57.9300 229.0000 1.0000
57.9400 221.0000 1.0000
57.9500 220.0000 1.0000
57.9600 223.0000 1.0000
57.9700 238.0000 1.0000
57.9800 269.0000 1.0000
57.9900 255.0000 1.0000
58.0000 267.0000 1.0000
58.0100 258.0000 1.0000
58.0200 260.0000 1.0000
58.0300 249.0000 1.0000
58.0400 248.0000 1.0000
58.0500 236.0000 1.0000
58.0600 228.0000 1.0000
58.0700 259.0000 1.0000
58.0800 230.0000 1.0000
58.0900 227.0000 1.0000
58.1000 240.0000 1.0000
58.1100 239.0000 1.0000
58.1200 240.0000 1.0000
58.1300 229.0000 1.0000
58.1400 231.0000 1.0000
58.1500 223.0000 1.0000
58.1600 245.0000 1.0000
58.1700 241.0000 1.0000
58.1800 259.0000 1.0000
58.1900 216.0000 1.0000
58.2000 223.0000 1.0000
58.2100 212.0000 1.0000
58.2200 246.0000 1.0000
58.2300 261.0000 1.0000
58.2400 224.0000 1.0000
58.2500 250.0000 1.0000
58.2600 237.0000 1.0000
58.2700 229.0000 1.0000
58.2800 224.0000 1.0000
58.2900 240.0000 1.0000
58.3000 228.0000 1.0000
58.3100 254.0000 1.0000
58.3200 246.0000 1.0000
58.3300 243.0000 1.0000
58.3400 264.0000 1.0000
58.3500 229.0000 1.0000
58.3600 266.0000 1.0000
58.3700 256.0000 1.0000
58.3800 252.0000 1.0000
58.3900 243.0000 1.0000
58.4000 242.0000 1.0000
58.4100 256.0000 1.0000
58.4200 249.0000 1.0000
58.4300 249.0000 1.0000
58.4400 248.0000 1.0000
58.4500 245.0000 1.0000
58.4600 235.0000 1.0000
58.4700 251.0000 1.0000
58.4800 274.0000 1.0000
58.4900 248.0000 1.0000
58.5000 255.0000 1.0000
58.5100 243.0000 1.0000
58.5200 255.0000 1.0000
58.5300 257.0000 1.0000
58.5400 259.0000 1.0000
58.5500 269.0000 1.0000
58.5600 247.0000 1.0000
58.5700 236.0000 1.0000
58.5800 239.0000 1.0000
58.5900 261.0000 1.0000
58.6000 233.0000 1.0000
58.6100 262.0000 1.0000
58.6200 217.0000 1.0000
58.6300 259.0000 1.0000
58.6400 251.0000 1.0000
58.6500 244.0000 1.0000
58.6600 257.0000 1.0000
58.6700 272.0000 1.0000
58.6800 246.0000 1.0000
58.6900 222.0000 1.0000
58.7000 256.0000 1.0000
58.7100 249.0000 1.0000
58.7200 258.0000 1.0000
58.7300 268.0000 1.0000
58.7400 249.0000 1.0000
58.7500 250.0000 1.0000
58.7600 227.0000 1.0000
58.7700 236.0000 1.0000
58.7800 245.0000 1.0000
58.7900 265.0000 1.0000
58.8000 244.0000 1.0000
58.8100 240.0000 1.0000
58.8200 280.0000 1.0000
58.8300 233.0000 1.0000
58.8400 252.0000 1.0000
58.8500 260.0000 1.0000
58.8600 245.0000 1.0000
58.8700 245.0000 1.0000
58.8800 242.0000 1.0000
58.8900 254.0000 1.0000
58.9000 274.0000 1.0000
58.9100 247.0000 1.0000
58.9200 257.0000 1.0000
58.9300 258.0000 1.0000
58.9400 248.0000 1.0000
58.9500 245.0000 1.0000
58.9600 250.0000 1.0000
58.9700 249.0000 1.0000
58.9800 264.0000 1.0000
58.9900 246.0000 1.0000
59.0000 267.0000 1.0000
59.0100 250.0000 1.0000
59.0200 253.0000 1.0000
59.0300 243.0000 1.0000
59.0400 242.0000 1.0000
59.0500 259.0000 1.0000
59.0600 262.0000 1.0000
59.0700 257.0000 1.0000
59.0800 242.0000 1.0000
59.0900 238.0000 1.0000
59.1000 248.0000 1.0000
59.1100 273.0000 1.0000
59.1200 245.0000 1.0000
59.1300 255.0000 1.0000
59.1400 255.0000 1.0000
59.1500 258.0000 1.0000
59.1600 257.0000 1.0000
59.1700 236.0000 1.0000
59.1800 241.0000 1.0000
59.1900 238.0000 1.0000
59.2000 274.0000 1.0000
59.2100 258.0000 1.0000
59.2200 257.0000 1.0000
59.2300 247.0000 1.0000
59.2400 229.0000 1.0000
59.2500 223.0000 1.0000
59.2600 249.0000 1.0000
59.2700 255.0000 1.0000
59.2800 253.0000 1.0000
59.2900 260.0000 1.0000
59.3000 231.0000 1.0000
59.3100 232.0000 1.0000
59.3200 239.0000 1.0000
59.3300 240.0000 1.0000
59.3400 262.0000 1.0000
59.3500 261.0000 1.0000
59.3600 234.0000 1.0000
59.3700 244.0000 1.0000
59.3800 246.0000 1.0000
59.3900 238.0000 1.0000
59.4000 238.0000 1.0000
59.4100 222.0000 1.0000
59.4200 255.0000 1.0000
59.4300 285.0000 1.0000
59.4400 235.0000 1.0000
59.4500 234.0000 1.0000
59.4600 232.0000 1.0000
59.4700 262.0000 1.0000
59.4800 275.0000 1.0000
59.4900 239.0000 1.0000
59.5000 250.0000 1.0000
59.5100 237.0000 1.0000
59.5200 266.0000 1.0000
59.5300 222.0000 1.0000
59.5400 250.0000 1.0000
59.5500 245.0000 1.0000
59.5600 250.0000 1.0000
59.5700 237.0000 1.0000
59.5800 256.0000 1.0000
59.5900 247.0000 1.0000
59.6000 240.0000 1.0000
59.6100 256.0000 1.0000
59.6200 237.0000 1.0000
59.6300 256.0000 1.0000
59.6400 267.0000 1.0000
59.6500 258.0000 1.0000
59.6600 240.0000 1.0000
59.6700 251.0000 1.0000
59.6800 245.0000 1.0000
59.6900 259.0000 1.0000
59.7000 249.0000 1.0000
59.7100 227.0000 1.0000
59.7200 238.0000 1.0000
59.7300 224.0000 1.0000
59.7400 222.0000 1.0000
59.7500 235.0000 1.0000
59.7600 224.0000 1.0000
59.7700 266.0000 1.0000
59.7800 249.0000 1.0000
59.7900 238.0000 1.0000
59.8000 267.0000 1.0000
59.8100 294.0000 1.0000
59.8200 233.0000 1.0000
59.8300 232.0000 1.0000
59.8400 247.0000 1.0000
59.8500 258.0000 1.0000
59.8600 252.0000 1.0000
59.8700 227.0000 1.0000
59.8800 245.0000 1.0000
59.8900 246.0000 1.0000
59.9000 255.0000 1.0000
59.9100 245.0000 1.0000
59.9200 262.0000 1.0000
59.9300 238.0000 1.0000
59.9400 260.0000 1.0000
59.9500 238.0000 1.0000
59.9600 243.0000 1.0000
59.9700 245.0000 1.0000
59.9800 251.0000 1.0000
59.9900 267.0000 1.0000
60.0000 252.0000 1.0000
60.0100 235.0000 1.0000
60.0200 237.0000 1.0000
60.0300 248.0000 1.0000
60.0400 274.0000 1.0000
60.0500 257.0000 1.0000
60.0600 245.0000 1.0000
60.0700 236.0000 1.0000
60.0800 286.0000 1.0000
60.0900 251.0000 1.0000
60.1000 255.0000 1.0000
60.1100 225.0000 1.0000
60.1200 263.0000 1.0000
60.1300 268.0000 1.0000
60.1400 242.0000 1.0000
60.1500 268.0000 1.0000
60.1600 262.0000 1.0000
60.1700 242.0000 1.0000
60.1800 239.0000 1.0000
60.1900 247.0000 1.0000
60.2000 232.0000 1.0000
60.2100 214.0000 1.0000
60.2200 236.0000 1.0000
60.2300 243.0000 1.0000
60.2400 263.0000 1.0000
60.2500 239.0000 1.0000
60.2600 257.0000 1.0000
60.2700 243.0000 1.0000
60.2800 270.0000 1.0000
60.2900 257.0000 1.0000
60.3000 275.0000 1.0000
60.3100 253.0000 1.0000
60.3200 267.0000 1.0000
60.3300 230.0000 1.0000
60.3400 258.0000 1.0000
60.3500 240.0000 1.0000
60.3600 258.0000 1.0000
60.3700 246.0000 1.0000
60.3800 235.0000 1.0000
60.3900 231.0000 1.0000
60.4000 222.0000 1.0000
60.4100 249.0000 1.0000
60.4200 228.0000 1.0000
60.4300 243.0000 1.0000
60.4400 263.0000 1.0000
60.4500 249.0000 1.0000
60.4600 257.0000 1.0000
60.4700 257.0000 1.0000
60.4800 234.0000 1.0000
60.4900 255.0000 1.0000
60.5000 223.0000 1.0000
60.5100 245.0000 1.0000
60.5200 267.0000 1.0000
60.5300 244.0000 1.0000
60.5400 264.0000 1.0000
60.5500 253.0000 1.0000
60.5600 247.0000 1.0000
60.5700 255.0000 1.0000
60.5800 257.0000 1.0000
60.5900 230.0000 1.0000
60.6000 248.0000 1.0000
60.6100 259.0000 1.0000
60.6200 258.0000 1.0000
60.6300 228.0000 1.0000
60.6400 239.0000 1.0000
60.6500 269.0000 1.0000
60.6600 255.0000 1.0000
60.6700 230.0000 1.0000
60.6800 238.0000 1.0000
60.6900 235.0000 1.0000
60.7000 260.0000 1.0000
60.7100 244.0000 1.0000
60.7200 243.0000 1.0000
60.7300 239.0000 1.0000
60.7400 239.0000 1.0000
60.7500 234.0000 1.0000
60.7600 229.0000 1.0000
60.7700 262.0000 1.0000
60.7800 249.0000 1.0000
60.7900 282.0000 1.0000
60.8000 269.0000 1.0000
60.8100 260.0000 1.0000
60.8200 251.0000 1.0000
60.8300 268.0000 1.0000
60.8400 252.0000 1.0000
60.8500 276.0000 1.0000
60.8600 258.0000 1.0000
60.8700 223.0000 1.0000
60.8800 256.0000 1.0000
60.8900 260.0000 1.0000
60.9000 289.0000 1.0000
60.9100 259.0000 1.0000
60.9200 287.0000 1.0000
60.9300 274.0000 1.0000
60.9400 248.0000 1.0000
60.9500 264.0000 1.0000
60.9600 259.0000 1.0000
60.9700 277.0000 1.0000
60.9800 269.0000 1.0000
60.9900 282.0000 1.0000
61.0000 270.0000 1.0000
61.0100 266.0000 1.0000
61.0200 263.0000 1.0000
61.0300 275.0000 1.0000
61.0400 286.0000 1.0000
61.0500 279.0000 1.0000
61.0600 272.0000 1.0000
61.0700 278.0000 1.0000
61.0800 299.0000 1.0000
61.0900 271.0000 1.0000
61.1000 281.0000 1.0000
61.1100 287.0000 1.0000
61.1200 278.0000 1.0000
61.1300 278.0000 1.0000
61.1400 283.0000 1.0000
61.1500 299.0000 1.0000
61.1600 295.0000 1.0000
61.1700 291.0000 1.0000
61.1800 308.0000 1.0000
61.1900 302.0000 1.0000
61.2000 313.0000 1.0000
61.2100 292.0000 1.0000
61.2200 307.0000 1.0000
61.2300 316.0000 1.0000
61.2400 295.0000 1.0000
61.2500 312.0000 1.0000
61.2600 318.0000 1.0000
61.2700 339.0000 1.0000
61.2800 324.0000 1.0000
61.2900 332.0000 1.0000
61.3000 350.0000 1.0000
61.3100 364.0000 1.0000
61.3200 348.0000 1.0000
61.3300 353.0000 1.0000
61.3400 405.0000 1.0000
61.3500 403.0000 1.0000
61.3600 371.0000 1.0000
61.3700 390.0000 1.0000
61.3800 406.0000 1.0000
61.3900 418.0000 1.0000
61.4000 431.0000 1.0000
61.4100 446.0000 1.0000
61.4200 473.0000 1.0000
61.4300 423.0000 1.0000
61.4400 502.0000 1.0000
61.4500 512.0000 1.0000
61.4600 519.0000 1.0000
61.4700 479.0000 1.0000
61.4800 480.0000 1.0000
61.4900 455.0000 1.0000
61.5000 494.0000 1.0000
61.5100 526.0000 1.0000
61.5200 512.0000 1.0000
61.5300 514.0000 1.0000
61.5400 508.0000 1.0000
61.5500 470.0000 1.0000
61.5600 539.0000 1.0000
61.5700 527.0000 1.0000
61.5800 499.0000 1.0000
61.5900 523.0000 1.0000
61.6000 524.0000 1.0000
61.6100 581.0000 1.0000
61.6200 530.0000 1.0000
61.6300 518.0000 1.0000
61.6400 491.0000 1.0000
61.6500 521.0000 1.0000
61.6600 517.0000 1.0000
61.6700 489.0000 1.0000
61.6800 500.0000 1.0000
61.6900 482.0000 1.0000
61.7000 498.0000 1.0000
61.7100 480.0000 1.0000
61.7200 449.0000 1.0000
61.7300 501.0000 1.0000
61.7400 470.0000 1.0000
61.7500 500.0000 1.0000
61.7600 484.0000 1.0000
61.7700 464.0000 1.0000
61.7800 434.0000 1.0000
61.7900 446.0000 1.0000
61.8000 421.0000 1.0000
61.8100 458.0000 1.0000
61.8200 452.0000 1.0000
61.8300 430.0000 1.0000
61.8400 418.0000 1.0000
61.8500 388.0000 1.0000
61.8600 410.0000 1.0000
61.8700 398.0000 1.0000
61.8800 365.0000 1.0000
61.8900 366.0000 1.0000
61.9000 390.0000 1.0000
61.9100 383.0000 1.0000
61.9200 404.0000 1.0000
61.9300 358.0000 1.0000
61.9400 354.0000 1.0000
61.9500 353.0000 1.0000
61.9600 352.0000 1.0000
61.9700 328.0000 1.0000
61.9800 325.0000 1.0000
61.9900 349.0000 1.0000
62.0000 326.0000 1.0000
62.0100 357.0000 1.0000
62.0200 352.0000 1.0000
62.0300 312.0000 1.0000
62.0400 289.0000 1.0000
62.0500 302.0000 1.0000
62.0600 306.0000 1.0000
62.0700 294.0000 1.0000
62.0800 312.0000 1.0000
62.0900 313.0000 1.0000
62.1000 294.0000 1.0000
62.1100 314.0000 1.0000
62.1200 311.0000 1.0000
62.1300 298.0000 1.0000
62.1400 299.0000 1.0000
62.1500 279.0000 1.0000
62.1600 306.0000 1.0000
62.1700 281.0000 1.0000
62.1800 280.0000 1.0000
62.1900 289.0000 1.0000
62.2000 290.0000 1.0000
62.2100 327.0000 1.0000
62.2200 313.0000 1.0000
62.2300 276.0000 1.0000
62.2400 269.0000 1.0000
62.2500 319.0000 1.0000
62.2600 300.0000 1.0000
62.2700 299.0000 1.0000
62.2800 312.0000 1.0000
62.2900 293.0000 1.0000
62.3000 288.0000 1.0000
62.3100 278.0000 1.0000
62.3200 284.0000 1.0000
62.3300 300.0000 1.0000
62.3400 317.0000 1.0000
62.3500 291.0000 1.0000
62.3600 278.0000 1.0000
62.3700 285.0000 1.0000
62.3800 289.0000 1.0000
62.3900 299.0000 1.0000
62.4000 298.0000 1.0000
62.4100 281.0000 1.0000
62.4200 287.0000 1.0000
62.4300 269.0000 1.0000
62.4400 286.0000 1.0000
62.4500 281.0000 1.0000
62.4600 321.0000 1.0000
62.4700 269.0000 1.0000
62.4800 319.0000 1.0000
62.4900 292.0000 1.0000
62.5000 280.0000 1.0000
62.5100 305.0000 1.0000
62.5200 280.0000 1.0000
62.5300 304.0000 1.0000
62.5400 283.0000 1.0000
62.5500 262.0000 1.0000
62.5600 268.0000 1.0000
62.5700 272.0000 1.0000
62.5800 296.0000 1.0000
62.5900 276.0000 1.0000
62.6000 254.0000 1.0000
62.6100 264.0000 1.0000
62.6200 265.0000 1.0000
62.6300 269.0000 1.0000
62.6400 261.0000 1.0000
62.6500 290.0000 1.0000
62.6600 246.0000 1.0000
62.6700 264.0000 1.0000
62.6800 254.0000 1.0000
62.6900 250.0000 1.0000
62.7000 245.0000 1.0000
62.7100 266.0000 1.0000
62.7200 264.0000 1.0000
62.7300 257.0000 1.0000
62.7400 293.0000 1.0000
62.7500 262.0000 1.0000
62.7600 269.0000 1.0000
62.7700 225.0000 1.0000
62.7800 239.0000 1.0000
62.7900 253.0000 1.0000
62.8000 261.0000 1.0000
62.8100 246.0000 1.0000
62.8200 261.0000 1.0000
62.8300 257.0000 1.0000
62.8400 243.0000 1.0000
62.8500 242.0000 1.0000
62.8600 268.0000 1.0000
62.8700 274.0000 1.0000
62.8800 229.0000 1.0000
62.8900 265.0000 1.0000
62.9000 253.0000 1.0000
62.9100 270.0000 1.0000
62.9200 265.0000 1.0000
62.9300 256.0000 1.0000
62.9400 245.0000 1.0000
62.9500 260.0000 1.0000
62.9600 248.0000 1.0000
62.9700 260.0000 1.0000
62.9800 264.0000 1.0000
62.9900 266.0000 1.0000
63.0000 279.0000 1.0000
63.0100 244.0000 1.0000
63.0200 258.0000 1.0000
63.0300 294.0000 1.0000
63.0400 243.0000 1.0000
63.0500 245.0000 1.0000
63.0600 256.0000 1.0000
63.0700 251.0000 1.0000
63.0800 258.0000 1.0000
63.0900 244.0000 1.0000
63.1000 250.0000 1.0000
63.1100 235.0000 1.0000
63.1200 244.0000 1.0000
63.1300 259.0000 1.0000
63.1400 260.0000 1.0000
63.1500 254.0000 1.0000
63.1600 256.0000 1.0000
63.1700 244.0000 1.0000
63.1800 260.0000 1.0000
63.1900 248.0000 1.0000
63.2000 249.0000 1.0000
63.2100 280.0000 1.0000
63.2200 280.0000 1.0000
63.2300 249.0000 1.0000
63.2400 278.0000 1.0000
63.2500 253.0000 1.0000
63.2600 254.0000 1.0000
63.2700 251.0000 1.0000
63.2800 240.0000 1.0000
63.2900 245.0000 1.0000
63.3000 253.0000 1.0000
63.3100 251.0000 1.0000
63.3200 242.0000 1.0000
63.3300 251.0000 1.0000
63.3400 255.0000 1.0000
63.3500 276.0000 1.0000
63.3600 243.0000 1.0000
63.3700 238.0000 1.0000
63.3800 264.0000 1.0000
63.3900 232.0000 1.0000
63.4000 258.0000 1.0000
63.4100 244.0000 1.0000
63.4200 257.0000 1.0000
63.4300 283.0000 1.0000
63.4400 228.0000 1.0000
63.4500 246.0000 1.0000
63.4600 246.0000 1.0000
63.4700 245.0000 1.0000
63.4800 260.0000 1.0000
63.4900 234.0000 1.0000
63.5000 239.0000 1.0000
63.5100 241.0000 1.0000
63.5200 247.0000 1.0000
63.5300 260.0000 1.0000
63.5400 251.0000 1.0000
63.5500 252.0000 1.0000
63.5600 280.0000 1.0000
63.5700 256.0000 1.0000
63.5800 276.0000 1.0000
63.5900 261.0000 1.0000
63.6000 247.0000 1.0000
63.6100 227.0000 1.0000
63.6200 231.0000 1.0000
63.6300 223.0000 1.0000
63.6400 221.0000 1.0000
63.6500 249.0000 1.0000
63.6600 261.0000 1.0000
63.6700 269.0000 1.0000
63.6800 270.0000 1.0000
63.6900 260.0000 1.0000
63.7000 267.0000 1.0000
63.7100 264.0000 1.0000
63.7200 266.0000 1.0000
63.7300 260.0000 1.0000
63.7400 260.0000 1.0000
63.7500 266.0000 1.0000
63.7600 251.0000 1.0000
63.7700 271.0000 1.0000
63.7800 286.0000 1.0000
63.7900 271.0000 1.0000
63.8000 249.0000 1.0000
63.8100 284.0000 1.0000
63.8200 272.0000 1.0000
63.8300 286.0000 1.0000
63.8400 255.0000 1.0000
63.8500 284.0000 1.0000
63.8600 293.0000 1.0000
63.8700 268.0000 1.0000
63.8800 296.0000 1.0000
63.8900 283.0000 1.0000
63.9000 284.0000 1.0000
63.9100 295.0000 1.0000
63.9200 295.0000 1.0000
63.9300 266.0000 1.0000
63.9400 282.0000 1.0000
63.9500 288.0000 1.0000
63.9600 292.0000 1.0000
63.9700 291.0000 1.0000
63.9800 297.0000 1.0000
63.9900 297.0000 1.0000
64.0000 306.0000 1.0000
64.0100 271.0000 1.0000
64.0200 263.0000 1.0000
64.0300 293.0000 1.0000
64.0400 304.0000 1.0000
64.0500 306.0000 1.0000
64.0600 318.0000 1.0000
64.0700 281.0000 1.0000
64.0800 308.0000 1.0000
64.0900 283.0000 1.0000
64.1000 287.0000 1.0000
64.1100 280.0000 1.0000
64.1200 288.0000 1.0000
64.1300 280.0000 1.0000
64.1400 268.0000 1.0000
64.1500 263.0000 1.0000
64.1600 267.0000 1.0000
64.1700 297.0000 1.0000
64.1800 278.0000 1.0000
64.1900 269.0000 1.0000
64.2000 271.0000 1.0000
64.2100 277.0000 1.0000
64.2200 256.0000 1.0000
64.2300 270.0000 1.0000
64.2400 275.0000 1.0000
64.2500 260.0000 1.0000
64.2600 291.0000 1.0000
64.2700 246.0000 1.0000
64.2800 278.0000 1.0000
64.2900 269.0000 1.0000
64.3000 253.0000 1.0000
64.3100 254.0000 1.0000
64.3200 272.0000 1.0000
64.3300 251.0000 1.0000
64.3400 269.0000 1.0000
64.3500 265.0000 1.0000
64.3600 277.0000 1.0000
64.3700 264.0000 1.0000
64.3800 237.0000 1.0000
64.3900 241.0000 1.0000
64.4000 266.0000 1.0000
64.4100 236.0000 1.0000
64.4200 231.0000 1.0000
64.4300 247.0000 1.0000
64.4400 241.0000 1.0000
64.4500 258.0000 1.0000
64.4600 255.0000 1.0000
64.4700 274.0000 1.0000
64.4800 260.0000 1.0000
64.4900 262.0000 1.0000
64.5000 253.0000 1.0000
64.5100 272.0000 1.0000
64.5200 246.0000 1.0000
64.5300 260.0000 1.0000
64.5400 252.0000 1.0000
64.5500 253.0000 1.0000
64.5600 263.0000 1.0000
64.5700 248.0000 1.0000
64.5800 248.0000 1.0000
64.5900 253.0000 1.0000
64.6000 243.0000 1.0000
64.6100 268.0000 1.0000
64.6200 268.0000 1.0000
64.6300 234.0000 1.0000
64.6400 237.0000 1.0000
64.6500 280.0000 1.0000
64.6600 247.0000 1.0000
64.6700 220.0000 1.0000
64.6800 262.0000 1.0000
64.6900 236.0000 1.0000
64.7000 257.0000 1.0000
64.7100 258.0000 1.0000
64.7200 267.0000 1.0000
64.7300 260.0000 1.0000
64.7400 240.0000 1.0000
64.7500 268.0000 1.0000
64.7600 241.0000 1.0000
64.7700 268.0000 1.0000
64.7800 258.0000 1.0000
64.7900 262.0000 1.0000
64.8000 265.0000 1.0000
64.8100 269.0000 1.0000
64.8200 289.0000 1.0000
64.8300 258.0000 1.0000
64.8400 275.0000 1.0000
64.8500 277.0000 1.0000
64.8600 283.0000 1.0000
64.8700 279.0000 1.0000
64.8800 270.0000 1.0000
64.8900 277.0000 1.0000
64.9000 286.0000 1.0000
64.9100 251.0000 1.0000
64.9200 270.0000 1.0000
64.9300 276.0000 1.0000
64.9400 272.0000 1.0000
64.9500 271.0000 1.0000
64.9600 265.0000 1.0000
64.9700 259.0000 1.0000
64.9800 258.0000 1.0000
64.9900 306.0000 1.0000
65.0000 305.0000 1.0000
65.0100 324.0000 1.0000
65.0200 290.0000 1.0000
65.0300 288.0000 1.0000
65.0400 320.0000 1.0000
65.0500 316.0000 1.0000
65.0600 284.0000 1.0000
65.0700 285.0000 1.0000
65.0800 291.0000 1.0000
65.0900 326.0000 1.0000
65.1000 318.0000 1.0000
65.1100 316.0000 1.0000
65.1200 347.0000 1.0000
65.1300 320.0000 1.0000
65.1400 318.0000 1.0000
65.1500 316.0000 1.0000
65.1600 336.0000 1.0000
65.1700 329.0000 1.0000
65.1800 321.0000 1.0000
65.1900 360.0000 1.0000
65.2000 356.0000 1.0000
65.2100 374.0000 1.0000
65.2200 389.0000 1.0000
65.2300 359.0000 1.0000
65.2400 380.0000 1.0000
65.2500 365.0000 1.0000
65.2600 379.0000 1.0000
65.2700 406.0000 1.0000
65.2800 400.0000 1.0000
65.2900 432.0000 1.0000
65.3000 446.0000 1.0000
65.3100 460.0000 1.0000
65.3200 462.0000 1.0000
65.3300 485.0000 1.0000
65.3400 507.0000 1.0000
65.3500 535.0000 1.0000
65.3600 550.0000 1.0000
65.3700 549.0000 1.0000
65.3800 622.0000 1.0000
65.3900 634.0000 1.0000
65.4000 617.0000 1.0000
65.4100 694.0000 1.0000
65.4200 719.0000 1.0000
65.4300 679.0000 1.0000
65.4400 726.0000 1.0000
65.4500 722.0000 1.0000
65.4600 774.0000 1.0000
65.4700 806.0000 1.0000
65.4800 809.0000 1.0000
65.4900 834.0000 1.0000
65.5000 809.0000 1.0000
65.5100 810.0000 1.0000
65.5200 834.0000 1.0000
65.5300 807.0000 1.0000
65.5400 732.0000 1.0000
65.5500 743.0000 1.0000
65.5600 795.0000 1.0000
65.5700 700.0000 1.0000
65.5800 712.0000 1.0000
65.5900 705.0000 1.0000
65.6000 730.0000 1.0000
65.6100 736.0000 1.0000
65.6200 727.0000 1.0000
65.6300 688.0000 1.0000
65.6400 691.0000 1.0000
65.6500 668.0000 1.0000
65.6600 661.0000 1.0000
65.6700 636.0000 1.0000
65.6800 617.0000 1.0000
65.6900 666.0000 1.0000
65.7000 625.0000 1.0000
65.7100 620.0000 1.0000
65.7200 572.0000 1.0000
65.7300 557.0000 1.0000
65.7400 543.0000 1.0000
65.7500 525.0000 1.0000
65.7600 516.0000 1.0000
65.7700 497.0000 1.0000
65.7800 479.0000 1.0000
65.7900 488.0000 1.0000
65.8000 474.0000 1.0000
65.8100 464.0000 1.0000
65.8200 413.0000 1.0000
65.8300 425.0000 1.0000
65.8400 369.0000 1.0000
65.8500 419.0000 1.0000
65.8600 409.0000 1.0000
65.8700 391.0000 1.0000
65.8800 388.0000 1.0000
65.8900 339.0000 1.0000
65.9000 356.0000 1.0000
65.9100 349.0000 1.0000
65.9200 350.0000 1.0000
65.9300 355.0000 1.0000
65.9400 336.0000 1.0000
65.9500 333.0000 1.0000
65.9600 346.0000 1.0000
65.9700 355.0000 1.0000
65.9800 318.0000 1.0000
65.9900 313.0000 1.0000
66.0000 332.0000 1.0000
66.0100 340.0000 1.0000
66.0200 316.0000 1.0000
66.0300 321.0000 1.0000
66.0400 315.0000 1.0000
66.0500 316.0000 1.0000
66.0600 299.0000 1.0000
66.0700 298.0000 1.0000
66.0800 312.0000 1.0000
66.0900 338.0000 1.0000
66.1000 291.0000 1.0000
66.1100 307.0000 1.0000
66.1200 287.0000 1.0000
66.1300 307.0000 1.0000
66.1400 309.0000 1.0000
66.1500 263.0000 1.0000
66.1600 270.0000 1.0000
66.1700 274.0000 1.0000
66.1800 305.0000 1.0000
66.1900 296.0000 1.0000
66.2000 291.0000 1.0000
66.2100 287.0000 1.0000
66.2200 290.0000 1.0000
66.2300 288.0000 1.0000
66.2400 268.0000 1.0000
66.2500 284.0000 1.0000
66.2600 269.0000 1.0000
66.2700 268.0000 1.0000
66.2800 293.0000 1.0000
66.2900 270.0000 1.0000
66.3000 289.0000 1.0000
66.3100 300.0000 1.0000
66.3200 276.0000 1.0000
66.3300 265.0000 1.0000
66.3400 269.0000 1.0000
66.3500 263.0000 1.0000
66.3600 246.0000 1.0000
66.3700 256.0000 1.0000
66.3800 260.0000 1.0000
66.3900 255.0000 1.0000
66.4000 241.0000 1.0000
66.4100 249.0000 1.0000
66.4200 237.0000 1.0000
66.4300 233.0000 1.0000
66.4400 266.0000 1.0000
66.4500 239.0000 1.0000
66.4600 247.0000 1.0000
66.4700 247.0000 1.0000
66.4800 222.0000 1.0000
66.4900 264.0000 1.0000
66.5000 269.0000 1.0000
66.5100 241.0000 1.0000
66.5200 222.0000 1.0000
66.5300 227.0000 1.0000
66.5400 267.0000 1.0000
66.5500 246.0000 1.0000
66.5600 248.0000 1.0000
66.5700 236.0000 1.0000
66.5800 259.0000 1.0000
66.5900 232.0000 1.0000
66.6000 227.0000 1.0000
66.6100 211.0000 1.0000
66.6200 234.0000 1.0000
66.6300 255.0000 1.0000
66.6400 217.0000 1.0000
66.6500 241.0000 1.0000
66.6600 249.0000 1.0000
66.6700 247.0000 1.0000
66.6800 226.0000 1.0000
66.6900 236.0000 1.0000
66.7000 223.0000 1.0000
66.7100 220.0000 1.0000
66.7200 238.0000 1.0000
66.7300 215.0000 1.0000
66.7400 219.0000 1.0000
66.7500 220.0000 1.0000
66.7600 238.0000 1.0000
66.7700 245.0000 1.0000
66.7800 237.0000 1.0000
66.7900 238.0000 1.0000
66.8000 236.0000 1.0000
66.8100 252.0000 1.0000
66.8200 241.0000 1.0000
66.8300 213.0000 1.0000
66.8400 231.0000 1.0000
66.8500 214.0000 1.0000
66.8600 229.0000 1.0000
66.8700 239.0000 1.0000
66.8800 237.0000 1.0000
66.8900 241.0000 1.0000
66.9000 195.0000 1.0000
66.9100 229.0000 1.0000
66.9200 229.0000 1.0000
66.9300 241.0000 1.0000
66.9400 222.0000 1.0000
66.9500 231.0000 1.0000
66.9600 249.0000 1.0000
66.9700 244.0000 1.0000
66.9800 229.0000 1.0000
66.9900 232.0000 1.0000
67.0000 235.0000 1.0000
67.0100 229.0000 1.0000
67.0200 219.0000 1.0000
67.0300 210.0000 1.0000
67.0400 232.0000 1.0000
67.0500 239.0000 1.0000
67.0600 203.0000 1.0000
67.0700 212.0000 1.0000
67.0800 243.0000 1.0000
67.0900 235.0000 1.0000
67.1000 244.0000 1.0000
67.1100 235.0000 1.0000
67.1200 234.0000 1.0000
67.1300 242.0000 1.0000
67.1400 220.0000 1.0000
67.1500 226.0000 1.0000
67.1600 258.0000 1.0000
67.1700 254.0000 1.0000
67.1800 230.0000 1.0000
67.1900 209.0000 1.0000
67.2000 223.0000 1.0000
67.2100 238.0000 1.0000
67.2200 208.0000 1.0000
67.2300 206.0000 1.0000
67.2400 227.0000 1.0000
67.2500 237.0000 1.0000
67.2600 212.0000 1.0000
67.2700 223.0000 1.0000
67.2800 242.0000 1.0000
67.2900 244.0000 1.0000
67.3000 251.0000 1.0000
67.3100 245.0000 1.0000
67.3200 210.0000 1.0000
67.3300 225.0000 1.0000
67.3400 222.0000 1.0000
67.3500 223.0000 1.0000
67.3600 228.0000 1.0000
67.3700 242.0000 1.0000
67.3800 235.0000 1.0000
67.3900 227.0000 1.0000
67.4000 220.0000 1.0000
67.4100 211.0000 1.0000
67.4200 243.0000 1.0000
67.4300 245.0000 1.0000
67.4400 222.0000 1.0000
67.4500 231.0000 1.0000
67.4600 214.0000 1.0000
67.4700 227.0000 1.0000
67.4800 245.0000 1.0000
67.4900 241.0000 1.0000
67.5000 239.0000 1.0000
67.5100 244.0000 1.0000
67.5200 244.0000 1.0000
67.5300 213.0000 1.0000
67.5400 234.0000 1.0000
67.5500 205.0000 1.0000
67.5600 231.0000 1.0000
67.5700 215.0000 1.0000
67.5800 220.0000 1.0000
67.5900 242.0000 1.0000
67.6000 223.0000 1.0000
67.6100 239.0000 1.0000
67.6200 217.0000 1.0000
67.6300 211.0000 1.0000
67.6400 214.0000 1.0000
67.6500 238.0000 1.0000
67.6600 219.0000 1.0000
67.6700 240.0000 1.0000
67.6800 224.0000 1.0000
67.6900 210.0000 1.0000
67.7000 233.0000 1.0000
67.7100 212.0000 1.0000
67.7200 245.0000 1.0000
67.7300 228.0000 1.0000
67.7400 209.0000 1.0000
67.7500 247.0000 1.0000
67.7600 207.0000 1.0000
67.7700 241.0000 1.0000
67.7800 215.0000 1.0000
67.7900 232.0000 1.0000
67.8000 233.0000 1.0000
67.8100 218.0000 1.0000
67.8200 220.0000 1.0000
67.8300 213.0000 1.0000
67.8400 206.0000 1.0000
67.8500 224.0000 1.0000
67.8600 229.0000 1.0000
67.8700 225.0000 1.0000
67.8800 210.0000 1.0000
67.8900 239.0000 1.0000
67.9000 239.0000 1.0000
67.9100 212.0000 1.0000
67.9200 228.0000 1.0000
67.9300 227.0000 1.0000
67.9400 241.0000 1.0000
67.9500 227.0000 1.0000
67.9600 207.0000 1.0000
67.9700 202.0000 1.0000
67.9800 237.0000 1.0000
67.9900 215.0000 1.0000
68.0000 226.0000 1.0000
68.0100 231.0000 1.0000
68.0200 217.0000 1.0000
68.0300 218.0000 1.0000
68.0400 223.0000 1.0000
68.0500 203.0000 1.0000
68.0600 227.0000 1.0000
68.0700 230.0000 1.0000
68.0800 227.0000 1.0000
68.0900 220.0000 1.0000
68.1000 209.0000 1.0000
68.1100 201.0000 1.0000
68.1200 207.0000 1.0000
68.1300 218.0000 1.0000
68.1400 202.0000 1.0000
68.1500 211.0000 1.0000
68.1600 224.0000 1.0000
68.1700 218.0000 1.0000
68.1800 230.0000 1.0000
68.1900 246.0000 1.0000
68.2000 198.0000 1.0000
68.2100 201.0000 1.0000
68.2200 220.0000 1.0000
68.2300 232.0000 1.0000
68.2400 249.0000 1.0000
68.2500 218.0000 1.0000
68.2600 218.0000 1.0000
68.2700 241.0000 1.0000
68.2800 214.0000 1.0000
68.2900 202.0000 1.0000
68.3000 216.0000 1.0000
68.3100 225.0000 1.0000
68.3200 220.0000 1.0000
68.3300 211.0000 1.0000
68.3400 228.0000 1.0000
68.3500 224.0000 1.0000
68.3600 241.0000 1.0000
68.3700 235.0000 1.0000
68.3800 221.0000 1.0000
68.3900 231.0000 1.0000
68.4000 239.0000 1.0000
68.4100 226.0000 1.0000
68.4200 224.0000 1.0000
68.4300 212.0000 1.0000
68.4400 204.0000 1.0000
68.4500 226.0000 1.0000
68.4600 208.0000 1.0000
68.4700 229.0000 1.0000
68.4800 185.0000 1.0000
68.4900 243.0000 1.0000
68.5000 230.0000 1.0000
68.5100 245.0000 1.0000
68.5200 238.0000 1.0000
68.5300 216.0000 1.0000
68.5400 230.0000 1.0000
68.5500 215.0000 1.0000
68.5600 220.0000 1.0000
68.5700 219.0000 1.0000
68.5800 237.0000 1.0000
68.5900 235.0000 1.0000
68.6000 215.0000 1.0000
68.6100 226.0000 1.0000
68.6200 226.0000 1.0000
68.6300 195.0000 1.0000
68.6400 206.0000 1.0000
68.6500 212.0000 1.0000
68.6600 210.0000 1.0000
68.6700 218.0000 1.0000
68.6800 226.0000 1.0000
68.6900 239.0000 1.0000
68.7000 236.0000 1.0000
68.7100 199.0000 1.0000
68.7200 242.0000 1.0000
68.7300 222.0000 1.0000
68.7400 222.0000 1.0000
68.7500 210.0000 1.0000
68.7600 190.0000 1.0000
68.7700 243.0000 1.0000
68.7800 228.0000 1.0000
68.7900 206.0000 1.0000
68.8000 208.0000 1.0000
68.8100 214.0000 1.0000
68.8200 215.0000 1.0000
68.8300 213.0000 1.0000
68.8400 224.0000 1.0000
68.8500 227.0000 1.0000
68.8600 232.0000 1.0000
68.8700 225.0000 1.0000
68.8800 206.0000 1.0000
68.8900 200.0000 1.0000
68.9000 179.0000 1.0000
68.9100 230.0000 1.0000
68.9200 214.0000 1.0000
68.9300 219.0000 1.0000
68.9400 209.0000 1.0000
68.9500 233.0000 1.0000
68.9600 238.0000 1.0000
68.9700 246.0000 1.0000
68.9800 227.0000 1.0000
68.9900 214.0000 1.0000
69.0000 230.0000 1.0000
69.0100 226.0000 1.0000
69.0200 228.0000 1.0000
69.0300 214.0000 1.0000
69.0400 205.0000 1.0000
69.0500 213.0000 1.0000
69.0600 229.0000 1.0000
69.0700 224.0000 1.0000
69.0800 225.0000 1.0000
69.0900 233.0000 1.0000
69.1000 210.0000 1.0000
69.1100 212.0000 1.0000
69.1200 212.0000 1.0000
69.1300 232.0000 1.0000
69.1400 210.0000 1.0000
69.1500 207.0000 1.0000
69.1600 206.0000 1.0000
69.1700 239.0000 1.0000
69.1800 228.0000 1.0000
69.1900 222.0000 1.0000
69.2000 230.0000 1.0000
69.2100 222.0000 1.0000
69.2200 213.0000 1.0000
69.2300 218.0000 1.0000
69.2400 208.0000 1.0000
69.2500 209.0000 1.0000
69.2600 227.0000 1.0000
69.2700 206.0000 1.0000
69.2800 218.0000 1.0000
69.2900 220.0000 1.0000
69.3000 224.0000 1.0000
69.3100 170.0000 1.0000
69.3200 214.0000 1.0000
69.3300 209.0000 1.0000
69.3400 219.0000 1.0000
69.3500 217.0000 1.0000
69.3600 221.0000 1.0000
69.3700 202.0000 1.0000
69.3800 207.0000 1.0000
69.3900 206.0000 1.0000
69.4000 211.0000 1.0000
69.4100 208.0000 1.0000
69.4200 215.0000 1.0000
69.4300 218.0000 1.0000
69.4400 201.0000 1.0000
69.4500 203.0000 1.0000
69.4600 197.0000 1.0000
69.4700 201.0000 1.0000
69.4800 211.0000 1.0000
69.4900 187.0000 1.0000
69.5000 204.0000 1.0000
69.5100 201.0000 1.0000
69.5200 222.0000 1.0000
69.5300 209.0000 1.0000
69.5400 217.0000 1.0000
69.5500 223.0000 1.0000
69.5600 217.0000 1.0000
69.5700 215.0000 1.0000
69.5800 227.0000 1.0000
69.5900 192.0000 1.0000
69.6000 209.0000 1.0000
69.6100 214.0000 1.0000
69.6200 193.0000 1.0000
69.6300 209.0000 1.0000
69.6400 211.0000 1.0000
69.6500 208.0000 1.0000
69.6600 219.0000 1.0000
69.6700 224.0000 1.0000
69.6800 224.0000 1.0000
69.6900 229.0000 1.0000
69.7000 207.0000 1.0000
69.7100 223.0000 1.0000
69.7200 223.0000 1.0000
69.7300 214.0000 1.0000
69.7400 211.0000 1.0000
69.7500 225.0000 1.0000
69.7600 221.0000 1.0000
69.7700 225.0000 1.0000
69.7800 241.0000 1.0000
69.7900 234.0000 1.0000
69.8000 212.0000 1.0000
69.8100 225.0000 1.0000
69.8200 213.0000 1.0000
69.8300 200.0000 1.0000
69.8400 225.0000 1.0000
69.8500 182.0000 1.0000
69.8600 193.0000 1.0000
69.8700 181.0000 1.0000
69.8800 202.0000 1.0000
69.8900 229.0000 1.0000
69.9000 226.0000 1.0000
69.9100 220.0000 1.0000
69.9200 214.0000 1.0000
69.9300 211.0000 1.0000
69.9400 208.0000 1.0000
69.9500 225.0000 1.0000
69.9600 247.0000 1.0000
69.9700 197.0000 1.0000
69.9800 219.0000 1.0000
69.9900 222.0000 1.0000
70.0000 228.0000 1.0000
*RAS_INT_END
*RAS_TEMPERATURE_START
*RAS_TEMPERATURE_END
*RAS_DATA_END
