*RAS_DATA_START
*RAS_HEADER_START
*DISP_FMT_X "%.2f"
*DISP_FMT_Y "%.0f"
*DISP_FULLSCALE "13775.0000000000"
*DISP_LINE_COLOR "255.0000000000"
*DISP_LINE_STYLE "0.0000000000"
*DISP_LINE_WIDTH "0.2500000000"
*DISP_NOTE "測定データ-3"
*DISP_OFFSET_Y "0.0000000000"
*DISP_PEAKSEARCH_UNIT_Y "cps"
*DISP_RANGE_BOTTOM "0.0000000000"
*DISP_RANGE_LEFT "20.0000000000"
*DISP_RANGE_LOGCUTOFF "0.0100000000"
*DISP_RANGE_RIGHT "70.0000000000"
*DISP_RANGE_TOP "13775.0000000000"
*DISP_SCALE_MODE_Y "0.0000000000"
*DISP_TAB_NAME "2θ/θ"
*DISP_TITLE_Y "強度"
*DISP_UNIT_Y "cps"
*DISP_WINDOW_NAME "MSG_MACROENGINE"
*FILE_COMMENT " "
*FILE_MD5 ""
*FILE_MEMO " "
*FILE_OPERATOR "Administrator"
*FILE_SAMPLE " "
*FILE_TYPE "RAS_RAW"
*FILE_USERGROUP "システムマネージャ"
*FILE_VERSION "1.0000000000"
*HW_ATTACHMENT_ID "ATT0025"
*HW_ATTACHMENT_NAME "標準|Standard"
*HW_COUNTER_ID-0 "CUT0025"
*HW_COUNTER_ID-1 "CUT0020"
*HW_COUNTER_ID-2 "CUT0020"
*HW_COUNTER_ID-3 "CSL0021"
*HW_COUNTER_ID-4 "CMC0021"
*HW_COUNTER_NAME-0 "D/teX Ultra|D/teX Ultra"
*HW_COUNTER_NAME-1 "None|None"
*HW_COUNTER_NAME-2 "None|None"
*HW_COUNTER_NAME-3 "BBM|BBM"
*HW_COUNTER_NAME-4 "検出器モノクロメータ|Detector monochromator"
*HW_COUNTER_SELECT_NAME "D/teX Ultra|D/teX Ultra"
*HW_GONIOMETER_ID "GON0023"
*HW_GONIOMETER_NAME "SmartLab|SmartLab"
*HW_GONIOMETER_RADIUS-0 "90.0"
*HW_GONIOMETER_RADIUS-1 "114.0"
*HW_GONIOMETER_RADIUS-2 "190.0"
*HW_GONIOMETER_RADIUS-3 "300.0"
*HW_GONIOMETER_RADIUS-4 "187.0"
*HW_GONIOMETER_RADIUS-5 "300.0"
*HW_GONIOMETER_RADIUS-6 "113.0"
*HW_GONIOMETER_RADIUS-7 "331.0"
*HW_I_OPT_ID-0 "CBO0021"
*HW_I_OPT_ID-1 "ICR0023"
*HW_I_OPT_ID-2 "ISL0021"
*HW_I_OPT_ID-3 "ISO0021"
*HW_I_OPT_ID-4 "IAD0021"
*HW_I_OPT_ID-5 "IPR0001"
*HW_I_OPT_NAME-0 "CBOユニット|CBO unit"
*HW_I_OPT_NAME-1 "標準入射光学ユニット|Standard incident optical unit"
*HW_I_OPT_NAME-2 "標準入射スリットボックス|Standard incident slit box"
*HW_I_OPT_NAME-3 "入射平行スリット|Incident parallel slit"
*HW_I_OPT_NAME-4 "長手制限スリット|Length limiting slit"
*HW_I_OPT_NAME-5 "None|None"
*HW_R_ATTENUATER_AUTOMODE "0"
*HW_R_OPT_ID-0 "RSS0021"
*HW_R_OPT_ID-1 "RCR0023"
*HW_R_OPT_ID-2 "RSO0021"
*HW_R_OPT_ID-3 "RRS0021"
*HW_R_OPT_ID-4 "ATN0021"
*HW_R_OPT_ID-5 "RFL0021"
*HW_R_OPT_ID-6 "RAD0021"
*HW_R_OPT_NAME-0 "標準受光スリットボックス1|Standard receiving slit box # 1"
*HW_R_OPT_NAME-1 "標準受光光学ユニット1|Standard receiving unit # 1"
*HW_R_OPT_NAME-2 "標準受光光学ユニット2|Standard receiving optical unit # 2"
*HW_R_OPT_NAME-3 "標準受光スリットボックス2|Standard receiving slit box # 2"
*HW_R_OPT_NAME-4 "標準アッテネータ|Standard Attenuator"
*HW_R_OPT_NAME-5 "Cu Kβ|Cu K-beta"
*HW_R_OPT_NAME-6 "調整用受光スリット|Alignment receiving slit"
*HW_SAMPLE_HOLDER_ID "SMP0023"
*HW_SAMPLE_HOLDER_NAME "標準Zステージ|Standard Z stage"
*HW_XG_CURRENT_MAX "50"
*HW_XG_CURRENT_MIN "2"
*HW_XG_CURRENT_RESOLUTION "1"
*HW_XG_CURRENT_UNIT "mA"
*HW_XG_FOCUS "1mm x 10mm"
*HW_XG_FOCUS_TYPE "Normal"
*HW_XG_ID ""
*HW_XG_NAME "3kW 封入管(ID:1200)|3kW Sealed tube(ID:1200)"
*HW_XG_TARGET_ATOMIC_NUMBER "29.0000000000"
*HW_XG_TARGET_NAME "Cu"
*HW_XG_TYPE "Hermetic"
*HW_XG_VOLTAGE_MAX "60"
*HW_XG_VOLTAGE_MIN "20"
*HW_XG_VOLTAGE_RESOLUTION "1"
*HW_XG_VOLTAGE_UNIT "kV"
*HW_XG_WATT_MAX "1.500"
*HW_XG_WATT_UNIT "kW"
*HW_XG_WAVE_LENGTH_ALPHA1 "1.540593"
*HW_XG_WAVE_LENGTH_ALPHA2 "1.544414"
*HW_XG_WAVE_LENGTH_BETA "1.392250"
*MEAS_COND_AXIS_NAME-0 "2θ/θ"
*MEAS_COND_AXIS_NAME-1 "2θ"
*MEAS_COND_AXIS_NAME-2 "ω"
*MEAS_COND_AXIS_NAME-3 "Z"
*MEAS_COND_AXIS_NAME-4 "2θ/ω"
*MEAS_COND_AXIS_NAME-5 "θs"
*MEAS_COND_AXIS_NAME-6 "θd"
*MEAS_COND_AXIS_NAME-7 "Ts"
*MEAS_COND_AXIS_NAME-8 "CBO選択スリット"
*MEAS_COND_AXIS_NAME-9 "M"
*MEAS_COND_AXIS_NAME-10 "入射平行スリット"
*MEAS_COND_AXIS_NAME-11 "入射スリット"
*MEAS_COND_AXIS_NAME-12 ""
*MEAS_COND_AXIS_NAME-13 "Zs"
*MEAS_COND_AXIS_NAME-14 "入射光学素子"
*MEAS_COND_AXIS_NAME-15 "長手制限スリット"
*MEAS_COND_AXIS_NAME-16 "センタースリット"
*MEAS_COND_AXIS_NAME-17 "フィルター"
*MEAS_COND_AXIS_NAME-18 "受光スリット1"
*MEAS_COND_AXIS_NAME-19 "受光スリット2"
*MEAS_COND_AXIS_NAME-20 "受光光学素子"
*MEAS_COND_AXIS_NAME-21 "受光平行スリット"
*MEAS_COND_AXIS_NAME-22 "調整用受光スリット"
*MEAS_COND_AXIS_NAME-23 ""
*MEAS_COND_AXIS_NAME-24 ""
*MEAS_COND_AXIS_NAME-25 "Zd"
*MEAS_COND_AXIS_NAME-26 "アッテネータ"
*MEAS_COND_AXIS_NAME-27 "検出器モノクロメータ"
*MEAS_COND_AXIS_NAME-28 "モノクロメータスリット"
*MEAS_COND_AXIS_NAME-29 "プライマリビーム"
*MEAS_COND_AXIS_NAME-30 "PHA"
*MEAS_COND_AXIS_NAME_INTERNAL-0 "TwoThetaTheta"
*MEAS_COND_AXIS_NAME_INTERNAL-1 "TwoTheta"
*MEAS_COND_AXIS_NAME_INTERNAL-2 "Omega"
*MEAS_COND_AXIS_NAME_INTERNAL-3 "Z"
*MEAS_COND_AXIS_NAME_INTERNAL-4 "TwoThetaOmega"
*MEAS_COND_AXIS_NAME_INTERNAL-5 "ThetaS"
*MEAS_COND_AXIS_NAME_INTERNAL-6 "ThetaD"
*MEAS_COND_AXIS_NAME_INTERNAL-7 "Ts"
*MEAS_COND_AXIS_NAME_INTERNAL-8 "CBO"
*MEAS_COND_AXIS_NAME_INTERNAL-9 "CBO-M"
*MEAS_COND_AXIS_NAME_INTERNAL-10 "IncidentSollerSlit"
*MEAS_COND_AXIS_NAME_INTERNAL-11 "IncidentSlitBox"
*MEAS_COND_AXIS_NAME_INTERNAL-12 "IncidentSlitBox-_Axis"
*MEAS_COND_AXIS_NAME_INTERNAL-13 "Zs"
*MEAS_COND_AXIS_NAME_INTERNAL-14 "IncidentMonochromator"
*MEAS_COND_AXIS_NAME_INTERNAL-15 "IncidentAxdSlit"
*MEAS_COND_AXIS_NAME_INTERNAL-16 "CenterSlit"
*MEAS_COND_AXIS_NAME_INTERNAL-17 "Filter"
*MEAS_COND_AXIS_NAME_INTERNAL-18 "ReceivingSlitBox1"
*MEAS_COND_AXIS_NAME_INTERNAL-19 "ReceivingSlitBox2"
*MEAS_COND_AXIS_NAME_INTERNAL-20 "ReceivingOptics"
*MEAS_COND_AXIS_NAME_INTERNAL-21 "ReceivingSollerSlit"
*MEAS_COND_AXIS_NAME_INTERNAL-22 "ReceivingAxdSlit"
*MEAS_COND_AXIS_NAME_INTERNAL-23 "ReceivingSlitBox1-_Axis"
*MEAS_COND_AXIS_NAME_INTERNAL-24 "ReceivingSlitBox2-_Axis"
*MEAS_COND_AXIS_NAME_INTERNAL-25 "ReceivingSlitBox2-Zd"
*MEAS_COND_AXIS_NAME_INTERNAL-26 "Attenuator"
*MEAS_COND_AXIS_NAME_INTERNAL-27 "CounterMonochromator"
*MEAS_COND_AXIS_NAME_INTERNAL-28 "CounterSlit"
*MEAS_COND_AXIS_NAME_INTERNAL-29 "IncidentPrimary"
*MEAS_COND_AXIS_NAME_INTERNAL-30 "PHA"
*MEAS_COND_AXIS_NAME_MAGICNO-0 "83951616.0000000000"
*MEAS_COND_AXIS_NAME_MAGICNO-1 "268632064.0000000000"
*MEAS_COND_AXIS_NAME_MAGICNO-2 "268500992.0000000000"
*MEAS_COND_AXIS_NAME_MAGICNO-3 "285278208.0000000000"
*MEAS_COND_AXIS_NAME_MAGICNO-4 "83951616.0000000000"
*MEAS_COND_AXIS_NAME_MAGICNO-5 "131072.0000000000"
*MEAS_COND_AXIS_NAME_MAGICNO-6 "131072.0000000000"
*MEAS_COND_AXIS_NAME_MAGICNO-7 "318898176.0000000000"
*MEAS_COND_AXIS_NAME_MAGICNO-8 "20971521.0000000000"
*MEAS_COND_AXIS_NAME_MAGICNO-9 "285343744.0000000000"
*MEAS_COND_AXIS_NAME_MAGICNO-10 "20971521.0000000000"
*MEAS_COND_AXIS_NAME_MAGICNO-11 "22020097.0000000000"
*MEAS_COND_AXIS_NAME_MAGICNO-12 "25165824.0000000000"
*MEAS_COND_AXIS_NAME_MAGICNO-13 "318898176.0000000000"
*MEAS_COND_AXIS_NAME_MAGICNO-14 "1.0000000000"
*MEAS_COND_AXIS_NAME_MAGICNO-15 "20971521.0000000000"
*MEAS_COND_AXIS_NAME_MAGICNO-16 "20971521.0000000000"
*MEAS_COND_AXIS_NAME_MAGICNO-17 "20971521.0000000000"
*MEAS_COND_AXIS_NAME_MAGICNO-18 "23068673.0000000000"
*MEAS_COND_AXIS_NAME_MAGICNO-19 "23068673.0000000000"
*MEAS_COND_AXIS_NAME_MAGICNO-20 "20971521.0000000000"
*MEAS_COND_AXIS_NAME_MAGICNO-21 "20971521.0000000000"
*MEAS_COND_AXIS_NAME_MAGICNO-22 "20971521.0000000000"
*MEAS_COND_AXIS_NAME_MAGICNO-23 "25165824.0000000000"
*MEAS_COND_AXIS_NAME_MAGICNO-24 "25165824.0000000000"
*MEAS_COND_AXIS_NAME_MAGICNO-25 "285343744.0000000000"
*MEAS_COND_AXIS_NAME_MAGICNO-26 "17301505.0000000000"
*MEAS_COND_AXIS_NAME_MAGICNO-27 "20971521.0000000000"
*MEAS_COND_AXIS_NAME_MAGICNO-28 "20971521.0000000000"
*MEAS_COND_AXIS_NAME_MAGICNO-29 "20971521.0000000000"
*MEAS_COND_AXIS_NAME_MAGICNO-30 "0.0000000000"
*MEAS_COND_AXIS_OFFSET-0 "-"
*MEAS_COND_AXIS_OFFSET-1 "-0.0310000000"
*MEAS_COND_AXIS_OFFSET-2 "0.1589000000"
*MEAS_COND_AXIS_OFFSET-3 "-"
*MEAS_COND_AXIS_OFFSET-4 "-"
*MEAS_COND_AXIS_OFFSET-5 "0.1589000000"
*MEAS_COND_AXIS_OFFSET-6 "-0.1899000000"
*MEAS_COND_AXIS_OFFSET-7 "-"
*MEAS_COND_AXIS_OFFSET-8 "-"
*MEAS_COND_AXIS_OFFSET-9 "-"
*MEAS_COND_AXIS_OFFSET-10 "-"
*MEAS_COND_AXIS_OFFSET-11 "-"
*MEAS_COND_AXIS_OFFSET-12 "-"
*MEAS_COND_AXIS_OFFSET-13 "-"
*MEAS_COND_AXIS_OFFSET-14 "-"
*MEAS_COND_AXIS_OFFSET-15 "-"
*MEAS_COND_AXIS_OFFSET-16 "-"
*MEAS_COND_AXIS_OFFSET-17 "-"
*MEAS_COND_AXIS_OFFSET-18 "-"
*MEAS_COND_AXIS_OFFSET-19 "-"
*MEAS_COND_AXIS_OFFSET-20 "-"
*MEAS_COND_AXIS_OFFSET-21 "-"
*MEAS_COND_AXIS_OFFSET-22 "-"
*MEAS_COND_AXIS_OFFSET-23 "-"
*MEAS_COND_AXIS_OFFSET-24 "-"
*MEAS_COND_AXIS_OFFSET-25 "-"
*MEAS_COND_AXIS_OFFSET-26 "-"
*MEAS_COND_AXIS_OFFSET-27 "-"
*MEAS_COND_AXIS_OFFSET-28 "-"
*MEAS_COND_AXIS_OFFSET-29 "-"
*MEAS_COND_AXIS_OFFSET-30 "-"
*MEAS_COND_AXIS_POSITION-0 "0.0000000000"
*MEAS_COND_AXIS_POSITION-1 "0.0000000000"
*MEAS_COND_AXIS_POSITION-2 "0.0000000000"
*MEAS_COND_AXIS_POSITION-3 "-2.9326600000"
*MEAS_COND_AXIS_POSITION-4 "0.0000000000"
*MEAS_COND_AXIS_POSITION-5 "0.0000000000"
*MEAS_COND_AXIS_POSITION-6 "0.0000000000"
*MEAS_COND_AXIS_POSITION-7 "-0.7498700000"
*MEAS_COND_AXIS_POSITION-8 "BB"
*MEAS_COND_AXIS_POSITION-9 "0.0000000000"
*MEAS_COND_AXIS_POSITION-10 "Soller_slit_5.0deg"
*MEAS_COND_AXIS_POSITION-11 "2/3deg"
*MEAS_COND_AXIS_POSITION-12 "2.2088000000"
*MEAS_COND_AXIS_POSITION-13 "-0.6412500000"
*MEAS_COND_AXIS_POSITION-14 "0.0000000000"
*MEAS_COND_AXIS_POSITION-15 "10.0mm"
*MEAS_COND_AXIS_POSITION-16 "None"
*MEAS_COND_AXIS_POSITION-17 "Cu_K-beta"
*MEAS_COND_AXIS_POSITION-18 "13.000mm"
*MEAS_COND_AXIS_POSITION-19 "13.000mm"
*MEAS_COND_AXIS_POSITION-20 "No_unit"
*MEAS_COND_AXIS_POSITION-21 "Soller_slit_5.0deg"
*MEAS_COND_AXIS_POSITION-22 "None"
*MEAS_COND_AXIS_POSITION-23 "13.0000000000"
*MEAS_COND_AXIS_POSITION-24 "13.0000000000"
*MEAS_COND_AXIS_POSITION-25 "0.0281300000"
*MEAS_COND_AXIS_POSITION-26 "Open"
*MEAS_COND_AXIS_POSITION-27 "None"
*MEAS_COND_AXIS_POSITION-28 "None"
*MEAS_COND_AXIS_POSITION-29 "None"
*MEAS_COND_AXIS_POSITION-30 "38.0000000000"
*MEAS_COND_AXIS_UNIT-0 "deg"
*MEAS_COND_AXIS_UNIT-1 "deg"
*MEAS_COND_AXIS_UNIT-2 "deg"
*MEAS_COND_AXIS_UNIT-3 "mm"
*MEAS_COND_AXIS_UNIT-4 "deg"
*MEAS_COND_AXIS_UNIT-5 "deg"
*MEAS_COND_AXIS_UNIT-6 "deg"
*MEAS_COND_AXIS_UNIT-7 "mm"
*MEAS_COND_AXIS_UNIT-8 ""
*MEAS_COND_AXIS_UNIT-9 "pulse"
*MEAS_COND_AXIS_UNIT-10 ""
*MEAS_COND_AXIS_UNIT-11 ""
*MEAS_COND_AXIS_UNIT-12 "mm"
*MEAS_COND_AXIS_UNIT-13 "mm"
*MEAS_COND_AXIS_UNIT-14 ""
*MEAS_COND_AXIS_UNIT-15 ""
*MEAS_COND_AXIS_UNIT-16 ""
*MEAS_COND_AXIS_UNIT-17 ""
*MEAS_COND_AXIS_UNIT-18 ""
*MEAS_COND_AXIS_UNIT-19 ""
*MEAS_COND_AXIS_UNIT-20 ""
*MEAS_COND_AXIS_UNIT-21 ""
*MEAS_COND_AXIS_UNIT-22 ""
*MEAS_COND_AXIS_UNIT-23 "mm"
*MEAS_COND_AXIS_UNIT-24 "mm"
*MEAS_COND_AXIS_UNIT-25 "mm"
*MEAS_COND_AXIS_UNIT-26 ""
*MEAS_COND_AXIS_UNIT-27 ""
*MEAS_COND_AXIS_UNIT-28 ""
*MEAS_COND_AXIS_UNIT-29 ""
*MEAS_COND_AXIS_UNIT-30 "div"
*MEAS_COND_COUNTER_CNTLOSS_CORR "0.0000000000"
*MEAS_COND_COUNTER_PHABASE "38.0000000000"
*MEAS_COND_COUNTER_PHAWINDOW "16.0000000000"
*MEAS_COND_COUNTER_PHA_UNIT "div"
*MEAS_COND_COUNTER_TAUDIFF "30.0000000000"
*MEAS_COND_COUNTER_TAUINT "0.0000000000"
*MEAS_COND_IRRADIATION_MODE "OFF"
*MEAS_COND_IRRADIATION_WIDTH ""
*MEAS_COND_OPT_ATTR "集中法"
*MEAS_COND_OPT_NAME "@集中法"
*MEAS_COND_UNSYMMETRIC_MODE "OFF"
*MEAS_COND_XG_CURRENT "30.0000000000"
*MEAS_COND_XG_VOLTAGE "40.0000000000"
*MEAS_COND_XG_WAVE_TYPE "Ka"
*MEAS_DATA_COUNT "5001.0000000000"
*MEAS_SCAN_AXIS_X "2θ/θ"
*MEAS_SCAN_AXIS_X_INTERNAL "TwoThetaTheta"
*MEAS_SCAN_END_TIME "12/13/22 11:24:45"
*MEAS_SCAN_MODE "CONTINUOUS"
*MEAS_SCAN_MONITOR "0"
*MEAS_SCAN_RESOLUTION_X "0.0002"
*MEAS_SCAN_SPEED "2.5"
*MEAS_SCAN_SPEED_UNIT "deg/min"
*MEAS_SCAN_START "20.0000000000"
*MEAS_SCAN_START_TIME "12/13/22 11:03:21"
*MEAS_SCAN_STEP "0.0100000000"
*MEAS_SCAN_STOP "70.0000000000"
*MEAS_SCAN_UNIT_X "deg"
*MEAS_SCAN_UNIT_Y "counts"
*RAS_HEADER_END
*RAS_INT_START
20.0000 845.0000 1.0000
20.0100 798.0000 1.0000
20.0200 807.0000 1.0000
20.0300 815.0000 1.0000
20.0400 852.0000 1.0000
20.0500 843.0000 1.0000
20.0600 822.0000 1.0000
20.0700 836.0000 1.0000
20.0800 849.0000 1.0000
20.0900 845.0000 1.0000
20.1000 823.0000 1.0000
20.1100 814.0000 1.0000
20.1200 877.0000 1.0000
20.1300 877.0000 1.0000
20.1400 828.0000 1.0000
20.1500 820.0000 1.0000
20.1600 815.0000 1.0000
20.1700 826.0000 1.0000
20.1800 855.0000 1.0000
20.1900 834.0000 1.0000
20.2000 848.0000 1.0000
20.2100 837.0000 1.0000
20.2200 817.0000 1.0000
20.2300 796.0000 1.0000
20.2400 830.0000 1.0000
20.2500 841.0000 1.0000
20.2600 817.0000 1.0000
20.2700 830.0000 1.0000
20.2800 848.0000 1.0000
20.2900 834.0000 1.0000
20.3000 810.0000 1.0000
20.3100 828.0000 1.0000
20.3200 817.0000 1.0000
20.3300 870.0000 1.0000
20.3400 816.0000 1.0000
20.3500 874.0000 1.0000
20.3600 826.0000 1.0000
20.3700 801.0000 1.0000
20.3800 808.0000 1.0000
20.3900 820.0000 1.0000
20.4000 821.0000 1.0000
20.4100 835.0000 1.0000
20.4200 829.0000 1.0000
20.4300 879.0000 1.0000
20.4400 841.0000 1.0000
20.4500 824.0000 1.0000
20.4600 832.0000 1.0000
20.4700 820.0000 1.0000
20.4800 820.0000 1.0000
20.4900 777.0000 1.0000
20.5000 801.0000 1.0000
20.5100 826.0000 1.0000
20.5200 841.0000 1.0000
20.5300 865.0000 1.0000
20.5400 828.0000 1.0000
20.5500 843.0000 1.0000
20.5600 829.0000 1.0000
20.5700 804.0000 1.0000
20.5800 864.0000 1.0000
20.5900 838.0000 1.0000
20.6000 818.0000 1.0000
20.6100 860.0000 1.0000
20.6200 805.0000 1.0000
20.6300 801.0000 1.0000
20.6400 816.0000 1.0000
20.6500 862.0000 1.0000
20.6600 846.0000 1.0000
20.6700 826.0000 1.0000
20.6800 844.0000 1.0000
20.6900 860.0000 1.0000
20.7000 823.0000 1.0000
20.7100 835.0000 1.0000
20.7200 802.0000 1.0000
20.7300 827.0000 1.0000
20.7400 833.0000 1.0000
20.7500 789.0000 1.0000
20.7600 863.0000 1.0000
20.7700 858.0000 1.0000
20.7800 853.0000 1.0000
20.7900 815.0000 1.0000
20.8000 798.0000 1.0000
20.8100 858.0000 1.0000
20.8200 831.0000 1.0000
20.8300 793.0000 1.0000
20.8400 824.0000 1.0000
20.8500 858.0000 1.0000
20.8600 826.0000 1.0000
20.8700 842.0000 1.0000
20.8800 875.0000 1.0000
20.8900 853.0000 1.0000
20.9000 823.0000 1.0000
20.9100 865.0000 1.0000
20.9200 836.0000 1.0000
20.9300 794.0000 1.0000
20.9400 834.0000 1.0000
20.9500 806.0000 1.0000
20.9600 852.0000 1.0000
20.9700 844.0000 1.0000
20.9800 790.0000 1.0000
20.9900 805.0000 1.0000
21.0000 839.0000 1.0000
21.0100 846.0000 1.0000
21.0200 809.0000 1.0000
21.0300 844.0000 1.0000
21.0400 820.0000 1.0000
21.0500 853.0000 1.0000
21.0600 859.0000 1.0000
21.0700 829.0000 1.0000
21.0800 806.0000 1.0000
21.0900 812.0000 1.0000
21.1000 832.0000 1.0000
21.1100 844.0000 1.0000
21.1200 852.0000 1.0000
21.1300 807.0000 1.0000
21.1400 818.0000 1.0000
21.1500 883.0000 1.0000
21.1600 854.0000 1.0000
21.1700 799.0000 1.0000
21.1800 823.0000 1.0000
21.1900 842.0000 1.0000
21.2000 821.0000 1.0000
21.2100 800.0000 1.0000
21.2200 815.0000 1.0000
21.2300 822.0000 1.0000
21.2400 832.0000 1.0000
21.2500 819.0000 1.0000
21.2600 808.0000 1.0000
21.2700 816.0000 1.0000
21.2800 812.0000 1.0000
21.2900 817.0000 1.0000
21.3000 793.0000 1.0000
21.3100 794.0000 1.0000
21.3200 833.0000 1.0000
21.3300 834.0000 1.0000
21.3400 849.0000 1.0000
21.3500 823.0000 1.0000
21.3600 804.0000 1.0000
21.3700 837.0000 1.0000
21.3800 816.0000 1.0000
21.3900 801.0000 1.0000
21.4000 826.0000 1.0000
21.4100 804.0000 1.0000
21.4200 850.0000 1.0000
21.4300 822.0000 1.0000
21.4400 836.0000 1.0000
21.4500 819.0000 1.0000
21.4600 832.0000 1.0000
21.4700 826.0000 1.0000
21.4800 842.0000 1.0000
21.4900 800.0000 1.0000
21.5000 823.0000 1.0000
21.5100 841.0000 1.0000
21.5200 788.0000 1.0000
21.5300 786.0000 1.0000
21.5400 842.0000 1.0000
21.5500 840.0000 1.0000
21.5600 794.0000 1.0000
21.5700 823.0000 1.0000
21.5800 805.0000 1.0000
21.5900 824.0000 1.0000
21.6000 795.0000 1.0000
21.6100 818.0000 1.0000
21.6200 808.0000 1.0000
21.6300 819.0000 1.0000
21.6400 800.0000 1.0000
21.6500 875.0000 1.0000
21.6600 839.0000 1.0000
21.6700 799.0000 1.0000
21.6800 790.0000 1.0000
21.6900 822.0000 1.0000
21.7000 812.0000 1.0000
21.7100 814.0000 1.0000
21.7200 857.0000 1.0000
21.7300 850.0000 1.0000
21.7400 800.0000 1.0000
21.7500 827.0000 1.0000
21.7600 819.0000 1.0000
21.7700 765.0000 1.0000
21.7800 837.0000 1.0000
21.7900 807.0000 1.0000
21.8000 816.0000 1.0000
21.8100 853.0000 1.0000
21.8200 796.0000 1.0000
21.8300 841.0000 1.0000
21.8400 840.0000 1.0000
21.8500 832.0000 1.0000
21.8600 826.0000 1.0000
21.8700 832.0000 1.0000
21.8800 813.0000 1.0000
21.8900 844.0000 1.0000
21.9000 830.0000 1.0000
21.9100 802.0000 1.0000
21.9200 848.0000 1.0000
21.9300 791.0000 1.0000
21.9400 794.0000 1.0000
21.9500 815.0000 1.0000
21.9600 802.0000 1.0000
21.9700 818.0000 1.0000
21.9800 823.0000 1.0000
21.9900 771.0000 1.0000
22.0000 773.0000 1.0000
22.0100 818.0000 1.0000
22.0200 842.0000 1.0000
22.0300 819.0000 1.0000
22.0400 796.0000 1.0000
22.0500 763.0000 1.0000
22.0600 814.0000 1.0000
22.0700 834.0000 1.0000
22.0800 839.0000 1.0000
22.0900 819.0000 1.0000
22.1000 824.0000 1.0000
22.1100 861.0000 1.0000
22.1200 835.0000 1.0000
22.1300 806.0000 1.0000
22.1400 808.0000 1.0000
22.1500 862.0000 1.0000
22.1600 812.0000 1.0000
22.1700 819.0000 1.0000
22.1800 808.0000 1.0000
22.1900 804.0000 1.0000
22.2000 820.0000 1.0000
22.2100 814.0000 1.0000
22.2200 772.0000 1.0000
22.2300 806.0000 1.0000
22.2400 823.0000 1.0000
22.2500 826.0000 1.0000
22.2600 800.0000 1.0000
22.2700 791.0000 1.0000
22.2800 813.0000 1.0000
22.2900 816.0000 1.0000
22.3000 804.0000 1.0000
22.3100 854.0000 1.0000
22.3200 772.0000 1.0000
22.3300 810.0000 1.0000
22.3400 781.0000 1.0000
22.3500 821.0000 1.0000
22.3600 800.0000 1.0000
22.3700 780.0000 1.0000
22.3800 782.0000 1.0000
22.3900 779.0000 1.0000
22.4000 749.0000 1.0000
22.4100 812.0000 1.0000
22.4200 747.0000 1.0000
22.4300 822.0000 1.0000
22.4400 787.0000 1.0000
22.4500 809.0000 1.0000
22.4600 856.0000 1.0000
22.4700 825.0000 1.0000
22.4800 829.0000 1.0000
22.4900 843.0000 1.0000
22.5000 777.0000 1.0000
22.5100 850.0000 1.0000
22.5200 826.0000 1.0000
22.5300 830.0000 1.0000
22.5400 826.0000 1.0000
22.5500 831.0000 1.0000
22.5600 794.0000 1.0000
22.5700 805.0000 1.0000
22.5800 804.0000 1.0000
22.5900 840.0000 1.0000
22.6000 816.0000 1.0000
22.6100 806.0000 1.0000
22.6200 807.0000 1.0000
22.6300 781.0000 1.0000
22.6400 821.0000 1.0000
22.6500 808.0000 1.0000
22.6600 827.0000 1.0000
22.6700 841.0000 1.0000
22.6800 818.0000 1.0000
22.6900 805.0000 1.0000
22.7000 800.0000 1.0000
22.7100 802.0000 1.0000
22.7200 812.0000 1.0000
22.7300 791.0000 1.0000
22.7400 799.0000 1.0000
22.7500 815.0000 1.0000
22.7600 797.0000 1.0000
22.7700 818.0000 1.0000
22.7800 829.0000 1.0000
22.7900 777.0000 1.0000
22.8000 773.0000 1.0000
22.8100 811.0000 1.0000
22.8200 810.0000 1.0000
22.8300 871.0000 1.0000
22.8400 854.0000 1.0000
22.8500 800.0000 1.0000
22.8600 811.0000 1.0000
22.8700 847.0000 1.0000
22.8800 865.0000 1.0000
22.8900 827.0000 1.0000
22.9000 812.0000 1.0000
22.9100 792.0000 1.0000
22.9200 791.0000 1.0000
22.9300 811.0000 1.0000
22.9400 817.0000 1.0000
22.9500 824.0000 1.0000
22.9600 820.0000 1.0000
22.9700 813.0000 1.0000
22.9800 823.0000 1.0000
22.9900 840.0000 1.0000
23.0000 831.0000 1.0000
23.0100 812.0000 1.0000
23.0200 793.0000 1.0000
23.0300 758.0000 1.0000
23.0400 802.0000 1.0000
23.0500 815.0000 1.0000
23.0600 807.0000 1.0000
23.0700 742.0000 1.0000
23.0800 788.0000 1.0000
23.0900 786.0000 1.0000
23.1000 844.0000 1.0000
23.1100 810.0000 1.0000
23.1200 844.0000 1.0000
23.1300 823.0000 1.0000
23.1400 810.0000 1.0000
23.1500 815.0000 1.0000
23.1600 795.0000 1.0000
23.1700 814.0000 1.0000
23.1800 807.0000 1.0000
23.1900 755.0000 1.0000
23.2000 784.0000 1.0000
23.2100 839.0000 1.0000
23.2200 838.0000 1.0000
23.2300 835.0000 1.0000
23.2400 754.0000 1.0000
23.2500 776.0000 1.0000
23.2600 799.0000 1.0000
23.2700 792.0000 1.0000
23.2800 823.0000 1.0000
23.2900 768.0000 1.0000
23.3000 792.0000 1.0000
23.3100 817.0000 1.0000
23.3200 793.0000 1.0000
23.3300 795.0000 1.0000
23.3400 779.0000 1.0000
23.3500 726.0000 1.0000
23.3600 746.0000 1.0000
23.3700 783.0000 1.0000
23.3800 787.0000 1.0000
23.3900 789.0000 1.0000
23.4000 842.0000 1.0000
23.4100 783.0000 1.0000
23.4200 815.0000 1.0000
23.4300 799.0000 1.0000
23.4400 808.0000 1.0000
23.4500 808.0000 1.0000
23.4600 781.0000 1.0000
23.4700 797.0000 1.0000
23.4800 817.0000 1.0000
23.4900 780.0000 1.0000
23.5000 824.0000 1.0000
23.5100 767.0000 1.0000
23.5200 788.0000 1.0000
23.5300 806.0000 1.0000
23.5400 813.0000 1.0000
23.5500 808.0000 1.0000
23.5600 810.0000 1.0000
23.5700 822.0000 1.0000
23.5800 833.0000 1.0000
23.5900 741.0000 1.0000
23.6000 745.0000 1.0000
23.6100 789.0000 1.0000
23.6200 734.0000 1.0000
23.6300 777.0000 1.0000
23.6400 752.0000 1.0000
23.6500 775.0000 1.0000
23.6600 780.0000 1.0000
23.6700 781.0000 1.0000
23.6800 817.0000 1.0000
23.6900 808.0000 1.0000
23.7000 805.0000 1.0000
23.7100 828.0000 1.0000
23.7200 750.0000 1.0000
23.7300 791.0000 1.0000
23.7400 778.0000 1.0000
23.7500 797.0000 1.0000
23.7600 812.0000 1.0000
23.7700 780.0000 1.0000
23.7800 816.0000 1.0000
23.7900 813.0000 1.0000
23.8000 825.0000 1.0000
23.8100 818.0000 1.0000
23.8200 818.0000 1.0000
23.8300 819.0000 1.0000
23.8400 829.0000 1.0000
23.8500 812.0000 1.0000
23.8600 806.0000 1.0000
23.8700 800.0000 1.0000
23.8800 811.0000 1.0000
23.8900 811.0000 1.0000
23.9000 816.0000 1.0000
23.9100 817.0000 1.0000
23.9200 779.0000 1.0000
23.9300 786.0000 1.0000
23.9400 827.0000 1.0000
23.9500 855.0000 1.0000
23.9600 832.0000 1.0000
23.9700 806.0000 1.0000
23.9800 803.0000 1.0000
23.9900 837.0000 1.0000
24.0000 807.0000 1.0000
24.0100 820.0000 1.0000
24.0200 850.0000 1.0000
24.0300 860.0000 1.0000
24.0400 906.0000 1.0000
24.0500 823.0000 1.0000
24.0600 823.0000 1.0000
24.0700 886.0000 1.0000
24.0800 905.0000 1.0000
24.0900 895.0000 1.0000
24.1000 921.0000 1.0000
24.1100 926.0000 1.0000
24.1200 866.0000 1.0000
24.1300 893.0000 1.0000
24.1400 874.0000 1.0000
24.1500 889.0000 1.0000
24.1600 874.0000 1.0000
24.1700 783.0000 1.0000
24.1800 818.0000 1.0000
24.1900 844.0000 1.0000
24.2000 802.0000 1.0000
24.2100 825.0000 1.0000
24.2200 845.0000 1.0000
24.2300 796.0000 1.0000
24.2400 818.0000 1.0000
24.2500 827.0000 1.0000
24.2600 865.0000 1.0000
24.2700 803.0000 1.0000
24.2800 818.0000 1.0000
24.2900 798.0000 1.0000
24.3000 845.0000 1.0000
24.3100 818.0000 1.0000
24.3200 781.0000 1.0000
24.3300 819.0000 1.0000
24.3400 808.0000 1.0000
24.3500 784.0000 1.0000
24.3600 792.0000 1.0000
24.3700 842.0000 1.0000
24.3800 803.0000 1.0000
24.3900 806.0000 1.0000
24.4000 799.0000 1.0000
24.4100 803.0000 1.0000
24.4200 781.0000 1.0000
24.4300 818.0000 1.0000
24.4400 820.0000 1.0000
24.4500 779.0000 1.0000
24.4600 765.0000 1.0000
24.4700 818.0000 1.0000
24.4800 810.0000 1.0000
24.4900 809.0000 1.0000
24.5000 801.0000 1.0000
24.5100 761.0000 1.0000
24.5200 758.0000 1.0000
24.5300 793.0000 1.0000
24.5400 802.0000 1.0000
24.5500 760.0000 1.0000
24.5600 759.0000 1.0000
24.5700 766.0000 1.0000
24.5800 784.0000 1.0000
24.5900 782.0000 1.0000
24.6000 744.0000 1.0000
24.6100 767.0000 1.0000
24.6200 807.0000 1.0000
24.6300 781.0000 1.0000
24.6400 766.0000 1.0000
24.6500 842.0000 1.0000
24.6600 789.0000 1.0000
24.6700 791.0000 1.0000
24.6800 828.0000 1.0000
24.6900 776.0000 1.0000
24.7000 805.0000 1.0000
24.7100 780.0000 1.0000
24.7200 774.0000 1.0000
24.7300 774.0000 1.0000
24.7400 809.0000 1.0000
24.7500 780.0000 1.0000
24.7600 784.0000 1.0000
24.7700 771.0000 1.0000
24.7800 771.0000 1.0000
24.7900 788.0000 1.0000
24.8000 823.0000 1.0000
24.8100 768.0000 1.0000
24.8200 779.0000 1.0000
24.8300 736.0000 1.0000
24.8400 752.0000 1.0000
24.8500 800.0000 1.0000
24.8600 806.0000 1.0000
24.8700 797.0000 1.0000
24.8800 811.0000 1.0000
24.8900 733.0000 1.0000
24.9000 812.0000 1.0000
24.9100 763.0000 1.0000
24.9200 773.0000 1.0000
24.9300 768.0000 1.0000
24.9400 769.0000 1.0000
24.9500 776.0000 1.0000
24.9600 748.0000 1.0000
24.9700 728.0000 1.0000
24.9800 740.0000 1.0000
24.9900 782.0000 1.0000
25.0000 772.0000 1.0000
25.0100 782.0000 1.0000
25.0200 803.0000 1.0000
25.0300 772.0000 1.0000
25.0400 796.0000 1.0000
25.0500 777.0000 1.0000
25.0600 748.0000 1.0000
25.0700 730.0000 1.0000
25.0800 747.0000 1.0000
25.0900 749.0000 1.0000
25.1000 764.0000 1.0000
25.1100 793.0000 1.0000
25.1200 734.0000 1.0000
25.1300 722.0000 1.0000
25.1400 763.0000 1.0000
25.1500 779.0000 1.0000
25.1600 791.0000 1.0000
25.1700 765.0000 1.0000
25.1800 790.0000 1.0000
25.1900 773.0000 1.0000
25.2000 801.0000 1.0000
25.2100 762.0000 1.0000
25.2200 731.0000 1.0000
25.2300 798.0000 1.0000
25.2400 735.0000 1.0000
25.2500 793.0000 1.0000
25.2600 782.0000 1.0000
25.2700 765.0000 1.0000
25.2800 745.0000 1.0000
25.2900 761.0000 1.0000
25.3000 770.0000 1.0000
25.3100 754.0000 1.0000
25.3200 731.0000 1.0000
25.3300 779.0000 1.0000
25.3400 752.0000 1.0000
25.3500 756.0000 1.0000
25.3600 734.0000 1.0000
25.3700 772.0000 1.0000
25.3800 765.0000 1.0000
25.3900 803.0000 1.0000
25.4000 746.0000 1.0000
25.4100 767.0000 1.0000
25.4200 722.0000 1.0000
25.4300 742.0000 1.0000
25.4400 746.0000 1.0000
25.4500 772.0000 1.0000
25.4600 796.0000 1.0000
25.4700 774.0000 1.0000
25.4800 699.0000 1.0000
25.4900 751.0000 1.0000
25.5000 786.0000 1.0000
25.5100 762.0000 1.0000
25.5200 735.0000 1.0000
25.5300 778.0000 1.0000
25.5400 763.0000 1.0000
25.5500 779.0000 1.0000
25.5600 777.0000 1.0000
25.5700 746.0000 1.0000
25.5800 811.0000 1.0000
25.5900 805.0000 1.0000
25.6000 807.0000 1.0000
25.6100 789.0000 1.0000
25.6200 798.0000 1.0000
25.6300 793.0000 1.0000
25.6400 777.0000 1.0000
25.6500 807.0000 1.0000
25.6600 762.0000 1.0000
25.6700 801.0000 1.0000
25.6800 765.0000 1.0000
25.6900 767.0000 1.0000
25.7000 791.0000 1.0000
25.7100 802.0000 1.0000
25.7200 813.0000 1.0000
25.7300 767.0000 1.0000
25.7400 775.0000 1.0000
25.7500 770.0000 1.0000
25.7600 747.0000 1.0000
25.7700 790.0000 1.0000
25.7800 815.0000 1.0000
25.7900 750.0000 1.0000
25.8000 787.0000 1.0000
25.8100 806.0000 1.0000
25.8200 832.0000 1.0000
25.8300 831.0000 1.0000
25.8400 798.0000 1.0000
25.8500 781.0000 1.0000
25.8600 774.0000 1.0000
25.8700 780.0000 1.0000
25.8800 801.0000 1.0000
25.8900 799.0000 1.0000
25.9000 781.0000 1.0000
25.9100 802.0000 1.0000
25.9200 776.0000 1.0000
25.9300 801.0000 1.0000
25.9400 787.0000 1.0000
25.9500 851.0000 1.0000
25.9600 858.0000 1.0000
25.9700 841.0000 1.0000
25.9800 816.0000 1.0000
25.9900 829.0000 1.0000
26.0000 826.0000 1.0000
26.0100 845.0000 1.0000
26.0200 850.0000 1.0000
26.0300 812.0000 1.0000
26.0400 849.0000 1.0000
26.0500 826.0000 1.0000
26.0600 883.0000 1.0000
26.0700 871.0000 1.0000
26.0800 894.0000 1.0000
26.0900 846.0000 1.0000
26.1000 845.0000 1.0000
26.1100 888.0000 1.0000
26.1200 915.0000 1.0000
26.1300 949.0000 1.0000
26.1400 933.0000 1.0000
26.1500 945.0000 1.0000
26.1600 927.0000 1.0000
26.1700 976.0000 1.0000
26.1800 1006.0000 1.0000
26.1900 984.0000 1.0000
26.2000 1041.0000 1.0000
26.2100 1129.0000 1.0000
26.2200 1062.0000 1.0000
26.2300 1109.0000 1.0000
26.2400 1186.0000 1.0000
26.2500 1231.0000 1.0000
26.2600 1201.0000 1.0000
26.2700 1195.0000 1.0000
26.2800 1284.0000 1.0000
26.2900 1272.0000 1.0000
26.3000 1343.0000 1.0000
26.3100 1357.0000 1.0000
26.3200 1464.0000 1.0000
26.3300 1536.0000 1.0000
26.3400 1636.0000 1.0000
26.3500 1763.0000 1.0000
26.3600 1820.0000 1.0000
26.3700 1879.0000 1.0000
26.3800 1986.0000 1.0000
26.3900 2107.0000 1.0000
26.4000 2277.0000 1.0000
26.4100 2352.0000 1.0000
26.4200 2463.0000 1.0000
26.4300 2603.0000 1.0000
26.4400 2671.0000 1.0000
26.4500 2745.0000 1.0000
26.4600 2750.0000 1.0000
26.4700 2755.0000 1.0000
26.4800 2720.0000 1.0000
26.4900 2702.0000 1.0000
26.5000 2695.0000 1.0000
26.5100 2578.0000 1.0000
26.5200 2519.0000 1.0000
26.5300 2361.0000 1.0000
26.5400 2225.0000 1.0000
26.5500 2116.0000 1.0000
26.5600 1972.0000 1.0000
26.5700 1973.0000 1.0000
26.5800 1840.0000 1.0000
26.5900 1750.0000 1.0000
26.6000 1626.0000 1.0000
26.6100 1528.0000 1.0000
26.6200 1399.0000 1.0000
26.6300 1391.0000 1.0000
26.6400 1294.0000 1.0000
26.6500 1324.0000 1.0000
26.6600 1224.0000 1.0000
26.6700 1229.0000 1.0000
26.6800 1153.0000 1.0000
26.6900 1121.0000 1.0000
26.7000 1119.0000 1.0000
26.7100 1091.0000 1.0000
26.7200 1030.0000 1.0000
26.7300 1029.0000 1.0000
26.7400 987.0000 1.0000
26.7500 946.0000 1.0000
26.7600 954.0000 1.0000
26.7700 956.0000 1.0000
26.7800 916.0000 1.0000
26.7900 942.0000 1.0000
26.8000 898.0000 1.0000
26.8100 904.0000 1.0000
26.8200 890.0000 1.0000
26.8300 888.0000 1.0000
26.8400 861.0000 1.0000
26.8500 879.0000 1.0000
26.8600 830.0000 1.0000
26.8700 820.0000 1.0000
26.8800 871.0000 1.0000
26.8900 804.0000 1.0000
26.9000 814.0000 1.0000
26.9100 827.0000 1.0000
26.9200 797.0000 1.0000
26.9300 804.0000 1.0000
26.9400 778.0000 1.0000
26.9500 802.0000 1.0000
26.9600 836.0000 1.0000
26.9700 796.0000 1.0000
26.9800 735.0000 1.0000
26.9900 800.0000 1.0000
27.0000 779.0000 1.0000
27.0100 791.0000 1.0000
27.0200 750.0000 1.0000
27.0300 787.0000 1.0000
27.0400 790.0000 1.0000
27.0500 739.0000 1.0000
27.0600 748.0000 1.0000
27.0700 744.0000 1.0000
27.0800 793.0000 1.0000
27.0900 716.0000 1.0000
27.1000 760.0000 1.0000
27.1100 757.0000 1.0000
27.1200 756.0000 1.0000
27.1300 746.0000 1.0000
27.1400 782.0000 1.0000
27.1500 753.0000 1.0000
27.1600 782.0000 1.0000
27.1700 744.0000 1.0000
27.1800 759.0000 1.0000
27.1900 754.0000 1.0000
27.2000 788.0000 1.0000
27.2100 733.0000 1.0000
27.2200 746.0000 1.0000
27.2300 704.0000 1.0000
27.2400 744.0000 1.0000
27.2500 771.0000 1.0000
27.2600 700.0000 1.0000
27.2700 764.0000 1.0000
27.2800 740.0000 1.0000
27.2900 728.0000 1.0000
27.3000 705.0000 1.0000
27.3100 744.0000 1.0000
27.3200 755.0000 1.0000
27.3300 780.0000 1.0000
27.3400 810.0000 1.0000
27.3500 770.0000 1.0000
27.3600 712.0000 1.0000
27.3700 718.0000 1.0000
27.3800 713.0000 1.0000
27.3900 696.0000 1.0000
27.4000 706.0000 1.0000
27.4100 707.0000 1.0000
27.4200 700.0000 1.0000
27.4300 709.0000 1.0000
27.4400 720.0000 1.0000
27.4500 703.0000 1.0000
27.4600 695.0000 1.0000
27.4700 691.0000 1.0000
27.4800 705.0000 1.0000
27.4900 711.0000 1.0000
27.5000 739.0000 1.0000
27.5100 705.0000 1.0000
27.5200 690.0000 1.0000
27.5300 698.0000 1.0000
27.5400 738.0000 1.0000
27.5500 676.0000 1.0000
27.5600 716.0000 1.0000
27.5700 711.0000 1.0000
27.5800 665.0000 1.0000
27.5900 675.0000 1.0000
27.6000 732.0000 1.0000
27.6100 674.0000 1.0000
27.6200 695.0000 1.0000
27.6300 712.0000 1.0000
27.6400 690.0000 1.0000
27.6500 727.0000 1.0000
27.6600 722.0000 1.0000
27.6700 665.0000 1.0000
27.6800 740.0000 1.0000
27.6900 716.0000 1.0000
27.7000 685.0000 1.0000
27.7100 712.0000 1.0000
27.7200 669.0000 1.0000
27.7300 702.0000 1.0000
27.7400 700.0000 1.0000
27.7500 670.0000 1.0000
27.7600 672.0000 1.0000
27.7700 727.0000 1.0000
27.7800 733.0000 1.0000
27.7900 699.0000 1.0000
27.8000 697.0000 1.0000
27.8100 680.0000 1.0000
27.8200 653.0000 1.0000
27.8300 681.0000 1.0000
27.8400 685.0000 1.0000
27.8500 719.0000 1.0000
27.8600 677.0000 1.0000
27.8700 727.0000 1.0000
27.8800 688.0000 1.0000
27.8900 658.0000 1.0000
27.9000 696.0000 1.0000
27.9100 740.0000 1.0000
27.9200 698.0000 1.0000
27.9300 700.0000 1.0000
27.9400 664.0000 1.0000
27.9500 649.0000 1.0000
27.9600 641.0000 1.0000
27.9700 660.0000 1.0000
27.9800 659.0000 1.0000
27.9900 748.0000 1.0000
28.0000 667.0000 1.0000
28.0100 648.0000 1.0000
28.0200 661.0000 1.0000
28.0300 713.0000 1.0000
28.0400 661.0000 1.0000
28.0500 727.0000 1.0000
28.0600 659.0000 1.0000
28.0700 648.0000 1.0000
28.0800 667.0000 1.0000
28.0900 714.0000 1.0000
28.1000 706.0000 1.0000
28.1100 653.0000 1.0000
28.1200 692.0000 1.0000
28.1300 711.0000 1.0000
28.1400 633.0000 1.0000
28.1500 660.0000 1.0000
28.1600 709.0000 1.0000
28.1700 687.0000 1.0000
28.1800 672.0000 1.0000
28.1900 646.0000 1.0000
28.2000 684.0000 1.0000
28.2100 668.0000 1.0000
28.2200 675.0000 1.0000
28.2300 664.0000 1.0000
28.2400 670.0000 1.0000
28.2500 680.0000 1.0000
28.2600 699.0000 1.0000
28.2700 647.0000 1.0000
28.2800 681.0000 1.0000
28.2900 669.0000 1.0000
28.3000 661.0000 1.0000
28.3100 680.0000 1.0000
28.3200 655.0000 1.0000
28.3300 660.0000 1.0000
28.3400 675.0000 1.0000
28.3500 651.0000 1.0000
28.3600 672.0000 1.0000
28.3700 643.0000 1.0000
28.3800 663.0000 1.0000
28.3900 669.0000 1.0000
28.4000 675.0000 1.0000
28.4100 690.0000 1.0000
28.4200 696.0000 1.0000
28.4300 705.0000 1.0000
28.4400 667.0000 1.0000
28.4500 718.0000 1.0000
28.4600 679.0000 1.0000
28.4700 679.0000 1.0000
28.4800 698.0000 1.0000
28.4900 642.0000 1.0000
28.5000 681.0000 1.0000
28.5100 654.0000 1.0000
28.5200 697.0000 1.0000
28.5300 660.0000 1.0000
28.5400 670.0000 1.0000
28.5500 645.0000 1.0000
28.5600 636.0000 1.0000
28.5700 658.0000 1.0000
28.5800 656.0000 1.0000
28.5900 678.0000 1.0000
28.6000 698.0000 1.0000
28.6100 663.0000 1.0000
28.6200 641.0000 1.0000
28.6300 656.0000 1.0000
28.6400 671.0000 1.0000
28.6500 648.0000 1.0000
28.6600 650.0000 1.0000
28.6700 655.0000 1.0000
28.6800 662.0000 1.0000
28.6900 661.0000 1.0000
28.7000 615.0000 1.0000
28.7100 632.0000 1.0000
28.7200 670.0000 1.0000
28.7300 656.0000 1.0000
28.7400 628.0000 1.0000
28.7500 633.0000 1.0000
28.7600 615.0000 1.0000
28.7700 662.0000 1.0000
28.7800 643.0000 1.0000
28.7900 648.0000 1.0000
28.8000 694.0000 1.0000
28.8100 674.0000 1.0000
28.8200 632.0000 1.0000
28.8300 682.0000 1.0000
28.8400 687.0000 1.0000
28.8500 672.0000 1.0000
28.8600 622.0000 1.0000
28.8700 674.0000 1.0000
28.8800 690.0000 1.0000
28.8900 660.0000 1.0000
28.9000 631.0000 1.0000
28.9100 622.0000 1.0000
28.9200 644.0000 1.0000
28.9300 688.0000 1.0000
28.9400 631.0000 1.0000
28.9500 609.0000 1.0000
28.9600 613.0000 1.0000
28.9700 608.0000 1.0000
28.9800 656.0000 1.0000
28.9900 665.0000 1.0000
29.0000 641.0000 1.0000
29.0100 652.0000 1.0000
29.0200 648.0000 1.0000
29.0300 634.0000 1.0000
29.0400 643.0000 1.0000
29.0500 649.0000 1.0000
29.0600 618.0000 1.0000
29.0700 628.0000 1.0000
29.0800 631.0000 1.0000
29.0900 664.0000 1.0000
29.1000 635.0000 1.0000
29.1100 583.0000 1.0000
29.1200 678.0000 1.0000
29.1300 647.0000 1.0000
29.1400 636.0000 1.0000
29.1500 659.0000 1.0000
29.1600 625.0000 1.0000
29.1700 624.0000 1.0000
29.1800 666.0000 1.0000
29.1900 663.0000 1.0000
29.2000 666.0000 1.0000
29.2100 634.0000 1.0000
29.2200 646.0000 1.0000
29.2300 644.0000 1.0000
29.2400 654.0000 1.0000
29.2500 631.0000 1.0000
29.2600 623.0000 1.0000
29.2700 617.0000 1.0000
29.2800 645.0000 1.0000
29.2900 665.0000 1.0000
29.3000 654.0000 1.0000
29.3100 649.0000 1.0000
29.3200 650.0000 1.0000
29.3300 638.0000 1.0000
29.3400 622.0000 1.0000
29.3500 612.0000 1.0000
29.3600 621.0000 1.0000
29.3700 631.0000 1.0000
29.3800 623.0000 1.0000
29.3900 661.0000 1.0000
29.4000 628.0000 1.0000
29.4100 635.0000 1.0000
29.4200 640.0000 1.0000
29.4300 624.0000 1.0000
29.4400 657.0000 1.0000
29.4500 654.0000 1.0000
29.4600 644.0000 1.0000
29.4700 651.0000 1.0000
29.4800 597.0000 1.0000
29.4900 612.0000 1.0000
29.5000 659.0000 1.0000
29.5100 649.0000 1.0000
29.5200 667.0000 1.0000
29.5300 669.0000 1.0000
29.5400 620.0000 1.0000
29.5500 655.0000 1.0000
29.5600 605.0000 1.0000
29.5700 621.0000 1.0000
29.5800 655.0000 1.0000
29.5900 644.0000 1.0000
29.6000 667.0000 1.0000
29.6100 649.0000 1.0000
29.6200 599.0000 1.0000
29.6300 625.0000 1.0000
29.6400 619.0000 1.0000
29.6500 637.0000 1.0000
29.6600 663.0000 1.0000
29.6700 637.0000 1.0000
29.6800 630.0000 1.0000
29.6900 633.0000 1.0000
29.7000 614.0000 1.0000
29.7100 633.0000 1.0000
29.7200 617.0000 1.0000
29.7300 639.0000 1.0000
29.7400 641.0000 1.0000
29.7500 656.0000 1.0000
29.7600 639.0000 1.0000
29.7700 662.0000 1.0000
29.7800 632.0000 1.0000
29.7900 609.0000 1.0000
29.8000 620.0000 1.0000
29.8100 619.0000 1.0000
29.8200 623.0000 1.0000
29.8300 623.0000 1.0000
29.8400 642.0000 1.0000
29.8500 643.0000 1.0000
29.8600 597.0000 1.0000
29.8700 619.0000 1.0000
29.8800 644.0000 1.0000
29.8900 608.0000 1.0000
29.9000 591.0000 1.0000
29.9100 626.0000 1.0000
29.9200 604.0000 1.0000
29.9300 613.0000 1.0000
29.9400 631.0000 1.0000
29.9500 591.0000 1.0000
29.9600 600.0000 1.0000
29.9700 639.0000 1.0000
29.9800 603.0000 1.0000
29.9900 611.0000 1.0000
30.0000 599.0000 1.0000
30.0100 610.0000 1.0000
30.0200 612.0000 1.0000
30.0300 612.0000 1.0000
30.0400 594.0000 1.0000
30.0500 585.0000 1.0000
30.0600 620.0000 1.0000
30.0700 613.0000 1.0000
30.0800 572.0000 1.0000
30.0900 588.0000 1.0000
30.1000 639.0000 1.0000
30.1100 635.0000 1.0000
30.1200 602.0000 1.0000
30.1300 637.0000 1.0000
30.1400 634.0000 1.0000
30.1500 619.0000 1.0000
30.1600 613.0000 1.0000
30.1700 574.0000 1.0000
30.1800 614.0000 1.0000
30.1900 655.0000 1.0000
30.2000 621.0000 1.0000
30.2100 615.0000 1.0000
30.2200 641.0000 1.0000
30.2300 637.0000 1.0000
30.2400 621.0000 1.0000
30.2500 609.0000 1.0000
30.2600 625.0000 1.0000
30.2700 620.0000 1.0000
30.2800 611.0000 1.0000
30.2900 605.0000 1.0000
30.3000 624.0000 1.0000
30.3100 581.0000 1.0000
30.3200 590.0000 1.0000
30.3300 637.0000 1.0000
30.3400 636.0000 1.0000
30.3500 612.0000 1.0000
30.3600 587.0000 1.0000
30.3700 640.0000 1.0000
30.3800 656.0000 1.0000
30.3900 611.0000 1.0000
30.4000 597.0000 1.0000
30.4100 639.0000 1.0000
30.4200 637.0000 1.0000
30.4300 646.0000 1.0000
30.4400 595.0000 1.0000
30.4500 593.0000 1.0000
30.4600 581.0000 1.0000
30.4700 606.0000 1.0000
30.4800 628.0000 1.0000
30.4900 626.0000 1.0000
30.5000 605.0000 1.0000
30.5100 624.0000 1.0000
30.5200 611.0000 1.0000
30.5300 647.0000 1.0000
30.5400 618.0000 1.0000
30.5500 601.0000 1.0000
30.5600 584.0000 1.0000
30.5700 608.0000 1.0000
30.5800 592.0000 1.0000
30.5900 579.0000 1.0000
30.6000 619.0000 1.0000
30.6100 598.0000 1.0000
30.6200 582.0000 1.0000
30.6300 606.0000 1.0000
30.6400 596.0000 1.0000
30.6500 612.0000 1.0000
30.6600 612.0000 1.0000
30.6700 611.0000 1.0000
30.6800 612.0000 1.0000
30.6900 630.0000 1.0000
30.7000 599.0000 1.0000
30.7100 612.0000 1.0000
30.7200 588.0000 1.0000
30.7300 585.0000 1.0000
30.7400 563.0000 1.0000
30.7500 628.0000 1.0000
30.7600 568.0000 1.0000
30.7700 578.0000 1.0000
30.7800 589.0000 1.0000
30.7900 601.0000 1.0000
30.8000 597.0000 1.0000
30.8100 547.0000 1.0000
30.8200 557.0000 1.0000
30.8300 600.0000 1.0000
30.8400 595.0000 1.0000
30.8500 601.0000 1.0000
30.8600 588.0000 1.0000
30.8700 539.0000 1.0000
30.8800 541.0000 1.0000
30.8900 568.0000 1.0000
30.9000 554.0000 1.0000
30.9100 571.0000 1.0000
30.9200 568.0000 1.0000
30.9300 585.0000 1.0000
30.9400 575.0000 1.0000
30.9500 605.0000 1.0000
30.9600 587.0000 1.0000
30.9700 615.0000 1.0000
30.9800 571.0000 1.0000
30.9900 595.0000 1.0000
31.0000 608.0000 1.0000
31.0100 595.0000 1.0000
31.0200 609.0000 1.0000
31.0300 575.0000 1.0000
31.0400 584.0000 1.0000
31.0500 638.0000 1.0000
31.0600 635.0000 1.0000
31.0700 575.0000 1.0000
31.0800 625.0000 1.0000
31.0900 599.0000 1.0000
31.1000 627.0000 1.0000
31.1100 616.0000 1.0000
31.1200 598.0000 1.0000
31.1300 586.0000 1.0000
31.1400 626.0000 1.0000
31.1500 613.0000 1.0000
31.1600 607.0000 1.0000
31.1700 620.0000 1.0000
31.1800 599.0000 1.0000
31.1900 608.0000 1.0000
31.2000 619.0000 1.0000
31.2100 609.0000 1.0000
31.2200 585.0000 1.0000
31.2300 610.0000 1.0000
31.2400 611.0000 1.0000
31.2500 628.0000 1.0000
31.2600 578.0000 1.0000
31.2700 614.0000 1.0000
31.2800 604.0000 1.0000
31.2900 604.0000 1.0000
31.3000 619.0000 1.0000
31.3100 611.0000 1.0000
31.3200 583.0000 1.0000
31.3300 586.0000 1.0000
31.3400 586.0000 1.0000
31.3500 539.0000 1.0000
31.3600 591.0000 1.0000
31.3700 576.0000 1.0000
31.3800 546.0000 1.0000
31.3900 557.0000 1.0000
31.4000 556.0000 1.0000
31.4100 546.0000 1.0000
31.4200 587.0000 1.0000
31.4300 579.0000 1.0000
31.4400 597.0000 1.0000
31.4500 585.0000 1.0000
31.4600 578.0000 1.0000
31.4700 579.0000 1.0000
31.4800 565.0000 1.0000
31.4900 577.0000 1.0000
31.5000 577.0000 1.0000
31.5100 557.0000 1.0000
31.5200 575.0000 1.0000
31.5300 591.0000 1.0000
31.5400 598.0000 1.0000
31.5500 581.0000 1.0000
31.5600 539.0000 1.0000
31.5700 585.0000 1.0000
31.5800 624.0000 1.0000
31.5900 567.0000 1.0000
31.6000 554.0000 1.0000
31.6100 559.0000 1.0000
31.6200 578.0000 1.0000
31.6300 571.0000 1.0000
31.6400 573.0000 1.0000
31.6500 559.0000 1.0000
31.6600 603.0000 1.0000
31.6700 577.0000 1.0000
31.6800 537.0000 1.0000
31.6900 575.0000 1.0000
31.7000 598.0000 1.0000
31.7100 567.0000 1.0000
31.7200 575.0000 1.0000
31.7300 548.0000 1.0000
31.7400 565.0000 1.0000
31.7500 544.0000 1.0000
31.7600 534.0000 1.0000
31.7700 589.0000 1.0000
31.7800 562.0000 1.0000
31.7900 576.0000 1.0000
31.8000 569.0000 1.0000
31.8100 592.0000 1.0000
31.8200 558.0000 1.0000
31.8300 574.0000 1.0000
31.8400 572.0000 1.0000
31.8500 558.0000 1.0000
31.8600 566.0000 1.0000
31.8700 571.0000 1.0000
31.8800 535.0000 1.0000
31.8900 555.0000 1.0000
31.9000 572.0000 1.0000
31.9100 588.0000 1.0000
31.9200 584.0000 1.0000
31.9300 586.0000 1.0000
31.9400 567.0000 1.0000
31.9500 592.0000 1.0000
31.9600 539.0000 1.0000
31.9700 554.0000 1.0000
31.9800 577.0000 1.0000
31.9900 549.0000 1.0000
32.0000 573.0000 1.0000
32.0100 554.0000 1.0000
32.0200 587.0000 1.0000
32.0300 555.0000 1.0000
32.0400 592.0000 1.0000
32.0500 613.0000 1.0000
32.0600 571.0000 1.0000
32.0700 535.0000 1.0000
32.0800 559.0000 1.0000
32.0900 556.0000 1.0000
32.1000 572.0000 1.0000
32.1100 546.0000 1.0000
32.1200 551.0000 1.0000
32.1300 557.0000 1.0000
32.1400 574.0000 1.0000
32.1500 555.0000 1.0000
32.1600 564.0000 1.0000
32.1700 557.0000 1.0000
32.1800 548.0000 1.0000
32.1900 541.0000 1.0000
32.2000 606.0000 1.0000
32.2100 563.0000 1.0000
32.2200 559.0000 1.0000
32.2300 529.0000 1.0000
32.2400 517.0000 1.0000
32.2500 582.0000 1.0000
32.2600 546.0000 1.0000
32.2700 573.0000 1.0000
32.2800 547.0000 1.0000
32.2900 585.0000 1.0000
32.3000 570.0000 1.0000
32.3100 574.0000 1.0000
32.3200 560.0000 1.0000
32.3300 549.0000 1.0000
32.3400 543.0000 1.0000
32.3500 523.0000 1.0000
32.3600 550.0000 1.0000
32.3700 573.0000 1.0000
32.3800 583.0000 1.0000
32.3900 561.0000 1.0000
32.4000 567.0000 1.0000
32.4100 578.0000 1.0000
32.4200 573.0000 1.0000
32.4300 544.0000 1.0000
32.4400 584.0000 1.0000
32.4500 563.0000 1.0000
32.4600 589.0000 1.0000
32.4700 567.0000 1.0000
32.4800 531.0000 1.0000
32.4900 535.0000 1.0000
32.5000 587.0000 1.0000
32.5100 508.0000 1.0000
32.5200 584.0000 1.0000
32.5300 545.0000 1.0000
32.5400 568.0000 1.0000
32.5500 593.0000 1.0000
32.5600 590.0000 1.0000
32.5700 536.0000 1.0000
32.5800 539.0000 1.0000
32.5900 566.0000 1.0000
32.6000 570.0000 1.0000
32.6100 571.0000 1.0000
32.6200 553.0000 1.0000
32.6300 550.0000 1.0000
32.6400 543.0000 1.0000
32.6500 548.0000 1.0000
32.6600 537.0000 1.0000
32.6700 531.0000 1.0000
32.6800 555.0000 1.0000
32.6900 554.0000 1.0000
32.7000 532.0000 1.0000
32.7100 533.0000 1.0000
32.7200 579.0000 1.0000
32.7300 546.0000 1.0000
32.7400 546.0000 1.0000
32.7500 569.0000 1.0000
32.7600 546.0000 1.0000
32.7700 585.0000 1.0000
32.7800 555.0000 1.0000
32.7900 556.0000 1.0000
32.8000 547.0000 1.0000
32.8100 540.0000 1.0000
32.8200 579.0000 1.0000
32.8300 576.0000 1.0000
32.8400 551.0000 1.0000
32.8500 529.0000 1.0000
32.8600 561.0000 1.0000
32.8700 572.0000 1.0000
32.8800 551.0000 1.0000
32.8900 549.0000 1.0000
32.9000 561.0000 1.0000
32.9100 570.0000 1.0000
32.9200 585.0000 1.0000
32.9300 566.0000 1.0000
32.9400 563.0000 1.0000
32.9500 553.0000 1.0000
32.9600 603.0000 1.0000
32.9700 577.0000 1.0000
32.9800 590.0000 1.0000
32.9900 597.0000 1.0000
33.0000 620.0000 1.0000
33.0100 592.0000 1.0000
33.0200 600.0000 1.0000
33.0300 617.0000 1.0000
33.0400 606.0000 1.0000
33.0500 644.0000 1.0000
33.0600 671.0000 1.0000
33.0700 656.0000 1.0000
33.0800 650.0000 1.0000
33.0900 662.0000 1.0000
33.1000 723.0000 1.0000
33.1100 724.0000 1.0000
33.1200 691.0000 1.0000
33.1300 703.0000 1.0000
33.1400 705.0000 1.0000
33.1500 734.0000 1.0000
33.1600 707.0000 1.0000
33.1700 666.0000 1.0000
33.1800 702.0000 1.0000
33.1900 660.0000 1.0000
33.2000 673.0000 1.0000
33.2100 650.0000 1.0000
33.2200 643.0000 1.0000
33.2300 623.0000 1.0000
33.2400 639.0000 1.0000
33.2500 625.0000 1.0000
33.2600 628.0000 1.0000
33.2700 617.0000 1.0000
33.2800 629.0000 1.0000
33.2900 620.0000 1.0000
33.3000 603.0000 1.0000
33.3100 597.0000 1.0000
33.3200 655.0000 1.0000
33.3300 642.0000 1.0000
33.3400 629.0000 1.0000
33.3500 627.0000 1.0000
33.3600 654.0000 1.0000
33.3700 658.0000 1.0000
33.3800 619.0000 1.0000
33.3900 637.0000 1.0000
33.4000 674.0000 1.0000
33.4100 673.0000 1.0000
33.4200 667.0000 1.0000
33.4300 702.0000 1.0000
33.4400 697.0000 1.0000
33.4500 707.0000 1.0000
33.4600 695.0000 1.0000
33.4700 675.0000 1.0000
33.4800 717.0000 1.0000
33.4900 759.0000 1.0000
33.5000 775.0000 1.0000
33.5100 756.0000 1.0000
33.5200 774.0000 1.0000
33.5300 868.0000 1.0000
33.5400 844.0000 1.0000
33.5500 886.0000 1.0000
33.5600 921.0000 1.0000
33.5700 997.0000 1.0000
33.5800 979.0000 1.0000
33.5900 1062.0000 1.0000
33.6000 1115.0000 1.0000
33.6100 1128.0000 1.0000
33.6200 1142.0000 1.0000
33.6300 1208.0000 1.0000
33.6400 1253.0000 1.0000
33.6500 1292.0000 1.0000
33.6600 1306.0000 1.0000
33.6700 1353.0000 1.0000
33.6800 1330.0000 1.0000
33.6900 1399.0000 1.0000
33.7000 1357.0000 1.0000
33.7100 1296.0000 1.0000
33.7200 1231.0000 1.0000
33.7300 1208.0000 1.0000
33.7400 1181.0000 1.0000
33.7500 1208.0000 1.0000
33.7600 1148.0000 1.0000
33.7700 1101.0000 1.0000
33.7800 1021.0000 1.0000
33.7900 1017.0000 1.0000
33.8000 947.0000 1.0000
33.8100 922.0000 1.0000
33.8200 905.0000 1.0000
33.8300 843.0000 1.0000
33.8400 792.0000 1.0000
33.8500 769.0000 1.0000
33.8600 792.0000 1.0000
33.8700 776.0000 1.0000
33.8800 745.0000 1.0000
33.8900 710.0000 1.0000
33.9000 664.0000 1.0000
33.9100 674.0000 1.0000
33.9200 675.0000 1.0000
33.9300 664.0000 1.0000
33.9400 658.0000 1.0000
33.9500 664.0000 1.0000
33.9600 656.0000 1.0000
33.9700 602.0000 1.0000
33.9800 657.0000 1.0000
33.9900 624.0000 1.0000
34.0000 586.0000 1.0000
34.0100 592.0000 1.0000
34.0200 573.0000 1.0000
34.0300 618.0000 1.0000
34.0400 571.0000 1.0000
34.0500 603.0000 1.0000
34.0600 559.0000 1.0000
34.0700 550.0000 1.0000
34.0800 573.0000 1.0000
34.0900 587.0000 1.0000
34.1000 552.0000 1.0000
34.1100 560.0000 1.0000
34.1200 572.0000 1.0000
34.1300 552.0000 1.0000
34.1400 543.0000 1.0000
34.1500 550.0000 1.0000
34.1600 542.0000 1.0000
34.1700 525.0000 1.0000
34.1800 548.0000 1.0000
34.1900 527.0000 1.0000
34.2000 530.0000 1.0000
34.2100 550.0000 1.0000
34.2200 548.0000 1.0000
34.2300 566.0000 1.0000
34.2400 539.0000 1.0000
34.2500 505.0000 1.0000
34.2600 532.0000 1.0000
34.2700 542.0000 1.0000
34.2800 577.0000 1.0000
34.2900 497.0000 1.0000
34.3000 491.0000 1.0000
34.3100 535.0000 1.0000
34.3200 522.0000 1.0000
34.3300 524.0000 1.0000
34.3400 473.0000 1.0000
34.3500 522.0000 1.0000
34.3600 538.0000 1.0000
34.3700 509.0000 1.0000
34.3800 483.0000 1.0000
34.3900 546.0000 1.0000
34.4000 556.0000 1.0000
34.4100 528.0000 1.0000
34.4200 503.0000 1.0000
34.4300 464.0000 1.0000
34.4400 504.0000 1.0000
34.4500 535.0000 1.0000
34.4600 539.0000 1.0000
34.4700 470.0000 1.0000
34.4800 510.0000 1.0000
34.4900 519.0000 1.0000
34.5000 542.0000 1.0000
34.5100 509.0000 1.0000
34.5200 517.0000 1.0000
34.5300 496.0000 1.0000
34.5400 503.0000 1.0000
34.5500 488.0000 1.0000
34.5600 498.0000 1.0000
34.5700 507.0000 1.0000
34.5800 482.0000 1.0000
34.5900 500.0000 1.0000
34.6000 457.0000 1.0000
34.6100 475.0000 1.0000
34.6200 501.0000 1.0000
34.6300 533.0000 1.0000
34.6400 533.0000 1.0000
34.6500 497.0000 1.0000
34.6600 470.0000 1.0000
34.6700 508.0000 1.0000
34.6800 474.0000 1.0000
34.6900 471.0000 1.0000
34.7000 493.0000 1.0000
34.7100 473.0000 1.0000
34.7200 511.0000 1.0000
34.7300 497.0000 1.0000
34.7400 488.0000 1.0000
34.7500 489.0000 1.0000
34.7600 482.0000 1.0000
34.7700 480.0000 1.0000
34.7800 487.0000 1.0000
34.7900 464.0000 1.0000
34.8000 506.0000 1.0000
34.8100 465.0000 1.0000
34.8200 494.0000 1.0000
34.8300 497.0000 1.0000
34.8400 458.0000 1.0000
34.8500 489.0000 1.0000
34.8600 484.0000 1.0000
34.8700 468.0000 1.0000
34.8800 483.0000 1.0000
34.8900 484.0000 1.0000
34.9000 473.0000 1.0000
34.9100 499.0000 1.0000
34.9200 487.0000 1.0000
34.9300 481.0000 1.0000
34.9400 456.0000 1.0000
34.9500 485.0000 1.0000
34.9600 461.0000 1.0000
34.9700 449.0000 1.0000
34.9800 505.0000 1.0000
34.9900 521.0000 1.0000
35.0000 490.0000 1.0000
35.0100 457.0000 1.0000
35.0200 465.0000 1.0000
35.0300 465.0000 1.0000
35.0400 467.0000 1.0000
35.0500 452.0000 1.0000
35.0600 447.0000 1.0000
35.0700 476.0000 1.0000
35.0800 487.0000 1.0000
35.0900 498.0000 1.0000
35.1000 447.0000 1.0000
35.1100 466.0000 1.0000
35.1200 449.0000 1.0000
35.1300 426.0000 1.0000
35.1400 494.0000 1.0000
35.1500 468.0000 1.0000
35.1600 452.0000 1.0000
35.1700 494.0000 1.0000
35.1800 508.0000 1.0000
35.1900 508.0000 1.0000
35.2000 479.0000 1.0000
35.2100 447.0000 1.0000
35.2200 446.0000 1.0000
35.2300 467.0000 1.0000
35.2400 491.0000 1.0000
35.2500 480.0000 1.0000
35.2600 483.0000 1.0000
35.2700 489.0000 1.0000
35.2800 498.0000 1.0000
35.2900 498.0000 1.0000
35.3000 512.0000 1.0000
35.3100 511.0000 1.0000
35.3200 475.0000 1.0000
35.3300 436.0000 1.0000
35.3400 473.0000 1.0000
35.3500 510.0000 1.0000
35.3600 512.0000 1.0000
35.3700 497.0000 1.0000
35.3800 506.0000 1.0000
35.3900 506.0000 1.0000
35.4000 504.0000 1.0000
35.4100 498.0000 1.0000
35.4200 501.0000 1.0000
35.4300 510.0000 1.0000
35.4400 537.0000 1.0000
35.4500 580.0000 1.0000
35.4600 577.0000 1.0000
35.4700 607.0000 1.0000
35.4800 598.0000 1.0000
35.4900 607.0000 1.0000
35.5000 644.0000 1.0000
35.5100 680.0000 1.0000
35.5200 712.0000 1.0000
35.5300 761.0000 1.0000
35.5400 791.0000 1.0000
35.5500 846.0000 1.0000
35.5600 863.0000 1.0000
35.5700 905.0000 1.0000
35.5800 908.0000 1.0000
35.5900 901.0000 1.0000
35.6000 928.0000 1.0000
35.6100 932.0000 1.0000
35.6200 890.0000 1.0000
35.6300 850.0000 1.0000
35.6400 884.0000 1.0000
35.6500 841.0000 1.0000
35.6600 779.0000 1.0000
35.6700 769.0000 1.0000
35.6800 787.0000 1.0000
35.6900 754.0000 1.0000
35.7000 699.0000 1.0000
35.7100 677.0000 1.0000
35.7200 653.0000 1.0000
35.7300 601.0000 1.0000
35.7400 611.0000 1.0000
35.7500 604.0000 1.0000
35.7600 530.0000 1.0000
35.7700 555.0000 1.0000
35.7800 554.0000 1.0000
35.7900 513.0000 1.0000
35.8000 556.0000 1.0000
35.8100 505.0000 1.0000
35.8200 490.0000 1.0000
35.8300 499.0000 1.0000
35.8400 489.0000 1.0000
35.8500 461.0000 1.0000
35.8600 459.0000 1.0000
35.8700 516.0000 1.0000
35.8800 436.0000 1.0000
35.8900 480.0000 1.0000
35.9000 435.0000 1.0000
35.9100 473.0000 1.0000
35.9200 461.0000 1.0000
35.9300 475.0000 1.0000
35.9400 454.0000 1.0000
35.9500 467.0000 1.0000
35.9600 423.0000 1.0000
35.9700 464.0000 1.0000
35.9800 453.0000 1.0000
35.9900 465.0000 1.0000
36.0000 463.0000 1.0000
36.0100 441.0000 1.0000
36.0200 460.0000 1.0000
36.0300 450.0000 1.0000
36.0400 441.0000 1.0000
36.0500 415.0000 1.0000
36.0600 450.0000 1.0000
36.0700 430.0000 1.0000
36.0800 456.0000 1.0000
36.0900 496.0000 1.0000
36.1000 447.0000 1.0000
36.1100 458.0000 1.0000
36.1200 445.0000 1.0000
36.1300 456.0000 1.0000
36.1400 424.0000 1.0000
36.1500 439.0000 1.0000
36.1600 437.0000 1.0000
36.1700 434.0000 1.0000
36.1800 412.0000 1.0000
36.1900 446.0000 1.0000
36.2000 439.0000 1.0000
36.2100 465.0000 1.0000
36.2200 407.0000 1.0000
36.2300 422.0000 1.0000
36.2400 448.0000 1.0000
36.2500 450.0000 1.0000
36.2600 448.0000 1.0000
36.2700 444.0000 1.0000
36.2800 440.0000 1.0000
36.2900 467.0000 1.0000
36.3000 468.0000 1.0000
36.3100 434.0000 1.0000
36.3200 431.0000 1.0000
36.3300 432.0000 1.0000
36.3400 454.0000 1.0000
36.3500 470.0000 1.0000
36.3600 439.0000 1.0000
36.3700 458.0000 1.0000
36.3800 454.0000 1.0000
36.3900 433.0000 1.0000
36.4000 421.0000 1.0000
36.4100 462.0000 1.0000
36.4200 429.0000 1.0000
36.4300 415.0000 1.0000
36.4400 433.0000 1.0000
36.4500 448.0000 1.0000
36.4600 435.0000 1.0000
36.4700 436.0000 1.0000
36.4800 477.0000 1.0000
36.4900 456.0000 1.0000
36.5000 413.0000 1.0000
36.5100 454.0000 1.0000
36.5200 448.0000 1.0000
36.5300 432.0000 1.0000
36.5400 416.0000 1.0000
36.5500 441.0000 1.0000
36.5600 435.0000 1.0000
36.5700 436.0000 1.0000
36.5800 431.0000 1.0000
36.5900 434.0000 1.0000
36.6000 425.0000 1.0000
36.6100 453.0000 1.0000
36.6200 431.0000 1.0000
36.6300 466.0000 1.0000
36.6400 437.0000 1.0000
36.6500 492.0000 1.0000
36.6600 425.0000 1.0000
36.6700 412.0000 1.0000
36.6800 460.0000 1.0000
36.6900 455.0000 1.0000
36.7000 434.0000 1.0000
36.7100 438.0000 1.0000
36.7200 418.0000 1.0000
36.7300 467.0000 1.0000
36.7400 477.0000 1.0000
36.7500 441.0000 1.0000
36.7600 463.0000 1.0000
36.7700 422.0000 1.0000
36.7800 423.0000 1.0000
36.7900 449.0000 1.0000
36.8000 434.0000 1.0000
36.8100 428.0000 1.0000
36.8200 443.0000 1.0000
36.8300 412.0000 1.0000
36.8400 460.0000 1.0000
36.8500 446.0000 1.0000
36.8600 415.0000 1.0000
36.8700 439.0000 1.0000
36.8800 462.0000 1.0000
36.8900 433.0000 1.0000
36.9000 423.0000 1.0000
36.9100 413.0000 1.0000
36.9200 434.0000 1.0000
36.9300 451.0000 1.0000
36.9400 445.0000 1.0000
36.9500 445.0000 1.0000
36.9600 459.0000 1.0000
36.9700 424.0000 1.0000
36.9800 439.0000 1.0000
36.9900 446.0000 1.0000
37.0000 469.0000 1.0000
37.0100 475.0000 1.0000
37.0200 474.0000 1.0000
37.0300 436.0000 1.0000
37.0400 450.0000 1.0000
37.0500 458.0000 1.0000
37.0600 454.0000 1.0000
37.0700 446.0000 1.0000
37.0800 437.0000 1.0000
37.0900 441.0000 1.0000
37.1000 448.0000 1.0000
37.1100 445.0000 1.0000
37.1200 410.0000 1.0000
37.1300 439.0000 1.0000
37.1400 448.0000 1.0000
37.1500 439.0000 1.0000
37.1600 450.0000 1.0000
37.1700 454.0000 1.0000
37.1800 452.0000 1.0000
37.1900 463.0000 1.0000
37.2000 441.0000 1.0000
37.2100 438.0000 1.0000
37.2200 460.0000 1.0000
37.2300 511.0000 1.0000
37.2400 433.0000 1.0000
37.2500 467.0000 1.0000
37.2600 443.0000 1.0000
37.2700 451.0000 1.0000
37.2800 488.0000 1.0000
37.2900 420.0000 1.0000
37.3000 469.0000 1.0000
37.3100 486.0000 1.0000
37.3200 519.0000 1.0000
37.3300 497.0000 1.0000
37.3400 479.0000 1.0000
37.3500 509.0000 1.0000
37.3600 520.0000 1.0000
37.3700 545.0000 1.0000
37.3800 523.0000 1.0000
37.3900 579.0000 1.0000
37.4000 542.0000 1.0000
37.4100 605.0000 1.0000
37.4200 607.0000 1.0000
37.4300 601.0000 1.0000
37.4400 622.0000 1.0000
37.4500 629.0000 1.0000
37.4600 686.0000 1.0000
37.4700 673.0000 1.0000
37.4800 696.0000 1.0000
37.4900 739.0000 1.0000
37.5000 778.0000 1.0000
37.5100 810.0000 1.0000
37.5200 814.0000 1.0000
37.5300 897.0000 1.0000
37.5400 909.0000 1.0000
37.5500 969.0000 1.0000
37.5600 1053.0000 1.0000
37.5700 1040.0000 1.0000
37.5800 1138.0000 1.0000
37.5900 1190.0000 1.0000
37.6000 1294.0000 1.0000
37.6100 1379.0000 1.0000
37.6200 1436.0000 1.0000
37.6300 1532.0000 1.0000
37.6400 1627.0000 1.0000
37.6500 1638.0000 1.0000
37.6600 1829.0000 1.0000
37.6700 1904.0000 1.0000
37.6800 2035.0000 1.0000
37.6900 2085.0000 1.0000
37.7000 2161.0000 1.0000
37.7100 2300.0000 1.0000
37.7200 2246.0000 1.0000
37.7300 2233.0000 1.0000
37.7400 2282.0000 1.0000
37.7500 2354.0000 1.0000
37.7600 2263.0000 1.0000
37.7700 2222.0000 1.0000
37.7800 2201.0000 1.0000
37.7900 2117.0000 1.0000
37.8000 2045.0000 1.0000
37.8100 2028.0000 1.0000
37.8200 1883.0000 1.0000
37.8300 1819.0000 1.0000
37.8400 1729.0000 1.0000
37.8500 1569.0000 1.0000
37.8600 1519.0000 1.0000
37.8700 1412.0000 1.0000
37.8800 1416.0000 1.0000
37.8900 1316.0000 1.0000
37.9000 1183.0000 1.0000
37.9100 1124.0000 1.0000
37.9200 1103.0000 1.0000
37.9300 1002.0000 1.0000
37.9400 962.0000 1.0000
37.9500 904.0000 1.0000
37.9600 886.0000 1.0000
37.9700 839.0000 1.0000
37.9800 826.0000 1.0000
37.9900 743.0000 1.0000
38.0000 718.0000 1.0000
38.0100 678.0000 1.0000
38.0200 610.0000 1.0000
38.0300 635.0000 1.0000
38.0400 605.0000 1.0000
38.0500 594.0000 1.0000
38.0600 598.0000 1.0000
38.0700 585.0000 1.0000
38.0800 558.0000 1.0000
38.0900 529.0000 1.0000
38.1000 542.0000 1.0000
38.1100 484.0000 1.0000
38.1200 514.0000 1.0000
38.1300 466.0000 1.0000
38.1400 457.0000 1.0000
38.1500 473.0000 1.0000
38.1600 464.0000 1.0000
38.1700 494.0000 1.0000
38.1800 472.0000 1.0000
38.1900 415.0000 1.0000
38.2000 418.0000 1.0000
38.2100 414.0000 1.0000
38.2200 456.0000 1.0000
38.2300 440.0000 1.0000
38.2400 449.0000 1.0000
38.2500 443.0000 1.0000
38.2600 423.0000 1.0000
38.2700 430.0000 1.0000
38.2800 408.0000 1.0000
38.2900 416.0000 1.0000
38.3000 415.0000 1.0000
38.3100 443.0000 1.0000
38.3200 418.0000 1.0000
38.3300 438.0000 1.0000
38.3400 415.0000 1.0000
38.3500 418.0000 1.0000
38.3600 448.0000 1.0000
38.3700 431.0000 1.0000
38.3800 411.0000 1.0000
38.3900 396.0000 1.0000
38.4000 429.0000 1.0000
38.4100 404.0000 1.0000
38.4200 399.0000 1.0000
38.4300 446.0000 1.0000
38.4400 433.0000 1.0000
38.4500 399.0000 1.0000
38.4600 406.0000 1.0000
38.4700 409.0000 1.0000
38.4800 363.0000 1.0000
38.4900 432.0000 1.0000
38.5000 405.0000 1.0000
38.5100 411.0000 1.0000
38.5200 423.0000 1.0000
38.5300 407.0000 1.0000
38.5400 443.0000 1.0000
38.5500 414.0000 1.0000
38.5600 403.0000 1.0000
38.5700 420.0000 1.0000
38.5800 418.0000 1.0000
38.5900 378.0000 1.0000
38.6000 387.0000 1.0000
38.6100 414.0000 1.0000
38.6200 398.0000 1.0000
38.6300 400.0000 1.0000
38.6400 386.0000 1.0000
38.6500 378.0000 1.0000
38.6600 413.0000 1.0000
38.6700 453.0000 1.0000
38.6800 419.0000 1.0000
38.6900 386.0000 1.0000
38.7000 372.0000 1.0000
38.7100 388.0000 1.0000
38.7200 390.0000 1.0000
38.7300 405.0000 1.0000
38.7400 424.0000 1.0000
38.7500 417.0000 1.0000
38.7600 374.0000 1.0000
38.7700 410.0000 1.0000
38.7800 435.0000 1.0000
38.7900 372.0000 1.0000
38.8000 410.0000 1.0000
38.8100 429.0000 1.0000
38.8200 437.0000 1.0000
38.8300 441.0000 1.0000
38.8400 438.0000 1.0000
38.8500 407.0000 1.0000
38.8600 393.0000 1.0000
38.8700 417.0000 1.0000
38.8800 387.0000 1.0000
38.8900 408.0000 1.0000
38.9000 369.0000 1.0000
38.9100 445.0000 1.0000
38.9200 454.0000 1.0000
38.9300 385.0000 1.0000
38.9400 409.0000 1.0000
38.9500 389.0000 1.0000
38.9600 414.0000 1.0000
38.9700 371.0000 1.0000
38.9800 367.0000 1.0000
38.9900 388.0000 1.0000
39.0000 390.0000 1.0000
39.0100 401.0000 1.0000
39.0200 377.0000 1.0000
39.0300 401.0000 1.0000
39.0400 353.0000 1.0000
39.0500 369.0000 1.0000
39.0600 406.0000 1.0000
39.0700 381.0000 1.0000
39.0800 366.0000 1.0000
39.0900 381.0000 1.0000
39.1000 383.0000 1.0000
39.1100 375.0000 1.0000
39.1200 363.0000 1.0000
39.1300 381.0000 1.0000
39.1400 388.0000 1.0000
39.1500 364.0000 1.0000
39.1600 363.0000 1.0000
39.1700 352.0000 1.0000
39.1800 386.0000 1.0000
39.1900 380.0000 1.0000
39.2000 372.0000 1.0000
39.2100 374.0000 1.0000
39.2200 370.0000 1.0000
39.2300 384.0000 1.0000
39.2400 391.0000 1.0000
39.2500 393.0000 1.0000
39.2600 366.0000 1.0000
39.2700 387.0000 1.0000
39.2800 401.0000 1.0000
39.2900 397.0000 1.0000
39.3000 369.0000 1.0000
39.3100 359.0000 1.0000
39.3200 380.0000 1.0000
39.3300 376.0000 1.0000
39.3400 366.0000 1.0000
39.3500 346.0000 1.0000
39.3600 379.0000 1.0000
39.3700 371.0000 1.0000
39.3800 376.0000 1.0000
39.3900 364.0000 1.0000
39.4000 395.0000 1.0000
39.4100 372.0000 1.0000
39.4200 362.0000 1.0000
39.4300 361.0000 1.0000
39.4400 366.0000 1.0000
39.4500 388.0000 1.0000
39.4600 358.0000 1.0000
39.4700 369.0000 1.0000
39.4800 385.0000 1.0000
39.4900 379.0000 1.0000
39.5000 358.0000 1.0000
39.5100 401.0000 1.0000
39.5200 382.0000 1.0000
39.5300 355.0000 1.0000
39.5400 346.0000 1.0000
39.5500 361.0000 1.0000
39.5600 363.0000 1.0000
39.5700 362.0000 1.0000
39.5800 374.0000 1.0000
39.5900 385.0000 1.0000
39.6000 401.0000 1.0000
39.6100 401.0000 1.0000
39.6200 371.0000 1.0000
39.6300 374.0000 1.0000
39.6400 392.0000 1.0000
39.6500 380.0000 1.0000
39.6600 360.0000 1.0000
39.6700 366.0000 1.0000
39.6800 403.0000 1.0000
39.6900 387.0000 1.0000
39.7000 390.0000 1.0000
39.7100 362.0000 1.0000
39.7200 379.0000 1.0000
39.7300 338.0000 1.0000
39.7400 376.0000 1.0000
39.7500 370.0000 1.0000
39.7600 367.0000 1.0000
39.7700 342.0000 1.0000
39.7800 368.0000 1.0000
39.7900 356.0000 1.0000
39.8000 376.0000 1.0000
39.8100 349.0000 1.0000
39.8200 349.0000 1.0000
39.8300 374.0000 1.0000
39.8400 316.0000 1.0000
39.8500 359.0000 1.0000
39.8600 365.0000 1.0000
39.8700 349.0000 1.0000
39.8800 369.0000 1.0000
39.8900 353.0000 1.0000
39.9000 365.0000 1.0000
39.9100 343.0000 1.0000
39.9200 344.0000 1.0000
39.9300 351.0000 1.0000
39.9400 377.0000 1.0000
39.9500 359.0000 1.0000
39.9600 370.0000 1.0000
39.9700 363.0000 1.0000
39.9800 339.0000 1.0000
39.9900 342.0000 1.0000
40.0000 359.0000 1.0000
40.0100 394.0000 1.0000
40.0200 336.0000 1.0000
40.0300 320.0000 1.0000
40.0400 343.0000 1.0000
40.0500 383.0000 1.0000
40.0600 375.0000 1.0000
40.0700 376.0000 1.0000
40.0800 352.0000 1.0000
40.0900 357.0000 1.0000
40.1000 397.0000 1.0000
40.1100 382.0000 1.0000
40.1200 402.0000 1.0000
40.1300 378.0000 1.0000
40.1400 385.0000 1.0000
40.1500 363.0000 1.0000
40.1600 369.0000 1.0000
40.1700 368.0000 1.0000
40.1800 348.0000 1.0000
40.1900 366.0000 1.0000
40.2000 351.0000 1.0000
40.2100 353.0000 1.0000
40.2200 358.0000 1.0000
40.2300 361.0000 1.0000
40.2400 365.0000 1.0000
40.2500 366.0000 1.0000
40.2600 353.0000 1.0000
40.2700 367.0000 1.0000
40.2800 346.0000 1.0000
40.2900 351.0000 1.0000
40.3000 380.0000 1.0000
40.3100 371.0000 1.0000
40.3200 342.0000 1.0000
40.3300 388.0000 1.0000
40.3400 361.0000 1.0000
40.3500 363.0000 1.0000
40.3600 360.0000 1.0000
40.3700 348.0000 1.0000
40.3800 344.0000 1.0000
40.3900 359.0000 1.0000
40.4000 373.0000 1.0000
40.4100 350.0000 1.0000
40.4200 354.0000 1.0000
40.4300 370.0000 1.0000
40.4400 346.0000 1.0000
40.4500 344.0000 1.0000
40.4600 367.0000 1.0000
40.4700 351.0000 1.0000
40.4800 384.0000 1.0000
40.4900 357.0000 1.0000
40.5000 361.0000 1.0000
40.5100 354.0000 1.0000
40.5200 373.0000 1.0000
40.5300 380.0000 1.0000
40.5400 344.0000 1.0000
40.5500 378.0000 1.0000
40.5600 365.0000 1.0000
40.5700 334.0000 1.0000
40.5800 331.0000 1.0000
40.5900 342.0000 1.0000
40.6000 363.0000 1.0000
40.6100 357.0000 1.0000
40.6200 376.0000 1.0000
40.6300 358.0000 1.0000
40.6400 376.0000 1.0000
40.6500 366.0000 1.0000
40.6600 386.0000 1.0000
40.6700 362.0000 1.0000
40.6800 380.0000 1.0000
40.6900 376.0000 1.0000
40.7000 357.0000 1.0000
40.7100 381.0000 1.0000
40.7200 357.0000 1.0000
40.7300 353.0000 1.0000
40.7400 361.0000 1.0000
40.7500 397.0000 1.0000
40.7600 366.0000 1.0000
40.7700 388.0000 1.0000
40.7800 355.0000 1.0000
40.7900 363.0000 1.0000
40.8000 396.0000 1.0000
40.8100 416.0000 1.0000
40.8200 381.0000 1.0000
40.8300 402.0000 1.0000
40.8400 357.0000 1.0000
40.8500 373.0000 1.0000
40.8600 417.0000 1.0000
40.8700 386.0000 1.0000
40.8800 410.0000 1.0000
40.8900 400.0000 1.0000
40.9000 397.0000 1.0000
40.9100 372.0000 1.0000
40.9200 402.0000 1.0000
40.9300 398.0000 1.0000
40.9400 383.0000 1.0000
40.9500 374.0000 1.0000
40.9600 359.0000 1.0000
40.9700 366.0000 1.0000
40.9800 393.0000 1.0000
40.9900 377.0000 1.0000
41.0000 346.0000 1.0000
41.0100 363.0000 1.0000
41.0200 370.0000 1.0000
41.0300 339.0000 1.0000
41.0400 345.0000 1.0000
41.0500 369.0000 1.0000
41.0600 363.0000 1.0000
41.0700 378.0000 1.0000
41.0800 352.0000 1.0000
41.0900 380.0000 1.0000
41.1000 350.0000 1.0000
41.1100 344.0000 1.0000
41.1200 370.0000 1.0000
41.1300 341.0000 1.0000
41.1400 331.0000 1.0000
41.1500 349.0000 1.0000
41.1600 336.0000 1.0000
41.1700 354.0000 1.0000
41.1800 354.0000 1.0000
41.1900 370.0000 1.0000
41.2000 363.0000 1.0000
41.2100 352.0000 1.0000
41.2200 351.0000 1.0000
41.2300 324.0000 1.0000
41.2400 391.0000 1.0000
41.2500 352.0000 1.0000
41.2600 364.0000 1.0000
41.2700 325.0000 1.0000
41.2800 336.0000 1.0000
41.2900 365.0000 1.0000
41.3000 352.0000 1.0000
41.3100 334.0000 1.0000
41.3200 386.0000 1.0000
41.3300 335.0000 1.0000
41.3400 311.0000 1.0000
41.3500 356.0000 1.0000
41.3600 352.0000 1.0000
41.3700 361.0000 1.0000
41.3800 340.0000 1.0000
41.3900 363.0000 1.0000
41.4000 338.0000 1.0000
41.4100 361.0000 1.0000
41.4200 362.0000 1.0000
41.4300 379.0000 1.0000
41.4400 327.0000 1.0000
41.4500 346.0000 1.0000
41.4600 358.0000 1.0000
41.4700 358.0000 1.0000
41.4800 362.0000 1.0000
41.4900 351.0000 1.0000
41.5000 361.0000 1.0000
41.5100 364.0000 1.0000
41.5200 349.0000 1.0000
41.5300 346.0000 1.0000
41.5400 350.0000 1.0000
41.5500 357.0000 1.0000
41.5600 370.0000 1.0000
41.5700 353.0000 1.0000
41.5800 358.0000 1.0000
41.5900 357.0000 1.0000
41.6000 350.0000 1.0000
41.6100 347.0000 1.0000
41.6200 322.0000 1.0000
41.6300 370.0000 1.0000
41.6400 331.0000 1.0000
41.6500 329.0000 1.0000
41.6600 380.0000 1.0000
41.6700 341.0000 1.0000
41.6800 387.0000 1.0000
41.6900 371.0000 1.0000
41.7000 370.0000 1.0000
41.7100 366.0000 1.0000
41.7200 364.0000 1.0000
41.7300 385.0000 1.0000
41.7400 386.0000 1.0000
41.7500 366.0000 1.0000
41.7600 324.0000 1.0000
41.7700 333.0000 1.0000
41.7800 346.0000 1.0000
41.7900 337.0000 1.0000
41.8000 358.0000 1.0000
41.8100 362.0000 1.0000
41.8200 342.0000 1.0000
41.8300 329.0000 1.0000
41.8400 350.0000 1.0000
41.8500 336.0000 1.0000
41.8600 341.0000 1.0000
41.8700 346.0000 1.0000
41.8800 383.0000 1.0000
41.8900 352.0000 1.0000
41.9000 354.0000 1.0000
41.9100 358.0000 1.0000
41.9200 335.0000 1.0000
41.9300 354.0000 1.0000
41.9400 342.0000 1.0000
41.9500 370.0000 1.0000
41.9600 359.0000 1.0000
41.9700 353.0000 1.0000
41.9800 350.0000 1.0000
41.9900 335.0000 1.0000
42.0000 335.0000 1.0000
42.0100 330.0000 1.0000
42.0200 330.0000 1.0000
42.0300 351.0000 1.0000
42.0400 362.0000 1.0000
42.0500 320.0000 1.0000
42.0600 345.0000 1.0000
42.0700 329.0000 1.0000
42.0800 338.0000 1.0000
42.0900 357.0000 1.0000
42.1000 332.0000 1.0000
42.1100 337.0000 1.0000
42.1200 348.0000 1.0000
42.1300 336.0000 1.0000
42.1400 366.0000 1.0000
42.1500 385.0000 1.0000
42.1600 370.0000 1.0000
42.1700 358.0000 1.0000
42.1800 395.0000 1.0000
42.1900 342.0000 1.0000
42.2000 368.0000 1.0000
42.2100 344.0000 1.0000
42.2200 349.0000 1.0000
42.2300 343.0000 1.0000
42.2400 325.0000 1.0000
42.2500 345.0000 1.0000
42.2600 356.0000 1.0000
42.2700 348.0000 1.0000
42.2800 332.0000 1.0000
42.2900 397.0000 1.0000
42.3000 341.0000 1.0000
42.3100 381.0000 1.0000
42.3200 399.0000 1.0000
42.3300 368.0000 1.0000
42.3400 343.0000 1.0000
42.3500 391.0000 1.0000
42.3600 402.0000 1.0000
42.3700 359.0000 1.0000
42.3800 357.0000 1.0000
42.3900 359.0000 1.0000
42.4000 369.0000 1.0000
42.4100 391.0000 1.0000
42.4200 404.0000 1.0000
42.4300 401.0000 1.0000
42.4400 414.0000 1.0000
42.4500 396.0000 1.0000
42.4600 380.0000 1.0000
42.4700 372.0000 1.0000
42.4800 376.0000 1.0000
42.4900 372.0000 1.0000
42.5000 327.0000 1.0000
42.5100 383.0000 1.0000
42.5200 396.0000 1.0000
42.5300 378.0000 1.0000
42.5400 356.0000 1.0000
42.5500 367.0000 1.0000
42.5600 351.0000 1.0000
42.5700 360.0000 1.0000
42.5800 367.0000 1.0000
42.5900 345.0000 1.0000
42.6000 357.0000 1.0000
42.6100 367.0000 1.0000
42.6200 349.0000 1.0000
42.6300 364.0000 1.0000
42.6400 367.0000 1.0000
42.6500 359.0000 1.0000
42.6600 331.0000 1.0000
42.6700 353.0000 1.0000
42.6800 364.0000 1.0000
42.6900 340.0000 1.0000
42.7000 334.0000 1.0000
42.7100 315.0000 1.0000
42.7200 388.0000 1.0000
42.7300 356.0000 1.0000
42.7400 372.0000 1.0000
42.7500 372.0000 1.0000
42.7600 344.0000 1.0000
42.7700 362.0000 1.0000
42.7800 341.0000 1.0000
42.7900 344.0000 1.0000
42.8000 352.0000 1.0000
42.8100 340.0000 1.0000
42.8200 348.0000 1.0000
42.8300 354.0000 1.0000
42.8400 339.0000 1.0000
42.8500 336.0000 1.0000
42.8600 356.0000 1.0000
42.8700 326.0000 1.0000
42.8800 351.0000 1.0000
42.8900 342.0000 1.0000
42.9000 341.0000 1.0000
42.9100 376.0000 1.0000
42.9200 334.0000 1.0000
42.9300 330.0000 1.0000
42.9400 366.0000 1.0000
42.9500 401.0000 1.0000
42.9600 367.0000 1.0000
42.9700 350.0000 1.0000
42.9800 365.0000 1.0000
42.9900 335.0000 1.0000
43.0000 350.0000 1.0000
43.0100 376.0000 1.0000
43.0200 365.0000 1.0000
43.0300 330.0000 1.0000
43.0400 376.0000 1.0000
43.0500 345.0000 1.0000
43.0600 332.0000 1.0000
43.0700 324.0000 1.0000
43.0800 315.0000 1.0000
43.0900 330.0000 1.0000
43.1000 358.0000 1.0000
43.1100 356.0000 1.0000
43.1200 364.0000 1.0000
43.1300 359.0000 1.0000
43.1400 346.0000 1.0000
43.1500 347.0000 1.0000
43.1600 339.0000 1.0000
43.1700 316.0000 1.0000
43.1800 324.0000 1.0000
43.1900 353.0000 1.0000
43.2000 331.0000 1.0000
43.2100 347.0000 1.0000
43.2200 354.0000 1.0000
43.2300 344.0000 1.0000
43.2400 327.0000 1.0000
43.2500 311.0000 1.0000
43.2600 316.0000 1.0000
43.2700 340.0000 1.0000
43.2800 325.0000 1.0000
43.2900 344.0000 1.0000
43.3000 321.0000 1.0000
43.3100 320.0000 1.0000
43.3200 374.0000 1.0000
43.3300 354.0000 1.0000
43.3400 340.0000 1.0000
43.3500 341.0000 1.0000
43.3600 351.0000 1.0000
43.3700 348.0000 1.0000
43.3800 337.0000 1.0000
43.3900 339.0000 1.0000
43.4000 345.0000 1.0000
43.4100 351.0000 1.0000
43.4200 358.0000 1.0000
43.4300 340.0000 1.0000
43.4400 349.0000 1.0000
43.4500 378.0000 1.0000
43.4600 341.0000 1.0000
43.4700 351.0000 1.0000
43.4800 362.0000 1.0000
43.4900 326.0000 1.0000
43.5000 337.0000 1.0000
43.5100 319.0000 1.0000
43.5200 315.0000 1.0000
43.5300 368.0000 1.0000
43.5400 359.0000 1.0000
43.5500 352.0000 1.0000
43.5600 348.0000 1.0000
43.5700 342.0000 1.0000
43.5800 364.0000 1.0000
43.5900 344.0000 1.0000
43.6000 342.0000 1.0000
43.6100 350.0000 1.0000
43.6200 362.0000 1.0000
43.6300 350.0000 1.0000
43.6400 364.0000 1.0000
43.6500 346.0000 1.0000
43.6600 356.0000 1.0000
43.6700 376.0000 1.0000
43.6800 352.0000 1.0000
43.6900 351.0000 1.0000
43.7000 342.0000 1.0000
43.7100 349.0000 1.0000
43.7200 330.0000 1.0000
43.7300 375.0000 1.0000
43.7400 361.0000 1.0000
43.7500 350.0000 1.0000
43.7600 288.0000 1.0000
43.7700 300.0000 1.0000
43.7800 319.0000 1.0000
43.7900 342.0000 1.0000
43.8000 355.0000 1.0000
43.8100 360.0000 1.0000
43.8200 331.0000 1.0000
43.8300 333.0000 1.0000
43.8400 338.0000 1.0000
43.8500 341.0000 1.0000
43.8600 304.0000 1.0000
43.8700 350.0000 1.0000
43.8800 328.0000 1.0000
43.8900 334.0000 1.0000
43.9000 335.0000 1.0000
43.9100 294.0000 1.0000
43.9200 344.0000 1.0000
43.9300 325.0000 1.0000
43.9400 314.0000 1.0000
43.9500 324.0000 1.0000
43.9600 344.0000 1.0000
43.9700 346.0000 1.0000
43.9800 349.0000 1.0000
43.9900 367.0000 1.0000
44.0000 340.0000 1.0000
44.0100 343.0000 1.0000
44.0200 313.0000 1.0000
44.0300 334.0000 1.0000
44.0400 332.0000 1.0000
44.0500 333.0000 1.0000
44.0600 335.0000 1.0000
44.0700 343.0000 1.0000
44.0800 321.0000 1.0000
44.0900 320.0000 1.0000
44.1000 309.0000 1.0000
44.1100 332.0000 1.0000
44.1200 338.0000 1.0000
44.1300 321.0000 1.0000
44.1400 323.0000 1.0000
44.1500 327.0000 1.0000
44.1600 322.0000 1.0000
44.1700 340.0000 1.0000
44.1800 325.0000 1.0000
44.1900 357.0000 1.0000
44.2000 333.0000 1.0000
44.2100 341.0000 1.0000
44.2200 316.0000 1.0000
44.2300 329.0000 1.0000
44.2400 329.0000 1.0000
44.2500 295.0000 1.0000
44.2600 337.0000 1.0000
44.2700 302.0000 1.0000
44.2800 323.0000 1.0000
44.2900 347.0000 1.0000
44.3000 317.0000 1.0000
44.3100 325.0000 1.0000
44.3200 320.0000 1.0000
44.3300 345.0000 1.0000
44.3400 340.0000 1.0000
44.3500 342.0000 1.0000
44.3600 351.0000 1.0000
44.3700 327.0000 1.0000
44.3800 341.0000 1.0000
44.3900 332.0000 1.0000
44.4000 332.0000 1.0000
44.4100 351.0000 1.0000
44.4200 330.0000 1.0000
44.4300 311.0000 1.0000
44.4400 323.0000 1.0000
44.4500 356.0000 1.0000
44.4600 326.0000 1.0000
44.4700 298.0000 1.0000
44.4800 303.0000 1.0000
44.4900 330.0000 1.0000
44.5000 312.0000 1.0000
44.5100 323.0000 1.0000
44.5200 315.0000 1.0000
44.5300 314.0000 1.0000
44.5400 313.0000 1.0000
44.5500 309.0000 1.0000
44.5600 329.0000 1.0000
44.5700 334.0000 1.0000
44.5800 313.0000 1.0000
44.5900 312.0000 1.0000
44.6000 354.0000 1.0000
44.6100 296.0000 1.0000
44.6200 351.0000 1.0000
44.6300 335.0000 1.0000
44.6400 321.0000 1.0000
44.6500 322.0000 1.0000
44.6600 351.0000 1.0000
44.6700 333.0000 1.0000
44.6800 340.0000 1.0000
44.6900 362.0000 1.0000
44.7000 345.0000 1.0000
44.7100 330.0000 1.0000
44.7200 337.0000 1.0000
44.7300 320.0000 1.0000
44.7400 316.0000 1.0000
44.7500 317.0000 1.0000
44.7600 296.0000 1.0000
44.7700 301.0000 1.0000
44.7800 313.0000 1.0000
44.7900 295.0000 1.0000
44.8000 337.0000 1.0000
44.8100 321.0000 1.0000
44.8200 306.0000 1.0000
44.8300 329.0000 1.0000
44.8400 317.0000 1.0000
44.8500 333.0000 1.0000
44.8600 334.0000 1.0000
44.8700 321.0000 1.0000
44.8800 313.0000 1.0000
44.8900 326.0000 1.0000
44.9000 328.0000 1.0000
44.9100 330.0000 1.0000
44.9200 319.0000 1.0000
44.9300 346.0000 1.0000
44.9400 327.0000 1.0000
44.9500 334.0000 1.0000
44.9600 325.0000 1.0000
44.9700 349.0000 1.0000
44.9800 297.0000 1.0000
44.9900 339.0000 1.0000
45.0000 319.0000 1.0000
45.0100 321.0000 1.0000
45.0200 290.0000 1.0000
45.0300 304.0000 1.0000
45.0400 319.0000 1.0000
45.0500 326.0000 1.0000
45.0600 303.0000 1.0000
45.0700 308.0000 1.0000
45.0800 327.0000 1.0000
45.0900 307.0000 1.0000
45.1000 322.0000 1.0000
45.1100 316.0000 1.0000
45.1200 285.0000 1.0000
45.1300 345.0000 1.0000
45.1400 331.0000 1.0000
45.1500 324.0000 1.0000
45.1600 306.0000 1.0000
45.1700 335.0000 1.0000
45.1800 310.0000 1.0000
45.1900 317.0000 1.0000
45.2000 315.0000 1.0000
45.2100 339.0000 1.0000
45.2200 319.0000 1.0000
45.2300 316.0000 1.0000
45.2400 322.0000 1.0000
45.2500 317.0000 1.0000
45.2600 322.0000 1.0000
45.2700 325.0000 1.0000
45.2800 332.0000 1.0000
45.2900 352.0000 1.0000
45.3000 369.0000 1.0000
45.3100 311.0000 1.0000
45.3200 303.0000 1.0000
45.3300 319.0000 1.0000
45.3400 330.0000 1.0000
45.3500 337.0000 1.0000
45.3600 345.0000 1.0000
45.3700 323.0000 1.0000
45.3800 324.0000 1.0000
45.3900 318.0000 1.0000
45.4000 327.0000 1.0000
45.4100 333.0000 1.0000
45.4200 322.0000 1.0000
45.4300 346.0000 1.0000
45.4400 306.0000 1.0000
45.4500 314.0000 1.0000
45.4600 298.0000 1.0000
45.4700 334.0000 1.0000
45.4800 323.0000 1.0000
45.4900 318.0000 1.0000
45.5000 328.0000 1.0000
45.5100 353.0000 1.0000
45.5200 285.0000 1.0000
45.5300 301.0000 1.0000
45.5400 324.0000 1.0000
45.5500 336.0000 1.0000
45.5600 297.0000 1.0000
45.5700 305.0000 1.0000
45.5800 298.0000 1.0000
45.5900 332.0000 1.0000
45.6000 308.0000 1.0000
45.6100 311.0000 1.0000
45.6200 278.0000 1.0000
45.6300 292.0000 1.0000
45.6400 315.0000 1.0000
45.6500 315.0000 1.0000
45.6600 306.0000 1.0000
45.6700 291.0000 1.0000
45.6800 315.0000 1.0000
45.6900 316.0000 1.0000
45.7000 300.0000 1.0000
45.7100 325.0000 1.0000
45.7200 325.0000 1.0000
45.7300 300.0000 1.0000
45.7400 321.0000 1.0000
45.7500 323.0000 1.0000
45.7600 302.0000 1.0000
45.7700 317.0000 1.0000
45.7800 321.0000 1.0000
45.7900 329.0000 1.0000
45.8000 306.0000 1.0000
45.8100 317.0000 1.0000
45.8200 321.0000 1.0000
45.8300 320.0000 1.0000
45.8400 268.0000 1.0000
45.8500 301.0000 1.0000
45.8600 304.0000 1.0000
45.8700 335.0000 1.0000
45.8800 338.0000 1.0000
45.8900 297.0000 1.0000
45.9000 307.0000 1.0000
45.9100 315.0000 1.0000
45.9200 311.0000 1.0000
45.9300 338.0000 1.0000
45.9400 326.0000 1.0000
45.9500 312.0000 1.0000
45.9600 288.0000 1.0000
45.9700 313.0000 1.0000
45.9800 318.0000 1.0000
45.9900 338.0000 1.0000
46.0000 299.0000 1.0000
46.0100 314.0000 1.0000
46.0200 310.0000 1.0000
46.0300 302.0000 1.0000
46.0400 325.0000 1.0000
46.0500 335.0000 1.0000
46.0600 323.0000 1.0000
46.0700 323.0000 1.0000
46.0800 334.0000 1.0000
46.0900 319.0000 1.0000
46.1000 314.0000 1.0000
46.1100 303.0000 1.0000
46.1200 312.0000 1.0000
46.1300 307.0000 1.0000
46.1400 316.0000 1.0000
46.1500 336.0000 1.0000
46.1600 345.0000 1.0000
46.1700 337.0000 1.0000
46.1800 291.0000 1.0000
46.1900 348.0000 1.0000
46.2000 328.0000 1.0000
46.2100 329.0000 1.0000
46.2200 323.0000 1.0000
46.2300 304.0000 1.0000
46.2400 309.0000 1.0000
46.2500 325.0000 1.0000
46.2600 315.0000 1.0000
46.2700 335.0000 1.0000
46.2800 331.0000 1.0000
46.2900 315.0000 1.0000
46.3000 293.0000 1.0000
46.3100 327.0000 1.0000
46.3200 298.0000 1.0000
46.3300 287.0000 1.0000
46.3400 314.0000 1.0000
46.3500 319.0000 1.0000
46.3600 331.0000 1.0000
46.3700 341.0000 1.0000
46.3800 325.0000 1.0000
46.3900 334.0000 1.0000
46.4000 305.0000 1.0000
46.4100 286.0000 1.0000
46.4200 337.0000 1.0000
46.4300 316.0000 1.0000
46.4400 306.0000 1.0000
46.4500 302.0000 1.0000
46.4600 307.0000 1.0000
46.4700 305.0000 1.0000
46.4800 320.0000 1.0000
46.4900 287.0000 1.0000
46.5000 292.0000 1.0000
46.5100 303.0000 1.0000
46.5200 336.0000 1.0000
46.5300 352.0000 1.0000
46.5400 313.0000 1.0000
46.5500 313.0000 1.0000
46.5600 333.0000 1.0000
46.5700 312.0000 1.0000
46.5800 318.0000 1.0000
46.5900 307.0000 1.0000
46.6000 294.0000 1.0000
46.6100 312.0000 1.0000
46.6200 311.0000 1.0000
46.6300 294.0000 1.0000
46.6400 313.0000 1.0000
46.6500 304.0000 1.0000
46.6600 311.0000 1.0000
46.6700 332.0000 1.0000
46.6800 325.0000 1.0000
46.6900 311.0000 1.0000
46.7000 303.0000 1.0000
46.7100 334.0000 1.0000
46.7200 279.0000 1.0000
46.7300 281.0000 1.0000
46.7400 297.0000 1.0000
46.7500 312.0000 1.0000
46.7600 322.0000 1.0000
46.7700 314.0000 1.0000
46.7800 300.0000 1.0000
46.7900 312.0000 1.0000
46.8000 296.0000 1.0000
46.8100 267.0000 1.0000
46.8200 317.0000 1.0000
46.8300 307.0000 1.0000
46.8400 293.0000 1.0000
46.8500 297.0000 1.0000
46.8600 289.0000 1.0000
46.8700 319.0000 1.0000
46.8800 306.0000 1.0000
46.8900 282.0000 1.0000
46.9000 280.0000 1.0000
46.9100 285.0000 1.0000
46.9200 288.0000 1.0000
46.9300 287.0000 1.0000
46.9400 325.0000 1.0000
46.9500 286.0000 1.0000
46.9600 317.0000 1.0000
46.9700 307.0000 1.0000
46.9800 335.0000 1.0000
46.9900 318.0000 1.0000
47.0000 321.0000 1.0000
47.0100 295.0000 1.0000
47.0200 306.0000 1.0000
47.0300 317.0000 1.0000
47.0400 312.0000 1.0000
47.0500 280.0000 1.0000
47.0600 287.0000 1.0000
47.0700 306.0000 1.0000
47.0800 310.0000 1.0000
47.0900 308.0000 1.0000
47.1000 305.0000 1.0000
47.1100 306.0000 1.0000
47.1200 312.0000 1.0000
47.1300 316.0000 1.0000
47.1400 323.0000 1.0000
47.1500 330.0000 1.0000
47.1600 321.0000 1.0000
47.1700 297.0000 1.0000
47.1800 290.0000 1.0000
47.1900 328.0000 1.0000
47.2000 307.0000 1.0000
47.2100 300.0000 1.0000
47.2200 311.0000 1.0000
47.2300 312.0000 1.0000
47.2400 304.0000 1.0000
47.2500 281.0000 1.0000
47.2600 286.0000 1.0000
47.2700 312.0000 1.0000
47.2800 291.0000 1.0000
47.2900 296.0000 1.0000
47.3000 296.0000 1.0000
47.3100 287.0000 1.0000
47.3200 280.0000 1.0000
47.3300 299.0000 1.0000
47.3400 300.0000 1.0000
47.3500 325.0000 1.0000
47.3600 331.0000 1.0000
47.3700 315.0000 1.0000
47.3800 292.0000 1.0000
47.3900 316.0000 1.0000
47.4000 287.0000 1.0000
47.4100 325.0000 1.0000
47.4200 311.0000 1.0000
47.4300 287.0000 1.0000
47.4400 303.0000 1.0000
47.4500 303.0000 1.0000
47.4600 296.0000 1.0000
47.4700 285.0000 1.0000
47.4800 279.0000 1.0000
47.4900 292.0000 1.0000
47.5000 281.0000 1.0000
47.5100 310.0000 1.0000
47.5200 293.0000 1.0000
47.5300 312.0000 1.0000
47.5400 302.0000 1.0000
47.5500 313.0000 1.0000
47.5600 297.0000 1.0000
47.5700 322.0000 1.0000
47.5800 301.0000 1.0000
47.5900 298.0000 1.0000
47.6000 307.0000 1.0000
47.6100 295.0000 1.0000
47.6200 289.0000 1.0000
47.6300 278.0000 1.0000
47.6400 283.0000 1.0000
47.6500 307.0000 1.0000
47.6600 304.0000 1.0000
47.6700 307.0000 1.0000
47.6800 275.0000 1.0000
47.6900 292.0000 1.0000
47.7000 294.0000 1.0000
47.7100 273.0000 1.0000
47.7200 306.0000 1.0000
47.7300 304.0000 1.0000
47.7400 262.0000 1.0000
47.7500 294.0000 1.0000
47.7600 295.0000 1.0000
47.7700 330.0000 1.0000
47.7800 321.0000 1.0000
47.7900 291.0000 1.0000
47.8000 310.0000 1.0000
47.8100 286.0000 1.0000
47.8200 314.0000 1.0000
47.8300 313.0000 1.0000
47.8400 305.0000 1.0000
47.8500 329.0000 1.0000
47.8600 320.0000 1.0000
47.8700 330.0000 1.0000
47.8800 292.0000 1.0000
47.8900 304.0000 1.0000
47.9000 296.0000 1.0000
47.9100 298.0000 1.0000
47.9200 307.0000 1.0000
47.9300 274.0000 1.0000
47.9400 307.0000 1.0000
47.9500 302.0000 1.0000
47.9600 317.0000 1.0000
47.9700 290.0000 1.0000
47.9800 285.0000 1.0000
47.9900 315.0000 1.0000
48.0000 279.0000 1.0000
48.0100 269.0000 1.0000
48.0200 304.0000 1.0000
48.0300 301.0000 1.0000
48.0400 296.0000 1.0000
48.0500 321.0000 1.0000
48.0600 318.0000 1.0000
48.0700 274.0000 1.0000
48.0800 309.0000 1.0000
48.0900 307.0000 1.0000
48.1000 324.0000 1.0000
48.1100 307.0000 1.0000
48.1200 311.0000 1.0000
48.1300 273.0000 1.0000
48.1400 290.0000 1.0000
48.1500 289.0000 1.0000
48.1600 309.0000 1.0000
48.1700 286.0000 1.0000
48.1800 318.0000 1.0000
48.1900 298.0000 1.0000
48.2000 288.0000 1.0000
48.2100 287.0000 1.0000
48.2200 293.0000 1.0000
48.2300 311.0000 1.0000
48.2400 281.0000 1.0000
48.2500 305.0000 1.0000
48.2600 292.0000 1.0000
48.2700 298.0000 1.0000
48.2800 278.0000 1.0000
48.2900 295.0000 1.0000
48.3000 316.0000 1.0000
48.3100 309.0000 1.0000
48.3200 308.0000 1.0000
48.3300 306.0000 1.0000
48.3400 291.0000 1.0000
48.3500 287.0000 1.0000
48.3600 299.0000 1.0000
48.3700 297.0000 1.0000
48.3800 306.0000 1.0000
48.3900 295.0000 1.0000
48.4000 287.0000 1.0000
48.4100 287.0000 1.0000
48.4200 277.0000 1.0000
48.4300 273.0000 1.0000
48.4400 269.0000 1.0000
48.4500 283.0000 1.0000
48.4600 280.0000 1.0000
48.4700 296.0000 1.0000
48.4800 290.0000 1.0000
48.4900 274.0000 1.0000
48.5000 263.0000 1.0000
48.5100 311.0000 1.0000
48.5200 304.0000 1.0000
48.5300 308.0000 1.0000
48.5400 299.0000 1.0000
48.5500 300.0000 1.0000
48.5600 311.0000 1.0000
48.5700 312.0000 1.0000
48.5800 313.0000 1.0000
48.5900 312.0000 1.0000
48.6000 311.0000 1.0000
48.6100 293.0000 1.0000
48.6200 301.0000 1.0000
48.6300 300.0000 1.0000
48.6400 309.0000 1.0000
48.6500 312.0000 1.0000
48.6600 289.0000 1.0000
48.6700 272.0000 1.0000
48.6800 284.0000 1.0000
48.6900 297.0000 1.0000
48.7000 317.0000 1.0000
48.7100 300.0000 1.0000
48.7200 284.0000 1.0000
48.7300 277.0000 1.0000
48.7400 276.0000 1.0000
48.7500 304.0000 1.0000
48.7600 286.0000 1.0000
48.7700 304.0000 1.0000
48.7800 295.0000 1.0000
48.7900 279.0000 1.0000
48.8000 291.0000 1.0000
48.8100 308.0000 1.0000
48.8200 285.0000 1.0000
48.8300 321.0000 1.0000
48.8400 301.0000 1.0000
48.8500 291.0000 1.0000
48.8600 317.0000 1.0000
48.8700 312.0000 1.0000
48.8800 283.0000 1.0000
48.8900 305.0000 1.0000
48.9000 287.0000 1.0000
48.9100 304.0000 1.0000
48.9200 303.0000 1.0000
48.9300 292.0000 1.0000
48.9400 300.0000 1.0000
48.9500 309.0000 1.0000
48.9600 290.0000 1.0000
48.9700 292.0000 1.0000
48.9800 289.0000 1.0000
48.9900 289.0000 1.0000
49.0000 293.0000 1.0000
49.0100 309.0000 1.0000
49.0200 322.0000 1.0000
49.0300 311.0000 1.0000
49.0400 297.0000 1.0000
49.0500 284.0000 1.0000
49.0600 278.0000 1.0000
49.0700 298.0000 1.0000
49.0800 279.0000 1.0000
49.0900 290.0000 1.0000
49.1000 294.0000 1.0000
49.1100 303.0000 1.0000
49.1200 298.0000 1.0000
49.1300 283.0000 1.0000
49.1400 304.0000 1.0000
49.1500 301.0000 1.0000
49.1600 307.0000 1.0000
49.1700 298.0000 1.0000
49.1800 290.0000 1.0000
49.1900 311.0000 1.0000
49.2000 319.0000 1.0000
49.2100 306.0000 1.0000
49.2200 299.0000 1.0000
49.2300 289.0000 1.0000
49.2400 275.0000 1.0000
49.2500 298.0000 1.0000
49.2600 320.0000 1.0000
49.2700 344.0000 1.0000
49.2800 317.0000 1.0000
49.2900 321.0000 1.0000
49.3000 290.0000 1.0000
49.3100 299.0000 1.0000
49.3200 300.0000 1.0000
49.3300 298.0000 1.0000
49.3400 307.0000 1.0000
49.3500 317.0000 1.0000
49.3600 346.0000 1.0000
49.3700 303.0000 1.0000
49.3800 333.0000 1.0000
49.3900 317.0000 1.0000
49.4000 317.0000 1.0000
49.4100 345.0000 1.0000
49.4200 344.0000 1.0000
49.4300 351.0000 1.0000
49.4400 349.0000 1.0000
49.4500 354.0000 1.0000
49.4600 328.0000 1.0000
49.4700 337.0000 1.0000
49.4800 334.0000 1.0000
49.4900 327.0000 1.0000
49.5000 345.0000 1.0000
49.5100 317.0000 1.0000
49.5200 305.0000 1.0000
49.5300 304.0000 1.0000
49.5400 347.0000 1.0000
49.5500 334.0000 1.0000
49.5600 346.0000 1.0000
49.5700 299.0000 1.0000
49.5800 325.0000 1.0000
49.5900 320.0000 1.0000
49.6000 288.0000 1.0000
49.6100 331.0000 1.0000
49.6200 310.0000 1.0000
49.6300 330.0000 1.0000
49.6400 317.0000 1.0000
49.6500 301.0000 1.0000
49.6600 284.0000 1.0000
49.6700 331.0000 1.0000
49.6800 326.0000 1.0000
49.6900 307.0000 1.0000
49.7000 307.0000 1.0000
49.7100 318.0000 1.0000
49.7200 288.0000 1.0000
49.7300 288.0000 1.0000
49.7400 309.0000 1.0000
49.7500 318.0000 1.0000
49.7600 280.0000 1.0000
49.7700 308.0000 1.0000
49.7800 319.0000 1.0000
49.7900 275.0000 1.0000
49.8000 310.0000 1.0000
49.8100 293.0000 1.0000
49.8200 308.0000 1.0000
49.8300 330.0000 1.0000
49.8400 300.0000 1.0000
49.8500 304.0000 1.0000
49.8600 277.0000 1.0000
49.8700 268.0000 1.0000
49.8800 304.0000 1.0000
49.8900 306.0000 1.0000
49.9000 269.0000 1.0000
49.9100 325.0000 1.0000
49.9200 306.0000 1.0000
49.9300 286.0000 1.0000
49.9400 286.0000 1.0000
49.9500 273.0000 1.0000
49.9600 292.0000 1.0000
49.9700 301.0000 1.0000
49.9800 293.0000 1.0000
49.9900 300.0000 1.0000
50.0000 294.0000 1.0000
50.0100 285.0000 1.0000
50.0200 319.0000 1.0000
50.0300 318.0000 1.0000
50.0400 283.0000 1.0000
50.0500 263.0000 1.0000
50.0600 270.0000 1.0000
50.0700 306.0000 1.0000
50.0800 300.0000 1.0000
50.0900 315.0000 1.0000
50.1000 304.0000 1.0000
50.1100 290.0000 1.0000
50.1200 275.0000 1.0000
50.1300 294.0000 1.0000
50.1400 299.0000 1.0000
50.1500 289.0000 1.0000
50.1600 308.0000 1.0000
50.1700 310.0000 1.0000
50.1800 291.0000 1.0000
50.1900 302.0000 1.0000
50.2000 291.0000 1.0000
50.2100 308.0000 1.0000
50.2200 336.0000 1.0000
50.2300 312.0000 1.0000
50.2400 328.0000 1.0000
50.2500 295.0000 1.0000
50.2600 305.0000 1.0000
50.2700 317.0000 1.0000
50.2800 304.0000 1.0000
50.2900 302.0000 1.0000
50.3000 293.0000 1.0000
50.3100 254.0000 1.0000
50.3200 277.0000 1.0000
50.3300 288.0000 1.0000
50.3400 302.0000 1.0000
50.3500 291.0000 1.0000
50.3600 303.0000 1.0000
50.3700 298.0000 1.0000
50.3800 336.0000 1.0000
50.3900 277.0000 1.0000
50.4000 288.0000 1.0000
50.4100 266.0000 1.0000
50.4200 271.0000 1.0000
50.4300 285.0000 1.0000
50.4400 308.0000 1.0000
50.4500 283.0000 1.0000
50.4600 295.0000 1.0000
50.4700 299.0000 1.0000
50.4800 305.0000 1.0000
50.4900 313.0000 1.0000
50.5000 296.0000 1.0000
50.5100 290.0000 1.0000
50.5200 307.0000 1.0000
50.5300 281.0000 1.0000
50.5400 312.0000 1.0000
50.5500 297.0000 1.0000
50.5600 289.0000 1.0000
50.5700 308.0000 1.0000
50.5800 302.0000 1.0000
50.5900 287.0000 1.0000
50.6000 296.0000 1.0000
50.6100 294.0000 1.0000
50.6200 302.0000 1.0000
50.6300 306.0000 1.0000
50.6400 324.0000 1.0000
50.6500 313.0000 1.0000
50.6600 298.0000 1.0000
50.6700 302.0000 1.0000
50.6800 321.0000 1.0000
50.6900 294.0000 1.0000
50.7000 306.0000 1.0000
50.7100 317.0000 1.0000
50.7200 295.0000 1.0000
50.7300 307.0000 1.0000
50.7400 288.0000 1.0000
50.7500 284.0000 1.0000
50.7600 284.0000 1.0000
50.7700 269.0000 1.0000
50.7800 329.0000 1.0000
50.7900 305.0000 1.0000
50.8000 287.0000 1.0000
50.8100 314.0000 1.0000
50.8200 315.0000 1.0000
50.8300 321.0000 1.0000
50.8400 293.0000 1.0000
50.8500 301.0000 1.0000
50.8600 302.0000 1.0000
50.8700 337.0000 1.0000
50.8800 307.0000 1.0000
50.8900 297.0000 1.0000
50.9000 323.0000 1.0000
50.9100 331.0000 1.0000
50.9200 321.0000 1.0000
50.9300 295.0000 1.0000
50.9400 320.0000 1.0000
50.9500 317.0000 1.0000
50.9600 321.0000 1.0000
50.9700 335.0000 1.0000
50.9800 322.0000 1.0000
50.9900 306.0000 1.0000
51.0000 332.0000 1.0000
51.0100 330.0000 1.0000
51.0200 294.0000 1.0000
51.0300 324.0000 1.0000
51.0400 344.0000 1.0000
51.0500 296.0000 1.0000
51.0600 318.0000 1.0000
51.0700 338.0000 1.0000
51.0800 337.0000 1.0000
51.0900 328.0000 1.0000
51.1000 345.0000 1.0000
51.1100 353.0000 1.0000
51.1200 370.0000 1.0000
51.1300 384.0000 1.0000
51.1400 380.0000 1.0000
51.1500 376.0000 1.0000
51.1600 379.0000 1.0000
51.1700 401.0000 1.0000
51.1800 391.0000 1.0000
51.1900 407.0000 1.0000
51.2000 404.0000 1.0000
51.2100 426.0000 1.0000
51.2200 431.0000 1.0000
51.2300 464.0000 1.0000
51.2400 473.0000 1.0000
51.2500 502.0000 1.0000
51.2600 533.0000 1.0000
51.2700 526.0000 1.0000
51.2800 568.0000 1.0000
51.2900 555.0000 1.0000
51.3000 591.0000 1.0000
51.3100 597.0000 1.0000
51.3200 640.0000 1.0000
51.3300 679.0000 1.0000
51.3400 697.0000 1.0000
51.3500 769.0000 1.0000
51.3600 873.0000 1.0000
51.3700 894.0000 1.0000
51.3800 957.0000 1.0000
51.3900 1044.0000 1.0000
51.4000 1104.0000 1.0000
51.4100 1255.0000 1.0000
51.4200 1265.0000 1.0000
51.4300 1364.0000 1.0000
51.4400 1423.0000 1.0000
51.4500 1608.0000 1.0000
51.4600 1660.0000 1.0000
51.4700 1767.0000 1.0000
51.4800 1898.0000 1.0000
51.4900 1855.0000 1.0000
51.5000 1936.0000 1.0000
51.5100 1893.0000 1.0000
51.5200 1988.0000 1.0000
51.5300 1957.0000 1.0000
51.5400 1920.0000 1.0000
51.5500 1862.0000 1.0000
51.5600 1771.0000 1.0000
51.5700 1710.0000 1.0000
51.5800 1652.0000 1.0000
51.5900 1720.0000 1.0000
51.6000 1593.0000 1.0000
51.6100 1560.0000 1.0000
51.6200 1495.0000 1.0000
51.6300 1480.0000 1.0000
51.6400 1367.0000 1.0000
51.6500 1400.0000 1.0000
51.6600 1369.0000 1.0000
51.6700 1252.0000 1.0000
51.6800 1209.0000 1.0000
51.6900 1095.0000 1.0000
51.7000 1008.0000 1.0000
51.7100 961.0000 1.0000
51.7200 861.0000 1.0000
51.7300 871.0000 1.0000
51.7400 824.0000 1.0000
51.7500 730.0000 1.0000
51.7600 697.0000 1.0000
51.7700 671.0000 1.0000
51.7800 614.0000 1.0000
51.7900 553.0000 1.0000
51.8000 558.0000 1.0000
51.8100 517.0000 1.0000
51.8200 475.0000 1.0000
51.8300 499.0000 1.0000
51.8400 534.0000 1.0000
51.8500 498.0000 1.0000
51.8600 453.0000 1.0000
51.8700 451.0000 1.0000
51.8800 441.0000 1.0000
51.8900 412.0000 1.0000
51.9000 405.0000 1.0000
51.9100 394.0000 1.0000
51.9200 398.0000 1.0000
51.9300 376.0000 1.0000
51.9400 379.0000 1.0000
51.9500 383.0000 1.0000
51.9600 361.0000 1.0000
51.9700 360.0000 1.0000
51.9800 362.0000 1.0000
51.9900 362.0000 1.0000
52.0000 339.0000 1.0000
52.0100 365.0000 1.0000
52.0200 355.0000 1.0000
52.0300 353.0000 1.0000
52.0400 316.0000 1.0000
52.0500 355.0000 1.0000
52.0600 347.0000 1.0000
52.0700 345.0000 1.0000
52.0800 331.0000 1.0000
52.0900 312.0000 1.0000
52.1000 332.0000 1.0000
52.1100 335.0000 1.0000
52.1200 318.0000 1.0000
52.1300 295.0000 1.0000
52.1400 294.0000 1.0000
52.1500 314.0000 1.0000
52.1600 342.0000 1.0000
52.1700 340.0000 1.0000
52.1800 308.0000 1.0000
52.1900 353.0000 1.0000
52.2000 332.0000 1.0000
52.2100 287.0000 1.0000
52.2200 305.0000 1.0000
52.2300 319.0000 1.0000
52.2400 352.0000 1.0000
52.2500 309.0000 1.0000
52.2600 289.0000 1.0000
52.2700 304.0000 1.0000
52.2800 287.0000 1.0000
52.2900 257.0000 1.0000
52.3000 262.0000 1.0000
52.3100 311.0000 1.0000
52.3200 311.0000 1.0000
52.3300 284.0000 1.0000
52.3400 295.0000 1.0000
52.3500 314.0000 1.0000
52.3600 324.0000 1.0000
52.3700 301.0000 1.0000
52.3800 291.0000 1.0000
52.3900 317.0000 1.0000
52.4000 314.0000 1.0000
52.4100 321.0000 1.0000
52.4200 290.0000 1.0000
52.4300 317.0000 1.0000
52.4400 294.0000 1.0000
52.4500 300.0000 1.0000
52.4600 256.0000 1.0000
52.4700 260.0000 1.0000
52.4800 281.0000 1.0000
52.4900 274.0000 1.0000
52.5000 311.0000 1.0000
52.5100 302.0000 1.0000
52.5200 285.0000 1.0000
52.5300 264.0000 1.0000
52.5400 279.0000 1.0000
52.5500 296.0000 1.0000
52.5600 298.0000 1.0000
52.5700 286.0000 1.0000
52.5800 282.0000 1.0000
52.5900 276.0000 1.0000
52.6000 303.0000 1.0000
52.6100 271.0000 1.0000
52.6200 286.0000 1.0000
52.6300 254.0000 1.0000
52.6400 303.0000 1.0000
52.6500 291.0000 1.0000
52.6600 304.0000 1.0000
52.6700 290.0000 1.0000
52.6800 298.0000 1.0000
52.6900 273.0000 1.0000
52.7000 292.0000 1.0000
52.7100 268.0000 1.0000
52.7200 301.0000 1.0000
52.7300 292.0000 1.0000
52.7400 300.0000 1.0000
52.7500 278.0000 1.0000
52.7600 271.0000 1.0000
52.7700 290.0000 1.0000
52.7800 310.0000 1.0000
52.7900 299.0000 1.0000
52.8000 264.0000 1.0000
52.8100 303.0000 1.0000
52.8200 312.0000 1.0000
52.8300 273.0000 1.0000
52.8400 313.0000 1.0000
52.8500 288.0000 1.0000
52.8600 300.0000 1.0000
52.8700 305.0000 1.0000
52.8800 287.0000 1.0000
52.8900 304.0000 1.0000
52.9000 298.0000 1.0000
52.9100 271.0000 1.0000
52.9200 305.0000 1.0000
52.9300 309.0000 1.0000
52.9400 295.0000 1.0000
52.9500 303.0000 1.0000
52.9600 287.0000 1.0000
52.9700 307.0000 1.0000
52.9800 290.0000 1.0000
52.9900 296.0000 1.0000
53.0000 264.0000 1.0000
53.0100 302.0000 1.0000
53.0200 279.0000 1.0000
53.0300 274.0000 1.0000
53.0400 315.0000 1.0000
53.0500 298.0000 1.0000
53.0600 284.0000 1.0000
53.0700 282.0000 1.0000
53.0800 295.0000 1.0000
53.0900 293.0000 1.0000
53.1000 299.0000 1.0000
53.1100 306.0000 1.0000
53.1200 287.0000 1.0000
53.1300 279.0000 1.0000
53.1400 298.0000 1.0000
53.1500 302.0000 1.0000
53.1600 293.0000 1.0000
53.1700 289.0000 1.0000
53.1800 303.0000 1.0000
53.1900 299.0000 1.0000
53.2000 303.0000 1.0000
53.2100 285.0000 1.0000
53.2200 289.0000 1.0000
53.2300 276.0000 1.0000
53.2400 262.0000 1.0000
53.2500 286.0000 1.0000
53.2600 266.0000 1.0000
53.2700 275.0000 1.0000
53.2800 277.0000 1.0000
53.2900 275.0000 1.0000
53.3000 273.0000 1.0000
53.3100 280.0000 1.0000
53.3200 288.0000 1.0000
53.3300 281.0000 1.0000
53.3400 268.0000 1.0000
53.3500 270.0000 1.0000
53.3600 311.0000 1.0000
53.3700 281.0000 1.0000
53.3800 274.0000 1.0000
53.3900 290.0000 1.0000
53.4000 271.0000 1.0000
53.4100 289.0000 1.0000
53.4200 318.0000 1.0000
53.4300 293.0000 1.0000
53.4400 306.0000 1.0000
53.4500 287.0000 1.0000
53.4600 294.0000 1.0000
53.4700 285.0000 1.0000
53.4800 262.0000 1.0000
53.4900 295.0000 1.0000
53.5000 314.0000 1.0000
53.5100 289.0000 1.0000
53.5200 289.0000 1.0000
53.5300 282.0000 1.0000
53.5400 300.0000 1.0000
53.5500 296.0000 1.0000
53.5600 289.0000 1.0000
53.5700 281.0000 1.0000
53.5800 285.0000 1.0000
53.5900 301.0000 1.0000
53.6000 301.0000 1.0000
53.6100 297.0000 1.0000
53.6200 272.0000 1.0000
53.6300 307.0000 1.0000
53.6400 264.0000 1.0000
53.6500 283.0000 1.0000
53.6600 276.0000 1.0000
53.6700 303.0000 1.0000
53.6800 322.0000 1.0000
53.6900 290.0000 1.0000
53.7000 276.0000 1.0000
53.7100 277.0000 1.0000
53.7200 293.0000 1.0000
53.7300 295.0000 1.0000
53.7400 280.0000 1.0000
53.7500 298.0000 1.0000
53.7600 284.0000 1.0000
53.7700 286.0000 1.0000
53.7800 283.0000 1.0000
53.7900 294.0000 1.0000
53.8000 280.0000 1.0000
53.8100 290.0000 1.0000
53.8200 299.0000 1.0000
53.8300 284.0000 1.0000
53.8400 267.0000 1.0000
53.8500 309.0000 1.0000
53.8600 302.0000 1.0000
53.8700 292.0000 1.0000
53.8800 288.0000 1.0000
53.8900 277.0000 1.0000
53.9000 273.0000 1.0000
53.9100 267.0000 1.0000
53.9200 296.0000 1.0000
53.9300 304.0000 1.0000
53.9400 297.0000 1.0000
53.9500 304.0000 1.0000
53.9600 301.0000 1.0000
53.9700 300.0000 1.0000
53.9800 320.0000 1.0000
53.9900 296.0000 1.0000
54.0000 311.0000 1.0000
54.0100 365.0000 1.0000
54.0200 348.0000 1.0000
54.0300 311.0000 1.0000
54.0400 320.0000 1.0000
54.0500 314.0000 1.0000
54.0600 306.0000 1.0000
54.0700 344.0000 1.0000
54.0800 326.0000 1.0000
54.0900 319.0000 1.0000
54.1000 318.0000 1.0000
54.1100 320.0000 1.0000
54.1200 309.0000 1.0000
54.1300 322.0000 1.0000
54.1400 303.0000 1.0000
54.1500 308.0000 1.0000
54.1600 325.0000 1.0000
54.1700 327.0000 1.0000
54.1800 329.0000 1.0000
54.1900 355.0000 1.0000
54.2000 297.0000 1.0000
54.2100 315.0000 1.0000
54.2200 322.0000 1.0000
54.2300 339.0000 1.0000
54.2400 317.0000 1.0000
54.2500 293.0000 1.0000
54.2600 332.0000 1.0000
54.2700 335.0000 1.0000
54.2800 332.0000 1.0000
54.2900 349.0000 1.0000
54.3000 321.0000 1.0000
54.3100 330.0000 1.0000
54.3200 314.0000 1.0000
54.3300 312.0000 1.0000
54.3400 332.0000 1.0000
54.3500 351.0000 1.0000
54.3600 359.0000 1.0000
54.3700 329.0000 1.0000
54.3800 334.0000 1.0000
54.3900 340.0000 1.0000
54.4000 366.0000 1.0000
54.4100 367.0000 1.0000
54.4200 397.0000 1.0000
54.4300 387.0000 1.0000
54.4400 369.0000 1.0000
54.4500 398.0000 1.0000
54.4600 417.0000 1.0000
54.4700 418.0000 1.0000
54.4800 402.0000 1.0000
54.4900 386.0000 1.0000
54.5000 468.0000 1.0000
54.5100 432.0000 1.0000
54.5200 471.0000 1.0000
54.5300 432.0000 1.0000
54.5400 403.0000 1.0000
54.5500 450.0000 1.0000
54.5600 451.0000 1.0000
54.5700 418.0000 1.0000
54.5800 450.0000 1.0000
54.5900 452.0000 1.0000
54.6000 413.0000 1.0000
54.6100 411.0000 1.0000
54.6200 413.0000 1.0000
54.6300 389.0000 1.0000
54.6400 401.0000 1.0000
54.6500 419.0000 1.0000
54.6600 405.0000 1.0000
54.6700 362.0000 1.0000
54.6800 383.0000 1.0000
54.6900 385.0000 1.0000
54.7000 366.0000 1.0000
54.7100 366.0000 1.0000
54.7200 381.0000 1.0000
54.7300 344.0000 1.0000
54.7400 340.0000 1.0000
54.7500 407.0000 1.0000
54.7600 347.0000 1.0000
54.7700 325.0000 1.0000
54.7800 359.0000 1.0000
54.7900 323.0000 1.0000
54.8000 316.0000 1.0000
54.8100 309.0000 1.0000
54.8200 330.0000 1.0000
54.8300 324.0000 1.0000
54.8400 327.0000 1.0000
54.8500 311.0000 1.0000
54.8600 299.0000 1.0000
54.8700 316.0000 1.0000
54.8800 311.0000 1.0000
54.8900 325.0000 1.0000
54.9000 321.0000 1.0000
54.9100 335.0000 1.0000
54.9200 303.0000 1.0000
54.9300 307.0000 1.0000
54.9400 302.0000 1.0000
54.9500 310.0000 1.0000
54.9600 294.0000 1.0000
54.9700 289.0000 1.0000
54.9800 303.0000 1.0000
54.9900 311.0000 1.0000
55.0000 285.0000 1.0000
55.0100 270.0000 1.0000
55.0200 293.0000 1.0000
55.0300 299.0000 1.0000
55.0400 259.0000 1.0000
55.0500 278.0000 1.0000
55.0600 283.0000 1.0000
55.0700 294.0000 1.0000
55.0800 306.0000 1.0000
55.0900 286.0000 1.0000
55.1000 308.0000 1.0000
55.1100 306.0000 1.0000
55.1200 280.0000 1.0000
55.1300 269.0000 1.0000
55.1400 290.0000 1.0000
55.1500 262.0000 1.0000
55.1600 278.0000 1.0000
55.1700 284.0000 1.0000
55.1800 294.0000 1.0000
55.1900 309.0000 1.0000
55.2000 275.0000 1.0000
55.2100 281.0000 1.0000
55.2200 270.0000 1.0000
55.2300 282.0000 1.0000
55.2400 258.0000 1.0000
55.2500 277.0000 1.0000
55.2600 286.0000 1.0000
55.2700 251.0000 1.0000
55.2800 270.0000 1.0000
55.2900 285.0000 1.0000
55.3000 281.0000 1.0000
55.3100 272.0000 1.0000
55.3200 274.0000 1.0000
55.3300 268.0000 1.0000
55.3400 282.0000 1.0000
55.3500 274.0000 1.0000
55.3600 264.0000 1.0000
55.3700 238.0000 1.0000
55.3800 262.0000 1.0000
55.3900 256.0000 1.0000
55.4000 262.0000 1.0000
55.4100 255.0000 1.0000
55.4200 264.0000 1.0000
55.4300 238.0000 1.0000
55.4400 242.0000 1.0000
55.4500 248.0000 1.0000
55.4600 257.0000 1.0000
55.4700 276.0000 1.0000
55.4800 275.0000 1.0000
55.4900 277.0000 1.0000
55.5000 218.0000 1.0000
55.5100 276.0000 1.0000
55.5200 271.0000 1.0000
55.5300 264.0000 1.0000
55.5400 277.0000 1.0000
55.5500 263.0000 1.0000
55.5600 282.0000 1.0000
55.5700 267.0000 1.0000
55.5800 263.0000 1.0000
55.5900 270.0000 1.0000
55.6000 261.0000 1.0000
55.6100 262.0000 1.0000
55.6200 240.0000 1.0000
55.6300 244.0000 1.0000
55.6400 261.0000 1.0000
55.6500 262.0000 1.0000
55.6600 284.0000 1.0000
55.6700 268.0000 1.0000
55.6800 260.0000 1.0000
55.6900 279.0000 1.0000
55.7000 260.0000 1.0000
55.7100 276.0000 1.0000
55.7200 303.0000 1.0000
55.7300 258.0000 1.0000
55.7400 267.0000 1.0000
55.7500 264.0000 1.0000
55.7600 272.0000 1.0000
55.7700 277.0000 1.0000
55.7800 244.0000 1.0000
55.7900 268.0000 1.0000
55.8000 265.0000 1.0000
55.8100 283.0000 1.0000
55.8200 277.0000 1.0000
55.8300 299.0000 1.0000
55.8400 315.0000 1.0000
55.8500 254.0000 1.0000
55.8600 275.0000 1.0000
55.8700 265.0000 1.0000
55.8800 279.0000 1.0000
55.8900 271.0000 1.0000
55.9000 241.0000 1.0000
55.9100 270.0000 1.0000
55.9200 279.0000 1.0000
55.9300 275.0000 1.0000
55.9400 290.0000 1.0000
55.9500 258.0000 1.0000
55.9600 297.0000 1.0000
55.9700 287.0000 1.0000
55.9800 257.0000 1.0000
55.9900 285.0000 1.0000
56.0000 268.0000 1.0000
56.0100 284.0000 1.0000
56.0200 270.0000 1.0000
56.0300 271.0000 1.0000
56.0400 266.0000 1.0000
56.0500 244.0000 1.0000
56.0600 259.0000 1.0000
56.0700 287.0000 1.0000
56.0800 271.0000 1.0000
56.0900 265.0000 1.0000
56.1000 254.0000 1.0000
56.1100 279.0000 1.0000
56.1200 256.0000 1.0000
56.1300 278.0000 1.0000
56.1400 283.0000 1.0000
56.1500 266.0000 1.0000
56.1600 279.0000 1.0000
56.1700 269.0000 1.0000
56.1800 267.0000 1.0000
56.1900 297.0000 1.0000
56.2000 293.0000 1.0000
56.2100 270.0000 1.0000
56.2200 272.0000 1.0000
56.2300 288.0000 1.0000
56.2400 255.0000 1.0000
56.2500 275.0000 1.0000
56.2600 266.0000 1.0000
56.2700 257.0000 1.0000
56.2800 292.0000 1.0000
56.2900 266.0000 1.0000
56.3000 282.0000 1.0000
56.3100 293.0000 1.0000
56.3200 294.0000 1.0000
56.3300 283.0000 1.0000
56.3400 290.0000 1.0000
56.3500 273.0000 1.0000
56.3600 260.0000 1.0000
56.3700 260.0000 1.0000
56.3800 252.0000 1.0000
56.3900 266.0000 1.0000
56.4000 282.0000 1.0000
56.4100 278.0000 1.0000
56.4200 277.0000 1.0000
56.4300 276.0000 1.0000
56.4400 291.0000 1.0000
56.4500 291.0000 1.0000
56.4600 280.0000 1.0000
56.4700 266.0000 1.0000
56.4800 281.0000 1.0000
56.4900 265.0000 1.0000
56.5000 262.0000 1.0000
56.5100 248.0000 1.0000
56.5200 263.0000 1.0000
56.5300 270.0000 1.0000
56.5400 306.0000 1.0000
56.5500 288.0000 1.0000
56.5600 264.0000 1.0000
56.5700 263.0000 1.0000
56.5800 278.0000 1.0000
56.5900 272.0000 1.0000
56.6000 277.0000 1.0000
56.6100 236.0000 1.0000
56.6200 256.0000 1.0000
56.6300 275.0000 1.0000
56.6400 281.0000 1.0000
56.6500 257.0000 1.0000
56.6600 295.0000 1.0000
56.6700 261.0000 1.0000
56.6800 255.0000 1.0000
56.6900 280.0000 1.0000
56.7000 289.0000 1.0000
56.7100 269.0000 1.0000
56.7200 250.0000 1.0000
56.7300 293.0000 1.0000
56.7400 246.0000 1.0000
56.7500 267.0000 1.0000
56.7600 266.0000 1.0000
56.7700 277.0000 1.0000
56.7800 304.0000 1.0000
56.7900 297.0000 1.0000
56.8000 270.0000 1.0000
56.8100 256.0000 1.0000
56.8200 279.0000 1.0000
56.8300 274.0000 1.0000
56.8400 251.0000 1.0000
56.8500 252.0000 1.0000
56.8600 256.0000 1.0000
56.8700 264.0000 1.0000
56.8800 274.0000 1.0000
56.8900 287.0000 1.0000
56.9000 270.0000 1.0000
56.9100 281.0000 1.0000
56.9200 298.0000 1.0000
56.9300 275.0000 1.0000
56.9400 253.0000 1.0000
56.9500 244.0000 1.0000
56.9600 285.0000 1.0000
56.9700 260.0000 1.0000
56.9800 275.0000 1.0000
56.9900 268.0000 1.0000
57.0000 259.0000 1.0000
57.0100 244.0000 1.0000
57.0200 280.0000 1.0000
57.0300 261.0000 1.0000
57.0400 281.0000 1.0000
57.0500 276.0000 1.0000
57.0600 286.0000 1.0000
57.0700 276.0000 1.0000
57.0800 286.0000 1.0000
57.0900 262.0000 1.0000
57.1000 259.0000 1.0000
57.1100 260.0000 1.0000
57.1200 256.0000 1.0000
57.1300 253.0000 1.0000
57.1400 270.0000 1.0000
57.1500 258.0000 1.0000
57.1600 275.0000 1.0000
57.1700 266.0000 1.0000
57.1800 271.0000 1.0000
57.1900 279.0000 1.0000
57.2000 283.0000 1.0000
57.2100 295.0000 1.0000
57.2200 263.0000 1.0000
57.2300 261.0000 1.0000
57.2400 260.0000 1.0000
57.2500 276.0000 1.0000
57.2600 265.0000 1.0000
57.2700 245.0000 1.0000
57.2800 262.0000 1.0000
57.2900 297.0000 1.0000
57.3000 294.0000 1.0000
57.3100 255.0000 1.0000
57.3200 286.0000 1.0000
57.3300 302.0000 1.0000
57.3400 260.0000 1.0000
57.3500 285.0000 1.0000
57.3600 276.0000 1.0000
57.3700 275.0000 1.0000
57.3800 263.0000 1.0000
57.3900 293.0000 1.0000
57.4000 278.0000 1.0000
57.4100 287.0000 1.0000
57.4200 292.0000 1.0000
57.4300 264.0000 1.0000
57.4400 257.0000 1.0000
57.4500 253.0000 1.0000
57.4600 298.0000 1.0000
57.4700 301.0000 1.0000
57.4800 261.0000 1.0000
57.4900 288.0000 1.0000
57.5000 256.0000 1.0000
57.5100 311.0000 1.0000
57.5200 296.0000 1.0000
57.5300 282.0000 1.0000
57.5400 268.0000 1.0000
57.5500 283.0000 1.0000
57.5600 266.0000 1.0000
57.5700 280.0000 1.0000
57.5800 276.0000 1.0000
57.5900 285.0000 1.0000
57.6000 286.0000 1.0000
57.6100 262.0000 1.0000
57.6200 252.0000 1.0000
57.6300 260.0000 1.0000
57.6400 273.0000 1.0000
57.6500 269.0000 1.0000
57.6600 284.0000 1.0000
57.6700 294.0000 1.0000
57.6800 283.0000 1.0000
57.6900 276.0000 1.0000
57.7000 245.0000 1.0000
57.7100 280.0000 1.0000
57.7200 289.0000 1.0000
57.7300 305.0000 1.0000
57.7400 292.0000 1.0000
57.7500 270.0000 1.0000
57.7600 259.0000 1.0000
57.7700 288.0000 1.0000
57.7800 292.0000 1.0000
57.7900 269.0000 1.0000
57.8000 273.0000 1.0000
57.8100 240.0000 1.0000
57.8200 287.0000 1.0000
57.8300 254.0000 1.0000
57.8400 269.0000 1.0000
57.8500 292.0000 1.0000
57.8600 257.0000 1.0000
57.8700 258.0000 1.0000
57.8800 230.0000 1.0000
57.8900 256.0000 1.0000
57.9000 266.0000 1.0000
57.9100 273.0000 1.0000
57.9200 260.0000 1.0000
57.9300 271.0000 1.0000
57.9400 255.0000 1.0000
57.9500 298.0000 1.0000
57.9600 268.0000 1.0000
57.9700 261.0000 1.0000
57.9800 285.0000 1.0000
57.9900 287.0000 1.0000
58.0000 264.0000 1.0000
58.0100 273.0000 1.0000
58.0200 259.0000 1.0000
58.0300 245.0000 1.0000
58.0400 262.0000 1.0000
58.0500 273.0000 1.0000
58.0600 271.0000 1.0000
58.0700 277.0000 1.0000
58.0800 297.0000 1.0000
58.0900 264.0000 1.0000
58.1000 236.0000 1.0000
58.1100 270.0000 1.0000
58.1200 270.0000 1.0000
58.1300 274.0000 1.0000
58.1400 248.0000 1.0000
58.1500 279.0000 1.0000
58.1600 257.0000 1.0000
58.1700 261.0000 1.0000
58.1800 254.0000 1.0000
58.1900 267.0000 1.0000
58.2000 256.0000 1.0000
58.2100 245.0000 1.0000
58.2200 264.0000 1.0000
58.2300 278.0000 1.0000
58.2400 276.0000 1.0000
58.2500 255.0000 1.0000
58.2600 255.0000 1.0000
58.2700 256.0000 1.0000
58.2800 263.0000 1.0000
58.2900 267.0000 1.0000
58.3000 252.0000 1.0000
58.3100 268.0000 1.0000
58.3200 243.0000 1.0000
58.3300 275.0000 1.0000
58.3400 274.0000 1.0000
58.3500 269.0000 1.0000
58.3600 301.0000 1.0000
58.3700 269.0000 1.0000
58.3800 259.0000 1.0000
58.3900 289.0000 1.0000
58.4000 298.0000 1.0000
58.4100 273.0000 1.0000
58.4200 283.0000 1.0000
58.4300 270.0000 1.0000
58.4400 271.0000 1.0000
58.4500 260.0000 1.0000
58.4600 272.0000 1.0000
58.4700 275.0000 1.0000
58.4800 281.0000 1.0000
58.4900 290.0000 1.0000
58.5000 289.0000 1.0000
58.5100 278.0000 1.0000
58.5200 258.0000 1.0000
58.5300 267.0000 1.0000
58.5400 265.0000 1.0000
58.5500 268.0000 1.0000
58.5600 260.0000 1.0000
58.5700 254.0000 1.0000
58.5800 265.0000 1.0000
58.5900 280.0000 1.0000
58.6000 265.0000 1.0000
58.6100 271.0000 1.0000
58.6200 272.0000 1.0000
58.6300 286.0000 1.0000
58.6400 268.0000 1.0000
58.6500 264.0000 1.0000
58.6600 271.0000 1.0000
58.6700 265.0000 1.0000
58.6800 286.0000 1.0000
58.6900 246.0000 1.0000
58.7000 291.0000 1.0000
58.7100 276.0000 1.0000
58.7200 240.0000 1.0000
58.7300 269.0000 1.0000
58.7400 267.0000 1.0000
58.7500 289.0000 1.0000
58.7600 253.0000 1.0000
58.7700 287.0000 1.0000
58.7800 272.0000 1.0000
58.7900 240.0000 1.0000
58.8000 258.0000 1.0000
58.8100 255.0000 1.0000
58.8200 261.0000 1.0000
58.8300 280.0000 1.0000
58.8400 278.0000 1.0000
58.8500 271.0000 1.0000
58.8600 268.0000 1.0000
58.8700 261.0000 1.0000
58.8800 247.0000 1.0000
58.8900 288.0000 1.0000
58.9000 269.0000 1.0000
58.9100 270.0000 1.0000
58.9200 264.0000 1.0000
58.9300 233.0000 1.0000
58.9400 269.0000 1.0000
58.9500 270.0000 1.0000
58.9600 268.0000 1.0000
58.9700 280.0000 1.0000
58.9800 273.0000 1.0000
58.9900 255.0000 1.0000
59.0000 249.0000 1.0000
59.0100 274.0000 1.0000
59.0200 267.0000 1.0000
59.0300 264.0000 1.0000
59.0400 280.0000 1.0000
59.0500 260.0000 1.0000
59.0600 270.0000 1.0000
59.0700 288.0000 1.0000
59.0800 260.0000 1.0000
59.0900 250.0000 1.0000
59.1000 249.0000 1.0000
59.1100 248.0000 1.0000
59.1200 299.0000 1.0000
59.1300 276.0000 1.0000
59.1400 267.0000 1.0000
59.1500 259.0000 1.0000
59.1600 274.0000 1.0000
59.1700 270.0000 1.0000
59.1800 254.0000 1.0000
59.1900 253.0000 1.0000
59.2000 265.0000 1.0000
59.2100 267.0000 1.0000
59.2200 277.0000 1.0000
59.2300 261.0000 1.0000
59.2400 287.0000 1.0000
59.2500 277.0000 1.0000
59.2600 262.0000 1.0000
59.2700 270.0000 1.0000
59.2800 258.0000 1.0000
59.2900 264.0000 1.0000
59.3000 256.0000 1.0000
59.3100 263.0000 1.0000
59.3200 258.0000 1.0000
59.3300 270.0000 1.0000
59.3400 261.0000 1.0000
59.3500 259.0000 1.0000
59.3600 271.0000 1.0000
59.3700 247.0000 1.0000
59.3800 246.0000 1.0000
59.3900 257.0000 1.0000
59.4000 275.0000 1.0000
59.4100 256.0000 1.0000
59.4200 257.0000 1.0000
59.4300 239.0000 1.0000
59.4400 245.0000 1.0000
59.4500 272.0000 1.0000
59.4600 274.0000 1.0000
59.4700 248.0000 1.0000
59.4800 257.0000 1.0000
59.4900 268.0000 1.0000
59.5000 256.0000 1.0000
59.5100 253.0000 1.0000
59.5200 271.0000 1.0000
59.5300 268.0000 1.0000
59.5400 264.0000 1.0000
59.5500 284.0000 1.0000
59.5600 241.0000 1.0000
59.5700 271.0000 1.0000
59.5800 282.0000 1.0000
59.5900 285.0000 1.0000
59.6000 276.0000 1.0000
59.6100 267.0000 1.0000
59.6200 263.0000 1.0000
59.6300 291.0000 1.0000
59.6400 259.0000 1.0000
59.6500 269.0000 1.0000
59.6600 276.0000 1.0000
59.6700 282.0000 1.0000
59.6800 281.0000 1.0000
59.6900 276.0000 1.0000
59.7000 264.0000 1.0000
59.7100 262.0000 1.0000
59.7200 271.0000 1.0000
59.7300 264.0000 1.0000
59.7400 240.0000 1.0000
59.7500 255.0000 1.0000
59.7600 264.0000 1.0000
59.7700 270.0000 1.0000
59.7800 262.0000 1.0000
59.7900 267.0000 1.0000
59.8000 262.0000 1.0000
59.8100 288.0000 1.0000
59.8200 283.0000 1.0000
59.8300 261.0000 1.0000
59.8400 269.0000 1.0000
59.8500 244.0000 1.0000
59.8600 255.0000 1.0000
59.8700 254.0000 1.0000
59.8800 265.0000 1.0000
59.8900 285.0000 1.0000
59.9000 279.0000 1.0000
59.9100 271.0000 1.0000
59.9200 282.0000 1.0000
59.9300 278.0000 1.0000
59.9400 255.0000 1.0000
59.9500 253.0000 1.0000
59.9600 261.0000 1.0000
59.9700 279.0000 1.0000
59.9800 308.0000 1.0000
59.9900 266.0000 1.0000
60.0000 269.0000 1.0000
60.0100 288.0000 1.0000
60.0200 273.0000 1.0000
60.0300 282.0000 1.0000
60.0400 273.0000 1.0000
60.0500 298.0000 1.0000
60.0600 272.0000 1.0000
60.0700 253.0000 1.0000
60.0800 243.0000 1.0000
60.0900 275.0000 1.0000
60.1000 257.0000 1.0000
60.1100 288.0000 1.0000
60.1200 286.0000 1.0000
60.1300 308.0000 1.0000
60.1400 274.0000 1.0000
60.1500 291.0000 1.0000
60.1600 237.0000 1.0000
60.1700 276.0000 1.0000
60.1800 278.0000 1.0000
60.1900 255.0000 1.0000
60.2000 247.0000 1.0000
60.2100 269.0000 1.0000
60.2200 271.0000 1.0000
60.2300 283.0000 1.0000
60.2400 291.0000 1.0000
60.2500 273.0000 1.0000
60.2600 271.0000 1.0000
60.2700 248.0000 1.0000
60.2800 261.0000 1.0000
60.2900 272.0000 1.0000
60.3000 284.0000 1.0000
60.3100 267.0000 1.0000
60.3200 271.0000 1.0000
60.3300 249.0000 1.0000
60.3400 258.0000 1.0000
60.3500 260.0000 1.0000
60.3600 256.0000 1.0000
60.3700 262.0000 1.0000
60.3800 274.0000 1.0000
60.3900 255.0000 1.0000
60.4000 259.0000 1.0000
60.4100 278.0000 1.0000
60.4200 273.0000 1.0000
60.4300 263.0000 1.0000
60.4400 280.0000 1.0000
60.4500 266.0000 1.0000
60.4600 281.0000 1.0000
60.4700 289.0000 1.0000
60.4800 236.0000 1.0000
60.4900 275.0000 1.0000
60.5000 286.0000 1.0000
60.5100 292.0000 1.0000
60.5200 250.0000 1.0000
60.5300 246.0000 1.0000
60.5400 262.0000 1.0000
60.5500 244.0000 1.0000
60.5600 303.0000 1.0000
60.5700 259.0000 1.0000
60.5800 260.0000 1.0000
60.5900 287.0000 1.0000
60.6000 279.0000 1.0000
60.6100 274.0000 1.0000
60.6200 264.0000 1.0000
60.6300 270.0000 1.0000
60.6400 265.0000 1.0000
60.6500 263.0000 1.0000
60.6600 256.0000 1.0000
60.6700 259.0000 1.0000
60.6800 254.0000 1.0000
60.6900 306.0000 1.0000
60.7000 276.0000 1.0000
60.7100 273.0000 1.0000
60.7200 284.0000 1.0000
60.7300 276.0000 1.0000
60.7400 280.0000 1.0000
60.7500 289.0000 1.0000
60.7600 254.0000 1.0000
60.7700 252.0000 1.0000
60.7800 250.0000 1.0000
60.7900 262.0000 1.0000
60.8000 261.0000 1.0000
60.8100 290.0000 1.0000
60.8200 305.0000 1.0000
60.8300 295.0000 1.0000
60.8400 264.0000 1.0000
60.8500 276.0000 1.0000
60.8600 275.0000 1.0000
60.8700 273.0000 1.0000
60.8800 277.0000 1.0000
60.8900 258.0000 1.0000
60.9000 273.0000 1.0000
60.9100 312.0000 1.0000
60.9200 287.0000 1.0000
60.9300 266.0000 1.0000
60.9400 279.0000 1.0000
60.9500 270.0000 1.0000
60.9600 277.0000 1.0000
60.9700 270.0000 1.0000
60.9800 299.0000 1.0000
60.9900 265.0000 1.0000
61.0000 289.0000 1.0000
61.0100 294.0000 1.0000
61.0200 259.0000 1.0000
61.0300 296.0000 1.0000
61.0400 303.0000 1.0000
61.0500 280.0000 1.0000
61.0600 283.0000 1.0000
61.0700 306.0000 1.0000
61.0800 268.0000 1.0000
61.0900 286.0000 1.0000
61.1000 287.0000 1.0000
61.1100 293.0000 1.0000
61.1200 284.0000 1.0000
61.1300 285.0000 1.0000
61.1400 316.0000 1.0000
61.1500 284.0000 1.0000
61.1600 290.0000 1.0000
61.1700 337.0000 1.0000
61.1800 326.0000 1.0000
61.1900 324.0000 1.0000
61.2000 267.0000 1.0000
61.2100 297.0000 1.0000
61.2200 330.0000 1.0000
61.2300 343.0000 1.0000
61.2400 304.0000 1.0000
61.2500 295.0000 1.0000
61.2600 298.0000 1.0000
61.2700 321.0000 1.0000
61.2800 350.0000 1.0000
61.2900 336.0000 1.0000
61.3000 381.0000 1.0000
61.3100 370.0000 1.0000
61.3200 385.0000 1.0000
61.3300 364.0000 1.0000
61.3400 383.0000 1.0000
61.3500 359.0000 1.0000
61.3600 404.0000 1.0000
61.3700 391.0000 1.0000
61.3800 437.0000 1.0000
61.3900 408.0000 1.0000
61.4000 400.0000 1.0000
61.4100 437.0000 1.0000
61.4200 455.0000 1.0000
61.4300 482.0000 1.0000
61.4400 450.0000 1.0000
61.4500 490.0000 1.0000
61.4600 486.0000 1.0000
61.4700 520.0000 1.0000
61.4800 504.0000 1.0000
61.4900 527.0000 1.0000
61.5000 552.0000 1.0000
61.5100 525.0000 1.0000
61.5200 594.0000 1.0000
61.5300 552.0000 1.0000
61.5400 584.0000 1.0000
61.5500 575.0000 1.0000
61.5600 552.0000 1.0000
61.5700 612.0000 1.0000
61.5800 601.0000 1.0000
61.5900 626.0000 1.0000
61.6000 571.0000 1.0000
61.6100 586.0000 1.0000
61.6200 558.0000 1.0000
61.6300 581.0000 1.0000
61.6400 558.0000 1.0000
61.6500 538.0000 1.0000
61.6600 584.0000 1.0000
61.6700 536.0000 1.0000
61.6800 532.0000 1.0000
61.6900 543.0000 1.0000
61.7000 522.0000 1.0000
61.7100 528.0000 1.0000
61.7200 545.0000 1.0000
61.7300 481.0000 1.0000
61.7400 504.0000 1.0000
61.7500 512.0000 1.0000
61.7600 490.0000 1.0000
61.7700 436.0000 1.0000
61.7800 433.0000 1.0000
61.7900 461.0000 1.0000
61.8000 439.0000 1.0000
61.8100 439.0000 1.0000
61.8200 441.0000 1.0000
61.8300 423.0000 1.0000
61.8400 437.0000 1.0000
61.8500 422.0000 1.0000
61.8600 421.0000 1.0000
61.8700 394.0000 1.0000
61.8800 417.0000 1.0000
61.8900 381.0000 1.0000
61.9000 379.0000 1.0000
61.9100 342.0000 1.0000
61.9200 372.0000 1.0000
61.9300 353.0000 1.0000
61.9400 372.0000 1.0000
61.9500 348.0000 1.0000
61.9600 335.0000 1.0000
61.9700 360.0000 1.0000
61.9800 324.0000 1.0000
61.9900 308.0000 1.0000
62.0000 323.0000 1.0000
62.0100 326.0000 1.0000
62.0200 306.0000 1.0000
62.0300 282.0000 1.0000
62.0400 317.0000 1.0000
62.0500 318.0000 1.0000
62.0600 286.0000 1.0000
62.0700 289.0000 1.0000
62.0800 308.0000 1.0000
62.0900 302.0000 1.0000
62.1000 293.0000 1.0000
62.1100 304.0000 1.0000
62.1200 297.0000 1.0000
62.1300 294.0000 1.0000
62.1400 295.0000 1.0000
62.1500 319.0000 1.0000
62.1600 306.0000 1.0000
62.1700 289.0000 1.0000
62.1800 276.0000 1.0000
62.1900 289.0000 1.0000
62.2000 267.0000 1.0000
62.2100 296.0000 1.0000
62.2200 292.0000 1.0000
62.2300 293.0000 1.0000
62.2400 296.0000 1.0000
62.2500 318.0000 1.0000
62.2600 288.0000 1.0000
62.2700 299.0000 1.0000
62.2800 283.0000 1.0000
62.2900 298.0000 1.0000
62.3000 296.0000 1.0000
62.3100 300.0000 1.0000
62.3200 304.0000 1.0000
62.3300 323.0000 1.0000
62.3400 305.0000 1.0000
62.3500 326.0000 1.0000
62.3600 292.0000 1.0000
62.3700 336.0000 1.0000
62.3800 321.0000 1.0000
62.3900 301.0000 1.0000
62.4000 314.0000 1.0000
62.4100 332.0000 1.0000
62.4200 305.0000 1.0000
62.4300 314.0000 1.0000
62.4400 283.0000 1.0000
62.4500 269.0000 1.0000
62.4600 297.0000 1.0000
62.4700 288.0000 1.0000
62.4800 309.0000 1.0000
62.4900 268.0000 1.0000
62.5000 300.0000 1.0000
62.5100 297.0000 1.0000
62.5200 265.0000 1.0000
62.5300 273.0000 1.0000
62.5400 269.0000 1.0000
62.5500 294.0000 1.0000
62.5600 284.0000 1.0000
62.5700 290.0000 1.0000
62.5800 271.0000 1.0000
62.5900 268.0000 1.0000
62.6000 272.0000 1.0000
62.6100 309.0000 1.0000
62.6200 281.0000 1.0000
62.6300 293.0000 1.0000
62.6400 296.0000 1.0000
62.6500 298.0000 1.0000
62.6600 262.0000 1.0000
62.6700 306.0000 1.0000
62.6800 271.0000 1.0000
62.6900 280.0000 1.0000
62.7000 256.0000 1.0000
62.7100 252.0000 1.0000
62.7200 260.0000 1.0000
62.7300 274.0000 1.0000
62.7400 276.0000 1.0000
62.7500 302.0000 1.0000
62.7600 259.0000 1.0000
62.7700 274.0000 1.0000
62.7800 286.0000 1.0000
62.7900 250.0000 1.0000
62.8000 291.0000 1.0000
62.8100 283.0000 1.0000
62.8200 299.0000 1.0000
62.8300 256.0000 1.0000
62.8400 260.0000 1.0000
62.8500 252.0000 1.0000
62.8600 280.0000 1.0000
62.8700 265.0000 1.0000
62.8800 285.0000 1.0000
62.8900 258.0000 1.0000
62.9000 252.0000 1.0000
62.9100 282.0000 1.0000
62.9200 280.0000 1.0000
62.9300 254.0000 1.0000
62.9400 260.0000 1.0000
62.9500 256.0000 1.0000
62.9600 268.0000 1.0000
62.9700 277.0000 1.0000
62.9800 279.0000 1.0000
62.9900 246.0000 1.0000
63.0000 271.0000 1.0000
63.0100 257.0000 1.0000
63.0200 294.0000 1.0000
63.0300 287.0000 1.0000
63.0400 259.0000 1.0000
63.0500 259.0000 1.0000
63.0600 244.0000 1.0000
63.0700 259.0000 1.0000
63.0800 275.0000 1.0000
63.0900 254.0000 1.0000
63.1000 263.0000 1.0000
63.1100 309.0000 1.0000
63.1200 291.0000 1.0000
63.1300 262.0000 1.0000
63.1400 243.0000 1.0000
63.1500 265.0000 1.0000
63.1600 282.0000 1.0000
63.1700 289.0000 1.0000
63.1800 258.0000 1.0000
63.1900 259.0000 1.0000
63.2000 258.0000 1.0000
63.2100 257.0000 1.0000
63.2200 285.0000 1.0000
63.2300 269.0000 1.0000
63.2400 281.0000 1.0000
63.2500 277.0000 1.0000
63.2600 297.0000 1.0000
63.2700 277.0000 1.0000
63.2800 285.0000 1.0000
63.2900 275.0000 1.0000
63.3000 272.0000 1.0000
63.3100 289.0000 1.0000
63.3200 262.0000 1.0000
63.3300 262.0000 1.0000
63.3400 267.0000 1.0000
63.3500 244.0000 1.0000
63.3600 265.0000 1.0000
63.3700 286.0000 1.0000
63.3800 267.0000 1.0000
63.3900 273.0000 1.0000
63.4000 278.0000 1.0000
63.4100 270.0000 1.0000
63.4200 275.0000 1.0000
63.4300 275.0000 1.0000
63.4400 298.0000 1.0000
63.4500 272.0000 1.0000
63.4600 250.0000 1.0000
63.4700 269.0000 1.0000
63.4800 258.0000 1.0000
63.4900 258.0000 1.0000
63.5000 270.0000 1.0000
63.5100 287.0000 1.0000
63.5200 289.0000 1.0000
63.5300 266.0000 1.0000
63.5400 267.0000 1.0000
63.5500 255.0000 1.0000
63.5600 239.0000 1.0000
63.5700 267.0000 1.0000
63.5800 286.0000 1.0000
63.5900 294.0000 1.0000
63.6000 276.0000 1.0000
63.6100 273.0000 1.0000
63.6200 286.0000 1.0000
63.6300 282.0000 1.0000
63.6400 276.0000 1.0000
63.6500 285.0000 1.0000
63.6600 267.0000 1.0000
63.6700 280.0000 1.0000
63.6800 272.0000 1.0000
63.6900 253.0000 1.0000
63.7000 282.0000 1.0000
63.7100 285.0000 1.0000
63.7200 280.0000 1.0000
63.7300 292.0000 1.0000
63.7400 273.0000 1.0000
63.7500 274.0000 1.0000
63.7600 279.0000 1.0000
63.7700 311.0000 1.0000
63.7800 297.0000 1.0000
63.7900 300.0000 1.0000
63.8000 306.0000 1.0000
63.8100 306.0000 1.0000
63.8200 315.0000 1.0000
63.8300 312.0000 1.0000
63.8400 316.0000 1.0000
63.8500 310.0000 1.0000
63.8600 346.0000 1.0000
63.8700 341.0000 1.0000
63.8800 360.0000 1.0000
63.8900 353.0000 1.0000
63.9000 357.0000 1.0000
63.9100 402.0000 1.0000
63.9200 408.0000 1.0000
63.9300 420.0000 1.0000
63.9400 414.0000 1.0000
63.9500 436.0000 1.0000
63.9600 411.0000 1.0000
63.9700 445.0000 1.0000
63.9800 443.0000 1.0000
63.9900 417.0000 1.0000
64.0000 429.0000 1.0000
64.0100 388.0000 1.0000
64.0200 404.0000 1.0000
64.0300 394.0000 1.0000
64.0400 384.0000 1.0000
64.0500 378.0000 1.0000
64.0600 369.0000 1.0000
64.0700 368.0000 1.0000
64.0800 387.0000 1.0000
64.0900 386.0000 1.0000
64.1000 382.0000 1.0000
64.1100 358.0000 1.0000
64.1200 360.0000 1.0000
64.1300 355.0000 1.0000
64.1400 378.0000 1.0000
64.1500 364.0000 1.0000
64.1600 362.0000 1.0000
64.1700 345.0000 1.0000
64.1800 351.0000 1.0000
64.1900 332.0000 1.0000
64.2000 368.0000 1.0000
64.2100 306.0000 1.0000
64.2200 293.0000 1.0000
64.2300 336.0000 1.0000
64.2400 318.0000 1.0000
64.2500 324.0000 1.0000
64.2600 306.0000 1.0000
64.2700 297.0000 1.0000
64.2800 310.0000 1.0000
64.2900 314.0000 1.0000
64.3000 285.0000 1.0000
64.3100 288.0000 1.0000
64.3200 296.0000 1.0000
64.3300 310.0000 1.0000
64.3400 303.0000 1.0000
64.3500 269.0000 1.0000
64.3600 285.0000 1.0000
64.3700 318.0000 1.0000
64.3800 284.0000 1.0000
64.3900 275.0000 1.0000
64.4000 273.0000 1.0000
64.4100 261.0000 1.0000
64.4200 271.0000 1.0000
64.4300 275.0000 1.0000
64.4400 292.0000 1.0000
64.4500 248.0000 1.0000
64.4600 262.0000 1.0000
64.4700 254.0000 1.0000
64.4800 274.0000 1.0000
64.4900 275.0000 1.0000
64.5000 287.0000 1.0000
64.5100 300.0000 1.0000
64.5200 268.0000 1.0000
64.5300 280.0000 1.0000
64.5400 278.0000 1.0000
64.5500 309.0000 1.0000
64.5600 283.0000 1.0000
64.5700 267.0000 1.0000
64.5800 232.0000 1.0000
64.5900 264.0000 1.0000
64.6000 277.0000 1.0000
64.6100 267.0000 1.0000
64.6200 268.0000 1.0000
64.6300 259.0000 1.0000
64.6400 266.0000 1.0000
64.6500 290.0000 1.0000
64.6600 299.0000 1.0000
64.6700 242.0000 1.0000
64.6800 257.0000 1.0000
64.6900 288.0000 1.0000
64.7000 294.0000 1.0000
64.7100 290.0000 1.0000
64.7200 269.0000 1.0000
64.7300 286.0000 1.0000
64.7400 233.0000 1.0000
64.7500 301.0000 1.0000
64.7600 297.0000 1.0000
64.7700 292.0000 1.0000
64.7800 290.0000 1.0000
64.7900 282.0000 1.0000
64.8000 288.0000 1.0000
64.8100 276.0000 1.0000
64.8200 316.0000 1.0000
64.8300 278.0000 1.0000
64.8400 287.0000 1.0000
64.8500 297.0000 1.0000
64.8600 316.0000 1.0000
64.8700 306.0000 1.0000
64.8800 293.0000 1.0000
64.8900 302.0000 1.0000
64.9000 292.0000 1.0000
64.9100 307.0000 1.0000
64.9200 296.0000 1.0000
64.9300 299.0000 1.0000
64.9400 277.0000 1.0000
64.9500 291.0000 1.0000
64.9600 316.0000 1.0000
64.9700 296.0000 1.0000
64.9800 300.0000 1.0000
64.9900 318.0000 1.0000
65.0000 287.0000 1.0000
65.0100 297.0000 1.0000
65.0200 288.0000 1.0000
65.0300 302.0000 1.0000
65.0400 286.0000 1.0000
65.0500 321.0000 1.0000
65.0600 295.0000 1.0000
65.0700 268.0000 1.0000
65.0800 302.0000 1.0000
65.0900 298.0000 1.0000
65.1000 306.0000 1.0000
65.1100 309.0000 1.0000
65.1200 318.0000 1.0000
65.1300 289.0000 1.0000
65.1400 314.0000 1.0000
65.1500 304.0000 1.0000
65.1600 323.0000 1.0000
65.1700 320.0000 1.0000
65.1800 315.0000 1.0000
65.1900 341.0000 1.0000
65.2000 345.0000 1.0000
65.2100 345.0000 1.0000
65.2200 339.0000 1.0000
65.2300 364.0000 1.0000
65.2400 362.0000 1.0000
65.2500 379.0000 1.0000
65.2600 364.0000 1.0000
65.2700 389.0000 1.0000
65.2800 395.0000 1.0000
65.2900 407.0000 1.0000
65.3000 410.0000 1.0000
65.3100 417.0000 1.0000
65.3200 444.0000 1.0000
65.3300 445.0000 1.0000
65.3400 439.0000 1.0000
65.3500 455.0000 1.0000
65.3600 522.0000 1.0000
65.3700 512.0000 1.0000
65.3800 521.0000 1.0000
65.3900 536.0000 1.0000
65.4000 594.0000 1.0000
65.4100 582.0000 1.0000
65.4200 640.0000 1.0000
65.4300 644.0000 1.0000
65.4400 709.0000 1.0000
65.4500 740.0000 1.0000
65.4600 759.0000 1.0000
65.4700 744.0000 1.0000
65.4800 832.0000 1.0000
65.4900 845.0000 1.0000
65.5000 882.0000 1.0000
65.5100 874.0000 1.0000
65.5200 891.0000 1.0000
65.5300 974.0000 1.0000
65.5400 965.0000 1.0000
65.5500 972.0000 1.0000
65.5600 1015.0000 1.0000
65.5700 1010.0000 1.0000
65.5800 1018.0000 1.0000
65.5900 991.0000 1.0000
65.6000 974.0000 1.0000
65.6100 919.0000 1.0000
65.6200 943.0000 1.0000
65.6300 919.0000 1.0000
65.6400 911.0000 1.0000
65.6500 869.0000 1.0000
65.6600 870.0000 1.0000
65.6700 795.0000 1.0000
65.6800 878.0000 1.0000
65.6900 790.0000 1.0000
65.7000 834.0000 1.0000
65.7100 792.0000 1.0000
65.7200 817.0000 1.0000
65.7300 834.0000 1.0000
65.7400 772.0000 1.0000
65.7500 782.0000 1.0000
65.7600 739.0000 1.0000
65.7700 744.0000 1.0000
65.7800 673.0000 1.0000
65.7900 651.0000 1.0000
65.8000 675.0000 1.0000
65.8100 644.0000 1.0000
65.8200 612.0000 1.0000
65.8300 565.0000 1.0000
65.8400 560.0000 1.0000
65.8500 543.0000 1.0000
65.8600 500.0000 1.0000
65.8700 469.0000 1.0000
65.8800 446.0000 1.0000
65.8900 454.0000 1.0000
65.9000 429.0000 1.0000
65.9100 416.0000 1.0000
65.9200 419.0000 1.0000
65.9300 454.0000 1.0000
65.9400 422.0000 1.0000
65.9500 424.0000 1.0000
65.9600 400.0000 1.0000
65.9700 367.0000 1.0000
65.9800 353.0000 1.0000
65.9900 344.0000 1.0000
66.0000 341.0000 1.0000
66.0100 354.0000 1.0000
66.0200 328.0000 1.0000
66.0300 331.0000 1.0000
66.0400 347.0000 1.0000
66.0500 307.0000 1.0000
66.0600 319.0000 1.0000
66.0700 324.0000 1.0000
66.0800 304.0000 1.0000
66.0900 308.0000 1.0000
66.1000 303.0000 1.0000
66.1100 268.0000 1.0000
66.1200 305.0000 1.0000
66.1300 337.0000 1.0000
66.1400 315.0000 1.0000
66.1500 296.0000 1.0000
66.1600 295.0000 1.0000
66.1700 289.0000 1.0000
66.1800 293.0000 1.0000
66.1900 310.0000 1.0000
66.2000 283.0000 1.0000
66.2100 291.0000 1.0000
66.2200 289.0000 1.0000
66.2300 262.0000 1.0000
66.2400 292.0000 1.0000
66.2500 294.0000 1.0000
66.2600 268.0000 1.0000
66.2700 305.0000 1.0000
66.2800 277.0000 1.0000
66.2900 266.0000 1.0000
66.3000 301.0000 1.0000
66.3100 294.0000 1.0000
66.3200 271.0000 1.0000
66.3300 267.0000 1.0000
66.3400 247.0000 1.0000
66.3500 263.0000 1.0000
66.3600 310.0000 1.0000
66.3700 274.0000 1.0000
66.3800 271.0000 1.0000
66.3900 298.0000 1.0000
66.4000 283.0000 1.0000
66.4100 292.0000 1.0000
66.4200 269.0000 1.0000
66.4300 281.0000 1.0000
66.4400 283.0000 1.0000
66.4500 260.0000 1.0000
66.4600 252.0000 1.0000
66.4700 258.0000 1.0000
66.4800 251.0000 1.0000
66.4900 249.0000 1.0000
66.5000 276.0000 1.0000
66.5100 281.0000 1.0000
66.5200 238.0000 1.0000
66.5300 245.0000 1.0000
66.5400 256.0000 1.0000
66.5500 270.0000 1.0000
66.5600 294.0000 1.0000
66.5700 226.0000 1.0000
66.5800 272.0000 1.0000
66.5900 257.0000 1.0000
66.6000 274.0000 1.0000
66.6100 242.0000 1.0000
66.6200 237.0000 1.0000
66.6300 259.0000 1.0000
66.6400 250.0000 1.0000
66.6500 276.0000 1.0000
66.6600 258.0000 1.0000
66.6700 246.0000 1.0000
66.6800 255.0000 1.0000
66.6900 242.0000 1.0000
66.7000 243.0000 1.0000
66.7100 252.0000 1.0000
66.7200 228.0000 1.0000
66.7300 237.0000 1.0000
66.7400 255.0000 1.0000
66.7500 251.0000 1.0000
66.7600 252.0000 1.0000
66.7700 233.0000 1.0000
66.7800 273.0000 1.0000
66.7900 247.0000 1.0000
66.8000 274.0000 1.0000
66.8100 276.0000 1.0000
66.8200 247.0000 1.0000
66.8300 247.0000 1.0000
66.8400 238.0000 1.0000
66.8500 252.0000 1.0000
66.8600 239.0000 1.0000
66.8700 234.0000 1.0000
66.8800 266.0000 1.0000
66.8900 253.0000 1.0000
66.9000 263.0000 1.0000
66.9100 241.0000 1.0000
66.9200 229.0000 1.0000
66.9300 285.0000 1.0000
66.9400 281.0000 1.0000
66.9500 226.0000 1.0000
66.9600 240.0000 1.0000
66.9700 270.0000 1.0000
66.9800 241.0000 1.0000
66.9900 256.0000 1.0000
67.0000 247.0000 1.0000
67.0100 250.0000 1.0000
67.0200 247.0000 1.0000
67.0300 239.0000 1.0000
67.0400 239.0000 1.0000
67.0500 243.0000 1.0000
67.0600 245.0000 1.0000
67.0700 240.0000 1.0000
67.0800 252.0000 1.0000
67.0900 243.0000 1.0000
67.1000 250.0000 1.0000
67.1100 260.0000 1.0000
67.1200 254.0000 1.0000
67.1300 241.0000 1.0000
67.1400 248.0000 1.0000
67.1500 247.0000 1.0000
67.1600 236.0000 1.0000
67.1700 248.0000 1.0000
67.1800 277.0000 1.0000
67.1900 287.0000 1.0000
67.2000 234.0000 1.0000
67.2100 225.0000 1.0000
67.2200 274.0000 1.0000
67.2300 268.0000 1.0000
67.2400 258.0000 1.0000
67.2500 268.0000 1.0000
67.2600 245.0000 1.0000
67.2700 247.0000 1.0000
67.2800 271.0000 1.0000
67.2900 246.0000 1.0000
67.3000 238.0000 1.0000
67.3100 262.0000 1.0000
67.3200 237.0000 1.0000
67.3300 227.0000 1.0000
67.3400 250.0000 1.0000
67.3500 249.0000 1.0000
67.3600 223.0000 1.0000
67.3700 244.0000 1.0000
67.3800 220.0000 1.0000
67.3900 251.0000 1.0000
67.4000 231.0000 1.0000
67.4100 238.0000 1.0000
67.4200 252.0000 1.0000
67.4300 237.0000 1.0000
67.4400 238.0000 1.0000
67.4500 246.0000 1.0000
67.4600 280.0000 1.0000
67.4700 249.0000 1.0000
67.4800 217.0000 1.0000
67.4900 248.0000 1.0000
67.5000 246.0000 1.0000
67.5100 247.0000 1.0000
67.5200 245.0000 1.0000
67.5300 221.0000 1.0000
67.5400 238.0000 1.0000
67.5500 237.0000 1.0000
67.5600 249.0000 1.0000
67.5700 256.0000 1.0000
67.5800 278.0000 1.0000
67.5900 238.0000 1.0000
67.6000 240.0000 1.0000
67.6100 241.0000 1.0000
67.6200 220.0000 1.0000
67.6300 228.0000 1.0000
67.6400 226.0000 1.0000
67.6500 222.0000 1.0000
67.6600 243.0000 1.0000
67.6700 263.0000 1.0000
67.6800 256.0000 1.0000
67.6900 237.0000 1.0000
67.7000 263.0000 1.0000
67.7100 241.0000 1.0000
67.7200 229.0000 1.0000
67.7300 234.0000 1.0000
67.7400 240.0000 1.0000
67.7500 244.0000 1.0000
67.7600 250.0000 1.0000
67.7700 257.0000 1.0000
67.7800 242.0000 1.0000
67.7900 257.0000 1.0000
67.8000 245.0000 1.0000
67.8100 226.0000 1.0000
67.8200 245.0000 1.0000
67.8300 251.0000 1.0000
67.8400 249.0000 1.0000
67.8500 243.0000 1.0000
67.8600 242.0000 1.0000
67.8700 241.0000 1.0000
67.8800 227.0000 1.0000
67.8900 234.0000 1.0000
67.9000 233.0000 1.0000
67.9100 235.0000 1.0000
67.9200 228.0000 1.0000
67.9300 255.0000 1.0000
67.9400 276.0000 1.0000
67.9500 248.0000 1.0000
67.9600 208.0000 1.0000
67.9700 228.0000 1.0000
67.9800 243.0000 1.0000
67.9900 237.0000 1.0000
68.0000 273.0000 1.0000
68.0100 270.0000 1.0000
68.0200 259.0000 1.0000
68.0300 228.0000 1.0000
68.0400 220.0000 1.0000
68.0500 230.0000 1.0000
68.0600 217.0000 1.0000
68.0700 224.0000 1.0000
68.0800 247.0000 1.0000
68.0900 242.0000 1.0000
68.1000 223.0000 1.0000
68.1100 240.0000 1.0000
68.1200 236.0000 1.0000
68.1300 236.0000 1.0000
68.1400 260.0000 1.0000
68.1500 252.0000 1.0000
68.1600 251.0000 1.0000
68.1700 253.0000 1.0000
68.1800 218.0000 1.0000
68.1900 262.0000 1.0000
68.2000 241.0000 1.0000
68.2100 248.0000 1.0000
68.2200 216.0000 1.0000
68.2300 225.0000 1.0000
68.2400 241.0000 1.0000
68.2500 210.0000 1.0000
68.2600 236.0000 1.0000
68.2700 224.0000 1.0000
68.2800 248.0000 1.0000
68.2900 228.0000 1.0000
68.3000 224.0000 1.0000
68.3100 246.0000 1.0000
68.3200 223.0000 1.0000
68.3300 210.0000 1.0000
68.3400 241.0000 1.0000
68.3500 235.0000 1.0000
68.3600 235.0000 1.0000
68.3700 230.0000 1.0000
68.3800 230.0000 1.0000
68.3900 228.0000 1.0000
68.4000 224.0000 1.0000
68.4100 253.0000 1.0000
68.4200 242.0000 1.0000
68.4300 240.0000 1.0000
68.4400 240.0000 1.0000
68.4500 239.0000 1.0000
68.4600 231.0000 1.0000
68.4700 231.0000 1.0000
68.4800 248.0000 1.0000
68.4900 254.0000 1.0000
68.5000 238.0000 1.0000
68.5100 231.0000 1.0000
68.5200 231.0000 1.0000
68.5300 242.0000 1.0000
68.5400 238.0000 1.0000
68.5500 254.0000 1.0000
68.5600 232.0000 1.0000
68.5700 247.0000 1.0000
68.5800 248.0000 1.0000
68.5900 234.0000 1.0000
68.6000 208.0000 1.0000
68.6100 239.0000 1.0000
68.6200 248.0000 1.0000
68.6300 224.0000 1.0000
68.6400 216.0000 1.0000
68.6500 223.0000 1.0000
68.6600 243.0000 1.0000
68.6700 252.0000 1.0000
68.6800 224.0000 1.0000
68.6900 231.0000 1.0000
68.7000 245.0000 1.0000
68.7100 240.0000 1.0000
68.7200 238.0000 1.0000
68.7300 239.0000 1.0000
68.7400 231.0000 1.0000
68.7500 249.0000 1.0000
68.7600 247.0000 1.0000
68.7700 239.0000 1.0000
68.7800 236.0000 1.0000
68.7900 228.0000 1.0000
68.8000 259.0000 1.0000
68.8100 221.0000 1.0000
68.8200 218.0000 1.0000
68.8300 234.0000 1.0000
68.8400 240.0000 1.0000
68.8500 242.0000 1.0000
68.8600 216.0000 1.0000
68.8700 244.0000 1.0000
68.8800 232.0000 1.0000
68.8900 230.0000 1.0000
68.9000 221.0000 1.0000
68.9100 229.0000 1.0000
68.9200 241.0000 1.0000
68.9300 250.0000 1.0000
68.9400 243.0000 1.0000
68.9500 240.0000 1.0000
68.9600 241.0000 1.0000
68.9700 243.0000 1.0000
68.9800 252.0000 1.0000
68.9900 242.0000 1.0000
69.0000 215.0000 1.0000
69.0100 214.0000 1.0000
69.0200 241.0000 1.0000
69.0300 225.0000 1.0000
69.0400 253.0000 1.0000
69.0500 258.0000 1.0000
69.0600 265.0000 1.0000
69.0700 252.0000 1.0000
69.0800 252.0000 1.0000
69.0900 259.0000 1.0000
69.1000 238.0000 1.0000
69.1100 239.0000 1.0000
69.1200 236.0000 1.0000
69.1300 214.0000 1.0000
69.1400 220.0000 1.0000
69.1500 240.0000 1.0000
69.1600 237.0000 1.0000
69.1700 214.0000 1.0000
69.1800 224.0000 1.0000
69.1900 240.0000 1.0000
69.2000 253.0000 1.0000
69.2100 230.0000 1.0000
69.2200 226.0000 1.0000
69.2300 244.0000 1.0000
69.2400 235.0000 1.0000
69.2500 225.0000 1.0000
69.2600 233.0000 1.0000
69.2700 229.0000 1.0000
69.2800 254.0000 1.0000
69.2900 242.0000 1.0000
69.3000 222.0000 1.0000
69.3100 224.0000 1.0000
69.3200 232.0000 1.0000
69.3300 232.0000 1.0000
69.3400 212.0000 1.0000
69.3500 258.0000 1.0000
69.3600 224.0000 1.0000
69.3700 214.0000 1.0000
69.3800 236.0000 1.0000
69.3900 240.0000 1.0000
69.4000 242.0000 1.0000
69.4100 217.0000 1.0000
69.4200 240.0000 1.0000
69.4300 235.0000 1.0000
69.4400 238.0000 1.0000
69.4500 232.0000 1.0000
69.4600 255.0000 1.0000
69.4700 222.0000 1.0000
69.4800 238.0000 1.0000
69.4900 246.0000 1.0000
69.5000 244.0000 1.0000
69.5100 232.0000 1.0000
69.5200 247.0000 1.0000
69.5300 223.0000 1.0000
69.5400 206.0000 1.0000
69.5500 226.0000 1.0000
69.5600 222.0000 1.0000
69.5700 243.0000 1.0000
69.5800 235.0000 1.0000
69.5900 238.0000 1.0000
69.6000 214.0000 1.0000
69.6100 244.0000 1.0000
69.6200 208.0000 1.0000
69.6300 240.0000 1.0000
69.6400 240.0000 1.0000
69.6500 245.0000 1.0000
69.6600 238.0000 1.0000
69.6700 224.0000 1.0000
69.6800 217.0000 1.0000
69.6900 240.0000 1.0000
69.7000 263.0000 1.0000
69.7100 200.0000 1.0000
69.7200 222.0000 1.0000
69.7300 224.0000 1.0000
69.7400 218.0000 1.0000
69.7500 224.0000 1.0000
69.7600 216.0000 1.0000
69.7700 229.0000 1.0000
69.7800 211.0000 1.0000
69.7900 221.0000 1.0000
69.8000 211.0000 1.0000
69.8100 226.0000 1.0000
69.8200 235.0000 1.0000
69.8300 226.0000 1.0000
69.8400 226.0000 1.0000
69.8500 218.0000 1.0000
69.8600 225.0000 1.0000
69.8700 236.0000 1.0000
69.8800 232.0000 1.0000
69.8900 212.0000 1.0000
69.9000 207.0000 1.0000
69.9100 230.0000 1.0000
69.9200 246.0000 1.0000
69.9300 228.0000 1.0000
69.9400 222.0000 1.0000
69.9500 227.0000 1.0000
69.9600 224.0000 1.0000
69.9700 222.0000 1.0000
69.9800 210.0000 1.0000
69.9900 247.0000 1.0000
70.0000 233.0000 1.0000
*RAS_INT_END
*RAS_TEMPERATURE_START
*RAS_TEMPERATURE_END
*RAS_DATA_END
