*RAS_DATA_START
*RAS_HEADER_START
*DISP_FMT_X "%.2f"
*DISP_FMT_Y "%.0f"
*DISP_FULLSCALE "14850.0000000000"
*DISP_LINE_COLOR "255.0000000000"
*DISP_LINE_STYLE "0.0000000000"
*DISP_LINE_WIDTH "0.2500000000"
*DISP_NOTE "測定データ-6"
*DISP_OFFSET_Y "0.0000000000"
*DISP_PEAKSEARCH_UNIT_Y "cps"
*DISP_RANGE_BOTTOM "0.0000000000"
*DISP_RANGE_LEFT "20.0000000000"
*DISP_RANGE_LOGCUTOFF "0.0100000000"
*DISP_RANGE_RIGHT "70.0000000000"
*DISP_RANGE_TOP "14850.0000000000"
*DISP_SCALE_MODE_Y "0.0000000000"
*DISP_TAB_NAME "2θ/θ"
*DISP_TITLE_Y "強度"
*DISP_UNIT_Y "cps"
*DISP_WINDOW_NAME "MSG_MACROENGINE"
*FILE_COMMENT " "
*FILE_MD5 ""
*FILE_MEMO " "
*FILE_OPERATOR "Administrator"
*FILE_SAMPLE " "
*FILE_TYPE "RAS_RAW"
*FILE_USERGROUP "システムマネージャ"
*FILE_VERSION "1.0000000000"
*HW_ATTACHMENT_ID "ATT0025"
*HW_ATTACHMENT_NAME "標準|Standard"
*HW_COUNTER_ID-0 "CUT0025"
*HW_COUNTER_ID-1 "CUT0020"
*HW_COUNTER_ID-2 "CUT0020"
*HW_COUNTER_ID-3 "CSL0021"
*HW_COUNTER_ID-4 "CMC0021"
*HW_COUNTER_NAME-0 "D/teX Ultra|D/teX Ultra"
*HW_COUNTER_NAME-1 "None|None"
*HW_COUNTER_NAME-2 "None|None"
*HW_COUNTER_NAME-3 "BBM|BBM"
*HW_COUNTER_NAME-4 "検出器モノクロメータ|Detector monochromator"
*HW_COUNTER_SELECT_NAME "D/teX Ultra|D/teX Ultra"
*HW_GONIOMETER_ID "GON0023"
*HW_GONIOMETER_NAME "SmartLab|SmartLab"
*HW_GONIOMETER_RADIUS-0 "90.0"
*HW_GONIOMETER_RADIUS-1 "114.0"
*HW_GONIOMETER_RADIUS-2 "190.0"
*HW_GONIOMETER_RADIUS-3 "300.0"
*HW_GONIOMETER_RADIUS-4 "187.0"
*HW_GONIOMETER_RADIUS-5 "300.0"
*HW_GONIOMETER_RADIUS-6 "113.0"
*HW_GONIOMETER_RADIUS-7 "331.0"
*HW_I_OPT_ID-0 "CBO0021"
*HW_I_OPT_ID-1 "ICR0023"
*HW_I_OPT_ID-2 "ISL0021"
*HW_I_OPT_ID-3 "ISO0021"
*HW_I_OPT_ID-4 "IAD0021"
*HW_I_OPT_ID-5 "IPR0001"
*HW_I_OPT_NAME-0 "CBOユニット|CBO unit"
*HW_I_OPT_NAME-1 "標準入射光学ユニット|Standard incident optical unit"
*HW_I_OPT_NAME-2 "標準入射スリットボックス|Standard incident slit box"
*HW_I_OPT_NAME-3 "入射平行スリット|Incident parallel slit"
*HW_I_OPT_NAME-4 "長手制限スリット|Length limiting slit"
*HW_I_OPT_NAME-5 "None|None"
*HW_R_ATTENUATER_AUTOMODE "0"
*HW_R_OPT_ID-0 "RSS0021"
*HW_R_OPT_ID-1 "RCR0023"
*HW_R_OPT_ID-2 "RSO0021"
*HW_R_OPT_ID-3 "RRS0021"
*HW_R_OPT_ID-4 "ATN0021"
*HW_R_OPT_ID-5 "RFL0021"
*HW_R_OPT_ID-6 "RAD0021"
*HW_R_OPT_NAME-0 "標準受光スリットボックス1|Standard receiving slit box # 1"
*HW_R_OPT_NAME-1 "標準受光光学ユニット1|Standard receiving unit # 1"
*HW_R_OPT_NAME-2 "標準受光光学ユニット2|Standard receiving optical unit # 2"
*HW_R_OPT_NAME-3 "標準受光スリットボックス2|Standard receiving slit box # 2"
*HW_R_OPT_NAME-4 "標準アッテネータ|Standard Attenuator"
*HW_R_OPT_NAME-5 "Cu Kβ|Cu K-beta"
*HW_R_OPT_NAME-6 "調整用受光スリット|Alignment receiving slit"
*HW_SAMPLE_HOLDER_ID "SMP0023"
*HW_SAMPLE_HOLDER_NAME "標準Zステージ|Standard Z stage"
*HW_XG_CURRENT_MAX "50"
*HW_XG_CURRENT_MIN "2"
*HW_XG_CURRENT_RESOLUTION "1"
*HW_XG_CURRENT_UNIT "mA"
*HW_XG_FOCUS "1mm x 10mm"
*HW_XG_FOCUS_TYPE "Normal"
*HW_XG_ID ""
*HW_XG_NAME "3kW 封入管(ID:1200)|3kW Sealed tube(ID:1200)"
*HW_XG_TARGET_ATOMIC_NUMBER "29.0000000000"
*HW_XG_TARGET_NAME "Cu"
*HW_XG_TYPE "Hermetic"
*HW_XG_VOLTAGE_MAX "60"
*HW_XG_VOLTAGE_MIN "20"
*HW_XG_VOLTAGE_RESOLUTION "1"
*HW_XG_VOLTAGE_UNIT "kV"
*HW_XG_WATT_MAX "1.500"
*HW_XG_WATT_UNIT "kW"
*HW_XG_WAVE_LENGTH_ALPHA1 "1.540593"
*HW_XG_WAVE_LENGTH_ALPHA2 "1.544414"
*HW_XG_WAVE_LENGTH_BETA "1.392250"
*MEAS_COND_AXIS_NAME-0 "2θ/θ"
*MEAS_COND_AXIS_NAME-1 "2θ"
*MEAS_COND_AXIS_NAME-2 "ω"
*MEAS_COND_AXIS_NAME-3 "Z"
*MEAS_COND_AXIS_NAME-4 "2θ/ω"
*MEAS_COND_AXIS_NAME-5 "θs"
*MEAS_COND_AXIS_NAME-6 "θd"
*MEAS_COND_AXIS_NAME-7 "Ts"
*MEAS_COND_AXIS_NAME-8 "CBO選択スリット"
*MEAS_COND_AXIS_NAME-9 "M"
*MEAS_COND_AXIS_NAME-10 "入射平行スリット"
*MEAS_COND_AXIS_NAME-11 "入射スリット"
*MEAS_COND_AXIS_NAME-12 ""
*MEAS_COND_AXIS_NAME-13 "Zs"
*MEAS_COND_AXIS_NAME-14 "入射光学素子"
*MEAS_COND_AXIS_NAME-15 "長手制限スリット"
*MEAS_COND_AXIS_NAME-16 "センタースリット"
*MEAS_COND_AXIS_NAME-17 "フィルター"
*MEAS_COND_AXIS_NAME-18 "受光スリット1"
*MEAS_COND_AXIS_NAME-19 "受光スリット2"
*MEAS_COND_AXIS_NAME-20 "受光光学素子"
*MEAS_COND_AXIS_NAME-21 "受光平行スリット"
*MEAS_COND_AXIS_NAME-22 "調整用受光スリット"
*MEAS_COND_AXIS_NAME-23 ""
*MEAS_COND_AXIS_NAME-24 ""
*MEAS_COND_AXIS_NAME-25 "Zd"
*MEAS_COND_AXIS_NAME-26 "アッテネータ"
*MEAS_COND_AXIS_NAME-27 "検出器モノクロメータ"
*MEAS_COND_AXIS_NAME-28 "モノクロメータスリット"
*MEAS_COND_AXIS_NAME-29 "プライマリビーム"
*MEAS_COND_AXIS_NAME-30 "PHA"
*MEAS_COND_AXIS_NAME_INTERNAL-0 "TwoThetaTheta"
*MEAS_COND_AXIS_NAME_INTERNAL-1 "TwoTheta"
*MEAS_COND_AXIS_NAME_INTERNAL-2 "Omega"
*MEAS_COND_AXIS_NAME_INTERNAL-3 "Z"
*MEAS_COND_AXIS_NAME_INTERNAL-4 "TwoThetaOmega"
*MEAS_COND_AXIS_NAME_INTERNAL-5 "ThetaS"
*MEAS_COND_AXIS_NAME_INTERNAL-6 "ThetaD"
*MEAS_COND_AXIS_NAME_INTERNAL-7 "Ts"
*MEAS_COND_AXIS_NAME_INTERNAL-8 "CBO"
*MEAS_COND_AXIS_NAME_INTERNAL-9 "CBO-M"
*MEAS_COND_AXIS_NAME_INTERNAL-10 "IncidentSollerSlit"
*MEAS_COND_AXIS_NAME_INTERNAL-11 "IncidentSlitBox"
*MEAS_COND_AXIS_NAME_INTERNAL-12 "IncidentSlitBox-_Axis"
*MEAS_COND_AXIS_NAME_INTERNAL-13 "Zs"
*MEAS_COND_AXIS_NAME_INTERNAL-14 "IncidentMonochromator"
*MEAS_COND_AXIS_NAME_INTERNAL-15 "IncidentAxdSlit"
*MEAS_COND_AXIS_NAME_INTERNAL-16 "CenterSlit"
*MEAS_COND_AXIS_NAME_INTERNAL-17 "Filter"
*MEAS_COND_AXIS_NAME_INTERNAL-18 "ReceivingSlitBox1"
*MEAS_COND_AXIS_NAME_INTERNAL-19 "ReceivingSlitBox2"
*MEAS_COND_AXIS_NAME_INTERNAL-20 "ReceivingOptics"
*MEAS_COND_AXIS_NAME_INTERNAL-21 "ReceivingSollerSlit"
*MEAS_COND_AXIS_NAME_INTERNAL-22 "ReceivingAxdSlit"
*MEAS_COND_AXIS_NAME_INTERNAL-23 "ReceivingSlitBox1-_Axis"
*MEAS_COND_AXIS_NAME_INTERNAL-24 "ReceivingSlitBox2-_Axis"
*MEAS_COND_AXIS_NAME_INTERNAL-25 "ReceivingSlitBox2-Zd"
*MEAS_COND_AXIS_NAME_INTERNAL-26 "Attenuator"
*MEAS_COND_AXIS_NAME_INTERNAL-27 "CounterMonochromator"
*MEAS_COND_AXIS_NAME_INTERNAL-28 "CounterSlit"
*MEAS_COND_AXIS_NAME_INTERNAL-29 "IncidentPrimary"
*MEAS_COND_AXIS_NAME_INTERNAL-30 "PHA"
*MEAS_COND_AXIS_NAME_MAGICNO-0 "83951616.0000000000"
*MEAS_COND_AXIS_NAME_MAGICNO-1 "268632064.0000000000"
*MEAS_COND_AXIS_NAME_MAGICNO-2 "268500992.0000000000"
*MEAS_COND_AXIS_NAME_MAGICNO-3 "285278208.0000000000"
*MEAS_COND_AXIS_NAME_MAGICNO-4 "83951616.0000000000"
*MEAS_COND_AXIS_NAME_MAGICNO-5 "131072.0000000000"
*MEAS_COND_AXIS_NAME_MAGICNO-6 "131072.0000000000"
*MEAS_COND_AXIS_NAME_MAGICNO-7 "318898176.0000000000"
*MEAS_COND_AXIS_NAME_MAGICNO-8 "20971521.0000000000"
*MEAS_COND_AXIS_NAME_MAGICNO-9 "285343744.0000000000"
*MEAS_COND_AXIS_NAME_MAGICNO-10 "20971521.0000000000"
*MEAS_COND_AXIS_NAME_MAGICNO-11 "22020097.0000000000"
*MEAS_COND_AXIS_NAME_MAGICNO-12 "25165824.0000000000"
*MEAS_COND_AXIS_NAME_MAGICNO-13 "318898176.0000000000"
*MEAS_COND_AXIS_NAME_MAGICNO-14 "1.0000000000"
*MEAS_COND_AXIS_NAME_MAGICNO-15 "20971521.0000000000"
*MEAS_COND_AXIS_NAME_MAGICNO-16 "20971521.0000000000"
*MEAS_COND_AXIS_NAME_MAGICNO-17 "20971521.0000000000"
*MEAS_COND_AXIS_NAME_MAGICNO-18 "23068673.0000000000"
*MEAS_COND_AXIS_NAME_MAGICNO-19 "23068673.0000000000"
*MEAS_COND_AXIS_NAME_MAGICNO-20 "20971521.0000000000"
*MEAS_COND_AXIS_NAME_MAGICNO-21 "20971521.0000000000"
*MEAS_COND_AXIS_NAME_MAGICNO-22 "20971521.0000000000"
*MEAS_COND_AXIS_NAME_MAGICNO-23 "25165824.0000000000"
*MEAS_COND_AXIS_NAME_MAGICNO-24 "25165824.0000000000"
*MEAS_COND_AXIS_NAME_MAGICNO-25 "285343744.0000000000"
*MEAS_COND_AXIS_NAME_MAGICNO-26 "17301505.0000000000"
*MEAS_COND_AXIS_NAME_MAGICNO-27 "20971521.0000000000"
*MEAS_COND_AXIS_NAME_MAGICNO-28 "20971521.0000000000"
*MEAS_COND_AXIS_NAME_MAGICNO-29 "20971521.0000000000"
*MEAS_COND_AXIS_NAME_MAGICNO-30 "0.0000000000"
*MEAS_COND_AXIS_OFFSET-0 "-"
*MEAS_COND_AXIS_OFFSET-1 "-0.1081000000"
*MEAS_COND_AXIS_OFFSET-2 "0.3758000000"
*MEAS_COND_AXIS_OFFSET-3 "-"
*MEAS_COND_AXIS_OFFSET-4 "-"
*MEAS_COND_AXIS_OFFSET-5 "0.3758000000"
*MEAS_COND_AXIS_OFFSET-6 "-0.4839000000"
*MEAS_COND_AXIS_OFFSET-7 "-"
*MEAS_COND_AXIS_OFFSET-8 "-"
*MEAS_COND_AXIS_OFFSET-9 "-"
*MEAS_COND_AXIS_OFFSET-10 "-"
*MEAS_COND_AXIS_OFFSET-11 "-"
*MEAS_COND_AXIS_OFFSET-12 "-"
*MEAS_COND_AXIS_OFFSET-13 "-"
*MEAS_COND_AXIS_OFFSET-14 "-"
*MEAS_COND_AXIS_OFFSET-15 "-"
*MEAS_COND_AXIS_OFFSET-16 "-"
*MEAS_COND_AXIS_OFFSET-17 "-"
*MEAS_COND_AXIS_OFFSET-18 "-"
*MEAS_COND_AXIS_OFFSET-19 "-"
*MEAS_COND_AXIS_OFFSET-20 "-"
*MEAS_COND_AXIS_OFFSET-21 "-"
*MEAS_COND_AXIS_OFFSET-22 "-"
*MEAS_COND_AXIS_OFFSET-23 "-"
*MEAS_COND_AXIS_OFFSET-24 "-"
*MEAS_COND_AXIS_OFFSET-25 "-"
*MEAS_COND_AXIS_OFFSET-26 "-"
*MEAS_COND_AXIS_OFFSET-27 "-"
*MEAS_COND_AXIS_OFFSET-28 "-"
*MEAS_COND_AXIS_OFFSET-29 "-"
*MEAS_COND_AXIS_OFFSET-30 "-"
*MEAS_COND_AXIS_POSITION-0 "0.0000000000"
*MEAS_COND_AXIS_POSITION-1 "0.0000000000"
*MEAS_COND_AXIS_POSITION-2 "0.0000000000"
*MEAS_COND_AXIS_POSITION-3 "-0.5500000000"
*MEAS_COND_AXIS_POSITION-4 "0.0000000000"
*MEAS_COND_AXIS_POSITION-5 "0.0000000000"
*MEAS_COND_AXIS_POSITION-6 "0.0000000000"
*MEAS_COND_AXIS_POSITION-7 "-0.4278800000"
*MEAS_COND_AXIS_POSITION-8 "BB"
*MEAS_COND_AXIS_POSITION-9 "0.0000000000"
*MEAS_COND_AXIS_POSITION-10 "Soller_slit_5.0deg"
*MEAS_COND_AXIS_POSITION-11 "2/3deg"
*MEAS_COND_AXIS_POSITION-12 "2.2088000000"
*MEAS_COND_AXIS_POSITION-13 "-0.4140600000"
*MEAS_COND_AXIS_POSITION-14 "0.0000000000"
*MEAS_COND_AXIS_POSITION-15 "10.0mm"
*MEAS_COND_AXIS_POSITION-16 "None"
*MEAS_COND_AXIS_POSITION-17 "Cu_K-beta"
*MEAS_COND_AXIS_POSITION-18 "13.000mm"
*MEAS_COND_AXIS_POSITION-19 "13.000mm"
*MEAS_COND_AXIS_POSITION-20 "No_unit"
*MEAS_COND_AXIS_POSITION-21 "Soller_slit_5.0deg"
*MEAS_COND_AXIS_POSITION-22 "None"
*MEAS_COND_AXIS_POSITION-23 "13.0000000000"
*MEAS_COND_AXIS_POSITION-24 "13.0000000000"
*MEAS_COND_AXIS_POSITION-25 "0.0109400000"
*MEAS_COND_AXIS_POSITION-26 "Open"
*MEAS_COND_AXIS_POSITION-27 "None"
*MEAS_COND_AXIS_POSITION-28 "None"
*MEAS_COND_AXIS_POSITION-29 "None"
*MEAS_COND_AXIS_POSITION-30 "38.0000000000"
*MEAS_COND_AXIS_UNIT-0 "deg"
*MEAS_COND_AXIS_UNIT-1 "deg"
*MEAS_COND_AXIS_UNIT-2 "deg"
*MEAS_COND_AXIS_UNIT-3 "mm"
*MEAS_COND_AXIS_UNIT-4 "deg"
*MEAS_COND_AXIS_UNIT-5 "deg"
*MEAS_COND_AXIS_UNIT-6 "deg"
*MEAS_COND_AXIS_UNIT-7 "mm"
*MEAS_COND_AXIS_UNIT-8 ""
*MEAS_COND_AXIS_UNIT-9 "pulse"
*MEAS_COND_AXIS_UNIT-10 ""
*MEAS_COND_AXIS_UNIT-11 ""
*MEAS_COND_AXIS_UNIT-12 "mm"
*MEAS_COND_AXIS_UNIT-13 "mm"
*MEAS_COND_AXIS_UNIT-14 ""
*MEAS_COND_AXIS_UNIT-15 ""
*MEAS_COND_AXIS_UNIT-16 ""
*MEAS_COND_AXIS_UNIT-17 ""
*MEAS_COND_AXIS_UNIT-18 ""
*MEAS_COND_AXIS_UNIT-19 ""
*MEAS_COND_AXIS_UNIT-20 ""
*MEAS_COND_AXIS_UNIT-21 ""
*MEAS_COND_AXIS_UNIT-22 ""
*MEAS_COND_AXIS_UNIT-23 "mm"
*MEAS_COND_AXIS_UNIT-24 "mm"
*MEAS_COND_AXIS_UNIT-25 "mm"
*MEAS_COND_AXIS_UNIT-26 ""
*MEAS_COND_AXIS_UNIT-27 ""
*MEAS_COND_AXIS_UNIT-28 ""
*MEAS_COND_AXIS_UNIT-29 ""
*MEAS_COND_AXIS_UNIT-30 "div"
*MEAS_COND_COUNTER_CNTLOSS_CORR "0.0000000000"
*MEAS_COND_COUNTER_PHABASE "38.0000000000"
*MEAS_COND_COUNTER_PHAWINDOW "16.0000000000"
*MEAS_COND_COUNTER_PHA_UNIT "div"
*MEAS_COND_COUNTER_TAUDIFF "30.0000000000"
*MEAS_COND_COUNTER_TAUINT "0.0000000000"
*MEAS_COND_IRRADIATION_MODE "OFF"
*MEAS_COND_IRRADIATION_WIDTH ""
*MEAS_COND_OPT_ATTR "集中法"
*MEAS_COND_OPT_NAME "@集中法"
*MEAS_COND_UNSYMMETRIC_MODE "OFF"
*MEAS_COND_XG_CURRENT "30.0000000000"
*MEAS_COND_XG_VOLTAGE "40.0000000000"
*MEAS_COND_XG_WAVE_TYPE "Ka"
*MEAS_DATA_COUNT "5001.0000000000"
*MEAS_SCAN_AXIS_X "2θ/θ"
*MEAS_SCAN_AXIS_X_INTERNAL "TwoThetaTheta"
*MEAS_SCAN_END_TIME "07/06/21 18:47:57"
*MEAS_SCAN_MODE "CONTINUOUS"
*MEAS_SCAN_MONITOR "0"
*MEAS_SCAN_RESOLUTION_X "0.0002"
*MEAS_SCAN_SPEED "1.0"
*MEAS_SCAN_SPEED_UNIT "deg/min"
*MEAS_SCAN_START "20.0000000000"
*MEAS_SCAN_START_TIME "07/06/21 17:55:04"
*MEAS_SCAN_STEP "0.0100000000"
*MEAS_SCAN_STOP "70.0000000000"
*MEAS_SCAN_UNIT_X "deg"
*MEAS_SCAN_UNIT_Y "counts"
*RAS_HEADER_END
*RAS_INT_START
20.0000 1701.0000 1.0000
20.0100 1616.0000 1.0000
20.0200 1582.0000 1.0000
20.0300 1568.0000 1.0000
20.0400 1596.0000 1.0000
20.0500 1569.0000 1.0000
20.0600 1695.0000 1.0000
20.0700 1595.0000 1.0000
20.0800 1570.0000 1.0000
20.0900 1591.0000 1.0000
20.1000 1572.0000 1.0000
20.1100 1566.0000 1.0000
20.1200 1596.0000 1.0000
20.1300 1593.0000 1.0000
20.1400 1607.0000 1.0000
20.1500 1538.0000 1.0000
20.1600 1514.0000 1.0000
20.1700 1591.0000 1.0000
20.1800 1631.0000 1.0000
20.1900 1650.0000 1.0000
20.2000 1630.0000 1.0000
20.2100 1588.0000 1.0000
20.2200 1634.0000 1.0000
20.2300 1630.0000 1.0000
20.2400 1663.0000 1.0000
20.2500 1655.0000 1.0000
20.2600 1650.0000 1.0000
20.2700 1624.0000 1.0000
20.2800 1564.0000 1.0000
20.2900 1626.0000 1.0000
20.3000 1524.0000 1.0000
20.3100 1613.0000 1.0000
20.3200 1643.0000 1.0000
20.3300 1636.0000 1.0000
20.3400 1575.0000 1.0000
20.3500 1574.0000 1.0000
20.3600 1575.0000 1.0000
20.3700 1576.0000 1.0000
20.3800 1581.0000 1.0000
20.3900 1531.0000 1.0000
20.4000 1585.0000 1.0000
20.4100 1623.0000 1.0000
20.4200 1613.0000 1.0000
20.4300 1619.0000 1.0000
20.4400 1605.0000 1.0000
20.4500 1550.0000 1.0000
20.4600 1597.0000 1.0000
20.4700 1585.0000 1.0000
20.4800 1581.0000 1.0000
20.4900 1629.0000 1.0000
20.5000 1612.0000 1.0000
20.5100 1637.0000 1.0000
20.5200 1619.0000 1.0000
20.5300 1609.0000 1.0000
20.5400 1595.0000 1.0000
20.5500 1627.0000 1.0000
20.5600 1606.0000 1.0000
20.5700 1579.0000 1.0000
20.5800 1579.0000 1.0000
20.5900 1577.0000 1.0000
20.6000 1628.0000 1.0000
20.6100 1611.0000 1.0000
20.6200 1614.0000 1.0000
20.6300 1631.0000 1.0000
20.6400 1639.0000 1.0000
20.6500 1642.0000 1.0000
20.6600 1622.0000 1.0000
20.6700 1587.0000 1.0000
20.6800 1616.0000 1.0000
20.6900 1638.0000 1.0000
20.7000 1653.0000 1.0000
20.7100 1567.0000 1.0000
20.7200 1630.0000 1.0000
20.7300 1569.0000 1.0000
20.7400 1622.0000 1.0000
20.7500 1657.0000 1.0000
20.7600 1590.0000 1.0000
20.7700 1591.0000 1.0000
20.7800 1547.0000 1.0000
20.7900 1607.0000 1.0000
20.8000 1606.0000 1.0000
20.8100 1615.0000 1.0000
20.8200 1640.0000 1.0000
20.8300 1589.0000 1.0000
20.8400 1587.0000 1.0000
20.8500 1623.0000 1.0000
20.8600 1596.0000 1.0000
20.8700 1603.0000 1.0000
20.8800 1637.0000 1.0000
20.8900 1666.0000 1.0000
20.9000 1599.0000 1.0000
20.9100 1591.0000 1.0000
20.9200 1623.0000 1.0000
20.9300 1606.0000 1.0000
20.9400 1589.0000 1.0000
20.9500 1634.0000 1.0000
20.9600 1549.0000 1.0000
20.9700 1591.0000 1.0000
20.9800 1595.0000 1.0000
20.9900 1622.0000 1.0000
21.0000 1587.0000 1.0000
21.0100 1639.0000 1.0000
21.0200 1626.0000 1.0000
21.0300 1583.0000 1.0000
21.0400 1633.0000 1.0000
21.0500 1601.0000 1.0000
21.0600 1615.0000 1.0000
21.0700 1664.0000 1.0000
21.0800 1599.0000 1.0000
21.0900 1644.0000 1.0000
21.1000 1615.0000 1.0000
21.1100 1632.0000 1.0000
21.1200 1692.0000 1.0000
21.1300 1638.0000 1.0000
21.1400 1603.0000 1.0000
21.1500 1557.0000 1.0000
21.1600 1592.0000 1.0000
21.1700 1609.0000 1.0000
21.1800 1624.0000 1.0000
21.1900 1659.0000 1.0000
21.2000 1569.0000 1.0000
21.2100 1614.0000 1.0000
21.2200 1543.0000 1.0000
21.2300 1643.0000 1.0000
21.2400 1606.0000 1.0000
21.2500 1621.0000 1.0000
21.2600 1623.0000 1.0000
21.2700 1630.0000 1.0000
21.2800 1601.0000 1.0000
21.2900 1588.0000 1.0000
21.3000 1607.0000 1.0000
21.3100 1564.0000 1.0000
21.3200 1604.0000 1.0000
21.3300 1675.0000 1.0000
21.3400 1611.0000 1.0000
21.3500 1641.0000 1.0000
21.3600 1613.0000 1.0000
21.3700 1603.0000 1.0000
21.3800 1593.0000 1.0000
21.3900 1580.0000 1.0000
21.4000 1599.0000 1.0000
21.4100 1587.0000 1.0000
21.4200 1573.0000 1.0000
21.4300 1601.0000 1.0000
21.4400 1578.0000 1.0000
21.4500 1612.0000 1.0000
21.4600 1619.0000 1.0000
21.4700 1638.0000 1.0000
21.4800 1682.0000 1.0000
21.4900 1612.0000 1.0000
21.5000 1570.0000 1.0000
21.5100 1585.0000 1.0000
21.5200 1626.0000 1.0000
21.5300 1619.0000 1.0000
21.5400 1639.0000 1.0000
21.5500 1628.0000 1.0000
21.5600 1613.0000 1.0000
21.5700 1599.0000 1.0000
21.5800 1618.0000 1.0000
21.5900 1604.0000 1.0000
21.6000 1695.0000 1.0000
21.6100 1663.0000 1.0000
21.6200 1653.0000 1.0000
21.6300 1611.0000 1.0000
21.6400 1616.0000 1.0000
21.6500 1609.0000 1.0000
21.6600 1675.0000 1.0000
21.6700 1682.0000 1.0000
21.6800 1607.0000 1.0000
21.6900 1603.0000 1.0000
21.7000 1652.0000 1.0000
21.7100 1697.0000 1.0000
21.7200 1670.0000 1.0000
21.7300 1672.0000 1.0000
21.7400 1651.0000 1.0000
21.7500 1597.0000 1.0000
21.7600 1560.0000 1.0000
21.7700 1627.0000 1.0000
21.7800 1647.0000 1.0000
21.7900 1581.0000 1.0000
21.8000 1583.0000 1.0000
21.8100 1645.0000 1.0000
21.8200 1673.0000 1.0000
21.8300 1568.0000 1.0000
21.8400 1590.0000 1.0000
21.8500 1597.0000 1.0000
21.8600 1656.0000 1.0000
21.8700 1670.0000 1.0000
21.8800 1653.0000 1.0000
21.8900 1593.0000 1.0000
21.9000 1615.0000 1.0000
21.9100 1638.0000 1.0000
21.9200 1672.0000 1.0000
21.9300 1683.0000 1.0000
21.9400 1620.0000 1.0000
21.9500 1645.0000 1.0000
21.9600 1664.0000 1.0000
21.9700 1591.0000 1.0000
21.9800 1650.0000 1.0000
21.9900 1614.0000 1.0000
22.0000 1585.0000 1.0000
22.0100 1625.0000 1.0000
22.0200 1578.0000 1.0000
22.0300 1624.0000 1.0000
22.0400 1630.0000 1.0000
22.0500 1691.0000 1.0000
22.0600 1647.0000 1.0000
22.0700 1625.0000 1.0000
22.0800 1612.0000 1.0000
22.0900 1667.0000 1.0000
22.1000 1527.0000 1.0000
22.1100 1657.0000 1.0000
22.1200 1632.0000 1.0000
22.1300 1659.0000 1.0000
22.1400 1604.0000 1.0000
22.1500 1666.0000 1.0000
22.1600 1604.0000 1.0000
22.1700 1599.0000 1.0000
22.1800 1588.0000 1.0000
22.1900 1603.0000 1.0000
22.2000 1635.0000 1.0000
22.2100 1633.0000 1.0000
22.2200 1648.0000 1.0000
22.2300 1627.0000 1.0000
22.2400 1644.0000 1.0000
22.2500 1600.0000 1.0000
22.2600 1646.0000 1.0000
22.2700 1673.0000 1.0000
22.2800 1598.0000 1.0000
22.2900 1687.0000 1.0000
22.3000 1625.0000 1.0000
22.3100 1571.0000 1.0000
22.3200 1632.0000 1.0000
22.3300 1677.0000 1.0000
22.3400 1675.0000 1.0000
22.3500 1613.0000 1.0000
22.3600 1610.0000 1.0000
22.3700 1616.0000 1.0000
22.3800 1655.0000 1.0000
22.3900 1682.0000 1.0000
22.4000 1572.0000 1.0000
22.4100 1687.0000 1.0000
22.4200 1647.0000 1.0000
22.4300 1639.0000 1.0000
22.4400 1671.0000 1.0000
22.4500 1642.0000 1.0000
22.4600 1664.0000 1.0000
22.4700 1695.0000 1.0000
22.4800 1636.0000 1.0000
22.4900 1606.0000 1.0000
22.5000 1652.0000 1.0000
22.5100 1592.0000 1.0000
22.5200 1607.0000 1.0000
22.5300 1612.0000 1.0000
22.5400 1645.0000 1.0000
22.5500 1612.0000 1.0000
22.5600 1641.0000 1.0000
22.5700 1635.0000 1.0000
22.5800 1719.0000 1.0000
22.5900 1659.0000 1.0000
22.6000 1626.0000 1.0000
22.6100 1656.0000 1.0000
22.6200 1646.0000 1.0000
22.6300 1656.0000 1.0000
22.6400 1640.0000 1.0000
22.6500 1610.0000 1.0000
22.6600 1623.0000 1.0000
22.6700 1664.0000 1.0000
22.6800 1636.0000 1.0000
22.6900 1660.0000 1.0000
22.7000 1681.0000 1.0000
22.7100 1657.0000 1.0000
22.7200 1611.0000 1.0000
22.7300 1687.0000 1.0000
22.7400 1720.0000 1.0000
22.7500 1654.0000 1.0000
22.7600 1714.0000 1.0000
22.7700 1678.0000 1.0000
22.7800 1660.0000 1.0000
22.7900 1638.0000 1.0000
22.8000 1671.0000 1.0000
22.8100 1651.0000 1.0000
22.8200 1645.0000 1.0000
22.8300 1640.0000 1.0000
22.8400 1719.0000 1.0000
22.8500 1651.0000 1.0000
22.8600 1657.0000 1.0000
22.8700 1642.0000 1.0000
22.8800 1672.0000 1.0000
22.8900 1650.0000 1.0000
22.9000 1687.0000 1.0000
22.9100 1637.0000 1.0000
22.9200 1641.0000 1.0000
22.9300 1576.0000 1.0000
22.9400 1647.0000 1.0000
22.9500 1698.0000 1.0000
22.9600 1692.0000 1.0000
22.9700 1673.0000 1.0000
22.9800 1645.0000 1.0000
22.9900 1706.0000 1.0000
23.0000 1659.0000 1.0000
23.0100 1629.0000 1.0000
23.0200 1641.0000 1.0000
23.0300 1674.0000 1.0000
23.0400 1709.0000 1.0000
23.0500 1598.0000 1.0000
23.0600 1665.0000 1.0000
23.0700 1688.0000 1.0000
23.0800 1641.0000 1.0000
23.0900 1664.0000 1.0000
23.1000 1647.0000 1.0000
23.1100 1666.0000 1.0000
23.1200 1603.0000 1.0000
23.1300 1654.0000 1.0000
23.1400 1686.0000 1.0000
23.1500 1593.0000 1.0000
23.1600 1601.0000 1.0000
23.1700 1681.0000 1.0000
23.1800 1670.0000 1.0000
23.1900 1634.0000 1.0000
23.2000 1648.0000 1.0000
23.2100 1635.0000 1.0000
23.2200 1672.0000 1.0000
23.2300 1639.0000 1.0000
23.2400 1644.0000 1.0000
23.2500 1603.0000 1.0000
23.2600 1637.0000 1.0000
23.2700 1669.0000 1.0000
23.2800 1724.0000 1.0000
23.2900 1647.0000 1.0000
23.3000 1617.0000 1.0000
23.3100 1703.0000 1.0000
23.3200 1695.0000 1.0000
23.3300 1646.0000 1.0000
23.3400 1722.0000 1.0000
23.3500 1670.0000 1.0000
23.3600 1620.0000 1.0000
23.3700 1690.0000 1.0000
23.3800 1661.0000 1.0000
23.3900 1684.0000 1.0000
23.4000 1664.0000 1.0000
23.4100 1677.0000 1.0000
23.4200 1602.0000 1.0000
23.4300 1609.0000 1.0000
23.4400 1672.0000 1.0000
23.4500 1667.0000 1.0000
23.4600 1673.0000 1.0000
23.4700 1618.0000 1.0000
23.4800 1612.0000 1.0000
23.4900 1706.0000 1.0000
23.5000 1657.0000 1.0000
23.5100 1717.0000 1.0000
23.5200 1597.0000 1.0000
23.5300 1692.0000 1.0000
23.5400 1662.0000 1.0000
23.5500 1671.0000 1.0000
23.5600 1697.0000 1.0000
23.5700 1613.0000 1.0000
23.5800 1678.0000 1.0000
23.5900 1677.0000 1.0000
23.6000 1688.0000 1.0000
23.6100 1731.0000 1.0000
23.6200 1683.0000 1.0000
23.6300 1710.0000 1.0000
23.6400 1703.0000 1.0000
23.6500 1671.0000 1.0000
23.6600 1694.0000 1.0000
23.6700 1696.0000 1.0000
23.6800 1671.0000 1.0000
23.6900 1687.0000 1.0000
23.7000 1689.0000 1.0000
23.7100 1705.0000 1.0000
23.7200 1663.0000 1.0000
23.7300 1660.0000 1.0000
23.7400 1695.0000 1.0000
23.7500 1769.0000 1.0000
23.7600 1685.0000 1.0000
23.7700 1692.0000 1.0000
23.7800 1685.0000 1.0000
23.7900 1697.0000 1.0000
23.8000 1721.0000 1.0000
23.8100 1672.0000 1.0000
23.8200 1618.0000 1.0000
23.8300 1645.0000 1.0000
23.8400 1649.0000 1.0000
23.8500 1646.0000 1.0000
23.8600 1665.0000 1.0000
23.8700 1692.0000 1.0000
23.8800 1702.0000 1.0000
23.8900 1647.0000 1.0000
23.9000 1667.0000 1.0000
23.9100 1632.0000 1.0000
23.9200 1689.0000 1.0000
23.9300 1722.0000 1.0000
23.9400 1672.0000 1.0000
23.9500 1663.0000 1.0000
23.9600 1671.0000 1.0000
23.9700 1732.0000 1.0000
23.9800 1676.0000 1.0000
23.9900 1686.0000 1.0000
24.0000 1677.0000 1.0000
24.0100 1714.0000 1.0000
24.0200 1649.0000 1.0000
24.0300 1686.0000 1.0000
24.0400 1675.0000 1.0000
24.0500 1689.0000 1.0000
24.0600 1709.0000 1.0000
24.0700 1615.0000 1.0000
24.0800 1683.0000 1.0000
24.0900 1730.0000 1.0000
24.1000 1712.0000 1.0000
24.1100 1737.0000 1.0000
24.1200 1698.0000 1.0000
24.1300 1653.0000 1.0000
24.1400 1776.0000 1.0000
24.1500 1666.0000 1.0000
24.1600 1606.0000 1.0000
24.1700 1660.0000 1.0000
24.1800 1666.0000 1.0000
24.1900 1712.0000 1.0000
24.2000 1728.0000 1.0000
24.2100 1676.0000 1.0000
24.2200 1697.0000 1.0000
24.2300 1678.0000 1.0000
24.2400 1757.0000 1.0000
24.2500 1726.0000 1.0000
24.2600 1639.0000 1.0000
24.2700 1662.0000 1.0000
24.2800 1618.0000 1.0000
24.2900 1674.0000 1.0000
24.3000 1658.0000 1.0000
24.3100 1690.0000 1.0000
24.3200 1720.0000 1.0000
24.3300 1695.0000 1.0000
24.3400 1711.0000 1.0000
24.3500 1758.0000 1.0000
24.3600 1696.0000 1.0000
24.3700 1726.0000 1.0000
24.3800 1677.0000 1.0000
24.3900 1709.0000 1.0000
24.4000 1714.0000 1.0000
24.4100 1667.0000 1.0000
24.4200 1747.0000 1.0000
24.4300 1587.0000 1.0000
24.4400 1652.0000 1.0000
24.4500 1683.0000 1.0000
24.4600 1700.0000 1.0000
24.4700 1729.0000 1.0000
24.4800 1743.0000 1.0000
24.4900 1680.0000 1.0000
24.5000 1718.0000 1.0000
24.5100 1772.0000 1.0000
24.5200 1657.0000 1.0000
24.5300 1713.0000 1.0000
24.5400 1698.0000 1.0000
24.5500 1664.0000 1.0000
24.5600 1680.0000 1.0000
24.5700 1678.0000 1.0000
24.5800 1631.0000 1.0000
24.5900 1676.0000 1.0000
24.6000 1713.0000 1.0000
24.6100 1724.0000 1.0000
24.6200 1662.0000 1.0000
24.6300 1708.0000 1.0000
24.6400 1774.0000 1.0000
24.6500 1667.0000 1.0000
24.6600 1695.0000 1.0000
24.6700 1721.0000 1.0000
24.6800 1753.0000 1.0000
24.6900 1693.0000 1.0000
24.7000 1698.0000 1.0000
24.7100 1699.0000 1.0000
24.7200 1757.0000 1.0000
24.7300 1755.0000 1.0000
24.7400 1729.0000 1.0000
24.7500 1717.0000 1.0000
24.7600 1715.0000 1.0000
24.7700 1752.0000 1.0000
24.7800 1746.0000 1.0000
24.7900 1745.0000 1.0000
24.8000 1735.0000 1.0000
24.8100 1757.0000 1.0000
24.8200 1778.0000 1.0000
24.8300 1710.0000 1.0000
24.8400 1735.0000 1.0000
24.8500 1701.0000 1.0000
24.8600 1741.0000 1.0000
24.8700 1705.0000 1.0000
24.8800 1760.0000 1.0000
24.8900 1728.0000 1.0000
24.9000 1718.0000 1.0000
24.9100 1789.0000 1.0000
24.9200 1751.0000 1.0000
24.9300 1746.0000 1.0000
24.9400 1737.0000 1.0000
24.9500 1762.0000 1.0000
24.9600 1765.0000 1.0000
24.9700 1757.0000 1.0000
24.9800 1782.0000 1.0000
24.9900 1777.0000 1.0000
25.0000 1757.0000 1.0000
25.0100 1734.0000 1.0000
25.0200 1707.0000 1.0000
25.0300 1779.0000 1.0000
25.0400 1724.0000 1.0000
25.0500 1758.0000 1.0000
25.0600 1786.0000 1.0000
25.0700 1721.0000 1.0000
25.0800 1759.0000 1.0000
25.0900 1784.0000 1.0000
25.1000 1810.0000 1.0000
25.1100 1783.0000 1.0000
25.1200 1774.0000 1.0000
25.1300 1739.0000 1.0000
25.1400 1772.0000 1.0000
25.1500 1773.0000 1.0000
25.1600 1800.0000 1.0000
25.1700 1782.0000 1.0000
25.1800 1810.0000 1.0000
25.1900 1709.0000 1.0000
25.2000 1733.0000 1.0000
25.2100 1728.0000 1.0000
25.2200 1815.0000 1.0000
25.2300 1753.0000 1.0000
25.2400 1755.0000 1.0000
25.2500 1727.0000 1.0000
25.2600 1759.0000 1.0000
25.2700 1736.0000 1.0000
25.2800 1740.0000 1.0000
25.2900 1711.0000 1.0000
25.3000 1740.0000 1.0000
25.3100 1735.0000 1.0000
25.3200 1713.0000 1.0000
25.3300 1709.0000 1.0000
25.3400 1739.0000 1.0000
25.3500 1786.0000 1.0000
25.3600 1802.0000 1.0000
25.3700 1733.0000 1.0000
25.3800 1762.0000 1.0000
25.3900 1759.0000 1.0000
25.4000 1699.0000 1.0000
25.4100 1768.0000 1.0000
25.4200 1723.0000 1.0000
25.4300 1752.0000 1.0000
25.4400 1666.0000 1.0000
25.4500 1712.0000 1.0000
25.4600 1751.0000 1.0000
25.4700 1695.0000 1.0000
25.4800 1705.0000 1.0000
25.4900 1736.0000 1.0000
25.5000 1755.0000 1.0000
25.5100 1700.0000 1.0000
25.5200 1719.0000 1.0000
25.5300 1746.0000 1.0000
25.5400 1747.0000 1.0000
25.5500 1770.0000 1.0000
25.5600 1786.0000 1.0000
25.5700 1716.0000 1.0000
25.5800 1747.0000 1.0000
25.5900 1700.0000 1.0000
25.6000 1814.0000 1.0000
25.6100 1700.0000 1.0000
25.6200 1730.0000 1.0000
25.6300 1769.0000 1.0000
25.6400 1782.0000 1.0000
25.6500 1723.0000 1.0000
25.6600 1758.0000 1.0000
25.6700 1695.0000 1.0000
25.6800 1746.0000 1.0000
25.6900 1743.0000 1.0000
25.7000 1714.0000 1.0000
25.7100 1692.0000 1.0000
25.7200 1707.0000 1.0000
25.7300 1760.0000 1.0000
25.7400 1736.0000 1.0000
25.7500 1773.0000 1.0000
25.7600 1710.0000 1.0000
25.7700 1687.0000 1.0000
25.7800 1761.0000 1.0000
25.7900 1741.0000 1.0000
25.8000 1805.0000 1.0000
25.8100 1719.0000 1.0000
25.8200 1752.0000 1.0000
25.8300 1773.0000 1.0000
25.8400 1728.0000 1.0000
25.8500 1664.0000 1.0000
25.8600 1693.0000 1.0000
25.8700 1763.0000 1.0000
25.8800 1703.0000 1.0000
25.8900 1779.0000 1.0000
25.9000 1708.0000 1.0000
25.9100 1704.0000 1.0000
25.9200 1686.0000 1.0000
25.9300 1703.0000 1.0000
25.9400 1678.0000 1.0000
25.9500 1714.0000 1.0000
25.9600 1818.0000 1.0000
25.9700 1725.0000 1.0000
25.9800 1798.0000 1.0000
25.9900 1792.0000 1.0000
26.0000 1760.0000 1.0000
26.0100 1802.0000 1.0000
26.0200 1809.0000 1.0000
26.0300 1708.0000 1.0000
26.0400 1756.0000 1.0000
26.0500 1774.0000 1.0000
26.0600 1692.0000 1.0000
26.0700 1755.0000 1.0000
26.0800 1769.0000 1.0000
26.0900 1693.0000 1.0000
26.1000 1774.0000 1.0000
26.1100 1775.0000 1.0000
26.1200 1768.0000 1.0000
26.1300 1703.0000 1.0000
26.1400 1767.0000 1.0000
26.1500 1696.0000 1.0000
26.1600 1737.0000 1.0000
26.1700 1779.0000 1.0000
26.1800 1748.0000 1.0000
26.1900 1702.0000 1.0000
26.2000 1795.0000 1.0000
26.2100 1754.0000 1.0000
26.2200 1766.0000 1.0000
26.2300 1761.0000 1.0000
26.2400 1759.0000 1.0000
26.2500 1717.0000 1.0000
26.2600 1781.0000 1.0000
26.2700 1707.0000 1.0000
26.2800 1809.0000 1.0000
26.2900 1776.0000 1.0000
26.3000 1756.0000 1.0000
26.3100 1749.0000 1.0000
26.3200 1816.0000 1.0000
26.3300 1721.0000 1.0000
26.3400 1844.0000 1.0000
26.3500 1814.0000 1.0000
26.3600 1662.0000 1.0000
26.3700 1758.0000 1.0000
26.3800 1807.0000 1.0000
26.3900 1782.0000 1.0000
26.4000 1743.0000 1.0000
26.4100 1794.0000 1.0000
26.4200 1764.0000 1.0000
26.4300 1735.0000 1.0000
26.4400 1762.0000 1.0000
26.4500 1793.0000 1.0000
26.4600 1800.0000 1.0000
26.4700 1835.0000 1.0000
26.4800 1848.0000 1.0000
26.4900 1760.0000 1.0000
26.5000 1812.0000 1.0000
26.5100 1888.0000 1.0000
26.5200 1789.0000 1.0000
26.5300 1776.0000 1.0000
26.5400 1867.0000 1.0000
26.5500 1842.0000 1.0000
26.5600 1756.0000 1.0000
26.5700 1813.0000 1.0000
26.5800 1886.0000 1.0000
26.5900 1877.0000 1.0000
26.6000 1889.0000 1.0000
26.6100 1820.0000 1.0000
26.6200 1879.0000 1.0000
26.6300 1836.0000 1.0000
26.6400 1868.0000 1.0000
26.6500 1880.0000 1.0000
26.6600 1847.0000 1.0000
26.6700 1962.0000 1.0000
26.6800 1852.0000 1.0000
26.6900 1879.0000 1.0000
26.7000 1833.0000 1.0000
26.7100 1798.0000 1.0000
26.7200 1848.0000 1.0000
26.7300 1895.0000 1.0000
26.7400 1872.0000 1.0000
26.7500 1878.0000 1.0000
26.7600 1852.0000 1.0000
26.7700 1912.0000 1.0000
26.7800 2039.0000 1.0000
26.7900 1916.0000 1.0000
26.8000 1967.0000 1.0000
26.8100 1933.0000 1.0000
26.8200 1901.0000 1.0000
26.8300 1886.0000 1.0000
26.8400 1961.0000 1.0000
26.8500 2025.0000 1.0000
26.8600 1989.0000 1.0000
26.8700 2021.0000 1.0000
26.8800 1988.0000 1.0000
26.8900 2038.0000 1.0000
26.9000 2059.0000 1.0000
26.9100 2032.0000 1.0000
26.9200 2048.0000 1.0000
26.9300 2149.0000 1.0000
26.9400 2180.0000 1.0000
26.9500 2202.0000 1.0000
26.9600 2170.0000 1.0000
26.9700 2301.0000 1.0000
26.9800 2295.0000 1.0000
26.9900 2312.0000 1.0000
27.0000 2387.0000 1.0000
27.0100 2375.0000 1.0000
27.0200 2416.0000 1.0000
27.0300 2501.0000 1.0000
27.0400 2559.0000 1.0000
27.0500 2642.0000 1.0000
27.0600 2700.0000 1.0000
27.0700 2840.0000 1.0000
27.0800 2782.0000 1.0000
27.0900 2889.0000 1.0000
27.1000 3030.0000 1.0000
27.1100 3227.0000 1.0000
27.1200 3256.0000 1.0000
27.1300 3402.0000 1.0000
27.1400 3542.0000 1.0000
27.1500 3659.0000 1.0000
27.1600 3775.0000 1.0000
27.1700 3924.0000 1.0000
27.1800 4200.0000 1.0000
27.1900 4463.0000 1.0000
27.2000 4608.0000 1.0000
27.2100 4812.0000 1.0000
27.2200 5110.0000 1.0000
27.2300 5394.0000 1.0000
27.2400 5712.0000 1.0000
27.2500 5964.0000 1.0000
27.2600 6078.0000 1.0000
27.2700 6334.0000 1.0000
27.2800 6511.0000 1.0000
27.2900 6612.0000 1.0000
27.3000 6673.0000 1.0000
27.3100 6676.0000 1.0000
27.3200 6687.0000 1.0000
27.3300 6551.0000 1.0000
27.3400 6344.0000 1.0000
27.3500 6215.0000 1.0000
27.3600 5802.0000 1.0000
27.3700 5673.0000 1.0000
27.3800 5415.0000 1.0000
27.3900 5056.0000 1.0000
27.4000 4833.0000 1.0000
27.4100 4733.0000 1.0000
27.4200 4371.0000 1.0000
27.4300 4154.0000 1.0000
27.4400 3944.0000 1.0000
27.4500 3856.0000 1.0000
27.4600 3719.0000 1.0000
27.4700 3498.0000 1.0000
27.4800 3378.0000 1.0000
27.4900 3312.0000 1.0000
27.5000 3036.0000 1.0000
27.5100 3035.0000 1.0000
27.5200 2952.0000 1.0000
27.5300 2726.0000 1.0000
27.5400 2728.0000 1.0000
27.5500 2644.0000 1.0000
27.5600 2568.0000 1.0000
27.5700 2576.0000 1.0000
27.5800 2497.0000 1.0000
27.5900 2385.0000 1.0000
27.6000 2444.0000 1.0000
27.6100 2382.0000 1.0000
27.6200 2325.0000 1.0000
27.6300 2211.0000 1.0000
27.6400 2169.0000 1.0000
27.6500 2120.0000 1.0000
27.6600 2110.0000 1.0000
27.6700 2135.0000 1.0000
27.6800 2065.0000 1.0000
27.6900 2029.0000 1.0000
27.7000 2087.0000 1.0000
27.7100 2002.0000 1.0000
27.7200 2016.0000 1.0000
27.7300 1967.0000 1.0000
27.7400 1906.0000 1.0000
27.7500 1996.0000 1.0000
27.7600 1938.0000 1.0000
27.7700 1950.0000 1.0000
27.7800 1953.0000 1.0000
27.7900 1889.0000 1.0000
27.8000 1879.0000 1.0000
27.8100 1931.0000 1.0000
27.8200 1837.0000 1.0000
27.8300 1925.0000 1.0000
27.8400 1861.0000 1.0000
27.8500 1786.0000 1.0000
27.8600 1869.0000 1.0000
27.8700 1877.0000 1.0000
27.8800 1870.0000 1.0000
27.8900 1840.0000 1.0000
27.9000 1815.0000 1.0000
27.9100 1828.0000 1.0000
27.9200 1831.0000 1.0000
27.9300 1773.0000 1.0000
27.9400 1804.0000 1.0000
27.9500 1765.0000 1.0000
27.9600 1742.0000 1.0000
27.9700 1829.0000 1.0000
27.9800 1744.0000 1.0000
27.9900 1718.0000 1.0000
28.0000 1792.0000 1.0000
28.0100 1784.0000 1.0000
28.0200 1745.0000 1.0000
28.0300 1729.0000 1.0000
28.0400 1740.0000 1.0000
28.0500 1771.0000 1.0000
28.0600 1744.0000 1.0000
28.0700 1778.0000 1.0000
28.0800 1792.0000 1.0000
28.0900 1733.0000 1.0000
28.1000 1745.0000 1.0000
28.1100 1720.0000 1.0000
28.1200 1708.0000 1.0000
28.1300 1728.0000 1.0000
28.1400 1680.0000 1.0000
28.1500 1685.0000 1.0000
28.1600 1719.0000 1.0000
28.1700 1672.0000 1.0000
28.1800 1715.0000 1.0000
28.1900 1746.0000 1.0000
28.2000 1702.0000 1.0000
28.2100 1747.0000 1.0000
28.2200 1725.0000 1.0000
28.2300 1748.0000 1.0000
28.2400 1623.0000 1.0000
28.2500 1706.0000 1.0000
28.2600 1692.0000 1.0000
28.2700 1720.0000 1.0000
28.2800 1699.0000 1.0000
28.2900 1693.0000 1.0000
28.3000 1728.0000 1.0000
28.3100 1675.0000 1.0000
28.3200 1652.0000 1.0000
28.3300 1674.0000 1.0000
28.3400 1734.0000 1.0000
28.3500 1698.0000 1.0000
28.3600 1700.0000 1.0000
28.3700 1709.0000 1.0000
28.3800 1594.0000 1.0000
28.3900 1606.0000 1.0000
28.4000 1662.0000 1.0000
28.4100 1648.0000 1.0000
28.4200 1700.0000 1.0000
28.4300 1666.0000 1.0000
28.4400 1683.0000 1.0000
28.4500 1696.0000 1.0000
28.4600 1655.0000 1.0000
28.4700 1666.0000 1.0000
28.4800 1693.0000 1.0000
28.4900 1702.0000 1.0000
28.5000 1567.0000 1.0000
28.5100 1636.0000 1.0000
28.5200 1685.0000 1.0000
28.5300 1697.0000 1.0000
28.5400 1604.0000 1.0000
28.5500 1624.0000 1.0000
28.5600 1643.0000 1.0000
28.5700 1620.0000 1.0000
28.5800 1709.0000 1.0000
28.5900 1656.0000 1.0000
28.6000 1628.0000 1.0000
28.6100 1593.0000 1.0000
28.6200 1599.0000 1.0000
28.6300 1676.0000 1.0000
28.6400 1637.0000 1.0000
28.6500 1607.0000 1.0000
28.6600 1548.0000 1.0000
28.6700 1608.0000 1.0000
28.6800 1596.0000 1.0000
28.6900 1635.0000 1.0000
28.7000 1609.0000 1.0000
28.7100 1679.0000 1.0000
28.7200 1597.0000 1.0000
28.7300 1639.0000 1.0000
28.7400 1661.0000 1.0000
28.7500 1609.0000 1.0000
28.7600 1588.0000 1.0000
28.7700 1600.0000 1.0000
28.7800 1612.0000 1.0000
28.7900 1602.0000 1.0000
28.8000 1661.0000 1.0000
28.8100 1613.0000 1.0000
28.8200 1624.0000 1.0000
28.8300 1712.0000 1.0000
28.8400 1638.0000 1.0000
28.8500 1580.0000 1.0000
28.8600 1622.0000 1.0000
28.8700 1525.0000 1.0000
28.8800 1621.0000 1.0000
28.8900 1640.0000 1.0000
28.9000 1647.0000 1.0000
28.9100 1622.0000 1.0000
28.9200 1615.0000 1.0000
28.9300 1601.0000 1.0000
28.9400 1597.0000 1.0000
28.9500 1566.0000 1.0000
28.9600 1709.0000 1.0000
28.9700 1602.0000 1.0000
28.9800 1585.0000 1.0000
28.9900 1605.0000 1.0000
29.0000 1589.0000 1.0000
29.0100 1571.0000 1.0000
29.0200 1549.0000 1.0000
29.0300 1607.0000 1.0000
29.0400 1578.0000 1.0000
29.0500 1591.0000 1.0000
29.0600 1552.0000 1.0000
29.0700 1604.0000 1.0000
29.0800 1596.0000 1.0000
29.0900 1642.0000 1.0000
29.1000 1611.0000 1.0000
29.1100 1616.0000 1.0000
29.1200 1518.0000 1.0000
29.1300 1513.0000 1.0000
29.1400 1585.0000 1.0000
29.1500 1577.0000 1.0000
29.1600 1651.0000 1.0000
29.1700 1610.0000 1.0000
29.1800 1604.0000 1.0000
29.1900 1659.0000 1.0000
29.2000 1589.0000 1.0000
29.2100 1579.0000 1.0000
29.2200 1549.0000 1.0000
29.2300 1534.0000 1.0000
29.2400 1589.0000 1.0000
29.2500 1596.0000 1.0000
29.2600 1570.0000 1.0000
29.2700 1580.0000 1.0000
29.2800 1578.0000 1.0000
29.2900 1595.0000 1.0000
29.3000 1611.0000 1.0000
29.3100 1612.0000 1.0000
29.3200 1548.0000 1.0000
29.3300 1540.0000 1.0000
29.3400 1554.0000 1.0000
29.3500 1595.0000 1.0000
29.3600 1570.0000 1.0000
29.3700 1644.0000 1.0000
29.3800 1633.0000 1.0000
29.3900 1584.0000 1.0000
29.4000 1617.0000 1.0000
29.4100 1541.0000 1.0000
29.4200 1557.0000 1.0000
29.4300 1549.0000 1.0000
29.4400 1639.0000 1.0000
29.4500 1533.0000 1.0000
29.4600 1581.0000 1.0000
29.4700 1558.0000 1.0000
29.4800 1554.0000 1.0000
29.4900 1573.0000 1.0000
29.5000 1532.0000 1.0000
29.5100 1517.0000 1.0000
29.5200 1518.0000 1.0000
29.5300 1531.0000 1.0000
29.5400 1532.0000 1.0000
29.5500 1624.0000 1.0000
29.5600 1542.0000 1.0000
29.5700 1579.0000 1.0000
29.5800 1527.0000 1.0000
29.5900 1551.0000 1.0000
29.6000 1528.0000 1.0000
29.6100 1513.0000 1.0000
29.6200 1560.0000 1.0000
29.6300 1525.0000 1.0000
29.6400 1525.0000 1.0000
29.6500 1577.0000 1.0000
29.6600 1520.0000 1.0000
29.6700 1568.0000 1.0000
29.6800 1537.0000 1.0000
29.6900 1564.0000 1.0000
29.7000 1563.0000 1.0000
29.7100 1538.0000 1.0000
29.7200 1543.0000 1.0000
29.7300 1557.0000 1.0000
29.7400 1557.0000 1.0000
29.7500 1558.0000 1.0000
29.7600 1553.0000 1.0000
29.7700 1504.0000 1.0000
29.7800 1568.0000 1.0000
29.7900 1588.0000 1.0000
29.8000 1542.0000 1.0000
29.8100 1565.0000 1.0000
29.8200 1509.0000 1.0000
29.8300 1544.0000 1.0000
29.8400 1523.0000 1.0000
29.8500 1516.0000 1.0000
29.8600 1491.0000 1.0000
29.8700 1511.0000 1.0000
29.8800 1478.0000 1.0000
29.8900 1479.0000 1.0000
29.9000 1603.0000 1.0000
29.9100 1580.0000 1.0000
29.9200 1578.0000 1.0000
29.9300 1534.0000 1.0000
29.9400 1523.0000 1.0000
29.9500 1543.0000 1.0000
29.9600 1544.0000 1.0000
29.9700 1577.0000 1.0000
29.9800 1506.0000 1.0000
29.9900 1517.0000 1.0000
30.0000 1526.0000 1.0000
30.0100 1528.0000 1.0000
30.0200 1509.0000 1.0000
30.0300 1516.0000 1.0000
30.0400 1543.0000 1.0000
30.0500 1572.0000 1.0000
30.0600 1544.0000 1.0000
30.0700 1572.0000 1.0000
30.0800 1516.0000 1.0000
30.0900 1470.0000 1.0000
30.1000 1550.0000 1.0000
30.1100 1549.0000 1.0000
30.1200 1596.0000 1.0000
30.1300 1547.0000 1.0000
30.1400 1558.0000 1.0000
30.1500 1480.0000 1.0000
30.1600 1469.0000 1.0000
30.1700 1514.0000 1.0000
30.1800 1529.0000 1.0000
30.1900 1496.0000 1.0000
30.2000 1525.0000 1.0000
30.2100 1477.0000 1.0000
30.2200 1540.0000 1.0000
30.2300 1536.0000 1.0000
30.2400 1575.0000 1.0000
30.2500 1496.0000 1.0000
30.2600 1484.0000 1.0000
30.2700 1445.0000 1.0000
30.2800 1479.0000 1.0000
30.2900 1506.0000 1.0000
30.3000 1447.0000 1.0000
30.3100 1490.0000 1.0000
30.3200 1515.0000 1.0000
30.3300 1578.0000 1.0000
30.3400 1565.0000 1.0000
30.3500 1523.0000 1.0000
30.3600 1479.0000 1.0000
30.3700 1514.0000 1.0000
30.3800 1538.0000 1.0000
30.3900 1556.0000 1.0000
30.4000 1492.0000 1.0000
30.4100 1529.0000 1.0000
30.4200 1505.0000 1.0000
30.4300 1510.0000 1.0000
30.4400 1510.0000 1.0000
30.4500 1461.0000 1.0000
30.4600 1527.0000 1.0000
30.4700 1479.0000 1.0000
30.4800 1446.0000 1.0000
30.4900 1436.0000 1.0000
30.5000 1466.0000 1.0000
30.5100 1484.0000 1.0000
30.5200 1486.0000 1.0000
30.5300 1412.0000 1.0000
30.5400 1444.0000 1.0000
30.5500 1505.0000 1.0000
30.5600 1512.0000 1.0000
30.5700 1463.0000 1.0000
30.5800 1514.0000 1.0000
30.5900 1442.0000 1.0000
30.6000 1480.0000 1.0000
30.6100 1474.0000 1.0000
30.6200 1518.0000 1.0000
30.6300 1461.0000 1.0000
30.6400 1455.0000 1.0000
30.6500 1428.0000 1.0000
30.6600 1465.0000 1.0000
30.6700 1509.0000 1.0000
30.6800 1478.0000 1.0000
30.6900 1541.0000 1.0000
30.7000 1482.0000 1.0000
30.7100 1462.0000 1.0000
30.7200 1497.0000 1.0000
30.7300 1540.0000 1.0000
30.7400 1453.0000 1.0000
30.7500 1470.0000 1.0000
30.7600 1512.0000 1.0000
30.7700 1441.0000 1.0000
30.7800 1455.0000 1.0000
30.7900 1510.0000 1.0000
30.8000 1457.0000 1.0000
30.8100 1510.0000 1.0000
30.8200 1460.0000 1.0000
30.8300 1546.0000 1.0000
30.8400 1444.0000 1.0000
30.8500 1448.0000 1.0000
30.8600 1492.0000 1.0000
30.8700 1441.0000 1.0000
30.8800 1427.0000 1.0000
30.8900 1445.0000 1.0000
30.9000 1443.0000 1.0000
30.9100 1464.0000 1.0000
30.9200 1477.0000 1.0000
30.9300 1524.0000 1.0000
30.9400 1481.0000 1.0000
30.9500 1468.0000 1.0000
30.9600 1464.0000 1.0000
30.9700 1451.0000 1.0000
30.9800 1397.0000 1.0000
30.9900 1460.0000 1.0000
31.0000 1533.0000 1.0000
31.0100 1440.0000 1.0000
31.0200 1405.0000 1.0000
31.0300 1477.0000 1.0000
31.0400 1459.0000 1.0000
31.0500 1449.0000 1.0000
31.0600 1417.0000 1.0000
31.0700 1449.0000 1.0000
31.0800 1500.0000 1.0000
31.0900 1562.0000 1.0000
31.1000 1499.0000 1.0000
31.1100 1493.0000 1.0000
31.1200 1485.0000 1.0000
31.1300 1471.0000 1.0000
31.1400 1449.0000 1.0000
31.1500 1508.0000 1.0000
31.1600 1411.0000 1.0000
31.1700 1513.0000 1.0000
31.1800 1427.0000 1.0000
31.1900 1469.0000 1.0000
31.2000 1443.0000 1.0000
31.2100 1486.0000 1.0000
31.2200 1506.0000 1.0000
31.2300 1443.0000 1.0000
31.2400 1461.0000 1.0000
31.2500 1478.0000 1.0000
31.2600 1502.0000 1.0000
31.2700 1462.0000 1.0000
31.2800 1421.0000 1.0000
31.2900 1444.0000 1.0000
31.3000 1446.0000 1.0000
31.3100 1374.0000 1.0000
31.3200 1397.0000 1.0000
31.3300 1494.0000 1.0000
31.3400 1431.0000 1.0000
31.3500 1418.0000 1.0000
31.3600 1454.0000 1.0000
31.3700 1377.0000 1.0000
31.3800 1427.0000 1.0000
31.3900 1373.0000 1.0000
31.4000 1414.0000 1.0000
31.4100 1385.0000 1.0000
31.4200 1463.0000 1.0000
31.4300 1467.0000 1.0000
31.4400 1416.0000 1.0000
31.4500 1404.0000 1.0000
31.4600 1412.0000 1.0000
31.4700 1411.0000 1.0000
31.4800 1444.0000 1.0000
31.4900 1446.0000 1.0000
31.5000 1428.0000 1.0000
31.5100 1474.0000 1.0000
31.5200 1414.0000 1.0000
31.5300 1423.0000 1.0000
31.5400 1406.0000 1.0000
31.5500 1442.0000 1.0000
31.5600 1466.0000 1.0000
31.5700 1444.0000 1.0000
31.5800 1469.0000 1.0000
31.5900 1398.0000 1.0000
31.6000 1427.0000 1.0000
31.6100 1441.0000 1.0000
31.6200 1376.0000 1.0000
31.6300 1395.0000 1.0000
31.6400 1401.0000 1.0000
31.6500 1417.0000 1.0000
31.6600 1405.0000 1.0000
31.6700 1463.0000 1.0000
31.6800 1387.0000 1.0000
31.6900 1433.0000 1.0000
31.7000 1355.0000 1.0000
31.7100 1420.0000 1.0000
31.7200 1465.0000 1.0000
31.7300 1452.0000 1.0000
31.7400 1417.0000 1.0000
31.7500 1422.0000 1.0000
31.7600 1493.0000 1.0000
31.7700 1409.0000 1.0000
31.7800 1435.0000 1.0000
31.7900 1479.0000 1.0000
31.8000 1443.0000 1.0000
31.8100 1454.0000 1.0000
31.8200 1473.0000 1.0000
31.8300 1468.0000 1.0000
31.8400 1393.0000 1.0000
31.8500 1434.0000 1.0000
31.8600 1424.0000 1.0000
31.8700 1469.0000 1.0000
31.8800 1489.0000 1.0000
31.8900 1439.0000 1.0000
31.9000 1433.0000 1.0000
31.9100 1466.0000 1.0000
31.9200 1418.0000 1.0000
31.9300 1465.0000 1.0000
31.9400 1466.0000 1.0000
31.9500 1432.0000 1.0000
31.9600 1451.0000 1.0000
31.9700 1528.0000 1.0000
31.9800 1527.0000 1.0000
31.9900 1448.0000 1.0000
32.0000 1436.0000 1.0000
32.0100 1473.0000 1.0000
32.0200 1406.0000 1.0000
32.0300 1433.0000 1.0000
32.0400 1440.0000 1.0000
32.0500 1429.0000 1.0000
32.0600 1452.0000 1.0000
32.0700 1425.0000 1.0000
32.0800 1380.0000 1.0000
32.0900 1468.0000 1.0000
32.1000 1419.0000 1.0000
32.1100 1428.0000 1.0000
32.1200 1420.0000 1.0000
32.1300 1432.0000 1.0000
32.1400 1397.0000 1.0000
32.1500 1445.0000 1.0000
32.1600 1442.0000 1.0000
32.1700 1394.0000 1.0000
32.1800 1401.0000 1.0000
32.1900 1410.0000 1.0000
32.2000 1469.0000 1.0000
32.2100 1381.0000 1.0000
32.2200 1402.0000 1.0000
32.2300 1377.0000 1.0000
32.2400 1434.0000 1.0000
32.2500 1423.0000 1.0000
32.2600 1401.0000 1.0000
32.2700 1456.0000 1.0000
32.2800 1420.0000 1.0000
32.2900 1447.0000 1.0000
32.3000 1437.0000 1.0000
32.3100 1349.0000 1.0000
32.3200 1417.0000 1.0000
32.3300 1461.0000 1.0000
32.3400 1377.0000 1.0000
32.3500 1444.0000 1.0000
32.3600 1396.0000 1.0000
32.3700 1357.0000 1.0000
32.3800 1367.0000 1.0000
32.3900 1340.0000 1.0000
32.4000 1424.0000 1.0000
32.4100 1415.0000 1.0000
32.4200 1411.0000 1.0000
32.4300 1420.0000 1.0000
32.4400 1403.0000 1.0000
32.4500 1404.0000 1.0000
32.4600 1379.0000 1.0000
32.4700 1359.0000 1.0000
32.4800 1412.0000 1.0000
32.4900 1381.0000 1.0000
32.5000 1323.0000 1.0000
32.5100 1344.0000 1.0000
32.5200 1371.0000 1.0000
32.5300 1365.0000 1.0000
32.5400 1447.0000 1.0000
32.5500 1392.0000 1.0000
32.5600 1420.0000 1.0000
32.5700 1373.0000 1.0000
32.5800 1373.0000 1.0000
32.5900 1331.0000 1.0000
32.6000 1353.0000 1.0000
32.6100 1405.0000 1.0000
32.6200 1378.0000 1.0000
32.6300 1344.0000 1.0000
32.6400 1313.0000 1.0000
32.6500 1332.0000 1.0000
32.6600 1380.0000 1.0000
32.6700 1376.0000 1.0000
32.6800 1343.0000 1.0000
32.6900 1331.0000 1.0000
32.7000 1382.0000 1.0000
32.7100 1363.0000 1.0000
32.7200 1471.0000 1.0000
32.7300 1364.0000 1.0000
32.7400 1338.0000 1.0000
32.7500 1388.0000 1.0000
32.7600 1400.0000 1.0000
32.7700 1368.0000 1.0000
32.7800 1357.0000 1.0000
32.7900 1406.0000 1.0000
32.8000 1395.0000 1.0000
32.8100 1336.0000 1.0000
32.8200 1354.0000 1.0000
32.8300 1357.0000 1.0000
32.8400 1372.0000 1.0000
32.8500 1385.0000 1.0000
32.8600 1403.0000 1.0000
32.8700 1309.0000 1.0000
32.8800 1387.0000 1.0000
32.8900 1372.0000 1.0000
32.9000 1377.0000 1.0000
32.9100 1420.0000 1.0000
32.9200 1337.0000 1.0000
32.9300 1314.0000 1.0000
32.9400 1376.0000 1.0000
32.9500 1335.0000 1.0000
32.9600 1394.0000 1.0000
32.9700 1371.0000 1.0000
32.9800 1421.0000 1.0000
32.9900 1392.0000 1.0000
33.0000 1387.0000 1.0000
33.0100 1396.0000 1.0000
33.0200 1345.0000 1.0000
33.0300 1315.0000 1.0000
33.0400 1348.0000 1.0000
33.0500 1351.0000 1.0000
33.0600 1320.0000 1.0000
33.0700 1338.0000 1.0000
33.0800 1420.0000 1.0000
33.0900 1418.0000 1.0000
33.1000 1345.0000 1.0000
33.1100 1338.0000 1.0000
33.1200 1346.0000 1.0000
33.1300 1317.0000 1.0000
33.1400 1356.0000 1.0000
33.1500 1357.0000 1.0000
33.1600 1374.0000 1.0000
33.1700 1328.0000 1.0000
33.1800 1321.0000 1.0000
33.1900 1344.0000 1.0000
33.2000 1364.0000 1.0000
33.2100 1357.0000 1.0000
33.2200 1379.0000 1.0000
33.2300 1359.0000 1.0000
33.2400 1361.0000 1.0000
33.2500 1332.0000 1.0000
33.2600 1301.0000 1.0000
33.2700 1288.0000 1.0000
33.2800 1397.0000 1.0000
33.2900 1328.0000 1.0000
33.3000 1361.0000 1.0000
33.3100 1320.0000 1.0000
33.3200 1311.0000 1.0000
33.3300 1337.0000 1.0000
33.3400 1305.0000 1.0000
33.3500 1392.0000 1.0000
33.3600 1345.0000 1.0000
33.3700 1311.0000 1.0000
33.3800 1336.0000 1.0000
33.3900 1359.0000 1.0000
33.4000 1368.0000 1.0000
33.4100 1383.0000 1.0000
33.4200 1313.0000 1.0000
33.4300 1367.0000 1.0000
33.4400 1326.0000 1.0000
33.4500 1287.0000 1.0000
33.4600 1351.0000 1.0000
33.4700 1268.0000 1.0000
33.4800 1369.0000 1.0000
33.4900 1341.0000 1.0000
33.5000 1310.0000 1.0000
33.5100 1274.0000 1.0000
33.5200 1329.0000 1.0000
33.5300 1319.0000 1.0000
33.5400 1342.0000 1.0000
33.5500 1363.0000 1.0000
33.5600 1390.0000 1.0000
33.5700 1316.0000 1.0000
33.5800 1315.0000 1.0000
33.5900 1342.0000 1.0000
33.6000 1315.0000 1.0000
33.6100 1354.0000 1.0000
33.6200 1341.0000 1.0000
33.6300 1346.0000 1.0000
33.6400 1339.0000 1.0000
33.6500 1330.0000 1.0000
33.6600 1386.0000 1.0000
33.6700 1368.0000 1.0000
33.6800 1334.0000 1.0000
33.6900 1360.0000 1.0000
33.7000 1412.0000 1.0000
33.7100 1380.0000 1.0000
33.7200 1306.0000 1.0000
33.7300 1342.0000 1.0000
33.7400 1412.0000 1.0000
33.7500 1395.0000 1.0000
33.7600 1444.0000 1.0000
33.7700 1371.0000 1.0000
33.7800 1347.0000 1.0000
33.7900 1382.0000 1.0000
33.8000 1439.0000 1.0000
33.8100 1436.0000 1.0000
33.8200 1413.0000 1.0000
33.8300 1438.0000 1.0000
33.8400 1445.0000 1.0000
33.8500 1405.0000 1.0000
33.8600 1392.0000 1.0000
33.8700 1475.0000 1.0000
33.8800 1501.0000 1.0000
33.8900 1505.0000 1.0000
33.9000 1511.0000 1.0000
33.9100 1502.0000 1.0000
33.9200 1501.0000 1.0000
33.9300 1529.0000 1.0000
33.9400 1480.0000 1.0000
33.9500 1463.0000 1.0000
33.9600 1457.0000 1.0000
33.9700 1478.0000 1.0000
33.9800 1445.0000 1.0000
33.9900 1507.0000 1.0000
34.0000 1518.0000 1.0000
34.0100 1490.0000 1.0000
34.0200 1485.0000 1.0000
34.0300 1560.0000 1.0000
34.0400 1504.0000 1.0000
34.0500 1466.0000 1.0000
34.0600 1471.0000 1.0000
34.0700 1499.0000 1.0000
34.0800 1428.0000 1.0000
34.0900 1426.0000 1.0000
34.1000 1467.0000 1.0000
34.1100 1416.0000 1.0000
34.1200 1514.0000 1.0000
34.1300 1545.0000 1.0000
34.1400 1490.0000 1.0000
34.1500 1493.0000 1.0000
34.1600 1470.0000 1.0000
34.1700 1487.0000 1.0000
34.1800 1491.0000 1.0000
34.1900 1528.0000 1.0000
34.2000 1549.0000 1.0000
34.2100 1650.0000 1.0000
34.2200 1564.0000 1.0000
34.2300 1608.0000 1.0000
34.2400 1594.0000 1.0000
34.2500 1644.0000 1.0000
34.2600 1619.0000 1.0000
34.2700 1653.0000 1.0000
34.2800 1698.0000 1.0000
34.2900 1724.0000 1.0000
34.3000 1761.0000 1.0000
34.3100 1760.0000 1.0000
34.3200 1883.0000 1.0000
34.3300 1846.0000 1.0000
34.3400 1953.0000 1.0000
34.3500 2015.0000 1.0000
34.3600 2131.0000 1.0000
34.3700 2196.0000 1.0000
34.3800 2221.0000 1.0000
34.3900 2259.0000 1.0000
34.4000 2320.0000 1.0000
34.4100 2374.0000 1.0000
34.4200 2550.0000 1.0000
34.4300 2574.0000 1.0000
34.4400 2761.0000 1.0000
34.4500 2838.0000 1.0000
34.4600 2881.0000 1.0000
34.4700 2889.0000 1.0000
34.4800 2945.0000 1.0000
34.4900 2951.0000 1.0000
34.5000 3011.0000 1.0000
34.5100 3034.0000 1.0000
34.5200 2984.0000 1.0000
34.5300 3070.0000 1.0000
34.5400 2888.0000 1.0000
34.5500 2869.0000 1.0000
34.5600 2884.0000 1.0000
34.5700 2841.0000 1.0000
34.5800 2647.0000 1.0000
34.5900 2563.0000 1.0000
34.6000 2585.0000 1.0000
34.6100 2412.0000 1.0000
34.6200 2386.0000 1.0000
34.6300 2320.0000 1.0000
34.6400 2209.0000 1.0000
34.6500 2146.0000 1.0000
34.6600 2048.0000 1.0000
34.6700 1984.0000 1.0000
34.6800 1896.0000 1.0000
34.6900 1862.0000 1.0000
34.7000 1883.0000 1.0000
34.7100 1789.0000 1.0000
34.7200 1798.0000 1.0000
34.7300 1751.0000 1.0000
34.7400 1730.0000 1.0000
34.7500 1684.0000 1.0000
34.7600 1703.0000 1.0000
34.7700 1659.0000 1.0000
34.7800 1601.0000 1.0000
34.7900 1601.0000 1.0000
34.8000 1684.0000 1.0000
34.8100 1607.0000 1.0000
34.8200 1535.0000 1.0000
34.8300 1496.0000 1.0000
34.8400 1446.0000 1.0000
34.8500 1481.0000 1.0000
34.8600 1496.0000 1.0000
34.8700 1473.0000 1.0000
34.8800 1431.0000 1.0000
34.8900 1404.0000 1.0000
34.9000 1405.0000 1.0000
34.9100 1408.0000 1.0000
34.9200 1323.0000 1.0000
34.9300 1362.0000 1.0000
34.9400 1361.0000 1.0000
34.9500 1347.0000 1.0000
34.9600 1373.0000 1.0000
34.9700 1366.0000 1.0000
34.9800 1343.0000 1.0000
34.9900 1335.0000 1.0000
35.0000 1344.0000 1.0000
35.0100 1332.0000 1.0000
35.0200 1262.0000 1.0000
35.0300 1266.0000 1.0000
35.0400 1292.0000 1.0000
35.0500 1302.0000 1.0000
35.0600 1261.0000 1.0000
35.0700 1283.0000 1.0000
35.0800 1297.0000 1.0000
35.0900 1264.0000 1.0000
35.1000 1261.0000 1.0000
35.1100 1328.0000 1.0000
35.1200 1297.0000 1.0000
35.1300 1238.0000 1.0000
35.1400 1271.0000 1.0000
35.1500 1258.0000 1.0000
35.1600 1293.0000 1.0000
35.1700 1264.0000 1.0000
35.1800 1311.0000 1.0000
35.1900 1277.0000 1.0000
35.2000 1229.0000 1.0000
35.2100 1202.0000 1.0000
35.2200 1262.0000 1.0000
35.2300 1237.0000 1.0000
35.2400 1231.0000 1.0000
35.2500 1245.0000 1.0000
35.2600 1186.0000 1.0000
35.2700 1191.0000 1.0000
35.2800 1263.0000 1.0000
35.2900 1245.0000 1.0000
35.3000 1218.0000 1.0000
35.3100 1203.0000 1.0000
35.3200 1222.0000 1.0000
35.3300 1199.0000 1.0000
35.3400 1187.0000 1.0000
35.3500 1229.0000 1.0000
35.3600 1189.0000 1.0000
35.3700 1170.0000 1.0000
35.3800 1164.0000 1.0000
35.3900 1199.0000 1.0000
35.4000 1216.0000 1.0000
35.4100 1216.0000 1.0000
35.4200 1190.0000 1.0000
35.4300 1129.0000 1.0000
35.4400 1199.0000 1.0000
35.4500 1195.0000 1.0000
35.4600 1197.0000 1.0000
35.4700 1213.0000 1.0000
35.4800 1183.0000 1.0000
35.4900 1191.0000 1.0000
35.5000 1201.0000 1.0000
35.5100 1124.0000 1.0000
35.5200 1143.0000 1.0000
35.5300 1125.0000 1.0000
35.5400 1209.0000 1.0000
35.5500 1146.0000 1.0000
35.5600 1156.0000 1.0000
35.5700 1171.0000 1.0000
35.5800 1241.0000 1.0000
35.5900 1208.0000 1.0000
35.6000 1158.0000 1.0000
35.6100 1204.0000 1.0000
35.6200 1146.0000 1.0000
35.6300 1120.0000 1.0000
35.6400 1226.0000 1.0000
35.6500 1145.0000 1.0000
35.6600 1179.0000 1.0000
35.6700 1139.0000 1.0000
35.6800 1127.0000 1.0000
35.6900 1151.0000 1.0000
35.7000 1208.0000 1.0000
35.7100 1143.0000 1.0000
35.7200 1160.0000 1.0000
35.7300 1174.0000 1.0000
35.7400 1199.0000 1.0000
35.7500 1105.0000 1.0000
35.7600 1148.0000 1.0000
35.7700 1147.0000 1.0000
35.7800 1153.0000 1.0000
35.7900 1179.0000 1.0000
35.8000 1136.0000 1.0000
35.8100 1150.0000 1.0000
35.8200 1163.0000 1.0000
35.8300 1114.0000 1.0000
35.8400 1095.0000 1.0000
35.8500 1076.0000 1.0000
35.8600 1106.0000 1.0000
35.8700 1123.0000 1.0000
35.8800 1143.0000 1.0000
35.8900 1113.0000 1.0000
35.9000 1128.0000 1.0000
35.9100 1126.0000 1.0000
35.9200 1156.0000 1.0000
35.9300 1152.0000 1.0000
35.9400 1181.0000 1.0000
35.9500 1141.0000 1.0000
35.9600 1088.0000 1.0000
35.9700 1166.0000 1.0000
35.9800 1123.0000 1.0000
35.9900 1119.0000 1.0000
36.0000 1144.0000 1.0000
36.0100 1173.0000 1.0000
36.0200 1191.0000 1.0000
36.0300 1126.0000 1.0000
36.0400 1154.0000 1.0000
36.0500 1128.0000 1.0000
36.0600 1204.0000 1.0000
36.0700 1141.0000 1.0000
36.0800 1136.0000 1.0000
36.0900 1211.0000 1.0000
36.1000 1166.0000 1.0000
36.1100 1215.0000 1.0000
36.1200 1164.0000 1.0000
36.1300 1219.0000 1.0000
36.1400 1202.0000 1.0000
36.1500 1149.0000 1.0000
36.1600 1261.0000 1.0000
36.1700 1266.0000 1.0000
36.1800 1317.0000 1.0000
36.1900 1303.0000 1.0000
36.2000 1237.0000 1.0000
36.2100 1274.0000 1.0000
36.2200 1324.0000 1.0000
36.2300 1320.0000 1.0000
36.2400 1316.0000 1.0000
36.2500 1260.0000 1.0000
36.2600 1386.0000 1.0000
36.2700 1443.0000 1.0000
36.2800 1395.0000 1.0000
36.2900 1493.0000 1.0000
36.3000 1564.0000 1.0000
36.3100 1630.0000 1.0000
36.3200 1664.0000 1.0000
36.3300 1774.0000 1.0000
36.3400 1863.0000 1.0000
36.3500 1856.0000 1.0000
36.3600 1946.0000 1.0000
36.3700 1960.0000 1.0000
36.3800 1981.0000 1.0000
36.3900 2078.0000 1.0000
36.4000 2072.0000 1.0000
36.4100 2194.0000 1.0000
36.4200 2176.0000 1.0000
36.4300 2229.0000 1.0000
36.4400 2150.0000 1.0000
36.4500 2128.0000 1.0000
36.4600 2023.0000 1.0000
36.4700 1987.0000 1.0000
36.4800 1920.0000 1.0000
36.4900 1865.0000 1.0000
36.5000 1831.0000 1.0000
36.5100 1760.0000 1.0000
36.5200 1679.0000 1.0000
36.5300 1612.0000 1.0000
36.5400 1542.0000 1.0000
36.5500 1530.0000 1.0000
36.5600 1473.0000 1.0000
36.5700 1462.0000 1.0000
36.5800 1367.0000 1.0000
36.5900 1334.0000 1.0000
36.6000 1256.0000 1.0000
36.6100 1300.0000 1.0000
36.6200 1264.0000 1.0000
36.6300 1242.0000 1.0000
36.6400 1237.0000 1.0000
36.6500 1161.0000 1.0000
36.6600 1219.0000 1.0000
36.6700 1159.0000 1.0000
36.6800 1127.0000 1.0000
36.6900 1152.0000 1.0000
36.7000 1138.0000 1.0000
36.7100 1109.0000 1.0000
36.7200 1100.0000 1.0000
36.7300 1109.0000 1.0000
36.7400 1043.0000 1.0000
36.7500 1115.0000 1.0000
36.7600 1141.0000 1.0000
36.7700 1064.0000 1.0000
36.7800 1115.0000 1.0000
36.7900 1134.0000 1.0000
36.8000 1115.0000 1.0000
36.8100 1083.0000 1.0000
36.8200 1025.0000 1.0000
36.8300 1054.0000 1.0000
36.8400 999.0000 1.0000
36.8500 1033.0000 1.0000
36.8600 1075.0000 1.0000
36.8700 1074.0000 1.0000
36.8800 1053.0000 1.0000
36.8900 1069.0000 1.0000
36.9000 1078.0000 1.0000
36.9100 1052.0000 1.0000
36.9200 1095.0000 1.0000
36.9300 1066.0000 1.0000
36.9400 1075.0000 1.0000
36.9500 1064.0000 1.0000
36.9600 1105.0000 1.0000
36.9700 1089.0000 1.0000
36.9800 1056.0000 1.0000
36.9900 1020.0000 1.0000
37.0000 1096.0000 1.0000
37.0100 1082.0000 1.0000
37.0200 1100.0000 1.0000
37.0300 1044.0000 1.0000
37.0400 1030.0000 1.0000
37.0500 1063.0000 1.0000
37.0600 1045.0000 1.0000
37.0700 1069.0000 1.0000
37.0800 1092.0000 1.0000
37.0900 1036.0000 1.0000
37.1000 1109.0000 1.0000
37.1100 1099.0000 1.0000
37.1200 1032.0000 1.0000
37.1300 1035.0000 1.0000
37.1400 1067.0000 1.0000
37.1500 1047.0000 1.0000
37.1600 1077.0000 1.0000
37.1700 1066.0000 1.0000
37.1800 1088.0000 1.0000
37.1900 1065.0000 1.0000
37.2000 1067.0000 1.0000
37.2100 1041.0000 1.0000
37.2200 1079.0000 1.0000
37.2300 1009.0000 1.0000
37.2400 1039.0000 1.0000
37.2500 1104.0000 1.0000
37.2600 1062.0000 1.0000
37.2700 1068.0000 1.0000
37.2800 1047.0000 1.0000
37.2900 1026.0000 1.0000
37.3000 1134.0000 1.0000
37.3100 1079.0000 1.0000
37.3200 1052.0000 1.0000
37.3300 1129.0000 1.0000
37.3400 1055.0000 1.0000
37.3500 1048.0000 1.0000
37.3600 1060.0000 1.0000
37.3700 1064.0000 1.0000
37.3800 1061.0000 1.0000
37.3900 1094.0000 1.0000
37.4000 1068.0000 1.0000
37.4100 1081.0000 1.0000
37.4200 1073.0000 1.0000
37.4300 1063.0000 1.0000
37.4400 1053.0000 1.0000
37.4500 1073.0000 1.0000
37.4600 1041.0000 1.0000
37.4700 1064.0000 1.0000
37.4800 1012.0000 1.0000
37.4900 1097.0000 1.0000
37.5000 1052.0000 1.0000
37.5100 1048.0000 1.0000
37.5200 1072.0000 1.0000
37.5300 1075.0000 1.0000
37.5400 1038.0000 1.0000
37.5500 1027.0000 1.0000
37.5600 1037.0000 1.0000
37.5700 1088.0000 1.0000
37.5800 1061.0000 1.0000
37.5900 1095.0000 1.0000
37.6000 1051.0000 1.0000
37.6100 1068.0000 1.0000
37.6200 1089.0000 1.0000
37.6300 1069.0000 1.0000
37.6400 1050.0000 1.0000
37.6500 1033.0000 1.0000
37.6600 1073.0000 1.0000
37.6700 1072.0000 1.0000
37.6800 1055.0000 1.0000
37.6900 1118.0000 1.0000
37.7000 1075.0000 1.0000
37.7100 1103.0000 1.0000
37.7200 1046.0000 1.0000
37.7300 992.0000 1.0000
37.7400 1066.0000 1.0000
37.7500 1093.0000 1.0000
37.7600 1074.0000 1.0000
37.7700 1034.0000 1.0000
37.7800 1077.0000 1.0000
37.7900 1114.0000 1.0000
37.8000 1046.0000 1.0000
37.8100 991.0000 1.0000
37.8200 1031.0000 1.0000
37.8300 1084.0000 1.0000
37.8400 1084.0000 1.0000
37.8500 1047.0000 1.0000
37.8600 1098.0000 1.0000
37.8700 1061.0000 1.0000
37.8800 1081.0000 1.0000
37.8900 1059.0000 1.0000
37.9000 1135.0000 1.0000
37.9100 1078.0000 1.0000
37.9200 1070.0000 1.0000
37.9300 1093.0000 1.0000
37.9400 1134.0000 1.0000
37.9500 1127.0000 1.0000
37.9600 1102.0000 1.0000
37.9700 1114.0000 1.0000
37.9800 1097.0000 1.0000
37.9900 1139.0000 1.0000
38.0000 1189.0000 1.0000
38.0100 1183.0000 1.0000
38.0200 1120.0000 1.0000
38.0300 1121.0000 1.0000
38.0400 1136.0000 1.0000
38.0500 1160.0000 1.0000
38.0600 1128.0000 1.0000
38.0700 1133.0000 1.0000
38.0800 1224.0000 1.0000
38.0900 1212.0000 1.0000
38.1000 1212.0000 1.0000
38.1100 1206.0000 1.0000
38.1200 1262.0000 1.0000
38.1300 1292.0000 1.0000
38.1400 1228.0000 1.0000
38.1500 1332.0000 1.0000
38.1600 1385.0000 1.0000
38.1700 1377.0000 1.0000
38.1800 1383.0000 1.0000
38.1900 1371.0000 1.0000
38.2000 1425.0000 1.0000
38.2100 1519.0000 1.0000
38.2200 1517.0000 1.0000
38.2300 1552.0000 1.0000
38.2400 1617.0000 1.0000
38.2500 1674.0000 1.0000
38.2600 1718.0000 1.0000
38.2700 1802.0000 1.0000
38.2800 1854.0000 1.0000
38.2900 1924.0000 1.0000
38.3000 1948.0000 1.0000
38.3100 1971.0000 1.0000
38.3200 2127.0000 1.0000
38.3300 2306.0000 1.0000
38.3400 2417.0000 1.0000
38.3500 2563.0000 1.0000
38.3600 2671.0000 1.0000
38.3700 2758.0000 1.0000
38.3800 2994.0000 1.0000
38.3900 3182.0000 1.0000
38.4000 3340.0000 1.0000
38.4100 3652.0000 1.0000
38.4200 3929.0000 1.0000
38.4300 4209.0000 1.0000
38.4400 4427.0000 1.0000
38.4500 4768.0000 1.0000
38.4600 5000.0000 1.0000
38.4700 5438.0000 1.0000
38.4800 5728.0000 1.0000
38.4900 6052.0000 1.0000
38.5000 6417.0000 1.0000
38.5100 6883.0000 1.0000
38.5200 6932.0000 1.0000
38.5300 7020.0000 1.0000
38.5400 7114.0000 1.0000
38.5500 7354.0000 1.0000
38.5600 7425.0000 1.0000
38.5700 7359.0000 1.0000
38.5800 7124.0000 1.0000
38.5900 7138.0000 1.0000
38.6000 6910.0000 1.0000
38.6100 6685.0000 1.0000
38.6200 6517.0000 1.0000
38.6300 6267.0000 1.0000
38.6400 5999.0000 1.0000
38.6500 5610.0000 1.0000
38.6600 5296.0000 1.0000
38.6700 5094.0000 1.0000
38.6800 4745.0000 1.0000
38.6900 4450.0000 1.0000
38.7000 4147.0000 1.0000
38.7100 3898.0000 1.0000
38.7200 3577.0000 1.0000
38.7300 3424.0000 1.0000
38.7400 3195.0000 1.0000
38.7500 2893.0000 1.0000
38.7600 2761.0000 1.0000
38.7700 2625.0000 1.0000
38.7800 2592.0000 1.0000
38.7900 2362.0000 1.0000
38.8000 2211.0000 1.0000
38.8100 2157.0000 1.0000
38.8200 1928.0000 1.0000
38.8300 1930.0000 1.0000
38.8400 1794.0000 1.0000
38.8500 1724.0000 1.0000
38.8600 1683.0000 1.0000
38.8700 1639.0000 1.0000
38.8800 1548.0000 1.0000
38.8900 1479.0000 1.0000
38.9000 1475.0000 1.0000
38.9100 1431.0000 1.0000
38.9200 1363.0000 1.0000
38.9300 1316.0000 1.0000
38.9400 1340.0000 1.0000
38.9500 1236.0000 1.0000
38.9600 1275.0000 1.0000
38.9700 1274.0000 1.0000
38.9800 1263.0000 1.0000
38.9900 1170.0000 1.0000
39.0000 1186.0000 1.0000
39.0100 1194.0000 1.0000
39.0200 1181.0000 1.0000
39.0300 1203.0000 1.0000
39.0400 1143.0000 1.0000
39.0500 1129.0000 1.0000
39.0600 1130.0000 1.0000
39.0700 1069.0000 1.0000
39.0800 1078.0000 1.0000
39.0900 1072.0000 1.0000
39.1000 1082.0000 1.0000
39.1100 1025.0000 1.0000
39.1200 1057.0000 1.0000
39.1300 1024.0000 1.0000
39.1400 1062.0000 1.0000
39.1500 1058.0000 1.0000
39.1600 1044.0000 1.0000
39.1700 985.0000 1.0000
39.1800 1051.0000 1.0000
39.1900 990.0000 1.0000
39.2000 1015.0000 1.0000
39.2100 1018.0000 1.0000
39.2200 1032.0000 1.0000
39.2300 986.0000 1.0000
39.2400 969.0000 1.0000
39.2500 972.0000 1.0000
39.2600 933.0000 1.0000
39.2700 1000.0000 1.0000
39.2800 1006.0000 1.0000
39.2900 994.0000 1.0000
39.3000 968.0000 1.0000
39.3100 969.0000 1.0000
39.3200 986.0000 1.0000
39.3300 972.0000 1.0000
39.3400 1004.0000 1.0000
39.3500 955.0000 1.0000
39.3600 943.0000 1.0000
39.3700 988.0000 1.0000
39.3800 948.0000 1.0000
39.3900 984.0000 1.0000
39.4000 966.0000 1.0000
39.4100 972.0000 1.0000
39.4200 973.0000 1.0000
39.4300 993.0000 1.0000
39.4400 958.0000 1.0000
39.4500 995.0000 1.0000
39.4600 958.0000 1.0000
39.4700 1010.0000 1.0000
39.4800 988.0000 1.0000
39.4900 994.0000 1.0000
39.5000 930.0000 1.0000
39.5100 998.0000 1.0000
39.5200 967.0000 1.0000
39.5300 1019.0000 1.0000
39.5400 944.0000 1.0000
39.5500 968.0000 1.0000
39.5600 1013.0000 1.0000
39.5700 1020.0000 1.0000
39.5800 988.0000 1.0000
39.5900 1000.0000 1.0000
39.6000 1012.0000 1.0000
39.6100 981.0000 1.0000
39.6200 981.0000 1.0000
39.6300 967.0000 1.0000
39.6400 977.0000 1.0000
39.6500 1015.0000 1.0000
39.6600 968.0000 1.0000
39.6700 996.0000 1.0000
39.6800 1010.0000 1.0000
39.6900 1011.0000 1.0000
39.7000 985.0000 1.0000
39.7100 1001.0000 1.0000
39.7200 955.0000 1.0000
39.7300 947.0000 1.0000
39.7400 938.0000 1.0000
39.7500 967.0000 1.0000
39.7600 985.0000 1.0000
39.7700 971.0000 1.0000
39.7800 958.0000 1.0000
39.7900 952.0000 1.0000
39.8000 924.0000 1.0000
39.8100 960.0000 1.0000
39.8200 937.0000 1.0000
39.8300 938.0000 1.0000
39.8400 894.0000 1.0000
39.8500 934.0000 1.0000
39.8600 962.0000 1.0000
39.8700 944.0000 1.0000
39.8800 961.0000 1.0000
39.8900 958.0000 1.0000
39.9000 934.0000 1.0000
39.9100 908.0000 1.0000
39.9200 965.0000 1.0000
39.9300 977.0000 1.0000
39.9400 884.0000 1.0000
39.9500 924.0000 1.0000
39.9600 919.0000 1.0000
39.9700 919.0000 1.0000
39.9800 912.0000 1.0000
39.9900 897.0000 1.0000
40.0000 907.0000 1.0000
40.0100 896.0000 1.0000
40.0200 963.0000 1.0000
40.0300 913.0000 1.0000
40.0400 904.0000 1.0000
40.0500 898.0000 1.0000
40.0600 894.0000 1.0000
40.0700 847.0000 1.0000
40.0800 886.0000 1.0000
40.0900 927.0000 1.0000
40.1000 882.0000 1.0000
40.1100 887.0000 1.0000
40.1200 917.0000 1.0000
40.1300 889.0000 1.0000
40.1400 893.0000 1.0000
40.1500 913.0000 1.0000
40.1600 891.0000 1.0000
40.1700 914.0000 1.0000
40.1800 906.0000 1.0000
40.1900 926.0000 1.0000
40.2000 882.0000 1.0000
40.2100 890.0000 1.0000
40.2200 866.0000 1.0000
40.2300 856.0000 1.0000
40.2400 861.0000 1.0000
40.2500 860.0000 1.0000
40.2600 949.0000 1.0000
40.2700 906.0000 1.0000
40.2800 923.0000 1.0000
40.2900 909.0000 1.0000
40.3000 913.0000 1.0000
40.3100 877.0000 1.0000
40.3200 930.0000 1.0000
40.3300 948.0000 1.0000
40.3400 895.0000 1.0000
40.3500 914.0000 1.0000
40.3600 893.0000 1.0000
40.3700 874.0000 1.0000
40.3800 916.0000 1.0000
40.3900 929.0000 1.0000
40.4000 884.0000 1.0000
40.4100 864.0000 1.0000
40.4200 846.0000 1.0000
40.4300 892.0000 1.0000
40.4400 873.0000 1.0000
40.4500 831.0000 1.0000
40.4600 870.0000 1.0000
40.4700 882.0000 1.0000
40.4800 877.0000 1.0000
40.4900 848.0000 1.0000
40.5000 842.0000 1.0000
40.5100 851.0000 1.0000
40.5200 814.0000 1.0000
40.5300 902.0000 1.0000
40.5400 894.0000 1.0000
40.5500 843.0000 1.0000
40.5600 845.0000 1.0000
40.5700 864.0000 1.0000
40.5800 884.0000 1.0000
40.5900 869.0000 1.0000
40.6000 902.0000 1.0000
40.6100 902.0000 1.0000
40.6200 875.0000 1.0000
40.6300 870.0000 1.0000
40.6400 861.0000 1.0000
40.6500 823.0000 1.0000
40.6600 845.0000 1.0000
40.6700 873.0000 1.0000
40.6800 880.0000 1.0000
40.6900 863.0000 1.0000
40.7000 906.0000 1.0000
40.7100 887.0000 1.0000
40.7200 882.0000 1.0000
40.7300 867.0000 1.0000
40.7400 910.0000 1.0000
40.7500 897.0000 1.0000
40.7600 913.0000 1.0000
40.7700 893.0000 1.0000
40.7800 942.0000 1.0000
40.7900 866.0000 1.0000
40.8000 868.0000 1.0000
40.8100 885.0000 1.0000
40.8200 864.0000 1.0000
40.8300 839.0000 1.0000
40.8400 883.0000 1.0000
40.8500 830.0000 1.0000
40.8600 863.0000 1.0000
40.8700 868.0000 1.0000
40.8800 850.0000 1.0000
40.8900 871.0000 1.0000
40.9000 839.0000 1.0000
40.9100 853.0000 1.0000
40.9200 865.0000 1.0000
40.9300 891.0000 1.0000
40.9400 889.0000 1.0000
40.9500 875.0000 1.0000
40.9600 869.0000 1.0000
40.9700 816.0000 1.0000
40.9800 888.0000 1.0000
40.9900 869.0000 1.0000
41.0000 876.0000 1.0000
41.0100 900.0000 1.0000
41.0200 869.0000 1.0000
41.0300 865.0000 1.0000
41.0400 848.0000 1.0000
41.0500 832.0000 1.0000
41.0600 864.0000 1.0000
41.0700 849.0000 1.0000
41.0800 865.0000 1.0000
41.0900 897.0000 1.0000
41.1000 868.0000 1.0000
41.1100 872.0000 1.0000
41.1200 866.0000 1.0000
41.1300 915.0000 1.0000
41.1400 879.0000 1.0000
41.1500 812.0000 1.0000
41.1600 840.0000 1.0000
41.1700 855.0000 1.0000
41.1800 851.0000 1.0000
41.1900 829.0000 1.0000
41.2000 909.0000 1.0000
41.2100 907.0000 1.0000
41.2200 879.0000 1.0000
41.2300 856.0000 1.0000
41.2400 845.0000 1.0000
41.2500 903.0000 1.0000
41.2600 884.0000 1.0000
41.2700 895.0000 1.0000
41.2800 854.0000 1.0000
41.2900 808.0000 1.0000
41.3000 855.0000 1.0000
41.3100 806.0000 1.0000
41.3200 851.0000 1.0000
41.3300 926.0000 1.0000
41.3400 847.0000 1.0000
41.3500 819.0000 1.0000
41.3600 866.0000 1.0000
41.3700 835.0000 1.0000
41.3800 867.0000 1.0000
41.3900 816.0000 1.0000
41.4000 843.0000 1.0000
41.4100 874.0000 1.0000
41.4200 854.0000 1.0000
41.4300 864.0000 1.0000
41.4400 858.0000 1.0000
41.4500 838.0000 1.0000
41.4600 836.0000 1.0000
41.4700 875.0000 1.0000
41.4800 873.0000 1.0000
41.4900 924.0000 1.0000
41.5000 840.0000 1.0000
41.5100 887.0000 1.0000
41.5200 888.0000 1.0000
41.5300 862.0000 1.0000
41.5400 896.0000 1.0000
41.5500 835.0000 1.0000
41.5600 872.0000 1.0000
41.5700 824.0000 1.0000
41.5800 853.0000 1.0000
41.5900 862.0000 1.0000
41.6000 883.0000 1.0000
41.6100 883.0000 1.0000
41.6200 849.0000 1.0000
41.6300 910.0000 1.0000
41.6400 888.0000 1.0000
41.6500 836.0000 1.0000
41.6600 874.0000 1.0000
41.6700 877.0000 1.0000
41.6800 889.0000 1.0000
41.6900 884.0000 1.0000
41.7000 840.0000 1.0000
41.7100 874.0000 1.0000
41.7200 864.0000 1.0000
41.7300 889.0000 1.0000
41.7400 872.0000 1.0000
41.7500 891.0000 1.0000
41.7600 830.0000 1.0000
41.7700 860.0000 1.0000
41.7800 817.0000 1.0000
41.7900 893.0000 1.0000
41.8000 927.0000 1.0000
41.8100 881.0000 1.0000
41.8200 901.0000 1.0000
41.8300 858.0000 1.0000
41.8400 844.0000 1.0000
41.8500 833.0000 1.0000
41.8600 838.0000 1.0000
41.8700 872.0000 1.0000
41.8800 845.0000 1.0000
41.8900 883.0000 1.0000
41.9000 841.0000 1.0000
41.9100 843.0000 1.0000
41.9200 821.0000 1.0000
41.9300 803.0000 1.0000
41.9400 806.0000 1.0000
41.9500 835.0000 1.0000
41.9600 872.0000 1.0000
41.9700 836.0000 1.0000
41.9800 848.0000 1.0000
41.9900 851.0000 1.0000
42.0000 883.0000 1.0000
42.0100 861.0000 1.0000
42.0200 866.0000 1.0000
42.0300 846.0000 1.0000
42.0400 876.0000 1.0000
42.0500 855.0000 1.0000
42.0600 816.0000 1.0000
42.0700 840.0000 1.0000
42.0800 855.0000 1.0000
42.0900 864.0000 1.0000
42.1000 866.0000 1.0000
42.1100 881.0000 1.0000
42.1200 805.0000 1.0000
42.1300 872.0000 1.0000
42.1400 850.0000 1.0000
42.1500 889.0000 1.0000
42.1600 822.0000 1.0000
42.1700 822.0000 1.0000
42.1800 855.0000 1.0000
42.1900 901.0000 1.0000
42.2000 857.0000 1.0000
42.2100 856.0000 1.0000
42.2200 840.0000 1.0000
42.2300 855.0000 1.0000
42.2400 891.0000 1.0000
42.2500 920.0000 1.0000
42.2600 848.0000 1.0000
42.2700 836.0000 1.0000
42.2800 865.0000 1.0000
42.2900 848.0000 1.0000
42.3000 846.0000 1.0000
42.3100 860.0000 1.0000
42.3200 826.0000 1.0000
42.3300 842.0000 1.0000
42.3400 879.0000 1.0000
42.3500 853.0000 1.0000
42.3600 868.0000 1.0000
42.3700 879.0000 1.0000
42.3800 876.0000 1.0000
42.3900 823.0000 1.0000
42.4000 822.0000 1.0000
42.4100 908.0000 1.0000
42.4200 900.0000 1.0000
42.4300 855.0000 1.0000
42.4400 853.0000 1.0000
42.4500 863.0000 1.0000
42.4600 834.0000 1.0000
42.4700 800.0000 1.0000
42.4800 840.0000 1.0000
42.4900 873.0000 1.0000
42.5000 828.0000 1.0000
42.5100 852.0000 1.0000
42.5200 869.0000 1.0000
42.5300 862.0000 1.0000
42.5400 798.0000 1.0000
42.5500 856.0000 1.0000
42.5600 856.0000 1.0000
42.5700 823.0000 1.0000
42.5800 842.0000 1.0000
42.5900 819.0000 1.0000
42.6000 814.0000 1.0000
42.6100 855.0000 1.0000
42.6200 844.0000 1.0000
42.6300 870.0000 1.0000
42.6400 859.0000 1.0000
42.6500 853.0000 1.0000
42.6600 812.0000 1.0000
42.6700 851.0000 1.0000
42.6800 894.0000 1.0000
42.6900 874.0000 1.0000
42.7000 860.0000 1.0000
42.7100 858.0000 1.0000
42.7200 821.0000 1.0000
42.7300 858.0000 1.0000
42.7400 834.0000 1.0000
42.7500 866.0000 1.0000
42.7600 809.0000 1.0000
42.7700 826.0000 1.0000
42.7800 876.0000 1.0000
42.7900 872.0000 1.0000
42.8000 856.0000 1.0000
42.8100 853.0000 1.0000
42.8200 849.0000 1.0000
42.8300 797.0000 1.0000
42.8400 819.0000 1.0000
42.8500 838.0000 1.0000
42.8600 915.0000 1.0000
42.8700 863.0000 1.0000
42.8800 830.0000 1.0000
42.8900 867.0000 1.0000
42.9000 845.0000 1.0000
42.9100 873.0000 1.0000
42.9200 865.0000 1.0000
42.9300 883.0000 1.0000
42.9400 824.0000 1.0000
42.9500 848.0000 1.0000
42.9600 854.0000 1.0000
42.9700 837.0000 1.0000
42.9800 840.0000 1.0000
42.9900 792.0000 1.0000
43.0000 875.0000 1.0000
43.0100 861.0000 1.0000
43.0200 877.0000 1.0000
43.0300 891.0000 1.0000
43.0400 859.0000 1.0000
43.0500 820.0000 1.0000
43.0600 880.0000 1.0000
43.0700 924.0000 1.0000
43.0800 856.0000 1.0000
43.0900 898.0000 1.0000
43.1000 871.0000 1.0000
43.1100 863.0000 1.0000
43.1200 851.0000 1.0000
43.1300 919.0000 1.0000
43.1400 878.0000 1.0000
43.1500 876.0000 1.0000
43.1600 907.0000 1.0000
43.1700 915.0000 1.0000
43.1800 965.0000 1.0000
43.1900 959.0000 1.0000
43.2000 936.0000 1.0000
43.2100 920.0000 1.0000
43.2200 886.0000 1.0000
43.2300 897.0000 1.0000
43.2400 902.0000 1.0000
43.2500 896.0000 1.0000
43.2600 894.0000 1.0000
43.2700 891.0000 1.0000
43.2800 950.0000 1.0000
43.2900 910.0000 1.0000
43.3000 975.0000 1.0000
43.3100 942.0000 1.0000
43.3200 921.0000 1.0000
43.3300 940.0000 1.0000
43.3400 883.0000 1.0000
43.3500 873.0000 1.0000
43.3600 942.0000 1.0000
43.3700 895.0000 1.0000
43.3800 864.0000 1.0000
43.3900 881.0000 1.0000
43.4000 880.0000 1.0000
43.4100 867.0000 1.0000
43.4200 838.0000 1.0000
43.4300 835.0000 1.0000
43.4400 849.0000 1.0000
43.4500 838.0000 1.0000
43.4600 845.0000 1.0000
43.4700 839.0000 1.0000
43.4800 862.0000 1.0000
43.4900 853.0000 1.0000
43.5000 834.0000 1.0000
43.5100 827.0000 1.0000
43.5200 819.0000 1.0000
43.5300 839.0000 1.0000
43.5400 858.0000 1.0000
43.5500 834.0000 1.0000
43.5600 835.0000 1.0000
43.5700 863.0000 1.0000
43.5800 838.0000 1.0000
43.5900 851.0000 1.0000
43.6000 855.0000 1.0000
43.6100 819.0000 1.0000
43.6200 837.0000 1.0000
43.6300 880.0000 1.0000
43.6400 791.0000 1.0000
43.6500 797.0000 1.0000
43.6600 849.0000 1.0000
43.6700 798.0000 1.0000
43.6800 838.0000 1.0000
43.6900 857.0000 1.0000
43.7000 811.0000 1.0000
43.7100 827.0000 1.0000
43.7200 827.0000 1.0000
43.7300 863.0000 1.0000
43.7400 843.0000 1.0000
43.7500 876.0000 1.0000
43.7600 840.0000 1.0000
43.7700 837.0000 1.0000
43.7800 855.0000 1.0000
43.7900 794.0000 1.0000
43.8000 836.0000 1.0000
43.8100 843.0000 1.0000
43.8200 794.0000 1.0000
43.8300 779.0000 1.0000
43.8400 794.0000 1.0000
43.8500 808.0000 1.0000
43.8600 823.0000 1.0000
43.8700 858.0000 1.0000
43.8800 802.0000 1.0000
43.8900 830.0000 1.0000
43.9000 877.0000 1.0000
43.9100 881.0000 1.0000
43.9200 810.0000 1.0000
43.9300 789.0000 1.0000
43.9400 775.0000 1.0000
43.9500 814.0000 1.0000
43.9600 780.0000 1.0000
43.9700 785.0000 1.0000
43.9800 835.0000 1.0000
43.9900 831.0000 1.0000
44.0000 867.0000 1.0000
44.0100 826.0000 1.0000
44.0200 846.0000 1.0000
44.0300 786.0000 1.0000
44.0400 813.0000 1.0000
44.0500 850.0000 1.0000
44.0600 837.0000 1.0000
44.0700 787.0000 1.0000
44.0800 808.0000 1.0000
44.0900 848.0000 1.0000
44.1000 880.0000 1.0000
44.1100 838.0000 1.0000
44.1200 817.0000 1.0000
44.1300 820.0000 1.0000
44.1400 828.0000 1.0000
44.1500 779.0000 1.0000
44.1600 801.0000 1.0000
44.1700 825.0000 1.0000
44.1800 819.0000 1.0000
44.1900 791.0000 1.0000
44.2000 798.0000 1.0000
44.2100 781.0000 1.0000
44.2200 796.0000 1.0000
44.2300 853.0000 1.0000
44.2400 823.0000 1.0000
44.2500 782.0000 1.0000
44.2600 824.0000 1.0000
44.2700 863.0000 1.0000
44.2800 845.0000 1.0000
44.2900 841.0000 1.0000
44.3000 846.0000 1.0000
44.3100 836.0000 1.0000
44.3200 823.0000 1.0000
44.3300 844.0000 1.0000
44.3400 849.0000 1.0000
44.3500 869.0000 1.0000
44.3600 891.0000 1.0000
44.3700 844.0000 1.0000
44.3800 827.0000 1.0000
44.3900 812.0000 1.0000
44.4000 834.0000 1.0000
44.4100 794.0000 1.0000
44.4200 816.0000 1.0000
44.4300 814.0000 1.0000
44.4400 819.0000 1.0000
44.4500 798.0000 1.0000
44.4600 830.0000 1.0000
44.4700 776.0000 1.0000
44.4800 816.0000 1.0000
44.4900 850.0000 1.0000
44.5000 817.0000 1.0000
44.5100 810.0000 1.0000
44.5200 810.0000 1.0000
44.5300 815.0000 1.0000
44.5400 806.0000 1.0000
44.5500 788.0000 1.0000
44.5600 843.0000 1.0000
44.5700 809.0000 1.0000
44.5800 784.0000 1.0000
44.5900 792.0000 1.0000
44.6000 787.0000 1.0000
44.6100 795.0000 1.0000
44.6200 807.0000 1.0000
44.6300 816.0000 1.0000
44.6400 829.0000 1.0000
44.6500 819.0000 1.0000
44.6600 788.0000 1.0000
44.6700 789.0000 1.0000
44.6800 810.0000 1.0000
44.6900 812.0000 1.0000
44.7000 816.0000 1.0000
44.7100 820.0000 1.0000
44.7200 812.0000 1.0000
44.7300 822.0000 1.0000
44.7400 802.0000 1.0000
44.7500 782.0000 1.0000
44.7600 791.0000 1.0000
44.7700 825.0000 1.0000
44.7800 804.0000 1.0000
44.7900 788.0000 1.0000
44.8000 820.0000 1.0000
44.8100 745.0000 1.0000
44.8200 824.0000 1.0000
44.8300 829.0000 1.0000
44.8400 780.0000 1.0000
44.8500 829.0000 1.0000
44.8600 824.0000 1.0000
44.8700 806.0000 1.0000
44.8800 777.0000 1.0000
44.8900 752.0000 1.0000
44.9000 800.0000 1.0000
44.9100 824.0000 1.0000
44.9200 797.0000 1.0000
44.9300 819.0000 1.0000
44.9400 765.0000 1.0000
44.9500 824.0000 1.0000
44.9600 788.0000 1.0000
44.9700 784.0000 1.0000
44.9800 794.0000 1.0000
44.9900 782.0000 1.0000
45.0000 780.0000 1.0000
45.0100 859.0000 1.0000
45.0200 827.0000 1.0000
45.0300 855.0000 1.0000
45.0400 819.0000 1.0000
45.0500 803.0000 1.0000
45.0600 812.0000 1.0000
45.0700 768.0000 1.0000
45.0800 770.0000 1.0000
45.0900 754.0000 1.0000
45.1000 796.0000 1.0000
45.1100 812.0000 1.0000
45.1200 780.0000 1.0000
45.1300 830.0000 1.0000
45.1400 802.0000 1.0000
45.1500 836.0000 1.0000
45.1600 800.0000 1.0000
45.1700 754.0000 1.0000
45.1800 790.0000 1.0000
45.1900 798.0000 1.0000
45.2000 785.0000 1.0000
45.2100 813.0000 1.0000
45.2200 790.0000 1.0000
45.2300 799.0000 1.0000
45.2400 792.0000 1.0000
45.2500 783.0000 1.0000
45.2600 771.0000 1.0000
45.2700 778.0000 1.0000
45.2800 766.0000 1.0000
45.2900 767.0000 1.0000
45.3000 826.0000 1.0000
45.3100 769.0000 1.0000
45.3200 814.0000 1.0000
45.3300 745.0000 1.0000
45.3400 795.0000 1.0000
45.3500 789.0000 1.0000
45.3600 788.0000 1.0000
45.3700 828.0000 1.0000
45.3800 767.0000 1.0000
45.3900 802.0000 1.0000
45.4000 805.0000 1.0000
45.4100 814.0000 1.0000
45.4200 805.0000 1.0000
45.4300 824.0000 1.0000
45.4400 739.0000 1.0000
45.4500 762.0000 1.0000
45.4600 809.0000 1.0000
45.4700 837.0000 1.0000
45.4800 796.0000 1.0000
45.4900 802.0000 1.0000
45.5000 764.0000 1.0000
45.5100 771.0000 1.0000
45.5200 786.0000 1.0000
45.5300 783.0000 1.0000
45.5400 793.0000 1.0000
45.5500 781.0000 1.0000
45.5600 783.0000 1.0000
45.5700 767.0000 1.0000
45.5800 761.0000 1.0000
45.5900 758.0000 1.0000
45.6000 814.0000 1.0000
45.6100 752.0000 1.0000
45.6200 803.0000 1.0000
45.6300 755.0000 1.0000
45.6400 755.0000 1.0000
45.6500 793.0000 1.0000
45.6600 818.0000 1.0000
45.6700 754.0000 1.0000
45.6800 740.0000 1.0000
45.6900 798.0000 1.0000
45.7000 812.0000 1.0000
45.7100 830.0000 1.0000
45.7200 766.0000 1.0000
45.7300 773.0000 1.0000
45.7400 766.0000 1.0000
45.7500 741.0000 1.0000
45.7600 752.0000 1.0000
45.7700 765.0000 1.0000
45.7800 769.0000 1.0000
45.7900 768.0000 1.0000
45.8000 740.0000 1.0000
45.8100 731.0000 1.0000
45.8200 757.0000 1.0000
45.8300 821.0000 1.0000
45.8400 775.0000 1.0000
45.8500 783.0000 1.0000
45.8600 785.0000 1.0000
45.8700 785.0000 1.0000
45.8800 747.0000 1.0000
45.8900 783.0000 1.0000
45.9000 779.0000 1.0000
45.9100 750.0000 1.0000
45.9200 809.0000 1.0000
45.9300 754.0000 1.0000
45.9400 818.0000 1.0000
45.9500 811.0000 1.0000
45.9600 769.0000 1.0000
45.9700 757.0000 1.0000
45.9800 798.0000 1.0000
45.9900 776.0000 1.0000
46.0000 772.0000 1.0000
46.0100 726.0000 1.0000
46.0200 794.0000 1.0000
46.0300 789.0000 1.0000
46.0400 785.0000 1.0000
46.0500 787.0000 1.0000
46.0600 787.0000 1.0000
46.0700 745.0000 1.0000
46.0800 779.0000 1.0000
46.0900 785.0000 1.0000
46.1000 740.0000 1.0000
46.1100 753.0000 1.0000
46.1200 750.0000 1.0000
46.1300 794.0000 1.0000
46.1400 790.0000 1.0000
46.1500 769.0000 1.0000
46.1600 775.0000 1.0000
46.1700 797.0000 1.0000
46.1800 790.0000 1.0000
46.1900 776.0000 1.0000
46.2000 761.0000 1.0000
46.2100 773.0000 1.0000
46.2200 826.0000 1.0000
46.2300 793.0000 1.0000
46.2400 769.0000 1.0000
46.2500 788.0000 1.0000
46.2600 726.0000 1.0000
46.2700 749.0000 1.0000
46.2800 728.0000 1.0000
46.2900 769.0000 1.0000
46.3000 774.0000 1.0000
46.3100 757.0000 1.0000
46.3200 783.0000 1.0000
46.3300 759.0000 1.0000
46.3400 757.0000 1.0000
46.3500 780.0000 1.0000
46.3600 792.0000 1.0000
46.3700 761.0000 1.0000
46.3800 765.0000 1.0000
46.3900 822.0000 1.0000
46.4000 767.0000 1.0000
46.4100 779.0000 1.0000
46.4200 738.0000 1.0000
46.4300 807.0000 1.0000
46.4400 785.0000 1.0000
46.4500 752.0000 1.0000
46.4600 695.0000 1.0000
46.4700 722.0000 1.0000
46.4800 751.0000 1.0000
46.4900 792.0000 1.0000
46.5000 808.0000 1.0000
46.5100 790.0000 1.0000
46.5200 748.0000 1.0000
46.5300 781.0000 1.0000
46.5400 746.0000 1.0000
46.5500 778.0000 1.0000
46.5600 784.0000 1.0000
46.5700 753.0000 1.0000
46.5800 775.0000 1.0000
46.5900 772.0000 1.0000
46.6000 796.0000 1.0000
46.6100 766.0000 1.0000
46.6200 730.0000 1.0000
46.6300 746.0000 1.0000
46.6400 808.0000 1.0000
46.6500 745.0000 1.0000
46.6600 763.0000 1.0000
46.6700 773.0000 1.0000
46.6800 764.0000 1.0000
46.6900 752.0000 1.0000
46.7000 772.0000 1.0000
46.7100 800.0000 1.0000
46.7200 752.0000 1.0000
46.7300 779.0000 1.0000
46.7400 709.0000 1.0000
46.7500 789.0000 1.0000
46.7600 732.0000 1.0000
46.7700 722.0000 1.0000
46.7800 740.0000 1.0000
46.7900 726.0000 1.0000
46.8000 741.0000 1.0000
46.8100 715.0000 1.0000
46.8200 743.0000 1.0000
46.8300 731.0000 1.0000
46.8400 781.0000 1.0000
46.8500 799.0000 1.0000
46.8600 780.0000 1.0000
46.8700 803.0000 1.0000
46.8800 799.0000 1.0000
46.8900 761.0000 1.0000
46.9000 787.0000 1.0000
46.9100 801.0000 1.0000
46.9200 810.0000 1.0000
46.9300 775.0000 1.0000
46.9400 775.0000 1.0000
46.9500 764.0000 1.0000
46.9600 781.0000 1.0000
46.9700 780.0000 1.0000
46.9800 794.0000 1.0000
46.9900 783.0000 1.0000
47.0000 723.0000 1.0000
47.0100 813.0000 1.0000
47.0200 793.0000 1.0000
47.0300 787.0000 1.0000
47.0400 818.0000 1.0000
47.0500 773.0000 1.0000
47.0600 758.0000 1.0000
47.0700 736.0000 1.0000
47.0800 787.0000 1.0000
47.0900 762.0000 1.0000
47.1000 740.0000 1.0000
47.1100 753.0000 1.0000
47.1200 738.0000 1.0000
47.1300 767.0000 1.0000
47.1400 753.0000 1.0000
47.1500 784.0000 1.0000
47.1600 745.0000 1.0000
47.1700 740.0000 1.0000
47.1800 780.0000 1.0000
47.1900 732.0000 1.0000
47.2000 754.0000 1.0000
47.2100 736.0000 1.0000
47.2200 725.0000 1.0000
47.2300 747.0000 1.0000
47.2400 782.0000 1.0000
47.2500 762.0000 1.0000
47.2600 744.0000 1.0000
47.2700 752.0000 1.0000
47.2800 728.0000 1.0000
47.2900 779.0000 1.0000
47.3000 768.0000 1.0000
47.3100 711.0000 1.0000
47.3200 740.0000 1.0000
47.3300 745.0000 1.0000
47.3400 782.0000 1.0000
47.3500 789.0000 1.0000
47.3600 761.0000 1.0000
47.3700 776.0000 1.0000
47.3800 745.0000 1.0000
47.3900 755.0000 1.0000
47.4000 742.0000 1.0000
47.4100 739.0000 1.0000
47.4200 768.0000 1.0000
47.4300 744.0000 1.0000
47.4400 758.0000 1.0000
47.4500 757.0000 1.0000
47.4600 739.0000 1.0000
47.4700 715.0000 1.0000
47.4800 697.0000 1.0000
47.4900 736.0000 1.0000
47.5000 777.0000 1.0000
47.5100 766.0000 1.0000
47.5200 766.0000 1.0000
47.5300 699.0000 1.0000
47.5400 753.0000 1.0000
47.5500 714.0000 1.0000
47.5600 741.0000 1.0000
47.5700 713.0000 1.0000
47.5800 742.0000 1.0000
47.5900 746.0000 1.0000
47.6000 738.0000 1.0000
47.6100 757.0000 1.0000
47.6200 760.0000 1.0000
47.6300 789.0000 1.0000
47.6400 706.0000 1.0000
47.6500 713.0000 1.0000
47.6600 735.0000 1.0000
47.6700 748.0000 1.0000
47.6800 730.0000 1.0000
47.6900 700.0000 1.0000
47.7000 715.0000 1.0000
47.7100 756.0000 1.0000
47.7200 782.0000 1.0000
47.7300 717.0000 1.0000
47.7400 709.0000 1.0000
47.7500 745.0000 1.0000
47.7600 723.0000 1.0000
47.7700 745.0000 1.0000
47.7800 767.0000 1.0000
47.7900 743.0000 1.0000
47.8000 738.0000 1.0000
47.8100 741.0000 1.0000
47.8200 743.0000 1.0000
47.8300 747.0000 1.0000
47.8400 737.0000 1.0000
47.8500 765.0000 1.0000
47.8600 765.0000 1.0000
47.8700 729.0000 1.0000
47.8800 740.0000 1.0000
47.8900 760.0000 1.0000
47.9000 760.0000 1.0000
47.9100 757.0000 1.0000
47.9200 744.0000 1.0000
47.9300 677.0000 1.0000
47.9400 757.0000 1.0000
47.9500 765.0000 1.0000
47.9600 730.0000 1.0000
47.9700 676.0000 1.0000
47.9800 734.0000 1.0000
47.9900 748.0000 1.0000
48.0000 724.0000 1.0000
48.0100 743.0000 1.0000
48.0200 691.0000 1.0000
48.0300 767.0000 1.0000
48.0400 770.0000 1.0000
48.0500 701.0000 1.0000
48.0600 733.0000 1.0000
48.0700 741.0000 1.0000
48.0800 758.0000 1.0000
48.0900 777.0000 1.0000
48.1000 728.0000 1.0000
48.1100 792.0000 1.0000
48.1200 783.0000 1.0000
48.1300 738.0000 1.0000
48.1400 702.0000 1.0000
48.1500 737.0000 1.0000
48.1600 729.0000 1.0000
48.1700 727.0000 1.0000
48.1800 699.0000 1.0000
48.1900 682.0000 1.0000
48.2000 720.0000 1.0000
48.2100 688.0000 1.0000
48.2200 728.0000 1.0000
48.2300 681.0000 1.0000
48.2400 744.0000 1.0000
48.2500 715.0000 1.0000
48.2600 722.0000 1.0000
48.2700 746.0000 1.0000
48.2800 724.0000 1.0000
48.2900 745.0000 1.0000
48.3000 729.0000 1.0000
48.3100 698.0000 1.0000
48.3200 718.0000 1.0000
48.3300 732.0000 1.0000
48.3400 730.0000 1.0000
48.3500 696.0000 1.0000
48.3600 720.0000 1.0000
48.3700 728.0000 1.0000
48.3800 716.0000 1.0000
48.3900 748.0000 1.0000
48.4000 749.0000 1.0000
48.4100 701.0000 1.0000
48.4200 710.0000 1.0000
48.4300 722.0000 1.0000
48.4400 711.0000 1.0000
48.4500 674.0000 1.0000
48.4600 699.0000 1.0000
48.4700 670.0000 1.0000
48.4800 697.0000 1.0000
48.4900 744.0000 1.0000
48.5000 706.0000 1.0000
48.5100 704.0000 1.0000
48.5200 708.0000 1.0000
48.5300 705.0000 1.0000
48.5400 709.0000 1.0000
48.5500 712.0000 1.0000
48.5600 720.0000 1.0000
48.5700 744.0000 1.0000
48.5800 701.0000 1.0000
48.5900 697.0000 1.0000
48.6000 721.0000 1.0000
48.6100 751.0000 1.0000
48.6200 701.0000 1.0000
48.6300 715.0000 1.0000
48.6400 712.0000 1.0000
48.6500 763.0000 1.0000
48.6600 699.0000 1.0000
48.6700 726.0000 1.0000
48.6800 710.0000 1.0000
48.6900 698.0000 1.0000
48.7000 703.0000 1.0000
48.7100 712.0000 1.0000
48.7200 720.0000 1.0000
48.7300 711.0000 1.0000
48.7400 708.0000 1.0000
48.7500 724.0000 1.0000
48.7600 715.0000 1.0000
48.7700 718.0000 1.0000
48.7800 706.0000 1.0000
48.7900 692.0000 1.0000
48.8000 751.0000 1.0000
48.8100 694.0000 1.0000
48.8200 726.0000 1.0000
48.8300 723.0000 1.0000
48.8400 735.0000 1.0000
48.8500 677.0000 1.0000
48.8600 697.0000 1.0000
48.8700 718.0000 1.0000
48.8800 708.0000 1.0000
48.8900 726.0000 1.0000
48.9000 732.0000 1.0000
48.9100 718.0000 1.0000
48.9200 707.0000 1.0000
48.9300 715.0000 1.0000
48.9400 731.0000 1.0000
48.9500 742.0000 1.0000
48.9600 716.0000 1.0000
48.9700 761.0000 1.0000
48.9800 732.0000 1.0000
48.9900 703.0000 1.0000
49.0000 702.0000 1.0000
49.0100 693.0000 1.0000
49.0200 695.0000 1.0000
49.0300 738.0000 1.0000
49.0400 698.0000 1.0000
49.0500 741.0000 1.0000
49.0600 671.0000 1.0000
49.0700 762.0000 1.0000
49.0800 697.0000 1.0000
49.0900 760.0000 1.0000
49.1000 721.0000 1.0000
49.1100 671.0000 1.0000
49.1200 693.0000 1.0000
49.1300 773.0000 1.0000
49.1400 714.0000 1.0000
49.1500 708.0000 1.0000
49.1600 677.0000 1.0000
49.1700 726.0000 1.0000
49.1800 719.0000 1.0000
49.1900 751.0000 1.0000
49.2000 727.0000 1.0000
49.2100 735.0000 1.0000
49.2200 757.0000 1.0000
49.2300 713.0000 1.0000
49.2400 749.0000 1.0000
49.2500 714.0000 1.0000
49.2600 707.0000 1.0000
49.2700 664.0000 1.0000
49.2800 731.0000 1.0000
49.2900 689.0000 1.0000
49.3000 717.0000 1.0000
49.3100 708.0000 1.0000
49.3200 712.0000 1.0000
49.3300 674.0000 1.0000
49.3400 720.0000 1.0000
49.3500 731.0000 1.0000
49.3600 736.0000 1.0000
49.3700 708.0000 1.0000
49.3800 733.0000 1.0000
49.3900 710.0000 1.0000
49.4000 752.0000 1.0000
49.4100 723.0000 1.0000
49.4200 723.0000 1.0000
49.4300 741.0000 1.0000
49.4400 732.0000 1.0000
49.4500 696.0000 1.0000
49.4600 746.0000 1.0000
49.4700 712.0000 1.0000
49.4800 730.0000 1.0000
49.4900 712.0000 1.0000
49.5000 665.0000 1.0000
49.5100 691.0000 1.0000
49.5200 714.0000 1.0000
49.5300 669.0000 1.0000
49.5400 726.0000 1.0000
49.5500 713.0000 1.0000
49.5600 714.0000 1.0000
49.5700 726.0000 1.0000
49.5800 708.0000 1.0000
49.5900 699.0000 1.0000
49.6000 715.0000 1.0000
49.6100 723.0000 1.0000
49.6200 714.0000 1.0000
49.6300 684.0000 1.0000
49.6400 759.0000 1.0000
49.6500 753.0000 1.0000
49.6600 757.0000 1.0000
49.6700 684.0000 1.0000
49.6800 711.0000 1.0000
49.6900 688.0000 1.0000
49.7000 709.0000 1.0000
49.7100 725.0000 1.0000
49.7200 683.0000 1.0000
49.7300 701.0000 1.0000
49.7400 737.0000 1.0000
49.7500 714.0000 1.0000
49.7600 697.0000 1.0000
49.7700 729.0000 1.0000
49.7800 761.0000 1.0000
49.7900 708.0000 1.0000
49.8000 693.0000 1.0000
49.8100 724.0000 1.0000
49.8200 702.0000 1.0000
49.8300 744.0000 1.0000
49.8400 726.0000 1.0000
49.8500 706.0000 1.0000
49.8600 692.0000 1.0000
49.8700 717.0000 1.0000
49.8800 727.0000 1.0000
49.8900 692.0000 1.0000
49.9000 676.0000 1.0000
49.9100 701.0000 1.0000
49.9200 709.0000 1.0000
49.9300 759.0000 1.0000
49.9400 736.0000 1.0000
49.9500 709.0000 1.0000
49.9600 751.0000 1.0000
49.9700 700.0000 1.0000
49.9800 725.0000 1.0000
49.9900 707.0000 1.0000
50.0000 726.0000 1.0000
50.0100 688.0000 1.0000
50.0200 721.0000 1.0000
50.0300 734.0000 1.0000
50.0400 752.0000 1.0000
50.0500 694.0000 1.0000
50.0600 693.0000 1.0000
50.0700 687.0000 1.0000
50.0800 711.0000 1.0000
50.0900 702.0000 1.0000
50.1000 713.0000 1.0000
50.1100 726.0000 1.0000
50.1200 768.0000 1.0000
50.1300 704.0000 1.0000
50.1400 718.0000 1.0000
50.1500 695.0000 1.0000
50.1600 745.0000 1.0000
50.1700 750.0000 1.0000
50.1800 706.0000 1.0000
50.1900 732.0000 1.0000
50.2000 755.0000 1.0000
50.2100 741.0000 1.0000
50.2200 736.0000 1.0000
50.2300 767.0000 1.0000
50.2400 805.0000 1.0000
50.2500 790.0000 1.0000
50.2600 742.0000 1.0000
50.2700 755.0000 1.0000
50.2800 764.0000 1.0000
50.2900 772.0000 1.0000
50.3000 753.0000 1.0000
50.3100 743.0000 1.0000
50.3200 734.0000 1.0000
50.3300 726.0000 1.0000
50.3400 739.0000 1.0000
50.3500 709.0000 1.0000
50.3600 744.0000 1.0000
50.3700 771.0000 1.0000
50.3800 730.0000 1.0000
50.3900 724.0000 1.0000
50.4000 728.0000 1.0000
50.4100 746.0000 1.0000
50.4200 761.0000 1.0000
50.4300 757.0000 1.0000
50.4400 733.0000 1.0000
50.4500 751.0000 1.0000
50.4600 761.0000 1.0000
50.4700 709.0000 1.0000
50.4800 700.0000 1.0000
50.4900 707.0000 1.0000
50.5000 742.0000 1.0000
50.5100 718.0000 1.0000
50.5200 776.0000 1.0000
50.5300 764.0000 1.0000
50.5400 733.0000 1.0000
50.5500 717.0000 1.0000
50.5600 763.0000 1.0000
50.5700 710.0000 1.0000
50.5800 742.0000 1.0000
50.5900 741.0000 1.0000
50.6000 765.0000 1.0000
50.6100 734.0000 1.0000
50.6200 704.0000 1.0000
50.6300 751.0000 1.0000
50.6400 731.0000 1.0000
50.6500 716.0000 1.0000
50.6600 771.0000 1.0000
50.6700 683.0000 1.0000
50.6800 675.0000 1.0000
50.6900 682.0000 1.0000
50.7000 721.0000 1.0000
50.7100 713.0000 1.0000
50.7200 691.0000 1.0000
50.7300 778.0000 1.0000
50.7400 784.0000 1.0000
50.7500 734.0000 1.0000
50.7600 743.0000 1.0000
50.7700 700.0000 1.0000
50.7800 693.0000 1.0000
50.7900 710.0000 1.0000
50.8000 720.0000 1.0000
50.8100 720.0000 1.0000
50.8200 681.0000 1.0000
50.8300 684.0000 1.0000
50.8400 732.0000 1.0000
50.8500 685.0000 1.0000
50.8600 734.0000 1.0000
50.8700 737.0000 1.0000
50.8800 715.0000 1.0000
50.8900 699.0000 1.0000
50.9000 752.0000 1.0000
50.9100 697.0000 1.0000
50.9200 730.0000 1.0000
50.9300 680.0000 1.0000
50.9400 765.0000 1.0000
50.9500 741.0000 1.0000
50.9600 742.0000 1.0000
50.9700 707.0000 1.0000
50.9800 716.0000 1.0000
50.9900 717.0000 1.0000
51.0000 732.0000 1.0000
51.0100 700.0000 1.0000
51.0200 706.0000 1.0000
51.0300 740.0000 1.0000
51.0400 712.0000 1.0000
51.0500 685.0000 1.0000
51.0600 705.0000 1.0000
51.0700 760.0000 1.0000
51.0800 689.0000 1.0000
51.0900 733.0000 1.0000
51.1000 715.0000 1.0000
51.1100 709.0000 1.0000
51.1200 719.0000 1.0000
51.1300 730.0000 1.0000
51.1400 699.0000 1.0000
51.1500 758.0000 1.0000
51.1600 785.0000 1.0000
51.1700 716.0000 1.0000
51.1800 761.0000 1.0000
51.1900 719.0000 1.0000
51.2000 741.0000 1.0000
51.2100 701.0000 1.0000
51.2200 692.0000 1.0000
51.2300 704.0000 1.0000
51.2400 729.0000 1.0000
51.2500 715.0000 1.0000
51.2600 716.0000 1.0000
51.2700 764.0000 1.0000
51.2800 727.0000 1.0000
51.2900 724.0000 1.0000
51.3000 712.0000 1.0000
51.3100 709.0000 1.0000
51.3200 755.0000 1.0000
51.3300 739.0000 1.0000
51.3400 735.0000 1.0000
51.3500 715.0000 1.0000
51.3600 712.0000 1.0000
51.3700 717.0000 1.0000
51.3800 751.0000 1.0000
51.3900 738.0000 1.0000
51.4000 742.0000 1.0000
51.4100 773.0000 1.0000
51.4200 751.0000 1.0000
51.4300 744.0000 1.0000
51.4400 754.0000 1.0000
51.4500 804.0000 1.0000
51.4600 742.0000 1.0000
51.4700 690.0000 1.0000
51.4800 719.0000 1.0000
51.4900 748.0000 1.0000
51.5000 717.0000 1.0000
51.5100 708.0000 1.0000
51.5200 725.0000 1.0000
51.5300 719.0000 1.0000
51.5400 690.0000 1.0000
51.5500 728.0000 1.0000
51.5600 790.0000 1.0000
51.5700 762.0000 1.0000
51.5800 735.0000 1.0000
51.5900 732.0000 1.0000
51.6000 691.0000 1.0000
51.6100 709.0000 1.0000
51.6200 730.0000 1.0000
51.6300 723.0000 1.0000
51.6400 763.0000 1.0000
51.6500 743.0000 1.0000
51.6600 767.0000 1.0000
51.6700 768.0000 1.0000
51.6800 754.0000 1.0000
51.6900 758.0000 1.0000
51.7000 762.0000 1.0000
51.7100 793.0000 1.0000
51.7200 773.0000 1.0000
51.7300 758.0000 1.0000
51.7400 755.0000 1.0000
51.7500 772.0000 1.0000
51.7600 781.0000 1.0000
51.7700 761.0000 1.0000
51.7800 791.0000 1.0000
51.7900 812.0000 1.0000
51.8000 789.0000 1.0000
51.8100 796.0000 1.0000
51.8200 804.0000 1.0000
51.8300 766.0000 1.0000
51.8400 833.0000 1.0000
51.8500 872.0000 1.0000
51.8600 820.0000 1.0000
51.8700 814.0000 1.0000
51.8800 825.0000 1.0000
51.8900 839.0000 1.0000
51.9000 913.0000 1.0000
51.9100 917.0000 1.0000
51.9200 916.0000 1.0000
51.9300 938.0000 1.0000
51.9400 962.0000 1.0000
51.9500 1014.0000 1.0000
51.9600 1066.0000 1.0000
51.9700 1062.0000 1.0000
51.9800 1066.0000 1.0000
51.9900 1103.0000 1.0000
52.0000 1133.0000 1.0000
52.0100 1158.0000 1.0000
52.0200 1179.0000 1.0000
52.0300 1192.0000 1.0000
52.0400 1253.0000 1.0000
52.0500 1288.0000 1.0000
52.0600 1343.0000 1.0000
52.0700 1376.0000 1.0000
52.0800 1457.0000 1.0000
52.0900 1498.0000 1.0000
52.1000 1608.0000 1.0000
52.1100 1751.0000 1.0000
52.1200 1800.0000 1.0000
52.1300 1958.0000 1.0000
52.1400 2080.0000 1.0000
52.1500 2188.0000 1.0000
52.1600 2416.0000 1.0000
52.1700 2553.0000 1.0000
52.1800 2873.0000 1.0000
52.1900 3030.0000 1.0000
52.2000 3367.0000 1.0000
52.2100 3636.0000 1.0000
52.2200 3910.0000 1.0000
52.2300 4148.0000 1.0000
52.2400 4368.0000 1.0000
52.2500 4569.0000 1.0000
52.2600 4684.0000 1.0000
52.2700 4749.0000 1.0000
52.2800 4873.0000 1.0000
52.2900 4879.0000 1.0000
52.3000 4860.0000 1.0000
52.3100 4687.0000 1.0000
52.3200 4660.0000 1.0000
52.3300 4522.0000 1.0000
52.3400 4361.0000 1.0000
52.3500 4273.0000 1.0000
52.3600 4142.0000 1.0000
52.3700 4007.0000 1.0000
52.3800 3901.0000 1.0000
52.3900 3795.0000 1.0000
52.4000 3649.0000 1.0000
52.4100 3564.0000 1.0000
52.4200 3445.0000 1.0000
52.4300 3426.0000 1.0000
52.4400 3273.0000 1.0000
52.4500 3200.0000 1.0000
52.4600 3000.0000 1.0000
52.4700 2701.0000 1.0000
52.4800 2473.0000 1.0000
52.4900 2408.0000 1.0000
52.5000 2257.0000 1.0000
52.5100 2072.0000 1.0000
52.5200 1844.0000 1.0000
52.5300 1798.0000 1.0000
52.5400 1736.0000 1.0000
52.5500 1582.0000 1.0000
52.5600 1540.0000 1.0000
52.5700 1431.0000 1.0000
52.5800 1424.0000 1.0000
52.5900 1346.0000 1.0000
52.6000 1295.0000 1.0000
52.6100 1278.0000 1.0000
52.6200 1146.0000 1.0000
52.6300 1108.0000 1.0000
52.6400 1090.0000 1.0000
52.6500 1078.0000 1.0000
52.6600 1024.0000 1.0000
52.6700 1017.0000 1.0000
52.6800 1026.0000 1.0000
52.6900 1035.0000 1.0000
52.7000 1000.0000 1.0000
52.7100 989.0000 1.0000
52.7200 937.0000 1.0000
52.7300 947.0000 1.0000
52.7400 928.0000 1.0000
52.7500 944.0000 1.0000
52.7600 872.0000 1.0000
52.7700 878.0000 1.0000
52.7800 894.0000 1.0000
52.7900 865.0000 1.0000
52.8000 861.0000 1.0000
52.8100 838.0000 1.0000
52.8200 825.0000 1.0000
52.8300 858.0000 1.0000
52.8400 825.0000 1.0000
52.8500 868.0000 1.0000
52.8600 814.0000 1.0000
52.8700 780.0000 1.0000
52.8800 828.0000 1.0000
52.8900 796.0000 1.0000
52.9000 783.0000 1.0000
52.9100 749.0000 1.0000
52.9200 798.0000 1.0000
52.9300 786.0000 1.0000
52.9400 760.0000 1.0000
52.9500 790.0000 1.0000
52.9600 766.0000 1.0000
52.9700 757.0000 1.0000
52.9800 784.0000 1.0000
52.9900 766.0000 1.0000
53.0000 716.0000 1.0000
53.0100 764.0000 1.0000
53.0200 758.0000 1.0000
53.0300 757.0000 1.0000
53.0400 759.0000 1.0000
53.0500 741.0000 1.0000
53.0600 732.0000 1.0000
53.0700 757.0000 1.0000
53.0800 749.0000 1.0000
53.0900 735.0000 1.0000
53.1000 728.0000 1.0000
53.1100 702.0000 1.0000
53.1200 688.0000 1.0000
53.1300 745.0000 1.0000
53.1400 763.0000 1.0000
53.1500 747.0000 1.0000
53.1600 727.0000 1.0000
53.1700 729.0000 1.0000
53.1800 759.0000 1.0000
53.1900 742.0000 1.0000
53.2000 732.0000 1.0000
53.2100 779.0000 1.0000
53.2200 752.0000 1.0000
53.2300 688.0000 1.0000
53.2400 806.0000 1.0000
53.2500 783.0000 1.0000
53.2600 723.0000 1.0000
53.2700 748.0000 1.0000
53.2800 730.0000 1.0000
53.2900 721.0000 1.0000
53.3000 733.0000 1.0000
53.3100 742.0000 1.0000
53.3200 736.0000 1.0000
53.3300 708.0000 1.0000
53.3400 730.0000 1.0000
53.3500 731.0000 1.0000
53.3600 721.0000 1.0000
53.3700 732.0000 1.0000
53.3800 687.0000 1.0000
53.3900 717.0000 1.0000
53.4000 702.0000 1.0000
53.4100 732.0000 1.0000
53.4200 736.0000 1.0000
53.4300 716.0000 1.0000
53.4400 710.0000 1.0000
53.4500 703.0000 1.0000
53.4600 717.0000 1.0000
53.4700 687.0000 1.0000
53.4800 710.0000 1.0000
53.4900 749.0000 1.0000
53.5000 691.0000 1.0000
53.5100 736.0000 1.0000
53.5200 744.0000 1.0000
53.5300 710.0000 1.0000
53.5400 690.0000 1.0000
53.5500 690.0000 1.0000
53.5600 711.0000 1.0000
53.5700 704.0000 1.0000
53.5800 739.0000 1.0000
53.5900 731.0000 1.0000
53.6000 676.0000 1.0000
53.6100 705.0000 1.0000
53.6200 687.0000 1.0000
53.6300 721.0000 1.0000
53.6400 719.0000 1.0000
53.6500 712.0000 1.0000
53.6600 722.0000 1.0000
53.6700 692.0000 1.0000
53.6800 691.0000 1.0000
53.6900 717.0000 1.0000
53.7000 716.0000 1.0000
53.7100 728.0000 1.0000
53.7200 688.0000 1.0000
53.7300 725.0000 1.0000
53.7400 708.0000 1.0000
53.7500 720.0000 1.0000
53.7600 684.0000 1.0000
53.7700 757.0000 1.0000
53.7800 710.0000 1.0000
53.7900 692.0000 1.0000
53.8000 676.0000 1.0000
53.8100 699.0000 1.0000
53.8200 687.0000 1.0000
53.8300 718.0000 1.0000
53.8400 705.0000 1.0000
53.8500 711.0000 1.0000
53.8600 687.0000 1.0000
53.8700 745.0000 1.0000
53.8800 698.0000 1.0000
53.8900 696.0000 1.0000
53.9000 733.0000 1.0000
53.9100 715.0000 1.0000
53.9200 693.0000 1.0000
53.9300 705.0000 1.0000
53.9400 713.0000 1.0000
53.9500 693.0000 1.0000
53.9600 703.0000 1.0000
53.9700 705.0000 1.0000
53.9800 721.0000 1.0000
53.9900 699.0000 1.0000
54.0000 709.0000 1.0000
54.0100 744.0000 1.0000
54.0200 719.0000 1.0000
54.0300 681.0000 1.0000
54.0400 682.0000 1.0000
54.0500 674.0000 1.0000
54.0600 676.0000 1.0000
54.0700 699.0000 1.0000
54.0800 672.0000 1.0000
54.0900 743.0000 1.0000
54.1000 717.0000 1.0000
54.1100 692.0000 1.0000
54.1200 682.0000 1.0000
54.1300 686.0000 1.0000
54.1400 707.0000 1.0000
54.1500 688.0000 1.0000
54.1600 678.0000 1.0000
54.1700 687.0000 1.0000
54.1800 701.0000 1.0000
54.1900 723.0000 1.0000
54.2000 659.0000 1.0000
54.2100 675.0000 1.0000
54.2200 719.0000 1.0000
54.2300 709.0000 1.0000
54.2400 682.0000 1.0000
54.2500 699.0000 1.0000
54.2600 656.0000 1.0000
54.2700 696.0000 1.0000
54.2800 735.0000 1.0000
54.2900 726.0000 1.0000
54.3000 699.0000 1.0000
54.3100 715.0000 1.0000
54.3200 686.0000 1.0000
54.3300 665.0000 1.0000
54.3400 698.0000 1.0000
54.3500 695.0000 1.0000
54.3600 728.0000 1.0000
54.3700 705.0000 1.0000
54.3800 740.0000 1.0000
54.3900 685.0000 1.0000
54.4000 698.0000 1.0000
54.4100 714.0000 1.0000
54.4200 690.0000 1.0000
54.4300 703.0000 1.0000
54.4400 682.0000 1.0000
54.4500 682.0000 1.0000
54.4600 742.0000 1.0000
54.4700 721.0000 1.0000
54.4800 679.0000 1.0000
54.4900 714.0000 1.0000
54.5000 721.0000 1.0000
54.5100 698.0000 1.0000
54.5200 715.0000 1.0000
54.5300 670.0000 1.0000
54.5400 754.0000 1.0000
54.5500 711.0000 1.0000
54.5600 705.0000 1.0000
54.5700 731.0000 1.0000
54.5800 748.0000 1.0000
54.5900 683.0000 1.0000
54.6000 703.0000 1.0000
54.6100 716.0000 1.0000
54.6200 641.0000 1.0000
54.6300 716.0000 1.0000
54.6400 759.0000 1.0000
54.6500 703.0000 1.0000
54.6600 749.0000 1.0000
54.6700 724.0000 1.0000
54.6800 734.0000 1.0000
54.6900 735.0000 1.0000
54.7000 732.0000 1.0000
54.7100 708.0000 1.0000
54.7200 728.0000 1.0000
54.7300 757.0000 1.0000
54.7400 733.0000 1.0000
54.7500 745.0000 1.0000
54.7600 725.0000 1.0000
54.7700 731.0000 1.0000
54.7800 724.0000 1.0000
54.7900 706.0000 1.0000
54.8000 750.0000 1.0000
54.8100 796.0000 1.0000
54.8200 730.0000 1.0000
54.8300 753.0000 1.0000
54.8400 745.0000 1.0000
54.8500 763.0000 1.0000
54.8600 768.0000 1.0000
54.8700 726.0000 1.0000
54.8800 764.0000 1.0000
54.8900 740.0000 1.0000
54.9000 801.0000 1.0000
54.9100 752.0000 1.0000
54.9200 726.0000 1.0000
54.9300 759.0000 1.0000
54.9400 730.0000 1.0000
54.9500 778.0000 1.0000
54.9600 768.0000 1.0000
54.9700 806.0000 1.0000
54.9800 727.0000 1.0000
54.9900 759.0000 1.0000
55.0000 765.0000 1.0000
55.0100 731.0000 1.0000
55.0200 769.0000 1.0000
55.0300 782.0000 1.0000
55.0400 794.0000 1.0000
55.0500 823.0000 1.0000
55.0600 798.0000 1.0000
55.0700 791.0000 1.0000
55.0800 779.0000 1.0000
55.0900 852.0000 1.0000
55.1000 827.0000 1.0000
55.1100 836.0000 1.0000
55.1200 813.0000 1.0000
55.1300 860.0000 1.0000
55.1400 854.0000 1.0000
55.1500 866.0000 1.0000
55.1600 904.0000 1.0000
55.1700 852.0000 1.0000
55.1800 908.0000 1.0000
55.1900 920.0000 1.0000
55.2000 989.0000 1.0000
55.2100 972.0000 1.0000
55.2200 976.0000 1.0000
55.2300 1001.0000 1.0000
55.2400 1018.0000 1.0000
55.2500 1039.0000 1.0000
55.2600 1023.0000 1.0000
55.2700 1078.0000 1.0000
55.2800 1097.0000 1.0000
55.2900 1069.0000 1.0000
55.3000 1090.0000 1.0000
55.3100 1080.0000 1.0000
55.3200 1060.0000 1.0000
55.3300 1083.0000 1.0000
55.3400 979.0000 1.0000
55.3500 994.0000 1.0000
55.3600 963.0000 1.0000
55.3700 1069.0000 1.0000
55.3800 1048.0000 1.0000
55.3900 1041.0000 1.0000
55.4000 993.0000 1.0000
55.4100 972.0000 1.0000
55.4200 954.0000 1.0000
55.4300 994.0000 1.0000
55.4400 1005.0000 1.0000
55.4500 981.0000 1.0000
55.4600 959.0000 1.0000
55.4700 915.0000 1.0000
55.4800 945.0000 1.0000
55.4900 929.0000 1.0000
55.5000 888.0000 1.0000
55.5100 869.0000 1.0000
55.5200 866.0000 1.0000
55.5300 855.0000 1.0000
55.5400 822.0000 1.0000
55.5500 812.0000 1.0000
55.5600 791.0000 1.0000
55.5700 831.0000 1.0000
55.5800 866.0000 1.0000
55.5900 801.0000 1.0000
55.6000 817.0000 1.0000
55.6100 777.0000 1.0000
55.6200 761.0000 1.0000
55.6300 740.0000 1.0000
55.6400 750.0000 1.0000
55.6500 740.0000 1.0000
55.6600 748.0000 1.0000
55.6700 717.0000 1.0000
55.6800 748.0000 1.0000
55.6900 751.0000 1.0000
55.7000 747.0000 1.0000
55.7100 738.0000 1.0000
55.7200 729.0000 1.0000
55.7300 723.0000 1.0000
55.7400 734.0000 1.0000
55.7500 720.0000 1.0000
55.7600 692.0000 1.0000
55.7700 692.0000 1.0000
55.7800 696.0000 1.0000
55.7900 690.0000 1.0000
55.8000 719.0000 1.0000
55.8100 750.0000 1.0000
55.8200 749.0000 1.0000
55.8300 701.0000 1.0000
55.8400 657.0000 1.0000
55.8500 684.0000 1.0000
55.8600 653.0000 1.0000
55.8700 699.0000 1.0000
55.8800 728.0000 1.0000
55.8900 679.0000 1.0000
55.9000 723.0000 1.0000
55.9100 690.0000 1.0000
55.9200 663.0000 1.0000
55.9300 717.0000 1.0000
55.9400 687.0000 1.0000
55.9500 684.0000 1.0000
55.9600 681.0000 1.0000
55.9700 722.0000 1.0000
55.9800 712.0000 1.0000
55.9900 684.0000 1.0000
56.0000 710.0000 1.0000
56.0100 672.0000 1.0000
56.0200 652.0000 1.0000
56.0300 659.0000 1.0000
56.0400 683.0000 1.0000
56.0500 684.0000 1.0000
56.0600 697.0000 1.0000
56.0700 674.0000 1.0000
56.0800 695.0000 1.0000
56.0900 703.0000 1.0000
56.1000 711.0000 1.0000
56.1100 701.0000 1.0000
56.1200 681.0000 1.0000
56.1300 648.0000 1.0000
56.1400 650.0000 1.0000
56.1500 664.0000 1.0000
56.1600 730.0000 1.0000
56.1700 698.0000 1.0000
56.1800 644.0000 1.0000
56.1900 638.0000 1.0000
56.2000 667.0000 1.0000
56.2100 680.0000 1.0000
56.2200 716.0000 1.0000
56.2300 627.0000 1.0000
56.2400 642.0000 1.0000
56.2500 673.0000 1.0000
56.2600 697.0000 1.0000
56.2700 670.0000 1.0000
56.2800 653.0000 1.0000
56.2900 728.0000 1.0000
56.3000 708.0000 1.0000
56.3100 674.0000 1.0000
56.3200 676.0000 1.0000
56.3300 680.0000 1.0000
56.3400 681.0000 1.0000
56.3500 636.0000 1.0000
56.3600 688.0000 1.0000
56.3700 633.0000 1.0000
56.3800 636.0000 1.0000
56.3900 668.0000 1.0000
56.4000 649.0000 1.0000
56.4100 667.0000 1.0000
56.4200 659.0000 1.0000
56.4300 650.0000 1.0000
56.4400 676.0000 1.0000
56.4500 691.0000 1.0000
56.4600 681.0000 1.0000
56.4700 652.0000 1.0000
56.4800 660.0000 1.0000
56.4900 682.0000 1.0000
56.5000 672.0000 1.0000
56.5100 711.0000 1.0000
56.5200 695.0000 1.0000
56.5300 688.0000 1.0000
56.5400 668.0000 1.0000
56.5500 627.0000 1.0000
56.5600 639.0000 1.0000
56.5700 677.0000 1.0000
56.5800 706.0000 1.0000
56.5900 684.0000 1.0000
56.6000 653.0000 1.0000
56.6100 686.0000 1.0000
56.6200 669.0000 1.0000
56.6300 685.0000 1.0000
56.6400 655.0000 1.0000
56.6500 697.0000 1.0000
56.6600 649.0000 1.0000
56.6700 696.0000 1.0000
56.6800 703.0000 1.0000
56.6900 669.0000 1.0000
56.7000 678.0000 1.0000
56.7100 693.0000 1.0000
56.7200 633.0000 1.0000
56.7300 672.0000 1.0000
56.7400 712.0000 1.0000
56.7500 677.0000 1.0000
56.7600 724.0000 1.0000
56.7700 697.0000 1.0000
56.7800 685.0000 1.0000
56.7900 679.0000 1.0000
56.8000 705.0000 1.0000
56.8100 684.0000 1.0000
56.8200 669.0000 1.0000
56.8300 695.0000 1.0000
56.8400 707.0000 1.0000
56.8500 683.0000 1.0000
56.8600 657.0000 1.0000
56.8700 709.0000 1.0000
56.8800 648.0000 1.0000
56.8900 680.0000 1.0000
56.9000 670.0000 1.0000
56.9100 654.0000 1.0000
56.9200 668.0000 1.0000
56.9300 676.0000 1.0000
56.9400 675.0000 1.0000
56.9500 651.0000 1.0000
56.9600 664.0000 1.0000
56.9700 664.0000 1.0000
56.9800 657.0000 1.0000
56.9900 683.0000 1.0000
57.0000 661.0000 1.0000
57.0100 647.0000 1.0000
57.0200 657.0000 1.0000
57.0300 704.0000 1.0000
57.0400 682.0000 1.0000
57.0500 694.0000 1.0000
57.0600 629.0000 1.0000
57.0700 650.0000 1.0000
57.0800 680.0000 1.0000
57.0900 683.0000 1.0000
57.1000 658.0000 1.0000
57.1100 670.0000 1.0000
57.1200 673.0000 1.0000
57.1300 682.0000 1.0000
57.1400 655.0000 1.0000
57.1500 648.0000 1.0000
57.1600 649.0000 1.0000
57.1700 674.0000 1.0000
57.1800 681.0000 1.0000
57.1900 681.0000 1.0000
57.2000 674.0000 1.0000
57.2100 634.0000 1.0000
57.2200 688.0000 1.0000
57.2300 677.0000 1.0000
57.2400 675.0000 1.0000
57.2500 624.0000 1.0000
57.2600 665.0000 1.0000
57.2700 691.0000 1.0000
57.2800 656.0000 1.0000
57.2900 684.0000 1.0000
57.3000 637.0000 1.0000
57.3100 678.0000 1.0000
57.3200 654.0000 1.0000
57.3300 706.0000 1.0000
57.3400 650.0000 1.0000
57.3500 624.0000 1.0000
57.3600 661.0000 1.0000
57.3700 634.0000 1.0000
57.3800 656.0000 1.0000
57.3900 698.0000 1.0000
57.4000 675.0000 1.0000
57.4100 652.0000 1.0000
57.4200 657.0000 1.0000
57.4300 716.0000 1.0000
57.4400 675.0000 1.0000
57.4500 678.0000 1.0000
57.4600 674.0000 1.0000
57.4700 653.0000 1.0000
57.4800 694.0000 1.0000
57.4900 654.0000 1.0000
57.5000 660.0000 1.0000
57.5100 644.0000 1.0000
57.5200 668.0000 1.0000
57.5300 648.0000 1.0000
57.5400 685.0000 1.0000
57.5500 683.0000 1.0000
57.5600 679.0000 1.0000
57.5700 661.0000 1.0000
57.5800 663.0000 1.0000
57.5900 675.0000 1.0000
57.6000 654.0000 1.0000
57.6100 650.0000 1.0000
57.6200 649.0000 1.0000
57.6300 634.0000 1.0000
57.6400 677.0000 1.0000
57.6500 663.0000 1.0000
57.6600 646.0000 1.0000
57.6700 657.0000 1.0000
57.6800 674.0000 1.0000
57.6900 682.0000 1.0000
57.7000 627.0000 1.0000
57.7100 692.0000 1.0000
57.7200 698.0000 1.0000
57.7300 672.0000 1.0000
57.7400 682.0000 1.0000
57.7500 706.0000 1.0000
57.7600 664.0000 1.0000
57.7700 680.0000 1.0000
57.7800 699.0000 1.0000
57.7900 630.0000 1.0000
57.8000 674.0000 1.0000
57.8100 663.0000 1.0000
57.8200 682.0000 1.0000
57.8300 659.0000 1.0000
57.8400 684.0000 1.0000
57.8500 669.0000 1.0000
57.8600 663.0000 1.0000
57.8700 668.0000 1.0000
57.8800 729.0000 1.0000
57.8900 667.0000 1.0000
57.9000 641.0000 1.0000
57.9100 700.0000 1.0000
57.9200 684.0000 1.0000
57.9300 665.0000 1.0000
57.9400 644.0000 1.0000
57.9500 658.0000 1.0000
57.9600 715.0000 1.0000
57.9700 724.0000 1.0000
57.9800 682.0000 1.0000
57.9900 612.0000 1.0000
58.0000 674.0000 1.0000
58.0100 642.0000 1.0000
58.0200 705.0000 1.0000
58.0300 698.0000 1.0000
58.0400 679.0000 1.0000
58.0500 698.0000 1.0000
58.0600 657.0000 1.0000
58.0700 659.0000 1.0000
58.0800 698.0000 1.0000
58.0900 677.0000 1.0000
58.1000 682.0000 1.0000
58.1100 673.0000 1.0000
58.1200 703.0000 1.0000
58.1300 712.0000 1.0000
58.1400 698.0000 1.0000
58.1500 668.0000 1.0000
58.1600 658.0000 1.0000
58.1700 714.0000 1.0000
58.1800 668.0000 1.0000
58.1900 680.0000 1.0000
58.2000 650.0000 1.0000
58.2100 687.0000 1.0000
58.2200 733.0000 1.0000
58.2300 659.0000 1.0000
58.2400 730.0000 1.0000
58.2500 667.0000 1.0000
58.2600 684.0000 1.0000
58.2700 660.0000 1.0000
58.2800 699.0000 1.0000
58.2900 659.0000 1.0000
58.3000 666.0000 1.0000
58.3100 667.0000 1.0000
58.3200 660.0000 1.0000
58.3300 697.0000 1.0000
58.3400 679.0000 1.0000
58.3500 660.0000 1.0000
58.3600 680.0000 1.0000
58.3700 660.0000 1.0000
58.3800 650.0000 1.0000
58.3900 706.0000 1.0000
58.4000 667.0000 1.0000
58.4100 672.0000 1.0000
58.4200 657.0000 1.0000
58.4300 690.0000 1.0000
58.4400 684.0000 1.0000
58.4500 716.0000 1.0000
58.4600 645.0000 1.0000
58.4700 702.0000 1.0000
58.4800 683.0000 1.0000
58.4900 693.0000 1.0000
58.5000 663.0000 1.0000
58.5100 658.0000 1.0000
58.5200 640.0000 1.0000
58.5300 648.0000 1.0000
58.5400 634.0000 1.0000
58.5500 631.0000 1.0000
58.5600 650.0000 1.0000
58.5700 636.0000 1.0000
58.5800 641.0000 1.0000
58.5900 623.0000 1.0000
58.6000 678.0000 1.0000
58.6100 663.0000 1.0000
58.6200 706.0000 1.0000
58.6300 709.0000 1.0000
58.6400 674.0000 1.0000
58.6500 694.0000 1.0000
58.6600 633.0000 1.0000
58.6700 673.0000 1.0000
58.6800 660.0000 1.0000
58.6900 673.0000 1.0000
58.7000 645.0000 1.0000
58.7100 643.0000 1.0000
58.7200 651.0000 1.0000
58.7300 695.0000 1.0000
58.7400 657.0000 1.0000
58.7500 643.0000 1.0000
58.7600 652.0000 1.0000
58.7700 674.0000 1.0000
58.7800 693.0000 1.0000
58.7900 670.0000 1.0000
58.8000 676.0000 1.0000
58.8100 650.0000 1.0000
58.8200 682.0000 1.0000
58.8300 662.0000 1.0000
58.8400 622.0000 1.0000
58.8500 666.0000 1.0000
58.8600 666.0000 1.0000
58.8700 628.0000 1.0000
58.8800 656.0000 1.0000
58.8900 651.0000 1.0000
58.9000 640.0000 1.0000
58.9100 646.0000 1.0000
58.9200 658.0000 1.0000
58.9300 640.0000 1.0000
58.9400 662.0000 1.0000
58.9500 660.0000 1.0000
58.9600 695.0000 1.0000
58.9700 674.0000 1.0000
58.9800 635.0000 1.0000
58.9900 670.0000 1.0000
59.0000 656.0000 1.0000
59.0100 657.0000 1.0000
59.0200 653.0000 1.0000
59.0300 678.0000 1.0000
59.0400 691.0000 1.0000
59.0500 660.0000 1.0000
59.0600 652.0000 1.0000
59.0700 648.0000 1.0000
59.0800 690.0000 1.0000
59.0900 687.0000 1.0000
59.1000 671.0000 1.0000
59.1100 671.0000 1.0000
59.1200 640.0000 1.0000
59.1300 671.0000 1.0000
59.1400 647.0000 1.0000
59.1500 670.0000 1.0000
59.1600 694.0000 1.0000
59.1700 658.0000 1.0000
59.1800 665.0000 1.0000
59.1900 639.0000 1.0000
59.2000 638.0000 1.0000
59.2100 654.0000 1.0000
59.2200 664.0000 1.0000
59.2300 648.0000 1.0000
59.2400 655.0000 1.0000
59.2500 649.0000 1.0000
59.2600 639.0000 1.0000
59.2700 700.0000 1.0000
59.2800 670.0000 1.0000
59.2900 658.0000 1.0000
59.3000 717.0000 1.0000
59.3100 708.0000 1.0000
59.3200 678.0000 1.0000
59.3300 651.0000 1.0000
59.3400 687.0000 1.0000
59.3500 694.0000 1.0000
59.3600 677.0000 1.0000
59.3700 707.0000 1.0000
59.3800 669.0000 1.0000
59.3900 636.0000 1.0000
59.4000 713.0000 1.0000
59.4100 705.0000 1.0000
59.4200 680.0000 1.0000
59.4300 690.0000 1.0000
59.4400 658.0000 1.0000
59.4500 683.0000 1.0000
59.4600 703.0000 1.0000
59.4700 705.0000 1.0000
59.4800 673.0000 1.0000
59.4900 632.0000 1.0000
59.5000 662.0000 1.0000
59.5100 648.0000 1.0000
59.5200 673.0000 1.0000
59.5300 673.0000 1.0000
59.5400 693.0000 1.0000
59.5500 689.0000 1.0000
59.5600 636.0000 1.0000
59.5700 640.0000 1.0000
59.5800 654.0000 1.0000
59.5900 650.0000 1.0000
59.6000 676.0000 1.0000
59.6100 669.0000 1.0000
59.6200 638.0000 1.0000
59.6300 644.0000 1.0000
59.6400 674.0000 1.0000
59.6500 685.0000 1.0000
59.6600 670.0000 1.0000
59.6700 665.0000 1.0000
59.6800 624.0000 1.0000
59.6900 634.0000 1.0000
59.7000 645.0000 1.0000
59.7100 719.0000 1.0000
59.7200 700.0000 1.0000
59.7300 686.0000 1.0000
59.7400 656.0000 1.0000
59.7500 676.0000 1.0000
59.7600 630.0000 1.0000
59.7700 648.0000 1.0000
59.7800 670.0000 1.0000
59.7900 635.0000 1.0000
59.8000 655.0000 1.0000
59.8100 623.0000 1.0000
59.8200 660.0000 1.0000
59.8300 663.0000 1.0000
59.8400 670.0000 1.0000
59.8500 669.0000 1.0000
59.8600 709.0000 1.0000
59.8700 624.0000 1.0000
59.8800 648.0000 1.0000
59.8900 638.0000 1.0000
59.9000 629.0000 1.0000
59.9100 640.0000 1.0000
59.9200 648.0000 1.0000
59.9300 663.0000 1.0000
59.9400 651.0000 1.0000
59.9500 699.0000 1.0000
59.9600 688.0000 1.0000
59.9700 665.0000 1.0000
59.9800 621.0000 1.0000
59.9900 637.0000 1.0000
60.0000 676.0000 1.0000
60.0100 648.0000 1.0000
60.0200 675.0000 1.0000
60.0300 683.0000 1.0000
60.0400 640.0000 1.0000
60.0500 658.0000 1.0000
60.0600 641.0000 1.0000
60.0700 642.0000 1.0000
60.0800 654.0000 1.0000
60.0900 667.0000 1.0000
60.1000 679.0000 1.0000
60.1100 632.0000 1.0000
60.1200 604.0000 1.0000
60.1300 652.0000 1.0000
60.1400 634.0000 1.0000
60.1500 667.0000 1.0000
60.1600 636.0000 1.0000
60.1700 693.0000 1.0000
60.1800 675.0000 1.0000
60.1900 667.0000 1.0000
60.2000 681.0000 1.0000
60.2100 617.0000 1.0000
60.2200 664.0000 1.0000
60.2300 679.0000 1.0000
60.2400 674.0000 1.0000
60.2500 626.0000 1.0000
60.2600 640.0000 1.0000
60.2700 714.0000 1.0000
60.2800 634.0000 1.0000
60.2900 673.0000 1.0000
60.3000 671.0000 1.0000
60.3100 637.0000 1.0000
60.3200 666.0000 1.0000
60.3300 606.0000 1.0000
60.3400 641.0000 1.0000
60.3500 633.0000 1.0000
60.3600 682.0000 1.0000
60.3700 663.0000 1.0000
60.3800 664.0000 1.0000
60.3900 640.0000 1.0000
60.4000 675.0000 1.0000
60.4100 654.0000 1.0000
60.4200 637.0000 1.0000
60.4300 658.0000 1.0000
60.4400 674.0000 1.0000
60.4500 663.0000 1.0000
60.4600 650.0000 1.0000
60.4700 645.0000 1.0000
60.4800 674.0000 1.0000
60.4900 619.0000 1.0000
60.5000 667.0000 1.0000
60.5100 670.0000 1.0000
60.5200 669.0000 1.0000
60.5300 600.0000 1.0000
60.5400 682.0000 1.0000
60.5500 677.0000 1.0000
60.5600 665.0000 1.0000
60.5700 650.0000 1.0000
60.5800 690.0000 1.0000
60.5900 671.0000 1.0000
60.6000 681.0000 1.0000
60.6100 631.0000 1.0000
60.6200 648.0000 1.0000
60.6300 679.0000 1.0000
60.6400 693.0000 1.0000
60.6500 630.0000 1.0000
60.6600 700.0000 1.0000
60.6700 676.0000 1.0000
60.6800 643.0000 1.0000
60.6900 648.0000 1.0000
60.7000 632.0000 1.0000
60.7100 629.0000 1.0000
60.7200 642.0000 1.0000
60.7300 657.0000 1.0000
60.7400 682.0000 1.0000
60.7500 663.0000 1.0000
60.7600 679.0000 1.0000
60.7700 713.0000 1.0000
60.7800 687.0000 1.0000
60.7900 637.0000 1.0000
60.8000 663.0000 1.0000
60.8100 638.0000 1.0000
60.8200 644.0000 1.0000
60.8300 674.0000 1.0000
60.8400 681.0000 1.0000
60.8500 683.0000 1.0000
60.8600 641.0000 1.0000
60.8700 661.0000 1.0000
60.8800 669.0000 1.0000
60.8900 678.0000 1.0000
60.9000 679.0000 1.0000
60.9100 648.0000 1.0000
60.9200 643.0000 1.0000
60.9300 615.0000 1.0000
60.9400 673.0000 1.0000
60.9500 650.0000 1.0000
60.9600 608.0000 1.0000
60.9700 680.0000 1.0000
60.9800 684.0000 1.0000
60.9900 612.0000 1.0000
61.0000 634.0000 1.0000
61.0100 618.0000 1.0000
61.0200 661.0000 1.0000
61.0300 672.0000 1.0000
61.0400 670.0000 1.0000
61.0500 684.0000 1.0000
61.0600 648.0000 1.0000
61.0700 653.0000 1.0000
61.0800 645.0000 1.0000
61.0900 650.0000 1.0000
61.1000 618.0000 1.0000
61.1100 655.0000 1.0000
61.1200 658.0000 1.0000
61.1300 641.0000 1.0000
61.1400 662.0000 1.0000
61.1500 619.0000 1.0000
61.1600 664.0000 1.0000
61.1700 646.0000 1.0000
61.1800 637.0000 1.0000
61.1900 660.0000 1.0000
61.2000 706.0000 1.0000
61.2100 669.0000 1.0000
61.2200 655.0000 1.0000
61.2300 670.0000 1.0000
61.2400 663.0000 1.0000
61.2500 657.0000 1.0000
61.2600 650.0000 1.0000
61.2700 669.0000 1.0000
61.2800 692.0000 1.0000
61.2900 693.0000 1.0000
61.3000 672.0000 1.0000
61.3100 659.0000 1.0000
61.3200 662.0000 1.0000
61.3300 671.0000 1.0000
61.3400 658.0000 1.0000
61.3500 662.0000 1.0000
61.3600 666.0000 1.0000
61.3700 682.0000 1.0000
61.3800 666.0000 1.0000
61.3900 692.0000 1.0000
61.4000 688.0000 1.0000
61.4100 669.0000 1.0000
61.4200 671.0000 1.0000
61.4300 651.0000 1.0000
61.4400 663.0000 1.0000
61.4500 676.0000 1.0000
61.4600 691.0000 1.0000
61.4700 700.0000 1.0000
61.4800 690.0000 1.0000
61.4900 666.0000 1.0000
61.5000 676.0000 1.0000
61.5100 683.0000 1.0000
61.5200 697.0000 1.0000
61.5300 719.0000 1.0000
61.5400 703.0000 1.0000
61.5500 679.0000 1.0000
61.5600 708.0000 1.0000
61.5700 727.0000 1.0000
61.5800 706.0000 1.0000
61.5900 677.0000 1.0000
61.6000 702.0000 1.0000
61.6100 686.0000 1.0000
61.6200 715.0000 1.0000
61.6300 672.0000 1.0000
61.6400 696.0000 1.0000
61.6500 684.0000 1.0000
61.6600 680.0000 1.0000
61.6700 651.0000 1.0000
61.6800 649.0000 1.0000
61.6900 676.0000 1.0000
61.7000 687.0000 1.0000
61.7100 684.0000 1.0000
61.7200 711.0000 1.0000
61.7300 703.0000 1.0000
61.7400 725.0000 1.0000
61.7500 737.0000 1.0000
61.7600 701.0000 1.0000
61.7700 764.0000 1.0000
61.7800 704.0000 1.0000
61.7900 709.0000 1.0000
61.8000 722.0000 1.0000
61.8100 706.0000 1.0000
61.8200 714.0000 1.0000
61.8300 783.0000 1.0000
61.8400 736.0000 1.0000
61.8500 736.0000 1.0000
61.8600 750.0000 1.0000
61.8700 727.0000 1.0000
61.8800 725.0000 1.0000
61.8900 751.0000 1.0000
61.9000 781.0000 1.0000
61.9100 737.0000 1.0000
61.9200 767.0000 1.0000
61.9300 757.0000 1.0000
61.9400 773.0000 1.0000
61.9500 790.0000 1.0000
61.9600 799.0000 1.0000
61.9700 818.0000 1.0000
61.9800 790.0000 1.0000
61.9900 882.0000 1.0000
62.0000 830.0000 1.0000
62.0100 842.0000 1.0000
62.0200 820.0000 1.0000
62.0300 907.0000 1.0000
62.0400 921.0000 1.0000
62.0500 928.0000 1.0000
62.0600 950.0000 1.0000
62.0700 921.0000 1.0000
62.0800 1029.0000 1.0000
62.0900 1024.0000 1.0000
62.1000 1065.0000 1.0000
62.1100 1043.0000 1.0000
62.1200 1038.0000 1.0000
62.1300 1101.0000 1.0000
62.1400 1129.0000 1.0000
62.1500 1165.0000 1.0000
62.1600 1152.0000 1.0000
62.1700 1273.0000 1.0000
62.1800 1231.0000 1.0000
62.1900 1222.0000 1.0000
62.2000 1310.0000 1.0000
62.2100 1364.0000 1.0000
62.2200 1413.0000 1.0000
62.2300 1410.0000 1.0000
62.2400 1508.0000 1.0000
62.2500 1544.0000 1.0000
62.2600 1527.0000 1.0000
62.2700 1597.0000 1.0000
62.2800 1525.0000 1.0000
62.2900 1494.0000 1.0000
62.3000 1560.0000 1.0000
62.3100 1604.0000 1.0000
62.3200 1591.0000 1.0000
62.3300 1564.0000 1.0000
62.3400 1573.0000 1.0000
62.3500 1627.0000 1.0000
62.3600 1586.0000 1.0000
62.3700 1504.0000 1.0000
62.3800 1526.0000 1.0000
62.3900 1555.0000 1.0000
62.4000 1568.0000 1.0000
62.4100 1556.0000 1.0000
62.4200 1496.0000 1.0000
62.4300 1473.0000 1.0000
62.4400 1467.0000 1.0000
62.4500 1413.0000 1.0000
62.4600 1465.0000 1.0000
62.4700 1427.0000 1.0000
62.4800 1376.0000 1.0000
62.4900 1400.0000 1.0000
62.5000 1365.0000 1.0000
62.5100 1317.0000 1.0000
62.5200 1315.0000 1.0000
62.5300 1263.0000 1.0000
62.5400 1229.0000 1.0000
62.5500 1192.0000 1.0000
62.5600 1189.0000 1.0000
62.5700 1175.0000 1.0000
62.5800 1105.0000 1.0000
62.5900 1089.0000 1.0000
62.6000 1063.0000 1.0000
62.6100 1019.0000 1.0000
62.6200 1064.0000 1.0000
62.6300 1036.0000 1.0000
62.6400 962.0000 1.0000
62.6500 968.0000 1.0000
62.6600 950.0000 1.0000
62.6700 947.0000 1.0000
62.6800 918.0000 1.0000
62.6900 901.0000 1.0000
62.7000 923.0000 1.0000
62.7100 903.0000 1.0000
62.7200 906.0000 1.0000
62.7300 871.0000 1.0000
62.7400 833.0000 1.0000
62.7500 828.0000 1.0000
62.7600 809.0000 1.0000
62.7700 858.0000 1.0000
62.7800 786.0000 1.0000
62.7900 812.0000 1.0000
62.8000 818.0000 1.0000
62.8100 806.0000 1.0000
62.8200 826.0000 1.0000
62.8300 791.0000 1.0000
62.8400 742.0000 1.0000
62.8500 773.0000 1.0000
62.8600 759.0000 1.0000
62.8700 750.0000 1.0000
62.8800 765.0000 1.0000
62.8900 744.0000 1.0000
62.9000 787.0000 1.0000
62.9100 781.0000 1.0000
62.9200 759.0000 1.0000
62.9300 803.0000 1.0000
62.9400 713.0000 1.0000
62.9500 730.0000 1.0000
62.9600 762.0000 1.0000
62.9700 720.0000 1.0000
62.9800 718.0000 1.0000
62.9900 738.0000 1.0000
63.0000 726.0000 1.0000
63.0100 725.0000 1.0000
63.0200 766.0000 1.0000
63.0300 709.0000 1.0000
63.0400 759.0000 1.0000
63.0500 713.0000 1.0000
63.0600 711.0000 1.0000
63.0700 730.0000 1.0000
63.0800 736.0000 1.0000
63.0900 701.0000 1.0000
63.1000 726.0000 1.0000
63.1100 731.0000 1.0000
63.1200 713.0000 1.0000
63.1300 699.0000 1.0000
63.1400 764.0000 1.0000
63.1500 784.0000 1.0000
63.1600 699.0000 1.0000
63.1700 681.0000 1.0000
63.1800 700.0000 1.0000
63.1900 774.0000 1.0000
63.2000 734.0000 1.0000
63.2100 699.0000 1.0000
63.2200 689.0000 1.0000
63.2300 716.0000 1.0000
63.2400 721.0000 1.0000
63.2500 714.0000 1.0000
63.2600 700.0000 1.0000
63.2700 716.0000 1.0000
63.2800 689.0000 1.0000
63.2900 711.0000 1.0000
63.3000 694.0000 1.0000
63.3100 746.0000 1.0000
63.3200 709.0000 1.0000
63.3300 735.0000 1.0000
63.3400 723.0000 1.0000
63.3500 749.0000 1.0000
63.3600 693.0000 1.0000
63.3700 669.0000 1.0000
63.3800 675.0000 1.0000
63.3900 713.0000 1.0000
63.4000 664.0000 1.0000
63.4100 681.0000 1.0000
63.4200 711.0000 1.0000
63.4300 654.0000 1.0000
63.4400 676.0000 1.0000
63.4500 673.0000 1.0000
63.4600 653.0000 1.0000
63.4700 650.0000 1.0000
63.4800 622.0000 1.0000
63.4900 699.0000 1.0000
63.5000 677.0000 1.0000
63.5100 716.0000 1.0000
63.5200 673.0000 1.0000
63.5300 631.0000 1.0000
63.5400 649.0000 1.0000
63.5500 647.0000 1.0000
63.5600 667.0000 1.0000
63.5700 637.0000 1.0000
63.5800 644.0000 1.0000
63.5900 661.0000 1.0000
63.6000 673.0000 1.0000
63.6100 666.0000 1.0000
63.6200 699.0000 1.0000
63.6300 665.0000 1.0000
63.6400 664.0000 1.0000
63.6500 630.0000 1.0000
63.6600 629.0000 1.0000
63.6700 613.0000 1.0000
63.6800 676.0000 1.0000
63.6900 669.0000 1.0000
63.7000 700.0000 1.0000
63.7100 727.0000 1.0000
63.7200 702.0000 1.0000
63.7300 641.0000 1.0000
63.7400 687.0000 1.0000
63.7500 659.0000 1.0000
63.7600 636.0000 1.0000
63.7700 687.0000 1.0000
63.7800 630.0000 1.0000
63.7900 662.0000 1.0000
63.8000 717.0000 1.0000
63.8100 661.0000 1.0000
63.8200 659.0000 1.0000
63.8300 625.0000 1.0000
63.8400 669.0000 1.0000
63.8500 681.0000 1.0000
63.8600 669.0000 1.0000
63.8700 673.0000 1.0000
63.8800 684.0000 1.0000
63.8900 655.0000 1.0000
63.9000 657.0000 1.0000
63.9100 689.0000 1.0000
63.9200 642.0000 1.0000
63.9300 662.0000 1.0000
63.9400 635.0000 1.0000
63.9500 661.0000 1.0000
63.9600 729.0000 1.0000
63.9700 688.0000 1.0000
63.9800 686.0000 1.0000
63.9900 673.0000 1.0000
64.0000 626.0000 1.0000
64.0100 650.0000 1.0000
64.0200 657.0000 1.0000
64.0300 672.0000 1.0000
64.0400 706.0000 1.0000
64.0500 634.0000 1.0000
64.0600 648.0000 1.0000
64.0700 664.0000 1.0000
64.0800 663.0000 1.0000
64.0900 667.0000 1.0000
64.1000 647.0000 1.0000
64.1100 644.0000 1.0000
64.1200 654.0000 1.0000
64.1300 658.0000 1.0000
64.1400 649.0000 1.0000
64.1500 666.0000 1.0000
64.1600 628.0000 1.0000
64.1700 707.0000 1.0000
64.1800 681.0000 1.0000
64.1900 661.0000 1.0000
64.2000 656.0000 1.0000
64.2100 692.0000 1.0000
64.2200 699.0000 1.0000
64.2300 649.0000 1.0000
64.2400 679.0000 1.0000
64.2500 676.0000 1.0000
64.2600 659.0000 1.0000
64.2700 688.0000 1.0000
64.2800 705.0000 1.0000
64.2900 668.0000 1.0000
64.3000 662.0000 1.0000
64.3100 661.0000 1.0000
64.3200 647.0000 1.0000
64.3300 681.0000 1.0000
64.3400 659.0000 1.0000
64.3500 675.0000 1.0000
64.3600 676.0000 1.0000
64.3700 699.0000 1.0000
64.3800 693.0000 1.0000
64.3900 664.0000 1.0000
64.4000 697.0000 1.0000
64.4100 723.0000 1.0000
64.4200 719.0000 1.0000
64.4300 659.0000 1.0000
64.4400 685.0000 1.0000
64.4500 705.0000 1.0000
64.4600 677.0000 1.0000
64.4700 692.0000 1.0000
64.4800 691.0000 1.0000
64.4900 709.0000 1.0000
64.5000 687.0000 1.0000
64.5100 710.0000 1.0000
64.5200 744.0000 1.0000
64.5300 709.0000 1.0000
64.5400 730.0000 1.0000
64.5500 746.0000 1.0000
64.5600 738.0000 1.0000
64.5700 738.0000 1.0000
64.5800 772.0000 1.0000
64.5900 744.0000 1.0000
64.6000 776.0000 1.0000
64.6100 787.0000 1.0000
64.6200 807.0000 1.0000
64.6300 797.0000 1.0000
64.6400 835.0000 1.0000
64.6500 805.0000 1.0000
64.6600 838.0000 1.0000
64.6700 871.0000 1.0000
64.6800 925.0000 1.0000
64.6900 836.0000 1.0000
64.7000 880.0000 1.0000
64.7100 910.0000 1.0000
64.7200 863.0000 1.0000
64.7300 876.0000 1.0000
64.7400 821.0000 1.0000
64.7500 841.0000 1.0000
64.7600 825.0000 1.0000
64.7700 813.0000 1.0000
64.7800 774.0000 1.0000
64.7900 811.0000 1.0000
64.8000 817.0000 1.0000
64.8100 810.0000 1.0000
64.8200 787.0000 1.0000
64.8300 806.0000 1.0000
64.8400 760.0000 1.0000
64.8500 773.0000 1.0000
64.8600 816.0000 1.0000
64.8700 820.0000 1.0000
64.8800 850.0000 1.0000
64.8900 800.0000 1.0000
64.9000 776.0000 1.0000
64.9100 783.0000 1.0000
64.9200 807.0000 1.0000
64.9300 815.0000 1.0000
64.9400 761.0000 1.0000
64.9500 774.0000 1.0000
64.9600 753.0000 1.0000
64.9700 734.0000 1.0000
64.9800 749.0000 1.0000
64.9900 724.0000 1.0000
65.0000 700.0000 1.0000
65.0100 730.0000 1.0000
65.0200 686.0000 1.0000
65.0300 707.0000 1.0000
65.0400 699.0000 1.0000
65.0500 681.0000 1.0000
65.0600 695.0000 1.0000
65.0700 691.0000 1.0000
65.0800 681.0000 1.0000
65.0900 708.0000 1.0000
65.1000 717.0000 1.0000
65.1100 704.0000 1.0000
65.1200 691.0000 1.0000
65.1300 697.0000 1.0000
65.1400 769.0000 1.0000
65.1500 708.0000 1.0000
65.1600 712.0000 1.0000
65.1700 703.0000 1.0000
65.1800 658.0000 1.0000
65.1900 680.0000 1.0000
65.2000 691.0000 1.0000
65.2100 712.0000 1.0000
65.2200 714.0000 1.0000
65.2300 722.0000 1.0000
65.2400 727.0000 1.0000
65.2500 729.0000 1.0000
65.2600 692.0000 1.0000
65.2700 673.0000 1.0000
65.2800 654.0000 1.0000
65.2900 667.0000 1.0000
65.3000 690.0000 1.0000
65.3100 730.0000 1.0000
65.3200 721.0000 1.0000
65.3300 684.0000 1.0000
65.3400 657.0000 1.0000
65.3500 687.0000 1.0000
65.3600 681.0000 1.0000
65.3700 713.0000 1.0000
65.3800 678.0000 1.0000
65.3900 676.0000 1.0000
65.4000 677.0000 1.0000
65.4100 686.0000 1.0000
65.4200 700.0000 1.0000
65.4300 691.0000 1.0000
65.4400 662.0000 1.0000
65.4500 679.0000 1.0000
65.4600 674.0000 1.0000
65.4700 727.0000 1.0000
65.4800 708.0000 1.0000
65.4900 718.0000 1.0000
65.5000 724.0000 1.0000
65.5100 725.0000 1.0000
65.5200 699.0000 1.0000
65.5300 668.0000 1.0000
65.5400 744.0000 1.0000
65.5500 743.0000 1.0000
65.5600 648.0000 1.0000
65.5700 746.0000 1.0000
65.5800 670.0000 1.0000
65.5900 673.0000 1.0000
65.6000 672.0000 1.0000
65.6100 701.0000 1.0000
65.6200 684.0000 1.0000
65.6300 701.0000 1.0000
65.6400 680.0000 1.0000
65.6500 704.0000 1.0000
65.6600 706.0000 1.0000
65.6700 716.0000 1.0000
65.6800 681.0000 1.0000
65.6900 727.0000 1.0000
65.7000 718.0000 1.0000
65.7100 704.0000 1.0000
65.7200 730.0000 1.0000
65.7300 694.0000 1.0000
65.7400 706.0000 1.0000
65.7500 753.0000 1.0000
65.7600 755.0000 1.0000
65.7700 767.0000 1.0000
65.7800 740.0000 1.0000
65.7900 730.0000 1.0000
65.8000 745.0000 1.0000
65.8100 755.0000 1.0000
65.8200 776.0000 1.0000
65.8300 740.0000 1.0000
65.8400 786.0000 1.0000
65.8500 827.0000 1.0000
65.8600 818.0000 1.0000
65.8700 842.0000 1.0000
65.8800 765.0000 1.0000
65.8900 811.0000 1.0000
65.9000 834.0000 1.0000
65.9100 841.0000 1.0000
65.9200 905.0000 1.0000
65.9300 884.0000 1.0000
65.9400 903.0000 1.0000
65.9500 903.0000 1.0000
65.9600 887.0000 1.0000
65.9700 869.0000 1.0000
65.9800 923.0000 1.0000
65.9900 983.0000 1.0000
66.0000 1015.0000 1.0000
66.0100 1000.0000 1.0000
66.0200 994.0000 1.0000
66.0300 1033.0000 1.0000
66.0400 1145.0000 1.0000
66.0500 1167.0000 1.0000
66.0600 1144.0000 1.0000
66.0700 1143.0000 1.0000
66.0800 1236.0000 1.0000
66.0900 1240.0000 1.0000
66.1000 1354.0000 1.0000
66.1100 1372.0000 1.0000
66.1200 1458.0000 1.0000
66.1300 1541.0000 1.0000
66.1400 1573.0000 1.0000
66.1500 1679.0000 1.0000
66.1600 1765.0000 1.0000
66.1700 1841.0000 1.0000
66.1800 1837.0000 1.0000
66.1900 2025.0000 1.0000
66.2000 2153.0000 1.0000
66.2100 2185.0000 1.0000
66.2200 2353.0000 1.0000
66.2300 2441.0000 1.0000
66.2400 2492.0000 1.0000
66.2500 2552.0000 1.0000
66.2600 2648.0000 1.0000
66.2700 2598.0000 1.0000
66.2800 2764.0000 1.0000
66.2900 2668.0000 1.0000
66.3000 2623.0000 1.0000
66.3100 2622.0000 1.0000
66.3200 2604.0000 1.0000
66.3300 2486.0000 1.0000
66.3400 2413.0000 1.0000
66.3500 2349.0000 1.0000
66.3600 2382.0000 1.0000
66.3700 2356.0000 1.0000
66.3800 2321.0000 1.0000
66.3900 2273.0000 1.0000
66.4000 2246.0000 1.0000
66.4100 2171.0000 1.0000
66.4200 2214.0000 1.0000
66.4300 2189.0000 1.0000
66.4400 2103.0000 1.0000
66.4500 2050.0000 1.0000
66.4600 2047.0000 1.0000
66.4700 2042.0000 1.0000
66.4800 1918.0000 1.0000
66.4900 1862.0000 1.0000
66.5000 1852.0000 1.0000
66.5100 1805.0000 1.0000
66.5200 1711.0000 1.0000
66.5300 1727.0000 1.0000
66.5400 1556.0000 1.0000
66.5500 1480.0000 1.0000
66.5600 1437.0000 1.0000
66.5700 1390.0000 1.0000
66.5800 1295.0000 1.0000
66.5900 1319.0000 1.0000
66.6000 1248.0000 1.0000
66.6100 1167.0000 1.0000
66.6200 1181.0000 1.0000
66.6300 1060.0000 1.0000
66.6400 1082.0000 1.0000
66.6500 1096.0000 1.0000
66.6600 1075.0000 1.0000
66.6700 974.0000 1.0000
66.6800 944.0000 1.0000
66.6900 961.0000 1.0000
66.7000 938.0000 1.0000
66.7100 907.0000 1.0000
66.7200 866.0000 1.0000
66.7300 846.0000 1.0000
66.7400 852.0000 1.0000
66.7500 804.0000 1.0000
66.7600 826.0000 1.0000
66.7700 830.0000 1.0000
66.7800 802.0000 1.0000
66.7900 771.0000 1.0000
66.8000 808.0000 1.0000
66.8100 778.0000 1.0000
66.8200 750.0000 1.0000
66.8300 748.0000 1.0000
66.8400 803.0000 1.0000
66.8500 765.0000 1.0000
66.8600 760.0000 1.0000
66.8700 726.0000 1.0000
66.8800 750.0000 1.0000
66.8900 708.0000 1.0000
66.9000 699.0000 1.0000
66.9100 767.0000 1.0000
66.9200 708.0000 1.0000
66.9300 706.0000 1.0000
66.9400 725.0000 1.0000
66.9500 748.0000 1.0000
66.9600 659.0000 1.0000
66.9700 727.0000 1.0000
66.9800 781.0000 1.0000
66.9900 748.0000 1.0000
67.0000 647.0000 1.0000
67.0100 668.0000 1.0000
67.0200 722.0000 1.0000
67.0300 667.0000 1.0000
67.0400 663.0000 1.0000
67.0500 653.0000 1.0000
67.0600 663.0000 1.0000
67.0700 645.0000 1.0000
67.0800 660.0000 1.0000
67.0900 644.0000 1.0000
67.1000 656.0000 1.0000
67.1100 652.0000 1.0000
67.1200 657.0000 1.0000
67.1300 679.0000 1.0000
67.1400 668.0000 1.0000
67.1500 673.0000 1.0000
67.1600 666.0000 1.0000
67.1700 643.0000 1.0000
67.1800 677.0000 1.0000
67.1900 653.0000 1.0000
67.2000 661.0000 1.0000
67.2100 665.0000 1.0000
67.2200 663.0000 1.0000
67.2300 647.0000 1.0000
67.2400 614.0000 1.0000
67.2500 662.0000 1.0000
67.2600 604.0000 1.0000
67.2700 625.0000 1.0000
67.2800 625.0000 1.0000
67.2900 641.0000 1.0000
67.3000 683.0000 1.0000
67.3100 644.0000 1.0000
67.3200 649.0000 1.0000
67.3300 662.0000 1.0000
67.3400 676.0000 1.0000
67.3500 640.0000 1.0000
67.3600 629.0000 1.0000
67.3700 618.0000 1.0000
67.3800 659.0000 1.0000
67.3900 642.0000 1.0000
67.4000 627.0000 1.0000
67.4100 631.0000 1.0000
67.4200 622.0000 1.0000
67.4300 653.0000 1.0000
67.4400 595.0000 1.0000
67.4500 627.0000 1.0000
67.4600 640.0000 1.0000
67.4700 610.0000 1.0000
67.4800 610.0000 1.0000
67.4900 610.0000 1.0000
67.5000 635.0000 1.0000
67.5100 648.0000 1.0000
67.5200 673.0000 1.0000
67.5300 614.0000 1.0000
67.5400 611.0000 1.0000
67.5500 619.0000 1.0000
67.5600 614.0000 1.0000
67.5700 626.0000 1.0000
67.5800 601.0000 1.0000
67.5900 585.0000 1.0000
67.6000 623.0000 1.0000
67.6100 651.0000 1.0000
67.6200 594.0000 1.0000
67.6300 604.0000 1.0000
67.6400 649.0000 1.0000
67.6500 620.0000 1.0000
67.6600 587.0000 1.0000
67.6700 615.0000 1.0000
67.6800 626.0000 1.0000
67.6900 632.0000 1.0000
67.7000 606.0000 1.0000
67.7100 582.0000 1.0000
67.7200 634.0000 1.0000
67.7300 604.0000 1.0000
67.7400 615.0000 1.0000
67.7500 604.0000 1.0000
67.7600 604.0000 1.0000
67.7700 627.0000 1.0000
67.7800 568.0000 1.0000
67.7900 627.0000 1.0000
67.8000 597.0000 1.0000
67.8100 636.0000 1.0000
67.8200 629.0000 1.0000
67.8300 625.0000 1.0000
67.8400 615.0000 1.0000
67.8500 573.0000 1.0000
67.8600 581.0000 1.0000
67.8700 630.0000 1.0000
67.8800 609.0000 1.0000
67.8900 630.0000 1.0000
67.9000 613.0000 1.0000
67.9100 648.0000 1.0000
67.9200 597.0000 1.0000
67.9300 640.0000 1.0000
67.9400 613.0000 1.0000
67.9500 620.0000 1.0000
67.9600 581.0000 1.0000
67.9700 614.0000 1.0000
67.9800 590.0000 1.0000
67.9900 621.0000 1.0000
68.0000 624.0000 1.0000
68.0100 625.0000 1.0000
68.0200 620.0000 1.0000
68.0300 601.0000 1.0000
68.0400 582.0000 1.0000
68.0500 612.0000 1.0000
68.0600 588.0000 1.0000
68.0700 592.0000 1.0000
68.0800 578.0000 1.0000
68.0900 600.0000 1.0000
68.1000 611.0000 1.0000
68.1100 607.0000 1.0000
68.1200 619.0000 1.0000
68.1300 632.0000 1.0000
68.1400 630.0000 1.0000
68.1500 630.0000 1.0000
68.1600 596.0000 1.0000
68.1700 596.0000 1.0000
68.1800 652.0000 1.0000
68.1900 597.0000 1.0000
68.2000 613.0000 1.0000
68.2100 582.0000 1.0000
68.2200 608.0000 1.0000
68.2300 627.0000 1.0000
68.2400 597.0000 1.0000
68.2500 602.0000 1.0000
68.2600 618.0000 1.0000
68.2700 604.0000 1.0000
68.2800 592.0000 1.0000
68.2900 592.0000 1.0000
68.3000 618.0000 1.0000
68.3100 566.0000 1.0000
68.3200 623.0000 1.0000
68.3300 605.0000 1.0000
68.3400 640.0000 1.0000
68.3500 573.0000 1.0000
68.3600 564.0000 1.0000
68.3700 570.0000 1.0000
68.3800 602.0000 1.0000
68.3900 626.0000 1.0000
68.4000 622.0000 1.0000
68.4100 572.0000 1.0000
68.4200 611.0000 1.0000
68.4300 585.0000 1.0000
68.4400 583.0000 1.0000
68.4500 591.0000 1.0000
68.4600 586.0000 1.0000
68.4700 602.0000 1.0000
68.4800 538.0000 1.0000
68.4900 603.0000 1.0000
68.5000 625.0000 1.0000
68.5100 621.0000 1.0000
68.5200 578.0000 1.0000
68.5300 592.0000 1.0000
68.5400 602.0000 1.0000
68.5500 612.0000 1.0000
68.5600 611.0000 1.0000
68.5700 580.0000 1.0000
68.5800 622.0000 1.0000
68.5900 560.0000 1.0000
68.6000 602.0000 1.0000
68.6100 593.0000 1.0000
68.6200 596.0000 1.0000
68.6300 598.0000 1.0000
68.6400 573.0000 1.0000
68.6500 556.0000 1.0000
68.6600 549.0000 1.0000
68.6700 589.0000 1.0000
68.6800 586.0000 1.0000
68.6900 629.0000 1.0000
68.7000 613.0000 1.0000
68.7100 589.0000 1.0000
68.7200 596.0000 1.0000
68.7300 605.0000 1.0000
68.7400 588.0000 1.0000
68.7500 602.0000 1.0000
68.7600 593.0000 1.0000
68.7700 554.0000 1.0000
68.7800 580.0000 1.0000
68.7900 591.0000 1.0000
68.8000 580.0000 1.0000
68.8100 603.0000 1.0000
68.8200 588.0000 1.0000
68.8300 619.0000 1.0000
68.8400 610.0000 1.0000
68.8500 618.0000 1.0000
68.8600 585.0000 1.0000
68.8700 579.0000 1.0000
68.8800 553.0000 1.0000
68.8900 563.0000 1.0000
68.9000 578.0000 1.0000
68.9100 567.0000 1.0000
68.9200 657.0000 1.0000
68.9300 600.0000 1.0000
68.9400 569.0000 1.0000
68.9500 558.0000 1.0000
68.9600 593.0000 1.0000
68.9700 583.0000 1.0000
68.9800 563.0000 1.0000
68.9900 550.0000 1.0000
69.0000 592.0000 1.0000
69.0100 560.0000 1.0000
69.0200 606.0000 1.0000
69.0300 627.0000 1.0000
69.0400 608.0000 1.0000
69.0500 587.0000 1.0000
69.0600 561.0000 1.0000
69.0700 624.0000 1.0000
69.0800 559.0000 1.0000
69.0900 607.0000 1.0000
69.1000 582.0000 1.0000
69.1100 575.0000 1.0000
69.1200 623.0000 1.0000
69.1300 611.0000 1.0000
69.1400 584.0000 1.0000
69.1500 580.0000 1.0000
69.1600 547.0000 1.0000
69.1700 581.0000 1.0000
69.1800 601.0000 1.0000
69.1900 590.0000 1.0000
69.2000 593.0000 1.0000
69.2100 573.0000 1.0000
69.2200 567.0000 1.0000
69.2300 592.0000 1.0000
69.2400 553.0000 1.0000
69.2500 550.0000 1.0000
69.2600 570.0000 1.0000
69.2700 560.0000 1.0000
69.2800 599.0000 1.0000
69.2900 587.0000 1.0000
69.3000 604.0000 1.0000
69.3100 583.0000 1.0000
69.3200 586.0000 1.0000
69.3300 592.0000 1.0000
69.3400 581.0000 1.0000
69.3500 560.0000 1.0000
69.3600 527.0000 1.0000
69.3700 576.0000 1.0000
69.3800 619.0000 1.0000
69.3900 611.0000 1.0000
69.4000 557.0000 1.0000
69.4100 565.0000 1.0000
69.4200 597.0000 1.0000
69.4300 594.0000 1.0000
69.4400 595.0000 1.0000
69.4500 587.0000 1.0000
69.4600 588.0000 1.0000
69.4700 595.0000 1.0000
69.4800 614.0000 1.0000
69.4900 609.0000 1.0000
69.5000 576.0000 1.0000
69.5100 571.0000 1.0000
69.5200 582.0000 1.0000
69.5300 592.0000 1.0000
69.5400 590.0000 1.0000
69.5500 604.0000 1.0000
69.5600 594.0000 1.0000
69.5700 629.0000 1.0000
69.5800 617.0000 1.0000
69.5900 570.0000 1.0000
69.6000 591.0000 1.0000
69.6100 616.0000 1.0000
69.6200 612.0000 1.0000
69.6300 568.0000 1.0000
69.6400 618.0000 1.0000
69.6500 623.0000 1.0000
69.6600 582.0000 1.0000
69.6700 580.0000 1.0000
69.6800 577.0000 1.0000
69.6900 581.0000 1.0000
69.7000 588.0000 1.0000
69.7100 599.0000 1.0000
69.7200 600.0000 1.0000
69.7300 565.0000 1.0000
69.7400 616.0000 1.0000
69.7500 598.0000 1.0000
69.7600 552.0000 1.0000
69.7700 562.0000 1.0000
69.7800 536.0000 1.0000
69.7900 577.0000 1.0000
69.8000 601.0000 1.0000
69.8100 562.0000 1.0000
69.8200 573.0000 1.0000
69.8300 610.0000 1.0000
69.8400 633.0000 1.0000
69.8500 555.0000 1.0000
69.8600 577.0000 1.0000
69.8700 616.0000 1.0000
69.8800 545.0000 1.0000
69.8900 587.0000 1.0000
69.9000 608.0000 1.0000
69.9100 610.0000 1.0000
69.9200 562.0000 1.0000
69.9300 605.0000 1.0000
69.9400 610.0000 1.0000
69.9500 589.0000 1.0000
69.9600 559.0000 1.0000
69.9700 608.0000 1.0000
69.9800 577.0000 1.0000
69.9900 554.0000 1.0000
70.0000 556.0000 1.0000
*RAS_INT_END
*RAS_TEMPERATURE_START
*RAS_TEMPERATURE_END
*RAS_DATA_END
