*RAS_DATA_START
*RAS_HEADER_START
*DISP_FMT_X "%.2f"
*DISP_FMT_Y "%.0f"
*DISP_FULLSCALE "16515.0000000000"
*DISP_LINE_COLOR "255.0000000000"
*DISP_LINE_STYLE "0.0000000000"
*DISP_LINE_WIDTH "0.2500000000"
*DISP_NOTE "測定データ-4"
*DISP_OFFSET_Y "0.0000000000"
*DISP_PEAKSEARCH_UNIT_Y "cps"
*DISP_RANGE_BOTTOM "0.0000000000"
*DISP_RANGE_LEFT "20.0000000000"
*DISP_RANGE_LOGCUTOFF "0.0100000000"
*DISP_RANGE_RIGHT "70.0000000000"
*DISP_RANGE_TOP "16515.0000000000"
*DISP_SCALE_MODE_Y "0.0000000000"
*DISP_TAB_NAME "2θ/θ"
*DISP_TITLE_Y "強度"
*DISP_UNIT_Y "cps"
*DISP_WINDOW_NAME "MSG_MACROENGINE"
*FILE_COMMENT " "
*FILE_MD5 ""
*FILE_MEMO " "
*FILE_OPERATOR "Administrator"
*FILE_SAMPLE " "
*FILE_TYPE "RAS_RAW"
*FILE_USERGROUP "システムマネージャ"
*FILE_VERSION "1.0000000000"
*HW_ATTACHMENT_ID "ATT0025"
*HW_ATTACHMENT_NAME "標準|Standard"
*HW_COUNTER_ID-0 "CUT0025"
*HW_COUNTER_ID-1 "CUT0020"
*HW_COUNTER_ID-2 "CUT0020"
*HW_COUNTER_ID-3 "CSL0021"
*HW_COUNTER_ID-4 "CMC0021"
*HW_COUNTER_NAME-0 "D/teX Ultra|D/teX Ultra"
*HW_COUNTER_NAME-1 "None|None"
*HW_COUNTER_NAME-2 "None|None"
*HW_COUNTER_NAME-3 "BBM|BBM"
*HW_COUNTER_NAME-4 "検出器モノクロメータ|Detector monochromator"
*HW_COUNTER_SELECT_NAME "D/teX Ultra|D/teX Ultra"
*HW_GONIOMETER_ID "GON0023"
*HW_GONIOMETER_NAME "SmartLab|SmartLab"
*HW_GONIOMETER_RADIUS-0 "90.0"
*HW_GONIOMETER_RADIUS-1 "114.0"
*HW_GONIOMETER_RADIUS-2 "190.0"
*HW_GONIOMETER_RADIUS-3 "300.0"
*HW_GONIOMETER_RADIUS-4 "187.0"
*HW_GONIOMETER_RADIUS-5 "300.0"
*HW_GONIOMETER_RADIUS-6 "113.0"
*HW_GONIOMETER_RADIUS-7 "331.0"
*HW_I_OPT_ID-0 "CBO0021"
*HW_I_OPT_ID-1 "ICR0023"
*HW_I_OPT_ID-2 "ISL0021"
*HW_I_OPT_ID-3 "ISO0021"
*HW_I_OPT_ID-4 "IAD0021"
*HW_I_OPT_ID-5 "IPR0001"
*HW_I_OPT_NAME-0 "CBOユニット|CBO unit"
*HW_I_OPT_NAME-1 "標準入射光学ユニット|Standard incident optical unit"
*HW_I_OPT_NAME-2 "標準入射スリットボックス|Standard incident slit box"
*HW_I_OPT_NAME-3 "入射平行スリット|Incident parallel slit"
*HW_I_OPT_NAME-4 "長手制限スリット|Length limiting slit"
*HW_I_OPT_NAME-5 "None|None"
*HW_R_ATTENUATER_AUTOMODE "0"
*HW_R_OPT_ID-0 "RSS0021"
*HW_R_OPT_ID-1 "RCR0023"
*HW_R_OPT_ID-2 "RSO0021"
*HW_R_OPT_ID-3 "RRS0021"
*HW_R_OPT_ID-4 "ATN0021"
*HW_R_OPT_ID-5 "RFL0021"
*HW_R_OPT_ID-6 "RAD0021"
*HW_R_OPT_NAME-0 "標準受光スリットボックス1|Standard receiving slit box # 1"
*HW_R_OPT_NAME-1 "標準受光光学ユニット1|Standard receiving unit # 1"
*HW_R_OPT_NAME-2 "標準受光光学ユニット2|Standard receiving optical unit # 2"
*HW_R_OPT_NAME-3 "標準受光スリットボックス2|Standard receiving slit box # 2"
*HW_R_OPT_NAME-4 "標準アッテネータ|Standard Attenuator"
*HW_R_OPT_NAME-5 "Cu Kβ|Cu K-beta"
*HW_R_OPT_NAME-6 "調整用受光スリット|Alignment receiving slit"
*HW_SAMPLE_HOLDER_ID "SMP0023"
*HW_SAMPLE_HOLDER_NAME "標準Zステージ|Standard Z stage"
*HW_XG_CURRENT_MAX "50"
*HW_XG_CURRENT_MIN "2"
*HW_XG_CURRENT_RESOLUTION "1"
*HW_XG_CURRENT_UNIT "mA"
*HW_XG_FOCUS "1mm x 10mm"
*HW_XG_FOCUS_TYPE "Normal"
*HW_XG_ID ""
*HW_XG_NAME "3kW 封入管(ID:1200)|3kW Sealed tube(ID:1200)"
*HW_XG_TARGET_ATOMIC_NUMBER "29.0000000000"
*HW_XG_TARGET_NAME "Cu"
*HW_XG_TYPE "Hermetic"
*HW_XG_VOLTAGE_MAX "60"
*HW_XG_VOLTAGE_MIN "20"
*HW_XG_VOLTAGE_RESOLUTION "1"
*HW_XG_VOLTAGE_UNIT "kV"
*HW_XG_WATT_MAX "1.500"
*HW_XG_WATT_UNIT "kW"
*HW_XG_WAVE_LENGTH_ALPHA1 "1.540593"
*HW_XG_WAVE_LENGTH_ALPHA2 "1.544414"
*HW_XG_WAVE_LENGTH_BETA "1.392250"
*MEAS_COND_AXIS_NAME-0 "2θ/θ"
*MEAS_COND_AXIS_NAME-1 "2θ"
*MEAS_COND_AXIS_NAME-2 "ω"
*MEAS_COND_AXIS_NAME-3 "Z"
*MEAS_COND_AXIS_NAME-4 "2θ/ω"
*MEAS_COND_AXIS_NAME-5 "θs"
*MEAS_COND_AXIS_NAME-6 "θd"
*MEAS_COND_AXIS_NAME-7 "Ts"
*MEAS_COND_AXIS_NAME-8 "CBO選択スリット"
*MEAS_COND_AXIS_NAME-9 "M"
*MEAS_COND_AXIS_NAME-10 "入射平行スリット"
*MEAS_COND_AXIS_NAME-11 "入射スリット"
*MEAS_COND_AXIS_NAME-12 ""
*MEAS_COND_AXIS_NAME-13 "Zs"
*MEAS_COND_AXIS_NAME-14 "入射光学素子"
*MEAS_COND_AXIS_NAME-15 "長手制限スリット"
*MEAS_COND_AXIS_NAME-16 "センタースリット"
*MEAS_COND_AXIS_NAME-17 "フィルター"
*MEAS_COND_AXIS_NAME-18 "受光スリット1"
*MEAS_COND_AXIS_NAME-19 "受光スリット2"
*MEAS_COND_AXIS_NAME-20 "受光光学素子"
*MEAS_COND_AXIS_NAME-21 "受光平行スリット"
*MEAS_COND_AXIS_NAME-22 "調整用受光スリット"
*MEAS_COND_AXIS_NAME-23 ""
*MEAS_COND_AXIS_NAME-24 ""
*MEAS_COND_AXIS_NAME-25 "Zd"
*MEAS_COND_AXIS_NAME-26 "アッテネータ"
*MEAS_COND_AXIS_NAME-27 "検出器モノクロメータ"
*MEAS_COND_AXIS_NAME-28 "モノクロメータスリット"
*MEAS_COND_AXIS_NAME-29 "プライマリビーム"
*MEAS_COND_AXIS_NAME-30 "PHA"
*MEAS_COND_AXIS_NAME_INTERNAL-0 "TwoThetaTheta"
*MEAS_COND_AXIS_NAME_INTERNAL-1 "TwoTheta"
*MEAS_COND_AXIS_NAME_INTERNAL-2 "Omega"
*MEAS_COND_AXIS_NAME_INTERNAL-3 "Z"
*MEAS_COND_AXIS_NAME_INTERNAL-4 "TwoThetaOmega"
*MEAS_COND_AXIS_NAME_INTERNAL-5 "ThetaS"
*MEAS_COND_AXIS_NAME_INTERNAL-6 "ThetaD"
*MEAS_COND_AXIS_NAME_INTERNAL-7 "Ts"
*MEAS_COND_AXIS_NAME_INTERNAL-8 "CBO"
*MEAS_COND_AXIS_NAME_INTERNAL-9 "CBO-M"
*MEAS_COND_AXIS_NAME_INTERNAL-10 "IncidentSollerSlit"
*MEAS_COND_AXIS_NAME_INTERNAL-11 "IncidentSlitBox"
*MEAS_COND_AXIS_NAME_INTERNAL-12 "IncidentSlitBox-_Axis"
*MEAS_COND_AXIS_NAME_INTERNAL-13 "Zs"
*MEAS_COND_AXIS_NAME_INTERNAL-14 "IncidentMonochromator"
*MEAS_COND_AXIS_NAME_INTERNAL-15 "IncidentAxdSlit"
*MEAS_COND_AXIS_NAME_INTERNAL-16 "CenterSlit"
*MEAS_COND_AXIS_NAME_INTERNAL-17 "Filter"
*MEAS_COND_AXIS_NAME_INTERNAL-18 "ReceivingSlitBox1"
*MEAS_COND_AXIS_NAME_INTERNAL-19 "ReceivingSlitBox2"
*MEAS_COND_AXIS_NAME_INTERNAL-20 "ReceivingOptics"
*MEAS_COND_AXIS_NAME_INTERNAL-21 "ReceivingSollerSlit"
*MEAS_COND_AXIS_NAME_INTERNAL-22 "ReceivingAxdSlit"
*MEAS_COND_AXIS_NAME_INTERNAL-23 "ReceivingSlitBox1-_Axis"
*MEAS_COND_AXIS_NAME_INTERNAL-24 "ReceivingSlitBox2-_Axis"
*MEAS_COND_AXIS_NAME_INTERNAL-25 "ReceivingSlitBox2-Zd"
*MEAS_COND_AXIS_NAME_INTERNAL-26 "Attenuator"
*MEAS_COND_AXIS_NAME_INTERNAL-27 "CounterMonochromator"
*MEAS_COND_AXIS_NAME_INTERNAL-28 "CounterSlit"
*MEAS_COND_AXIS_NAME_INTERNAL-29 "IncidentPrimary"
*MEAS_COND_AXIS_NAME_INTERNAL-30 "PHA"
*MEAS_COND_AXIS_NAME_MAGICNO-0 "83951616.0000000000"
*MEAS_COND_AXIS_NAME_MAGICNO-1 "268632064.0000000000"
*MEAS_COND_AXIS_NAME_MAGICNO-2 "268500992.0000000000"
*MEAS_COND_AXIS_NAME_MAGICNO-3 "285278208.0000000000"
*MEAS_COND_AXIS_NAME_MAGICNO-4 "83951616.0000000000"
*MEAS_COND_AXIS_NAME_MAGICNO-5 "131072.0000000000"
*MEAS_COND_AXIS_NAME_MAGICNO-6 "131072.0000000000"
*MEAS_COND_AXIS_NAME_MAGICNO-7 "318898176.0000000000"
*MEAS_COND_AXIS_NAME_MAGICNO-8 "20971521.0000000000"
*MEAS_COND_AXIS_NAME_MAGICNO-9 "285343744.0000000000"
*MEAS_COND_AXIS_NAME_MAGICNO-10 "20971521.0000000000"
*MEAS_COND_AXIS_NAME_MAGICNO-11 "22020097.0000000000"
*MEAS_COND_AXIS_NAME_MAGICNO-12 "25165824.0000000000"
*MEAS_COND_AXIS_NAME_MAGICNO-13 "318898176.0000000000"
*MEAS_COND_AXIS_NAME_MAGICNO-14 "1.0000000000"
*MEAS_COND_AXIS_NAME_MAGICNO-15 "20971521.0000000000"
*MEAS_COND_AXIS_NAME_MAGICNO-16 "20971521.0000000000"
*MEAS_COND_AXIS_NAME_MAGICNO-17 "20971521.0000000000"
*MEAS_COND_AXIS_NAME_MAGICNO-18 "23068673.0000000000"
*MEAS_COND_AXIS_NAME_MAGICNO-19 "23068673.0000000000"
*MEAS_COND_AXIS_NAME_MAGICNO-20 "20971521.0000000000"
*MEAS_COND_AXIS_NAME_MAGICNO-21 "20971521.0000000000"
*MEAS_COND_AXIS_NAME_MAGICNO-22 "20971521.0000000000"
*MEAS_COND_AXIS_NAME_MAGICNO-23 "25165824.0000000000"
*MEAS_COND_AXIS_NAME_MAGICNO-24 "25165824.0000000000"
*MEAS_COND_AXIS_NAME_MAGICNO-25 "285343744.0000000000"
*MEAS_COND_AXIS_NAME_MAGICNO-26 "17301505.0000000000"
*MEAS_COND_AXIS_NAME_MAGICNO-27 "20971521.0000000000"
*MEAS_COND_AXIS_NAME_MAGICNO-28 "20971521.0000000000"
*MEAS_COND_AXIS_NAME_MAGICNO-29 "20971521.0000000000"
*MEAS_COND_AXIS_NAME_MAGICNO-30 "0.0000000000"
*MEAS_COND_AXIS_OFFSET-0 "-"
*MEAS_COND_AXIS_OFFSET-1 "-0.0801000000"
*MEAS_COND_AXIS_OFFSET-2 "0.2338000000"
*MEAS_COND_AXIS_OFFSET-3 "-"
*MEAS_COND_AXIS_OFFSET-4 "-"
*MEAS_COND_AXIS_OFFSET-5 "0.2338000000"
*MEAS_COND_AXIS_OFFSET-6 "-0.3139000000"
*MEAS_COND_AXIS_OFFSET-7 "-"
*MEAS_COND_AXIS_OFFSET-8 "-"
*MEAS_COND_AXIS_OFFSET-9 "-"
*MEAS_COND_AXIS_OFFSET-10 "-"
*MEAS_COND_AXIS_OFFSET-11 "-"
*MEAS_COND_AXIS_OFFSET-12 "-"
*MEAS_COND_AXIS_OFFSET-13 "-"
*MEAS_COND_AXIS_OFFSET-14 "-"
*MEAS_COND_AXIS_OFFSET-15 "-"
*MEAS_COND_AXIS_OFFSET-16 "-"
*MEAS_COND_AXIS_OFFSET-17 "-"
*MEAS_COND_AXIS_OFFSET-18 "-"
*MEAS_COND_AXIS_OFFSET-19 "-"
*MEAS_COND_AXIS_OFFSET-20 "-"
*MEAS_COND_AXIS_OFFSET-21 "-"
*MEAS_COND_AXIS_OFFSET-22 "-"
*MEAS_COND_AXIS_OFFSET-23 "-"
*MEAS_COND_AXIS_OFFSET-24 "-"
*MEAS_COND_AXIS_OFFSET-25 "-"
*MEAS_COND_AXIS_OFFSET-26 "-"
*MEAS_COND_AXIS_OFFSET-27 "-"
*MEAS_COND_AXIS_OFFSET-28 "-"
*MEAS_COND_AXIS_OFFSET-29 "-"
*MEAS_COND_AXIS_OFFSET-30 "-"
*MEAS_COND_AXIS_POSITION-0 "0.0000000000"
*MEAS_COND_AXIS_POSITION-1 "0.0000000000"
*MEAS_COND_AXIS_POSITION-2 "0.0000000000"
*MEAS_COND_AXIS_POSITION-3 "-2.9583600000"
*MEAS_COND_AXIS_POSITION-4 "0.0000000000"
*MEAS_COND_AXIS_POSITION-5 "0.0000000000"
*MEAS_COND_AXIS_POSITION-6 "0.0000000000"
*MEAS_COND_AXIS_POSITION-7 "-0.4278800000"
*MEAS_COND_AXIS_POSITION-8 "BB"
*MEAS_COND_AXIS_POSITION-9 "0.0000000000"
*MEAS_COND_AXIS_POSITION-10 "Soller_slit_5.0deg"
*MEAS_COND_AXIS_POSITION-11 "2/3deg"
*MEAS_COND_AXIS_POSITION-12 "2.2088000000"
*MEAS_COND_AXIS_POSITION-13 "-1.0609400000"
*MEAS_COND_AXIS_POSITION-14 "0.0000000000"
*MEAS_COND_AXIS_POSITION-15 "10.0mm"
*MEAS_COND_AXIS_POSITION-16 "None"
*MEAS_COND_AXIS_POSITION-17 "Cu_K-beta"
*MEAS_COND_AXIS_POSITION-18 "13.000mm"
*MEAS_COND_AXIS_POSITION-19 "13.000mm"
*MEAS_COND_AXIS_POSITION-20 "No_unit"
*MEAS_COND_AXIS_POSITION-21 "Soller_slit_5.0deg"
*MEAS_COND_AXIS_POSITION-22 "None"
*MEAS_COND_AXIS_POSITION-23 "13.0000000000"
*MEAS_COND_AXIS_POSITION-24 "13.0000000000"
*MEAS_COND_AXIS_POSITION-25 "0.0081300000"
*MEAS_COND_AXIS_POSITION-26 "Open"
*MEAS_COND_AXIS_POSITION-27 "None"
*MEAS_COND_AXIS_POSITION-28 "None"
*MEAS_COND_AXIS_POSITION-29 "None"
*MEAS_COND_AXIS_POSITION-30 "38.0000000000"
*MEAS_COND_AXIS_UNIT-0 "deg"
*MEAS_COND_AXIS_UNIT-1 "deg"
*MEAS_COND_AXIS_UNIT-2 "deg"
*MEAS_COND_AXIS_UNIT-3 "mm"
*MEAS_COND_AXIS_UNIT-4 "deg"
*MEAS_COND_AXIS_UNIT-5 "deg"
*MEAS_COND_AXIS_UNIT-6 "deg"
*MEAS_COND_AXIS_UNIT-7 "mm"
*MEAS_COND_AXIS_UNIT-8 ""
*MEAS_COND_AXIS_UNIT-9 "pulse"
*MEAS_COND_AXIS_UNIT-10 ""
*MEAS_COND_AXIS_UNIT-11 ""
*MEAS_COND_AXIS_UNIT-12 "mm"
*MEAS_COND_AXIS_UNIT-13 "mm"
*MEAS_COND_AXIS_UNIT-14 ""
*MEAS_COND_AXIS_UNIT-15 ""
*MEAS_COND_AXIS_UNIT-16 ""
*MEAS_COND_AXIS_UNIT-17 ""
*MEAS_COND_AXIS_UNIT-18 ""
*MEAS_COND_AXIS_UNIT-19 ""
*MEAS_COND_AXIS_UNIT-20 ""
*MEAS_COND_AXIS_UNIT-21 ""
*MEAS_COND_AXIS_UNIT-22 ""
*MEAS_COND_AXIS_UNIT-23 "mm"
*MEAS_COND_AXIS_UNIT-24 "mm"
*MEAS_COND_AXIS_UNIT-25 "mm"
*MEAS_COND_AXIS_UNIT-26 ""
*MEAS_COND_AXIS_UNIT-27 ""
*MEAS_COND_AXIS_UNIT-28 ""
*MEAS_COND_AXIS_UNIT-29 ""
*MEAS_COND_AXIS_UNIT-30 "div"
*MEAS_COND_COUNTER_CNTLOSS_CORR "0.0000000000"
*MEAS_COND_COUNTER_PHABASE "38.0000000000"
*MEAS_COND_COUNTER_PHAWINDOW "16.0000000000"
*MEAS_COND_COUNTER_PHA_UNIT "div"
*MEAS_COND_COUNTER_TAUDIFF "30.0000000000"
*MEAS_COND_COUNTER_TAUINT "0.0000000000"
*MEAS_COND_IRRADIATION_MODE "OFF"
*MEAS_COND_IRRADIATION_WIDTH ""
*MEAS_COND_OPT_ATTR "集中法"
*MEAS_COND_OPT_NAME "@集中法"
*MEAS_COND_UNSYMMETRIC_MODE "OFF"
*MEAS_COND_XG_CURRENT "30.0000000000"
*MEAS_COND_XG_VOLTAGE "40.0000000000"
*MEAS_COND_XG_WAVE_TYPE "Ka"
*MEAS_DATA_COUNT "5001.0000000000"
*MEAS_SCAN_AXIS_X "2θ/θ"
*MEAS_SCAN_AXIS_X_INTERNAL "TwoThetaTheta"
*MEAS_SCAN_END_TIME "08/06/22 14:34:43"
*MEAS_SCAN_MODE "CONTINUOUS"
*MEAS_SCAN_MONITOR "0"
*MEAS_SCAN_RESOLUTION_X "0.0002"
*MEAS_SCAN_SPEED "2.5"
*MEAS_SCAN_SPEED_UNIT "deg/min"
*MEAS_SCAN_START "20.0000000000"
*MEAS_SCAN_START_TIME "08/06/22 14:13:19"
*MEAS_SCAN_STEP "0.0100000000"
*MEAS_SCAN_STOP "70.0000000000"
*MEAS_SCAN_UNIT_X "deg"
*MEAS_SCAN_UNIT_Y "counts"
*RAS_HEADER_END
*RAS_INT_START
20.0000 1023.0000 1.0000
20.0100 928.0000 1.0000
20.0200 916.0000 1.0000
20.0300 985.0000 1.0000
20.0400 915.0000 1.0000
20.0500 883.0000 1.0000
20.0600 931.0000 1.0000
20.0700 968.0000 1.0000
20.0800 888.0000 1.0000
20.0900 943.0000 1.0000
20.1000 938.0000 1.0000
20.1100 982.0000 1.0000
20.1200 920.0000 1.0000
20.1300 917.0000 1.0000
20.1400 967.0000 1.0000
20.1500 923.0000 1.0000
20.1600 939.0000 1.0000
20.1700 948.0000 1.0000
20.1800 953.0000 1.0000
20.1900 915.0000 1.0000
20.2000 919.0000 1.0000
20.2100 917.0000 1.0000
20.2200 912.0000 1.0000
20.2300 943.0000 1.0000
20.2400 889.0000 1.0000
20.2500 905.0000 1.0000
20.2600 913.0000 1.0000
20.2700 949.0000 1.0000
20.2800 970.0000 1.0000
20.2900 899.0000 1.0000
20.3000 925.0000 1.0000
20.3100 935.0000 1.0000
20.3200 943.0000 1.0000
20.3300 936.0000 1.0000
20.3400 964.0000 1.0000
20.3500 949.0000 1.0000
20.3600 981.0000 1.0000
20.3700 949.0000 1.0000
20.3800 913.0000 1.0000
20.3900 931.0000 1.0000
20.4000 890.0000 1.0000
20.4100 935.0000 1.0000
20.4200 948.0000 1.0000
20.4300 954.0000 1.0000
20.4400 913.0000 1.0000
20.4500 938.0000 1.0000
20.4600 909.0000 1.0000
20.4700 941.0000 1.0000
20.4800 919.0000 1.0000
20.4900 975.0000 1.0000
20.5000 900.0000 1.0000
20.5100 908.0000 1.0000
20.5200 943.0000 1.0000
20.5300 934.0000 1.0000
20.5400 977.0000 1.0000
20.5500 943.0000 1.0000
20.5600 903.0000 1.0000
20.5700 961.0000 1.0000
20.5800 929.0000 1.0000
20.5900 899.0000 1.0000
20.6000 952.0000 1.0000
20.6100 908.0000 1.0000
20.6200 896.0000 1.0000
20.6300 916.0000 1.0000
20.6400 929.0000 1.0000
20.6500 942.0000 1.0000
20.6600 890.0000 1.0000
20.6700 914.0000 1.0000
20.6800 980.0000 1.0000
20.6900 950.0000 1.0000
20.7000 929.0000 1.0000
20.7100 935.0000 1.0000
20.7200 911.0000 1.0000
20.7300 949.0000 1.0000
20.7400 923.0000 1.0000
20.7500 907.0000 1.0000
20.7600 896.0000 1.0000
20.7700 950.0000 1.0000
20.7800 914.0000 1.0000
20.7900 919.0000 1.0000
20.8000 916.0000 1.0000
20.8100 921.0000 1.0000
20.8200 914.0000 1.0000
20.8300 919.0000 1.0000
20.8400 915.0000 1.0000
20.8500 919.0000 1.0000
20.8600 894.0000 1.0000
20.8700 933.0000 1.0000
20.8800 942.0000 1.0000
20.8900 892.0000 1.0000
20.9000 904.0000 1.0000
20.9100 901.0000 1.0000
20.9200 932.0000 1.0000
20.9300 956.0000 1.0000
20.9400 982.0000 1.0000
20.9500 933.0000 1.0000
20.9600 862.0000 1.0000
20.9700 939.0000 1.0000
20.9800 960.0000 1.0000
20.9900 933.0000 1.0000
21.0000 932.0000 1.0000
21.0100 922.0000 1.0000
21.0200 891.0000 1.0000
21.0300 935.0000 1.0000
21.0400 943.0000 1.0000
21.0500 910.0000 1.0000
21.0600 942.0000 1.0000
21.0700 982.0000 1.0000
21.0800 945.0000 1.0000
21.0900 938.0000 1.0000
21.1000 905.0000 1.0000
21.1100 903.0000 1.0000
21.1200 921.0000 1.0000
21.1300 901.0000 1.0000
21.1400 930.0000 1.0000
21.1500 931.0000 1.0000
21.1600 922.0000 1.0000
21.1700 922.0000 1.0000
21.1800 964.0000 1.0000
21.1900 908.0000 1.0000
21.2000 876.0000 1.0000
21.2100 911.0000 1.0000
21.2200 928.0000 1.0000
21.2300 960.0000 1.0000
21.2400 920.0000 1.0000
21.2500 974.0000 1.0000
21.2600 927.0000 1.0000
21.2700 945.0000 1.0000
21.2800 938.0000 1.0000
21.2900 899.0000 1.0000
21.3000 967.0000 1.0000
21.3100 908.0000 1.0000
21.3200 928.0000 1.0000
21.3300 906.0000 1.0000
21.3400 885.0000 1.0000
21.3500 954.0000 1.0000
21.3600 890.0000 1.0000
21.3700 914.0000 1.0000
21.3800 944.0000 1.0000
21.3900 943.0000 1.0000
21.4000 887.0000 1.0000
21.4100 924.0000 1.0000
21.4200 929.0000 1.0000
21.4300 917.0000 1.0000
21.4400 910.0000 1.0000
21.4500 948.0000 1.0000
21.4600 875.0000 1.0000
21.4700 910.0000 1.0000
21.4800 869.0000 1.0000
21.4900 894.0000 1.0000
21.5000 925.0000 1.0000
21.5100 901.0000 1.0000
21.5200 911.0000 1.0000
21.5300 890.0000 1.0000
21.5400 932.0000 1.0000
21.5500 912.0000 1.0000
21.5600 959.0000 1.0000
21.5700 907.0000 1.0000
21.5800 916.0000 1.0000
21.5900 925.0000 1.0000
21.6000 896.0000 1.0000
21.6100 928.0000 1.0000
21.6200 883.0000 1.0000
21.6300 910.0000 1.0000
21.6400 918.0000 1.0000
21.6500 931.0000 1.0000
21.6600 931.0000 1.0000
21.6700 981.0000 1.0000
21.6800 923.0000 1.0000
21.6900 914.0000 1.0000
21.7000 915.0000 1.0000
21.7100 941.0000 1.0000
21.7200 928.0000 1.0000
21.7300 954.0000 1.0000
21.7400 904.0000 1.0000
21.7500 928.0000 1.0000
21.7600 905.0000 1.0000
21.7700 955.0000 1.0000
21.7800 902.0000 1.0000
21.7900 958.0000 1.0000
21.8000 939.0000 1.0000
21.8100 935.0000 1.0000
21.8200 889.0000 1.0000
21.8300 882.0000 1.0000
21.8400 869.0000 1.0000
21.8500 909.0000 1.0000
21.8600 933.0000 1.0000
21.8700 880.0000 1.0000
21.8800 922.0000 1.0000
21.8900 934.0000 1.0000
21.9000 926.0000 1.0000
21.9100 890.0000 1.0000
21.9200 888.0000 1.0000
21.9300 903.0000 1.0000
21.9400 926.0000 1.0000
21.9500 914.0000 1.0000
21.9600 916.0000 1.0000
21.9700 900.0000 1.0000
21.9800 945.0000 1.0000
21.9900 910.0000 1.0000
22.0000 886.0000 1.0000
22.0100 923.0000 1.0000
22.0200 944.0000 1.0000
22.0300 919.0000 1.0000
22.0400 909.0000 1.0000
22.0500 920.0000 1.0000
22.0600 874.0000 1.0000
22.0700 878.0000 1.0000
22.0800 931.0000 1.0000
22.0900 900.0000 1.0000
22.1000 892.0000 1.0000
22.1100 904.0000 1.0000
22.1200 908.0000 1.0000
22.1300 930.0000 1.0000
22.1400 876.0000 1.0000
22.1500 938.0000 1.0000
22.1600 925.0000 1.0000
22.1700 955.0000 1.0000
22.1800 930.0000 1.0000
22.1900 924.0000 1.0000
22.2000 840.0000 1.0000
22.2100 856.0000 1.0000
22.2200 866.0000 1.0000
22.2300 954.0000 1.0000
22.2400 931.0000 1.0000
22.2500 904.0000 1.0000
22.2600 911.0000 1.0000
22.2700 937.0000 1.0000
22.2800 952.0000 1.0000
22.2900 965.0000 1.0000
22.3000 915.0000 1.0000
22.3100 878.0000 1.0000
22.3200 915.0000 1.0000
22.3300 853.0000 1.0000
22.3400 925.0000 1.0000
22.3500 889.0000 1.0000
22.3600 860.0000 1.0000
22.3700 879.0000 1.0000
22.3800 829.0000 1.0000
22.3900 944.0000 1.0000
22.4000 909.0000 1.0000
22.4100 902.0000 1.0000
22.4200 895.0000 1.0000
22.4300 887.0000 1.0000
22.4400 941.0000 1.0000
22.4500 940.0000 1.0000
22.4600 902.0000 1.0000
22.4700 899.0000 1.0000
22.4800 901.0000 1.0000
22.4900 902.0000 1.0000
22.5000 884.0000 1.0000
22.5100 908.0000 1.0000
22.5200 897.0000 1.0000
22.5300 927.0000 1.0000
22.5400 970.0000 1.0000
22.5500 862.0000 1.0000
22.5600 882.0000 1.0000
22.5700 914.0000 1.0000
22.5800 898.0000 1.0000
22.5900 929.0000 1.0000
22.6000 915.0000 1.0000
22.6100 884.0000 1.0000
22.6200 870.0000 1.0000
22.6300 918.0000 1.0000
22.6400 940.0000 1.0000
22.6500 887.0000 1.0000
22.6600 892.0000 1.0000
22.6700 856.0000 1.0000
22.6800 878.0000 1.0000
22.6900 893.0000 1.0000
22.7000 886.0000 1.0000
22.7100 925.0000 1.0000
22.7200 936.0000 1.0000
22.7300 939.0000 1.0000
22.7400 917.0000 1.0000
22.7500 902.0000 1.0000
22.7600 902.0000 1.0000
22.7700 949.0000 1.0000
22.7800 904.0000 1.0000
22.7900 923.0000 1.0000
22.8000 909.0000 1.0000
22.8100 879.0000 1.0000
22.8200 915.0000 1.0000
22.8300 894.0000 1.0000
22.8400 857.0000 1.0000
22.8500 943.0000 1.0000
22.8600 892.0000 1.0000
22.8700 892.0000 1.0000
22.8800 894.0000 1.0000
22.8900 902.0000 1.0000
22.9000 903.0000 1.0000
22.9100 864.0000 1.0000
22.9200 890.0000 1.0000
22.9300 900.0000 1.0000
22.9400 926.0000 1.0000
22.9500 914.0000 1.0000
22.9600 934.0000 1.0000
22.9700 945.0000 1.0000
22.9800 926.0000 1.0000
22.9900 899.0000 1.0000
23.0000 903.0000 1.0000
23.0100 888.0000 1.0000
23.0200 886.0000 1.0000
23.0300 966.0000 1.0000
23.0400 914.0000 1.0000
23.0500 873.0000 1.0000
23.0600 905.0000 1.0000
23.0700 902.0000 1.0000
23.0800 892.0000 1.0000
23.0900 904.0000 1.0000
23.1000 880.0000 1.0000
23.1100 900.0000 1.0000
23.1200 898.0000 1.0000
23.1300 916.0000 1.0000
23.1400 923.0000 1.0000
23.1500 884.0000 1.0000
23.1600 859.0000 1.0000
23.1700 892.0000 1.0000
23.1800 906.0000 1.0000
23.1900 940.0000 1.0000
23.2000 902.0000 1.0000
23.2100 876.0000 1.0000
23.2200 895.0000 1.0000
23.2300 921.0000 1.0000
23.2400 895.0000 1.0000
23.2500 926.0000 1.0000
23.2600 884.0000 1.0000
23.2700 883.0000 1.0000
23.2800 882.0000 1.0000
23.2900 880.0000 1.0000
23.3000 923.0000 1.0000
23.3100 879.0000 1.0000
23.3200 874.0000 1.0000
23.3300 904.0000 1.0000
23.3400 925.0000 1.0000
23.3500 883.0000 1.0000
23.3600 846.0000 1.0000
23.3700 886.0000 1.0000
23.3800 915.0000 1.0000
23.3900 904.0000 1.0000
23.4000 942.0000 1.0000
23.4100 900.0000 1.0000
23.4200 898.0000 1.0000
23.4300 915.0000 1.0000
23.4400 916.0000 1.0000
23.4500 921.0000 1.0000
23.4600 898.0000 1.0000
23.4700 872.0000 1.0000
23.4800 833.0000 1.0000
23.4900 859.0000 1.0000
23.5000 897.0000 1.0000
23.5100 885.0000 1.0000
23.5200 859.0000 1.0000
23.5300 898.0000 1.0000
23.5400 844.0000 1.0000
23.5500 853.0000 1.0000
23.5600 903.0000 1.0000
23.5700 861.0000 1.0000
23.5800 920.0000 1.0000
23.5900 963.0000 1.0000
23.6000 906.0000 1.0000
23.6100 904.0000 1.0000
23.6200 922.0000 1.0000
23.6300 895.0000 1.0000
23.6400 855.0000 1.0000
23.6500 898.0000 1.0000
23.6600 885.0000 1.0000
23.6700 897.0000 1.0000
23.6800 937.0000 1.0000
23.6900 894.0000 1.0000
23.7000 911.0000 1.0000
23.7100 883.0000 1.0000
23.7200 886.0000 1.0000
23.7300 914.0000 1.0000
23.7400 869.0000 1.0000
23.7500 918.0000 1.0000
23.7600 871.0000 1.0000
23.7700 953.0000 1.0000
23.7800 896.0000 1.0000
23.7900 887.0000 1.0000
23.8000 925.0000 1.0000
23.8100 887.0000 1.0000
23.8200 927.0000 1.0000
23.8300 968.0000 1.0000
23.8400 959.0000 1.0000
23.8500 907.0000 1.0000
23.8600 890.0000 1.0000
23.8700 919.0000 1.0000
23.8800 872.0000 1.0000
23.8900 888.0000 1.0000
23.9000 955.0000 1.0000
23.9100 913.0000 1.0000
23.9200 916.0000 1.0000
23.9300 919.0000 1.0000
23.9400 903.0000 1.0000
23.9500 941.0000 1.0000
23.9600 979.0000 1.0000
23.9700 930.0000 1.0000
23.9800 929.0000 1.0000
23.9900 940.0000 1.0000
24.0000 905.0000 1.0000
24.0100 927.0000 1.0000
24.0200 925.0000 1.0000
24.0300 932.0000 1.0000
24.0400 919.0000 1.0000
24.0500 930.0000 1.0000
24.0600 934.0000 1.0000
24.0700 931.0000 1.0000
24.0800 913.0000 1.0000
24.0900 948.0000 1.0000
24.1000 937.0000 1.0000
24.1100 918.0000 1.0000
24.1200 891.0000 1.0000
24.1300 955.0000 1.0000
24.1400 942.0000 1.0000
24.1500 966.0000 1.0000
24.1600 936.0000 1.0000
24.1700 911.0000 1.0000
24.1800 887.0000 1.0000
24.1900 922.0000 1.0000
24.2000 963.0000 1.0000
24.2100 922.0000 1.0000
24.2200 903.0000 1.0000
24.2300 942.0000 1.0000
24.2400 930.0000 1.0000
24.2500 933.0000 1.0000
24.2600 960.0000 1.0000
24.2700 952.0000 1.0000
24.2800 911.0000 1.0000
24.2900 898.0000 1.0000
24.3000 921.0000 1.0000
24.3100 936.0000 1.0000
24.3200 935.0000 1.0000
24.3300 877.0000 1.0000
24.3400 867.0000 1.0000
24.3500 940.0000 1.0000
24.3600 936.0000 1.0000
24.3700 908.0000 1.0000
24.3800 884.0000 1.0000
24.3900 926.0000 1.0000
24.4000 909.0000 1.0000
24.4100 868.0000 1.0000
24.4200 857.0000 1.0000
24.4300 873.0000 1.0000
24.4400 887.0000 1.0000
24.4500 902.0000 1.0000
24.4600 896.0000 1.0000
24.4700 871.0000 1.0000
24.4800 808.0000 1.0000
24.4900 884.0000 1.0000
24.5000 867.0000 1.0000
24.5100 901.0000 1.0000
24.5200 899.0000 1.0000
24.5300 894.0000 1.0000
24.5400 869.0000 1.0000
24.5500 838.0000 1.0000
24.5600 929.0000 1.0000
24.5700 855.0000 1.0000
24.5800 789.0000 1.0000
24.5900 879.0000 1.0000
24.6000 891.0000 1.0000
24.6100 848.0000 1.0000
24.6200 814.0000 1.0000
24.6300 883.0000 1.0000
24.6400 868.0000 1.0000
24.6500 925.0000 1.0000
24.6600 908.0000 1.0000
24.6700 869.0000 1.0000
24.6800 900.0000 1.0000
24.6900 885.0000 1.0000
24.7000 879.0000 1.0000
24.7100 890.0000 1.0000
24.7200 871.0000 1.0000
24.7300 863.0000 1.0000
24.7400 862.0000 1.0000
24.7500 831.0000 1.0000
24.7600 944.0000 1.0000
24.7700 893.0000 1.0000
24.7800 843.0000 1.0000
24.7900 876.0000 1.0000
24.8000 844.0000 1.0000
24.8100 835.0000 1.0000
24.8200 866.0000 1.0000
24.8300 880.0000 1.0000
24.8400 855.0000 1.0000
24.8500 859.0000 1.0000
24.8600 887.0000 1.0000
24.8700 879.0000 1.0000
24.8800 883.0000 1.0000
24.8900 862.0000 1.0000
24.9000 860.0000 1.0000
24.9100 866.0000 1.0000
24.9200 820.0000 1.0000
24.9300 904.0000 1.0000
24.9400 861.0000 1.0000
24.9500 832.0000 1.0000
24.9600 876.0000 1.0000
24.9700 839.0000 1.0000
24.9800 898.0000 1.0000
24.9900 871.0000 1.0000
25.0000 882.0000 1.0000
25.0100 881.0000 1.0000
25.0200 863.0000 1.0000
25.0300 870.0000 1.0000
25.0400 898.0000 1.0000
25.0500 879.0000 1.0000
25.0600 837.0000 1.0000
25.0700 870.0000 1.0000
25.0800 878.0000 1.0000
25.0900 865.0000 1.0000
25.1000 886.0000 1.0000
25.1100 833.0000 1.0000
25.1200 866.0000 1.0000
25.1300 878.0000 1.0000
25.1400 852.0000 1.0000
25.1500 899.0000 1.0000
25.1600 861.0000 1.0000
25.1700 845.0000 1.0000
25.1800 862.0000 1.0000
25.1900 884.0000 1.0000
25.2000 896.0000 1.0000
25.2100 896.0000 1.0000
25.2200 834.0000 1.0000
25.2300 845.0000 1.0000
25.2400 881.0000 1.0000
25.2500 889.0000 1.0000
25.2600 864.0000 1.0000
25.2700 860.0000 1.0000
25.2800 859.0000 1.0000
25.2900 870.0000 1.0000
25.3000 886.0000 1.0000
25.3100 892.0000 1.0000
25.3200 885.0000 1.0000
25.3300 833.0000 1.0000
25.3400 874.0000 1.0000
25.3500 899.0000 1.0000
25.3600 898.0000 1.0000
25.3700 881.0000 1.0000
25.3800 903.0000 1.0000
25.3900 843.0000 1.0000
25.4000 861.0000 1.0000
25.4100 852.0000 1.0000
25.4200 925.0000 1.0000
25.4300 881.0000 1.0000
25.4400 896.0000 1.0000
25.4500 857.0000 1.0000
25.4600 868.0000 1.0000
25.4700 899.0000 1.0000
25.4800 871.0000 1.0000
25.4900 944.0000 1.0000
25.5000 932.0000 1.0000
25.5100 926.0000 1.0000
25.5200 862.0000 1.0000
25.5300 847.0000 1.0000
25.5400 862.0000 1.0000
25.5500 946.0000 1.0000
25.5600 903.0000 1.0000
25.5700 870.0000 1.0000
25.5800 867.0000 1.0000
25.5900 917.0000 1.0000
25.6000 910.0000 1.0000
25.6100 859.0000 1.0000
25.6200 860.0000 1.0000
25.6300 832.0000 1.0000
25.6400 889.0000 1.0000
25.6500 909.0000 1.0000
25.6600 897.0000 1.0000
25.6700 900.0000 1.0000
25.6800 912.0000 1.0000
25.6900 906.0000 1.0000
25.7000 891.0000 1.0000
25.7100 911.0000 1.0000
25.7200 876.0000 1.0000
25.7300 875.0000 1.0000
25.7400 924.0000 1.0000
25.7500 891.0000 1.0000
25.7600 938.0000 1.0000
25.7700 908.0000 1.0000
25.7800 867.0000 1.0000
25.7900 937.0000 1.0000
25.8000 869.0000 1.0000
25.8100 857.0000 1.0000
25.8200 843.0000 1.0000
25.8300 863.0000 1.0000
25.8400 932.0000 1.0000
25.8500 932.0000 1.0000
25.8600 882.0000 1.0000
25.8700 923.0000 1.0000
25.8800 902.0000 1.0000
25.8900 898.0000 1.0000
25.9000 940.0000 1.0000
25.9100 877.0000 1.0000
25.9200 937.0000 1.0000
25.9300 905.0000 1.0000
25.9400 966.0000 1.0000
25.9500 947.0000 1.0000
25.9600 962.0000 1.0000
25.9700 959.0000 1.0000
25.9800 970.0000 1.0000
25.9900 984.0000 1.0000
26.0000 942.0000 1.0000
26.0100 952.0000 1.0000
26.0200 996.0000 1.0000
26.0300 989.0000 1.0000
26.0400 1006.0000 1.0000
26.0500 1009.0000 1.0000
26.0600 1017.0000 1.0000
26.0700 1018.0000 1.0000
26.0800 1070.0000 1.0000
26.0900 1072.0000 1.0000
26.1000 1055.0000 1.0000
26.1100 1084.0000 1.0000
26.1200 1040.0000 1.0000
26.1300 1088.0000 1.0000
26.1400 1141.0000 1.0000
26.1500 1151.0000 1.0000
26.1600 1155.0000 1.0000
26.1700 1214.0000 1.0000
26.1800 1241.0000 1.0000
26.1900 1232.0000 1.0000
26.2000 1323.0000 1.0000
26.2100 1354.0000 1.0000
26.2200 1346.0000 1.0000
26.2300 1447.0000 1.0000
26.2400 1422.0000 1.0000
26.2500 1450.0000 1.0000
26.2600 1548.0000 1.0000
26.2700 1625.0000 1.0000
26.2800 1680.0000 1.0000
26.2900 1723.0000 1.0000
26.3000 1820.0000 1.0000
26.3100 1901.0000 1.0000
26.3200 2008.0000 1.0000
26.3300 2065.0000 1.0000
26.3400 2231.0000 1.0000
26.3500 2348.0000 1.0000
26.3600 2639.0000 1.0000
26.3700 2651.0000 1.0000
26.3800 2827.0000 1.0000
26.3900 3029.0000 1.0000
26.4000 3021.0000 1.0000
26.4100 3209.0000 1.0000
26.4200 3303.0000 1.0000
26.4300 3218.0000 1.0000
26.4400 3207.0000 1.0000
26.4500 3167.0000 1.0000
26.4600 3068.0000 1.0000
26.4700 2926.0000 1.0000
26.4800 2734.0000 1.0000
26.4900 2781.0000 1.0000
26.5000 2684.0000 1.0000
26.5100 2488.0000 1.0000
26.5200 2357.0000 1.0000
26.5300 2164.0000 1.0000
26.5400 2044.0000 1.0000
26.5500 1935.0000 1.0000
26.5600 1872.0000 1.0000
26.5700 1712.0000 1.0000
26.5800 1680.0000 1.0000
26.5900 1600.0000 1.0000
26.6000 1515.0000 1.0000
26.6100 1460.0000 1.0000
26.6200 1419.0000 1.0000
26.6300 1350.0000 1.0000
26.6400 1327.0000 1.0000
26.6500 1262.0000 1.0000
26.6600 1327.0000 1.0000
26.6700 1246.0000 1.0000
26.6800 1206.0000 1.0000
26.6900 1176.0000 1.0000
26.7000 1162.0000 1.0000
26.7100 1056.0000 1.0000
26.7200 1054.0000 1.0000
26.7300 1076.0000 1.0000
26.7400 1045.0000 1.0000
26.7500 1029.0000 1.0000
26.7600 1011.0000 1.0000
26.7700 987.0000 1.0000
26.7800 1064.0000 1.0000
26.7900 1014.0000 1.0000
26.8000 1002.0000 1.0000
26.8100 1002.0000 1.0000
26.8200 955.0000 1.0000
26.8300 942.0000 1.0000
26.8400 933.0000 1.0000
26.8500 949.0000 1.0000
26.8600 974.0000 1.0000
26.8700 898.0000 1.0000
26.8800 930.0000 1.0000
26.8900 918.0000 1.0000
26.9000 887.0000 1.0000
26.9100 946.0000 1.0000
26.9200 871.0000 1.0000
26.9300 864.0000 1.0000
26.9400 913.0000 1.0000
26.9500 847.0000 1.0000
26.9600 830.0000 1.0000
26.9700 879.0000 1.0000
26.9800 867.0000 1.0000
26.9900 854.0000 1.0000
27.0000 863.0000 1.0000
27.0100 812.0000 1.0000
27.0200 828.0000 1.0000
27.0300 834.0000 1.0000
27.0400 842.0000 1.0000
27.0500 843.0000 1.0000
27.0600 873.0000 1.0000
27.0700 907.0000 1.0000
27.0800 811.0000 1.0000
27.0900 855.0000 1.0000
27.1000 836.0000 1.0000
27.1100 875.0000 1.0000
27.1200 848.0000 1.0000
27.1300 864.0000 1.0000
27.1400 819.0000 1.0000
27.1500 846.0000 1.0000
27.1600 835.0000 1.0000
27.1700 844.0000 1.0000
27.1800 822.0000 1.0000
27.1900 795.0000 1.0000
27.2000 807.0000 1.0000
27.2100 825.0000 1.0000
27.2200 876.0000 1.0000
27.2300 849.0000 1.0000
27.2400 800.0000 1.0000
27.2500 826.0000 1.0000
27.2600 810.0000 1.0000
27.2700 755.0000 1.0000
27.2800 835.0000 1.0000
27.2900 878.0000 1.0000
27.3000 814.0000 1.0000
27.3100 825.0000 1.0000
27.3200 855.0000 1.0000
27.3300 817.0000 1.0000
27.3400 812.0000 1.0000
27.3500 823.0000 1.0000
27.3600 812.0000 1.0000
27.3700 790.0000 1.0000
27.3800 788.0000 1.0000
27.3900 795.0000 1.0000
27.4000 808.0000 1.0000
27.4100 849.0000 1.0000
27.4200 812.0000 1.0000
27.4300 861.0000 1.0000
27.4400 826.0000 1.0000
27.4500 848.0000 1.0000
27.4600 808.0000 1.0000
27.4700 806.0000 1.0000
27.4800 802.0000 1.0000
27.4900 811.0000 1.0000
27.5000 794.0000 1.0000
27.5100 844.0000 1.0000
27.5200 827.0000 1.0000
27.5300 796.0000 1.0000
27.5400 777.0000 1.0000
27.5500 800.0000 1.0000
27.5600 788.0000 1.0000
27.5700 798.0000 1.0000
27.5800 815.0000 1.0000
27.5900 815.0000 1.0000
27.6000 775.0000 1.0000
27.6100 796.0000 1.0000
27.6200 775.0000 1.0000
27.6300 760.0000 1.0000
27.6400 750.0000 1.0000
27.6500 814.0000 1.0000
27.6600 807.0000 1.0000
27.6700 809.0000 1.0000
27.6800 822.0000 1.0000
27.6900 819.0000 1.0000
27.7000 840.0000 1.0000
27.7100 755.0000 1.0000
27.7200 847.0000 1.0000
27.7300 782.0000 1.0000
27.7400 828.0000 1.0000
27.7500 767.0000 1.0000
27.7600 756.0000 1.0000
27.7700 790.0000 1.0000
27.7800 777.0000 1.0000
27.7900 768.0000 1.0000
27.8000 810.0000 1.0000
27.8100 810.0000 1.0000
27.8200 797.0000 1.0000
27.8300 801.0000 1.0000
27.8400 763.0000 1.0000
27.8500 736.0000 1.0000
27.8600 758.0000 1.0000
27.8700 802.0000 1.0000
27.8800 756.0000 1.0000
27.8900 779.0000 1.0000
27.9000 803.0000 1.0000
27.9100 782.0000 1.0000
27.9200 788.0000 1.0000
27.9300 768.0000 1.0000
27.9400 737.0000 1.0000
27.9500 733.0000 1.0000
27.9600 762.0000 1.0000
27.9700 781.0000 1.0000
27.9800 763.0000 1.0000
27.9900 776.0000 1.0000
28.0000 790.0000 1.0000
28.0100 791.0000 1.0000
28.0200 808.0000 1.0000
28.0300 776.0000 1.0000
28.0400 760.0000 1.0000
28.0500 714.0000 1.0000
28.0600 770.0000 1.0000
28.0700 730.0000 1.0000
28.0800 752.0000 1.0000
28.0900 738.0000 1.0000
28.1000 744.0000 1.0000
28.1100 739.0000 1.0000
28.1200 728.0000 1.0000
28.1300 797.0000 1.0000
28.1400 808.0000 1.0000
28.1500 780.0000 1.0000
28.1600 739.0000 1.0000
28.1700 744.0000 1.0000
28.1800 760.0000 1.0000
28.1900 789.0000 1.0000
28.2000 758.0000 1.0000
28.2100 761.0000 1.0000
28.2200 773.0000 1.0000
28.2300 744.0000 1.0000
28.2400 769.0000 1.0000
28.2500 777.0000 1.0000
28.2600 796.0000 1.0000
28.2700 786.0000 1.0000
28.2800 790.0000 1.0000
28.2900 783.0000 1.0000
28.3000 740.0000 1.0000
28.3100 755.0000 1.0000
28.3200 759.0000 1.0000
28.3300 782.0000 1.0000
28.3400 779.0000 1.0000
28.3500 761.0000 1.0000
28.3600 754.0000 1.0000
28.3700 727.0000 1.0000
28.3800 714.0000 1.0000
28.3900 748.0000 1.0000
28.4000 762.0000 1.0000
28.4100 764.0000 1.0000
28.4200 759.0000 1.0000
28.4300 745.0000 1.0000
28.4400 766.0000 1.0000
28.4500 766.0000 1.0000
28.4600 789.0000 1.0000
28.4700 770.0000 1.0000
28.4800 751.0000 1.0000
28.4900 749.0000 1.0000
28.5000 766.0000 1.0000
28.5100 739.0000 1.0000
28.5200 742.0000 1.0000
28.5300 777.0000 1.0000
28.5400 794.0000 1.0000
28.5500 737.0000 1.0000
28.5600 765.0000 1.0000
28.5700 762.0000 1.0000
28.5800 757.0000 1.0000
28.5900 759.0000 1.0000
28.6000 738.0000 1.0000
28.6100 758.0000 1.0000
28.6200 723.0000 1.0000
28.6300 738.0000 1.0000
28.6400 724.0000 1.0000
28.6500 758.0000 1.0000
28.6600 779.0000 1.0000
28.6700 756.0000 1.0000
28.6800 742.0000 1.0000
28.6900 735.0000 1.0000
28.7000 760.0000 1.0000
28.7100 777.0000 1.0000
28.7200 754.0000 1.0000
28.7300 706.0000 1.0000
28.7400 750.0000 1.0000
28.7500 745.0000 1.0000
28.7600 722.0000 1.0000
28.7700 748.0000 1.0000
28.7800 697.0000 1.0000
28.7900 717.0000 1.0000
28.8000 720.0000 1.0000
28.8100 709.0000 1.0000
28.8200 732.0000 1.0000
28.8300 762.0000 1.0000
28.8400 748.0000 1.0000
28.8500 725.0000 1.0000
28.8600 742.0000 1.0000
28.8700 747.0000 1.0000
28.8800 762.0000 1.0000
28.8900 774.0000 1.0000
28.9000 735.0000 1.0000
28.9100 726.0000 1.0000
28.9200 731.0000 1.0000
28.9300 740.0000 1.0000
28.9400 679.0000 1.0000
28.9500 736.0000 1.0000
28.9600 738.0000 1.0000
28.9700 741.0000 1.0000
28.9800 712.0000 1.0000
28.9900 722.0000 1.0000
29.0000 755.0000 1.0000
29.0100 747.0000 1.0000
29.0200 743.0000 1.0000
29.0300 743.0000 1.0000
29.0400 782.0000 1.0000
29.0500 743.0000 1.0000
29.0600 728.0000 1.0000
29.0700 707.0000 1.0000
29.0800 714.0000 1.0000
29.0900 769.0000 1.0000
29.1000 783.0000 1.0000
29.1100 742.0000 1.0000
29.1200 742.0000 1.0000
29.1300 716.0000 1.0000
29.1400 695.0000 1.0000
29.1500 699.0000 1.0000
29.1600 726.0000 1.0000
29.1700 708.0000 1.0000
29.1800 711.0000 1.0000
29.1900 700.0000 1.0000
29.2000 646.0000 1.0000
29.2100 717.0000 1.0000
29.2200 727.0000 1.0000
29.2300 730.0000 1.0000
29.2400 719.0000 1.0000
29.2500 741.0000 1.0000
29.2600 721.0000 1.0000
29.2700 727.0000 1.0000
29.2800 708.0000 1.0000
29.2900 708.0000 1.0000
29.3000 705.0000 1.0000
29.3100 692.0000 1.0000
29.3200 703.0000 1.0000
29.3300 726.0000 1.0000
29.3400 712.0000 1.0000
29.3500 717.0000 1.0000
29.3600 723.0000 1.0000
29.3700 701.0000 1.0000
29.3800 728.0000 1.0000
29.3900 718.0000 1.0000
29.4000 720.0000 1.0000
29.4100 734.0000 1.0000
29.4200 691.0000 1.0000
29.4300 699.0000 1.0000
29.4400 734.0000 1.0000
29.4500 741.0000 1.0000
29.4600 691.0000 1.0000
29.4700 672.0000 1.0000
29.4800 694.0000 1.0000
29.4900 726.0000 1.0000
29.5000 718.0000 1.0000
29.5100 745.0000 1.0000
29.5200 712.0000 1.0000
29.5300 670.0000 1.0000
29.5400 720.0000 1.0000
29.5500 702.0000 1.0000
29.5600 676.0000 1.0000
29.5700 710.0000 1.0000
29.5800 671.0000 1.0000
29.5900 710.0000 1.0000
29.6000 769.0000 1.0000
29.6100 725.0000 1.0000
29.6200 687.0000 1.0000
29.6300 713.0000 1.0000
29.6400 723.0000 1.0000
29.6500 659.0000 1.0000
29.6600 692.0000 1.0000
29.6700 738.0000 1.0000
29.6800 689.0000 1.0000
29.6900 741.0000 1.0000
29.7000 700.0000 1.0000
29.7100 720.0000 1.0000
29.7200 704.0000 1.0000
29.7300 707.0000 1.0000
29.7400 704.0000 1.0000
29.7500 705.0000 1.0000
29.7600 740.0000 1.0000
29.7700 702.0000 1.0000
29.7800 697.0000 1.0000
29.7900 691.0000 1.0000
29.8000 725.0000 1.0000
29.8100 702.0000 1.0000
29.8200 730.0000 1.0000
29.8300 673.0000 1.0000
29.8400 676.0000 1.0000
29.8500 659.0000 1.0000
29.8600 658.0000 1.0000
29.8700 723.0000 1.0000
29.8800 656.0000 1.0000
29.8900 632.0000 1.0000
29.9000 673.0000 1.0000
29.9100 683.0000 1.0000
29.9200 704.0000 1.0000
29.9300 716.0000 1.0000
29.9400 725.0000 1.0000
29.9500 732.0000 1.0000
29.9600 664.0000 1.0000
29.9700 657.0000 1.0000
29.9800 674.0000 1.0000
29.9900 722.0000 1.0000
30.0000 735.0000 1.0000
30.0100 703.0000 1.0000
30.0200 746.0000 1.0000
30.0300 702.0000 1.0000
30.0400 667.0000 1.0000
30.0500 696.0000 1.0000
30.0600 722.0000 1.0000
30.0700 731.0000 1.0000
30.0800 663.0000 1.0000
30.0900 676.0000 1.0000
30.1000 683.0000 1.0000
30.1100 685.0000 1.0000
30.1200 655.0000 1.0000
30.1300 635.0000 1.0000
30.1400 673.0000 1.0000
30.1500 708.0000 1.0000
30.1600 701.0000 1.0000
30.1700 686.0000 1.0000
30.1800 693.0000 1.0000
30.1900 709.0000 1.0000
30.2000 711.0000 1.0000
30.2100 688.0000 1.0000
30.2200 731.0000 1.0000
30.2300 679.0000 1.0000
30.2400 673.0000 1.0000
30.2500 695.0000 1.0000
30.2600 702.0000 1.0000
30.2700 700.0000 1.0000
30.2800 657.0000 1.0000
30.2900 697.0000 1.0000
30.3000 689.0000 1.0000
30.3100 701.0000 1.0000
30.3200 679.0000 1.0000
30.3300 667.0000 1.0000
30.3400 658.0000 1.0000
30.3500 639.0000 1.0000
30.3600 699.0000 1.0000
30.3700 700.0000 1.0000
30.3800 700.0000 1.0000
30.3900 697.0000 1.0000
30.4000 708.0000 1.0000
30.4100 692.0000 1.0000
30.4200 697.0000 1.0000
30.4300 721.0000 1.0000
30.4400 696.0000 1.0000
30.4500 683.0000 1.0000
30.4600 677.0000 1.0000
30.4700 697.0000 1.0000
30.4800 663.0000 1.0000
30.4900 679.0000 1.0000
30.5000 703.0000 1.0000
30.5100 664.0000 1.0000
30.5200 663.0000 1.0000
30.5300 700.0000 1.0000
30.5400 705.0000 1.0000
30.5500 692.0000 1.0000
30.5600 727.0000 1.0000
30.5700 687.0000 1.0000
30.5800 674.0000 1.0000
30.5900 628.0000 1.0000
30.6000 688.0000 1.0000
30.6100 712.0000 1.0000
30.6200 709.0000 1.0000
30.6300 670.0000 1.0000
30.6400 684.0000 1.0000
30.6500 637.0000 1.0000
30.6600 645.0000 1.0000
30.6700 661.0000 1.0000
30.6800 661.0000 1.0000
30.6900 686.0000 1.0000
30.7000 685.0000 1.0000
30.7100 679.0000 1.0000
30.7200 688.0000 1.0000
30.7300 652.0000 1.0000
30.7400 626.0000 1.0000
30.7500 668.0000 1.0000
30.7600 676.0000 1.0000
30.7700 660.0000 1.0000
30.7800 711.0000 1.0000
30.7900 710.0000 1.0000
30.8000 659.0000 1.0000
30.8100 657.0000 1.0000
30.8200 666.0000 1.0000
30.8300 667.0000 1.0000
30.8400 660.0000 1.0000
30.8500 631.0000 1.0000
30.8600 682.0000 1.0000
30.8700 674.0000 1.0000
30.8800 682.0000 1.0000
30.8900 677.0000 1.0000
30.9000 661.0000 1.0000
30.9100 675.0000 1.0000
30.9200 663.0000 1.0000
30.9300 618.0000 1.0000
30.9400 685.0000 1.0000
30.9500 664.0000 1.0000
30.9600 609.0000 1.0000
30.9700 641.0000 1.0000
30.9800 643.0000 1.0000
30.9900 642.0000 1.0000
31.0000 666.0000 1.0000
31.0100 662.0000 1.0000
31.0200 643.0000 1.0000
31.0300 664.0000 1.0000
31.0400 682.0000 1.0000
31.0500 700.0000 1.0000
31.0600 712.0000 1.0000
31.0700 688.0000 1.0000
31.0800 674.0000 1.0000
31.0900 647.0000 1.0000
31.1000 662.0000 1.0000
31.1100 645.0000 1.0000
31.1200 678.0000 1.0000
31.1300 695.0000 1.0000
31.1400 658.0000 1.0000
31.1500 671.0000 1.0000
31.1600 704.0000 1.0000
31.1700 691.0000 1.0000
31.1800 639.0000 1.0000
31.1900 691.0000 1.0000
31.2000 677.0000 1.0000
31.2100 698.0000 1.0000
31.2200 653.0000 1.0000
31.2300 645.0000 1.0000
31.2400 717.0000 1.0000
31.2500 692.0000 1.0000
31.2600 665.0000 1.0000
31.2700 695.0000 1.0000
31.2800 668.0000 1.0000
31.2900 686.0000 1.0000
31.3000 679.0000 1.0000
31.3100 634.0000 1.0000
31.3200 604.0000 1.0000
31.3300 656.0000 1.0000
31.3400 661.0000 1.0000
31.3500 681.0000 1.0000
31.3600 692.0000 1.0000
31.3700 694.0000 1.0000
31.3800 654.0000 1.0000
31.3900 655.0000 1.0000
31.4000 635.0000 1.0000
31.4100 631.0000 1.0000
31.4200 668.0000 1.0000
31.4300 652.0000 1.0000
31.4400 670.0000 1.0000
31.4500 646.0000 1.0000
31.4600 662.0000 1.0000
31.4700 619.0000 1.0000
31.4800 654.0000 1.0000
31.4900 647.0000 1.0000
31.5000 658.0000 1.0000
31.5100 643.0000 1.0000
31.5200 639.0000 1.0000
31.5300 633.0000 1.0000
31.5400 676.0000 1.0000
31.5500 678.0000 1.0000
31.5600 619.0000 1.0000
31.5700 605.0000 1.0000
31.5800 623.0000 1.0000
31.5900 660.0000 1.0000
31.6000 667.0000 1.0000
31.6100 658.0000 1.0000
31.6200 661.0000 1.0000
31.6300 657.0000 1.0000
31.6400 632.0000 1.0000
31.6500 629.0000 1.0000
31.6600 606.0000 1.0000
31.6700 668.0000 1.0000
31.6800 666.0000 1.0000
31.6900 657.0000 1.0000
31.7000 636.0000 1.0000
31.7100 675.0000 1.0000
31.7200 655.0000 1.0000
31.7300 707.0000 1.0000
31.7400 675.0000 1.0000
31.7500 669.0000 1.0000
31.7600 658.0000 1.0000
31.7700 615.0000 1.0000
31.7800 681.0000 1.0000
31.7900 647.0000 1.0000
31.8000 639.0000 1.0000
31.8100 689.0000 1.0000
31.8200 641.0000 1.0000
31.8300 617.0000 1.0000
31.8400 641.0000 1.0000
31.8500 610.0000 1.0000
31.8600 669.0000 1.0000
31.8700 672.0000 1.0000
31.8800 638.0000 1.0000
31.8900 654.0000 1.0000
31.9000 653.0000 1.0000
31.9100 646.0000 1.0000
31.9200 666.0000 1.0000
31.9300 627.0000 1.0000
31.9400 673.0000 1.0000
31.9500 617.0000 1.0000
31.9600 609.0000 1.0000
31.9700 660.0000 1.0000
31.9800 658.0000 1.0000
31.9900 645.0000 1.0000
32.0000 617.0000 1.0000
32.0100 659.0000 1.0000
32.0200 658.0000 1.0000
32.0300 685.0000 1.0000
32.0400 662.0000 1.0000
32.0500 667.0000 1.0000
32.0600 651.0000 1.0000
32.0700 677.0000 1.0000
32.0800 629.0000 1.0000
32.0900 671.0000 1.0000
32.1000 671.0000 1.0000
32.1100 633.0000 1.0000
32.1200 666.0000 1.0000
32.1300 665.0000 1.0000
32.1400 648.0000 1.0000
32.1500 664.0000 1.0000
32.1600 641.0000 1.0000
32.1700 633.0000 1.0000
32.1800 620.0000 1.0000
32.1900 644.0000 1.0000
32.2000 656.0000 1.0000
32.2100 628.0000 1.0000
32.2200 630.0000 1.0000
32.2300 643.0000 1.0000
32.2400 640.0000 1.0000
32.2500 646.0000 1.0000
32.2600 591.0000 1.0000
32.2700 614.0000 1.0000
32.2800 597.0000 1.0000
32.2900 630.0000 1.0000
32.3000 656.0000 1.0000
32.3100 609.0000 1.0000
32.3200 686.0000 1.0000
32.3300 630.0000 1.0000
32.3400 652.0000 1.0000
32.3500 675.0000 1.0000
32.3600 634.0000 1.0000
32.3700 616.0000 1.0000
32.3800 644.0000 1.0000
32.3900 624.0000 1.0000
32.4000 639.0000 1.0000
32.4100 634.0000 1.0000
32.4200 629.0000 1.0000
32.4300 631.0000 1.0000
32.4400 603.0000 1.0000
32.4500 637.0000 1.0000
32.4600 621.0000 1.0000
32.4700 631.0000 1.0000
32.4800 664.0000 1.0000
32.4900 670.0000 1.0000
32.5000 649.0000 1.0000
32.5100 651.0000 1.0000
32.5200 674.0000 1.0000
32.5300 664.0000 1.0000
32.5400 686.0000 1.0000
32.5500 642.0000 1.0000
32.5600 609.0000 1.0000
32.5700 642.0000 1.0000
32.5800 624.0000 1.0000
32.5900 646.0000 1.0000
32.6000 611.0000 1.0000
32.6100 641.0000 1.0000
32.6200 616.0000 1.0000
32.6300 647.0000 1.0000
32.6400 622.0000 1.0000
32.6500 663.0000 1.0000
32.6600 624.0000 1.0000
32.6700 591.0000 1.0000
32.6800 605.0000 1.0000
32.6900 662.0000 1.0000
32.7000 684.0000 1.0000
32.7100 651.0000 1.0000
32.7200 630.0000 1.0000
32.7300 644.0000 1.0000
32.7400 635.0000 1.0000
32.7500 611.0000 1.0000
32.7600 635.0000 1.0000
32.7700 634.0000 1.0000
32.7800 650.0000 1.0000
32.7900 665.0000 1.0000
32.8000 663.0000 1.0000
32.8100 646.0000 1.0000
32.8200 685.0000 1.0000
32.8300 659.0000 1.0000
32.8400 668.0000 1.0000
32.8500 628.0000 1.0000
32.8600 688.0000 1.0000
32.8700 632.0000 1.0000
32.8800 670.0000 1.0000
32.8900 618.0000 1.0000
32.9000 613.0000 1.0000
32.9100 716.0000 1.0000
32.9200 675.0000 1.0000
32.9300 676.0000 1.0000
32.9400 670.0000 1.0000
32.9500 682.0000 1.0000
32.9600 678.0000 1.0000
32.9700 698.0000 1.0000
32.9800 749.0000 1.0000
32.9900 688.0000 1.0000
33.0000 660.0000 1.0000
33.0100 684.0000 1.0000
33.0200 725.0000 1.0000
33.0300 711.0000 1.0000
33.0400 714.0000 1.0000
33.0500 692.0000 1.0000
33.0600 730.0000 1.0000
33.0700 719.0000 1.0000
33.0800 737.0000 1.0000
33.0900 739.0000 1.0000
33.1000 716.0000 1.0000
33.1100 734.0000 1.0000
33.1200 707.0000 1.0000
33.1300 700.0000 1.0000
33.1400 709.0000 1.0000
33.1500 719.0000 1.0000
33.1600 712.0000 1.0000
33.1700 732.0000 1.0000
33.1800 715.0000 1.0000
33.1900 691.0000 1.0000
33.2000 735.0000 1.0000
33.2100 737.0000 1.0000
33.2200 693.0000 1.0000
33.2300 710.0000 1.0000
33.2400 712.0000 1.0000
33.2500 713.0000 1.0000
33.2600 696.0000 1.0000
33.2700 713.0000 1.0000
33.2800 730.0000 1.0000
33.2900 726.0000 1.0000
33.3000 706.0000 1.0000
33.3100 689.0000 1.0000
33.3200 722.0000 1.0000
33.3300 762.0000 1.0000
33.3400 755.0000 1.0000
33.3500 758.0000 1.0000
33.3600 746.0000 1.0000
33.3700 715.0000 1.0000
33.3800 784.0000 1.0000
33.3900 812.0000 1.0000
33.4000 774.0000 1.0000
33.4100 777.0000 1.0000
33.4200 794.0000 1.0000
33.4300 801.0000 1.0000
33.4400 850.0000 1.0000
33.4500 890.0000 1.0000
33.4600 869.0000 1.0000
33.4700 919.0000 1.0000
33.4800 909.0000 1.0000
33.4900 943.0000 1.0000
33.5000 969.0000 1.0000
33.5100 983.0000 1.0000
33.5200 1057.0000 1.0000
33.5300 1009.0000 1.0000
33.5400 1147.0000 1.0000
33.5500 1142.0000 1.0000
33.5600 1189.0000 1.0000
33.5700 1232.0000 1.0000
33.5800 1367.0000 1.0000
33.5900 1410.0000 1.0000
33.6000 1419.0000 1.0000
33.6100 1520.0000 1.0000
33.6200 1574.0000 1.0000
33.6300 1601.0000 1.0000
33.6400 1484.0000 1.0000
33.6500 1491.0000 1.0000
33.6600 1559.0000 1.0000
33.6700 1502.0000 1.0000
33.6800 1467.0000 1.0000
33.6900 1382.0000 1.0000
33.7000 1393.0000 1.0000
33.7100 1404.0000 1.0000
33.7200 1297.0000 1.0000
33.7300 1220.0000 1.0000
33.7400 1178.0000 1.0000
33.7500 1132.0000 1.0000
33.7600 1109.0000 1.0000
33.7700 1082.0000 1.0000
33.7800 993.0000 1.0000
33.7900 994.0000 1.0000
33.8000 955.0000 1.0000
33.8100 933.0000 1.0000
33.8200 887.0000 1.0000
33.8300 895.0000 1.0000
33.8400 873.0000 1.0000
33.8500 851.0000 1.0000
33.8600 848.0000 1.0000
33.8700 807.0000 1.0000
33.8800 743.0000 1.0000
33.8900 777.0000 1.0000
33.9000 755.0000 1.0000
33.9100 706.0000 1.0000
33.9200 765.0000 1.0000
33.9300 711.0000 1.0000
33.9400 665.0000 1.0000
33.9500 720.0000 1.0000
33.9600 719.0000 1.0000
33.9700 703.0000 1.0000
33.9800 683.0000 1.0000
33.9900 707.0000 1.0000
34.0000 654.0000 1.0000
34.0100 671.0000 1.0000
34.0200 687.0000 1.0000
34.0300 651.0000 1.0000
34.0400 642.0000 1.0000
34.0500 637.0000 1.0000
34.0600 632.0000 1.0000
34.0700 612.0000 1.0000
34.0800 628.0000 1.0000
34.0900 620.0000 1.0000
34.1000 639.0000 1.0000
34.1100 650.0000 1.0000
34.1200 614.0000 1.0000
34.1300 620.0000 1.0000
34.1400 632.0000 1.0000
34.1500 589.0000 1.0000
34.1600 588.0000 1.0000
34.1700 609.0000 1.0000
34.1800 582.0000 1.0000
34.1900 591.0000 1.0000
34.2000 616.0000 1.0000
34.2100 597.0000 1.0000
34.2200 598.0000 1.0000
34.2300 594.0000 1.0000
34.2400 598.0000 1.0000
34.2500 582.0000 1.0000
34.2600 562.0000 1.0000
34.2700 609.0000 1.0000
34.2800 555.0000 1.0000
34.2900 609.0000 1.0000
34.3000 576.0000 1.0000
34.3100 546.0000 1.0000
34.3200 540.0000 1.0000
34.3300 576.0000 1.0000
34.3400 582.0000 1.0000
34.3500 556.0000 1.0000
34.3600 594.0000 1.0000
34.3700 578.0000 1.0000
34.3800 590.0000 1.0000
34.3900 580.0000 1.0000
34.4000 576.0000 1.0000
34.4100 593.0000 1.0000
34.4200 556.0000 1.0000
34.4300 551.0000 1.0000
34.4400 572.0000 1.0000
34.4500 568.0000 1.0000
34.4600 572.0000 1.0000
34.4700 579.0000 1.0000
34.4800 587.0000 1.0000
34.4900 567.0000 1.0000
34.5000 525.0000 1.0000
34.5100 549.0000 1.0000
34.5200 559.0000 1.0000
34.5300 563.0000 1.0000
34.5400 545.0000 1.0000
34.5500 500.0000 1.0000
34.5600 566.0000 1.0000
34.5700 563.0000 1.0000
34.5800 516.0000 1.0000
34.5900 555.0000 1.0000
34.6000 570.0000 1.0000
34.6100 552.0000 1.0000
34.6200 521.0000 1.0000
34.6300 550.0000 1.0000
34.6400 587.0000 1.0000
34.6500 595.0000 1.0000
34.6600 524.0000 1.0000
34.6700 518.0000 1.0000
34.6800 535.0000 1.0000
34.6900 525.0000 1.0000
34.7000 535.0000 1.0000
34.7100 561.0000 1.0000
34.7200 545.0000 1.0000
34.7300 534.0000 1.0000
34.7400 559.0000 1.0000
34.7500 587.0000 1.0000
34.7600 527.0000 1.0000
34.7700 573.0000 1.0000
34.7800 539.0000 1.0000
34.7900 586.0000 1.0000
34.8000 528.0000 1.0000
34.8100 572.0000 1.0000
34.8200 537.0000 1.0000
34.8300 531.0000 1.0000
34.8400 580.0000 1.0000
34.8500 582.0000 1.0000
34.8600 573.0000 1.0000
34.8700 571.0000 1.0000
34.8800 554.0000 1.0000
34.8900 557.0000 1.0000
34.9000 516.0000 1.0000
34.9100 555.0000 1.0000
34.9200 512.0000 1.0000
34.9300 567.0000 1.0000
34.9400 535.0000 1.0000
34.9500 529.0000 1.0000
34.9600 564.0000 1.0000
34.9700 564.0000 1.0000
34.9800 564.0000 1.0000
34.9900 559.0000 1.0000
35.0000 553.0000 1.0000
35.0100 556.0000 1.0000
35.0200 529.0000 1.0000
35.0300 523.0000 1.0000
35.0400 524.0000 1.0000
35.0500 605.0000 1.0000
35.0600 542.0000 1.0000
35.0700 569.0000 1.0000
35.0800 544.0000 1.0000
35.0900 537.0000 1.0000
35.1000 512.0000 1.0000
35.1100 577.0000 1.0000
35.1200 561.0000 1.0000
35.1300 573.0000 1.0000
35.1400 549.0000 1.0000
35.1500 549.0000 1.0000
35.1600 540.0000 1.0000
35.1700 554.0000 1.0000
35.1800 603.0000 1.0000
35.1900 561.0000 1.0000
35.2000 583.0000 1.0000
35.2100 605.0000 1.0000
35.2200 562.0000 1.0000
35.2300 563.0000 1.0000
35.2400 581.0000 1.0000
35.2500 593.0000 1.0000
35.2600 576.0000 1.0000
35.2700 580.0000 1.0000
35.2800 613.0000 1.0000
35.2900 562.0000 1.0000
35.3000 632.0000 1.0000
35.3100 582.0000 1.0000
35.3200 595.0000 1.0000
35.3300 592.0000 1.0000
35.3400 662.0000 1.0000
35.3500 658.0000 1.0000
35.3600 637.0000 1.0000
35.3700 644.0000 1.0000
35.3800 647.0000 1.0000
35.3900 655.0000 1.0000
35.4000 690.0000 1.0000
35.4100 654.0000 1.0000
35.4200 679.0000 1.0000
35.4300 709.0000 1.0000
35.4400 747.0000 1.0000
35.4500 705.0000 1.0000
35.4600 742.0000 1.0000
35.4700 725.0000 1.0000
35.4800 763.0000 1.0000
35.4900 719.0000 1.0000
35.5000 750.0000 1.0000
35.5100 793.0000 1.0000
35.5200 801.0000 1.0000
35.5300 815.0000 1.0000
35.5400 784.0000 1.0000
35.5500 828.0000 1.0000
35.5600 807.0000 1.0000
35.5700 811.0000 1.0000
35.5800 815.0000 1.0000
35.5900 778.0000 1.0000
35.6000 825.0000 1.0000
35.6100 807.0000 1.0000
35.6200 727.0000 1.0000
35.6300 795.0000 1.0000
35.6400 780.0000 1.0000
35.6500 725.0000 1.0000
35.6600 748.0000 1.0000
35.6700 698.0000 1.0000
35.6800 748.0000 1.0000
35.6900 706.0000 1.0000
35.7000 698.0000 1.0000
35.7100 664.0000 1.0000
35.7200 655.0000 1.0000
35.7300 674.0000 1.0000
35.7400 655.0000 1.0000
35.7500 655.0000 1.0000
35.7600 660.0000 1.0000
35.7700 622.0000 1.0000
35.7800 611.0000 1.0000
35.7900 580.0000 1.0000
35.8000 569.0000 1.0000
35.8100 608.0000 1.0000
35.8200 574.0000 1.0000
35.8300 583.0000 1.0000
35.8400 584.0000 1.0000
35.8500 545.0000 1.0000
35.8600 527.0000 1.0000
35.8700 538.0000 1.0000
35.8800 536.0000 1.0000
35.8900 552.0000 1.0000
35.9000 539.0000 1.0000
35.9100 548.0000 1.0000
35.9200 577.0000 1.0000
35.9300 546.0000 1.0000
35.9400 561.0000 1.0000
35.9500 573.0000 1.0000
35.9600 581.0000 1.0000
35.9700 544.0000 1.0000
35.9800 540.0000 1.0000
35.9900 531.0000 1.0000
36.0000 532.0000 1.0000
36.0100 533.0000 1.0000
36.0200 536.0000 1.0000
36.0300 532.0000 1.0000
36.0400 530.0000 1.0000
36.0500 512.0000 1.0000
36.0600 545.0000 1.0000
36.0700 498.0000 1.0000
36.0800 538.0000 1.0000
36.0900 532.0000 1.0000
36.1000 488.0000 1.0000
36.1100 505.0000 1.0000
36.1200 483.0000 1.0000
36.1300 470.0000 1.0000
36.1400 514.0000 1.0000
36.1500 514.0000 1.0000
36.1600 510.0000 1.0000
36.1700 518.0000 1.0000
36.1800 516.0000 1.0000
36.1900 538.0000 1.0000
36.2000 502.0000 1.0000
36.2100 509.0000 1.0000
36.2200 519.0000 1.0000
36.2300 465.0000 1.0000
36.2400 485.0000 1.0000
36.2500 503.0000 1.0000
36.2600 483.0000 1.0000
36.2700 515.0000 1.0000
36.2800 509.0000 1.0000
36.2900 507.0000 1.0000
36.3000 516.0000 1.0000
36.3100 499.0000 1.0000
36.3200 475.0000 1.0000
36.3300 466.0000 1.0000
36.3400 488.0000 1.0000
36.3500 472.0000 1.0000
36.3600 525.0000 1.0000
36.3700 506.0000 1.0000
36.3800 518.0000 1.0000
36.3900 514.0000 1.0000
36.4000 495.0000 1.0000
36.4100 480.0000 1.0000
36.4200 509.0000 1.0000
36.4300 484.0000 1.0000
36.4400 510.0000 1.0000
36.4500 499.0000 1.0000
36.4600 497.0000 1.0000
36.4700 510.0000 1.0000
36.4800 483.0000 1.0000
36.4900 520.0000 1.0000
36.5000 511.0000 1.0000
36.5100 478.0000 1.0000
36.5200 489.0000 1.0000
36.5300 471.0000 1.0000
36.5400 510.0000 1.0000
36.5500 489.0000 1.0000
36.5600 528.0000 1.0000
36.5700 482.0000 1.0000
36.5800 469.0000 1.0000
36.5900 482.0000 1.0000
36.6000 533.0000 1.0000
36.6100 515.0000 1.0000
36.6200 507.0000 1.0000
36.6300 504.0000 1.0000
36.6400 518.0000 1.0000
36.6500 482.0000 1.0000
36.6600 527.0000 1.0000
36.6700 527.0000 1.0000
36.6800 518.0000 1.0000
36.6900 512.0000 1.0000
36.7000 490.0000 1.0000
36.7100 500.0000 1.0000
36.7200 514.0000 1.0000
36.7300 529.0000 1.0000
36.7400 520.0000 1.0000
36.7500 491.0000 1.0000
36.7600 467.0000 1.0000
36.7700 464.0000 1.0000
36.7800 499.0000 1.0000
36.7900 468.0000 1.0000
36.8000 485.0000 1.0000
36.8100 502.0000 1.0000
36.8200 526.0000 1.0000
36.8300 531.0000 1.0000
36.8400 531.0000 1.0000
36.8500 479.0000 1.0000
36.8600 501.0000 1.0000
36.8700 478.0000 1.0000
36.8800 501.0000 1.0000
36.8900 486.0000 1.0000
36.9000 489.0000 1.0000
36.9100 520.0000 1.0000
36.9200 499.0000 1.0000
36.9300 502.0000 1.0000
36.9400 504.0000 1.0000
36.9500 488.0000 1.0000
36.9600 474.0000 1.0000
36.9700 468.0000 1.0000
36.9800 509.0000 1.0000
36.9900 524.0000 1.0000
37.0000 516.0000 1.0000
37.0100 496.0000 1.0000
37.0200 528.0000 1.0000
37.0300 455.0000 1.0000
37.0400 458.0000 1.0000
37.0500 480.0000 1.0000
37.0600 537.0000 1.0000
37.0700 510.0000 1.0000
37.0800 504.0000 1.0000
37.0900 521.0000 1.0000
37.1000 519.0000 1.0000
37.1100 503.0000 1.0000
37.1200 488.0000 1.0000
37.1300 537.0000 1.0000
37.1400 549.0000 1.0000
37.1500 522.0000 1.0000
37.1600 514.0000 1.0000
37.1700 523.0000 1.0000
37.1800 528.0000 1.0000
37.1900 496.0000 1.0000
37.2000 536.0000 1.0000
37.2100 514.0000 1.0000
37.2200 534.0000 1.0000
37.2300 554.0000 1.0000
37.2400 532.0000 1.0000
37.2500 538.0000 1.0000
37.2600 526.0000 1.0000
37.2700 536.0000 1.0000
37.2800 572.0000 1.0000
37.2900 561.0000 1.0000
37.3000 570.0000 1.0000
37.3100 602.0000 1.0000
37.3200 596.0000 1.0000
37.3300 606.0000 1.0000
37.3400 597.0000 1.0000
37.3500 644.0000 1.0000
37.3600 595.0000 1.0000
37.3700 675.0000 1.0000
37.3800 654.0000 1.0000
37.3900 649.0000 1.0000
37.4000 731.0000 1.0000
37.4100 703.0000 1.0000
37.4200 724.0000 1.0000
37.4300 746.0000 1.0000
37.4400 777.0000 1.0000
37.4500 790.0000 1.0000
37.4600 845.0000 1.0000
37.4700 842.0000 1.0000
37.4800 945.0000 1.0000
37.4900 950.0000 1.0000
37.5000 1013.0000 1.0000
37.5100 1062.0000 1.0000
37.5200 1075.0000 1.0000
37.5300 1130.0000 1.0000
37.5400 1227.0000 1.0000
37.5500 1351.0000 1.0000
37.5600 1394.0000 1.0000
37.5700 1461.0000 1.0000
37.5800 1579.0000 1.0000
37.5900 1686.0000 1.0000
37.6000 1784.0000 1.0000
37.6100 1866.0000 1.0000
37.6200 2004.0000 1.0000
37.6300 2053.0000 1.0000
37.6400 2172.0000 1.0000
37.6500 2321.0000 1.0000
37.6600 2376.0000 1.0000
37.6700 2377.0000 1.0000
37.6800 2420.0000 1.0000
37.6900 2514.0000 1.0000
37.7000 2423.0000 1.0000
37.7100 2506.0000 1.0000
37.7200 2479.0000 1.0000
37.7300 2423.0000 1.0000
37.7400 2403.0000 1.0000
37.7500 2375.0000 1.0000
37.7600 2244.0000 1.0000
37.7700 2210.0000 1.0000
37.7800 2085.0000 1.0000
37.7900 1993.0000 1.0000
37.8000 1898.0000 1.0000
37.8100 1878.0000 1.0000
37.8200 1731.0000 1.0000
37.8300 1682.0000 1.0000
37.8400 1589.0000 1.0000
37.8500 1455.0000 1.0000
37.8600 1385.0000 1.0000
37.8700 1273.0000 1.0000
37.8800 1184.0000 1.0000
37.8900 1124.0000 1.0000
37.9000 1068.0000 1.0000
37.9100 1019.0000 1.0000
37.9200 914.0000 1.0000
37.9300 879.0000 1.0000
37.9400 885.0000 1.0000
37.9500 884.0000 1.0000
37.9600 801.0000 1.0000
37.9700 779.0000 1.0000
37.9800 752.0000 1.0000
37.9900 682.0000 1.0000
38.0000 701.0000 1.0000
38.0100 656.0000 1.0000
38.0200 648.0000 1.0000
38.0300 658.0000 1.0000
38.0400 646.0000 1.0000
38.0500 567.0000 1.0000
38.0600 599.0000 1.0000
38.0700 586.0000 1.0000
38.0800 592.0000 1.0000
38.0900 537.0000 1.0000
38.1000 591.0000 1.0000
38.1100 547.0000 1.0000
38.1200 569.0000 1.0000
38.1300 563.0000 1.0000
38.1400 550.0000 1.0000
38.1500 538.0000 1.0000
38.1600 540.0000 1.0000
38.1700 518.0000 1.0000
38.1800 492.0000 1.0000
38.1900 525.0000 1.0000
38.2000 506.0000 1.0000
38.2100 527.0000 1.0000
38.2200 463.0000 1.0000
38.2300 467.0000 1.0000
38.2400 518.0000 1.0000
38.2500 514.0000 1.0000
38.2600 510.0000 1.0000
38.2700 473.0000 1.0000
38.2800 466.0000 1.0000
38.2900 465.0000 1.0000
38.3000 453.0000 1.0000
38.3100 488.0000 1.0000
38.3200 491.0000 1.0000
38.3300 480.0000 1.0000
38.3400 450.0000 1.0000
38.3500 498.0000 1.0000
38.3600 438.0000 1.0000
38.3700 451.0000 1.0000
38.3800 479.0000 1.0000
38.3900 433.0000 1.0000
38.4000 468.0000 1.0000
38.4100 452.0000 1.0000
38.4200 473.0000 1.0000
38.4300 460.0000 1.0000
38.4400 456.0000 1.0000
38.4500 423.0000 1.0000
38.4600 438.0000 1.0000
38.4700 444.0000 1.0000
38.4800 448.0000 1.0000
38.4900 454.0000 1.0000
38.5000 457.0000 1.0000
38.5100 453.0000 1.0000
38.5200 452.0000 1.0000
38.5300 449.0000 1.0000
38.5400 463.0000 1.0000
38.5500 440.0000 1.0000
38.5600 460.0000 1.0000
38.5700 475.0000 1.0000
38.5800 445.0000 1.0000
38.5900 455.0000 1.0000
38.6000 451.0000 1.0000
38.6100 431.0000 1.0000
38.6200 498.0000 1.0000
38.6300 503.0000 1.0000
38.6400 488.0000 1.0000
38.6500 487.0000 1.0000
38.6600 474.0000 1.0000
38.6700 492.0000 1.0000
38.6800 482.0000 1.0000
38.6900 467.0000 1.0000
38.7000 476.0000 1.0000
38.7100 448.0000 1.0000
38.7200 457.0000 1.0000
38.7300 437.0000 1.0000
38.7400 469.0000 1.0000
38.7500 457.0000 1.0000
38.7600 480.0000 1.0000
38.7700 438.0000 1.0000
38.7800 474.0000 1.0000
38.7900 453.0000 1.0000
38.8000 471.0000 1.0000
38.8100 441.0000 1.0000
38.8200 468.0000 1.0000
38.8300 476.0000 1.0000
38.8400 461.0000 1.0000
38.8500 470.0000 1.0000
38.8600 473.0000 1.0000
38.8700 437.0000 1.0000
38.8800 454.0000 1.0000
38.8900 437.0000 1.0000
38.9000 439.0000 1.0000
38.9100 478.0000 1.0000
38.9200 470.0000 1.0000
38.9300 442.0000 1.0000
38.9400 423.0000 1.0000
38.9500 436.0000 1.0000
38.9600 450.0000 1.0000
38.9700 459.0000 1.0000
38.9800 485.0000 1.0000
38.9900 482.0000 1.0000
39.0000 463.0000 1.0000
39.0100 415.0000 1.0000
39.0200 455.0000 1.0000
39.0300 434.0000 1.0000
39.0400 452.0000 1.0000
39.0500 445.0000 1.0000
39.0600 472.0000 1.0000
39.0700 458.0000 1.0000
39.0800 402.0000 1.0000
39.0900 409.0000 1.0000
39.1000 447.0000 1.0000
39.1100 450.0000 1.0000
39.1200 444.0000 1.0000
39.1300 427.0000 1.0000
39.1400 422.0000 1.0000
39.1500 433.0000 1.0000
39.1600 452.0000 1.0000
39.1700 450.0000 1.0000
39.1800 426.0000 1.0000
39.1900 430.0000 1.0000
39.2000 396.0000 1.0000
39.2100 420.0000 1.0000
39.2200 434.0000 1.0000
39.2300 436.0000 1.0000
39.2400 422.0000 1.0000
39.2500 436.0000 1.0000
39.2600 408.0000 1.0000
39.2700 440.0000 1.0000
39.2800 413.0000 1.0000
39.2900 402.0000 1.0000
39.3000 472.0000 1.0000
39.3100 412.0000 1.0000
39.3200 423.0000 1.0000
39.3300 432.0000 1.0000
39.3400 448.0000 1.0000
39.3500 429.0000 1.0000
39.3600 452.0000 1.0000
39.3700 471.0000 1.0000
39.3800 411.0000 1.0000
39.3900 434.0000 1.0000
39.4000 426.0000 1.0000
39.4100 418.0000 1.0000
39.4200 418.0000 1.0000
39.4300 426.0000 1.0000
39.4400 451.0000 1.0000
39.4500 447.0000 1.0000
39.4600 441.0000 1.0000
39.4700 424.0000 1.0000
39.4800 401.0000 1.0000
39.4900 390.0000 1.0000
39.5000 418.0000 1.0000
39.5100 401.0000 1.0000
39.5200 413.0000 1.0000
39.5300 392.0000 1.0000
39.5400 441.0000 1.0000
39.5500 409.0000 1.0000
39.5600 434.0000 1.0000
39.5700 437.0000 1.0000
39.5800 406.0000 1.0000
39.5900 427.0000 1.0000
39.6000 414.0000 1.0000
39.6100 382.0000 1.0000
39.6200 396.0000 1.0000
39.6300 425.0000 1.0000
39.6400 409.0000 1.0000
39.6500 432.0000 1.0000
39.6600 425.0000 1.0000
39.6700 392.0000 1.0000
39.6800 413.0000 1.0000
39.6900 382.0000 1.0000
39.7000 461.0000 1.0000
39.7100 405.0000 1.0000
39.7200 431.0000 1.0000
39.7300 419.0000 1.0000
39.7400 427.0000 1.0000
39.7500 430.0000 1.0000
39.7600 404.0000 1.0000
39.7700 401.0000 1.0000
39.7800 416.0000 1.0000
39.7900 436.0000 1.0000
39.8000 441.0000 1.0000
39.8100 453.0000 1.0000
39.8200 438.0000 1.0000
39.8300 450.0000 1.0000
39.8400 424.0000 1.0000
39.8500 428.0000 1.0000
39.8600 389.0000 1.0000
39.8700 422.0000 1.0000
39.8800 430.0000 1.0000
39.8900 414.0000 1.0000
39.9000 409.0000 1.0000
39.9100 392.0000 1.0000
39.9200 368.0000 1.0000
39.9300 396.0000 1.0000
39.9400 413.0000 1.0000
39.9500 418.0000 1.0000
39.9600 440.0000 1.0000
39.9700 416.0000 1.0000
39.9800 419.0000 1.0000
39.9900 446.0000 1.0000
40.0000 428.0000 1.0000
40.0100 407.0000 1.0000
40.0200 406.0000 1.0000
40.0300 423.0000 1.0000
40.0400 448.0000 1.0000
40.0500 435.0000 1.0000
40.0600 404.0000 1.0000
40.0700 437.0000 1.0000
40.0800 430.0000 1.0000
40.0900 382.0000 1.0000
40.1000 396.0000 1.0000
40.1100 434.0000 1.0000
40.1200 399.0000 1.0000
40.1300 402.0000 1.0000
40.1400 394.0000 1.0000
40.1500 410.0000 1.0000
40.1600 424.0000 1.0000
40.1700 427.0000 1.0000
40.1800 394.0000 1.0000
40.1900 412.0000 1.0000
40.2000 401.0000 1.0000
40.2100 429.0000 1.0000
40.2200 394.0000 1.0000
40.2300 383.0000 1.0000
40.2400 369.0000 1.0000
40.2500 392.0000 1.0000
40.2600 409.0000 1.0000
40.2700 407.0000 1.0000
40.2800 405.0000 1.0000
40.2900 397.0000 1.0000
40.3000 433.0000 1.0000
40.3100 437.0000 1.0000
40.3200 392.0000 1.0000
40.3300 399.0000 1.0000
40.3400 402.0000 1.0000
40.3500 420.0000 1.0000
40.3600 416.0000 1.0000
40.3700 396.0000 1.0000
40.3800 396.0000 1.0000
40.3900 386.0000 1.0000
40.4000 421.0000 1.0000
40.4100 420.0000 1.0000
40.4200 402.0000 1.0000
40.4300 356.0000 1.0000
40.4400 428.0000 1.0000
40.4500 410.0000 1.0000
40.4600 426.0000 1.0000
40.4700 424.0000 1.0000
40.4800 425.0000 1.0000
40.4900 408.0000 1.0000
40.5000 394.0000 1.0000
40.5100 414.0000 1.0000
40.5200 405.0000 1.0000
40.5300 418.0000 1.0000
40.5400 450.0000 1.0000
40.5500 423.0000 1.0000
40.5600 427.0000 1.0000
40.5700 438.0000 1.0000
40.5800 425.0000 1.0000
40.5900 421.0000 1.0000
40.6000 426.0000 1.0000
40.6100 403.0000 1.0000
40.6200 421.0000 1.0000
40.6300 439.0000 1.0000
40.6400 425.0000 1.0000
40.6500 428.0000 1.0000
40.6600 385.0000 1.0000
40.6700 431.0000 1.0000
40.6800 437.0000 1.0000
40.6900 395.0000 1.0000
40.7000 451.0000 1.0000
40.7100 428.0000 1.0000
40.7200 442.0000 1.0000
40.7300 432.0000 1.0000
40.7400 402.0000 1.0000
40.7500 430.0000 1.0000
40.7600 441.0000 1.0000
40.7700 412.0000 1.0000
40.7800 403.0000 1.0000
40.7900 410.0000 1.0000
40.8000 393.0000 1.0000
40.8100 416.0000 1.0000
40.8200 447.0000 1.0000
40.8300 433.0000 1.0000
40.8400 437.0000 1.0000
40.8500 423.0000 1.0000
40.8600 412.0000 1.0000
40.8700 407.0000 1.0000
40.8800 417.0000 1.0000
40.8900 444.0000 1.0000
40.9000 449.0000 1.0000
40.9100 426.0000 1.0000
40.9200 409.0000 1.0000
40.9300 423.0000 1.0000
40.9400 424.0000 1.0000
40.9500 424.0000 1.0000
40.9600 408.0000 1.0000
40.9700 398.0000 1.0000
40.9800 439.0000 1.0000
40.9900 413.0000 1.0000
41.0000 414.0000 1.0000
41.0100 405.0000 1.0000
41.0200 393.0000 1.0000
41.0300 388.0000 1.0000
41.0400 405.0000 1.0000
41.0500 403.0000 1.0000
41.0600 434.0000 1.0000
41.0700 398.0000 1.0000
41.0800 400.0000 1.0000
41.0900 397.0000 1.0000
41.1000 424.0000 1.0000
41.1100 416.0000 1.0000
41.1200 422.0000 1.0000
41.1300 398.0000 1.0000
41.1400 438.0000 1.0000
41.1500 427.0000 1.0000
41.1600 409.0000 1.0000
41.1700 374.0000 1.0000
41.1800 402.0000 1.0000
41.1900 416.0000 1.0000
41.2000 401.0000 1.0000
41.2100 400.0000 1.0000
41.2200 392.0000 1.0000
41.2300 378.0000 1.0000
41.2400 391.0000 1.0000
41.2500 404.0000 1.0000
41.2600 409.0000 1.0000
41.2700 429.0000 1.0000
41.2800 395.0000 1.0000
41.2900 390.0000 1.0000
41.3000 388.0000 1.0000
41.3100 388.0000 1.0000
41.3200 419.0000 1.0000
41.3300 413.0000 1.0000
41.3400 429.0000 1.0000
41.3500 419.0000 1.0000
41.3600 409.0000 1.0000
41.3700 423.0000 1.0000
41.3800 416.0000 1.0000
41.3900 408.0000 1.0000
41.4000 387.0000 1.0000
41.4100 403.0000 1.0000
41.4200 376.0000 1.0000
41.4300 413.0000 1.0000
41.4400 426.0000 1.0000
41.4500 403.0000 1.0000
41.4600 400.0000 1.0000
41.4700 362.0000 1.0000
41.4800 371.0000 1.0000
41.4900 363.0000 1.0000
41.5000 380.0000 1.0000
41.5100 396.0000 1.0000
41.5200 371.0000 1.0000
41.5300 408.0000 1.0000
41.5400 390.0000 1.0000
41.5500 429.0000 1.0000
41.5600 433.0000 1.0000
41.5700 386.0000 1.0000
41.5800 402.0000 1.0000
41.5900 411.0000 1.0000
41.6000 397.0000 1.0000
41.6100 401.0000 1.0000
41.6200 359.0000 1.0000
41.6300 399.0000 1.0000
41.6400 400.0000 1.0000
41.6500 398.0000 1.0000
41.6600 416.0000 1.0000
41.6700 400.0000 1.0000
41.6800 416.0000 1.0000
41.6900 364.0000 1.0000
41.7000 387.0000 1.0000
41.7100 422.0000 1.0000
41.7200 404.0000 1.0000
41.7300 405.0000 1.0000
41.7400 443.0000 1.0000
41.7500 403.0000 1.0000
41.7600 392.0000 1.0000
41.7700 389.0000 1.0000
41.7800 400.0000 1.0000
41.7900 412.0000 1.0000
41.8000 435.0000 1.0000
41.8100 394.0000 1.0000
41.8200 360.0000 1.0000
41.8300 396.0000 1.0000
41.8400 365.0000 1.0000
41.8500 409.0000 1.0000
41.8600 404.0000 1.0000
41.8700 413.0000 1.0000
41.8800 435.0000 1.0000
41.8900 383.0000 1.0000
41.9000 424.0000 1.0000
41.9100 415.0000 1.0000
41.9200 395.0000 1.0000
41.9300 373.0000 1.0000
41.9400 387.0000 1.0000
41.9500 384.0000 1.0000
41.9600 387.0000 1.0000
41.9700 380.0000 1.0000
41.9800 366.0000 1.0000
41.9900 367.0000 1.0000
42.0000 389.0000 1.0000
42.0100 424.0000 1.0000
42.0200 404.0000 1.0000
42.0300 408.0000 1.0000
42.0400 396.0000 1.0000
42.0500 389.0000 1.0000
42.0600 380.0000 1.0000
42.0700 422.0000 1.0000
42.0800 416.0000 1.0000
42.0900 391.0000 1.0000
42.1000 400.0000 1.0000
42.1100 374.0000 1.0000
42.1200 396.0000 1.0000
42.1300 438.0000 1.0000
42.1400 412.0000 1.0000
42.1500 438.0000 1.0000
42.1600 401.0000 1.0000
42.1700 438.0000 1.0000
42.1800 398.0000 1.0000
42.1900 399.0000 1.0000
42.2000 412.0000 1.0000
42.2100 427.0000 1.0000
42.2200 408.0000 1.0000
42.2300 406.0000 1.0000
42.2400 422.0000 1.0000
42.2500 402.0000 1.0000
42.2600 404.0000 1.0000
42.2700 475.0000 1.0000
42.2800 447.0000 1.0000
42.2900 408.0000 1.0000
42.3000 407.0000 1.0000
42.3100 418.0000 1.0000
42.3200 427.0000 1.0000
42.3300 423.0000 1.0000
42.3400 422.0000 1.0000
42.3500 413.0000 1.0000
42.3600 455.0000 1.0000
42.3700 432.0000 1.0000
42.3800 451.0000 1.0000
42.3900 425.0000 1.0000
42.4000 437.0000 1.0000
42.4100 403.0000 1.0000
42.4200 413.0000 1.0000
42.4300 435.0000 1.0000
42.4400 425.0000 1.0000
42.4500 429.0000 1.0000
42.4600 456.0000 1.0000
42.4700 429.0000 1.0000
42.4800 425.0000 1.0000
42.4900 410.0000 1.0000
42.5000 408.0000 1.0000
42.5100 377.0000 1.0000
42.5200 418.0000 1.0000
42.5300 400.0000 1.0000
42.5400 411.0000 1.0000
42.5500 410.0000 1.0000
42.5600 413.0000 1.0000
42.5700 426.0000 1.0000
42.5800 421.0000 1.0000
42.5900 407.0000 1.0000
42.6000 431.0000 1.0000
42.6100 407.0000 1.0000
42.6200 414.0000 1.0000
42.6300 384.0000 1.0000
42.6400 411.0000 1.0000
42.6500 413.0000 1.0000
42.6600 400.0000 1.0000
42.6700 401.0000 1.0000
42.6800 410.0000 1.0000
42.6900 399.0000 1.0000
42.7000 392.0000 1.0000
42.7100 380.0000 1.0000
42.7200 359.0000 1.0000
42.7300 376.0000 1.0000
42.7400 399.0000 1.0000
42.7500 400.0000 1.0000
42.7600 417.0000 1.0000
42.7700 421.0000 1.0000
42.7800 408.0000 1.0000
42.7900 414.0000 1.0000
42.8000 418.0000 1.0000
42.8100 396.0000 1.0000
42.8200 386.0000 1.0000
42.8300 387.0000 1.0000
42.8400 379.0000 1.0000
42.8500 368.0000 1.0000
42.8600 369.0000 1.0000
42.8700 381.0000 1.0000
42.8800 384.0000 1.0000
42.8900 420.0000 1.0000
42.9000 372.0000 1.0000
42.9100 402.0000 1.0000
42.9200 391.0000 1.0000
42.9300 382.0000 1.0000
42.9400 393.0000 1.0000
42.9500 372.0000 1.0000
42.9600 384.0000 1.0000
42.9700 362.0000 1.0000
42.9800 356.0000 1.0000
42.9900 382.0000 1.0000
43.0000 376.0000 1.0000
43.0100 402.0000 1.0000
43.0200 430.0000 1.0000
43.0300 390.0000 1.0000
43.0400 403.0000 1.0000
43.0500 403.0000 1.0000
43.0600 379.0000 1.0000
43.0700 385.0000 1.0000
43.0800 369.0000 1.0000
43.0900 398.0000 1.0000
43.1000 382.0000 1.0000
43.1100 397.0000 1.0000
43.1200 388.0000 1.0000
43.1300 386.0000 1.0000
43.1400 372.0000 1.0000
43.1500 362.0000 1.0000
43.1600 338.0000 1.0000
43.1700 394.0000 1.0000
43.1800 393.0000 1.0000
43.1900 397.0000 1.0000
43.2000 405.0000 1.0000
43.2100 371.0000 1.0000
43.2200 406.0000 1.0000
43.2300 410.0000 1.0000
43.2400 375.0000 1.0000
43.2500 380.0000 1.0000
43.2600 422.0000 1.0000
43.2700 375.0000 1.0000
43.2800 375.0000 1.0000
43.2900 353.0000 1.0000
43.3000 388.0000 1.0000
43.3100 392.0000 1.0000
43.3200 374.0000 1.0000
43.3300 337.0000 1.0000
43.3400 411.0000 1.0000
43.3500 383.0000 1.0000
43.3600 410.0000 1.0000
43.3700 389.0000 1.0000
43.3800 409.0000 1.0000
43.3900 364.0000 1.0000
43.4000 380.0000 1.0000
43.4100 394.0000 1.0000
43.4200 377.0000 1.0000
43.4300 386.0000 1.0000
43.4400 383.0000 1.0000
43.4500 378.0000 1.0000
43.4600 384.0000 1.0000
43.4700 348.0000 1.0000
43.4800 384.0000 1.0000
43.4900 374.0000 1.0000
43.5000 390.0000 1.0000
43.5100 400.0000 1.0000
43.5200 416.0000 1.0000
43.5300 390.0000 1.0000
43.5400 391.0000 1.0000
43.5500 398.0000 1.0000
43.5600 365.0000 1.0000
43.5700 390.0000 1.0000
43.5800 386.0000 1.0000
43.5900 395.0000 1.0000
43.6000 373.0000 1.0000
43.6100 395.0000 1.0000
43.6200 353.0000 1.0000
43.6300 375.0000 1.0000
43.6400 393.0000 1.0000
43.6500 361.0000 1.0000
43.6600 422.0000 1.0000
43.6700 378.0000 1.0000
43.6800 375.0000 1.0000
43.6900 409.0000 1.0000
43.7000 376.0000 1.0000
43.7100 387.0000 1.0000
43.7200 354.0000 1.0000
43.7300 373.0000 1.0000
43.7400 392.0000 1.0000
43.7500 381.0000 1.0000
43.7600 387.0000 1.0000
43.7700 381.0000 1.0000
43.7800 370.0000 1.0000
43.7900 397.0000 1.0000
43.8000 393.0000 1.0000
43.8100 404.0000 1.0000
43.8200 384.0000 1.0000
43.8300 376.0000 1.0000
43.8400 396.0000 1.0000
43.8500 379.0000 1.0000
43.8600 377.0000 1.0000
43.8700 354.0000 1.0000
43.8800 377.0000 1.0000
43.8900 373.0000 1.0000
43.9000 387.0000 1.0000
43.9100 382.0000 1.0000
43.9200 369.0000 1.0000
43.9300 364.0000 1.0000
43.9400 399.0000 1.0000
43.9500 394.0000 1.0000
43.9600 381.0000 1.0000
43.9700 359.0000 1.0000
43.9800 351.0000 1.0000
43.9900 407.0000 1.0000
44.0000 362.0000 1.0000
44.0100 370.0000 1.0000
44.0200 367.0000 1.0000
44.0300 362.0000 1.0000
44.0400 361.0000 1.0000
44.0500 381.0000 1.0000
44.0600 382.0000 1.0000
44.0700 381.0000 1.0000
44.0800 371.0000 1.0000
44.0900 382.0000 1.0000
44.1000 366.0000 1.0000
44.1100 390.0000 1.0000
44.1200 342.0000 1.0000
44.1300 374.0000 1.0000
44.1400 362.0000 1.0000
44.1500 370.0000 1.0000
44.1600 388.0000 1.0000
44.1700 362.0000 1.0000
44.1800 343.0000 1.0000
44.1900 349.0000 1.0000
44.2000 338.0000 1.0000
44.2100 347.0000 1.0000
44.2200 383.0000 1.0000
44.2300 360.0000 1.0000
44.2400 384.0000 1.0000
44.2500 370.0000 1.0000
44.2600 411.0000 1.0000
44.2700 381.0000 1.0000
44.2800 393.0000 1.0000
44.2900 393.0000 1.0000
44.3000 386.0000 1.0000
44.3100 363.0000 1.0000
44.3200 374.0000 1.0000
44.3300 402.0000 1.0000
44.3400 379.0000 1.0000
44.3500 370.0000 1.0000
44.3600 395.0000 1.0000
44.3700 374.0000 1.0000
44.3800 340.0000 1.0000
44.3900 386.0000 1.0000
44.4000 378.0000 1.0000
44.4100 359.0000 1.0000
44.4200 352.0000 1.0000
44.4300 381.0000 1.0000
44.4400 357.0000 1.0000
44.4500 346.0000 1.0000
44.4600 378.0000 1.0000
44.4700 362.0000 1.0000
44.4800 411.0000 1.0000
44.4900 351.0000 1.0000
44.5000 368.0000 1.0000
44.5100 409.0000 1.0000
44.5200 396.0000 1.0000
44.5300 369.0000 1.0000
44.5400 397.0000 1.0000
44.5500 391.0000 1.0000
44.5600 374.0000 1.0000
44.5700 348.0000 1.0000
44.5800 358.0000 1.0000
44.5900 365.0000 1.0000
44.6000 371.0000 1.0000
44.6100 361.0000 1.0000
44.6200 346.0000 1.0000
44.6300 355.0000 1.0000
44.6400 370.0000 1.0000
44.6500 392.0000 1.0000
44.6600 363.0000 1.0000
44.6700 383.0000 1.0000
44.6800 366.0000 1.0000
44.6900 380.0000 1.0000
44.7000 390.0000 1.0000
44.7100 414.0000 1.0000
44.7200 376.0000 1.0000
44.7300 338.0000 1.0000
44.7400 343.0000 1.0000
44.7500 362.0000 1.0000
44.7600 382.0000 1.0000
44.7700 343.0000 1.0000
44.7800 375.0000 1.0000
44.7900 367.0000 1.0000
44.8000 373.0000 1.0000
44.8100 395.0000 1.0000
44.8200 373.0000 1.0000
44.8300 382.0000 1.0000
44.8400 363.0000 1.0000
44.8500 361.0000 1.0000
44.8600 375.0000 1.0000
44.8700 389.0000 1.0000
44.8800 383.0000 1.0000
44.8900 388.0000 1.0000
44.9000 363.0000 1.0000
44.9100 358.0000 1.0000
44.9200 368.0000 1.0000
44.9300 365.0000 1.0000
44.9400 367.0000 1.0000
44.9500 364.0000 1.0000
44.9600 352.0000 1.0000
44.9700 355.0000 1.0000
44.9800 377.0000 1.0000
44.9900 348.0000 1.0000
45.0000 380.0000 1.0000
45.0100 420.0000 1.0000
45.0200 362.0000 1.0000
45.0300 371.0000 1.0000
45.0400 347.0000 1.0000
45.0500 360.0000 1.0000
45.0600 396.0000 1.0000
45.0700 401.0000 1.0000
45.0800 405.0000 1.0000
45.0900 327.0000 1.0000
45.1000 394.0000 1.0000
45.1100 328.0000 1.0000
45.1200 366.0000 1.0000
45.1300 388.0000 1.0000
45.1400 337.0000 1.0000
45.1500 348.0000 1.0000
45.1600 372.0000 1.0000
45.1700 360.0000 1.0000
45.1800 392.0000 1.0000
45.1900 390.0000 1.0000
45.2000 372.0000 1.0000
45.2100 361.0000 1.0000
45.2200 364.0000 1.0000
45.2300 360.0000 1.0000
45.2400 359.0000 1.0000
45.2500 389.0000 1.0000
45.2600 400.0000 1.0000
45.2700 374.0000 1.0000
45.2800 391.0000 1.0000
45.2900 345.0000 1.0000
45.3000 377.0000 1.0000
45.3100 387.0000 1.0000
45.3200 345.0000 1.0000
45.3300 359.0000 1.0000
45.3400 369.0000 1.0000
45.3500 350.0000 1.0000
45.3600 374.0000 1.0000
45.3700 367.0000 1.0000
45.3800 388.0000 1.0000
45.3900 378.0000 1.0000
45.4000 349.0000 1.0000
45.4100 371.0000 1.0000
45.4200 358.0000 1.0000
45.4300 391.0000 1.0000
45.4400 343.0000 1.0000
45.4500 366.0000 1.0000
45.4600 345.0000 1.0000
45.4700 333.0000 1.0000
45.4800 349.0000 1.0000
45.4900 357.0000 1.0000
45.5000 344.0000 1.0000
45.5100 343.0000 1.0000
45.5200 314.0000 1.0000
45.5300 348.0000 1.0000
45.5400 376.0000 1.0000
45.5500 359.0000 1.0000
45.5600 356.0000 1.0000
45.5700 366.0000 1.0000
45.5800 344.0000 1.0000
45.5900 356.0000 1.0000
45.6000 377.0000 1.0000
45.6100 379.0000 1.0000
45.6200 352.0000 1.0000
45.6300 359.0000 1.0000
45.6400 386.0000 1.0000
45.6500 356.0000 1.0000
45.6600 355.0000 1.0000
45.6700 366.0000 1.0000
45.6800 372.0000 1.0000
45.6900 354.0000 1.0000
45.7000 356.0000 1.0000
45.7100 359.0000 1.0000
45.7200 374.0000 1.0000
45.7300 379.0000 1.0000
45.7400 354.0000 1.0000
45.7500 350.0000 1.0000
45.7600 346.0000 1.0000
45.7700 372.0000 1.0000
45.7800 330.0000 1.0000
45.7900 361.0000 1.0000
45.8000 319.0000 1.0000
45.8100 327.0000 1.0000
45.8200 342.0000 1.0000
45.8300 336.0000 1.0000
45.8400 383.0000 1.0000
45.8500 355.0000 1.0000
45.8600 393.0000 1.0000
45.8700 362.0000 1.0000
45.8800 362.0000 1.0000
45.8900 346.0000 1.0000
45.9000 319.0000 1.0000
45.9100 329.0000 1.0000
45.9200 361.0000 1.0000
45.9300 356.0000 1.0000
45.9400 367.0000 1.0000
45.9500 362.0000 1.0000
45.9600 372.0000 1.0000
45.9700 371.0000 1.0000
45.9800 366.0000 1.0000
45.9900 340.0000 1.0000
46.0000 350.0000 1.0000
46.0100 352.0000 1.0000
46.0200 369.0000 1.0000
46.0300 367.0000 1.0000
46.0400 411.0000 1.0000
46.0500 369.0000 1.0000
46.0600 357.0000 1.0000
46.0700 359.0000 1.0000
46.0800 346.0000 1.0000
46.0900 372.0000 1.0000
46.1000 373.0000 1.0000
46.1100 403.0000 1.0000
46.1200 404.0000 1.0000
46.1300 372.0000 1.0000
46.1400 351.0000 1.0000
46.1500 379.0000 1.0000
46.1600 378.0000 1.0000
46.1700 384.0000 1.0000
46.1800 387.0000 1.0000
46.1900 366.0000 1.0000
46.2000 370.0000 1.0000
46.2100 392.0000 1.0000
46.2200 384.0000 1.0000
46.2300 397.0000 1.0000
46.2400 382.0000 1.0000
46.2500 374.0000 1.0000
46.2600 344.0000 1.0000
46.2700 352.0000 1.0000
46.2800 368.0000 1.0000
46.2900 402.0000 1.0000
46.3000 354.0000 1.0000
46.3100 336.0000 1.0000
46.3200 350.0000 1.0000
46.3300 352.0000 1.0000
46.3400 368.0000 1.0000
46.3500 332.0000 1.0000
46.3600 342.0000 1.0000
46.3700 370.0000 1.0000
46.3800 341.0000 1.0000
46.3900 327.0000 1.0000
46.4000 372.0000 1.0000
46.4100 371.0000 1.0000
46.4200 345.0000 1.0000
46.4300 374.0000 1.0000
46.4400 379.0000 1.0000
46.4500 375.0000 1.0000
46.4600 336.0000 1.0000
46.4700 357.0000 1.0000
46.4800 376.0000 1.0000
46.4900 357.0000 1.0000
46.5000 345.0000 1.0000
46.5100 336.0000 1.0000
46.5200 353.0000 1.0000
46.5300 346.0000 1.0000
46.5400 338.0000 1.0000
46.5500 364.0000 1.0000
46.5600 358.0000 1.0000
46.5700 351.0000 1.0000
46.5800 339.0000 1.0000
46.5900 368.0000 1.0000
46.6000 372.0000 1.0000
46.6100 331.0000 1.0000
46.6200 356.0000 1.0000
46.6300 358.0000 1.0000
46.6400 354.0000 1.0000
46.6500 357.0000 1.0000
46.6600 348.0000 1.0000
46.6700 342.0000 1.0000
46.6800 368.0000 1.0000
46.6900 358.0000 1.0000
46.7000 360.0000 1.0000
46.7100 352.0000 1.0000
46.7200 316.0000 1.0000
46.7300 342.0000 1.0000
46.7400 364.0000 1.0000
46.7500 349.0000 1.0000
46.7600 351.0000 1.0000
46.7700 369.0000 1.0000
46.7800 364.0000 1.0000
46.7900 364.0000 1.0000
46.8000 353.0000 1.0000
46.8100 374.0000 1.0000
46.8200 355.0000 1.0000
46.8300 387.0000 1.0000
46.8400 292.0000 1.0000
46.8500 349.0000 1.0000
46.8600 313.0000 1.0000
46.8700 329.0000 1.0000
46.8800 322.0000 1.0000
46.8900 341.0000 1.0000
46.9000 350.0000 1.0000
46.9100 351.0000 1.0000
46.9200 358.0000 1.0000
46.9300 342.0000 1.0000
46.9400 362.0000 1.0000
46.9500 329.0000 1.0000
46.9600 318.0000 1.0000
46.9700 334.0000 1.0000
46.9800 346.0000 1.0000
46.9900 341.0000 1.0000
47.0000 371.0000 1.0000
47.0100 346.0000 1.0000
47.0200 365.0000 1.0000
47.0300 364.0000 1.0000
47.0400 373.0000 1.0000
47.0500 325.0000 1.0000
47.0600 336.0000 1.0000
47.0700 345.0000 1.0000
47.0800 344.0000 1.0000
47.0900 333.0000 1.0000
47.1000 349.0000 1.0000
47.1100 367.0000 1.0000
47.1200 365.0000 1.0000
47.1300 350.0000 1.0000
47.1400 361.0000 1.0000
47.1500 360.0000 1.0000
47.1600 379.0000 1.0000
47.1700 326.0000 1.0000
47.1800 331.0000 1.0000
47.1900 323.0000 1.0000
47.2000 345.0000 1.0000
47.2100 328.0000 1.0000
47.2200 364.0000 1.0000
47.2300 361.0000 1.0000
47.2400 333.0000 1.0000
47.2500 347.0000 1.0000
47.2600 348.0000 1.0000
47.2700 340.0000 1.0000
47.2800 363.0000 1.0000
47.2900 333.0000 1.0000
47.3000 344.0000 1.0000
47.3100 338.0000 1.0000
47.3200 367.0000 1.0000
47.3300 327.0000 1.0000
47.3400 315.0000 1.0000
47.3500 356.0000 1.0000
47.3600 334.0000 1.0000
47.3700 317.0000 1.0000
47.3800 342.0000 1.0000
47.3900 356.0000 1.0000
47.4000 334.0000 1.0000
47.4100 336.0000 1.0000
47.4200 327.0000 1.0000
47.4300 329.0000 1.0000
47.4400 355.0000 1.0000
47.4500 361.0000 1.0000
47.4600 335.0000 1.0000
47.4700 342.0000 1.0000
47.4800 341.0000 1.0000
47.4900 363.0000 1.0000
47.5000 367.0000 1.0000
47.5100 351.0000 1.0000
47.5200 349.0000 1.0000
47.5300 340.0000 1.0000
47.5400 341.0000 1.0000
47.5500 344.0000 1.0000
47.5600 333.0000 1.0000
47.5700 342.0000 1.0000
47.5800 346.0000 1.0000
47.5900 345.0000 1.0000
47.6000 344.0000 1.0000
47.6100 366.0000 1.0000
47.6200 331.0000 1.0000
47.6300 322.0000 1.0000
47.6400 349.0000 1.0000
47.6500 352.0000 1.0000
47.6600 357.0000 1.0000
47.6700 357.0000 1.0000
47.6800 359.0000 1.0000
47.6900 331.0000 1.0000
47.7000 307.0000 1.0000
47.7100 339.0000 1.0000
47.7200 351.0000 1.0000
47.7300 327.0000 1.0000
47.7400 338.0000 1.0000
47.7500 337.0000 1.0000
47.7600 352.0000 1.0000
47.7700 330.0000 1.0000
47.7800 306.0000 1.0000
47.7900 318.0000 1.0000
47.8000 347.0000 1.0000
47.8100 371.0000 1.0000
47.8200 325.0000 1.0000
47.8300 331.0000 1.0000
47.8400 356.0000 1.0000
47.8500 354.0000 1.0000
47.8600 360.0000 1.0000
47.8700 350.0000 1.0000
47.8800 347.0000 1.0000
47.8900 368.0000 1.0000
47.9000 364.0000 1.0000
47.9100 375.0000 1.0000
47.9200 321.0000 1.0000
47.9300 331.0000 1.0000
47.9400 348.0000 1.0000
47.9500 332.0000 1.0000
47.9600 345.0000 1.0000
47.9700 341.0000 1.0000
47.9800 346.0000 1.0000
47.9900 328.0000 1.0000
48.0000 370.0000 1.0000
48.0100 334.0000 1.0000
48.0200 351.0000 1.0000
48.0300 352.0000 1.0000
48.0400 322.0000 1.0000
48.0500 330.0000 1.0000
48.0600 352.0000 1.0000
48.0700 340.0000 1.0000
48.0800 345.0000 1.0000
48.0900 328.0000 1.0000
48.1000 315.0000 1.0000
48.1100 351.0000 1.0000
48.1200 325.0000 1.0000
48.1300 323.0000 1.0000
48.1400 349.0000 1.0000
48.1500 313.0000 1.0000
48.1600 325.0000 1.0000
48.1700 314.0000 1.0000
48.1800 332.0000 1.0000
48.1900 338.0000 1.0000
48.2000 354.0000 1.0000
48.2100 378.0000 1.0000
48.2200 347.0000 1.0000
48.2300 353.0000 1.0000
48.2400 347.0000 1.0000
48.2500 320.0000 1.0000
48.2600 337.0000 1.0000
48.2700 354.0000 1.0000
48.2800 347.0000 1.0000
48.2900 327.0000 1.0000
48.3000 344.0000 1.0000
48.3100 362.0000 1.0000
48.3200 337.0000 1.0000
48.3300 335.0000 1.0000
48.3400 357.0000 1.0000
48.3500 369.0000 1.0000
48.3600 332.0000 1.0000
48.3700 364.0000 1.0000
48.3800 348.0000 1.0000
48.3900 356.0000 1.0000
48.4000 374.0000 1.0000
48.4100 336.0000 1.0000
48.4200 356.0000 1.0000
48.4300 343.0000 1.0000
48.4400 364.0000 1.0000
48.4500 342.0000 1.0000
48.4600 368.0000 1.0000
48.4700 343.0000 1.0000
48.4800 345.0000 1.0000
48.4900 319.0000 1.0000
48.5000 326.0000 1.0000
48.5100 327.0000 1.0000
48.5200 355.0000 1.0000
48.5300 341.0000 1.0000
48.5400 337.0000 1.0000
48.5500 348.0000 1.0000
48.5600 347.0000 1.0000
48.5700 313.0000 1.0000
48.5800 357.0000 1.0000
48.5900 326.0000 1.0000
48.6000 309.0000 1.0000
48.6100 308.0000 1.0000
48.6200 337.0000 1.0000
48.6300 369.0000 1.0000
48.6400 339.0000 1.0000
48.6500 329.0000 1.0000
48.6600 332.0000 1.0000
48.6700 362.0000 1.0000
48.6800 341.0000 1.0000
48.6900 331.0000 1.0000
48.7000 376.0000 1.0000
48.7100 331.0000 1.0000
48.7200 342.0000 1.0000
48.7300 347.0000 1.0000
48.7400 310.0000 1.0000
48.7500 313.0000 1.0000
48.7600 312.0000 1.0000
48.7700 358.0000 1.0000
48.7800 344.0000 1.0000
48.7900 366.0000 1.0000
48.8000 359.0000 1.0000
48.8100 342.0000 1.0000
48.8200 352.0000 1.0000
48.8300 336.0000 1.0000
48.8400 318.0000 1.0000
48.8500 337.0000 1.0000
48.8600 344.0000 1.0000
48.8700 313.0000 1.0000
48.8800 344.0000 1.0000
48.8900 341.0000 1.0000
48.9000 328.0000 1.0000
48.9100 350.0000 1.0000
48.9200 340.0000 1.0000
48.9300 321.0000 1.0000
48.9400 324.0000 1.0000
48.9500 333.0000 1.0000
48.9600 328.0000 1.0000
48.9700 332.0000 1.0000
48.9800 358.0000 1.0000
48.9900 358.0000 1.0000
49.0000 326.0000 1.0000
49.0100 378.0000 1.0000
49.0200 358.0000 1.0000
49.0300 356.0000 1.0000
49.0400 332.0000 1.0000
49.0500 323.0000 1.0000
49.0600 328.0000 1.0000
49.0700 319.0000 1.0000
49.0800 326.0000 1.0000
49.0900 353.0000 1.0000
49.1000 344.0000 1.0000
49.1100 347.0000 1.0000
49.1200 383.0000 1.0000
49.1300 324.0000 1.0000
49.1400 330.0000 1.0000
49.1500 340.0000 1.0000
49.1600 319.0000 1.0000
49.1700 318.0000 1.0000
49.1800 390.0000 1.0000
49.1900 366.0000 1.0000
49.2000 368.0000 1.0000
49.2100 343.0000 1.0000
49.2200 320.0000 1.0000
49.2300 354.0000 1.0000
49.2400 345.0000 1.0000
49.2500 348.0000 1.0000
49.2600 348.0000 1.0000
49.2700 337.0000 1.0000
49.2800 361.0000 1.0000
49.2900 350.0000 1.0000
49.3000 337.0000 1.0000
49.3100 346.0000 1.0000
49.3200 324.0000 1.0000
49.3300 353.0000 1.0000
49.3400 360.0000 1.0000
49.3500 347.0000 1.0000
49.3600 360.0000 1.0000
49.3700 381.0000 1.0000
49.3800 322.0000 1.0000
49.3900 354.0000 1.0000
49.4000 359.0000 1.0000
49.4100 379.0000 1.0000
49.4200 352.0000 1.0000
49.4300 332.0000 1.0000
49.4400 326.0000 1.0000
49.4500 357.0000 1.0000
49.4600 375.0000 1.0000
49.4700 339.0000 1.0000
49.4800 340.0000 1.0000
49.4900 347.0000 1.0000
49.5000 357.0000 1.0000
49.5100 331.0000 1.0000
49.5200 344.0000 1.0000
49.5300 362.0000 1.0000
49.5400 390.0000 1.0000
49.5500 338.0000 1.0000
49.5600 331.0000 1.0000
49.5700 349.0000 1.0000
49.5800 337.0000 1.0000
49.5900 340.0000 1.0000
49.6000 368.0000 1.0000
49.6100 316.0000 1.0000
49.6200 344.0000 1.0000
49.6300 369.0000 1.0000
49.6400 320.0000 1.0000
49.6500 380.0000 1.0000
49.6600 368.0000 1.0000
49.6700 359.0000 1.0000
49.6800 360.0000 1.0000
49.6900 318.0000 1.0000
49.7000 322.0000 1.0000
49.7100 341.0000 1.0000
49.7200 385.0000 1.0000
49.7300 321.0000 1.0000
49.7400 330.0000 1.0000
49.7500 378.0000 1.0000
49.7600 367.0000 1.0000
49.7700 370.0000 1.0000
49.7800 344.0000 1.0000
49.7900 343.0000 1.0000
49.8000 327.0000 1.0000
49.8100 342.0000 1.0000
49.8200 335.0000 1.0000
49.8300 355.0000 1.0000
49.8400 321.0000 1.0000
49.8500 326.0000 1.0000
49.8600 315.0000 1.0000
49.8700 344.0000 1.0000
49.8800 350.0000 1.0000
49.8900 344.0000 1.0000
49.9000 335.0000 1.0000
49.9100 370.0000 1.0000
49.9200 357.0000 1.0000
49.9300 357.0000 1.0000
49.9400 349.0000 1.0000
49.9500 336.0000 1.0000
49.9600 344.0000 1.0000
49.9700 369.0000 1.0000
49.9800 342.0000 1.0000
49.9900 354.0000 1.0000
50.0000 379.0000 1.0000
50.0100 333.0000 1.0000
50.0200 351.0000 1.0000
50.0300 325.0000 1.0000
50.0400 327.0000 1.0000
50.0500 321.0000 1.0000
50.0600 346.0000 1.0000
50.0700 329.0000 1.0000
50.0800 360.0000 1.0000
50.0900 357.0000 1.0000
50.1000 338.0000 1.0000
50.1100 355.0000 1.0000
50.1200 336.0000 1.0000
50.1300 331.0000 1.0000
50.1400 340.0000 1.0000
50.1500 341.0000 1.0000
50.1600 337.0000 1.0000
50.1700 323.0000 1.0000
50.1800 301.0000 1.0000
50.1900 346.0000 1.0000
50.2000 327.0000 1.0000
50.2100 336.0000 1.0000
50.2200 348.0000 1.0000
50.2300 314.0000 1.0000
50.2400 335.0000 1.0000
50.2500 348.0000 1.0000
50.2600 336.0000 1.0000
50.2700 349.0000 1.0000
50.2800 319.0000 1.0000
50.2900 340.0000 1.0000
50.3000 350.0000 1.0000
50.3100 352.0000 1.0000
50.3200 344.0000 1.0000
50.3300 350.0000 1.0000
50.3400 372.0000 1.0000
50.3500 346.0000 1.0000
50.3600 349.0000 1.0000
50.3700 335.0000 1.0000
50.3800 320.0000 1.0000
50.3900 357.0000 1.0000
50.4000 344.0000 1.0000
50.4100 324.0000 1.0000
50.4200 336.0000 1.0000
50.4300 340.0000 1.0000
50.4400 324.0000 1.0000
50.4500 325.0000 1.0000
50.4600 338.0000 1.0000
50.4700 330.0000 1.0000
50.4800 338.0000 1.0000
50.4900 358.0000 1.0000
50.5000 306.0000 1.0000
50.5100 359.0000 1.0000
50.5200 318.0000 1.0000
50.5300 339.0000 1.0000
50.5400 369.0000 1.0000
50.5500 341.0000 1.0000
50.5600 345.0000 1.0000
50.5700 337.0000 1.0000
50.5800 349.0000 1.0000
50.5900 358.0000 1.0000
50.6000 328.0000 1.0000
50.6100 334.0000 1.0000
50.6200 326.0000 1.0000
50.6300 360.0000 1.0000
50.6400 331.0000 1.0000
50.6500 357.0000 1.0000
50.6600 357.0000 1.0000
50.6700 338.0000 1.0000
50.6800 349.0000 1.0000
50.6900 344.0000 1.0000
50.7000 373.0000 1.0000
50.7100 378.0000 1.0000
50.7200 353.0000 1.0000
50.7300 390.0000 1.0000
50.7400 343.0000 1.0000
50.7500 344.0000 1.0000
50.7600 372.0000 1.0000
50.7700 360.0000 1.0000
50.7800 328.0000 1.0000
50.7900 342.0000 1.0000
50.8000 350.0000 1.0000
50.8100 338.0000 1.0000
50.8200 356.0000 1.0000
50.8300 354.0000 1.0000
50.8400 335.0000 1.0000
50.8500 332.0000 1.0000
50.8600 353.0000 1.0000
50.8700 374.0000 1.0000
50.8800 380.0000 1.0000
50.8900 351.0000 1.0000
50.9000 342.0000 1.0000
50.9100 359.0000 1.0000
50.9200 376.0000 1.0000
50.9300 338.0000 1.0000
50.9400 371.0000 1.0000
50.9500 352.0000 1.0000
50.9600 360.0000 1.0000
50.9700 377.0000 1.0000
50.9800 371.0000 1.0000
50.9900 371.0000 1.0000
51.0000 401.0000 1.0000
51.0100 407.0000 1.0000
51.0200 389.0000 1.0000
51.0300 396.0000 1.0000
51.0400 410.0000 1.0000
51.0500 409.0000 1.0000
51.0600 427.0000 1.0000
51.0700 439.0000 1.0000
51.0800 433.0000 1.0000
51.0900 393.0000 1.0000
51.1000 448.0000 1.0000
51.1100 459.0000 1.0000
51.1200 457.0000 1.0000
51.1300 453.0000 1.0000
51.1400 461.0000 1.0000
51.1500 454.0000 1.0000
51.1600 502.0000 1.0000
51.1700 485.0000 1.0000
51.1800 497.0000 1.0000
51.1900 515.0000 1.0000
51.2000 545.0000 1.0000
51.2100 553.0000 1.0000
51.2200 559.0000 1.0000
51.2300 604.0000 1.0000
51.2400 624.0000 1.0000
51.2500 626.0000 1.0000
51.2600 639.0000 1.0000
51.2700 678.0000 1.0000
51.2800 725.0000 1.0000
51.2900 799.0000 1.0000
51.3000 874.0000 1.0000
51.3100 871.0000 1.0000
51.3200 910.0000 1.0000
51.3300 984.0000 1.0000
51.3400 1104.0000 1.0000
51.3500 1142.0000 1.0000
51.3600 1294.0000 1.0000
51.3700 1347.0000 1.0000
51.3800 1434.0000 1.0000
51.3900 1606.0000 1.0000
51.4000 1684.0000 1.0000
51.4100 1743.0000 1.0000
51.4200 1882.0000 1.0000
51.4300 1974.0000 1.0000
51.4400 2061.0000 1.0000
51.4500 2162.0000 1.0000
51.4600 2144.0000 1.0000
51.4700 2204.0000 1.0000
51.4800 2263.0000 1.0000
51.4900 2257.0000 1.0000
51.5000 2185.0000 1.0000
51.5100 2121.0000 1.0000
51.5200 2060.0000 1.0000
51.5300 1957.0000 1.0000
51.5400 1887.0000 1.0000
51.5500 1842.0000 1.0000
51.5600 1759.0000 1.0000
51.5700 1729.0000 1.0000
51.5800 1662.0000 1.0000
51.5900 1601.0000 1.0000
51.6000 1684.0000 1.0000
51.6100 1595.0000 1.0000
51.6200 1505.0000 1.0000
51.6300 1377.0000 1.0000
51.6400 1354.0000 1.0000
51.6500 1289.0000 1.0000
51.6600 1119.0000 1.0000
51.6700 1063.0000 1.0000
51.6800 1026.0000 1.0000
51.6900 896.0000 1.0000
51.7000 856.0000 1.0000
51.7100 820.0000 1.0000
51.7200 756.0000 1.0000
51.7300 718.0000 1.0000
51.7400 696.0000 1.0000
51.7500 636.0000 1.0000
51.7600 591.0000 1.0000
51.7700 589.0000 1.0000
51.7800 585.0000 1.0000
51.7900 555.0000 1.0000
51.8000 550.0000 1.0000
51.8100 523.0000 1.0000
51.8200 508.0000 1.0000
51.8300 510.0000 1.0000
51.8400 496.0000 1.0000
51.8500 456.0000 1.0000
51.8600 468.0000 1.0000
51.8700 421.0000 1.0000
51.8800 454.0000 1.0000
51.8900 438.0000 1.0000
51.9000 417.0000 1.0000
51.9100 465.0000 1.0000
51.9200 450.0000 1.0000
51.9300 412.0000 1.0000
51.9400 408.0000 1.0000
51.9500 385.0000 1.0000
51.9600 397.0000 1.0000
51.9700 413.0000 1.0000
51.9800 405.0000 1.0000
51.9900 391.0000 1.0000
52.0000 402.0000 1.0000
52.0100 384.0000 1.0000
52.0200 411.0000 1.0000
52.0300 383.0000 1.0000
52.0400 397.0000 1.0000
52.0500 355.0000 1.0000
52.0600 365.0000 1.0000
52.0700 351.0000 1.0000
52.0800 344.0000 1.0000
52.0900 392.0000 1.0000
52.1000 395.0000 1.0000
52.1100 351.0000 1.0000
52.1200 352.0000 1.0000
52.1300 342.0000 1.0000
52.1400 379.0000 1.0000
52.1500 365.0000 1.0000
52.1600 336.0000 1.0000
52.1700 362.0000 1.0000
52.1800 352.0000 1.0000
52.1900 354.0000 1.0000
52.2000 366.0000 1.0000
52.2100 354.0000 1.0000
52.2200 342.0000 1.0000
52.2300 339.0000 1.0000
52.2400 309.0000 1.0000
52.2500 374.0000 1.0000
52.2600 378.0000 1.0000
52.2700 374.0000 1.0000
52.2800 369.0000 1.0000
52.2900 350.0000 1.0000
52.3000 330.0000 1.0000
52.3100 330.0000 1.0000
52.3200 339.0000 1.0000
52.3300 330.0000 1.0000
52.3400 338.0000 1.0000
52.3500 349.0000 1.0000
52.3600 358.0000 1.0000
52.3700 362.0000 1.0000
52.3800 354.0000 1.0000
52.3900 348.0000 1.0000
52.4000 343.0000 1.0000
52.4100 330.0000 1.0000
52.4200 334.0000 1.0000
52.4300 334.0000 1.0000
52.4400 369.0000 1.0000
52.4500 306.0000 1.0000
52.4600 336.0000 1.0000
52.4700 348.0000 1.0000
52.4800 326.0000 1.0000
52.4900 331.0000 1.0000
52.5000 358.0000 1.0000
52.5100 322.0000 1.0000
52.5200 346.0000 1.0000
52.5300 356.0000 1.0000
52.5400 329.0000 1.0000
52.5500 323.0000 1.0000
52.5600 339.0000 1.0000
52.5700 347.0000 1.0000
52.5800 351.0000 1.0000
52.5900 346.0000 1.0000
52.6000 341.0000 1.0000
52.6100 361.0000 1.0000
52.6200 350.0000 1.0000
52.6300 321.0000 1.0000
52.6400 316.0000 1.0000
52.6500 308.0000 1.0000
52.6600 337.0000 1.0000
52.6700 313.0000 1.0000
52.6800 318.0000 1.0000
52.6900 356.0000 1.0000
52.7000 329.0000 1.0000
52.7100 336.0000 1.0000
52.7200 376.0000 1.0000
52.7300 321.0000 1.0000
52.7400 326.0000 1.0000
52.7500 339.0000 1.0000
52.7600 337.0000 1.0000
52.7700 337.0000 1.0000
52.7800 356.0000 1.0000
52.7900 331.0000 1.0000
52.8000 334.0000 1.0000
52.8100 337.0000 1.0000
52.8200 358.0000 1.0000
52.8300 341.0000 1.0000
52.8400 329.0000 1.0000
52.8500 324.0000 1.0000
52.8600 355.0000 1.0000
52.8700 309.0000 1.0000
52.8800 329.0000 1.0000
52.8900 325.0000 1.0000
52.9000 347.0000 1.0000
52.9100 333.0000 1.0000
52.9200 353.0000 1.0000
52.9300 330.0000 1.0000
52.9400 293.0000 1.0000
52.9500 322.0000 1.0000
52.9600 323.0000 1.0000
52.9700 336.0000 1.0000
52.9800 318.0000 1.0000
52.9900 303.0000 1.0000
53.0000 340.0000 1.0000
53.0100 335.0000 1.0000
53.0200 314.0000 1.0000
53.0300 312.0000 1.0000
53.0400 353.0000 1.0000
53.0500 330.0000 1.0000
53.0600 348.0000 1.0000
53.0700 317.0000 1.0000
53.0800 307.0000 1.0000
53.0900 336.0000 1.0000
53.1000 352.0000 1.0000
53.1100 331.0000 1.0000
53.1200 314.0000 1.0000
53.1300 320.0000 1.0000
53.1400 310.0000 1.0000
53.1500 311.0000 1.0000
53.1600 349.0000 1.0000
53.1700 325.0000 1.0000
53.1800 320.0000 1.0000
53.1900 327.0000 1.0000
53.2000 309.0000 1.0000
53.2100 335.0000 1.0000
53.2200 327.0000 1.0000
53.2300 349.0000 1.0000
53.2400 292.0000 1.0000
53.2500 315.0000 1.0000
53.2600 296.0000 1.0000
53.2700 324.0000 1.0000
53.2800 321.0000 1.0000
53.2900 329.0000 1.0000
53.3000 328.0000 1.0000
53.3100 353.0000 1.0000
53.3200 329.0000 1.0000
53.3300 302.0000 1.0000
53.3400 342.0000 1.0000
53.3500 345.0000 1.0000
53.3600 344.0000 1.0000
53.3700 338.0000 1.0000
53.3800 339.0000 1.0000
53.3900 322.0000 1.0000
53.4000 321.0000 1.0000
53.4100 336.0000 1.0000
53.4200 340.0000 1.0000
53.4300 314.0000 1.0000
53.4400 325.0000 1.0000
53.4500 334.0000 1.0000
53.4600 351.0000 1.0000
53.4700 346.0000 1.0000
53.4800 338.0000 1.0000
53.4900 341.0000 1.0000
53.5000 326.0000 1.0000
53.5100 326.0000 1.0000
53.5200 326.0000 1.0000
53.5300 340.0000 1.0000
53.5400 323.0000 1.0000
53.5500 333.0000 1.0000
53.5600 311.0000 1.0000
53.5700 303.0000 1.0000
53.5800 354.0000 1.0000
53.5900 337.0000 1.0000
53.6000 336.0000 1.0000
53.6100 344.0000 1.0000
53.6200 352.0000 1.0000
53.6300 315.0000 1.0000
53.6400 353.0000 1.0000
53.6500 341.0000 1.0000
53.6600 324.0000 1.0000
53.6700 346.0000 1.0000
53.6800 356.0000 1.0000
53.6900 327.0000 1.0000
53.7000 328.0000 1.0000
53.7100 322.0000 1.0000
53.7200 346.0000 1.0000
53.7300 344.0000 1.0000
53.7400 338.0000 1.0000
53.7500 360.0000 1.0000
53.7600 323.0000 1.0000
53.7700 296.0000 1.0000
53.7800 310.0000 1.0000
53.7900 318.0000 1.0000
53.8000 361.0000 1.0000
53.8100 343.0000 1.0000
53.8200 345.0000 1.0000
53.8300 358.0000 1.0000
53.8400 332.0000 1.0000
53.8500 337.0000 1.0000
53.8600 316.0000 1.0000
53.8700 321.0000 1.0000
53.8800 344.0000 1.0000
53.8900 368.0000 1.0000
53.9000 354.0000 1.0000
53.9100 377.0000 1.0000
53.9200 351.0000 1.0000
53.9300 342.0000 1.0000
53.9400 342.0000 1.0000
53.9500 332.0000 1.0000
53.9600 352.0000 1.0000
53.9700 349.0000 1.0000
53.9800 354.0000 1.0000
53.9900 364.0000 1.0000
54.0000 354.0000 1.0000
54.0100 329.0000 1.0000
54.0200 359.0000 1.0000
54.0300 337.0000 1.0000
54.0400 342.0000 1.0000
54.0500 338.0000 1.0000
54.0600 363.0000 1.0000
54.0700 331.0000 1.0000
54.0800 337.0000 1.0000
54.0900 315.0000 1.0000
54.1000 344.0000 1.0000
54.1100 368.0000 1.0000
54.1200 378.0000 1.0000
54.1300 349.0000 1.0000
54.1400 342.0000 1.0000
54.1500 334.0000 1.0000
54.1600 344.0000 1.0000
54.1700 360.0000 1.0000
54.1800 353.0000 1.0000
54.1900 374.0000 1.0000
54.2000 405.0000 1.0000
54.2100 377.0000 1.0000
54.2200 377.0000 1.0000
54.2300 353.0000 1.0000
54.2400 402.0000 1.0000
54.2500 375.0000 1.0000
54.2600 378.0000 1.0000
54.2700 385.0000 1.0000
54.2800 366.0000 1.0000
54.2900 372.0000 1.0000
54.3000 376.0000 1.0000
54.3100 399.0000 1.0000
54.3200 401.0000 1.0000
54.3300 405.0000 1.0000
54.3400 413.0000 1.0000
54.3500 389.0000 1.0000
54.3600 421.0000 1.0000
54.3700 439.0000 1.0000
54.3800 404.0000 1.0000
54.3900 418.0000 1.0000
54.4000 426.0000 1.0000
54.4100 475.0000 1.0000
54.4200 455.0000 1.0000
54.4300 463.0000 1.0000
54.4400 466.0000 1.0000
54.4500 509.0000 1.0000
54.4600 525.0000 1.0000
54.4700 480.0000 1.0000
54.4800 475.0000 1.0000
54.4900 457.0000 1.0000
54.5000 491.0000 1.0000
54.5100 488.0000 1.0000
54.5200 466.0000 1.0000
54.5300 467.0000 1.0000
54.5400 478.0000 1.0000
54.5500 462.0000 1.0000
54.5600 474.0000 1.0000
54.5700 471.0000 1.0000
54.5800 473.0000 1.0000
54.5900 494.0000 1.0000
54.6000 476.0000 1.0000
54.6100 447.0000 1.0000
54.6200 475.0000 1.0000
54.6300 469.0000 1.0000
54.6400 399.0000 1.0000
54.6500 431.0000 1.0000
54.6600 473.0000 1.0000
54.6700 423.0000 1.0000
54.6800 418.0000 1.0000
54.6900 461.0000 1.0000
54.7000 447.0000 1.0000
54.7100 432.0000 1.0000
54.7200 415.0000 1.0000
54.7300 422.0000 1.0000
54.7400 394.0000 1.0000
54.7500 383.0000 1.0000
54.7600 393.0000 1.0000
54.7700 393.0000 1.0000
54.7800 356.0000 1.0000
54.7900 372.0000 1.0000
54.8000 379.0000 1.0000
54.8100 350.0000 1.0000
54.8200 361.0000 1.0000
54.8300 374.0000 1.0000
54.8400 328.0000 1.0000
54.8500 328.0000 1.0000
54.8600 342.0000 1.0000
54.8700 327.0000 1.0000
54.8800 345.0000 1.0000
54.8900 326.0000 1.0000
54.9000 325.0000 1.0000
54.9100 346.0000 1.0000
54.9200 341.0000 1.0000
54.9300 323.0000 1.0000
54.9400 348.0000 1.0000
54.9500 320.0000 1.0000
54.9600 335.0000 1.0000
54.9700 296.0000 1.0000
54.9800 308.0000 1.0000
54.9900 347.0000 1.0000
55.0000 356.0000 1.0000
55.0100 311.0000 1.0000
55.0200 313.0000 1.0000
55.0300 329.0000 1.0000
55.0400 341.0000 1.0000
55.0500 321.0000 1.0000
55.0600 332.0000 1.0000
55.0700 330.0000 1.0000
55.0800 316.0000 1.0000
55.0900 308.0000 1.0000
55.1000 309.0000 1.0000
55.1100 340.0000 1.0000
55.1200 326.0000 1.0000
55.1300 304.0000 1.0000
55.1400 326.0000 1.0000
55.1500 314.0000 1.0000
55.1600 311.0000 1.0000
55.1700 313.0000 1.0000
55.1800 330.0000 1.0000
55.1900 321.0000 1.0000
55.2000 308.0000 1.0000
55.2100 341.0000 1.0000
55.2200 305.0000 1.0000
55.2300 325.0000 1.0000
55.2400 309.0000 1.0000
55.2500 301.0000 1.0000
55.2600 297.0000 1.0000
55.2700 309.0000 1.0000
55.2800 328.0000 1.0000
55.2900 323.0000 1.0000
55.3000 316.0000 1.0000
55.3100 321.0000 1.0000
55.3200 350.0000 1.0000
55.3300 308.0000 1.0000
55.3400 322.0000 1.0000
55.3500 324.0000 1.0000
55.3600 330.0000 1.0000
55.3700 327.0000 1.0000
55.3800 354.0000 1.0000
55.3900 317.0000 1.0000
55.4000 304.0000 1.0000
55.4100 318.0000 1.0000
55.4200 302.0000 1.0000
55.4300 309.0000 1.0000
55.4400 301.0000 1.0000
55.4500 301.0000 1.0000
55.4600 323.0000 1.0000
55.4700 332.0000 1.0000
55.4800 315.0000 1.0000
55.4900 313.0000 1.0000
55.5000 308.0000 1.0000
55.5100 319.0000 1.0000
55.5200 325.0000 1.0000
55.5300 311.0000 1.0000
55.5400 313.0000 1.0000
55.5500 327.0000 1.0000
55.5600 326.0000 1.0000
55.5700 333.0000 1.0000
55.5800 311.0000 1.0000
55.5900 315.0000 1.0000
55.6000 295.0000 1.0000
55.6100 307.0000 1.0000
55.6200 290.0000 1.0000
55.6300 294.0000 1.0000
55.6400 305.0000 1.0000
55.6500 304.0000 1.0000
55.6600 321.0000 1.0000
55.6700 338.0000 1.0000
55.6800 328.0000 1.0000
55.6900 323.0000 1.0000
55.7000 299.0000 1.0000
55.7100 339.0000 1.0000
55.7200 283.0000 1.0000
55.7300 331.0000 1.0000
55.7400 305.0000 1.0000
55.7500 309.0000 1.0000
55.7600 305.0000 1.0000
55.7700 312.0000 1.0000
55.7800 305.0000 1.0000
55.7900 300.0000 1.0000
55.8000 299.0000 1.0000
55.8100 284.0000 1.0000
55.8200 288.0000 1.0000
55.8300 320.0000 1.0000
55.8400 321.0000 1.0000
55.8500 326.0000 1.0000
55.8600 314.0000 1.0000
55.8700 327.0000 1.0000
55.8800 319.0000 1.0000
55.8900 316.0000 1.0000
55.9000 305.0000 1.0000
55.9100 295.0000 1.0000
55.9200 328.0000 1.0000
55.9300 312.0000 1.0000
55.9400 300.0000 1.0000
55.9500 309.0000 1.0000
55.9600 332.0000 1.0000
55.9700 313.0000 1.0000
55.9800 301.0000 1.0000
55.9900 299.0000 1.0000
56.0000 308.0000 1.0000
56.0100 289.0000 1.0000
56.0200 305.0000 1.0000
56.0300 336.0000 1.0000
56.0400 316.0000 1.0000
56.0500 325.0000 1.0000
56.0600 283.0000 1.0000
56.0700 302.0000 1.0000
56.0800 334.0000 1.0000
56.0900 308.0000 1.0000
56.1000 334.0000 1.0000
56.1100 330.0000 1.0000
56.1200 310.0000 1.0000
56.1300 323.0000 1.0000
56.1400 282.0000 1.0000
56.1500 284.0000 1.0000
56.1600 325.0000 1.0000
56.1700 323.0000 1.0000
56.1800 316.0000 1.0000
56.1900 313.0000 1.0000
56.2000 329.0000 1.0000
56.2100 302.0000 1.0000
56.2200 315.0000 1.0000
56.2300 298.0000 1.0000
56.2400 290.0000 1.0000
56.2500 286.0000 1.0000
56.2600 313.0000 1.0000
56.2700 316.0000 1.0000
56.2800 299.0000 1.0000
56.2900 296.0000 1.0000
56.3000 293.0000 1.0000
56.3100 299.0000 1.0000
56.3200 317.0000 1.0000
56.3300 312.0000 1.0000
56.3400 306.0000 1.0000
56.3500 317.0000 1.0000
56.3600 334.0000 1.0000
56.3700 309.0000 1.0000
56.3800 326.0000 1.0000
56.3900 306.0000 1.0000
56.4000 306.0000 1.0000
56.4100 317.0000 1.0000
56.4200 323.0000 1.0000
56.4300 302.0000 1.0000
56.4400 332.0000 1.0000
56.4500 314.0000 1.0000
56.4600 310.0000 1.0000
56.4700 328.0000 1.0000
56.4800 324.0000 1.0000
56.4900 290.0000 1.0000
56.5000 322.0000 1.0000
56.5100 325.0000 1.0000
56.5200 310.0000 1.0000
56.5300 314.0000 1.0000
56.5400 294.0000 1.0000
56.5500 296.0000 1.0000
56.5600 311.0000 1.0000
56.5700 329.0000 1.0000
56.5800 335.0000 1.0000
56.5900 306.0000 1.0000
56.6000 304.0000 1.0000
56.6100 323.0000 1.0000
56.6200 296.0000 1.0000
56.6300 295.0000 1.0000
56.6400 328.0000 1.0000
56.6500 294.0000 1.0000
56.6600 306.0000 1.0000
56.6700 286.0000 1.0000
56.6800 302.0000 1.0000
56.6900 255.0000 1.0000
56.7000 299.0000 1.0000
56.7100 339.0000 1.0000
56.7200 320.0000 1.0000
56.7300 363.0000 1.0000
56.7400 309.0000 1.0000
56.7500 321.0000 1.0000
56.7600 303.0000 1.0000
56.7700 309.0000 1.0000
56.7800 299.0000 1.0000
56.7900 309.0000 1.0000
56.8000 327.0000 1.0000
56.8100 317.0000 1.0000
56.8200 281.0000 1.0000
56.8300 299.0000 1.0000
56.8400 321.0000 1.0000
56.8500 304.0000 1.0000
56.8600 281.0000 1.0000
56.8700 301.0000 1.0000
56.8800 310.0000 1.0000
56.8900 319.0000 1.0000
56.9000 306.0000 1.0000
56.9100 323.0000 1.0000
56.9200 315.0000 1.0000
56.9300 281.0000 1.0000
56.9400 295.0000 1.0000
56.9500 284.0000 1.0000
56.9600 308.0000 1.0000
56.9700 288.0000 1.0000
56.9800 330.0000 1.0000
56.9900 311.0000 1.0000
57.0000 309.0000 1.0000
57.0100 326.0000 1.0000
57.0200 310.0000 1.0000
57.0300 304.0000 1.0000
57.0400 281.0000 1.0000
57.0500 291.0000 1.0000
57.0600 309.0000 1.0000
57.0700 345.0000 1.0000
57.0800 327.0000 1.0000
57.0900 317.0000 1.0000
57.1000 312.0000 1.0000
57.1100 330.0000 1.0000
57.1200 304.0000 1.0000
57.1300 310.0000 1.0000
57.1400 278.0000 1.0000
57.1500 277.0000 1.0000
57.1600 309.0000 1.0000
57.1700 310.0000 1.0000
57.1800 315.0000 1.0000
57.1900 311.0000 1.0000
57.2000 304.0000 1.0000
57.2100 316.0000 1.0000
57.2200 321.0000 1.0000
57.2300 317.0000 1.0000
57.2400 317.0000 1.0000
57.2500 314.0000 1.0000
57.2600 301.0000 1.0000
57.2700 322.0000 1.0000
57.2800 315.0000 1.0000
57.2900 320.0000 1.0000
57.3000 305.0000 1.0000
57.3100 295.0000 1.0000
57.3200 308.0000 1.0000
57.3300 313.0000 1.0000
57.3400 308.0000 1.0000
57.3500 333.0000 1.0000
57.3600 294.0000 1.0000
57.3700 332.0000 1.0000
57.3800 300.0000 1.0000
57.3900 310.0000 1.0000
57.4000 340.0000 1.0000
57.4100 322.0000 1.0000
57.4200 307.0000 1.0000
57.4300 310.0000 1.0000
57.4400 307.0000 1.0000
57.4500 308.0000 1.0000
57.4600 331.0000 1.0000
57.4700 344.0000 1.0000
57.4800 305.0000 1.0000
57.4900 331.0000 1.0000
57.5000 313.0000 1.0000
57.5100 298.0000 1.0000
57.5200 313.0000 1.0000
57.5300 311.0000 1.0000
57.5400 340.0000 1.0000
57.5500 309.0000 1.0000
57.5600 312.0000 1.0000
57.5700 311.0000 1.0000
57.5800 283.0000 1.0000
57.5900 298.0000 1.0000
57.6000 330.0000 1.0000
57.6100 312.0000 1.0000
57.6200 305.0000 1.0000
57.6300 311.0000 1.0000
57.6400 300.0000 1.0000
57.6500 320.0000 1.0000
57.6600 315.0000 1.0000
57.6700 320.0000 1.0000
57.6800 299.0000 1.0000
57.6900 286.0000 1.0000
57.7000 311.0000 1.0000
57.7100 311.0000 1.0000
57.7200 280.0000 1.0000
57.7300 305.0000 1.0000
57.7400 307.0000 1.0000
57.7500 301.0000 1.0000
57.7600 310.0000 1.0000
57.7700 314.0000 1.0000
57.7800 299.0000 1.0000
57.7900 303.0000 1.0000
57.8000 313.0000 1.0000
57.8100 296.0000 1.0000
57.8200 286.0000 1.0000
57.8300 287.0000 1.0000
57.8400 273.0000 1.0000
57.8500 280.0000 1.0000
57.8600 325.0000 1.0000
57.8700 310.0000 1.0000
57.8800 332.0000 1.0000
57.8900 310.0000 1.0000
57.9000 310.0000 1.0000
57.9100 310.0000 1.0000
57.9200 337.0000 1.0000
57.9300 304.0000 1.0000
57.9400 315.0000 1.0000
57.9500 327.0000 1.0000
57.9600 321.0000 1.0000
57.9700 343.0000 1.0000
57.9800 311.0000 1.0000
57.9900 305.0000 1.0000
58.0000 322.0000 1.0000
58.0100 305.0000 1.0000
58.0200 300.0000 1.0000
58.0300 283.0000 1.0000
58.0400 298.0000 1.0000
58.0500 331.0000 1.0000
58.0600 308.0000 1.0000
58.0700 298.0000 1.0000
58.0800 316.0000 1.0000
58.0900 329.0000 1.0000
58.1000 297.0000 1.0000
58.1100 326.0000 1.0000
58.1200 285.0000 1.0000
58.1300 284.0000 1.0000
58.1400 295.0000 1.0000
58.1500 310.0000 1.0000
58.1600 293.0000 1.0000
58.1700 323.0000 1.0000
58.1800 314.0000 1.0000
58.1900 299.0000 1.0000
58.2000 336.0000 1.0000
58.2100 297.0000 1.0000
58.2200 300.0000 1.0000
58.2300 315.0000 1.0000
58.2400 316.0000 1.0000
58.2500 317.0000 1.0000
58.2600 292.0000 1.0000
58.2700 290.0000 1.0000
58.2800 337.0000 1.0000
58.2900 319.0000 1.0000
58.3000 275.0000 1.0000
58.3100 326.0000 1.0000
58.3200 300.0000 1.0000
58.3300 304.0000 1.0000
58.3400 288.0000 1.0000
58.3500 300.0000 1.0000
58.3600 319.0000 1.0000
58.3700 336.0000 1.0000
58.3800 287.0000 1.0000
58.3900 319.0000 1.0000
58.4000 288.0000 1.0000
58.4100 298.0000 1.0000
58.4200 292.0000 1.0000
58.4300 288.0000 1.0000
58.4400 306.0000 1.0000
58.4500 297.0000 1.0000
58.4600 311.0000 1.0000
58.4700 321.0000 1.0000
58.4800 309.0000 1.0000
58.4900 313.0000 1.0000
58.5000 295.0000 1.0000
58.5100 293.0000 1.0000
58.5200 301.0000 1.0000
58.5300 312.0000 1.0000
58.5400 277.0000 1.0000
58.5500 333.0000 1.0000
58.5600 339.0000 1.0000
58.5700 320.0000 1.0000
58.5800 323.0000 1.0000
58.5900 311.0000 1.0000
58.6000 294.0000 1.0000
58.6100 328.0000 1.0000
58.6200 299.0000 1.0000
58.6300 323.0000 1.0000
58.6400 311.0000 1.0000
58.6500 299.0000 1.0000
58.6600 274.0000 1.0000
58.6700 291.0000 1.0000
58.6800 294.0000 1.0000
58.6900 313.0000 1.0000
58.7000 324.0000 1.0000
58.7100 296.0000 1.0000
58.7200 317.0000 1.0000
58.7300 294.0000 1.0000
58.7400 320.0000 1.0000
58.7500 302.0000 1.0000
58.7600 295.0000 1.0000
58.7700 297.0000 1.0000
58.7800 348.0000 1.0000
58.7900 310.0000 1.0000
58.8000 295.0000 1.0000
58.8100 304.0000 1.0000
58.8200 307.0000 1.0000
58.8300 311.0000 1.0000
58.8400 305.0000 1.0000
58.8500 322.0000 1.0000
58.8600 309.0000 1.0000
58.8700 306.0000 1.0000
58.8800 287.0000 1.0000
58.8900 313.0000 1.0000
58.9000 313.0000 1.0000
58.9100 313.0000 1.0000
58.9200 306.0000 1.0000
58.9300 300.0000 1.0000
58.9400 325.0000 1.0000
58.9500 301.0000 1.0000
58.9600 296.0000 1.0000
58.9700 268.0000 1.0000
58.9800 289.0000 1.0000
58.9900 292.0000 1.0000
59.0000 293.0000 1.0000
59.0100 295.0000 1.0000
59.0200 292.0000 1.0000
59.0300 328.0000 1.0000
59.0400 319.0000 1.0000
59.0500 294.0000 1.0000
59.0600 318.0000 1.0000
59.0700 324.0000 1.0000
59.0800 324.0000 1.0000
59.0900 304.0000 1.0000
59.1000 320.0000 1.0000
59.1100 288.0000 1.0000
59.1200 280.0000 1.0000
59.1300 308.0000 1.0000
59.1400 314.0000 1.0000
59.1500 260.0000 1.0000
59.1600 324.0000 1.0000
59.1700 297.0000 1.0000
59.1800 310.0000 1.0000
59.1900 283.0000 1.0000
59.2000 326.0000 1.0000
59.2100 308.0000 1.0000
59.2200 296.0000 1.0000
59.2300 297.0000 1.0000
59.2400 292.0000 1.0000
59.2500 298.0000 1.0000
59.2600 280.0000 1.0000
59.2700 306.0000 1.0000
59.2800 289.0000 1.0000
59.2900 311.0000 1.0000
59.3000 351.0000 1.0000
59.3100 304.0000 1.0000
59.3200 298.0000 1.0000
59.3300 302.0000 1.0000
59.3400 297.0000 1.0000
59.3500 296.0000 1.0000
59.3600 291.0000 1.0000
59.3700 321.0000 1.0000
59.3800 329.0000 1.0000
59.3900 292.0000 1.0000
59.4000 313.0000 1.0000
59.4100 297.0000 1.0000
59.4200 318.0000 1.0000
59.4300 334.0000 1.0000
59.4400 296.0000 1.0000
59.4500 311.0000 1.0000
59.4600 312.0000 1.0000
59.4700 281.0000 1.0000
59.4800 270.0000 1.0000
59.4900 284.0000 1.0000
59.5000 292.0000 1.0000
59.5100 294.0000 1.0000
59.5200 311.0000 1.0000
59.5300 301.0000 1.0000
59.5400 308.0000 1.0000
59.5500 315.0000 1.0000
59.5600 321.0000 1.0000
59.5700 294.0000 1.0000
59.5800 296.0000 1.0000
59.5900 312.0000 1.0000
59.6000 281.0000 1.0000
59.6100 307.0000 1.0000
59.6200 296.0000 1.0000
59.6300 278.0000 1.0000
59.6400 312.0000 1.0000
59.6500 288.0000 1.0000
59.6600 299.0000 1.0000
59.6700 304.0000 1.0000
59.6800 306.0000 1.0000
59.6900 319.0000 1.0000
59.7000 321.0000 1.0000
59.7100 304.0000 1.0000
59.7200 302.0000 1.0000
59.7300 261.0000 1.0000
59.7400 309.0000 1.0000
59.7500 315.0000 1.0000
59.7600 287.0000 1.0000
59.7700 304.0000 1.0000
59.7800 282.0000 1.0000
59.7900 319.0000 1.0000
59.8000 307.0000 1.0000
59.8100 321.0000 1.0000
59.8200 298.0000 1.0000
59.8300 287.0000 1.0000
59.8400 302.0000 1.0000
59.8500 308.0000 1.0000
59.8600 311.0000 1.0000
59.8700 295.0000 1.0000
59.8800 284.0000 1.0000
59.8900 297.0000 1.0000
59.9000 300.0000 1.0000
59.9100 313.0000 1.0000
59.9200 345.0000 1.0000
59.9300 282.0000 1.0000
59.9400 318.0000 1.0000
59.9500 270.0000 1.0000
59.9600 312.0000 1.0000
59.9700 306.0000 1.0000
59.9800 312.0000 1.0000
59.9900 297.0000 1.0000
60.0000 272.0000 1.0000
60.0100 310.0000 1.0000
60.0200 277.0000 1.0000
60.0300 313.0000 1.0000
60.0400 324.0000 1.0000
60.0500 316.0000 1.0000
60.0600 300.0000 1.0000
60.0700 299.0000 1.0000
60.0800 304.0000 1.0000
60.0900 310.0000 1.0000
60.1000 325.0000 1.0000
60.1100 300.0000 1.0000
60.1200 288.0000 1.0000
60.1300 327.0000 1.0000
60.1400 317.0000 1.0000
60.1500 314.0000 1.0000
60.1600 321.0000 1.0000
60.1700 283.0000 1.0000
60.1800 303.0000 1.0000
60.1900 279.0000 1.0000
60.2000 285.0000 1.0000
60.2100 325.0000 1.0000
60.2200 317.0000 1.0000
60.2300 302.0000 1.0000
60.2400 302.0000 1.0000
60.2500 304.0000 1.0000
60.2600 310.0000 1.0000
60.2700 329.0000 1.0000
60.2800 323.0000 1.0000
60.2900 328.0000 1.0000
60.3000 322.0000 1.0000
60.3100 320.0000 1.0000
60.3200 299.0000 1.0000
60.3300 317.0000 1.0000
60.3400 310.0000 1.0000
60.3500 314.0000 1.0000
60.3600 347.0000 1.0000
60.3700 300.0000 1.0000
60.3800 306.0000 1.0000
60.3900 308.0000 1.0000
60.4000 288.0000 1.0000
60.4100 314.0000 1.0000
60.4200 294.0000 1.0000
60.4300 320.0000 1.0000
60.4400 289.0000 1.0000
60.4500 305.0000 1.0000
60.4600 302.0000 1.0000
60.4700 296.0000 1.0000
60.4800 322.0000 1.0000
60.4900 303.0000 1.0000
60.5000 289.0000 1.0000
60.5100 307.0000 1.0000
60.5200 311.0000 1.0000
60.5300 307.0000 1.0000
60.5400 297.0000 1.0000
60.5500 317.0000 1.0000
60.5600 308.0000 1.0000
60.5700 301.0000 1.0000
60.5800 306.0000 1.0000
60.5900 306.0000 1.0000
60.6000 314.0000 1.0000
60.6100 338.0000 1.0000
60.6200 290.0000 1.0000
60.6300 290.0000 1.0000
60.6400 318.0000 1.0000
60.6500 326.0000 1.0000
60.6600 315.0000 1.0000
60.6700 318.0000 1.0000
60.6800 305.0000 1.0000
60.6900 289.0000 1.0000
60.7000 313.0000 1.0000
60.7100 304.0000 1.0000
60.7200 303.0000 1.0000
60.7300 338.0000 1.0000
60.7400 308.0000 1.0000
60.7500 337.0000 1.0000
60.7600 308.0000 1.0000
60.7700 284.0000 1.0000
60.7800 294.0000 1.0000
60.7900 294.0000 1.0000
60.8000 265.0000 1.0000
60.8100 307.0000 1.0000
60.8200 337.0000 1.0000
60.8300 328.0000 1.0000
60.8400 322.0000 1.0000
60.8500 312.0000 1.0000
60.8600 278.0000 1.0000
60.8700 298.0000 1.0000
60.8800 314.0000 1.0000
60.8900 301.0000 1.0000
60.9000 311.0000 1.0000
60.9100 318.0000 1.0000
60.9200 318.0000 1.0000
60.9300 338.0000 1.0000
60.9400 329.0000 1.0000
60.9500 316.0000 1.0000
60.9600 318.0000 1.0000
60.9700 324.0000 1.0000
60.9800 349.0000 1.0000
60.9900 342.0000 1.0000
61.0000 335.0000 1.0000
61.0100 364.0000 1.0000
61.0200 356.0000 1.0000
61.0300 341.0000 1.0000
61.0400 333.0000 1.0000
61.0500 320.0000 1.0000
61.0600 308.0000 1.0000
61.0700 339.0000 1.0000
61.0800 359.0000 1.0000
61.0900 338.0000 1.0000
61.1000 349.0000 1.0000
61.1100 351.0000 1.0000
61.1200 329.0000 1.0000
61.1300 329.0000 1.0000
61.1400 335.0000 1.0000
61.1500 332.0000 1.0000
61.1600 359.0000 1.0000
61.1700 375.0000 1.0000
61.1800 361.0000 1.0000
61.1900 381.0000 1.0000
61.2000 373.0000 1.0000
61.2100 366.0000 1.0000
61.2200 366.0000 1.0000
61.2300 356.0000 1.0000
61.2400 406.0000 1.0000
61.2500 381.0000 1.0000
61.2600 398.0000 1.0000
61.2700 406.0000 1.0000
61.2800 436.0000 1.0000
61.2900 424.0000 1.0000
61.3000 408.0000 1.0000
61.3100 421.0000 1.0000
61.3200 454.0000 1.0000
61.3300 454.0000 1.0000
61.3400 459.0000 1.0000
61.3500 486.0000 1.0000
61.3600 482.0000 1.0000
61.3700 511.0000 1.0000
61.3800 531.0000 1.0000
61.3900 540.0000 1.0000
61.4000 533.0000 1.0000
61.4100 539.0000 1.0000
61.4200 595.0000 1.0000
61.4300 587.0000 1.0000
61.4400 538.0000 1.0000
61.4500 614.0000 1.0000
61.4600 603.0000 1.0000
61.4700 633.0000 1.0000
61.4800 616.0000 1.0000
61.4900 590.0000 1.0000
61.5000 614.0000 1.0000
61.5100 642.0000 1.0000
61.5200 645.0000 1.0000
61.5300 667.0000 1.0000
61.5400 667.0000 1.0000
61.5500 625.0000 1.0000
61.5600 621.0000 1.0000
61.5700 648.0000 1.0000
61.5800 636.0000 1.0000
61.5900 638.0000 1.0000
61.6000 659.0000 1.0000
61.6100 660.0000 1.0000
61.6200 648.0000 1.0000
61.6300 619.0000 1.0000
61.6400 628.0000 1.0000
61.6500 575.0000 1.0000
61.6600 589.0000 1.0000
61.6700 571.0000 1.0000
61.6800 598.0000 1.0000
61.6900 605.0000 1.0000
61.7000 566.0000 1.0000
61.7100 583.0000 1.0000
61.7200 534.0000 1.0000
61.7300 527.0000 1.0000
61.7400 509.0000 1.0000
61.7500 518.0000 1.0000
61.7600 486.0000 1.0000
61.7700 484.0000 1.0000
61.7800 499.0000 1.0000
61.7900 453.0000 1.0000
61.8000 470.0000 1.0000
61.8100 451.0000 1.0000
61.8200 442.0000 1.0000
61.8300 436.0000 1.0000
61.8400 449.0000 1.0000
61.8500 448.0000 1.0000
61.8600 409.0000 1.0000
61.8700 437.0000 1.0000
61.8800 400.0000 1.0000
61.8900 380.0000 1.0000
61.9000 392.0000 1.0000
61.9100 398.0000 1.0000
61.9200 392.0000 1.0000
61.9300 389.0000 1.0000
61.9400 370.0000 1.0000
61.9500 398.0000 1.0000
61.9600 346.0000 1.0000
61.9700 387.0000 1.0000
61.9800 389.0000 1.0000
61.9900 390.0000 1.0000
62.0000 403.0000 1.0000
62.0100 333.0000 1.0000
62.0200 334.0000 1.0000
62.0300 354.0000 1.0000
62.0400 346.0000 1.0000
62.0500 328.0000 1.0000
62.0600 326.0000 1.0000
62.0700 359.0000 1.0000
62.0800 356.0000 1.0000
62.0900 352.0000 1.0000
62.1000 326.0000 1.0000
62.1100 350.0000 1.0000
62.1200 350.0000 1.0000
62.1300 340.0000 1.0000
62.1400 320.0000 1.0000
62.1500 331.0000 1.0000
62.1600 324.0000 1.0000
62.1700 357.0000 1.0000
62.1800 355.0000 1.0000
62.1900 319.0000 1.0000
62.2000 354.0000 1.0000
62.2100 340.0000 1.0000
62.2200 328.0000 1.0000
62.2300 335.0000 1.0000
62.2400 315.0000 1.0000
62.2500 342.0000 1.0000
62.2600 355.0000 1.0000
62.2700 326.0000 1.0000
62.2800 310.0000 1.0000
62.2900 351.0000 1.0000
62.3000 340.0000 1.0000
62.3100 333.0000 1.0000
62.3200 344.0000 1.0000
62.3300 333.0000 1.0000
62.3400 355.0000 1.0000
62.3500 328.0000 1.0000
62.3600 297.0000 1.0000
62.3700 327.0000 1.0000
62.3800 323.0000 1.0000
62.3900 345.0000 1.0000
62.4000 338.0000 1.0000
62.4100 315.0000 1.0000
62.4200 333.0000 1.0000
62.4300 319.0000 1.0000
62.4400 329.0000 1.0000
62.4500 346.0000 1.0000
62.4600 324.0000 1.0000
62.4700 359.0000 1.0000
62.4800 340.0000 1.0000
62.4900 311.0000 1.0000
62.5000 307.0000 1.0000
62.5100 324.0000 1.0000
62.5200 336.0000 1.0000
62.5300 314.0000 1.0000
62.5400 351.0000 1.0000
62.5500 324.0000 1.0000
62.5600 314.0000 1.0000
62.5700 314.0000 1.0000
62.5800 330.0000 1.0000
62.5900 337.0000 1.0000
62.6000 294.0000 1.0000
62.6100 321.0000 1.0000
62.6200 320.0000 1.0000
62.6300 309.0000 1.0000
62.6400 299.0000 1.0000
62.6500 329.0000 1.0000
62.6600 297.0000 1.0000
62.6700 315.0000 1.0000
62.6800 295.0000 1.0000
62.6900 307.0000 1.0000
62.7000 297.0000 1.0000
62.7100 305.0000 1.0000
62.7200 317.0000 1.0000
62.7300 340.0000 1.0000
62.7400 304.0000 1.0000
62.7500 306.0000 1.0000
62.7600 312.0000 1.0000
62.7700 318.0000 1.0000
62.7800 301.0000 1.0000
62.7900 301.0000 1.0000
62.8000 327.0000 1.0000
62.8100 294.0000 1.0000
62.8200 295.0000 1.0000
62.8300 301.0000 1.0000
62.8400 325.0000 1.0000
62.8500 299.0000 1.0000
62.8600 303.0000 1.0000
62.8700 310.0000 1.0000
62.8800 292.0000 1.0000
62.8900 302.0000 1.0000
62.9000 302.0000 1.0000
62.9100 303.0000 1.0000
62.9200 318.0000 1.0000
62.9300 309.0000 1.0000
62.9400 307.0000 1.0000
62.9500 312.0000 1.0000
62.9600 312.0000 1.0000
62.9700 304.0000 1.0000
62.9800 291.0000 1.0000
62.9900 304.0000 1.0000
63.0000 301.0000 1.0000
63.0100 300.0000 1.0000
63.0200 275.0000 1.0000
63.0300 334.0000 1.0000
63.0400 330.0000 1.0000
63.0500 298.0000 1.0000
63.0600 302.0000 1.0000
63.0700 292.0000 1.0000
63.0800 299.0000 1.0000
63.0900 302.0000 1.0000
63.1000 319.0000 1.0000
63.1100 307.0000 1.0000
63.1200 290.0000 1.0000
63.1300 303.0000 1.0000
63.1400 299.0000 1.0000
63.1500 316.0000 1.0000
63.1600 319.0000 1.0000
63.1700 310.0000 1.0000
63.1800 327.0000 1.0000
63.1900 309.0000 1.0000
63.2000 311.0000 1.0000
63.2100 326.0000 1.0000
63.2200 298.0000 1.0000
63.2300 301.0000 1.0000
63.2400 320.0000 1.0000
63.2500 305.0000 1.0000
63.2600 291.0000 1.0000
63.2700 306.0000 1.0000
63.2800 332.0000 1.0000
63.2900 315.0000 1.0000
63.3000 307.0000 1.0000
63.3100 307.0000 1.0000
63.3200 310.0000 1.0000
63.3300 321.0000 1.0000
63.3400 287.0000 1.0000
63.3500 304.0000 1.0000
63.3600 295.0000 1.0000
63.3700 328.0000 1.0000
63.3800 300.0000 1.0000
63.3900 307.0000 1.0000
63.4000 317.0000 1.0000
63.4100 331.0000 1.0000
63.4200 333.0000 1.0000
63.4300 326.0000 1.0000
63.4400 321.0000 1.0000
63.4500 315.0000 1.0000
63.4600 310.0000 1.0000
63.4700 299.0000 1.0000
63.4800 324.0000 1.0000
63.4900 305.0000 1.0000
63.5000 318.0000 1.0000
63.5100 307.0000 1.0000
63.5200 316.0000 1.0000
63.5300 343.0000 1.0000
63.5400 315.0000 1.0000
63.5500 324.0000 1.0000
63.5600 326.0000 1.0000
63.5700 318.0000 1.0000
63.5800 319.0000 1.0000
63.5900 325.0000 1.0000
63.6000 315.0000 1.0000
63.6100 349.0000 1.0000
63.6200 327.0000 1.0000
63.6300 356.0000 1.0000
63.6400 301.0000 1.0000
63.6500 331.0000 1.0000
63.6600 344.0000 1.0000
63.6700 326.0000 1.0000
63.6800 329.0000 1.0000
63.6900 351.0000 1.0000
63.7000 347.0000 1.0000
63.7100 372.0000 1.0000
63.7200 361.0000 1.0000
63.7300 354.0000 1.0000
63.7400 341.0000 1.0000
63.7500 337.0000 1.0000
63.7600 353.0000 1.0000
63.7700 362.0000 1.0000
63.7800 357.0000 1.0000
63.7900 336.0000 1.0000
63.8000 379.0000 1.0000
63.8100 372.0000 1.0000
63.8200 402.0000 1.0000
63.8300 377.0000 1.0000
63.8400 353.0000 1.0000
63.8500 371.0000 1.0000
63.8600 375.0000 1.0000
63.8700 384.0000 1.0000
63.8800 369.0000 1.0000
63.8900 383.0000 1.0000
63.9000 383.0000 1.0000
63.9100 389.0000 1.0000
63.9200 400.0000 1.0000
63.9300 396.0000 1.0000
63.9400 422.0000 1.0000
63.9500 383.0000 1.0000
63.9600 388.0000 1.0000
63.9700 385.0000 1.0000
63.9800 392.0000 1.0000
63.9900 378.0000 1.0000
64.0000 389.0000 1.0000
64.0100 348.0000 1.0000
64.0200 340.0000 1.0000
64.0300 375.0000 1.0000
64.0400 410.0000 1.0000
64.0500 401.0000 1.0000
64.0600 380.0000 1.0000
64.0700 362.0000 1.0000
64.0800 382.0000 1.0000
64.0900 375.0000 1.0000
64.1000 375.0000 1.0000
64.1100 363.0000 1.0000
64.1200 372.0000 1.0000
64.1300 356.0000 1.0000
64.1400 360.0000 1.0000
64.1500 377.0000 1.0000
64.1600 377.0000 1.0000
64.1700 395.0000 1.0000
64.1800 382.0000 1.0000
64.1900 364.0000 1.0000
64.2000 405.0000 1.0000
64.2100 357.0000 1.0000
64.2200 361.0000 1.0000
64.2300 351.0000 1.0000
64.2400 374.0000 1.0000
64.2500 372.0000 1.0000
64.2600 355.0000 1.0000
64.2700 346.0000 1.0000
64.2800 347.0000 1.0000
64.2900 364.0000 1.0000
64.3000 326.0000 1.0000
64.3100 328.0000 1.0000
64.3200 359.0000 1.0000
64.3300 336.0000 1.0000
64.3400 308.0000 1.0000
64.3500 319.0000 1.0000
64.3600 330.0000 1.0000
64.3700 321.0000 1.0000
64.3800 332.0000 1.0000
64.3900 343.0000 1.0000
64.4000 340.0000 1.0000
64.4100 328.0000 1.0000
64.4200 328.0000 1.0000
64.4300 332.0000 1.0000
64.4400 336.0000 1.0000
64.4500 356.0000 1.0000
64.4600 321.0000 1.0000
64.4700 310.0000 1.0000
64.4800 306.0000 1.0000
64.4900 326.0000 1.0000
64.5000 337.0000 1.0000
64.5100 337.0000 1.0000
64.5200 324.0000 1.0000
64.5300 338.0000 1.0000
64.5400 328.0000 1.0000
64.5500 326.0000 1.0000
64.5600 328.0000 1.0000
64.5700 284.0000 1.0000
64.5800 310.0000 1.0000
64.5900 308.0000 1.0000
64.6000 317.0000 1.0000
64.6100 334.0000 1.0000
64.6200 322.0000 1.0000
64.6300 301.0000 1.0000
64.6400 316.0000 1.0000
64.6500 307.0000 1.0000
64.6600 325.0000 1.0000
64.6700 333.0000 1.0000
64.6800 293.0000 1.0000
64.6900 311.0000 1.0000
64.7000 278.0000 1.0000
64.7100 307.0000 1.0000
64.7200 325.0000 1.0000
64.7300 329.0000 1.0000
64.7400 314.0000 1.0000
64.7500 315.0000 1.0000
64.7600 313.0000 1.0000
64.7700 312.0000 1.0000
64.7800 332.0000 1.0000
64.7900 340.0000 1.0000
64.8000 341.0000 1.0000
64.8100 315.0000 1.0000
64.8200 308.0000 1.0000
64.8300 349.0000 1.0000
64.8400 291.0000 1.0000
64.8500 328.0000 1.0000
64.8600 307.0000 1.0000
64.8700 304.0000 1.0000
64.8800 321.0000 1.0000
64.8900 326.0000 1.0000
64.9000 320.0000 1.0000
64.9100 327.0000 1.0000
64.9200 314.0000 1.0000
64.9300 361.0000 1.0000
64.9400 333.0000 1.0000
64.9500 352.0000 1.0000
64.9600 352.0000 1.0000
64.9700 334.0000 1.0000
64.9800 362.0000 1.0000
64.9900 304.0000 1.0000
65.0000 344.0000 1.0000
65.0100 341.0000 1.0000
65.0200 354.0000 1.0000
65.0300 338.0000 1.0000
65.0400 342.0000 1.0000
65.0500 355.0000 1.0000
65.0600 361.0000 1.0000
65.0700 329.0000 1.0000
65.0800 374.0000 1.0000
65.0900 355.0000 1.0000
65.1000 341.0000 1.0000
65.1100 347.0000 1.0000
65.1200 339.0000 1.0000
65.1300 353.0000 1.0000
65.1400 365.0000 1.0000
65.1500 373.0000 1.0000
65.1600 355.0000 1.0000
65.1700 376.0000 1.0000
65.1800 365.0000 1.0000
65.1900 393.0000 1.0000
65.2000 398.0000 1.0000
65.2100 407.0000 1.0000
65.2200 410.0000 1.0000
65.2300 432.0000 1.0000
65.2400 475.0000 1.0000
65.2500 469.0000 1.0000
65.2600 469.0000 1.0000
65.2700 465.0000 1.0000
65.2800 452.0000 1.0000
65.2900 519.0000 1.0000
65.3000 521.0000 1.0000
65.3100 532.0000 1.0000
65.3200 548.0000 1.0000
65.3300 585.0000 1.0000
65.3400 573.0000 1.0000
65.3500 604.0000 1.0000
65.3600 662.0000 1.0000
65.3700 679.0000 1.0000
65.3800 724.0000 1.0000
65.3900 694.0000 1.0000
65.4000 762.0000 1.0000
65.4100 761.0000 1.0000
65.4200 806.0000 1.0000
65.4300 838.0000 1.0000
65.4400 898.0000 1.0000
65.4500 930.0000 1.0000
65.4600 926.0000 1.0000
65.4700 941.0000 1.0000
65.4800 973.0000 1.0000
65.4900 1042.0000 1.0000
65.5000 1024.0000 1.0000
65.5100 1047.0000 1.0000
65.5200 1137.0000 1.0000
65.5300 1082.0000 1.0000
65.5400 1105.0000 1.0000
65.5500 1132.0000 1.0000
65.5600 1120.0000 1.0000
65.5700 1125.0000 1.0000
65.5800 1085.0000 1.0000
65.5900 1058.0000 1.0000
65.6000 1062.0000 1.0000
65.6100 991.0000 1.0000
65.6200 1022.0000 1.0000
65.6300 958.0000 1.0000
65.6400 921.0000 1.0000
65.6500 892.0000 1.0000
65.6600 856.0000 1.0000
65.6700 883.0000 1.0000
65.6800 868.0000 1.0000
65.6900 887.0000 1.0000
65.7000 827.0000 1.0000
65.7100 801.0000 1.0000
65.7200 847.0000 1.0000
65.7300 834.0000 1.0000
65.7400 798.0000 1.0000
65.7500 716.0000 1.0000
65.7600 737.0000 1.0000
65.7700 685.0000 1.0000
65.7800 653.0000 1.0000
65.7900 626.0000 1.0000
65.8000 607.0000 1.0000
65.8100 633.0000 1.0000
65.8200 539.0000 1.0000
65.8300 527.0000 1.0000
65.8400 558.0000 1.0000
65.8500 521.0000 1.0000
65.8600 472.0000 1.0000
65.8700 463.0000 1.0000
65.8800 444.0000 1.0000
65.8900 450.0000 1.0000
65.9000 425.0000 1.0000
65.9100 423.0000 1.0000
65.9200 422.0000 1.0000
65.9300 410.0000 1.0000
65.9400 416.0000 1.0000
65.9500 406.0000 1.0000
65.9600 406.0000 1.0000
65.9700 415.0000 1.0000
65.9800 425.0000 1.0000
65.9900 392.0000 1.0000
66.0000 363.0000 1.0000
66.0100 390.0000 1.0000
66.0200 378.0000 1.0000
66.0300 377.0000 1.0000
66.0400 338.0000 1.0000
66.0500 344.0000 1.0000
66.0600 343.0000 1.0000
66.0700 356.0000 1.0000
66.0800 354.0000 1.0000
66.0900 318.0000 1.0000
66.1000 356.0000 1.0000
66.1100 328.0000 1.0000
66.1200 340.0000 1.0000
66.1300 330.0000 1.0000
66.1400 326.0000 1.0000
66.1500 319.0000 1.0000
66.1600 352.0000 1.0000
66.1700 330.0000 1.0000
66.1800 291.0000 1.0000
66.1900 299.0000 1.0000
66.2000 320.0000 1.0000
66.2100 312.0000 1.0000
66.2200 323.0000 1.0000
66.2300 341.0000 1.0000
66.2400 304.0000 1.0000
66.2500 315.0000 1.0000
66.2600 294.0000 1.0000
66.2700 286.0000 1.0000
66.2800 311.0000 1.0000
66.2900 322.0000 1.0000
66.3000 277.0000 1.0000
66.3100 299.0000 1.0000
66.3200 294.0000 1.0000
66.3300 276.0000 1.0000
66.3400 302.0000 1.0000
66.3500 293.0000 1.0000
66.3600 296.0000 1.0000
66.3700 315.0000 1.0000
66.3800 287.0000 1.0000
66.3900 299.0000 1.0000
66.4000 286.0000 1.0000
66.4100 298.0000 1.0000
66.4200 296.0000 1.0000
66.4300 284.0000 1.0000
66.4400 304.0000 1.0000
66.4500 310.0000 1.0000
66.4600 313.0000 1.0000
66.4700 289.0000 1.0000
66.4800 265.0000 1.0000
66.4900 299.0000 1.0000
66.5000 300.0000 1.0000
66.5100 319.0000 1.0000
66.5200 297.0000 1.0000
66.5300 293.0000 1.0000
66.5400 297.0000 1.0000
66.5500 323.0000 1.0000
66.5600 292.0000 1.0000
66.5700 294.0000 1.0000
66.5800 286.0000 1.0000
66.5900 279.0000 1.0000
66.6000 281.0000 1.0000
66.6100 291.0000 1.0000
66.6200 278.0000 1.0000
66.6300 275.0000 1.0000
66.6400 272.0000 1.0000
66.6500 305.0000 1.0000
66.6600 294.0000 1.0000
66.6700 292.0000 1.0000
66.6800 274.0000 1.0000
66.6900 292.0000 1.0000
66.7000 266.0000 1.0000
66.7100 283.0000 1.0000
66.7200 296.0000 1.0000
66.7300 284.0000 1.0000
66.7400 294.0000 1.0000
66.7500 291.0000 1.0000
66.7600 317.0000 1.0000
66.7700 327.0000 1.0000
66.7800 279.0000 1.0000
66.7900 299.0000 1.0000
66.8000 274.0000 1.0000
66.8100 289.0000 1.0000
66.8200 286.0000 1.0000
66.8300 267.0000 1.0000
66.8400 260.0000 1.0000
66.8500 280.0000 1.0000
66.8600 274.0000 1.0000
66.8700 268.0000 1.0000
66.8800 284.0000 1.0000
66.8900 286.0000 1.0000
66.9000 281.0000 1.0000
66.9100 286.0000 1.0000
66.9200 284.0000 1.0000
66.9300 277.0000 1.0000
66.9400 296.0000 1.0000
66.9500 287.0000 1.0000
66.9600 281.0000 1.0000
66.9700 274.0000 1.0000
66.9800 281.0000 1.0000
66.9900 261.0000 1.0000
67.0000 294.0000 1.0000
67.0100 288.0000 1.0000
67.0200 308.0000 1.0000
67.0300 286.0000 1.0000
67.0400 284.0000 1.0000
67.0500 297.0000 1.0000
67.0600 268.0000 1.0000
67.0700 270.0000 1.0000
67.0800 268.0000 1.0000
67.0900 273.0000 1.0000
67.1000 265.0000 1.0000
67.1100 265.0000 1.0000
67.1200 270.0000 1.0000
67.1300 260.0000 1.0000
67.1400 267.0000 1.0000
67.1500 270.0000 1.0000
67.1600 278.0000 1.0000
67.1700 303.0000 1.0000
67.1800 272.0000 1.0000
67.1900 268.0000 1.0000
67.2000 276.0000 1.0000
67.2100 280.0000 1.0000
67.2200 270.0000 1.0000
67.2300 260.0000 1.0000
67.2400 270.0000 1.0000
67.2500 280.0000 1.0000
67.2600 309.0000 1.0000
67.2700 268.0000 1.0000
67.2800 274.0000 1.0000
67.2900 260.0000 1.0000
67.3000 270.0000 1.0000
67.3100 289.0000 1.0000
67.3200 250.0000 1.0000
67.3300 260.0000 1.0000
67.3400 262.0000 1.0000
67.3500 260.0000 1.0000
67.3600 273.0000 1.0000
67.3700 294.0000 1.0000
67.3800 265.0000 1.0000
67.3900 278.0000 1.0000
67.4000 266.0000 1.0000
67.4100 288.0000 1.0000
67.4200 278.0000 1.0000
67.4300 284.0000 1.0000
67.4400 267.0000 1.0000
67.4500 279.0000 1.0000
67.4600 289.0000 1.0000
67.4700 287.0000 1.0000
67.4800 275.0000 1.0000
67.4900 276.0000 1.0000
67.5000 289.0000 1.0000
67.5100 260.0000 1.0000
67.5200 287.0000 1.0000
67.5300 266.0000 1.0000
67.5400 294.0000 1.0000
67.5500 279.0000 1.0000
67.5600 286.0000 1.0000
67.5700 299.0000 1.0000
67.5800 284.0000 1.0000
67.5900 284.0000 1.0000
67.6000 275.0000 1.0000
67.6100 278.0000 1.0000
67.6200 278.0000 1.0000
67.6300 249.0000 1.0000
67.6400 288.0000 1.0000
67.6500 270.0000 1.0000
67.6600 280.0000 1.0000
67.6700 301.0000 1.0000
67.6800 282.0000 1.0000
67.6900 255.0000 1.0000
67.7000 240.0000 1.0000
67.7100 265.0000 1.0000
67.7200 287.0000 1.0000
67.7300 258.0000 1.0000
67.7400 280.0000 1.0000
67.7500 279.0000 1.0000
67.7600 246.0000 1.0000
67.7700 253.0000 1.0000
67.7800 296.0000 1.0000
67.7900 273.0000 1.0000
67.8000 266.0000 1.0000
67.8100 271.0000 1.0000
67.8200 280.0000 1.0000
67.8300 286.0000 1.0000
67.8400 283.0000 1.0000
67.8500 285.0000 1.0000
67.8600 289.0000 1.0000
67.8700 281.0000 1.0000
67.8800 276.0000 1.0000
67.8900 277.0000 1.0000
67.9000 282.0000 1.0000
67.9100 291.0000 1.0000
67.9200 266.0000 1.0000
67.9300 286.0000 1.0000
67.9400 257.0000 1.0000
67.9500 282.0000 1.0000
67.9600 275.0000 1.0000
67.9700 274.0000 1.0000
67.9800 270.0000 1.0000
67.9900 257.0000 1.0000
68.0000 265.0000 1.0000
68.0100 252.0000 1.0000
68.0200 254.0000 1.0000
68.0300 267.0000 1.0000
68.0400 272.0000 1.0000
68.0500 270.0000 1.0000
68.0600 259.0000 1.0000
68.0700 265.0000 1.0000
68.0800 258.0000 1.0000
68.0900 273.0000 1.0000
68.1000 300.0000 1.0000
68.1100 285.0000 1.0000
68.1200 257.0000 1.0000
68.1300 273.0000 1.0000
68.1400 284.0000 1.0000
68.1500 271.0000 1.0000
68.1600 281.0000 1.0000
68.1700 263.0000 1.0000
68.1800 280.0000 1.0000
68.1900 279.0000 1.0000
68.2000 263.0000 1.0000
68.2100 283.0000 1.0000
68.2200 286.0000 1.0000
68.2300 297.0000 1.0000
68.2400 280.0000 1.0000
68.2500 273.0000 1.0000
68.2600 265.0000 1.0000
68.2700 255.0000 1.0000
68.2800 280.0000 1.0000
68.2900 275.0000 1.0000
68.3000 318.0000 1.0000
68.3100 269.0000 1.0000
68.3200 302.0000 1.0000
68.3300 281.0000 1.0000
68.3400 276.0000 1.0000
68.3500 281.0000 1.0000
68.3600 281.0000 1.0000
68.3700 281.0000 1.0000
68.3800 277.0000 1.0000
68.3900 276.0000 1.0000
68.4000 281.0000 1.0000
68.4100 247.0000 1.0000
68.4200 273.0000 1.0000
68.4300 243.0000 1.0000
68.4400 265.0000 1.0000
68.4500 263.0000 1.0000
68.4600 267.0000 1.0000
68.4700 275.0000 1.0000
68.4800 264.0000 1.0000
68.4900 259.0000 1.0000
68.5000 241.0000 1.0000
68.5100 288.0000 1.0000
68.5200 272.0000 1.0000
68.5300 251.0000 1.0000
68.5400 273.0000 1.0000
68.5500 261.0000 1.0000
68.5600 280.0000 1.0000
68.5700 249.0000 1.0000
68.5800 250.0000 1.0000
68.5900 258.0000 1.0000
68.6000 243.0000 1.0000
68.6100 276.0000 1.0000
68.6200 270.0000 1.0000
68.6300 283.0000 1.0000
68.6400 272.0000 1.0000
68.6500 288.0000 1.0000
68.6600 302.0000 1.0000
68.6700 289.0000 1.0000
68.6800 245.0000 1.0000
68.6900 259.0000 1.0000
68.7000 260.0000 1.0000
68.7100 248.0000 1.0000
68.7200 261.0000 1.0000
68.7300 272.0000 1.0000
68.7400 267.0000 1.0000
68.7500 295.0000 1.0000
68.7600 269.0000 1.0000
68.7700 265.0000 1.0000
68.7800 262.0000 1.0000
68.7900 279.0000 1.0000
68.8000 282.0000 1.0000
68.8100 268.0000 1.0000
68.8200 258.0000 1.0000
68.8300 266.0000 1.0000
68.8400 269.0000 1.0000
68.8500 255.0000 1.0000
68.8600 284.0000 1.0000
68.8700 267.0000 1.0000
68.8800 260.0000 1.0000
68.8900 274.0000 1.0000
68.9000 281.0000 1.0000
68.9100 274.0000 1.0000
68.9200 285.0000 1.0000
68.9300 289.0000 1.0000
68.9400 275.0000 1.0000
68.9500 261.0000 1.0000
68.9600 265.0000 1.0000
68.9700 285.0000 1.0000
68.9800 274.0000 1.0000
68.9900 250.0000 1.0000
69.0000 285.0000 1.0000
69.0100 271.0000 1.0000
69.0200 291.0000 1.0000
69.0300 254.0000 1.0000
69.0400 261.0000 1.0000
69.0500 269.0000 1.0000
69.0600 264.0000 1.0000
69.0700 283.0000 1.0000
69.0800 276.0000 1.0000
69.0900 267.0000 1.0000
69.1000 258.0000 1.0000
69.1100 262.0000 1.0000
69.1200 274.0000 1.0000
69.1300 282.0000 1.0000
69.1400 303.0000 1.0000
69.1500 285.0000 1.0000
69.1600 265.0000 1.0000
69.1700 269.0000 1.0000
69.1800 280.0000 1.0000
69.1900 250.0000 1.0000
69.2000 263.0000 1.0000
69.2100 286.0000 1.0000
69.2200 257.0000 1.0000
69.2300 272.0000 1.0000
69.2400 269.0000 1.0000
69.2500 275.0000 1.0000
69.2600 251.0000 1.0000
69.2700 310.0000 1.0000
69.2800 295.0000 1.0000
69.2900 229.0000 1.0000
69.3000 240.0000 1.0000
69.3100 269.0000 1.0000
69.3200 254.0000 1.0000
69.3300 263.0000 1.0000
69.3400 285.0000 1.0000
69.3500 282.0000 1.0000
69.3600 266.0000 1.0000
69.3700 233.0000 1.0000
69.3800 263.0000 1.0000
69.3900 266.0000 1.0000
69.4000 247.0000 1.0000
69.4100 284.0000 1.0000
69.4200 281.0000 1.0000
69.4300 257.0000 1.0000
69.4400 248.0000 1.0000
69.4500 283.0000 1.0000
69.4600 272.0000 1.0000
69.4700 246.0000 1.0000
69.4800 259.0000 1.0000
69.4900 255.0000 1.0000
69.5000 275.0000 1.0000
69.5100 260.0000 1.0000
69.5200 267.0000 1.0000
69.5300 248.0000 1.0000
69.5400 260.0000 1.0000
69.5500 252.0000 1.0000
69.5600 251.0000 1.0000
69.5700 268.0000 1.0000
69.5800 261.0000 1.0000
69.5900 264.0000 1.0000
69.6000 266.0000 1.0000
69.6100 255.0000 1.0000
69.6200 250.0000 1.0000
69.6300 257.0000 1.0000
69.6400 252.0000 1.0000
69.6500 246.0000 1.0000
69.6600 298.0000 1.0000
69.6700 256.0000 1.0000
69.6800 236.0000 1.0000
69.6900 257.0000 1.0000
69.7000 259.0000 1.0000
69.7100 270.0000 1.0000
69.7200 267.0000 1.0000
69.7300 244.0000 1.0000
69.7400 240.0000 1.0000
69.7500 270.0000 1.0000
69.7600 247.0000 1.0000
69.7700 263.0000 1.0000
69.7800 251.0000 1.0000
69.7900 264.0000 1.0000
69.8000 273.0000 1.0000
69.8100 268.0000 1.0000
69.8200 252.0000 1.0000
69.8300 266.0000 1.0000
69.8400 266.0000 1.0000
69.8500 259.0000 1.0000
69.8600 249.0000 1.0000
69.8700 241.0000 1.0000
69.8800 267.0000 1.0000
69.8900 295.0000 1.0000
69.9000 259.0000 1.0000
69.9100 234.0000 1.0000
69.9200 248.0000 1.0000
69.9300 247.0000 1.0000
69.9400 251.0000 1.0000
69.9500 263.0000 1.0000
69.9600 264.0000 1.0000
69.9700 267.0000 1.0000
69.9800 261.0000 1.0000
69.9900 253.0000 1.0000
70.0000 277.0000 1.0000
*RAS_INT_END
*RAS_TEMPERATURE_START
*RAS_TEMPERATURE_END
*RAS_DATA_END
