*RAS_DATA_START
*RAS_HEADER_START
*DISP_FMT_X "%.2f"
*DISP_FMT_Y "%.0f"
*DISP_FULLSCALE "16990.0000000000"
*DISP_LINE_COLOR "255.0000000000"
*DISP_LINE_STYLE "0.0000000000"
*DISP_LINE_WIDTH "0.2500000000"
*DISP_NOTE "測定データ-2"
*DISP_OFFSET_Y "0.0000000000"
*DISP_PEAKSEARCH_UNIT_Y "cps"
*DISP_RANGE_BOTTOM "0.0000000000"
*DISP_RANGE_LEFT "20.0000000000"
*DISP_RANGE_LOGCUTOFF "0.0100000000"
*DISP_RANGE_RIGHT "70.0000000000"
*DISP_RANGE_TOP "16990.0000000000"
*DISP_SCALE_MODE_Y "0.0000000000"
*DISP_TAB_NAME "2θ/θ"
*DISP_TITLE_Y "強度"
*DISP_UNIT_Y "cps"
*DISP_WINDOW_NAME "MSG_MACROENGINE"
*FILE_COMMENT " "
*FILE_MD5 ""
*FILE_MEMO " "
*FILE_OPERATOR "Administrator"
*FILE_SAMPLE " "
*FILE_TYPE "RAS_RAW"
*FILE_USERGROUP "システムマネージャ"
*FILE_VERSION "1.0000000000"
*HW_ATTACHMENT_ID "ATT0025"
*HW_ATTACHMENT_NAME "標準|Standard"
*HW_COUNTER_ID-0 "CUT0025"
*HW_COUNTER_ID-1 "CUT0020"
*HW_COUNTER_ID-2 "CUT0020"
*HW_COUNTER_ID-3 "CSL0021"
*HW_COUNTER_ID-4 "CMC0021"
*HW_COUNTER_NAME-0 "D/teX Ultra|D/teX Ultra"
*HW_COUNTER_NAME-1 "None|None"
*HW_COUNTER_NAME-2 "None|None"
*HW_COUNTER_NAME-3 "BBM|BBM"
*HW_COUNTER_NAME-4 "検出器モノクロメータ|Detector monochromator"
*HW_COUNTER_SELECT_NAME "D/teX Ultra|D/teX Ultra"
*HW_GONIOMETER_ID "GON0023"
*HW_GONIOMETER_NAME "SmartLab|SmartLab"
*HW_GONIOMETER_RADIUS-0 "90.0"
*HW_GONIOMETER_RADIUS-1 "114.0"
*HW_GONIOMETER_RADIUS-2 "190.0"
*HW_GONIOMETER_RADIUS-3 "300.0"
*HW_GONIOMETER_RADIUS-4 "187.0"
*HW_GONIOMETER_RADIUS-5 "300.0"
*HW_GONIOMETER_RADIUS-6 "113.0"
*HW_GONIOMETER_RADIUS-7 "331.0"
*HW_I_OPT_ID-0 "CBO0021"
*HW_I_OPT_ID-1 "ICR0023"
*HW_I_OPT_ID-2 "ISL0021"
*HW_I_OPT_ID-3 "ISO0021"
*HW_I_OPT_ID-4 "IAD0021"
*HW_I_OPT_ID-5 "IPR0001"
*HW_I_OPT_NAME-0 "CBOユニット|CBO unit"
*HW_I_OPT_NAME-1 "標準入射光学ユニット|Standard incident optical unit"
*HW_I_OPT_NAME-2 "標準入射スリットボックス|Standard incident slit box"
*HW_I_OPT_NAME-3 "入射平行スリット|Incident parallel slit"
*HW_I_OPT_NAME-4 "長手制限スリット|Length limiting slit"
*HW_I_OPT_NAME-5 "None|None"
*HW_R_ATTENUATER_AUTOMODE "0"
*HW_R_OPT_ID-0 "RSS0021"
*HW_R_OPT_ID-1 "RCR0023"
*HW_R_OPT_ID-2 "RSO0021"
*HW_R_OPT_ID-3 "RRS0021"
*HW_R_OPT_ID-4 "ATN0021"
*HW_R_OPT_ID-5 "RFL0021"
*HW_R_OPT_ID-6 "RAD0021"
*HW_R_OPT_NAME-0 "標準受光スリットボックス1|Standard receiving slit box # 1"
*HW_R_OPT_NAME-1 "標準受光光学ユニット1|Standard receiving unit # 1"
*HW_R_OPT_NAME-2 "標準受光光学ユニット2|Standard receiving optical unit # 2"
*HW_R_OPT_NAME-3 "標準受光スリットボックス2|Standard receiving slit box # 2"
*HW_R_OPT_NAME-4 "標準アッテネータ|Standard Attenuator"
*HW_R_OPT_NAME-5 "Cu Kβ|Cu K-beta"
*HW_R_OPT_NAME-6 "調整用受光スリット|Alignment receiving slit"
*HW_SAMPLE_HOLDER_ID "SMP0023"
*HW_SAMPLE_HOLDER_NAME "標準Zステージ|Standard Z stage"
*HW_XG_CURRENT_MAX "50"
*HW_XG_CURRENT_MIN "2"
*HW_XG_CURRENT_RESOLUTION "1"
*HW_XG_CURRENT_UNIT "mA"
*HW_XG_FOCUS "1mm x 10mm"
*HW_XG_FOCUS_TYPE "Normal"
*HW_XG_ID ""
*HW_XG_NAME "3kW 封入管(ID:1200)|3kW Sealed tube(ID:1200)"
*HW_XG_TARGET_ATOMIC_NUMBER "29.0000000000"
*HW_XG_TARGET_NAME "Cu"
*HW_XG_TYPE "Hermetic"
*HW_XG_VOLTAGE_MAX "60"
*HW_XG_VOLTAGE_MIN "20"
*HW_XG_VOLTAGE_RESOLUTION "1"
*HW_XG_VOLTAGE_UNIT "kV"
*HW_XG_WATT_MAX "1.500"
*HW_XG_WATT_UNIT "kW"
*HW_XG_WAVE_LENGTH_ALPHA1 "1.540593"
*HW_XG_WAVE_LENGTH_ALPHA2 "1.544414"
*HW_XG_WAVE_LENGTH_BETA "1.392250"
*MEAS_COND_AXIS_NAME-0 "2θ/θ"
*MEAS_COND_AXIS_NAME-1 "2θ"
*MEAS_COND_AXIS_NAME-2 "ω"
*MEAS_COND_AXIS_NAME-3 "Z"
*MEAS_COND_AXIS_NAME-4 "2θ/ω"
*MEAS_COND_AXIS_NAME-5 "θs"
*MEAS_COND_AXIS_NAME-6 "θd"
*MEAS_COND_AXIS_NAME-7 "Ts"
*MEAS_COND_AXIS_NAME-8 "CBO選択スリット"
*MEAS_COND_AXIS_NAME-9 "M"
*MEAS_COND_AXIS_NAME-10 "入射平行スリット"
*MEAS_COND_AXIS_NAME-11 "入射スリット"
*MEAS_COND_AXIS_NAME-12 ""
*MEAS_COND_AXIS_NAME-13 "Zs"
*MEAS_COND_AXIS_NAME-14 "入射光学素子"
*MEAS_COND_AXIS_NAME-15 "長手制限スリット"
*MEAS_COND_AXIS_NAME-16 "センタースリット"
*MEAS_COND_AXIS_NAME-17 "フィルター"
*MEAS_COND_AXIS_NAME-18 "受光スリット1"
*MEAS_COND_AXIS_NAME-19 "受光スリット2"
*MEAS_COND_AXIS_NAME-20 "受光光学素子"
*MEAS_COND_AXIS_NAME-21 "受光平行スリット"
*MEAS_COND_AXIS_NAME-22 "調整用受光スリット"
*MEAS_COND_AXIS_NAME-23 ""
*MEAS_COND_AXIS_NAME-24 ""
*MEAS_COND_AXIS_NAME-25 "Zd"
*MEAS_COND_AXIS_NAME-26 "アッテネータ"
*MEAS_COND_AXIS_NAME-27 "検出器モノクロメータ"
*MEAS_COND_AXIS_NAME-28 "モノクロメータスリット"
*MEAS_COND_AXIS_NAME-29 "プライマリビーム"
*MEAS_COND_AXIS_NAME-30 "PHA"
*MEAS_COND_AXIS_NAME_INTERNAL-0 "TwoThetaTheta"
*MEAS_COND_AXIS_NAME_INTERNAL-1 "TwoTheta"
*MEAS_COND_AXIS_NAME_INTERNAL-2 "Omega"
*MEAS_COND_AXIS_NAME_INTERNAL-3 "Z"
*MEAS_COND_AXIS_NAME_INTERNAL-4 "TwoThetaOmega"
*MEAS_COND_AXIS_NAME_INTERNAL-5 "ThetaS"
*MEAS_COND_AXIS_NAME_INTERNAL-6 "ThetaD"
*MEAS_COND_AXIS_NAME_INTERNAL-7 "Ts"
*MEAS_COND_AXIS_NAME_INTERNAL-8 "CBO"
*MEAS_COND_AXIS_NAME_INTERNAL-9 "CBO-M"
*MEAS_COND_AXIS_NAME_INTERNAL-10 "IncidentSollerSlit"
*MEAS_COND_AXIS_NAME_INTERNAL-11 "IncidentSlitBox"
*MEAS_COND_AXIS_NAME_INTERNAL-12 "IncidentSlitBox-_Axis"
*MEAS_COND_AXIS_NAME_INTERNAL-13 "Zs"
*MEAS_COND_AXIS_NAME_INTERNAL-14 "IncidentMonochromator"
*MEAS_COND_AXIS_NAME_INTERNAL-15 "IncidentAxdSlit"
*MEAS_COND_AXIS_NAME_INTERNAL-16 "CenterSlit"
*MEAS_COND_AXIS_NAME_INTERNAL-17 "Filter"
*MEAS_COND_AXIS_NAME_INTERNAL-18 "ReceivingSlitBox1"
*MEAS_COND_AXIS_NAME_INTERNAL-19 "ReceivingSlitBox2"
*MEAS_COND_AXIS_NAME_INTERNAL-20 "ReceivingOptics"
*MEAS_COND_AXIS_NAME_INTERNAL-21 "ReceivingSollerSlit"
*MEAS_COND_AXIS_NAME_INTERNAL-22 "ReceivingAxdSlit"
*MEAS_COND_AXIS_NAME_INTERNAL-23 "ReceivingSlitBox1-_Axis"
*MEAS_COND_AXIS_NAME_INTERNAL-24 "ReceivingSlitBox2-_Axis"
*MEAS_COND_AXIS_NAME_INTERNAL-25 "ReceivingSlitBox2-Zd"
*MEAS_COND_AXIS_NAME_INTERNAL-26 "Attenuator"
*MEAS_COND_AXIS_NAME_INTERNAL-27 "CounterMonochromator"
*MEAS_COND_AXIS_NAME_INTERNAL-28 "CounterSlit"
*MEAS_COND_AXIS_NAME_INTERNAL-29 "IncidentPrimary"
*MEAS_COND_AXIS_NAME_INTERNAL-30 "PHA"
*MEAS_COND_AXIS_NAME_MAGICNO-0 "83951616.0000000000"
*MEAS_COND_AXIS_NAME_MAGICNO-1 "268632064.0000000000"
*MEAS_COND_AXIS_NAME_MAGICNO-2 "268500992.0000000000"
*MEAS_COND_AXIS_NAME_MAGICNO-3 "285278208.0000000000"
*MEAS_COND_AXIS_NAME_MAGICNO-4 "83951616.0000000000"
*MEAS_COND_AXIS_NAME_MAGICNO-5 "131072.0000000000"
*MEAS_COND_AXIS_NAME_MAGICNO-6 "131072.0000000000"
*MEAS_COND_AXIS_NAME_MAGICNO-7 "318898176.0000000000"
*MEAS_COND_AXIS_NAME_MAGICNO-8 "20971521.0000000000"
*MEAS_COND_AXIS_NAME_MAGICNO-9 "285343744.0000000000"
*MEAS_COND_AXIS_NAME_MAGICNO-10 "20971521.0000000000"
*MEAS_COND_AXIS_NAME_MAGICNO-11 "22020097.0000000000"
*MEAS_COND_AXIS_NAME_MAGICNO-12 "25165824.0000000000"
*MEAS_COND_AXIS_NAME_MAGICNO-13 "318898176.0000000000"
*MEAS_COND_AXIS_NAME_MAGICNO-14 "1.0000000000"
*MEAS_COND_AXIS_NAME_MAGICNO-15 "20971521.0000000000"
*MEAS_COND_AXIS_NAME_MAGICNO-16 "20971521.0000000000"
*MEAS_COND_AXIS_NAME_MAGICNO-17 "20971521.0000000000"
*MEAS_COND_AXIS_NAME_MAGICNO-18 "23068673.0000000000"
*MEAS_COND_AXIS_NAME_MAGICNO-19 "23068673.0000000000"
*MEAS_COND_AXIS_NAME_MAGICNO-20 "20971521.0000000000"
*MEAS_COND_AXIS_NAME_MAGICNO-21 "20971521.0000000000"
*MEAS_COND_AXIS_NAME_MAGICNO-22 "20971521.0000000000"
*MEAS_COND_AXIS_NAME_MAGICNO-23 "25165824.0000000000"
*MEAS_COND_AXIS_NAME_MAGICNO-24 "25165824.0000000000"
*MEAS_COND_AXIS_NAME_MAGICNO-25 "285343744.0000000000"
*MEAS_COND_AXIS_NAME_MAGICNO-26 "17301505.0000000000"
*MEAS_COND_AXIS_NAME_MAGICNO-27 "20971521.0000000000"
*MEAS_COND_AXIS_NAME_MAGICNO-28 "20971521.0000000000"
*MEAS_COND_AXIS_NAME_MAGICNO-29 "20971521.0000000000"
*MEAS_COND_AXIS_NAME_MAGICNO-30 "0.0000000000"
*MEAS_COND_AXIS_OFFSET-0 "-"
*MEAS_COND_AXIS_OFFSET-1 "-0.0801000000"
*MEAS_COND_AXIS_OFFSET-2 "0.1646000000"
*MEAS_COND_AXIS_OFFSET-3 "-"
*MEAS_COND_AXIS_OFFSET-4 "-"
*MEAS_COND_AXIS_OFFSET-5 "0.1646000000"
*MEAS_COND_AXIS_OFFSET-6 "-0.2447000000"
*MEAS_COND_AXIS_OFFSET-7 "-"
*MEAS_COND_AXIS_OFFSET-8 "-"
*MEAS_COND_AXIS_OFFSET-9 "-"
*MEAS_COND_AXIS_OFFSET-10 "-"
*MEAS_COND_AXIS_OFFSET-11 "-"
*MEAS_COND_AXIS_OFFSET-12 "-"
*MEAS_COND_AXIS_OFFSET-13 "-"
*MEAS_COND_AXIS_OFFSET-14 "-"
*MEAS_COND_AXIS_OFFSET-15 "-"
*MEAS_COND_AXIS_OFFSET-16 "-"
*MEAS_COND_AXIS_OFFSET-17 "-"
*MEAS_COND_AXIS_OFFSET-18 "-"
*MEAS_COND_AXIS_OFFSET-19 "-"
*MEAS_COND_AXIS_OFFSET-20 "-"
*MEAS_COND_AXIS_OFFSET-21 "-"
*MEAS_COND_AXIS_OFFSET-22 "-"
*MEAS_COND_AXIS_OFFSET-23 "-"
*MEAS_COND_AXIS_OFFSET-24 "-"
*MEAS_COND_AXIS_OFFSET-25 "-"
*MEAS_COND_AXIS_OFFSET-26 "-"
*MEAS_COND_AXIS_OFFSET-27 "-"
*MEAS_COND_AXIS_OFFSET-28 "-"
*MEAS_COND_AXIS_OFFSET-29 "-"
*MEAS_COND_AXIS_OFFSET-30 "-"
*MEAS_COND_AXIS_POSITION-0 "0.0000000000"
*MEAS_COND_AXIS_POSITION-1 "0.0000000000"
*MEAS_COND_AXIS_POSITION-2 "0.0000000000"
*MEAS_COND_AXIS_POSITION-3 "-2.9256400000"
*MEAS_COND_AXIS_POSITION-4 "0.0000000000"
*MEAS_COND_AXIS_POSITION-5 "0.0000000000"
*MEAS_COND_AXIS_POSITION-6 "0.0000000000"
*MEAS_COND_AXIS_POSITION-7 "-0.4278800000"
*MEAS_COND_AXIS_POSITION-8 "BB"
*MEAS_COND_AXIS_POSITION-9 "0.0000000000"
*MEAS_COND_AXIS_POSITION-10 "Soller_slit_5.0deg"
*MEAS_COND_AXIS_POSITION-11 "2/3deg"
*MEAS_COND_AXIS_POSITION-12 "2.2088000000"
*MEAS_COND_AXIS_POSITION-13 "-1.0609400000"
*MEAS_COND_AXIS_POSITION-14 "0.0000000000"
*MEAS_COND_AXIS_POSITION-15 "10.0mm"
*MEAS_COND_AXIS_POSITION-16 "None"
*MEAS_COND_AXIS_POSITION-17 "Cu_K-beta"
*MEAS_COND_AXIS_POSITION-18 "13.000mm"
*MEAS_COND_AXIS_POSITION-19 "13.000mm"
*MEAS_COND_AXIS_POSITION-20 "No_unit"
*MEAS_COND_AXIS_POSITION-21 "Soller_slit_5.0deg"
*MEAS_COND_AXIS_POSITION-22 "None"
*MEAS_COND_AXIS_POSITION-23 "13.0000000000"
*MEAS_COND_AXIS_POSITION-24 "13.0000000000"
*MEAS_COND_AXIS_POSITION-25 "0.0081300000"
*MEAS_COND_AXIS_POSITION-26 "Open"
*MEAS_COND_AXIS_POSITION-27 "None"
*MEAS_COND_AXIS_POSITION-28 "None"
*MEAS_COND_AXIS_POSITION-29 "None"
*MEAS_COND_AXIS_POSITION-30 "38.0000000000"
*MEAS_COND_AXIS_UNIT-0 "deg"
*MEAS_COND_AXIS_UNIT-1 "deg"
*MEAS_COND_AXIS_UNIT-2 "deg"
*MEAS_COND_AXIS_UNIT-3 "mm"
*MEAS_COND_AXIS_UNIT-4 "deg"
*MEAS_COND_AXIS_UNIT-5 "deg"
*MEAS_COND_AXIS_UNIT-6 "deg"
*MEAS_COND_AXIS_UNIT-7 "mm"
*MEAS_COND_AXIS_UNIT-8 ""
*MEAS_COND_AXIS_UNIT-9 "pulse"
*MEAS_COND_AXIS_UNIT-10 ""
*MEAS_COND_AXIS_UNIT-11 ""
*MEAS_COND_AXIS_UNIT-12 "mm"
*MEAS_COND_AXIS_UNIT-13 "mm"
*MEAS_COND_AXIS_UNIT-14 ""
*MEAS_COND_AXIS_UNIT-15 ""
*MEAS_COND_AXIS_UNIT-16 ""
*MEAS_COND_AXIS_UNIT-17 ""
*MEAS_COND_AXIS_UNIT-18 ""
*MEAS_COND_AXIS_UNIT-19 ""
*MEAS_COND_AXIS_UNIT-20 ""
*MEAS_COND_AXIS_UNIT-21 ""
*MEAS_COND_AXIS_UNIT-22 ""
*MEAS_COND_AXIS_UNIT-23 "mm"
*MEAS_COND_AXIS_UNIT-24 "mm"
*MEAS_COND_AXIS_UNIT-25 "mm"
*MEAS_COND_AXIS_UNIT-26 ""
*MEAS_COND_AXIS_UNIT-27 ""
*MEAS_COND_AXIS_UNIT-28 ""
*MEAS_COND_AXIS_UNIT-29 ""
*MEAS_COND_AXIS_UNIT-30 "div"
*MEAS_COND_COUNTER_CNTLOSS_CORR "0.0000000000"
*MEAS_COND_COUNTER_PHABASE "38.0000000000"
*MEAS_COND_COUNTER_PHAWINDOW "16.0000000000"
*MEAS_COND_COUNTER_PHA_UNIT "div"
*MEAS_COND_COUNTER_TAUDIFF "30.0000000000"
*MEAS_COND_COUNTER_TAUINT "0.0000000000"
*MEAS_COND_IRRADIATION_MODE "OFF"
*MEAS_COND_IRRADIATION_WIDTH ""
*MEAS_COND_OPT_ATTR "集中法"
*MEAS_COND_OPT_NAME "@集中法"
*MEAS_COND_UNSYMMETRIC_MODE "OFF"
*MEAS_COND_XG_CURRENT "30.0000000000"
*MEAS_COND_XG_VOLTAGE "40.0000000000"
*MEAS_COND_XG_WAVE_TYPE "Ka"
*MEAS_DATA_COUNT "5001.0000000000"
*MEAS_SCAN_AXIS_X "2θ/θ"
*MEAS_SCAN_AXIS_X_INTERNAL "TwoThetaTheta"
*MEAS_SCAN_END_TIME "07/09/22 13:24:42"
*MEAS_SCAN_MODE "CONTINUOUS"
*MEAS_SCAN_MONITOR "0"
*MEAS_SCAN_RESOLUTION_X "0.0002"
*MEAS_SCAN_SPEED "2.5"
*MEAS_SCAN_SPEED_UNIT "deg/min"
*MEAS_SCAN_START "20.0000000000"
*MEAS_SCAN_START_TIME "07/09/22 13:03:18"
*MEAS_SCAN_STEP "0.0100000000"
*MEAS_SCAN_STOP "70.0000000000"
*MEAS_SCAN_UNIT_X "deg"
*MEAS_SCAN_UNIT_Y "counts"
*RAS_HEADER_END
*RAS_INT_START
20.0000 1003.0000 1.0000
20.0100 981.0000 1.0000
20.0200 933.0000 1.0000
20.0300 956.0000 1.0000
20.0400 972.0000 1.0000
20.0500 964.0000 1.0000
20.0600 963.0000 1.0000
20.0700 958.0000 1.0000
20.0800 911.0000 1.0000
20.0900 911.0000 1.0000
20.1000 989.0000 1.0000
20.1100 1001.0000 1.0000
20.1200 959.0000 1.0000
20.1300 938.0000 1.0000
20.1400 938.0000 1.0000
20.1500 902.0000 1.0000
20.1600 953.0000 1.0000
20.1700 1009.0000 1.0000
20.1800 921.0000 1.0000
20.1900 959.0000 1.0000
20.2000 954.0000 1.0000
20.2100 961.0000 1.0000
20.2200 980.0000 1.0000
20.2300 959.0000 1.0000
20.2400 968.0000 1.0000
20.2500 972.0000 1.0000
20.2600 940.0000 1.0000
20.2700 938.0000 1.0000
20.2800 977.0000 1.0000
20.2900 907.0000 1.0000
20.3000 944.0000 1.0000
20.3100 939.0000 1.0000
20.3200 976.0000 1.0000
20.3300 988.0000 1.0000
20.3400 961.0000 1.0000
20.3500 976.0000 1.0000
20.3600 968.0000 1.0000
20.3700 963.0000 1.0000
20.3800 935.0000 1.0000
20.3900 961.0000 1.0000
20.4000 985.0000 1.0000
20.4100 973.0000 1.0000
20.4200 912.0000 1.0000
20.4300 947.0000 1.0000
20.4400 978.0000 1.0000
20.4500 951.0000 1.0000
20.4600 938.0000 1.0000
20.4700 871.0000 1.0000
20.4800 958.0000 1.0000
20.4900 929.0000 1.0000
20.5000 943.0000 1.0000
20.5100 954.0000 1.0000
20.5200 928.0000 1.0000
20.5300 959.0000 1.0000
20.5400 935.0000 1.0000
20.5500 948.0000 1.0000
20.5600 941.0000 1.0000
20.5700 934.0000 1.0000
20.5800 927.0000 1.0000
20.5900 930.0000 1.0000
20.6000 946.0000 1.0000
20.6100 963.0000 1.0000
20.6200 966.0000 1.0000
20.6300 956.0000 1.0000
20.6400 929.0000 1.0000
20.6500 984.0000 1.0000
20.6600 937.0000 1.0000
20.6700 939.0000 1.0000
20.6800 1009.0000 1.0000
20.6900 975.0000 1.0000
20.7000 998.0000 1.0000
20.7100 945.0000 1.0000
20.7200 925.0000 1.0000
20.7300 947.0000 1.0000
20.7400 969.0000 1.0000
20.7500 956.0000 1.0000
20.7600 926.0000 1.0000
20.7700 967.0000 1.0000
20.7800 991.0000 1.0000
20.7900 990.0000 1.0000
20.8000 950.0000 1.0000
20.8100 984.0000 1.0000
20.8200 970.0000 1.0000
20.8300 924.0000 1.0000
20.8400 920.0000 1.0000
20.8500 971.0000 1.0000
20.8600 955.0000 1.0000
20.8700 971.0000 1.0000
20.8800 951.0000 1.0000
20.8900 922.0000 1.0000
20.9000 1002.0000 1.0000
20.9100 967.0000 1.0000
20.9200 989.0000 1.0000
20.9300 937.0000 1.0000
20.9400 953.0000 1.0000
20.9500 951.0000 1.0000
20.9600 982.0000 1.0000
20.9700 1018.0000 1.0000
20.9800 918.0000 1.0000
20.9900 981.0000 1.0000
21.0000 928.0000 1.0000
21.0100 947.0000 1.0000
21.0200 977.0000 1.0000
21.0300 925.0000 1.0000
21.0400 912.0000 1.0000
21.0500 969.0000 1.0000
21.0600 1010.0000 1.0000
21.0700 955.0000 1.0000
21.0800 971.0000 1.0000
21.0900 942.0000 1.0000
21.1000 933.0000 1.0000
21.1100 935.0000 1.0000
21.1200 982.0000 1.0000
21.1300 995.0000 1.0000
21.1400 943.0000 1.0000
21.1500 936.0000 1.0000
21.1600 925.0000 1.0000
21.1700 957.0000 1.0000
21.1800 1004.0000 1.0000
21.1900 988.0000 1.0000
21.2000 957.0000 1.0000
21.2100 999.0000 1.0000
21.2200 945.0000 1.0000
21.2300 957.0000 1.0000
21.2400 908.0000 1.0000
21.2500 902.0000 1.0000
21.2600 929.0000 1.0000
21.2700 945.0000 1.0000
21.2800 987.0000 1.0000
21.2900 1019.0000 1.0000
21.3000 951.0000 1.0000
21.3100 933.0000 1.0000
21.3200 977.0000 1.0000
21.3300 925.0000 1.0000
21.3400 960.0000 1.0000
21.3500 941.0000 1.0000
21.3600 954.0000 1.0000
21.3700 970.0000 1.0000
21.3800 988.0000 1.0000
21.3900 934.0000 1.0000
21.4000 950.0000 1.0000
21.4100 918.0000 1.0000
21.4200 947.0000 1.0000
21.4300 910.0000 1.0000
21.4400 925.0000 1.0000
21.4500 939.0000 1.0000
21.4600 944.0000 1.0000
21.4700 990.0000 1.0000
21.4800 976.0000 1.0000
21.4900 935.0000 1.0000
21.5000 963.0000 1.0000
21.5100 987.0000 1.0000
21.5200 917.0000 1.0000
21.5300 978.0000 1.0000
21.5400 946.0000 1.0000
21.5500 941.0000 1.0000
21.5600 943.0000 1.0000
21.5700 954.0000 1.0000
21.5800 958.0000 1.0000
21.5900 931.0000 1.0000
21.6000 965.0000 1.0000
21.6100 974.0000 1.0000
21.6200 965.0000 1.0000
21.6300 942.0000 1.0000
21.6400 912.0000 1.0000
21.6500 966.0000 1.0000
21.6600 895.0000 1.0000
21.6700 934.0000 1.0000
21.6800 969.0000 1.0000
21.6900 969.0000 1.0000
21.7000 953.0000 1.0000
21.7100 975.0000 1.0000
21.7200 931.0000 1.0000
21.7300 933.0000 1.0000
21.7400 962.0000 1.0000
21.7500 941.0000 1.0000
21.7600 962.0000 1.0000
21.7700 985.0000 1.0000
21.7800 1015.0000 1.0000
21.7900 1000.0000 1.0000
21.8000 969.0000 1.0000
21.8100 948.0000 1.0000
21.8200 925.0000 1.0000
21.8300 955.0000 1.0000
21.8400 998.0000 1.0000
21.8500 943.0000 1.0000
21.8600 944.0000 1.0000
21.8700 966.0000 1.0000
21.8800 948.0000 1.0000
21.8900 956.0000 1.0000
21.9000 874.0000 1.0000
21.9100 977.0000 1.0000
21.9200 934.0000 1.0000
21.9300 935.0000 1.0000
21.9400 950.0000 1.0000
21.9500 991.0000 1.0000
21.9600 954.0000 1.0000
21.9700 915.0000 1.0000
21.9800 952.0000 1.0000
21.9900 920.0000 1.0000
22.0000 933.0000 1.0000
22.0100 977.0000 1.0000
22.0200 940.0000 1.0000
22.0300 927.0000 1.0000
22.0400 994.0000 1.0000
22.0500 948.0000 1.0000
22.0600 958.0000 1.0000
22.0700 911.0000 1.0000
22.0800 953.0000 1.0000
22.0900 959.0000 1.0000
22.1000 970.0000 1.0000
22.1100 904.0000 1.0000
22.1200 949.0000 1.0000
22.1300 915.0000 1.0000
22.1400 935.0000 1.0000
22.1500 967.0000 1.0000
22.1600 990.0000 1.0000
22.1700 955.0000 1.0000
22.1800 912.0000 1.0000
22.1900 960.0000 1.0000
22.2000 945.0000 1.0000
22.2100 899.0000 1.0000
22.2200 954.0000 1.0000
22.2300 943.0000 1.0000
22.2400 927.0000 1.0000
22.2500 911.0000 1.0000
22.2600 917.0000 1.0000
22.2700 971.0000 1.0000
22.2800 966.0000 1.0000
22.2900 959.0000 1.0000
22.3000 952.0000 1.0000
22.3100 918.0000 1.0000
22.3200 913.0000 1.0000
22.3300 925.0000 1.0000
22.3400 936.0000 1.0000
22.3500 945.0000 1.0000
22.3600 928.0000 1.0000
22.3700 894.0000 1.0000
22.3800 940.0000 1.0000
22.3900 959.0000 1.0000
22.4000 934.0000 1.0000
22.4100 928.0000 1.0000
22.4200 940.0000 1.0000
22.4300 927.0000 1.0000
22.4400 915.0000 1.0000
22.4500 908.0000 1.0000
22.4600 959.0000 1.0000
22.4700 901.0000 1.0000
22.4800 909.0000 1.0000
22.4900 951.0000 1.0000
22.5000 955.0000 1.0000
22.5100 952.0000 1.0000
22.5200 932.0000 1.0000
22.5300 911.0000 1.0000
22.5400 950.0000 1.0000
22.5500 951.0000 1.0000
22.5600 925.0000 1.0000
22.5700 987.0000 1.0000
22.5800 973.0000 1.0000
22.5900 927.0000 1.0000
22.6000 917.0000 1.0000
22.6100 961.0000 1.0000
22.6200 927.0000 1.0000
22.6300 938.0000 1.0000
22.6400 949.0000 1.0000
22.6500 889.0000 1.0000
22.6600 940.0000 1.0000
22.6700 983.0000 1.0000
22.6800 973.0000 1.0000
22.6900 967.0000 1.0000
22.7000 942.0000 1.0000
22.7100 965.0000 1.0000
22.7200 891.0000 1.0000
22.7300 927.0000 1.0000
22.7400 967.0000 1.0000
22.7500 957.0000 1.0000
22.7600 992.0000 1.0000
22.7700 973.0000 1.0000
22.7800 983.0000 1.0000
22.7900 966.0000 1.0000
22.8000 970.0000 1.0000
22.8100 898.0000 1.0000
22.8200 972.0000 1.0000
22.8300 947.0000 1.0000
22.8400 948.0000 1.0000
22.8500 941.0000 1.0000
22.8600 978.0000 1.0000
22.8700 961.0000 1.0000
22.8800 976.0000 1.0000
22.8900 947.0000 1.0000
22.9000 953.0000 1.0000
22.9100 937.0000 1.0000
22.9200 908.0000 1.0000
22.9300 937.0000 1.0000
22.9400 962.0000 1.0000
22.9500 891.0000 1.0000
22.9600 921.0000 1.0000
22.9700 981.0000 1.0000
22.9800 966.0000 1.0000
22.9900 999.0000 1.0000
23.0000 930.0000 1.0000
23.0100 898.0000 1.0000
23.0200 958.0000 1.0000
23.0300 977.0000 1.0000
23.0400 900.0000 1.0000
23.0500 917.0000 1.0000
23.0600 940.0000 1.0000
23.0700 948.0000 1.0000
23.0800 930.0000 1.0000
23.0900 927.0000 1.0000
23.1000 961.0000 1.0000
23.1100 974.0000 1.0000
23.1200 939.0000 1.0000
23.1300 956.0000 1.0000
23.1400 894.0000 1.0000
23.1500 944.0000 1.0000
23.1600 910.0000 1.0000
23.1700 922.0000 1.0000
23.1800 851.0000 1.0000
23.1900 914.0000 1.0000
23.2000 919.0000 1.0000
23.2100 969.0000 1.0000
23.2200 939.0000 1.0000
23.2300 934.0000 1.0000
23.2400 936.0000 1.0000
23.2500 997.0000 1.0000
23.2600 954.0000 1.0000
23.2700 934.0000 1.0000
23.2800 866.0000 1.0000
23.2900 957.0000 1.0000
23.3000 909.0000 1.0000
23.3100 925.0000 1.0000
23.3200 932.0000 1.0000
23.3300 950.0000 1.0000
23.3400 929.0000 1.0000
23.3500 949.0000 1.0000
23.3600 939.0000 1.0000
23.3700 964.0000 1.0000
23.3800 899.0000 1.0000
23.3900 883.0000 1.0000
23.4000 901.0000 1.0000
23.4100 927.0000 1.0000
23.4200 955.0000 1.0000
23.4300 980.0000 1.0000
23.4400 941.0000 1.0000
23.4500 894.0000 1.0000
23.4600 929.0000 1.0000
23.4700 963.0000 1.0000
23.4800 937.0000 1.0000
23.4900 920.0000 1.0000
23.5000 943.0000 1.0000
23.5100 914.0000 1.0000
23.5200 923.0000 1.0000
23.5300 914.0000 1.0000
23.5400 937.0000 1.0000
23.5500 935.0000 1.0000
23.5600 930.0000 1.0000
23.5700 950.0000 1.0000
23.5800 957.0000 1.0000
23.5900 911.0000 1.0000
23.6000 949.0000 1.0000
23.6100 980.0000 1.0000
23.6200 912.0000 1.0000
23.6300 953.0000 1.0000
23.6400 941.0000 1.0000
23.6500 912.0000 1.0000
23.6600 897.0000 1.0000
23.6700 909.0000 1.0000
23.6800 933.0000 1.0000
23.6900 934.0000 1.0000
23.7000 913.0000 1.0000
23.7100 954.0000 1.0000
23.7200 939.0000 1.0000
23.7300 960.0000 1.0000
23.7400 978.0000 1.0000
23.7500 949.0000 1.0000
23.7600 963.0000 1.0000
23.7700 997.0000 1.0000
23.7800 1000.0000 1.0000
23.7900 929.0000 1.0000
23.8000 954.0000 1.0000
23.8100 937.0000 1.0000
23.8200 986.0000 1.0000
23.8300 969.0000 1.0000
23.8400 966.0000 1.0000
23.8500 951.0000 1.0000
23.8600 991.0000 1.0000
23.8700 984.0000 1.0000
23.8800 967.0000 1.0000
23.8900 991.0000 1.0000
23.9000 961.0000 1.0000
23.9100 1031.0000 1.0000
23.9200 925.0000 1.0000
23.9300 1029.0000 1.0000
23.9400 1033.0000 1.0000
23.9500 961.0000 1.0000
23.9600 966.0000 1.0000
23.9700 971.0000 1.0000
23.9800 993.0000 1.0000
23.9900 986.0000 1.0000
24.0000 1001.0000 1.0000
24.0100 1006.0000 1.0000
24.0200 1013.0000 1.0000
24.0300 1032.0000 1.0000
24.0400 985.0000 1.0000
24.0500 1014.0000 1.0000
24.0600 1045.0000 1.0000
24.0700 1076.0000 1.0000
24.0800 1014.0000 1.0000
24.0900 1013.0000 1.0000
24.1000 1034.0000 1.0000
24.1100 1048.0000 1.0000
24.1200 988.0000 1.0000
24.1300 1107.0000 1.0000
24.1400 1070.0000 1.0000
24.1500 1006.0000 1.0000
24.1600 976.0000 1.0000
24.1700 994.0000 1.0000
24.1800 999.0000 1.0000
24.1900 1043.0000 1.0000
24.2000 952.0000 1.0000
24.2100 1019.0000 1.0000
24.2200 932.0000 1.0000
24.2300 973.0000 1.0000
24.2400 948.0000 1.0000
24.2500 982.0000 1.0000
24.2600 936.0000 1.0000
24.2700 923.0000 1.0000
24.2800 940.0000 1.0000
24.2900 950.0000 1.0000
24.3000 950.0000 1.0000
24.3100 942.0000 1.0000
24.3200 930.0000 1.0000
24.3300 977.0000 1.0000
24.3400 1010.0000 1.0000
24.3500 923.0000 1.0000
24.3600 959.0000 1.0000
24.3700 937.0000 1.0000
24.3800 966.0000 1.0000
24.3900 961.0000 1.0000
24.4000 968.0000 1.0000
24.4100 936.0000 1.0000
24.4200 978.0000 1.0000
24.4300 908.0000 1.0000
24.4400 884.0000 1.0000
24.4500 915.0000 1.0000
24.4600 878.0000 1.0000
24.4700 932.0000 1.0000
24.4800 928.0000 1.0000
24.4900 904.0000 1.0000
24.5000 963.0000 1.0000
24.5100 986.0000 1.0000
24.5200 928.0000 1.0000
24.5300 905.0000 1.0000
24.5400 915.0000 1.0000
24.5500 949.0000 1.0000
24.5600 944.0000 1.0000
24.5700 955.0000 1.0000
24.5800 910.0000 1.0000
24.5900 912.0000 1.0000
24.6000 980.0000 1.0000
24.6100 897.0000 1.0000
24.6200 943.0000 1.0000
24.6300 918.0000 1.0000
24.6400 881.0000 1.0000
24.6500 926.0000 1.0000
24.6600 941.0000 1.0000
24.6700 888.0000 1.0000
24.6800 860.0000 1.0000
24.6900 884.0000 1.0000
24.7000 907.0000 1.0000
24.7100 890.0000 1.0000
24.7200 900.0000 1.0000
24.7300 964.0000 1.0000
24.7400 930.0000 1.0000
24.7500 933.0000 1.0000
24.7600 936.0000 1.0000
24.7700 868.0000 1.0000
24.7800 935.0000 1.0000
24.7900 941.0000 1.0000
24.8000 887.0000 1.0000
24.8100 890.0000 1.0000
24.8200 900.0000 1.0000
24.8300 872.0000 1.0000
24.8400 897.0000 1.0000
24.8500 899.0000 1.0000
24.8600 879.0000 1.0000
24.8700 916.0000 1.0000
24.8800 949.0000 1.0000
24.8900 919.0000 1.0000
24.9000 924.0000 1.0000
24.9100 911.0000 1.0000
24.9200 944.0000 1.0000
24.9300 899.0000 1.0000
24.9400 876.0000 1.0000
24.9500 905.0000 1.0000
24.9600 921.0000 1.0000
24.9700 880.0000 1.0000
24.9800 886.0000 1.0000
24.9900 912.0000 1.0000
25.0000 928.0000 1.0000
25.0100 924.0000 1.0000
25.0200 901.0000 1.0000
25.0300 944.0000 1.0000
25.0400 895.0000 1.0000
25.0500 920.0000 1.0000
25.0600 899.0000 1.0000
25.0700 897.0000 1.0000
25.0800 946.0000 1.0000
25.0900 941.0000 1.0000
25.1000 895.0000 1.0000
25.1100 906.0000 1.0000
25.1200 882.0000 1.0000
25.1300 911.0000 1.0000
25.1400 913.0000 1.0000
25.1500 959.0000 1.0000
25.1600 910.0000 1.0000
25.1700 899.0000 1.0000
25.1800 865.0000 1.0000
25.1900 959.0000 1.0000
25.2000 916.0000 1.0000
25.2100 865.0000 1.0000
25.2200 915.0000 1.0000
25.2300 901.0000 1.0000
25.2400 944.0000 1.0000
25.2500 914.0000 1.0000
25.2600 952.0000 1.0000
25.2700 940.0000 1.0000
25.2800 893.0000 1.0000
25.2900 926.0000 1.0000
25.3000 853.0000 1.0000
25.3100 914.0000 1.0000
25.3200 951.0000 1.0000
25.3300 943.0000 1.0000
25.3400 918.0000 1.0000
25.3500 1026.0000 1.0000
25.3600 911.0000 1.0000
25.3700 873.0000 1.0000
25.3800 887.0000 1.0000
25.3900 926.0000 1.0000
25.4000 887.0000 1.0000
25.4100 910.0000 1.0000
25.4200 933.0000 1.0000
25.4300 941.0000 1.0000
25.4400 958.0000 1.0000
25.4500 971.0000 1.0000
25.4600 884.0000 1.0000
25.4700 912.0000 1.0000
25.4800 917.0000 1.0000
25.4900 936.0000 1.0000
25.5000 910.0000 1.0000
25.5100 901.0000 1.0000
25.5200 865.0000 1.0000
25.5300 915.0000 1.0000
25.5400 954.0000 1.0000
25.5500 936.0000 1.0000
25.5600 891.0000 1.0000
25.5700 925.0000 1.0000
25.5800 953.0000 1.0000
25.5900 962.0000 1.0000
25.6000 955.0000 1.0000
25.6100 934.0000 1.0000
25.6200 938.0000 1.0000
25.6300 927.0000 1.0000
25.6400 915.0000 1.0000
25.6500 875.0000 1.0000
25.6600 977.0000 1.0000
25.6700 919.0000 1.0000
25.6800 938.0000 1.0000
25.6900 937.0000 1.0000
25.7000 950.0000 1.0000
25.7100 933.0000 1.0000
25.7200 942.0000 1.0000
25.7300 977.0000 1.0000
25.7400 917.0000 1.0000
25.7500 893.0000 1.0000
25.7600 936.0000 1.0000
25.7700 949.0000 1.0000
25.7800 964.0000 1.0000
25.7900 994.0000 1.0000
25.8000 965.0000 1.0000
25.8100 987.0000 1.0000
25.8200 1034.0000 1.0000
25.8300 972.0000 1.0000
25.8400 990.0000 1.0000
25.8500 966.0000 1.0000
25.8600 917.0000 1.0000
25.8700 939.0000 1.0000
25.8800 929.0000 1.0000
25.8900 970.0000 1.0000
25.9000 968.0000 1.0000
25.9100 922.0000 1.0000
25.9200 960.0000 1.0000
25.9300 909.0000 1.0000
25.9400 977.0000 1.0000
25.9500 986.0000 1.0000
25.9600 1024.0000 1.0000
25.9700 1007.0000 1.0000
25.9800 1000.0000 1.0000
25.9900 1036.0000 1.0000
26.0000 1045.0000 1.0000
26.0100 1070.0000 1.0000
26.0200 1077.0000 1.0000
26.0300 976.0000 1.0000
26.0400 1031.0000 1.0000
26.0500 1103.0000 1.0000
26.0600 1041.0000 1.0000
26.0700 1037.0000 1.0000
26.0800 1099.0000 1.0000
26.0900 1142.0000 1.0000
26.1000 1083.0000 1.0000
26.1100 1078.0000 1.0000
26.1200 1148.0000 1.0000
26.1300 1212.0000 1.0000
26.1400 1198.0000 1.0000
26.1500 1235.0000 1.0000
26.1600 1193.0000 1.0000
26.1700 1295.0000 1.0000
26.1800 1285.0000 1.0000
26.1900 1353.0000 1.0000
26.2000 1332.0000 1.0000
26.2100 1353.0000 1.0000
26.2200 1394.0000 1.0000
26.2300 1460.0000 1.0000
26.2400 1485.0000 1.0000
26.2500 1570.0000 1.0000
26.2600 1620.0000 1.0000
26.2700 1652.0000 1.0000
26.2800 1768.0000 1.0000
26.2900 1897.0000 1.0000
26.3000 1952.0000 1.0000
26.3100 1943.0000 1.0000
26.3200 2115.0000 1.0000
26.3300 2288.0000 1.0000
26.3400 2402.0000 1.0000
26.3500 2520.0000 1.0000
26.3600 2612.0000 1.0000
26.3700 2778.0000 1.0000
26.3800 2880.0000 1.0000
26.3900 2959.0000 1.0000
26.4000 3141.0000 1.0000
26.4100 3210.0000 1.0000
26.4200 3383.0000 1.0000
26.4300 3292.0000 1.0000
26.4400 3359.0000 1.0000
26.4500 3398.0000 1.0000
26.4600 3311.0000 1.0000
26.4700 3216.0000 1.0000
26.4800 3205.0000 1.0000
26.4900 3073.0000 1.0000
26.5000 3044.0000 1.0000
26.5100 2877.0000 1.0000
26.5200 2724.0000 1.0000
26.5300 2565.0000 1.0000
26.5400 2465.0000 1.0000
26.5500 2326.0000 1.0000
26.5600 2227.0000 1.0000
26.5700 2126.0000 1.0000
26.5800 2049.0000 1.0000
26.5900 1925.0000 1.0000
26.6000 1827.0000 1.0000
26.6100 1741.0000 1.0000
26.6200 1590.0000 1.0000
26.6300 1583.0000 1.0000
26.6400 1500.0000 1.0000
26.6500 1472.0000 1.0000
26.6600 1421.0000 1.0000
26.6700 1382.0000 1.0000
26.6800 1388.0000 1.0000
26.6900 1308.0000 1.0000
26.7000 1285.0000 1.0000
26.7100 1199.0000 1.0000
26.7200 1156.0000 1.0000
26.7300 1167.0000 1.0000
26.7400 1203.0000 1.0000
26.7500 1188.0000 1.0000
26.7600 1134.0000 1.0000
26.7700 1091.0000 1.0000
26.7800 1101.0000 1.0000
26.7900 1101.0000 1.0000
26.8000 1084.0000 1.0000
26.8100 1060.0000 1.0000
26.8200 1060.0000 1.0000
26.8300 1022.0000 1.0000
26.8400 1016.0000 1.0000
26.8500 1035.0000 1.0000
26.8600 969.0000 1.0000
26.8700 971.0000 1.0000
26.8800 991.0000 1.0000
26.8900 974.0000 1.0000
26.9000 995.0000 1.0000
26.9100 957.0000 1.0000
26.9200 949.0000 1.0000
26.9300 971.0000 1.0000
26.9400 983.0000 1.0000
26.9500 949.0000 1.0000
26.9600 968.0000 1.0000
26.9700 920.0000 1.0000
26.9800 906.0000 1.0000
26.9900 953.0000 1.0000
27.0000 951.0000 1.0000
27.0100 977.0000 1.0000
27.0200 965.0000 1.0000
27.0300 981.0000 1.0000
27.0400 964.0000 1.0000
27.0500 963.0000 1.0000
27.0600 935.0000 1.0000
27.0700 871.0000 1.0000
27.0800 872.0000 1.0000
27.0900 878.0000 1.0000
27.1000 944.0000 1.0000
27.1100 928.0000 1.0000
27.1200 917.0000 1.0000
27.1300 920.0000 1.0000
27.1400 926.0000 1.0000
27.1500 921.0000 1.0000
27.1600 909.0000 1.0000
27.1700 905.0000 1.0000
27.1800 887.0000 1.0000
27.1900 905.0000 1.0000
27.2000 854.0000 1.0000
27.2100 861.0000 1.0000
27.2200 898.0000 1.0000
27.2300 865.0000 1.0000
27.2400 877.0000 1.0000
27.2500 878.0000 1.0000
27.2600 919.0000 1.0000
27.2700 878.0000 1.0000
27.2800 859.0000 1.0000
27.2900 906.0000 1.0000
27.3000 846.0000 1.0000
27.3100 889.0000 1.0000
27.3200 928.0000 1.0000
27.3300 873.0000 1.0000
27.3400 885.0000 1.0000
27.3500 892.0000 1.0000
27.3600 891.0000 1.0000
27.3700 891.0000 1.0000
27.3800 878.0000 1.0000
27.3900 858.0000 1.0000
27.4000 849.0000 1.0000
27.4100 889.0000 1.0000
27.4200 873.0000 1.0000
27.4300 899.0000 1.0000
27.4400 873.0000 1.0000
27.4500 895.0000 1.0000
27.4600 880.0000 1.0000
27.4700 844.0000 1.0000
27.4800 871.0000 1.0000
27.4900 902.0000 1.0000
27.5000 873.0000 1.0000
27.5100 850.0000 1.0000
27.5200 853.0000 1.0000
27.5300 830.0000 1.0000
27.5400 847.0000 1.0000
27.5500 884.0000 1.0000
27.5600 892.0000 1.0000
27.5700 835.0000 1.0000
27.5800 845.0000 1.0000
27.5900 859.0000 1.0000
27.6000 851.0000 1.0000
27.6100 863.0000 1.0000
27.6200 808.0000 1.0000
27.6300 857.0000 1.0000
27.6400 863.0000 1.0000
27.6500 809.0000 1.0000
27.6600 784.0000 1.0000
27.6700 843.0000 1.0000
27.6800 816.0000 1.0000
27.6900 832.0000 1.0000
27.7000 856.0000 1.0000
27.7100 880.0000 1.0000
27.7200 843.0000 1.0000
27.7300 832.0000 1.0000
27.7400 819.0000 1.0000
27.7500 784.0000 1.0000
27.7600 863.0000 1.0000
27.7700 873.0000 1.0000
27.7800 854.0000 1.0000
27.7900 807.0000 1.0000
27.8000 873.0000 1.0000
27.8100 828.0000 1.0000
27.8200 878.0000 1.0000
27.8300 904.0000 1.0000
27.8400 868.0000 1.0000
27.8500 846.0000 1.0000
27.8600 805.0000 1.0000
27.8700 805.0000 1.0000
27.8800 789.0000 1.0000
27.8900 805.0000 1.0000
27.9000 803.0000 1.0000
27.9100 861.0000 1.0000
27.9200 829.0000 1.0000
27.9300 852.0000 1.0000
27.9400 868.0000 1.0000
27.9500 869.0000 1.0000
27.9600 814.0000 1.0000
27.9700 814.0000 1.0000
27.9800 874.0000 1.0000
27.9900 820.0000 1.0000
28.0000 825.0000 1.0000
28.0100 828.0000 1.0000
28.0200 820.0000 1.0000
28.0300 841.0000 1.0000
28.0400 808.0000 1.0000
28.0500 818.0000 1.0000
28.0600 803.0000 1.0000
28.0700 813.0000 1.0000
28.0800 811.0000 1.0000
28.0900 817.0000 1.0000
28.1000 841.0000 1.0000
28.1100 846.0000 1.0000
28.1200 819.0000 1.0000
28.1300 804.0000 1.0000
28.1400 805.0000 1.0000
28.1500 791.0000 1.0000
28.1600 823.0000 1.0000
28.1700 807.0000 1.0000
28.1800 837.0000 1.0000
28.1900 815.0000 1.0000
28.2000 806.0000 1.0000
28.2100 831.0000 1.0000
28.2200 831.0000 1.0000
28.2300 822.0000 1.0000
28.2400 759.0000 1.0000
28.2500 805.0000 1.0000
28.2600 841.0000 1.0000
28.2700 852.0000 1.0000
28.2800 880.0000 1.0000
28.2900 850.0000 1.0000
28.3000 845.0000 1.0000
28.3100 801.0000 1.0000
28.3200 835.0000 1.0000
28.3300 839.0000 1.0000
28.3400 864.0000 1.0000
28.3500 827.0000 1.0000
28.3600 797.0000 1.0000
28.3700 769.0000 1.0000
28.3800 813.0000 1.0000
28.3900 806.0000 1.0000
28.4000 850.0000 1.0000
28.4100 841.0000 1.0000
28.4200 875.0000 1.0000
28.4300 851.0000 1.0000
28.4400 809.0000 1.0000
28.4500 834.0000 1.0000
28.4600 873.0000 1.0000
28.4700 770.0000 1.0000
28.4800 768.0000 1.0000
28.4900 800.0000 1.0000
28.5000 794.0000 1.0000
28.5100 833.0000 1.0000
28.5200 802.0000 1.0000
28.5300 779.0000 1.0000
28.5400 830.0000 1.0000
28.5500 809.0000 1.0000
28.5600 794.0000 1.0000
28.5700 792.0000 1.0000
28.5800 769.0000 1.0000
28.5900 800.0000 1.0000
28.6000 798.0000 1.0000
28.6100 802.0000 1.0000
28.6200 812.0000 1.0000
28.6300 800.0000 1.0000
28.6400 790.0000 1.0000
28.6500 850.0000 1.0000
28.6600 785.0000 1.0000
28.6700 771.0000 1.0000
28.6800 808.0000 1.0000
28.6900 826.0000 1.0000
28.7000 769.0000 1.0000
28.7100 814.0000 1.0000
28.7200 772.0000 1.0000
28.7300 818.0000 1.0000
28.7400 806.0000 1.0000
28.7500 776.0000 1.0000
28.7600 775.0000 1.0000
28.7700 784.0000 1.0000
28.7800 753.0000 1.0000
28.7900 766.0000 1.0000
28.8000 751.0000 1.0000
28.8100 807.0000 1.0000
28.8200 776.0000 1.0000
28.8300 804.0000 1.0000
28.8400 799.0000 1.0000
28.8500 779.0000 1.0000
28.8600 780.0000 1.0000
28.8700 771.0000 1.0000
28.8800 764.0000 1.0000
28.8900 840.0000 1.0000
28.9000 825.0000 1.0000
28.9100 769.0000 1.0000
28.9200 779.0000 1.0000
28.9300 766.0000 1.0000
28.9400 818.0000 1.0000
28.9500 793.0000 1.0000
28.9600 762.0000 1.0000
28.9700 776.0000 1.0000
28.9800 831.0000 1.0000
28.9900 762.0000 1.0000
29.0000 801.0000 1.0000
29.0100 834.0000 1.0000
29.0200 774.0000 1.0000
29.0300 747.0000 1.0000
29.0400 735.0000 1.0000
29.0500 739.0000 1.0000
29.0600 818.0000 1.0000
29.0700 772.0000 1.0000
29.0800 805.0000 1.0000
29.0900 829.0000 1.0000
29.1000 815.0000 1.0000
29.1100 788.0000 1.0000
29.1200 817.0000 1.0000
29.1300 775.0000 1.0000
29.1400 794.0000 1.0000
29.1500 814.0000 1.0000
29.1600 739.0000 1.0000
29.1700 790.0000 1.0000
29.1800 781.0000 1.0000
29.1900 767.0000 1.0000
29.2000 771.0000 1.0000
29.2100 754.0000 1.0000
29.2200 799.0000 1.0000
29.2300 803.0000 1.0000
29.2400 771.0000 1.0000
29.2500 779.0000 1.0000
29.2600 768.0000 1.0000
29.2700 754.0000 1.0000
29.2800 758.0000 1.0000
29.2900 783.0000 1.0000
29.3000 767.0000 1.0000
29.3100 757.0000 1.0000
29.3200 767.0000 1.0000
29.3300 801.0000 1.0000
29.3400 778.0000 1.0000
29.3500 785.0000 1.0000
29.3600 782.0000 1.0000
29.3700 784.0000 1.0000
29.3800 769.0000 1.0000
29.3900 786.0000 1.0000
29.4000 772.0000 1.0000
29.4100 744.0000 1.0000
29.4200 706.0000 1.0000
29.4300 736.0000 1.0000
29.4400 729.0000 1.0000
29.4500 750.0000 1.0000
29.4600 755.0000 1.0000
29.4700 723.0000 1.0000
29.4800 752.0000 1.0000
29.4900 827.0000 1.0000
29.5000 715.0000 1.0000
29.5100 748.0000 1.0000
29.5200 763.0000 1.0000
29.5300 747.0000 1.0000
29.5400 738.0000 1.0000
29.5500 769.0000 1.0000
29.5600 780.0000 1.0000
29.5700 756.0000 1.0000
29.5800 792.0000 1.0000
29.5900 807.0000 1.0000
29.6000 770.0000 1.0000
29.6100 743.0000 1.0000
29.6200 771.0000 1.0000
29.6300 743.0000 1.0000
29.6400 742.0000 1.0000
29.6500 801.0000 1.0000
29.6600 761.0000 1.0000
29.6700 780.0000 1.0000
29.6800 819.0000 1.0000
29.6900 770.0000 1.0000
29.7000 745.0000 1.0000
29.7100 744.0000 1.0000
29.7200 745.0000 1.0000
29.7300 791.0000 1.0000
29.7400 712.0000 1.0000
29.7500 758.0000 1.0000
29.7600 781.0000 1.0000
29.7700 723.0000 1.0000
29.7800 732.0000 1.0000
29.7900 768.0000 1.0000
29.8000 736.0000 1.0000
29.8100 740.0000 1.0000
29.8200 730.0000 1.0000
29.8300 715.0000 1.0000
29.8400 745.0000 1.0000
29.8500 762.0000 1.0000
29.8600 761.0000 1.0000
29.8700 738.0000 1.0000
29.8800 760.0000 1.0000
29.8900 748.0000 1.0000
29.9000 762.0000 1.0000
29.9100 767.0000 1.0000
29.9200 731.0000 1.0000
29.9300 725.0000 1.0000
29.9400 771.0000 1.0000
29.9500 732.0000 1.0000
29.9600 771.0000 1.0000
29.9700 738.0000 1.0000
29.9800 742.0000 1.0000
29.9900 739.0000 1.0000
30.0000 792.0000 1.0000
30.0100 758.0000 1.0000
30.0200 745.0000 1.0000
30.0300 715.0000 1.0000
30.0400 731.0000 1.0000
30.0500 764.0000 1.0000
30.0600 739.0000 1.0000
30.0700 728.0000 1.0000
30.0800 789.0000 1.0000
30.0900 759.0000 1.0000
30.1000 746.0000 1.0000
30.1100 794.0000 1.0000
30.1200 769.0000 1.0000
30.1300 775.0000 1.0000
30.1400 785.0000 1.0000
30.1500 771.0000 1.0000
30.1600 739.0000 1.0000
30.1700 726.0000 1.0000
30.1800 781.0000 1.0000
30.1900 714.0000 1.0000
30.2000 797.0000 1.0000
30.2100 735.0000 1.0000
30.2200 728.0000 1.0000
30.2300 722.0000 1.0000
30.2400 711.0000 1.0000
30.2500 775.0000 1.0000
30.2600 736.0000 1.0000
30.2700 741.0000 1.0000
30.2800 730.0000 1.0000
30.2900 788.0000 1.0000
30.3000 775.0000 1.0000
30.3100 776.0000 1.0000
30.3200 717.0000 1.0000
30.3300 707.0000 1.0000
30.3400 752.0000 1.0000
30.3500 748.0000 1.0000
30.3600 754.0000 1.0000
30.3700 713.0000 1.0000
30.3800 716.0000 1.0000
30.3900 747.0000 1.0000
30.4000 792.0000 1.0000
30.4100 762.0000 1.0000
30.4200 786.0000 1.0000
30.4300 710.0000 1.0000
30.4400 709.0000 1.0000
30.4500 726.0000 1.0000
30.4600 718.0000 1.0000
30.4700 754.0000 1.0000
30.4800 747.0000 1.0000
30.4900 737.0000 1.0000
30.5000 719.0000 1.0000
30.5100 703.0000 1.0000
30.5200 749.0000 1.0000
30.5300 735.0000 1.0000
30.5400 698.0000 1.0000
30.5500 760.0000 1.0000
30.5600 707.0000 1.0000
30.5700 677.0000 1.0000
30.5800 682.0000 1.0000
30.5900 712.0000 1.0000
30.6000 762.0000 1.0000
30.6100 742.0000 1.0000
30.6200 752.0000 1.0000
30.6300 726.0000 1.0000
30.6400 713.0000 1.0000
30.6500 728.0000 1.0000
30.6600 730.0000 1.0000
30.6700 700.0000 1.0000
30.6800 704.0000 1.0000
30.6900 722.0000 1.0000
30.7000 739.0000 1.0000
30.7100 692.0000 1.0000
30.7200 711.0000 1.0000
30.7300 718.0000 1.0000
30.7400 719.0000 1.0000
30.7500 679.0000 1.0000
30.7600 716.0000 1.0000
30.7700 743.0000 1.0000
30.7800 707.0000 1.0000
30.7900 708.0000 1.0000
30.8000 741.0000 1.0000
30.8100 734.0000 1.0000
30.8200 692.0000 1.0000
30.8300 689.0000 1.0000
30.8400 719.0000 1.0000
30.8500 713.0000 1.0000
30.8600 707.0000 1.0000
30.8700 710.0000 1.0000
30.8800 744.0000 1.0000
30.8900 724.0000 1.0000
30.9000 699.0000 1.0000
30.9100 745.0000 1.0000
30.9200 720.0000 1.0000
30.9300 775.0000 1.0000
30.9400 747.0000 1.0000
30.9500 761.0000 1.0000
30.9600 717.0000 1.0000
30.9700 741.0000 1.0000
30.9800 722.0000 1.0000
30.9900 725.0000 1.0000
31.0000 776.0000 1.0000
31.0100 771.0000 1.0000
31.0200 769.0000 1.0000
31.0300 698.0000 1.0000
31.0400 776.0000 1.0000
31.0500 751.0000 1.0000
31.0600 748.0000 1.0000
31.0700 745.0000 1.0000
31.0800 742.0000 1.0000
31.0900 714.0000 1.0000
31.1000 695.0000 1.0000
31.1100 711.0000 1.0000
31.1200 688.0000 1.0000
31.1300 727.0000 1.0000
31.1400 753.0000 1.0000
31.1500 698.0000 1.0000
31.1600 699.0000 1.0000
31.1700 730.0000 1.0000
31.1800 708.0000 1.0000
31.1900 718.0000 1.0000
31.2000 740.0000 1.0000
31.2100 741.0000 1.0000
31.2200 729.0000 1.0000
31.2300 751.0000 1.0000
31.2400 774.0000 1.0000
31.2500 707.0000 1.0000
31.2600 702.0000 1.0000
31.2700 745.0000 1.0000
31.2800 704.0000 1.0000
31.2900 743.0000 1.0000
31.3000 722.0000 1.0000
31.3100 738.0000 1.0000
31.3200 745.0000 1.0000
31.3300 698.0000 1.0000
31.3400 663.0000 1.0000
31.3500 712.0000 1.0000
31.3600 699.0000 1.0000
31.3700 699.0000 1.0000
31.3800 706.0000 1.0000
31.3900 720.0000 1.0000
31.4000 730.0000 1.0000
31.4100 733.0000 1.0000
31.4200 710.0000 1.0000
31.4300 707.0000 1.0000
31.4400 692.0000 1.0000
31.4500 679.0000 1.0000
31.4600 701.0000 1.0000
31.4700 756.0000 1.0000
31.4800 760.0000 1.0000
31.4900 693.0000 1.0000
31.5000 708.0000 1.0000
31.5100 695.0000 1.0000
31.5200 707.0000 1.0000
31.5300 729.0000 1.0000
31.5400 676.0000 1.0000
31.5500 756.0000 1.0000
31.5600 706.0000 1.0000
31.5700 738.0000 1.0000
31.5800 721.0000 1.0000
31.5900 720.0000 1.0000
31.6000 772.0000 1.0000
31.6100 728.0000 1.0000
31.6200 693.0000 1.0000
31.6300 683.0000 1.0000
31.6400 721.0000 1.0000
31.6500 715.0000 1.0000
31.6600 707.0000 1.0000
31.6700 705.0000 1.0000
31.6800 745.0000 1.0000
31.6900 728.0000 1.0000
31.7000 720.0000 1.0000
31.7100 716.0000 1.0000
31.7200 663.0000 1.0000
31.7300 693.0000 1.0000
31.7400 668.0000 1.0000
31.7500 669.0000 1.0000
31.7600 667.0000 1.0000
31.7700 722.0000 1.0000
31.7800 695.0000 1.0000
31.7900 680.0000 1.0000
31.8000 687.0000 1.0000
31.8100 713.0000 1.0000
31.8200 700.0000 1.0000
31.8300 732.0000 1.0000
31.8400 715.0000 1.0000
31.8500 661.0000 1.0000
31.8600 735.0000 1.0000
31.8700 716.0000 1.0000
31.8800 682.0000 1.0000
31.8900 663.0000 1.0000
31.9000 680.0000 1.0000
31.9100 667.0000 1.0000
31.9200 718.0000 1.0000
31.9300 724.0000 1.0000
31.9400 686.0000 1.0000
31.9500 703.0000 1.0000
31.9600 729.0000 1.0000
31.9700 673.0000 1.0000
31.9800 717.0000 1.0000
31.9900 674.0000 1.0000
32.0000 698.0000 1.0000
32.0100 666.0000 1.0000
32.0200 719.0000 1.0000
32.0300 741.0000 1.0000
32.0400 681.0000 1.0000
32.0500 724.0000 1.0000
32.0600 683.0000 1.0000
32.0700 654.0000 1.0000
32.0800 675.0000 1.0000
32.0900 719.0000 1.0000
32.1000 707.0000 1.0000
32.1100 715.0000 1.0000
32.1200 672.0000 1.0000
32.1300 659.0000 1.0000
32.1400 720.0000 1.0000
32.1500 730.0000 1.0000
32.1600 703.0000 1.0000
32.1700 657.0000 1.0000
32.1800 709.0000 1.0000
32.1900 715.0000 1.0000
32.2000 675.0000 1.0000
32.2100 652.0000 1.0000
32.2200 695.0000 1.0000
32.2300 719.0000 1.0000
32.2400 690.0000 1.0000
32.2500 682.0000 1.0000
32.2600 699.0000 1.0000
32.2700 683.0000 1.0000
32.2800 689.0000 1.0000
32.2900 696.0000 1.0000
32.3000 690.0000 1.0000
32.3100 689.0000 1.0000
32.3200 610.0000 1.0000
32.3300 685.0000 1.0000
32.3400 678.0000 1.0000
32.3500 676.0000 1.0000
32.3600 698.0000 1.0000
32.3700 692.0000 1.0000
32.3800 684.0000 1.0000
32.3900 673.0000 1.0000
32.4000 688.0000 1.0000
32.4100 666.0000 1.0000
32.4200 658.0000 1.0000
32.4300 654.0000 1.0000
32.4400 630.0000 1.0000
32.4500 685.0000 1.0000
32.4600 675.0000 1.0000
32.4700 640.0000 1.0000
32.4800 642.0000 1.0000
32.4900 682.0000 1.0000
32.5000 695.0000 1.0000
32.5100 670.0000 1.0000
32.5200 663.0000 1.0000
32.5300 679.0000 1.0000
32.5400 663.0000 1.0000
32.5500 679.0000 1.0000
32.5600 671.0000 1.0000
32.5700 653.0000 1.0000
32.5800 691.0000 1.0000
32.5900 695.0000 1.0000
32.6000 691.0000 1.0000
32.6100 682.0000 1.0000
32.6200 690.0000 1.0000
32.6300 633.0000 1.0000
32.6400 670.0000 1.0000
32.6500 680.0000 1.0000
32.6600 676.0000 1.0000
32.6700 708.0000 1.0000
32.6800 709.0000 1.0000
32.6900 642.0000 1.0000
32.7000 707.0000 1.0000
32.7100 654.0000 1.0000
32.7200 640.0000 1.0000
32.7300 693.0000 1.0000
32.7400 702.0000 1.0000
32.7500 654.0000 1.0000
32.7600 660.0000 1.0000
32.7700 671.0000 1.0000
32.7800 682.0000 1.0000
32.7900 704.0000 1.0000
32.8000 721.0000 1.0000
32.8100 690.0000 1.0000
32.8200 711.0000 1.0000
32.8300 691.0000 1.0000
32.8400 746.0000 1.0000
32.8500 716.0000 1.0000
32.8600 719.0000 1.0000
32.8700 695.0000 1.0000
32.8800 733.0000 1.0000
32.8900 760.0000 1.0000
32.9000 739.0000 1.0000
32.9100 755.0000 1.0000
32.9200 768.0000 1.0000
32.9300 737.0000 1.0000
32.9400 774.0000 1.0000
32.9500 766.0000 1.0000
32.9600 747.0000 1.0000
32.9700 787.0000 1.0000
32.9800 791.0000 1.0000
32.9900 794.0000 1.0000
33.0000 866.0000 1.0000
33.0100 885.0000 1.0000
33.0200 837.0000 1.0000
33.0300 900.0000 1.0000
33.0400 860.0000 1.0000
33.0500 869.0000 1.0000
33.0600 892.0000 1.0000
33.0700 910.0000 1.0000
33.0800 880.0000 1.0000
33.0900 846.0000 1.0000
33.1000 932.0000 1.0000
33.1100 924.0000 1.0000
33.1200 906.0000 1.0000
33.1300 911.0000 1.0000
33.1400 898.0000 1.0000
33.1500 930.0000 1.0000
33.1600 938.0000 1.0000
33.1700 920.0000 1.0000
33.1800 892.0000 1.0000
33.1900 849.0000 1.0000
33.2000 854.0000 1.0000
33.2100 826.0000 1.0000
33.2200 874.0000 1.0000
33.2300 848.0000 1.0000
33.2400 847.0000 1.0000
33.2500 805.0000 1.0000
33.2600 794.0000 1.0000
33.2700 839.0000 1.0000
33.2800 785.0000 1.0000
33.2900 817.0000 1.0000
33.3000 773.0000 1.0000
33.3100 782.0000 1.0000
33.3200 823.0000 1.0000
33.3300 772.0000 1.0000
33.3400 812.0000 1.0000
33.3500 798.0000 1.0000
33.3600 821.0000 1.0000
33.3700 787.0000 1.0000
33.3800 817.0000 1.0000
33.3900 818.0000 1.0000
33.4000 864.0000 1.0000
33.4100 851.0000 1.0000
33.4200 888.0000 1.0000
33.4300 851.0000 1.0000
33.4400 884.0000 1.0000
33.4500 945.0000 1.0000
33.4600 937.0000 1.0000
33.4700 916.0000 1.0000
33.4800 947.0000 1.0000
33.4900 979.0000 1.0000
33.5000 994.0000 1.0000
33.5100 1032.0000 1.0000
33.5200 1135.0000 1.0000
33.5300 1174.0000 1.0000
33.5400 1187.0000 1.0000
33.5500 1210.0000 1.0000
33.5600 1293.0000 1.0000
33.5700 1285.0000 1.0000
33.5800 1408.0000 1.0000
33.5900 1525.0000 1.0000
33.6000 1471.0000 1.0000
33.6100 1536.0000 1.0000
33.6200 1639.0000 1.0000
33.6300 1625.0000 1.0000
33.6400 1616.0000 1.0000
33.6500 1618.0000 1.0000
33.6600 1643.0000 1.0000
33.6700 1646.0000 1.0000
33.6800 1670.0000 1.0000
33.6900 1617.0000 1.0000
33.7000 1625.0000 1.0000
33.7100 1541.0000 1.0000
33.7200 1576.0000 1.0000
33.7300 1458.0000 1.0000
33.7400 1356.0000 1.0000
33.7500 1373.0000 1.0000
33.7600 1285.0000 1.0000
33.7700 1229.0000 1.0000
33.7800 1222.0000 1.0000
33.7900 1151.0000 1.0000
33.8000 1172.0000 1.0000
33.8100 1078.0000 1.0000
33.8200 1059.0000 1.0000
33.8300 1000.0000 1.0000
33.8400 966.0000 1.0000
33.8500 972.0000 1.0000
33.8600 1012.0000 1.0000
33.8700 941.0000 1.0000
33.8800 902.0000 1.0000
33.8900 884.0000 1.0000
33.9000 838.0000 1.0000
33.9100 852.0000 1.0000
33.9200 778.0000 1.0000
33.9300 817.0000 1.0000
33.9400 762.0000 1.0000
33.9500 809.0000 1.0000
33.9600 785.0000 1.0000
33.9700 771.0000 1.0000
33.9800 773.0000 1.0000
33.9900 766.0000 1.0000
34.0000 742.0000 1.0000
34.0100 707.0000 1.0000
34.0200 742.0000 1.0000
34.0300 706.0000 1.0000
34.0400 739.0000 1.0000
34.0500 719.0000 1.0000
34.0600 698.0000 1.0000
34.0700 704.0000 1.0000
34.0800 687.0000 1.0000
34.0900 725.0000 1.0000
34.1000 697.0000 1.0000
34.1100 705.0000 1.0000
34.1200 692.0000 1.0000
34.1300 645.0000 1.0000
34.1400 682.0000 1.0000
34.1500 676.0000 1.0000
34.1600 682.0000 1.0000
34.1700 658.0000 1.0000
34.1800 672.0000 1.0000
34.1900 684.0000 1.0000
34.2000 656.0000 1.0000
34.2100 660.0000 1.0000
34.2200 623.0000 1.0000
34.2300 649.0000 1.0000
34.2400 642.0000 1.0000
34.2500 666.0000 1.0000
34.2600 669.0000 1.0000
34.2700 645.0000 1.0000
34.2800 633.0000 1.0000
34.2900 636.0000 1.0000
34.3000 625.0000 1.0000
34.3100 660.0000 1.0000
34.3200 642.0000 1.0000
34.3300 654.0000 1.0000
34.3400 677.0000 1.0000
34.3500 626.0000 1.0000
34.3600 710.0000 1.0000
34.3700 644.0000 1.0000
34.3800 621.0000 1.0000
34.3900 614.0000 1.0000
34.4000 602.0000 1.0000
34.4100 572.0000 1.0000
34.4200 653.0000 1.0000
34.4300 627.0000 1.0000
34.4400 620.0000 1.0000
34.4500 688.0000 1.0000
34.4600 613.0000 1.0000
34.4700 640.0000 1.0000
34.4800 619.0000 1.0000
34.4900 615.0000 1.0000
34.5000 671.0000 1.0000
34.5100 625.0000 1.0000
34.5200 627.0000 1.0000
34.5300 642.0000 1.0000
34.5400 629.0000 1.0000
34.5500 612.0000 1.0000
34.5600 614.0000 1.0000
34.5700 603.0000 1.0000
34.5800 681.0000 1.0000
34.5900 660.0000 1.0000
34.6000 623.0000 1.0000
34.6100 621.0000 1.0000
34.6200 562.0000 1.0000
34.6300 596.0000 1.0000
34.6400 616.0000 1.0000
34.6500 592.0000 1.0000
34.6600 616.0000 1.0000
34.6700 630.0000 1.0000
34.6800 585.0000 1.0000
34.6900 605.0000 1.0000
34.7000 594.0000 1.0000
34.7100 595.0000 1.0000
34.7200 594.0000 1.0000
34.7300 588.0000 1.0000
34.7400 591.0000 1.0000
34.7500 600.0000 1.0000
34.7600 621.0000 1.0000
34.7700 602.0000 1.0000
34.7800 597.0000 1.0000
34.7900 589.0000 1.0000
34.8000 527.0000 1.0000
34.8100 588.0000 1.0000
34.8200 612.0000 1.0000
34.8300 598.0000 1.0000
34.8400 604.0000 1.0000
34.8500 563.0000 1.0000
34.8600 576.0000 1.0000
34.8700 587.0000 1.0000
34.8800 602.0000 1.0000
34.8900 606.0000 1.0000
34.9000 586.0000 1.0000
34.9100 592.0000 1.0000
34.9200 625.0000 1.0000
34.9300 609.0000 1.0000
34.9400 586.0000 1.0000
34.9500 596.0000 1.0000
34.9600 634.0000 1.0000
34.9700 599.0000 1.0000
34.9800 608.0000 1.0000
34.9900 603.0000 1.0000
35.0000 587.0000 1.0000
35.0100 602.0000 1.0000
35.0200 588.0000 1.0000
35.0300 588.0000 1.0000
35.0400 576.0000 1.0000
35.0500 586.0000 1.0000
35.0600 598.0000 1.0000
35.0700 610.0000 1.0000
35.0800 593.0000 1.0000
35.0900 642.0000 1.0000
35.1000 578.0000 1.0000
35.1100 571.0000 1.0000
35.1200 601.0000 1.0000
35.1300 589.0000 1.0000
35.1400 625.0000 1.0000
35.1500 589.0000 1.0000
35.1600 591.0000 1.0000
35.1700 581.0000 1.0000
35.1800 562.0000 1.0000
35.1900 591.0000 1.0000
35.2000 553.0000 1.0000
35.2100 578.0000 1.0000
35.2200 619.0000 1.0000
35.2300 589.0000 1.0000
35.2400 608.0000 1.0000
35.2500 655.0000 1.0000
35.2600 600.0000 1.0000
35.2700 582.0000 1.0000
35.2800 631.0000 1.0000
35.2900 660.0000 1.0000
35.3000 635.0000 1.0000
35.3100 578.0000 1.0000
35.3200 652.0000 1.0000
35.3300 647.0000 1.0000
35.3400 654.0000 1.0000
35.3500 673.0000 1.0000
35.3600 665.0000 1.0000
35.3700 665.0000 1.0000
35.3800 697.0000 1.0000
35.3900 669.0000 1.0000
35.4000 700.0000 1.0000
35.4100 697.0000 1.0000
35.4200 691.0000 1.0000
35.4300 731.0000 1.0000
35.4400 734.0000 1.0000
35.4500 718.0000 1.0000
35.4600 741.0000 1.0000
35.4700 794.0000 1.0000
35.4800 830.0000 1.0000
35.4900 863.0000 1.0000
35.5000 817.0000 1.0000
35.5100 813.0000 1.0000
35.5200 845.0000 1.0000
35.5300 931.0000 1.0000
35.5400 922.0000 1.0000
35.5500 985.0000 1.0000
35.5600 1013.0000 1.0000
35.5700 1017.0000 1.0000
35.5800 1018.0000 1.0000
35.5900 1022.0000 1.0000
35.6000 1005.0000 1.0000
35.6100 990.0000 1.0000
35.6200 978.0000 1.0000
35.6300 924.0000 1.0000
35.6400 937.0000 1.0000
35.6500 923.0000 1.0000
35.6600 891.0000 1.0000
35.6700 871.0000 1.0000
35.6800 827.0000 1.0000
35.6900 787.0000 1.0000
35.7000 758.0000 1.0000
35.7100 848.0000 1.0000
35.7200 750.0000 1.0000
35.7300 727.0000 1.0000
35.7400 737.0000 1.0000
35.7500 686.0000 1.0000
35.7600 697.0000 1.0000
35.7700 676.0000 1.0000
35.7800 645.0000 1.0000
35.7900 646.0000 1.0000
35.8000 649.0000 1.0000
35.8100 656.0000 1.0000
35.8200 595.0000 1.0000
35.8300 581.0000 1.0000
35.8400 617.0000 1.0000
35.8500 580.0000 1.0000
35.8600 614.0000 1.0000
35.8700 598.0000 1.0000
35.8800 586.0000 1.0000
35.8900 610.0000 1.0000
35.9000 607.0000 1.0000
35.9100 601.0000 1.0000
35.9200 589.0000 1.0000
35.9300 559.0000 1.0000
35.9400 580.0000 1.0000
35.9500 567.0000 1.0000
35.9600 578.0000 1.0000
35.9700 574.0000 1.0000
35.9800 599.0000 1.0000
35.9900 529.0000 1.0000
36.0000 541.0000 1.0000
36.0100 557.0000 1.0000
36.0200 554.0000 1.0000
36.0300 535.0000 1.0000
36.0400 553.0000 1.0000
36.0500 553.0000 1.0000
36.0600 544.0000 1.0000
36.0700 545.0000 1.0000
36.0800 563.0000 1.0000
36.0900 570.0000 1.0000
36.1000 573.0000 1.0000
36.1100 552.0000 1.0000
36.1200 580.0000 1.0000
36.1300 534.0000 1.0000
36.1400 536.0000 1.0000
36.1500 535.0000 1.0000
36.1600 574.0000 1.0000
36.1700 602.0000 1.0000
36.1800 553.0000 1.0000
36.1900 568.0000 1.0000
36.2000 493.0000 1.0000
36.2100 543.0000 1.0000
36.2200 519.0000 1.0000
36.2300 544.0000 1.0000
36.2400 519.0000 1.0000
36.2500 540.0000 1.0000
36.2600 561.0000 1.0000
36.2700 573.0000 1.0000
36.2800 546.0000 1.0000
36.2900 538.0000 1.0000
36.3000 540.0000 1.0000
36.3100 576.0000 1.0000
36.3200 550.0000 1.0000
36.3300 529.0000 1.0000
36.3400 547.0000 1.0000
36.3500 536.0000 1.0000
36.3600 524.0000 1.0000
36.3700 573.0000 1.0000
36.3800 530.0000 1.0000
36.3900 575.0000 1.0000
36.4000 585.0000 1.0000
36.4100 561.0000 1.0000
36.4200 561.0000 1.0000
36.4300 543.0000 1.0000
36.4400 551.0000 1.0000
36.4500 538.0000 1.0000
36.4600 543.0000 1.0000
36.4700 582.0000 1.0000
36.4800 518.0000 1.0000
36.4900 529.0000 1.0000
36.5000 592.0000 1.0000
36.5100 552.0000 1.0000
36.5200 542.0000 1.0000
36.5300 517.0000 1.0000
36.5400 525.0000 1.0000
36.5500 516.0000 1.0000
36.5600 536.0000 1.0000
36.5700 543.0000 1.0000
36.5800 541.0000 1.0000
36.5900 517.0000 1.0000
36.6000 555.0000 1.0000
36.6100 519.0000 1.0000
36.6200 549.0000 1.0000
36.6300 517.0000 1.0000
36.6400 551.0000 1.0000
36.6500 534.0000 1.0000
36.6600 553.0000 1.0000
36.6700 521.0000 1.0000
36.6800 521.0000 1.0000
36.6900 557.0000 1.0000
36.7000 560.0000 1.0000
36.7100 546.0000 1.0000
36.7200 539.0000 1.0000
36.7300 541.0000 1.0000
36.7400 545.0000 1.0000
36.7500 535.0000 1.0000
36.7600 495.0000 1.0000
36.7700 530.0000 1.0000
36.7800 544.0000 1.0000
36.7900 575.0000 1.0000
36.8000 559.0000 1.0000
36.8100 495.0000 1.0000
36.8200 525.0000 1.0000
36.8300 551.0000 1.0000
36.8400 551.0000 1.0000
36.8500 534.0000 1.0000
36.8600 530.0000 1.0000
36.8700 566.0000 1.0000
36.8800 524.0000 1.0000
36.8900 552.0000 1.0000
36.9000 541.0000 1.0000
36.9100 564.0000 1.0000
36.9200 530.0000 1.0000
36.9300 583.0000 1.0000
36.9400 540.0000 1.0000
36.9500 547.0000 1.0000
36.9600 543.0000 1.0000
36.9700 562.0000 1.0000
36.9800 537.0000 1.0000
36.9900 586.0000 1.0000
37.0000 557.0000 1.0000
37.0100 552.0000 1.0000
37.0200 542.0000 1.0000
37.0300 553.0000 1.0000
37.0400 550.0000 1.0000
37.0500 537.0000 1.0000
37.0600 549.0000 1.0000
37.0700 543.0000 1.0000
37.0800 531.0000 1.0000
37.0900 562.0000 1.0000
37.1000 542.0000 1.0000
37.1100 560.0000 1.0000
37.1200 545.0000 1.0000
37.1300 556.0000 1.0000
37.1400 568.0000 1.0000
37.1500 563.0000 1.0000
37.1600 538.0000 1.0000
37.1700 580.0000 1.0000
37.1800 575.0000 1.0000
37.1900 586.0000 1.0000
37.2000 559.0000 1.0000
37.2100 544.0000 1.0000
37.2200 589.0000 1.0000
37.2300 583.0000 1.0000
37.2400 562.0000 1.0000
37.2500 628.0000 1.0000
37.2600 620.0000 1.0000
37.2700 616.0000 1.0000
37.2800 621.0000 1.0000
37.2900 593.0000 1.0000
37.3000 621.0000 1.0000
37.3100 644.0000 1.0000
37.3200 652.0000 1.0000
37.3300 635.0000 1.0000
37.3400 697.0000 1.0000
37.3500 649.0000 1.0000
37.3600 636.0000 1.0000
37.3700 679.0000 1.0000
37.3800 652.0000 1.0000
37.3900 715.0000 1.0000
37.4000 739.0000 1.0000
37.4100 739.0000 1.0000
37.4200 748.0000 1.0000
37.4300 749.0000 1.0000
37.4400 834.0000 1.0000
37.4500 847.0000 1.0000
37.4600 905.0000 1.0000
37.4700 922.0000 1.0000
37.4800 957.0000 1.0000
37.4900 957.0000 1.0000
37.5000 1015.0000 1.0000
37.5100 1066.0000 1.0000
37.5200 1070.0000 1.0000
37.5300 1158.0000 1.0000
37.5400 1165.0000 1.0000
37.5500 1242.0000 1.0000
37.5600 1365.0000 1.0000
37.5700 1430.0000 1.0000
37.5800 1608.0000 1.0000
37.5900 1673.0000 1.0000
37.6000 1671.0000 1.0000
37.6100 1866.0000 1.0000
37.6200 1934.0000 1.0000
37.6300 2032.0000 1.0000
37.6400 2133.0000 1.0000
37.6500 2274.0000 1.0000
37.6600 2344.0000 1.0000
37.6700 2393.0000 1.0000
37.6800 2504.0000 1.0000
37.6900 2501.0000 1.0000
37.7000 2639.0000 1.0000
37.7100 2587.0000 1.0000
37.7200 2587.0000 1.0000
37.7300 2564.0000 1.0000
37.7400 2518.0000 1.0000
37.7500 2496.0000 1.0000
37.7600 2510.0000 1.0000
37.7700 2502.0000 1.0000
37.7800 2378.0000 1.0000
37.7900 2241.0000 1.0000
37.8000 2198.0000 1.0000
37.8100 2121.0000 1.0000
37.8200 2055.0000 1.0000
37.8300 1900.0000 1.0000
37.8400 1808.0000 1.0000
37.8500 1760.0000 1.0000
37.8600 1604.0000 1.0000
37.8700 1557.0000 1.0000
37.8800 1544.0000 1.0000
37.8900 1415.0000 1.0000
37.9000 1244.0000 1.0000
37.9100 1209.0000 1.0000
37.9200 1187.0000 1.0000
37.9300 1087.0000 1.0000
37.9400 1072.0000 1.0000
37.9500 1027.0000 1.0000
37.9600 974.0000 1.0000
37.9700 874.0000 1.0000
37.9800 904.0000 1.0000
37.9900 804.0000 1.0000
38.0000 788.0000 1.0000
38.0100 739.0000 1.0000
38.0200 712.0000 1.0000
38.0300 758.0000 1.0000
38.0400 682.0000 1.0000
38.0500 670.0000 1.0000
38.0600 667.0000 1.0000
38.0700 605.0000 1.0000
38.0800 629.0000 1.0000
38.0900 619.0000 1.0000
38.1000 600.0000 1.0000
38.1100 635.0000 1.0000
38.1200 628.0000 1.0000
38.1300 551.0000 1.0000
38.1400 594.0000 1.0000
38.1500 574.0000 1.0000
38.1600 600.0000 1.0000
38.1700 595.0000 1.0000
38.1800 560.0000 1.0000
38.1900 589.0000 1.0000
38.2000 556.0000 1.0000
38.2100 562.0000 1.0000
38.2200 548.0000 1.0000
38.2300 525.0000 1.0000
38.2400 549.0000 1.0000
38.2500 522.0000 1.0000
38.2600 521.0000 1.0000
38.2700 568.0000 1.0000
38.2800 517.0000 1.0000
38.2900 533.0000 1.0000
38.3000 540.0000 1.0000
38.3100 519.0000 1.0000
38.3200 533.0000 1.0000
38.3300 544.0000 1.0000
38.3400 491.0000 1.0000
38.3500 464.0000 1.0000
38.3600 511.0000 1.0000
38.3700 554.0000 1.0000
38.3800 502.0000 1.0000
38.3900 480.0000 1.0000
38.4000 509.0000 1.0000
38.4100 484.0000 1.0000
38.4200 521.0000 1.0000
38.4300 518.0000 1.0000
38.4400 492.0000 1.0000
38.4500 478.0000 1.0000
38.4600 474.0000 1.0000
38.4700 515.0000 1.0000
38.4800 517.0000 1.0000
38.4900 466.0000 1.0000
38.5000 478.0000 1.0000
38.5100 458.0000 1.0000
38.5200 498.0000 1.0000
38.5300 520.0000 1.0000
38.5400 520.0000 1.0000
38.5500 506.0000 1.0000
38.5600 523.0000 1.0000
38.5700 497.0000 1.0000
38.5800 525.0000 1.0000
38.5900 522.0000 1.0000
38.6000 511.0000 1.0000
38.6100 500.0000 1.0000
38.6200 484.0000 1.0000
38.6300 495.0000 1.0000
38.6400 561.0000 1.0000
38.6500 535.0000 1.0000
38.6600 501.0000 1.0000
38.6700 491.0000 1.0000
38.6800 488.0000 1.0000
38.6900 515.0000 1.0000
38.7000 537.0000 1.0000
38.7100 538.0000 1.0000
38.7200 543.0000 1.0000
38.7300 510.0000 1.0000
38.7400 513.0000 1.0000
38.7500 553.0000 1.0000
38.7600 523.0000 1.0000
38.7700 532.0000 1.0000
38.7800 524.0000 1.0000
38.7900 508.0000 1.0000
38.8000 511.0000 1.0000
38.8100 545.0000 1.0000
38.8200 549.0000 1.0000
38.8300 518.0000 1.0000
38.8400 498.0000 1.0000
38.8500 514.0000 1.0000
38.8600 496.0000 1.0000
38.8700 532.0000 1.0000
38.8800 522.0000 1.0000
38.8900 494.0000 1.0000
38.9000 483.0000 1.0000
38.9100 483.0000 1.0000
38.9200 484.0000 1.0000
38.9300 508.0000 1.0000
38.9400 471.0000 1.0000
38.9500 508.0000 1.0000
38.9600 523.0000 1.0000
38.9700 465.0000 1.0000
38.9800 491.0000 1.0000
38.9900 491.0000 1.0000
39.0000 488.0000 1.0000
39.0100 494.0000 1.0000
39.0200 485.0000 1.0000
39.0300 481.0000 1.0000
39.0400 496.0000 1.0000
39.0500 484.0000 1.0000
39.0600 498.0000 1.0000
39.0700 492.0000 1.0000
39.0800 481.0000 1.0000
39.0900 526.0000 1.0000
39.1000 450.0000 1.0000
39.1100 514.0000 1.0000
39.1200 545.0000 1.0000
39.1300 488.0000 1.0000
39.1400 474.0000 1.0000
39.1500 477.0000 1.0000
39.1600 476.0000 1.0000
39.1700 454.0000 1.0000
39.1800 465.0000 1.0000
39.1900 452.0000 1.0000
39.2000 516.0000 1.0000
39.2100 489.0000 1.0000
39.2200 474.0000 1.0000
39.2300 503.0000 1.0000
39.2400 463.0000 1.0000
39.2500 473.0000 1.0000
39.2600 479.0000 1.0000
39.2700 453.0000 1.0000
39.2800 476.0000 1.0000
39.2900 478.0000 1.0000
39.3000 470.0000 1.0000
39.3100 478.0000 1.0000
39.3200 464.0000 1.0000
39.3300 441.0000 1.0000
39.3400 455.0000 1.0000
39.3500 493.0000 1.0000
39.3600 488.0000 1.0000
39.3700 455.0000 1.0000
39.3800 475.0000 1.0000
39.3900 470.0000 1.0000
39.4000 467.0000 1.0000
39.4100 509.0000 1.0000
39.4200 460.0000 1.0000
39.4300 448.0000 1.0000
39.4400 481.0000 1.0000
39.4500 456.0000 1.0000
39.4600 455.0000 1.0000
39.4700 443.0000 1.0000
39.4800 428.0000 1.0000
39.4900 456.0000 1.0000
39.5000 500.0000 1.0000
39.5100 502.0000 1.0000
39.5200 492.0000 1.0000
39.5300 445.0000 1.0000
39.5400 464.0000 1.0000
39.5500 467.0000 1.0000
39.5600 458.0000 1.0000
39.5700 472.0000 1.0000
39.5800 444.0000 1.0000
39.5900 479.0000 1.0000
39.6000 461.0000 1.0000
39.6100 478.0000 1.0000
39.6200 433.0000 1.0000
39.6300 443.0000 1.0000
39.6400 453.0000 1.0000
39.6500 443.0000 1.0000
39.6600 479.0000 1.0000
39.6700 482.0000 1.0000
39.6800 456.0000 1.0000
39.6900 440.0000 1.0000
39.7000 457.0000 1.0000
39.7100 443.0000 1.0000
39.7200 464.0000 1.0000
39.7300 433.0000 1.0000
39.7400 454.0000 1.0000
39.7500 475.0000 1.0000
39.7600 448.0000 1.0000
39.7700 447.0000 1.0000
39.7800 467.0000 1.0000
39.7900 492.0000 1.0000
39.8000 444.0000 1.0000
39.8100 451.0000 1.0000
39.8200 431.0000 1.0000
39.8300 434.0000 1.0000
39.8400 446.0000 1.0000
39.8500 480.0000 1.0000
39.8600 474.0000 1.0000
39.8700 477.0000 1.0000
39.8800 455.0000 1.0000
39.8900 439.0000 1.0000
39.9000 412.0000 1.0000
39.9100 452.0000 1.0000
39.9200 463.0000 1.0000
39.9300 488.0000 1.0000
39.9400 486.0000 1.0000
39.9500 478.0000 1.0000
39.9600 498.0000 1.0000
39.9700 437.0000 1.0000
39.9800 473.0000 1.0000
39.9900 476.0000 1.0000
40.0000 447.0000 1.0000
40.0100 480.0000 1.0000
40.0200 487.0000 1.0000
40.0300 468.0000 1.0000
40.0400 455.0000 1.0000
40.0500 455.0000 1.0000
40.0600 446.0000 1.0000
40.0700 437.0000 1.0000
40.0800 467.0000 1.0000
40.0900 439.0000 1.0000
40.1000 446.0000 1.0000
40.1100 483.0000 1.0000
40.1200 493.0000 1.0000
40.1300 468.0000 1.0000
40.1400 486.0000 1.0000
40.1500 434.0000 1.0000
40.1600 459.0000 1.0000
40.1700 459.0000 1.0000
40.1800 471.0000 1.0000
40.1900 487.0000 1.0000
40.2000 437.0000 1.0000
40.2100 417.0000 1.0000
40.2200 425.0000 1.0000
40.2300 472.0000 1.0000
40.2400 466.0000 1.0000
40.2500 465.0000 1.0000
40.2600 449.0000 1.0000
40.2700 433.0000 1.0000
40.2800 429.0000 1.0000
40.2900 464.0000 1.0000
40.3000 444.0000 1.0000
40.3100 458.0000 1.0000
40.3200 445.0000 1.0000
40.3300 490.0000 1.0000
40.3400 439.0000 1.0000
40.3500 438.0000 1.0000
40.3600 451.0000 1.0000
40.3700 444.0000 1.0000
40.3800 440.0000 1.0000
40.3900 462.0000 1.0000
40.4000 473.0000 1.0000
40.4100 452.0000 1.0000
40.4200 470.0000 1.0000
40.4300 436.0000 1.0000
40.4400 445.0000 1.0000
40.4500 450.0000 1.0000
40.4600 434.0000 1.0000
40.4700 442.0000 1.0000
40.4800 440.0000 1.0000
40.4900 437.0000 1.0000
40.5000 434.0000 1.0000
40.5100 465.0000 1.0000
40.5200 450.0000 1.0000
40.5300 471.0000 1.0000
40.5400 460.0000 1.0000
40.5500 489.0000 1.0000
40.5600 464.0000 1.0000
40.5700 458.0000 1.0000
40.5800 441.0000 1.0000
40.5900 428.0000 1.0000
40.6000 465.0000 1.0000
40.6100 480.0000 1.0000
40.6200 412.0000 1.0000
40.6300 442.0000 1.0000
40.6400 421.0000 1.0000
40.6500 485.0000 1.0000
40.6600 453.0000 1.0000
40.6700 456.0000 1.0000
40.6800 452.0000 1.0000
40.6900 480.0000 1.0000
40.7000 454.0000 1.0000
40.7100 496.0000 1.0000
40.7200 465.0000 1.0000
40.7300 491.0000 1.0000
40.7400 502.0000 1.0000
40.7500 492.0000 1.0000
40.7600 513.0000 1.0000
40.7700 518.0000 1.0000
40.7800 492.0000 1.0000
40.7900 502.0000 1.0000
40.8000 506.0000 1.0000
40.8100 486.0000 1.0000
40.8200 528.0000 1.0000
40.8300 476.0000 1.0000
40.8400 517.0000 1.0000
40.8500 487.0000 1.0000
40.8600 489.0000 1.0000
40.8700 509.0000 1.0000
40.8800 528.0000 1.0000
40.8900 482.0000 1.0000
40.9000 486.0000 1.0000
40.9100 511.0000 1.0000
40.9200 487.0000 1.0000
40.9300 473.0000 1.0000
40.9400 488.0000 1.0000
40.9500 470.0000 1.0000
40.9600 465.0000 1.0000
40.9700 501.0000 1.0000
40.9800 469.0000 1.0000
40.9900 456.0000 1.0000
41.0000 449.0000 1.0000
41.0100 463.0000 1.0000
41.0200 446.0000 1.0000
41.0300 450.0000 1.0000
41.0400 477.0000 1.0000
41.0500 449.0000 1.0000
41.0600 446.0000 1.0000
41.0700 456.0000 1.0000
41.0800 418.0000 1.0000
41.0900 453.0000 1.0000
41.1000 457.0000 1.0000
41.1100 468.0000 1.0000
41.1200 472.0000 1.0000
41.1300 445.0000 1.0000
41.1400 471.0000 1.0000
41.1500 450.0000 1.0000
41.1600 473.0000 1.0000
41.1700 454.0000 1.0000
41.1800 480.0000 1.0000
41.1900 459.0000 1.0000
41.2000 443.0000 1.0000
41.2100 486.0000 1.0000
41.2200 459.0000 1.0000
41.2300 480.0000 1.0000
41.2400 448.0000 1.0000
41.2500 449.0000 1.0000
41.2600 473.0000 1.0000
41.2700 474.0000 1.0000
41.2800 445.0000 1.0000
41.2900 440.0000 1.0000
41.3000 429.0000 1.0000
41.3100 460.0000 1.0000
41.3200 460.0000 1.0000
41.3300 447.0000 1.0000
41.3400 448.0000 1.0000
41.3500 475.0000 1.0000
41.3600 422.0000 1.0000
41.3700 441.0000 1.0000
41.3800 440.0000 1.0000
41.3900 463.0000 1.0000
41.4000 461.0000 1.0000
41.4100 442.0000 1.0000
41.4200 432.0000 1.0000
41.4300 431.0000 1.0000
41.4400 408.0000 1.0000
41.4500 444.0000 1.0000
41.4600 425.0000 1.0000
41.4700 419.0000 1.0000
41.4800 435.0000 1.0000
41.4900 448.0000 1.0000
41.5000 442.0000 1.0000
41.5100 439.0000 1.0000
41.5200 435.0000 1.0000
41.5300 443.0000 1.0000
41.5400 444.0000 1.0000
41.5500 452.0000 1.0000
41.5600 431.0000 1.0000
41.5700 447.0000 1.0000
41.5800 447.0000 1.0000
41.5900 436.0000 1.0000
41.6000 458.0000 1.0000
41.6100 443.0000 1.0000
41.6200 444.0000 1.0000
41.6300 447.0000 1.0000
41.6400 433.0000 1.0000
41.6500 449.0000 1.0000
41.6600 468.0000 1.0000
41.6700 464.0000 1.0000
41.6800 440.0000 1.0000
41.6900 439.0000 1.0000
41.7000 398.0000 1.0000
41.7100 431.0000 1.0000
41.7200 423.0000 1.0000
41.7300 417.0000 1.0000
41.7400 408.0000 1.0000
41.7500 447.0000 1.0000
41.7600 444.0000 1.0000
41.7700 440.0000 1.0000
41.7800 408.0000 1.0000
41.7900 428.0000 1.0000
41.8000 421.0000 1.0000
41.8100 445.0000 1.0000
41.8200 447.0000 1.0000
41.8300 407.0000 1.0000
41.8400 391.0000 1.0000
41.8500 445.0000 1.0000
41.8600 445.0000 1.0000
41.8700 401.0000 1.0000
41.8800 429.0000 1.0000
41.8900 422.0000 1.0000
41.9000 419.0000 1.0000
41.9100 432.0000 1.0000
41.9200 485.0000 1.0000
41.9300 447.0000 1.0000
41.9400 409.0000 1.0000
41.9500 405.0000 1.0000
41.9600 390.0000 1.0000
41.9700 443.0000 1.0000
41.9800 417.0000 1.0000
41.9900 414.0000 1.0000
42.0000 448.0000 1.0000
42.0100 459.0000 1.0000
42.0200 459.0000 1.0000
42.0300 458.0000 1.0000
42.0400 402.0000 1.0000
42.0500 422.0000 1.0000
42.0600 404.0000 1.0000
42.0700 424.0000 1.0000
42.0800 434.0000 1.0000
42.0900 419.0000 1.0000
42.1000 413.0000 1.0000
42.1100 443.0000 1.0000
42.1200 445.0000 1.0000
42.1300 435.0000 1.0000
42.1400 444.0000 1.0000
42.1500 438.0000 1.0000
42.1600 447.0000 1.0000
42.1700 443.0000 1.0000
42.1800 447.0000 1.0000
42.1900 424.0000 1.0000
42.2000 422.0000 1.0000
42.2100 446.0000 1.0000
42.2200 468.0000 1.0000
42.2300 453.0000 1.0000
42.2400 449.0000 1.0000
42.2500 448.0000 1.0000
42.2600 465.0000 1.0000
42.2700 490.0000 1.0000
42.2800 479.0000 1.0000
42.2900 482.0000 1.0000
42.3000 490.0000 1.0000
42.3100 471.0000 1.0000
42.3200 455.0000 1.0000
42.3300 480.0000 1.0000
42.3400 451.0000 1.0000
42.3500 478.0000 1.0000
42.3600 452.0000 1.0000
42.3700 453.0000 1.0000
42.3800 512.0000 1.0000
42.3900 507.0000 1.0000
42.4000 490.0000 1.0000
42.4100 504.0000 1.0000
42.4200 491.0000 1.0000
42.4300 459.0000 1.0000
42.4400 466.0000 1.0000
42.4500 467.0000 1.0000
42.4600 487.0000 1.0000
42.4700 475.0000 1.0000
42.4800 485.0000 1.0000
42.4900 484.0000 1.0000
42.5000 445.0000 1.0000
42.5100 445.0000 1.0000
42.5200 438.0000 1.0000
42.5300 455.0000 1.0000
42.5400 474.0000 1.0000
42.5500 461.0000 1.0000
42.5600 472.0000 1.0000
42.5700 441.0000 1.0000
42.5800 472.0000 1.0000
42.5900 481.0000 1.0000
42.6000 419.0000 1.0000
42.6100 455.0000 1.0000
42.6200 436.0000 1.0000
42.6300 434.0000 1.0000
42.6400 506.0000 1.0000
42.6500 437.0000 1.0000
42.6600 477.0000 1.0000
42.6700 435.0000 1.0000
42.6800 453.0000 1.0000
42.6900 428.0000 1.0000
42.7000 430.0000 1.0000
42.7100 453.0000 1.0000
42.7200 451.0000 1.0000
42.7300 476.0000 1.0000
42.7400 441.0000 1.0000
42.7500 431.0000 1.0000
42.7600 436.0000 1.0000
42.7700 463.0000 1.0000
42.7800 424.0000 1.0000
42.7900 433.0000 1.0000
42.8000 447.0000 1.0000
42.8100 435.0000 1.0000
42.8200 444.0000 1.0000
42.8300 396.0000 1.0000
42.8400 458.0000 1.0000
42.8500 480.0000 1.0000
42.8600 464.0000 1.0000
42.8700 420.0000 1.0000
42.8800 426.0000 1.0000
42.8900 446.0000 1.0000
42.9000 420.0000 1.0000
42.9100 426.0000 1.0000
42.9200 420.0000 1.0000
42.9300 419.0000 1.0000
42.9400 439.0000 1.0000
42.9500 435.0000 1.0000
42.9600 434.0000 1.0000
42.9700 422.0000 1.0000
42.9800 442.0000 1.0000
42.9900 442.0000 1.0000
43.0000 424.0000 1.0000
43.0100 426.0000 1.0000
43.0200 404.0000 1.0000
43.0300 428.0000 1.0000
43.0400 445.0000 1.0000
43.0500 432.0000 1.0000
43.0600 420.0000 1.0000
43.0700 433.0000 1.0000
43.0800 434.0000 1.0000
43.0900 423.0000 1.0000
43.1000 465.0000 1.0000
43.1100 469.0000 1.0000
43.1200 417.0000 1.0000
43.1300 417.0000 1.0000
43.1400 401.0000 1.0000
43.1500 414.0000 1.0000
43.1600 407.0000 1.0000
43.1700 435.0000 1.0000
43.1800 409.0000 1.0000
43.1900 475.0000 1.0000
43.2000 452.0000 1.0000
43.2100 438.0000 1.0000
43.2200 413.0000 1.0000
43.2300 441.0000 1.0000
43.2400 435.0000 1.0000
43.2500 401.0000 1.0000
43.2600 438.0000 1.0000
43.2700 404.0000 1.0000
43.2800 406.0000 1.0000
43.2900 414.0000 1.0000
43.3000 435.0000 1.0000
43.3100 435.0000 1.0000
43.3200 431.0000 1.0000
43.3300 403.0000 1.0000
43.3400 457.0000 1.0000
43.3500 437.0000 1.0000
43.3600 426.0000 1.0000
43.3700 417.0000 1.0000
43.3800 429.0000 1.0000
43.3900 413.0000 1.0000
43.4000 461.0000 1.0000
43.4100 442.0000 1.0000
43.4200 431.0000 1.0000
43.4300 414.0000 1.0000
43.4400 431.0000 1.0000
43.4500 421.0000 1.0000
43.4600 406.0000 1.0000
43.4700 425.0000 1.0000
43.4800 405.0000 1.0000
43.4900 407.0000 1.0000
43.5000 399.0000 1.0000
43.5100 407.0000 1.0000
43.5200 391.0000 1.0000
43.5300 418.0000 1.0000
43.5400 467.0000 1.0000
43.5500 461.0000 1.0000
43.5600 459.0000 1.0000
43.5700 453.0000 1.0000
43.5800 449.0000 1.0000
43.5900 413.0000 1.0000
43.6000 425.0000 1.0000
43.6100 459.0000 1.0000
43.6200 431.0000 1.0000
43.6300 433.0000 1.0000
43.6400 424.0000 1.0000
43.6500 416.0000 1.0000
43.6600 436.0000 1.0000
43.6700 428.0000 1.0000
43.6800 422.0000 1.0000
43.6900 430.0000 1.0000
43.7000 451.0000 1.0000
43.7100 441.0000 1.0000
43.7200 428.0000 1.0000
43.7300 415.0000 1.0000
43.7400 475.0000 1.0000
43.7500 406.0000 1.0000
43.7600 442.0000 1.0000
43.7700 443.0000 1.0000
43.7800 445.0000 1.0000
43.7900 416.0000 1.0000
43.8000 419.0000 1.0000
43.8100 413.0000 1.0000
43.8200 420.0000 1.0000
43.8300 405.0000 1.0000
43.8400 368.0000 1.0000
43.8500 418.0000 1.0000
43.8600 440.0000 1.0000
43.8700 411.0000 1.0000
43.8800 396.0000 1.0000
43.8900 443.0000 1.0000
43.9000 441.0000 1.0000
43.9100 436.0000 1.0000
43.9200 434.0000 1.0000
43.9300 413.0000 1.0000
43.9400 458.0000 1.0000
43.9500 431.0000 1.0000
43.9600 432.0000 1.0000
43.9700 424.0000 1.0000
43.9800 432.0000 1.0000
43.9900 416.0000 1.0000
44.0000 413.0000 1.0000
44.0100 426.0000 1.0000
44.0200 373.0000 1.0000
44.0300 400.0000 1.0000
44.0400 388.0000 1.0000
44.0500 434.0000 1.0000
44.0600 404.0000 1.0000
44.0700 413.0000 1.0000
44.0800 408.0000 1.0000
44.0900 432.0000 1.0000
44.1000 432.0000 1.0000
44.1100 419.0000 1.0000
44.1200 407.0000 1.0000
44.1300 439.0000 1.0000
44.1400 455.0000 1.0000
44.1500 451.0000 1.0000
44.1600 450.0000 1.0000
44.1700 446.0000 1.0000
44.1800 397.0000 1.0000
44.1900 429.0000 1.0000
44.2000 385.0000 1.0000
44.2100 420.0000 1.0000
44.2200 408.0000 1.0000
44.2300 405.0000 1.0000
44.2400 414.0000 1.0000
44.2500 386.0000 1.0000
44.2600 392.0000 1.0000
44.2700 408.0000 1.0000
44.2800 436.0000 1.0000
44.2900 427.0000 1.0000
44.3000 406.0000 1.0000
44.3100 387.0000 1.0000
44.3200 392.0000 1.0000
44.3300 442.0000 1.0000
44.3400 380.0000 1.0000
44.3500 388.0000 1.0000
44.3600 384.0000 1.0000
44.3700 367.0000 1.0000
44.3800 402.0000 1.0000
44.3900 397.0000 1.0000
44.4000 412.0000 1.0000
44.4100 420.0000 1.0000
44.4200 391.0000 1.0000
44.4300 404.0000 1.0000
44.4400 437.0000 1.0000
44.4500 420.0000 1.0000
44.4600 428.0000 1.0000
44.4700 413.0000 1.0000
44.4800 409.0000 1.0000
44.4900 419.0000 1.0000
44.5000 411.0000 1.0000
44.5100 411.0000 1.0000
44.5200 417.0000 1.0000
44.5300 421.0000 1.0000
44.5400 417.0000 1.0000
44.5500 402.0000 1.0000
44.5600 421.0000 1.0000
44.5700 396.0000 1.0000
44.5800 404.0000 1.0000
44.5900 410.0000 1.0000
44.6000 423.0000 1.0000
44.6100 412.0000 1.0000
44.6200 434.0000 1.0000
44.6300 446.0000 1.0000
44.6400 418.0000 1.0000
44.6500 355.0000 1.0000
44.6600 394.0000 1.0000
44.6700 429.0000 1.0000
44.6800 423.0000 1.0000
44.6900 390.0000 1.0000
44.7000 394.0000 1.0000
44.7100 392.0000 1.0000
44.7200 403.0000 1.0000
44.7300 386.0000 1.0000
44.7400 400.0000 1.0000
44.7500 407.0000 1.0000
44.7600 432.0000 1.0000
44.7700 437.0000 1.0000
44.7800 406.0000 1.0000
44.7900 394.0000 1.0000
44.8000 447.0000 1.0000
44.8100 416.0000 1.0000
44.8200 405.0000 1.0000
44.8300 393.0000 1.0000
44.8400 422.0000 1.0000
44.8500 389.0000 1.0000
44.8600 418.0000 1.0000
44.8700 392.0000 1.0000
44.8800 421.0000 1.0000
44.8900 394.0000 1.0000
44.9000 423.0000 1.0000
44.9100 406.0000 1.0000
44.9200 413.0000 1.0000
44.9300 401.0000 1.0000
44.9400 390.0000 1.0000
44.9500 424.0000 1.0000
44.9600 403.0000 1.0000
44.9700 416.0000 1.0000
44.9800 406.0000 1.0000
44.9900 417.0000 1.0000
45.0000 368.0000 1.0000
45.0100 410.0000 1.0000
45.0200 430.0000 1.0000
45.0300 383.0000 1.0000
45.0400 373.0000 1.0000
45.0500 395.0000 1.0000
45.0600 437.0000 1.0000
45.0700 405.0000 1.0000
45.0800 377.0000 1.0000
45.0900 410.0000 1.0000
45.1000 403.0000 1.0000
45.1100 431.0000 1.0000
45.1200 417.0000 1.0000
45.1300 420.0000 1.0000
45.1400 402.0000 1.0000
45.1500 407.0000 1.0000
45.1600 421.0000 1.0000
45.1700 432.0000 1.0000
45.1800 409.0000 1.0000
45.1900 393.0000 1.0000
45.2000 399.0000 1.0000
45.2100 427.0000 1.0000
45.2200 386.0000 1.0000
45.2300 412.0000 1.0000
45.2400 404.0000 1.0000
45.2500 388.0000 1.0000
45.2600 403.0000 1.0000
45.2700 365.0000 1.0000
45.2800 446.0000 1.0000
45.2900 419.0000 1.0000
45.3000 422.0000 1.0000
45.3100 419.0000 1.0000
45.3200 376.0000 1.0000
45.3300 394.0000 1.0000
45.3400 398.0000 1.0000
45.3500 377.0000 1.0000
45.3600 401.0000 1.0000
45.3700 402.0000 1.0000
45.3800 428.0000 1.0000
45.3900 408.0000 1.0000
45.4000 422.0000 1.0000
45.4100 400.0000 1.0000
45.4200 386.0000 1.0000
45.4300 376.0000 1.0000
45.4400 421.0000 1.0000
45.4500 392.0000 1.0000
45.4600 421.0000 1.0000
45.4700 372.0000 1.0000
45.4800 399.0000 1.0000
45.4900 412.0000 1.0000
45.5000 417.0000 1.0000
45.5100 403.0000 1.0000
45.5200 388.0000 1.0000
45.5300 399.0000 1.0000
45.5400 391.0000 1.0000
45.5500 415.0000 1.0000
45.5600 413.0000 1.0000
45.5700 409.0000 1.0000
45.5800 421.0000 1.0000
45.5900 382.0000 1.0000
45.6000 402.0000 1.0000
45.6100 370.0000 1.0000
45.6200 400.0000 1.0000
45.6300 380.0000 1.0000
45.6400 395.0000 1.0000
45.6500 401.0000 1.0000
45.6600 420.0000 1.0000
45.6700 391.0000 1.0000
45.6800 390.0000 1.0000
45.6900 427.0000 1.0000
45.7000 369.0000 1.0000
45.7100 376.0000 1.0000
45.7200 405.0000 1.0000
45.7300 380.0000 1.0000
45.7400 374.0000 1.0000
45.7500 369.0000 1.0000
45.7600 396.0000 1.0000
45.7700 386.0000 1.0000
45.7800 379.0000 1.0000
45.7900 394.0000 1.0000
45.8000 402.0000 1.0000
45.8100 400.0000 1.0000
45.8200 403.0000 1.0000
45.8300 431.0000 1.0000
45.8400 396.0000 1.0000
45.8500 385.0000 1.0000
45.8600 373.0000 1.0000
45.8700 357.0000 1.0000
45.8800 353.0000 1.0000
45.8900 403.0000 1.0000
45.9000 388.0000 1.0000
45.9100 381.0000 1.0000
45.9200 412.0000 1.0000
45.9300 374.0000 1.0000
45.9400 379.0000 1.0000
45.9500 398.0000 1.0000
45.9600 386.0000 1.0000
45.9700 388.0000 1.0000
45.9800 416.0000 1.0000
45.9900 388.0000 1.0000
46.0000 375.0000 1.0000
46.0100 373.0000 1.0000
46.0200 409.0000 1.0000
46.0300 406.0000 1.0000
46.0400 403.0000 1.0000
46.0500 405.0000 1.0000
46.0600 415.0000 1.0000
46.0700 420.0000 1.0000
46.0800 406.0000 1.0000
46.0900 393.0000 1.0000
46.1000 406.0000 1.0000
46.1100 411.0000 1.0000
46.1200 420.0000 1.0000
46.1300 391.0000 1.0000
46.1400 425.0000 1.0000
46.1500 430.0000 1.0000
46.1600 432.0000 1.0000
46.1700 392.0000 1.0000
46.1800 425.0000 1.0000
46.1900 375.0000 1.0000
46.2000 420.0000 1.0000
46.2100 426.0000 1.0000
46.2200 377.0000 1.0000
46.2300 406.0000 1.0000
46.2400 424.0000 1.0000
46.2500 423.0000 1.0000
46.2600 378.0000 1.0000
46.2700 408.0000 1.0000
46.2800 381.0000 1.0000
46.2900 416.0000 1.0000
46.3000 403.0000 1.0000
46.3100 419.0000 1.0000
46.3200 410.0000 1.0000
46.3300 376.0000 1.0000
46.3400 389.0000 1.0000
46.3500 386.0000 1.0000
46.3600 398.0000 1.0000
46.3700 408.0000 1.0000
46.3800 405.0000 1.0000
46.3900 360.0000 1.0000
46.4000 405.0000 1.0000
46.4100 383.0000 1.0000
46.4200 375.0000 1.0000
46.4300 392.0000 1.0000
46.4400 381.0000 1.0000
46.4500 403.0000 1.0000
46.4600 399.0000 1.0000
46.4700 406.0000 1.0000
46.4800 412.0000 1.0000
46.4900 392.0000 1.0000
46.5000 362.0000 1.0000
46.5100 384.0000 1.0000
46.5200 365.0000 1.0000
46.5300 384.0000 1.0000
46.5400 371.0000 1.0000
46.5500 387.0000 1.0000
46.5600 388.0000 1.0000
46.5700 379.0000 1.0000
46.5800 395.0000 1.0000
46.5900 403.0000 1.0000
46.6000 403.0000 1.0000
46.6100 405.0000 1.0000
46.6200 384.0000 1.0000
46.6300 399.0000 1.0000
46.6400 399.0000 1.0000
46.6500 404.0000 1.0000
46.6600 386.0000 1.0000
46.6700 402.0000 1.0000
46.6800 412.0000 1.0000
46.6900 375.0000 1.0000
46.7000 370.0000 1.0000
46.7100 392.0000 1.0000
46.7200 402.0000 1.0000
46.7300 399.0000 1.0000
46.7400 422.0000 1.0000
46.7500 398.0000 1.0000
46.7600 372.0000 1.0000
46.7700 382.0000 1.0000
46.7800 384.0000 1.0000
46.7900 376.0000 1.0000
46.8000 382.0000 1.0000
46.8100 387.0000 1.0000
46.8200 422.0000 1.0000
46.8300 410.0000 1.0000
46.8400 355.0000 1.0000
46.8500 343.0000 1.0000
46.8600 361.0000 1.0000
46.8700 359.0000 1.0000
46.8800 379.0000 1.0000
46.8900 370.0000 1.0000
46.9000 385.0000 1.0000
46.9100 379.0000 1.0000
46.9200 353.0000 1.0000
46.9300 400.0000 1.0000
46.9400 376.0000 1.0000
46.9500 346.0000 1.0000
46.9600 391.0000 1.0000
46.9700 409.0000 1.0000
46.9800 391.0000 1.0000
46.9900 398.0000 1.0000
47.0000 379.0000 1.0000
47.0100 374.0000 1.0000
47.0200 385.0000 1.0000
47.0300 409.0000 1.0000
47.0400 384.0000 1.0000
47.0500 388.0000 1.0000
47.0600 393.0000 1.0000
47.0700 415.0000 1.0000
47.0800 396.0000 1.0000
47.0900 387.0000 1.0000
47.1000 370.0000 1.0000
47.1100 365.0000 1.0000
47.1200 375.0000 1.0000
47.1300 364.0000 1.0000
47.1400 389.0000 1.0000
47.1500 375.0000 1.0000
47.1600 384.0000 1.0000
47.1700 394.0000 1.0000
47.1800 380.0000 1.0000
47.1900 381.0000 1.0000
47.2000 366.0000 1.0000
47.2100 393.0000 1.0000
47.2200 398.0000 1.0000
47.2300 354.0000 1.0000
47.2400 398.0000 1.0000
47.2500 385.0000 1.0000
47.2600 392.0000 1.0000
47.2700 366.0000 1.0000
47.2800 374.0000 1.0000
47.2900 363.0000 1.0000
47.3000 387.0000 1.0000
47.3100 374.0000 1.0000
47.3200 373.0000 1.0000
47.3300 391.0000 1.0000
47.3400 372.0000 1.0000
47.3500 380.0000 1.0000
47.3600 387.0000 1.0000
47.3700 389.0000 1.0000
47.3800 391.0000 1.0000
47.3900 384.0000 1.0000
47.4000 363.0000 1.0000
47.4100 360.0000 1.0000
47.4200 338.0000 1.0000
47.4300 375.0000 1.0000
47.4400 354.0000 1.0000
47.4500 362.0000 1.0000
47.4600 423.0000 1.0000
47.4700 375.0000 1.0000
47.4800 388.0000 1.0000
47.4900 371.0000 1.0000
47.5000 383.0000 1.0000
47.5100 382.0000 1.0000
47.5200 433.0000 1.0000
47.5300 396.0000 1.0000
47.5400 385.0000 1.0000
47.5500 392.0000 1.0000
47.5600 363.0000 1.0000
47.5700 369.0000 1.0000
47.5800 375.0000 1.0000
47.5900 385.0000 1.0000
47.6000 405.0000 1.0000
47.6100 414.0000 1.0000
47.6200 364.0000 1.0000
47.6300 355.0000 1.0000
47.6400 403.0000 1.0000
47.6500 366.0000 1.0000
47.6600 406.0000 1.0000
47.6700 411.0000 1.0000
47.6800 384.0000 1.0000
47.6900 379.0000 1.0000
47.7000 374.0000 1.0000
47.7100 370.0000 1.0000
47.7200 383.0000 1.0000
47.7300 349.0000 1.0000
47.7400 348.0000 1.0000
47.7500 350.0000 1.0000
47.7600 388.0000 1.0000
47.7700 373.0000 1.0000
47.7800 381.0000 1.0000
47.7900 395.0000 1.0000
47.8000 383.0000 1.0000
47.8100 385.0000 1.0000
47.8200 358.0000 1.0000
47.8300 350.0000 1.0000
47.8400 369.0000 1.0000
47.8500 394.0000 1.0000
47.8600 375.0000 1.0000
47.8700 378.0000 1.0000
47.8800 394.0000 1.0000
47.8900 390.0000 1.0000
47.9000 387.0000 1.0000
47.9100 373.0000 1.0000
47.9200 361.0000 1.0000
47.9300 371.0000 1.0000
47.9400 369.0000 1.0000
47.9500 396.0000 1.0000
47.9600 352.0000 1.0000
47.9700 367.0000 1.0000
47.9800 385.0000 1.0000
47.9900 362.0000 1.0000
48.0000 339.0000 1.0000
48.0100 375.0000 1.0000
48.0200 370.0000 1.0000
48.0300 374.0000 1.0000
48.0400 377.0000 1.0000
48.0500 385.0000 1.0000
48.0600 338.0000 1.0000
48.0700 370.0000 1.0000
48.0800 376.0000 1.0000
48.0900 360.0000 1.0000
48.1000 372.0000 1.0000
48.1100 359.0000 1.0000
48.1200 355.0000 1.0000
48.1300 355.0000 1.0000
48.1400 387.0000 1.0000
48.1500 391.0000 1.0000
48.1600 396.0000 1.0000
48.1700 335.0000 1.0000
48.1800 365.0000 1.0000
48.1900 388.0000 1.0000
48.2000 338.0000 1.0000
48.2100 364.0000 1.0000
48.2200 350.0000 1.0000
48.2300 371.0000 1.0000
48.2400 358.0000 1.0000
48.2500 353.0000 1.0000
48.2600 386.0000 1.0000
48.2700 377.0000 1.0000
48.2800 375.0000 1.0000
48.2900 372.0000 1.0000
48.3000 382.0000 1.0000
48.3100 405.0000 1.0000
48.3200 412.0000 1.0000
48.3300 382.0000 1.0000
48.3400 378.0000 1.0000
48.3500 370.0000 1.0000
48.3600 380.0000 1.0000
48.3700 354.0000 1.0000
48.3800 435.0000 1.0000
48.3900 362.0000 1.0000
48.4000 386.0000 1.0000
48.4100 357.0000 1.0000
48.4200 349.0000 1.0000
48.4300 370.0000 1.0000
48.4400 382.0000 1.0000
48.4500 358.0000 1.0000
48.4600 347.0000 1.0000
48.4700 365.0000 1.0000
48.4800 361.0000 1.0000
48.4900 381.0000 1.0000
48.5000 342.0000 1.0000
48.5100 358.0000 1.0000
48.5200 367.0000 1.0000
48.5300 367.0000 1.0000
48.5400 373.0000 1.0000
48.5500 368.0000 1.0000
48.5600 390.0000 1.0000
48.5700 371.0000 1.0000
48.5800 360.0000 1.0000
48.5900 373.0000 1.0000
48.6000 375.0000 1.0000
48.6100 404.0000 1.0000
48.6200 374.0000 1.0000
48.6300 356.0000 1.0000
48.6400 375.0000 1.0000
48.6500 394.0000 1.0000
48.6600 375.0000 1.0000
48.6700 390.0000 1.0000
48.6800 374.0000 1.0000
48.6900 369.0000 1.0000
48.7000 382.0000 1.0000
48.7100 356.0000 1.0000
48.7200 349.0000 1.0000
48.7300 354.0000 1.0000
48.7400 374.0000 1.0000
48.7500 371.0000 1.0000
48.7600 387.0000 1.0000
48.7700 352.0000 1.0000
48.7800 358.0000 1.0000
48.7900 391.0000 1.0000
48.8000 341.0000 1.0000
48.8100 360.0000 1.0000
48.8200 349.0000 1.0000
48.8300 333.0000 1.0000
48.8400 367.0000 1.0000
48.8500 368.0000 1.0000
48.8600 361.0000 1.0000
48.8700 381.0000 1.0000
48.8800 398.0000 1.0000
48.8900 386.0000 1.0000
48.9000 377.0000 1.0000
48.9100 378.0000 1.0000
48.9200 356.0000 1.0000
48.9300 368.0000 1.0000
48.9400 363.0000 1.0000
48.9500 366.0000 1.0000
48.9600 387.0000 1.0000
48.9700 367.0000 1.0000
48.9800 334.0000 1.0000
48.9900 377.0000 1.0000
49.0000 353.0000 1.0000
49.0100 387.0000 1.0000
49.0200 396.0000 1.0000
49.0300 342.0000 1.0000
49.0400 377.0000 1.0000
49.0500 393.0000 1.0000
49.0600 394.0000 1.0000
49.0700 373.0000 1.0000
49.0800 369.0000 1.0000
49.0900 383.0000 1.0000
49.1000 381.0000 1.0000
49.1100 366.0000 1.0000
49.1200 367.0000 1.0000
49.1300 390.0000 1.0000
49.1400 390.0000 1.0000
49.1500 398.0000 1.0000
49.1600 380.0000 1.0000
49.1700 370.0000 1.0000
49.1800 389.0000 1.0000
49.1900 357.0000 1.0000
49.2000 389.0000 1.0000
49.2100 420.0000 1.0000
49.2200 409.0000 1.0000
49.2300 416.0000 1.0000
49.2400 385.0000 1.0000
49.2500 408.0000 1.0000
49.2600 391.0000 1.0000
49.2700 388.0000 1.0000
49.2800 433.0000 1.0000
49.2900 394.0000 1.0000
49.3000 399.0000 1.0000
49.3100 407.0000 1.0000
49.3200 412.0000 1.0000
49.3300 452.0000 1.0000
49.3400 425.0000 1.0000
49.3500 408.0000 1.0000
49.3600 454.0000 1.0000
49.3700 439.0000 1.0000
49.3800 469.0000 1.0000
49.3900 429.0000 1.0000
49.4000 419.0000 1.0000
49.4100 445.0000 1.0000
49.4200 409.0000 1.0000
49.4300 418.0000 1.0000
49.4400 401.0000 1.0000
49.4500 439.0000 1.0000
49.4600 445.0000 1.0000
49.4700 447.0000 1.0000
49.4800 416.0000 1.0000
49.4900 419.0000 1.0000
49.5000 423.0000 1.0000
49.5100 409.0000 1.0000
49.5200 421.0000 1.0000
49.5300 415.0000 1.0000
49.5400 408.0000 1.0000
49.5500 410.0000 1.0000
49.5600 408.0000 1.0000
49.5700 429.0000 1.0000
49.5800 401.0000 1.0000
49.5900 381.0000 1.0000
49.6000 385.0000 1.0000
49.6100 399.0000 1.0000
49.6200 386.0000 1.0000
49.6300 393.0000 1.0000
49.6400 411.0000 1.0000
49.6500 377.0000 1.0000
49.6600 385.0000 1.0000
49.6700 366.0000 1.0000
49.6800 359.0000 1.0000
49.6900 383.0000 1.0000
49.7000 379.0000 1.0000
49.7100 386.0000 1.0000
49.7200 385.0000 1.0000
49.7300 379.0000 1.0000
49.7400 393.0000 1.0000
49.7500 386.0000 1.0000
49.7600 377.0000 1.0000
49.7700 398.0000 1.0000
49.7800 366.0000 1.0000
49.7900 372.0000 1.0000
49.8000 371.0000 1.0000
49.8100 385.0000 1.0000
49.8200 375.0000 1.0000
49.8300 372.0000 1.0000
49.8400 367.0000 1.0000
49.8500 391.0000 1.0000
49.8600 371.0000 1.0000
49.8700 381.0000 1.0000
49.8800 366.0000 1.0000
49.8900 362.0000 1.0000
49.9000 385.0000 1.0000
49.9100 377.0000 1.0000
49.9200 390.0000 1.0000
49.9300 386.0000 1.0000
49.9400 366.0000 1.0000
49.9500 344.0000 1.0000
49.9600 363.0000 1.0000
49.9700 363.0000 1.0000
49.9800 371.0000 1.0000
49.9900 381.0000 1.0000
50.0000 370.0000 1.0000
50.0100 403.0000 1.0000
50.0200 372.0000 1.0000
50.0300 375.0000 1.0000
50.0400 381.0000 1.0000
50.0500 383.0000 1.0000
50.0600 370.0000 1.0000
50.0700 397.0000 1.0000
50.0800 364.0000 1.0000
50.0900 352.0000 1.0000
50.1000 384.0000 1.0000
50.1100 385.0000 1.0000
50.1200 385.0000 1.0000
50.1300 387.0000 1.0000
50.1400 396.0000 1.0000
50.1500 349.0000 1.0000
50.1600 353.0000 1.0000
50.1700 388.0000 1.0000
50.1800 403.0000 1.0000
50.1900 378.0000 1.0000
50.2000 371.0000 1.0000
50.2100 393.0000 1.0000
50.2200 390.0000 1.0000
50.2300 423.0000 1.0000
50.2400 377.0000 1.0000
50.2500 349.0000 1.0000
50.2600 372.0000 1.0000
50.2700 353.0000 1.0000
50.2800 346.0000 1.0000
50.2900 402.0000 1.0000
50.3000 386.0000 1.0000
50.3100 360.0000 1.0000
50.3200 365.0000 1.0000
50.3300 348.0000 1.0000
50.3400 378.0000 1.0000
50.3500 378.0000 1.0000
50.3600 387.0000 1.0000
50.3700 396.0000 1.0000
50.3800 363.0000 1.0000
50.3900 382.0000 1.0000
50.4000 398.0000 1.0000
50.4100 386.0000 1.0000
50.4200 355.0000 1.0000
50.4300 380.0000 1.0000
50.4400 402.0000 1.0000
50.4500 359.0000 1.0000
50.4600 375.0000 1.0000
50.4700 384.0000 1.0000
50.4800 372.0000 1.0000
50.4900 370.0000 1.0000
50.5000 354.0000 1.0000
50.5100 380.0000 1.0000
50.5200 372.0000 1.0000
50.5300 359.0000 1.0000
50.5400 390.0000 1.0000
50.5500 375.0000 1.0000
50.5600 403.0000 1.0000
50.5700 385.0000 1.0000
50.5800 388.0000 1.0000
50.5900 372.0000 1.0000
50.6000 373.0000 1.0000
50.6100 376.0000 1.0000
50.6200 344.0000 1.0000
50.6300 374.0000 1.0000
50.6400 376.0000 1.0000
50.6500 345.0000 1.0000
50.6600 374.0000 1.0000
50.6700 392.0000 1.0000
50.6800 395.0000 1.0000
50.6900 410.0000 1.0000
50.7000 344.0000 1.0000
50.7100 367.0000 1.0000
50.7200 377.0000 1.0000
50.7300 402.0000 1.0000
50.7400 409.0000 1.0000
50.7500 409.0000 1.0000
50.7600 383.0000 1.0000
50.7700 361.0000 1.0000
50.7800 393.0000 1.0000
50.7900 373.0000 1.0000
50.8000 406.0000 1.0000
50.8100 379.0000 1.0000
50.8200 372.0000 1.0000
50.8300 395.0000 1.0000
50.8400 383.0000 1.0000
50.8500 410.0000 1.0000
50.8600 413.0000 1.0000
50.8700 393.0000 1.0000
50.8800 394.0000 1.0000
50.8900 402.0000 1.0000
50.9000 375.0000 1.0000
50.9100 411.0000 1.0000
50.9200 421.0000 1.0000
50.9300 391.0000 1.0000
50.9400 412.0000 1.0000
50.9500 397.0000 1.0000
50.9600 409.0000 1.0000
50.9700 396.0000 1.0000
50.9800 390.0000 1.0000
50.9900 395.0000 1.0000
51.0000 413.0000 1.0000
51.0100 399.0000 1.0000
51.0200 436.0000 1.0000
51.0300 422.0000 1.0000
51.0400 431.0000 1.0000
51.0500 442.0000 1.0000
51.0600 410.0000 1.0000
51.0700 445.0000 1.0000
51.0800 432.0000 1.0000
51.0900 466.0000 1.0000
51.1000 461.0000 1.0000
51.1100 448.0000 1.0000
51.1200 461.0000 1.0000
51.1300 439.0000 1.0000
51.1400 476.0000 1.0000
51.1500 497.0000 1.0000
51.1600 512.0000 1.0000
51.1700 514.0000 1.0000
51.1800 524.0000 1.0000
51.1900 524.0000 1.0000
51.2000 572.0000 1.0000
51.2100 620.0000 1.0000
51.2200 613.0000 1.0000
51.2300 644.0000 1.0000
51.2400 646.0000 1.0000
51.2500 661.0000 1.0000
51.2600 663.0000 1.0000
51.2700 728.0000 1.0000
51.2800 778.0000 1.0000
51.2900 792.0000 1.0000
51.3000 827.0000 1.0000
51.3100 836.0000 1.0000
51.3200 887.0000 1.0000
51.3300 942.0000 1.0000
51.3400 1018.0000 1.0000
51.3500 1078.0000 1.0000
51.3600 1159.0000 1.0000
51.3700 1165.0000 1.0000
51.3800 1378.0000 1.0000
51.3900 1452.0000 1.0000
51.4000 1569.0000 1.0000
51.4100 1677.0000 1.0000
51.4200 1779.0000 1.0000
51.4300 1845.0000 1.0000
51.4400 1932.0000 1.0000
51.4500 2056.0000 1.0000
51.4600 2216.0000 1.0000
51.4700 2293.0000 1.0000
51.4800 2356.0000 1.0000
51.4900 2429.0000 1.0000
51.5000 2477.0000 1.0000
51.5100 2431.0000 1.0000
51.5200 2429.0000 1.0000
51.5300 2353.0000 1.0000
51.5400 2227.0000 1.0000
51.5500 2246.0000 1.0000
51.5600 2073.0000 1.0000
51.5700 2045.0000 1.0000
51.5800 2068.0000 1.0000
51.5900 1972.0000 1.0000
51.6000 1952.0000 1.0000
51.6100 1891.0000 1.0000
51.6200 1745.0000 1.0000
51.6300 1674.0000 1.0000
51.6400 1659.0000 1.0000
51.6500 1644.0000 1.0000
51.6600 1526.0000 1.0000
51.6700 1458.0000 1.0000
51.6800 1326.0000 1.0000
51.6900 1325.0000 1.0000
51.7000 1166.0000 1.0000
51.7100 1135.0000 1.0000
51.7200 1049.0000 1.0000
51.7300 1005.0000 1.0000
51.7400 923.0000 1.0000
51.7500 877.0000 1.0000
51.7600 875.0000 1.0000
51.7700 777.0000 1.0000
51.7800 733.0000 1.0000
51.7900 717.0000 1.0000
51.8000 663.0000 1.0000
51.8100 673.0000 1.0000
51.8200 588.0000 1.0000
51.8300 610.0000 1.0000
51.8400 568.0000 1.0000
51.8500 554.0000 1.0000
51.8600 563.0000 1.0000
51.8700 561.0000 1.0000
51.8800 514.0000 1.0000
51.8900 525.0000 1.0000
51.9000 499.0000 1.0000
51.9100 496.0000 1.0000
51.9200 453.0000 1.0000
51.9300 476.0000 1.0000
51.9400 512.0000 1.0000
51.9500 500.0000 1.0000
51.9600 468.0000 1.0000
51.9700 458.0000 1.0000
51.9800 437.0000 1.0000
51.9900 484.0000 1.0000
52.0000 439.0000 1.0000
52.0100 464.0000 1.0000
52.0200 431.0000 1.0000
52.0300 426.0000 1.0000
52.0400 463.0000 1.0000
52.0500 398.0000 1.0000
52.0600 413.0000 1.0000
52.0700 386.0000 1.0000
52.0800 449.0000 1.0000
52.0900 406.0000 1.0000
52.1000 422.0000 1.0000
52.1100 456.0000 1.0000
52.1200 402.0000 1.0000
52.1300 389.0000 1.0000
52.1400 370.0000 1.0000
52.1500 386.0000 1.0000
52.1600 382.0000 1.0000
52.1700 381.0000 1.0000
52.1800 400.0000 1.0000
52.1900 382.0000 1.0000
52.2000 364.0000 1.0000
52.2100 393.0000 1.0000
52.2200 393.0000 1.0000
52.2300 332.0000 1.0000
52.2400 382.0000 1.0000
52.2500 371.0000 1.0000
52.2600 351.0000 1.0000
52.2700 412.0000 1.0000
52.2800 368.0000 1.0000
52.2900 386.0000 1.0000
52.3000 374.0000 1.0000
52.3100 375.0000 1.0000
52.3200 366.0000 1.0000
52.3300 407.0000 1.0000
52.3400 402.0000 1.0000
52.3500 377.0000 1.0000
52.3600 375.0000 1.0000
52.3700 392.0000 1.0000
52.3800 389.0000 1.0000
52.3900 393.0000 1.0000
52.4000 405.0000 1.0000
52.4100 381.0000 1.0000
52.4200 372.0000 1.0000
52.4300 370.0000 1.0000
52.4400 400.0000 1.0000
52.4500 390.0000 1.0000
52.4600 374.0000 1.0000
52.4700 380.0000 1.0000
52.4800 389.0000 1.0000
52.4900 388.0000 1.0000
52.5000 359.0000 1.0000
52.5100 378.0000 1.0000
52.5200 372.0000 1.0000
52.5300 405.0000 1.0000
52.5400 394.0000 1.0000
52.5500 376.0000 1.0000
52.5600 349.0000 1.0000
52.5700 352.0000 1.0000
52.5800 342.0000 1.0000
52.5900 395.0000 1.0000
52.6000 336.0000 1.0000
52.6100 365.0000 1.0000
52.6200 361.0000 1.0000
52.6300 365.0000 1.0000
52.6400 373.0000 1.0000
52.6500 378.0000 1.0000
52.6600 393.0000 1.0000
52.6700 374.0000 1.0000
52.6800 357.0000 1.0000
52.6900 348.0000 1.0000
52.7000 346.0000 1.0000
52.7100 394.0000 1.0000
52.7200 373.0000 1.0000
52.7300 403.0000 1.0000
52.7400 349.0000 1.0000
52.7500 374.0000 1.0000
52.7600 347.0000 1.0000
52.7700 367.0000 1.0000
52.7800 356.0000 1.0000
52.7900 396.0000 1.0000
52.8000 357.0000 1.0000
52.8100 339.0000 1.0000
52.8200 339.0000 1.0000
52.8300 388.0000 1.0000
52.8400 343.0000 1.0000
52.8500 364.0000 1.0000
52.8600 352.0000 1.0000
52.8700 378.0000 1.0000
52.8800 344.0000 1.0000
52.8900 353.0000 1.0000
52.9000 349.0000 1.0000
52.9100 374.0000 1.0000
52.9200 365.0000 1.0000
52.9300 348.0000 1.0000
52.9400 372.0000 1.0000
52.9500 378.0000 1.0000
52.9600 385.0000 1.0000
52.9700 396.0000 1.0000
52.9800 360.0000 1.0000
52.9900 361.0000 1.0000
53.0000 349.0000 1.0000
53.0100 337.0000 1.0000
53.0200 368.0000 1.0000
53.0300 357.0000 1.0000
53.0400 334.0000 1.0000
53.0500 366.0000 1.0000
53.0600 356.0000 1.0000
53.0700 354.0000 1.0000
53.0800 382.0000 1.0000
53.0900 354.0000 1.0000
53.1000 372.0000 1.0000
53.1100 371.0000 1.0000
53.1200 385.0000 1.0000
53.1300 384.0000 1.0000
53.1400 346.0000 1.0000
53.1500 383.0000 1.0000
53.1600 367.0000 1.0000
53.1700 361.0000 1.0000
53.1800 392.0000 1.0000
53.1900 347.0000 1.0000
53.2000 373.0000 1.0000
53.2100 347.0000 1.0000
53.2200 345.0000 1.0000
53.2300 346.0000 1.0000
53.2400 357.0000 1.0000
53.2500 350.0000 1.0000
53.2600 360.0000 1.0000
53.2700 360.0000 1.0000
53.2800 355.0000 1.0000
53.2900 345.0000 1.0000
53.3000 346.0000 1.0000
53.3100 354.0000 1.0000
53.3200 340.0000 1.0000
53.3300 350.0000 1.0000
53.3400 362.0000 1.0000
53.3500 358.0000 1.0000
53.3600 339.0000 1.0000
53.3700 356.0000 1.0000
53.3800 379.0000 1.0000
53.3900 379.0000 1.0000
53.4000 345.0000 1.0000
53.4100 382.0000 1.0000
53.4200 357.0000 1.0000
53.4300 352.0000 1.0000
53.4400 357.0000 1.0000
53.4500 369.0000 1.0000
53.4600 381.0000 1.0000
53.4700 353.0000 1.0000
53.4800 348.0000 1.0000
53.4900 357.0000 1.0000
53.5000 371.0000 1.0000
53.5100 362.0000 1.0000
53.5200 371.0000 1.0000
53.5300 374.0000 1.0000
53.5400 345.0000 1.0000
53.5500 356.0000 1.0000
53.5600 375.0000 1.0000
53.5700 366.0000 1.0000
53.5800 381.0000 1.0000
53.5900 358.0000 1.0000
53.6000 342.0000 1.0000
53.6100 343.0000 1.0000
53.6200 357.0000 1.0000
53.6300 362.0000 1.0000
53.6400 374.0000 1.0000
53.6500 363.0000 1.0000
53.6600 387.0000 1.0000
53.6700 386.0000 1.0000
53.6800 348.0000 1.0000
53.6900 376.0000 1.0000
53.7000 351.0000 1.0000
53.7100 389.0000 1.0000
53.7200 374.0000 1.0000
53.7300 344.0000 1.0000
53.7400 366.0000 1.0000
53.7500 395.0000 1.0000
53.7600 338.0000 1.0000
53.7700 396.0000 1.0000
53.7800 364.0000 1.0000
53.7900 384.0000 1.0000
53.8000 393.0000 1.0000
53.8100 379.0000 1.0000
53.8200 367.0000 1.0000
53.8300 378.0000 1.0000
53.8400 361.0000 1.0000
53.8500 371.0000 1.0000
53.8600 394.0000 1.0000
53.8700 377.0000 1.0000
53.8800 386.0000 1.0000
53.8900 384.0000 1.0000
53.9000 398.0000 1.0000
53.9100 396.0000 1.0000
53.9200 356.0000 1.0000
53.9300 388.0000 1.0000
53.9400 380.0000 1.0000
53.9500 424.0000 1.0000
53.9600 403.0000 1.0000
53.9700 426.0000 1.0000
53.9800 426.0000 1.0000
53.9900 386.0000 1.0000
54.0000 443.0000 1.0000
54.0100 414.0000 1.0000
54.0200 461.0000 1.0000
54.0300 457.0000 1.0000
54.0400 442.0000 1.0000
54.0500 444.0000 1.0000
54.0600 408.0000 1.0000
54.0700 435.0000 1.0000
54.0800 411.0000 1.0000
54.0900 403.0000 1.0000
54.1000 395.0000 1.0000
54.1100 433.0000 1.0000
54.1200 422.0000 1.0000
54.1300 449.0000 1.0000
54.1400 430.0000 1.0000
54.1500 423.0000 1.0000
54.1600 399.0000 1.0000
54.1700 455.0000 1.0000
54.1800 432.0000 1.0000
54.1900 437.0000 1.0000
54.2000 441.0000 1.0000
54.2100 432.0000 1.0000
54.2200 413.0000 1.0000
54.2300 436.0000 1.0000
54.2400 394.0000 1.0000
54.2500 427.0000 1.0000
54.2600 399.0000 1.0000
54.2700 452.0000 1.0000
54.2800 399.0000 1.0000
54.2900 407.0000 1.0000
54.3000 402.0000 1.0000
54.3100 438.0000 1.0000
54.3200 429.0000 1.0000
54.3300 447.0000 1.0000
54.3400 430.0000 1.0000
54.3500 428.0000 1.0000
54.3600 416.0000 1.0000
54.3700 408.0000 1.0000
54.3800 429.0000 1.0000
54.3900 434.0000 1.0000
54.4000 475.0000 1.0000
54.4100 471.0000 1.0000
54.4200 495.0000 1.0000
54.4300 512.0000 1.0000
54.4400 519.0000 1.0000
54.4500 517.0000 1.0000
54.4600 524.0000 1.0000
54.4700 525.0000 1.0000
54.4800 547.0000 1.0000
54.4900 546.0000 1.0000
54.5000 565.0000 1.0000
54.5100 566.0000 1.0000
54.5200 554.0000 1.0000
54.5300 573.0000 1.0000
54.5400 552.0000 1.0000
54.5500 519.0000 1.0000
54.5600 557.0000 1.0000
54.5700 551.0000 1.0000
54.5800 543.0000 1.0000
54.5900 547.0000 1.0000
54.6000 521.0000 1.0000
54.6100 546.0000 1.0000
54.6200 524.0000 1.0000
54.6300 547.0000 1.0000
54.6400 540.0000 1.0000
54.6500 525.0000 1.0000
54.6600 522.0000 1.0000
54.6700 513.0000 1.0000
54.6800 525.0000 1.0000
54.6900 472.0000 1.0000
54.7000 476.0000 1.0000
54.7100 452.0000 1.0000
54.7200 464.0000 1.0000
54.7300 462.0000 1.0000
54.7400 472.0000 1.0000
54.7500 432.0000 1.0000
54.7600 419.0000 1.0000
54.7700 438.0000 1.0000
54.7800 434.0000 1.0000
54.7900 437.0000 1.0000
54.8000 406.0000 1.0000
54.8100 417.0000 1.0000
54.8200 388.0000 1.0000
54.8300 383.0000 1.0000
54.8400 387.0000 1.0000
54.8500 394.0000 1.0000
54.8600 434.0000 1.0000
54.8700 387.0000 1.0000
54.8800 376.0000 1.0000
54.8900 398.0000 1.0000
54.9000 360.0000 1.0000
54.9100 391.0000 1.0000
54.9200 371.0000 1.0000
54.9300 370.0000 1.0000
54.9400 370.0000 1.0000
54.9500 406.0000 1.0000
54.9600 377.0000 1.0000
54.9700 376.0000 1.0000
54.9800 357.0000 1.0000
54.9900 358.0000 1.0000
55.0000 356.0000 1.0000
55.0100 347.0000 1.0000
55.0200 382.0000 1.0000
55.0300 337.0000 1.0000
55.0400 347.0000 1.0000
55.0500 370.0000 1.0000
55.0600 353.0000 1.0000
55.0700 344.0000 1.0000
55.0800 346.0000 1.0000
55.0900 353.0000 1.0000
55.1000 348.0000 1.0000
55.1100 403.0000 1.0000
55.1200 372.0000 1.0000
55.1300 348.0000 1.0000
55.1400 375.0000 1.0000
55.1500 377.0000 1.0000
55.1600 332.0000 1.0000
55.1700 360.0000 1.0000
55.1800 349.0000 1.0000
55.1900 343.0000 1.0000
55.2000 340.0000 1.0000
55.2100 338.0000 1.0000
55.2200 330.0000 1.0000
55.2300 342.0000 1.0000
55.2400 359.0000 1.0000
55.2500 349.0000 1.0000
55.2600 357.0000 1.0000
55.2700 338.0000 1.0000
55.2800 351.0000 1.0000
55.2900 350.0000 1.0000
55.3000 341.0000 1.0000
55.3100 329.0000 1.0000
55.3200 349.0000 1.0000
55.3300 374.0000 1.0000
55.3400 329.0000 1.0000
55.3500 352.0000 1.0000
55.3600 368.0000 1.0000
55.3700 332.0000 1.0000
55.3800 341.0000 1.0000
55.3900 335.0000 1.0000
55.4000 334.0000 1.0000
55.4100 351.0000 1.0000
55.4200 321.0000 1.0000
55.4300 347.0000 1.0000
55.4400 329.0000 1.0000
55.4500 337.0000 1.0000
55.4600 370.0000 1.0000
55.4700 338.0000 1.0000
55.4800 357.0000 1.0000
55.4900 349.0000 1.0000
55.5000 333.0000 1.0000
55.5100 336.0000 1.0000
55.5200 339.0000 1.0000
55.5300 353.0000 1.0000
55.5400 358.0000 1.0000
55.5500 342.0000 1.0000
55.5600 342.0000 1.0000
55.5700 379.0000 1.0000
55.5800 361.0000 1.0000
55.5900 346.0000 1.0000
55.6000 354.0000 1.0000
55.6100 355.0000 1.0000
55.6200 327.0000 1.0000
55.6300 341.0000 1.0000
55.6400 354.0000 1.0000
55.6500 369.0000 1.0000
55.6600 363.0000 1.0000
55.6700 375.0000 1.0000
55.6800 344.0000 1.0000
55.6900 332.0000 1.0000
55.7000 369.0000 1.0000
55.7100 325.0000 1.0000
55.7200 355.0000 1.0000
55.7300 353.0000 1.0000
55.7400 347.0000 1.0000
55.7500 354.0000 1.0000
55.7600 356.0000 1.0000
55.7700 344.0000 1.0000
55.7800 340.0000 1.0000
55.7900 348.0000 1.0000
55.8000 317.0000 1.0000
55.8100 333.0000 1.0000
55.8200 380.0000 1.0000
55.8300 336.0000 1.0000
55.8400 339.0000 1.0000
55.8500 364.0000 1.0000
55.8600 339.0000 1.0000
55.8700 332.0000 1.0000
55.8800 324.0000 1.0000
55.8900 327.0000 1.0000
55.9000 342.0000 1.0000
55.9100 339.0000 1.0000
55.9200 328.0000 1.0000
55.9300 372.0000 1.0000
55.9400 376.0000 1.0000
55.9500 357.0000 1.0000
55.9600 340.0000 1.0000
55.9700 320.0000 1.0000
55.9800 372.0000 1.0000
55.9900 302.0000 1.0000
56.0000 335.0000 1.0000
56.0100 351.0000 1.0000
56.0200 353.0000 1.0000
56.0300 358.0000 1.0000
56.0400 362.0000 1.0000
56.0500 362.0000 1.0000
56.0600 322.0000 1.0000
56.0700 373.0000 1.0000
56.0800 369.0000 1.0000
56.0900 342.0000 1.0000
56.1000 341.0000 1.0000
56.1100 333.0000 1.0000
56.1200 352.0000 1.0000
56.1300 369.0000 1.0000
56.1400 320.0000 1.0000
56.1500 332.0000 1.0000
56.1600 367.0000 1.0000
56.1700 316.0000 1.0000
56.1800 363.0000 1.0000
56.1900 356.0000 1.0000
56.2000 313.0000 1.0000
56.2100 338.0000 1.0000
56.2200 353.0000 1.0000
56.2300 362.0000 1.0000
56.2400 329.0000 1.0000
56.2500 324.0000 1.0000
56.2600 345.0000 1.0000
56.2700 346.0000 1.0000
56.2800 338.0000 1.0000
56.2900 345.0000 1.0000
56.3000 324.0000 1.0000
56.3100 330.0000 1.0000
56.3200 351.0000 1.0000
56.3300 354.0000 1.0000
56.3400 372.0000 1.0000
56.3500 329.0000 1.0000
56.3600 334.0000 1.0000
56.3700 342.0000 1.0000
56.3800 365.0000 1.0000
56.3900 335.0000 1.0000
56.4000 355.0000 1.0000
56.4100 324.0000 1.0000
56.4200 365.0000 1.0000
56.4300 312.0000 1.0000
56.4400 338.0000 1.0000
56.4500 358.0000 1.0000
56.4600 334.0000 1.0000
56.4700 315.0000 1.0000
56.4800 317.0000 1.0000
56.4900 339.0000 1.0000
56.5000 367.0000 1.0000
56.5100 331.0000 1.0000
56.5200 345.0000 1.0000
56.5300 352.0000 1.0000
56.5400 336.0000 1.0000
56.5500 342.0000 1.0000
56.5600 365.0000 1.0000
56.5700 357.0000 1.0000
56.5800 312.0000 1.0000
56.5900 323.0000 1.0000
56.6000 339.0000 1.0000
56.6100 346.0000 1.0000
56.6200 332.0000 1.0000
56.6300 343.0000 1.0000
56.6400 346.0000 1.0000
56.6500 340.0000 1.0000
56.6600 354.0000 1.0000
56.6700 331.0000 1.0000
56.6800 358.0000 1.0000
56.6900 350.0000 1.0000
56.7000 329.0000 1.0000
56.7100 333.0000 1.0000
56.7200 365.0000 1.0000
56.7300 360.0000 1.0000
56.7400 349.0000 1.0000
56.7500 356.0000 1.0000
56.7600 364.0000 1.0000
56.7700 364.0000 1.0000
56.7800 330.0000 1.0000
56.7900 337.0000 1.0000
56.8000 331.0000 1.0000
56.8100 354.0000 1.0000
56.8200 338.0000 1.0000
56.8300 345.0000 1.0000
56.8400 335.0000 1.0000
56.8500 348.0000 1.0000
56.8600 336.0000 1.0000
56.8700 339.0000 1.0000
56.8800 380.0000 1.0000
56.8900 363.0000 1.0000
56.9000 340.0000 1.0000
56.9100 379.0000 1.0000
56.9200 333.0000 1.0000
56.9300 334.0000 1.0000
56.9400 304.0000 1.0000
56.9500 348.0000 1.0000
56.9600 348.0000 1.0000
56.9700 357.0000 1.0000
56.9800 345.0000 1.0000
56.9900 344.0000 1.0000
57.0000 338.0000 1.0000
57.0100 328.0000 1.0000
57.0200 320.0000 1.0000
57.0300 339.0000 1.0000
57.0400 321.0000 1.0000
57.0500 348.0000 1.0000
57.0600 364.0000 1.0000
57.0700 334.0000 1.0000
57.0800 341.0000 1.0000
57.0900 344.0000 1.0000
57.1000 324.0000 1.0000
57.1100 322.0000 1.0000
57.1200 372.0000 1.0000
57.1300 340.0000 1.0000
57.1400 340.0000 1.0000
57.1500 352.0000 1.0000
57.1600 365.0000 1.0000
57.1700 338.0000 1.0000
57.1800 333.0000 1.0000
57.1900 331.0000 1.0000
57.2000 348.0000 1.0000
57.2100 359.0000 1.0000
57.2200 369.0000 1.0000
57.2300 355.0000 1.0000
57.2400 350.0000 1.0000
57.2500 347.0000 1.0000
57.2600 330.0000 1.0000
57.2700 335.0000 1.0000
57.2800 342.0000 1.0000
57.2900 352.0000 1.0000
57.3000 334.0000 1.0000
57.3100 339.0000 1.0000
57.3200 347.0000 1.0000
57.3300 343.0000 1.0000
57.3400 351.0000 1.0000
57.3500 338.0000 1.0000
57.3600 350.0000 1.0000
57.3700 345.0000 1.0000
57.3800 342.0000 1.0000
57.3900 349.0000 1.0000
57.4000 344.0000 1.0000
57.4100 355.0000 1.0000
57.4200 332.0000 1.0000
57.4300 349.0000 1.0000
57.4400 363.0000 1.0000
57.4500 396.0000 1.0000
57.4600 357.0000 1.0000
57.4700 366.0000 1.0000
57.4800 352.0000 1.0000
57.4900 361.0000 1.0000
57.5000 335.0000 1.0000
57.5100 334.0000 1.0000
57.5200 350.0000 1.0000
57.5300 357.0000 1.0000
57.5400 356.0000 1.0000
57.5500 373.0000 1.0000
57.5600 363.0000 1.0000
57.5700 342.0000 1.0000
57.5800 346.0000 1.0000
57.5900 377.0000 1.0000
57.6000 339.0000 1.0000
57.6100 365.0000 1.0000
57.6200 348.0000 1.0000
57.6300 351.0000 1.0000
57.6400 337.0000 1.0000
57.6500 352.0000 1.0000
57.6600 367.0000 1.0000
57.6700 364.0000 1.0000
57.6800 340.0000 1.0000
57.6900 325.0000 1.0000
57.7000 337.0000 1.0000
57.7100 330.0000 1.0000
57.7200 370.0000 1.0000
57.7300 333.0000 1.0000
57.7400 373.0000 1.0000
57.7500 356.0000 1.0000
57.7600 341.0000 1.0000
57.7700 361.0000 1.0000
57.7800 366.0000 1.0000
57.7900 356.0000 1.0000
57.8000 336.0000 1.0000
57.8100 345.0000 1.0000
57.8200 334.0000 1.0000
57.8300 356.0000 1.0000
57.8400 329.0000 1.0000
57.8500 311.0000 1.0000
57.8600 353.0000 1.0000
57.8700 373.0000 1.0000
57.8800 342.0000 1.0000
57.8900 355.0000 1.0000
57.9000 369.0000 1.0000
57.9100 341.0000 1.0000
57.9200 375.0000 1.0000
57.9300 345.0000 1.0000
57.9400 348.0000 1.0000
57.9500 329.0000 1.0000
57.9600 342.0000 1.0000
57.9700 354.0000 1.0000
57.9800 358.0000 1.0000
57.9900 360.0000 1.0000
58.0000 373.0000 1.0000
58.0100 356.0000 1.0000
58.0200 348.0000 1.0000
58.0300 343.0000 1.0000
58.0400 363.0000 1.0000
58.0500 360.0000 1.0000
58.0600 357.0000 1.0000
58.0700 312.0000 1.0000
58.0800 332.0000 1.0000
58.0900 326.0000 1.0000
58.1000 329.0000 1.0000
58.1100 346.0000 1.0000
58.1200 374.0000 1.0000
58.1300 330.0000 1.0000
58.1400 342.0000 1.0000
58.1500 359.0000 1.0000
58.1600 369.0000 1.0000
58.1700 327.0000 1.0000
58.1800 365.0000 1.0000
58.1900 351.0000 1.0000
58.2000 332.0000 1.0000
58.2100 317.0000 1.0000
58.2200 363.0000 1.0000
58.2300 356.0000 1.0000
58.2400 346.0000 1.0000
58.2500 346.0000 1.0000
58.2600 330.0000 1.0000
58.2700 321.0000 1.0000
58.2800 324.0000 1.0000
58.2900 365.0000 1.0000
58.3000 342.0000 1.0000
58.3100 346.0000 1.0000
58.3200 349.0000 1.0000
58.3300 318.0000 1.0000
58.3400 350.0000 1.0000
58.3500 326.0000 1.0000
58.3600 336.0000 1.0000
58.3700 361.0000 1.0000
58.3800 367.0000 1.0000
58.3900 329.0000 1.0000
58.4000 340.0000 1.0000
58.4100 354.0000 1.0000
58.4200 350.0000 1.0000
58.4300 340.0000 1.0000
58.4400 351.0000 1.0000
58.4500 339.0000 1.0000
58.4600 328.0000 1.0000
58.4700 335.0000 1.0000
58.4800 329.0000 1.0000
58.4900 341.0000 1.0000
58.5000 322.0000 1.0000
58.5100 341.0000 1.0000
58.5200 352.0000 1.0000
58.5300 335.0000 1.0000
58.5400 319.0000 1.0000
58.5500 354.0000 1.0000
58.5600 364.0000 1.0000
58.5700 358.0000 1.0000
58.5800 340.0000 1.0000
58.5900 351.0000 1.0000
58.6000 312.0000 1.0000
58.6100 360.0000 1.0000
58.6200 350.0000 1.0000
58.6300 313.0000 1.0000
58.6400 344.0000 1.0000
58.6500 346.0000 1.0000
58.6600 343.0000 1.0000
58.6700 366.0000 1.0000
58.6800 330.0000 1.0000
58.6900 353.0000 1.0000
58.7000 342.0000 1.0000
58.7100 331.0000 1.0000
58.7200 305.0000 1.0000
58.7300 334.0000 1.0000
58.7400 366.0000 1.0000
58.7500 343.0000 1.0000
58.7600 326.0000 1.0000
58.7700 307.0000 1.0000
58.7800 344.0000 1.0000
58.7900 316.0000 1.0000
58.8000 327.0000 1.0000
58.8100 331.0000 1.0000
58.8200 332.0000 1.0000
58.8300 330.0000 1.0000
58.8400 331.0000 1.0000
58.8500 331.0000 1.0000
58.8600 327.0000 1.0000
58.8700 338.0000 1.0000
58.8800 338.0000 1.0000
58.8900 358.0000 1.0000
58.9000 336.0000 1.0000
58.9100 344.0000 1.0000
58.9200 336.0000 1.0000
58.9300 316.0000 1.0000
58.9400 328.0000 1.0000
58.9500 334.0000 1.0000
58.9600 330.0000 1.0000
58.9700 309.0000 1.0000
58.9800 340.0000 1.0000
58.9900 342.0000 1.0000
59.0000 344.0000 1.0000
59.0100 326.0000 1.0000
59.0200 342.0000 1.0000
59.0300 326.0000 1.0000
59.0400 312.0000 1.0000
59.0500 334.0000 1.0000
59.0600 351.0000 1.0000
59.0700 331.0000 1.0000
59.0800 320.0000 1.0000
59.0900 314.0000 1.0000
59.1000 346.0000 1.0000
59.1100 368.0000 1.0000
59.1200 332.0000 1.0000
59.1300 347.0000 1.0000
59.1400 357.0000 1.0000
59.1500 318.0000 1.0000
59.1600 329.0000 1.0000
59.1700 347.0000 1.0000
59.1800 370.0000 1.0000
59.1900 372.0000 1.0000
59.2000 327.0000 1.0000
59.2100 365.0000 1.0000
59.2200 346.0000 1.0000
59.2300 325.0000 1.0000
59.2400 358.0000 1.0000
59.2500 362.0000 1.0000
59.2600 346.0000 1.0000
59.2700 339.0000 1.0000
59.2800 345.0000 1.0000
59.2900 329.0000 1.0000
59.3000 349.0000 1.0000
59.3100 324.0000 1.0000
59.3200 331.0000 1.0000
59.3300 330.0000 1.0000
59.3400 364.0000 1.0000
59.3500 339.0000 1.0000
59.3600 357.0000 1.0000
59.3700 341.0000 1.0000
59.3800 331.0000 1.0000
59.3900 334.0000 1.0000
59.4000 341.0000 1.0000
59.4100 340.0000 1.0000
59.4200 340.0000 1.0000
59.4300 310.0000 1.0000
59.4400 314.0000 1.0000
59.4500 315.0000 1.0000
59.4600 361.0000 1.0000
59.4700 353.0000 1.0000
59.4800 375.0000 1.0000
59.4900 347.0000 1.0000
59.5000 352.0000 1.0000
59.5100 338.0000 1.0000
59.5200 311.0000 1.0000
59.5300 371.0000 1.0000
59.5400 340.0000 1.0000
59.5500 350.0000 1.0000
59.5600 336.0000 1.0000
59.5700 346.0000 1.0000
59.5800 331.0000 1.0000
59.5900 323.0000 1.0000
59.6000 356.0000 1.0000
59.6100 336.0000 1.0000
59.6200 336.0000 1.0000
59.6300 335.0000 1.0000
59.6400 316.0000 1.0000
59.6500 354.0000 1.0000
59.6600 352.0000 1.0000
59.6700 307.0000 1.0000
59.6800 325.0000 1.0000
59.6900 357.0000 1.0000
59.7000 360.0000 1.0000
59.7100 361.0000 1.0000
59.7200 316.0000 1.0000
59.7300 349.0000 1.0000
59.7400 323.0000 1.0000
59.7500 322.0000 1.0000
59.7600 345.0000 1.0000
59.7700 352.0000 1.0000
59.7800 321.0000 1.0000
59.7900 350.0000 1.0000
59.8000 352.0000 1.0000
59.8100 331.0000 1.0000
59.8200 346.0000 1.0000
59.8300 330.0000 1.0000
59.8400 367.0000 1.0000
59.8500 357.0000 1.0000
59.8600 331.0000 1.0000
59.8700 314.0000 1.0000
59.8800 319.0000 1.0000
59.8900 347.0000 1.0000
59.9000 322.0000 1.0000
59.9100 355.0000 1.0000
59.9200 348.0000 1.0000
59.9300 344.0000 1.0000
59.9400 344.0000 1.0000
59.9500 357.0000 1.0000
59.9600 308.0000 1.0000
59.9700 351.0000 1.0000
59.9800 366.0000 1.0000
59.9900 369.0000 1.0000
60.0000 340.0000 1.0000
60.0100 332.0000 1.0000
60.0200 364.0000 1.0000
60.0300 337.0000 1.0000
60.0400 365.0000 1.0000
60.0500 369.0000 1.0000
60.0600 327.0000 1.0000
60.0700 365.0000 1.0000
60.0800 333.0000 1.0000
60.0900 321.0000 1.0000
60.1000 319.0000 1.0000
60.1100 349.0000 1.0000
60.1200 352.0000 1.0000
60.1300 346.0000 1.0000
60.1400 349.0000 1.0000
60.1500 351.0000 1.0000
60.1600 329.0000 1.0000
60.1700 342.0000 1.0000
60.1800 333.0000 1.0000
60.1900 341.0000 1.0000
60.2000 367.0000 1.0000
60.2100 339.0000 1.0000
60.2200 346.0000 1.0000
60.2300 316.0000 1.0000
60.2400 310.0000 1.0000
60.2500 346.0000 1.0000
60.2600 352.0000 1.0000
60.2700 349.0000 1.0000
60.2800 363.0000 1.0000
60.2900 346.0000 1.0000
60.3000 362.0000 1.0000
60.3100 334.0000 1.0000
60.3200 326.0000 1.0000
60.3300 337.0000 1.0000
60.3400 350.0000 1.0000
60.3500 355.0000 1.0000
60.3600 333.0000 1.0000
60.3700 353.0000 1.0000
60.3800 343.0000 1.0000
60.3900 332.0000 1.0000
60.4000 346.0000 1.0000
60.4100 352.0000 1.0000
60.4200 335.0000 1.0000
60.4300 328.0000 1.0000
60.4400 311.0000 1.0000
60.4500 332.0000 1.0000
60.4600 353.0000 1.0000
60.4700 317.0000 1.0000
60.4800 346.0000 1.0000
60.4900 365.0000 1.0000
60.5000 340.0000 1.0000
60.5100 345.0000 1.0000
60.5200 336.0000 1.0000
60.5300 378.0000 1.0000
60.5400 342.0000 1.0000
60.5500 329.0000 1.0000
60.5600 349.0000 1.0000
60.5700 335.0000 1.0000
60.5800 329.0000 1.0000
60.5900 365.0000 1.0000
60.6000 337.0000 1.0000
60.6100 335.0000 1.0000
60.6200 309.0000 1.0000
60.6300 331.0000 1.0000
60.6400 328.0000 1.0000
60.6500 317.0000 1.0000
60.6600 336.0000 1.0000
60.6700 347.0000 1.0000
60.6800 331.0000 1.0000
60.6900 360.0000 1.0000
60.7000 342.0000 1.0000
60.7100 356.0000 1.0000
60.7200 343.0000 1.0000
60.7300 353.0000 1.0000
60.7400 366.0000 1.0000
60.7500 334.0000 1.0000
60.7600 351.0000 1.0000
60.7700 383.0000 1.0000
60.7800 341.0000 1.0000
60.7900 332.0000 1.0000
60.8000 304.0000 1.0000
60.8100 320.0000 1.0000
60.8200 329.0000 1.0000
60.8300 371.0000 1.0000
60.8400 323.0000 1.0000
60.8500 327.0000 1.0000
60.8600 329.0000 1.0000
60.8700 338.0000 1.0000
60.8800 303.0000 1.0000
60.8900 364.0000 1.0000
60.9000 371.0000 1.0000
60.9100 345.0000 1.0000
60.9200 339.0000 1.0000
60.9300 336.0000 1.0000
60.9400 346.0000 1.0000
60.9500 360.0000 1.0000
60.9600 365.0000 1.0000
60.9700 358.0000 1.0000
60.9800 373.0000 1.0000
60.9900 367.0000 1.0000
61.0000 357.0000 1.0000
61.0100 341.0000 1.0000
61.0200 369.0000 1.0000
61.0300 312.0000 1.0000
61.0400 350.0000 1.0000
61.0500 355.0000 1.0000
61.0600 361.0000 1.0000
61.0700 339.0000 1.0000
61.0800 360.0000 1.0000
61.0900 383.0000 1.0000
61.1000 329.0000 1.0000
61.1100 342.0000 1.0000
61.1200 339.0000 1.0000
61.1300 379.0000 1.0000
61.1400 392.0000 1.0000
61.1500 365.0000 1.0000
61.1600 365.0000 1.0000
61.1700 382.0000 1.0000
61.1800 381.0000 1.0000
61.1900 413.0000 1.0000
61.2000 417.0000 1.0000
61.2100 395.0000 1.0000
61.2200 413.0000 1.0000
61.2300 416.0000 1.0000
61.2400 422.0000 1.0000
61.2500 402.0000 1.0000
61.2600 405.0000 1.0000
61.2700 414.0000 1.0000
61.2800 440.0000 1.0000
61.2900 452.0000 1.0000
61.3000 448.0000 1.0000
61.3100 445.0000 1.0000
61.3200 496.0000 1.0000
61.3300 523.0000 1.0000
61.3400 464.0000 1.0000
61.3500 467.0000 1.0000
61.3600 496.0000 1.0000
61.3700 494.0000 1.0000
61.3800 511.0000 1.0000
61.3900 554.0000 1.0000
61.4000 529.0000 1.0000
61.4100 591.0000 1.0000
61.4200 617.0000 1.0000
61.4300 618.0000 1.0000
61.4400 588.0000 1.0000
61.4500 618.0000 1.0000
61.4600 638.0000 1.0000
61.4700 684.0000 1.0000
61.4800 676.0000 1.0000
61.4900 635.0000 1.0000
61.5000 680.0000 1.0000
61.5100 705.0000 1.0000
61.5200 749.0000 1.0000
61.5300 696.0000 1.0000
61.5400 736.0000 1.0000
61.5500 739.0000 1.0000
61.5600 737.0000 1.0000
61.5700 720.0000 1.0000
61.5800 738.0000 1.0000
61.5900 749.0000 1.0000
61.6000 674.0000 1.0000
61.6100 732.0000 1.0000
61.6200 705.0000 1.0000
61.6300 746.0000 1.0000
61.6400 712.0000 1.0000
61.6500 684.0000 1.0000
61.6600 697.0000 1.0000
61.6700 696.0000 1.0000
61.6800 644.0000 1.0000
61.6900 629.0000 1.0000
61.7000 651.0000 1.0000
61.7100 678.0000 1.0000
61.7200 622.0000 1.0000
61.7300 658.0000 1.0000
61.7400 594.0000 1.0000
61.7500 596.0000 1.0000
61.7600 612.0000 1.0000
61.7700 601.0000 1.0000
61.7800 570.0000 1.0000
61.7900 552.0000 1.0000
61.8000 504.0000 1.0000
61.8100 511.0000 1.0000
61.8200 522.0000 1.0000
61.8300 531.0000 1.0000
61.8400 512.0000 1.0000
61.8500 518.0000 1.0000
61.8600 472.0000 1.0000
61.8700 492.0000 1.0000
61.8800 531.0000 1.0000
61.8900 409.0000 1.0000
61.9000 438.0000 1.0000
61.9100 450.0000 1.0000
61.9200 459.0000 1.0000
61.9300 435.0000 1.0000
61.9400 447.0000 1.0000
61.9500 415.0000 1.0000
61.9600 417.0000 1.0000
61.9700 378.0000 1.0000
61.9800 438.0000 1.0000
61.9900 454.0000 1.0000
62.0000 461.0000 1.0000
62.0100 409.0000 1.0000
62.0200 379.0000 1.0000
62.0300 382.0000 1.0000
62.0400 400.0000 1.0000
62.0500 406.0000 1.0000
62.0600 381.0000 1.0000
62.0700 369.0000 1.0000
62.0800 402.0000 1.0000
62.0900 367.0000 1.0000
62.1000 389.0000 1.0000
62.1100 382.0000 1.0000
62.1200 394.0000 1.0000
62.1300 364.0000 1.0000
62.1400 374.0000 1.0000
62.1500 410.0000 1.0000
62.1600 391.0000 1.0000
62.1700 382.0000 1.0000
62.1800 363.0000 1.0000
62.1900 348.0000 1.0000
62.2000 355.0000 1.0000
62.2100 398.0000 1.0000
62.2200 387.0000 1.0000
62.2300 341.0000 1.0000
62.2400 379.0000 1.0000
62.2500 387.0000 1.0000
62.2600 391.0000 1.0000
62.2700 395.0000 1.0000
62.2800 371.0000 1.0000
62.2900 403.0000 1.0000
62.3000 377.0000 1.0000
62.3100 392.0000 1.0000
62.3200 378.0000 1.0000
62.3300 410.0000 1.0000
62.3400 377.0000 1.0000
62.3500 416.0000 1.0000
62.3600 411.0000 1.0000
62.3700 421.0000 1.0000
62.3800 399.0000 1.0000
62.3900 408.0000 1.0000
62.4000 417.0000 1.0000
62.4100 371.0000 1.0000
62.4200 418.0000 1.0000
62.4300 386.0000 1.0000
62.4400 413.0000 1.0000
62.4500 429.0000 1.0000
62.4600 393.0000 1.0000
62.4700 397.0000 1.0000
62.4800 381.0000 1.0000
62.4900 390.0000 1.0000
62.5000 345.0000 1.0000
62.5100 397.0000 1.0000
62.5200 368.0000 1.0000
62.5300 375.0000 1.0000
62.5400 402.0000 1.0000
62.5500 364.0000 1.0000
62.5600 388.0000 1.0000
62.5700 337.0000 1.0000
62.5800 374.0000 1.0000
62.5900 379.0000 1.0000
62.6000 350.0000 1.0000
62.6100 369.0000 1.0000
62.6200 363.0000 1.0000
62.6300 343.0000 1.0000
62.6400 325.0000 1.0000
62.6500 365.0000 1.0000
62.6600 356.0000 1.0000
62.6700 356.0000 1.0000
62.6800 359.0000 1.0000
62.6900 357.0000 1.0000
62.7000 351.0000 1.0000
62.7100 344.0000 1.0000
62.7200 376.0000 1.0000
62.7300 356.0000 1.0000
62.7400 345.0000 1.0000
62.7500 338.0000 1.0000
62.7600 338.0000 1.0000
62.7700 319.0000 1.0000
62.7800 333.0000 1.0000
62.7900 328.0000 1.0000
62.8000 347.0000 1.0000
62.8100 342.0000 1.0000
62.8200 324.0000 1.0000
62.8300 328.0000 1.0000
62.8400 354.0000 1.0000
62.8500 332.0000 1.0000
62.8600 362.0000 1.0000
62.8700 347.0000 1.0000
62.8800 342.0000 1.0000
62.8900 325.0000 1.0000
62.9000 347.0000 1.0000
62.9100 311.0000 1.0000
62.9200 328.0000 1.0000
62.9300 325.0000 1.0000
62.9400 347.0000 1.0000
62.9500 345.0000 1.0000
62.9600 300.0000 1.0000
62.9700 354.0000 1.0000
62.9800 323.0000 1.0000
62.9900 347.0000 1.0000
63.0000 376.0000 1.0000
63.0100 345.0000 1.0000
63.0200 350.0000 1.0000
63.0300 339.0000 1.0000
63.0400 325.0000 1.0000
63.0500 316.0000 1.0000
63.0600 361.0000 1.0000
63.0700 359.0000 1.0000
63.0800 328.0000 1.0000
63.0900 358.0000 1.0000
63.1000 342.0000 1.0000
63.1100 336.0000 1.0000
63.1200 381.0000 1.0000
63.1300 366.0000 1.0000
63.1400 334.0000 1.0000
63.1500 308.0000 1.0000
63.1600 348.0000 1.0000
63.1700 338.0000 1.0000
63.1800 338.0000 1.0000
63.1900 322.0000 1.0000
63.2000 361.0000 1.0000
63.2100 325.0000 1.0000
63.2200 311.0000 1.0000
63.2300 346.0000 1.0000
63.2400 312.0000 1.0000
63.2500 313.0000 1.0000
63.2600 328.0000 1.0000
63.2700 328.0000 1.0000
63.2800 327.0000 1.0000
63.2900 333.0000 1.0000
63.3000 326.0000 1.0000
63.3100 304.0000 1.0000
63.3200 356.0000 1.0000
63.3300 349.0000 1.0000
63.3400 341.0000 1.0000
63.3500 338.0000 1.0000
63.3600 358.0000 1.0000
63.3700 327.0000 1.0000
63.3800 326.0000 1.0000
63.3900 340.0000 1.0000
63.4000 338.0000 1.0000
63.4100 336.0000 1.0000
63.4200 341.0000 1.0000
63.4300 325.0000 1.0000
63.4400 305.0000 1.0000
63.4500 367.0000 1.0000
63.4600 350.0000 1.0000
63.4700 330.0000 1.0000
63.4800 339.0000 1.0000
63.4900 334.0000 1.0000
63.5000 337.0000 1.0000
63.5100 356.0000 1.0000
63.5200 357.0000 1.0000
63.5300 343.0000 1.0000
63.5400 347.0000 1.0000
63.5500 353.0000 1.0000
63.5600 335.0000 1.0000
63.5700 359.0000 1.0000
63.5800 330.0000 1.0000
63.5900 321.0000 1.0000
63.6000 344.0000 1.0000
63.6100 345.0000 1.0000
63.6200 326.0000 1.0000
63.6300 340.0000 1.0000
63.6400 372.0000 1.0000
63.6500 338.0000 1.0000
63.6600 340.0000 1.0000
63.6700 376.0000 1.0000
63.6800 353.0000 1.0000
63.6900 367.0000 1.0000
63.7000 363.0000 1.0000
63.7100 363.0000 1.0000
63.7200 342.0000 1.0000
63.7300 367.0000 1.0000
63.7400 371.0000 1.0000
63.7500 387.0000 1.0000
63.7600 395.0000 1.0000
63.7700 343.0000 1.0000
63.7800 377.0000 1.0000
63.7900 351.0000 1.0000
63.8000 390.0000 1.0000
63.8100 382.0000 1.0000
63.8200 380.0000 1.0000
63.8300 387.0000 1.0000
63.8400 381.0000 1.0000
63.8500 375.0000 1.0000
63.8600 425.0000 1.0000
63.8700 431.0000 1.0000
63.8800 450.0000 1.0000
63.8900 458.0000 1.0000
63.9000 428.0000 1.0000
63.9100 412.0000 1.0000
63.9200 441.0000 1.0000
63.9300 415.0000 1.0000
63.9400 426.0000 1.0000
63.9500 439.0000 1.0000
63.9600 448.0000 1.0000
63.9700 467.0000 1.0000
63.9800 458.0000 1.0000
63.9900 474.0000 1.0000
64.0000 435.0000 1.0000
64.0100 444.0000 1.0000
64.0200 441.0000 1.0000
64.0300 427.0000 1.0000
64.0400 441.0000 1.0000
64.0500 421.0000 1.0000
64.0600 428.0000 1.0000
64.0700 470.0000 1.0000
64.0800 413.0000 1.0000
64.0900 430.0000 1.0000
64.1000 431.0000 1.0000
64.1100 417.0000 1.0000
64.1200 401.0000 1.0000
64.1300 420.0000 1.0000
64.1400 397.0000 1.0000
64.1500 423.0000 1.0000
64.1600 423.0000 1.0000
64.1700 405.0000 1.0000
64.1800 400.0000 1.0000
64.1900 408.0000 1.0000
64.2000 433.0000 1.0000
64.2100 406.0000 1.0000
64.2200 394.0000 1.0000
64.2300 393.0000 1.0000
64.2400 401.0000 1.0000
64.2500 364.0000 1.0000
64.2600 371.0000 1.0000
64.2700 382.0000 1.0000
64.2800 391.0000 1.0000
64.2900 364.0000 1.0000
64.3000 358.0000 1.0000
64.3100 366.0000 1.0000
64.3200 376.0000 1.0000
64.3300 379.0000 1.0000
64.3400 359.0000 1.0000
64.3500 364.0000 1.0000
64.3600 373.0000 1.0000
64.3700 335.0000 1.0000
64.3800 347.0000 1.0000
64.3900 328.0000 1.0000
64.4000 349.0000 1.0000
64.4100 358.0000 1.0000
64.4200 368.0000 1.0000
64.4300 364.0000 1.0000
64.4400 387.0000 1.0000
64.4500 351.0000 1.0000
64.4600 333.0000 1.0000
64.4700 352.0000 1.0000
64.4800 355.0000 1.0000
64.4900 343.0000 1.0000
64.5000 342.0000 1.0000
64.5100 337.0000 1.0000
64.5200 361.0000 1.0000
64.5300 358.0000 1.0000
64.5400 369.0000 1.0000
64.5500 355.0000 1.0000
64.5600 362.0000 1.0000
64.5700 348.0000 1.0000
64.5800 355.0000 1.0000
64.5900 342.0000 1.0000
64.6000 354.0000 1.0000
64.6100 371.0000 1.0000
64.6200 359.0000 1.0000
64.6300 355.0000 1.0000
64.6400 355.0000 1.0000
64.6500 323.0000 1.0000
64.6600 386.0000 1.0000
64.6700 369.0000 1.0000
64.6800 355.0000 1.0000
64.6900 356.0000 1.0000
64.7000 357.0000 1.0000
64.7100 331.0000 1.0000
64.7200 344.0000 1.0000
64.7300 361.0000 1.0000
64.7400 362.0000 1.0000
64.7500 360.0000 1.0000
64.7600 349.0000 1.0000
64.7700 323.0000 1.0000
64.7800 333.0000 1.0000
64.7900 294.0000 1.0000
64.8000 337.0000 1.0000
64.8100 354.0000 1.0000
64.8200 335.0000 1.0000
64.8300 348.0000 1.0000
64.8400 355.0000 1.0000
64.8500 338.0000 1.0000
64.8600 338.0000 1.0000
64.8700 370.0000 1.0000
64.8800 359.0000 1.0000
64.8900 350.0000 1.0000
64.9000 364.0000 1.0000
64.9100 330.0000 1.0000
64.9200 340.0000 1.0000
64.9300 365.0000 1.0000
64.9400 377.0000 1.0000
64.9500 372.0000 1.0000
64.9600 369.0000 1.0000
64.9700 381.0000 1.0000
64.9800 341.0000 1.0000
64.9900 346.0000 1.0000
65.0000 376.0000 1.0000
65.0100 345.0000 1.0000
65.0200 364.0000 1.0000
65.0300 363.0000 1.0000
65.0400 381.0000 1.0000
65.0500 384.0000 1.0000
65.0600 360.0000 1.0000
65.0700 356.0000 1.0000
65.0800 367.0000 1.0000
65.0900 348.0000 1.0000
65.1000 392.0000 1.0000
65.1100 379.0000 1.0000
65.1200 367.0000 1.0000
65.1300 392.0000 1.0000
65.1400 388.0000 1.0000
65.1500 391.0000 1.0000
65.1600 391.0000 1.0000
65.1700 409.0000 1.0000
65.1800 441.0000 1.0000
65.1900 414.0000 1.0000
65.2000 408.0000 1.0000
65.2100 424.0000 1.0000
65.2200 445.0000 1.0000
65.2300 457.0000 1.0000
65.2400 447.0000 1.0000
65.2500 477.0000 1.0000
65.2600 507.0000 1.0000
65.2700 481.0000 1.0000
65.2800 471.0000 1.0000
65.2900 516.0000 1.0000
65.3000 532.0000 1.0000
65.3100 546.0000 1.0000
65.3200 555.0000 1.0000
65.3300 513.0000 1.0000
65.3400 542.0000 1.0000
65.3500 592.0000 1.0000
65.3600 642.0000 1.0000
65.3700 658.0000 1.0000
65.3800 668.0000 1.0000
65.3900 670.0000 1.0000
65.4000 695.0000 1.0000
65.4100 764.0000 1.0000
65.4200 768.0000 1.0000
65.4300 828.0000 1.0000
65.4400 849.0000 1.0000
65.4500 912.0000 1.0000
65.4600 938.0000 1.0000
65.4700 900.0000 1.0000
65.4800 968.0000 1.0000
65.4900 1059.0000 1.0000
65.5000 1027.0000 1.0000
65.5100 1009.0000 1.0000
65.5200 1092.0000 1.0000
65.5300 1146.0000 1.0000
65.5400 1186.0000 1.0000
65.5500 1150.0000 1.0000
65.5600 1175.0000 1.0000
65.5700 1183.0000 1.0000
65.5800 1195.0000 1.0000
65.5900 1213.0000 1.0000
65.6000 1135.0000 1.0000
65.6100 1155.0000 1.0000
65.6200 1099.0000 1.0000
65.6300 1096.0000 1.0000
65.6400 1025.0000 1.0000
65.6500 1025.0000 1.0000
65.6600 1015.0000 1.0000
65.6700 1020.0000 1.0000
65.6800 939.0000 1.0000
65.6900 969.0000 1.0000
65.7000 995.0000 1.0000
65.7100 958.0000 1.0000
65.7200 935.0000 1.0000
65.7300 932.0000 1.0000
65.7400 918.0000 1.0000
65.7500 876.0000 1.0000
65.7600 833.0000 1.0000
65.7700 839.0000 1.0000
65.7800 827.0000 1.0000
65.7900 778.0000 1.0000
65.8000 788.0000 1.0000
65.8100 754.0000 1.0000
65.8200 705.0000 1.0000
65.8300 668.0000 1.0000
65.8400 623.0000 1.0000
65.8500 625.0000 1.0000
65.8600 594.0000 1.0000
65.8700 597.0000 1.0000
65.8800 543.0000 1.0000
65.8900 549.0000 1.0000
65.9000 521.0000 1.0000
65.9100 525.0000 1.0000
65.9200 495.0000 1.0000
65.9300 489.0000 1.0000
65.9400 464.0000 1.0000
65.9500 474.0000 1.0000
65.9600 467.0000 1.0000
65.9700 469.0000 1.0000
65.9800 461.0000 1.0000
65.9900 437.0000 1.0000
66.0000 421.0000 1.0000
66.0100 416.0000 1.0000
66.0200 409.0000 1.0000
66.0300 412.0000 1.0000
66.0400 407.0000 1.0000
66.0500 383.0000 1.0000
66.0600 363.0000 1.0000
66.0700 352.0000 1.0000
66.0800 391.0000 1.0000
66.0900 403.0000 1.0000
66.1000 370.0000 1.0000
66.1100 358.0000 1.0000
66.1200 346.0000 1.0000
66.1300 359.0000 1.0000
66.1400 381.0000 1.0000
66.1500 373.0000 1.0000
66.1600 391.0000 1.0000
66.1700 361.0000 1.0000
66.1800 368.0000 1.0000
66.1900 335.0000 1.0000
66.2000 382.0000 1.0000
66.2100 354.0000 1.0000
66.2200 375.0000 1.0000
66.2300 358.0000 1.0000
66.2400 330.0000 1.0000
66.2500 347.0000 1.0000
66.2600 334.0000 1.0000
66.2700 387.0000 1.0000
66.2800 336.0000 1.0000
66.2900 322.0000 1.0000
66.3000 348.0000 1.0000
66.3100 324.0000 1.0000
66.3200 323.0000 1.0000
66.3300 346.0000 1.0000
66.3400 337.0000 1.0000
66.3500 329.0000 1.0000
66.3600 345.0000 1.0000
66.3700 323.0000 1.0000
66.3800 342.0000 1.0000
66.3900 345.0000 1.0000
66.4000 344.0000 1.0000
66.4100 356.0000 1.0000
66.4200 322.0000 1.0000
66.4300 320.0000 1.0000
66.4400 301.0000 1.0000
66.4500 345.0000 1.0000
66.4600 348.0000 1.0000
66.4700 338.0000 1.0000
66.4800 349.0000 1.0000
66.4900 336.0000 1.0000
66.5000 291.0000 1.0000
66.5100 339.0000 1.0000
66.5200 317.0000 1.0000
66.5300 332.0000 1.0000
66.5400 318.0000 1.0000
66.5500 317.0000 1.0000
66.5600 322.0000 1.0000
66.5700 358.0000 1.0000
66.5800 344.0000 1.0000
66.5900 360.0000 1.0000
66.6000 373.0000 1.0000
66.6100 303.0000 1.0000
66.6200 320.0000 1.0000
66.6300 315.0000 1.0000
66.6400 329.0000 1.0000
66.6500 307.0000 1.0000
66.6600 299.0000 1.0000
66.6700 346.0000 1.0000
66.6800 348.0000 1.0000
66.6900 342.0000 1.0000
66.7000 325.0000 1.0000
66.7100 318.0000 1.0000
66.7200 306.0000 1.0000
66.7300 323.0000 1.0000
66.7400 294.0000 1.0000
66.7500 320.0000 1.0000
66.7600 331.0000 1.0000
66.7700 341.0000 1.0000
66.7800 312.0000 1.0000
66.7900 298.0000 1.0000
66.8000 304.0000 1.0000
66.8100 312.0000 1.0000
66.8200 303.0000 1.0000
66.8300 302.0000 1.0000
66.8400 308.0000 1.0000
66.8500 299.0000 1.0000
66.8600 311.0000 1.0000
66.8700 337.0000 1.0000
66.8800 297.0000 1.0000
66.8900 315.0000 1.0000
66.9000 299.0000 1.0000
66.9100 307.0000 1.0000
66.9200 326.0000 1.0000
66.9300 344.0000 1.0000
66.9400 326.0000 1.0000
66.9500 280.0000 1.0000
66.9600 290.0000 1.0000
66.9700 278.0000 1.0000
66.9800 316.0000 1.0000
66.9900 332.0000 1.0000
67.0000 292.0000 1.0000
67.0100 317.0000 1.0000
67.0200 323.0000 1.0000
67.0300 312.0000 1.0000
67.0400 278.0000 1.0000
67.0500 302.0000 1.0000
67.0600 326.0000 1.0000
67.0700 318.0000 1.0000
67.0800 318.0000 1.0000
67.0900 299.0000 1.0000
67.1000 311.0000 1.0000
67.1100 290.0000 1.0000
67.1200 333.0000 1.0000
67.1300 323.0000 1.0000
67.1400 329.0000 1.0000
67.1500 311.0000 1.0000
67.1600 330.0000 1.0000
67.1700 344.0000 1.0000
67.1800 313.0000 1.0000
67.1900 335.0000 1.0000
67.2000 340.0000 1.0000
67.2100 323.0000 1.0000
67.2200 315.0000 1.0000
67.2300 339.0000 1.0000
67.2400 340.0000 1.0000
67.2500 299.0000 1.0000
67.2600 284.0000 1.0000
67.2700 323.0000 1.0000
67.2800 307.0000 1.0000
67.2900 307.0000 1.0000
67.3000 300.0000 1.0000
67.3100 320.0000 1.0000
67.3200 339.0000 1.0000
67.3300 312.0000 1.0000
67.3400 295.0000 1.0000
67.3500 327.0000 1.0000
67.3600 310.0000 1.0000
67.3700 331.0000 1.0000
67.3800 316.0000 1.0000
67.3900 321.0000 1.0000
67.4000 307.0000 1.0000
67.4100 328.0000 1.0000
67.4200 318.0000 1.0000
67.4300 310.0000 1.0000
67.4400 306.0000 1.0000
67.4500 298.0000 1.0000
67.4600 340.0000 1.0000
67.4700 306.0000 1.0000
67.4800 304.0000 1.0000
67.4900 288.0000 1.0000
67.5000 326.0000 1.0000
67.5100 313.0000 1.0000
67.5200 316.0000 1.0000
67.5300 309.0000 1.0000
67.5400 353.0000 1.0000
67.5500 287.0000 1.0000
67.5600 287.0000 1.0000
67.5700 294.0000 1.0000
67.5800 300.0000 1.0000
67.5900 297.0000 1.0000
67.6000 288.0000 1.0000
67.6100 296.0000 1.0000
67.6200 295.0000 1.0000
67.6300 300.0000 1.0000
67.6400 304.0000 1.0000
67.6500 321.0000 1.0000
67.6600 301.0000 1.0000
67.6700 325.0000 1.0000
67.6800 308.0000 1.0000
67.6900 284.0000 1.0000
67.7000 318.0000 1.0000
67.7100 329.0000 1.0000
67.7200 313.0000 1.0000
67.7300 316.0000 1.0000
67.7400 314.0000 1.0000
67.7500 336.0000 1.0000
67.7600 287.0000 1.0000
67.7700 290.0000 1.0000
67.7800 314.0000 1.0000
67.7900 291.0000 1.0000
67.8000 298.0000 1.0000
67.8100 295.0000 1.0000
67.8200 292.0000 1.0000
67.8300 300.0000 1.0000
67.8400 307.0000 1.0000
67.8500 285.0000 1.0000
67.8600 283.0000 1.0000
67.8700 305.0000 1.0000
67.8800 310.0000 1.0000
67.8900 320.0000 1.0000
67.9000 301.0000 1.0000
67.9100 302.0000 1.0000
67.9200 320.0000 1.0000
67.9300 297.0000 1.0000
67.9400 298.0000 1.0000
67.9500 303.0000 1.0000
67.9600 297.0000 1.0000
67.9700 286.0000 1.0000
67.9800 275.0000 1.0000
67.9900 285.0000 1.0000
68.0000 268.0000 1.0000
68.0100 297.0000 1.0000
68.0200 318.0000 1.0000
68.0300 290.0000 1.0000
68.0400 301.0000 1.0000
68.0500 293.0000 1.0000
68.0600 329.0000 1.0000
68.0700 302.0000 1.0000
68.0800 297.0000 1.0000
68.0900 295.0000 1.0000
68.1000 301.0000 1.0000
68.1100 320.0000 1.0000
68.1200 307.0000 1.0000
68.1300 320.0000 1.0000
68.1400 315.0000 1.0000
68.1500 287.0000 1.0000
68.1600 307.0000 1.0000
68.1700 282.0000 1.0000
68.1800 291.0000 1.0000
68.1900 301.0000 1.0000
68.2000 305.0000 1.0000
68.2100 296.0000 1.0000
68.2200 308.0000 1.0000
68.2300 286.0000 1.0000
68.2400 292.0000 1.0000
68.2500 309.0000 1.0000
68.2600 309.0000 1.0000
68.2700 314.0000 1.0000
68.2800 289.0000 1.0000
68.2900 322.0000 1.0000
68.3000 326.0000 1.0000
68.3100 317.0000 1.0000
68.3200 306.0000 1.0000
68.3300 306.0000 1.0000
68.3400 277.0000 1.0000
68.3500 308.0000 1.0000
68.3600 306.0000 1.0000
68.3700 318.0000 1.0000
68.3800 289.0000 1.0000
68.3900 310.0000 1.0000
68.4000 282.0000 1.0000
68.4100 287.0000 1.0000
68.4200 290.0000 1.0000
68.4300 300.0000 1.0000
68.4400 301.0000 1.0000
68.4500 277.0000 1.0000
68.4600 329.0000 1.0000
68.4700 322.0000 1.0000
68.4800 279.0000 1.0000
68.4900 290.0000 1.0000
68.5000 304.0000 1.0000
68.5100 304.0000 1.0000
68.5200 267.0000 1.0000
68.5300 282.0000 1.0000
68.5400 320.0000 1.0000
68.5500 301.0000 1.0000
68.5600 277.0000 1.0000
68.5700 316.0000 1.0000
68.5800 288.0000 1.0000
68.5900 277.0000 1.0000
68.6000 281.0000 1.0000
68.6100 280.0000 1.0000
68.6200 303.0000 1.0000
68.6300 300.0000 1.0000
68.6400 313.0000 1.0000
68.6500 289.0000 1.0000
68.6600 294.0000 1.0000
68.6700 333.0000 1.0000
68.6800 305.0000 1.0000
68.6900 290.0000 1.0000
68.7000 318.0000 1.0000
68.7100 322.0000 1.0000
68.7200 285.0000 1.0000
68.7300 293.0000 1.0000
68.7400 268.0000 1.0000
68.7500 332.0000 1.0000
68.7600 318.0000 1.0000
68.7700 297.0000 1.0000
68.7800 293.0000 1.0000
68.7900 297.0000 1.0000
68.8000 308.0000 1.0000
68.8100 295.0000 1.0000
68.8200 295.0000 1.0000
68.8300 278.0000 1.0000
68.8400 317.0000 1.0000
68.8500 329.0000 1.0000
68.8600 316.0000 1.0000
68.8700 318.0000 1.0000
68.8800 322.0000 1.0000
68.8900 308.0000 1.0000
68.9000 320.0000 1.0000
68.9100 314.0000 1.0000
68.9200 303.0000 1.0000
68.9300 284.0000 1.0000
68.9400 304.0000 1.0000
68.9500 302.0000 1.0000
68.9600 295.0000 1.0000
68.9700 315.0000 1.0000
68.9800 304.0000 1.0000
68.9900 289.0000 1.0000
69.0000 305.0000 1.0000
69.0100 299.0000 1.0000
69.0200 295.0000 1.0000
69.0300 323.0000 1.0000
69.0400 317.0000 1.0000
69.0500 319.0000 1.0000
69.0600 311.0000 1.0000
69.0700 309.0000 1.0000
69.0800 303.0000 1.0000
69.0900 279.0000 1.0000
69.1000 281.0000 1.0000
69.1100 295.0000 1.0000
69.1200 297.0000 1.0000
69.1300 325.0000 1.0000
69.1400 301.0000 1.0000
69.1500 288.0000 1.0000
69.1600 302.0000 1.0000
69.1700 286.0000 1.0000
69.1800 297.0000 1.0000
69.1900 278.0000 1.0000
69.2000 289.0000 1.0000
69.2100 283.0000 1.0000
69.2200 336.0000 1.0000
69.2300 331.0000 1.0000
69.2400 299.0000 1.0000
69.2500 294.0000 1.0000
69.2600 352.0000 1.0000
69.2700 313.0000 1.0000
69.2800 293.0000 1.0000
69.2900 286.0000 1.0000
69.3000 264.0000 1.0000
69.3100 299.0000 1.0000
69.3200 284.0000 1.0000
69.3300 266.0000 1.0000
69.3400 302.0000 1.0000
69.3500 279.0000 1.0000
69.3600 282.0000 1.0000
69.3700 288.0000 1.0000
69.3800 303.0000 1.0000
69.3900 332.0000 1.0000
69.4000 310.0000 1.0000
69.4100 322.0000 1.0000
69.4200 304.0000 1.0000
69.4300 293.0000 1.0000
69.4400 293.0000 1.0000
69.4500 260.0000 1.0000
69.4600 282.0000 1.0000
69.4700 279.0000 1.0000
69.4800 304.0000 1.0000
69.4900 308.0000 1.0000
69.5000 300.0000 1.0000
69.5100 299.0000 1.0000
69.5200 327.0000 1.0000
69.5300 279.0000 1.0000
69.5400 297.0000 1.0000
69.5500 287.0000 1.0000
69.5600 291.0000 1.0000
69.5700 295.0000 1.0000
69.5800 276.0000 1.0000
69.5900 306.0000 1.0000
69.6000 301.0000 1.0000
69.6100 284.0000 1.0000
69.6200 315.0000 1.0000
69.6300 313.0000 1.0000
69.6400 323.0000 1.0000
69.6500 284.0000 1.0000
69.6600 282.0000 1.0000
69.6700 265.0000 1.0000
69.6800 296.0000 1.0000
69.6900 281.0000 1.0000
69.7000 289.0000 1.0000
69.7100 290.0000 1.0000
69.7200 299.0000 1.0000
69.7300 285.0000 1.0000
69.7400 263.0000 1.0000
69.7500 305.0000 1.0000
69.7600 284.0000 1.0000
69.7700 305.0000 1.0000
69.7800 310.0000 1.0000
69.7900 298.0000 1.0000
69.8000 274.0000 1.0000
69.8100 263.0000 1.0000
69.8200 287.0000 1.0000
69.8300 294.0000 1.0000
69.8400 311.0000 1.0000
69.8500 315.0000 1.0000
69.8600 308.0000 1.0000
69.8700 294.0000 1.0000
69.8800 298.0000 1.0000
69.8900 319.0000 1.0000
69.9000 286.0000 1.0000
69.9100 289.0000 1.0000
69.9200 306.0000 1.0000
69.9300 298.0000 1.0000
69.9400 292.0000 1.0000
69.9500 284.0000 1.0000
69.9600 290.0000 1.0000
69.9700 302.0000 1.0000
69.9800 299.0000 1.0000
69.9900 265.0000 1.0000
70.0000 291.0000 1.0000
*RAS_INT_END
*RAS_TEMPERATURE_START
*RAS_TEMPERATURE_END
*RAS_DATA_END
