*RAS_DATA_START
*RAS_HEADER_START
*DISP_FMT_X "%.2f"
*DISP_FMT_Y "%.0f"
*DISP_FULLSCALE "15215.0000000000"
*DISP_LINE_COLOR "255.0000000000"
*DISP_LINE_STYLE "0.0000000000"
*DISP_LINE_WIDTH "0.2500000000"
*DISP_NOTE "測定データ-8"
*DISP_OFFSET_Y "0.0000000000"
*DISP_PEAKSEARCH_UNIT_Y "cps"
*DISP_RANGE_BOTTOM "0.0000000000"
*DISP_RANGE_LEFT "20.0000000000"
*DISP_RANGE_LOGCUTOFF "0.0100000000"
*DISP_RANGE_RIGHT "70.0000000000"
*DISP_RANGE_TOP "15215.0000000000"
*DISP_SCALE_MODE_Y "0.0000000000"
*DISP_TAB_NAME "2θ/θ"
*DISP_TITLE_Y "強度"
*DISP_UNIT_Y "cps"
*DISP_WINDOW_NAME "MSG_MACROENGINE"
*FILE_COMMENT " "
*FILE_MD5 ""
*FILE_MEMO " "
*FILE_OPERATOR "Administrator"
*FILE_SAMPLE " "
*FILE_TYPE "RAS_RAW"
*FILE_USERGROUP "システムマネージャ"
*FILE_VERSION "1.0000000000"
*HW_ATTACHMENT_ID "ATT0025"
*HW_ATTACHMENT_NAME "標準|Standard"
*HW_COUNTER_ID-0 "CUT0025"
*HW_COUNTER_ID-1 "CUT0020"
*HW_COUNTER_ID-2 "CUT0020"
*HW_COUNTER_ID-3 "CSL0021"
*HW_COUNTER_ID-4 "CMC0021"
*HW_COUNTER_NAME-0 "D/teX Ultra|D/teX Ultra"
*HW_COUNTER_NAME-1 "None|None"
*HW_COUNTER_NAME-2 "None|None"
*HW_COUNTER_NAME-3 "BBM|BBM"
*HW_COUNTER_NAME-4 "検出器モノクロメータ|Detector monochromator"
*HW_COUNTER_SELECT_NAME "D/teX Ultra|D/teX Ultra"
*HW_GONIOMETER_ID "GON0023"
*HW_GONIOMETER_NAME "SmartLab|SmartLab"
*HW_GONIOMETER_RADIUS-0 "90.0"
*HW_GONIOMETER_RADIUS-1 "114.0"
*HW_GONIOMETER_RADIUS-2 "190.0"
*HW_GONIOMETER_RADIUS-3 "300.0"
*HW_GONIOMETER_RADIUS-4 "187.0"
*HW_GONIOMETER_RADIUS-5 "300.0"
*HW_GONIOMETER_RADIUS-6 "113.0"
*HW_GONIOMETER_RADIUS-7 "331.0"
*HW_I_OPT_ID-0 "CBO0021"
*HW_I_OPT_ID-1 "ICR0023"
*HW_I_OPT_ID-2 "ISL0021"
*HW_I_OPT_ID-3 "ISO0021"
*HW_I_OPT_ID-4 "IAD0021"
*HW_I_OPT_ID-5 "IPR0001"
*HW_I_OPT_NAME-0 "CBOユニット|CBO unit"
*HW_I_OPT_NAME-1 "標準入射光学ユニット|Standard incident optical unit"
*HW_I_OPT_NAME-2 "標準入射スリットボックス|Standard incident slit box"
*HW_I_OPT_NAME-3 "入射平行スリット|Incident parallel slit"
*HW_I_OPT_NAME-4 "長手制限スリット|Length limiting slit"
*HW_I_OPT_NAME-5 "None|None"
*HW_R_ATTENUATER_AUTOMODE "0"
*HW_R_OPT_ID-0 "RSS0021"
*HW_R_OPT_ID-1 "RCR0023"
*HW_R_OPT_ID-2 "RSO0021"
*HW_R_OPT_ID-3 "RRS0021"
*HW_R_OPT_ID-4 "ATN0021"
*HW_R_OPT_ID-5 "RFL0021"
*HW_R_OPT_ID-6 "RAD0021"
*HW_R_OPT_NAME-0 "標準受光スリットボックス1|Standard receiving slit box # 1"
*HW_R_OPT_NAME-1 "標準受光光学ユニット1|Standard receiving unit # 1"
*HW_R_OPT_NAME-2 "標準受光光学ユニット2|Standard receiving optical unit # 2"
*HW_R_OPT_NAME-3 "標準受光スリットボックス2|Standard receiving slit box # 2"
*HW_R_OPT_NAME-4 "標準アッテネータ|Standard Attenuator"
*HW_R_OPT_NAME-5 "Cu Kβ|Cu K-beta"
*HW_R_OPT_NAME-6 "調整用受光スリット|Alignment receiving slit"
*HW_SAMPLE_HOLDER_ID "SMP0023"
*HW_SAMPLE_HOLDER_NAME "標準Zステージ|Standard Z stage"
*HW_XG_CURRENT_MAX "50"
*HW_XG_CURRENT_MIN "2"
*HW_XG_CURRENT_RESOLUTION "1"
*HW_XG_CURRENT_UNIT "mA"
*HW_XG_FOCUS "1mm x 10mm"
*HW_XG_FOCUS_TYPE "Normal"
*HW_XG_ID ""
*HW_XG_NAME "3kW 封入管(ID:1200)|3kW Sealed tube(ID:1200)"
*HW_XG_TARGET_ATOMIC_NUMBER "29.0000000000"
*HW_XG_TARGET_NAME "Cu"
*HW_XG_TYPE "Hermetic"
*HW_XG_VOLTAGE_MAX "60"
*HW_XG_VOLTAGE_MIN "20"
*HW_XG_VOLTAGE_RESOLUTION "1"
*HW_XG_VOLTAGE_UNIT "kV"
*HW_XG_WATT_MAX "1.500"
*HW_XG_WATT_UNIT "kW"
*HW_XG_WAVE_LENGTH_ALPHA1 "1.540593"
*HW_XG_WAVE_LENGTH_ALPHA2 "1.544414"
*HW_XG_WAVE_LENGTH_BETA "1.392250"
*MEAS_COND_AXIS_NAME-0 "2θ/θ"
*MEAS_COND_AXIS_NAME-1 "2θ"
*MEAS_COND_AXIS_NAME-2 "ω"
*MEAS_COND_AXIS_NAME-3 "Z"
*MEAS_COND_AXIS_NAME-4 "2θ/ω"
*MEAS_COND_AXIS_NAME-5 "θs"
*MEAS_COND_AXIS_NAME-6 "θd"
*MEAS_COND_AXIS_NAME-7 "Ts"
*MEAS_COND_AXIS_NAME-8 "CBO選択スリット"
*MEAS_COND_AXIS_NAME-9 "M"
*MEAS_COND_AXIS_NAME-10 "入射平行スリット"
*MEAS_COND_AXIS_NAME-11 "入射スリット"
*MEAS_COND_AXIS_NAME-12 ""
*MEAS_COND_AXIS_NAME-13 "Zs"
*MEAS_COND_AXIS_NAME-14 "入射光学素子"
*MEAS_COND_AXIS_NAME-15 "長手制限スリット"
*MEAS_COND_AXIS_NAME-16 "センタースリット"
*MEAS_COND_AXIS_NAME-17 "フィルター"
*MEAS_COND_AXIS_NAME-18 "受光スリット1"
*MEAS_COND_AXIS_NAME-19 "受光スリット2"
*MEAS_COND_AXIS_NAME-20 "受光光学素子"
*MEAS_COND_AXIS_NAME-21 "受光平行スリット"
*MEAS_COND_AXIS_NAME-22 "調整用受光スリット"
*MEAS_COND_AXIS_NAME-23 ""
*MEAS_COND_AXIS_NAME-24 ""
*MEAS_COND_AXIS_NAME-25 "Zd"
*MEAS_COND_AXIS_NAME-26 "アッテネータ"
*MEAS_COND_AXIS_NAME-27 "検出器モノクロメータ"
*MEAS_COND_AXIS_NAME-28 "モノクロメータスリット"
*MEAS_COND_AXIS_NAME-29 "プライマリビーム"
*MEAS_COND_AXIS_NAME-30 "PHA"
*MEAS_COND_AXIS_NAME_INTERNAL-0 "TwoThetaTheta"
*MEAS_COND_AXIS_NAME_INTERNAL-1 "TwoTheta"
*MEAS_COND_AXIS_NAME_INTERNAL-2 "Omega"
*MEAS_COND_AXIS_NAME_INTERNAL-3 "Z"
*MEAS_COND_AXIS_NAME_INTERNAL-4 "TwoThetaOmega"
*MEAS_COND_AXIS_NAME_INTERNAL-5 "ThetaS"
*MEAS_COND_AXIS_NAME_INTERNAL-6 "ThetaD"
*MEAS_COND_AXIS_NAME_INTERNAL-7 "Ts"
*MEAS_COND_AXIS_NAME_INTERNAL-8 "CBO"
*MEAS_COND_AXIS_NAME_INTERNAL-9 "CBO-M"
*MEAS_COND_AXIS_NAME_INTERNAL-10 "IncidentSollerSlit"
*MEAS_COND_AXIS_NAME_INTERNAL-11 "IncidentSlitBox"
*MEAS_COND_AXIS_NAME_INTERNAL-12 "IncidentSlitBox-_Axis"
*MEAS_COND_AXIS_NAME_INTERNAL-13 "Zs"
*MEAS_COND_AXIS_NAME_INTERNAL-14 "IncidentMonochromator"
*MEAS_COND_AXIS_NAME_INTERNAL-15 "IncidentAxdSlit"
*MEAS_COND_AXIS_NAME_INTERNAL-16 "CenterSlit"
*MEAS_COND_AXIS_NAME_INTERNAL-17 "Filter"
*MEAS_COND_AXIS_NAME_INTERNAL-18 "ReceivingSlitBox1"
*MEAS_COND_AXIS_NAME_INTERNAL-19 "ReceivingSlitBox2"
*MEAS_COND_AXIS_NAME_INTERNAL-20 "ReceivingOptics"
*MEAS_COND_AXIS_NAME_INTERNAL-21 "ReceivingSollerSlit"
*MEAS_COND_AXIS_NAME_INTERNAL-22 "ReceivingAxdSlit"
*MEAS_COND_AXIS_NAME_INTERNAL-23 "ReceivingSlitBox1-_Axis"
*MEAS_COND_AXIS_NAME_INTERNAL-24 "ReceivingSlitBox2-_Axis"
*MEAS_COND_AXIS_NAME_INTERNAL-25 "ReceivingSlitBox2-Zd"
*MEAS_COND_AXIS_NAME_INTERNAL-26 "Attenuator"
*MEAS_COND_AXIS_NAME_INTERNAL-27 "CounterMonochromator"
*MEAS_COND_AXIS_NAME_INTERNAL-28 "CounterSlit"
*MEAS_COND_AXIS_NAME_INTERNAL-29 "IncidentPrimary"
*MEAS_COND_AXIS_NAME_INTERNAL-30 "PHA"
*MEAS_COND_AXIS_NAME_MAGICNO-0 "83951616.0000000000"
*MEAS_COND_AXIS_NAME_MAGICNO-1 "268632064.0000000000"
*MEAS_COND_AXIS_NAME_MAGICNO-2 "268500992.0000000000"
*MEAS_COND_AXIS_NAME_MAGICNO-3 "285278208.0000000000"
*MEAS_COND_AXIS_NAME_MAGICNO-4 "83951616.0000000000"
*MEAS_COND_AXIS_NAME_MAGICNO-5 "131072.0000000000"
*MEAS_COND_AXIS_NAME_MAGICNO-6 "131072.0000000000"
*MEAS_COND_AXIS_NAME_MAGICNO-7 "318898176.0000000000"
*MEAS_COND_AXIS_NAME_MAGICNO-8 "20971521.0000000000"
*MEAS_COND_AXIS_NAME_MAGICNO-9 "285343744.0000000000"
*MEAS_COND_AXIS_NAME_MAGICNO-10 "20971521.0000000000"
*MEAS_COND_AXIS_NAME_MAGICNO-11 "22020097.0000000000"
*MEAS_COND_AXIS_NAME_MAGICNO-12 "25165824.0000000000"
*MEAS_COND_AXIS_NAME_MAGICNO-13 "318898176.0000000000"
*MEAS_COND_AXIS_NAME_MAGICNO-14 "1.0000000000"
*MEAS_COND_AXIS_NAME_MAGICNO-15 "20971521.0000000000"
*MEAS_COND_AXIS_NAME_MAGICNO-16 "20971521.0000000000"
*MEAS_COND_AXIS_NAME_MAGICNO-17 "20971521.0000000000"
*MEAS_COND_AXIS_NAME_MAGICNO-18 "23068673.0000000000"
*MEAS_COND_AXIS_NAME_MAGICNO-19 "23068673.0000000000"
*MEAS_COND_AXIS_NAME_MAGICNO-20 "20971521.0000000000"
*MEAS_COND_AXIS_NAME_MAGICNO-21 "20971521.0000000000"
*MEAS_COND_AXIS_NAME_MAGICNO-22 "20971521.0000000000"
*MEAS_COND_AXIS_NAME_MAGICNO-23 "25165824.0000000000"
*MEAS_COND_AXIS_NAME_MAGICNO-24 "25165824.0000000000"
*MEAS_COND_AXIS_NAME_MAGICNO-25 "285343744.0000000000"
*MEAS_COND_AXIS_NAME_MAGICNO-26 "17301505.0000000000"
*MEAS_COND_AXIS_NAME_MAGICNO-27 "20971521.0000000000"
*MEAS_COND_AXIS_NAME_MAGICNO-28 "20971521.0000000000"
*MEAS_COND_AXIS_NAME_MAGICNO-29 "20971521.0000000000"
*MEAS_COND_AXIS_NAME_MAGICNO-30 "0.0000000000"
*MEAS_COND_AXIS_OFFSET-0 "-"
*MEAS_COND_AXIS_OFFSET-1 "-0.0801000000"
*MEAS_COND_AXIS_OFFSET-2 "-0.1703000000"
*MEAS_COND_AXIS_OFFSET-3 "-"
*MEAS_COND_AXIS_OFFSET-4 "-"
*MEAS_COND_AXIS_OFFSET-5 "-0.1703000000"
*MEAS_COND_AXIS_OFFSET-6 "0.0902000000"
*MEAS_COND_AXIS_OFFSET-7 "-"
*MEAS_COND_AXIS_OFFSET-8 "-"
*MEAS_COND_AXIS_OFFSET-9 "-"
*MEAS_COND_AXIS_OFFSET-10 "-"
*MEAS_COND_AXIS_OFFSET-11 "-"
*MEAS_COND_AXIS_OFFSET-12 "-"
*MEAS_COND_AXIS_OFFSET-13 "-"
*MEAS_COND_AXIS_OFFSET-14 "-"
*MEAS_COND_AXIS_OFFSET-15 "-"
*MEAS_COND_AXIS_OFFSET-16 "-"
*MEAS_COND_AXIS_OFFSET-17 "-"
*MEAS_COND_AXIS_OFFSET-18 "-"
*MEAS_COND_AXIS_OFFSET-19 "-"
*MEAS_COND_AXIS_OFFSET-20 "-"
*MEAS_COND_AXIS_OFFSET-21 "-"
*MEAS_COND_AXIS_OFFSET-22 "-"
*MEAS_COND_AXIS_OFFSET-23 "-"
*MEAS_COND_AXIS_OFFSET-24 "-"
*MEAS_COND_AXIS_OFFSET-25 "-"
*MEAS_COND_AXIS_OFFSET-26 "-"
*MEAS_COND_AXIS_OFFSET-27 "-"
*MEAS_COND_AXIS_OFFSET-28 "-"
*MEAS_COND_AXIS_OFFSET-29 "-"
*MEAS_COND_AXIS_OFFSET-30 "-"
*MEAS_COND_AXIS_POSITION-0 "0.0000000000"
*MEAS_COND_AXIS_POSITION-1 "0.0000000000"
*MEAS_COND_AXIS_POSITION-2 "0.0000000000"
*MEAS_COND_AXIS_POSITION-3 "-2.8463000000"
*MEAS_COND_AXIS_POSITION-4 "0.0000000000"
*MEAS_COND_AXIS_POSITION-5 "0.0000000000"
*MEAS_COND_AXIS_POSITION-6 "0.0000000000"
*MEAS_COND_AXIS_POSITION-7 "-0.4278800000"
*MEAS_COND_AXIS_POSITION-8 "BB"
*MEAS_COND_AXIS_POSITION-9 "0.0000000000"
*MEAS_COND_AXIS_POSITION-10 "Soller_slit_5.0deg"
*MEAS_COND_AXIS_POSITION-11 "2/3deg"
*MEAS_COND_AXIS_POSITION-12 "2.2088000000"
*MEAS_COND_AXIS_POSITION-13 "-1.0609400000"
*MEAS_COND_AXIS_POSITION-14 "0.0000000000"
*MEAS_COND_AXIS_POSITION-15 "10.0mm"
*MEAS_COND_AXIS_POSITION-16 "None"
*MEAS_COND_AXIS_POSITION-17 "Cu_K-beta"
*MEAS_COND_AXIS_POSITION-18 "13.000mm"
*MEAS_COND_AXIS_POSITION-19 "13.000mm"
*MEAS_COND_AXIS_POSITION-20 "No_unit"
*MEAS_COND_AXIS_POSITION-21 "Soller_slit_5.0deg"
*MEAS_COND_AXIS_POSITION-22 "None"
*MEAS_COND_AXIS_POSITION-23 "13.0000000000"
*MEAS_COND_AXIS_POSITION-24 "13.0000000000"
*MEAS_COND_AXIS_POSITION-25 "0.0081300000"
*MEAS_COND_AXIS_POSITION-26 "Open"
*MEAS_COND_AXIS_POSITION-27 "None"
*MEAS_COND_AXIS_POSITION-28 "None"
*MEAS_COND_AXIS_POSITION-29 "None"
*MEAS_COND_AXIS_POSITION-30 "38.0000000000"
*MEAS_COND_AXIS_UNIT-0 "deg"
*MEAS_COND_AXIS_UNIT-1 "deg"
*MEAS_COND_AXIS_UNIT-2 "deg"
*MEAS_COND_AXIS_UNIT-3 "mm"
*MEAS_COND_AXIS_UNIT-4 "deg"
*MEAS_COND_AXIS_UNIT-5 "deg"
*MEAS_COND_AXIS_UNIT-6 "deg"
*MEAS_COND_AXIS_UNIT-7 "mm"
*MEAS_COND_AXIS_UNIT-8 ""
*MEAS_COND_AXIS_UNIT-9 "pulse"
*MEAS_COND_AXIS_UNIT-10 ""
*MEAS_COND_AXIS_UNIT-11 ""
*MEAS_COND_AXIS_UNIT-12 "mm"
*MEAS_COND_AXIS_UNIT-13 "mm"
*MEAS_COND_AXIS_UNIT-14 ""
*MEAS_COND_AXIS_UNIT-15 ""
*MEAS_COND_AXIS_UNIT-16 ""
*MEAS_COND_AXIS_UNIT-17 ""
*MEAS_COND_AXIS_UNIT-18 ""
*MEAS_COND_AXIS_UNIT-19 ""
*MEAS_COND_AXIS_UNIT-20 ""
*MEAS_COND_AXIS_UNIT-21 ""
*MEAS_COND_AXIS_UNIT-22 ""
*MEAS_COND_AXIS_UNIT-23 "mm"
*MEAS_COND_AXIS_UNIT-24 "mm"
*MEAS_COND_AXIS_UNIT-25 "mm"
*MEAS_COND_AXIS_UNIT-26 ""
*MEAS_COND_AXIS_UNIT-27 ""
*MEAS_COND_AXIS_UNIT-28 ""
*MEAS_COND_AXIS_UNIT-29 ""
*MEAS_COND_AXIS_UNIT-30 "div"
*MEAS_COND_COUNTER_CNTLOSS_CORR "0.0000000000"
*MEAS_COND_COUNTER_PHABASE "38.0000000000"
*MEAS_COND_COUNTER_PHAWINDOW "16.0000000000"
*MEAS_COND_COUNTER_PHA_UNIT "div"
*MEAS_COND_COUNTER_TAUDIFF "30.0000000000"
*MEAS_COND_COUNTER_TAUINT "0.0000000000"
*MEAS_COND_IRRADIATION_MODE "OFF"
*MEAS_COND_IRRADIATION_WIDTH ""
*MEAS_COND_OPT_ATTR "集中法"
*MEAS_COND_OPT_NAME "@集中法"
*MEAS_COND_UNSYMMETRIC_MODE "OFF"
*MEAS_COND_XG_CURRENT "30.0000000000"
*MEAS_COND_XG_VOLTAGE "40.0000000000"
*MEAS_COND_XG_WAVE_TYPE "Ka"
*MEAS_DATA_COUNT "5001.0000000000"
*MEAS_SCAN_AXIS_X "2θ/θ"
*MEAS_SCAN_AXIS_X_INTERNAL "TwoThetaTheta"
*MEAS_SCAN_END_TIME "07/02/22 17:27:53"
*MEAS_SCAN_MODE "CONTINUOUS"
*MEAS_SCAN_MONITOR "0"
*MEAS_SCAN_RESOLUTION_X "0.0002"
*MEAS_SCAN_SPEED "2.5"
*MEAS_SCAN_SPEED_UNIT "deg/min"
*MEAS_SCAN_START "20.0000000000"
*MEAS_SCAN_START_TIME "07/02/22 17:06:30"
*MEAS_SCAN_STEP "0.0100000000"
*MEAS_SCAN_STOP "70.0000000000"
*MEAS_SCAN_UNIT_X "deg"
*MEAS_SCAN_UNIT_Y "counts"
*RAS_HEADER_END
*RAS_INT_START
20.0000 858.0000 1.0000
20.0100 935.0000 1.0000
20.0200 880.0000 1.0000
20.0300 896.0000 1.0000
20.0400 913.0000 1.0000
20.0500 889.0000 1.0000
20.0600 879.0000 1.0000
20.0700 928.0000 1.0000
20.0800 912.0000 1.0000
20.0900 922.0000 1.0000
20.1000 898.0000 1.0000
20.1100 902.0000 1.0000
20.1200 847.0000 1.0000
20.1300 903.0000 1.0000
20.1400 905.0000 1.0000
20.1500 984.0000 1.0000
20.1600 969.0000 1.0000
20.1700 909.0000 1.0000
20.1800 872.0000 1.0000
20.1900 898.0000 1.0000
20.2000 928.0000 1.0000
20.2100 859.0000 1.0000
20.2200 878.0000 1.0000
20.2300 882.0000 1.0000
20.2400 911.0000 1.0000
20.2500 851.0000 1.0000
20.2600 857.0000 1.0000
20.2700 872.0000 1.0000
20.2800 892.0000 1.0000
20.2900 920.0000 1.0000
20.3000 891.0000 1.0000
20.3100 876.0000 1.0000
20.3200 905.0000 1.0000
20.3300 849.0000 1.0000
20.3400 900.0000 1.0000
20.3500 879.0000 1.0000
20.3600 901.0000 1.0000
20.3700 905.0000 1.0000
20.3800 867.0000 1.0000
20.3900 889.0000 1.0000
20.4000 913.0000 1.0000
20.4100 830.0000 1.0000
20.4200 900.0000 1.0000
20.4300 903.0000 1.0000
20.4400 880.0000 1.0000
20.4500 900.0000 1.0000
20.4600 930.0000 1.0000
20.4700 931.0000 1.0000
20.4800 932.0000 1.0000
20.4900 883.0000 1.0000
20.5000 897.0000 1.0000
20.5100 931.0000 1.0000
20.5200 883.0000 1.0000
20.5300 907.0000 1.0000
20.5400 913.0000 1.0000
20.5500 916.0000 1.0000
20.5600 912.0000 1.0000
20.5700 875.0000 1.0000
20.5800 874.0000 1.0000
20.5900 920.0000 1.0000
20.6000 901.0000 1.0000
20.6100 883.0000 1.0000
20.6200 878.0000 1.0000
20.6300 857.0000 1.0000
20.6400 938.0000 1.0000
20.6500 889.0000 1.0000
20.6600 884.0000 1.0000
20.6700 884.0000 1.0000
20.6800 894.0000 1.0000
20.6900 869.0000 1.0000
20.7000 866.0000 1.0000
20.7100 905.0000 1.0000
20.7200 927.0000 1.0000
20.7300 877.0000 1.0000
20.7400 894.0000 1.0000
20.7500 894.0000 1.0000
20.7600 920.0000 1.0000
20.7700 898.0000 1.0000
20.7800 911.0000 1.0000
20.7900 893.0000 1.0000
20.8000 896.0000 1.0000
20.8100 897.0000 1.0000
20.8200 850.0000 1.0000
20.8300 832.0000 1.0000
20.8400 887.0000 1.0000
20.8500 920.0000 1.0000
20.8600 903.0000 1.0000
20.8700 900.0000 1.0000
20.8800 861.0000 1.0000
20.8900 892.0000 1.0000
20.9000 892.0000 1.0000
20.9100 875.0000 1.0000
20.9200 909.0000 1.0000
20.9300 877.0000 1.0000
20.9400 876.0000 1.0000
20.9500 878.0000 1.0000
20.9600 904.0000 1.0000
20.9700 858.0000 1.0000
20.9800 860.0000 1.0000
20.9900 875.0000 1.0000
21.0000 858.0000 1.0000
21.0100 859.0000 1.0000
21.0200 933.0000 1.0000
21.0300 903.0000 1.0000
21.0400 868.0000 1.0000
21.0500 934.0000 1.0000
21.0600 901.0000 1.0000
21.0700 899.0000 1.0000
21.0800 837.0000 1.0000
21.0900 880.0000 1.0000
21.1000 856.0000 1.0000
21.1100 879.0000 1.0000
21.1200 918.0000 1.0000
21.1300 882.0000 1.0000
21.1400 895.0000 1.0000
21.1500 883.0000 1.0000
21.1600 913.0000 1.0000
21.1700 877.0000 1.0000
21.1800 863.0000 1.0000
21.1900 870.0000 1.0000
21.2000 891.0000 1.0000
21.2100 874.0000 1.0000
21.2200 891.0000 1.0000
21.2300 863.0000 1.0000
21.2400 895.0000 1.0000
21.2500 925.0000 1.0000
21.2600 875.0000 1.0000
21.2700 878.0000 1.0000
21.2800 890.0000 1.0000
21.2900 863.0000 1.0000
21.3000 858.0000 1.0000
21.3100 849.0000 1.0000
21.3200 851.0000 1.0000
21.3300 871.0000 1.0000
21.3400 882.0000 1.0000
21.3500 871.0000 1.0000
21.3600 808.0000 1.0000
21.3700 864.0000 1.0000
21.3800 916.0000 1.0000
21.3900 899.0000 1.0000
21.4000 914.0000 1.0000
21.4100 865.0000 1.0000
21.4200 839.0000 1.0000
21.4300 834.0000 1.0000
21.4400 842.0000 1.0000
21.4500 830.0000 1.0000
21.4600 863.0000 1.0000
21.4700 837.0000 1.0000
21.4800 845.0000 1.0000
21.4900 891.0000 1.0000
21.5000 877.0000 1.0000
21.5100 860.0000 1.0000
21.5200 858.0000 1.0000
21.5300 834.0000 1.0000
21.5400 874.0000 1.0000
21.5500 912.0000 1.0000
21.5600 848.0000 1.0000
21.5700 884.0000 1.0000
21.5800 950.0000 1.0000
21.5900 908.0000 1.0000
21.6000 891.0000 1.0000
21.6100 853.0000 1.0000
21.6200 854.0000 1.0000
21.6300 914.0000 1.0000
21.6400 921.0000 1.0000
21.6500 909.0000 1.0000
21.6600 894.0000 1.0000
21.6700 909.0000 1.0000
21.6800 940.0000 1.0000
21.6900 866.0000 1.0000
21.7000 837.0000 1.0000
21.7100 883.0000 1.0000
21.7200 899.0000 1.0000
21.7300 908.0000 1.0000
21.7400 913.0000 1.0000
21.7500 871.0000 1.0000
21.7600 848.0000 1.0000
21.7700 863.0000 1.0000
21.7800 876.0000 1.0000
21.7900 902.0000 1.0000
21.8000 870.0000 1.0000
21.8100 863.0000 1.0000
21.8200 914.0000 1.0000
21.8300 915.0000 1.0000
21.8400 881.0000 1.0000
21.8500 871.0000 1.0000
21.8600 880.0000 1.0000
21.8700 849.0000 1.0000
21.8800 869.0000 1.0000
21.8900 919.0000 1.0000
21.9000 878.0000 1.0000
21.9100 868.0000 1.0000
21.9200 850.0000 1.0000
21.9300 854.0000 1.0000
21.9400 908.0000 1.0000
21.9500 866.0000 1.0000
21.9600 904.0000 1.0000
21.9700 837.0000 1.0000
21.9800 881.0000 1.0000
21.9900 897.0000 1.0000
22.0000 922.0000 1.0000
22.0100 872.0000 1.0000
22.0200 897.0000 1.0000
22.0300 931.0000 1.0000
22.0400 869.0000 1.0000
22.0500 916.0000 1.0000
22.0600 861.0000 1.0000
22.0700 891.0000 1.0000
22.0800 879.0000 1.0000
22.0900 913.0000 1.0000
22.1000 860.0000 1.0000
22.1100 863.0000 1.0000
22.1200 831.0000 1.0000
22.1300 834.0000 1.0000
22.1400 865.0000 1.0000
22.1500 848.0000 1.0000
22.1600 887.0000 1.0000
22.1700 888.0000 1.0000
22.1800 866.0000 1.0000
22.1900 947.0000 1.0000
22.2000 867.0000 1.0000
22.2100 875.0000 1.0000
22.2200 859.0000 1.0000
22.2300 891.0000 1.0000
22.2400 865.0000 1.0000
22.2500 855.0000 1.0000
22.2600 822.0000 1.0000
22.2700 896.0000 1.0000
22.2800 868.0000 1.0000
22.2900 883.0000 1.0000
22.3000 877.0000 1.0000
22.3100 912.0000 1.0000
22.3200 895.0000 1.0000
22.3300 839.0000 1.0000
22.3400 864.0000 1.0000
22.3500 904.0000 1.0000
22.3600 881.0000 1.0000
22.3700 864.0000 1.0000
22.3800 920.0000 1.0000
22.3900 817.0000 1.0000
22.4000 868.0000 1.0000
22.4100 870.0000 1.0000
22.4200 889.0000 1.0000
22.4300 879.0000 1.0000
22.4400 875.0000 1.0000
22.4500 823.0000 1.0000
22.4600 847.0000 1.0000
22.4700 879.0000 1.0000
22.4800 884.0000 1.0000
22.4900 897.0000 1.0000
22.5000 868.0000 1.0000
22.5100 864.0000 1.0000
22.5200 891.0000 1.0000
22.5300 840.0000 1.0000
22.5400 872.0000 1.0000
22.5500 834.0000 1.0000
22.5600 860.0000 1.0000
22.5700 845.0000 1.0000
22.5800 856.0000 1.0000
22.5900 874.0000 1.0000
22.6000 869.0000 1.0000
22.6100 870.0000 1.0000
22.6200 867.0000 1.0000
22.6300 901.0000 1.0000
22.6400 828.0000 1.0000
22.6500 851.0000 1.0000
22.6600 853.0000 1.0000
22.6700 895.0000 1.0000
22.6800 836.0000 1.0000
22.6900 864.0000 1.0000
22.7000 901.0000 1.0000
22.7100 901.0000 1.0000
22.7200 846.0000 1.0000
22.7300 861.0000 1.0000
22.7400 848.0000 1.0000
22.7500 898.0000 1.0000
22.7600 901.0000 1.0000
22.7700 879.0000 1.0000
22.7800 844.0000 1.0000
22.7900 866.0000 1.0000
22.8000 887.0000 1.0000
22.8100 869.0000 1.0000
22.8200 869.0000 1.0000
22.8300 875.0000 1.0000
22.8400 850.0000 1.0000
22.8500 841.0000 1.0000
22.8600 845.0000 1.0000
22.8700 889.0000 1.0000
22.8800 843.0000 1.0000
22.8900 897.0000 1.0000
22.9000 865.0000 1.0000
22.9100 915.0000 1.0000
22.9200 904.0000 1.0000
22.9300 884.0000 1.0000
22.9400 862.0000 1.0000
22.9500 898.0000 1.0000
22.9600 877.0000 1.0000
22.9700 872.0000 1.0000
22.9800 850.0000 1.0000
22.9900 841.0000 1.0000
23.0000 892.0000 1.0000
23.0100 898.0000 1.0000
23.0200 858.0000 1.0000
23.0300 899.0000 1.0000
23.0400 839.0000 1.0000
23.0500 840.0000 1.0000
23.0600 843.0000 1.0000
23.0700 847.0000 1.0000
23.0800 863.0000 1.0000
23.0900 843.0000 1.0000
23.1000 859.0000 1.0000
23.1100 874.0000 1.0000
23.1200 878.0000 1.0000
23.1300 846.0000 1.0000
23.1400 850.0000 1.0000
23.1500 861.0000 1.0000
23.1600 833.0000 1.0000
23.1700 893.0000 1.0000
23.1800 890.0000 1.0000
23.1900 839.0000 1.0000
23.2000 871.0000 1.0000
23.2100 884.0000 1.0000
23.2200 800.0000 1.0000
23.2300 861.0000 1.0000
23.2400 899.0000 1.0000
23.2500 914.0000 1.0000
23.2600 909.0000 1.0000
23.2700 857.0000 1.0000
23.2800 830.0000 1.0000
23.2900 871.0000 1.0000
23.3000 829.0000 1.0000
23.3100 858.0000 1.0000
23.3200 862.0000 1.0000
23.3300 836.0000 1.0000
23.3400 864.0000 1.0000
23.3500 894.0000 1.0000
23.3600 797.0000 1.0000
23.3700 817.0000 1.0000
23.3800 841.0000 1.0000
23.3900 864.0000 1.0000
23.4000 819.0000 1.0000
23.4100 861.0000 1.0000
23.4200 821.0000 1.0000
23.4300 811.0000 1.0000
23.4400 855.0000 1.0000
23.4500 876.0000 1.0000
23.4600 889.0000 1.0000
23.4700 855.0000 1.0000
23.4800 860.0000 1.0000
23.4900 870.0000 1.0000
23.5000 886.0000 1.0000
23.5100 828.0000 1.0000
23.5200 873.0000 1.0000
23.5300 825.0000 1.0000
23.5400 842.0000 1.0000
23.5500 852.0000 1.0000
23.5600 864.0000 1.0000
23.5700 814.0000 1.0000
23.5800 898.0000 1.0000
23.5900 843.0000 1.0000
23.6000 877.0000 1.0000
23.6100 876.0000 1.0000
23.6200 881.0000 1.0000
23.6300 832.0000 1.0000
23.6400 888.0000 1.0000
23.6500 829.0000 1.0000
23.6600 844.0000 1.0000
23.6700 839.0000 1.0000
23.6800 854.0000 1.0000
23.6900 808.0000 1.0000
23.7000 842.0000 1.0000
23.7100 890.0000 1.0000
23.7200 828.0000 1.0000
23.7300 853.0000 1.0000
23.7400 861.0000 1.0000
23.7500 869.0000 1.0000
23.7600 860.0000 1.0000
23.7700 860.0000 1.0000
23.7800 860.0000 1.0000
23.7900 863.0000 1.0000
23.8000 865.0000 1.0000
23.8100 831.0000 1.0000
23.8200 866.0000 1.0000
23.8300 861.0000 1.0000
23.8400 858.0000 1.0000
23.8500 876.0000 1.0000
23.8600 921.0000 1.0000
23.8700 918.0000 1.0000
23.8800 871.0000 1.0000
23.8900 871.0000 1.0000
23.9000 904.0000 1.0000
23.9100 911.0000 1.0000
23.9200 886.0000 1.0000
23.9300 886.0000 1.0000
23.9400 892.0000 1.0000
23.9500 931.0000 1.0000
23.9600 894.0000 1.0000
23.9700 918.0000 1.0000
23.9800 899.0000 1.0000
23.9900 895.0000 1.0000
24.0000 917.0000 1.0000
24.0100 911.0000 1.0000
24.0200 923.0000 1.0000
24.0300 930.0000 1.0000
24.0400 924.0000 1.0000
24.0500 921.0000 1.0000
24.0600 929.0000 1.0000
24.0700 920.0000 1.0000
24.0800 927.0000 1.0000
24.0900 931.0000 1.0000
24.1000 965.0000 1.0000
24.1100 903.0000 1.0000
24.1200 889.0000 1.0000
24.1300 958.0000 1.0000
24.1400 938.0000 1.0000
24.1500 967.0000 1.0000
24.1600 949.0000 1.0000
24.1700 909.0000 1.0000
24.1800 857.0000 1.0000
24.1900 898.0000 1.0000
24.2000 837.0000 1.0000
24.2100 908.0000 1.0000
24.2200 890.0000 1.0000
24.2300 916.0000 1.0000
24.2400 890.0000 1.0000
24.2500 885.0000 1.0000
24.2600 891.0000 1.0000
24.2700 874.0000 1.0000
24.2800 848.0000 1.0000
24.2900 834.0000 1.0000
24.3000 863.0000 1.0000
24.3100 848.0000 1.0000
24.3200 849.0000 1.0000
24.3300 849.0000 1.0000
24.3400 816.0000 1.0000
24.3500 869.0000 1.0000
24.3600 841.0000 1.0000
24.3700 855.0000 1.0000
24.3800 838.0000 1.0000
24.3900 834.0000 1.0000
24.4000 869.0000 1.0000
24.4100 857.0000 1.0000
24.4200 826.0000 1.0000
24.4300 856.0000 1.0000
24.4400 842.0000 1.0000
24.4500 841.0000 1.0000
24.4600 864.0000 1.0000
24.4700 813.0000 1.0000
24.4800 836.0000 1.0000
24.4900 817.0000 1.0000
24.5000 818.0000 1.0000
24.5100 850.0000 1.0000
24.5200 849.0000 1.0000
24.5300 881.0000 1.0000
24.5400 858.0000 1.0000
24.5500 822.0000 1.0000
24.5600 776.0000 1.0000
24.5700 889.0000 1.0000
24.5800 825.0000 1.0000
24.5900 814.0000 1.0000
24.6000 861.0000 1.0000
24.6100 871.0000 1.0000
24.6200 833.0000 1.0000
24.6300 835.0000 1.0000
24.6400 850.0000 1.0000
24.6500 832.0000 1.0000
24.6600 811.0000 1.0000
24.6700 852.0000 1.0000
24.6800 829.0000 1.0000
24.6900 796.0000 1.0000
24.7000 803.0000 1.0000
24.7100 834.0000 1.0000
24.7200 846.0000 1.0000
24.7300 838.0000 1.0000
24.7400 800.0000 1.0000
24.7500 773.0000 1.0000
24.7600 828.0000 1.0000
24.7700 805.0000 1.0000
24.7800 837.0000 1.0000
24.7900 860.0000 1.0000
24.8000 840.0000 1.0000
24.8100 855.0000 1.0000
24.8200 812.0000 1.0000
24.8300 835.0000 1.0000
24.8400 857.0000 1.0000
24.8500 844.0000 1.0000
24.8600 838.0000 1.0000
24.8700 858.0000 1.0000
24.8800 862.0000 1.0000
24.8900 868.0000 1.0000
24.9000 827.0000 1.0000
24.9100 774.0000 1.0000
24.9200 831.0000 1.0000
24.9300 864.0000 1.0000
24.9400 840.0000 1.0000
24.9500 872.0000 1.0000
24.9600 827.0000 1.0000
24.9700 814.0000 1.0000
24.9800 839.0000 1.0000
24.9900 775.0000 1.0000
25.0000 828.0000 1.0000
25.0100 809.0000 1.0000
25.0200 838.0000 1.0000
25.0300 792.0000 1.0000
25.0400 878.0000 1.0000
25.0500 775.0000 1.0000
25.0600 862.0000 1.0000
25.0700 840.0000 1.0000
25.0800 819.0000 1.0000
25.0900 864.0000 1.0000
25.1000 813.0000 1.0000
25.1100 814.0000 1.0000
25.1200 808.0000 1.0000
25.1300 800.0000 1.0000
25.1400 848.0000 1.0000
25.1500 812.0000 1.0000
25.1600 841.0000 1.0000
25.1700 852.0000 1.0000
25.1800 862.0000 1.0000
25.1900 806.0000 1.0000
25.2000 845.0000 1.0000
25.2100 834.0000 1.0000
25.2200 846.0000 1.0000
25.2300 856.0000 1.0000
25.2400 840.0000 1.0000
25.2500 799.0000 1.0000
25.2600 821.0000 1.0000
25.2700 815.0000 1.0000
25.2800 841.0000 1.0000
25.2900 857.0000 1.0000
25.3000 833.0000 1.0000
25.3100 833.0000 1.0000
25.3200 855.0000 1.0000
25.3300 775.0000 1.0000
25.3400 818.0000 1.0000
25.3500 874.0000 1.0000
25.3600 819.0000 1.0000
25.3700 804.0000 1.0000
25.3800 777.0000 1.0000
25.3900 844.0000 1.0000
25.4000 853.0000 1.0000
25.4100 834.0000 1.0000
25.4200 811.0000 1.0000
25.4300 821.0000 1.0000
25.4400 813.0000 1.0000
25.4500 836.0000 1.0000
25.4600 828.0000 1.0000
25.4700 814.0000 1.0000
25.4800 822.0000 1.0000
25.4900 850.0000 1.0000
25.5000 867.0000 1.0000
25.5100 802.0000 1.0000
25.5200 812.0000 1.0000
25.5300 860.0000 1.0000
25.5400 818.0000 1.0000
25.5500 818.0000 1.0000
25.5600 897.0000 1.0000
25.5700 845.0000 1.0000
25.5800 858.0000 1.0000
25.5900 826.0000 1.0000
25.6000 859.0000 1.0000
25.6100 891.0000 1.0000
25.6200 855.0000 1.0000
25.6300 844.0000 1.0000
25.6400 811.0000 1.0000
25.6500 865.0000 1.0000
25.6600 850.0000 1.0000
25.6700 841.0000 1.0000
25.6800 896.0000 1.0000
25.6900 841.0000 1.0000
25.7000 870.0000 1.0000
25.7100 852.0000 1.0000
25.7200 903.0000 1.0000
25.7300 917.0000 1.0000
25.7400 896.0000 1.0000
25.7500 847.0000 1.0000
25.7600 859.0000 1.0000
25.7700 840.0000 1.0000
25.7800 826.0000 1.0000
25.7900 848.0000 1.0000
25.8000 824.0000 1.0000
25.8100 840.0000 1.0000
25.8200 896.0000 1.0000
25.8300 904.0000 1.0000
25.8400 867.0000 1.0000
25.8500 887.0000 1.0000
25.8600 888.0000 1.0000
25.8700 869.0000 1.0000
25.8800 846.0000 1.0000
25.8900 848.0000 1.0000
25.9000 875.0000 1.0000
25.9100 866.0000 1.0000
25.9200 887.0000 1.0000
25.9300 896.0000 1.0000
25.9400 893.0000 1.0000
25.9500 920.0000 1.0000
25.9600 857.0000 1.0000
25.9700 941.0000 1.0000
25.9800 929.0000 1.0000
25.9900 919.0000 1.0000
26.0000 911.0000 1.0000
26.0100 962.0000 1.0000
26.0200 908.0000 1.0000
26.0300 927.0000 1.0000
26.0400 925.0000 1.0000
26.0500 1008.0000 1.0000
26.0600 942.0000 1.0000
26.0700 923.0000 1.0000
26.0800 947.0000 1.0000
26.0900 960.0000 1.0000
26.1000 962.0000 1.0000
26.1100 950.0000 1.0000
26.1200 1028.0000 1.0000
26.1300 1006.0000 1.0000
26.1400 1057.0000 1.0000
26.1500 1069.0000 1.0000
26.1600 1097.0000 1.0000
26.1700 1054.0000 1.0000
26.1800 1071.0000 1.0000
26.1900 1118.0000 1.0000
26.2000 1190.0000 1.0000
26.2100 1216.0000 1.0000
26.2200 1163.0000 1.0000
26.2300 1179.0000 1.0000
26.2400 1310.0000 1.0000
26.2500 1327.0000 1.0000
26.2600 1371.0000 1.0000
26.2700 1339.0000 1.0000
26.2800 1393.0000 1.0000
26.2900 1426.0000 1.0000
26.3000 1516.0000 1.0000
26.3100 1592.0000 1.0000
26.3200 1605.0000 1.0000
26.3300 1629.0000 1.0000
26.3400 1813.0000 1.0000
26.3500 1925.0000 1.0000
26.3600 2016.0000 1.0000
26.3700 2102.0000 1.0000
26.3800 2141.0000 1.0000
26.3900 2329.0000 1.0000
26.4000 2542.0000 1.0000
26.4100 2572.0000 1.0000
26.4200 2728.0000 1.0000
26.4300 2788.0000 1.0000
26.4400 3027.0000 1.0000
26.4500 3043.0000 1.0000
26.4600 2906.0000 1.0000
26.4700 2985.0000 1.0000
26.4800 2909.0000 1.0000
26.4900 2936.0000 1.0000
26.5000 2745.0000 1.0000
26.5100 2663.0000 1.0000
26.5200 2573.0000 1.0000
26.5300 2516.0000 1.0000
26.5400 2359.0000 1.0000
26.5500 2319.0000 1.0000
26.5600 2206.0000 1.0000
26.5700 2001.0000 1.0000
26.5800 1911.0000 1.0000
26.5900 1784.0000 1.0000
26.6000 1653.0000 1.0000
26.6100 1592.0000 1.0000
26.6200 1567.0000 1.0000
26.6300 1505.0000 1.0000
26.6400 1415.0000 1.0000
26.6500 1381.0000 1.0000
26.6600 1278.0000 1.0000
26.6700 1203.0000 1.0000
26.6800 1232.0000 1.0000
26.6900 1244.0000 1.0000
26.7000 1154.0000 1.0000
26.7100 1130.0000 1.0000
26.7200 1142.0000 1.0000
26.7300 1129.0000 1.0000
26.7400 1071.0000 1.0000
26.7500 1077.0000 1.0000
26.7600 1047.0000 1.0000
26.7700 1036.0000 1.0000
26.7800 1013.0000 1.0000
26.7900 1005.0000 1.0000
26.8000 979.0000 1.0000
26.8100 1007.0000 1.0000
26.8200 971.0000 1.0000
26.8300 958.0000 1.0000
26.8400 895.0000 1.0000
26.8500 917.0000 1.0000
26.8600 963.0000 1.0000
26.8700 915.0000 1.0000
26.8800 922.0000 1.0000
26.8900 884.0000 1.0000
26.9000 870.0000 1.0000
26.9100 900.0000 1.0000
26.9200 879.0000 1.0000
26.9300 891.0000 1.0000
26.9400 888.0000 1.0000
26.9500 879.0000 1.0000
26.9600 863.0000 1.0000
26.9700 844.0000 1.0000
26.9800 814.0000 1.0000
26.9900 842.0000 1.0000
27.0000 835.0000 1.0000
27.0100 798.0000 1.0000
27.0200 811.0000 1.0000
27.0300 818.0000 1.0000
27.0400 842.0000 1.0000
27.0500 834.0000 1.0000
27.0600 793.0000 1.0000
27.0700 819.0000 1.0000
27.0800 848.0000 1.0000
27.0900 832.0000 1.0000
27.1000 825.0000 1.0000
27.1100 794.0000 1.0000
27.1200 791.0000 1.0000
27.1300 804.0000 1.0000
27.1400 812.0000 1.0000
27.1500 811.0000 1.0000
27.1600 802.0000 1.0000
27.1700 789.0000 1.0000
27.1800 818.0000 1.0000
27.1900 771.0000 1.0000
27.2000 796.0000 1.0000
27.2100 776.0000 1.0000
27.2200 791.0000 1.0000
27.2300 765.0000 1.0000
27.2400 761.0000 1.0000
27.2500 789.0000 1.0000
27.2600 772.0000 1.0000
27.2700 777.0000 1.0000
27.2800 801.0000 1.0000
27.2900 818.0000 1.0000
27.3000 796.0000 1.0000
27.3100 777.0000 1.0000
27.3200 784.0000 1.0000
27.3300 772.0000 1.0000
27.3400 775.0000 1.0000
27.3500 800.0000 1.0000
27.3600 748.0000 1.0000
27.3700 807.0000 1.0000
27.3800 799.0000 1.0000
27.3900 798.0000 1.0000
27.4000 782.0000 1.0000
27.4100 756.0000 1.0000
27.4200 789.0000 1.0000
27.4300 776.0000 1.0000
27.4400 764.0000 1.0000
27.4500 733.0000 1.0000
27.4600 789.0000 1.0000
27.4700 727.0000 1.0000
27.4800 759.0000 1.0000
27.4900 780.0000 1.0000
27.5000 788.0000 1.0000
27.5100 762.0000 1.0000
27.5200 747.0000 1.0000
27.5300 739.0000 1.0000
27.5400 787.0000 1.0000
27.5500 762.0000 1.0000
27.5600 756.0000 1.0000
27.5700 727.0000 1.0000
27.5800 751.0000 1.0000
27.5900 795.0000 1.0000
27.6000 759.0000 1.0000
27.6100 726.0000 1.0000
27.6200 768.0000 1.0000
27.6300 754.0000 1.0000
27.6400 731.0000 1.0000
27.6500 736.0000 1.0000
27.6600 769.0000 1.0000
27.6700 778.0000 1.0000
27.6800 761.0000 1.0000
27.6900 740.0000 1.0000
27.7000 750.0000 1.0000
27.7100 714.0000 1.0000
27.7200 722.0000 1.0000
27.7300 726.0000 1.0000
27.7400 684.0000 1.0000
27.7500 753.0000 1.0000
27.7600 734.0000 1.0000
27.7700 763.0000 1.0000
27.7800 737.0000 1.0000
27.7900 768.0000 1.0000
27.8000 737.0000 1.0000
27.8100 781.0000 1.0000
27.8200 768.0000 1.0000
27.8300 750.0000 1.0000
27.8400 738.0000 1.0000
27.8500 738.0000 1.0000
27.8600 769.0000 1.0000
27.8700 757.0000 1.0000
27.8800 743.0000 1.0000
27.8900 761.0000 1.0000
27.9000 754.0000 1.0000
27.9100 772.0000 1.0000
27.9200 729.0000 1.0000
27.9300 787.0000 1.0000
27.9400 774.0000 1.0000
27.9500 780.0000 1.0000
27.9600 693.0000 1.0000
27.9700 748.0000 1.0000
27.9800 705.0000 1.0000
27.9900 727.0000 1.0000
28.0000 697.0000 1.0000
28.0100 700.0000 1.0000
28.0200 729.0000 1.0000
28.0300 745.0000 1.0000
28.0400 774.0000 1.0000
28.0500 730.0000 1.0000
28.0600 693.0000 1.0000
28.0700 771.0000 1.0000
28.0800 717.0000 1.0000
28.0900 739.0000 1.0000
28.1000 734.0000 1.0000
28.1100 746.0000 1.0000
28.1200 751.0000 1.0000
28.1300 728.0000 1.0000
28.1400 757.0000 1.0000
28.1500 795.0000 1.0000
28.1600 745.0000 1.0000
28.1700 760.0000 1.0000
28.1800 755.0000 1.0000
28.1900 669.0000 1.0000
28.2000 744.0000 1.0000
28.2100 710.0000 1.0000
28.2200 748.0000 1.0000
28.2300 712.0000 1.0000
28.2400 737.0000 1.0000
28.2500 723.0000 1.0000
28.2600 705.0000 1.0000
28.2700 712.0000 1.0000
28.2800 744.0000 1.0000
28.2900 732.0000 1.0000
28.3000 770.0000 1.0000
28.3100 734.0000 1.0000
28.3200 753.0000 1.0000
28.3300 732.0000 1.0000
28.3400 782.0000 1.0000
28.3500 709.0000 1.0000
28.3600 699.0000 1.0000
28.3700 752.0000 1.0000
28.3800 705.0000 1.0000
28.3900 736.0000 1.0000
28.4000 731.0000 1.0000
28.4100 720.0000 1.0000
28.4200 732.0000 1.0000
28.4300 742.0000 1.0000
28.4400 742.0000 1.0000
28.4500 736.0000 1.0000
28.4600 738.0000 1.0000
28.4700 737.0000 1.0000
28.4800 730.0000 1.0000
28.4900 698.0000 1.0000
28.5000 671.0000 1.0000
28.5100 715.0000 1.0000
28.5200 707.0000 1.0000
28.5300 694.0000 1.0000
28.5400 744.0000 1.0000
28.5500 723.0000 1.0000
28.5600 728.0000 1.0000
28.5700 779.0000 1.0000
28.5800 724.0000 1.0000
28.5900 755.0000 1.0000
28.6000 677.0000 1.0000
28.6100 720.0000 1.0000
28.6200 685.0000 1.0000
28.6300 685.0000 1.0000
28.6400 693.0000 1.0000
28.6500 698.0000 1.0000
28.6600 748.0000 1.0000
28.6700 706.0000 1.0000
28.6800 720.0000 1.0000
28.6900 722.0000 1.0000
28.7000 711.0000 1.0000
28.7100 700.0000 1.0000
28.7200 738.0000 1.0000
28.7300 691.0000 1.0000
28.7400 731.0000 1.0000
28.7500 699.0000 1.0000
28.7600 722.0000 1.0000
28.7700 736.0000 1.0000
28.7800 703.0000 1.0000
28.7900 692.0000 1.0000
28.8000 699.0000 1.0000
28.8100 710.0000 1.0000
28.8200 738.0000 1.0000
28.8300 751.0000 1.0000
28.8400 743.0000 1.0000
28.8500 727.0000 1.0000
28.8600 697.0000 1.0000
28.8700 682.0000 1.0000
28.8800 727.0000 1.0000
28.8900 705.0000 1.0000
28.9000 669.0000 1.0000
28.9100 708.0000 1.0000
28.9200 709.0000 1.0000
28.9300 690.0000 1.0000
28.9400 728.0000 1.0000
28.9500 700.0000 1.0000
28.9600 709.0000 1.0000
28.9700 703.0000 1.0000
28.9800 712.0000 1.0000
28.9900 726.0000 1.0000
29.0000 756.0000 1.0000
29.0100 734.0000 1.0000
29.0200 704.0000 1.0000
29.0300 652.0000 1.0000
29.0400 717.0000 1.0000
29.0500 706.0000 1.0000
29.0600 702.0000 1.0000
29.0700 710.0000 1.0000
29.0800 721.0000 1.0000
29.0900 698.0000 1.0000
29.1000 762.0000 1.0000
29.1100 723.0000 1.0000
29.1200 704.0000 1.0000
29.1300 700.0000 1.0000
29.1400 688.0000 1.0000
29.1500 712.0000 1.0000
29.1600 720.0000 1.0000
29.1700 739.0000 1.0000
29.1800 689.0000 1.0000
29.1900 683.0000 1.0000
29.2000 678.0000 1.0000
29.2100 704.0000 1.0000
29.2200 671.0000 1.0000
29.2300 674.0000 1.0000
29.2400 715.0000 1.0000
29.2500 713.0000 1.0000
29.2600 720.0000 1.0000
29.2700 723.0000 1.0000
29.2800 715.0000 1.0000
29.2900 695.0000 1.0000
29.3000 698.0000 1.0000
29.3100 716.0000 1.0000
29.3200 696.0000 1.0000
29.3300 705.0000 1.0000
29.3400 695.0000 1.0000
29.3500 714.0000 1.0000
29.3600 708.0000 1.0000
29.3700 711.0000 1.0000
29.3800 694.0000 1.0000
29.3900 692.0000 1.0000
29.4000 709.0000 1.0000
29.4100 701.0000 1.0000
29.4200 657.0000 1.0000
29.4300 664.0000 1.0000
29.4400 707.0000 1.0000
29.4500 691.0000 1.0000
29.4600 697.0000 1.0000
29.4700 744.0000 1.0000
29.4800 678.0000 1.0000
29.4900 650.0000 1.0000
29.5000 657.0000 1.0000
29.5100 712.0000 1.0000
29.5200 675.0000 1.0000
29.5300 655.0000 1.0000
29.5400 683.0000 1.0000
29.5500 694.0000 1.0000
29.5600 669.0000 1.0000
29.5700 705.0000 1.0000
29.5800 699.0000 1.0000
29.5900 687.0000 1.0000
29.6000 670.0000 1.0000
29.6100 687.0000 1.0000
29.6200 681.0000 1.0000
29.6300 687.0000 1.0000
29.6400 716.0000 1.0000
29.6500 674.0000 1.0000
29.6600 695.0000 1.0000
29.6700 688.0000 1.0000
29.6800 674.0000 1.0000
29.6900 681.0000 1.0000
29.7000 647.0000 1.0000
29.7100 734.0000 1.0000
29.7200 692.0000 1.0000
29.7300 708.0000 1.0000
29.7400 688.0000 1.0000
29.7500 668.0000 1.0000
29.7600 645.0000 1.0000
29.7700 710.0000 1.0000
29.7800 712.0000 1.0000
29.7900 687.0000 1.0000
29.8000 683.0000 1.0000
29.8100 710.0000 1.0000
29.8200 699.0000 1.0000
29.8300 700.0000 1.0000
29.8400 680.0000 1.0000
29.8500 669.0000 1.0000
29.8600 695.0000 1.0000
29.8700 663.0000 1.0000
29.8800 692.0000 1.0000
29.8900 683.0000 1.0000
29.9000 673.0000 1.0000
29.9100 690.0000 1.0000
29.9200 701.0000 1.0000
29.9300 678.0000 1.0000
29.9400 678.0000 1.0000
29.9500 691.0000 1.0000
29.9600 704.0000 1.0000
29.9700 686.0000 1.0000
29.9800 657.0000 1.0000
29.9900 683.0000 1.0000
30.0000 662.0000 1.0000
30.0100 706.0000 1.0000
30.0200 665.0000 1.0000
30.0300 675.0000 1.0000
30.0400 701.0000 1.0000
30.0500 710.0000 1.0000
30.0600 656.0000 1.0000
30.0700 634.0000 1.0000
30.0800 634.0000 1.0000
30.0900 692.0000 1.0000
30.1000 662.0000 1.0000
30.1100 678.0000 1.0000
30.1200 668.0000 1.0000
30.1300 672.0000 1.0000
30.1400 640.0000 1.0000
30.1500 667.0000 1.0000
30.1600 699.0000 1.0000
30.1700 679.0000 1.0000
30.1800 704.0000 1.0000
30.1900 636.0000 1.0000
30.2000 662.0000 1.0000
30.2100 678.0000 1.0000
30.2200 688.0000 1.0000
30.2300 726.0000 1.0000
30.2400 698.0000 1.0000
30.2500 657.0000 1.0000
30.2600 664.0000 1.0000
30.2700 656.0000 1.0000
30.2800 646.0000 1.0000
30.2900 718.0000 1.0000
30.3000 682.0000 1.0000
30.3100 664.0000 1.0000
30.3200 659.0000 1.0000
30.3300 666.0000 1.0000
30.3400 670.0000 1.0000
30.3500 648.0000 1.0000
30.3600 628.0000 1.0000
30.3700 682.0000 1.0000
30.3800 640.0000 1.0000
30.3900 649.0000 1.0000
30.4000 684.0000 1.0000
30.4100 667.0000 1.0000
30.4200 672.0000 1.0000
30.4300 679.0000 1.0000
30.4400 622.0000 1.0000
30.4500 691.0000 1.0000
30.4600 696.0000 1.0000
30.4700 655.0000 1.0000
30.4800 644.0000 1.0000
30.4900 655.0000 1.0000
30.5000 624.0000 1.0000
30.5100 657.0000 1.0000
30.5200 649.0000 1.0000
30.5300 662.0000 1.0000
30.5400 626.0000 1.0000
30.5500 668.0000 1.0000
30.5600 669.0000 1.0000
30.5700 683.0000 1.0000
30.5800 678.0000 1.0000
30.5900 653.0000 1.0000
30.6000 614.0000 1.0000
30.6100 672.0000 1.0000
30.6200 668.0000 1.0000
30.6300 652.0000 1.0000
30.6400 666.0000 1.0000
30.6500 635.0000 1.0000
30.6600 624.0000 1.0000
30.6700 668.0000 1.0000
30.6800 656.0000 1.0000
30.6900 678.0000 1.0000
30.7000 651.0000 1.0000
30.7100 664.0000 1.0000
30.7200 685.0000 1.0000
30.7300 619.0000 1.0000
30.7400 656.0000 1.0000
30.7500 643.0000 1.0000
30.7600 632.0000 1.0000
30.7700 603.0000 1.0000
30.7800 642.0000 1.0000
30.7900 672.0000 1.0000
30.8000 660.0000 1.0000
30.8100 623.0000 1.0000
30.8200 629.0000 1.0000
30.8300 623.0000 1.0000
30.8400 643.0000 1.0000
30.8500 664.0000 1.0000
30.8600 669.0000 1.0000
30.8700 643.0000 1.0000
30.8800 618.0000 1.0000
30.8900 605.0000 1.0000
30.9000 682.0000 1.0000
30.9100 672.0000 1.0000
30.9200 646.0000 1.0000
30.9300 677.0000 1.0000
30.9400 654.0000 1.0000
30.9500 658.0000 1.0000
30.9600 637.0000 1.0000
30.9700 633.0000 1.0000
30.9800 645.0000 1.0000
30.9900 653.0000 1.0000
31.0000 636.0000 1.0000
31.0100 662.0000 1.0000
31.0200 666.0000 1.0000
31.0300 652.0000 1.0000
31.0400 672.0000 1.0000
31.0500 670.0000 1.0000
31.0600 692.0000 1.0000
31.0700 669.0000 1.0000
31.0800 652.0000 1.0000
31.0900 660.0000 1.0000
31.1000 680.0000 1.0000
31.1100 682.0000 1.0000
31.1200 678.0000 1.0000
31.1300 685.0000 1.0000
31.1400 693.0000 1.0000
31.1500 692.0000 1.0000
31.1600 678.0000 1.0000
31.1700 688.0000 1.0000
31.1800 661.0000 1.0000
31.1900 659.0000 1.0000
31.2000 633.0000 1.0000
31.2100 620.0000 1.0000
31.2200 640.0000 1.0000
31.2300 653.0000 1.0000
31.2400 618.0000 1.0000
31.2500 636.0000 1.0000
31.2600 624.0000 1.0000
31.2700 662.0000 1.0000
31.2800 604.0000 1.0000
31.2900 635.0000 1.0000
31.3000 650.0000 1.0000
31.3100 609.0000 1.0000
31.3200 618.0000 1.0000
31.3300 686.0000 1.0000
31.3400 635.0000 1.0000
31.3500 597.0000 1.0000
31.3600 643.0000 1.0000
31.3700 652.0000 1.0000
31.3800 659.0000 1.0000
31.3900 663.0000 1.0000
31.4000 665.0000 1.0000
31.4100 619.0000 1.0000
31.4200 653.0000 1.0000
31.4300 651.0000 1.0000
31.4400 622.0000 1.0000
31.4500 653.0000 1.0000
31.4600 618.0000 1.0000
31.4700 637.0000 1.0000
31.4800 636.0000 1.0000
31.4900 638.0000 1.0000
31.5000 654.0000 1.0000
31.5100 649.0000 1.0000
31.5200 642.0000 1.0000
31.5300 682.0000 1.0000
31.5400 652.0000 1.0000
31.5500 653.0000 1.0000
31.5600 644.0000 1.0000
31.5700 632.0000 1.0000
31.5800 656.0000 1.0000
31.5900 602.0000 1.0000
31.6000 598.0000 1.0000
31.6100 610.0000 1.0000
31.6200 649.0000 1.0000
31.6300 644.0000 1.0000
31.6400 664.0000 1.0000
31.6500 631.0000 1.0000
31.6600 625.0000 1.0000
31.6700 640.0000 1.0000
31.6800 583.0000 1.0000
31.6900 613.0000 1.0000
31.7000 600.0000 1.0000
31.7100 582.0000 1.0000
31.7200 621.0000 1.0000
31.7300 594.0000 1.0000
31.7400 645.0000 1.0000
31.7500 583.0000 1.0000
31.7600 613.0000 1.0000
31.7700 607.0000 1.0000
31.7800 597.0000 1.0000
31.7900 664.0000 1.0000
31.8000 645.0000 1.0000
31.8100 642.0000 1.0000
31.8200 570.0000 1.0000
31.8300 603.0000 1.0000
31.8400 647.0000 1.0000
31.8500 664.0000 1.0000
31.8600 661.0000 1.0000
31.8700 615.0000 1.0000
31.8800 633.0000 1.0000
31.8900 617.0000 1.0000
31.9000 634.0000 1.0000
31.9100 602.0000 1.0000
31.9200 639.0000 1.0000
31.9300 616.0000 1.0000
31.9400 600.0000 1.0000
31.9500 601.0000 1.0000
31.9600 643.0000 1.0000
31.9700 661.0000 1.0000
31.9800 618.0000 1.0000
31.9900 600.0000 1.0000
32.0000 627.0000 1.0000
32.0100 606.0000 1.0000
32.0200 567.0000 1.0000
32.0300 652.0000 1.0000
32.0400 623.0000 1.0000
32.0500 620.0000 1.0000
32.0600 631.0000 1.0000
32.0700 609.0000 1.0000
32.0800 633.0000 1.0000
32.0900 644.0000 1.0000
32.1000 660.0000 1.0000
32.1100 604.0000 1.0000
32.1200 594.0000 1.0000
32.1300 585.0000 1.0000
32.1400 615.0000 1.0000
32.1500 616.0000 1.0000
32.1600 624.0000 1.0000
32.1700 564.0000 1.0000
32.1800 596.0000 1.0000
32.1900 664.0000 1.0000
32.2000 628.0000 1.0000
32.2100 639.0000 1.0000
32.2200 616.0000 1.0000
32.2300 595.0000 1.0000
32.2400 609.0000 1.0000
32.2500 616.0000 1.0000
32.2600 574.0000 1.0000
32.2700 592.0000 1.0000
32.2800 613.0000 1.0000
32.2900 648.0000 1.0000
32.3000 645.0000 1.0000
32.3100 594.0000 1.0000
32.3200 617.0000 1.0000
32.3300 596.0000 1.0000
32.3400 629.0000 1.0000
32.3500 627.0000 1.0000
32.3600 603.0000 1.0000
32.3700 587.0000 1.0000
32.3800 582.0000 1.0000
32.3900 641.0000 1.0000
32.4000 608.0000 1.0000
32.4100 654.0000 1.0000
32.4200 612.0000 1.0000
32.4300 645.0000 1.0000
32.4400 609.0000 1.0000
32.4500 599.0000 1.0000
32.4600 627.0000 1.0000
32.4700 633.0000 1.0000
32.4800 590.0000 1.0000
32.4900 617.0000 1.0000
32.5000 612.0000 1.0000
32.5100 616.0000 1.0000
32.5200 592.0000 1.0000
32.5300 619.0000 1.0000
32.5400 596.0000 1.0000
32.5500 552.0000 1.0000
32.5600 554.0000 1.0000
32.5700 611.0000 1.0000
32.5800 631.0000 1.0000
32.5900 600.0000 1.0000
32.6000 614.0000 1.0000
32.6100 609.0000 1.0000
32.6200 625.0000 1.0000
32.6300 589.0000 1.0000
32.6400 592.0000 1.0000
32.6500 618.0000 1.0000
32.6600 562.0000 1.0000
32.6700 612.0000 1.0000
32.6800 584.0000 1.0000
32.6900 608.0000 1.0000
32.7000 635.0000 1.0000
32.7100 622.0000 1.0000
32.7200 615.0000 1.0000
32.7300 633.0000 1.0000
32.7400 617.0000 1.0000
32.7500 607.0000 1.0000
32.7600 636.0000 1.0000
32.7700 625.0000 1.0000
32.7800 606.0000 1.0000
32.7900 600.0000 1.0000
32.8000 573.0000 1.0000
32.8100 598.0000 1.0000
32.8200 630.0000 1.0000
32.8300 587.0000 1.0000
32.8400 633.0000 1.0000
32.8500 633.0000 1.0000
32.8600 606.0000 1.0000
32.8700 639.0000 1.0000
32.8800 626.0000 1.0000
32.8900 637.0000 1.0000
32.9000 658.0000 1.0000
32.9100 649.0000 1.0000
32.9200 596.0000 1.0000
32.9300 662.0000 1.0000
32.9400 635.0000 1.0000
32.9500 688.0000 1.0000
32.9600 683.0000 1.0000
32.9700 671.0000 1.0000
32.9800 700.0000 1.0000
32.9900 664.0000 1.0000
33.0000 663.0000 1.0000
33.0100 710.0000 1.0000
33.0200 694.0000 1.0000
33.0300 672.0000 1.0000
33.0400 746.0000 1.0000
33.0500 706.0000 1.0000
33.0600 713.0000 1.0000
33.0700 758.0000 1.0000
33.0800 743.0000 1.0000
33.0900 741.0000 1.0000
33.1000 773.0000 1.0000
33.1100 747.0000 1.0000
33.1200 720.0000 1.0000
33.1300 756.0000 1.0000
33.1400 800.0000 1.0000
33.1500 776.0000 1.0000
33.1600 762.0000 1.0000
33.1700 707.0000 1.0000
33.1800 716.0000 1.0000
33.1900 724.0000 1.0000
33.2000 743.0000 1.0000
33.2100 736.0000 1.0000
33.2200 753.0000 1.0000
33.2300 716.0000 1.0000
33.2400 706.0000 1.0000
33.2500 716.0000 1.0000
33.2600 693.0000 1.0000
33.2700 675.0000 1.0000
33.2800 693.0000 1.0000
33.2900 659.0000 1.0000
33.3000 725.0000 1.0000
33.3100 700.0000 1.0000
33.3200 691.0000 1.0000
33.3300 678.0000 1.0000
33.3400 671.0000 1.0000
33.3500 679.0000 1.0000
33.3600 673.0000 1.0000
33.3700 723.0000 1.0000
33.3800 728.0000 1.0000
33.3900 721.0000 1.0000
33.4000 702.0000 1.0000
33.4100 726.0000 1.0000
33.4200 713.0000 1.0000
33.4300 740.0000 1.0000
33.4400 762.0000 1.0000
33.4500 782.0000 1.0000
33.4600 837.0000 1.0000
33.4700 837.0000 1.0000
33.4800 879.0000 1.0000
33.4900 862.0000 1.0000
33.5000 871.0000 1.0000
33.5100 868.0000 1.0000
33.5200 934.0000 1.0000
33.5300 935.0000 1.0000
33.5400 952.0000 1.0000
33.5500 1009.0000 1.0000
33.5600 1009.0000 1.0000
33.5700 1074.0000 1.0000
33.5800 1139.0000 1.0000
33.5900 1235.0000 1.0000
33.6000 1292.0000 1.0000
33.6100 1343.0000 1.0000
33.6200 1378.0000 1.0000
33.6300 1434.0000 1.0000
33.6400 1510.0000 1.0000
33.6500 1518.0000 1.0000
33.6600 1516.0000 1.0000
33.6700 1530.0000 1.0000
33.6800 1490.0000 1.0000
33.6900 1489.0000 1.0000
33.7000 1474.0000 1.0000
33.7100 1451.0000 1.0000
33.7200 1467.0000 1.0000
33.7300 1422.0000 1.0000
33.7400 1328.0000 1.0000
33.7500 1283.0000 1.0000
33.7600 1295.0000 1.0000
33.7700 1276.0000 1.0000
33.7800 1186.0000 1.0000
33.7900 1154.0000 1.0000
33.8000 1034.0000 1.0000
33.8100 1006.0000 1.0000
33.8200 1013.0000 1.0000
33.8300 965.0000 1.0000
33.8400 917.0000 1.0000
33.8500 862.0000 1.0000
33.8600 845.0000 1.0000
33.8700 781.0000 1.0000
33.8800 804.0000 1.0000
33.8900 788.0000 1.0000
33.9000 822.0000 1.0000
33.9100 788.0000 1.0000
33.9200 787.0000 1.0000
33.9300 749.0000 1.0000
33.9400 734.0000 1.0000
33.9500 707.0000 1.0000
33.9600 723.0000 1.0000
33.9700 687.0000 1.0000
33.9800 665.0000 1.0000
33.9900 658.0000 1.0000
34.0000 675.0000 1.0000
34.0100 700.0000 1.0000
34.0200 647.0000 1.0000
34.0300 674.0000 1.0000
34.0400 699.0000 1.0000
34.0500 658.0000 1.0000
34.0600 650.0000 1.0000
34.0700 613.0000 1.0000
34.0800 603.0000 1.0000
34.0900 628.0000 1.0000
34.1000 612.0000 1.0000
34.1100 633.0000 1.0000
34.1200 633.0000 1.0000
34.1300 594.0000 1.0000
34.1400 635.0000 1.0000
34.1500 625.0000 1.0000
34.1600 589.0000 1.0000
34.1700 632.0000 1.0000
34.1800 600.0000 1.0000
34.1900 592.0000 1.0000
34.2000 596.0000 1.0000
34.2100 590.0000 1.0000
34.2200 580.0000 1.0000
34.2300 613.0000 1.0000
34.2400 599.0000 1.0000
34.2500 564.0000 1.0000
34.2600 571.0000 1.0000
34.2700 586.0000 1.0000
34.2800 595.0000 1.0000
34.2900 587.0000 1.0000
34.3000 582.0000 1.0000
34.3100 571.0000 1.0000
34.3200 566.0000 1.0000
34.3300 568.0000 1.0000
34.3400 584.0000 1.0000
34.3500 601.0000 1.0000
34.3600 603.0000 1.0000
34.3700 588.0000 1.0000
34.3800 575.0000 1.0000
34.3900 550.0000 1.0000
34.4000 549.0000 1.0000
34.4100 550.0000 1.0000
34.4200 536.0000 1.0000
34.4300 550.0000 1.0000
34.4400 553.0000 1.0000
34.4500 548.0000 1.0000
34.4600 525.0000 1.0000
34.4700 553.0000 1.0000
34.4800 527.0000 1.0000
34.4900 592.0000 1.0000
34.5000 549.0000 1.0000
34.5100 550.0000 1.0000
34.5200 568.0000 1.0000
34.5300 560.0000 1.0000
34.5400 518.0000 1.0000
34.5500 535.0000 1.0000
34.5600 488.0000 1.0000
34.5700 546.0000 1.0000
34.5800 520.0000 1.0000
34.5900 548.0000 1.0000
34.6000 536.0000 1.0000
34.6100 567.0000 1.0000
34.6200 533.0000 1.0000
34.6300 534.0000 1.0000
34.6400 550.0000 1.0000
34.6500 521.0000 1.0000
34.6600 543.0000 1.0000
34.6700 523.0000 1.0000
34.6800 551.0000 1.0000
34.6900 543.0000 1.0000
34.7000 542.0000 1.0000
34.7100 501.0000 1.0000
34.7200 561.0000 1.0000
34.7300 541.0000 1.0000
34.7400 541.0000 1.0000
34.7500 540.0000 1.0000
34.7600 551.0000 1.0000
34.7700 551.0000 1.0000
34.7800 560.0000 1.0000
34.7900 496.0000 1.0000
34.8000 480.0000 1.0000
34.8100 534.0000 1.0000
34.8200 517.0000 1.0000
34.8300 531.0000 1.0000
34.8400 525.0000 1.0000
34.8500 524.0000 1.0000
34.8600 534.0000 1.0000
34.8700 530.0000 1.0000
34.8800 567.0000 1.0000
34.8900 532.0000 1.0000
34.9000 500.0000 1.0000
34.9100 543.0000 1.0000
34.9200 513.0000 1.0000
34.9300 512.0000 1.0000
34.9400 518.0000 1.0000
34.9500 529.0000 1.0000
34.9600 533.0000 1.0000
34.9700 519.0000 1.0000
34.9800 532.0000 1.0000
34.9900 514.0000 1.0000
35.0000 561.0000 1.0000
35.0100 545.0000 1.0000
35.0200 547.0000 1.0000
35.0300 538.0000 1.0000
35.0400 574.0000 1.0000
35.0500 530.0000 1.0000
35.0600 519.0000 1.0000
35.0700 557.0000 1.0000
35.0800 528.0000 1.0000
35.0900 502.0000 1.0000
35.1000 486.0000 1.0000
35.1100 554.0000 1.0000
35.1200 544.0000 1.0000
35.1300 517.0000 1.0000
35.1400 511.0000 1.0000
35.1500 517.0000 1.0000
35.1600 544.0000 1.0000
35.1700 555.0000 1.0000
35.1800 553.0000 1.0000
35.1900 529.0000 1.0000
35.2000 540.0000 1.0000
35.2100 528.0000 1.0000
35.2200 530.0000 1.0000
35.2300 535.0000 1.0000
35.2400 553.0000 1.0000
35.2500 556.0000 1.0000
35.2600 554.0000 1.0000
35.2700 569.0000 1.0000
35.2800 572.0000 1.0000
35.2900 511.0000 1.0000
35.3000 567.0000 1.0000
35.3100 526.0000 1.0000
35.3200 533.0000 1.0000
35.3300 561.0000 1.0000
35.3400 597.0000 1.0000
35.3500 600.0000 1.0000
35.3600 580.0000 1.0000
35.3700 568.0000 1.0000
35.3800 596.0000 1.0000
35.3900 620.0000 1.0000
35.4000 596.0000 1.0000
35.4100 612.0000 1.0000
35.4200 631.0000 1.0000
35.4300 644.0000 1.0000
35.4400 727.0000 1.0000
35.4500 676.0000 1.0000
35.4600 707.0000 1.0000
35.4700 712.0000 1.0000
35.4800 689.0000 1.0000
35.4900 748.0000 1.0000
35.5000 824.0000 1.0000
35.5100 822.0000 1.0000
35.5200 773.0000 1.0000
35.5300 822.0000 1.0000
35.5400 956.0000 1.0000
35.5500 909.0000 1.0000
35.5600 949.0000 1.0000
35.5700 991.0000 1.0000
35.5800 978.0000 1.0000
35.5900 985.0000 1.0000
35.6000 1001.0000 1.0000
35.6100 1007.0000 1.0000
35.6200 916.0000 1.0000
35.6300 973.0000 1.0000
35.6400 975.0000 1.0000
35.6500 902.0000 1.0000
35.6600 862.0000 1.0000
35.6700 878.0000 1.0000
35.6800 788.0000 1.0000
35.6900 819.0000 1.0000
35.7000 764.0000 1.0000
35.7100 762.0000 1.0000
35.7200 767.0000 1.0000
35.7300 725.0000 1.0000
35.7400 626.0000 1.0000
35.7500 651.0000 1.0000
35.7600 639.0000 1.0000
35.7700 668.0000 1.0000
35.7800 600.0000 1.0000
35.7900 621.0000 1.0000
35.8000 567.0000 1.0000
35.8100 568.0000 1.0000
35.8200 525.0000 1.0000
35.8300 531.0000 1.0000
35.8400 559.0000 1.0000
35.8500 524.0000 1.0000
35.8600 568.0000 1.0000
35.8700 529.0000 1.0000
35.8800 552.0000 1.0000
35.8900 540.0000 1.0000
35.9000 529.0000 1.0000
35.9100 473.0000 1.0000
35.9200 526.0000 1.0000
35.9300 541.0000 1.0000
35.9400 510.0000 1.0000
35.9500 494.0000 1.0000
35.9600 469.0000 1.0000
35.9700 485.0000 1.0000
35.9800 492.0000 1.0000
35.9900 497.0000 1.0000
36.0000 485.0000 1.0000
36.0100 508.0000 1.0000
36.0200 474.0000 1.0000
36.0300 483.0000 1.0000
36.0400 515.0000 1.0000
36.0500 485.0000 1.0000
36.0600 485.0000 1.0000
36.0700 477.0000 1.0000
36.0800 481.0000 1.0000
36.0900 471.0000 1.0000
36.1000 485.0000 1.0000
36.1100 476.0000 1.0000
36.1200 472.0000 1.0000
36.1300 463.0000 1.0000
36.1400 470.0000 1.0000
36.1500 513.0000 1.0000
36.1600 493.0000 1.0000
36.1700 462.0000 1.0000
36.1800 463.0000 1.0000
36.1900 477.0000 1.0000
36.2000 477.0000 1.0000
36.2100 461.0000 1.0000
36.2200 487.0000 1.0000
36.2300 493.0000 1.0000
36.2400 503.0000 1.0000
36.2500 473.0000 1.0000
36.2600 467.0000 1.0000
36.2700 489.0000 1.0000
36.2800 499.0000 1.0000
36.2900 464.0000 1.0000
36.3000 487.0000 1.0000
36.3100 484.0000 1.0000
36.3200 466.0000 1.0000
36.3300 504.0000 1.0000
36.3400 523.0000 1.0000
36.3500 529.0000 1.0000
36.3600 516.0000 1.0000
36.3700 468.0000 1.0000
36.3800 453.0000 1.0000
36.3900 521.0000 1.0000
36.4000 528.0000 1.0000
36.4100 497.0000 1.0000
36.4200 482.0000 1.0000
36.4300 492.0000 1.0000
36.4400 511.0000 1.0000
36.4500 471.0000 1.0000
36.4600 470.0000 1.0000
36.4700 495.0000 1.0000
36.4800 504.0000 1.0000
36.4900 473.0000 1.0000
36.5000 467.0000 1.0000
36.5100 502.0000 1.0000
36.5200 471.0000 1.0000
36.5300 475.0000 1.0000
36.5400 480.0000 1.0000
36.5500 511.0000 1.0000
36.5600 457.0000 1.0000
36.5700 497.0000 1.0000
36.5800 473.0000 1.0000
36.5900 472.0000 1.0000
36.6000 520.0000 1.0000
36.6100 494.0000 1.0000
36.6200 464.0000 1.0000
36.6300 486.0000 1.0000
36.6400 502.0000 1.0000
36.6500 520.0000 1.0000
36.6600 487.0000 1.0000
36.6700 476.0000 1.0000
36.6800 474.0000 1.0000
36.6900 491.0000 1.0000
36.7000 516.0000 1.0000
36.7100 454.0000 1.0000
36.7200 483.0000 1.0000
36.7300 487.0000 1.0000
36.7400 504.0000 1.0000
36.7500 465.0000 1.0000
36.7600 454.0000 1.0000
36.7700 473.0000 1.0000
36.7800 483.0000 1.0000
36.7900 490.0000 1.0000
36.8000 489.0000 1.0000
36.8100 490.0000 1.0000
36.8200 479.0000 1.0000
36.8300 480.0000 1.0000
36.8400 458.0000 1.0000
36.8500 487.0000 1.0000
36.8600 485.0000 1.0000
36.8700 447.0000 1.0000
36.8800 465.0000 1.0000
36.8900 497.0000 1.0000
36.9000 448.0000 1.0000
36.9100 464.0000 1.0000
36.9200 475.0000 1.0000
36.9300 471.0000 1.0000
36.9400 460.0000 1.0000
36.9500 483.0000 1.0000
36.9600 442.0000 1.0000
36.9700 479.0000 1.0000
36.9800 463.0000 1.0000
36.9900 505.0000 1.0000
37.0000 482.0000 1.0000
37.0100 488.0000 1.0000
37.0200 501.0000 1.0000
37.0300 470.0000 1.0000
37.0400 446.0000 1.0000
37.0500 495.0000 1.0000
37.0600 454.0000 1.0000
37.0700 481.0000 1.0000
37.0800 465.0000 1.0000
37.0900 466.0000 1.0000
37.1000 505.0000 1.0000
37.1100 453.0000 1.0000
37.1200 488.0000 1.0000
37.1300 479.0000 1.0000
37.1400 471.0000 1.0000
37.1500 493.0000 1.0000
37.1600 502.0000 1.0000
37.1700 491.0000 1.0000
37.1800 477.0000 1.0000
37.1900 522.0000 1.0000
37.2000 493.0000 1.0000
37.2100 531.0000 1.0000
37.2200 505.0000 1.0000
37.2300 475.0000 1.0000
37.2400 479.0000 1.0000
37.2500 542.0000 1.0000
37.2600 530.0000 1.0000
37.2700 457.0000 1.0000
37.2800 528.0000 1.0000
37.2900 556.0000 1.0000
37.3000 537.0000 1.0000
37.3100 539.0000 1.0000
37.3200 540.0000 1.0000
37.3300 502.0000 1.0000
37.3400 559.0000 1.0000
37.3500 556.0000 1.0000
37.3600 566.0000 1.0000
37.3700 574.0000 1.0000
37.3800 600.0000 1.0000
37.3900 575.0000 1.0000
37.4000 606.0000 1.0000
37.4100 647.0000 1.0000
37.4200 658.0000 1.0000
37.4300 674.0000 1.0000
37.4400 654.0000 1.0000
37.4500 639.0000 1.0000
37.4600 699.0000 1.0000
37.4700 728.0000 1.0000
37.4800 727.0000 1.0000
37.4900 764.0000 1.0000
37.5000 782.0000 1.0000
37.5100 846.0000 1.0000
37.5200 910.0000 1.0000
37.5300 921.0000 1.0000
37.5400 996.0000 1.0000
37.5500 1040.0000 1.0000
37.5600 1063.0000 1.0000
37.5700 1142.0000 1.0000
37.5800 1202.0000 1.0000
37.5900 1292.0000 1.0000
37.6000 1381.0000 1.0000
37.6100 1457.0000 1.0000
37.6200 1499.0000 1.0000
37.6300 1632.0000 1.0000
37.6400 1753.0000 1.0000
37.6500 1803.0000 1.0000
37.6600 1911.0000 1.0000
37.6700 2096.0000 1.0000
37.6800 2145.0000 1.0000
37.6900 2312.0000 1.0000
37.7000 2318.0000 1.0000
37.7100 2257.0000 1.0000
37.7200 2296.0000 1.0000
37.7300 2370.0000 1.0000
37.7400 2270.0000 1.0000
37.7500 2193.0000 1.0000
37.7600 2314.0000 1.0000
37.7700 2198.0000 1.0000
37.7800 2103.0000 1.0000
37.7900 2082.0000 1.0000
37.8000 2009.0000 1.0000
37.8100 1851.0000 1.0000
37.8200 1753.0000 1.0000
37.8300 1709.0000 1.0000
37.8400 1640.0000 1.0000
37.8500 1528.0000 1.0000
37.8600 1453.0000 1.0000
37.8700 1348.0000 1.0000
37.8800 1286.0000 1.0000
37.8900 1215.0000 1.0000
37.9000 1136.0000 1.0000
37.9100 1074.0000 1.0000
37.9200 1051.0000 1.0000
37.9300 921.0000 1.0000
37.9400 876.0000 1.0000
37.9500 856.0000 1.0000
37.9600 838.0000 1.0000
37.9700 807.0000 1.0000
37.9800 706.0000 1.0000
37.9900 672.0000 1.0000
38.0000 657.0000 1.0000
38.0100 684.0000 1.0000
38.0200 654.0000 1.0000
38.0300 672.0000 1.0000
38.0400 654.0000 1.0000
38.0500 626.0000 1.0000
38.0600 621.0000 1.0000
38.0700 572.0000 1.0000
38.0800 553.0000 1.0000
38.0900 572.0000 1.0000
38.1000 517.0000 1.0000
38.1100 526.0000 1.0000
38.1200 511.0000 1.0000
38.1300 515.0000 1.0000
38.1400 530.0000 1.0000
38.1500 502.0000 1.0000
38.1600 530.0000 1.0000
38.1700 500.0000 1.0000
38.1800 494.0000 1.0000
38.1900 475.0000 1.0000
38.2000 482.0000 1.0000
38.2100 497.0000 1.0000
38.2200 473.0000 1.0000
38.2300 486.0000 1.0000
38.2400 524.0000 1.0000
38.2500 491.0000 1.0000
38.2600 497.0000 1.0000
38.2700 473.0000 1.0000
38.2800 488.0000 1.0000
38.2900 502.0000 1.0000
38.3000 505.0000 1.0000
38.3100 475.0000 1.0000
38.3200 466.0000 1.0000
38.3300 481.0000 1.0000
38.3400 473.0000 1.0000
38.3500 444.0000 1.0000
38.3600 445.0000 1.0000
38.3700 419.0000 1.0000
38.3800 454.0000 1.0000
38.3900 474.0000 1.0000
38.4000 467.0000 1.0000
38.4100 457.0000 1.0000
38.4200 440.0000 1.0000
38.4300 436.0000 1.0000
38.4400 455.0000 1.0000
38.4500 450.0000 1.0000
38.4600 422.0000 1.0000
38.4700 451.0000 1.0000
38.4800 416.0000 1.0000
38.4900 397.0000 1.0000
38.5000 431.0000 1.0000
38.5100 417.0000 1.0000
38.5200 433.0000 1.0000
38.5300 455.0000 1.0000
38.5400 452.0000 1.0000
38.5500 440.0000 1.0000
38.5600 447.0000 1.0000
38.5700 477.0000 1.0000
38.5800 472.0000 1.0000
38.5900 450.0000 1.0000
38.6000 438.0000 1.0000
38.6100 474.0000 1.0000
38.6200 437.0000 1.0000
38.6300 463.0000 1.0000
38.6400 445.0000 1.0000
38.6500 421.0000 1.0000
38.6600 446.0000 1.0000
38.6700 453.0000 1.0000
38.6800 402.0000 1.0000
38.6900 434.0000 1.0000
38.7000 437.0000 1.0000
38.7100 478.0000 1.0000
38.7200 452.0000 1.0000
38.7300 444.0000 1.0000
38.7400 443.0000 1.0000
38.7500 464.0000 1.0000
38.7600 473.0000 1.0000
38.7700 479.0000 1.0000
38.7800 453.0000 1.0000
38.7900 462.0000 1.0000
38.8000 468.0000 1.0000
38.8100 483.0000 1.0000
38.8200 454.0000 1.0000
38.8300 425.0000 1.0000
38.8400 451.0000 1.0000
38.8500 454.0000 1.0000
38.8600 441.0000 1.0000
38.8700 466.0000 1.0000
38.8800 455.0000 1.0000
38.8900 466.0000 1.0000
38.9000 449.0000 1.0000
38.9100 431.0000 1.0000
38.9200 431.0000 1.0000
38.9300 453.0000 1.0000
38.9400 440.0000 1.0000
38.9500 460.0000 1.0000
38.9600 443.0000 1.0000
38.9700 461.0000 1.0000
38.9800 436.0000 1.0000
38.9900 438.0000 1.0000
39.0000 429.0000 1.0000
39.0100 416.0000 1.0000
39.0200 436.0000 1.0000
39.0300 403.0000 1.0000
39.0400 403.0000 1.0000
39.0500 439.0000 1.0000
39.0600 402.0000 1.0000
39.0700 432.0000 1.0000
39.0800 459.0000 1.0000
39.0900 438.0000 1.0000
39.1000 424.0000 1.0000
39.1100 411.0000 1.0000
39.1200 427.0000 1.0000
39.1300 418.0000 1.0000
39.1400 402.0000 1.0000
39.1500 420.0000 1.0000
39.1600 432.0000 1.0000
39.1700 440.0000 1.0000
39.1800 417.0000 1.0000
39.1900 428.0000 1.0000
39.2000 398.0000 1.0000
39.2100 393.0000 1.0000
39.2200 428.0000 1.0000
39.2300 429.0000 1.0000
39.2400 417.0000 1.0000
39.2500 436.0000 1.0000
39.2600 434.0000 1.0000
39.2700 413.0000 1.0000
39.2800 420.0000 1.0000
39.2900 418.0000 1.0000
39.3000 408.0000 1.0000
39.3100 437.0000 1.0000
39.3200 445.0000 1.0000
39.3300 408.0000 1.0000
39.3400 420.0000 1.0000
39.3500 423.0000 1.0000
39.3600 408.0000 1.0000
39.3700 421.0000 1.0000
39.3800 395.0000 1.0000
39.3900 413.0000 1.0000
39.4000 396.0000 1.0000
39.4100 418.0000 1.0000
39.4200 432.0000 1.0000
39.4300 387.0000 1.0000
39.4400 412.0000 1.0000
39.4500 420.0000 1.0000
39.4600 412.0000 1.0000
39.4700 426.0000 1.0000
39.4800 427.0000 1.0000
39.4900 447.0000 1.0000
39.5000 429.0000 1.0000
39.5100 428.0000 1.0000
39.5200 397.0000 1.0000
39.5300 392.0000 1.0000
39.5400 388.0000 1.0000
39.5500 425.0000 1.0000
39.5600 384.0000 1.0000
39.5700 405.0000 1.0000
39.5800 397.0000 1.0000
39.5900 414.0000 1.0000
39.6000 407.0000 1.0000
39.6100 412.0000 1.0000
39.6200 398.0000 1.0000
39.6300 433.0000 1.0000
39.6400 423.0000 1.0000
39.6500 454.0000 1.0000
39.6600 387.0000 1.0000
39.6700 431.0000 1.0000
39.6800 404.0000 1.0000
39.6900 409.0000 1.0000
39.7000 411.0000 1.0000
39.7100 427.0000 1.0000
39.7200 436.0000 1.0000
39.7300 410.0000 1.0000
39.7400 417.0000 1.0000
39.7500 423.0000 1.0000
39.7600 426.0000 1.0000
39.7700 427.0000 1.0000
39.7800 419.0000 1.0000
39.7900 408.0000 1.0000
39.8000 401.0000 1.0000
39.8100 385.0000 1.0000
39.8200 421.0000 1.0000
39.8300 391.0000 1.0000
39.8400 388.0000 1.0000
39.8500 426.0000 1.0000
39.8600 384.0000 1.0000
39.8700 419.0000 1.0000
39.8800 404.0000 1.0000
39.8900 394.0000 1.0000
39.9000 375.0000 1.0000
39.9100 387.0000 1.0000
39.9200 399.0000 1.0000
39.9300 399.0000 1.0000
39.9400 410.0000 1.0000
39.9500 395.0000 1.0000
39.9600 402.0000 1.0000
39.9700 381.0000 1.0000
39.9800 437.0000 1.0000
39.9900 403.0000 1.0000
40.0000 401.0000 1.0000
40.0100 404.0000 1.0000
40.0200 394.0000 1.0000
40.0300 381.0000 1.0000
40.0400 386.0000 1.0000
40.0500 423.0000 1.0000
40.0600 389.0000 1.0000
40.0700 401.0000 1.0000
40.0800 398.0000 1.0000
40.0900 368.0000 1.0000
40.1000 399.0000 1.0000
40.1100 384.0000 1.0000
40.1200 411.0000 1.0000
40.1300 404.0000 1.0000
40.1400 377.0000 1.0000
40.1500 418.0000 1.0000
40.1600 419.0000 1.0000
40.1700 414.0000 1.0000
40.1800 424.0000 1.0000
40.1900 418.0000 1.0000
40.2000 433.0000 1.0000
40.2100 414.0000 1.0000
40.2200 414.0000 1.0000
40.2300 375.0000 1.0000
40.2400 413.0000 1.0000
40.2500 423.0000 1.0000
40.2600 420.0000 1.0000
40.2700 381.0000 1.0000
40.2800 389.0000 1.0000
40.2900 362.0000 1.0000
40.3000 412.0000 1.0000
40.3100 394.0000 1.0000
40.3200 401.0000 1.0000
40.3300 368.0000 1.0000
40.3400 403.0000 1.0000
40.3500 431.0000 1.0000
40.3600 404.0000 1.0000
40.3700 394.0000 1.0000
40.3800 386.0000 1.0000
40.3900 368.0000 1.0000
40.4000 446.0000 1.0000
40.4100 380.0000 1.0000
40.4200 389.0000 1.0000
40.4300 407.0000 1.0000
40.4400 420.0000 1.0000
40.4500 404.0000 1.0000
40.4600 385.0000 1.0000
40.4700 393.0000 1.0000
40.4800 409.0000 1.0000
40.4900 387.0000 1.0000
40.5000 393.0000 1.0000
40.5100 429.0000 1.0000
40.5200 411.0000 1.0000
40.5300 411.0000 1.0000
40.5400 372.0000 1.0000
40.5500 381.0000 1.0000
40.5600 402.0000 1.0000
40.5700 406.0000 1.0000
40.5800 381.0000 1.0000
40.5900 422.0000 1.0000
40.6000 409.0000 1.0000
40.6100 381.0000 1.0000
40.6200 388.0000 1.0000
40.6300 404.0000 1.0000
40.6400 406.0000 1.0000
40.6500 419.0000 1.0000
40.6600 417.0000 1.0000
40.6700 441.0000 1.0000
40.6800 397.0000 1.0000
40.6900 401.0000 1.0000
40.7000 395.0000 1.0000
40.7100 435.0000 1.0000
40.7200 423.0000 1.0000
40.7300 440.0000 1.0000
40.7400 400.0000 1.0000
40.7500 421.0000 1.0000
40.7600 450.0000 1.0000
40.7700 427.0000 1.0000
40.7800 450.0000 1.0000
40.7900 408.0000 1.0000
40.8000 433.0000 1.0000
40.8100 431.0000 1.0000
40.8200 413.0000 1.0000
40.8300 441.0000 1.0000
40.8400 414.0000 1.0000
40.8500 405.0000 1.0000
40.8600 406.0000 1.0000
40.8700 425.0000 1.0000
40.8800 418.0000 1.0000
40.8900 421.0000 1.0000
40.9000 413.0000 1.0000
40.9100 416.0000 1.0000
40.9200 435.0000 1.0000
40.9300 406.0000 1.0000
40.9400 388.0000 1.0000
40.9500 424.0000 1.0000
40.9600 400.0000 1.0000
40.9700 426.0000 1.0000
40.9800 445.0000 1.0000
40.9900 394.0000 1.0000
41.0000 419.0000 1.0000
41.0100 406.0000 1.0000
41.0200 398.0000 1.0000
41.0300 389.0000 1.0000
41.0400 404.0000 1.0000
41.0500 420.0000 1.0000
41.0600 415.0000 1.0000
41.0700 409.0000 1.0000
41.0800 417.0000 1.0000
41.0900 384.0000 1.0000
41.1000 380.0000 1.0000
41.1100 383.0000 1.0000
41.1200 375.0000 1.0000
41.1300 386.0000 1.0000
41.1400 408.0000 1.0000
41.1500 379.0000 1.0000
41.1600 405.0000 1.0000
41.1700 372.0000 1.0000
41.1800 416.0000 1.0000
41.1900 435.0000 1.0000
41.2000 404.0000 1.0000
41.2100 402.0000 1.0000
41.2200 370.0000 1.0000
41.2300 396.0000 1.0000
41.2400 391.0000 1.0000
41.2500 391.0000 1.0000
41.2600 383.0000 1.0000
41.2700 378.0000 1.0000
41.2800 347.0000 1.0000
41.2900 390.0000 1.0000
41.3000 396.0000 1.0000
41.3100 409.0000 1.0000
41.3200 387.0000 1.0000
41.3300 385.0000 1.0000
41.3400 419.0000 1.0000
41.3500 394.0000 1.0000
41.3600 382.0000 1.0000
41.3700 376.0000 1.0000
41.3800 386.0000 1.0000
41.3900 420.0000 1.0000
41.4000 372.0000 1.0000
41.4100 376.0000 1.0000
41.4200 383.0000 1.0000
41.4300 401.0000 1.0000
41.4400 375.0000 1.0000
41.4500 371.0000 1.0000
41.4600 388.0000 1.0000
41.4700 411.0000 1.0000
41.4800 397.0000 1.0000
41.4900 383.0000 1.0000
41.5000 366.0000 1.0000
41.5100 380.0000 1.0000
41.5200 398.0000 1.0000
41.5300 387.0000 1.0000
41.5400 400.0000 1.0000
41.5500 399.0000 1.0000
41.5600 400.0000 1.0000
41.5700 415.0000 1.0000
41.5800 410.0000 1.0000
41.5900 366.0000 1.0000
41.6000 397.0000 1.0000
41.6100 404.0000 1.0000
41.6200 379.0000 1.0000
41.6300 408.0000 1.0000
41.6400 383.0000 1.0000
41.6500 376.0000 1.0000
41.6600 394.0000 1.0000
41.6700 412.0000 1.0000
41.6800 405.0000 1.0000
41.6900 396.0000 1.0000
41.7000 397.0000 1.0000
41.7100 400.0000 1.0000
41.7200 391.0000 1.0000
41.7300 388.0000 1.0000
41.7400 369.0000 1.0000
41.7500 393.0000 1.0000
41.7600 398.0000 1.0000
41.7700 412.0000 1.0000
41.7800 395.0000 1.0000
41.7900 366.0000 1.0000
41.8000 405.0000 1.0000
41.8100 374.0000 1.0000
41.8200 345.0000 1.0000
41.8300 385.0000 1.0000
41.8400 374.0000 1.0000
41.8500 376.0000 1.0000
41.8600 390.0000 1.0000
41.8700 400.0000 1.0000
41.8800 385.0000 1.0000
41.8900 393.0000 1.0000
41.9000 390.0000 1.0000
41.9100 399.0000 1.0000
41.9200 392.0000 1.0000
41.9300 393.0000 1.0000
41.9400 423.0000 1.0000
41.9500 374.0000 1.0000
41.9600 407.0000 1.0000
41.9700 391.0000 1.0000
41.9800 426.0000 1.0000
41.9900 407.0000 1.0000
42.0000 401.0000 1.0000
42.0100 394.0000 1.0000
42.0200 347.0000 1.0000
42.0300 381.0000 1.0000
42.0400 365.0000 1.0000
42.0500 348.0000 1.0000
42.0600 400.0000 1.0000
42.0700 386.0000 1.0000
42.0800 388.0000 1.0000
42.0900 367.0000 1.0000
42.1000 383.0000 1.0000
42.1100 351.0000 1.0000
42.1200 389.0000 1.0000
42.1300 386.0000 1.0000
42.1400 366.0000 1.0000
42.1500 404.0000 1.0000
42.1600 429.0000 1.0000
42.1700 428.0000 1.0000
42.1800 423.0000 1.0000
42.1900 416.0000 1.0000
42.2000 387.0000 1.0000
42.2100 377.0000 1.0000
42.2200 413.0000 1.0000
42.2300 404.0000 1.0000
42.2400 407.0000 1.0000
42.2500 389.0000 1.0000
42.2600 388.0000 1.0000
42.2700 421.0000 1.0000
42.2800 452.0000 1.0000
42.2900 424.0000 1.0000
42.3000 418.0000 1.0000
42.3100 432.0000 1.0000
42.3200 414.0000 1.0000
42.3300 383.0000 1.0000
42.3400 450.0000 1.0000
42.3500 438.0000 1.0000
42.3600 405.0000 1.0000
42.3700 407.0000 1.0000
42.3800 413.0000 1.0000
42.3900 433.0000 1.0000
42.4000 430.0000 1.0000
42.4100 432.0000 1.0000
42.4200 384.0000 1.0000
42.4300 371.0000 1.0000
42.4400 427.0000 1.0000
42.4500 404.0000 1.0000
42.4600 427.0000 1.0000
42.4700 422.0000 1.0000
42.4800 428.0000 1.0000
42.4900 428.0000 1.0000
42.5000 386.0000 1.0000
42.5100 397.0000 1.0000
42.5200 395.0000 1.0000
42.5300 420.0000 1.0000
42.5400 404.0000 1.0000
42.5500 390.0000 1.0000
42.5600 384.0000 1.0000
42.5700 380.0000 1.0000
42.5800 392.0000 1.0000
42.5900 406.0000 1.0000
42.6000 407.0000 1.0000
42.6100 414.0000 1.0000
42.6200 402.0000 1.0000
42.6300 420.0000 1.0000
42.6400 374.0000 1.0000
42.6500 382.0000 1.0000
42.6600 404.0000 1.0000
42.6700 397.0000 1.0000
42.6800 381.0000 1.0000
42.6900 407.0000 1.0000
42.7000 385.0000 1.0000
42.7100 374.0000 1.0000
42.7200 367.0000 1.0000
42.7300 356.0000 1.0000
42.7400 364.0000 1.0000
42.7500 377.0000 1.0000
42.7600 388.0000 1.0000
42.7700 392.0000 1.0000
42.7800 399.0000 1.0000
42.7900 350.0000 1.0000
42.8000 384.0000 1.0000
42.8100 365.0000 1.0000
42.8200 370.0000 1.0000
42.8300 379.0000 1.0000
42.8400 390.0000 1.0000
42.8500 372.0000 1.0000
42.8600 380.0000 1.0000
42.8700 382.0000 1.0000
42.8800 404.0000 1.0000
42.8900 414.0000 1.0000
42.9000 403.0000 1.0000
42.9100 405.0000 1.0000
42.9200 370.0000 1.0000
42.9300 394.0000 1.0000
42.9400 351.0000 1.0000
42.9500 385.0000 1.0000
42.9600 383.0000 1.0000
42.9700 363.0000 1.0000
42.9800 381.0000 1.0000
42.9900 361.0000 1.0000
43.0000 356.0000 1.0000
43.0100 362.0000 1.0000
43.0200 366.0000 1.0000
43.0300 367.0000 1.0000
43.0400 381.0000 1.0000
43.0500 394.0000 1.0000
43.0600 387.0000 1.0000
43.0700 375.0000 1.0000
43.0800 357.0000 1.0000
43.0900 381.0000 1.0000
43.1000 398.0000 1.0000
43.1100 426.0000 1.0000
43.1200 384.0000 1.0000
43.1300 370.0000 1.0000
43.1400 362.0000 1.0000
43.1500 379.0000 1.0000
43.1600 373.0000 1.0000
43.1700 390.0000 1.0000
43.1800 381.0000 1.0000
43.1900 388.0000 1.0000
43.2000 407.0000 1.0000
43.2100 371.0000 1.0000
43.2200 382.0000 1.0000
43.2300 380.0000 1.0000
43.2400 383.0000 1.0000
43.2500 350.0000 1.0000
43.2600 393.0000 1.0000
43.2700 396.0000 1.0000
43.2800 416.0000 1.0000
43.2900 407.0000 1.0000
43.3000 372.0000 1.0000
43.3100 368.0000 1.0000
43.3200 360.0000 1.0000
43.3300 403.0000 1.0000
43.3400 392.0000 1.0000
43.3500 412.0000 1.0000
43.3600 398.0000 1.0000
43.3700 415.0000 1.0000
43.3800 390.0000 1.0000
43.3900 391.0000 1.0000
43.4000 385.0000 1.0000
43.4100 409.0000 1.0000
43.4200 405.0000 1.0000
43.4300 394.0000 1.0000
43.4400 371.0000 1.0000
43.4500 390.0000 1.0000
43.4600 384.0000 1.0000
43.4700 380.0000 1.0000
43.4800 399.0000 1.0000
43.4900 405.0000 1.0000
43.5000 387.0000 1.0000
43.5100 341.0000 1.0000
43.5200 406.0000 1.0000
43.5300 398.0000 1.0000
43.5400 388.0000 1.0000
43.5500 427.0000 1.0000
43.5600 388.0000 1.0000
43.5700 375.0000 1.0000
43.5800 372.0000 1.0000
43.5900 388.0000 1.0000
43.6000 386.0000 1.0000
43.6100 428.0000 1.0000
43.6200 351.0000 1.0000
43.6300 385.0000 1.0000
43.6400 355.0000 1.0000
43.6500 365.0000 1.0000
43.6600 368.0000 1.0000
43.6700 353.0000 1.0000
43.6800 371.0000 1.0000
43.6900 355.0000 1.0000
43.7000 379.0000 1.0000
43.7100 369.0000 1.0000
43.7200 387.0000 1.0000
43.7300 397.0000 1.0000
43.7400 373.0000 1.0000
43.7500 351.0000 1.0000
43.7600 343.0000 1.0000
43.7700 371.0000 1.0000
43.7800 382.0000 1.0000
43.7900 407.0000 1.0000
43.8000 374.0000 1.0000
43.8100 383.0000 1.0000
43.8200 366.0000 1.0000
43.8300 389.0000 1.0000
43.8400 386.0000 1.0000
43.8500 372.0000 1.0000
43.8600 382.0000 1.0000
43.8700 370.0000 1.0000
43.8800 383.0000 1.0000
43.8900 383.0000 1.0000
43.9000 377.0000 1.0000
43.9100 384.0000 1.0000
43.9200 353.0000 1.0000
43.9300 364.0000 1.0000
43.9400 348.0000 1.0000
43.9500 351.0000 1.0000
43.9600 374.0000 1.0000
43.9700 395.0000 1.0000
43.9800 389.0000 1.0000
43.9900 340.0000 1.0000
44.0000 375.0000 1.0000
44.0100 390.0000 1.0000
44.0200 344.0000 1.0000
44.0300 361.0000 1.0000
44.0400 365.0000 1.0000
44.0500 350.0000 1.0000
44.0600 339.0000 1.0000
44.0700 361.0000 1.0000
44.0800 339.0000 1.0000
44.0900 350.0000 1.0000
44.1000 377.0000 1.0000
44.1100 376.0000 1.0000
44.1200 375.0000 1.0000
44.1300 349.0000 1.0000
44.1400 368.0000 1.0000
44.1500 413.0000 1.0000
44.1600 373.0000 1.0000
44.1700 368.0000 1.0000
44.1800 376.0000 1.0000
44.1900 375.0000 1.0000
44.2000 375.0000 1.0000
44.2100 374.0000 1.0000
44.2200 375.0000 1.0000
44.2300 361.0000 1.0000
44.2400 340.0000 1.0000
44.2500 348.0000 1.0000
44.2600 370.0000 1.0000
44.2700 344.0000 1.0000
44.2800 375.0000 1.0000
44.2900 365.0000 1.0000
44.3000 385.0000 1.0000
44.3100 368.0000 1.0000
44.3200 360.0000 1.0000
44.3300 366.0000 1.0000
44.3400 357.0000 1.0000
44.3500 384.0000 1.0000
44.3600 364.0000 1.0000
44.3700 391.0000 1.0000
44.3800 353.0000 1.0000
44.3900 344.0000 1.0000
44.4000 387.0000 1.0000
44.4100 386.0000 1.0000
44.4200 395.0000 1.0000
44.4300 402.0000 1.0000
44.4400 358.0000 1.0000
44.4500 359.0000 1.0000
44.4600 383.0000 1.0000
44.4700 362.0000 1.0000
44.4800 394.0000 1.0000
44.4900 369.0000 1.0000
44.5000 357.0000 1.0000
44.5100 353.0000 1.0000
44.5200 367.0000 1.0000
44.5300 378.0000 1.0000
44.5400 392.0000 1.0000
44.5500 347.0000 1.0000
44.5600 386.0000 1.0000
44.5700 383.0000 1.0000
44.5800 388.0000 1.0000
44.5900 376.0000 1.0000
44.6000 396.0000 1.0000
44.6100 384.0000 1.0000
44.6200 385.0000 1.0000
44.6300 369.0000 1.0000
44.6400 357.0000 1.0000
44.6500 354.0000 1.0000
44.6600 366.0000 1.0000
44.6700 360.0000 1.0000
44.6800 370.0000 1.0000
44.6900 360.0000 1.0000
44.7000 355.0000 1.0000
44.7100 330.0000 1.0000
44.7200 337.0000 1.0000
44.7300 331.0000 1.0000
44.7400 340.0000 1.0000
44.7500 333.0000 1.0000
44.7600 333.0000 1.0000
44.7700 394.0000 1.0000
44.7800 382.0000 1.0000
44.7900 354.0000 1.0000
44.8000 357.0000 1.0000
44.8100 359.0000 1.0000
44.8200 385.0000 1.0000
44.8300 366.0000 1.0000
44.8400 343.0000 1.0000
44.8500 348.0000 1.0000
44.8600 389.0000 1.0000
44.8700 396.0000 1.0000
44.8800 365.0000 1.0000
44.8900 372.0000 1.0000
44.9000 374.0000 1.0000
44.9100 364.0000 1.0000
44.9200 370.0000 1.0000
44.9300 365.0000 1.0000
44.9400 359.0000 1.0000
44.9500 375.0000 1.0000
44.9600 366.0000 1.0000
44.9700 344.0000 1.0000
44.9800 349.0000 1.0000
44.9900 348.0000 1.0000
45.0000 333.0000 1.0000
45.0100 375.0000 1.0000
45.0200 335.0000 1.0000
45.0300 337.0000 1.0000
45.0400 331.0000 1.0000
45.0500 358.0000 1.0000
45.0600 365.0000 1.0000
45.0700 376.0000 1.0000
45.0800 380.0000 1.0000
45.0900 342.0000 1.0000
45.1000 361.0000 1.0000
45.1100 353.0000 1.0000
45.1200 357.0000 1.0000
45.1300 395.0000 1.0000
45.1400 343.0000 1.0000
45.1500 346.0000 1.0000
45.1600 334.0000 1.0000
45.1700 373.0000 1.0000
45.1800 372.0000 1.0000
45.1900 339.0000 1.0000
45.2000 357.0000 1.0000
45.2100 354.0000 1.0000
45.2200 341.0000 1.0000
45.2300 342.0000 1.0000
45.2400 356.0000 1.0000
45.2500 357.0000 1.0000
45.2600 356.0000 1.0000
45.2700 353.0000 1.0000
45.2800 387.0000 1.0000
45.2900 375.0000 1.0000
45.3000 343.0000 1.0000
45.3100 363.0000 1.0000
45.3200 391.0000 1.0000
45.3300 358.0000 1.0000
45.3400 378.0000 1.0000
45.3500 348.0000 1.0000
45.3600 372.0000 1.0000
45.3700 340.0000 1.0000
45.3800 341.0000 1.0000
45.3900 351.0000 1.0000
45.4000 365.0000 1.0000
45.4100 342.0000 1.0000
45.4200 344.0000 1.0000
45.4300 357.0000 1.0000
45.4400 384.0000 1.0000
45.4500 354.0000 1.0000
45.4600 348.0000 1.0000
45.4700 366.0000 1.0000
45.4800 335.0000 1.0000
45.4900 362.0000 1.0000
45.5000 336.0000 1.0000
45.5100 349.0000 1.0000
45.5200 341.0000 1.0000
45.5300 378.0000 1.0000
45.5400 348.0000 1.0000
45.5500 379.0000 1.0000
45.5600 379.0000 1.0000
45.5700 344.0000 1.0000
45.5800 343.0000 1.0000
45.5900 345.0000 1.0000
45.6000 345.0000 1.0000
45.6100 337.0000 1.0000
45.6200 340.0000 1.0000
45.6300 331.0000 1.0000
45.6400 354.0000 1.0000
45.6500 359.0000 1.0000
45.6600 364.0000 1.0000
45.6700 352.0000 1.0000
45.6800 343.0000 1.0000
45.6900 345.0000 1.0000
45.7000 351.0000 1.0000
45.7100 379.0000 1.0000
45.7200 354.0000 1.0000
45.7300 341.0000 1.0000
45.7400 345.0000 1.0000
45.7500 350.0000 1.0000
45.7600 354.0000 1.0000
45.7700 358.0000 1.0000
45.7800 331.0000 1.0000
45.7900 337.0000 1.0000
45.8000 344.0000 1.0000
45.8100 354.0000 1.0000
45.8200 353.0000 1.0000
45.8300 342.0000 1.0000
45.8400 325.0000 1.0000
45.8500 359.0000 1.0000
45.8600 363.0000 1.0000
45.8700 352.0000 1.0000
45.8800 380.0000 1.0000
45.8900 369.0000 1.0000
45.9000 349.0000 1.0000
45.9100 354.0000 1.0000
45.9200 346.0000 1.0000
45.9300 353.0000 1.0000
45.9400 343.0000 1.0000
45.9500 354.0000 1.0000
45.9600 351.0000 1.0000
45.9700 368.0000 1.0000
45.9800 386.0000 1.0000
45.9900 347.0000 1.0000
46.0000 352.0000 1.0000
46.0100 367.0000 1.0000
46.0200 375.0000 1.0000
46.0300 353.0000 1.0000
46.0400 345.0000 1.0000
46.0500 332.0000 1.0000
46.0600 368.0000 1.0000
46.0700 347.0000 1.0000
46.0800 341.0000 1.0000
46.0900 387.0000 1.0000
46.1000 349.0000 1.0000
46.1100 350.0000 1.0000
46.1200 365.0000 1.0000
46.1300 354.0000 1.0000
46.1400 354.0000 1.0000
46.1500 367.0000 1.0000
46.1600 353.0000 1.0000
46.1700 358.0000 1.0000
46.1800 361.0000 1.0000
46.1900 389.0000 1.0000
46.2000 381.0000 1.0000
46.2100 360.0000 1.0000
46.2200 383.0000 1.0000
46.2300 400.0000 1.0000
46.2400 359.0000 1.0000
46.2500 366.0000 1.0000
46.2600 368.0000 1.0000
46.2700 346.0000 1.0000
46.2800 351.0000 1.0000
46.2900 367.0000 1.0000
46.3000 370.0000 1.0000
46.3100 380.0000 1.0000
46.3200 365.0000 1.0000
46.3300 372.0000 1.0000
46.3400 336.0000 1.0000
46.3500 338.0000 1.0000
46.3600 360.0000 1.0000
46.3700 361.0000 1.0000
46.3800 364.0000 1.0000
46.3900 377.0000 1.0000
46.4000 355.0000 1.0000
46.4100 346.0000 1.0000
46.4200 338.0000 1.0000
46.4300 351.0000 1.0000
46.4400 336.0000 1.0000
46.4500 361.0000 1.0000
46.4600 335.0000 1.0000
46.4700 357.0000 1.0000
46.4800 390.0000 1.0000
46.4900 327.0000 1.0000
46.5000 351.0000 1.0000
46.5100 349.0000 1.0000
46.5200 379.0000 1.0000
46.5300 340.0000 1.0000
46.5400 360.0000 1.0000
46.5500 364.0000 1.0000
46.5600 338.0000 1.0000
46.5700 330.0000 1.0000
46.5800 333.0000 1.0000
46.5900 371.0000 1.0000
46.6000 360.0000 1.0000
46.6100 353.0000 1.0000
46.6200 328.0000 1.0000
46.6300 318.0000 1.0000
46.6400 330.0000 1.0000
46.6500 362.0000 1.0000
46.6600 342.0000 1.0000
46.6700 341.0000 1.0000
46.6800 340.0000 1.0000
46.6900 338.0000 1.0000
46.7000 327.0000 1.0000
46.7100 350.0000 1.0000
46.7200 335.0000 1.0000
46.7300 325.0000 1.0000
46.7400 344.0000 1.0000
46.7500 360.0000 1.0000
46.7600 346.0000 1.0000
46.7700 362.0000 1.0000
46.7800 360.0000 1.0000
46.7900 352.0000 1.0000
46.8000 356.0000 1.0000
46.8100 368.0000 1.0000
46.8200 352.0000 1.0000
46.8300 337.0000 1.0000
46.8400 341.0000 1.0000
46.8500 352.0000 1.0000
46.8600 336.0000 1.0000
46.8700 349.0000 1.0000
46.8800 331.0000 1.0000
46.8900 342.0000 1.0000
46.9000 357.0000 1.0000
46.9100 358.0000 1.0000
46.9200 342.0000 1.0000
46.9300 342.0000 1.0000
46.9400 352.0000 1.0000
46.9500 357.0000 1.0000
46.9600 360.0000 1.0000
46.9700 357.0000 1.0000
46.9800 352.0000 1.0000
46.9900 341.0000 1.0000
47.0000 332.0000 1.0000
47.0100 332.0000 1.0000
47.0200 338.0000 1.0000
47.0300 329.0000 1.0000
47.0400 309.0000 1.0000
47.0500 329.0000 1.0000
47.0600 340.0000 1.0000
47.0700 337.0000 1.0000
47.0800 330.0000 1.0000
47.0900 344.0000 1.0000
47.1000 382.0000 1.0000
47.1100 355.0000 1.0000
47.1200 355.0000 1.0000
47.1300 344.0000 1.0000
47.1400 377.0000 1.0000
47.1500 297.0000 1.0000
47.1600 324.0000 1.0000
47.1700 330.0000 1.0000
47.1800 339.0000 1.0000
47.1900 358.0000 1.0000
47.2000 356.0000 1.0000
47.2100 326.0000 1.0000
47.2200 340.0000 1.0000
47.2300 308.0000 1.0000
47.2400 328.0000 1.0000
47.2500 347.0000 1.0000
47.2600 343.0000 1.0000
47.2700 338.0000 1.0000
47.2800 348.0000 1.0000
47.2900 332.0000 1.0000
47.3000 353.0000 1.0000
47.3100 351.0000 1.0000
47.3200 330.0000 1.0000
47.3300 316.0000 1.0000
47.3400 331.0000 1.0000
47.3500 326.0000 1.0000
47.3600 343.0000 1.0000
47.3700 311.0000 1.0000
47.3800 358.0000 1.0000
47.3900 332.0000 1.0000
47.4000 344.0000 1.0000
47.4100 347.0000 1.0000
47.4200 346.0000 1.0000
47.4300 334.0000 1.0000
47.4400 357.0000 1.0000
47.4500 288.0000 1.0000
47.4600 315.0000 1.0000
47.4700 336.0000 1.0000
47.4800 332.0000 1.0000
47.4900 349.0000 1.0000
47.5000 317.0000 1.0000
47.5100 333.0000 1.0000
47.5200 305.0000 1.0000
47.5300 354.0000 1.0000
47.5400 371.0000 1.0000
47.5500 315.0000 1.0000
47.5600 332.0000 1.0000
47.5700 322.0000 1.0000
47.5800 322.0000 1.0000
47.5900 335.0000 1.0000
47.6000 332.0000 1.0000
47.6100 344.0000 1.0000
47.6200 361.0000 1.0000
47.6300 325.0000 1.0000
47.6400 350.0000 1.0000
47.6500 348.0000 1.0000
47.6600 338.0000 1.0000
47.6700 339.0000 1.0000
47.6800 335.0000 1.0000
47.6900 329.0000 1.0000
47.7000 349.0000 1.0000
47.7100 333.0000 1.0000
47.7200 326.0000 1.0000
47.7300 345.0000 1.0000
47.7400 344.0000 1.0000
47.7500 332.0000 1.0000
47.7600 346.0000 1.0000
47.7700 305.0000 1.0000
47.7800 318.0000 1.0000
47.7900 321.0000 1.0000
47.8000 313.0000 1.0000
47.8100 330.0000 1.0000
47.8200 363.0000 1.0000
47.8300 306.0000 1.0000
47.8400 312.0000 1.0000
47.8500 337.0000 1.0000
47.8600 314.0000 1.0000
47.8700 325.0000 1.0000
47.8800 318.0000 1.0000
47.8900 333.0000 1.0000
47.9000 333.0000 1.0000
47.9100 335.0000 1.0000
47.9200 345.0000 1.0000
47.9300 339.0000 1.0000
47.9400 358.0000 1.0000
47.9500 337.0000 1.0000
47.9600 355.0000 1.0000
47.9700 346.0000 1.0000
47.9800 321.0000 1.0000
47.9900 327.0000 1.0000
48.0000 336.0000 1.0000
48.0100 344.0000 1.0000
48.0200 329.0000 1.0000
48.0300 362.0000 1.0000
48.0400 355.0000 1.0000
48.0500 338.0000 1.0000
48.0600 339.0000 1.0000
48.0700 339.0000 1.0000
48.0800 358.0000 1.0000
48.0900 337.0000 1.0000
48.1000 295.0000 1.0000
48.1100 332.0000 1.0000
48.1200 320.0000 1.0000
48.1300 321.0000 1.0000
48.1400 321.0000 1.0000
48.1500 346.0000 1.0000
48.1600 335.0000 1.0000
48.1700 312.0000 1.0000
48.1800 326.0000 1.0000
48.1900 312.0000 1.0000
48.2000 336.0000 1.0000
48.2100 309.0000 1.0000
48.2200 366.0000 1.0000
48.2300 342.0000 1.0000
48.2400 340.0000 1.0000
48.2500 333.0000 1.0000
48.2600 350.0000 1.0000
48.2700 370.0000 1.0000
48.2800 342.0000 1.0000
48.2900 333.0000 1.0000
48.3000 332.0000 1.0000
48.3100 316.0000 1.0000
48.3200 320.0000 1.0000
48.3300 302.0000 1.0000
48.3400 352.0000 1.0000
48.3500 355.0000 1.0000
48.3600 324.0000 1.0000
48.3700 330.0000 1.0000
48.3800 305.0000 1.0000
48.3900 317.0000 1.0000
48.4000 320.0000 1.0000
48.4100 332.0000 1.0000
48.4200 315.0000 1.0000
48.4300 349.0000 1.0000
48.4400 349.0000 1.0000
48.4500 318.0000 1.0000
48.4600 326.0000 1.0000
48.4700 311.0000 1.0000
48.4800 317.0000 1.0000
48.4900 329.0000 1.0000
48.5000 338.0000 1.0000
48.5100 310.0000 1.0000
48.5200 344.0000 1.0000
48.5300 339.0000 1.0000
48.5400 351.0000 1.0000
48.5500 313.0000 1.0000
48.5600 308.0000 1.0000
48.5700 348.0000 1.0000
48.5800 349.0000 1.0000
48.5900 328.0000 1.0000
48.6000 357.0000 1.0000
48.6100 326.0000 1.0000
48.6200 346.0000 1.0000
48.6300 338.0000 1.0000
48.6400 314.0000 1.0000
48.6500 319.0000 1.0000
48.6600 295.0000 1.0000
48.6700 328.0000 1.0000
48.6800 366.0000 1.0000
48.6900 349.0000 1.0000
48.7000 325.0000 1.0000
48.7100 330.0000 1.0000
48.7200 333.0000 1.0000
48.7300 326.0000 1.0000
48.7400 340.0000 1.0000
48.7500 337.0000 1.0000
48.7600 340.0000 1.0000
48.7700 335.0000 1.0000
48.7800 326.0000 1.0000
48.7900 338.0000 1.0000
48.8000 314.0000 1.0000
48.8100 324.0000 1.0000
48.8200 346.0000 1.0000
48.8300 351.0000 1.0000
48.8400 346.0000 1.0000
48.8500 363.0000 1.0000
48.8600 356.0000 1.0000
48.8700 350.0000 1.0000
48.8800 322.0000 1.0000
48.8900 322.0000 1.0000
48.9000 323.0000 1.0000
48.9100 314.0000 1.0000
48.9200 354.0000 1.0000
48.9300 352.0000 1.0000
48.9400 309.0000 1.0000
48.9500 369.0000 1.0000
48.9600 322.0000 1.0000
48.9700 335.0000 1.0000
48.9800 341.0000 1.0000
48.9900 326.0000 1.0000
49.0000 335.0000 1.0000
49.0100 342.0000 1.0000
49.0200 320.0000 1.0000
49.0300 367.0000 1.0000
49.0400 363.0000 1.0000
49.0500 360.0000 1.0000
49.0600 348.0000 1.0000
49.0700 312.0000 1.0000
49.0800 315.0000 1.0000
49.0900 321.0000 1.0000
49.1000 332.0000 1.0000
49.1100 336.0000 1.0000
49.1200 323.0000 1.0000
49.1300 307.0000 1.0000
49.1400 348.0000 1.0000
49.1500 331.0000 1.0000
49.1600 339.0000 1.0000
49.1700 353.0000 1.0000
49.1800 334.0000 1.0000
49.1900 346.0000 1.0000
49.2000 344.0000 1.0000
49.2100 366.0000 1.0000
49.2200 326.0000 1.0000
49.2300 337.0000 1.0000
49.2400 340.0000 1.0000
49.2500 345.0000 1.0000
49.2600 367.0000 1.0000
49.2700 351.0000 1.0000
49.2800 354.0000 1.0000
49.2900 374.0000 1.0000
49.3000 339.0000 1.0000
49.3100 341.0000 1.0000
49.3200 332.0000 1.0000
49.3300 359.0000 1.0000
49.3400 361.0000 1.0000
49.3500 388.0000 1.0000
49.3600 330.0000 1.0000
49.3700 313.0000 1.0000
49.3800 380.0000 1.0000
49.3900 365.0000 1.0000
49.4000 356.0000 1.0000
49.4100 344.0000 1.0000
49.4200 391.0000 1.0000
49.4300 408.0000 1.0000
49.4400 362.0000 1.0000
49.4500 370.0000 1.0000
49.4600 389.0000 1.0000
49.4700 353.0000 1.0000
49.4800 360.0000 1.0000
49.4900 353.0000 1.0000
49.5000 348.0000 1.0000
49.5100 351.0000 1.0000
49.5200 348.0000 1.0000
49.5300 330.0000 1.0000
49.5400 357.0000 1.0000
49.5500 345.0000 1.0000
49.5600 354.0000 1.0000
49.5700 381.0000 1.0000
49.5800 342.0000 1.0000
49.5900 337.0000 1.0000
49.6000 357.0000 1.0000
49.6100 344.0000 1.0000
49.6200 370.0000 1.0000
49.6300 394.0000 1.0000
49.6400 360.0000 1.0000
49.6500 360.0000 1.0000
49.6600 356.0000 1.0000
49.6700 320.0000 1.0000
49.6800 354.0000 1.0000
49.6900 337.0000 1.0000
49.7000 348.0000 1.0000
49.7100 353.0000 1.0000
49.7200 349.0000 1.0000
49.7300 354.0000 1.0000
49.7400 320.0000 1.0000
49.7500 360.0000 1.0000
49.7600 345.0000 1.0000
49.7700 347.0000 1.0000
49.7800 311.0000 1.0000
49.7900 335.0000 1.0000
49.8000 334.0000 1.0000
49.8100 317.0000 1.0000
49.8200 311.0000 1.0000
49.8300 311.0000 1.0000
49.8400 358.0000 1.0000
49.8500 361.0000 1.0000
49.8600 336.0000 1.0000
49.8700 308.0000 1.0000
49.8800 338.0000 1.0000
49.8900 331.0000 1.0000
49.9000 334.0000 1.0000
49.9100 312.0000 1.0000
49.9200 318.0000 1.0000
49.9300 347.0000 1.0000
49.9400 334.0000 1.0000
49.9500 336.0000 1.0000
49.9600 341.0000 1.0000
49.9700 344.0000 1.0000
49.9800 355.0000 1.0000
49.9900 334.0000 1.0000
50.0000 338.0000 1.0000
50.0100 327.0000 1.0000
50.0200 333.0000 1.0000
50.0300 323.0000 1.0000
50.0400 334.0000 1.0000
50.0500 357.0000 1.0000
50.0600 322.0000 1.0000
50.0700 345.0000 1.0000
50.0800 338.0000 1.0000
50.0900 322.0000 1.0000
50.1000 342.0000 1.0000
50.1100 350.0000 1.0000
50.1200 330.0000 1.0000
50.1300 315.0000 1.0000
50.1400 331.0000 1.0000
50.1500 323.0000 1.0000
50.1600 316.0000 1.0000
50.1700 348.0000 1.0000
50.1800 329.0000 1.0000
50.1900 337.0000 1.0000
50.2000 345.0000 1.0000
50.2100 352.0000 1.0000
50.2200 338.0000 1.0000
50.2300 329.0000 1.0000
50.2400 330.0000 1.0000
50.2500 351.0000 1.0000
50.2600 308.0000 1.0000
50.2700 326.0000 1.0000
50.2800 342.0000 1.0000
50.2900 342.0000 1.0000
50.3000 351.0000 1.0000
50.3100 310.0000 1.0000
50.3200 334.0000 1.0000
50.3300 321.0000 1.0000
50.3400 318.0000 1.0000
50.3500 326.0000 1.0000
50.3600 336.0000 1.0000
50.3700 341.0000 1.0000
50.3800 319.0000 1.0000
50.3900 331.0000 1.0000
50.4000 345.0000 1.0000
50.4100 358.0000 1.0000
50.4200 337.0000 1.0000
50.4300 360.0000 1.0000
50.4400 345.0000 1.0000
50.4500 357.0000 1.0000
50.4600 326.0000 1.0000
50.4700 324.0000 1.0000
50.4800 327.0000 1.0000
50.4900 326.0000 1.0000
50.5000 310.0000 1.0000
50.5100 331.0000 1.0000
50.5200 355.0000 1.0000
50.5300 343.0000 1.0000
50.5400 344.0000 1.0000
50.5500 350.0000 1.0000
50.5600 344.0000 1.0000
50.5700 311.0000 1.0000
50.5800 338.0000 1.0000
50.5900 318.0000 1.0000
50.6000 343.0000 1.0000
50.6100 344.0000 1.0000
50.6200 336.0000 1.0000
50.6300 363.0000 1.0000
50.6400 340.0000 1.0000
50.6500 312.0000 1.0000
50.6600 311.0000 1.0000
50.6700 321.0000 1.0000
50.6800 332.0000 1.0000
50.6900 353.0000 1.0000
50.7000 374.0000 1.0000
50.7100 307.0000 1.0000
50.7200 345.0000 1.0000
50.7300 325.0000 1.0000
50.7400 329.0000 1.0000
50.7500 351.0000 1.0000
50.7600 362.0000 1.0000
50.7700 344.0000 1.0000
50.7800 309.0000 1.0000
50.7900 371.0000 1.0000
50.8000 355.0000 1.0000
50.8100 346.0000 1.0000
50.8200 315.0000 1.0000
50.8300 346.0000 1.0000
50.8400 320.0000 1.0000
50.8500 349.0000 1.0000
50.8600 357.0000 1.0000
50.8700 337.0000 1.0000
50.8800 331.0000 1.0000
50.8900 348.0000 1.0000
50.9000 346.0000 1.0000
50.9100 373.0000 1.0000
50.9200 330.0000 1.0000
50.9300 326.0000 1.0000
50.9400 347.0000 1.0000
50.9500 355.0000 1.0000
50.9600 348.0000 1.0000
50.9700 374.0000 1.0000
50.9800 336.0000 1.0000
50.9900 387.0000 1.0000
51.0000 366.0000 1.0000
51.0100 342.0000 1.0000
51.0200 348.0000 1.0000
51.0300 379.0000 1.0000
51.0400 360.0000 1.0000
51.0500 358.0000 1.0000
51.0600 374.0000 1.0000
51.0700 387.0000 1.0000
51.0800 383.0000 1.0000
51.0900 401.0000 1.0000
51.1000 398.0000 1.0000
51.1100 406.0000 1.0000
51.1200 437.0000 1.0000
51.1300 405.0000 1.0000
51.1400 447.0000 1.0000
51.1500 461.0000 1.0000
51.1600 438.0000 1.0000
51.1700 426.0000 1.0000
51.1800 432.0000 1.0000
51.1900 460.0000 1.0000
51.2000 428.0000 1.0000
51.2100 479.0000 1.0000
51.2200 517.0000 1.0000
51.2300 507.0000 1.0000
51.2400 575.0000 1.0000
51.2500 582.0000 1.0000
51.2600 582.0000 1.0000
51.2700 599.0000 1.0000
51.2800 647.0000 1.0000
51.2900 708.0000 1.0000
51.3000 732.0000 1.0000
51.3100 734.0000 1.0000
51.3200 825.0000 1.0000
51.3300 780.0000 1.0000
51.3400 833.0000 1.0000
51.3500 918.0000 1.0000
51.3600 1003.0000 1.0000
51.3700 1006.0000 1.0000
51.3800 1174.0000 1.0000
51.3900 1258.0000 1.0000
51.4000 1344.0000 1.0000
51.4100 1486.0000 1.0000
51.4200 1604.0000 1.0000
51.4300 1685.0000 1.0000
51.4400 1811.0000 1.0000
51.4500 1997.0000 1.0000
51.4600 2058.0000 1.0000
51.4700 2182.0000 1.0000
51.4800 2183.0000 1.0000
51.4900 2307.0000 1.0000
51.5000 2302.0000 1.0000
51.5100 2325.0000 1.0000
51.5200 2297.0000 1.0000
51.5300 2231.0000 1.0000
51.5400 2106.0000 1.0000
51.5500 2058.0000 1.0000
51.5600 2002.0000 1.0000
51.5700 1885.0000 1.0000
51.5800 1880.0000 1.0000
51.5900 1797.0000 1.0000
51.6000 1760.0000 1.0000
51.6100 1751.0000 1.0000
51.6200 1698.0000 1.0000
51.6300 1715.0000 1.0000
51.6400 1600.0000 1.0000
51.6500 1479.0000 1.0000
51.6600 1447.0000 1.0000
51.6700 1334.0000 1.0000
51.6800 1296.0000 1.0000
51.6900 1176.0000 1.0000
51.7000 1123.0000 1.0000
51.7100 1045.0000 1.0000
51.7200 924.0000 1.0000
51.7300 892.0000 1.0000
51.7400 789.0000 1.0000
51.7500 714.0000 1.0000
51.7600 733.0000 1.0000
51.7700 656.0000 1.0000
51.7800 665.0000 1.0000
51.7900 626.0000 1.0000
51.8000 594.0000 1.0000
51.8100 584.0000 1.0000
51.8200 560.0000 1.0000
51.8300 525.0000 1.0000
51.8400 508.0000 1.0000
51.8500 498.0000 1.0000
51.8600 505.0000 1.0000
51.8700 488.0000 1.0000
51.8800 496.0000 1.0000
51.8900 470.0000 1.0000
51.9000 442.0000 1.0000
51.9100 441.0000 1.0000
51.9200 453.0000 1.0000
51.9300 416.0000 1.0000
51.9400 433.0000 1.0000
51.9500 416.0000 1.0000
51.9600 396.0000 1.0000
51.9700 414.0000 1.0000
51.9800 424.0000 1.0000
51.9900 418.0000 1.0000
52.0000 388.0000 1.0000
52.0100 370.0000 1.0000
52.0200 383.0000 1.0000
52.0300 381.0000 1.0000
52.0400 400.0000 1.0000
52.0500 369.0000 1.0000
52.0600 350.0000 1.0000
52.0700 367.0000 1.0000
52.0800 379.0000 1.0000
52.0900 373.0000 1.0000
52.1000 395.0000 1.0000
52.1100 364.0000 1.0000
52.1200 364.0000 1.0000
52.1300 359.0000 1.0000
52.1400 356.0000 1.0000
52.1500 361.0000 1.0000
52.1600 361.0000 1.0000
52.1700 362.0000 1.0000
52.1800 382.0000 1.0000
52.1900 328.0000 1.0000
52.2000 358.0000 1.0000
52.2100 351.0000 1.0000
52.2200 350.0000 1.0000
52.2300 345.0000 1.0000
52.2400 327.0000 1.0000
52.2500 364.0000 1.0000
52.2600 363.0000 1.0000
52.2700 341.0000 1.0000
52.2800 339.0000 1.0000
52.2900 333.0000 1.0000
52.3000 363.0000 1.0000
52.3100 348.0000 1.0000
52.3200 320.0000 1.0000
52.3300 342.0000 1.0000
52.3400 349.0000 1.0000
52.3500 349.0000 1.0000
52.3600 350.0000 1.0000
52.3700 345.0000 1.0000
52.3800 348.0000 1.0000
52.3900 341.0000 1.0000
52.4000 327.0000 1.0000
52.4100 338.0000 1.0000
52.4200 352.0000 1.0000
52.4300 338.0000 1.0000
52.4400 327.0000 1.0000
52.4500 343.0000 1.0000
52.4600 335.0000 1.0000
52.4700 336.0000 1.0000
52.4800 321.0000 1.0000
52.4900 345.0000 1.0000
52.5000 338.0000 1.0000
52.5100 309.0000 1.0000
52.5200 307.0000 1.0000
52.5300 296.0000 1.0000
52.5400 294.0000 1.0000
52.5500 326.0000 1.0000
52.5600 302.0000 1.0000
52.5700 330.0000 1.0000
52.5800 330.0000 1.0000
52.5900 340.0000 1.0000
52.6000 336.0000 1.0000
52.6100 322.0000 1.0000
52.6200 315.0000 1.0000
52.6300 338.0000 1.0000
52.6400 334.0000 1.0000
52.6500 335.0000 1.0000
52.6600 306.0000 1.0000
52.6700 321.0000 1.0000
52.6800 320.0000 1.0000
52.6900 317.0000 1.0000
52.7000 337.0000 1.0000
52.7100 310.0000 1.0000
52.7200 312.0000 1.0000
52.7300 349.0000 1.0000
52.7400 354.0000 1.0000
52.7500 309.0000 1.0000
52.7600 311.0000 1.0000
52.7700 339.0000 1.0000
52.7800 297.0000 1.0000
52.7900 311.0000 1.0000
52.8000 326.0000 1.0000
52.8100 322.0000 1.0000
52.8200 314.0000 1.0000
52.8300 326.0000 1.0000
52.8400 332.0000 1.0000
52.8500 318.0000 1.0000
52.8600 319.0000 1.0000
52.8700 342.0000 1.0000
52.8800 325.0000 1.0000
52.8900 320.0000 1.0000
52.9000 316.0000 1.0000
52.9100 297.0000 1.0000
52.9200 315.0000 1.0000
52.9300 336.0000 1.0000
52.9400 326.0000 1.0000
52.9500 335.0000 1.0000
52.9600 302.0000 1.0000
52.9700 306.0000 1.0000
52.9800 308.0000 1.0000
52.9900 304.0000 1.0000
53.0000 325.0000 1.0000
53.0100 338.0000 1.0000
53.0200 308.0000 1.0000
53.0300 316.0000 1.0000
53.0400 308.0000 1.0000
53.0500 340.0000 1.0000
53.0600 336.0000 1.0000
53.0700 317.0000 1.0000
53.0800 315.0000 1.0000
53.0900 333.0000 1.0000
53.1000 333.0000 1.0000
53.1100 326.0000 1.0000
53.1200 293.0000 1.0000
53.1300 323.0000 1.0000
53.1400 330.0000 1.0000
53.1500 324.0000 1.0000
53.1600 291.0000 1.0000
53.1700 334.0000 1.0000
53.1800 310.0000 1.0000
53.1900 325.0000 1.0000
53.2000 301.0000 1.0000
53.2100 302.0000 1.0000
53.2200 330.0000 1.0000
53.2300 326.0000 1.0000
53.2400 319.0000 1.0000
53.2500 354.0000 1.0000
53.2600 333.0000 1.0000
53.2700 316.0000 1.0000
53.2800 318.0000 1.0000
53.2900 342.0000 1.0000
53.3000 339.0000 1.0000
53.3100 331.0000 1.0000
53.3200 343.0000 1.0000
53.3300 331.0000 1.0000
53.3400 330.0000 1.0000
53.3500 309.0000 1.0000
53.3600 292.0000 1.0000
53.3700 343.0000 1.0000
53.3800 335.0000 1.0000
53.3900 307.0000 1.0000
53.4000 326.0000 1.0000
53.4100 317.0000 1.0000
53.4200 306.0000 1.0000
53.4300 324.0000 1.0000
53.4400 332.0000 1.0000
53.4500 323.0000 1.0000
53.4600 349.0000 1.0000
53.4700 337.0000 1.0000
53.4800 310.0000 1.0000
53.4900 294.0000 1.0000
53.5000 332.0000 1.0000
53.5100 325.0000 1.0000
53.5200 307.0000 1.0000
53.5300 300.0000 1.0000
53.5400 309.0000 1.0000
53.5500 303.0000 1.0000
53.5600 341.0000 1.0000
53.5700 330.0000 1.0000
53.5800 337.0000 1.0000
53.5900 328.0000 1.0000
53.6000 348.0000 1.0000
53.6100 323.0000 1.0000
53.6200 344.0000 1.0000
53.6300 327.0000 1.0000
53.6400 304.0000 1.0000
53.6500 314.0000 1.0000
53.6600 349.0000 1.0000
53.6700 342.0000 1.0000
53.6800 323.0000 1.0000
53.6900 327.0000 1.0000
53.7000 338.0000 1.0000
53.7100 348.0000 1.0000
53.7200 335.0000 1.0000
53.7300 338.0000 1.0000
53.7400 333.0000 1.0000
53.7500 334.0000 1.0000
53.7600 318.0000 1.0000
53.7700 300.0000 1.0000
53.7800 319.0000 1.0000
53.7900 304.0000 1.0000
53.8000 308.0000 1.0000
53.8100 306.0000 1.0000
53.8200 300.0000 1.0000
53.8300 341.0000 1.0000
53.8400 321.0000 1.0000
53.8500 315.0000 1.0000
53.8600 314.0000 1.0000
53.8700 331.0000 1.0000
53.8800 341.0000 1.0000
53.8900 370.0000 1.0000
53.9000 321.0000 1.0000
53.9100 348.0000 1.0000
53.9200 365.0000 1.0000
53.9300 351.0000 1.0000
53.9400 350.0000 1.0000
53.9500 345.0000 1.0000
53.9600 358.0000 1.0000
53.9700 359.0000 1.0000
53.9800 357.0000 1.0000
53.9900 372.0000 1.0000
54.0000 389.0000 1.0000
54.0100 390.0000 1.0000
54.0200 363.0000 1.0000
54.0300 359.0000 1.0000
54.0400 356.0000 1.0000
54.0500 349.0000 1.0000
54.0600 338.0000 1.0000
54.0700 369.0000 1.0000
54.0800 359.0000 1.0000
54.0900 373.0000 1.0000
54.1000 363.0000 1.0000
54.1100 381.0000 1.0000
54.1200 355.0000 1.0000
54.1300 359.0000 1.0000
54.1400 360.0000 1.0000
54.1500 372.0000 1.0000
54.1600 342.0000 1.0000
54.1700 359.0000 1.0000
54.1800 371.0000 1.0000
54.1900 381.0000 1.0000
54.2000 354.0000 1.0000
54.2100 353.0000 1.0000
54.2200 354.0000 1.0000
54.2300 349.0000 1.0000
54.2400 359.0000 1.0000
54.2500 350.0000 1.0000
54.2600 343.0000 1.0000
54.2700 344.0000 1.0000
54.2800 377.0000 1.0000
54.2900 355.0000 1.0000
54.3000 364.0000 1.0000
54.3100 371.0000 1.0000
54.3200 341.0000 1.0000
54.3300 374.0000 1.0000
54.3400 373.0000 1.0000
54.3500 370.0000 1.0000
54.3600 408.0000 1.0000
54.3700 369.0000 1.0000
54.3800 368.0000 1.0000
54.3900 417.0000 1.0000
54.4000 389.0000 1.0000
54.4100 409.0000 1.0000
54.4200 432.0000 1.0000
54.4300 411.0000 1.0000
54.4400 406.0000 1.0000
54.4500 427.0000 1.0000
54.4600 469.0000 1.0000
54.4700 455.0000 1.0000
54.4800 475.0000 1.0000
54.4900 497.0000 1.0000
54.5000 457.0000 1.0000
54.5100 477.0000 1.0000
54.5200 461.0000 1.0000
54.5300 461.0000 1.0000
54.5400 436.0000 1.0000
54.5500 439.0000 1.0000
54.5600 462.0000 1.0000
54.5700 441.0000 1.0000
54.5800 470.0000 1.0000
54.5900 463.0000 1.0000
54.6000 462.0000 1.0000
54.6100 464.0000 1.0000
54.6200 440.0000 1.0000
54.6300 453.0000 1.0000
54.6400 430.0000 1.0000
54.6500 447.0000 1.0000
54.6600 435.0000 1.0000
54.6700 396.0000 1.0000
54.6800 401.0000 1.0000
54.6900 392.0000 1.0000
54.7000 422.0000 1.0000
54.7100 422.0000 1.0000
54.7200 418.0000 1.0000
54.7300 416.0000 1.0000
54.7400 387.0000 1.0000
54.7500 374.0000 1.0000
54.7600 396.0000 1.0000
54.7700 372.0000 1.0000
54.7800 403.0000 1.0000
54.7900 397.0000 1.0000
54.8000 390.0000 1.0000
54.8100 393.0000 1.0000
54.8200 351.0000 1.0000
54.8300 352.0000 1.0000
54.8400 352.0000 1.0000
54.8500 374.0000 1.0000
54.8600 339.0000 1.0000
54.8700 340.0000 1.0000
54.8800 326.0000 1.0000
54.8900 374.0000 1.0000
54.9000 330.0000 1.0000
54.9100 343.0000 1.0000
54.9200 330.0000 1.0000
54.9300 324.0000 1.0000
54.9400 301.0000 1.0000
54.9500 327.0000 1.0000
54.9600 334.0000 1.0000
54.9700 331.0000 1.0000
54.9800 301.0000 1.0000
54.9900 309.0000 1.0000
55.0000 345.0000 1.0000
55.0100 347.0000 1.0000
55.0200 349.0000 1.0000
55.0300 328.0000 1.0000
55.0400 322.0000 1.0000
55.0500 333.0000 1.0000
55.0600 314.0000 1.0000
55.0700 306.0000 1.0000
55.0800 347.0000 1.0000
55.0900 327.0000 1.0000
55.1000 312.0000 1.0000
55.1100 305.0000 1.0000
55.1200 324.0000 1.0000
55.1300 302.0000 1.0000
55.1400 302.0000 1.0000
55.1500 284.0000 1.0000
55.1600 310.0000 1.0000
55.1700 328.0000 1.0000
55.1800 321.0000 1.0000
55.1900 309.0000 1.0000
55.2000 301.0000 1.0000
55.2100 310.0000 1.0000
55.2200 299.0000 1.0000
55.2300 336.0000 1.0000
55.2400 321.0000 1.0000
55.2500 317.0000 1.0000
55.2600 319.0000 1.0000
55.2700 335.0000 1.0000
55.2800 325.0000 1.0000
55.2900 317.0000 1.0000
55.3000 333.0000 1.0000
55.3100 325.0000 1.0000
55.3200 315.0000 1.0000
55.3300 308.0000 1.0000
55.3400 331.0000 1.0000
55.3500 318.0000 1.0000
55.3600 289.0000 1.0000
55.3700 289.0000 1.0000
55.3800 322.0000 1.0000
55.3900 277.0000 1.0000
55.4000 326.0000 1.0000
55.4100 316.0000 1.0000
55.4200 294.0000 1.0000
55.4300 334.0000 1.0000
55.4400 311.0000 1.0000
55.4500 309.0000 1.0000
55.4600 319.0000 1.0000
55.4700 315.0000 1.0000
55.4800 317.0000 1.0000
55.4900 304.0000 1.0000
55.5000 291.0000 1.0000
55.5100 314.0000 1.0000
55.5200 316.0000 1.0000
55.5300 308.0000 1.0000
55.5400 318.0000 1.0000
55.5500 281.0000 1.0000
55.5600 294.0000 1.0000
55.5700 315.0000 1.0000
55.5800 301.0000 1.0000
55.5900 317.0000 1.0000
55.6000 322.0000 1.0000
55.6100 320.0000 1.0000
55.6200 324.0000 1.0000
55.6300 289.0000 1.0000
55.6400 306.0000 1.0000
55.6500 303.0000 1.0000
55.6600 316.0000 1.0000
55.6700 301.0000 1.0000
55.6800 320.0000 1.0000
55.6900 310.0000 1.0000
55.7000 289.0000 1.0000
55.7100 298.0000 1.0000
55.7200 305.0000 1.0000
55.7300 316.0000 1.0000
55.7400 301.0000 1.0000
55.7500 306.0000 1.0000
55.7600 312.0000 1.0000
55.7700 317.0000 1.0000
55.7800 331.0000 1.0000
55.7900 324.0000 1.0000
55.8000 310.0000 1.0000
55.8100 303.0000 1.0000
55.8200 313.0000 1.0000
55.8300 310.0000 1.0000
55.8400 294.0000 1.0000
55.8500 333.0000 1.0000
55.8600 334.0000 1.0000
55.8700 323.0000 1.0000
55.8800 306.0000 1.0000
55.8900 294.0000 1.0000
55.9000 326.0000 1.0000
55.9100 319.0000 1.0000
55.9200 340.0000 1.0000
55.9300 307.0000 1.0000
55.9400 311.0000 1.0000
55.9500 334.0000 1.0000
55.9600 352.0000 1.0000
55.9700 340.0000 1.0000
55.9800 366.0000 1.0000
55.9900 346.0000 1.0000
56.0000 343.0000 1.0000
56.0100 308.0000 1.0000
56.0200 341.0000 1.0000
56.0300 303.0000 1.0000
56.0400 316.0000 1.0000
56.0500 348.0000 1.0000
56.0600 322.0000 1.0000
56.0700 307.0000 1.0000
56.0800 300.0000 1.0000
56.0900 305.0000 1.0000
56.1000 314.0000 1.0000
56.1100 303.0000 1.0000
56.1200 318.0000 1.0000
56.1300 298.0000 1.0000
56.1400 332.0000 1.0000
56.1500 311.0000 1.0000
56.1600 335.0000 1.0000
56.1700 321.0000 1.0000
56.1800 320.0000 1.0000
56.1900 309.0000 1.0000
56.2000 310.0000 1.0000
56.2100 317.0000 1.0000
56.2200 322.0000 1.0000
56.2300 313.0000 1.0000
56.2400 319.0000 1.0000
56.2500 335.0000 1.0000
56.2600 314.0000 1.0000
56.2700 312.0000 1.0000
56.2800 308.0000 1.0000
56.2900 294.0000 1.0000
56.3000 290.0000 1.0000
56.3100 331.0000 1.0000
56.3200 277.0000 1.0000
56.3300 287.0000 1.0000
56.3400 336.0000 1.0000
56.3500 305.0000 1.0000
56.3600 322.0000 1.0000
56.3700 279.0000 1.0000
56.3800 310.0000 1.0000
56.3900 313.0000 1.0000
56.4000 308.0000 1.0000
56.4100 308.0000 1.0000
56.4200 306.0000 1.0000
56.4300 299.0000 1.0000
56.4400 289.0000 1.0000
56.4500 287.0000 1.0000
56.4600 309.0000 1.0000
56.4700 315.0000 1.0000
56.4800 283.0000 1.0000
56.4900 311.0000 1.0000
56.5000 320.0000 1.0000
56.5100 298.0000 1.0000
56.5200 301.0000 1.0000
56.5300 283.0000 1.0000
56.5400 298.0000 1.0000
56.5500 304.0000 1.0000
56.5600 274.0000 1.0000
56.5700 305.0000 1.0000
56.5800 299.0000 1.0000
56.5900 310.0000 1.0000
56.6000 317.0000 1.0000
56.6100 317.0000 1.0000
56.6200 338.0000 1.0000
56.6300 297.0000 1.0000
56.6400 303.0000 1.0000
56.6500 292.0000 1.0000
56.6600 294.0000 1.0000
56.6700 287.0000 1.0000
56.6800 297.0000 1.0000
56.6900 292.0000 1.0000
56.7000 310.0000 1.0000
56.7100 314.0000 1.0000
56.7200 296.0000 1.0000
56.7300 311.0000 1.0000
56.7400 320.0000 1.0000
56.7500 318.0000 1.0000
56.7600 323.0000 1.0000
56.7700 286.0000 1.0000
56.7800 303.0000 1.0000
56.7900 307.0000 1.0000
56.8000 310.0000 1.0000
56.8100 303.0000 1.0000
56.8200 316.0000 1.0000
56.8300 303.0000 1.0000
56.8400 304.0000 1.0000
56.8500 280.0000 1.0000
56.8600 290.0000 1.0000
56.8700 291.0000 1.0000
56.8800 315.0000 1.0000
56.8900 302.0000 1.0000
56.9000 305.0000 1.0000
56.9100 303.0000 1.0000
56.9200 288.0000 1.0000
56.9300 293.0000 1.0000
56.9400 307.0000 1.0000
56.9500 299.0000 1.0000
56.9600 275.0000 1.0000
56.9700 294.0000 1.0000
56.9800 301.0000 1.0000
56.9900 295.0000 1.0000
57.0000 293.0000 1.0000
57.0100 307.0000 1.0000
57.0200 301.0000 1.0000
57.0300 319.0000 1.0000
57.0400 306.0000 1.0000
57.0500 302.0000 1.0000
57.0600 275.0000 1.0000
57.0700 279.0000 1.0000
57.0800 268.0000 1.0000
57.0900 321.0000 1.0000
57.1000 295.0000 1.0000
57.1100 323.0000 1.0000
57.1200 318.0000 1.0000
57.1300 311.0000 1.0000
57.1400 287.0000 1.0000
57.1500 287.0000 1.0000
57.1600 298.0000 1.0000
57.1700 275.0000 1.0000
57.1800 302.0000 1.0000
57.1900 298.0000 1.0000
57.2000 325.0000 1.0000
57.2100 315.0000 1.0000
57.2200 335.0000 1.0000
57.2300 305.0000 1.0000
57.2400 309.0000 1.0000
57.2500 306.0000 1.0000
57.2600 299.0000 1.0000
57.2700 321.0000 1.0000
57.2800 327.0000 1.0000
57.2900 330.0000 1.0000
57.3000 327.0000 1.0000
57.3100 300.0000 1.0000
57.3200 308.0000 1.0000
57.3300 298.0000 1.0000
57.3400 318.0000 1.0000
57.3500 312.0000 1.0000
57.3600 314.0000 1.0000
57.3700 306.0000 1.0000
57.3800 301.0000 1.0000
57.3900 323.0000 1.0000
57.4000 314.0000 1.0000
57.4100 327.0000 1.0000
57.4200 311.0000 1.0000
57.4300 288.0000 1.0000
57.4400 300.0000 1.0000
57.4500 334.0000 1.0000
57.4600 339.0000 1.0000
57.4700 321.0000 1.0000
57.4800 296.0000 1.0000
57.4900 294.0000 1.0000
57.5000 332.0000 1.0000
57.5100 298.0000 1.0000
57.5200 312.0000 1.0000
57.5300 346.0000 1.0000
57.5400 315.0000 1.0000
57.5500 295.0000 1.0000
57.5600 314.0000 1.0000
57.5700 325.0000 1.0000
57.5800 345.0000 1.0000
57.5900 330.0000 1.0000
57.6000 310.0000 1.0000
57.6100 346.0000 1.0000
57.6200 306.0000 1.0000
57.6300 309.0000 1.0000
57.6400 318.0000 1.0000
57.6500 301.0000 1.0000
57.6600 305.0000 1.0000
57.6700 311.0000 1.0000
57.6800 331.0000 1.0000
57.6900 303.0000 1.0000
57.7000 331.0000 1.0000
57.7100 321.0000 1.0000
57.7200 285.0000 1.0000
57.7300 312.0000 1.0000
57.7400 327.0000 1.0000
57.7500 321.0000 1.0000
57.7600 323.0000 1.0000
57.7700 300.0000 1.0000
57.7800 286.0000 1.0000
57.7900 303.0000 1.0000
57.8000 319.0000 1.0000
57.8100 307.0000 1.0000
57.8200 324.0000 1.0000
57.8300 304.0000 1.0000
57.8400 326.0000 1.0000
57.8500 339.0000 1.0000
57.8600 324.0000 1.0000
57.8700 330.0000 1.0000
57.8800 298.0000 1.0000
57.8900 318.0000 1.0000
57.9000 309.0000 1.0000
57.9100 290.0000 1.0000
57.9200 298.0000 1.0000
57.9300 297.0000 1.0000
57.9400 303.0000 1.0000
57.9500 277.0000 1.0000
57.9600 285.0000 1.0000
57.9700 315.0000 1.0000
57.9800 324.0000 1.0000
57.9900 300.0000 1.0000
58.0000 287.0000 1.0000
58.0100 302.0000 1.0000
58.0200 296.0000 1.0000
58.0300 319.0000 1.0000
58.0400 304.0000 1.0000
58.0500 309.0000 1.0000
58.0600 308.0000 1.0000
58.0700 291.0000 1.0000
58.0800 294.0000 1.0000
58.0900 311.0000 1.0000
58.1000 298.0000 1.0000
58.1100 291.0000 1.0000
58.1200 314.0000 1.0000
58.1300 294.0000 1.0000
58.1400 322.0000 1.0000
58.1500 307.0000 1.0000
58.1600 270.0000 1.0000
58.1700 302.0000 1.0000
58.1800 310.0000 1.0000
58.1900 316.0000 1.0000
58.2000 294.0000 1.0000
58.2100 320.0000 1.0000
58.2200 297.0000 1.0000
58.2300 318.0000 1.0000
58.2400 322.0000 1.0000
58.2500 294.0000 1.0000
58.2600 287.0000 1.0000
58.2700 291.0000 1.0000
58.2800 300.0000 1.0000
58.2900 294.0000 1.0000
58.3000 288.0000 1.0000
58.3100 297.0000 1.0000
58.3200 294.0000 1.0000
58.3300 280.0000 1.0000
58.3400 320.0000 1.0000
58.3500 290.0000 1.0000
58.3600 282.0000 1.0000
58.3700 294.0000 1.0000
58.3800 289.0000 1.0000
58.3900 280.0000 1.0000
58.4000 303.0000 1.0000
58.4100 320.0000 1.0000
58.4200 320.0000 1.0000
58.4300 338.0000 1.0000
58.4400 328.0000 1.0000
58.4500 303.0000 1.0000
58.4600 300.0000 1.0000
58.4700 306.0000 1.0000
58.4800 307.0000 1.0000
58.4900 316.0000 1.0000
58.5000 294.0000 1.0000
58.5100 308.0000 1.0000
58.5200 301.0000 1.0000
58.5300 296.0000 1.0000
58.5400 304.0000 1.0000
58.5500 308.0000 1.0000
58.5600 301.0000 1.0000
58.5700 308.0000 1.0000
58.5800 297.0000 1.0000
58.5900 285.0000 1.0000
58.6000 294.0000 1.0000
58.6100 302.0000 1.0000
58.6200 284.0000 1.0000
58.6300 318.0000 1.0000
58.6400 298.0000 1.0000
58.6500 299.0000 1.0000
58.6600 314.0000 1.0000
58.6700 300.0000 1.0000
58.6800 317.0000 1.0000
58.6900 306.0000 1.0000
58.7000 319.0000 1.0000
58.7100 307.0000 1.0000
58.7200 296.0000 1.0000
58.7300 307.0000 1.0000
58.7400 298.0000 1.0000
58.7500 282.0000 1.0000
58.7600 303.0000 1.0000
58.7700 318.0000 1.0000
58.7800 306.0000 1.0000
58.7900 299.0000 1.0000
58.8000 291.0000 1.0000
58.8100 304.0000 1.0000
58.8200 329.0000 1.0000
58.8300 318.0000 1.0000
58.8400 314.0000 1.0000
58.8500 271.0000 1.0000
58.8600 305.0000 1.0000
58.8700 314.0000 1.0000
58.8800 300.0000 1.0000
58.8900 324.0000 1.0000
58.9000 332.0000 1.0000
58.9100 290.0000 1.0000
58.9200 295.0000 1.0000
58.9300 276.0000 1.0000
58.9400 322.0000 1.0000
58.9500 308.0000 1.0000
58.9600 294.0000 1.0000
58.9700 308.0000 1.0000
58.9800 314.0000 1.0000
58.9900 332.0000 1.0000
59.0000 302.0000 1.0000
59.0100 298.0000 1.0000
59.0200 296.0000 1.0000
59.0300 285.0000 1.0000
59.0400 287.0000 1.0000
59.0500 324.0000 1.0000
59.0600 300.0000 1.0000
59.0700 291.0000 1.0000
59.0800 308.0000 1.0000
59.0900 291.0000 1.0000
59.1000 306.0000 1.0000
59.1100 307.0000 1.0000
59.1200 290.0000 1.0000
59.1300 285.0000 1.0000
59.1400 273.0000 1.0000
59.1500 272.0000 1.0000
59.1600 270.0000 1.0000
59.1700 300.0000 1.0000
59.1800 309.0000 1.0000
59.1900 322.0000 1.0000
59.2000 310.0000 1.0000
59.2100 308.0000 1.0000
59.2200 292.0000 1.0000
59.2300 276.0000 1.0000
59.2400 315.0000 1.0000
59.2500 298.0000 1.0000
59.2600 299.0000 1.0000
59.2700 296.0000 1.0000
59.2800 308.0000 1.0000
59.2900 289.0000 1.0000
59.3000 296.0000 1.0000
59.3100 316.0000 1.0000
59.3200 325.0000 1.0000
59.3300 304.0000 1.0000
59.3400 316.0000 1.0000
59.3500 313.0000 1.0000
59.3600 292.0000 1.0000
59.3700 311.0000 1.0000
59.3800 295.0000 1.0000
59.3900 313.0000 1.0000
59.4000 296.0000 1.0000
59.4100 305.0000 1.0000
59.4200 278.0000 1.0000
59.4300 299.0000 1.0000
59.4400 280.0000 1.0000
59.4500 302.0000 1.0000
59.4600 284.0000 1.0000
59.4700 314.0000 1.0000
59.4800 307.0000 1.0000
59.4900 296.0000 1.0000
59.5000 262.0000 1.0000
59.5100 286.0000 1.0000
59.5200 291.0000 1.0000
59.5300 274.0000 1.0000
59.5400 291.0000 1.0000
59.5500 309.0000 1.0000
59.5600 276.0000 1.0000
59.5700 295.0000 1.0000
59.5800 282.0000 1.0000
59.5900 308.0000 1.0000
59.6000 299.0000 1.0000
59.6100 297.0000 1.0000
59.6200 309.0000 1.0000
59.6300 291.0000 1.0000
59.6400 299.0000 1.0000
59.6500 305.0000 1.0000
59.6600 299.0000 1.0000
59.6700 333.0000 1.0000
59.6800 292.0000 1.0000
59.6900 287.0000 1.0000
59.7000 311.0000 1.0000
59.7100 307.0000 1.0000
59.7200 295.0000 1.0000
59.7300 297.0000 1.0000
59.7400 288.0000 1.0000
59.7500 282.0000 1.0000
59.7600 307.0000 1.0000
59.7700 331.0000 1.0000
59.7800 326.0000 1.0000
59.7900 301.0000 1.0000
59.8000 295.0000 1.0000
59.8100 319.0000 1.0000
59.8200 293.0000 1.0000
59.8300 282.0000 1.0000
59.8400 263.0000 1.0000
59.8500 321.0000 1.0000
59.8600 309.0000 1.0000
59.8700 292.0000 1.0000
59.8800 308.0000 1.0000
59.8900 275.0000 1.0000
59.9000 301.0000 1.0000
59.9100 310.0000 1.0000
59.9200 287.0000 1.0000
59.9300 316.0000 1.0000
59.9400 293.0000 1.0000
59.9500 318.0000 1.0000
59.9600 303.0000 1.0000
59.9700 317.0000 1.0000
59.9800 279.0000 1.0000
59.9900 315.0000 1.0000
60.0000 294.0000 1.0000
60.0100 306.0000 1.0000
60.0200 296.0000 1.0000
60.0300 280.0000 1.0000
60.0400 277.0000 1.0000
60.0500 261.0000 1.0000
60.0600 278.0000 1.0000
60.0700 286.0000 1.0000
60.0800 283.0000 1.0000
60.0900 313.0000 1.0000
60.1000 306.0000 1.0000
60.1100 304.0000 1.0000
60.1200 300.0000 1.0000
60.1300 323.0000 1.0000
60.1400 298.0000 1.0000
60.1500 306.0000 1.0000
60.1600 294.0000 1.0000
60.1700 290.0000 1.0000
60.1800 287.0000 1.0000
60.1900 315.0000 1.0000
60.2000 283.0000 1.0000
60.2100 292.0000 1.0000
60.2200 330.0000 1.0000
60.2300 316.0000 1.0000
60.2400 291.0000 1.0000
60.2500 297.0000 1.0000
60.2600 323.0000 1.0000
60.2700 308.0000 1.0000
60.2800 293.0000 1.0000
60.2900 307.0000 1.0000
60.3000 286.0000 1.0000
60.3100 294.0000 1.0000
60.3200 316.0000 1.0000
60.3300 311.0000 1.0000
60.3400 297.0000 1.0000
60.3500 281.0000 1.0000
60.3600 303.0000 1.0000
60.3700 318.0000 1.0000
60.3800 287.0000 1.0000
60.3900 290.0000 1.0000
60.4000 297.0000 1.0000
60.4100 299.0000 1.0000
60.4200 293.0000 1.0000
60.4300 331.0000 1.0000
60.4400 305.0000 1.0000
60.4500 295.0000 1.0000
60.4600 298.0000 1.0000
60.4700 293.0000 1.0000
60.4800 296.0000 1.0000
60.4900 306.0000 1.0000
60.5000 300.0000 1.0000
60.5100 285.0000 1.0000
60.5200 306.0000 1.0000
60.5300 310.0000 1.0000
60.5400 289.0000 1.0000
60.5500 290.0000 1.0000
60.5600 278.0000 1.0000
60.5700 288.0000 1.0000
60.5800 330.0000 1.0000
60.5900 295.0000 1.0000
60.6000 291.0000 1.0000
60.6100 295.0000 1.0000
60.6200 281.0000 1.0000
60.6300 297.0000 1.0000
60.6400 287.0000 1.0000
60.6500 279.0000 1.0000
60.6600 314.0000 1.0000
60.6700 332.0000 1.0000
60.6800 309.0000 1.0000
60.6900 276.0000 1.0000
60.7000 303.0000 1.0000
60.7100 320.0000 1.0000
60.7200 300.0000 1.0000
60.7300 296.0000 1.0000
60.7400 315.0000 1.0000
60.7500 316.0000 1.0000
60.7600 315.0000 1.0000
60.7700 306.0000 1.0000
60.7800 290.0000 1.0000
60.7900 309.0000 1.0000
60.8000 312.0000 1.0000
60.8100 299.0000 1.0000
60.8200 315.0000 1.0000
60.8300 340.0000 1.0000
60.8400 289.0000 1.0000
60.8500 282.0000 1.0000
60.8600 296.0000 1.0000
60.8700 300.0000 1.0000
60.8800 278.0000 1.0000
60.8900 307.0000 1.0000
60.9000 288.0000 1.0000
60.9100 320.0000 1.0000
60.9200 287.0000 1.0000
60.9300 295.0000 1.0000
60.9400 326.0000 1.0000
60.9500 303.0000 1.0000
60.9600 317.0000 1.0000
60.9700 313.0000 1.0000
60.9800 280.0000 1.0000
60.9900 284.0000 1.0000
61.0000 301.0000 1.0000
61.0100 299.0000 1.0000
61.0200 314.0000 1.0000
61.0300 337.0000 1.0000
61.0400 339.0000 1.0000
61.0500 324.0000 1.0000
61.0600 293.0000 1.0000
61.0700 306.0000 1.0000
61.0800 321.0000 1.0000
61.0900 316.0000 1.0000
61.1000 362.0000 1.0000
61.1100 347.0000 1.0000
61.1200 324.0000 1.0000
61.1300 345.0000 1.0000
61.1400 301.0000 1.0000
61.1500 321.0000 1.0000
61.1600 322.0000 1.0000
61.1700 312.0000 1.0000
61.1800 352.0000 1.0000
61.1900 343.0000 1.0000
61.2000 346.0000 1.0000
61.2100 364.0000 1.0000
61.2200 353.0000 1.0000
61.2300 354.0000 1.0000
61.2400 365.0000 1.0000
61.2500 344.0000 1.0000
61.2600 357.0000 1.0000
61.2700 365.0000 1.0000
61.2800 398.0000 1.0000
61.2900 406.0000 1.0000
61.3000 389.0000 1.0000
61.3100 380.0000 1.0000
61.3200 376.0000 1.0000
61.3300 398.0000 1.0000
61.3400 397.0000 1.0000
61.3500 414.0000 1.0000
61.3600 378.0000 1.0000
61.3700 440.0000 1.0000
61.3800 451.0000 1.0000
61.3900 463.0000 1.0000
61.4000 457.0000 1.0000
61.4100 489.0000 1.0000
61.4200 514.0000 1.0000
61.4300 506.0000 1.0000
61.4400 505.0000 1.0000
61.4500 529.0000 1.0000
61.4600 542.0000 1.0000
61.4700 558.0000 1.0000
61.4800 559.0000 1.0000
61.4900 553.0000 1.0000
61.5000 600.0000 1.0000
61.5100 604.0000 1.0000
61.5200 598.0000 1.0000
61.5300 626.0000 1.0000
61.5400 610.0000 1.0000
61.5500 593.0000 1.0000
61.5600 613.0000 1.0000
61.5700 629.0000 1.0000
61.5800 606.0000 1.0000
61.5900 589.0000 1.0000
61.6000 632.0000 1.0000
61.6100 599.0000 1.0000
61.6200 578.0000 1.0000
61.6300 620.0000 1.0000
61.6400 619.0000 1.0000
61.6500 613.0000 1.0000
61.6600 582.0000 1.0000
61.6700 579.0000 1.0000
61.6800 591.0000 1.0000
61.6900 573.0000 1.0000
61.7000 549.0000 1.0000
61.7100 551.0000 1.0000
61.7200 550.0000 1.0000
61.7300 517.0000 1.0000
61.7400 516.0000 1.0000
61.7500 475.0000 1.0000
61.7600 463.0000 1.0000
61.7700 482.0000 1.0000
61.7800 444.0000 1.0000
61.7900 457.0000 1.0000
61.8000 476.0000 1.0000
61.8100 466.0000 1.0000
61.8200 420.0000 1.0000
61.8300 443.0000 1.0000
61.8400 431.0000 1.0000
61.8500 442.0000 1.0000
61.8600 407.0000 1.0000
61.8700 399.0000 1.0000
61.8800 418.0000 1.0000
61.8900 387.0000 1.0000
61.9000 416.0000 1.0000
61.9100 372.0000 1.0000
61.9200 371.0000 1.0000
61.9300 358.0000 1.0000
61.9400 374.0000 1.0000
61.9500 350.0000 1.0000
61.9600 359.0000 1.0000
61.9700 342.0000 1.0000
61.9800 346.0000 1.0000
61.9900 380.0000 1.0000
62.0000 327.0000 1.0000
62.0100 338.0000 1.0000
62.0200 351.0000 1.0000
62.0300 334.0000 1.0000
62.0400 370.0000 1.0000
62.0500 336.0000 1.0000
62.0600 321.0000 1.0000
62.0700 335.0000 1.0000
62.0800 324.0000 1.0000
62.0900 327.0000 1.0000
62.1000 312.0000 1.0000
62.1100 292.0000 1.0000
62.1200 341.0000 1.0000
62.1300 330.0000 1.0000
62.1400 312.0000 1.0000
62.1500 340.0000 1.0000
62.1600 327.0000 1.0000
62.1700 329.0000 1.0000
62.1800 325.0000 1.0000
62.1900 335.0000 1.0000
62.2000 339.0000 1.0000
62.2100 333.0000 1.0000
62.2200 328.0000 1.0000
62.2300 361.0000 1.0000
62.2400 339.0000 1.0000
62.2500 323.0000 1.0000
62.2600 333.0000 1.0000
62.2700 335.0000 1.0000
62.2800 298.0000 1.0000
62.2900 325.0000 1.0000
62.3000 362.0000 1.0000
62.3100 350.0000 1.0000
62.3200 352.0000 1.0000
62.3300 371.0000 1.0000
62.3400 350.0000 1.0000
62.3500 350.0000 1.0000
62.3600 306.0000 1.0000
62.3700 331.0000 1.0000
62.3800 352.0000 1.0000
62.3900 342.0000 1.0000
62.4000 349.0000 1.0000
62.4100 319.0000 1.0000
62.4200 345.0000 1.0000
62.4300 336.0000 1.0000
62.4400 334.0000 1.0000
62.4500 338.0000 1.0000
62.4600 348.0000 1.0000
62.4700 340.0000 1.0000
62.4800 315.0000 1.0000
62.4900 329.0000 1.0000
62.5000 335.0000 1.0000
62.5100 339.0000 1.0000
62.5200 345.0000 1.0000
62.5300 339.0000 1.0000
62.5400 309.0000 1.0000
62.5500 338.0000 1.0000
62.5600 318.0000 1.0000
62.5700 301.0000 1.0000
62.5800 310.0000 1.0000
62.5900 317.0000 1.0000
62.6000 325.0000 1.0000
62.6100 307.0000 1.0000
62.6200 297.0000 1.0000
62.6300 301.0000 1.0000
62.6400 323.0000 1.0000
62.6500 321.0000 1.0000
62.6600 309.0000 1.0000
62.6700 316.0000 1.0000
62.6800 305.0000 1.0000
62.6900 285.0000 1.0000
62.7000 322.0000 1.0000
62.7100 309.0000 1.0000
62.7200 317.0000 1.0000
62.7300 298.0000 1.0000
62.7400 271.0000 1.0000
62.7500 291.0000 1.0000
62.7600 297.0000 1.0000
62.7700 294.0000 1.0000
62.7800 307.0000 1.0000
62.7900 289.0000 1.0000
62.8000 287.0000 1.0000
62.8100 313.0000 1.0000
62.8200 321.0000 1.0000
62.8300 293.0000 1.0000
62.8400 286.0000 1.0000
62.8500 293.0000 1.0000
62.8600 304.0000 1.0000
62.8700 318.0000 1.0000
62.8800 291.0000 1.0000
62.8900 298.0000 1.0000
62.9000 322.0000 1.0000
62.9100 285.0000 1.0000
62.9200 314.0000 1.0000
62.9300 322.0000 1.0000
62.9400 310.0000 1.0000
62.9500 315.0000 1.0000
62.9600 304.0000 1.0000
62.9700 305.0000 1.0000
62.9800 305.0000 1.0000
62.9900 320.0000 1.0000
63.0000 291.0000 1.0000
63.0100 300.0000 1.0000
63.0200 280.0000 1.0000
63.0300 316.0000 1.0000
63.0400 283.0000 1.0000
63.0500 276.0000 1.0000
63.0600 272.0000 1.0000
63.0700 280.0000 1.0000
63.0800 305.0000 1.0000
63.0900 302.0000 1.0000
63.1000 289.0000 1.0000
63.1100 295.0000 1.0000
63.1200 318.0000 1.0000
63.1300 318.0000 1.0000
63.1400 320.0000 1.0000
63.1500 293.0000 1.0000
63.1600 290.0000 1.0000
63.1700 309.0000 1.0000
63.1800 300.0000 1.0000
63.1900 298.0000 1.0000
63.2000 323.0000 1.0000
63.2100 287.0000 1.0000
63.2200 273.0000 1.0000
63.2300 297.0000 1.0000
63.2400 281.0000 1.0000
63.2500 294.0000 1.0000
63.2600 300.0000 1.0000
63.2700 310.0000 1.0000
63.2800 309.0000 1.0000
63.2900 293.0000 1.0000
63.3000 289.0000 1.0000
63.3100 305.0000 1.0000
63.3200 306.0000 1.0000
63.3300 281.0000 1.0000
63.3400 306.0000 1.0000
63.3500 304.0000 1.0000
63.3600 316.0000 1.0000
63.3700 295.0000 1.0000
63.3800 291.0000 1.0000
63.3900 293.0000 1.0000
63.4000 292.0000 1.0000
63.4100 322.0000 1.0000
63.4200 312.0000 1.0000
63.4300 318.0000 1.0000
63.4400 302.0000 1.0000
63.4500 285.0000 1.0000
63.4600 283.0000 1.0000
63.4700 292.0000 1.0000
63.4800 288.0000 1.0000
63.4900 286.0000 1.0000
63.5000 288.0000 1.0000
63.5100 316.0000 1.0000
63.5200 294.0000 1.0000
63.5300 288.0000 1.0000
63.5400 288.0000 1.0000
63.5500 304.0000 1.0000
63.5600 325.0000 1.0000
63.5700 296.0000 1.0000
63.5800 290.0000 1.0000
63.5900 313.0000 1.0000
63.6000 314.0000 1.0000
63.6100 298.0000 1.0000
63.6200 307.0000 1.0000
63.6300 333.0000 1.0000
63.6400 312.0000 1.0000
63.6500 329.0000 1.0000
63.6600 324.0000 1.0000
63.6700 315.0000 1.0000
63.6800 334.0000 1.0000
63.6900 307.0000 1.0000
63.7000 322.0000 1.0000
63.7100 335.0000 1.0000
63.7200 363.0000 1.0000
63.7300 322.0000 1.0000
63.7400 345.0000 1.0000
63.7500 335.0000 1.0000
63.7600 348.0000 1.0000
63.7700 322.0000 1.0000
63.7800 305.0000 1.0000
63.7900 332.0000 1.0000
63.8000 339.0000 1.0000
63.8100 359.0000 1.0000
63.8200 367.0000 1.0000
63.8300 371.0000 1.0000
63.8400 384.0000 1.0000
63.8500 364.0000 1.0000
63.8600 404.0000 1.0000
63.8700 414.0000 1.0000
63.8800 414.0000 1.0000
63.8900 427.0000 1.0000
63.9000 419.0000 1.0000
63.9100 455.0000 1.0000
63.9200 423.0000 1.0000
63.9300 405.0000 1.0000
63.9400 428.0000 1.0000
63.9500 460.0000 1.0000
63.9600 458.0000 1.0000
63.9700 447.0000 1.0000
63.9800 440.0000 1.0000
63.9900 455.0000 1.0000
64.0000 438.0000 1.0000
64.0100 440.0000 1.0000
64.0200 393.0000 1.0000
64.0300 433.0000 1.0000
64.0400 406.0000 1.0000
64.0500 387.0000 1.0000
64.0600 417.0000 1.0000
64.0700 435.0000 1.0000
64.0800 393.0000 1.0000
64.0900 425.0000 1.0000
64.1000 424.0000 1.0000
64.1100 437.0000 1.0000
64.1200 451.0000 1.0000
64.1300 406.0000 1.0000
64.1400 410.0000 1.0000
64.1500 404.0000 1.0000
64.1600 381.0000 1.0000
64.1700 434.0000 1.0000
64.1800 381.0000 1.0000
64.1900 358.0000 1.0000
64.2000 369.0000 1.0000
64.2100 369.0000 1.0000
64.2200 364.0000 1.0000
64.2300 341.0000 1.0000
64.2400 369.0000 1.0000
64.2500 368.0000 1.0000
64.2600 335.0000 1.0000
64.2700 359.0000 1.0000
64.2800 326.0000 1.0000
64.2900 352.0000 1.0000
64.3000 328.0000 1.0000
64.3100 355.0000 1.0000
64.3200 312.0000 1.0000
64.3300 307.0000 1.0000
64.3400 323.0000 1.0000
64.3500 332.0000 1.0000
64.3600 353.0000 1.0000
64.3700 337.0000 1.0000
64.3800 310.0000 1.0000
64.3900 359.0000 1.0000
64.4000 319.0000 1.0000
64.4100 332.0000 1.0000
64.4200 355.0000 1.0000
64.4300 346.0000 1.0000
64.4400 299.0000 1.0000
64.4500 326.0000 1.0000
64.4600 325.0000 1.0000
64.4700 324.0000 1.0000
64.4800 304.0000 1.0000
64.4900 322.0000 1.0000
64.5000 343.0000 1.0000
64.5100 329.0000 1.0000
64.5200 291.0000 1.0000
64.5300 324.0000 1.0000
64.5400 318.0000 1.0000
64.5500 298.0000 1.0000
64.5600 289.0000 1.0000
64.5700 295.0000 1.0000
64.5800 320.0000 1.0000
64.5900 326.0000 1.0000
64.6000 343.0000 1.0000
64.6100 335.0000 1.0000
64.6200 310.0000 1.0000
64.6300 309.0000 1.0000
64.6400 301.0000 1.0000
64.6500 320.0000 1.0000
64.6600 303.0000 1.0000
64.6700 335.0000 1.0000
64.6800 315.0000 1.0000
64.6900 314.0000 1.0000
64.7000 300.0000 1.0000
64.7100 329.0000 1.0000
64.7200 332.0000 1.0000
64.7300 333.0000 1.0000
64.7400 336.0000 1.0000
64.7500 316.0000 1.0000
64.7600 295.0000 1.0000
64.7700 283.0000 1.0000
64.7800 312.0000 1.0000
64.7900 295.0000 1.0000
64.8000 324.0000 1.0000
64.8100 314.0000 1.0000
64.8200 295.0000 1.0000
64.8300 301.0000 1.0000
64.8400 283.0000 1.0000
64.8500 294.0000 1.0000
64.8600 330.0000 1.0000
64.8700 317.0000 1.0000
64.8800 310.0000 1.0000
64.8900 340.0000 1.0000
64.9000 304.0000 1.0000
64.9100 309.0000 1.0000
64.9200 334.0000 1.0000
64.9300 307.0000 1.0000
64.9400 322.0000 1.0000
64.9500 309.0000 1.0000
64.9600 355.0000 1.0000
64.9700 323.0000 1.0000
64.9800 301.0000 1.0000
64.9900 336.0000 1.0000
65.0000 322.0000 1.0000
65.0100 337.0000 1.0000
65.0200 319.0000 1.0000
65.0300 337.0000 1.0000
65.0400 338.0000 1.0000
65.0500 312.0000 1.0000
65.0600 325.0000 1.0000
65.0700 341.0000 1.0000
65.0800 335.0000 1.0000
65.0900 338.0000 1.0000
65.1000 358.0000 1.0000
65.1100 352.0000 1.0000
65.1200 322.0000 1.0000
65.1300 381.0000 1.0000
65.1400 333.0000 1.0000
65.1500 366.0000 1.0000
65.1600 389.0000 1.0000
65.1700 374.0000 1.0000
65.1800 395.0000 1.0000
65.1900 402.0000 1.0000
65.2000 406.0000 1.0000
65.2100 379.0000 1.0000
65.2200 406.0000 1.0000
65.2300 422.0000 1.0000
65.2400 364.0000 1.0000
65.2500 401.0000 1.0000
65.2600 427.0000 1.0000
65.2700 451.0000 1.0000
65.2800 427.0000 1.0000
65.2900 432.0000 1.0000
65.3000 475.0000 1.0000
65.3100 451.0000 1.0000
65.3200 499.0000 1.0000
65.3300 530.0000 1.0000
65.3400 547.0000 1.0000
65.3500 555.0000 1.0000
65.3600 553.0000 1.0000
65.3700 632.0000 1.0000
65.3800 657.0000 1.0000
65.3900 681.0000 1.0000
65.4000 715.0000 1.0000
65.4100 720.0000 1.0000
65.4200 732.0000 1.0000
65.4300 795.0000 1.0000
65.4400 805.0000 1.0000
65.4500 876.0000 1.0000
65.4600 930.0000 1.0000
65.4700 974.0000 1.0000
65.4800 1007.0000 1.0000
65.4900 995.0000 1.0000
65.5000 970.0000 1.0000
65.5100 1080.0000 1.0000
65.5200 1070.0000 1.0000
65.5300 1131.0000 1.0000
65.5400 1121.0000 1.0000
65.5500 1101.0000 1.0000
65.5600 1109.0000 1.0000
65.5700 1097.0000 1.0000
65.5800 1037.0000 1.0000
65.5900 1057.0000 1.0000
65.6000 1050.0000 1.0000
65.6100 1023.0000 1.0000
65.6200 1003.0000 1.0000
65.6300 985.0000 1.0000
65.6400 964.0000 1.0000
65.6500 953.0000 1.0000
65.6600 979.0000 1.0000
65.6700 939.0000 1.0000
65.6800 937.0000 1.0000
65.6900 939.0000 1.0000
65.7000 918.0000 1.0000
65.7100 849.0000 1.0000
65.7200 844.0000 1.0000
65.7300 855.0000 1.0000
65.7400 802.0000 1.0000
65.7500 786.0000 1.0000
65.7600 770.0000 1.0000
65.7700 748.0000 1.0000
65.7800 711.0000 1.0000
65.7900 705.0000 1.0000
65.8000 673.0000 1.0000
65.8100 620.0000 1.0000
65.8200 611.0000 1.0000
65.8300 593.0000 1.0000
65.8400 562.0000 1.0000
65.8500 525.0000 1.0000
65.8600 544.0000 1.0000
65.8700 504.0000 1.0000
65.8800 481.0000 1.0000
65.8900 459.0000 1.0000
65.9000 461.0000 1.0000
65.9100 435.0000 1.0000
65.9200 427.0000 1.0000
65.9300 446.0000 1.0000
65.9400 437.0000 1.0000
65.9500 422.0000 1.0000
65.9600 441.0000 1.0000
65.9700 405.0000 1.0000
65.9800 389.0000 1.0000
65.9900 393.0000 1.0000
66.0000 368.0000 1.0000
66.0100 375.0000 1.0000
66.0200 372.0000 1.0000
66.0300 334.0000 1.0000
66.0400 359.0000 1.0000
66.0500 367.0000 1.0000
66.0600 381.0000 1.0000
66.0700 372.0000 1.0000
66.0800 369.0000 1.0000
66.0900 338.0000 1.0000
66.1000 337.0000 1.0000
66.1100 343.0000 1.0000
66.1200 326.0000 1.0000
66.1300 328.0000 1.0000
66.1400 314.0000 1.0000
66.1500 303.0000 1.0000
66.1600 309.0000 1.0000
66.1700 329.0000 1.0000
66.1800 316.0000 1.0000
66.1900 363.0000 1.0000
66.2000 305.0000 1.0000
66.2100 324.0000 1.0000
66.2200 327.0000 1.0000
66.2300 293.0000 1.0000
66.2400 332.0000 1.0000
66.2500 284.0000 1.0000
66.2600 300.0000 1.0000
66.2700 313.0000 1.0000
66.2800 308.0000 1.0000
66.2900 302.0000 1.0000
66.3000 282.0000 1.0000
66.3100 301.0000 1.0000
66.3200 305.0000 1.0000
66.3300 296.0000 1.0000
66.3400 308.0000 1.0000
66.3500 309.0000 1.0000
66.3600 307.0000 1.0000
66.3700 301.0000 1.0000
66.3800 305.0000 1.0000
66.3900 285.0000 1.0000
66.4000 299.0000 1.0000
66.4100 284.0000 1.0000
66.4200 290.0000 1.0000
66.4300 281.0000 1.0000
66.4400 322.0000 1.0000
66.4500 315.0000 1.0000
66.4600 280.0000 1.0000
66.4700 303.0000 1.0000
66.4800 298.0000 1.0000
66.4900 287.0000 1.0000
66.5000 305.0000 1.0000
66.5100 300.0000 1.0000
66.5200 291.0000 1.0000
66.5300 263.0000 1.0000
66.5400 280.0000 1.0000
66.5500 298.0000 1.0000
66.5600 295.0000 1.0000
66.5700 282.0000 1.0000
66.5800 254.0000 1.0000
66.5900 293.0000 1.0000
66.6000 291.0000 1.0000
66.6100 290.0000 1.0000
66.6200 314.0000 1.0000
66.6300 276.0000 1.0000
66.6400 299.0000 1.0000
66.6500 298.0000 1.0000
66.6600 308.0000 1.0000
66.6700 276.0000 1.0000
66.6800 289.0000 1.0000
66.6900 282.0000 1.0000
66.7000 276.0000 1.0000
66.7100 299.0000 1.0000
66.7200 288.0000 1.0000
66.7300 263.0000 1.0000
66.7400 284.0000 1.0000
66.7500 301.0000 1.0000
66.7600 279.0000 1.0000
66.7700 279.0000 1.0000
66.7800 299.0000 1.0000
66.7900 275.0000 1.0000
66.8000 265.0000 1.0000
66.8100 277.0000 1.0000
66.8200 291.0000 1.0000
66.8300 259.0000 1.0000
66.8400 269.0000 1.0000
66.8500 280.0000 1.0000
66.8600 287.0000 1.0000
66.8700 273.0000 1.0000
66.8800 269.0000 1.0000
66.8900 283.0000 1.0000
66.9000 288.0000 1.0000
66.9100 281.0000 1.0000
66.9200 267.0000 1.0000
66.9300 292.0000 1.0000
66.9400 267.0000 1.0000
66.9500 272.0000 1.0000
66.9600 302.0000 1.0000
66.9700 271.0000 1.0000
66.9800 260.0000 1.0000
66.9900 290.0000 1.0000
67.0000 293.0000 1.0000
67.0100 290.0000 1.0000
67.0200 272.0000 1.0000
67.0300 268.0000 1.0000
67.0400 296.0000 1.0000
67.0500 289.0000 1.0000
67.0600 285.0000 1.0000
67.0700 299.0000 1.0000
67.0800 273.0000 1.0000
67.0900 290.0000 1.0000
67.1000 301.0000 1.0000
67.1100 270.0000 1.0000
67.1200 243.0000 1.0000
67.1300 290.0000 1.0000
67.1400 281.0000 1.0000
67.1500 264.0000 1.0000
67.1600 288.0000 1.0000
67.1700 261.0000 1.0000
67.1800 243.0000 1.0000
67.1900 286.0000 1.0000
67.2000 283.0000 1.0000
67.2100 280.0000 1.0000
67.2200 273.0000 1.0000
67.2300 256.0000 1.0000
67.2400 267.0000 1.0000
67.2500 278.0000 1.0000
67.2600 258.0000 1.0000
67.2700 267.0000 1.0000
67.2800 254.0000 1.0000
67.2900 277.0000 1.0000
67.3000 267.0000 1.0000
67.3100 261.0000 1.0000
67.3200 282.0000 1.0000
67.3300 265.0000 1.0000
67.3400 267.0000 1.0000
67.3500 265.0000 1.0000
67.3600 277.0000 1.0000
67.3700 277.0000 1.0000
67.3800 284.0000 1.0000
67.3900 275.0000 1.0000
67.4000 273.0000 1.0000
67.4100 275.0000 1.0000
67.4200 292.0000 1.0000
67.4300 258.0000 1.0000
67.4400 277.0000 1.0000
67.4500 275.0000 1.0000
67.4600 275.0000 1.0000
67.4700 281.0000 1.0000
67.4800 298.0000 1.0000
67.4900 309.0000 1.0000
67.5000 299.0000 1.0000
67.5100 294.0000 1.0000
67.5200 257.0000 1.0000
67.5300 271.0000 1.0000
67.5400 272.0000 1.0000
67.5500 265.0000 1.0000
67.5600 259.0000 1.0000
67.5700 294.0000 1.0000
67.5800 261.0000 1.0000
67.5900 266.0000 1.0000
67.6000 267.0000 1.0000
67.6100 276.0000 1.0000
67.6200 257.0000 1.0000
67.6300 273.0000 1.0000
67.6400 283.0000 1.0000
67.6500 266.0000 1.0000
67.6600 287.0000 1.0000
67.6700 262.0000 1.0000
67.6800 266.0000 1.0000
67.6900 275.0000 1.0000
67.7000 249.0000 1.0000
67.7100 306.0000 1.0000
67.7200 275.0000 1.0000
67.7300 301.0000 1.0000
67.7400 306.0000 1.0000
67.7500 269.0000 1.0000
67.7600 258.0000 1.0000
67.7700 257.0000 1.0000
67.7800 256.0000 1.0000
67.7900 266.0000 1.0000
67.8000 284.0000 1.0000
67.8100 281.0000 1.0000
67.8200 275.0000 1.0000
67.8300 287.0000 1.0000
67.8400 286.0000 1.0000
67.8500 300.0000 1.0000
67.8600 277.0000 1.0000
67.8700 261.0000 1.0000
67.8800 271.0000 1.0000
67.8900 258.0000 1.0000
67.9000 266.0000 1.0000
67.9100 258.0000 1.0000
67.9200 264.0000 1.0000
67.9300 281.0000 1.0000
67.9400 277.0000 1.0000
67.9500 267.0000 1.0000
67.9600 244.0000 1.0000
67.9700 260.0000 1.0000
67.9800 262.0000 1.0000
67.9900 259.0000 1.0000
68.0000 277.0000 1.0000
68.0100 264.0000 1.0000
68.0200 272.0000 1.0000
68.0300 266.0000 1.0000
68.0400 244.0000 1.0000
68.0500 264.0000 1.0000
68.0600 271.0000 1.0000
68.0700 280.0000 1.0000
68.0800 284.0000 1.0000
68.0900 311.0000 1.0000
68.1000 287.0000 1.0000
68.1100 268.0000 1.0000
68.1200 270.0000 1.0000
68.1300 269.0000 1.0000
68.1400 258.0000 1.0000
68.1500 262.0000 1.0000
68.1600 260.0000 1.0000
68.1700 305.0000 1.0000
68.1800 272.0000 1.0000
68.1900 274.0000 1.0000
68.2000 250.0000 1.0000
68.2100 285.0000 1.0000
68.2200 260.0000 1.0000
68.2300 275.0000 1.0000
68.2400 267.0000 1.0000
68.2500 257.0000 1.0000
68.2600 247.0000 1.0000
68.2700 236.0000 1.0000
68.2800 276.0000 1.0000
68.2900 274.0000 1.0000
68.3000 266.0000 1.0000
68.3100 257.0000 1.0000
68.3200 292.0000 1.0000
68.3300 276.0000 1.0000
68.3400 252.0000 1.0000
68.3500 265.0000 1.0000
68.3600 270.0000 1.0000
68.3700 277.0000 1.0000
68.3800 273.0000 1.0000
68.3900 254.0000 1.0000
68.4000 253.0000 1.0000
68.4100 259.0000 1.0000
68.4200 260.0000 1.0000
68.4300 274.0000 1.0000
68.4400 273.0000 1.0000
68.4500 285.0000 1.0000
68.4600 279.0000 1.0000
68.4700 260.0000 1.0000
68.4800 287.0000 1.0000
68.4900 283.0000 1.0000
68.5000 248.0000 1.0000
68.5100 276.0000 1.0000
68.5200 258.0000 1.0000
68.5300 265.0000 1.0000
68.5400 263.0000 1.0000
68.5500 258.0000 1.0000
68.5600 254.0000 1.0000
68.5700 269.0000 1.0000
68.5800 264.0000 1.0000
68.5900 249.0000 1.0000
68.6000 284.0000 1.0000
68.6100 292.0000 1.0000
68.6200 284.0000 1.0000
68.6300 259.0000 1.0000
68.6400 275.0000 1.0000
68.6500 265.0000 1.0000
68.6600 246.0000 1.0000
68.6700 269.0000 1.0000
68.6800 275.0000 1.0000
68.6900 260.0000 1.0000
68.7000 269.0000 1.0000
68.7100 282.0000 1.0000
68.7200 288.0000 1.0000
68.7300 299.0000 1.0000
68.7400 279.0000 1.0000
68.7500 304.0000 1.0000
68.7600 270.0000 1.0000
68.7700 256.0000 1.0000
68.7800 280.0000 1.0000
68.7900 276.0000 1.0000
68.8000 254.0000 1.0000
68.8100 262.0000 1.0000
68.8200 254.0000 1.0000
68.8300 271.0000 1.0000
68.8400 274.0000 1.0000
68.8500 277.0000 1.0000
68.8600 286.0000 1.0000
68.8700 281.0000 1.0000
68.8800 261.0000 1.0000
68.8900 254.0000 1.0000
68.9000 261.0000 1.0000
68.9100 247.0000 1.0000
68.9200 261.0000 1.0000
68.9300 244.0000 1.0000
68.9400 280.0000 1.0000
68.9500 273.0000 1.0000
68.9600 284.0000 1.0000
68.9700 263.0000 1.0000
68.9800 267.0000 1.0000
68.9900 287.0000 1.0000
69.0000 269.0000 1.0000
69.0100 272.0000 1.0000
69.0200 263.0000 1.0000
69.0300 245.0000 1.0000
69.0400 248.0000 1.0000
69.0500 274.0000 1.0000
69.0600 248.0000 1.0000
69.0700 269.0000 1.0000
69.0800 280.0000 1.0000
69.0900 249.0000 1.0000
69.1000 227.0000 1.0000
69.1100 250.0000 1.0000
69.1200 281.0000 1.0000
69.1300 278.0000 1.0000
69.1400 270.0000 1.0000
69.1500 259.0000 1.0000
69.1600 259.0000 1.0000
69.1700 267.0000 1.0000
69.1800 234.0000 1.0000
69.1900 249.0000 1.0000
69.2000 259.0000 1.0000
69.2100 285.0000 1.0000
69.2200 257.0000 1.0000
69.2300 269.0000 1.0000
69.2400 282.0000 1.0000
69.2500 265.0000 1.0000
69.2600 259.0000 1.0000
69.2700 279.0000 1.0000
69.2800 268.0000 1.0000
69.2900 257.0000 1.0000
69.3000 257.0000 1.0000
69.3100 247.0000 1.0000
69.3200 255.0000 1.0000
69.3300 237.0000 1.0000
69.3400 265.0000 1.0000
69.3500 229.0000 1.0000
69.3600 223.0000 1.0000
69.3700 274.0000 1.0000
69.3800 253.0000 1.0000
69.3900 264.0000 1.0000
69.4000 259.0000 1.0000
69.4100 256.0000 1.0000
69.4200 282.0000 1.0000
69.4300 253.0000 1.0000
69.4400 247.0000 1.0000
69.4500 262.0000 1.0000
69.4600 279.0000 1.0000
69.4700 257.0000 1.0000
69.4800 263.0000 1.0000
69.4900 250.0000 1.0000
69.5000 250.0000 1.0000
69.5100 272.0000 1.0000
69.5200 267.0000 1.0000
69.5300 251.0000 1.0000
69.5400 258.0000 1.0000
69.5500 250.0000 1.0000
69.5600 274.0000 1.0000
69.5700 263.0000 1.0000
69.5800 274.0000 1.0000
69.5900 248.0000 1.0000
69.6000 264.0000 1.0000
69.6100 235.0000 1.0000
69.6200 270.0000 1.0000
69.6300 249.0000 1.0000
69.6400 253.0000 1.0000
69.6500 262.0000 1.0000
69.6600 288.0000 1.0000
69.6700 281.0000 1.0000
69.6800 262.0000 1.0000
69.6900 254.0000 1.0000
69.7000 251.0000 1.0000
69.7100 264.0000 1.0000
69.7200 260.0000 1.0000
69.7300 252.0000 1.0000
69.7400 264.0000 1.0000
69.7500 250.0000 1.0000
69.7600 270.0000 1.0000
69.7700 250.0000 1.0000
69.7800 248.0000 1.0000
69.7900 248.0000 1.0000
69.8000 259.0000 1.0000
69.8100 252.0000 1.0000
69.8200 272.0000 1.0000
69.8300 267.0000 1.0000
69.8400 280.0000 1.0000
69.8500 252.0000 1.0000
69.8600 252.0000 1.0000
69.8700 279.0000 1.0000
69.8800 253.0000 1.0000
69.8900 248.0000 1.0000
69.9000 268.0000 1.0000
69.9100 283.0000 1.0000
69.9200 237.0000 1.0000
69.9300 261.0000 1.0000
69.9400 272.0000 1.0000
69.9500 241.0000 1.0000
69.9600 260.0000 1.0000
69.9700 262.0000 1.0000
69.9800 269.0000 1.0000
69.9900 251.0000 1.0000
70.0000 273.0000 1.0000
*RAS_INT_END
*RAS_TEMPERATURE_START
*RAS_TEMPERATURE_END
*RAS_DATA_END
