*RAS_DATA_START
*RAS_HEADER_START
*DISP_FMT_X "%.2f"
*DISP_FMT_Y "%.0f"
*DISP_FULLSCALE "12325.0000000000"
*DISP_LINE_COLOR "255.0000000000"
*DISP_LINE_STYLE "0.0000000000"
*DISP_LINE_WIDTH "0.2500000000"
*DISP_NOTE "測定データ-2"
*DISP_OFFSET_Y "0.0000000000"
*DISP_PEAKSEARCH_UNIT_Y "cps"
*DISP_RANGE_BOTTOM "0.0000000000"
*DISP_RANGE_LEFT "20.0000000000"
*DISP_RANGE_LOGCUTOFF "0.0100000000"
*DISP_RANGE_RIGHT "70.0000000000"
*DISP_RANGE_TOP "12325.0000000000"
*DISP_SCALE_MODE_Y "0.0000000000"
*DISP_TAB_NAME "2θ/θ"
*DISP_TITLE_Y "強度"
*DISP_UNIT_Y "cps"
*DISP_WINDOW_NAME "MSG_MACROENGINE"
*FILE_COMMENT " "
*FILE_MD5 ""
*FILE_MEMO " "
*FILE_OPERATOR "Administrator"
*FILE_SAMPLE " "
*FILE_TYPE "RAS_RAW"
*FILE_USERGROUP "システムマネージャ"
*FILE_VERSION "1.0000000000"
*HW_ATTACHMENT_ID "ATT0025"
*HW_ATTACHMENT_NAME "標準|Standard"
*HW_COUNTER_ID-0 "CUT0025"
*HW_COUNTER_ID-1 "CUT0020"
*HW_COUNTER_ID-2 "CUT0020"
*HW_COUNTER_ID-3 "CSL0021"
*HW_COUNTER_ID-4 "CMC0021"
*HW_COUNTER_NAME-0 "D/teX Ultra|D/teX Ultra"
*HW_COUNTER_NAME-1 "None|None"
*HW_COUNTER_NAME-2 "None|None"
*HW_COUNTER_NAME-3 "BBM|BBM"
*HW_COUNTER_NAME-4 "検出器モノクロメータ|Detector monochromator"
*HW_COUNTER_SELECT_NAME "D/teX Ultra|D/teX Ultra"
*HW_GONIOMETER_ID "GON0023"
*HW_GONIOMETER_NAME "SmartLab|SmartLab"
*HW_GONIOMETER_RADIUS-0 "90.0"
*HW_GONIOMETER_RADIUS-1 "114.0"
*HW_GONIOMETER_RADIUS-2 "190.0"
*HW_GONIOMETER_RADIUS-3 "300.0"
*HW_GONIOMETER_RADIUS-4 "187.0"
*HW_GONIOMETER_RADIUS-5 "300.0"
*HW_GONIOMETER_RADIUS-6 "113.0"
*HW_GONIOMETER_RADIUS-7 "331.0"
*HW_I_OPT_ID-0 "CBO0021"
*HW_I_OPT_ID-1 "ICR0023"
*HW_I_OPT_ID-2 "ISL0021"
*HW_I_OPT_ID-3 "ISO0021"
*HW_I_OPT_ID-4 "IAD0021"
*HW_I_OPT_ID-5 "IPR0001"
*HW_I_OPT_NAME-0 "CBOユニット|CBO unit"
*HW_I_OPT_NAME-1 "標準入射光学ユニット|Standard incident optical unit"
*HW_I_OPT_NAME-2 "標準入射スリットボックス|Standard incident slit box"
*HW_I_OPT_NAME-3 "入射平行スリット|Incident parallel slit"
*HW_I_OPT_NAME-4 "長手制限スリット|Length limiting slit"
*HW_I_OPT_NAME-5 "None|None"
*HW_R_ATTENUATER_AUTOMODE "0"
*HW_R_OPT_ID-0 "RSS0021"
*HW_R_OPT_ID-1 "RCR0023"
*HW_R_OPT_ID-2 "RSO0021"
*HW_R_OPT_ID-3 "RRS0021"
*HW_R_OPT_ID-4 "ATN0021"
*HW_R_OPT_ID-5 "RFL0021"
*HW_R_OPT_ID-6 "RAD0021"
*HW_R_OPT_NAME-0 "標準受光スリットボックス1|Standard receiving slit box # 1"
*HW_R_OPT_NAME-1 "標準受光光学ユニット1|Standard receiving unit # 1"
*HW_R_OPT_NAME-2 "標準受光光学ユニット2|Standard receiving optical unit # 2"
*HW_R_OPT_NAME-3 "標準受光スリットボックス2|Standard receiving slit box # 2"
*HW_R_OPT_NAME-4 "標準アッテネータ|Standard Attenuator"
*HW_R_OPT_NAME-5 "Cu Kβ|Cu K-beta"
*HW_R_OPT_NAME-6 "調整用受光スリット|Alignment receiving slit"
*HW_SAMPLE_HOLDER_ID "SMP0023"
*HW_SAMPLE_HOLDER_NAME "標準Zステージ|Standard Z stage"
*HW_XG_CURRENT_MAX "50"
*HW_XG_CURRENT_MIN "2"
*HW_XG_CURRENT_RESOLUTION "1"
*HW_XG_CURRENT_UNIT "mA"
*HW_XG_FOCUS "1mm x 10mm"
*HW_XG_FOCUS_TYPE "Normal"
*HW_XG_ID ""
*HW_XG_NAME "3kW 封入管(ID:1200)|3kW Sealed tube(ID:1200)"
*HW_XG_TARGET_ATOMIC_NUMBER "29.0000000000"
*HW_XG_TARGET_NAME "Cu"
*HW_XG_TYPE "Hermetic"
*HW_XG_VOLTAGE_MAX "60"
*HW_XG_VOLTAGE_MIN "20"
*HW_XG_VOLTAGE_RESOLUTION "1"
*HW_XG_VOLTAGE_UNIT "kV"
*HW_XG_WATT_MAX "1.500"
*HW_XG_WATT_UNIT "kW"
*HW_XG_WAVE_LENGTH_ALPHA1 "1.540593"
*HW_XG_WAVE_LENGTH_ALPHA2 "1.544414"
*HW_XG_WAVE_LENGTH_BETA "1.392250"
*MEAS_COND_AXIS_NAME-0 "2θ/θ"
*MEAS_COND_AXIS_NAME-1 "2θ"
*MEAS_COND_AXIS_NAME-2 "ω"
*MEAS_COND_AXIS_NAME-3 "Z"
*MEAS_COND_AXIS_NAME-4 "2θ/ω"
*MEAS_COND_AXIS_NAME-5 "θs"
*MEAS_COND_AXIS_NAME-6 "θd"
*MEAS_COND_AXIS_NAME-7 "Ts"
*MEAS_COND_AXIS_NAME-8 "CBO選択スリット"
*MEAS_COND_AXIS_NAME-9 "M"
*MEAS_COND_AXIS_NAME-10 "入射平行スリット"
*MEAS_COND_AXIS_NAME-11 "入射スリット"
*MEAS_COND_AXIS_NAME-12 ""
*MEAS_COND_AXIS_NAME-13 "Zs"
*MEAS_COND_AXIS_NAME-14 "入射光学素子"
*MEAS_COND_AXIS_NAME-15 "長手制限スリット"
*MEAS_COND_AXIS_NAME-16 "センタースリット"
*MEAS_COND_AXIS_NAME-17 "フィルター"
*MEAS_COND_AXIS_NAME-18 "受光スリット1"
*MEAS_COND_AXIS_NAME-19 "受光スリット2"
*MEAS_COND_AXIS_NAME-20 "受光光学素子"
*MEAS_COND_AXIS_NAME-21 "受光平行スリット"
*MEAS_COND_AXIS_NAME-22 "調整用受光スリット"
*MEAS_COND_AXIS_NAME-23 ""
*MEAS_COND_AXIS_NAME-24 ""
*MEAS_COND_AXIS_NAME-25 "Zd"
*MEAS_COND_AXIS_NAME-26 "アッテネータ"
*MEAS_COND_AXIS_NAME-27 "検出器モノクロメータ"
*MEAS_COND_AXIS_NAME-28 "モノクロメータスリット"
*MEAS_COND_AXIS_NAME-29 "プライマリビーム"
*MEAS_COND_AXIS_NAME-30 "PHA"
*MEAS_COND_AXIS_NAME_INTERNAL-0 "TwoThetaTheta"
*MEAS_COND_AXIS_NAME_INTERNAL-1 "TwoTheta"
*MEAS_COND_AXIS_NAME_INTERNAL-2 "Omega"
*MEAS_COND_AXIS_NAME_INTERNAL-3 "Z"
*MEAS_COND_AXIS_NAME_INTERNAL-4 "TwoThetaOmega"
*MEAS_COND_AXIS_NAME_INTERNAL-5 "ThetaS"
*MEAS_COND_AXIS_NAME_INTERNAL-6 "ThetaD"
*MEAS_COND_AXIS_NAME_INTERNAL-7 "Ts"
*MEAS_COND_AXIS_NAME_INTERNAL-8 "CBO"
*MEAS_COND_AXIS_NAME_INTERNAL-9 "CBO-M"
*MEAS_COND_AXIS_NAME_INTERNAL-10 "IncidentSollerSlit"
*MEAS_COND_AXIS_NAME_INTERNAL-11 "IncidentSlitBox"
*MEAS_COND_AXIS_NAME_INTERNAL-12 "IncidentSlitBox-_Axis"
*MEAS_COND_AXIS_NAME_INTERNAL-13 "Zs"
*MEAS_COND_AXIS_NAME_INTERNAL-14 "IncidentMonochromator"
*MEAS_COND_AXIS_NAME_INTERNAL-15 "IncidentAxdSlit"
*MEAS_COND_AXIS_NAME_INTERNAL-16 "CenterSlit"
*MEAS_COND_AXIS_NAME_INTERNAL-17 "Filter"
*MEAS_COND_AXIS_NAME_INTERNAL-18 "ReceivingSlitBox1"
*MEAS_COND_AXIS_NAME_INTERNAL-19 "ReceivingSlitBox2"
*MEAS_COND_AXIS_NAME_INTERNAL-20 "ReceivingOptics"
*MEAS_COND_AXIS_NAME_INTERNAL-21 "ReceivingSollerSlit"
*MEAS_COND_AXIS_NAME_INTERNAL-22 "ReceivingAxdSlit"
*MEAS_COND_AXIS_NAME_INTERNAL-23 "ReceivingSlitBox1-_Axis"
*MEAS_COND_AXIS_NAME_INTERNAL-24 "ReceivingSlitBox2-_Axis"
*MEAS_COND_AXIS_NAME_INTERNAL-25 "ReceivingSlitBox2-Zd"
*MEAS_COND_AXIS_NAME_INTERNAL-26 "Attenuator"
*MEAS_COND_AXIS_NAME_INTERNAL-27 "CounterMonochromator"
*MEAS_COND_AXIS_NAME_INTERNAL-28 "CounterSlit"
*MEAS_COND_AXIS_NAME_INTERNAL-29 "IncidentPrimary"
*MEAS_COND_AXIS_NAME_INTERNAL-30 "PHA"
*MEAS_COND_AXIS_NAME_MAGICNO-0 "83951616.0000000000"
*MEAS_COND_AXIS_NAME_MAGICNO-1 "268632064.0000000000"
*MEAS_COND_AXIS_NAME_MAGICNO-2 "268500992.0000000000"
*MEAS_COND_AXIS_NAME_MAGICNO-3 "285278208.0000000000"
*MEAS_COND_AXIS_NAME_MAGICNO-4 "83951616.0000000000"
*MEAS_COND_AXIS_NAME_MAGICNO-5 "131072.0000000000"
*MEAS_COND_AXIS_NAME_MAGICNO-6 "131072.0000000000"
*MEAS_COND_AXIS_NAME_MAGICNO-7 "318898176.0000000000"
*MEAS_COND_AXIS_NAME_MAGICNO-8 "20971521.0000000000"
*MEAS_COND_AXIS_NAME_MAGICNO-9 "285343744.0000000000"
*MEAS_COND_AXIS_NAME_MAGICNO-10 "20971521.0000000000"
*MEAS_COND_AXIS_NAME_MAGICNO-11 "22020097.0000000000"
*MEAS_COND_AXIS_NAME_MAGICNO-12 "25165824.0000000000"
*MEAS_COND_AXIS_NAME_MAGICNO-13 "318898176.0000000000"
*MEAS_COND_AXIS_NAME_MAGICNO-14 "1.0000000000"
*MEAS_COND_AXIS_NAME_MAGICNO-15 "20971521.0000000000"
*MEAS_COND_AXIS_NAME_MAGICNO-16 "20971521.0000000000"
*MEAS_COND_AXIS_NAME_MAGICNO-17 "20971521.0000000000"
*MEAS_COND_AXIS_NAME_MAGICNO-18 "23068673.0000000000"
*MEAS_COND_AXIS_NAME_MAGICNO-19 "23068673.0000000000"
*MEAS_COND_AXIS_NAME_MAGICNO-20 "20971521.0000000000"
*MEAS_COND_AXIS_NAME_MAGICNO-21 "20971521.0000000000"
*MEAS_COND_AXIS_NAME_MAGICNO-22 "20971521.0000000000"
*MEAS_COND_AXIS_NAME_MAGICNO-23 "25165824.0000000000"
*MEAS_COND_AXIS_NAME_MAGICNO-24 "25165824.0000000000"
*MEAS_COND_AXIS_NAME_MAGICNO-25 "285343744.0000000000"
*MEAS_COND_AXIS_NAME_MAGICNO-26 "17301505.0000000000"
*MEAS_COND_AXIS_NAME_MAGICNO-27 "20971521.0000000000"
*MEAS_COND_AXIS_NAME_MAGICNO-28 "20971521.0000000000"
*MEAS_COND_AXIS_NAME_MAGICNO-29 "20971521.0000000000"
*MEAS_COND_AXIS_NAME_MAGICNO-30 "0.0000000000"
*MEAS_COND_AXIS_OFFSET-0 "-"
*MEAS_COND_AXIS_OFFSET-1 "-0.1081000000"
*MEAS_COND_AXIS_OFFSET-2 "0.3758000000"
*MEAS_COND_AXIS_OFFSET-3 "-"
*MEAS_COND_AXIS_OFFSET-4 "-"
*MEAS_COND_AXIS_OFFSET-5 "0.3758000000"
*MEAS_COND_AXIS_OFFSET-6 "-0.4839000000"
*MEAS_COND_AXIS_OFFSET-7 "-"
*MEAS_COND_AXIS_OFFSET-8 "-"
*MEAS_COND_AXIS_OFFSET-9 "-"
*MEAS_COND_AXIS_OFFSET-10 "-"
*MEAS_COND_AXIS_OFFSET-11 "-"
*MEAS_COND_AXIS_OFFSET-12 "-"
*MEAS_COND_AXIS_OFFSET-13 "-"
*MEAS_COND_AXIS_OFFSET-14 "-"
*MEAS_COND_AXIS_OFFSET-15 "-"
*MEAS_COND_AXIS_OFFSET-16 "-"
*MEAS_COND_AXIS_OFFSET-17 "-"
*MEAS_COND_AXIS_OFFSET-18 "-"
*MEAS_COND_AXIS_OFFSET-19 "-"
*MEAS_COND_AXIS_OFFSET-20 "-"
*MEAS_COND_AXIS_OFFSET-21 "-"
*MEAS_COND_AXIS_OFFSET-22 "-"
*MEAS_COND_AXIS_OFFSET-23 "-"
*MEAS_COND_AXIS_OFFSET-24 "-"
*MEAS_COND_AXIS_OFFSET-25 "-"
*MEAS_COND_AXIS_OFFSET-26 "-"
*MEAS_COND_AXIS_OFFSET-27 "-"
*MEAS_COND_AXIS_OFFSET-28 "-"
*MEAS_COND_AXIS_OFFSET-29 "-"
*MEAS_COND_AXIS_OFFSET-30 "-"
*MEAS_COND_AXIS_POSITION-0 "0.0000000000"
*MEAS_COND_AXIS_POSITION-1 "0.0000000000"
*MEAS_COND_AXIS_POSITION-2 "0.0000000000"
*MEAS_COND_AXIS_POSITION-3 "-0.5500000000"
*MEAS_COND_AXIS_POSITION-4 "0.0000000000"
*MEAS_COND_AXIS_POSITION-5 "0.0000000000"
*MEAS_COND_AXIS_POSITION-6 "0.0000000000"
*MEAS_COND_AXIS_POSITION-7 "-0.4278800000"
*MEAS_COND_AXIS_POSITION-8 "BB"
*MEAS_COND_AXIS_POSITION-9 "0.0000000000"
*MEAS_COND_AXIS_POSITION-10 "Soller_slit_5.0deg"
*MEAS_COND_AXIS_POSITION-11 "2/3deg"
*MEAS_COND_AXIS_POSITION-12 "2.2088000000"
*MEAS_COND_AXIS_POSITION-13 "-0.4140600000"
*MEAS_COND_AXIS_POSITION-14 "0.0000000000"
*MEAS_COND_AXIS_POSITION-15 "10.0mm"
*MEAS_COND_AXIS_POSITION-16 "None"
*MEAS_COND_AXIS_POSITION-17 "Cu_K-beta"
*MEAS_COND_AXIS_POSITION-18 "13.000mm"
*MEAS_COND_AXIS_POSITION-19 "13.000mm"
*MEAS_COND_AXIS_POSITION-20 "No_unit"
*MEAS_COND_AXIS_POSITION-21 "Soller_slit_5.0deg"
*MEAS_COND_AXIS_POSITION-22 "None"
*MEAS_COND_AXIS_POSITION-23 "13.0000000000"
*MEAS_COND_AXIS_POSITION-24 "13.0000000000"
*MEAS_COND_AXIS_POSITION-25 "0.0109400000"
*MEAS_COND_AXIS_POSITION-26 "Open"
*MEAS_COND_AXIS_POSITION-27 "None"
*MEAS_COND_AXIS_POSITION-28 "None"
*MEAS_COND_AXIS_POSITION-29 "None"
*MEAS_COND_AXIS_POSITION-30 "38.0000000000"
*MEAS_COND_AXIS_UNIT-0 "deg"
*MEAS_COND_AXIS_UNIT-1 "deg"
*MEAS_COND_AXIS_UNIT-2 "deg"
*MEAS_COND_AXIS_UNIT-3 "mm"
*MEAS_COND_AXIS_UNIT-4 "deg"
*MEAS_COND_AXIS_UNIT-5 "deg"
*MEAS_COND_AXIS_UNIT-6 "deg"
*MEAS_COND_AXIS_UNIT-7 "mm"
*MEAS_COND_AXIS_UNIT-8 ""
*MEAS_COND_AXIS_UNIT-9 "pulse"
*MEAS_COND_AXIS_UNIT-10 ""
*MEAS_COND_AXIS_UNIT-11 ""
*MEAS_COND_AXIS_UNIT-12 "mm"
*MEAS_COND_AXIS_UNIT-13 "mm"
*MEAS_COND_AXIS_UNIT-14 ""
*MEAS_COND_AXIS_UNIT-15 ""
*MEAS_COND_AXIS_UNIT-16 ""
*MEAS_COND_AXIS_UNIT-17 ""
*MEAS_COND_AXIS_UNIT-18 ""
*MEAS_COND_AXIS_UNIT-19 ""
*MEAS_COND_AXIS_UNIT-20 ""
*MEAS_COND_AXIS_UNIT-21 ""
*MEAS_COND_AXIS_UNIT-22 ""
*MEAS_COND_AXIS_UNIT-23 "mm"
*MEAS_COND_AXIS_UNIT-24 "mm"
*MEAS_COND_AXIS_UNIT-25 "mm"
*MEAS_COND_AXIS_UNIT-26 ""
*MEAS_COND_AXIS_UNIT-27 ""
*MEAS_COND_AXIS_UNIT-28 ""
*MEAS_COND_AXIS_UNIT-29 ""
*MEAS_COND_AXIS_UNIT-30 "div"
*MEAS_COND_COUNTER_CNTLOSS_CORR "0.0000000000"
*MEAS_COND_COUNTER_PHABASE "38.0000000000"
*MEAS_COND_COUNTER_PHAWINDOW "16.0000000000"
*MEAS_COND_COUNTER_PHA_UNIT "div"
*MEAS_COND_COUNTER_TAUDIFF "30.0000000000"
*MEAS_COND_COUNTER_TAUINT "0.0000000000"
*MEAS_COND_IRRADIATION_MODE "OFF"
*MEAS_COND_IRRADIATION_WIDTH ""
*MEAS_COND_OPT_ATTR "集中法"
*MEAS_COND_OPT_NAME "@集中法"
*MEAS_COND_UNSYMMETRIC_MODE "OFF"
*MEAS_COND_XG_CURRENT "30.0000000000"
*MEAS_COND_XG_VOLTAGE "40.0000000000"
*MEAS_COND_XG_WAVE_TYPE "Ka"
*MEAS_DATA_COUNT "5001.0000000000"
*MEAS_SCAN_AXIS_X "2θ/θ"
*MEAS_SCAN_AXIS_X_INTERNAL "TwoThetaTheta"
*MEAS_SCAN_END_TIME "07/28/21 11:41:47"
*MEAS_SCAN_MODE "CONTINUOUS"
*MEAS_SCAN_MONITOR "0"
*MEAS_SCAN_RESOLUTION_X "0.0002"
*MEAS_SCAN_SPEED "2.5"
*MEAS_SCAN_SPEED_UNIT "deg/min"
*MEAS_SCAN_START "20.0000000000"
*MEAS_SCAN_START_TIME "07/28/21 11:20:22"
*MEAS_SCAN_STEP "0.0100000000"
*MEAS_SCAN_STOP "70.0000000000"
*MEAS_SCAN_UNIT_X "deg"
*MEAS_SCAN_UNIT_Y "counts"
*RAS_HEADER_END
*RAS_INT_START
20.0000 636.0000 1.0000
20.0100 603.0000 1.0000
20.0200 605.0000 1.0000
20.0300 625.0000 1.0000
20.0400 577.0000 1.0000
20.0500 578.0000 1.0000
20.0600 612.0000 1.0000
20.0700 623.0000 1.0000
20.0800 622.0000 1.0000
20.0900 585.0000 1.0000
20.1000 639.0000 1.0000
20.1100 599.0000 1.0000
20.1200 634.0000 1.0000
20.1300 657.0000 1.0000
20.1400 625.0000 1.0000
20.1500 604.0000 1.0000
20.1600 616.0000 1.0000
20.1700 631.0000 1.0000
20.1800 614.0000 1.0000
20.1900 610.0000 1.0000
20.2000 618.0000 1.0000
20.2100 625.0000 1.0000
20.2200 600.0000 1.0000
20.2300 617.0000 1.0000
20.2400 617.0000 1.0000
20.2500 602.0000 1.0000
20.2600 578.0000 1.0000
20.2700 611.0000 1.0000
20.2800 603.0000 1.0000
20.2900 635.0000 1.0000
20.3000 601.0000 1.0000
20.3100 635.0000 1.0000
20.3200 608.0000 1.0000
20.3300 639.0000 1.0000
20.3400 618.0000 1.0000
20.3500 638.0000 1.0000
20.3600 596.0000 1.0000
20.3700 611.0000 1.0000
20.3800 545.0000 1.0000
20.3900 578.0000 1.0000
20.4000 598.0000 1.0000
20.4100 641.0000 1.0000
20.4200 613.0000 1.0000
20.4300 565.0000 1.0000
20.4400 594.0000 1.0000
20.4500 609.0000 1.0000
20.4600 621.0000 1.0000
20.4700 634.0000 1.0000
20.4800 633.0000 1.0000
20.4900 586.0000 1.0000
20.5000 608.0000 1.0000
20.5100 605.0000 1.0000
20.5200 632.0000 1.0000
20.5300 607.0000 1.0000
20.5400 575.0000 1.0000
20.5500 636.0000 1.0000
20.5600 622.0000 1.0000
20.5700 637.0000 1.0000
20.5800 624.0000 1.0000
20.5900 637.0000 1.0000
20.6000 595.0000 1.0000
20.6100 610.0000 1.0000
20.6200 640.0000 1.0000
20.6300 617.0000 1.0000
20.6400 613.0000 1.0000
20.6500 593.0000 1.0000
20.6600 626.0000 1.0000
20.6700 606.0000 1.0000
20.6800 606.0000 1.0000
20.6900 613.0000 1.0000
20.7000 593.0000 1.0000
20.7100 564.0000 1.0000
20.7200 617.0000 1.0000
20.7300 593.0000 1.0000
20.7400 596.0000 1.0000
20.7500 588.0000 1.0000
20.7600 592.0000 1.0000
20.7700 587.0000 1.0000
20.7800 596.0000 1.0000
20.7900 622.0000 1.0000
20.8000 669.0000 1.0000
20.8100 651.0000 1.0000
20.8200 600.0000 1.0000
20.8300 609.0000 1.0000
20.8400 612.0000 1.0000
20.8500 600.0000 1.0000
20.8600 603.0000 1.0000
20.8700 667.0000 1.0000
20.8800 581.0000 1.0000
20.8900 617.0000 1.0000
20.9000 646.0000 1.0000
20.9100 593.0000 1.0000
20.9200 635.0000 1.0000
20.9300 631.0000 1.0000
20.9400 618.0000 1.0000
20.9500 607.0000 1.0000
20.9600 593.0000 1.0000
20.9700 614.0000 1.0000
20.9800 611.0000 1.0000
20.9900 645.0000 1.0000
21.0000 605.0000 1.0000
21.0100 655.0000 1.0000
21.0200 621.0000 1.0000
21.0300 579.0000 1.0000
21.0400 595.0000 1.0000
21.0500 633.0000 1.0000
21.0600 618.0000 1.0000
21.0700 592.0000 1.0000
21.0800 568.0000 1.0000
21.0900 576.0000 1.0000
21.1000 581.0000 1.0000
21.1100 598.0000 1.0000
21.1200 605.0000 1.0000
21.1300 630.0000 1.0000
21.1400 582.0000 1.0000
21.1500 633.0000 1.0000
21.1600 569.0000 1.0000
21.1700 609.0000 1.0000
21.1800 618.0000 1.0000
21.1900 611.0000 1.0000
21.2000 635.0000 1.0000
21.2100 587.0000 1.0000
21.2200 611.0000 1.0000
21.2300 615.0000 1.0000
21.2400 624.0000 1.0000
21.2500 564.0000 1.0000
21.2600 583.0000 1.0000
21.2700 581.0000 1.0000
21.2800 642.0000 1.0000
21.2900 640.0000 1.0000
21.3000 613.0000 1.0000
21.3100 590.0000 1.0000
21.3200 609.0000 1.0000
21.3300 581.0000 1.0000
21.3400 583.0000 1.0000
21.3500 619.0000 1.0000
21.3600 597.0000 1.0000
21.3700 620.0000 1.0000
21.3800 618.0000 1.0000
21.3900 609.0000 1.0000
21.4000 583.0000 1.0000
21.4100 606.0000 1.0000
21.4200 601.0000 1.0000
21.4300 612.0000 1.0000
21.4400 609.0000 1.0000
21.4500 618.0000 1.0000
21.4600 602.0000 1.0000
21.4700 610.0000 1.0000
21.4800 605.0000 1.0000
21.4900 647.0000 1.0000
21.5000 604.0000 1.0000
21.5100 630.0000 1.0000
21.5200 607.0000 1.0000
21.5300 620.0000 1.0000
21.5400 645.0000 1.0000
21.5500 626.0000 1.0000
21.5600 628.0000 1.0000
21.5700 603.0000 1.0000
21.5800 615.0000 1.0000
21.5900 611.0000 1.0000
21.6000 652.0000 1.0000
21.6100 600.0000 1.0000
21.6200 615.0000 1.0000
21.6300 625.0000 1.0000
21.6400 599.0000 1.0000
21.6500 659.0000 1.0000
21.6600 620.0000 1.0000
21.6700 600.0000 1.0000
21.6800 643.0000 1.0000
21.6900 626.0000 1.0000
21.7000 593.0000 1.0000
21.7100 655.0000 1.0000
21.7200 626.0000 1.0000
21.7300 641.0000 1.0000
21.7400 615.0000 1.0000
21.7500 604.0000 1.0000
21.7600 600.0000 1.0000
21.7700 599.0000 1.0000
21.7800 569.0000 1.0000
21.7900 613.0000 1.0000
21.8000 639.0000 1.0000
21.8100 649.0000 1.0000
21.8200 604.0000 1.0000
21.8300 638.0000 1.0000
21.8400 617.0000 1.0000
21.8500 639.0000 1.0000
21.8600 614.0000 1.0000
21.8700 634.0000 1.0000
21.8800 615.0000 1.0000
21.8900 644.0000 1.0000
21.9000 616.0000 1.0000
21.9100 620.0000 1.0000
21.9200 614.0000 1.0000
21.9300 660.0000 1.0000
21.9400 618.0000 1.0000
21.9500 610.0000 1.0000
21.9600 620.0000 1.0000
21.9700 642.0000 1.0000
21.9800 625.0000 1.0000
21.9900 612.0000 1.0000
22.0000 656.0000 1.0000
22.0100 604.0000 1.0000
22.0200 594.0000 1.0000
22.0300 596.0000 1.0000
22.0400 592.0000 1.0000
22.0500 636.0000 1.0000
22.0600 603.0000 1.0000
22.0700 645.0000 1.0000
22.0800 614.0000 1.0000
22.0900 631.0000 1.0000
22.1000 621.0000 1.0000
22.1100 613.0000 1.0000
22.1200 608.0000 1.0000
22.1300 617.0000 1.0000
22.1400 645.0000 1.0000
22.1500 613.0000 1.0000
22.1600 640.0000 1.0000
22.1700 615.0000 1.0000
22.1800 621.0000 1.0000
22.1900 645.0000 1.0000
22.2000 625.0000 1.0000
22.2100 613.0000 1.0000
22.2200 591.0000 1.0000
22.2300 628.0000 1.0000
22.2400 642.0000 1.0000
22.2500 635.0000 1.0000
22.2600 646.0000 1.0000
22.2700 630.0000 1.0000
22.2800 609.0000 1.0000
22.2900 640.0000 1.0000
22.3000 631.0000 1.0000
22.3100 629.0000 1.0000
22.3200 588.0000 1.0000
22.3300 602.0000 1.0000
22.3400 639.0000 1.0000
22.3500 625.0000 1.0000
22.3600 634.0000 1.0000
22.3700 620.0000 1.0000
22.3800 633.0000 1.0000
22.3900 626.0000 1.0000
22.4000 625.0000 1.0000
22.4100 577.0000 1.0000
22.4200 606.0000 1.0000
22.4300 603.0000 1.0000
22.4400 639.0000 1.0000
22.4500 645.0000 1.0000
22.4600 623.0000 1.0000
22.4700 603.0000 1.0000
22.4800 628.0000 1.0000
22.4900 617.0000 1.0000
22.5000 590.0000 1.0000
22.5100 640.0000 1.0000
22.5200 605.0000 1.0000
22.5300 628.0000 1.0000
22.5400 609.0000 1.0000
22.5500 607.0000 1.0000
22.5600 632.0000 1.0000
22.5700 637.0000 1.0000
22.5800 613.0000 1.0000
22.5900 630.0000 1.0000
22.6000 615.0000 1.0000
22.6100 628.0000 1.0000
22.6200 623.0000 1.0000
22.6300 612.0000 1.0000
22.6400 602.0000 1.0000
22.6500 652.0000 1.0000
22.6600 629.0000 1.0000
22.6700 660.0000 1.0000
22.6800 671.0000 1.0000
22.6900 656.0000 1.0000
22.7000 620.0000 1.0000
22.7100 606.0000 1.0000
22.7200 663.0000 1.0000
22.7300 626.0000 1.0000
22.7400 617.0000 1.0000
22.7500 604.0000 1.0000
22.7600 584.0000 1.0000
22.7700 641.0000 1.0000
22.7800 649.0000 1.0000
22.7900 614.0000 1.0000
22.8000 628.0000 1.0000
22.8100 608.0000 1.0000
22.8200 596.0000 1.0000
22.8300 585.0000 1.0000
22.8400 613.0000 1.0000
22.8500 620.0000 1.0000
22.8600 592.0000 1.0000
22.8700 610.0000 1.0000
22.8800 647.0000 1.0000
22.8900 596.0000 1.0000
22.9000 592.0000 1.0000
22.9100 621.0000 1.0000
22.9200 647.0000 1.0000
22.9300 603.0000 1.0000
22.9400 611.0000 1.0000
22.9500 601.0000 1.0000
22.9600 626.0000 1.0000
22.9700 608.0000 1.0000
22.9800 637.0000 1.0000
22.9900 623.0000 1.0000
23.0000 616.0000 1.0000
23.0100 637.0000 1.0000
23.0200 631.0000 1.0000
23.0300 613.0000 1.0000
23.0400 627.0000 1.0000
23.0500 572.0000 1.0000
23.0600 662.0000 1.0000
23.0700 646.0000 1.0000
23.0800 597.0000 1.0000
23.0900 588.0000 1.0000
23.1000 611.0000 1.0000
23.1100 604.0000 1.0000
23.1200 602.0000 1.0000
23.1300 611.0000 1.0000
23.1400 631.0000 1.0000
23.1500 641.0000 1.0000
23.1600 584.0000 1.0000
23.1700 622.0000 1.0000
23.1800 615.0000 1.0000
23.1900 621.0000 1.0000
23.2000 611.0000 1.0000
23.2100 590.0000 1.0000
23.2200 570.0000 1.0000
23.2300 575.0000 1.0000
23.2400 576.0000 1.0000
23.2500 630.0000 1.0000
23.2600 659.0000 1.0000
23.2700 648.0000 1.0000
23.2800 633.0000 1.0000
23.2900 606.0000 1.0000
23.3000 621.0000 1.0000
23.3100 617.0000 1.0000
23.3200 633.0000 1.0000
23.3300 629.0000 1.0000
23.3400 595.0000 1.0000
23.3500 618.0000 1.0000
23.3600 601.0000 1.0000
23.3700 630.0000 1.0000
23.3800 622.0000 1.0000
23.3900 614.0000 1.0000
23.4000 628.0000 1.0000
23.4100 587.0000 1.0000
23.4200 602.0000 1.0000
23.4300 621.0000 1.0000
23.4400 628.0000 1.0000
23.4500 628.0000 1.0000
23.4600 656.0000 1.0000
23.4700 635.0000 1.0000
23.4800 629.0000 1.0000
23.4900 614.0000 1.0000
23.5000 617.0000 1.0000
23.5100 607.0000 1.0000
23.5200 606.0000 1.0000
23.5300 624.0000 1.0000
23.5400 632.0000 1.0000
23.5500 646.0000 1.0000
23.5600 605.0000 1.0000
23.5700 632.0000 1.0000
23.5800 663.0000 1.0000
23.5900 586.0000 1.0000
23.6000 658.0000 1.0000
23.6100 621.0000 1.0000
23.6200 600.0000 1.0000
23.6300 675.0000 1.0000
23.6400 605.0000 1.0000
23.6500 642.0000 1.0000
23.6600 584.0000 1.0000
23.6700 617.0000 1.0000
23.6800 615.0000 1.0000
23.6900 627.0000 1.0000
23.7000 634.0000 1.0000
23.7100 637.0000 1.0000
23.7200 660.0000 1.0000
23.7300 624.0000 1.0000
23.7400 626.0000 1.0000
23.7500 635.0000 1.0000
23.7600 654.0000 1.0000
23.7700 661.0000 1.0000
23.7800 636.0000 1.0000
23.7900 624.0000 1.0000
23.8000 624.0000 1.0000
23.8100 609.0000 1.0000
23.8200 637.0000 1.0000
23.8300 591.0000 1.0000
23.8400 635.0000 1.0000
23.8500 618.0000 1.0000
23.8600 587.0000 1.0000
23.8700 626.0000 1.0000
23.8800 636.0000 1.0000
23.8900 621.0000 1.0000
23.9000 605.0000 1.0000
23.9100 635.0000 1.0000
23.9200 642.0000 1.0000
23.9300 646.0000 1.0000
23.9400 647.0000 1.0000
23.9500 637.0000 1.0000
23.9600 624.0000 1.0000
23.9700 648.0000 1.0000
23.9800 657.0000 1.0000
23.9900 604.0000 1.0000
24.0000 620.0000 1.0000
24.0100 632.0000 1.0000
24.0200 658.0000 1.0000
24.0300 681.0000 1.0000
24.0400 596.0000 1.0000
24.0500 614.0000 1.0000
24.0600 664.0000 1.0000
24.0700 587.0000 1.0000
24.0800 592.0000 1.0000
24.0900 607.0000 1.0000
24.1000 618.0000 1.0000
24.1100 632.0000 1.0000
24.1200 625.0000 1.0000
24.1300 628.0000 1.0000
24.1400 650.0000 1.0000
24.1500 628.0000 1.0000
24.1600 625.0000 1.0000
24.1700 635.0000 1.0000
24.1800 643.0000 1.0000
24.1900 647.0000 1.0000
24.2000 638.0000 1.0000
24.2100 596.0000 1.0000
24.2200 654.0000 1.0000
24.2300 653.0000 1.0000
24.2400 622.0000 1.0000
24.2500 627.0000 1.0000
24.2600 593.0000 1.0000
24.2700 654.0000 1.0000
24.2800 630.0000 1.0000
24.2900 628.0000 1.0000
24.3000 635.0000 1.0000
24.3100 631.0000 1.0000
24.3200 667.0000 1.0000
24.3300 609.0000 1.0000
24.3400 591.0000 1.0000
24.3500 634.0000 1.0000
24.3600 629.0000 1.0000
24.3700 644.0000 1.0000
24.3800 601.0000 1.0000
24.3900 621.0000 1.0000
24.4000 654.0000 1.0000
24.4100 627.0000 1.0000
24.4200 613.0000 1.0000
24.4300 611.0000 1.0000
24.4400 651.0000 1.0000
24.4500 619.0000 1.0000
24.4600 633.0000 1.0000
24.4700 647.0000 1.0000
24.4800 642.0000 1.0000
24.4900 649.0000 1.0000
24.5000 636.0000 1.0000
24.5100 669.0000 1.0000
24.5200 654.0000 1.0000
24.5300 656.0000 1.0000
24.5400 653.0000 1.0000
24.5500 606.0000 1.0000
24.5600 657.0000 1.0000
24.5700 615.0000 1.0000
24.5800 658.0000 1.0000
24.5900 645.0000 1.0000
24.6000 642.0000 1.0000
24.6100 656.0000 1.0000
24.6200 657.0000 1.0000
24.6300 645.0000 1.0000
24.6400 665.0000 1.0000
24.6500 653.0000 1.0000
24.6600 628.0000 1.0000
24.6700 633.0000 1.0000
24.6800 638.0000 1.0000
24.6900 672.0000 1.0000
24.7000 651.0000 1.0000
24.7100 609.0000 1.0000
24.7200 620.0000 1.0000
24.7300 641.0000 1.0000
24.7400 664.0000 1.0000
24.7500 640.0000 1.0000
24.7600 630.0000 1.0000
24.7700 632.0000 1.0000
24.7800 634.0000 1.0000
24.7900 689.0000 1.0000
24.8000 644.0000 1.0000
24.8100 634.0000 1.0000
24.8200 610.0000 1.0000
24.8300 638.0000 1.0000
24.8400 632.0000 1.0000
24.8500 645.0000 1.0000
24.8600 640.0000 1.0000
24.8700 672.0000 1.0000
24.8800 647.0000 1.0000
24.8900 609.0000 1.0000
24.9000 612.0000 1.0000
24.9100 623.0000 1.0000
24.9200 689.0000 1.0000
24.9300 642.0000 1.0000
24.9400 632.0000 1.0000
24.9500 666.0000 1.0000
24.9600 647.0000 1.0000
24.9700 708.0000 1.0000
24.9800 669.0000 1.0000
24.9900 639.0000 1.0000
25.0000 670.0000 1.0000
25.0100 649.0000 1.0000
25.0200 685.0000 1.0000
25.0300 657.0000 1.0000
25.0400 640.0000 1.0000
25.0500 644.0000 1.0000
25.0600 635.0000 1.0000
25.0700 623.0000 1.0000
25.0800 654.0000 1.0000
25.0900 622.0000 1.0000
25.1000 699.0000 1.0000
25.1100 608.0000 1.0000
25.1200 697.0000 1.0000
25.1300 649.0000 1.0000
25.1400 688.0000 1.0000
25.1500 665.0000 1.0000
25.1600 631.0000 1.0000
25.1700 636.0000 1.0000
25.1800 632.0000 1.0000
25.1900 683.0000 1.0000
25.2000 645.0000 1.0000
25.2100 640.0000 1.0000
25.2200 656.0000 1.0000
25.2300 670.0000 1.0000
25.2400 634.0000 1.0000
25.2500 641.0000 1.0000
25.2600 651.0000 1.0000
25.2700 626.0000 1.0000
25.2800 655.0000 1.0000
25.2900 676.0000 1.0000
25.3000 669.0000 1.0000
25.3100 663.0000 1.0000
25.3200 656.0000 1.0000
25.3300 627.0000 1.0000
25.3400 685.0000 1.0000
25.3500 667.0000 1.0000
25.3600 646.0000 1.0000
25.3700 624.0000 1.0000
25.3800 616.0000 1.0000
25.3900 624.0000 1.0000
25.4000 653.0000 1.0000
25.4100 640.0000 1.0000
25.4200 662.0000 1.0000
25.4300 624.0000 1.0000
25.4400 651.0000 1.0000
25.4500 673.0000 1.0000
25.4600 630.0000 1.0000
25.4700 619.0000 1.0000
25.4800 637.0000 1.0000
25.4900 626.0000 1.0000
25.5000 667.0000 1.0000
25.5100 595.0000 1.0000
25.5200 664.0000 1.0000
25.5300 619.0000 1.0000
25.5400 662.0000 1.0000
25.5500 639.0000 1.0000
25.5600 634.0000 1.0000
25.5700 647.0000 1.0000
25.5800 642.0000 1.0000
25.5900 632.0000 1.0000
25.6000 614.0000 1.0000
25.6100 632.0000 1.0000
25.6200 631.0000 1.0000
25.6300 623.0000 1.0000
25.6400 638.0000 1.0000
25.6500 613.0000 1.0000
25.6600 677.0000 1.0000
25.6700 633.0000 1.0000
25.6800 630.0000 1.0000
25.6900 623.0000 1.0000
25.7000 621.0000 1.0000
25.7100 645.0000 1.0000
25.7200 612.0000 1.0000
25.7300 664.0000 1.0000
25.7400 651.0000 1.0000
25.7500 657.0000 1.0000
25.7600 617.0000 1.0000
25.7700 647.0000 1.0000
25.7800 665.0000 1.0000
25.7900 651.0000 1.0000
25.8000 642.0000 1.0000
25.8100 611.0000 1.0000
25.8200 631.0000 1.0000
25.8300 654.0000 1.0000
25.8400 661.0000 1.0000
25.8500 636.0000 1.0000
25.8600 672.0000 1.0000
25.8700 568.0000 1.0000
25.8800 609.0000 1.0000
25.8900 649.0000 1.0000
25.9000 662.0000 1.0000
25.9100 678.0000 1.0000
25.9200 654.0000 1.0000
25.9300 646.0000 1.0000
25.9400 641.0000 1.0000
25.9500 633.0000 1.0000
25.9600 625.0000 1.0000
25.9700 602.0000 1.0000
25.9800 642.0000 1.0000
25.9900 676.0000 1.0000
26.0000 638.0000 1.0000
26.0100 634.0000 1.0000
26.0200 597.0000 1.0000
26.0300 659.0000 1.0000
26.0400 664.0000 1.0000
26.0500 655.0000 1.0000
26.0600 648.0000 1.0000
26.0700 652.0000 1.0000
26.0800 640.0000 1.0000
26.0900 607.0000 1.0000
26.1000 599.0000 1.0000
26.1100 582.0000 1.0000
26.1200 608.0000 1.0000
26.1300 620.0000 1.0000
26.1400 648.0000 1.0000
26.1500 652.0000 1.0000
26.1600 658.0000 1.0000
26.1700 642.0000 1.0000
26.1800 651.0000 1.0000
26.1900 675.0000 1.0000
26.2000 710.0000 1.0000
26.2100 637.0000 1.0000
26.2200 652.0000 1.0000
26.2300 643.0000 1.0000
26.2400 644.0000 1.0000
26.2500 645.0000 1.0000
26.2600 634.0000 1.0000
26.2700 669.0000 1.0000
26.2800 631.0000 1.0000
26.2900 677.0000 1.0000
26.3000 702.0000 1.0000
26.3100 686.0000 1.0000
26.3200 631.0000 1.0000
26.3300 618.0000 1.0000
26.3400 625.0000 1.0000
26.3500 606.0000 1.0000
26.3600 634.0000 1.0000
26.3700 695.0000 1.0000
26.3800 670.0000 1.0000
26.3900 675.0000 1.0000
26.4000 722.0000 1.0000
26.4100 679.0000 1.0000
26.4200 647.0000 1.0000
26.4300 649.0000 1.0000
26.4400 646.0000 1.0000
26.4500 661.0000 1.0000
26.4600 681.0000 1.0000
26.4700 696.0000 1.0000
26.4800 666.0000 1.0000
26.4900 675.0000 1.0000
26.5000 692.0000 1.0000
26.5100 644.0000 1.0000
26.5200 651.0000 1.0000
26.5300 675.0000 1.0000
26.5400 670.0000 1.0000
26.5500 700.0000 1.0000
26.5600 705.0000 1.0000
26.5700 685.0000 1.0000
26.5800 676.0000 1.0000
26.5900 671.0000 1.0000
26.6000 668.0000 1.0000
26.6100 638.0000 1.0000
26.6200 721.0000 1.0000
26.6300 709.0000 1.0000
26.6400 664.0000 1.0000
26.6500 706.0000 1.0000
26.6600 671.0000 1.0000
26.6700 742.0000 1.0000
26.6800 709.0000 1.0000
26.6900 710.0000 1.0000
26.7000 693.0000 1.0000
26.7100 688.0000 1.0000
26.7200 740.0000 1.0000
26.7300 756.0000 1.0000
26.7400 706.0000 1.0000
26.7500 694.0000 1.0000
26.7600 700.0000 1.0000
26.7700 710.0000 1.0000
26.7800 718.0000 1.0000
26.7900 723.0000 1.0000
26.8000 705.0000 1.0000
26.8100 670.0000 1.0000
26.8200 700.0000 1.0000
26.8300 726.0000 1.0000
26.8400 706.0000 1.0000
26.8500 721.0000 1.0000
26.8600 762.0000 1.0000
26.8700 731.0000 1.0000
26.8800 723.0000 1.0000
26.8900 705.0000 1.0000
26.9000 745.0000 1.0000
26.9100 756.0000 1.0000
26.9200 787.0000 1.0000
26.9300 764.0000 1.0000
26.9400 805.0000 1.0000
26.9500 730.0000 1.0000
26.9600 792.0000 1.0000
26.9700 774.0000 1.0000
26.9800 848.0000 1.0000
26.9900 859.0000 1.0000
27.0000 870.0000 1.0000
27.0100 813.0000 1.0000
27.0200 837.0000 1.0000
27.0300 892.0000 1.0000
27.0400 888.0000 1.0000
27.0500 907.0000 1.0000
27.0600 949.0000 1.0000
27.0700 986.0000 1.0000
27.0800 1021.0000 1.0000
27.0900 1038.0000 1.0000
27.1000 1095.0000 1.0000
27.1100 1086.0000 1.0000
27.1200 1113.0000 1.0000
27.1300 1117.0000 1.0000
27.1400 1204.0000 1.0000
27.1500 1326.0000 1.0000
27.1600 1354.0000 1.0000
27.1700 1408.0000 1.0000
27.1800 1409.0000 1.0000
27.1900 1545.0000 1.0000
27.2000 1601.0000 1.0000
27.2100 1651.0000 1.0000
27.2200 1767.0000 1.0000
27.2300 1854.0000 1.0000
27.2400 1930.0000 1.0000
27.2500 2121.0000 1.0000
27.2600 2172.0000 1.0000
27.2700 2135.0000 1.0000
27.2800 2243.0000 1.0000
27.2900 2402.0000 1.0000
27.3000 2435.0000 1.0000
27.3100 2388.0000 1.0000
27.3200 2364.0000 1.0000
27.3300 2427.0000 1.0000
27.3400 2314.0000 1.0000
27.3500 2211.0000 1.0000
27.3600 2127.0000 1.0000
27.3700 2116.0000 1.0000
27.3800 2020.0000 1.0000
27.3900 1932.0000 1.0000
27.4000 1809.0000 1.0000
27.4100 1737.0000 1.0000
27.4200 1700.0000 1.0000
27.4300 1623.0000 1.0000
27.4400 1478.0000 1.0000
27.4500 1420.0000 1.0000
27.4600 1371.0000 1.0000
27.4700 1294.0000 1.0000
27.4800 1232.0000 1.0000
27.4900 1175.0000 1.0000
27.5000 1174.0000 1.0000
27.5100 1108.0000 1.0000
27.5200 1060.0000 1.0000
27.5300 1057.0000 1.0000
27.5400 1009.0000 1.0000
27.5500 944.0000 1.0000
27.5600 948.0000 1.0000
27.5700 935.0000 1.0000
27.5800 923.0000 1.0000
27.5900 904.0000 1.0000
27.6000 850.0000 1.0000
27.6100 917.0000 1.0000
27.6200 875.0000 1.0000
27.6300 836.0000 1.0000
27.6400 847.0000 1.0000
27.6500 784.0000 1.0000
27.6600 779.0000 1.0000
27.6700 794.0000 1.0000
27.6800 757.0000 1.0000
27.6900 762.0000 1.0000
27.7000 774.0000 1.0000
27.7100 832.0000 1.0000
27.7200 736.0000 1.0000
27.7300 765.0000 1.0000
27.7400 756.0000 1.0000
27.7500 748.0000 1.0000
27.7600 745.0000 1.0000
27.7700 752.0000 1.0000
27.7800 739.0000 1.0000
27.7900 708.0000 1.0000
27.8000 678.0000 1.0000
27.8100 715.0000 1.0000
27.8200 676.0000 1.0000
27.8300 706.0000 1.0000
27.8400 702.0000 1.0000
27.8500 722.0000 1.0000
27.8600 727.0000 1.0000
27.8700 748.0000 1.0000
27.8800 693.0000 1.0000
27.8900 730.0000 1.0000
27.9000 682.0000 1.0000
27.9100 707.0000 1.0000
27.9200 666.0000 1.0000
27.9300 694.0000 1.0000
27.9400 704.0000 1.0000
27.9500 697.0000 1.0000
27.9600 673.0000 1.0000
27.9700 708.0000 1.0000
27.9800 713.0000 1.0000
27.9900 700.0000 1.0000
28.0000 711.0000 1.0000
28.0100 702.0000 1.0000
28.0200 666.0000 1.0000
28.0300 657.0000 1.0000
28.0400 659.0000 1.0000
28.0500 673.0000 1.0000
28.0600 687.0000 1.0000
28.0700 666.0000 1.0000
28.0800 709.0000 1.0000
28.0900 681.0000 1.0000
28.1000 649.0000 1.0000
28.1100 636.0000 1.0000
28.1200 648.0000 1.0000
28.1300 635.0000 1.0000
28.1400 701.0000 1.0000
28.1500 697.0000 1.0000
28.1600 634.0000 1.0000
28.1700 676.0000 1.0000
28.1800 629.0000 1.0000
28.1900 658.0000 1.0000
28.2000 629.0000 1.0000
28.2100 589.0000 1.0000
28.2200 644.0000 1.0000
28.2300 688.0000 1.0000
28.2400 635.0000 1.0000
28.2500 641.0000 1.0000
28.2600 629.0000 1.0000
28.2700 636.0000 1.0000
28.2800 667.0000 1.0000
28.2900 657.0000 1.0000
28.3000 673.0000 1.0000
28.3100 661.0000 1.0000
28.3200 648.0000 1.0000
28.3300 600.0000 1.0000
28.3400 620.0000 1.0000
28.3500 631.0000 1.0000
28.3600 638.0000 1.0000
28.3700 613.0000 1.0000
28.3800 630.0000 1.0000
28.3900 633.0000 1.0000
28.4000 675.0000 1.0000
28.4100 633.0000 1.0000
28.4200 633.0000 1.0000
28.4300 646.0000 1.0000
28.4400 615.0000 1.0000
28.4500 638.0000 1.0000
28.4600 662.0000 1.0000
28.4700 641.0000 1.0000
28.4800 639.0000 1.0000
28.4900 641.0000 1.0000
28.5000 632.0000 1.0000
28.5100 674.0000 1.0000
28.5200 671.0000 1.0000
28.5300 640.0000 1.0000
28.5400 661.0000 1.0000
28.5500 628.0000 1.0000
28.5600 655.0000 1.0000
28.5700 626.0000 1.0000
28.5800 645.0000 1.0000
28.5900 662.0000 1.0000
28.6000 645.0000 1.0000
28.6100 629.0000 1.0000
28.6200 623.0000 1.0000
28.6300 644.0000 1.0000
28.6400 640.0000 1.0000
28.6500 633.0000 1.0000
28.6600 648.0000 1.0000
28.6700 633.0000 1.0000
28.6800 647.0000 1.0000
28.6900 604.0000 1.0000
28.7000 628.0000 1.0000
28.7100 613.0000 1.0000
28.7200 635.0000 1.0000
28.7300 615.0000 1.0000
28.7400 647.0000 1.0000
28.7500 640.0000 1.0000
28.7600 652.0000 1.0000
28.7700 680.0000 1.0000
28.7800 623.0000 1.0000
28.7900 636.0000 1.0000
28.8000 629.0000 1.0000
28.8100 627.0000 1.0000
28.8200 647.0000 1.0000
28.8300 616.0000 1.0000
28.8400 649.0000 1.0000
28.8500 661.0000 1.0000
28.8600 598.0000 1.0000
28.8700 624.0000 1.0000
28.8800 664.0000 1.0000
28.8900 613.0000 1.0000
28.9000 620.0000 1.0000
28.9100 607.0000 1.0000
28.9200 600.0000 1.0000
28.9300 608.0000 1.0000
28.9400 642.0000 1.0000
28.9500 656.0000 1.0000
28.9600 660.0000 1.0000
28.9700 618.0000 1.0000
28.9800 636.0000 1.0000
28.9900 640.0000 1.0000
29.0000 609.0000 1.0000
29.0100 638.0000 1.0000
29.0200 623.0000 1.0000
29.0300 633.0000 1.0000
29.0400 667.0000 1.0000
29.0500 637.0000 1.0000
29.0600 605.0000 1.0000
29.0700 613.0000 1.0000
29.0800 653.0000 1.0000
29.0900 609.0000 1.0000
29.1000 589.0000 1.0000
29.1100 630.0000 1.0000
29.1200 630.0000 1.0000
29.1300 618.0000 1.0000
29.1400 653.0000 1.0000
29.1500 641.0000 1.0000
29.1600 609.0000 1.0000
29.1700 604.0000 1.0000
29.1800 645.0000 1.0000
29.1900 660.0000 1.0000
29.2000 598.0000 1.0000
29.2100 627.0000 1.0000
29.2200 590.0000 1.0000
29.2300 673.0000 1.0000
29.2400 570.0000 1.0000
29.2500 630.0000 1.0000
29.2600 622.0000 1.0000
29.2700 585.0000 1.0000
29.2800 570.0000 1.0000
29.2900 612.0000 1.0000
29.3000 625.0000 1.0000
29.3100 636.0000 1.0000
29.3200 654.0000 1.0000
29.3300 596.0000 1.0000
29.3400 645.0000 1.0000
29.3500 585.0000 1.0000
29.3600 619.0000 1.0000
29.3700 606.0000 1.0000
29.3800 622.0000 1.0000
29.3900 650.0000 1.0000
29.4000 634.0000 1.0000
29.4100 618.0000 1.0000
29.4200 599.0000 1.0000
29.4300 611.0000 1.0000
29.4400 643.0000 1.0000
29.4500 613.0000 1.0000
29.4600 602.0000 1.0000
29.4700 617.0000 1.0000
29.4800 599.0000 1.0000
29.4900 624.0000 1.0000
29.5000 600.0000 1.0000
29.5100 640.0000 1.0000
29.5200 627.0000 1.0000
29.5300 616.0000 1.0000
29.5400 614.0000 1.0000
29.5500 604.0000 1.0000
29.5600 622.0000 1.0000
29.5700 594.0000 1.0000
29.5800 601.0000 1.0000
29.5900 602.0000 1.0000
29.6000 624.0000 1.0000
29.6100 623.0000 1.0000
29.6200 633.0000 1.0000
29.6300 635.0000 1.0000
29.6400 626.0000 1.0000
29.6500 620.0000 1.0000
29.6600 624.0000 1.0000
29.6700 630.0000 1.0000
29.6800 631.0000 1.0000
29.6900 588.0000 1.0000
29.7000 607.0000 1.0000
29.7100 621.0000 1.0000
29.7200 626.0000 1.0000
29.7300 629.0000 1.0000
29.7400 639.0000 1.0000
29.7500 633.0000 1.0000
29.7600 603.0000 1.0000
29.7700 590.0000 1.0000
29.7800 604.0000 1.0000
29.7900 604.0000 1.0000
29.8000 596.0000 1.0000
29.8100 557.0000 1.0000
29.8200 593.0000 1.0000
29.8300 585.0000 1.0000
29.8400 585.0000 1.0000
29.8500 595.0000 1.0000
29.8600 595.0000 1.0000
29.8700 625.0000 1.0000
29.8800 636.0000 1.0000
29.8900 601.0000 1.0000
29.9000 627.0000 1.0000
29.9100 578.0000 1.0000
29.9200 633.0000 1.0000
29.9300 648.0000 1.0000
29.9400 608.0000 1.0000
29.9500 594.0000 1.0000
29.9600 608.0000 1.0000
29.9700 657.0000 1.0000
29.9800 621.0000 1.0000
29.9900 618.0000 1.0000
30.0000 612.0000 1.0000
30.0100 638.0000 1.0000
30.0200 588.0000 1.0000
30.0300 611.0000 1.0000
30.0400 589.0000 1.0000
30.0500 608.0000 1.0000
30.0600 570.0000 1.0000
30.0700 578.0000 1.0000
30.0800 620.0000 1.0000
30.0900 625.0000 1.0000
30.1000 589.0000 1.0000
30.1100 600.0000 1.0000
30.1200 626.0000 1.0000
30.1300 643.0000 1.0000
30.1400 610.0000 1.0000
30.1500 582.0000 1.0000
30.1600 603.0000 1.0000
30.1700 588.0000 1.0000
30.1800 586.0000 1.0000
30.1900 586.0000 1.0000
30.2000 585.0000 1.0000
30.2100 579.0000 1.0000
30.2200 539.0000 1.0000
30.2300 584.0000 1.0000
30.2400 588.0000 1.0000
30.2500 599.0000 1.0000
30.2600 619.0000 1.0000
30.2700 629.0000 1.0000
30.2800 608.0000 1.0000
30.2900 577.0000 1.0000
30.3000 620.0000 1.0000
30.3100 597.0000 1.0000
30.3200 636.0000 1.0000
30.3300 590.0000 1.0000
30.3400 574.0000 1.0000
30.3500 595.0000 1.0000
30.3600 580.0000 1.0000
30.3700 588.0000 1.0000
30.3800 558.0000 1.0000
30.3900 602.0000 1.0000
30.4000 600.0000 1.0000
30.4100 586.0000 1.0000
30.4200 583.0000 1.0000
30.4300 616.0000 1.0000
30.4400 636.0000 1.0000
30.4500 595.0000 1.0000
30.4600 595.0000 1.0000
30.4700 595.0000 1.0000
30.4800 586.0000 1.0000
30.4900 598.0000 1.0000
30.5000 594.0000 1.0000
30.5100 565.0000 1.0000
30.5200 596.0000 1.0000
30.5300 542.0000 1.0000
30.5400 561.0000 1.0000
30.5500 580.0000 1.0000
30.5600 596.0000 1.0000
30.5700 627.0000 1.0000
30.5800 607.0000 1.0000
30.5900 608.0000 1.0000
30.6000 589.0000 1.0000
30.6100 592.0000 1.0000
30.6200 583.0000 1.0000
30.6300 582.0000 1.0000
30.6400 592.0000 1.0000
30.6500 582.0000 1.0000
30.6600 577.0000 1.0000
30.6700 595.0000 1.0000
30.6800 571.0000 1.0000
30.6900 595.0000 1.0000
30.7000 628.0000 1.0000
30.7100 599.0000 1.0000
30.7200 624.0000 1.0000
30.7300 560.0000 1.0000
30.7400 595.0000 1.0000
30.7500 588.0000 1.0000
30.7600 582.0000 1.0000
30.7700 548.0000 1.0000
30.7800 602.0000 1.0000
30.7900 616.0000 1.0000
30.8000 573.0000 1.0000
30.8100 591.0000 1.0000
30.8200 568.0000 1.0000
30.8300 600.0000 1.0000
30.8400 570.0000 1.0000
30.8500 604.0000 1.0000
30.8600 605.0000 1.0000
30.8700 585.0000 1.0000
30.8800 572.0000 1.0000
30.8900 585.0000 1.0000
30.9000 596.0000 1.0000
30.9100 592.0000 1.0000
30.9200 602.0000 1.0000
30.9300 595.0000 1.0000
30.9400 580.0000 1.0000
30.9500 583.0000 1.0000
30.9600 561.0000 1.0000
30.9700 577.0000 1.0000
30.9800 628.0000 1.0000
30.9900 610.0000 1.0000
31.0000 607.0000 1.0000
31.0100 584.0000 1.0000
31.0200 558.0000 1.0000
31.0300 533.0000 1.0000
31.0400 589.0000 1.0000
31.0500 615.0000 1.0000
31.0600 586.0000 1.0000
31.0700 582.0000 1.0000
31.0800 595.0000 1.0000
31.0900 569.0000 1.0000
31.1000 610.0000 1.0000
31.1100 587.0000 1.0000
31.1200 592.0000 1.0000
31.1300 579.0000 1.0000
31.1400 600.0000 1.0000
31.1500 582.0000 1.0000
31.1600 596.0000 1.0000
31.1700 590.0000 1.0000
31.1800 626.0000 1.0000
31.1900 605.0000 1.0000
31.2000 542.0000 1.0000
31.2100 569.0000 1.0000
31.2200 590.0000 1.0000
31.2300 579.0000 1.0000
31.2400 612.0000 1.0000
31.2500 573.0000 1.0000
31.2600 571.0000 1.0000
31.2700 564.0000 1.0000
31.2800 558.0000 1.0000
31.2900 576.0000 1.0000
31.3000 558.0000 1.0000
31.3100 571.0000 1.0000
31.3200 563.0000 1.0000
31.3300 566.0000 1.0000
31.3400 574.0000 1.0000
31.3500 586.0000 1.0000
31.3600 598.0000 1.0000
31.3700 602.0000 1.0000
31.3800 596.0000 1.0000
31.3900 573.0000 1.0000
31.4000 570.0000 1.0000
31.4100 598.0000 1.0000
31.4200 562.0000 1.0000
31.4300 581.0000 1.0000
31.4400 575.0000 1.0000
31.4500 574.0000 1.0000
31.4600 554.0000 1.0000
31.4700 584.0000 1.0000
31.4800 546.0000 1.0000
31.4900 553.0000 1.0000
31.5000 561.0000 1.0000
31.5100 628.0000 1.0000
31.5200 557.0000 1.0000
31.5300 546.0000 1.0000
31.5400 556.0000 1.0000
31.5500 549.0000 1.0000
31.5600 606.0000 1.0000
31.5700 563.0000 1.0000
31.5800 568.0000 1.0000
31.5900 605.0000 1.0000
31.6000 554.0000 1.0000
31.6100 593.0000 1.0000
31.6200 572.0000 1.0000
31.6300 627.0000 1.0000
31.6400 563.0000 1.0000
31.6500 571.0000 1.0000
31.6600 584.0000 1.0000
31.6700 571.0000 1.0000
31.6800 579.0000 1.0000
31.6900 578.0000 1.0000
31.7000 567.0000 1.0000
31.7100 582.0000 1.0000
31.7200 553.0000 1.0000
31.7300 596.0000 1.0000
31.7400 564.0000 1.0000
31.7500 575.0000 1.0000
31.7600 614.0000 1.0000
31.7700 625.0000 1.0000
31.7800 601.0000 1.0000
31.7900 573.0000 1.0000
31.8000 573.0000 1.0000
31.8100 602.0000 1.0000
31.8200 609.0000 1.0000
31.8300 557.0000 1.0000
31.8400 568.0000 1.0000
31.8500 559.0000 1.0000
31.8600 559.0000 1.0000
31.8700 573.0000 1.0000
31.8800 585.0000 1.0000
31.8900 539.0000 1.0000
31.9000 577.0000 1.0000
31.9100 586.0000 1.0000
31.9200 587.0000 1.0000
31.9300 590.0000 1.0000
31.9400 578.0000 1.0000
31.9500 602.0000 1.0000
31.9600 573.0000 1.0000
31.9700 571.0000 1.0000
31.9800 581.0000 1.0000
31.9900 575.0000 1.0000
32.0000 562.0000 1.0000
32.0100 579.0000 1.0000
32.0200 581.0000 1.0000
32.0300 563.0000 1.0000
32.0400 598.0000 1.0000
32.0500 585.0000 1.0000
32.0600 581.0000 1.0000
32.0700 575.0000 1.0000
32.0800 564.0000 1.0000
32.0900 596.0000 1.0000
32.1000 568.0000 1.0000
32.1100 577.0000 1.0000
32.1200 586.0000 1.0000
32.1300 565.0000 1.0000
32.1400 565.0000 1.0000
32.1500 566.0000 1.0000
32.1600 549.0000 1.0000
32.1700 611.0000 1.0000
32.1800 561.0000 1.0000
32.1900 570.0000 1.0000
32.2000 589.0000 1.0000
32.2100 559.0000 1.0000
32.2200 571.0000 1.0000
32.2300 581.0000 1.0000
32.2400 577.0000 1.0000
32.2500 575.0000 1.0000
32.2600 602.0000 1.0000
32.2700 564.0000 1.0000
32.2800 572.0000 1.0000
32.2900 603.0000 1.0000
32.3000 569.0000 1.0000
32.3100 583.0000 1.0000
32.3200 615.0000 1.0000
32.3300 571.0000 1.0000
32.3400 567.0000 1.0000
32.3500 514.0000 1.0000
32.3600 580.0000 1.0000
32.3700 575.0000 1.0000
32.3800 552.0000 1.0000
32.3900 527.0000 1.0000
32.4000 530.0000 1.0000
32.4100 547.0000 1.0000
32.4200 516.0000 1.0000
32.4300 554.0000 1.0000
32.4400 560.0000 1.0000
32.4500 552.0000 1.0000
32.4600 546.0000 1.0000
32.4700 578.0000 1.0000
32.4800 566.0000 1.0000
32.4900 564.0000 1.0000
32.5000 586.0000 1.0000
32.5100 548.0000 1.0000
32.5200 557.0000 1.0000
32.5300 561.0000 1.0000
32.5400 560.0000 1.0000
32.5500 580.0000 1.0000
32.5600 559.0000 1.0000
32.5700 565.0000 1.0000
32.5800 533.0000 1.0000
32.5900 541.0000 1.0000
32.6000 537.0000 1.0000
32.6100 560.0000 1.0000
32.6200 572.0000 1.0000
32.6300 538.0000 1.0000
32.6400 535.0000 1.0000
32.6500 521.0000 1.0000
32.6600 527.0000 1.0000
32.6700 534.0000 1.0000
32.6800 584.0000 1.0000
32.6900 558.0000 1.0000
32.7000 548.0000 1.0000
32.7100 528.0000 1.0000
32.7200 527.0000 1.0000
32.7300 550.0000 1.0000
32.7400 539.0000 1.0000
32.7500 573.0000 1.0000
32.7600 568.0000 1.0000
32.7700 540.0000 1.0000
32.7800 554.0000 1.0000
32.7900 548.0000 1.0000
32.8000 524.0000 1.0000
32.8100 533.0000 1.0000
32.8200 550.0000 1.0000
32.8300 534.0000 1.0000
32.8400 561.0000 1.0000
32.8500 538.0000 1.0000
32.8600 543.0000 1.0000
32.8700 531.0000 1.0000
32.8800 534.0000 1.0000
32.8900 575.0000 1.0000
32.9000 532.0000 1.0000
32.9100 534.0000 1.0000
32.9200 565.0000 1.0000
32.9300 580.0000 1.0000
32.9400 525.0000 1.0000
32.9500 571.0000 1.0000
32.9600 526.0000 1.0000
32.9700 551.0000 1.0000
32.9800 565.0000 1.0000
32.9900 535.0000 1.0000
33.0000 564.0000 1.0000
33.0100 537.0000 1.0000
33.0200 551.0000 1.0000
33.0300 552.0000 1.0000
33.0400 561.0000 1.0000
33.0500 539.0000 1.0000
33.0600 508.0000 1.0000
33.0700 547.0000 1.0000
33.0800 547.0000 1.0000
33.0900 545.0000 1.0000
33.1000 569.0000 1.0000
33.1100 526.0000 1.0000
33.1200 571.0000 1.0000
33.1300 553.0000 1.0000
33.1400 504.0000 1.0000
33.1500 523.0000 1.0000
33.1600 548.0000 1.0000
33.1700 549.0000 1.0000
33.1800 568.0000 1.0000
33.1900 548.0000 1.0000
33.2000 545.0000 1.0000
33.2100 548.0000 1.0000
33.2200 518.0000 1.0000
33.2300 554.0000 1.0000
33.2400 575.0000 1.0000
33.2500 567.0000 1.0000
33.2600 556.0000 1.0000
33.2700 555.0000 1.0000
33.2800 518.0000 1.0000
33.2900 558.0000 1.0000
33.3000 544.0000 1.0000
33.3100 574.0000 1.0000
33.3200 559.0000 1.0000
33.3300 515.0000 1.0000
33.3400 524.0000 1.0000
33.3500 549.0000 1.0000
33.3600 544.0000 1.0000
33.3700 565.0000 1.0000
33.3800 557.0000 1.0000
33.3900 528.0000 1.0000
33.4000 544.0000 1.0000
33.4100 558.0000 1.0000
33.4200 514.0000 1.0000
33.4300 532.0000 1.0000
33.4400 515.0000 1.0000
33.4500 567.0000 1.0000
33.4600 582.0000 1.0000
33.4700 577.0000 1.0000
33.4800 529.0000 1.0000
33.4900 547.0000 1.0000
33.5000 528.0000 1.0000
33.5100 522.0000 1.0000
33.5200 561.0000 1.0000
33.5300 583.0000 1.0000
33.5400 541.0000 1.0000
33.5500 537.0000 1.0000
33.5600 532.0000 1.0000
33.5700 536.0000 1.0000
33.5800 549.0000 1.0000
33.5900 539.0000 1.0000
33.6000 540.0000 1.0000
33.6100 537.0000 1.0000
33.6200 560.0000 1.0000
33.6300 519.0000 1.0000
33.6400 575.0000 1.0000
33.6500 531.0000 1.0000
33.6600 567.0000 1.0000
33.6700 517.0000 1.0000
33.6800 563.0000 1.0000
33.6900 537.0000 1.0000
33.7000 533.0000 1.0000
33.7100 565.0000 1.0000
33.7200 555.0000 1.0000
33.7300 510.0000 1.0000
33.7400 561.0000 1.0000
33.7500 540.0000 1.0000
33.7600 543.0000 1.0000
33.7700 521.0000 1.0000
33.7800 603.0000 1.0000
33.7900 576.0000 1.0000
33.8000 604.0000 1.0000
33.8100 577.0000 1.0000
33.8200 555.0000 1.0000
33.8300 579.0000 1.0000
33.8400 586.0000 1.0000
33.8500 589.0000 1.0000
33.8600 611.0000 1.0000
33.8700 550.0000 1.0000
33.8800 582.0000 1.0000
33.8900 603.0000 1.0000
33.9000 609.0000 1.0000
33.9100 617.0000 1.0000
33.9200 625.0000 1.0000
33.9300 601.0000 1.0000
33.9400 631.0000 1.0000
33.9500 662.0000 1.0000
33.9600 596.0000 1.0000
33.9700 606.0000 1.0000
33.9800 606.0000 1.0000
33.9900 602.0000 1.0000
34.0000 584.0000 1.0000
34.0100 597.0000 1.0000
34.0200 619.0000 1.0000
34.0300 621.0000 1.0000
34.0400 599.0000 1.0000
34.0500 575.0000 1.0000
34.0600 614.0000 1.0000
34.0700 591.0000 1.0000
34.0800 594.0000 1.0000
34.0900 570.0000 1.0000
34.1000 582.0000 1.0000
34.1100 626.0000 1.0000
34.1200 636.0000 1.0000
34.1300 604.0000 1.0000
34.1400 589.0000 1.0000
34.1500 580.0000 1.0000
34.1600 581.0000 1.0000
34.1700 594.0000 1.0000
34.1800 634.0000 1.0000
34.1900 637.0000 1.0000
34.2000 635.0000 1.0000
34.2100 618.0000 1.0000
34.2200 647.0000 1.0000
34.2300 648.0000 1.0000
34.2400 668.0000 1.0000
34.2500 682.0000 1.0000
34.2600 701.0000 1.0000
34.2700 661.0000 1.0000
34.2800 701.0000 1.0000
34.2900 693.0000 1.0000
34.3000 719.0000 1.0000
34.3100 776.0000 1.0000
34.3200 797.0000 1.0000
34.3300 755.0000 1.0000
34.3400 799.0000 1.0000
34.3500 838.0000 1.0000
34.3600 904.0000 1.0000
34.3700 924.0000 1.0000
34.3800 984.0000 1.0000
34.3900 973.0000 1.0000
34.4000 1009.0000 1.0000
34.4100 1026.0000 1.0000
34.4200 1081.0000 1.0000
34.4300 1116.0000 1.0000
34.4400 1138.0000 1.0000
34.4500 1320.0000 1.0000
34.4600 1326.0000 1.0000
34.4700 1307.0000 1.0000
34.4800 1369.0000 1.0000
34.4900 1415.0000 1.0000
34.5000 1394.0000 1.0000
34.5100 1438.0000 1.0000
34.5200 1491.0000 1.0000
34.5300 1394.0000 1.0000
34.5400 1304.0000 1.0000
34.5500 1301.0000 1.0000
34.5600 1242.0000 1.0000
34.5700 1210.0000 1.0000
34.5800 1203.0000 1.0000
34.5900 1156.0000 1.0000
34.6000 1103.0000 1.0000
34.6100 1106.0000 1.0000
34.6200 980.0000 1.0000
34.6300 990.0000 1.0000
34.6400 911.0000 1.0000
34.6500 872.0000 1.0000
34.6600 882.0000 1.0000
34.6700 823.0000 1.0000
34.6800 813.0000 1.0000
34.6900 817.0000 1.0000
34.7000 814.0000 1.0000
34.7100 784.0000 1.0000
34.7200 750.0000 1.0000
34.7300 691.0000 1.0000
34.7400 699.0000 1.0000
34.7500 707.0000 1.0000
34.7600 664.0000 1.0000
34.7700 674.0000 1.0000
34.7800 670.0000 1.0000
34.7900 611.0000 1.0000
34.8000 647.0000 1.0000
34.8100 609.0000 1.0000
34.8200 592.0000 1.0000
34.8300 655.0000 1.0000
34.8400 606.0000 1.0000
34.8500 616.0000 1.0000
34.8600 553.0000 1.0000
34.8700 602.0000 1.0000
34.8800 604.0000 1.0000
34.8900 584.0000 1.0000
34.9000 567.0000 1.0000
34.9100 556.0000 1.0000
34.9200 526.0000 1.0000
34.9300 558.0000 1.0000
34.9400 527.0000 1.0000
34.9500 518.0000 1.0000
34.9600 582.0000 1.0000
34.9700 578.0000 1.0000
34.9800 547.0000 1.0000
34.9900 522.0000 1.0000
35.0000 522.0000 1.0000
35.0100 573.0000 1.0000
35.0200 536.0000 1.0000
35.0300 530.0000 1.0000
35.0400 549.0000 1.0000
35.0500 499.0000 1.0000
35.0600 535.0000 1.0000
35.0700 578.0000 1.0000
35.0800 537.0000 1.0000
35.0900 545.0000 1.0000
35.1000 508.0000 1.0000
35.1100 533.0000 1.0000
35.1200 505.0000 1.0000
35.1300 520.0000 1.0000
35.1400 469.0000 1.0000
35.1500 473.0000 1.0000
35.1600 505.0000 1.0000
35.1700 491.0000 1.0000
35.1800 538.0000 1.0000
35.1900 520.0000 1.0000
35.2000 513.0000 1.0000
35.2100 514.0000 1.0000
35.2200 462.0000 1.0000
35.2300 513.0000 1.0000
35.2400 489.0000 1.0000
35.2500 484.0000 1.0000
35.2600 521.0000 1.0000
35.2700 505.0000 1.0000
35.2800 456.0000 1.0000
35.2900 502.0000 1.0000
35.3000 475.0000 1.0000
35.3100 471.0000 1.0000
35.3200 499.0000 1.0000
35.3300 502.0000 1.0000
35.3400 491.0000 1.0000
35.3500 456.0000 1.0000
35.3600 492.0000 1.0000
35.3700 469.0000 1.0000
35.3800 473.0000 1.0000
35.3900 484.0000 1.0000
35.4000 484.0000 1.0000
35.4100 482.0000 1.0000
35.4200 466.0000 1.0000
35.4300 454.0000 1.0000
35.4400 532.0000 1.0000
35.4500 516.0000 1.0000
35.4600 508.0000 1.0000
35.4700 488.0000 1.0000
35.4800 436.0000 1.0000
35.4900 468.0000 1.0000
35.5000 460.0000 1.0000
35.5100 506.0000 1.0000
35.5200 467.0000 1.0000
35.5300 470.0000 1.0000
35.5400 485.0000 1.0000
35.5500 450.0000 1.0000
35.5600 444.0000 1.0000
35.5700 472.0000 1.0000
35.5800 462.0000 1.0000
35.5900 506.0000 1.0000
35.6000 474.0000 1.0000
35.6100 460.0000 1.0000
35.6200 479.0000 1.0000
35.6300 458.0000 1.0000
35.6400 474.0000 1.0000
35.6500 445.0000 1.0000
35.6600 511.0000 1.0000
35.6700 494.0000 1.0000
35.6800 484.0000 1.0000
35.6900 462.0000 1.0000
35.7000 482.0000 1.0000
35.7100 497.0000 1.0000
35.7200 497.0000 1.0000
35.7300 459.0000 1.0000
35.7400 437.0000 1.0000
35.7500 480.0000 1.0000
35.7600 471.0000 1.0000
35.7700 483.0000 1.0000
35.7800 462.0000 1.0000
35.7900 498.0000 1.0000
35.8000 470.0000 1.0000
35.8100 444.0000 1.0000
35.8200 462.0000 1.0000
35.8300 481.0000 1.0000
35.8400 485.0000 1.0000
35.8500 476.0000 1.0000
35.8600 473.0000 1.0000
35.8700 466.0000 1.0000
35.8800 494.0000 1.0000
35.8900 474.0000 1.0000
35.9000 459.0000 1.0000
35.9100 460.0000 1.0000
35.9200 469.0000 1.0000
35.9300 466.0000 1.0000
35.9400 478.0000 1.0000
35.9500 483.0000 1.0000
35.9600 496.0000 1.0000
35.9700 480.0000 1.0000
35.9800 473.0000 1.0000
35.9900 480.0000 1.0000
36.0000 455.0000 1.0000
36.0100 486.0000 1.0000
36.0200 472.0000 1.0000
36.0300 477.0000 1.0000
36.0400 469.0000 1.0000
36.0500 495.0000 1.0000
36.0600 523.0000 1.0000
36.0700 525.0000 1.0000
36.0800 511.0000 1.0000
36.0900 505.0000 1.0000
36.1000 466.0000 1.0000
36.1100 491.0000 1.0000
36.1200 499.0000 1.0000
36.1300 528.0000 1.0000
36.1400 505.0000 1.0000
36.1500 501.0000 1.0000
36.1600 516.0000 1.0000
36.1700 529.0000 1.0000
36.1800 544.0000 1.0000
36.1900 520.0000 1.0000
36.2000 550.0000 1.0000
36.2100 577.0000 1.0000
36.2200 557.0000 1.0000
36.2300 586.0000 1.0000
36.2400 594.0000 1.0000
36.2500 578.0000 1.0000
36.2600 580.0000 1.0000
36.2700 572.0000 1.0000
36.2800 566.0000 1.0000
36.2900 643.0000 1.0000
36.3000 646.0000 1.0000
36.3100 640.0000 1.0000
36.3200 686.0000 1.0000
36.3300 688.0000 1.0000
36.3400 718.0000 1.0000
36.3500 718.0000 1.0000
36.3600 754.0000 1.0000
36.3700 739.0000 1.0000
36.3800 746.0000 1.0000
36.3900 811.0000 1.0000
36.4000 766.0000 1.0000
36.4100 811.0000 1.0000
36.4200 811.0000 1.0000
36.4300 816.0000 1.0000
36.4400 799.0000 1.0000
36.4500 797.0000 1.0000
36.4600 808.0000 1.0000
36.4700 772.0000 1.0000
36.4800 771.0000 1.0000
36.4900 766.0000 1.0000
36.5000 752.0000 1.0000
36.5100 742.0000 1.0000
36.5200 692.0000 1.0000
36.5300 659.0000 1.0000
36.5400 640.0000 1.0000
36.5500 680.0000 1.0000
36.5600 657.0000 1.0000
36.5700 625.0000 1.0000
36.5800 621.0000 1.0000
36.5900 595.0000 1.0000
36.6000 535.0000 1.0000
36.6100 545.0000 1.0000
36.6200 599.0000 1.0000
36.6300 582.0000 1.0000
36.6400 526.0000 1.0000
36.6500 508.0000 1.0000
36.6600 487.0000 1.0000
36.6700 482.0000 1.0000
36.6800 474.0000 1.0000
36.6900 514.0000 1.0000
36.7000 488.0000 1.0000
36.7100 492.0000 1.0000
36.7200 505.0000 1.0000
36.7300 466.0000 1.0000
36.7400 477.0000 1.0000
36.7500 433.0000 1.0000
36.7600 469.0000 1.0000
36.7700 451.0000 1.0000
36.7800 447.0000 1.0000
36.7900 461.0000 1.0000
36.8000 425.0000 1.0000
36.8100 445.0000 1.0000
36.8200 446.0000 1.0000
36.8300 438.0000 1.0000
36.8400 431.0000 1.0000
36.8500 455.0000 1.0000
36.8600 443.0000 1.0000
36.8700 452.0000 1.0000
36.8800 449.0000 1.0000
36.8900 415.0000 1.0000
36.9000 436.0000 1.0000
36.9100 483.0000 1.0000
36.9200 418.0000 1.0000
36.9300 451.0000 1.0000
36.9400 391.0000 1.0000
36.9500 429.0000 1.0000
36.9600 419.0000 1.0000
36.9700 467.0000 1.0000
36.9800 450.0000 1.0000
36.9900 456.0000 1.0000
37.0000 406.0000 1.0000
37.0100 422.0000 1.0000
37.0200 439.0000 1.0000
37.0300 414.0000 1.0000
37.0400 424.0000 1.0000
37.0500 421.0000 1.0000
37.0600 417.0000 1.0000
37.0700 438.0000 1.0000
37.0800 443.0000 1.0000
37.0900 420.0000 1.0000
37.1000 448.0000 1.0000
37.1100 401.0000 1.0000
37.1200 445.0000 1.0000
37.1300 405.0000 1.0000
37.1400 439.0000 1.0000
37.1500 398.0000 1.0000
37.1600 408.0000 1.0000
37.1700 437.0000 1.0000
37.1800 441.0000 1.0000
37.1900 436.0000 1.0000
37.2000 450.0000 1.0000
37.2100 445.0000 1.0000
37.2200 454.0000 1.0000
37.2300 440.0000 1.0000
37.2400 369.0000 1.0000
37.2500 456.0000 1.0000
37.2600 423.0000 1.0000
37.2700 431.0000 1.0000
37.2800 465.0000 1.0000
37.2900 438.0000 1.0000
37.3000 430.0000 1.0000
37.3100 424.0000 1.0000
37.3200 441.0000 1.0000
37.3300 415.0000 1.0000
37.3400 412.0000 1.0000
37.3500 437.0000 1.0000
37.3600 444.0000 1.0000
37.3700 430.0000 1.0000
37.3800 443.0000 1.0000
37.3900 441.0000 1.0000
37.4000 396.0000 1.0000
37.4100 453.0000 1.0000
37.4200 430.0000 1.0000
37.4300 430.0000 1.0000
37.4400 438.0000 1.0000
37.4500 446.0000 1.0000
37.4600 426.0000 1.0000
37.4700 417.0000 1.0000
37.4800 438.0000 1.0000
37.4900 451.0000 1.0000
37.5000 407.0000 1.0000
37.5100 415.0000 1.0000
37.5200 433.0000 1.0000
37.5300 465.0000 1.0000
37.5400 414.0000 1.0000
37.5500 433.0000 1.0000
37.5600 380.0000 1.0000
37.5700 433.0000 1.0000
37.5800 438.0000 1.0000
37.5900 442.0000 1.0000
37.6000 422.0000 1.0000
37.6100 420.0000 1.0000
37.6200 416.0000 1.0000
37.6300 443.0000 1.0000
37.6400 435.0000 1.0000
37.6500 412.0000 1.0000
37.6600 426.0000 1.0000
37.6700 445.0000 1.0000
37.6800 415.0000 1.0000
37.6900 435.0000 1.0000
37.7000 446.0000 1.0000
37.7100 450.0000 1.0000
37.7200 421.0000 1.0000
37.7300 431.0000 1.0000
37.7400 460.0000 1.0000
37.7500 444.0000 1.0000
37.7600 435.0000 1.0000
37.7700 409.0000 1.0000
37.7800 440.0000 1.0000
37.7900 441.0000 1.0000
37.8000 437.0000 1.0000
37.8100 471.0000 1.0000
37.8200 425.0000 1.0000
37.8300 444.0000 1.0000
37.8400 431.0000 1.0000
37.8500 440.0000 1.0000
37.8600 442.0000 1.0000
37.8700 451.0000 1.0000
37.8800 431.0000 1.0000
37.8900 454.0000 1.0000
37.9000 412.0000 1.0000
37.9100 444.0000 1.0000
37.9200 424.0000 1.0000
37.9300 438.0000 1.0000
37.9400 410.0000 1.0000
37.9500 431.0000 1.0000
37.9600 501.0000 1.0000
37.9700 481.0000 1.0000
37.9800 486.0000 1.0000
37.9900 455.0000 1.0000
38.0000 479.0000 1.0000
38.0100 473.0000 1.0000
38.0200 438.0000 1.0000
38.0300 435.0000 1.0000
38.0400 474.0000 1.0000
38.0500 484.0000 1.0000
38.0600 466.0000 1.0000
38.0700 463.0000 1.0000
38.0800 493.0000 1.0000
38.0900 506.0000 1.0000
38.1000 492.0000 1.0000
38.1100 492.0000 1.0000
38.1200 492.0000 1.0000
38.1300 495.0000 1.0000
38.1400 519.0000 1.0000
38.1500 532.0000 1.0000
38.1600 538.0000 1.0000
38.1700 528.0000 1.0000
38.1800 523.0000 1.0000
38.1900 572.0000 1.0000
38.2000 559.0000 1.0000
38.2100 563.0000 1.0000
38.2200 595.0000 1.0000
38.2300 627.0000 1.0000
38.2400 637.0000 1.0000
38.2500 570.0000 1.0000
38.2600 673.0000 1.0000
38.2700 675.0000 1.0000
38.2800 678.0000 1.0000
38.2900 712.0000 1.0000
38.3000 747.0000 1.0000
38.3100 777.0000 1.0000
38.3200 801.0000 1.0000
38.3300 853.0000 1.0000
38.3400 845.0000 1.0000
38.3500 926.0000 1.0000
38.3600 999.0000 1.0000
38.3700 1022.0000 1.0000
38.3800 1075.0000 1.0000
38.3900 1119.0000 1.0000
38.4000 1263.0000 1.0000
38.4100 1323.0000 1.0000
38.4200 1425.0000 1.0000
38.4300 1492.0000 1.0000
38.4400 1610.0000 1.0000
38.4500 1726.0000 1.0000
38.4600 1790.0000 1.0000
38.4700 1891.0000 1.0000
38.4800 2011.0000 1.0000
38.4900 2106.0000 1.0000
38.5000 2239.0000 1.0000
38.5100 2392.0000 1.0000
38.5200 2322.0000 1.0000
38.5300 2384.0000 1.0000
38.5400 2431.0000 1.0000
38.5500 2465.0000 1.0000
38.5600 2448.0000 1.0000
38.5700 2408.0000 1.0000
38.5800 2375.0000 1.0000
38.5900 2258.0000 1.0000
38.6000 2235.0000 1.0000
38.6100 2105.0000 1.0000
38.6200 2057.0000 1.0000
38.6300 1986.0000 1.0000
38.6400 1892.0000 1.0000
38.6500 1830.0000 1.0000
38.6600 1787.0000 1.0000
38.6700 1604.0000 1.0000
38.6800 1547.0000 1.0000
38.6900 1464.0000 1.0000
38.7000 1354.0000 1.0000
38.7100 1255.0000 1.0000
38.7200 1205.0000 1.0000
38.7300 1102.0000 1.0000
38.7400 1042.0000 1.0000
38.7500 975.0000 1.0000
38.7600 913.0000 1.0000
38.7700 885.0000 1.0000
38.7800 799.0000 1.0000
38.7900 775.0000 1.0000
38.8000 718.0000 1.0000
38.8100 715.0000 1.0000
38.8200 677.0000 1.0000
38.8300 648.0000 1.0000
38.8400 637.0000 1.0000
38.8500 626.0000 1.0000
38.8600 606.0000 1.0000
38.8700 578.0000 1.0000
38.8800 596.0000 1.0000
38.8900 528.0000 1.0000
38.9000 509.0000 1.0000
38.9100 552.0000 1.0000
38.9200 510.0000 1.0000
38.9300 534.0000 1.0000
38.9400 493.0000 1.0000
38.9500 495.0000 1.0000
38.9600 495.0000 1.0000
38.9700 451.0000 1.0000
38.9800 464.0000 1.0000
38.9900 461.0000 1.0000
39.0000 438.0000 1.0000
39.0100 437.0000 1.0000
39.0200 438.0000 1.0000
39.0300 417.0000 1.0000
39.0400 428.0000 1.0000
39.0500 446.0000 1.0000
39.0600 441.0000 1.0000
39.0700 417.0000 1.0000
39.0800 461.0000 1.0000
39.0900 402.0000 1.0000
39.1000 421.0000 1.0000
39.1100 423.0000 1.0000
39.1200 432.0000 1.0000
39.1300 439.0000 1.0000
39.1400 398.0000 1.0000
39.1500 426.0000 1.0000
39.1600 442.0000 1.0000
39.1700 383.0000 1.0000
39.1800 407.0000 1.0000
39.1900 423.0000 1.0000
39.2000 419.0000 1.0000
39.2100 423.0000 1.0000
39.2200 379.0000 1.0000
39.2300 417.0000 1.0000
39.2400 433.0000 1.0000
39.2500 424.0000 1.0000
39.2600 416.0000 1.0000
39.2700 406.0000 1.0000
39.2800 398.0000 1.0000
39.2900 416.0000 1.0000
39.3000 379.0000 1.0000
39.3100 356.0000 1.0000
39.3200 407.0000 1.0000
39.3300 393.0000 1.0000
39.3400 406.0000 1.0000
39.3500 412.0000 1.0000
39.3600 387.0000 1.0000
39.3700 390.0000 1.0000
39.3800 413.0000 1.0000
39.3900 368.0000 1.0000
39.4000 392.0000 1.0000
39.4100 399.0000 1.0000
39.4200 386.0000 1.0000
39.4300 381.0000 1.0000
39.4400 382.0000 1.0000
39.4500 387.0000 1.0000
39.4600 391.0000 1.0000
39.4700 369.0000 1.0000
39.4800 409.0000 1.0000
39.4900 394.0000 1.0000
39.5000 422.0000 1.0000
39.5100 429.0000 1.0000
39.5200 394.0000 1.0000
39.5300 342.0000 1.0000
39.5400 414.0000 1.0000
39.5500 441.0000 1.0000
39.5600 426.0000 1.0000
39.5700 408.0000 1.0000
39.5800 372.0000 1.0000
39.5900 419.0000 1.0000
39.6000 388.0000 1.0000
39.6100 397.0000 1.0000
39.6200 399.0000 1.0000
39.6300 449.0000 1.0000
39.6400 418.0000 1.0000
39.6500 387.0000 1.0000
39.6600 392.0000 1.0000
39.6700 408.0000 1.0000
39.6800 381.0000 1.0000
39.6900 391.0000 1.0000
39.7000 399.0000 1.0000
39.7100 385.0000 1.0000
39.7200 375.0000 1.0000
39.7300 426.0000 1.0000
39.7400 405.0000 1.0000
39.7500 420.0000 1.0000
39.7600 381.0000 1.0000
39.7700 424.0000 1.0000
39.7800 422.0000 1.0000
39.7900 411.0000 1.0000
39.8000 388.0000 1.0000
39.8100 395.0000 1.0000
39.8200 400.0000 1.0000
39.8300 395.0000 1.0000
39.8400 391.0000 1.0000
39.8500 371.0000 1.0000
39.8600 384.0000 1.0000
39.8700 371.0000 1.0000
39.8800 393.0000 1.0000
39.8900 375.0000 1.0000
39.9000 379.0000 1.0000
39.9100 408.0000 1.0000
39.9200 365.0000 1.0000
39.9300 367.0000 1.0000
39.9400 383.0000 1.0000
39.9500 363.0000 1.0000
39.9600 387.0000 1.0000
39.9700 358.0000 1.0000
39.9800 387.0000 1.0000
39.9900 384.0000 1.0000
40.0000 358.0000 1.0000
40.0100 386.0000 1.0000
40.0200 347.0000 1.0000
40.0300 389.0000 1.0000
40.0400 381.0000 1.0000
40.0500 375.0000 1.0000
40.0600 363.0000 1.0000
40.0700 341.0000 1.0000
40.0800 354.0000 1.0000
40.0900 390.0000 1.0000
40.1000 373.0000 1.0000
40.1100 368.0000 1.0000
40.1200 365.0000 1.0000
40.1300 348.0000 1.0000
40.1400 364.0000 1.0000
40.1500 371.0000 1.0000
40.1600 359.0000 1.0000
40.1700 352.0000 1.0000
40.1800 359.0000 1.0000
40.1900 346.0000 1.0000
40.2000 364.0000 1.0000
40.2100 360.0000 1.0000
40.2200 373.0000 1.0000
40.2300 403.0000 1.0000
40.2400 366.0000 1.0000
40.2500 377.0000 1.0000
40.2600 363.0000 1.0000
40.2700 366.0000 1.0000
40.2800 343.0000 1.0000
40.2900 395.0000 1.0000
40.3000 399.0000 1.0000
40.3100 349.0000 1.0000
40.3200 369.0000 1.0000
40.3300 364.0000 1.0000
40.3400 351.0000 1.0000
40.3500 346.0000 1.0000
40.3600 353.0000 1.0000
40.3700 370.0000 1.0000
40.3800 350.0000 1.0000
40.3900 358.0000 1.0000
40.4000 388.0000 1.0000
40.4100 370.0000 1.0000
40.4200 329.0000 1.0000
40.4300 364.0000 1.0000
40.4400 333.0000 1.0000
40.4500 371.0000 1.0000
40.4600 349.0000 1.0000
40.4700 356.0000 1.0000
40.4800 360.0000 1.0000
40.4900 375.0000 1.0000
40.5000 350.0000 1.0000
40.5100 336.0000 1.0000
40.5200 351.0000 1.0000
40.5300 374.0000 1.0000
40.5400 369.0000 1.0000
40.5500 339.0000 1.0000
40.5600 389.0000 1.0000
40.5700 373.0000 1.0000
40.5800 369.0000 1.0000
40.5900 392.0000 1.0000
40.6000 370.0000 1.0000
40.6100 359.0000 1.0000
40.6200 358.0000 1.0000
40.6300 361.0000 1.0000
40.6400 330.0000 1.0000
40.6500 353.0000 1.0000
40.6600 365.0000 1.0000
40.6700 352.0000 1.0000
40.6800 365.0000 1.0000
40.6900 344.0000 1.0000
40.7000 362.0000 1.0000
40.7100 348.0000 1.0000
40.7200 342.0000 1.0000
40.7300 383.0000 1.0000
40.7400 373.0000 1.0000
40.7500 350.0000 1.0000
40.7600 361.0000 1.0000
40.7700 366.0000 1.0000
40.7800 335.0000 1.0000
40.7900 389.0000 1.0000
40.8000 370.0000 1.0000
40.8100 359.0000 1.0000
40.8200 366.0000 1.0000
40.8300 378.0000 1.0000
40.8400 363.0000 1.0000
40.8500 361.0000 1.0000
40.8600 360.0000 1.0000
40.8700 349.0000 1.0000
40.8800 380.0000 1.0000
40.8900 337.0000 1.0000
40.9000 350.0000 1.0000
40.9100 359.0000 1.0000
40.9200 364.0000 1.0000
40.9300 355.0000 1.0000
40.9400 338.0000 1.0000
40.9500 358.0000 1.0000
40.9600 359.0000 1.0000
40.9700 352.0000 1.0000
40.9800 356.0000 1.0000
40.9900 324.0000 1.0000
41.0000 370.0000 1.0000
41.0100 362.0000 1.0000
41.0200 365.0000 1.0000
41.0300 345.0000 1.0000
41.0400 328.0000 1.0000
41.0500 339.0000 1.0000
41.0600 342.0000 1.0000
41.0700 355.0000 1.0000
41.0800 307.0000 1.0000
41.0900 320.0000 1.0000
41.1000 359.0000 1.0000
41.1100 359.0000 1.0000
41.1200 366.0000 1.0000
41.1300 357.0000 1.0000
41.1400 352.0000 1.0000
41.1500 362.0000 1.0000
41.1600 377.0000 1.0000
41.1700 329.0000 1.0000
41.1800 340.0000 1.0000
41.1900 342.0000 1.0000
41.2000 390.0000 1.0000
41.2100 346.0000 1.0000
41.2200 334.0000 1.0000
41.2300 346.0000 1.0000
41.2400 345.0000 1.0000
41.2500 331.0000 1.0000
41.2600 322.0000 1.0000
41.2700 371.0000 1.0000
41.2800 362.0000 1.0000
41.2900 341.0000 1.0000
41.3000 353.0000 1.0000
41.3100 332.0000 1.0000
41.3200 325.0000 1.0000
41.3300 340.0000 1.0000
41.3400 339.0000 1.0000
41.3500 356.0000 1.0000
41.3600 351.0000 1.0000
41.3700 357.0000 1.0000
41.3800 377.0000 1.0000
41.3900 321.0000 1.0000
41.4000 366.0000 1.0000
41.4100 363.0000 1.0000
41.4200 335.0000 1.0000
41.4300 378.0000 1.0000
41.4400 347.0000 1.0000
41.4500 360.0000 1.0000
41.4600 346.0000 1.0000
41.4700 357.0000 1.0000
41.4800 357.0000 1.0000
41.4900 364.0000 1.0000
41.5000 370.0000 1.0000
41.5100 366.0000 1.0000
41.5200 356.0000 1.0000
41.5300 371.0000 1.0000
41.5400 373.0000 1.0000
41.5500 367.0000 1.0000
41.5600 357.0000 1.0000
41.5700 343.0000 1.0000
41.5800 383.0000 1.0000
41.5900 372.0000 1.0000
41.6000 362.0000 1.0000
41.6100 350.0000 1.0000
41.6200 343.0000 1.0000
41.6300 352.0000 1.0000
41.6400 349.0000 1.0000
41.6500 379.0000 1.0000
41.6600 393.0000 1.0000
41.6700 379.0000 1.0000
41.6800 357.0000 1.0000
41.6900 377.0000 1.0000
41.7000 375.0000 1.0000
41.7100 362.0000 1.0000
41.7200 367.0000 1.0000
41.7300 382.0000 1.0000
41.7400 345.0000 1.0000
41.7500 357.0000 1.0000
41.7600 386.0000 1.0000
41.7700 336.0000 1.0000
41.7800 346.0000 1.0000
41.7900 355.0000 1.0000
41.8000 357.0000 1.0000
41.8100 366.0000 1.0000
41.8200 355.0000 1.0000
41.8300 352.0000 1.0000
41.8400 353.0000 1.0000
41.8500 351.0000 1.0000
41.8600 373.0000 1.0000
41.8700 373.0000 1.0000
41.8800 354.0000 1.0000
41.8900 347.0000 1.0000
41.9000 361.0000 1.0000
41.9100 354.0000 1.0000
41.9200 359.0000 1.0000
41.9300 349.0000 1.0000
41.9400 356.0000 1.0000
41.9500 347.0000 1.0000
41.9600 328.0000 1.0000
41.9700 371.0000 1.0000
41.9800 343.0000 1.0000
41.9900 343.0000 1.0000
42.0000 354.0000 1.0000
42.0100 353.0000 1.0000
42.0200 325.0000 1.0000
42.0300 376.0000 1.0000
42.0400 354.0000 1.0000
42.0500 367.0000 1.0000
42.0600 373.0000 1.0000
42.0700 357.0000 1.0000
42.0800 343.0000 1.0000
42.0900 369.0000 1.0000
42.1000 377.0000 1.0000
42.1100 313.0000 1.0000
42.1200 353.0000 1.0000
42.1300 369.0000 1.0000
42.1400 365.0000 1.0000
42.1500 343.0000 1.0000
42.1600 354.0000 1.0000
42.1700 315.0000 1.0000
42.1800 325.0000 1.0000
42.1900 329.0000 1.0000
42.2000 349.0000 1.0000
42.2100 341.0000 1.0000
42.2200 357.0000 1.0000
42.2300 366.0000 1.0000
42.2400 349.0000 1.0000
42.2500 364.0000 1.0000
42.2600 342.0000 1.0000
42.2700 362.0000 1.0000
42.2800 369.0000 1.0000
42.2900 342.0000 1.0000
42.3000 330.0000 1.0000
42.3100 351.0000 1.0000
42.3200 328.0000 1.0000
42.3300 335.0000 1.0000
42.3400 321.0000 1.0000
42.3500 336.0000 1.0000
42.3600 342.0000 1.0000
42.3700 358.0000 1.0000
42.3800 359.0000 1.0000
42.3900 335.0000 1.0000
42.4000 341.0000 1.0000
42.4100 352.0000 1.0000
42.4200 367.0000 1.0000
42.4300 386.0000 1.0000
42.4400 353.0000 1.0000
42.4500 342.0000 1.0000
42.4600 349.0000 1.0000
42.4700 344.0000 1.0000
42.4800 356.0000 1.0000
42.4900 346.0000 1.0000
42.5000 357.0000 1.0000
42.5100 327.0000 1.0000
42.5200 324.0000 1.0000
42.5300 345.0000 1.0000
42.5400 316.0000 1.0000
42.5500 346.0000 1.0000
42.5600 325.0000 1.0000
42.5700 351.0000 1.0000
42.5800 337.0000 1.0000
42.5900 325.0000 1.0000
42.6000 377.0000 1.0000
42.6100 356.0000 1.0000
42.6200 349.0000 1.0000
42.6300 349.0000 1.0000
42.6400 355.0000 1.0000
42.6500 370.0000 1.0000
42.6600 347.0000 1.0000
42.6700 353.0000 1.0000
42.6800 364.0000 1.0000
42.6900 342.0000 1.0000
42.7000 321.0000 1.0000
42.7100 322.0000 1.0000
42.7200 356.0000 1.0000
42.7300 318.0000 1.0000
42.7400 340.0000 1.0000
42.7500 349.0000 1.0000
42.7600 346.0000 1.0000
42.7700 353.0000 1.0000
42.7800 365.0000 1.0000
42.7900 345.0000 1.0000
42.8000 348.0000 1.0000
42.8100 334.0000 1.0000
42.8200 353.0000 1.0000
42.8300 356.0000 1.0000
42.8400 347.0000 1.0000
42.8500 370.0000 1.0000
42.8600 339.0000 1.0000
42.8700 356.0000 1.0000
42.8800 336.0000 1.0000
42.8900 329.0000 1.0000
42.9000 331.0000 1.0000
42.9100 360.0000 1.0000
42.9200 339.0000 1.0000
42.9300 374.0000 1.0000
42.9400 353.0000 1.0000
42.9500 312.0000 1.0000
42.9600 331.0000 1.0000
42.9700 330.0000 1.0000
42.9800 357.0000 1.0000
42.9900 348.0000 1.0000
43.0000 356.0000 1.0000
43.0100 319.0000 1.0000
43.0200 367.0000 1.0000
43.0300 341.0000 1.0000
43.0400 353.0000 1.0000
43.0500 337.0000 1.0000
43.0600 352.0000 1.0000
43.0700 361.0000 1.0000
43.0800 352.0000 1.0000
43.0900 332.0000 1.0000
43.1000 351.0000 1.0000
43.1100 347.0000 1.0000
43.1200 379.0000 1.0000
43.1300 392.0000 1.0000
43.1400 383.0000 1.0000
43.1500 351.0000 1.0000
43.1600 354.0000 1.0000
43.1700 361.0000 1.0000
43.1800 377.0000 1.0000
43.1900 393.0000 1.0000
43.2000 381.0000 1.0000
43.2100 371.0000 1.0000
43.2200 375.0000 1.0000
43.2300 398.0000 1.0000
43.2400 353.0000 1.0000
43.2500 363.0000 1.0000
43.2600 368.0000 1.0000
43.2700 352.0000 1.0000
43.2800 373.0000 1.0000
43.2900 353.0000 1.0000
43.3000 369.0000 1.0000
43.3100 373.0000 1.0000
43.3200 391.0000 1.0000
43.3300 380.0000 1.0000
43.3400 328.0000 1.0000
43.3500 335.0000 1.0000
43.3600 365.0000 1.0000
43.3700 331.0000 1.0000
43.3800 400.0000 1.0000
43.3900 375.0000 1.0000
43.4000 348.0000 1.0000
43.4100 332.0000 1.0000
43.4200 349.0000 1.0000
43.4300 381.0000 1.0000
43.4400 347.0000 1.0000
43.4500 359.0000 1.0000
43.4600 367.0000 1.0000
43.4700 360.0000 1.0000
43.4800 349.0000 1.0000
43.4900 352.0000 1.0000
43.5000 317.0000 1.0000
43.5100 340.0000 1.0000
43.5200 355.0000 1.0000
43.5300 326.0000 1.0000
43.5400 326.0000 1.0000
43.5500 331.0000 1.0000
43.5600 330.0000 1.0000
43.5700 350.0000 1.0000
43.5800 339.0000 1.0000
43.5900 327.0000 1.0000
43.6000 343.0000 1.0000
43.6100 377.0000 1.0000
43.6200 350.0000 1.0000
43.6300 335.0000 1.0000
43.6400 354.0000 1.0000
43.6500 339.0000 1.0000
43.6600 321.0000 1.0000
43.6700 341.0000 1.0000
43.6800 361.0000 1.0000
43.6900 342.0000 1.0000
43.7000 347.0000 1.0000
43.7100 329.0000 1.0000
43.7200 329.0000 1.0000
43.7300 346.0000 1.0000
43.7400 340.0000 1.0000
43.7500 342.0000 1.0000
43.7600 358.0000 1.0000
43.7700 323.0000 1.0000
43.7800 355.0000 1.0000
43.7900 336.0000 1.0000
43.8000 331.0000 1.0000
43.8100 351.0000 1.0000
43.8200 326.0000 1.0000
43.8300 327.0000 1.0000
43.8400 316.0000 1.0000
43.8500 373.0000 1.0000
43.8600 336.0000 1.0000
43.8700 364.0000 1.0000
43.8800 363.0000 1.0000
43.8900 362.0000 1.0000
43.9000 341.0000 1.0000
43.9100 325.0000 1.0000
43.9200 337.0000 1.0000
43.9300 322.0000 1.0000
43.9400 325.0000 1.0000
43.9500 328.0000 1.0000
43.9600 325.0000 1.0000
43.9700 304.0000 1.0000
43.9800 337.0000 1.0000
43.9900 329.0000 1.0000
44.0000 348.0000 1.0000
44.0100 349.0000 1.0000
44.0200 384.0000 1.0000
44.0300 340.0000 1.0000
44.0400 376.0000 1.0000
44.0500 349.0000 1.0000
44.0600 327.0000 1.0000
44.0700 355.0000 1.0000
44.0800 336.0000 1.0000
44.0900 325.0000 1.0000
44.1000 324.0000 1.0000
44.1100 330.0000 1.0000
44.1200 343.0000 1.0000
44.1300 345.0000 1.0000
44.1400 333.0000 1.0000
44.1500 311.0000 1.0000
44.1600 313.0000 1.0000
44.1700 345.0000 1.0000
44.1800 340.0000 1.0000
44.1900 322.0000 1.0000
44.2000 361.0000 1.0000
44.2100 364.0000 1.0000
44.2200 366.0000 1.0000
44.2300 339.0000 1.0000
44.2400 342.0000 1.0000
44.2500 349.0000 1.0000
44.2600 322.0000 1.0000
44.2700 327.0000 1.0000
44.2800 336.0000 1.0000
44.2900 323.0000 1.0000
44.3000 320.0000 1.0000
44.3100 349.0000 1.0000
44.3200 335.0000 1.0000
44.3300 340.0000 1.0000
44.3400 322.0000 1.0000
44.3500 346.0000 1.0000
44.3600 337.0000 1.0000
44.3700 326.0000 1.0000
44.3800 315.0000 1.0000
44.3900 334.0000 1.0000
44.4000 335.0000 1.0000
44.4100 340.0000 1.0000
44.4200 324.0000 1.0000
44.4300 316.0000 1.0000
44.4400 348.0000 1.0000
44.4500 339.0000 1.0000
44.4600 325.0000 1.0000
44.4700 309.0000 1.0000
44.4800 340.0000 1.0000
44.4900 342.0000 1.0000
44.5000 344.0000 1.0000
44.5100 352.0000 1.0000
44.5200 352.0000 1.0000
44.5300 318.0000 1.0000
44.5400 311.0000 1.0000
44.5500 331.0000 1.0000
44.5600 313.0000 1.0000
44.5700 301.0000 1.0000
44.5800 302.0000 1.0000
44.5900 311.0000 1.0000
44.6000 319.0000 1.0000
44.6100 337.0000 1.0000
44.6200 330.0000 1.0000
44.6300 328.0000 1.0000
44.6400 308.0000 1.0000
44.6500 313.0000 1.0000
44.6600 293.0000 1.0000
44.6700 326.0000 1.0000
44.6800 327.0000 1.0000
44.6900 330.0000 1.0000
44.7000 313.0000 1.0000
44.7100 323.0000 1.0000
44.7200 304.0000 1.0000
44.7300 318.0000 1.0000
44.7400 322.0000 1.0000
44.7500 294.0000 1.0000
44.7600 319.0000 1.0000
44.7700 352.0000 1.0000
44.7800 340.0000 1.0000
44.7900 344.0000 1.0000
44.8000 323.0000 1.0000
44.8100 313.0000 1.0000
44.8200 333.0000 1.0000
44.8300 302.0000 1.0000
44.8400 361.0000 1.0000
44.8500 318.0000 1.0000
44.8600 330.0000 1.0000
44.8700 335.0000 1.0000
44.8800 343.0000 1.0000
44.8900 329.0000 1.0000
44.9000 334.0000 1.0000
44.9100 317.0000 1.0000
44.9200 345.0000 1.0000
44.9300 332.0000 1.0000
44.9400 351.0000 1.0000
44.9500 315.0000 1.0000
44.9600 331.0000 1.0000
44.9700 361.0000 1.0000
44.9800 335.0000 1.0000
44.9900 332.0000 1.0000
45.0000 342.0000 1.0000
45.0100 332.0000 1.0000
45.0200 316.0000 1.0000
45.0300 318.0000 1.0000
45.0400 319.0000 1.0000
45.0500 356.0000 1.0000
45.0600 304.0000 1.0000
45.0700 324.0000 1.0000
45.0800 349.0000 1.0000
45.0900 306.0000 1.0000
45.1000 306.0000 1.0000
45.1100 336.0000 1.0000
45.1200 317.0000 1.0000
45.1300 329.0000 1.0000
45.1400 309.0000 1.0000
45.1500 333.0000 1.0000
45.1600 328.0000 1.0000
45.1700 335.0000 1.0000
45.1800 320.0000 1.0000
45.1900 302.0000 1.0000
45.2000 334.0000 1.0000
45.2100 319.0000 1.0000
45.2200 329.0000 1.0000
45.2300 330.0000 1.0000
45.2400 294.0000 1.0000
45.2500 299.0000 1.0000
45.2600 316.0000 1.0000
45.2700 319.0000 1.0000
45.2800 331.0000 1.0000
45.2900 326.0000 1.0000
45.3000 344.0000 1.0000
45.3100 314.0000 1.0000
45.3200 322.0000 1.0000
45.3300 318.0000 1.0000
45.3400 329.0000 1.0000
45.3500 357.0000 1.0000
45.3600 310.0000 1.0000
45.3700 327.0000 1.0000
45.3800 331.0000 1.0000
45.3900 321.0000 1.0000
45.4000 338.0000 1.0000
45.4100 289.0000 1.0000
45.4200 287.0000 1.0000
45.4300 317.0000 1.0000
45.4400 334.0000 1.0000
45.4500 335.0000 1.0000
45.4600 335.0000 1.0000
45.4700 306.0000 1.0000
45.4800 315.0000 1.0000
45.4900 341.0000 1.0000
45.5000 334.0000 1.0000
45.5100 339.0000 1.0000
45.5200 336.0000 1.0000
45.5300 336.0000 1.0000
45.5400 324.0000 1.0000
45.5500 334.0000 1.0000
45.5600 331.0000 1.0000
45.5700 325.0000 1.0000
45.5800 344.0000 1.0000
45.5900 343.0000 1.0000
45.6000 335.0000 1.0000
45.6100 310.0000 1.0000
45.6200 312.0000 1.0000
45.6300 322.0000 1.0000
45.6400 343.0000 1.0000
45.6500 310.0000 1.0000
45.6600 322.0000 1.0000
45.6700 316.0000 1.0000
45.6800 338.0000 1.0000
45.6900 345.0000 1.0000
45.7000 342.0000 1.0000
45.7100 330.0000 1.0000
45.7200 306.0000 1.0000
45.7300 318.0000 1.0000
45.7400 328.0000 1.0000
45.7500 319.0000 1.0000
45.7600 315.0000 1.0000
45.7700 307.0000 1.0000
45.7800 314.0000 1.0000
45.7900 313.0000 1.0000
45.8000 326.0000 1.0000
45.8100 337.0000 1.0000
45.8200 345.0000 1.0000
45.8300 356.0000 1.0000
45.8400 323.0000 1.0000
45.8500 325.0000 1.0000
45.8600 303.0000 1.0000
45.8700 308.0000 1.0000
45.8800 339.0000 1.0000
45.8900 312.0000 1.0000
45.9000 323.0000 1.0000
45.9100 305.0000 1.0000
45.9200 330.0000 1.0000
45.9300 302.0000 1.0000
45.9400 320.0000 1.0000
45.9500 343.0000 1.0000
45.9600 337.0000 1.0000
45.9700 293.0000 1.0000
45.9800 314.0000 1.0000
45.9900 346.0000 1.0000
46.0000 290.0000 1.0000
46.0100 303.0000 1.0000
46.0200 347.0000 1.0000
46.0300 318.0000 1.0000
46.0400 342.0000 1.0000
46.0500 336.0000 1.0000
46.0600 334.0000 1.0000
46.0700 333.0000 1.0000
46.0800 324.0000 1.0000
46.0900 350.0000 1.0000
46.1000 338.0000 1.0000
46.1100 297.0000 1.0000
46.1200 353.0000 1.0000
46.1300 316.0000 1.0000
46.1400 329.0000 1.0000
46.1500 301.0000 1.0000
46.1600 313.0000 1.0000
46.1700 324.0000 1.0000
46.1800 296.0000 1.0000
46.1900 291.0000 1.0000
46.2000 310.0000 1.0000
46.2100 343.0000 1.0000
46.2200 327.0000 1.0000
46.2300 311.0000 1.0000
46.2400 324.0000 1.0000
46.2500 331.0000 1.0000
46.2600 316.0000 1.0000
46.2700 296.0000 1.0000
46.2800 296.0000 1.0000
46.2900 326.0000 1.0000
46.3000 315.0000 1.0000
46.3100 305.0000 1.0000
46.3200 325.0000 1.0000
46.3300 311.0000 1.0000
46.3400 307.0000 1.0000
46.3500 311.0000 1.0000
46.3600 304.0000 1.0000
46.3700 305.0000 1.0000
46.3800 325.0000 1.0000
46.3900 302.0000 1.0000
46.4000 316.0000 1.0000
46.4100 328.0000 1.0000
46.4200 304.0000 1.0000
46.4300 323.0000 1.0000
46.4400 309.0000 1.0000
46.4500 294.0000 1.0000
46.4600 291.0000 1.0000
46.4700 332.0000 1.0000
46.4800 332.0000 1.0000
46.4900 331.0000 1.0000
46.5000 332.0000 1.0000
46.5100 302.0000 1.0000
46.5200 311.0000 1.0000
46.5300 312.0000 1.0000
46.5400 331.0000 1.0000
46.5500 308.0000 1.0000
46.5600 324.0000 1.0000
46.5700 301.0000 1.0000
46.5800 340.0000 1.0000
46.5900 299.0000 1.0000
46.6000 319.0000 1.0000
46.6100 319.0000 1.0000
46.6200 312.0000 1.0000
46.6300 302.0000 1.0000
46.6400 306.0000 1.0000
46.6500 320.0000 1.0000
46.6600 323.0000 1.0000
46.6700 296.0000 1.0000
46.6800 304.0000 1.0000
46.6900 323.0000 1.0000
46.7000 308.0000 1.0000
46.7100 325.0000 1.0000
46.7200 315.0000 1.0000
46.7300 299.0000 1.0000
46.7400 303.0000 1.0000
46.7500 300.0000 1.0000
46.7600 328.0000 1.0000
46.7700 293.0000 1.0000
46.7800 315.0000 1.0000
46.7900 304.0000 1.0000
46.8000 302.0000 1.0000
46.8100 324.0000 1.0000
46.8200 302.0000 1.0000
46.8300 313.0000 1.0000
46.8400 308.0000 1.0000
46.8500 327.0000 1.0000
46.8600 332.0000 1.0000
46.8700 310.0000 1.0000
46.8800 325.0000 1.0000
46.8900 301.0000 1.0000
46.9000 315.0000 1.0000
46.9100 338.0000 1.0000
46.9200 316.0000 1.0000
46.9300 323.0000 1.0000
46.9400 293.0000 1.0000
46.9500 306.0000 1.0000
46.9600 352.0000 1.0000
46.9700 325.0000 1.0000
46.9800 335.0000 1.0000
46.9900 330.0000 1.0000
47.0000 336.0000 1.0000
47.0100 346.0000 1.0000
47.0200 325.0000 1.0000
47.0300 317.0000 1.0000
47.0400 334.0000 1.0000
47.0500 316.0000 1.0000
47.0600 305.0000 1.0000
47.0700 305.0000 1.0000
47.0800 340.0000 1.0000
47.0900 337.0000 1.0000
47.1000 316.0000 1.0000
47.1100 317.0000 1.0000
47.1200 274.0000 1.0000
47.1300 290.0000 1.0000
47.1400 302.0000 1.0000
47.1500 315.0000 1.0000
47.1600 341.0000 1.0000
47.1700 308.0000 1.0000
47.1800 307.0000 1.0000
47.1900 310.0000 1.0000
47.2000 322.0000 1.0000
47.2100 322.0000 1.0000
47.2200 276.0000 1.0000
47.2300 293.0000 1.0000
47.2400 339.0000 1.0000
47.2500 341.0000 1.0000
47.2600 313.0000 1.0000
47.2700 286.0000 1.0000
47.2800 309.0000 1.0000
47.2900 307.0000 1.0000
47.3000 316.0000 1.0000
47.3100 302.0000 1.0000
47.3200 306.0000 1.0000
47.3300 308.0000 1.0000
47.3400 331.0000 1.0000
47.3500 324.0000 1.0000
47.3600 320.0000 1.0000
47.3700 308.0000 1.0000
47.3800 287.0000 1.0000
47.3900 316.0000 1.0000
47.4000 328.0000 1.0000
47.4100 327.0000 1.0000
47.4200 297.0000 1.0000
47.4300 311.0000 1.0000
47.4400 293.0000 1.0000
47.4500 316.0000 1.0000
47.4600 321.0000 1.0000
47.4700 292.0000 1.0000
47.4800 307.0000 1.0000
47.4900 284.0000 1.0000
47.5000 314.0000 1.0000
47.5100 289.0000 1.0000
47.5200 315.0000 1.0000
47.5300 320.0000 1.0000
47.5400 327.0000 1.0000
47.5500 320.0000 1.0000
47.5600 311.0000 1.0000
47.5700 324.0000 1.0000
47.5800 309.0000 1.0000
47.5900 312.0000 1.0000
47.6000 310.0000 1.0000
47.6100 312.0000 1.0000
47.6200 306.0000 1.0000
47.6300 308.0000 1.0000
47.6400 297.0000 1.0000
47.6500 279.0000 1.0000
47.6600 288.0000 1.0000
47.6700 300.0000 1.0000
47.6800 302.0000 1.0000
47.6900 323.0000 1.0000
47.7000 326.0000 1.0000
47.7100 315.0000 1.0000
47.7200 326.0000 1.0000
47.7300 289.0000 1.0000
47.7400 302.0000 1.0000
47.7500 293.0000 1.0000
47.7600 295.0000 1.0000
47.7700 326.0000 1.0000
47.7800 313.0000 1.0000
47.7900 315.0000 1.0000
47.8000 284.0000 1.0000
47.8100 308.0000 1.0000
47.8200 306.0000 1.0000
47.8300 310.0000 1.0000
47.8400 281.0000 1.0000
47.8500 313.0000 1.0000
47.8600 313.0000 1.0000
47.8700 321.0000 1.0000
47.8800 303.0000 1.0000
47.8900 300.0000 1.0000
47.9000 298.0000 1.0000
47.9100 311.0000 1.0000
47.9200 321.0000 1.0000
47.9300 283.0000 1.0000
47.9400 303.0000 1.0000
47.9500 319.0000 1.0000
47.9600 309.0000 1.0000
47.9700 311.0000 1.0000
47.9800 317.0000 1.0000
47.9900 328.0000 1.0000
48.0000 314.0000 1.0000
48.0100 308.0000 1.0000
48.0200 310.0000 1.0000
48.0300 319.0000 1.0000
48.0400 304.0000 1.0000
48.0500 313.0000 1.0000
48.0600 293.0000 1.0000
48.0700 320.0000 1.0000
48.0800 275.0000 1.0000
48.0900 297.0000 1.0000
48.1000 319.0000 1.0000
48.1100 330.0000 1.0000
48.1200 338.0000 1.0000
48.1300 306.0000 1.0000
48.1400 284.0000 1.0000
48.1500 308.0000 1.0000
48.1600 321.0000 1.0000
48.1700 284.0000 1.0000
48.1800 316.0000 1.0000
48.1900 296.0000 1.0000
48.2000 318.0000 1.0000
48.2100 299.0000 1.0000
48.2200 319.0000 1.0000
48.2300 303.0000 1.0000
48.2400 297.0000 1.0000
48.2500 291.0000 1.0000
48.2600 304.0000 1.0000
48.2700 303.0000 1.0000
48.2800 296.0000 1.0000
48.2900 305.0000 1.0000
48.3000 302.0000 1.0000
48.3100 296.0000 1.0000
48.3200 346.0000 1.0000
48.3300 305.0000 1.0000
48.3400 331.0000 1.0000
48.3500 313.0000 1.0000
48.3600 311.0000 1.0000
48.3700 302.0000 1.0000
48.3800 281.0000 1.0000
48.3900 285.0000 1.0000
48.4000 300.0000 1.0000
48.4100 311.0000 1.0000
48.4200 306.0000 1.0000
48.4300 295.0000 1.0000
48.4400 308.0000 1.0000
48.4500 318.0000 1.0000
48.4600 290.0000 1.0000
48.4700 317.0000 1.0000
48.4800 286.0000 1.0000
48.4900 275.0000 1.0000
48.5000 292.0000 1.0000
48.5100 297.0000 1.0000
48.5200 313.0000 1.0000
48.5300 297.0000 1.0000
48.5400 287.0000 1.0000
48.5500 302.0000 1.0000
48.5600 306.0000 1.0000
48.5700 338.0000 1.0000
48.5800 269.0000 1.0000
48.5900 288.0000 1.0000
48.6000 268.0000 1.0000
48.6100 314.0000 1.0000
48.6200 296.0000 1.0000
48.6300 330.0000 1.0000
48.6400 304.0000 1.0000
48.6500 323.0000 1.0000
48.6600 291.0000 1.0000
48.6700 290.0000 1.0000
48.6800 278.0000 1.0000
48.6900 309.0000 1.0000
48.7000 292.0000 1.0000
48.7100 324.0000 1.0000
48.7200 288.0000 1.0000
48.7300 317.0000 1.0000
48.7400 297.0000 1.0000
48.7500 292.0000 1.0000
48.7600 295.0000 1.0000
48.7700 324.0000 1.0000
48.7800 311.0000 1.0000
48.7900 319.0000 1.0000
48.8000 296.0000 1.0000
48.8100 294.0000 1.0000
48.8200 316.0000 1.0000
48.8300 308.0000 1.0000
48.8400 291.0000 1.0000
48.8500 294.0000 1.0000
48.8600 305.0000 1.0000
48.8700 279.0000 1.0000
48.8800 307.0000 1.0000
48.8900 287.0000 1.0000
48.9000 305.0000 1.0000
48.9100 296.0000 1.0000
48.9200 287.0000 1.0000
48.9300 296.0000 1.0000
48.9400 307.0000 1.0000
48.9500 318.0000 1.0000
48.9600 309.0000 1.0000
48.9700 310.0000 1.0000
48.9800 289.0000 1.0000
48.9900 295.0000 1.0000
49.0000 301.0000 1.0000
49.0100 313.0000 1.0000
49.0200 302.0000 1.0000
49.0300 324.0000 1.0000
49.0400 313.0000 1.0000
49.0500 323.0000 1.0000
49.0600 304.0000 1.0000
49.0700 299.0000 1.0000
49.0800 302.0000 1.0000
49.0900 308.0000 1.0000
49.1000 320.0000 1.0000
49.1100 329.0000 1.0000
49.1200 320.0000 1.0000
49.1300 324.0000 1.0000
49.1400 271.0000 1.0000
49.1500 290.0000 1.0000
49.1600 318.0000 1.0000
49.1700 341.0000 1.0000
49.1800 285.0000 1.0000
49.1900 290.0000 1.0000
49.2000 284.0000 1.0000
49.2100 284.0000 1.0000
49.2200 311.0000 1.0000
49.2300 281.0000 1.0000
49.2400 298.0000 1.0000
49.2500 294.0000 1.0000
49.2600 305.0000 1.0000
49.2700 300.0000 1.0000
49.2800 283.0000 1.0000
49.2900 272.0000 1.0000
49.3000 294.0000 1.0000
49.3100 314.0000 1.0000
49.3200 322.0000 1.0000
49.3300 282.0000 1.0000
49.3400 293.0000 1.0000
49.3500 294.0000 1.0000
49.3600 314.0000 1.0000
49.3700 309.0000 1.0000
49.3800 281.0000 1.0000
49.3900 281.0000 1.0000
49.4000 299.0000 1.0000
49.4100 300.0000 1.0000
49.4200 298.0000 1.0000
49.4300 287.0000 1.0000
49.4400 308.0000 1.0000
49.4500 292.0000 1.0000
49.4600 284.0000 1.0000
49.4700 338.0000 1.0000
49.4800 301.0000 1.0000
49.4900 301.0000 1.0000
49.5000 291.0000 1.0000
49.5100 298.0000 1.0000
49.5200 316.0000 1.0000
49.5300 301.0000 1.0000
49.5400 295.0000 1.0000
49.5500 281.0000 1.0000
49.5600 326.0000 1.0000
49.5700 282.0000 1.0000
49.5800 296.0000 1.0000
49.5900 329.0000 1.0000
49.6000 312.0000 1.0000
49.6100 319.0000 1.0000
49.6200 292.0000 1.0000
49.6300 276.0000 1.0000
49.6400 298.0000 1.0000
49.6500 314.0000 1.0000
49.6600 316.0000 1.0000
49.6700 339.0000 1.0000
49.6800 322.0000 1.0000
49.6900 268.0000 1.0000
49.7000 299.0000 1.0000
49.7100 296.0000 1.0000
49.7200 259.0000 1.0000
49.7300 268.0000 1.0000
49.7400 306.0000 1.0000
49.7500 265.0000 1.0000
49.7600 295.0000 1.0000
49.7700 302.0000 1.0000
49.7800 273.0000 1.0000
49.7900 290.0000 1.0000
49.8000 319.0000 1.0000
49.8100 304.0000 1.0000
49.8200 307.0000 1.0000
49.8300 336.0000 1.0000
49.8400 293.0000 1.0000
49.8500 315.0000 1.0000
49.8600 287.0000 1.0000
49.8700 257.0000 1.0000
49.8800 280.0000 1.0000
49.8900 275.0000 1.0000
49.9000 266.0000 1.0000
49.9100 270.0000 1.0000
49.9200 267.0000 1.0000
49.9300 283.0000 1.0000
49.9400 300.0000 1.0000
49.9500 295.0000 1.0000
49.9600 312.0000 1.0000
49.9700 305.0000 1.0000
49.9800 339.0000 1.0000
49.9900 320.0000 1.0000
50.0000 299.0000 1.0000
50.0100 303.0000 1.0000
50.0200 299.0000 1.0000
50.0300 306.0000 1.0000
50.0400 303.0000 1.0000
50.0500 316.0000 1.0000
50.0600 317.0000 1.0000
50.0700 307.0000 1.0000
50.0800 313.0000 1.0000
50.0900 299.0000 1.0000
50.1000 340.0000 1.0000
50.1100 320.0000 1.0000
50.1200 286.0000 1.0000
50.1300 316.0000 1.0000
50.1400 306.0000 1.0000
50.1500 319.0000 1.0000
50.1600 347.0000 1.0000
50.1700 311.0000 1.0000
50.1800 290.0000 1.0000
50.1900 322.0000 1.0000
50.2000 329.0000 1.0000
50.2100 341.0000 1.0000
50.2200 310.0000 1.0000
50.2300 313.0000 1.0000
50.2400 325.0000 1.0000
50.2500 308.0000 1.0000
50.2600 309.0000 1.0000
50.2700 304.0000 1.0000
50.2800 295.0000 1.0000
50.2900 301.0000 1.0000
50.3000 350.0000 1.0000
50.3100 319.0000 1.0000
50.3200 302.0000 1.0000
50.3300 310.0000 1.0000
50.3400 299.0000 1.0000
50.3500 307.0000 1.0000
50.3600 283.0000 1.0000
50.3700 309.0000 1.0000
50.3800 310.0000 1.0000
50.3900 296.0000 1.0000
50.4000 291.0000 1.0000
50.4100 288.0000 1.0000
50.4200 306.0000 1.0000
50.4300 312.0000 1.0000
50.4400 304.0000 1.0000
50.4500 311.0000 1.0000
50.4600 310.0000 1.0000
50.4700 326.0000 1.0000
50.4800 317.0000 1.0000
50.4900 320.0000 1.0000
50.5000 309.0000 1.0000
50.5100 303.0000 1.0000
50.5200 293.0000 1.0000
50.5300 281.0000 1.0000
50.5400 289.0000 1.0000
50.5500 290.0000 1.0000
50.5600 308.0000 1.0000
50.5700 296.0000 1.0000
50.5800 306.0000 1.0000
50.5900 319.0000 1.0000
50.6000 300.0000 1.0000
50.6100 311.0000 1.0000
50.6200 324.0000 1.0000
50.6300 298.0000 1.0000
50.6400 313.0000 1.0000
50.6500 262.0000 1.0000
50.6600 289.0000 1.0000
50.6700 311.0000 1.0000
50.6800 297.0000 1.0000
50.6900 283.0000 1.0000
50.7000 303.0000 1.0000
50.7100 295.0000 1.0000
50.7200 295.0000 1.0000
50.7300 280.0000 1.0000
50.7400 287.0000 1.0000
50.7500 309.0000 1.0000
50.7600 321.0000 1.0000
50.7700 306.0000 1.0000
50.7800 307.0000 1.0000
50.7900 303.0000 1.0000
50.8000 326.0000 1.0000
50.8100 289.0000 1.0000
50.8200 306.0000 1.0000
50.8300 291.0000 1.0000
50.8400 288.0000 1.0000
50.8500 286.0000 1.0000
50.8600 336.0000 1.0000
50.8700 291.0000 1.0000
50.8800 317.0000 1.0000
50.8900 326.0000 1.0000
50.9000 318.0000 1.0000
50.9100 288.0000 1.0000
50.9200 317.0000 1.0000
50.9300 310.0000 1.0000
50.9400 306.0000 1.0000
50.9500 305.0000 1.0000
50.9600 309.0000 1.0000
50.9700 283.0000 1.0000
50.9800 273.0000 1.0000
50.9900 287.0000 1.0000
51.0000 315.0000 1.0000
51.0100 304.0000 1.0000
51.0200 298.0000 1.0000
51.0300 305.0000 1.0000
51.0400 301.0000 1.0000
51.0500 302.0000 1.0000
51.0600 331.0000 1.0000
51.0700 292.0000 1.0000
51.0800 305.0000 1.0000
51.0900 285.0000 1.0000
51.1000 303.0000 1.0000
51.1100 322.0000 1.0000
51.1200 306.0000 1.0000
51.1300 310.0000 1.0000
51.1400 299.0000 1.0000
51.1500 318.0000 1.0000
51.1600 309.0000 1.0000
51.1700 300.0000 1.0000
51.1800 315.0000 1.0000
51.1900 288.0000 1.0000
51.2000 299.0000 1.0000
51.2100 307.0000 1.0000
51.2200 302.0000 1.0000
51.2300 294.0000 1.0000
51.2400 295.0000 1.0000
51.2500 322.0000 1.0000
51.2600 295.0000 1.0000
51.2700 307.0000 1.0000
51.2800 298.0000 1.0000
51.2900 291.0000 1.0000
51.3000 259.0000 1.0000
51.3100 302.0000 1.0000
51.3200 296.0000 1.0000
51.3300 301.0000 1.0000
51.3400 275.0000 1.0000
51.3500 302.0000 1.0000
51.3600 289.0000 1.0000
51.3700 287.0000 1.0000
51.3800 288.0000 1.0000
51.3900 297.0000 1.0000
51.4000 304.0000 1.0000
51.4100 309.0000 1.0000
51.4200 331.0000 1.0000
51.4300 299.0000 1.0000
51.4400 307.0000 1.0000
51.4500 326.0000 1.0000
51.4600 303.0000 1.0000
51.4700 328.0000 1.0000
51.4800 303.0000 1.0000
51.4900 320.0000 1.0000
51.5000 316.0000 1.0000
51.5100 301.0000 1.0000
51.5200 300.0000 1.0000
51.5300 301.0000 1.0000
51.5400 301.0000 1.0000
51.5500 302.0000 1.0000
51.5600 343.0000 1.0000
51.5700 326.0000 1.0000
51.5800 329.0000 1.0000
51.5900 310.0000 1.0000
51.6000 342.0000 1.0000
51.6100 314.0000 1.0000
51.6200 319.0000 1.0000
51.6300 313.0000 1.0000
51.6400 308.0000 1.0000
51.6500 314.0000 1.0000
51.6600 298.0000 1.0000
51.6700 300.0000 1.0000
51.6800 314.0000 1.0000
51.6900 335.0000 1.0000
51.7000 321.0000 1.0000
51.7100 347.0000 1.0000
51.7200 332.0000 1.0000
51.7300 340.0000 1.0000
51.7400 333.0000 1.0000
51.7500 323.0000 1.0000
51.7600 331.0000 1.0000
51.7700 360.0000 1.0000
51.7800 340.0000 1.0000
51.7900 355.0000 1.0000
51.8000 349.0000 1.0000
51.8100 342.0000 1.0000
51.8200 324.0000 1.0000
51.8300 316.0000 1.0000
51.8400 349.0000 1.0000
51.8500 367.0000 1.0000
51.8600 366.0000 1.0000
51.8700 375.0000 1.0000
51.8800 399.0000 1.0000
51.8900 395.0000 1.0000
51.9000 410.0000 1.0000
51.9100 380.0000 1.0000
51.9200 382.0000 1.0000
51.9300 385.0000 1.0000
51.9400 410.0000 1.0000
51.9500 442.0000 1.0000
51.9600 464.0000 1.0000
51.9700 432.0000 1.0000
51.9800 447.0000 1.0000
51.9900 472.0000 1.0000
52.0000 494.0000 1.0000
52.0100 510.0000 1.0000
52.0200 509.0000 1.0000
52.0300 520.0000 1.0000
52.0400 554.0000 1.0000
52.0500 576.0000 1.0000
52.0600 582.0000 1.0000
52.0700 600.0000 1.0000
52.0800 607.0000 1.0000
52.0900 681.0000 1.0000
52.1000 712.0000 1.0000
52.1100 733.0000 1.0000
52.1200 798.0000 1.0000
52.1300 875.0000 1.0000
52.1400 897.0000 1.0000
52.1500 978.0000 1.0000
52.1600 1071.0000 1.0000
52.1700 1185.0000 1.0000
52.1800 1272.0000 1.0000
52.1900 1371.0000 1.0000
52.2000 1488.0000 1.0000
52.2100 1655.0000 1.0000
52.2200 1723.0000 1.0000
52.2300 1893.0000 1.0000
52.2400 1969.0000 1.0000
52.2500 2209.0000 1.0000
52.2600 2249.0000 1.0000
52.2700 2261.0000 1.0000
52.2800 2228.0000 1.0000
52.2900 2221.0000 1.0000
52.3000 2223.0000 1.0000
52.3100 2155.0000 1.0000
52.3200 2083.0000 1.0000
52.3300 2002.0000 1.0000
52.3400 1954.0000 1.0000
52.3500 1875.0000 1.0000
52.3600 1824.0000 1.0000
52.3700 1821.0000 1.0000
52.3800 1763.0000 1.0000
52.3900 1670.0000 1.0000
52.4000 1664.0000 1.0000
52.4100 1574.0000 1.0000
52.4200 1591.0000 1.0000
52.4300 1485.0000 1.0000
52.4400 1387.0000 1.0000
52.4500 1371.0000 1.0000
52.4600 1250.0000 1.0000
52.4700 1214.0000 1.0000
52.4800 1075.0000 1.0000
52.4900 1002.0000 1.0000
52.5000 957.0000 1.0000
52.5100 894.0000 1.0000
52.5200 803.0000 1.0000
52.5300 787.0000 1.0000
52.5400 697.0000 1.0000
52.5500 678.0000 1.0000
52.5600 621.0000 1.0000
52.5700 587.0000 1.0000
52.5800 610.0000 1.0000
52.5900 581.0000 1.0000
52.6000 524.0000 1.0000
52.6100 524.0000 1.0000
52.6200 501.0000 1.0000
52.6300 503.0000 1.0000
52.6400 490.0000 1.0000
52.6500 454.0000 1.0000
52.6600 439.0000 1.0000
52.6700 446.0000 1.0000
52.6800 416.0000 1.0000
52.6900 392.0000 1.0000
52.7000 451.0000 1.0000
52.7100 439.0000 1.0000
52.7200 405.0000 1.0000
52.7300 360.0000 1.0000
52.7400 371.0000 1.0000
52.7500 386.0000 1.0000
52.7600 342.0000 1.0000
52.7700 363.0000 1.0000
52.7800 380.0000 1.0000
52.7900 352.0000 1.0000
52.8000 392.0000 1.0000
52.8100 353.0000 1.0000
52.8200 353.0000 1.0000
52.8300 354.0000 1.0000
52.8400 344.0000 1.0000
52.8500 337.0000 1.0000
52.8600 339.0000 1.0000
52.8700 328.0000 1.0000
52.8800 343.0000 1.0000
52.8900 326.0000 1.0000
52.9000 319.0000 1.0000
52.9100 320.0000 1.0000
52.9200 318.0000 1.0000
52.9300 319.0000 1.0000
52.9400 354.0000 1.0000
52.9500 299.0000 1.0000
52.9600 302.0000 1.0000
52.9700 329.0000 1.0000
52.9800 321.0000 1.0000
52.9900 333.0000 1.0000
53.0000 345.0000 1.0000
53.0100 319.0000 1.0000
53.0200 308.0000 1.0000
53.0300 304.0000 1.0000
53.0400 322.0000 1.0000
53.0500 302.0000 1.0000
53.0600 307.0000 1.0000
53.0700 319.0000 1.0000
53.0800 315.0000 1.0000
53.0900 326.0000 1.0000
53.1000 331.0000 1.0000
53.1100 323.0000 1.0000
53.1200 289.0000 1.0000
53.1300 298.0000 1.0000
53.1400 327.0000 1.0000
53.1500 315.0000 1.0000
53.1600 317.0000 1.0000
53.1700 331.0000 1.0000
53.1800 329.0000 1.0000
53.1900 302.0000 1.0000
53.2000 295.0000 1.0000
53.2100 288.0000 1.0000
53.2200 286.0000 1.0000
53.2300 310.0000 1.0000
53.2400 287.0000 1.0000
53.2500 326.0000 1.0000
53.2600 330.0000 1.0000
53.2700 294.0000 1.0000
53.2800 284.0000 1.0000
53.2900 305.0000 1.0000
53.3000 323.0000 1.0000
53.3100 317.0000 1.0000
53.3200 318.0000 1.0000
53.3300 295.0000 1.0000
53.3400 293.0000 1.0000
53.3500 307.0000 1.0000
53.3600 331.0000 1.0000
53.3700 274.0000 1.0000
53.3800 286.0000 1.0000
53.3900 270.0000 1.0000
53.4000 308.0000 1.0000
53.4100 318.0000 1.0000
53.4200 293.0000 1.0000
53.4300 312.0000 1.0000
53.4400 316.0000 1.0000
53.4500 281.0000 1.0000
53.4600 285.0000 1.0000
53.4700 306.0000 1.0000
53.4800 321.0000 1.0000
53.4900 324.0000 1.0000
53.5000 274.0000 1.0000
53.5100 313.0000 1.0000
53.5200 324.0000 1.0000
53.5300 297.0000 1.0000
53.5400 297.0000 1.0000
53.5500 303.0000 1.0000
53.5600 272.0000 1.0000
53.5700 303.0000 1.0000
53.5800 288.0000 1.0000
53.5900 309.0000 1.0000
53.6000 306.0000 1.0000
53.6100 306.0000 1.0000
53.6200 284.0000 1.0000
53.6300 271.0000 1.0000
53.6400 317.0000 1.0000
53.6500 286.0000 1.0000
53.6600 301.0000 1.0000
53.6700 284.0000 1.0000
53.6800 311.0000 1.0000
53.6900 305.0000 1.0000
53.7000 275.0000 1.0000
53.7100 306.0000 1.0000
53.7200 288.0000 1.0000
53.7300 277.0000 1.0000
53.7400 309.0000 1.0000
53.7500 296.0000 1.0000
53.7600 317.0000 1.0000
53.7700 282.0000 1.0000
53.7800 291.0000 1.0000
53.7900 280.0000 1.0000
53.8000 282.0000 1.0000
53.8100 336.0000 1.0000
53.8200 309.0000 1.0000
53.8300 308.0000 1.0000
53.8400 313.0000 1.0000
53.8500 302.0000 1.0000
53.8600 275.0000 1.0000
53.8700 299.0000 1.0000
53.8800 292.0000 1.0000
53.8900 274.0000 1.0000
53.9000 306.0000 1.0000
53.9100 295.0000 1.0000
53.9200 318.0000 1.0000
53.9300 291.0000 1.0000
53.9400 301.0000 1.0000
53.9500 271.0000 1.0000
53.9600 300.0000 1.0000
53.9700 311.0000 1.0000
53.9800 308.0000 1.0000
53.9900 271.0000 1.0000
54.0000 281.0000 1.0000
54.0100 315.0000 1.0000
54.0200 278.0000 1.0000
54.0300 282.0000 1.0000
54.0400 299.0000 1.0000
54.0500 296.0000 1.0000
54.0600 279.0000 1.0000
54.0700 294.0000 1.0000
54.0800 294.0000 1.0000
54.0900 289.0000 1.0000
54.1000 282.0000 1.0000
54.1100 276.0000 1.0000
54.1200 283.0000 1.0000
54.1300 315.0000 1.0000
54.1400 310.0000 1.0000
54.1500 322.0000 1.0000
54.1600 285.0000 1.0000
54.1700 285.0000 1.0000
54.1800 275.0000 1.0000
54.1900 285.0000 1.0000
54.2000 306.0000 1.0000
54.2100 304.0000 1.0000
54.2200 281.0000 1.0000
54.2300 303.0000 1.0000
54.2400 316.0000 1.0000
54.2500 303.0000 1.0000
54.2600 292.0000 1.0000
54.2700 314.0000 1.0000
54.2800 292.0000 1.0000
54.2900 284.0000 1.0000
54.3000 294.0000 1.0000
54.3100 295.0000 1.0000
54.3200 256.0000 1.0000
54.3300 286.0000 1.0000
54.3400 287.0000 1.0000
54.3500 287.0000 1.0000
54.3600 277.0000 1.0000
54.3700 306.0000 1.0000
54.3800 281.0000 1.0000
54.3900 259.0000 1.0000
54.4000 320.0000 1.0000
54.4100 315.0000 1.0000
54.4200 298.0000 1.0000
54.4300 289.0000 1.0000
54.4400 321.0000 1.0000
54.4500 301.0000 1.0000
54.4600 304.0000 1.0000
54.4700 307.0000 1.0000
54.4800 300.0000 1.0000
54.4900 292.0000 1.0000
54.5000 275.0000 1.0000
54.5100 278.0000 1.0000
54.5200 314.0000 1.0000
54.5300 288.0000 1.0000
54.5400 288.0000 1.0000
54.5500 300.0000 1.0000
54.5600 308.0000 1.0000
54.5700 298.0000 1.0000
54.5800 299.0000 1.0000
54.5900 308.0000 1.0000
54.6000 323.0000 1.0000
54.6100 263.0000 1.0000
54.6200 275.0000 1.0000
54.6300 313.0000 1.0000
54.6400 302.0000 1.0000
54.6500 302.0000 1.0000
54.6600 290.0000 1.0000
54.6700 299.0000 1.0000
54.6800 274.0000 1.0000
54.6900 249.0000 1.0000
54.7000 282.0000 1.0000
54.7100 302.0000 1.0000
54.7200 318.0000 1.0000
54.7300 308.0000 1.0000
54.7400 306.0000 1.0000
54.7500 316.0000 1.0000
54.7600 295.0000 1.0000
54.7700 318.0000 1.0000
54.7800 288.0000 1.0000
54.7900 287.0000 1.0000
54.8000 295.0000 1.0000
54.8100 292.0000 1.0000
54.8200 307.0000 1.0000
54.8300 293.0000 1.0000
54.8400 317.0000 1.0000
54.8500 291.0000 1.0000
54.8600 296.0000 1.0000
54.8700 319.0000 1.0000
54.8800 319.0000 1.0000
54.8900 301.0000 1.0000
54.9000 308.0000 1.0000
54.9100 336.0000 1.0000
54.9200 311.0000 1.0000
54.9300 299.0000 1.0000
54.9400 314.0000 1.0000
54.9500 332.0000 1.0000
54.9600 302.0000 1.0000
54.9700 289.0000 1.0000
54.9800 299.0000 1.0000
54.9900 298.0000 1.0000
55.0000 331.0000 1.0000
55.0100 321.0000 1.0000
55.0200 301.0000 1.0000
55.0300 347.0000 1.0000
55.0400 323.0000 1.0000
55.0500 309.0000 1.0000
55.0600 308.0000 1.0000
55.0700 374.0000 1.0000
55.0800 347.0000 1.0000
55.0900 339.0000 1.0000
55.1000 371.0000 1.0000
55.1100 319.0000 1.0000
55.1200 377.0000 1.0000
55.1300 353.0000 1.0000
55.1400 356.0000 1.0000
55.1500 361.0000 1.0000
55.1600 363.0000 1.0000
55.1700 363.0000 1.0000
55.1800 360.0000 1.0000
55.1900 379.0000 1.0000
55.2000 386.0000 1.0000
55.2100 391.0000 1.0000
55.2200 437.0000 1.0000
55.2300 412.0000 1.0000
55.2400 405.0000 1.0000
55.2500 424.0000 1.0000
55.2600 425.0000 1.0000
55.2700 403.0000 1.0000
55.2800 445.0000 1.0000
55.2900 447.0000 1.0000
55.3000 440.0000 1.0000
55.3100 438.0000 1.0000
55.3200 455.0000 1.0000
55.3300 425.0000 1.0000
55.3400 453.0000 1.0000
55.3500 428.0000 1.0000
55.3600 423.0000 1.0000
55.3700 444.0000 1.0000
55.3800 400.0000 1.0000
55.3900 419.0000 1.0000
55.4000 424.0000 1.0000
55.4100 411.0000 1.0000
55.4200 440.0000 1.0000
55.4300 440.0000 1.0000
55.4400 400.0000 1.0000
55.4500 385.0000 1.0000
55.4600 371.0000 1.0000
55.4700 395.0000 1.0000
55.4800 395.0000 1.0000
55.4900 397.0000 1.0000
55.5000 387.0000 1.0000
55.5100 383.0000 1.0000
55.5200 362.0000 1.0000
55.5300 360.0000 1.0000
55.5400 348.0000 1.0000
55.5500 337.0000 1.0000
55.5600 339.0000 1.0000
55.5700 319.0000 1.0000
55.5800 324.0000 1.0000
55.5900 372.0000 1.0000
55.6000 362.0000 1.0000
55.6100 325.0000 1.0000
55.6200 339.0000 1.0000
55.6300 345.0000 1.0000
55.6400 304.0000 1.0000
55.6500 318.0000 1.0000
55.6600 302.0000 1.0000
55.6700 316.0000 1.0000
55.6800 297.0000 1.0000
55.6900 298.0000 1.0000
55.7000 293.0000 1.0000
55.7100 293.0000 1.0000
55.7200 300.0000 1.0000
55.7300 322.0000 1.0000
55.7400 336.0000 1.0000
55.7500 288.0000 1.0000
55.7600 301.0000 1.0000
55.7700 315.0000 1.0000
55.7800 292.0000 1.0000
55.7900 275.0000 1.0000
55.8000 266.0000 1.0000
55.8100 314.0000 1.0000
55.8200 304.0000 1.0000
55.8300 290.0000 1.0000
55.8400 281.0000 1.0000
55.8500 309.0000 1.0000
55.8600 311.0000 1.0000
55.8700 309.0000 1.0000
55.8800 299.0000 1.0000
55.8900 299.0000 1.0000
55.9000 295.0000 1.0000
55.9100 257.0000 1.0000
55.9200 256.0000 1.0000
55.9300 287.0000 1.0000
55.9400 277.0000 1.0000
55.9500 296.0000 1.0000
55.9600 298.0000 1.0000
55.9700 254.0000 1.0000
55.9800 282.0000 1.0000
55.9900 279.0000 1.0000
56.0000 304.0000 1.0000
56.0100 281.0000 1.0000
56.0200 250.0000 1.0000
56.0300 280.0000 1.0000
56.0400 312.0000 1.0000
56.0500 294.0000 1.0000
56.0600 305.0000 1.0000
56.0700 279.0000 1.0000
56.0800 272.0000 1.0000
56.0900 288.0000 1.0000
56.1000 296.0000 1.0000
56.1100 256.0000 1.0000
56.1200 292.0000 1.0000
56.1300 262.0000 1.0000
56.1400 277.0000 1.0000
56.1500 286.0000 1.0000
56.1600 264.0000 1.0000
56.1700 283.0000 1.0000
56.1800 274.0000 1.0000
56.1900 276.0000 1.0000
56.2000 283.0000 1.0000
56.2100 285.0000 1.0000
56.2200 293.0000 1.0000
56.2300 287.0000 1.0000
56.2400 269.0000 1.0000
56.2500 273.0000 1.0000
56.2600 298.0000 1.0000
56.2700 317.0000 1.0000
56.2800 292.0000 1.0000
56.2900 302.0000 1.0000
56.3000 285.0000 1.0000
56.3100 282.0000 1.0000
56.3200 268.0000 1.0000
56.3300 297.0000 1.0000
56.3400 284.0000 1.0000
56.3500 299.0000 1.0000
56.3600 293.0000 1.0000
56.3700 278.0000 1.0000
56.3800 272.0000 1.0000
56.3900 287.0000 1.0000
56.4000 307.0000 1.0000
56.4100 284.0000 1.0000
56.4200 265.0000 1.0000
56.4300 278.0000 1.0000
56.4400 289.0000 1.0000
56.4500 295.0000 1.0000
56.4600 266.0000 1.0000
56.4700 274.0000 1.0000
56.4800 282.0000 1.0000
56.4900 272.0000 1.0000
56.5000 275.0000 1.0000
56.5100 283.0000 1.0000
56.5200 265.0000 1.0000
56.5300 328.0000 1.0000
56.5400 320.0000 1.0000
56.5500 289.0000 1.0000
56.5600 295.0000 1.0000
56.5700 273.0000 1.0000
56.5800 279.0000 1.0000
56.5900 303.0000 1.0000
56.6000 283.0000 1.0000
56.6100 266.0000 1.0000
56.6200 266.0000 1.0000
56.6300 279.0000 1.0000
56.6400 276.0000 1.0000
56.6500 275.0000 1.0000
56.6600 290.0000 1.0000
56.6700 265.0000 1.0000
56.6800 278.0000 1.0000
56.6900 301.0000 1.0000
56.7000 297.0000 1.0000
56.7100 299.0000 1.0000
56.7200 297.0000 1.0000
56.7300 287.0000 1.0000
56.7400 295.0000 1.0000
56.7500 282.0000 1.0000
56.7600 287.0000 1.0000
56.7700 282.0000 1.0000
56.7800 264.0000 1.0000
56.7900 267.0000 1.0000
56.8000 262.0000 1.0000
56.8100 259.0000 1.0000
56.8200 262.0000 1.0000
56.8300 282.0000 1.0000
56.8400 275.0000 1.0000
56.8500 281.0000 1.0000
56.8600 265.0000 1.0000
56.8700 269.0000 1.0000
56.8800 301.0000 1.0000
56.8900 303.0000 1.0000
56.9000 286.0000 1.0000
56.9100 266.0000 1.0000
56.9200 256.0000 1.0000
56.9300 285.0000 1.0000
56.9400 285.0000 1.0000
56.9500 285.0000 1.0000
56.9600 284.0000 1.0000
56.9700 290.0000 1.0000
56.9800 301.0000 1.0000
56.9900 295.0000 1.0000
57.0000 270.0000 1.0000
57.0100 284.0000 1.0000
57.0200 274.0000 1.0000
57.0300 265.0000 1.0000
57.0400 267.0000 1.0000
57.0500 307.0000 1.0000
57.0600 288.0000 1.0000
57.0700 267.0000 1.0000
57.0800 298.0000 1.0000
57.0900 275.0000 1.0000
57.1000 292.0000 1.0000
57.1100 282.0000 1.0000
57.1200 284.0000 1.0000
57.1300 303.0000 1.0000
57.1400 297.0000 1.0000
57.1500 272.0000 1.0000
57.1600 252.0000 1.0000
57.1700 255.0000 1.0000
57.1800 291.0000 1.0000
57.1900 276.0000 1.0000
57.2000 265.0000 1.0000
57.2100 276.0000 1.0000
57.2200 268.0000 1.0000
57.2300 256.0000 1.0000
57.2400 271.0000 1.0000
57.2500 291.0000 1.0000
57.2600 272.0000 1.0000
57.2700 252.0000 1.0000
57.2800 258.0000 1.0000
57.2900 254.0000 1.0000
57.3000 254.0000 1.0000
57.3100 277.0000 1.0000
57.3200 312.0000 1.0000
57.3300 279.0000 1.0000
57.3400 276.0000 1.0000
57.3500 262.0000 1.0000
57.3600 284.0000 1.0000
57.3700 275.0000 1.0000
57.3800 270.0000 1.0000
57.3900 276.0000 1.0000
57.4000 282.0000 1.0000
57.4100 278.0000 1.0000
57.4200 265.0000 1.0000
57.4300 287.0000 1.0000
57.4400 286.0000 1.0000
57.4500 262.0000 1.0000
57.4600 297.0000 1.0000
57.4700 308.0000 1.0000
57.4800 254.0000 1.0000
57.4900 263.0000 1.0000
57.5000 268.0000 1.0000
57.5100 288.0000 1.0000
57.5200 271.0000 1.0000
57.5300 247.0000 1.0000
57.5400 281.0000 1.0000
57.5500 284.0000 1.0000
57.5600 265.0000 1.0000
57.5700 287.0000 1.0000
57.5800 281.0000 1.0000
57.5900 253.0000 1.0000
57.6000 268.0000 1.0000
57.6100 265.0000 1.0000
57.6200 268.0000 1.0000
57.6300 287.0000 1.0000
57.6400 257.0000 1.0000
57.6500 263.0000 1.0000
57.6600 263.0000 1.0000
57.6700 263.0000 1.0000
57.6800 276.0000 1.0000
57.6900 285.0000 1.0000
57.7000 292.0000 1.0000
57.7100 284.0000 1.0000
57.7200 276.0000 1.0000
57.7300 271.0000 1.0000
57.7400 311.0000 1.0000
57.7500 284.0000 1.0000
57.7600 287.0000 1.0000
57.7700 255.0000 1.0000
57.7800 262.0000 1.0000
57.7900 271.0000 1.0000
57.8000 285.0000 1.0000
57.8100 281.0000 1.0000
57.8200 277.0000 1.0000
57.8300 283.0000 1.0000
57.8400 297.0000 1.0000
57.8500 281.0000 1.0000
57.8600 259.0000 1.0000
57.8700 266.0000 1.0000
57.8800 263.0000 1.0000
57.8900 265.0000 1.0000
57.9000 289.0000 1.0000
57.9100 286.0000 1.0000
57.9200 282.0000 1.0000
57.9300 265.0000 1.0000
57.9400 296.0000 1.0000
57.9500 262.0000 1.0000
57.9600 292.0000 1.0000
57.9700 291.0000 1.0000
57.9800 294.0000 1.0000
57.9900 280.0000 1.0000
58.0000 281.0000 1.0000
58.0100 303.0000 1.0000
58.0200 291.0000 1.0000
58.0300 296.0000 1.0000
58.0400 301.0000 1.0000
58.0500 283.0000 1.0000
58.0600 289.0000 1.0000
58.0700 300.0000 1.0000
58.0800 262.0000 1.0000
58.0900 287.0000 1.0000
58.1000 304.0000 1.0000
58.1100 290.0000 1.0000
58.1200 278.0000 1.0000
58.1300 265.0000 1.0000
58.1400 310.0000 1.0000
58.1500 286.0000 1.0000
58.1600 300.0000 1.0000
58.1700 276.0000 1.0000
58.1800 344.0000 1.0000
58.1900 279.0000 1.0000
58.2000 313.0000 1.0000
58.2100 265.0000 1.0000
58.2200 287.0000 1.0000
58.2300 302.0000 1.0000
58.2400 316.0000 1.0000
58.2500 285.0000 1.0000
58.2600 276.0000 1.0000
58.2700 299.0000 1.0000
58.2800 281.0000 1.0000
58.2900 286.0000 1.0000
58.3000 268.0000 1.0000
58.3100 304.0000 1.0000
58.3200 295.0000 1.0000
58.3300 300.0000 1.0000
58.3400 268.0000 1.0000
58.3500 283.0000 1.0000
58.3600 288.0000 1.0000
58.3700 263.0000 1.0000
58.3800 257.0000 1.0000
58.3900 306.0000 1.0000
58.4000 278.0000 1.0000
58.4100 278.0000 1.0000
58.4200 287.0000 1.0000
58.4300 275.0000 1.0000
58.4400 281.0000 1.0000
58.4500 305.0000 1.0000
58.4600 286.0000 1.0000
58.4700 275.0000 1.0000
58.4800 268.0000 1.0000
58.4900 278.0000 1.0000
58.5000 296.0000 1.0000
58.5100 283.0000 1.0000
58.5200 268.0000 1.0000
58.5300 278.0000 1.0000
58.5400 262.0000 1.0000
58.5500 293.0000 1.0000
58.5600 272.0000 1.0000
58.5700 296.0000 1.0000
58.5800 266.0000 1.0000
58.5900 282.0000 1.0000
58.6000 260.0000 1.0000
58.6100 280.0000 1.0000
58.6200 266.0000 1.0000
58.6300 266.0000 1.0000
58.6400 282.0000 1.0000
58.6500 302.0000 1.0000
58.6600 295.0000 1.0000
58.6700 262.0000 1.0000
58.6800 279.0000 1.0000
58.6900 308.0000 1.0000
58.7000 304.0000 1.0000
58.7100 258.0000 1.0000
58.7200 275.0000 1.0000
58.7300 300.0000 1.0000
58.7400 284.0000 1.0000
58.7500 268.0000 1.0000
58.7600 302.0000 1.0000
58.7700 287.0000 1.0000
58.7800 289.0000 1.0000
58.7900 285.0000 1.0000
58.8000 265.0000 1.0000
58.8100 263.0000 1.0000
58.8200 300.0000 1.0000
58.8300 274.0000 1.0000
58.8400 280.0000 1.0000
58.8500 270.0000 1.0000
58.8600 298.0000 1.0000
58.8700 283.0000 1.0000
58.8800 306.0000 1.0000
58.8900 278.0000 1.0000
58.9000 285.0000 1.0000
58.9100 303.0000 1.0000
58.9200 295.0000 1.0000
58.9300 274.0000 1.0000
58.9400 253.0000 1.0000
58.9500 266.0000 1.0000
58.9600 290.0000 1.0000
58.9700 311.0000 1.0000
58.9800 270.0000 1.0000
58.9900 279.0000 1.0000
59.0000 247.0000 1.0000
59.0100 256.0000 1.0000
59.0200 284.0000 1.0000
59.0300 286.0000 1.0000
59.0400 261.0000 1.0000
59.0500 277.0000 1.0000
59.0600 277.0000 1.0000
59.0700 285.0000 1.0000
59.0800 280.0000 1.0000
59.0900 303.0000 1.0000
59.1000 280.0000 1.0000
59.1100 315.0000 1.0000
59.1200 297.0000 1.0000
59.1300 290.0000 1.0000
59.1400 285.0000 1.0000
59.1500 303.0000 1.0000
59.1600 268.0000 1.0000
59.1700 273.0000 1.0000
59.1800 269.0000 1.0000
59.1900 277.0000 1.0000
59.2000 279.0000 1.0000
59.2100 287.0000 1.0000
59.2200 283.0000 1.0000
59.2300 305.0000 1.0000
59.2400 283.0000 1.0000
59.2500 291.0000 1.0000
59.2600 301.0000 1.0000
59.2700 284.0000 1.0000
59.2800 288.0000 1.0000
59.2900 287.0000 1.0000
59.3000 279.0000 1.0000
59.3100 307.0000 1.0000
59.3200 287.0000 1.0000
59.3300 268.0000 1.0000
59.3400 287.0000 1.0000
59.3500 309.0000 1.0000
59.3600 301.0000 1.0000
59.3700 308.0000 1.0000
59.3800 288.0000 1.0000
59.3900 278.0000 1.0000
59.4000 265.0000 1.0000
59.4100 294.0000 1.0000
59.4200 279.0000 1.0000
59.4300 298.0000 1.0000
59.4400 322.0000 1.0000
59.4500 297.0000 1.0000
59.4600 293.0000 1.0000
59.4700 272.0000 1.0000
59.4800 325.0000 1.0000
59.4900 268.0000 1.0000
59.5000 271.0000 1.0000
59.5100 263.0000 1.0000
59.5200 286.0000 1.0000
59.5300 260.0000 1.0000
59.5400 271.0000 1.0000
59.5500 257.0000 1.0000
59.5600 278.0000 1.0000
59.5700 303.0000 1.0000
59.5800 273.0000 1.0000
59.5900 302.0000 1.0000
59.6000 273.0000 1.0000
59.6100 279.0000 1.0000
59.6200 284.0000 1.0000
59.6300 287.0000 1.0000
59.6400 297.0000 1.0000
59.6500 263.0000 1.0000
59.6600 264.0000 1.0000
59.6700 262.0000 1.0000
59.6800 290.0000 1.0000
59.6900 278.0000 1.0000
59.7000 282.0000 1.0000
59.7100 295.0000 1.0000
59.7200 288.0000 1.0000
59.7300 293.0000 1.0000
59.7400 291.0000 1.0000
59.7500 259.0000 1.0000
59.7600 259.0000 1.0000
59.7700 272.0000 1.0000
59.7800 258.0000 1.0000
59.7900 290.0000 1.0000
59.8000 275.0000 1.0000
59.8100 295.0000 1.0000
59.8200 290.0000 1.0000
59.8300 274.0000 1.0000
59.8400 277.0000 1.0000
59.8500 251.0000 1.0000
59.8600 287.0000 1.0000
59.8700 267.0000 1.0000
59.8800 261.0000 1.0000
59.8900 266.0000 1.0000
59.9000 259.0000 1.0000
59.9100 268.0000 1.0000
59.9200 286.0000 1.0000
59.9300 257.0000 1.0000
59.9400 264.0000 1.0000
59.9500 282.0000 1.0000
59.9600 282.0000 1.0000
59.9700 253.0000 1.0000
59.9800 297.0000 1.0000
59.9900 251.0000 1.0000
60.0000 279.0000 1.0000
60.0100 271.0000 1.0000
60.0200 274.0000 1.0000
60.0300 278.0000 1.0000
60.0400 293.0000 1.0000
60.0500 291.0000 1.0000
60.0600 266.0000 1.0000
60.0700 251.0000 1.0000
60.0800 298.0000 1.0000
60.0900 296.0000 1.0000
60.1000 292.0000 1.0000
60.1100 276.0000 1.0000
60.1200 266.0000 1.0000
60.1300 270.0000 1.0000
60.1400 271.0000 1.0000
60.1500 292.0000 1.0000
60.1600 287.0000 1.0000
60.1700 262.0000 1.0000
60.1800 264.0000 1.0000
60.1900 278.0000 1.0000
60.2000 261.0000 1.0000
60.2100 274.0000 1.0000
60.2200 262.0000 1.0000
60.2300 255.0000 1.0000
60.2400 285.0000 1.0000
60.2500 290.0000 1.0000
60.2600 282.0000 1.0000
60.2700 264.0000 1.0000
60.2800 280.0000 1.0000
60.2900 285.0000 1.0000
60.3000 299.0000 1.0000
60.3100 293.0000 1.0000
60.3200 268.0000 1.0000
60.3300 294.0000 1.0000
60.3400 253.0000 1.0000
60.3500 261.0000 1.0000
60.3600 287.0000 1.0000
60.3700 257.0000 1.0000
60.3800 275.0000 1.0000
60.3900 258.0000 1.0000
60.4000 297.0000 1.0000
60.4100 269.0000 1.0000
60.4200 290.0000 1.0000
60.4300 265.0000 1.0000
60.4400 296.0000 1.0000
60.4500 267.0000 1.0000
60.4600 284.0000 1.0000
60.4700 277.0000 1.0000
60.4800 276.0000 1.0000
60.4900 280.0000 1.0000
60.5000 259.0000 1.0000
60.5100 276.0000 1.0000
60.5200 280.0000 1.0000
60.5300 247.0000 1.0000
60.5400 272.0000 1.0000
60.5500 243.0000 1.0000
60.5600 263.0000 1.0000
60.5700 244.0000 1.0000
60.5800 264.0000 1.0000
60.5900 268.0000 1.0000
60.6000 304.0000 1.0000
60.6100 286.0000 1.0000
60.6200 265.0000 1.0000
60.6300 293.0000 1.0000
60.6400 273.0000 1.0000
60.6500 252.0000 1.0000
60.6600 267.0000 1.0000
60.6700 270.0000 1.0000
60.6800 269.0000 1.0000
60.6900 250.0000 1.0000
60.7000 275.0000 1.0000
60.7100 249.0000 1.0000
60.7200 286.0000 1.0000
60.7300 284.0000 1.0000
60.7400 254.0000 1.0000
60.7500 259.0000 1.0000
60.7600 291.0000 1.0000
60.7700 278.0000 1.0000
60.7800 258.0000 1.0000
60.7900 279.0000 1.0000
60.8000 270.0000 1.0000
60.8100 287.0000 1.0000
60.8200 305.0000 1.0000
60.8300 267.0000 1.0000
60.8400 273.0000 1.0000
60.8500 281.0000 1.0000
60.8600 257.0000 1.0000
60.8700 313.0000 1.0000
60.8800 271.0000 1.0000
60.8900 246.0000 1.0000
60.9000 287.0000 1.0000
60.9100 283.0000 1.0000
60.9200 299.0000 1.0000
60.9300 295.0000 1.0000
60.9400 270.0000 1.0000
60.9500 269.0000 1.0000
60.9600 282.0000 1.0000
60.9700 274.0000 1.0000
60.9800 292.0000 1.0000
60.9900 284.0000 1.0000
61.0000 286.0000 1.0000
61.0100 275.0000 1.0000
61.0200 278.0000 1.0000
61.0300 263.0000 1.0000
61.0400 268.0000 1.0000
61.0500 266.0000 1.0000
61.0600 298.0000 1.0000
61.0700 280.0000 1.0000
61.0800 297.0000 1.0000
61.0900 282.0000 1.0000
61.1000 275.0000 1.0000
61.1100 295.0000 1.0000
61.1200 279.0000 1.0000
61.1300 265.0000 1.0000
61.1400 289.0000 1.0000
61.1500 276.0000 1.0000
61.1600 270.0000 1.0000
61.1700 279.0000 1.0000
61.1800 283.0000 1.0000
61.1900 271.0000 1.0000
61.2000 290.0000 1.0000
61.2100 292.0000 1.0000
61.2200 275.0000 1.0000
61.2300 296.0000 1.0000
61.2400 274.0000 1.0000
61.2500 298.0000 1.0000
61.2600 269.0000 1.0000
61.2700 271.0000 1.0000
61.2800 304.0000 1.0000
61.2900 272.0000 1.0000
61.3000 271.0000 1.0000
61.3100 296.0000 1.0000
61.3200 296.0000 1.0000
61.3300 289.0000 1.0000
61.3400 284.0000 1.0000
61.3500 260.0000 1.0000
61.3600 268.0000 1.0000
61.3700 301.0000 1.0000
61.3800 282.0000 1.0000
61.3900 291.0000 1.0000
61.4000 293.0000 1.0000
61.4100 302.0000 1.0000
61.4200 268.0000 1.0000
61.4300 265.0000 1.0000
61.4400 251.0000 1.0000
61.4500 267.0000 1.0000
61.4600 269.0000 1.0000
61.4700 273.0000 1.0000
61.4800 321.0000 1.0000
61.4900 284.0000 1.0000
61.5000 287.0000 1.0000
61.5100 261.0000 1.0000
61.5200 256.0000 1.0000
61.5300 260.0000 1.0000
61.5400 284.0000 1.0000
61.5500 276.0000 1.0000
61.5600 281.0000 1.0000
61.5700 268.0000 1.0000
61.5800 289.0000 1.0000
61.5900 331.0000 1.0000
61.6000 320.0000 1.0000
61.6100 294.0000 1.0000
61.6200 321.0000 1.0000
61.6300 294.0000 1.0000
61.6400 315.0000 1.0000
61.6500 318.0000 1.0000
61.6600 266.0000 1.0000
61.6700 297.0000 1.0000
61.6800 290.0000 1.0000
61.6900 317.0000 1.0000
61.7000 300.0000 1.0000
61.7100 301.0000 1.0000
61.7200 291.0000 1.0000
61.7300 275.0000 1.0000
61.7400 275.0000 1.0000
61.7500 283.0000 1.0000
61.7600 290.0000 1.0000
61.7700 304.0000 1.0000
61.7800 336.0000 1.0000
61.7900 298.0000 1.0000
61.8000 342.0000 1.0000
61.8100 313.0000 1.0000
61.8200 293.0000 1.0000
61.8300 296.0000 1.0000
61.8400 319.0000 1.0000
61.8500 307.0000 1.0000
61.8600 299.0000 1.0000
61.8700 311.0000 1.0000
61.8800 300.0000 1.0000
61.8900 309.0000 1.0000
61.9000 309.0000 1.0000
61.9100 333.0000 1.0000
61.9200 312.0000 1.0000
61.9300 323.0000 1.0000
61.9400 347.0000 1.0000
61.9500 354.0000 1.0000
61.9600 330.0000 1.0000
61.9700 314.0000 1.0000
61.9800 357.0000 1.0000
61.9900 325.0000 1.0000
62.0000 360.0000 1.0000
62.0100 398.0000 1.0000
62.0200 355.0000 1.0000
62.0300 368.0000 1.0000
62.0400 341.0000 1.0000
62.0500 369.0000 1.0000
62.0600 385.0000 1.0000
62.0700 399.0000 1.0000
62.0800 390.0000 1.0000
62.0900 417.0000 1.0000
62.1000 391.0000 1.0000
62.1100 394.0000 1.0000
62.1200 383.0000 1.0000
62.1300 465.0000 1.0000
62.1400 464.0000 1.0000
62.1500 437.0000 1.0000
62.1600 476.0000 1.0000
62.1700 515.0000 1.0000
62.1800 514.0000 1.0000
62.1900 531.0000 1.0000
62.2000 530.0000 1.0000
62.2100 548.0000 1.0000
62.2200 571.0000 1.0000
62.2300 557.0000 1.0000
62.2400 571.0000 1.0000
62.2500 577.0000 1.0000
62.2600 572.0000 1.0000
62.2700 598.0000 1.0000
62.2800 600.0000 1.0000
62.2900 644.0000 1.0000
62.3000 634.0000 1.0000
62.3100 614.0000 1.0000
62.3200 588.0000 1.0000
62.3300 590.0000 1.0000
62.3400 596.0000 1.0000
62.3500 618.0000 1.0000
62.3600 596.0000 1.0000
62.3700 597.0000 1.0000
62.3800 589.0000 1.0000
62.3900 607.0000 1.0000
62.4000 616.0000 1.0000
62.4100 590.0000 1.0000
62.4200 562.0000 1.0000
62.4300 577.0000 1.0000
62.4400 544.0000 1.0000
62.4500 530.0000 1.0000
62.4600 515.0000 1.0000
62.4700 532.0000 1.0000
62.4800 559.0000 1.0000
62.4900 508.0000 1.0000
62.5000 531.0000 1.0000
62.5100 510.0000 1.0000
62.5200 492.0000 1.0000
62.5300 456.0000 1.0000
62.5400 424.0000 1.0000
62.5500 474.0000 1.0000
62.5600 448.0000 1.0000
62.5700 415.0000 1.0000
62.5800 430.0000 1.0000
62.5900 399.0000 1.0000
62.6000 414.0000 1.0000
62.6100 400.0000 1.0000
62.6200 395.0000 1.0000
62.6300 390.0000 1.0000
62.6400 382.0000 1.0000
62.6500 397.0000 1.0000
62.6600 370.0000 1.0000
62.6700 380.0000 1.0000
62.6800 375.0000 1.0000
62.6900 347.0000 1.0000
62.7000 367.0000 1.0000
62.7100 346.0000 1.0000
62.7200 355.0000 1.0000
62.7300 317.0000 1.0000
62.7400 328.0000 1.0000
62.7500 332.0000 1.0000
62.7600 342.0000 1.0000
62.7700 344.0000 1.0000
62.7800 328.0000 1.0000
62.7900 345.0000 1.0000
62.8000 309.0000 1.0000
62.8100 279.0000 1.0000
62.8200 300.0000 1.0000
62.8300 324.0000 1.0000
62.8400 313.0000 1.0000
62.8500 307.0000 1.0000
62.8600 303.0000 1.0000
62.8700 333.0000 1.0000
62.8800 317.0000 1.0000
62.8900 324.0000 1.0000
62.9000 288.0000 1.0000
62.9100 316.0000 1.0000
62.9200 327.0000 1.0000
62.9300 310.0000 1.0000
62.9400 302.0000 1.0000
62.9500 297.0000 1.0000
62.9600 305.0000 1.0000
62.9700 292.0000 1.0000
62.9800 318.0000 1.0000
62.9900 298.0000 1.0000
63.0000 293.0000 1.0000
63.0100 316.0000 1.0000
63.0200 314.0000 1.0000
63.0300 304.0000 1.0000
63.0400 293.0000 1.0000
63.0500 302.0000 1.0000
63.0600 308.0000 1.0000
63.0700 296.0000 1.0000
63.0800 300.0000 1.0000
63.0900 274.0000 1.0000
63.1000 265.0000 1.0000
63.1100 315.0000 1.0000
63.1200 311.0000 1.0000
63.1300 309.0000 1.0000
63.1400 290.0000 1.0000
63.1500 300.0000 1.0000
63.1600 290.0000 1.0000
63.1700 286.0000 1.0000
63.1800 297.0000 1.0000
63.1900 309.0000 1.0000
63.2000 284.0000 1.0000
63.2100 287.0000 1.0000
63.2200 304.0000 1.0000
63.2300 314.0000 1.0000
63.2400 324.0000 1.0000
63.2500 275.0000 1.0000
63.2600 305.0000 1.0000
63.2700 283.0000 1.0000
63.2800 291.0000 1.0000
63.2900 298.0000 1.0000
63.3000 281.0000 1.0000
63.3100 298.0000 1.0000
63.3200 289.0000 1.0000
63.3300 291.0000 1.0000
63.3400 314.0000 1.0000
63.3500 271.0000 1.0000
63.3600 280.0000 1.0000
63.3700 282.0000 1.0000
63.3800 286.0000 1.0000
63.3900 306.0000 1.0000
63.4000 302.0000 1.0000
63.4100 290.0000 1.0000
63.4200 288.0000 1.0000
63.4300 288.0000 1.0000
63.4400 289.0000 1.0000
63.4500 272.0000 1.0000
63.4600 277.0000 1.0000
63.4700 308.0000 1.0000
63.4800 285.0000 1.0000
63.4900 251.0000 1.0000
63.5000 266.0000 1.0000
63.5100 286.0000 1.0000
63.5200 264.0000 1.0000
63.5300 273.0000 1.0000
63.5400 279.0000 1.0000
63.5500 272.0000 1.0000
63.5600 279.0000 1.0000
63.5700 279.0000 1.0000
63.5800 292.0000 1.0000
63.5900 288.0000 1.0000
63.6000 268.0000 1.0000
63.6100 261.0000 1.0000
63.6200 261.0000 1.0000
63.6300 288.0000 1.0000
63.6400 301.0000 1.0000
63.6500 267.0000 1.0000
63.6600 259.0000 1.0000
63.6700 248.0000 1.0000
63.6800 273.0000 1.0000
63.6900 278.0000 1.0000
63.7000 281.0000 1.0000
63.7100 292.0000 1.0000
63.7200 258.0000 1.0000
63.7300 277.0000 1.0000
63.7400 290.0000 1.0000
63.7500 273.0000 1.0000
63.7600 294.0000 1.0000
63.7700 277.0000 1.0000
63.7800 300.0000 1.0000
63.7900 294.0000 1.0000
63.8000 308.0000 1.0000
63.8100 289.0000 1.0000
63.8200 294.0000 1.0000
63.8300 283.0000 1.0000
63.8400 276.0000 1.0000
63.8500 279.0000 1.0000
63.8600 273.0000 1.0000
63.8700 275.0000 1.0000
63.8800 260.0000 1.0000
63.8900 257.0000 1.0000
63.9000 303.0000 1.0000
63.9100 310.0000 1.0000
63.9200 277.0000 1.0000
63.9300 275.0000 1.0000
63.9400 271.0000 1.0000
63.9500 289.0000 1.0000
63.9600 300.0000 1.0000
63.9700 282.0000 1.0000
63.9800 297.0000 1.0000
63.9900 265.0000 1.0000
64.0000 280.0000 1.0000
64.0100 266.0000 1.0000
64.0200 292.0000 1.0000
64.0300 279.0000 1.0000
64.0400 279.0000 1.0000
64.0500 291.0000 1.0000
64.0600 297.0000 1.0000
64.0700 308.0000 1.0000
64.0800 303.0000 1.0000
64.0900 277.0000 1.0000
64.1000 281.0000 1.0000
64.1100 290.0000 1.0000
64.1200 292.0000 1.0000
64.1300 271.0000 1.0000
64.1400 260.0000 1.0000
64.1500 281.0000 1.0000
64.1600 303.0000 1.0000
64.1700 307.0000 1.0000
64.1800 287.0000 1.0000
64.1900 282.0000 1.0000
64.2000 281.0000 1.0000
64.2100 296.0000 1.0000
64.2200 285.0000 1.0000
64.2300 300.0000 1.0000
64.2400 280.0000 1.0000
64.2500 306.0000 1.0000
64.2600 288.0000 1.0000
64.2700 290.0000 1.0000
64.2800 308.0000 1.0000
64.2900 300.0000 1.0000
64.3000 272.0000 1.0000
64.3100 282.0000 1.0000
64.3200 276.0000 1.0000
64.3300 296.0000 1.0000
64.3400 280.0000 1.0000
64.3500 288.0000 1.0000
64.3600 255.0000 1.0000
64.3700 281.0000 1.0000
64.3800 270.0000 1.0000
64.3900 286.0000 1.0000
64.4000 320.0000 1.0000
64.4100 291.0000 1.0000
64.4200 314.0000 1.0000
64.4300 310.0000 1.0000
64.4400 315.0000 1.0000
64.4500 295.0000 1.0000
64.4600 332.0000 1.0000
64.4700 310.0000 1.0000
64.4800 300.0000 1.0000
64.4900 329.0000 1.0000
64.5000 321.0000 1.0000
64.5100 312.0000 1.0000
64.5200 323.0000 1.0000
64.5300 299.0000 1.0000
64.5400 294.0000 1.0000
64.5500 329.0000 1.0000
64.5600 326.0000 1.0000
64.5700 350.0000 1.0000
64.5800 320.0000 1.0000
64.5900 337.0000 1.0000
64.6000 342.0000 1.0000
64.6100 333.0000 1.0000
64.6200 325.0000 1.0000
64.6300 337.0000 1.0000
64.6400 351.0000 1.0000
64.6500 361.0000 1.0000
64.6600 360.0000 1.0000
64.6700 379.0000 1.0000
64.6800 375.0000 1.0000
64.6900 369.0000 1.0000
64.7000 371.0000 1.0000
64.7100 385.0000 1.0000
64.7200 384.0000 1.0000
64.7300 350.0000 1.0000
64.7400 373.0000 1.0000
64.7500 362.0000 1.0000
64.7600 360.0000 1.0000
64.7700 340.0000 1.0000
64.7800 332.0000 1.0000
64.7900 375.0000 1.0000
64.8000 358.0000 1.0000
64.8100 356.0000 1.0000
64.8200 349.0000 1.0000
64.8300 330.0000 1.0000
64.8400 339.0000 1.0000
64.8500 323.0000 1.0000
64.8600 370.0000 1.0000
64.8700 395.0000 1.0000
64.8800 365.0000 1.0000
64.8900 344.0000 1.0000
64.9000 321.0000 1.0000
64.9100 343.0000 1.0000
64.9200 337.0000 1.0000
64.9300 345.0000 1.0000
64.9400 358.0000 1.0000
64.9500 335.0000 1.0000
64.9600 341.0000 1.0000
64.9700 346.0000 1.0000
64.9800 310.0000 1.0000
64.9900 326.0000 1.0000
65.0000 312.0000 1.0000
65.0100 311.0000 1.0000
65.0200 320.0000 1.0000
65.0300 307.0000 1.0000
65.0400 289.0000 1.0000
65.0500 321.0000 1.0000
65.0600 299.0000 1.0000
65.0700 330.0000 1.0000
65.0800 318.0000 1.0000
65.0900 311.0000 1.0000
65.1000 305.0000 1.0000
65.1100 291.0000 1.0000
65.1200 295.0000 1.0000
65.1300 298.0000 1.0000
65.1400 302.0000 1.0000
65.1500 340.0000 1.0000
65.1600 303.0000 1.0000
65.1700 306.0000 1.0000
65.1800 284.0000 1.0000
65.1900 296.0000 1.0000
65.2000 283.0000 1.0000
65.2100 277.0000 1.0000
65.2200 294.0000 1.0000
65.2300 302.0000 1.0000
65.2400 271.0000 1.0000
65.2500 297.0000 1.0000
65.2600 307.0000 1.0000
65.2700 321.0000 1.0000
65.2800 314.0000 1.0000
65.2900 281.0000 1.0000
65.3000 308.0000 1.0000
65.3100 323.0000 1.0000
65.3200 302.0000 1.0000
65.3300 283.0000 1.0000
65.3400 302.0000 1.0000
65.3500 281.0000 1.0000
65.3600 273.0000 1.0000
65.3700 299.0000 1.0000
65.3800 313.0000 1.0000
65.3900 294.0000 1.0000
65.4000 298.0000 1.0000
65.4100 300.0000 1.0000
65.4200 296.0000 1.0000
65.4300 318.0000 1.0000
65.4400 280.0000 1.0000
65.4500 306.0000 1.0000
65.4600 288.0000 1.0000
65.4700 287.0000 1.0000
65.4800 281.0000 1.0000
65.4900 289.0000 1.0000
65.5000 303.0000 1.0000
65.5100 250.0000 1.0000
65.5200 292.0000 1.0000
65.5300 287.0000 1.0000
65.5400 280.0000 1.0000
65.5500 284.0000 1.0000
65.5600 283.0000 1.0000
65.5700 290.0000 1.0000
65.5800 302.0000 1.0000
65.5900 308.0000 1.0000
65.6000 279.0000 1.0000
65.6100 308.0000 1.0000
65.6200 307.0000 1.0000
65.6300 311.0000 1.0000
65.6400 311.0000 1.0000
65.6500 323.0000 1.0000
65.6600 321.0000 1.0000
65.6700 343.0000 1.0000
65.6800 297.0000 1.0000
65.6900 288.0000 1.0000
65.7000 301.0000 1.0000
65.7100 298.0000 1.0000
65.7200 334.0000 1.0000
65.7300 290.0000 1.0000
65.7400 291.0000 1.0000
65.7500 308.0000 1.0000
65.7600 279.0000 1.0000
65.7700 306.0000 1.0000
65.7800 332.0000 1.0000
65.7900 307.0000 1.0000
65.8000 313.0000 1.0000
65.8100 316.0000 1.0000
65.8200 303.0000 1.0000
65.8300 354.0000 1.0000
65.8400 348.0000 1.0000
65.8500 353.0000 1.0000
65.8600 317.0000 1.0000
65.8700 340.0000 1.0000
65.8800 337.0000 1.0000
65.8900 303.0000 1.0000
65.9000 326.0000 1.0000
65.9100 383.0000 1.0000
65.9200 362.0000 1.0000
65.9300 376.0000 1.0000
65.9400 358.0000 1.0000
65.9500 375.0000 1.0000
65.9600 400.0000 1.0000
65.9700 407.0000 1.0000
65.9800 396.0000 1.0000
65.9900 394.0000 1.0000
66.0000 451.0000 1.0000
66.0100 437.0000 1.0000
66.0200 444.0000 1.0000
66.0300 450.0000 1.0000
66.0400 443.0000 1.0000
66.0500 471.0000 1.0000
66.0600 503.0000 1.0000
66.0700 521.0000 1.0000
66.0800 518.0000 1.0000
66.0900 619.0000 1.0000
66.1000 597.0000 1.0000
66.1100 590.0000 1.0000
66.1200 649.0000 1.0000
66.1300 639.0000 1.0000
66.1400 671.0000 1.0000
66.1500 677.0000 1.0000
66.1600 716.0000 1.0000
66.1700 849.0000 1.0000
66.1800 822.0000 1.0000
66.1900 894.0000 1.0000
66.2000 903.0000 1.0000
66.2100 987.0000 1.0000
66.2200 1032.0000 1.0000
66.2300 1073.0000 1.0000
66.2400 1115.0000 1.0000
66.2500 1125.0000 1.0000
66.2600 1094.0000 1.0000
66.2700 1142.0000 1.0000
66.2800 1106.0000 1.0000
66.2900 1125.0000 1.0000
66.3000 1151.0000 1.0000
66.3100 1053.0000 1.0000
66.3200 1082.0000 1.0000
66.3300 1096.0000 1.0000
66.3400 1047.0000 1.0000
66.3500 1030.0000 1.0000
66.3600 926.0000 1.0000
66.3700 978.0000 1.0000
66.3800 993.0000 1.0000
66.3900 950.0000 1.0000
66.4000 966.0000 1.0000
66.4100 907.0000 1.0000
66.4200 915.0000 1.0000
66.4300 920.0000 1.0000
66.4400 882.0000 1.0000
66.4500 867.0000 1.0000
66.4600 867.0000 1.0000
66.4700 852.0000 1.0000
66.4800 827.0000 1.0000
66.4900 816.0000 1.0000
66.5000 771.0000 1.0000
66.5100 679.0000 1.0000
66.5200 677.0000 1.0000
66.5300 649.0000 1.0000
66.5400 672.0000 1.0000
66.5500 661.0000 1.0000
66.5600 578.0000 1.0000
66.5700 540.0000 1.0000
66.5800 568.0000 1.0000
66.5900 500.0000 1.0000
66.6000 553.0000 1.0000
66.6100 466.0000 1.0000
66.6200 442.0000 1.0000
66.6300 458.0000 1.0000
66.6400 433.0000 1.0000
66.6500 447.0000 1.0000
66.6600 430.0000 1.0000
66.6700 429.0000 1.0000
66.6800 418.0000 1.0000
66.6900 404.0000 1.0000
66.7000 405.0000 1.0000
66.7100 380.0000 1.0000
66.7200 384.0000 1.0000
66.7300 344.0000 1.0000
66.7400 340.0000 1.0000
66.7500 360.0000 1.0000
66.7600 348.0000 1.0000
66.7700 327.0000 1.0000
66.7800 359.0000 1.0000
66.7900 328.0000 1.0000
66.8000 331.0000 1.0000
66.8100 312.0000 1.0000
66.8200 311.0000 1.0000
66.8300 316.0000 1.0000
66.8400 281.0000 1.0000
66.8500 319.0000 1.0000
66.8600 334.0000 1.0000
66.8700 316.0000 1.0000
66.8800 318.0000 1.0000
66.8900 306.0000 1.0000
66.9000 309.0000 1.0000
66.9100 297.0000 1.0000
66.9200 301.0000 1.0000
66.9300 304.0000 1.0000
66.9400 305.0000 1.0000
66.9500 297.0000 1.0000
66.9600 295.0000 1.0000
66.9700 289.0000 1.0000
66.9800 275.0000 1.0000
66.9900 267.0000 1.0000
67.0000 281.0000 1.0000
67.0100 296.0000 1.0000
67.0200 302.0000 1.0000
67.0300 286.0000 1.0000
67.0400 279.0000 1.0000
67.0500 278.0000 1.0000
67.0600 313.0000 1.0000
67.0700 293.0000 1.0000
67.0800 272.0000 1.0000
67.0900 259.0000 1.0000
67.1000 267.0000 1.0000
67.1100 306.0000 1.0000
67.1200 257.0000 1.0000
67.1300 278.0000 1.0000
67.1400 288.0000 1.0000
67.1500 275.0000 1.0000
67.1600 282.0000 1.0000
67.1700 280.0000 1.0000
67.1800 296.0000 1.0000
67.1900 292.0000 1.0000
67.2000 263.0000 1.0000
67.2100 268.0000 1.0000
67.2200 277.0000 1.0000
67.2300 265.0000 1.0000
67.2400 263.0000 1.0000
67.2500 272.0000 1.0000
67.2600 276.0000 1.0000
67.2700 265.0000 1.0000
67.2800 249.0000 1.0000
67.2900 274.0000 1.0000
67.3000 283.0000 1.0000
67.3100 266.0000 1.0000
67.3200 269.0000 1.0000
67.3300 276.0000 1.0000
67.3400 263.0000 1.0000
67.3500 246.0000 1.0000
67.3600 292.0000 1.0000
67.3700 301.0000 1.0000
67.3800 267.0000 1.0000
67.3900 255.0000 1.0000
67.4000 271.0000 1.0000
67.4100 275.0000 1.0000
67.4200 276.0000 1.0000
67.4300 262.0000 1.0000
67.4400 239.0000 1.0000
67.4500 277.0000 1.0000
67.4600 275.0000 1.0000
67.4700 258.0000 1.0000
67.4800 272.0000 1.0000
67.4900 249.0000 1.0000
67.5000 256.0000 1.0000
67.5100 279.0000 1.0000
67.5200 267.0000 1.0000
67.5300 265.0000 1.0000
67.5400 253.0000 1.0000
67.5500 263.0000 1.0000
67.5600 272.0000 1.0000
67.5700 264.0000 1.0000
67.5800 256.0000 1.0000
67.5900 275.0000 1.0000
67.6000 255.0000 1.0000
67.6100 254.0000 1.0000
67.6200 275.0000 1.0000
67.6300 275.0000 1.0000
67.6400 274.0000 1.0000
67.6500 273.0000 1.0000
67.6600 261.0000 1.0000
67.6700 245.0000 1.0000
67.6800 270.0000 1.0000
67.6900 254.0000 1.0000
67.7000 266.0000 1.0000
67.7100 279.0000 1.0000
67.7200 260.0000 1.0000
67.7300 251.0000 1.0000
67.7400 226.0000 1.0000
67.7500 264.0000 1.0000
67.7600 270.0000 1.0000
67.7700 273.0000 1.0000
67.7800 250.0000 1.0000
67.7900 254.0000 1.0000
67.8000 265.0000 1.0000
67.8100 248.0000 1.0000
67.8200 268.0000 1.0000
67.8300 261.0000 1.0000
67.8400 238.0000 1.0000
67.8500 240.0000 1.0000
67.8600 256.0000 1.0000
67.8700 238.0000 1.0000
67.8800 224.0000 1.0000
67.8900 256.0000 1.0000
67.9000 253.0000 1.0000
67.9100 278.0000 1.0000
67.9200 264.0000 1.0000
67.9300 244.0000 1.0000
67.9400 234.0000 1.0000
67.9500 258.0000 1.0000
67.9600 266.0000 1.0000
67.9700 277.0000 1.0000
67.9800 258.0000 1.0000
67.9900 292.0000 1.0000
68.0000 251.0000 1.0000
68.0100 234.0000 1.0000
68.0200 265.0000 1.0000
68.0300 248.0000 1.0000
68.0400 246.0000 1.0000
68.0500 283.0000 1.0000
68.0600 256.0000 1.0000
68.0700 221.0000 1.0000
68.0800 250.0000 1.0000
68.0900 257.0000 1.0000
68.1000 257.0000 1.0000
68.1100 244.0000 1.0000
68.1200 269.0000 1.0000
68.1300 260.0000 1.0000
68.1400 235.0000 1.0000
68.1500 238.0000 1.0000
68.1600 269.0000 1.0000
68.1700 264.0000 1.0000
68.1800 260.0000 1.0000
68.1900 254.0000 1.0000
68.2000 265.0000 1.0000
68.2100 254.0000 1.0000
68.2200 250.0000 1.0000
68.2300 248.0000 1.0000
68.2400 256.0000 1.0000
68.2500 248.0000 1.0000
68.2600 259.0000 1.0000
68.2700 239.0000 1.0000
68.2800 219.0000 1.0000
68.2900 221.0000 1.0000
68.3000 252.0000 1.0000
68.3100 237.0000 1.0000
68.3200 254.0000 1.0000
68.3300 247.0000 1.0000
68.3400 236.0000 1.0000
68.3500 257.0000 1.0000
68.3600 260.0000 1.0000
68.3700 256.0000 1.0000
68.3800 287.0000 1.0000
68.3900 273.0000 1.0000
68.4000 255.0000 1.0000
68.4100 248.0000 1.0000
68.4200 266.0000 1.0000
68.4300 244.0000 1.0000
68.4400 245.0000 1.0000
68.4500 284.0000 1.0000
68.4600 250.0000 1.0000
68.4700 249.0000 1.0000
68.4800 241.0000 1.0000
68.4900 250.0000 1.0000
68.5000 267.0000 1.0000
68.5100 231.0000 1.0000
68.5200 238.0000 1.0000
68.5300 250.0000 1.0000
68.5400 252.0000 1.0000
68.5500 264.0000 1.0000
68.5600 243.0000 1.0000
68.5700 225.0000 1.0000
68.5800 252.0000 1.0000
68.5900 255.0000 1.0000
68.6000 257.0000 1.0000
68.6100 233.0000 1.0000
68.6200 260.0000 1.0000
68.6300 261.0000 1.0000
68.6400 246.0000 1.0000
68.6500 250.0000 1.0000
68.6600 260.0000 1.0000
68.6700 228.0000 1.0000
68.6800 274.0000 1.0000
68.6900 242.0000 1.0000
68.7000 235.0000 1.0000
68.7100 253.0000 1.0000
68.7200 250.0000 1.0000
68.7300 265.0000 1.0000
68.7400 262.0000 1.0000
68.7500 263.0000 1.0000
68.7600 242.0000 1.0000
68.7700 261.0000 1.0000
68.7800 246.0000 1.0000
68.7900 248.0000 1.0000
68.8000 244.0000 1.0000
68.8100 250.0000 1.0000
68.8200 252.0000 1.0000
68.8300 268.0000 1.0000
68.8400 250.0000 1.0000
68.8500 264.0000 1.0000
68.8600 268.0000 1.0000
68.8700 268.0000 1.0000
68.8800 242.0000 1.0000
68.8900 296.0000 1.0000
68.9000 227.0000 1.0000
68.9100 216.0000 1.0000
68.9200 248.0000 1.0000
68.9300 247.0000 1.0000
68.9400 255.0000 1.0000
68.9500 220.0000 1.0000
68.9600 251.0000 1.0000
68.9700 241.0000 1.0000
68.9800 256.0000 1.0000
68.9900 262.0000 1.0000
69.0000 252.0000 1.0000
69.0100 237.0000 1.0000
69.0200 228.0000 1.0000
69.0300 235.0000 1.0000
69.0400 249.0000 1.0000
69.0500 267.0000 1.0000
69.0600 258.0000 1.0000
69.0700 268.0000 1.0000
69.0800 241.0000 1.0000
69.0900 239.0000 1.0000
69.1000 260.0000 1.0000
69.1100 261.0000 1.0000
69.1200 263.0000 1.0000
69.1300 239.0000 1.0000
69.1400 240.0000 1.0000
69.1500 256.0000 1.0000
69.1600 241.0000 1.0000
69.1700 278.0000 1.0000
69.1800 253.0000 1.0000
69.1900 260.0000 1.0000
69.2000 251.0000 1.0000
69.2100 263.0000 1.0000
69.2200 240.0000 1.0000
69.2300 253.0000 1.0000
69.2400 274.0000 1.0000
69.2500 235.0000 1.0000
69.2600 239.0000 1.0000
69.2700 252.0000 1.0000
69.2800 239.0000 1.0000
69.2900 243.0000 1.0000
69.3000 253.0000 1.0000
69.3100 253.0000 1.0000
69.3200 241.0000 1.0000
69.3300 229.0000 1.0000
69.3400 249.0000 1.0000
69.3500 259.0000 1.0000
69.3600 239.0000 1.0000
69.3700 249.0000 1.0000
69.3800 245.0000 1.0000
69.3900 241.0000 1.0000
69.4000 271.0000 1.0000
69.4100 250.0000 1.0000
69.4200 224.0000 1.0000
69.4300 222.0000 1.0000
69.4400 259.0000 1.0000
69.4500 236.0000 1.0000
69.4600 225.0000 1.0000
69.4700 246.0000 1.0000
69.4800 265.0000 1.0000
69.4900 246.0000 1.0000
69.5000 235.0000 1.0000
69.5100 250.0000 1.0000
69.5200 236.0000 1.0000
69.5300 247.0000 1.0000
69.5400 243.0000 1.0000
69.5500 226.0000 1.0000
69.5600 239.0000 1.0000
69.5700 267.0000 1.0000
69.5800 246.0000 1.0000
69.5900 254.0000 1.0000
69.6000 246.0000 1.0000
69.6100 238.0000 1.0000
69.6200 256.0000 1.0000
69.6300 244.0000 1.0000
69.6400 238.0000 1.0000
69.6500 237.0000 1.0000
69.6600 245.0000 1.0000
69.6700 247.0000 1.0000
69.6800 255.0000 1.0000
69.6900 240.0000 1.0000
69.7000 247.0000 1.0000
69.7100 270.0000 1.0000
69.7200 232.0000 1.0000
69.7300 252.0000 1.0000
69.7400 258.0000 1.0000
69.7500 270.0000 1.0000
69.7600 249.0000 1.0000
69.7700 246.0000 1.0000
69.7800 240.0000 1.0000
69.7900 257.0000 1.0000
69.8000 264.0000 1.0000
69.8100 251.0000 1.0000
69.8200 235.0000 1.0000
69.8300 227.0000 1.0000
69.8400 239.0000 1.0000
69.8500 269.0000 1.0000
69.8600 239.0000 1.0000
69.8700 249.0000 1.0000
69.8800 261.0000 1.0000
69.8900 233.0000 1.0000
69.9000 252.0000 1.0000
69.9100 239.0000 1.0000
69.9200 271.0000 1.0000
69.9300 252.0000 1.0000
69.9400 230.0000 1.0000
69.9500 235.0000 1.0000
69.9600 252.0000 1.0000
69.9700 222.0000 1.0000
69.9800 257.0000 1.0000
69.9900 252.0000 1.0000
70.0000 255.0000 1.0000
*RAS_INT_END
*RAS_TEMPERATURE_START
*RAS_TEMPERATURE_END
*RAS_DATA_END
