*RAS_DATA_START
*RAS_HEADER_START
*DISP_FMT_X "%.2f"
*DISP_FMT_Y "%.0f"
*DISP_FULLSCALE "15310.0000000000"
*DISP_LINE_COLOR "255.0000000000"
*DISP_LINE_STYLE "0.0000000000"
*DISP_LINE_WIDTH "0.2500000000"
*DISP_NOTE "測定データ-1"
*DISP_OFFSET_Y "0.0000000000"
*DISP_PEAKSEARCH_UNIT_Y "cps"
*DISP_RANGE_BOTTOM "0.0000000000"
*DISP_RANGE_LEFT "20.0000000000"
*DISP_RANGE_LOGCUTOFF "0.0100000000"
*DISP_RANGE_RIGHT "70.0000000000"
*DISP_RANGE_TOP "15310.0000000000"
*DISP_SCALE_MODE_Y "0.0000000000"
*DISP_TAB_NAME "2θ/θ"
*DISP_TITLE_Y "強度"
*DISP_UNIT_Y "cps"
*DISP_WINDOW_NAME "MSG_MACROENGINE"
*FILE_COMMENT " "
*FILE_MD5 ""
*FILE_MEMO " "
*FILE_OPERATOR "Administrator"
*FILE_SAMPLE " "
*FILE_TYPE "RAS_RAW"
*FILE_USERGROUP "システムマネージャ"
*FILE_VERSION "1.0000000000"
*HW_ATTACHMENT_ID "ATT0025"
*HW_ATTACHMENT_NAME "標準|Standard"
*HW_COUNTER_ID-0 "CUT0025"
*HW_COUNTER_ID-1 "CUT0020"
*HW_COUNTER_ID-2 "CUT0020"
*HW_COUNTER_ID-3 "CSL0021"
*HW_COUNTER_ID-4 "CMC0021"
*HW_COUNTER_NAME-0 "D/teX Ultra|D/teX Ultra"
*HW_COUNTER_NAME-1 "None|None"
*HW_COUNTER_NAME-2 "None|None"
*HW_COUNTER_NAME-3 "BBM|BBM"
*HW_COUNTER_NAME-4 "検出器モノクロメータ|Detector monochromator"
*HW_COUNTER_SELECT_NAME "D/teX Ultra|D/teX Ultra"
*HW_GONIOMETER_ID "GON0023"
*HW_GONIOMETER_NAME "SmartLab|SmartLab"
*HW_GONIOMETER_RADIUS-0 "90.0"
*HW_GONIOMETER_RADIUS-1 "114.0"
*HW_GONIOMETER_RADIUS-2 "190.0"
*HW_GONIOMETER_RADIUS-3 "300.0"
*HW_GONIOMETER_RADIUS-4 "187.0"
*HW_GONIOMETER_RADIUS-5 "300.0"
*HW_GONIOMETER_RADIUS-6 "113.0"
*HW_GONIOMETER_RADIUS-7 "331.0"
*HW_I_OPT_ID-0 "CBO0021"
*HW_I_OPT_ID-1 "ICR0023"
*HW_I_OPT_ID-2 "ISL0021"
*HW_I_OPT_ID-3 "ISO0021"
*HW_I_OPT_ID-4 "IAD0021"
*HW_I_OPT_ID-5 "IPR0001"
*HW_I_OPT_NAME-0 "CBOユニット|CBO unit"
*HW_I_OPT_NAME-1 "標準入射光学ユニット|Standard incident optical unit"
*HW_I_OPT_NAME-2 "標準入射スリットボックス|Standard incident slit box"
*HW_I_OPT_NAME-3 "入射平行スリット|Incident parallel slit"
*HW_I_OPT_NAME-4 "長手制限スリット|Length limiting slit"
*HW_I_OPT_NAME-5 "None|None"
*HW_R_ATTENUATER_AUTOMODE "0"
*HW_R_OPT_ID-0 "RSS0021"
*HW_R_OPT_ID-1 "RCR0023"
*HW_R_OPT_ID-2 "RSO0021"
*HW_R_OPT_ID-3 "RRS0021"
*HW_R_OPT_ID-4 "ATN0021"
*HW_R_OPT_ID-5 "RFL0021"
*HW_R_OPT_ID-6 "RAD0021"
*HW_R_OPT_NAME-0 "標準受光スリットボックス1|Standard receiving slit box # 1"
*HW_R_OPT_NAME-1 "標準受光光学ユニット1|Standard receiving unit # 1"
*HW_R_OPT_NAME-2 "標準受光光学ユニット2|Standard receiving optical unit # 2"
*HW_R_OPT_NAME-3 "標準受光スリットボックス2|Standard receiving slit box # 2"
*HW_R_OPT_NAME-4 "標準アッテネータ|Standard Attenuator"
*HW_R_OPT_NAME-5 "Cu Kβ|Cu K-beta"
*HW_R_OPT_NAME-6 "調整用受光スリット|Alignment receiving slit"
*HW_SAMPLE_HOLDER_ID "SMP0023"
*HW_SAMPLE_HOLDER_NAME "標準Zステージ|Standard Z stage"
*HW_XG_CURRENT_MAX "50"
*HW_XG_CURRENT_MIN "2"
*HW_XG_CURRENT_RESOLUTION "1"
*HW_XG_CURRENT_UNIT "mA"
*HW_XG_FOCUS "1mm x 10mm"
*HW_XG_FOCUS_TYPE "Normal"
*HW_XG_ID ""
*HW_XG_NAME "3kW 封入管(ID:1200)|3kW Sealed tube(ID:1200)"
*HW_XG_TARGET_ATOMIC_NUMBER "29.0000000000"
*HW_XG_TARGET_NAME "Cu"
*HW_XG_TYPE "Hermetic"
*HW_XG_VOLTAGE_MAX "60"
*HW_XG_VOLTAGE_MIN "20"
*HW_XG_VOLTAGE_RESOLUTION "1"
*HW_XG_VOLTAGE_UNIT "kV"
*HW_XG_WATT_MAX "1.500"
*HW_XG_WATT_UNIT "kW"
*HW_XG_WAVE_LENGTH_ALPHA1 "1.540593"
*HW_XG_WAVE_LENGTH_ALPHA2 "1.544414"
*HW_XG_WAVE_LENGTH_BETA "1.392250"
*MEAS_COND_AXIS_NAME-0 "2θ/θ"
*MEAS_COND_AXIS_NAME-1 "2θ"
*MEAS_COND_AXIS_NAME-2 "ω"
*MEAS_COND_AXIS_NAME-3 "Z"
*MEAS_COND_AXIS_NAME-4 "2θ/ω"
*MEAS_COND_AXIS_NAME-5 "θs"
*MEAS_COND_AXIS_NAME-6 "θd"
*MEAS_COND_AXIS_NAME-7 "Ts"
*MEAS_COND_AXIS_NAME-8 "CBO選択スリット"
*MEAS_COND_AXIS_NAME-9 "M"
*MEAS_COND_AXIS_NAME-10 "入射平行スリット"
*MEAS_COND_AXIS_NAME-11 "入射スリット"
*MEAS_COND_AXIS_NAME-12 ""
*MEAS_COND_AXIS_NAME-13 "Zs"
*MEAS_COND_AXIS_NAME-14 "入射光学素子"
*MEAS_COND_AXIS_NAME-15 "長手制限スリット"
*MEAS_COND_AXIS_NAME-16 "センタースリット"
*MEAS_COND_AXIS_NAME-17 "フィルター"
*MEAS_COND_AXIS_NAME-18 "受光スリット1"
*MEAS_COND_AXIS_NAME-19 "受光スリット2"
*MEAS_COND_AXIS_NAME-20 "受光光学素子"
*MEAS_COND_AXIS_NAME-21 "受光平行スリット"
*MEAS_COND_AXIS_NAME-22 "調整用受光スリット"
*MEAS_COND_AXIS_NAME-23 ""
*MEAS_COND_AXIS_NAME-24 ""
*MEAS_COND_AXIS_NAME-25 "Zd"
*MEAS_COND_AXIS_NAME-26 "アッテネータ"
*MEAS_COND_AXIS_NAME-27 "検出器モノクロメータ"
*MEAS_COND_AXIS_NAME-28 "モノクロメータスリット"
*MEAS_COND_AXIS_NAME-29 "プライマリビーム"
*MEAS_COND_AXIS_NAME-30 "PHA"
*MEAS_COND_AXIS_NAME_INTERNAL-0 "TwoThetaTheta"
*MEAS_COND_AXIS_NAME_INTERNAL-1 "TwoTheta"
*MEAS_COND_AXIS_NAME_INTERNAL-2 "Omega"
*MEAS_COND_AXIS_NAME_INTERNAL-3 "Z"
*MEAS_COND_AXIS_NAME_INTERNAL-4 "TwoThetaOmega"
*MEAS_COND_AXIS_NAME_INTERNAL-5 "ThetaS"
*MEAS_COND_AXIS_NAME_INTERNAL-6 "ThetaD"
*MEAS_COND_AXIS_NAME_INTERNAL-7 "Ts"
*MEAS_COND_AXIS_NAME_INTERNAL-8 "CBO"
*MEAS_COND_AXIS_NAME_INTERNAL-9 "CBO-M"
*MEAS_COND_AXIS_NAME_INTERNAL-10 "IncidentSollerSlit"
*MEAS_COND_AXIS_NAME_INTERNAL-11 "IncidentSlitBox"
*MEAS_COND_AXIS_NAME_INTERNAL-12 "IncidentSlitBox-_Axis"
*MEAS_COND_AXIS_NAME_INTERNAL-13 "Zs"
*MEAS_COND_AXIS_NAME_INTERNAL-14 "IncidentMonochromator"
*MEAS_COND_AXIS_NAME_INTERNAL-15 "IncidentAxdSlit"
*MEAS_COND_AXIS_NAME_INTERNAL-16 "CenterSlit"
*MEAS_COND_AXIS_NAME_INTERNAL-17 "Filter"
*MEAS_COND_AXIS_NAME_INTERNAL-18 "ReceivingSlitBox1"
*MEAS_COND_AXIS_NAME_INTERNAL-19 "ReceivingSlitBox2"
*MEAS_COND_AXIS_NAME_INTERNAL-20 "ReceivingOptics"
*MEAS_COND_AXIS_NAME_INTERNAL-21 "ReceivingSollerSlit"
*MEAS_COND_AXIS_NAME_INTERNAL-22 "ReceivingAxdSlit"
*MEAS_COND_AXIS_NAME_INTERNAL-23 "ReceivingSlitBox1-_Axis"
*MEAS_COND_AXIS_NAME_INTERNAL-24 "ReceivingSlitBox2-_Axis"
*MEAS_COND_AXIS_NAME_INTERNAL-25 "ReceivingSlitBox2-Zd"
*MEAS_COND_AXIS_NAME_INTERNAL-26 "Attenuator"
*MEAS_COND_AXIS_NAME_INTERNAL-27 "CounterMonochromator"
*MEAS_COND_AXIS_NAME_INTERNAL-28 "CounterSlit"
*MEAS_COND_AXIS_NAME_INTERNAL-29 "IncidentPrimary"
*MEAS_COND_AXIS_NAME_INTERNAL-30 "PHA"
*MEAS_COND_AXIS_NAME_MAGICNO-0 "83951616.0000000000"
*MEAS_COND_AXIS_NAME_MAGICNO-1 "268632064.0000000000"
*MEAS_COND_AXIS_NAME_MAGICNO-2 "268500992.0000000000"
*MEAS_COND_AXIS_NAME_MAGICNO-3 "285278208.0000000000"
*MEAS_COND_AXIS_NAME_MAGICNO-4 "83951616.0000000000"
*MEAS_COND_AXIS_NAME_MAGICNO-5 "131072.0000000000"
*MEAS_COND_AXIS_NAME_MAGICNO-6 "131072.0000000000"
*MEAS_COND_AXIS_NAME_MAGICNO-7 "318898176.0000000000"
*MEAS_COND_AXIS_NAME_MAGICNO-8 "20971521.0000000000"
*MEAS_COND_AXIS_NAME_MAGICNO-9 "285343744.0000000000"
*MEAS_COND_AXIS_NAME_MAGICNO-10 "20971521.0000000000"
*MEAS_COND_AXIS_NAME_MAGICNO-11 "22020097.0000000000"
*MEAS_COND_AXIS_NAME_MAGICNO-12 "25165824.0000000000"
*MEAS_COND_AXIS_NAME_MAGICNO-13 "318898176.0000000000"
*MEAS_COND_AXIS_NAME_MAGICNO-14 "1.0000000000"
*MEAS_COND_AXIS_NAME_MAGICNO-15 "20971521.0000000000"
*MEAS_COND_AXIS_NAME_MAGICNO-16 "20971521.0000000000"
*MEAS_COND_AXIS_NAME_MAGICNO-17 "20971521.0000000000"
*MEAS_COND_AXIS_NAME_MAGICNO-18 "23068673.0000000000"
*MEAS_COND_AXIS_NAME_MAGICNO-19 "23068673.0000000000"
*MEAS_COND_AXIS_NAME_MAGICNO-20 "20971521.0000000000"
*MEAS_COND_AXIS_NAME_MAGICNO-21 "20971521.0000000000"
*MEAS_COND_AXIS_NAME_MAGICNO-22 "20971521.0000000000"
*MEAS_COND_AXIS_NAME_MAGICNO-23 "25165824.0000000000"
*MEAS_COND_AXIS_NAME_MAGICNO-24 "25165824.0000000000"
*MEAS_COND_AXIS_NAME_MAGICNO-25 "285343744.0000000000"
*MEAS_COND_AXIS_NAME_MAGICNO-26 "17301505.0000000000"
*MEAS_COND_AXIS_NAME_MAGICNO-27 "20971521.0000000000"
*MEAS_COND_AXIS_NAME_MAGICNO-28 "20971521.0000000000"
*MEAS_COND_AXIS_NAME_MAGICNO-29 "20971521.0000000000"
*MEAS_COND_AXIS_NAME_MAGICNO-30 "0.0000000000"
*MEAS_COND_AXIS_OFFSET-0 "-"
*MEAS_COND_AXIS_OFFSET-1 "-0.0310000000"
*MEAS_COND_AXIS_OFFSET-2 "0.5143000000"
*MEAS_COND_AXIS_OFFSET-3 "-"
*MEAS_COND_AXIS_OFFSET-4 "-"
*MEAS_COND_AXIS_OFFSET-5 "0.5143000000"
*MEAS_COND_AXIS_OFFSET-6 "-0.5453000000"
*MEAS_COND_AXIS_OFFSET-7 "-"
*MEAS_COND_AXIS_OFFSET-8 "-"
*MEAS_COND_AXIS_OFFSET-9 "-"
*MEAS_COND_AXIS_OFFSET-10 "-"
*MEAS_COND_AXIS_OFFSET-11 "-"
*MEAS_COND_AXIS_OFFSET-12 "-"
*MEAS_COND_AXIS_OFFSET-13 "-"
*MEAS_COND_AXIS_OFFSET-14 "-"
*MEAS_COND_AXIS_OFFSET-15 "-"
*MEAS_COND_AXIS_OFFSET-16 "-"
*MEAS_COND_AXIS_OFFSET-17 "-"
*MEAS_COND_AXIS_OFFSET-18 "-"
*MEAS_COND_AXIS_OFFSET-19 "-"
*MEAS_COND_AXIS_OFFSET-20 "-"
*MEAS_COND_AXIS_OFFSET-21 "-"
*MEAS_COND_AXIS_OFFSET-22 "-"
*MEAS_COND_AXIS_OFFSET-23 "-"
*MEAS_COND_AXIS_OFFSET-24 "-"
*MEAS_COND_AXIS_OFFSET-25 "-"
*MEAS_COND_AXIS_OFFSET-26 "-"
*MEAS_COND_AXIS_OFFSET-27 "-"
*MEAS_COND_AXIS_OFFSET-28 "-"
*MEAS_COND_AXIS_OFFSET-29 "-"
*MEAS_COND_AXIS_OFFSET-30 "-"
*MEAS_COND_AXIS_POSITION-0 "0.0000000000"
*MEAS_COND_AXIS_POSITION-1 "0.0000000000"
*MEAS_COND_AXIS_POSITION-2 "0.0000000000"
*MEAS_COND_AXIS_POSITION-3 "-2.9061800000"
*MEAS_COND_AXIS_POSITION-4 "0.0000000000"
*MEAS_COND_AXIS_POSITION-5 "0.0000000000"
*MEAS_COND_AXIS_POSITION-6 "0.0000000000"
*MEAS_COND_AXIS_POSITION-7 "-0.7498700000"
*MEAS_COND_AXIS_POSITION-8 "BB"
*MEAS_COND_AXIS_POSITION-9 "0.0000000000"
*MEAS_COND_AXIS_POSITION-10 "Soller_slit_5.0deg"
*MEAS_COND_AXIS_POSITION-11 "2/3deg"
*MEAS_COND_AXIS_POSITION-12 "2.2088000000"
*MEAS_COND_AXIS_POSITION-13 "-0.6412500000"
*MEAS_COND_AXIS_POSITION-14 "0.0000000000"
*MEAS_COND_AXIS_POSITION-15 "10.0mm"
*MEAS_COND_AXIS_POSITION-16 "None"
*MEAS_COND_AXIS_POSITION-17 "Cu_K-beta"
*MEAS_COND_AXIS_POSITION-18 "13.000mm"
*MEAS_COND_AXIS_POSITION-19 "13.000mm"
*MEAS_COND_AXIS_POSITION-20 "No_unit"
*MEAS_COND_AXIS_POSITION-21 "Soller_slit_5.0deg"
*MEAS_COND_AXIS_POSITION-22 "None"
*MEAS_COND_AXIS_POSITION-23 "13.0000000000"
*MEAS_COND_AXIS_POSITION-24 "13.0000000000"
*MEAS_COND_AXIS_POSITION-25 "0.0281300000"
*MEAS_COND_AXIS_POSITION-26 "Open"
*MEAS_COND_AXIS_POSITION-27 "None"
*MEAS_COND_AXIS_POSITION-28 "None"
*MEAS_COND_AXIS_POSITION-29 "None"
*MEAS_COND_AXIS_POSITION-30 "38.0000000000"
*MEAS_COND_AXIS_UNIT-0 "deg"
*MEAS_COND_AXIS_UNIT-1 "deg"
*MEAS_COND_AXIS_UNIT-2 "deg"
*MEAS_COND_AXIS_UNIT-3 "mm"
*MEAS_COND_AXIS_UNIT-4 "deg"
*MEAS_COND_AXIS_UNIT-5 "deg"
*MEAS_COND_AXIS_UNIT-6 "deg"
*MEAS_COND_AXIS_UNIT-7 "mm"
*MEAS_COND_AXIS_UNIT-8 ""
*MEAS_COND_AXIS_UNIT-9 "pulse"
*MEAS_COND_AXIS_UNIT-10 ""
*MEAS_COND_AXIS_UNIT-11 ""
*MEAS_COND_AXIS_UNIT-12 "mm"
*MEAS_COND_AXIS_UNIT-13 "mm"
*MEAS_COND_AXIS_UNIT-14 ""
*MEAS_COND_AXIS_UNIT-15 ""
*MEAS_COND_AXIS_UNIT-16 ""
*MEAS_COND_AXIS_UNIT-17 ""
*MEAS_COND_AXIS_UNIT-18 ""
*MEAS_COND_AXIS_UNIT-19 ""
*MEAS_COND_AXIS_UNIT-20 ""
*MEAS_COND_AXIS_UNIT-21 ""
*MEAS_COND_AXIS_UNIT-22 ""
*MEAS_COND_AXIS_UNIT-23 "mm"
*MEAS_COND_AXIS_UNIT-24 "mm"
*MEAS_COND_AXIS_UNIT-25 "mm"
*MEAS_COND_AXIS_UNIT-26 ""
*MEAS_COND_AXIS_UNIT-27 ""
*MEAS_COND_AXIS_UNIT-28 ""
*MEAS_COND_AXIS_UNIT-29 ""
*MEAS_COND_AXIS_UNIT-30 "div"
*MEAS_COND_COUNTER_CNTLOSS_CORR "0.0000000000"
*MEAS_COND_COUNTER_PHABASE "38.0000000000"
*MEAS_COND_COUNTER_PHAWINDOW "16.0000000000"
*MEAS_COND_COUNTER_PHA_UNIT "div"
*MEAS_COND_COUNTER_TAUDIFF "30.0000000000"
*MEAS_COND_COUNTER_TAUINT "0.0000000000"
*MEAS_COND_IRRADIATION_MODE "OFF"
*MEAS_COND_IRRADIATION_WIDTH ""
*MEAS_COND_OPT_ATTR "集中法"
*MEAS_COND_OPT_NAME "@集中法"
*MEAS_COND_UNSYMMETRIC_MODE "OFF"
*MEAS_COND_XG_CURRENT "30.0000000000"
*MEAS_COND_XG_VOLTAGE "40.0000000000"
*MEAS_COND_XG_WAVE_TYPE "Ka"
*MEAS_DATA_COUNT "5001.0000000000"
*MEAS_SCAN_AXIS_X "2θ/θ"
*MEAS_SCAN_AXIS_X_INTERNAL "TwoThetaTheta"
*MEAS_SCAN_END_TIME "12/20/22 18:15:52"
*MEAS_SCAN_MODE "CONTINUOUS"
*MEAS_SCAN_MONITOR "0"
*MEAS_SCAN_RESOLUTION_X "0.0002"
*MEAS_SCAN_SPEED "2.5"
*MEAS_SCAN_SPEED_UNIT "deg/min"
*MEAS_SCAN_START "20.0000000000"
*MEAS_SCAN_START_TIME "12/20/22 17:54:28"
*MEAS_SCAN_STEP "0.0100000000"
*MEAS_SCAN_STOP "70.0000000000"
*MEAS_SCAN_UNIT_X "deg"
*MEAS_SCAN_UNIT_Y "counts"
*RAS_HEADER_END
*RAS_INT_START
20.0000 960.0000 1.0000
20.0100 973.0000 1.0000
20.0200 978.0000 1.0000
20.0300 970.0000 1.0000
20.0400 965.0000 1.0000
20.0500 1031.0000 1.0000
20.0600 1006.0000 1.0000
20.0700 986.0000 1.0000
20.0800 982.0000 1.0000
20.0900 982.0000 1.0000
20.1000 969.0000 1.0000
20.1100 976.0000 1.0000
20.1200 1003.0000 1.0000
20.1300 957.0000 1.0000
20.1400 1073.0000 1.0000
20.1500 963.0000 1.0000
20.1600 984.0000 1.0000
20.1700 1038.0000 1.0000
20.1800 982.0000 1.0000
20.1900 1018.0000 1.0000
20.2000 961.0000 1.0000
20.2100 977.0000 1.0000
20.2200 980.0000 1.0000
20.2300 982.0000 1.0000
20.2400 1006.0000 1.0000
20.2500 1015.0000 1.0000
20.2600 964.0000 1.0000
20.2700 981.0000 1.0000
20.2800 983.0000 1.0000
20.2900 973.0000 1.0000
20.3000 965.0000 1.0000
20.3100 942.0000 1.0000
20.3200 960.0000 1.0000
20.3300 985.0000 1.0000
20.3400 974.0000 1.0000
20.3500 950.0000 1.0000
20.3600 926.0000 1.0000
20.3700 960.0000 1.0000
20.3800 1000.0000 1.0000
20.3900 1026.0000 1.0000
20.4000 975.0000 1.0000
20.4100 993.0000 1.0000
20.4200 975.0000 1.0000
20.4300 957.0000 1.0000
20.4400 976.0000 1.0000
20.4500 1006.0000 1.0000
20.4600 986.0000 1.0000
20.4700 961.0000 1.0000
20.4800 948.0000 1.0000
20.4900 975.0000 1.0000
20.5000 979.0000 1.0000
20.5100 965.0000 1.0000
20.5200 956.0000 1.0000
20.5300 972.0000 1.0000
20.5400 921.0000 1.0000
20.5500 933.0000 1.0000
20.5600 991.0000 1.0000
20.5700 946.0000 1.0000
20.5800 964.0000 1.0000
20.5900 947.0000 1.0000
20.6000 981.0000 1.0000
20.6100 1042.0000 1.0000
20.6200 1058.0000 1.0000
20.6300 1007.0000 1.0000
20.6400 993.0000 1.0000
20.6500 1009.0000 1.0000
20.6600 986.0000 1.0000
20.6700 995.0000 1.0000
20.6800 990.0000 1.0000
20.6900 984.0000 1.0000
20.7000 953.0000 1.0000
20.7100 975.0000 1.0000
20.7200 967.0000 1.0000
20.7300 958.0000 1.0000
20.7400 968.0000 1.0000
20.7500 958.0000 1.0000
20.7600 1010.0000 1.0000
20.7700 1008.0000 1.0000
20.7800 977.0000 1.0000
20.7900 959.0000 1.0000
20.8000 977.0000 1.0000
20.8100 951.0000 1.0000
20.8200 980.0000 1.0000
20.8300 979.0000 1.0000
20.8400 929.0000 1.0000
20.8500 987.0000 1.0000
20.8600 977.0000 1.0000
20.8700 970.0000 1.0000
20.8800 993.0000 1.0000
20.8900 976.0000 1.0000
20.9000 966.0000 1.0000
20.9100 993.0000 1.0000
20.9200 989.0000 1.0000
20.9300 1001.0000 1.0000
20.9400 959.0000 1.0000
20.9500 1016.0000 1.0000
20.9600 967.0000 1.0000
20.9700 948.0000 1.0000
20.9800 986.0000 1.0000
20.9900 974.0000 1.0000
21.0000 987.0000 1.0000
21.0100 980.0000 1.0000
21.0200 957.0000 1.0000
21.0300 975.0000 1.0000
21.0400 973.0000 1.0000
21.0500 974.0000 1.0000
21.0600 996.0000 1.0000
21.0700 1013.0000 1.0000
21.0800 1009.0000 1.0000
21.0900 964.0000 1.0000
21.1000 1011.0000 1.0000
21.1100 953.0000 1.0000
21.1200 895.0000 1.0000
21.1300 938.0000 1.0000
21.1400 1015.0000 1.0000
21.1500 992.0000 1.0000
21.1600 943.0000 1.0000
21.1700 965.0000 1.0000
21.1800 976.0000 1.0000
21.1900 990.0000 1.0000
21.2000 978.0000 1.0000
21.2100 995.0000 1.0000
21.2200 994.0000 1.0000
21.2300 940.0000 1.0000
21.2400 963.0000 1.0000
21.2500 936.0000 1.0000
21.2600 926.0000 1.0000
21.2700 984.0000 1.0000
21.2800 960.0000 1.0000
21.2900 961.0000 1.0000
21.3000 987.0000 1.0000
21.3100 975.0000 1.0000
21.3200 949.0000 1.0000
21.3300 957.0000 1.0000
21.3400 936.0000 1.0000
21.3500 948.0000 1.0000
21.3600 946.0000 1.0000
21.3700 966.0000 1.0000
21.3800 960.0000 1.0000
21.3900 939.0000 1.0000
21.4000 979.0000 1.0000
21.4100 1003.0000 1.0000
21.4200 960.0000 1.0000
21.4300 940.0000 1.0000
21.4400 921.0000 1.0000
21.4500 1000.0000 1.0000
21.4600 942.0000 1.0000
21.4700 972.0000 1.0000
21.4800 932.0000 1.0000
21.4900 935.0000 1.0000
21.5000 973.0000 1.0000
21.5100 1010.0000 1.0000
21.5200 979.0000 1.0000
21.5300 964.0000 1.0000
21.5400 1034.0000 1.0000
21.5500 994.0000 1.0000
21.5600 996.0000 1.0000
21.5700 918.0000 1.0000
21.5800 963.0000 1.0000
21.5900 997.0000 1.0000
21.6000 943.0000 1.0000
21.6100 953.0000 1.0000
21.6200 979.0000 1.0000
21.6300 962.0000 1.0000
21.6400 962.0000 1.0000
21.6500 1006.0000 1.0000
21.6600 1004.0000 1.0000
21.6700 990.0000 1.0000
21.6800 971.0000 1.0000
21.6900 1009.0000 1.0000
21.7000 1028.0000 1.0000
21.7100 930.0000 1.0000
21.7200 894.0000 1.0000
21.7300 976.0000 1.0000
21.7400 989.0000 1.0000
21.7500 938.0000 1.0000
21.7600 920.0000 1.0000
21.7700 951.0000 1.0000
21.7800 936.0000 1.0000
21.7900 950.0000 1.0000
21.8000 1013.0000 1.0000
21.8100 963.0000 1.0000
21.8200 947.0000 1.0000
21.8300 976.0000 1.0000
21.8400 943.0000 1.0000
21.8500 911.0000 1.0000
21.8600 937.0000 1.0000
21.8700 988.0000 1.0000
21.8800 1038.0000 1.0000
21.8900 949.0000 1.0000
21.9000 931.0000 1.0000
21.9100 1010.0000 1.0000
21.9200 1003.0000 1.0000
21.9300 984.0000 1.0000
21.9400 999.0000 1.0000
21.9500 993.0000 1.0000
21.9600 969.0000 1.0000
21.9700 992.0000 1.0000
21.9800 935.0000 1.0000
21.9900 942.0000 1.0000
22.0000 919.0000 1.0000
22.0100 950.0000 1.0000
22.0200 987.0000 1.0000
22.0300 910.0000 1.0000
22.0400 987.0000 1.0000
22.0500 926.0000 1.0000
22.0600 1017.0000 1.0000
22.0700 942.0000 1.0000
22.0800 941.0000 1.0000
22.0900 982.0000 1.0000
22.1000 953.0000 1.0000
22.1100 983.0000 1.0000
22.1200 996.0000 1.0000
22.1300 960.0000 1.0000
22.1400 1032.0000 1.0000
22.1500 936.0000 1.0000
22.1600 975.0000 1.0000
22.1700 932.0000 1.0000
22.1800 903.0000 1.0000
22.1900 952.0000 1.0000
22.2000 964.0000 1.0000
22.2100 944.0000 1.0000
22.2200 946.0000 1.0000
22.2300 973.0000 1.0000
22.2400 935.0000 1.0000
22.2500 990.0000 1.0000
22.2600 986.0000 1.0000
22.2700 950.0000 1.0000
22.2800 902.0000 1.0000
22.2900 938.0000 1.0000
22.3000 954.0000 1.0000
22.3100 953.0000 1.0000
22.3200 976.0000 1.0000
22.3300 979.0000 1.0000
22.3400 922.0000 1.0000
22.3500 979.0000 1.0000
22.3600 912.0000 1.0000
22.3700 919.0000 1.0000
22.3800 927.0000 1.0000
22.3900 972.0000 1.0000
22.4000 959.0000 1.0000
22.4100 912.0000 1.0000
22.4200 923.0000 1.0000
22.4300 928.0000 1.0000
22.4400 950.0000 1.0000
22.4500 966.0000 1.0000
22.4600 995.0000 1.0000
22.4700 972.0000 1.0000
22.4800 993.0000 1.0000
22.4900 929.0000 1.0000
22.5000 953.0000 1.0000
22.5100 947.0000 1.0000
22.5200 966.0000 1.0000
22.5300 938.0000 1.0000
22.5400 948.0000 1.0000
22.5500 959.0000 1.0000
22.5600 920.0000 1.0000
22.5700 944.0000 1.0000
22.5800 1031.0000 1.0000
22.5900 904.0000 1.0000
22.6000 948.0000 1.0000
22.6100 950.0000 1.0000
22.6200 986.0000 1.0000
22.6300 931.0000 1.0000
22.6400 918.0000 1.0000
22.6500 935.0000 1.0000
22.6600 930.0000 1.0000
22.6700 938.0000 1.0000
22.6800 962.0000 1.0000
22.6900 987.0000 1.0000
22.7000 908.0000 1.0000
22.7100 966.0000 1.0000
22.7200 924.0000 1.0000
22.7300 946.0000 1.0000
22.7400 963.0000 1.0000
22.7500 933.0000 1.0000
22.7600 935.0000 1.0000
22.7700 917.0000 1.0000
22.7800 921.0000 1.0000
22.7900 936.0000 1.0000
22.8000 950.0000 1.0000
22.8100 954.0000 1.0000
22.8200 937.0000 1.0000
22.8300 946.0000 1.0000
22.8400 918.0000 1.0000
22.8500 911.0000 1.0000
22.8600 943.0000 1.0000
22.8700 926.0000 1.0000
22.8800 943.0000 1.0000
22.8900 981.0000 1.0000
22.9000 906.0000 1.0000
22.9100 959.0000 1.0000
22.9200 940.0000 1.0000
22.9300 961.0000 1.0000
22.9400 933.0000 1.0000
22.9500 901.0000 1.0000
22.9600 951.0000 1.0000
22.9700 930.0000 1.0000
22.9800 904.0000 1.0000
22.9900 966.0000 1.0000
23.0000 941.0000 1.0000
23.0100 926.0000 1.0000
23.0200 943.0000 1.0000
23.0300 915.0000 1.0000
23.0400 941.0000 1.0000
23.0500 971.0000 1.0000
23.0600 933.0000 1.0000
23.0700 921.0000 1.0000
23.0800 922.0000 1.0000
23.0900 961.0000 1.0000
23.1000 946.0000 1.0000
23.1100 914.0000 1.0000
23.1200 919.0000 1.0000
23.1300 911.0000 1.0000
23.1400 929.0000 1.0000
23.1500 891.0000 1.0000
23.1600 928.0000 1.0000
23.1700 938.0000 1.0000
23.1800 880.0000 1.0000
23.1900 925.0000 1.0000
23.2000 882.0000 1.0000
23.2100 909.0000 1.0000
23.2200 881.0000 1.0000
23.2300 941.0000 1.0000
23.2400 944.0000 1.0000
23.2500 931.0000 1.0000
23.2600 919.0000 1.0000
23.2700 945.0000 1.0000
23.2800 958.0000 1.0000
23.2900 918.0000 1.0000
23.3000 950.0000 1.0000
23.3100 940.0000 1.0000
23.3200 911.0000 1.0000
23.3300 934.0000 1.0000
23.3400 907.0000 1.0000
23.3500 943.0000 1.0000
23.3600 963.0000 1.0000
23.3700 942.0000 1.0000
23.3800 930.0000 1.0000
23.3900 942.0000 1.0000
23.4000 921.0000 1.0000
23.4100 942.0000 1.0000
23.4200 962.0000 1.0000
23.4300 887.0000 1.0000
23.4400 894.0000 1.0000
23.4500 905.0000 1.0000
23.4600 918.0000 1.0000
23.4700 943.0000 1.0000
23.4800 909.0000 1.0000
23.4900 939.0000 1.0000
23.5000 957.0000 1.0000
23.5100 944.0000 1.0000
23.5200 919.0000 1.0000
23.5300 908.0000 1.0000
23.5400 926.0000 1.0000
23.5500 973.0000 1.0000
23.5600 932.0000 1.0000
23.5700 898.0000 1.0000
23.5800 896.0000 1.0000
23.5900 909.0000 1.0000
23.6000 917.0000 1.0000
23.6100 907.0000 1.0000
23.6200 941.0000 1.0000
23.6300 874.0000 1.0000
23.6400 913.0000 1.0000
23.6500 880.0000 1.0000
23.6600 907.0000 1.0000
23.6700 899.0000 1.0000
23.6800 896.0000 1.0000
23.6900 939.0000 1.0000
23.7000 898.0000 1.0000
23.7100 932.0000 1.0000
23.7200 936.0000 1.0000
23.7300 938.0000 1.0000
23.7400 953.0000 1.0000
23.7500 889.0000 1.0000
23.7600 916.0000 1.0000
23.7700 942.0000 1.0000
23.7800 929.0000 1.0000
23.7900 961.0000 1.0000
23.8000 975.0000 1.0000
23.8100 930.0000 1.0000
23.8200 937.0000 1.0000
23.8300 943.0000 1.0000
23.8400 937.0000 1.0000
23.8500 939.0000 1.0000
23.8600 980.0000 1.0000
23.8700 953.0000 1.0000
23.8800 985.0000 1.0000
23.8900 936.0000 1.0000
23.9000 965.0000 1.0000
23.9100 1008.0000 1.0000
23.9200 960.0000 1.0000
23.9300 970.0000 1.0000
23.9400 999.0000 1.0000
23.9500 956.0000 1.0000
23.9600 913.0000 1.0000
23.9700 921.0000 1.0000
23.9800 955.0000 1.0000
23.9900 995.0000 1.0000
24.0000 992.0000 1.0000
24.0100 1008.0000 1.0000
24.0200 1027.0000 1.0000
24.0300 1007.0000 1.0000
24.0400 999.0000 1.0000
24.0500 957.0000 1.0000
24.0600 972.0000 1.0000
24.0700 980.0000 1.0000
24.0800 1010.0000 1.0000
24.0900 975.0000 1.0000
24.1000 976.0000 1.0000
24.1100 1003.0000 1.0000
24.1200 992.0000 1.0000
24.1300 936.0000 1.0000
24.1400 935.0000 1.0000
24.1500 959.0000 1.0000
24.1600 992.0000 1.0000
24.1700 1015.0000 1.0000
24.1800 958.0000 1.0000
24.1900 950.0000 1.0000
24.2000 977.0000 1.0000
24.2100 949.0000 1.0000
24.2200 931.0000 1.0000
24.2300 938.0000 1.0000
24.2400 950.0000 1.0000
24.2500 941.0000 1.0000
24.2600 960.0000 1.0000
24.2700 947.0000 1.0000
24.2800 958.0000 1.0000
24.2900 952.0000 1.0000
24.3000 912.0000 1.0000
24.3100 964.0000 1.0000
24.3200 925.0000 1.0000
24.3300 886.0000 1.0000
24.3400 880.0000 1.0000
24.3500 918.0000 1.0000
24.3600 900.0000 1.0000
24.3700 946.0000 1.0000
24.3800 962.0000 1.0000
24.3900 942.0000 1.0000
24.4000 910.0000 1.0000
24.4100 950.0000 1.0000
24.4200 883.0000 1.0000
24.4300 915.0000 1.0000
24.4400 886.0000 1.0000
24.4500 931.0000 1.0000
24.4600 959.0000 1.0000
24.4700 890.0000 1.0000
24.4800 948.0000 1.0000
24.4900 964.0000 1.0000
24.5000 905.0000 1.0000
24.5100 873.0000 1.0000
24.5200 941.0000 1.0000
24.5300 923.0000 1.0000
24.5400 893.0000 1.0000
24.5500 887.0000 1.0000
24.5600 957.0000 1.0000
24.5700 938.0000 1.0000
24.5800 886.0000 1.0000
24.5900 887.0000 1.0000
24.6000 941.0000 1.0000
24.6100 926.0000 1.0000
24.6200 880.0000 1.0000
24.6300 871.0000 1.0000
24.6400 847.0000 1.0000
24.6500 942.0000 1.0000
24.6600 867.0000 1.0000
24.6700 907.0000 1.0000
24.6800 950.0000 1.0000
24.6900 909.0000 1.0000
24.7000 905.0000 1.0000
24.7100 896.0000 1.0000
24.7200 900.0000 1.0000
24.7300 874.0000 1.0000
24.7400 925.0000 1.0000
24.7500 909.0000 1.0000
24.7600 966.0000 1.0000
24.7700 959.0000 1.0000
24.7800 912.0000 1.0000
24.7900 939.0000 1.0000
24.8000 899.0000 1.0000
24.8100 948.0000 1.0000
24.8200 927.0000 1.0000
24.8300 896.0000 1.0000
24.8400 886.0000 1.0000
24.8500 870.0000 1.0000
24.8600 880.0000 1.0000
24.8700 881.0000 1.0000
24.8800 868.0000 1.0000
24.8900 941.0000 1.0000
24.9000 888.0000 1.0000
24.9100 864.0000 1.0000
24.9200 887.0000 1.0000
24.9300 915.0000 1.0000
24.9400 929.0000 1.0000
24.9500 904.0000 1.0000
24.9600 918.0000 1.0000
24.9700 867.0000 1.0000
24.9800 882.0000 1.0000
24.9900 955.0000 1.0000
25.0000 969.0000 1.0000
25.0100 866.0000 1.0000
25.0200 898.0000 1.0000
25.0300 901.0000 1.0000
25.0400 888.0000 1.0000
25.0500 929.0000 1.0000
25.0600 942.0000 1.0000
25.0700 879.0000 1.0000
25.0800 871.0000 1.0000
25.0900 869.0000 1.0000
25.1000 887.0000 1.0000
25.1100 917.0000 1.0000
25.1200 862.0000 1.0000
25.1300 858.0000 1.0000
25.1400 906.0000 1.0000
25.1500 866.0000 1.0000
25.1600 871.0000 1.0000
25.1700 860.0000 1.0000
25.1800 907.0000 1.0000
25.1900 910.0000 1.0000
25.2000 929.0000 1.0000
25.2100 895.0000 1.0000
25.2200 857.0000 1.0000
25.2300 850.0000 1.0000
25.2400 859.0000 1.0000
25.2500 866.0000 1.0000
25.2600 864.0000 1.0000
25.2700 871.0000 1.0000
25.2800 847.0000 1.0000
25.2900 886.0000 1.0000
25.3000 843.0000 1.0000
25.3100 927.0000 1.0000
25.3200 821.0000 1.0000
25.3300 872.0000 1.0000
25.3400 880.0000 1.0000
25.3500 908.0000 1.0000
25.3600 895.0000 1.0000
25.3700 888.0000 1.0000
25.3800 853.0000 1.0000
25.3900 923.0000 1.0000
25.4000 850.0000 1.0000
25.4100 867.0000 1.0000
25.4200 877.0000 1.0000
25.4300 877.0000 1.0000
25.4400 875.0000 1.0000
25.4500 912.0000 1.0000
25.4600 915.0000 1.0000
25.4700 902.0000 1.0000
25.4800 910.0000 1.0000
25.4900 925.0000 1.0000
25.5000 873.0000 1.0000
25.5100 926.0000 1.0000
25.5200 859.0000 1.0000
25.5300 933.0000 1.0000
25.5400 951.0000 1.0000
25.5500 908.0000 1.0000
25.5600 926.0000 1.0000
25.5700 921.0000 1.0000
25.5800 917.0000 1.0000
25.5900 924.0000 1.0000
25.6000 892.0000 1.0000
25.6100 926.0000 1.0000
25.6200 884.0000 1.0000
25.6300 953.0000 1.0000
25.6400 922.0000 1.0000
25.6500 906.0000 1.0000
25.6600 868.0000 1.0000
25.6700 867.0000 1.0000
25.6800 848.0000 1.0000
25.6900 883.0000 1.0000
25.7000 869.0000 1.0000
25.7100 902.0000 1.0000
25.7200 929.0000 1.0000
25.7300 926.0000 1.0000
25.7400 914.0000 1.0000
25.7500 951.0000 1.0000
25.7600 930.0000 1.0000
25.7700 884.0000 1.0000
25.7800 910.0000 1.0000
25.7900 918.0000 1.0000
25.8000 903.0000 1.0000
25.8100 901.0000 1.0000
25.8200 917.0000 1.0000
25.8300 939.0000 1.0000
25.8400 947.0000 1.0000
25.8500 930.0000 1.0000
25.8600 859.0000 1.0000
25.8700 907.0000 1.0000
25.8800 943.0000 1.0000
25.8900 944.0000 1.0000
25.9000 932.0000 1.0000
25.9100 924.0000 1.0000
25.9200 918.0000 1.0000
25.9300 916.0000 1.0000
25.9400 941.0000 1.0000
25.9500 951.0000 1.0000
25.9600 966.0000 1.0000
25.9700 949.0000 1.0000
25.9800 963.0000 1.0000
25.9900 976.0000 1.0000
26.0000 1052.0000 1.0000
26.0100 985.0000 1.0000
26.0200 1007.0000 1.0000
26.0300 998.0000 1.0000
26.0400 978.0000 1.0000
26.0500 1014.0000 1.0000
26.0600 1030.0000 1.0000
26.0700 1025.0000 1.0000
26.0800 1041.0000 1.0000
26.0900 1035.0000 1.0000
26.1000 1018.0000 1.0000
26.1100 1037.0000 1.0000
26.1200 1057.0000 1.0000
26.1300 1089.0000 1.0000
26.1400 1074.0000 1.0000
26.1500 1110.0000 1.0000
26.1600 1126.0000 1.0000
26.1700 1158.0000 1.0000
26.1800 1174.0000 1.0000
26.1900 1198.0000 1.0000
26.2000 1231.0000 1.0000
26.2100 1299.0000 1.0000
26.2200 1269.0000 1.0000
26.2300 1238.0000 1.0000
26.2400 1302.0000 1.0000
26.2500 1408.0000 1.0000
26.2600 1400.0000 1.0000
26.2700 1462.0000 1.0000
26.2800 1545.0000 1.0000
26.2900 1562.0000 1.0000
26.3000 1596.0000 1.0000
26.3100 1689.0000 1.0000
26.3200 1764.0000 1.0000
26.3300 1898.0000 1.0000
26.3400 1983.0000 1.0000
26.3500 2043.0000 1.0000
26.3600 2156.0000 1.0000
26.3700 2268.0000 1.0000
26.3800 2452.0000 1.0000
26.3900 2470.0000 1.0000
26.4000 2666.0000 1.0000
26.4100 2844.0000 1.0000
26.4200 2883.0000 1.0000
26.4300 2972.0000 1.0000
26.4400 3048.0000 1.0000
26.4500 3042.0000 1.0000
26.4600 3062.0000 1.0000
26.4700 3010.0000 1.0000
26.4800 2942.0000 1.0000
26.4900 2828.0000 1.0000
26.5000 2740.0000 1.0000
26.5100 2641.0000 1.0000
26.5200 2501.0000 1.0000
26.5300 2394.0000 1.0000
26.5400 2315.0000 1.0000
26.5500 2092.0000 1.0000
26.5600 2042.0000 1.0000
26.5700 2005.0000 1.0000
26.5800 1876.0000 1.0000
26.5900 1783.0000 1.0000
26.6000 1693.0000 1.0000
26.6100 1619.0000 1.0000
26.6200 1579.0000 1.0000
26.6300 1504.0000 1.0000
26.6400 1433.0000 1.0000
26.6500 1387.0000 1.0000
26.6600 1327.0000 1.0000
26.6700 1312.0000 1.0000
26.6800 1277.0000 1.0000
26.6900 1233.0000 1.0000
26.7000 1156.0000 1.0000
26.7100 1145.0000 1.0000
26.7200 1124.0000 1.0000
26.7300 1086.0000 1.0000
26.7400 1081.0000 1.0000
26.7500 1112.0000 1.0000
26.7600 1069.0000 1.0000
26.7700 1044.0000 1.0000
26.7800 1042.0000 1.0000
26.7900 993.0000 1.0000
26.8000 1040.0000 1.0000
26.8100 999.0000 1.0000
26.8200 991.0000 1.0000
26.8300 981.0000 1.0000
26.8400 994.0000 1.0000
26.8500 1028.0000 1.0000
26.8600 932.0000 1.0000
26.8700 982.0000 1.0000
26.8800 934.0000 1.0000
26.8900 954.0000 1.0000
26.9000 968.0000 1.0000
26.9100 902.0000 1.0000
26.9200 891.0000 1.0000
26.9300 933.0000 1.0000
26.9400 929.0000 1.0000
26.9500 892.0000 1.0000
26.9600 928.0000 1.0000
26.9700 880.0000 1.0000
26.9800 892.0000 1.0000
26.9900 917.0000 1.0000
27.0000 881.0000 1.0000
27.0100 888.0000 1.0000
27.0200 906.0000 1.0000
27.0300 897.0000 1.0000
27.0400 912.0000 1.0000
27.0500 921.0000 1.0000
27.0600 887.0000 1.0000
27.0700 894.0000 1.0000
27.0800 899.0000 1.0000
27.0900 921.0000 1.0000
27.1000 900.0000 1.0000
27.1100 915.0000 1.0000
27.1200 866.0000 1.0000
27.1300 858.0000 1.0000
27.1400 872.0000 1.0000
27.1500 861.0000 1.0000
27.1600 875.0000 1.0000
27.1700 892.0000 1.0000
27.1800 847.0000 1.0000
27.1900 853.0000 1.0000
27.2000 852.0000 1.0000
27.2100 818.0000 1.0000
27.2200 857.0000 1.0000
27.2300 849.0000 1.0000
27.2400 851.0000 1.0000
27.2500 905.0000 1.0000
27.2600 866.0000 1.0000
27.2700 870.0000 1.0000
27.2800 875.0000 1.0000
27.2900 875.0000 1.0000
27.3000 852.0000 1.0000
27.3100 845.0000 1.0000
27.3200 854.0000 1.0000
27.3300 791.0000 1.0000
27.3400 792.0000 1.0000
27.3500 813.0000 1.0000
27.3600 792.0000 1.0000
27.3700 824.0000 1.0000
27.3800 831.0000 1.0000
27.3900 849.0000 1.0000
27.4000 850.0000 1.0000
27.4100 813.0000 1.0000
27.4200 837.0000 1.0000
27.4300 796.0000 1.0000
27.4400 813.0000 1.0000
27.4500 803.0000 1.0000
27.4600 825.0000 1.0000
27.4700 833.0000 1.0000
27.4800 858.0000 1.0000
27.4900 814.0000 1.0000
27.5000 853.0000 1.0000
27.5100 813.0000 1.0000
27.5200 734.0000 1.0000
27.5300 800.0000 1.0000
27.5400 814.0000 1.0000
27.5500 774.0000 1.0000
27.5600 778.0000 1.0000
27.5700 804.0000 1.0000
27.5800 813.0000 1.0000
27.5900 835.0000 1.0000
27.6000 807.0000 1.0000
27.6100 772.0000 1.0000
27.6200 800.0000 1.0000
27.6300 801.0000 1.0000
27.6400 791.0000 1.0000
27.6500 840.0000 1.0000
27.6600 802.0000 1.0000
27.6700 788.0000 1.0000
27.6800 811.0000 1.0000
27.6900 818.0000 1.0000
27.7000 819.0000 1.0000
27.7100 795.0000 1.0000
27.7200 786.0000 1.0000
27.7300 751.0000 1.0000
27.7400 831.0000 1.0000
27.7500 802.0000 1.0000
27.7600 813.0000 1.0000
27.7700 786.0000 1.0000
27.7800 805.0000 1.0000
27.7900 831.0000 1.0000
27.8000 817.0000 1.0000
27.8100 790.0000 1.0000
27.8200 770.0000 1.0000
27.8300 836.0000 1.0000
27.8400 810.0000 1.0000
27.8500 836.0000 1.0000
27.8600 801.0000 1.0000
27.8700 775.0000 1.0000
27.8800 754.0000 1.0000
27.8900 779.0000 1.0000
27.9000 778.0000 1.0000
27.9100 772.0000 1.0000
27.9200 843.0000 1.0000
27.9300 817.0000 1.0000
27.9400 792.0000 1.0000
27.9500 751.0000 1.0000
27.9600 778.0000 1.0000
27.9700 774.0000 1.0000
27.9800 779.0000 1.0000
27.9900 787.0000 1.0000
28.0000 811.0000 1.0000
28.0100 800.0000 1.0000
28.0200 790.0000 1.0000
28.0300 725.0000 1.0000
28.0400 751.0000 1.0000
28.0500 747.0000 1.0000
28.0600 755.0000 1.0000
28.0700 783.0000 1.0000
28.0800 747.0000 1.0000
28.0900 770.0000 1.0000
28.1000 758.0000 1.0000
28.1100 765.0000 1.0000
28.1200 770.0000 1.0000
28.1300 763.0000 1.0000
28.1400 777.0000 1.0000
28.1500 755.0000 1.0000
28.1600 718.0000 1.0000
28.1700 774.0000 1.0000
28.1800 760.0000 1.0000
28.1900 764.0000 1.0000
28.2000 796.0000 1.0000
28.2100 756.0000 1.0000
28.2200 768.0000 1.0000
28.2300 784.0000 1.0000
28.2400 781.0000 1.0000
28.2500 743.0000 1.0000
28.2600 754.0000 1.0000
28.2700 814.0000 1.0000
28.2800 774.0000 1.0000
28.2900 732.0000 1.0000
28.3000 747.0000 1.0000
28.3100 766.0000 1.0000
28.3200 743.0000 1.0000
28.3300 784.0000 1.0000
28.3400 770.0000 1.0000
28.3500 714.0000 1.0000
28.3600 685.0000 1.0000
28.3700 786.0000 1.0000
28.3800 795.0000 1.0000
28.3900 797.0000 1.0000
28.4000 731.0000 1.0000
28.4100 741.0000 1.0000
28.4200 776.0000 1.0000
28.4300 757.0000 1.0000
28.4400 778.0000 1.0000
28.4500 777.0000 1.0000
28.4600 758.0000 1.0000
28.4700 753.0000 1.0000
28.4800 776.0000 1.0000
28.4900 734.0000 1.0000
28.5000 739.0000 1.0000
28.5100 749.0000 1.0000
28.5200 722.0000 1.0000
28.5300 750.0000 1.0000
28.5400 748.0000 1.0000
28.5500 752.0000 1.0000
28.5600 773.0000 1.0000
28.5700 751.0000 1.0000
28.5800 783.0000 1.0000
28.5900 693.0000 1.0000
28.6000 731.0000 1.0000
28.6100 732.0000 1.0000
28.6200 736.0000 1.0000
28.6300 724.0000 1.0000
28.6400 728.0000 1.0000
28.6500 719.0000 1.0000
28.6600 736.0000 1.0000
28.6700 799.0000 1.0000
28.6800 739.0000 1.0000
28.6900 757.0000 1.0000
28.7000 712.0000 1.0000
28.7100 744.0000 1.0000
28.7200 723.0000 1.0000
28.7300 720.0000 1.0000
28.7400 727.0000 1.0000
28.7500 772.0000 1.0000
28.7600 754.0000 1.0000
28.7700 733.0000 1.0000
28.7800 744.0000 1.0000
28.7900 783.0000 1.0000
28.8000 727.0000 1.0000
28.8100 763.0000 1.0000
28.8200 762.0000 1.0000
28.8300 742.0000 1.0000
28.8400 738.0000 1.0000
28.8500 704.0000 1.0000
28.8600 704.0000 1.0000
28.8700 744.0000 1.0000
28.8800 770.0000 1.0000
28.8900 709.0000 1.0000
28.9000 749.0000 1.0000
28.9100 754.0000 1.0000
28.9200 741.0000 1.0000
28.9300 757.0000 1.0000
28.9400 754.0000 1.0000
28.9500 696.0000 1.0000
28.9600 717.0000 1.0000
28.9700 745.0000 1.0000
28.9800 710.0000 1.0000
28.9900 698.0000 1.0000
29.0000 682.0000 1.0000
29.0100 663.0000 1.0000
29.0200 703.0000 1.0000
29.0300 759.0000 1.0000
29.0400 779.0000 1.0000
29.0500 733.0000 1.0000
29.0600 739.0000 1.0000
29.0700 738.0000 1.0000
29.0800 722.0000 1.0000
29.0900 706.0000 1.0000
29.1000 738.0000 1.0000
29.1100 739.0000 1.0000
29.1200 755.0000 1.0000
29.1300 794.0000 1.0000
29.1400 715.0000 1.0000
29.1500 721.0000 1.0000
29.1600 710.0000 1.0000
29.1700 709.0000 1.0000
29.1800 719.0000 1.0000
29.1900 694.0000 1.0000
29.2000 714.0000 1.0000
29.2100 748.0000 1.0000
29.2200 688.0000 1.0000
29.2300 711.0000 1.0000
29.2400 764.0000 1.0000
29.2500 748.0000 1.0000
29.2600 692.0000 1.0000
29.2700 691.0000 1.0000
29.2800 683.0000 1.0000
29.2900 723.0000 1.0000
29.3000 732.0000 1.0000
29.3100 690.0000 1.0000
29.3200 704.0000 1.0000
29.3300 719.0000 1.0000
29.3400 728.0000 1.0000
29.3500 745.0000 1.0000
29.3600 694.0000 1.0000
29.3700 706.0000 1.0000
29.3800 701.0000 1.0000
29.3900 712.0000 1.0000
29.4000 680.0000 1.0000
29.4100 702.0000 1.0000
29.4200 716.0000 1.0000
29.4300 681.0000 1.0000
29.4400 734.0000 1.0000
29.4500 694.0000 1.0000
29.4600 672.0000 1.0000
29.4700 665.0000 1.0000
29.4800 702.0000 1.0000
29.4900 729.0000 1.0000
29.5000 702.0000 1.0000
29.5100 727.0000 1.0000
29.5200 695.0000 1.0000
29.5300 683.0000 1.0000
29.5400 680.0000 1.0000
29.5500 720.0000 1.0000
29.5600 728.0000 1.0000
29.5700 686.0000 1.0000
29.5800 685.0000 1.0000
29.5900 685.0000 1.0000
29.6000 702.0000 1.0000
29.6100 688.0000 1.0000
29.6200 683.0000 1.0000
29.6300 736.0000 1.0000
29.6400 666.0000 1.0000
29.6500 651.0000 1.0000
29.6600 688.0000 1.0000
29.6700 660.0000 1.0000
29.6800 682.0000 1.0000
29.6900 681.0000 1.0000
29.7000 666.0000 1.0000
29.7100 704.0000 1.0000
29.7200 678.0000 1.0000
29.7300 707.0000 1.0000
29.7400 701.0000 1.0000
29.7500 670.0000 1.0000
29.7600 709.0000 1.0000
29.7700 719.0000 1.0000
29.7800 729.0000 1.0000
29.7900 707.0000 1.0000
29.8000 716.0000 1.0000
29.8100 692.0000 1.0000
29.8200 696.0000 1.0000
29.8300 638.0000 1.0000
29.8400 686.0000 1.0000
29.8500 690.0000 1.0000
29.8600 682.0000 1.0000
29.8700 697.0000 1.0000
29.8800 705.0000 1.0000
29.8900 675.0000 1.0000
29.9000 668.0000 1.0000
29.9100 657.0000 1.0000
29.9200 698.0000 1.0000
29.9300 652.0000 1.0000
29.9400 706.0000 1.0000
29.9500 717.0000 1.0000
29.9600 679.0000 1.0000
29.9700 646.0000 1.0000
29.9800 676.0000 1.0000
29.9900 700.0000 1.0000
30.0000 691.0000 1.0000
30.0100 724.0000 1.0000
30.0200 724.0000 1.0000
30.0300 643.0000 1.0000
30.0400 672.0000 1.0000
30.0500 689.0000 1.0000
30.0600 667.0000 1.0000
30.0700 671.0000 1.0000
30.0800 683.0000 1.0000
30.0900 646.0000 1.0000
30.1000 664.0000 1.0000
30.1100 652.0000 1.0000
30.1200 709.0000 1.0000
30.1300 712.0000 1.0000
30.1400 721.0000 1.0000
30.1500 695.0000 1.0000
30.1600 696.0000 1.0000
30.1700 676.0000 1.0000
30.1800 689.0000 1.0000
30.1900 705.0000 1.0000
30.2000 701.0000 1.0000
30.2100 647.0000 1.0000
30.2200 681.0000 1.0000
30.2300 700.0000 1.0000
30.2400 704.0000 1.0000
30.2500 680.0000 1.0000
30.2600 686.0000 1.0000
30.2700 683.0000 1.0000
30.2800 692.0000 1.0000
30.2900 677.0000 1.0000
30.3000 674.0000 1.0000
30.3100 638.0000 1.0000
30.3200 686.0000 1.0000
30.3300 676.0000 1.0000
30.3400 663.0000 1.0000
30.3500 686.0000 1.0000
30.3600 670.0000 1.0000
30.3700 675.0000 1.0000
30.3800 678.0000 1.0000
30.3900 692.0000 1.0000
30.4000 720.0000 1.0000
30.4100 670.0000 1.0000
30.4200 694.0000 1.0000
30.4300 741.0000 1.0000
30.4400 725.0000 1.0000
30.4500 662.0000 1.0000
30.4600 694.0000 1.0000
30.4700 694.0000 1.0000
30.4800 652.0000 1.0000
30.4900 649.0000 1.0000
30.5000 674.0000 1.0000
30.5100 678.0000 1.0000
30.5200 675.0000 1.0000
30.5300 683.0000 1.0000
30.5400 663.0000 1.0000
30.5500 661.0000 1.0000
30.5600 659.0000 1.0000
30.5700 681.0000 1.0000
30.5800 687.0000 1.0000
30.5900 644.0000 1.0000
30.6000 625.0000 1.0000
30.6100 657.0000 1.0000
30.6200 649.0000 1.0000
30.6300 662.0000 1.0000
30.6400 666.0000 1.0000
30.6500 652.0000 1.0000
30.6600 694.0000 1.0000
30.6700 652.0000 1.0000
30.6800 684.0000 1.0000
30.6900 654.0000 1.0000
30.7000 645.0000 1.0000
30.7100 620.0000 1.0000
30.7200 676.0000 1.0000
30.7300 658.0000 1.0000
30.7400 663.0000 1.0000
30.7500 661.0000 1.0000
30.7600 648.0000 1.0000
30.7700 660.0000 1.0000
30.7800 700.0000 1.0000
30.7900 676.0000 1.0000
30.8000 708.0000 1.0000
30.8100 702.0000 1.0000
30.8200 706.0000 1.0000
30.8300 685.0000 1.0000
30.8400 678.0000 1.0000
30.8500 673.0000 1.0000
30.8600 660.0000 1.0000
30.8700 659.0000 1.0000
30.8800 683.0000 1.0000
30.8900 644.0000 1.0000
30.9000 680.0000 1.0000
30.9100 662.0000 1.0000
30.9200 647.0000 1.0000
30.9300 675.0000 1.0000
30.9400 680.0000 1.0000
30.9500 694.0000 1.0000
30.9600 656.0000 1.0000
30.9700 684.0000 1.0000
30.9800 669.0000 1.0000
30.9900 700.0000 1.0000
31.0000 695.0000 1.0000
31.0100 671.0000 1.0000
31.0200 658.0000 1.0000
31.0300 655.0000 1.0000
31.0400 643.0000 1.0000
31.0500 635.0000 1.0000
31.0600 674.0000 1.0000
31.0700 641.0000 1.0000
31.0800 668.0000 1.0000
31.0900 689.0000 1.0000
31.1000 688.0000 1.0000
31.1100 699.0000 1.0000
31.1200 675.0000 1.0000
31.1300 689.0000 1.0000
31.1400 698.0000 1.0000
31.1500 694.0000 1.0000
31.1600 720.0000 1.0000
31.1700 750.0000 1.0000
31.1800 696.0000 1.0000
31.1900 684.0000 1.0000
31.2000 700.0000 1.0000
31.2100 686.0000 1.0000
31.2200 685.0000 1.0000
31.2300 666.0000 1.0000
31.2400 680.0000 1.0000
31.2500 674.0000 1.0000
31.2600 668.0000 1.0000
31.2700 682.0000 1.0000
31.2800 640.0000 1.0000
31.2900 663.0000 1.0000
31.3000 694.0000 1.0000
31.3100 670.0000 1.0000
31.3200 660.0000 1.0000
31.3300 667.0000 1.0000
31.3400 646.0000 1.0000
31.3500 665.0000 1.0000
31.3600 649.0000 1.0000
31.3700 666.0000 1.0000
31.3800 656.0000 1.0000
31.3900 673.0000 1.0000
31.4000 697.0000 1.0000
31.4100 653.0000 1.0000
31.4200 659.0000 1.0000
31.4300 657.0000 1.0000
31.4400 644.0000 1.0000
31.4500 654.0000 1.0000
31.4600 639.0000 1.0000
31.4700 648.0000 1.0000
31.4800 667.0000 1.0000
31.4900 629.0000 1.0000
31.5000 686.0000 1.0000
31.5100 669.0000 1.0000
31.5200 675.0000 1.0000
31.5300 704.0000 1.0000
31.5400 672.0000 1.0000
31.5500 673.0000 1.0000
31.5600 649.0000 1.0000
31.5700 646.0000 1.0000
31.5800 669.0000 1.0000
31.5900 699.0000 1.0000
31.6000 685.0000 1.0000
31.6100 668.0000 1.0000
31.6200 660.0000 1.0000
31.6300 653.0000 1.0000
31.6400 637.0000 1.0000
31.6500 668.0000 1.0000
31.6600 691.0000 1.0000
31.6700 647.0000 1.0000
31.6800 659.0000 1.0000
31.6900 641.0000 1.0000
31.7000 671.0000 1.0000
31.7100 634.0000 1.0000
31.7200 649.0000 1.0000
31.7300 652.0000 1.0000
31.7400 676.0000 1.0000
31.7500 672.0000 1.0000
31.7600 671.0000 1.0000
31.7700 669.0000 1.0000
31.7800 624.0000 1.0000
31.7900 653.0000 1.0000
31.8000 658.0000 1.0000
31.8100 645.0000 1.0000
31.8200 667.0000 1.0000
31.8300 686.0000 1.0000
31.8400 638.0000 1.0000
31.8500 652.0000 1.0000
31.8600 632.0000 1.0000
31.8700 634.0000 1.0000
31.8800 645.0000 1.0000
31.8900 691.0000 1.0000
31.9000 656.0000 1.0000
31.9100 672.0000 1.0000
31.9200 652.0000 1.0000
31.9300 653.0000 1.0000
31.9400 643.0000 1.0000
31.9500 630.0000 1.0000
31.9600 662.0000 1.0000
31.9700 682.0000 1.0000
31.9800 669.0000 1.0000
31.9900 681.0000 1.0000
32.0000 654.0000 1.0000
32.0100 653.0000 1.0000
32.0200 634.0000 1.0000
32.0300 636.0000 1.0000
32.0400 626.0000 1.0000
32.0500 647.0000 1.0000
32.0600 672.0000 1.0000
32.0700 650.0000 1.0000
32.0800 652.0000 1.0000
32.0900 664.0000 1.0000
32.1000 664.0000 1.0000
32.1100 668.0000 1.0000
32.1200 641.0000 1.0000
32.1300 665.0000 1.0000
32.1400 668.0000 1.0000
32.1500 626.0000 1.0000
32.1600 621.0000 1.0000
32.1700 648.0000 1.0000
32.1800 635.0000 1.0000
32.1900 656.0000 1.0000
32.2000 674.0000 1.0000
32.2100 649.0000 1.0000
32.2200 655.0000 1.0000
32.2300 682.0000 1.0000
32.2400 630.0000 1.0000
32.2500 647.0000 1.0000
32.2600 672.0000 1.0000
32.2700 660.0000 1.0000
32.2800 646.0000 1.0000
32.2900 629.0000 1.0000
32.3000 660.0000 1.0000
32.3100 640.0000 1.0000
32.3200 686.0000 1.0000
32.3300 631.0000 1.0000
32.3400 619.0000 1.0000
32.3500 625.0000 1.0000
32.3600 668.0000 1.0000
32.3700 671.0000 1.0000
32.3800 653.0000 1.0000
32.3900 657.0000 1.0000
32.4000 636.0000 1.0000
32.4100 633.0000 1.0000
32.4200 664.0000 1.0000
32.4300 675.0000 1.0000
32.4400 630.0000 1.0000
32.4500 635.0000 1.0000
32.4600 618.0000 1.0000
32.4700 615.0000 1.0000
32.4800 639.0000 1.0000
32.4900 681.0000 1.0000
32.5000 640.0000 1.0000
32.5100 632.0000 1.0000
32.5200 697.0000 1.0000
32.5300 619.0000 1.0000
32.5400 626.0000 1.0000
32.5500 688.0000 1.0000
32.5600 668.0000 1.0000
32.5700 654.0000 1.0000
32.5800 632.0000 1.0000
32.5900 631.0000 1.0000
32.6000 639.0000 1.0000
32.6100 632.0000 1.0000
32.6200 630.0000 1.0000
32.6300 618.0000 1.0000
32.6400 618.0000 1.0000
32.6500 622.0000 1.0000
32.6600 618.0000 1.0000
32.6700 635.0000 1.0000
32.6800 647.0000 1.0000
32.6900 676.0000 1.0000
32.7000 610.0000 1.0000
32.7100 638.0000 1.0000
32.7200 626.0000 1.0000
32.7300 649.0000 1.0000
32.7400 667.0000 1.0000
32.7500 671.0000 1.0000
32.7600 638.0000 1.0000
32.7700 650.0000 1.0000
32.7800 616.0000 1.0000
32.7900 655.0000 1.0000
32.8000 626.0000 1.0000
32.8100 661.0000 1.0000
32.8200 624.0000 1.0000
32.8300 623.0000 1.0000
32.8400 650.0000 1.0000
32.8500 653.0000 1.0000
32.8600 626.0000 1.0000
32.8700 631.0000 1.0000
32.8800 677.0000 1.0000
32.8900 683.0000 1.0000
32.9000 669.0000 1.0000
32.9100 709.0000 1.0000
32.9200 730.0000 1.0000
32.9300 717.0000 1.0000
32.9400 663.0000 1.0000
32.9500 677.0000 1.0000
32.9600 692.0000 1.0000
32.9700 710.0000 1.0000
32.9800 701.0000 1.0000
32.9900 710.0000 1.0000
33.0000 713.0000 1.0000
33.0100 721.0000 1.0000
33.0200 704.0000 1.0000
33.0300 719.0000 1.0000
33.0400 731.0000 1.0000
33.0500 767.0000 1.0000
33.0600 773.0000 1.0000
33.0700 725.0000 1.0000
33.0800 748.0000 1.0000
33.0900 758.0000 1.0000
33.1000 803.0000 1.0000
33.1100 794.0000 1.0000
33.1200 782.0000 1.0000
33.1300 785.0000 1.0000
33.1400 728.0000 1.0000
33.1500 728.0000 1.0000
33.1600 776.0000 1.0000
33.1700 735.0000 1.0000
33.1800 771.0000 1.0000
33.1900 727.0000 1.0000
33.2000 735.0000 1.0000
33.2100 723.0000 1.0000
33.2200 761.0000 1.0000
33.2300 760.0000 1.0000
33.2400 698.0000 1.0000
33.2500 764.0000 1.0000
33.2600 768.0000 1.0000
33.2700 738.0000 1.0000
33.2800 682.0000 1.0000
33.2900 680.0000 1.0000
33.3000 720.0000 1.0000
33.3100 731.0000 1.0000
33.3200 723.0000 1.0000
33.3300 690.0000 1.0000
33.3400 684.0000 1.0000
33.3500 753.0000 1.0000
33.3600 760.0000 1.0000
33.3700 773.0000 1.0000
33.3800 798.0000 1.0000
33.3900 746.0000 1.0000
33.4000 759.0000 1.0000
33.4100 724.0000 1.0000
33.4200 731.0000 1.0000
33.4300 835.0000 1.0000
33.4400 798.0000 1.0000
33.4500 797.0000 1.0000
33.4600 864.0000 1.0000
33.4700 864.0000 1.0000
33.4800 885.0000 1.0000
33.4900 875.0000 1.0000
33.5000 906.0000 1.0000
33.5100 958.0000 1.0000
33.5200 994.0000 1.0000
33.5300 1028.0000 1.0000
33.5400 1048.0000 1.0000
33.5500 1089.0000 1.0000
33.5600 1082.0000 1.0000
33.5700 1237.0000 1.0000
33.5800 1254.0000 1.0000
33.5900 1331.0000 1.0000
33.6000 1357.0000 1.0000
33.6100 1489.0000 1.0000
33.6200 1483.0000 1.0000
33.6300 1490.0000 1.0000
33.6400 1583.0000 1.0000
33.6500 1578.0000 1.0000
33.6600 1597.0000 1.0000
33.6700 1612.0000 1.0000
33.6800 1634.0000 1.0000
33.6900 1508.0000 1.0000
33.7000 1497.0000 1.0000
33.7100 1448.0000 1.0000
33.7200 1447.0000 1.0000
33.7300 1384.0000 1.0000
33.7400 1334.0000 1.0000
33.7500 1348.0000 1.0000
33.7600 1245.0000 1.0000
33.7700 1203.0000 1.0000
33.7800 1163.0000 1.0000
33.7900 992.0000 1.0000
33.8000 995.0000 1.0000
33.8100 999.0000 1.0000
33.8200 931.0000 1.0000
33.8300 978.0000 1.0000
33.8400 952.0000 1.0000
33.8500 881.0000 1.0000
33.8600 849.0000 1.0000
33.8700 875.0000 1.0000
33.8800 834.0000 1.0000
33.8900 815.0000 1.0000
33.9000 835.0000 1.0000
33.9100 796.0000 1.0000
33.9200 779.0000 1.0000
33.9300 753.0000 1.0000
33.9400 787.0000 1.0000
33.9500 759.0000 1.0000
33.9600 770.0000 1.0000
33.9700 735.0000 1.0000
33.9800 683.0000 1.0000
33.9900 686.0000 1.0000
34.0000 761.0000 1.0000
34.0100 690.0000 1.0000
34.0200 643.0000 1.0000
34.0300 658.0000 1.0000
34.0400 652.0000 1.0000
34.0500 646.0000 1.0000
34.0600 650.0000 1.0000
34.0700 680.0000 1.0000
34.0800 666.0000 1.0000
34.0900 633.0000 1.0000
34.1000 650.0000 1.0000
34.1100 674.0000 1.0000
34.1200 628.0000 1.0000
34.1300 639.0000 1.0000
34.1400 638.0000 1.0000
34.1500 597.0000 1.0000
34.1600 626.0000 1.0000
34.1700 604.0000 1.0000
34.1800 645.0000 1.0000
34.1900 627.0000 1.0000
34.2000 637.0000 1.0000
34.2100 626.0000 1.0000
34.2200 628.0000 1.0000
34.2300 576.0000 1.0000
34.2400 613.0000 1.0000
34.2500 555.0000 1.0000
34.2600 572.0000 1.0000
34.2700 617.0000 1.0000
34.2800 633.0000 1.0000
34.2900 587.0000 1.0000
34.3000 635.0000 1.0000
34.3100 611.0000 1.0000
34.3200 631.0000 1.0000
34.3300 626.0000 1.0000
34.3400 630.0000 1.0000
34.3500 593.0000 1.0000
34.3600 613.0000 1.0000
34.3700 576.0000 1.0000
34.3800 622.0000 1.0000
34.3900 594.0000 1.0000
34.4000 622.0000 1.0000
34.4100 603.0000 1.0000
34.4200 536.0000 1.0000
34.4300 603.0000 1.0000
34.4400 619.0000 1.0000
34.4500 575.0000 1.0000
34.4600 582.0000 1.0000
34.4700 587.0000 1.0000
34.4800 555.0000 1.0000
34.4900 562.0000 1.0000
34.5000 596.0000 1.0000
34.5100 595.0000 1.0000
34.5200 594.0000 1.0000
34.5300 592.0000 1.0000
34.5400 579.0000 1.0000
34.5500 605.0000 1.0000
34.5600 546.0000 1.0000
34.5700 591.0000 1.0000
34.5800 611.0000 1.0000
34.5900 601.0000 1.0000
34.6000 603.0000 1.0000
34.6100 556.0000 1.0000
34.6200 509.0000 1.0000
34.6300 625.0000 1.0000
34.6400 566.0000 1.0000
34.6500 598.0000 1.0000
34.6600 603.0000 1.0000
34.6700 558.0000 1.0000
34.6800 560.0000 1.0000
34.6900 586.0000 1.0000
34.7000 588.0000 1.0000
34.7100 595.0000 1.0000
34.7200 548.0000 1.0000
34.7300 579.0000 1.0000
34.7400 590.0000 1.0000
34.7500 556.0000 1.0000
34.7600 590.0000 1.0000
34.7700 569.0000 1.0000
34.7800 599.0000 1.0000
34.7900 568.0000 1.0000
34.8000 568.0000 1.0000
34.8100 554.0000 1.0000
34.8200 594.0000 1.0000
34.8300 594.0000 1.0000
34.8400 573.0000 1.0000
34.8500 596.0000 1.0000
34.8600 553.0000 1.0000
34.8700 558.0000 1.0000
34.8800 522.0000 1.0000
34.8900 505.0000 1.0000
34.9000 549.0000 1.0000
34.9100 585.0000 1.0000
34.9200 556.0000 1.0000
34.9300 557.0000 1.0000
34.9400 563.0000 1.0000
34.9500 566.0000 1.0000
34.9600 584.0000 1.0000
34.9700 530.0000 1.0000
34.9800 568.0000 1.0000
34.9900 580.0000 1.0000
35.0000 567.0000 1.0000
35.0100 528.0000 1.0000
35.0200 565.0000 1.0000
35.0300 586.0000 1.0000
35.0400 560.0000 1.0000
35.0500 537.0000 1.0000
35.0600 568.0000 1.0000
35.0700 542.0000 1.0000
35.0800 571.0000 1.0000
35.0900 553.0000 1.0000
35.1000 544.0000 1.0000
35.1100 568.0000 1.0000
35.1200 566.0000 1.0000
35.1300 553.0000 1.0000
35.1400 553.0000 1.0000
35.1500 605.0000 1.0000
35.1600 570.0000 1.0000
35.1700 580.0000 1.0000
35.1800 591.0000 1.0000
35.1900 593.0000 1.0000
35.2000 544.0000 1.0000
35.2100 553.0000 1.0000
35.2200 560.0000 1.0000
35.2300 543.0000 1.0000
35.2400 564.0000 1.0000
35.2500 577.0000 1.0000
35.2600 535.0000 1.0000
35.2700 588.0000 1.0000
35.2800 559.0000 1.0000
35.2900 600.0000 1.0000
35.3000 603.0000 1.0000
35.3100 599.0000 1.0000
35.3200 607.0000 1.0000
35.3300 621.0000 1.0000
35.3400 631.0000 1.0000
35.3500 590.0000 1.0000
35.3600 597.0000 1.0000
35.3700 607.0000 1.0000
35.3800 626.0000 1.0000
35.3900 679.0000 1.0000
35.4000 652.0000 1.0000
35.4100 658.0000 1.0000
35.4200 621.0000 1.0000
35.4300 693.0000 1.0000
35.4400 713.0000 1.0000
35.4500 766.0000 1.0000
35.4600 780.0000 1.0000
35.4700 779.0000 1.0000
35.4800 810.0000 1.0000
35.4900 864.0000 1.0000
35.5000 838.0000 1.0000
35.5100 879.0000 1.0000
35.5200 918.0000 1.0000
35.5300 990.0000 1.0000
35.5400 1032.0000 1.0000
35.5500 1011.0000 1.0000
35.5600 1059.0000 1.0000
35.5700 1059.0000 1.0000
35.5800 1043.0000 1.0000
35.5900 1062.0000 1.0000
35.6000 1051.0000 1.0000
35.6100 1016.0000 1.0000
35.6200 1069.0000 1.0000
35.6300 1035.0000 1.0000
35.6400 987.0000 1.0000
35.6500 978.0000 1.0000
35.6600 956.0000 1.0000
35.6700 890.0000 1.0000
35.6800 875.0000 1.0000
35.6900 864.0000 1.0000
35.7000 837.0000 1.0000
35.7100 784.0000 1.0000
35.7200 739.0000 1.0000
35.7300 750.0000 1.0000
35.7400 726.0000 1.0000
35.7500 700.0000 1.0000
35.7600 697.0000 1.0000
35.7700 647.0000 1.0000
35.7800 622.0000 1.0000
35.7900 576.0000 1.0000
35.8000 642.0000 1.0000
35.8100 609.0000 1.0000
35.8200 592.0000 1.0000
35.8300 559.0000 1.0000
35.8400 596.0000 1.0000
35.8500 585.0000 1.0000
35.8600 579.0000 1.0000
35.8700 544.0000 1.0000
35.8800 541.0000 1.0000
35.8900 548.0000 1.0000
35.9000 563.0000 1.0000
35.9100 548.0000 1.0000
35.9200 573.0000 1.0000
35.9300 573.0000 1.0000
35.9400 525.0000 1.0000
35.9500 518.0000 1.0000
35.9600 543.0000 1.0000
35.9700 522.0000 1.0000
35.9800 508.0000 1.0000
35.9900 511.0000 1.0000
36.0000 545.0000 1.0000
36.0100 524.0000 1.0000
36.0200 513.0000 1.0000
36.0300 542.0000 1.0000
36.0400 548.0000 1.0000
36.0500 529.0000 1.0000
36.0600 521.0000 1.0000
36.0700 553.0000 1.0000
36.0800 494.0000 1.0000
36.0900 533.0000 1.0000
36.1000 542.0000 1.0000
36.1100 516.0000 1.0000
36.1200 525.0000 1.0000
36.1300 531.0000 1.0000
36.1400 544.0000 1.0000
36.1500 540.0000 1.0000
36.1600 539.0000 1.0000
36.1700 496.0000 1.0000
36.1800 517.0000 1.0000
36.1900 495.0000 1.0000
36.2000 563.0000 1.0000
36.2100 530.0000 1.0000
36.2200 540.0000 1.0000
36.2300 507.0000 1.0000
36.2400 494.0000 1.0000
36.2500 526.0000 1.0000
36.2600 516.0000 1.0000
36.2700 551.0000 1.0000
36.2800 503.0000 1.0000
36.2900 527.0000 1.0000
36.3000 534.0000 1.0000
36.3100 544.0000 1.0000
36.3200 508.0000 1.0000
36.3300 533.0000 1.0000
36.3400 491.0000 1.0000
36.3500 523.0000 1.0000
36.3600 547.0000 1.0000
36.3700 539.0000 1.0000
36.3800 530.0000 1.0000
36.3900 541.0000 1.0000
36.4000 537.0000 1.0000
36.4100 529.0000 1.0000
36.4200 516.0000 1.0000
36.4300 502.0000 1.0000
36.4400 501.0000 1.0000
36.4500 491.0000 1.0000
36.4600 501.0000 1.0000
36.4700 534.0000 1.0000
36.4800 506.0000 1.0000
36.4900 493.0000 1.0000
36.5000 479.0000 1.0000
36.5100 532.0000 1.0000
36.5200 529.0000 1.0000
36.5300 539.0000 1.0000
36.5400 544.0000 1.0000
36.5500 496.0000 1.0000
36.5600 540.0000 1.0000
36.5700 488.0000 1.0000
36.5800 522.0000 1.0000
36.5900 525.0000 1.0000
36.6000 529.0000 1.0000
36.6100 519.0000 1.0000
36.6200 553.0000 1.0000
36.6300 504.0000 1.0000
36.6400 497.0000 1.0000
36.6500 494.0000 1.0000
36.6600 526.0000 1.0000
36.6700 488.0000 1.0000
36.6800 490.0000 1.0000
36.6900 514.0000 1.0000
36.7000 527.0000 1.0000
36.7100 495.0000 1.0000
36.7200 511.0000 1.0000
36.7300 487.0000 1.0000
36.7400 488.0000 1.0000
36.7500 518.0000 1.0000
36.7600 481.0000 1.0000
36.7700 508.0000 1.0000
36.7800 541.0000 1.0000
36.7900 497.0000 1.0000
36.8000 476.0000 1.0000
36.8100 516.0000 1.0000
36.8200 536.0000 1.0000
36.8300 540.0000 1.0000
36.8400 497.0000 1.0000
36.8500 518.0000 1.0000
36.8600 492.0000 1.0000
36.8700 512.0000 1.0000
36.8800 501.0000 1.0000
36.8900 522.0000 1.0000
36.9000 514.0000 1.0000
36.9100 511.0000 1.0000
36.9200 493.0000 1.0000
36.9300 519.0000 1.0000
36.9400 504.0000 1.0000
36.9500 512.0000 1.0000
36.9600 516.0000 1.0000
36.9700 510.0000 1.0000
36.9800 554.0000 1.0000
36.9900 534.0000 1.0000
37.0000 541.0000 1.0000
37.0100 524.0000 1.0000
37.0200 545.0000 1.0000
37.0300 508.0000 1.0000
37.0400 511.0000 1.0000
37.0500 493.0000 1.0000
37.0600 545.0000 1.0000
37.0700 547.0000 1.0000
37.0800 489.0000 1.0000
37.0900 543.0000 1.0000
37.1000 531.0000 1.0000
37.1100 496.0000 1.0000
37.1200 525.0000 1.0000
37.1300 530.0000 1.0000
37.1400 551.0000 1.0000
37.1500 522.0000 1.0000
37.1600 513.0000 1.0000
37.1700 533.0000 1.0000
37.1800 529.0000 1.0000
37.1900 516.0000 1.0000
37.2000 528.0000 1.0000
37.2100 543.0000 1.0000
37.2200 507.0000 1.0000
37.2300 511.0000 1.0000
37.2400 514.0000 1.0000
37.2500 561.0000 1.0000
37.2600 529.0000 1.0000
37.2700 544.0000 1.0000
37.2800 524.0000 1.0000
37.2900 558.0000 1.0000
37.3000 546.0000 1.0000
37.3100 588.0000 1.0000
37.3200 562.0000 1.0000
37.3300 568.0000 1.0000
37.3400 626.0000 1.0000
37.3500 600.0000 1.0000
37.3600 646.0000 1.0000
37.3700 630.0000 1.0000
37.3800 617.0000 1.0000
37.3900 672.0000 1.0000
37.4000 683.0000 1.0000
37.4100 666.0000 1.0000
37.4200 702.0000 1.0000
37.4300 733.0000 1.0000
37.4400 740.0000 1.0000
37.4500 739.0000 1.0000
37.4600 746.0000 1.0000
37.4700 783.0000 1.0000
37.4800 842.0000 1.0000
37.4900 878.0000 1.0000
37.5000 880.0000 1.0000
37.5100 941.0000 1.0000
37.5200 1003.0000 1.0000
37.5300 1087.0000 1.0000
37.5400 1089.0000 1.0000
37.5500 1155.0000 1.0000
37.5600 1227.0000 1.0000
37.5700 1232.0000 1.0000
37.5800 1378.0000 1.0000
37.5900 1446.0000 1.0000
37.6000 1510.0000 1.0000
37.6100 1599.0000 1.0000
37.6200 1721.0000 1.0000
37.6300 1884.0000 1.0000
37.6400 1926.0000 1.0000
37.6500 1996.0000 1.0000
37.6600 2170.0000 1.0000
37.6700 2206.0000 1.0000
37.6800 2305.0000 1.0000
37.6900 2260.0000 1.0000
37.7000 2380.0000 1.0000
37.7100 2345.0000 1.0000
37.7200 2400.0000 1.0000
37.7300 2452.0000 1.0000
37.7400 2468.0000 1.0000
37.7500 2407.0000 1.0000
37.7600 2380.0000 1.0000
37.7700 2357.0000 1.0000
37.7800 2229.0000 1.0000
37.7900 2206.0000 1.0000
37.8000 2078.0000 1.0000
37.8100 1915.0000 1.0000
37.8200 1869.0000 1.0000
37.8300 1752.0000 1.0000
37.8400 1689.0000 1.0000
37.8500 1620.0000 1.0000
37.8600 1509.0000 1.0000
37.8700 1372.0000 1.0000
37.8800 1309.0000 1.0000
37.8900 1255.0000 1.0000
37.9000 1190.0000 1.0000
37.9100 1121.0000 1.0000
37.9200 1039.0000 1.0000
37.9300 1060.0000 1.0000
37.9400 957.0000 1.0000
37.9500 908.0000 1.0000
37.9600 847.0000 1.0000
37.9700 815.0000 1.0000
37.9800 803.0000 1.0000
37.9900 778.0000 1.0000
38.0000 706.0000 1.0000
38.0100 655.0000 1.0000
38.0200 689.0000 1.0000
38.0300 659.0000 1.0000
38.0400 615.0000 1.0000
38.0500 620.0000 1.0000
38.0600 633.0000 1.0000
38.0700 585.0000 1.0000
38.0800 590.0000 1.0000
38.0900 615.0000 1.0000
38.1000 586.0000 1.0000
38.1100 623.0000 1.0000
38.1200 619.0000 1.0000
38.1300 539.0000 1.0000
38.1400 545.0000 1.0000
38.1500 571.0000 1.0000
38.1600 574.0000 1.0000
38.1700 540.0000 1.0000
38.1800 543.0000 1.0000
38.1900 510.0000 1.0000
38.2000 540.0000 1.0000
38.2100 509.0000 1.0000
38.2200 498.0000 1.0000
38.2300 476.0000 1.0000
38.2400 492.0000 1.0000
38.2500 500.0000 1.0000
38.2600 495.0000 1.0000
38.2700 469.0000 1.0000
38.2800 461.0000 1.0000
38.2900 528.0000 1.0000
38.3000 509.0000 1.0000
38.3100 528.0000 1.0000
38.3200 494.0000 1.0000
38.3300 494.0000 1.0000
38.3400 487.0000 1.0000
38.3500 477.0000 1.0000
38.3600 456.0000 1.0000
38.3700 474.0000 1.0000
38.3800 470.0000 1.0000
38.3900 494.0000 1.0000
38.4000 503.0000 1.0000
38.4100 483.0000 1.0000
38.4200 483.0000 1.0000
38.4300 481.0000 1.0000
38.4400 487.0000 1.0000
38.4500 483.0000 1.0000
38.4600 461.0000 1.0000
38.4700 478.0000 1.0000
38.4800 475.0000 1.0000
38.4900 473.0000 1.0000
38.5000 445.0000 1.0000
38.5100 490.0000 1.0000
38.5200 492.0000 1.0000
38.5300 507.0000 1.0000
38.5400 490.0000 1.0000
38.5500 483.0000 1.0000
38.5600 473.0000 1.0000
38.5700 478.0000 1.0000
38.5800 485.0000 1.0000
38.5900 472.0000 1.0000
38.6000 473.0000 1.0000
38.6100 466.0000 1.0000
38.6200 468.0000 1.0000
38.6300 463.0000 1.0000
38.6400 467.0000 1.0000
38.6500 485.0000 1.0000
38.6600 487.0000 1.0000
38.6700 521.0000 1.0000
38.6800 489.0000 1.0000
38.6900 474.0000 1.0000
38.7000 490.0000 1.0000
38.7100 486.0000 1.0000
38.7200 508.0000 1.0000
38.7300 474.0000 1.0000
38.7400 474.0000 1.0000
38.7500 491.0000 1.0000
38.7600 514.0000 1.0000
38.7700 488.0000 1.0000
38.7800 485.0000 1.0000
38.7900 463.0000 1.0000
38.8000 421.0000 1.0000
38.8100 476.0000 1.0000
38.8200 466.0000 1.0000
38.8300 461.0000 1.0000
38.8400 475.0000 1.0000
38.8500 476.0000 1.0000
38.8600 471.0000 1.0000
38.8700 483.0000 1.0000
38.8800 448.0000 1.0000
38.8900 472.0000 1.0000
38.9000 471.0000 1.0000
38.9100 472.0000 1.0000
38.9200 440.0000 1.0000
38.9300 468.0000 1.0000
38.9400 475.0000 1.0000
38.9500 476.0000 1.0000
38.9600 438.0000 1.0000
38.9700 472.0000 1.0000
38.9800 462.0000 1.0000
38.9900 439.0000 1.0000
39.0000 495.0000 1.0000
39.0100 465.0000 1.0000
39.0200 466.0000 1.0000
39.0300 494.0000 1.0000
39.0400 477.0000 1.0000
39.0500 442.0000 1.0000
39.0600 449.0000 1.0000
39.0700 464.0000 1.0000
39.0800 447.0000 1.0000
39.0900 427.0000 1.0000
39.1000 426.0000 1.0000
39.1100 451.0000 1.0000
39.1200 429.0000 1.0000
39.1300 438.0000 1.0000
39.1400 444.0000 1.0000
39.1500 477.0000 1.0000
39.1600 446.0000 1.0000
39.1700 425.0000 1.0000
39.1800 465.0000 1.0000
39.1900 462.0000 1.0000
39.2000 433.0000 1.0000
39.2100 439.0000 1.0000
39.2200 463.0000 1.0000
39.2300 419.0000 1.0000
39.2400 458.0000 1.0000
39.2500 438.0000 1.0000
39.2600 444.0000 1.0000
39.2700 434.0000 1.0000
39.2800 447.0000 1.0000
39.2900 455.0000 1.0000
39.3000 462.0000 1.0000
39.3100 434.0000 1.0000
39.3200 429.0000 1.0000
39.3300 449.0000 1.0000
39.3400 439.0000 1.0000
39.3500 480.0000 1.0000
39.3600 449.0000 1.0000
39.3700 460.0000 1.0000
39.3800 439.0000 1.0000
39.3900 448.0000 1.0000
39.4000 452.0000 1.0000
39.4100 466.0000 1.0000
39.4200 431.0000 1.0000
39.4300 439.0000 1.0000
39.4400 445.0000 1.0000
39.4500 428.0000 1.0000
39.4600 417.0000 1.0000
39.4700 442.0000 1.0000
39.4800 463.0000 1.0000
39.4900 468.0000 1.0000
39.5000 456.0000 1.0000
39.5100 473.0000 1.0000
39.5200 452.0000 1.0000
39.5300 397.0000 1.0000
39.5400 454.0000 1.0000
39.5500 432.0000 1.0000
39.5600 448.0000 1.0000
39.5700 439.0000 1.0000
39.5800 440.0000 1.0000
39.5900 440.0000 1.0000
39.6000 426.0000 1.0000
39.6100 414.0000 1.0000
39.6200 414.0000 1.0000
39.6300 427.0000 1.0000
39.6400 419.0000 1.0000
39.6500 462.0000 1.0000
39.6600 458.0000 1.0000
39.6700 423.0000 1.0000
39.6800 424.0000 1.0000
39.6900 460.0000 1.0000
39.7000 408.0000 1.0000
39.7100 431.0000 1.0000
39.7200 400.0000 1.0000
39.7300 402.0000 1.0000
39.7400 436.0000 1.0000
39.7500 406.0000 1.0000
39.7600 426.0000 1.0000
39.7700 419.0000 1.0000
39.7800 439.0000 1.0000
39.7900 434.0000 1.0000
39.8000 427.0000 1.0000
39.8100 446.0000 1.0000
39.8200 428.0000 1.0000
39.8300 423.0000 1.0000
39.8400 445.0000 1.0000
39.8500 441.0000 1.0000
39.8600 419.0000 1.0000
39.8700 423.0000 1.0000
39.8800 399.0000 1.0000
39.8900 443.0000 1.0000
39.9000 427.0000 1.0000
39.9100 445.0000 1.0000
39.9200 463.0000 1.0000
39.9300 394.0000 1.0000
39.9400 395.0000 1.0000
39.9500 458.0000 1.0000
39.9600 433.0000 1.0000
39.9700 428.0000 1.0000
39.9800 440.0000 1.0000
39.9900 446.0000 1.0000
40.0000 398.0000 1.0000
40.0100 432.0000 1.0000
40.0200 440.0000 1.0000
40.0300 409.0000 1.0000
40.0400 419.0000 1.0000
40.0500 408.0000 1.0000
40.0600 430.0000 1.0000
40.0700 454.0000 1.0000
40.0800 449.0000 1.0000
40.0900 409.0000 1.0000
40.1000 457.0000 1.0000
40.1100 426.0000 1.0000
40.1200 444.0000 1.0000
40.1300 461.0000 1.0000
40.1400 411.0000 1.0000
40.1500 420.0000 1.0000
40.1600 398.0000 1.0000
40.1700 415.0000 1.0000
40.1800 399.0000 1.0000
40.1900 414.0000 1.0000
40.2000 426.0000 1.0000
40.2100 401.0000 1.0000
40.2200 457.0000 1.0000
40.2300 424.0000 1.0000
40.2400 421.0000 1.0000
40.2500 388.0000 1.0000
40.2600 419.0000 1.0000
40.2700 463.0000 1.0000
40.2800 413.0000 1.0000
40.2900 401.0000 1.0000
40.3000 414.0000 1.0000
40.3100 402.0000 1.0000
40.3200 429.0000 1.0000
40.3300 431.0000 1.0000
40.3400 428.0000 1.0000
40.3500 407.0000 1.0000
40.3600 407.0000 1.0000
40.3700 412.0000 1.0000
40.3800 389.0000 1.0000
40.3900 419.0000 1.0000
40.4000 446.0000 1.0000
40.4100 426.0000 1.0000
40.4200 392.0000 1.0000
40.4300 399.0000 1.0000
40.4400 412.0000 1.0000
40.4500 432.0000 1.0000
40.4600 427.0000 1.0000
40.4700 419.0000 1.0000
40.4800 425.0000 1.0000
40.4900 443.0000 1.0000
40.5000 431.0000 1.0000
40.5100 418.0000 1.0000
40.5200 366.0000 1.0000
40.5300 420.0000 1.0000
40.5400 376.0000 1.0000
40.5500 394.0000 1.0000
40.5600 414.0000 1.0000
40.5700 443.0000 1.0000
40.5800 461.0000 1.0000
40.5900 426.0000 1.0000
40.6000 380.0000 1.0000
40.6100 400.0000 1.0000
40.6200 429.0000 1.0000
40.6300 426.0000 1.0000
40.6400 414.0000 1.0000
40.6500 455.0000 1.0000
40.6600 430.0000 1.0000
40.6700 426.0000 1.0000
40.6800 399.0000 1.0000
40.6900 405.0000 1.0000
40.7000 420.0000 1.0000
40.7100 407.0000 1.0000
40.7200 413.0000 1.0000
40.7300 423.0000 1.0000
40.7400 414.0000 1.0000
40.7500 440.0000 1.0000
40.7600 449.0000 1.0000
40.7700 453.0000 1.0000
40.7800 423.0000 1.0000
40.7900 427.0000 1.0000
40.8000 433.0000 1.0000
40.8100 431.0000 1.0000
40.8200 440.0000 1.0000
40.8300 454.0000 1.0000
40.8400 414.0000 1.0000
40.8500 426.0000 1.0000
40.8600 446.0000 1.0000
40.8700 403.0000 1.0000
40.8800 427.0000 1.0000
40.8900 460.0000 1.0000
40.9000 444.0000 1.0000
40.9100 424.0000 1.0000
40.9200 402.0000 1.0000
40.9300 391.0000 1.0000
40.9400 416.0000 1.0000
40.9500 419.0000 1.0000
40.9600 415.0000 1.0000
40.9700 435.0000 1.0000
40.9800 444.0000 1.0000
40.9900 444.0000 1.0000
41.0000 391.0000 1.0000
41.0100 420.0000 1.0000
41.0200 418.0000 1.0000
41.0300 399.0000 1.0000
41.0400 405.0000 1.0000
41.0500 414.0000 1.0000
41.0600 407.0000 1.0000
41.0700 396.0000 1.0000
41.0800 386.0000 1.0000
41.0900 380.0000 1.0000
41.1000 414.0000 1.0000
41.1100 407.0000 1.0000
41.1200 415.0000 1.0000
41.1300 418.0000 1.0000
41.1400 432.0000 1.0000
41.1500 402.0000 1.0000
41.1600 403.0000 1.0000
41.1700 410.0000 1.0000
41.1800 395.0000 1.0000
41.1900 400.0000 1.0000
41.2000 390.0000 1.0000
41.2100 382.0000 1.0000
41.2200 430.0000 1.0000
41.2300 405.0000 1.0000
41.2400 428.0000 1.0000
41.2500 402.0000 1.0000
41.2600 397.0000 1.0000
41.2700 389.0000 1.0000
41.2800 384.0000 1.0000
41.2900 399.0000 1.0000
41.3000 429.0000 1.0000
41.3100 404.0000 1.0000
41.3200 370.0000 1.0000
41.3300 371.0000 1.0000
41.3400 375.0000 1.0000
41.3500 392.0000 1.0000
41.3600 399.0000 1.0000
41.3700 404.0000 1.0000
41.3800 416.0000 1.0000
41.3900 399.0000 1.0000
41.4000 387.0000 1.0000
41.4100 372.0000 1.0000
41.4200 392.0000 1.0000
41.4300 374.0000 1.0000
41.4400 395.0000 1.0000
41.4500 409.0000 1.0000
41.4600 379.0000 1.0000
41.4700 377.0000 1.0000
41.4800 400.0000 1.0000
41.4900 404.0000 1.0000
41.5000 361.0000 1.0000
41.5100 381.0000 1.0000
41.5200 406.0000 1.0000
41.5300 396.0000 1.0000
41.5400 355.0000 1.0000
41.5500 379.0000 1.0000
41.5600 396.0000 1.0000
41.5700 383.0000 1.0000
41.5800 403.0000 1.0000
41.5900 385.0000 1.0000
41.6000 369.0000 1.0000
41.6100 386.0000 1.0000
41.6200 395.0000 1.0000
41.6300 384.0000 1.0000
41.6400 373.0000 1.0000
41.6500 390.0000 1.0000
41.6600 346.0000 1.0000
41.6700 368.0000 1.0000
41.6800 404.0000 1.0000
41.6900 396.0000 1.0000
41.7000 404.0000 1.0000
41.7100 392.0000 1.0000
41.7200 346.0000 1.0000
41.7300 387.0000 1.0000
41.7400 390.0000 1.0000
41.7500 404.0000 1.0000
41.7600 411.0000 1.0000
41.7700 423.0000 1.0000
41.7800 395.0000 1.0000
41.7900 367.0000 1.0000
41.8000 381.0000 1.0000
41.8100 402.0000 1.0000
41.8200 387.0000 1.0000
41.8300 377.0000 1.0000
41.8400 364.0000 1.0000
41.8500 369.0000 1.0000
41.8600 390.0000 1.0000
41.8700 377.0000 1.0000
41.8800 388.0000 1.0000
41.8900 391.0000 1.0000
41.9000 391.0000 1.0000
41.9100 419.0000 1.0000
41.9200 396.0000 1.0000
41.9300 386.0000 1.0000
41.9400 407.0000 1.0000
41.9500 375.0000 1.0000
41.9600 362.0000 1.0000
41.9700 371.0000 1.0000
41.9800 381.0000 1.0000
41.9900 375.0000 1.0000
42.0000 413.0000 1.0000
42.0100 414.0000 1.0000
42.0200 394.0000 1.0000
42.0300 400.0000 1.0000
42.0400 417.0000 1.0000
42.0500 369.0000 1.0000
42.0600 362.0000 1.0000
42.0700 362.0000 1.0000
42.0800 396.0000 1.0000
42.0900 389.0000 1.0000
42.1000 400.0000 1.0000
42.1100 390.0000 1.0000
42.1200 411.0000 1.0000
42.1300 391.0000 1.0000
42.1400 363.0000 1.0000
42.1500 356.0000 1.0000
42.1600 380.0000 1.0000
42.1700 390.0000 1.0000
42.1800 393.0000 1.0000
42.1900 392.0000 1.0000
42.2000 385.0000 1.0000
42.2100 399.0000 1.0000
42.2200 392.0000 1.0000
42.2300 393.0000 1.0000
42.2400 413.0000 1.0000
42.2500 404.0000 1.0000
42.2600 407.0000 1.0000
42.2700 405.0000 1.0000
42.2800 412.0000 1.0000
42.2900 413.0000 1.0000
42.3000 391.0000 1.0000
42.3100 403.0000 1.0000
42.3200 387.0000 1.0000
42.3300 424.0000 1.0000
42.3400 394.0000 1.0000
42.3500 384.0000 1.0000
42.3600 390.0000 1.0000
42.3700 388.0000 1.0000
42.3800 385.0000 1.0000
42.3900 419.0000 1.0000
42.4000 409.0000 1.0000
42.4100 390.0000 1.0000
42.4200 388.0000 1.0000
42.4300 387.0000 1.0000
42.4400 386.0000 1.0000
42.4500 421.0000 1.0000
42.4600 393.0000 1.0000
42.4700 376.0000 1.0000
42.4800 418.0000 1.0000
42.4900 400.0000 1.0000
42.5000 387.0000 1.0000
42.5100 369.0000 1.0000
42.5200 367.0000 1.0000
42.5300 394.0000 1.0000
42.5400 384.0000 1.0000
42.5500 348.0000 1.0000
42.5600 385.0000 1.0000
42.5700 421.0000 1.0000
42.5800 396.0000 1.0000
42.5900 381.0000 1.0000
42.6000 386.0000 1.0000
42.6100 388.0000 1.0000
42.6200 395.0000 1.0000
42.6300 378.0000 1.0000
42.6400 394.0000 1.0000
42.6500 379.0000 1.0000
42.6600 363.0000 1.0000
42.6700 346.0000 1.0000
42.6800 372.0000 1.0000
42.6900 377.0000 1.0000
42.7000 399.0000 1.0000
42.7100 364.0000 1.0000
42.7200 356.0000 1.0000
42.7300 366.0000 1.0000
42.7400 360.0000 1.0000
42.7500 369.0000 1.0000
42.7600 375.0000 1.0000
42.7700 422.0000 1.0000
42.7800 422.0000 1.0000
42.7900 404.0000 1.0000
42.8000 393.0000 1.0000
42.8100 363.0000 1.0000
42.8200 383.0000 1.0000
42.8300 380.0000 1.0000
42.8400 398.0000 1.0000
42.8500 389.0000 1.0000
42.8600 373.0000 1.0000
42.8700 403.0000 1.0000
42.8800 358.0000 1.0000
42.8900 372.0000 1.0000
42.9000 356.0000 1.0000
42.9100 405.0000 1.0000
42.9200 408.0000 1.0000
42.9300 398.0000 1.0000
42.9400 373.0000 1.0000
42.9500 385.0000 1.0000
42.9600 394.0000 1.0000
42.9700 352.0000 1.0000
42.9800 351.0000 1.0000
42.9900 368.0000 1.0000
43.0000 386.0000 1.0000
43.0100 380.0000 1.0000
43.0200 369.0000 1.0000
43.0300 407.0000 1.0000
43.0400 360.0000 1.0000
43.0500 410.0000 1.0000
43.0600 408.0000 1.0000
43.0700 367.0000 1.0000
43.0800 374.0000 1.0000
43.0900 342.0000 1.0000
43.1000 365.0000 1.0000
43.1100 345.0000 1.0000
43.1200 372.0000 1.0000
43.1300 362.0000 1.0000
43.1400 409.0000 1.0000
43.1500 413.0000 1.0000
43.1600 374.0000 1.0000
43.1700 382.0000 1.0000
43.1800 348.0000 1.0000
43.1900 372.0000 1.0000
43.2000 385.0000 1.0000
43.2100 381.0000 1.0000
43.2200 360.0000 1.0000
43.2300 381.0000 1.0000
43.2400 379.0000 1.0000
43.2500 349.0000 1.0000
43.2600 375.0000 1.0000
43.2700 377.0000 1.0000
43.2800 364.0000 1.0000
43.2900 384.0000 1.0000
43.3000 359.0000 1.0000
43.3100 372.0000 1.0000
43.3200 383.0000 1.0000
43.3300 418.0000 1.0000
43.3400 381.0000 1.0000
43.3500 369.0000 1.0000
43.3600 384.0000 1.0000
43.3700 377.0000 1.0000
43.3800 376.0000 1.0000
43.3900 399.0000 1.0000
43.4000 350.0000 1.0000
43.4100 372.0000 1.0000
43.4200 384.0000 1.0000
43.4300 387.0000 1.0000
43.4400 364.0000 1.0000
43.4500 399.0000 1.0000
43.4600 378.0000 1.0000
43.4700 375.0000 1.0000
43.4800 352.0000 1.0000
43.4900 371.0000 1.0000
43.5000 368.0000 1.0000
43.5100 351.0000 1.0000
43.5200 390.0000 1.0000
43.5300 386.0000 1.0000
43.5400 398.0000 1.0000
43.5500 352.0000 1.0000
43.5600 358.0000 1.0000
43.5700 374.0000 1.0000
43.5800 360.0000 1.0000
43.5900 372.0000 1.0000
43.6000 362.0000 1.0000
43.6100 366.0000 1.0000
43.6200 379.0000 1.0000
43.6300 370.0000 1.0000
43.6400 382.0000 1.0000
43.6500 402.0000 1.0000
43.6600 361.0000 1.0000
43.6700 331.0000 1.0000
43.6800 363.0000 1.0000
43.6900 363.0000 1.0000
43.7000 405.0000 1.0000
43.7100 390.0000 1.0000
43.7200 389.0000 1.0000
43.7300 382.0000 1.0000
43.7400 381.0000 1.0000
43.7500 405.0000 1.0000
43.7600 389.0000 1.0000
43.7700 362.0000 1.0000
43.7800 368.0000 1.0000
43.7900 383.0000 1.0000
43.8000 387.0000 1.0000
43.8100 375.0000 1.0000
43.8200 391.0000 1.0000
43.8300 359.0000 1.0000
43.8400 392.0000 1.0000
43.8500 363.0000 1.0000
43.8600 366.0000 1.0000
43.8700 357.0000 1.0000
43.8800 368.0000 1.0000
43.8900 348.0000 1.0000
43.9000 355.0000 1.0000
43.9100 380.0000 1.0000
43.9200 380.0000 1.0000
43.9300 408.0000 1.0000
43.9400 379.0000 1.0000
43.9500 388.0000 1.0000
43.9600 398.0000 1.0000
43.9700 389.0000 1.0000
43.9800 399.0000 1.0000
43.9900 364.0000 1.0000
44.0000 354.0000 1.0000
44.0100 378.0000 1.0000
44.0200 397.0000 1.0000
44.0300 392.0000 1.0000
44.0400 403.0000 1.0000
44.0500 409.0000 1.0000
44.0600 358.0000 1.0000
44.0700 382.0000 1.0000
44.0800 383.0000 1.0000
44.0900 369.0000 1.0000
44.1000 376.0000 1.0000
44.1100 383.0000 1.0000
44.1200 419.0000 1.0000
44.1300 409.0000 1.0000
44.1400 344.0000 1.0000
44.1500 349.0000 1.0000
44.1600 388.0000 1.0000
44.1700 382.0000 1.0000
44.1800 379.0000 1.0000
44.1900 411.0000 1.0000
44.2000 356.0000 1.0000
44.2100 361.0000 1.0000
44.2200 373.0000 1.0000
44.2300 373.0000 1.0000
44.2400 388.0000 1.0000
44.2500 330.0000 1.0000
44.2600 385.0000 1.0000
44.2700 393.0000 1.0000
44.2800 369.0000 1.0000
44.2900 368.0000 1.0000
44.3000 332.0000 1.0000
44.3100 352.0000 1.0000
44.3200 365.0000 1.0000
44.3300 376.0000 1.0000
44.3400 378.0000 1.0000
44.3500 372.0000 1.0000
44.3600 422.0000 1.0000
44.3700 356.0000 1.0000
44.3800 375.0000 1.0000
44.3900 385.0000 1.0000
44.4000 377.0000 1.0000
44.4100 369.0000 1.0000
44.4200 376.0000 1.0000
44.4300 374.0000 1.0000
44.4400 385.0000 1.0000
44.4500 388.0000 1.0000
44.4600 383.0000 1.0000
44.4700 382.0000 1.0000
44.4800 360.0000 1.0000
44.4900 369.0000 1.0000
44.5000 403.0000 1.0000
44.5100 385.0000 1.0000
44.5200 407.0000 1.0000
44.5300 373.0000 1.0000
44.5400 362.0000 1.0000
44.5500 379.0000 1.0000
44.5600 352.0000 1.0000
44.5700 391.0000 1.0000
44.5800 366.0000 1.0000
44.5900 348.0000 1.0000
44.6000 349.0000 1.0000
44.6100 400.0000 1.0000
44.6200 365.0000 1.0000
44.6300 365.0000 1.0000
44.6400 327.0000 1.0000
44.6500 360.0000 1.0000
44.6600 354.0000 1.0000
44.6700 379.0000 1.0000
44.6800 369.0000 1.0000
44.6900 366.0000 1.0000
44.7000 364.0000 1.0000
44.7100 368.0000 1.0000
44.7200 379.0000 1.0000
44.7300 396.0000 1.0000
44.7400 389.0000 1.0000
44.7500 359.0000 1.0000
44.7600 400.0000 1.0000
44.7700 376.0000 1.0000
44.7800 369.0000 1.0000
44.7900 384.0000 1.0000
44.8000 374.0000 1.0000
44.8100 380.0000 1.0000
44.8200 401.0000 1.0000
44.8300 391.0000 1.0000
44.8400 369.0000 1.0000
44.8500 347.0000 1.0000
44.8600 386.0000 1.0000
44.8700 366.0000 1.0000
44.8800 363.0000 1.0000
44.8900 388.0000 1.0000
44.9000 370.0000 1.0000
44.9100 359.0000 1.0000
44.9200 368.0000 1.0000
44.9300 359.0000 1.0000
44.9400 362.0000 1.0000
44.9500 379.0000 1.0000
44.9600 369.0000 1.0000
44.9700 387.0000 1.0000
44.9800 397.0000 1.0000
44.9900 372.0000 1.0000
45.0000 353.0000 1.0000
45.0100 377.0000 1.0000
45.0200 365.0000 1.0000
45.0300 381.0000 1.0000
45.0400 365.0000 1.0000
45.0500 371.0000 1.0000
45.0600 382.0000 1.0000
45.0700 403.0000 1.0000
45.0800 366.0000 1.0000
45.0900 388.0000 1.0000
45.1000 383.0000 1.0000
45.1100 392.0000 1.0000
45.1200 339.0000 1.0000
45.1300 357.0000 1.0000
45.1400 368.0000 1.0000
45.1500 337.0000 1.0000
45.1600 380.0000 1.0000
45.1700 367.0000 1.0000
45.1800 381.0000 1.0000
45.1900 375.0000 1.0000
45.2000 382.0000 1.0000
45.2100 345.0000 1.0000
45.2200 367.0000 1.0000
45.2300 380.0000 1.0000
45.2400 342.0000 1.0000
45.2500 354.0000 1.0000
45.2600 348.0000 1.0000
45.2700 343.0000 1.0000
45.2800 363.0000 1.0000
45.2900 363.0000 1.0000
45.3000 369.0000 1.0000
45.3100 400.0000 1.0000
45.3200 348.0000 1.0000
45.3300 365.0000 1.0000
45.3400 366.0000 1.0000
45.3500 370.0000 1.0000
45.3600 346.0000 1.0000
45.3700 377.0000 1.0000
45.3800 364.0000 1.0000
45.3900 367.0000 1.0000
45.4000 352.0000 1.0000
45.4100 334.0000 1.0000
45.4200 380.0000 1.0000
45.4300 379.0000 1.0000
45.4400 340.0000 1.0000
45.4500 356.0000 1.0000
45.4600 386.0000 1.0000
45.4700 372.0000 1.0000
45.4800 358.0000 1.0000
45.4900 408.0000 1.0000
45.5000 358.0000 1.0000
45.5100 372.0000 1.0000
45.5200 367.0000 1.0000
45.5300 364.0000 1.0000
45.5400 386.0000 1.0000
45.5500 368.0000 1.0000
45.5600 368.0000 1.0000
45.5700 345.0000 1.0000
45.5800 352.0000 1.0000
45.5900 373.0000 1.0000
45.6000 382.0000 1.0000
45.6100 375.0000 1.0000
45.6200 382.0000 1.0000
45.6300 355.0000 1.0000
45.6400 395.0000 1.0000
45.6500 364.0000 1.0000
45.6600 356.0000 1.0000
45.6700 393.0000 1.0000
45.6800 391.0000 1.0000
45.6900 382.0000 1.0000
45.7000 401.0000 1.0000
45.7100 386.0000 1.0000
45.7200 359.0000 1.0000
45.7300 333.0000 1.0000
45.7400 356.0000 1.0000
45.7500 345.0000 1.0000
45.7600 363.0000 1.0000
45.7700 363.0000 1.0000
45.7800 362.0000 1.0000
45.7900 360.0000 1.0000
45.8000 363.0000 1.0000
45.8100 397.0000 1.0000
45.8200 376.0000 1.0000
45.8300 401.0000 1.0000
45.8400 378.0000 1.0000
45.8500 375.0000 1.0000
45.8600 384.0000 1.0000
45.8700 358.0000 1.0000
45.8800 354.0000 1.0000
45.8900 375.0000 1.0000
45.9000 355.0000 1.0000
45.9100 364.0000 1.0000
45.9200 346.0000 1.0000
45.9300 342.0000 1.0000
45.9400 387.0000 1.0000
45.9500 343.0000 1.0000
45.9600 371.0000 1.0000
45.9700 353.0000 1.0000
45.9800 351.0000 1.0000
45.9900 360.0000 1.0000
46.0000 351.0000 1.0000
46.0100 361.0000 1.0000
46.0200 354.0000 1.0000
46.0300 336.0000 1.0000
46.0400 399.0000 1.0000
46.0500 385.0000 1.0000
46.0600 344.0000 1.0000
46.0700 340.0000 1.0000
46.0800 389.0000 1.0000
46.0900 364.0000 1.0000
46.1000 373.0000 1.0000
46.1100 371.0000 1.0000
46.1200 349.0000 1.0000
46.1300 346.0000 1.0000
46.1400 414.0000 1.0000
46.1500 392.0000 1.0000
46.1600 390.0000 1.0000
46.1700 354.0000 1.0000
46.1800 375.0000 1.0000
46.1900 383.0000 1.0000
46.2000 403.0000 1.0000
46.2100 388.0000 1.0000
46.2200 379.0000 1.0000
46.2300 364.0000 1.0000
46.2400 380.0000 1.0000
46.2500 376.0000 1.0000
46.2600 363.0000 1.0000
46.2700 375.0000 1.0000
46.2800 367.0000 1.0000
46.2900 357.0000 1.0000
46.3000 368.0000 1.0000
46.3100 373.0000 1.0000
46.3200 382.0000 1.0000
46.3300 390.0000 1.0000
46.3400 384.0000 1.0000
46.3500 373.0000 1.0000
46.3600 370.0000 1.0000
46.3700 348.0000 1.0000
46.3800 356.0000 1.0000
46.3900 371.0000 1.0000
46.4000 367.0000 1.0000
46.4100 366.0000 1.0000
46.4200 378.0000 1.0000
46.4300 348.0000 1.0000
46.4400 360.0000 1.0000
46.4500 373.0000 1.0000
46.4600 355.0000 1.0000
46.4700 347.0000 1.0000
46.4800 379.0000 1.0000
46.4900 350.0000 1.0000
46.5000 368.0000 1.0000
46.5100 345.0000 1.0000
46.5200 368.0000 1.0000
46.5300 369.0000 1.0000
46.5400 351.0000 1.0000
46.5500 354.0000 1.0000
46.5600 379.0000 1.0000
46.5700 355.0000 1.0000
46.5800 347.0000 1.0000
46.5900 366.0000 1.0000
46.6000 351.0000 1.0000
46.6100 392.0000 1.0000
46.6200 350.0000 1.0000
46.6300 386.0000 1.0000
46.6400 371.0000 1.0000
46.6500 399.0000 1.0000
46.6600 367.0000 1.0000
46.6700 339.0000 1.0000
46.6800 326.0000 1.0000
46.6900 343.0000 1.0000
46.7000 362.0000 1.0000
46.7100 333.0000 1.0000
46.7200 397.0000 1.0000
46.7300 322.0000 1.0000
46.7400 356.0000 1.0000
46.7500 371.0000 1.0000
46.7600 351.0000 1.0000
46.7700 350.0000 1.0000
46.7800 398.0000 1.0000
46.7900 371.0000 1.0000
46.8000 368.0000 1.0000
46.8100 361.0000 1.0000
46.8200 330.0000 1.0000
46.8300 331.0000 1.0000
46.8400 332.0000 1.0000
46.8500 341.0000 1.0000
46.8600 343.0000 1.0000
46.8700 357.0000 1.0000
46.8800 364.0000 1.0000
46.8900 337.0000 1.0000
46.9000 350.0000 1.0000
46.9100 331.0000 1.0000
46.9200 332.0000 1.0000
46.9300 363.0000 1.0000
46.9400 354.0000 1.0000
46.9500 356.0000 1.0000
46.9600 361.0000 1.0000
46.9700 366.0000 1.0000
46.9800 353.0000 1.0000
46.9900 367.0000 1.0000
47.0000 348.0000 1.0000
47.0100 361.0000 1.0000
47.0200 367.0000 1.0000
47.0300 355.0000 1.0000
47.0400 335.0000 1.0000
47.0500 353.0000 1.0000
47.0600 364.0000 1.0000
47.0700 364.0000 1.0000
47.0800 327.0000 1.0000
47.0900 387.0000 1.0000
47.1000 385.0000 1.0000
47.1100 355.0000 1.0000
47.1200 350.0000 1.0000
47.1300 386.0000 1.0000
47.1400 368.0000 1.0000
47.1500 390.0000 1.0000
47.1600 355.0000 1.0000
47.1700 399.0000 1.0000
47.1800 376.0000 1.0000
47.1900 350.0000 1.0000
47.2000 321.0000 1.0000
47.2100 334.0000 1.0000
47.2200 354.0000 1.0000
47.2300 392.0000 1.0000
47.2400 379.0000 1.0000
47.2500 385.0000 1.0000
47.2600 393.0000 1.0000
47.2700 384.0000 1.0000
47.2800 398.0000 1.0000
47.2900 389.0000 1.0000
47.3000 357.0000 1.0000
47.3100 359.0000 1.0000
47.3200 392.0000 1.0000
47.3300 350.0000 1.0000
47.3400 356.0000 1.0000
47.3500 389.0000 1.0000
47.3600 362.0000 1.0000
47.3700 307.0000 1.0000
47.3800 360.0000 1.0000
47.3900 358.0000 1.0000
47.4000 366.0000 1.0000
47.4100 380.0000 1.0000
47.4200 346.0000 1.0000
47.4300 399.0000 1.0000
47.4400 377.0000 1.0000
47.4500 360.0000 1.0000
47.4600 343.0000 1.0000
47.4700 376.0000 1.0000
47.4800 387.0000 1.0000
47.4900 323.0000 1.0000
47.5000 335.0000 1.0000
47.5100 349.0000 1.0000
47.5200 336.0000 1.0000
47.5300 385.0000 1.0000
47.5400 368.0000 1.0000
47.5500 369.0000 1.0000
47.5600 321.0000 1.0000
47.5700 374.0000 1.0000
47.5800 348.0000 1.0000
47.5900 376.0000 1.0000
47.6000 343.0000 1.0000
47.6100 379.0000 1.0000
47.6200 360.0000 1.0000
47.6300 391.0000 1.0000
47.6400 364.0000 1.0000
47.6500 353.0000 1.0000
47.6600 350.0000 1.0000
47.6700 330.0000 1.0000
47.6800 356.0000 1.0000
47.6900 357.0000 1.0000
47.7000 354.0000 1.0000
47.7100 360.0000 1.0000
47.7200 366.0000 1.0000
47.7300 344.0000 1.0000
47.7400 365.0000 1.0000
47.7500 357.0000 1.0000
47.7600 330.0000 1.0000
47.7700 316.0000 1.0000
47.7800 325.0000 1.0000
47.7900 356.0000 1.0000
47.8000 399.0000 1.0000
47.8100 360.0000 1.0000
47.8200 357.0000 1.0000
47.8300 355.0000 1.0000
47.8400 351.0000 1.0000
47.8500 336.0000 1.0000
47.8600 357.0000 1.0000
47.8700 335.0000 1.0000
47.8800 352.0000 1.0000
47.8900 330.0000 1.0000
47.9000 341.0000 1.0000
47.9100 346.0000 1.0000
47.9200 338.0000 1.0000
47.9300 320.0000 1.0000
47.9400 329.0000 1.0000
47.9500 376.0000 1.0000
47.9600 375.0000 1.0000
47.9700 347.0000 1.0000
47.9800 365.0000 1.0000
47.9900 350.0000 1.0000
48.0000 353.0000 1.0000
48.0100 338.0000 1.0000
48.0200 342.0000 1.0000
48.0300 345.0000 1.0000
48.0400 351.0000 1.0000
48.0500 377.0000 1.0000
48.0600 350.0000 1.0000
48.0700 362.0000 1.0000
48.0800 354.0000 1.0000
48.0900 346.0000 1.0000
48.1000 350.0000 1.0000
48.1100 329.0000 1.0000
48.1200 353.0000 1.0000
48.1300 346.0000 1.0000
48.1400 365.0000 1.0000
48.1500 347.0000 1.0000
48.1600 334.0000 1.0000
48.1700 364.0000 1.0000
48.1800 346.0000 1.0000
48.1900 317.0000 1.0000
48.2000 364.0000 1.0000
48.2100 368.0000 1.0000
48.2200 345.0000 1.0000
48.2300 347.0000 1.0000
48.2400 358.0000 1.0000
48.2500 359.0000 1.0000
48.2600 348.0000 1.0000
48.2700 348.0000 1.0000
48.2800 330.0000 1.0000
48.2900 317.0000 1.0000
48.3000 332.0000 1.0000
48.3100 345.0000 1.0000
48.3200 347.0000 1.0000
48.3300 324.0000 1.0000
48.3400 361.0000 1.0000
48.3500 381.0000 1.0000
48.3600 367.0000 1.0000
48.3700 356.0000 1.0000
48.3800 347.0000 1.0000
48.3900 356.0000 1.0000
48.4000 338.0000 1.0000
48.4100 347.0000 1.0000
48.4200 384.0000 1.0000
48.4300 366.0000 1.0000
48.4400 365.0000 1.0000
48.4500 367.0000 1.0000
48.4600 337.0000 1.0000
48.4700 348.0000 1.0000
48.4800 351.0000 1.0000
48.4900 365.0000 1.0000
48.5000 341.0000 1.0000
48.5100 345.0000 1.0000
48.5200 351.0000 1.0000
48.5300 364.0000 1.0000
48.5400 371.0000 1.0000
48.5500 320.0000 1.0000
48.5600 341.0000 1.0000
48.5700 344.0000 1.0000
48.5800 354.0000 1.0000
48.5900 339.0000 1.0000
48.6000 365.0000 1.0000
48.6100 332.0000 1.0000
48.6200 347.0000 1.0000
48.6300 384.0000 1.0000
48.6400 363.0000 1.0000
48.6500 337.0000 1.0000
48.6600 329.0000 1.0000
48.6700 332.0000 1.0000
48.6800 350.0000 1.0000
48.6900 344.0000 1.0000
48.7000 349.0000 1.0000
48.7100 340.0000 1.0000
48.7200 335.0000 1.0000
48.7300 341.0000 1.0000
48.7400 352.0000 1.0000
48.7500 337.0000 1.0000
48.7600 342.0000 1.0000
48.7700 343.0000 1.0000
48.7800 346.0000 1.0000
48.7900 314.0000 1.0000
48.8000 354.0000 1.0000
48.8100 364.0000 1.0000
48.8200 356.0000 1.0000
48.8300 329.0000 1.0000
48.8400 331.0000 1.0000
48.8500 335.0000 1.0000
48.8600 343.0000 1.0000
48.8700 382.0000 1.0000
48.8800 324.0000 1.0000
48.8900 376.0000 1.0000
48.9000 324.0000 1.0000
48.9100 325.0000 1.0000
48.9200 335.0000 1.0000
48.9300 355.0000 1.0000
48.9400 350.0000 1.0000
48.9500 394.0000 1.0000
48.9600 380.0000 1.0000
48.9700 335.0000 1.0000
48.9800 349.0000 1.0000
48.9900 359.0000 1.0000
49.0000 363.0000 1.0000
49.0100 360.0000 1.0000
49.0200 346.0000 1.0000
49.0300 351.0000 1.0000
49.0400 343.0000 1.0000
49.0500 364.0000 1.0000
49.0600 329.0000 1.0000
49.0700 344.0000 1.0000
49.0800 333.0000 1.0000
49.0900 348.0000 1.0000
49.1000 360.0000 1.0000
49.1100 356.0000 1.0000
49.1200 372.0000 1.0000
49.1300 344.0000 1.0000
49.1400 338.0000 1.0000
49.1500 344.0000 1.0000
49.1600 327.0000 1.0000
49.1700 340.0000 1.0000
49.1800 324.0000 1.0000
49.1900 353.0000 1.0000
49.2000 318.0000 1.0000
49.2100 326.0000 1.0000
49.2200 343.0000 1.0000
49.2300 375.0000 1.0000
49.2400 325.0000 1.0000
49.2500 345.0000 1.0000
49.2600 356.0000 1.0000
49.2700 340.0000 1.0000
49.2800 357.0000 1.0000
49.2900 351.0000 1.0000
49.3000 379.0000 1.0000
49.3100 372.0000 1.0000
49.3200 367.0000 1.0000
49.3300 356.0000 1.0000
49.3400 348.0000 1.0000
49.3500 352.0000 1.0000
49.3600 363.0000 1.0000
49.3700 380.0000 1.0000
49.3800 393.0000 1.0000
49.3900 392.0000 1.0000
49.4000 352.0000 1.0000
49.4100 345.0000 1.0000
49.4200 393.0000 1.0000
49.4300 371.0000 1.0000
49.4400 377.0000 1.0000
49.4500 389.0000 1.0000
49.4600 391.0000 1.0000
49.4700 366.0000 1.0000
49.4800 379.0000 1.0000
49.4900 358.0000 1.0000
49.5000 377.0000 1.0000
49.5100 378.0000 1.0000
49.5200 389.0000 1.0000
49.5300 373.0000 1.0000
49.5400 331.0000 1.0000
49.5500 361.0000 1.0000
49.5600 358.0000 1.0000
49.5700 371.0000 1.0000
49.5800 384.0000 1.0000
49.5900 378.0000 1.0000
49.6000 351.0000 1.0000
49.6100 371.0000 1.0000
49.6200 347.0000 1.0000
49.6300 369.0000 1.0000
49.6400 342.0000 1.0000
49.6500 376.0000 1.0000
49.6600 363.0000 1.0000
49.6700 371.0000 1.0000
49.6800 366.0000 1.0000
49.6900 358.0000 1.0000
49.7000 367.0000 1.0000
49.7100 363.0000 1.0000
49.7200 365.0000 1.0000
49.7300 360.0000 1.0000
49.7400 316.0000 1.0000
49.7500 358.0000 1.0000
49.7600 310.0000 1.0000
49.7700 341.0000 1.0000
49.7800 347.0000 1.0000
49.7900 342.0000 1.0000
49.8000 350.0000 1.0000
49.8100 359.0000 1.0000
49.8200 335.0000 1.0000
49.8300 332.0000 1.0000
49.8400 315.0000 1.0000
49.8500 351.0000 1.0000
49.8600 341.0000 1.0000
49.8700 340.0000 1.0000
49.8800 329.0000 1.0000
49.8900 351.0000 1.0000
49.9000 372.0000 1.0000
49.9100 365.0000 1.0000
49.9200 366.0000 1.0000
49.9300 344.0000 1.0000
49.9400 377.0000 1.0000
49.9500 361.0000 1.0000
49.9600 366.0000 1.0000
49.9700 331.0000 1.0000
49.9800 374.0000 1.0000
49.9900 358.0000 1.0000
50.0000 352.0000 1.0000
50.0100 346.0000 1.0000
50.0200 366.0000 1.0000
50.0300 369.0000 1.0000
50.0400 365.0000 1.0000
50.0500 330.0000 1.0000
50.0600 358.0000 1.0000
50.0700 324.0000 1.0000
50.0800 348.0000 1.0000
50.0900 361.0000 1.0000
50.1000 371.0000 1.0000
50.1100 370.0000 1.0000
50.1200 373.0000 1.0000
50.1300 383.0000 1.0000
50.1400 382.0000 1.0000
50.1500 348.0000 1.0000
50.1600 354.0000 1.0000
50.1700 371.0000 1.0000
50.1800 355.0000 1.0000
50.1900 362.0000 1.0000
50.2000 340.0000 1.0000
50.2100 323.0000 1.0000
50.2200 324.0000 1.0000
50.2300 358.0000 1.0000
50.2400 376.0000 1.0000
50.2500 364.0000 1.0000
50.2600 363.0000 1.0000
50.2700 345.0000 1.0000
50.2800 352.0000 1.0000
50.2900 361.0000 1.0000
50.3000 379.0000 1.0000
50.3100 354.0000 1.0000
50.3200 358.0000 1.0000
50.3300 330.0000 1.0000
50.3400 356.0000 1.0000
50.3500 359.0000 1.0000
50.3600 376.0000 1.0000
50.3700 348.0000 1.0000
50.3800 369.0000 1.0000
50.3900 316.0000 1.0000
50.4000 326.0000 1.0000
50.4100 321.0000 1.0000
50.4200 334.0000 1.0000
50.4300 332.0000 1.0000
50.4400 331.0000 1.0000
50.4500 337.0000 1.0000
50.4600 359.0000 1.0000
50.4700 323.0000 1.0000
50.4800 342.0000 1.0000
50.4900 362.0000 1.0000
50.5000 336.0000 1.0000
50.5100 360.0000 1.0000
50.5200 397.0000 1.0000
50.5300 373.0000 1.0000
50.5400 355.0000 1.0000
50.5500 357.0000 1.0000
50.5600 368.0000 1.0000
50.5700 341.0000 1.0000
50.5800 365.0000 1.0000
50.5900 363.0000 1.0000
50.6000 340.0000 1.0000
50.6100 334.0000 1.0000
50.6200 352.0000 1.0000
50.6300 318.0000 1.0000
50.6400 366.0000 1.0000
50.6500 372.0000 1.0000
50.6600 350.0000 1.0000
50.6700 336.0000 1.0000
50.6800 342.0000 1.0000
50.6900 326.0000 1.0000
50.7000 345.0000 1.0000
50.7100 360.0000 1.0000
50.7200 360.0000 1.0000
50.7300 345.0000 1.0000
50.7400 345.0000 1.0000
50.7500 340.0000 1.0000
50.7600 346.0000 1.0000
50.7700 352.0000 1.0000
50.7800 360.0000 1.0000
50.7900 340.0000 1.0000
50.8000 381.0000 1.0000
50.8100 399.0000 1.0000
50.8200 365.0000 1.0000
50.8300 360.0000 1.0000
50.8400 354.0000 1.0000
50.8500 339.0000 1.0000
50.8600 380.0000 1.0000
50.8700 378.0000 1.0000
50.8800 360.0000 1.0000
50.8900 377.0000 1.0000
50.9000 354.0000 1.0000
50.9100 337.0000 1.0000
50.9200 368.0000 1.0000
50.9300 406.0000 1.0000
50.9400 368.0000 1.0000
50.9500 363.0000 1.0000
50.9600 340.0000 1.0000
50.9700 345.0000 1.0000
50.9800 365.0000 1.0000
50.9900 369.0000 1.0000
51.0000 366.0000 1.0000
51.0100 366.0000 1.0000
51.0200 342.0000 1.0000
51.0300 391.0000 1.0000
51.0400 380.0000 1.0000
51.0500 377.0000 1.0000
51.0600 382.0000 1.0000
51.0700 390.0000 1.0000
51.0800 416.0000 1.0000
51.0900 414.0000 1.0000
51.1000 421.0000 1.0000
51.1100 445.0000 1.0000
51.1200 413.0000 1.0000
51.1300 440.0000 1.0000
51.1400 435.0000 1.0000
51.1500 422.0000 1.0000
51.1600 478.0000 1.0000
51.1700 465.0000 1.0000
51.1800 473.0000 1.0000
51.1900 514.0000 1.0000
51.2000 469.0000 1.0000
51.2100 479.0000 1.0000
51.2200 530.0000 1.0000
51.2300 575.0000 1.0000
51.2400 571.0000 1.0000
51.2500 587.0000 1.0000
51.2600 628.0000 1.0000
51.2700 649.0000 1.0000
51.2800 699.0000 1.0000
51.2900 740.0000 1.0000
51.3000 746.0000 1.0000
51.3100 776.0000 1.0000
51.3200 826.0000 1.0000
51.3300 900.0000 1.0000
51.3400 969.0000 1.0000
51.3500 1002.0000 1.0000
51.3600 1097.0000 1.0000
51.3700 1211.0000 1.0000
51.3800 1276.0000 1.0000
51.3900 1405.0000 1.0000
51.4000 1503.0000 1.0000
51.4100 1626.0000 1.0000
51.4200 1770.0000 1.0000
51.4300 1870.0000 1.0000
51.4400 1998.0000 1.0000
51.4500 2017.0000 1.0000
51.4600 2118.0000 1.0000
51.4700 2177.0000 1.0000
51.4800 2304.0000 1.0000
51.4900 2296.0000 1.0000
51.5000 2263.0000 1.0000
51.5100 2342.0000 1.0000
51.5200 2276.0000 1.0000
51.5300 2158.0000 1.0000
51.5400 2141.0000 1.0000
51.5500 2049.0000 1.0000
51.5600 1945.0000 1.0000
51.5700 1871.0000 1.0000
51.5800 1839.0000 1.0000
51.5900 1904.0000 1.0000
51.6000 1765.0000 1.0000
51.6100 1716.0000 1.0000
51.6200 1697.0000 1.0000
51.6300 1660.0000 1.0000
51.6400 1515.0000 1.0000
51.6500 1442.0000 1.0000
51.6600 1361.0000 1.0000
51.6700 1302.0000 1.0000
51.6800 1244.0000 1.0000
51.6900 1159.0000 1.0000
51.7000 1056.0000 1.0000
51.7100 1025.0000 1.0000
51.7200 914.0000 1.0000
51.7300 833.0000 1.0000
51.7400 742.0000 1.0000
51.7500 769.0000 1.0000
51.7600 751.0000 1.0000
51.7700 694.0000 1.0000
51.7800 682.0000 1.0000
51.7900 654.0000 1.0000
51.8000 572.0000 1.0000
51.8100 557.0000 1.0000
51.8200 562.0000 1.0000
51.8300 546.0000 1.0000
51.8400 507.0000 1.0000
51.8500 462.0000 1.0000
51.8600 477.0000 1.0000
51.8700 492.0000 1.0000
51.8800 477.0000 1.0000
51.8900 446.0000 1.0000
51.9000 475.0000 1.0000
51.9100 433.0000 1.0000
51.9200 421.0000 1.0000
51.9300 437.0000 1.0000
51.9400 446.0000 1.0000
51.9500 412.0000 1.0000
51.9600 410.0000 1.0000
51.9700 393.0000 1.0000
51.9800 415.0000 1.0000
51.9900 439.0000 1.0000
52.0000 434.0000 1.0000
52.0100 405.0000 1.0000
52.0200 395.0000 1.0000
52.0300 380.0000 1.0000
52.0400 396.0000 1.0000
52.0500 401.0000 1.0000
52.0600 389.0000 1.0000
52.0700 378.0000 1.0000
52.0800 400.0000 1.0000
52.0900 403.0000 1.0000
52.1000 375.0000 1.0000
52.1100 381.0000 1.0000
52.1200 388.0000 1.0000
52.1300 369.0000 1.0000
52.1400 364.0000 1.0000
52.1500 383.0000 1.0000
52.1600 365.0000 1.0000
52.1700 375.0000 1.0000
52.1800 354.0000 1.0000
52.1900 365.0000 1.0000
52.2000 366.0000 1.0000
52.2100 363.0000 1.0000
52.2200 368.0000 1.0000
52.2300 368.0000 1.0000
52.2400 353.0000 1.0000
52.2500 367.0000 1.0000
52.2600 352.0000 1.0000
52.2700 368.0000 1.0000
52.2800 359.0000 1.0000
52.2900 339.0000 1.0000
52.3000 347.0000 1.0000
52.3100 366.0000 1.0000
52.3200 357.0000 1.0000
52.3300 356.0000 1.0000
52.3400 326.0000 1.0000
52.3500 334.0000 1.0000
52.3600 342.0000 1.0000
52.3700 366.0000 1.0000
52.3800 341.0000 1.0000
52.3900 325.0000 1.0000
52.4000 336.0000 1.0000
52.4100 389.0000 1.0000
52.4200 356.0000 1.0000
52.4300 337.0000 1.0000
52.4400 353.0000 1.0000
52.4500 364.0000 1.0000
52.4600 347.0000 1.0000
52.4700 322.0000 1.0000
52.4800 345.0000 1.0000
52.4900 314.0000 1.0000
52.5000 339.0000 1.0000
52.5100 331.0000 1.0000
52.5200 336.0000 1.0000
52.5300 327.0000 1.0000
52.5400 342.0000 1.0000
52.5500 309.0000 1.0000
52.5600 375.0000 1.0000
52.5700 353.0000 1.0000
52.5800 338.0000 1.0000
52.5900 329.0000 1.0000
52.6000 321.0000 1.0000
52.6100 335.0000 1.0000
52.6200 316.0000 1.0000
52.6300 337.0000 1.0000
52.6400 351.0000 1.0000
52.6500 330.0000 1.0000
52.6600 339.0000 1.0000
52.6700 315.0000 1.0000
52.6800 326.0000 1.0000
52.6900 357.0000 1.0000
52.7000 305.0000 1.0000
52.7100 309.0000 1.0000
52.7200 312.0000 1.0000
52.7300 333.0000 1.0000
52.7400 332.0000 1.0000
52.7500 322.0000 1.0000
52.7600 323.0000 1.0000
52.7700 329.0000 1.0000
52.7800 330.0000 1.0000
52.7900 339.0000 1.0000
52.8000 312.0000 1.0000
52.8100 324.0000 1.0000
52.8200 343.0000 1.0000
52.8300 328.0000 1.0000
52.8400 362.0000 1.0000
52.8500 324.0000 1.0000
52.8600 330.0000 1.0000
52.8700 334.0000 1.0000
52.8800 361.0000 1.0000
52.8900 347.0000 1.0000
52.9000 314.0000 1.0000
52.9100 341.0000 1.0000
52.9200 328.0000 1.0000
52.9300 302.0000 1.0000
52.9400 325.0000 1.0000
52.9500 308.0000 1.0000
52.9600 323.0000 1.0000
52.9700 330.0000 1.0000
52.9800 331.0000 1.0000
52.9900 307.0000 1.0000
53.0000 298.0000 1.0000
53.0100 319.0000 1.0000
53.0200 345.0000 1.0000
53.0300 324.0000 1.0000
53.0400 333.0000 1.0000
53.0500 330.0000 1.0000
53.0600 334.0000 1.0000
53.0700 349.0000 1.0000
53.0800 292.0000 1.0000
53.0900 307.0000 1.0000
53.1000 324.0000 1.0000
53.1100 352.0000 1.0000
53.1200 336.0000 1.0000
53.1300 349.0000 1.0000
53.1400 315.0000 1.0000
53.1500 308.0000 1.0000
53.1600 308.0000 1.0000
53.1700 327.0000 1.0000
53.1800 328.0000 1.0000
53.1900 319.0000 1.0000
53.2000 312.0000 1.0000
53.2100 332.0000 1.0000
53.2200 311.0000 1.0000
53.2300 311.0000 1.0000
53.2400 332.0000 1.0000
53.2500 317.0000 1.0000
53.2600 310.0000 1.0000
53.2700 303.0000 1.0000
53.2800 337.0000 1.0000
53.2900 320.0000 1.0000
53.3000 322.0000 1.0000
53.3100 337.0000 1.0000
53.3200 293.0000 1.0000
53.3300 315.0000 1.0000
53.3400 329.0000 1.0000
53.3500 318.0000 1.0000
53.3600 337.0000 1.0000
53.3700 324.0000 1.0000
53.3800 340.0000 1.0000
53.3900 330.0000 1.0000
53.4000 316.0000 1.0000
53.4100 345.0000 1.0000
53.4200 314.0000 1.0000
53.4300 336.0000 1.0000
53.4400 296.0000 1.0000
53.4500 304.0000 1.0000
53.4600 331.0000 1.0000
53.4700 327.0000 1.0000
53.4800 350.0000 1.0000
53.4900 304.0000 1.0000
53.5000 305.0000 1.0000
53.5100 323.0000 1.0000
53.5200 313.0000 1.0000
53.5300 325.0000 1.0000
53.5400 326.0000 1.0000
53.5500 319.0000 1.0000
53.5600 320.0000 1.0000
53.5700 288.0000 1.0000
53.5800 308.0000 1.0000
53.5900 297.0000 1.0000
53.6000 308.0000 1.0000
53.6100 336.0000 1.0000
53.6200 337.0000 1.0000
53.6300 319.0000 1.0000
53.6400 337.0000 1.0000
53.6500 304.0000 1.0000
53.6600 333.0000 1.0000
53.6700 316.0000 1.0000
53.6800 307.0000 1.0000
53.6900 292.0000 1.0000
53.7000 334.0000 1.0000
53.7100 317.0000 1.0000
53.7200 329.0000 1.0000
53.7300 306.0000 1.0000
53.7400 297.0000 1.0000
53.7500 313.0000 1.0000
53.7600 298.0000 1.0000
53.7700 327.0000 1.0000
53.7800 339.0000 1.0000
53.7900 321.0000 1.0000
53.8000 324.0000 1.0000
53.8100 315.0000 1.0000
53.8200 337.0000 1.0000
53.8300 358.0000 1.0000
53.8400 315.0000 1.0000
53.8500 333.0000 1.0000
53.8600 330.0000 1.0000
53.8700 315.0000 1.0000
53.8800 369.0000 1.0000
53.8900 312.0000 1.0000
53.9000 336.0000 1.0000
53.9100 319.0000 1.0000
53.9200 309.0000 1.0000
53.9300 320.0000 1.0000
53.9400 330.0000 1.0000
53.9500 341.0000 1.0000
53.9600 362.0000 1.0000
53.9700 333.0000 1.0000
53.9800 334.0000 1.0000
53.9900 343.0000 1.0000
54.0000 322.0000 1.0000
54.0100 353.0000 1.0000
54.0200 382.0000 1.0000
54.0300 383.0000 1.0000
54.0400 365.0000 1.0000
54.0500 361.0000 1.0000
54.0600 361.0000 1.0000
54.0700 341.0000 1.0000
54.0800 316.0000 1.0000
54.0900 359.0000 1.0000
54.1000 346.0000 1.0000
54.1100 347.0000 1.0000
54.1200 362.0000 1.0000
54.1300 357.0000 1.0000
54.1400 343.0000 1.0000
54.1500 358.0000 1.0000
54.1600 369.0000 1.0000
54.1700 362.0000 1.0000
54.1800 333.0000 1.0000
54.1900 311.0000 1.0000
54.2000 341.0000 1.0000
54.2100 326.0000 1.0000
54.2200 355.0000 1.0000
54.2300 348.0000 1.0000
54.2400 311.0000 1.0000
54.2500 353.0000 1.0000
54.2600 393.0000 1.0000
54.2700 367.0000 1.0000
54.2800 351.0000 1.0000
54.2900 351.0000 1.0000
54.3000 367.0000 1.0000
54.3100 383.0000 1.0000
54.3200 358.0000 1.0000
54.3300 353.0000 1.0000
54.3400 349.0000 1.0000
54.3500 378.0000 1.0000
54.3600 375.0000 1.0000
54.3700 392.0000 1.0000
54.3800 392.0000 1.0000
54.3900 414.0000 1.0000
54.4000 387.0000 1.0000
54.4100 386.0000 1.0000
54.4200 423.0000 1.0000
54.4300 419.0000 1.0000
54.4400 433.0000 1.0000
54.4500 420.0000 1.0000
54.4600 413.0000 1.0000
54.4700 433.0000 1.0000
54.4800 449.0000 1.0000
54.4900 467.0000 1.0000
54.5000 475.0000 1.0000
54.5100 415.0000 1.0000
54.5200 446.0000 1.0000
54.5300 456.0000 1.0000
54.5400 481.0000 1.0000
54.5500 467.0000 1.0000
54.5600 448.0000 1.0000
54.5700 428.0000 1.0000
54.5800 451.0000 1.0000
54.5900 448.0000 1.0000
54.6000 427.0000 1.0000
54.6100 450.0000 1.0000
54.6200 410.0000 1.0000
54.6300 420.0000 1.0000
54.6400 459.0000 1.0000
54.6500 416.0000 1.0000
54.6600 406.0000 1.0000
54.6700 421.0000 1.0000
54.6800 414.0000 1.0000
54.6900 446.0000 1.0000
54.7000 409.0000 1.0000
54.7100 427.0000 1.0000
54.7200 388.0000 1.0000
54.7300 382.0000 1.0000
54.7400 384.0000 1.0000
54.7500 406.0000 1.0000
54.7600 364.0000 1.0000
54.7700 354.0000 1.0000
54.7800 358.0000 1.0000
54.7900 314.0000 1.0000
54.8000 348.0000 1.0000
54.8100 339.0000 1.0000
54.8200 339.0000 1.0000
54.8300 337.0000 1.0000
54.8400 311.0000 1.0000
54.8500 336.0000 1.0000
54.8600 332.0000 1.0000
54.8700 352.0000 1.0000
54.8800 331.0000 1.0000
54.8900 339.0000 1.0000
54.9000 337.0000 1.0000
54.9100 346.0000 1.0000
54.9200 324.0000 1.0000
54.9300 308.0000 1.0000
54.9400 308.0000 1.0000
54.9500 312.0000 1.0000
54.9600 344.0000 1.0000
54.9700 330.0000 1.0000
54.9800 296.0000 1.0000
54.9900 304.0000 1.0000
55.0000 308.0000 1.0000
55.0100 308.0000 1.0000
55.0200 306.0000 1.0000
55.0300 293.0000 1.0000
55.0400 302.0000 1.0000
55.0500 280.0000 1.0000
55.0600 307.0000 1.0000
55.0700 315.0000 1.0000
55.0800 313.0000 1.0000
55.0900 326.0000 1.0000
55.1000 339.0000 1.0000
55.1100 300.0000 1.0000
55.1200 301.0000 1.0000
55.1300 289.0000 1.0000
55.1400 284.0000 1.0000
55.1500 284.0000 1.0000
55.1600 314.0000 1.0000
55.1700 315.0000 1.0000
55.1800 322.0000 1.0000
55.1900 305.0000 1.0000
55.2000 300.0000 1.0000
55.2100 319.0000 1.0000
55.2200 319.0000 1.0000
55.2300 289.0000 1.0000
55.2400 309.0000 1.0000
55.2500 319.0000 1.0000
55.2600 322.0000 1.0000
55.2700 319.0000 1.0000
55.2800 324.0000 1.0000
55.2900 318.0000 1.0000
55.3000 291.0000 1.0000
55.3100 272.0000 1.0000
55.3200 285.0000 1.0000
55.3300 312.0000 1.0000
55.3400 302.0000 1.0000
55.3500 323.0000 1.0000
55.3600 303.0000 1.0000
55.3700 334.0000 1.0000
55.3800 295.0000 1.0000
55.3900 303.0000 1.0000
55.4000 308.0000 1.0000
55.4100 281.0000 1.0000
55.4200 289.0000 1.0000
55.4300 332.0000 1.0000
55.4400 307.0000 1.0000
55.4500 300.0000 1.0000
55.4600 332.0000 1.0000
55.4700 290.0000 1.0000
55.4800 294.0000 1.0000
55.4900 306.0000 1.0000
55.5000 298.0000 1.0000
55.5100 293.0000 1.0000
55.5200 295.0000 1.0000
55.5300 271.0000 1.0000
55.5400 307.0000 1.0000
55.5500 316.0000 1.0000
55.5600 281.0000 1.0000
55.5700 293.0000 1.0000
55.5800 296.0000 1.0000
55.5900 301.0000 1.0000
55.6000 295.0000 1.0000
55.6100 297.0000 1.0000
55.6200 307.0000 1.0000
55.6300 303.0000 1.0000
55.6400 286.0000 1.0000
55.6500 316.0000 1.0000
55.6600 290.0000 1.0000
55.6700 283.0000 1.0000
55.6800 305.0000 1.0000
55.6900 318.0000 1.0000
55.7000 296.0000 1.0000
55.7100 262.0000 1.0000
55.7200 260.0000 1.0000
55.7300 259.0000 1.0000
55.7400 284.0000 1.0000
55.7500 324.0000 1.0000
55.7600 300.0000 1.0000
55.7700 314.0000 1.0000
55.7800 295.0000 1.0000
55.7900 309.0000 1.0000
55.8000 329.0000 1.0000
55.8100 309.0000 1.0000
55.8200 271.0000 1.0000
55.8300 264.0000 1.0000
55.8400 290.0000 1.0000
55.8500 316.0000 1.0000
55.8600 313.0000 1.0000
55.8700 305.0000 1.0000
55.8800 323.0000 1.0000
55.8900 309.0000 1.0000
55.9000 313.0000 1.0000
55.9100 301.0000 1.0000
55.9200 310.0000 1.0000
55.9300 312.0000 1.0000
55.9400 297.0000 1.0000
55.9500 342.0000 1.0000
55.9600 307.0000 1.0000
55.9700 326.0000 1.0000
55.9800 337.0000 1.0000
55.9900 305.0000 1.0000
56.0000 312.0000 1.0000
56.0100 303.0000 1.0000
56.0200 298.0000 1.0000
56.0300 296.0000 1.0000
56.0400 294.0000 1.0000
56.0500 298.0000 1.0000
56.0600 290.0000 1.0000
56.0700 321.0000 1.0000
56.0800 297.0000 1.0000
56.0900 316.0000 1.0000
56.1000 296.0000 1.0000
56.1100 290.0000 1.0000
56.1200 303.0000 1.0000
56.1300 280.0000 1.0000
56.1400 301.0000 1.0000
56.1500 292.0000 1.0000
56.1600 275.0000 1.0000
56.1700 299.0000 1.0000
56.1800 299.0000 1.0000
56.1900 291.0000 1.0000
56.2000 288.0000 1.0000
56.2100 287.0000 1.0000
56.2200 304.0000 1.0000
56.2300 313.0000 1.0000
56.2400 278.0000 1.0000
56.2500 295.0000 1.0000
56.2600 301.0000 1.0000
56.2700 298.0000 1.0000
56.2800 288.0000 1.0000
56.2900 305.0000 1.0000
56.3000 281.0000 1.0000
56.3100 312.0000 1.0000
56.3200 300.0000 1.0000
56.3300 324.0000 1.0000
56.3400 287.0000 1.0000
56.3500 312.0000 1.0000
56.3600 294.0000 1.0000
56.3700 298.0000 1.0000
56.3800 285.0000 1.0000
56.3900 307.0000 1.0000
56.4000 258.0000 1.0000
56.4100 259.0000 1.0000
56.4200 296.0000 1.0000
56.4300 313.0000 1.0000
56.4400 342.0000 1.0000
56.4500 326.0000 1.0000
56.4600 294.0000 1.0000
56.4700 286.0000 1.0000
56.4800 320.0000 1.0000
56.4900 305.0000 1.0000
56.5000 295.0000 1.0000
56.5100 304.0000 1.0000
56.5200 286.0000 1.0000
56.5300 294.0000 1.0000
56.5400 305.0000 1.0000
56.5500 274.0000 1.0000
56.5600 262.0000 1.0000
56.5700 290.0000 1.0000
56.5800 296.0000 1.0000
56.5900 326.0000 1.0000
56.6000 315.0000 1.0000
56.6100 320.0000 1.0000
56.6200 290.0000 1.0000
56.6300 306.0000 1.0000
56.6400 322.0000 1.0000
56.6500 289.0000 1.0000
56.6600 283.0000 1.0000
56.6700 311.0000 1.0000
56.6800 292.0000 1.0000
56.6900 272.0000 1.0000
56.7000 294.0000 1.0000
56.7100 293.0000 1.0000
56.7200 301.0000 1.0000
56.7300 314.0000 1.0000
56.7400 295.0000 1.0000
56.7500 299.0000 1.0000
56.7600 291.0000 1.0000
56.7700 306.0000 1.0000
56.7800 299.0000 1.0000
56.7900 284.0000 1.0000
56.8000 318.0000 1.0000
56.8100 303.0000 1.0000
56.8200 312.0000 1.0000
56.8300 286.0000 1.0000
56.8400 282.0000 1.0000
56.8500 304.0000 1.0000
56.8600 303.0000 1.0000
56.8700 288.0000 1.0000
56.8800 286.0000 1.0000
56.8900 284.0000 1.0000
56.9000 312.0000 1.0000
56.9100 304.0000 1.0000
56.9200 306.0000 1.0000
56.9300 302.0000 1.0000
56.9400 276.0000 1.0000
56.9500 306.0000 1.0000
56.9600 320.0000 1.0000
56.9700 299.0000 1.0000
56.9800 271.0000 1.0000
56.9900 302.0000 1.0000
57.0000 302.0000 1.0000
57.0100 303.0000 1.0000
57.0200 299.0000 1.0000
57.0300 292.0000 1.0000
57.0400 301.0000 1.0000
57.0500 288.0000 1.0000
57.0600 309.0000 1.0000
57.0700 296.0000 1.0000
57.0800 283.0000 1.0000
57.0900 275.0000 1.0000
57.1000 283.0000 1.0000
57.1100 309.0000 1.0000
57.1200 296.0000 1.0000
57.1300 289.0000 1.0000
57.1400 302.0000 1.0000
57.1500 318.0000 1.0000
57.1600 308.0000 1.0000
57.1700 289.0000 1.0000
57.1800 291.0000 1.0000
57.1900 316.0000 1.0000
57.2000 258.0000 1.0000
57.2100 280.0000 1.0000
57.2200 295.0000 1.0000
57.2300 273.0000 1.0000
57.2400 304.0000 1.0000
57.2500 306.0000 1.0000
57.2600 263.0000 1.0000
57.2700 280.0000 1.0000
57.2800 267.0000 1.0000
57.2900 289.0000 1.0000
57.3000 308.0000 1.0000
57.3100 304.0000 1.0000
57.3200 298.0000 1.0000
57.3300 284.0000 1.0000
57.3400 286.0000 1.0000
57.3500 255.0000 1.0000
57.3600 283.0000 1.0000
57.3700 283.0000 1.0000
57.3800 321.0000 1.0000
57.3900 280.0000 1.0000
57.4000 294.0000 1.0000
57.4100 306.0000 1.0000
57.4200 283.0000 1.0000
57.4300 280.0000 1.0000
57.4400 299.0000 1.0000
57.4500 286.0000 1.0000
57.4600 308.0000 1.0000
57.4700 323.0000 1.0000
57.4800 311.0000 1.0000
57.4900 290.0000 1.0000
57.5000 336.0000 1.0000
57.5100 335.0000 1.0000
57.5200 315.0000 1.0000
57.5300 304.0000 1.0000
57.5400 325.0000 1.0000
57.5500 299.0000 1.0000
57.5600 287.0000 1.0000
57.5700 309.0000 1.0000
57.5800 327.0000 1.0000
57.5900 327.0000 1.0000
57.6000 298.0000 1.0000
57.6100 320.0000 1.0000
57.6200 287.0000 1.0000
57.6300 309.0000 1.0000
57.6400 277.0000 1.0000
57.6500 256.0000 1.0000
57.6600 281.0000 1.0000
57.6700 293.0000 1.0000
57.6800 296.0000 1.0000
57.6900 286.0000 1.0000
57.7000 306.0000 1.0000
57.7100 296.0000 1.0000
57.7200 298.0000 1.0000
57.7300 332.0000 1.0000
57.7400 307.0000 1.0000
57.7500 276.0000 1.0000
57.7600 289.0000 1.0000
57.7700 260.0000 1.0000
57.7800 270.0000 1.0000
57.7900 276.0000 1.0000
57.8000 287.0000 1.0000
57.8100 258.0000 1.0000
57.8200 285.0000 1.0000
57.8300 284.0000 1.0000
57.8400 275.0000 1.0000
57.8500 283.0000 1.0000
57.8600 267.0000 1.0000
57.8700 285.0000 1.0000
57.8800 295.0000 1.0000
57.8900 292.0000 1.0000
57.9000 296.0000 1.0000
57.9100 265.0000 1.0000
57.9200 292.0000 1.0000
57.9300 274.0000 1.0000
57.9400 286.0000 1.0000
57.9500 279.0000 1.0000
57.9600 302.0000 1.0000
57.9700 295.0000 1.0000
57.9800 292.0000 1.0000
57.9900 264.0000 1.0000
58.0000 295.0000 1.0000
58.0100 290.0000 1.0000
58.0200 308.0000 1.0000
58.0300 291.0000 1.0000
58.0400 282.0000 1.0000
58.0500 268.0000 1.0000
58.0600 288.0000 1.0000
58.0700 283.0000 1.0000
58.0800 269.0000 1.0000
58.0900 280.0000 1.0000
58.1000 288.0000 1.0000
58.1100 273.0000 1.0000
58.1200 293.0000 1.0000
58.1300 313.0000 1.0000
58.1400 283.0000 1.0000
58.1500 261.0000 1.0000
58.1600 276.0000 1.0000
58.1700 263.0000 1.0000
58.1800 261.0000 1.0000
58.1900 308.0000 1.0000
58.2000 269.0000 1.0000
58.2100 262.0000 1.0000
58.2200 271.0000 1.0000
58.2300 273.0000 1.0000
58.2400 286.0000 1.0000
58.2500 283.0000 1.0000
58.2600 291.0000 1.0000
58.2700 316.0000 1.0000
58.2800 290.0000 1.0000
58.2900 291.0000 1.0000
58.3000 292.0000 1.0000
58.3100 305.0000 1.0000
58.3200 292.0000 1.0000
58.3300 289.0000 1.0000
58.3400 288.0000 1.0000
58.3500 292.0000 1.0000
58.3600 284.0000 1.0000
58.3700 262.0000 1.0000
58.3800 274.0000 1.0000
58.3900 283.0000 1.0000
58.4000 300.0000 1.0000
58.4100 276.0000 1.0000
58.4200 264.0000 1.0000
58.4300 262.0000 1.0000
58.4400 294.0000 1.0000
58.4500 321.0000 1.0000
58.4600 307.0000 1.0000
58.4700 317.0000 1.0000
58.4800 285.0000 1.0000
58.4900 284.0000 1.0000
58.5000 303.0000 1.0000
58.5100 278.0000 1.0000
58.5200 274.0000 1.0000
58.5300 306.0000 1.0000
58.5400 290.0000 1.0000
58.5500 269.0000 1.0000
58.5600 277.0000 1.0000
58.5700 278.0000 1.0000
58.5800 292.0000 1.0000
58.5900 298.0000 1.0000
58.6000 304.0000 1.0000
58.6100 272.0000 1.0000
58.6200 274.0000 1.0000
58.6300 270.0000 1.0000
58.6400 265.0000 1.0000
58.6500 317.0000 1.0000
58.6600 299.0000 1.0000
58.6700 282.0000 1.0000
58.6800 295.0000 1.0000
58.6900 287.0000 1.0000
58.7000 315.0000 1.0000
58.7100 317.0000 1.0000
58.7200 277.0000 1.0000
58.7300 278.0000 1.0000
58.7400 282.0000 1.0000
58.7500 294.0000 1.0000
58.7600 272.0000 1.0000
58.7700 284.0000 1.0000
58.7800 275.0000 1.0000
58.7900 276.0000 1.0000
58.8000 269.0000 1.0000
58.8100 277.0000 1.0000
58.8200 279.0000 1.0000
58.8300 293.0000 1.0000
58.8400 275.0000 1.0000
58.8500 270.0000 1.0000
58.8600 289.0000 1.0000
58.8700 308.0000 1.0000
58.8800 303.0000 1.0000
58.8900 289.0000 1.0000
58.9000 295.0000 1.0000
58.9100 282.0000 1.0000
58.9200 311.0000 1.0000
58.9300 284.0000 1.0000
58.9400 295.0000 1.0000
58.9500 275.0000 1.0000
58.9600 285.0000 1.0000
58.9700 283.0000 1.0000
58.9800 306.0000 1.0000
58.9900 280.0000 1.0000
59.0000 273.0000 1.0000
59.0100 273.0000 1.0000
59.0200 276.0000 1.0000
59.0300 284.0000 1.0000
59.0400 264.0000 1.0000
59.0500 281.0000 1.0000
59.0600 288.0000 1.0000
59.0700 269.0000 1.0000
59.0800 291.0000 1.0000
59.0900 286.0000 1.0000
59.1000 298.0000 1.0000
59.1100 280.0000 1.0000
59.1200 295.0000 1.0000
59.1300 278.0000 1.0000
59.1400 278.0000 1.0000
59.1500 266.0000 1.0000
59.1600 278.0000 1.0000
59.1700 302.0000 1.0000
59.1800 289.0000 1.0000
59.1900 272.0000 1.0000
59.2000 311.0000 1.0000
59.2100 291.0000 1.0000
59.2200 285.0000 1.0000
59.2300 279.0000 1.0000
59.2400 270.0000 1.0000
59.2500 272.0000 1.0000
59.2600 276.0000 1.0000
59.2700 292.0000 1.0000
59.2800 284.0000 1.0000
59.2900 319.0000 1.0000
59.3000 292.0000 1.0000
59.3100 305.0000 1.0000
59.3200 283.0000 1.0000
59.3300 256.0000 1.0000
59.3400 281.0000 1.0000
59.3500 264.0000 1.0000
59.3600 266.0000 1.0000
59.3700 269.0000 1.0000
59.3800 282.0000 1.0000
59.3900 282.0000 1.0000
59.4000 271.0000 1.0000
59.4100 291.0000 1.0000
59.4200 296.0000 1.0000
59.4300 274.0000 1.0000
59.4400 269.0000 1.0000
59.4500 279.0000 1.0000
59.4600 256.0000 1.0000
59.4700 275.0000 1.0000
59.4800 267.0000 1.0000
59.4900 271.0000 1.0000
59.5000 289.0000 1.0000
59.5100 249.0000 1.0000
59.5200 295.0000 1.0000
59.5300 262.0000 1.0000
59.5400 298.0000 1.0000
59.5500 302.0000 1.0000
59.5600 274.0000 1.0000
59.5700 307.0000 1.0000
59.5800 289.0000 1.0000
59.5900 264.0000 1.0000
59.6000 266.0000 1.0000
59.6100 294.0000 1.0000
59.6200 268.0000 1.0000
59.6300 280.0000 1.0000
59.6400 302.0000 1.0000
59.6500 280.0000 1.0000
59.6600 299.0000 1.0000
59.6700 295.0000 1.0000
59.6800 274.0000 1.0000
59.6900 287.0000 1.0000
59.7000 287.0000 1.0000
59.7100 282.0000 1.0000
59.7200 326.0000 1.0000
59.7300 265.0000 1.0000
59.7400 279.0000 1.0000
59.7500 260.0000 1.0000
59.7600 307.0000 1.0000
59.7700 286.0000 1.0000
59.7800 268.0000 1.0000
59.7900 287.0000 1.0000
59.8000 280.0000 1.0000
59.8100 294.0000 1.0000
59.8200 263.0000 1.0000
59.8300 294.0000 1.0000
59.8400 289.0000 1.0000
59.8500 306.0000 1.0000
59.8600 277.0000 1.0000
59.8700 292.0000 1.0000
59.8800 283.0000 1.0000
59.8900 260.0000 1.0000
59.9000 279.0000 1.0000
59.9100 281.0000 1.0000
59.9200 325.0000 1.0000
59.9300 291.0000 1.0000
59.9400 293.0000 1.0000
59.9500 280.0000 1.0000
59.9600 295.0000 1.0000
59.9700 298.0000 1.0000
59.9800 279.0000 1.0000
59.9900 270.0000 1.0000
60.0000 300.0000 1.0000
60.0100 299.0000 1.0000
60.0200 277.0000 1.0000
60.0300 276.0000 1.0000
60.0400 294.0000 1.0000
60.0500 275.0000 1.0000
60.0600 246.0000 1.0000
60.0700 282.0000 1.0000
60.0800 279.0000 1.0000
60.0900 270.0000 1.0000
60.1000 283.0000 1.0000
60.1100 307.0000 1.0000
60.1200 310.0000 1.0000
60.1300 310.0000 1.0000
60.1400 304.0000 1.0000
60.1500 288.0000 1.0000
60.1600 274.0000 1.0000
60.1700 277.0000 1.0000
60.1800 287.0000 1.0000
60.1900 300.0000 1.0000
60.2000 274.0000 1.0000
60.2100 275.0000 1.0000
60.2200 285.0000 1.0000
60.2300 307.0000 1.0000
60.2400 293.0000 1.0000
60.2500 262.0000 1.0000
60.2600 271.0000 1.0000
60.2700 295.0000 1.0000
60.2800 303.0000 1.0000
60.2900 278.0000 1.0000
60.3000 284.0000 1.0000
60.3100 277.0000 1.0000
60.3200 294.0000 1.0000
60.3300 314.0000 1.0000
60.3400 299.0000 1.0000
60.3500 298.0000 1.0000
60.3600 280.0000 1.0000
60.3700 298.0000 1.0000
60.3800 293.0000 1.0000
60.3900 308.0000 1.0000
60.4000 321.0000 1.0000
60.4100 305.0000 1.0000
60.4200 292.0000 1.0000
60.4300 308.0000 1.0000
60.4400 279.0000 1.0000
60.4500 266.0000 1.0000
60.4600 290.0000 1.0000
60.4700 281.0000 1.0000
60.4800 263.0000 1.0000
60.4900 260.0000 1.0000
60.5000 277.0000 1.0000
60.5100 277.0000 1.0000
60.5200 293.0000 1.0000
60.5300 293.0000 1.0000
60.5400 294.0000 1.0000
60.5500 285.0000 1.0000
60.5600 273.0000 1.0000
60.5700 287.0000 1.0000
60.5800 279.0000 1.0000
60.5900 280.0000 1.0000
60.6000 278.0000 1.0000
60.6100 300.0000 1.0000
60.6200 297.0000 1.0000
60.6300 302.0000 1.0000
60.6400 257.0000 1.0000
60.6500 280.0000 1.0000
60.6600 276.0000 1.0000
60.6700 286.0000 1.0000
60.6800 295.0000 1.0000
60.6900 271.0000 1.0000
60.7000 274.0000 1.0000
60.7100 316.0000 1.0000
60.7200 271.0000 1.0000
60.7300 257.0000 1.0000
60.7400 284.0000 1.0000
60.7500 276.0000 1.0000
60.7600 315.0000 1.0000
60.7700 282.0000 1.0000
60.7800 274.0000 1.0000
60.7900 295.0000 1.0000
60.8000 284.0000 1.0000
60.8100 300.0000 1.0000
60.8200 305.0000 1.0000
60.8300 313.0000 1.0000
60.8400 289.0000 1.0000
60.8500 303.0000 1.0000
60.8600 309.0000 1.0000
60.8700 285.0000 1.0000
60.8800 307.0000 1.0000
60.8900 306.0000 1.0000
60.9000 293.0000 1.0000
60.9100 304.0000 1.0000
60.9200 298.0000 1.0000
60.9300 273.0000 1.0000
60.9400 283.0000 1.0000
60.9500 287.0000 1.0000
60.9600 323.0000 1.0000
60.9700 294.0000 1.0000
60.9800 286.0000 1.0000
60.9900 291.0000 1.0000
61.0000 303.0000 1.0000
61.0100 333.0000 1.0000
61.0200 289.0000 1.0000
61.0300 316.0000 1.0000
61.0400 293.0000 1.0000
61.0500 301.0000 1.0000
61.0600 322.0000 1.0000
61.0700 283.0000 1.0000
61.0800 314.0000 1.0000
61.0900 305.0000 1.0000
61.1000 301.0000 1.0000
61.1100 323.0000 1.0000
61.1200 324.0000 1.0000
61.1300 310.0000 1.0000
61.1400 318.0000 1.0000
61.1500 340.0000 1.0000
61.1600 327.0000 1.0000
61.1700 323.0000 1.0000
61.1800 333.0000 1.0000
61.1900 336.0000 1.0000
61.2000 339.0000 1.0000
61.2100 348.0000 1.0000
61.2200 358.0000 1.0000
61.2300 307.0000 1.0000
61.2400 343.0000 1.0000
61.2500 362.0000 1.0000
61.2600 346.0000 1.0000
61.2700 375.0000 1.0000
61.2800 352.0000 1.0000
61.2900 389.0000 1.0000
61.3000 408.0000 1.0000
61.3100 393.0000 1.0000
61.3200 384.0000 1.0000
61.3300 393.0000 1.0000
61.3400 410.0000 1.0000
61.3500 419.0000 1.0000
61.3600 405.0000 1.0000
61.3700 445.0000 1.0000
61.3800 463.0000 1.0000
61.3900 461.0000 1.0000
61.4000 477.0000 1.0000
61.4100 514.0000 1.0000
61.4200 509.0000 1.0000
61.4300 527.0000 1.0000
61.4400 511.0000 1.0000
61.4500 554.0000 1.0000
61.4600 524.0000 1.0000
61.4700 517.0000 1.0000
61.4800 566.0000 1.0000
61.4900 574.0000 1.0000
61.5000 581.0000 1.0000
61.5100 521.0000 1.0000
61.5200 574.0000 1.0000
61.5300 563.0000 1.0000
61.5400 540.0000 1.0000
61.5500 626.0000 1.0000
61.5600 565.0000 1.0000
61.5700 609.0000 1.0000
61.5800 618.0000 1.0000
61.5900 582.0000 1.0000
61.6000 594.0000 1.0000
61.6100 581.0000 1.0000
61.6200 542.0000 1.0000
61.6300 602.0000 1.0000
61.6400 550.0000 1.0000
61.6500 548.0000 1.0000
61.6600 533.0000 1.0000
61.6700 558.0000 1.0000
61.6800 586.0000 1.0000
61.6900 602.0000 1.0000
61.7000 568.0000 1.0000
61.7100 548.0000 1.0000
61.7200 536.0000 1.0000
61.7300 492.0000 1.0000
61.7400 470.0000 1.0000
61.7500 473.0000 1.0000
61.7600 464.0000 1.0000
61.7700 462.0000 1.0000
61.7800 468.0000 1.0000
61.7900 457.0000 1.0000
61.8000 448.0000 1.0000
61.8100 433.0000 1.0000
61.8200 459.0000 1.0000
61.8300 427.0000 1.0000
61.8400 397.0000 1.0000
61.8500 418.0000 1.0000
61.8600 383.0000 1.0000
61.8700 393.0000 1.0000
61.8800 409.0000 1.0000
61.8900 378.0000 1.0000
61.9000 351.0000 1.0000
61.9100 352.0000 1.0000
61.9200 356.0000 1.0000
61.9300 356.0000 1.0000
61.9400 359.0000 1.0000
61.9500 377.0000 1.0000
61.9600 342.0000 1.0000
61.9700 321.0000 1.0000
61.9800 363.0000 1.0000
61.9900 332.0000 1.0000
62.0000 354.0000 1.0000
62.0100 336.0000 1.0000
62.0200 340.0000 1.0000
62.0300 301.0000 1.0000
62.0400 345.0000 1.0000
62.0500 310.0000 1.0000
62.0600 334.0000 1.0000
62.0700 345.0000 1.0000
62.0800 314.0000 1.0000
62.0900 344.0000 1.0000
62.1000 322.0000 1.0000
62.1100 312.0000 1.0000
62.1200 307.0000 1.0000
62.1300 328.0000 1.0000
62.1400 311.0000 1.0000
62.1500 324.0000 1.0000
62.1600 321.0000 1.0000
62.1700 345.0000 1.0000
62.1800 313.0000 1.0000
62.1900 331.0000 1.0000
62.2000 291.0000 1.0000
62.2100 276.0000 1.0000
62.2200 328.0000 1.0000
62.2300 346.0000 1.0000
62.2400 300.0000 1.0000
62.2500 295.0000 1.0000
62.2600 317.0000 1.0000
62.2700 326.0000 1.0000
62.2800 307.0000 1.0000
62.2900 346.0000 1.0000
62.3000 324.0000 1.0000
62.3100 337.0000 1.0000
62.3200 328.0000 1.0000
62.3300 311.0000 1.0000
62.3400 322.0000 1.0000
62.3500 298.0000 1.0000
62.3600 309.0000 1.0000
62.3700 319.0000 1.0000
62.3800 327.0000 1.0000
62.3900 309.0000 1.0000
62.4000 297.0000 1.0000
62.4100 319.0000 1.0000
62.4200 330.0000 1.0000
62.4300 330.0000 1.0000
62.4400 322.0000 1.0000
62.4500 303.0000 1.0000
62.4600 307.0000 1.0000
62.4700 320.0000 1.0000
62.4800 304.0000 1.0000
62.4900 307.0000 1.0000
62.5000 318.0000 1.0000
62.5100 326.0000 1.0000
62.5200 290.0000 1.0000
62.5300 309.0000 1.0000
62.5400 329.0000 1.0000
62.5500 307.0000 1.0000
62.5600 308.0000 1.0000
62.5700 314.0000 1.0000
62.5800 294.0000 1.0000
62.5900 266.0000 1.0000
62.6000 314.0000 1.0000
62.6100 322.0000 1.0000
62.6200 303.0000 1.0000
62.6300 309.0000 1.0000
62.6400 298.0000 1.0000
62.6500 308.0000 1.0000
62.6600 302.0000 1.0000
62.6700 298.0000 1.0000
62.6800 289.0000 1.0000
62.6900 305.0000 1.0000
62.7000 271.0000 1.0000
62.7100 308.0000 1.0000
62.7200 293.0000 1.0000
62.7300 290.0000 1.0000
62.7400 306.0000 1.0000
62.7500 293.0000 1.0000
62.7600 294.0000 1.0000
62.7700 294.0000 1.0000
62.7800 301.0000 1.0000
62.7900 288.0000 1.0000
62.8000 294.0000 1.0000
62.8100 301.0000 1.0000
62.8200 273.0000 1.0000
62.8300 270.0000 1.0000
62.8400 277.0000 1.0000
62.8500 305.0000 1.0000
62.8600 283.0000 1.0000
62.8700 290.0000 1.0000
62.8800 271.0000 1.0000
62.8900 277.0000 1.0000
62.9000 276.0000 1.0000
62.9100 290.0000 1.0000
62.9200 296.0000 1.0000
62.9300 281.0000 1.0000
62.9400 307.0000 1.0000
62.9500 312.0000 1.0000
62.9600 297.0000 1.0000
62.9700 293.0000 1.0000
62.9800 264.0000 1.0000
62.9900 256.0000 1.0000
63.0000 287.0000 1.0000
63.0100 292.0000 1.0000
63.0200 269.0000 1.0000
63.0300 298.0000 1.0000
63.0400 270.0000 1.0000
63.0500 280.0000 1.0000
63.0600 292.0000 1.0000
63.0700 269.0000 1.0000
63.0800 268.0000 1.0000
63.0900 302.0000 1.0000
63.1000 278.0000 1.0000
63.1100 270.0000 1.0000
63.1200 282.0000 1.0000
63.1300 275.0000 1.0000
63.1400 294.0000 1.0000
63.1500 283.0000 1.0000
63.1600 287.0000 1.0000
63.1700 313.0000 1.0000
63.1800 293.0000 1.0000
63.1900 293.0000 1.0000
63.2000 271.0000 1.0000
63.2100 285.0000 1.0000
63.2200 290.0000 1.0000
63.2300 278.0000 1.0000
63.2400 294.0000 1.0000
63.2500 260.0000 1.0000
63.2600 291.0000 1.0000
63.2700 312.0000 1.0000
63.2800 291.0000 1.0000
63.2900 281.0000 1.0000
63.3000 295.0000 1.0000
63.3100 319.0000 1.0000
63.3200 296.0000 1.0000
63.3300 289.0000 1.0000
63.3400 279.0000 1.0000
63.3500 308.0000 1.0000
63.3600 282.0000 1.0000
63.3700 326.0000 1.0000
63.3800 298.0000 1.0000
63.3900 289.0000 1.0000
63.4000 269.0000 1.0000
63.4100 300.0000 1.0000
63.4200 280.0000 1.0000
63.4300 301.0000 1.0000
63.4400 272.0000 1.0000
63.4500 262.0000 1.0000
63.4600 284.0000 1.0000
63.4700 298.0000 1.0000
63.4800 282.0000 1.0000
63.4900 315.0000 1.0000
63.5000 286.0000 1.0000
63.5100 290.0000 1.0000
63.5200 286.0000 1.0000
63.5300 297.0000 1.0000
63.5400 283.0000 1.0000
63.5500 282.0000 1.0000
63.5600 283.0000 1.0000
63.5700 272.0000 1.0000
63.5800 293.0000 1.0000
63.5900 282.0000 1.0000
63.6000 284.0000 1.0000
63.6100 291.0000 1.0000
63.6200 302.0000 1.0000
63.6300 291.0000 1.0000
63.6400 279.0000 1.0000
63.6500 309.0000 1.0000
63.6600 312.0000 1.0000
63.6700 304.0000 1.0000
63.6800 309.0000 1.0000
63.6900 318.0000 1.0000
63.7000 326.0000 1.0000
63.7100 354.0000 1.0000
63.7200 324.0000 1.0000
63.7300 302.0000 1.0000
63.7400 341.0000 1.0000
63.7500 334.0000 1.0000
63.7600 293.0000 1.0000
63.7700 294.0000 1.0000
63.7800 341.0000 1.0000
63.7900 326.0000 1.0000
63.8000 340.0000 1.0000
63.8100 344.0000 1.0000
63.8200 367.0000 1.0000
63.8300 351.0000 1.0000
63.8400 366.0000 1.0000
63.8500 405.0000 1.0000
63.8600 401.0000 1.0000
63.8700 385.0000 1.0000
63.8800 375.0000 1.0000
63.8900 367.0000 1.0000
63.9000 380.0000 1.0000
63.9100 377.0000 1.0000
63.9200 419.0000 1.0000
63.9300 448.0000 1.0000
63.9400 413.0000 1.0000
63.9500 426.0000 1.0000
63.9600 450.0000 1.0000
63.9700 416.0000 1.0000
63.9800 423.0000 1.0000
63.9900 427.0000 1.0000
64.0000 428.0000 1.0000
64.0100 395.0000 1.0000
64.0200 429.0000 1.0000
64.0300 415.0000 1.0000
64.0400 380.0000 1.0000
64.0500 387.0000 1.0000
64.0600 404.0000 1.0000
64.0700 403.0000 1.0000
64.0800 428.0000 1.0000
64.0900 419.0000 1.0000
64.1000 411.0000 1.0000
64.1100 385.0000 1.0000
64.1200 378.0000 1.0000
64.1300 390.0000 1.0000
64.1400 363.0000 1.0000
64.1500 378.0000 1.0000
64.1600 399.0000 1.0000
64.1700 366.0000 1.0000
64.1800 400.0000 1.0000
64.1900 353.0000 1.0000
64.2000 368.0000 1.0000
64.2100 374.0000 1.0000
64.2200 348.0000 1.0000
64.2300 356.0000 1.0000
64.2400 329.0000 1.0000
64.2500 321.0000 1.0000
64.2600 351.0000 1.0000
64.2700 334.0000 1.0000
64.2800 349.0000 1.0000
64.2900 339.0000 1.0000
64.3000 323.0000 1.0000
64.3100 349.0000 1.0000
64.3200 327.0000 1.0000
64.3300 296.0000 1.0000
64.3400 300.0000 1.0000
64.3500 345.0000 1.0000
64.3600 319.0000 1.0000
64.3700 309.0000 1.0000
64.3800 315.0000 1.0000
64.3900 291.0000 1.0000
64.4000 295.0000 1.0000
64.4100 291.0000 1.0000
64.4200 301.0000 1.0000
64.4300 298.0000 1.0000
64.4400 280.0000 1.0000
64.4500 304.0000 1.0000
64.4600 307.0000 1.0000
64.4700 340.0000 1.0000
64.4800 334.0000 1.0000
64.4900 321.0000 1.0000
64.5000 312.0000 1.0000
64.5100 291.0000 1.0000
64.5200 279.0000 1.0000
64.5300 327.0000 1.0000
64.5400 321.0000 1.0000
64.5500 301.0000 1.0000
64.5600 283.0000 1.0000
64.5700 293.0000 1.0000
64.5800 315.0000 1.0000
64.5900 276.0000 1.0000
64.6000 276.0000 1.0000
64.6100 289.0000 1.0000
64.6200 286.0000 1.0000
64.6300 313.0000 1.0000
64.6400 324.0000 1.0000
64.6500 302.0000 1.0000
64.6600 290.0000 1.0000
64.6700 305.0000 1.0000
64.6800 294.0000 1.0000
64.6900 298.0000 1.0000
64.7000 286.0000 1.0000
64.7100 289.0000 1.0000
64.7200 298.0000 1.0000
64.7300 296.0000 1.0000
64.7400 288.0000 1.0000
64.7500 290.0000 1.0000
64.7600 326.0000 1.0000
64.7700 296.0000 1.0000
64.7800 281.0000 1.0000
64.7900 308.0000 1.0000
64.8000 314.0000 1.0000
64.8100 314.0000 1.0000
64.8200 310.0000 1.0000
64.8300 310.0000 1.0000
64.8400 304.0000 1.0000
64.8500 274.0000 1.0000
64.8600 307.0000 1.0000
64.8700 285.0000 1.0000
64.8800 295.0000 1.0000
64.8900 308.0000 1.0000
64.9000 313.0000 1.0000
64.9100 333.0000 1.0000
64.9200 291.0000 1.0000
64.9300 258.0000 1.0000
64.9400 294.0000 1.0000
64.9500 328.0000 1.0000
64.9600 328.0000 1.0000
64.9700 287.0000 1.0000
64.9800 320.0000 1.0000
64.9900 315.0000 1.0000
65.0000 306.0000 1.0000
65.0100 300.0000 1.0000
65.0200 313.0000 1.0000
65.0300 318.0000 1.0000
65.0400 311.0000 1.0000
65.0500 315.0000 1.0000
65.0600 290.0000 1.0000
65.0700 300.0000 1.0000
65.0800 340.0000 1.0000
65.0900 336.0000 1.0000
65.1000 312.0000 1.0000
65.1100 308.0000 1.0000
65.1200 354.0000 1.0000
65.1300 337.0000 1.0000
65.1400 337.0000 1.0000
65.1500 326.0000 1.0000
65.1600 346.0000 1.0000
65.1700 358.0000 1.0000
65.1800 346.0000 1.0000
65.1900 369.0000 1.0000
65.2000 362.0000 1.0000
65.2100 345.0000 1.0000
65.2200 372.0000 1.0000
65.2300 390.0000 1.0000
65.2400 388.0000 1.0000
65.2500 411.0000 1.0000
65.2600 437.0000 1.0000
65.2700 391.0000 1.0000
65.2800 432.0000 1.0000
65.2900 440.0000 1.0000
65.3000 485.0000 1.0000
65.3100 468.0000 1.0000
65.3200 497.0000 1.0000
65.3300 520.0000 1.0000
65.3400 519.0000 1.0000
65.3500 577.0000 1.0000
65.3600 556.0000 1.0000
65.3700 580.0000 1.0000
65.3800 556.0000 1.0000
65.3900 592.0000 1.0000
65.4000 649.0000 1.0000
65.4100 631.0000 1.0000
65.4200 659.0000 1.0000
65.4300 734.0000 1.0000
65.4400 770.0000 1.0000
65.4500 793.0000 1.0000
65.4600 852.0000 1.0000
65.4700 900.0000 1.0000
65.4800 897.0000 1.0000
65.4900 915.0000 1.0000
65.5000 918.0000 1.0000
65.5100 985.0000 1.0000
65.5200 992.0000 1.0000
65.5300 1056.0000 1.0000
65.5400 1019.0000 1.0000
65.5500 1090.0000 1.0000
65.5600 1039.0000 1.0000
65.5700 1042.0000 1.0000
65.5800 1075.0000 1.0000
65.5900 1080.0000 1.0000
65.6000 1054.0000 1.0000
65.6100 987.0000 1.0000
65.6200 943.0000 1.0000
65.6300 948.0000 1.0000
65.6400 944.0000 1.0000
65.6500 917.0000 1.0000
65.6600 896.0000 1.0000
65.6700 921.0000 1.0000
65.6800 892.0000 1.0000
65.6900 857.0000 1.0000
65.7000 819.0000 1.0000
65.7100 826.0000 1.0000
65.7200 835.0000 1.0000
65.7300 763.0000 1.0000
65.7400 791.0000 1.0000
65.7500 741.0000 1.0000
65.7600 744.0000 1.0000
65.7700 758.0000 1.0000
65.7800 686.0000 1.0000
65.7900 670.0000 1.0000
65.8000 628.0000 1.0000
65.8100 632.0000 1.0000
65.8200 599.0000 1.0000
65.8300 568.0000 1.0000
65.8400 540.0000 1.0000
65.8500 509.0000 1.0000
65.8600 479.0000 1.0000
65.8700 492.0000 1.0000
65.8800 468.0000 1.0000
65.8900 464.0000 1.0000
65.9000 460.0000 1.0000
65.9100 447.0000 1.0000
65.9200 403.0000 1.0000
65.9300 400.0000 1.0000
65.9400 405.0000 1.0000
65.9500 371.0000 1.0000
65.9600 390.0000 1.0000
65.9700 372.0000 1.0000
65.9800 371.0000 1.0000
65.9900 372.0000 1.0000
66.0000 384.0000 1.0000
66.0100 374.0000 1.0000
66.0200 362.0000 1.0000
66.0300 309.0000 1.0000
66.0400 336.0000 1.0000
66.0500 329.0000 1.0000
66.0600 330.0000 1.0000
66.0700 305.0000 1.0000
66.0800 331.0000 1.0000
66.0900 318.0000 1.0000
66.1000 305.0000 1.0000
66.1100 330.0000 1.0000
66.1200 341.0000 1.0000
66.1300 291.0000 1.0000
66.1400 322.0000 1.0000
66.1500 293.0000 1.0000
66.1600 316.0000 1.0000
66.1700 295.0000 1.0000
66.1800 319.0000 1.0000
66.1900 313.0000 1.0000
66.2000 292.0000 1.0000
66.2100 285.0000 1.0000
66.2200 275.0000 1.0000
66.2300 298.0000 1.0000
66.2400 292.0000 1.0000
66.2500 307.0000 1.0000
66.2600 270.0000 1.0000
66.2700 268.0000 1.0000
66.2800 302.0000 1.0000
66.2900 280.0000 1.0000
66.3000 287.0000 1.0000
66.3100 266.0000 1.0000
66.3200 266.0000 1.0000
66.3300 291.0000 1.0000
66.3400 299.0000 1.0000
66.3500 272.0000 1.0000
66.3600 264.0000 1.0000
66.3700 304.0000 1.0000
66.3800 242.0000 1.0000
66.3900 267.0000 1.0000
66.4000 260.0000 1.0000
66.4100 283.0000 1.0000
66.4200 292.0000 1.0000
66.4300 289.0000 1.0000
66.4400 252.0000 1.0000
66.4500 250.0000 1.0000
66.4600 274.0000 1.0000
66.4700 279.0000 1.0000
66.4800 252.0000 1.0000
66.4900 273.0000 1.0000
66.5000 268.0000 1.0000
66.5100 268.0000 1.0000
66.5200 290.0000 1.0000
66.5300 298.0000 1.0000
66.5400 294.0000 1.0000
66.5500 264.0000 1.0000
66.5600 265.0000 1.0000
66.5700 252.0000 1.0000
66.5800 251.0000 1.0000
66.5900 247.0000 1.0000
66.6000 280.0000 1.0000
66.6100 287.0000 1.0000
66.6200 264.0000 1.0000
66.6300 286.0000 1.0000
66.6400 275.0000 1.0000
66.6500 261.0000 1.0000
66.6600 248.0000 1.0000
66.6700 265.0000 1.0000
66.6800 293.0000 1.0000
66.6900 268.0000 1.0000
66.7000 277.0000 1.0000
66.7100 262.0000 1.0000
66.7200 253.0000 1.0000
66.7300 235.0000 1.0000
66.7400 263.0000 1.0000
66.7500 271.0000 1.0000
66.7600 249.0000 1.0000
66.7700 263.0000 1.0000
66.7800 283.0000 1.0000
66.7900 278.0000 1.0000
66.8000 255.0000 1.0000
66.8100 260.0000 1.0000
66.8200 249.0000 1.0000
66.8300 264.0000 1.0000
66.8400 275.0000 1.0000
66.8500 264.0000 1.0000
66.8600 251.0000 1.0000
66.8700 263.0000 1.0000
66.8800 261.0000 1.0000
66.8900 265.0000 1.0000
66.9000 271.0000 1.0000
66.9100 267.0000 1.0000
66.9200 258.0000 1.0000
66.9300 242.0000 1.0000
66.9400 257.0000 1.0000
66.9500 260.0000 1.0000
66.9600 283.0000 1.0000
66.9700 262.0000 1.0000
66.9800 257.0000 1.0000
66.9900 276.0000 1.0000
67.0000 265.0000 1.0000
67.0100 267.0000 1.0000
67.0200 244.0000 1.0000
67.0300 269.0000 1.0000
67.0400 256.0000 1.0000
67.0500 250.0000 1.0000
67.0600 252.0000 1.0000
67.0700 261.0000 1.0000
67.0800 326.0000 1.0000
67.0900 269.0000 1.0000
67.1000 261.0000 1.0000
67.1100 245.0000 1.0000
67.1200 239.0000 1.0000
67.1300 263.0000 1.0000
67.1400 242.0000 1.0000
67.1500 247.0000 1.0000
67.1600 264.0000 1.0000
67.1700 267.0000 1.0000
67.1800 249.0000 1.0000
67.1900 265.0000 1.0000
67.2000 238.0000 1.0000
67.2100 238.0000 1.0000
67.2200 236.0000 1.0000
67.2300 258.0000 1.0000
67.2400 274.0000 1.0000
67.2500 264.0000 1.0000
67.2600 261.0000 1.0000
67.2700 263.0000 1.0000
67.2800 237.0000 1.0000
67.2900 255.0000 1.0000
67.3000 248.0000 1.0000
67.3100 242.0000 1.0000
67.3200 243.0000 1.0000
67.3300 243.0000 1.0000
67.3400 242.0000 1.0000
67.3500 249.0000 1.0000
67.3600 247.0000 1.0000
67.3700 249.0000 1.0000
67.3800 271.0000 1.0000
67.3900 264.0000 1.0000
67.4000 260.0000 1.0000
67.4100 268.0000 1.0000
67.4200 270.0000 1.0000
67.4300 239.0000 1.0000
67.4400 245.0000 1.0000
67.4500 241.0000 1.0000
67.4600 248.0000 1.0000
67.4700 250.0000 1.0000
67.4800 245.0000 1.0000
67.4900 258.0000 1.0000
67.5000 274.0000 1.0000
67.5100 256.0000 1.0000
67.5200 250.0000 1.0000
67.5300 243.0000 1.0000
67.5400 235.0000 1.0000
67.5500 251.0000 1.0000
67.5600 246.0000 1.0000
67.5700 233.0000 1.0000
67.5800 249.0000 1.0000
67.5900 237.0000 1.0000
67.6000 271.0000 1.0000
67.6100 261.0000 1.0000
67.6200 259.0000 1.0000
67.6300 270.0000 1.0000
67.6400 262.0000 1.0000
67.6500 245.0000 1.0000
67.6600 257.0000 1.0000
67.6700 239.0000 1.0000
67.6800 245.0000 1.0000
67.6900 258.0000 1.0000
67.7000 259.0000 1.0000
67.7100 254.0000 1.0000
67.7200 219.0000 1.0000
67.7300 236.0000 1.0000
67.7400 216.0000 1.0000
67.7500 244.0000 1.0000
67.7600 238.0000 1.0000
67.7700 245.0000 1.0000
67.7800 235.0000 1.0000
67.7900 250.0000 1.0000
67.8000 244.0000 1.0000
67.8100 236.0000 1.0000
67.8200 240.0000 1.0000
67.8300 232.0000 1.0000
67.8400 240.0000 1.0000
67.8500 250.0000 1.0000
67.8600 243.0000 1.0000
67.8700 242.0000 1.0000
67.8800 240.0000 1.0000
67.8900 228.0000 1.0000
67.9000 227.0000 1.0000
67.9100 236.0000 1.0000
67.9200 258.0000 1.0000
67.9300 255.0000 1.0000
67.9400 243.0000 1.0000
67.9500 248.0000 1.0000
67.9600 239.0000 1.0000
67.9700 268.0000 1.0000
67.9800 243.0000 1.0000
67.9900 226.0000 1.0000
68.0000 236.0000 1.0000
68.0100 233.0000 1.0000
68.0200 267.0000 1.0000
68.0300 241.0000 1.0000
68.0400 252.0000 1.0000
68.0500 248.0000 1.0000
68.0600 252.0000 1.0000
68.0700 269.0000 1.0000
68.0800 271.0000 1.0000
68.0900 256.0000 1.0000
68.1000 265.0000 1.0000
68.1100 253.0000 1.0000
68.1200 257.0000 1.0000
68.1300 251.0000 1.0000
68.1400 256.0000 1.0000
68.1500 226.0000 1.0000
68.1600 241.0000 1.0000
68.1700 242.0000 1.0000
68.1800 235.0000 1.0000
68.1900 257.0000 1.0000
68.2000 238.0000 1.0000
68.2100 254.0000 1.0000
68.2200 234.0000 1.0000
68.2300 230.0000 1.0000
68.2400 244.0000 1.0000
68.2500 242.0000 1.0000
68.2600 247.0000 1.0000
68.2700 243.0000 1.0000
68.2800 236.0000 1.0000
68.2900 220.0000 1.0000
68.3000 234.0000 1.0000
68.3100 249.0000 1.0000
68.3200 232.0000 1.0000
68.3300 222.0000 1.0000
68.3400 243.0000 1.0000
68.3500 254.0000 1.0000
68.3600 274.0000 1.0000
68.3700 222.0000 1.0000
68.3800 250.0000 1.0000
68.3900 232.0000 1.0000
68.4000 230.0000 1.0000
68.4100 231.0000 1.0000
68.4200 247.0000 1.0000
68.4300 254.0000 1.0000
68.4400 284.0000 1.0000
68.4500 272.0000 1.0000
68.4600 252.0000 1.0000
68.4700 225.0000 1.0000
68.4800 233.0000 1.0000
68.4900 222.0000 1.0000
68.5000 252.0000 1.0000
68.5100 232.0000 1.0000
68.5200 233.0000 1.0000
68.5300 241.0000 1.0000
68.5400 227.0000 1.0000
68.5500 255.0000 1.0000
68.5600 239.0000 1.0000
68.5700 260.0000 1.0000
68.5800 257.0000 1.0000
68.5900 244.0000 1.0000
68.6000 248.0000 1.0000
68.6100 238.0000 1.0000
68.6200 249.0000 1.0000
68.6300 240.0000 1.0000
68.6400 236.0000 1.0000
68.6500 233.0000 1.0000
68.6600 261.0000 1.0000
68.6700 247.0000 1.0000
68.6800 237.0000 1.0000
68.6900 226.0000 1.0000
68.7000 256.0000 1.0000
68.7100 242.0000 1.0000
68.7200 244.0000 1.0000
68.7300 263.0000 1.0000
68.7400 245.0000 1.0000
68.7500 234.0000 1.0000
68.7600 235.0000 1.0000
68.7700 222.0000 1.0000
68.7800 234.0000 1.0000
68.7900 221.0000 1.0000
68.8000 248.0000 1.0000
68.8100 252.0000 1.0000
68.8200 235.0000 1.0000
68.8300 244.0000 1.0000
68.8400 229.0000 1.0000
68.8500 236.0000 1.0000
68.8600 235.0000 1.0000
68.8700 254.0000 1.0000
68.8800 263.0000 1.0000
68.8900 231.0000 1.0000
68.9000 224.0000 1.0000
68.9100 241.0000 1.0000
68.9200 243.0000 1.0000
68.9300 251.0000 1.0000
68.9400 243.0000 1.0000
68.9500 241.0000 1.0000
68.9600 268.0000 1.0000
68.9700 224.0000 1.0000
68.9800 245.0000 1.0000
68.9900 238.0000 1.0000
69.0000 252.0000 1.0000
69.0100 247.0000 1.0000
69.0200 242.0000 1.0000
69.0300 251.0000 1.0000
69.0400 216.0000 1.0000
69.0500 250.0000 1.0000
69.0600 269.0000 1.0000
69.0700 243.0000 1.0000
69.0800 230.0000 1.0000
69.0900 217.0000 1.0000
69.1000 229.0000 1.0000
69.1100 249.0000 1.0000
69.1200 239.0000 1.0000
69.1300 257.0000 1.0000
69.1400 251.0000 1.0000
69.1500 230.0000 1.0000
69.1600 247.0000 1.0000
69.1700 222.0000 1.0000
69.1800 223.0000 1.0000
69.1900 217.0000 1.0000
69.2000 241.0000 1.0000
69.2100 235.0000 1.0000
69.2200 225.0000 1.0000
69.2300 230.0000 1.0000
69.2400 223.0000 1.0000
69.2500 222.0000 1.0000
69.2600 243.0000 1.0000
69.2700 224.0000 1.0000
69.2800 218.0000 1.0000
69.2900 233.0000 1.0000
69.3000 246.0000 1.0000
69.3100 244.0000 1.0000
69.3200 235.0000 1.0000
69.3300 218.0000 1.0000
69.3400 271.0000 1.0000
69.3500 228.0000 1.0000
69.3600 222.0000 1.0000
69.3700 222.0000 1.0000
69.3800 238.0000 1.0000
69.3900 211.0000 1.0000
69.4000 242.0000 1.0000
69.4100 244.0000 1.0000
69.4200 219.0000 1.0000
69.4300 221.0000 1.0000
69.4400 229.0000 1.0000
69.4500 242.0000 1.0000
69.4600 260.0000 1.0000
69.4700 255.0000 1.0000
69.4800 243.0000 1.0000
69.4900 242.0000 1.0000
69.5000 242.0000 1.0000
69.5100 224.0000 1.0000
69.5200 237.0000 1.0000
69.5300 244.0000 1.0000
69.5400 245.0000 1.0000
69.5500 241.0000 1.0000
69.5600 235.0000 1.0000
69.5700 223.0000 1.0000
69.5800 241.0000 1.0000
69.5900 247.0000 1.0000
69.6000 214.0000 1.0000
69.6100 254.0000 1.0000
69.6200 234.0000 1.0000
69.6300 223.0000 1.0000
69.6400 242.0000 1.0000
69.6500 253.0000 1.0000
69.6600 235.0000 1.0000
69.6700 220.0000 1.0000
69.6800 215.0000 1.0000
69.6900 245.0000 1.0000
69.7000 216.0000 1.0000
69.7100 226.0000 1.0000
69.7200 232.0000 1.0000
69.7300 236.0000 1.0000
69.7400 221.0000 1.0000
69.7500 250.0000 1.0000
69.7600 237.0000 1.0000
69.7700 230.0000 1.0000
69.7800 247.0000 1.0000
69.7900 238.0000 1.0000
69.8000 208.0000 1.0000
69.8100 219.0000 1.0000
69.8200 237.0000 1.0000
69.8300 224.0000 1.0000
69.8400 229.0000 1.0000
69.8500 211.0000 1.0000
69.8600 211.0000 1.0000
69.8700 240.0000 1.0000
69.8800 244.0000 1.0000
69.8900 263.0000 1.0000
69.9000 239.0000 1.0000
69.9100 215.0000 1.0000
69.9200 230.0000 1.0000
69.9300 240.0000 1.0000
69.9400 239.0000 1.0000
69.9500 242.0000 1.0000
69.9600 248.0000 1.0000
69.9700 234.0000 1.0000
69.9800 227.0000 1.0000
69.9900 225.0000 1.0000
70.0000 251.0000 1.0000
*RAS_INT_END
*RAS_TEMPERATURE_START
*RAS_TEMPERATURE_END
*RAS_DATA_END
