*RAS_DATA_START
*RAS_HEADER_START
*DISP_FMT_X "%.2f"
*DISP_FMT_Y "%.0f"
*DISP_FULLSCALE "14876.0000000000"
*DISP_LINE_COLOR "255.0000000000"
*DISP_LINE_STYLE "0.0000000000"
*DISP_LINE_WIDTH "0.2500000000"
*DISP_NOTE "測定データ-3"
*DISP_OFFSET_Y "0.0000000000"
*DISP_PEAKSEARCH_UNIT_Y "cps"
*DISP_RANGE_BOTTOM "0.0000000000"
*DISP_RANGE_LEFT "20.0000000000"
*DISP_RANGE_LOGCUTOFF "0.0100000000"
*DISP_RANGE_RIGHT "70.0000000000"
*DISP_RANGE_TOP "14876.0000000000"
*DISP_SCALE_MODE_Y "0.0000000000"
*DISP_TAB_NAME "2θ/θ"
*DISP_TITLE_Y "強度"
*DISP_UNIT_Y "cps"
*DISP_WINDOW_NAME "MSG_MACROENGINE"
*FILE_COMMENT " "
*FILE_MD5 ""
*FILE_MEMO " "
*FILE_OPERATOR "Administrator"
*FILE_SAMPLE " "
*FILE_TYPE "RAS_RAW"
*FILE_USERGROUP "システムマネージャ"
*FILE_VERSION "1.0000000000"
*HW_ATTACHMENT_ID "ATT0025"
*HW_ATTACHMENT_NAME "標準|Standard"
*HW_COUNTER_ID-0 "CUT0025"
*HW_COUNTER_ID-1 "CUT0020"
*HW_COUNTER_ID-2 "CUT0020"
*HW_COUNTER_ID-3 "CSL0021"
*HW_COUNTER_ID-4 "CMC0021"
*HW_COUNTER_NAME-0 "D/teX Ultra|D/teX Ultra"
*HW_COUNTER_NAME-1 "None|None"
*HW_COUNTER_NAME-2 "None|None"
*HW_COUNTER_NAME-3 "BBM|BBM"
*HW_COUNTER_NAME-4 "検出器モノクロメータ|Detector monochromator"
*HW_COUNTER_SELECT_NAME "D/teX Ultra|D/teX Ultra"
*HW_GONIOMETER_ID "GON0023"
*HW_GONIOMETER_NAME "SmartLab|SmartLab"
*HW_GONIOMETER_RADIUS-0 "90.0"
*HW_GONIOMETER_RADIUS-1 "114.0"
*HW_GONIOMETER_RADIUS-2 "190.0"
*HW_GONIOMETER_RADIUS-3 "300.0"
*HW_GONIOMETER_RADIUS-4 "187.0"
*HW_GONIOMETER_RADIUS-5 "300.0"
*HW_GONIOMETER_RADIUS-6 "113.0"
*HW_GONIOMETER_RADIUS-7 "331.0"
*HW_I_OPT_ID-0 "CBO0021"
*HW_I_OPT_ID-1 "ICR0023"
*HW_I_OPT_ID-2 "ISL0021"
*HW_I_OPT_ID-3 "ISO0021"
*HW_I_OPT_ID-4 "IAD0021"
*HW_I_OPT_ID-5 "IPR0001"
*HW_I_OPT_NAME-0 "CBOユニット|CBO unit"
*HW_I_OPT_NAME-1 "標準入射光学ユニット|Standard incident optical unit"
*HW_I_OPT_NAME-2 "標準入射スリットボックス|Standard incident slit box"
*HW_I_OPT_NAME-3 "入射平行スリット|Incident parallel slit"
*HW_I_OPT_NAME-4 "長手制限スリット|Length limiting slit"
*HW_I_OPT_NAME-5 "None|None"
*HW_R_ATTENUATER_AUTOMODE "0"
*HW_R_OPT_ID-0 "RSS0021"
*HW_R_OPT_ID-1 "RCR0023"
*HW_R_OPT_ID-2 "RSO0021"
*HW_R_OPT_ID-3 "RRS0021"
*HW_R_OPT_ID-4 "ATN0021"
*HW_R_OPT_ID-5 "RFL0021"
*HW_R_OPT_ID-6 "RAD0021"
*HW_R_OPT_NAME-0 "標準受光スリットボックス1|Standard receiving slit box # 1"
*HW_R_OPT_NAME-1 "標準受光光学ユニット1|Standard receiving unit # 1"
*HW_R_OPT_NAME-2 "標準受光光学ユニット2|Standard receiving optical unit # 2"
*HW_R_OPT_NAME-3 "標準受光スリットボックス2|Standard receiving slit box # 2"
*HW_R_OPT_NAME-4 "標準アッテネータ|Standard Attenuator"
*HW_R_OPT_NAME-5 "Cu Kβ|Cu K-beta"
*HW_R_OPT_NAME-6 "調整用受光スリット|Alignment receiving slit"
*HW_SAMPLE_HOLDER_ID "SMP0023"
*HW_SAMPLE_HOLDER_NAME "標準Zステージ|Standard Z stage"
*HW_XG_CURRENT_MAX "50"
*HW_XG_CURRENT_MIN "2"
*HW_XG_CURRENT_RESOLUTION "1"
*HW_XG_CURRENT_UNIT "mA"
*HW_XG_FOCUS "1mm x 10mm"
*HW_XG_FOCUS_TYPE "Normal"
*HW_XG_ID ""
*HW_XG_NAME "3kW 封入管(ID:1200)|3kW Sealed tube(ID:1200)"
*HW_XG_TARGET_ATOMIC_NUMBER "29.0000000000"
*HW_XG_TARGET_NAME "Cu"
*HW_XG_TYPE "Hermetic"
*HW_XG_VOLTAGE_MAX "60"
*HW_XG_VOLTAGE_MIN "20"
*HW_XG_VOLTAGE_RESOLUTION "1"
*HW_XG_VOLTAGE_UNIT "kV"
*HW_XG_WATT_MAX "1.500"
*HW_XG_WATT_UNIT "kW"
*HW_XG_WAVE_LENGTH_ALPHA1 "1.540593"
*HW_XG_WAVE_LENGTH_ALPHA2 "1.544414"
*HW_XG_WAVE_LENGTH_BETA "1.392250"
*MEAS_COND_AXIS_NAME-0 "2θ/θ"
*MEAS_COND_AXIS_NAME-1 "2θ"
*MEAS_COND_AXIS_NAME-2 "ω"
*MEAS_COND_AXIS_NAME-3 "Z"
*MEAS_COND_AXIS_NAME-4 "2θ/ω"
*MEAS_COND_AXIS_NAME-5 "θs"
*MEAS_COND_AXIS_NAME-6 "θd"
*MEAS_COND_AXIS_NAME-7 "Ts"
*MEAS_COND_AXIS_NAME-8 "CBO選択スリット"
*MEAS_COND_AXIS_NAME-9 "M"
*MEAS_COND_AXIS_NAME-10 "入射平行スリット"
*MEAS_COND_AXIS_NAME-11 "入射スリット"
*MEAS_COND_AXIS_NAME-12 ""
*MEAS_COND_AXIS_NAME-13 "Zs"
*MEAS_COND_AXIS_NAME-14 "入射光学素子"
*MEAS_COND_AXIS_NAME-15 "長手制限スリット"
*MEAS_COND_AXIS_NAME-16 "センタースリット"
*MEAS_COND_AXIS_NAME-17 "フィルター"
*MEAS_COND_AXIS_NAME-18 "受光スリット1"
*MEAS_COND_AXIS_NAME-19 "受光スリット2"
*MEAS_COND_AXIS_NAME-20 "受光光学素子"
*MEAS_COND_AXIS_NAME-21 "受光平行スリット"
*MEAS_COND_AXIS_NAME-22 "調整用受光スリット"
*MEAS_COND_AXIS_NAME-23 ""
*MEAS_COND_AXIS_NAME-24 ""
*MEAS_COND_AXIS_NAME-25 "Zd"
*MEAS_COND_AXIS_NAME-26 "アッテネータ"
*MEAS_COND_AXIS_NAME-27 "検出器モノクロメータ"
*MEAS_COND_AXIS_NAME-28 "モノクロメータスリット"
*MEAS_COND_AXIS_NAME-29 "プライマリビーム"
*MEAS_COND_AXIS_NAME-30 "PHA"
*MEAS_COND_AXIS_NAME_INTERNAL-0 "TwoThetaTheta"
*MEAS_COND_AXIS_NAME_INTERNAL-1 "TwoTheta"
*MEAS_COND_AXIS_NAME_INTERNAL-2 "Omega"
*MEAS_COND_AXIS_NAME_INTERNAL-3 "Z"
*MEAS_COND_AXIS_NAME_INTERNAL-4 "TwoThetaOmega"
*MEAS_COND_AXIS_NAME_INTERNAL-5 "ThetaS"
*MEAS_COND_AXIS_NAME_INTERNAL-6 "ThetaD"
*MEAS_COND_AXIS_NAME_INTERNAL-7 "Ts"
*MEAS_COND_AXIS_NAME_INTERNAL-8 "CBO"
*MEAS_COND_AXIS_NAME_INTERNAL-9 "CBO-M"
*MEAS_COND_AXIS_NAME_INTERNAL-10 "IncidentSollerSlit"
*MEAS_COND_AXIS_NAME_INTERNAL-11 "IncidentSlitBox"
*MEAS_COND_AXIS_NAME_INTERNAL-12 "IncidentSlitBox-_Axis"
*MEAS_COND_AXIS_NAME_INTERNAL-13 "Zs"
*MEAS_COND_AXIS_NAME_INTERNAL-14 "IncidentMonochromator"
*MEAS_COND_AXIS_NAME_INTERNAL-15 "IncidentAxdSlit"
*MEAS_COND_AXIS_NAME_INTERNAL-16 "CenterSlit"
*MEAS_COND_AXIS_NAME_INTERNAL-17 "Filter"
*MEAS_COND_AXIS_NAME_INTERNAL-18 "ReceivingSlitBox1"
*MEAS_COND_AXIS_NAME_INTERNAL-19 "ReceivingSlitBox2"
*MEAS_COND_AXIS_NAME_INTERNAL-20 "ReceivingOptics"
*MEAS_COND_AXIS_NAME_INTERNAL-21 "ReceivingSollerSlit"
*MEAS_COND_AXIS_NAME_INTERNAL-22 "ReceivingAxdSlit"
*MEAS_COND_AXIS_NAME_INTERNAL-23 "ReceivingSlitBox1-_Axis"
*MEAS_COND_AXIS_NAME_INTERNAL-24 "ReceivingSlitBox2-_Axis"
*MEAS_COND_AXIS_NAME_INTERNAL-25 "ReceivingSlitBox2-Zd"
*MEAS_COND_AXIS_NAME_INTERNAL-26 "Attenuator"
*MEAS_COND_AXIS_NAME_INTERNAL-27 "CounterMonochromator"
*MEAS_COND_AXIS_NAME_INTERNAL-28 "CounterSlit"
*MEAS_COND_AXIS_NAME_INTERNAL-29 "IncidentPrimary"
*MEAS_COND_AXIS_NAME_INTERNAL-30 "PHA"
*MEAS_COND_AXIS_NAME_MAGICNO-0 "83951616.0000000000"
*MEAS_COND_AXIS_NAME_MAGICNO-1 "268632064.0000000000"
*MEAS_COND_AXIS_NAME_MAGICNO-2 "268500992.0000000000"
*MEAS_COND_AXIS_NAME_MAGICNO-3 "285278208.0000000000"
*MEAS_COND_AXIS_NAME_MAGICNO-4 "83951616.0000000000"
*MEAS_COND_AXIS_NAME_MAGICNO-5 "131072.0000000000"
*MEAS_COND_AXIS_NAME_MAGICNO-6 "131072.0000000000"
*MEAS_COND_AXIS_NAME_MAGICNO-7 "318898176.0000000000"
*MEAS_COND_AXIS_NAME_MAGICNO-8 "20971521.0000000000"
*MEAS_COND_AXIS_NAME_MAGICNO-9 "285343744.0000000000"
*MEAS_COND_AXIS_NAME_MAGICNO-10 "20971521.0000000000"
*MEAS_COND_AXIS_NAME_MAGICNO-11 "22020097.0000000000"
*MEAS_COND_AXIS_NAME_MAGICNO-12 "25165824.0000000000"
*MEAS_COND_AXIS_NAME_MAGICNO-13 "318898176.0000000000"
*MEAS_COND_AXIS_NAME_MAGICNO-14 "1.0000000000"
*MEAS_COND_AXIS_NAME_MAGICNO-15 "20971521.0000000000"
*MEAS_COND_AXIS_NAME_MAGICNO-16 "20971521.0000000000"
*MEAS_COND_AXIS_NAME_MAGICNO-17 "20971521.0000000000"
*MEAS_COND_AXIS_NAME_MAGICNO-18 "23068673.0000000000"
*MEAS_COND_AXIS_NAME_MAGICNO-19 "23068673.0000000000"
*MEAS_COND_AXIS_NAME_MAGICNO-20 "20971521.0000000000"
*MEAS_COND_AXIS_NAME_MAGICNO-21 "20971521.0000000000"
*MEAS_COND_AXIS_NAME_MAGICNO-22 "20971521.0000000000"
*MEAS_COND_AXIS_NAME_MAGICNO-23 "25165824.0000000000"
*MEAS_COND_AXIS_NAME_MAGICNO-24 "25165824.0000000000"
*MEAS_COND_AXIS_NAME_MAGICNO-25 "285343744.0000000000"
*MEAS_COND_AXIS_NAME_MAGICNO-26 "17301505.0000000000"
*MEAS_COND_AXIS_NAME_MAGICNO-27 "20971521.0000000000"
*MEAS_COND_AXIS_NAME_MAGICNO-28 "20971521.0000000000"
*MEAS_COND_AXIS_NAME_MAGICNO-29 "20971521.0000000000"
*MEAS_COND_AXIS_NAME_MAGICNO-30 "0.0000000000"
*MEAS_COND_AXIS_OFFSET-0 "-"
*MEAS_COND_AXIS_OFFSET-1 "-0.1081000000"
*MEAS_COND_AXIS_OFFSET-2 "0.3758000000"
*MEAS_COND_AXIS_OFFSET-3 "-"
*MEAS_COND_AXIS_OFFSET-4 "-"
*MEAS_COND_AXIS_OFFSET-5 "0.3758000000"
*MEAS_COND_AXIS_OFFSET-6 "-0.4839000000"
*MEAS_COND_AXIS_OFFSET-7 "-"
*MEAS_COND_AXIS_OFFSET-8 "-"
*MEAS_COND_AXIS_OFFSET-9 "-"
*MEAS_COND_AXIS_OFFSET-10 "-"
*MEAS_COND_AXIS_OFFSET-11 "-"
*MEAS_COND_AXIS_OFFSET-12 "-"
*MEAS_COND_AXIS_OFFSET-13 "-"
*MEAS_COND_AXIS_OFFSET-14 "-"
*MEAS_COND_AXIS_OFFSET-15 "-"
*MEAS_COND_AXIS_OFFSET-16 "-"
*MEAS_COND_AXIS_OFFSET-17 "-"
*MEAS_COND_AXIS_OFFSET-18 "-"
*MEAS_COND_AXIS_OFFSET-19 "-"
*MEAS_COND_AXIS_OFFSET-20 "-"
*MEAS_COND_AXIS_OFFSET-21 "-"
*MEAS_COND_AXIS_OFFSET-22 "-"
*MEAS_COND_AXIS_OFFSET-23 "-"
*MEAS_COND_AXIS_OFFSET-24 "-"
*MEAS_COND_AXIS_OFFSET-25 "-"
*MEAS_COND_AXIS_OFFSET-26 "-"
*MEAS_COND_AXIS_OFFSET-27 "-"
*MEAS_COND_AXIS_OFFSET-28 "-"
*MEAS_COND_AXIS_OFFSET-29 "-"
*MEAS_COND_AXIS_OFFSET-30 "-"
*MEAS_COND_AXIS_POSITION-0 "0.0000000000"
*MEAS_COND_AXIS_POSITION-1 "0.0000000000"
*MEAS_COND_AXIS_POSITION-2 "0.0000000000"
*MEAS_COND_AXIS_POSITION-3 "-0.5500000000"
*MEAS_COND_AXIS_POSITION-4 "0.0000000000"
*MEAS_COND_AXIS_POSITION-5 "0.0000000000"
*MEAS_COND_AXIS_POSITION-6 "0.0000000000"
*MEAS_COND_AXIS_POSITION-7 "-0.4278800000"
*MEAS_COND_AXIS_POSITION-8 "BB"
*MEAS_COND_AXIS_POSITION-9 "0.0000000000"
*MEAS_COND_AXIS_POSITION-10 "Soller_slit_5.0deg"
*MEAS_COND_AXIS_POSITION-11 "2/3deg"
*MEAS_COND_AXIS_POSITION-12 "2.2088000000"
*MEAS_COND_AXIS_POSITION-13 "-0.4140600000"
*MEAS_COND_AXIS_POSITION-14 "0.0000000000"
*MEAS_COND_AXIS_POSITION-15 "10.0mm"
*MEAS_COND_AXIS_POSITION-16 "None"
*MEAS_COND_AXIS_POSITION-17 "Cu_K-beta"
*MEAS_COND_AXIS_POSITION-18 "13.000mm"
*MEAS_COND_AXIS_POSITION-19 "13.000mm"
*MEAS_COND_AXIS_POSITION-20 "No_unit"
*MEAS_COND_AXIS_POSITION-21 "Soller_slit_5.0deg"
*MEAS_COND_AXIS_POSITION-22 "None"
*MEAS_COND_AXIS_POSITION-23 "13.0000000000"
*MEAS_COND_AXIS_POSITION-24 "13.0000000000"
*MEAS_COND_AXIS_POSITION-25 "0.0109400000"
*MEAS_COND_AXIS_POSITION-26 "Open"
*MEAS_COND_AXIS_POSITION-27 "None"
*MEAS_COND_AXIS_POSITION-28 "None"
*MEAS_COND_AXIS_POSITION-29 "None"
*MEAS_COND_AXIS_POSITION-30 "38.0000000000"
*MEAS_COND_AXIS_UNIT-0 "deg"
*MEAS_COND_AXIS_UNIT-1 "deg"
*MEAS_COND_AXIS_UNIT-2 "deg"
*MEAS_COND_AXIS_UNIT-3 "mm"
*MEAS_COND_AXIS_UNIT-4 "deg"
*MEAS_COND_AXIS_UNIT-5 "deg"
*MEAS_COND_AXIS_UNIT-6 "deg"
*MEAS_COND_AXIS_UNIT-7 "mm"
*MEAS_COND_AXIS_UNIT-8 ""
*MEAS_COND_AXIS_UNIT-9 "pulse"
*MEAS_COND_AXIS_UNIT-10 ""
*MEAS_COND_AXIS_UNIT-11 ""
*MEAS_COND_AXIS_UNIT-12 "mm"
*MEAS_COND_AXIS_UNIT-13 "mm"
*MEAS_COND_AXIS_UNIT-14 ""
*MEAS_COND_AXIS_UNIT-15 ""
*MEAS_COND_AXIS_UNIT-16 ""
*MEAS_COND_AXIS_UNIT-17 ""
*MEAS_COND_AXIS_UNIT-18 ""
*MEAS_COND_AXIS_UNIT-19 ""
*MEAS_COND_AXIS_UNIT-20 ""
*MEAS_COND_AXIS_UNIT-21 ""
*MEAS_COND_AXIS_UNIT-22 ""
*MEAS_COND_AXIS_UNIT-23 "mm"
*MEAS_COND_AXIS_UNIT-24 "mm"
*MEAS_COND_AXIS_UNIT-25 "mm"
*MEAS_COND_AXIS_UNIT-26 ""
*MEAS_COND_AXIS_UNIT-27 ""
*MEAS_COND_AXIS_UNIT-28 ""
*MEAS_COND_AXIS_UNIT-29 ""
*MEAS_COND_AXIS_UNIT-30 "div"
*MEAS_COND_COUNTER_CNTLOSS_CORR "0.0000000000"
*MEAS_COND_COUNTER_PHABASE "38.0000000000"
*MEAS_COND_COUNTER_PHAWINDOW "16.0000000000"
*MEAS_COND_COUNTER_PHA_UNIT "div"
*MEAS_COND_COUNTER_TAUDIFF "30.0000000000"
*MEAS_COND_COUNTER_TAUINT "0.0000000000"
*MEAS_COND_IRRADIATION_MODE "OFF"
*MEAS_COND_IRRADIATION_WIDTH ""
*MEAS_COND_OPT_ATTR "集中法"
*MEAS_COND_OPT_NAME "@集中法"
*MEAS_COND_UNSYMMETRIC_MODE "OFF"
*MEAS_COND_XG_CURRENT "30.0000000000"
*MEAS_COND_XG_VOLTAGE "40.0000000000"
*MEAS_COND_XG_WAVE_TYPE "Ka"
*MEAS_DATA_COUNT "5001.0000000000"
*MEAS_SCAN_AXIS_X "2θ/θ"
*MEAS_SCAN_AXIS_X_INTERNAL "TwoThetaTheta"
*MEAS_SCAN_END_TIME "06/30/21 14:23:10"
*MEAS_SCAN_MODE "CONTINUOUS"
*MEAS_SCAN_MONITOR "0"
*MEAS_SCAN_RESOLUTION_X "0.0002"
*MEAS_SCAN_SPEED "1.0"
*MEAS_SCAN_SPEED_UNIT "deg/min"
*MEAS_SCAN_START "20.0000000000"
*MEAS_SCAN_START_TIME "06/30/21 13:30:18"
*MEAS_SCAN_STEP "0.0100000000"
*MEAS_SCAN_STOP "70.0000000000"
*MEAS_SCAN_UNIT_X "deg"
*MEAS_SCAN_UNIT_Y "counts"
*RAS_HEADER_END
*RAS_INT_START
20.0000 1645.0000 1.0000
20.0100 1619.0000 1.0000
20.0200 1589.0000 1.0000
20.0300 1605.0000 1.0000
20.0400 1620.0000 1.0000
20.0500 1614.0000 1.0000
20.0600 1585.0000 1.0000
20.0700 1544.0000 1.0000
20.0800 1609.0000 1.0000
20.0900 1556.0000 1.0000
20.1000 1591.0000 1.0000
20.1100 1539.0000 1.0000
20.1200 1532.0000 1.0000
20.1300 1579.0000 1.0000
20.1400 1589.0000 1.0000
20.1500 1549.0000 1.0000
20.1600 1604.0000 1.0000
20.1700 1571.0000 1.0000
20.1800 1535.0000 1.0000
20.1900 1562.0000 1.0000
20.2000 1618.0000 1.0000
20.2100 1572.0000 1.0000
20.2200 1577.0000 1.0000
20.2300 1654.0000 1.0000
20.2400 1602.0000 1.0000
20.2500 1581.0000 1.0000
20.2600 1586.0000 1.0000
20.2700 1539.0000 1.0000
20.2800 1581.0000 1.0000
20.2900 1531.0000 1.0000
20.3000 1554.0000 1.0000
20.3100 1551.0000 1.0000
20.3200 1569.0000 1.0000
20.3300 1604.0000 1.0000
20.3400 1531.0000 1.0000
20.3500 1582.0000 1.0000
20.3600 1583.0000 1.0000
20.3700 1553.0000 1.0000
20.3800 1567.0000 1.0000
20.3900 1557.0000 1.0000
20.4000 1579.0000 1.0000
20.4100 1630.0000 1.0000
20.4200 1552.0000 1.0000
20.4300 1528.0000 1.0000
20.4400 1537.0000 1.0000
20.4500 1538.0000 1.0000
20.4600 1586.0000 1.0000
20.4700 1564.0000 1.0000
20.4800 1524.0000 1.0000
20.4900 1555.0000 1.0000
20.5000 1593.0000 1.0000
20.5100 1577.0000 1.0000
20.5200 1592.0000 1.0000
20.5300 1577.0000 1.0000
20.5400 1521.0000 1.0000
20.5500 1571.0000 1.0000
20.5600 1556.0000 1.0000
20.5700 1543.0000 1.0000
20.5800 1599.0000 1.0000
20.5900 1616.0000 1.0000
20.6000 1579.0000 1.0000
20.6100 1614.0000 1.0000
20.6200 1598.0000 1.0000
20.6300 1652.0000 1.0000
20.6400 1541.0000 1.0000
20.6500 1571.0000 1.0000
20.6600 1592.0000 1.0000
20.6700 1664.0000 1.0000
20.6800 1632.0000 1.0000
20.6900 1580.0000 1.0000
20.7000 1558.0000 1.0000
20.7100 1552.0000 1.0000
20.7200 1507.0000 1.0000
20.7300 1509.0000 1.0000
20.7400 1591.0000 1.0000
20.7500 1543.0000 1.0000
20.7600 1576.0000 1.0000
20.7700 1549.0000 1.0000
20.7800 1638.0000 1.0000
20.7900 1605.0000 1.0000
20.8000 1534.0000 1.0000
20.8100 1545.0000 1.0000
20.8200 1583.0000 1.0000
20.8300 1639.0000 1.0000
20.8400 1555.0000 1.0000
20.8500 1568.0000 1.0000
20.8600 1577.0000 1.0000
20.8700 1617.0000 1.0000
20.8800 1645.0000 1.0000
20.8900 1567.0000 1.0000
20.9000 1493.0000 1.0000
20.9100 1553.0000 1.0000
20.9200 1541.0000 1.0000
20.9300 1573.0000 1.0000
20.9400 1587.0000 1.0000
20.9500 1582.0000 1.0000
20.9600 1510.0000 1.0000
20.9700 1532.0000 1.0000
20.9800 1587.0000 1.0000
20.9900 1603.0000 1.0000
21.0000 1568.0000 1.0000
21.0100 1541.0000 1.0000
21.0200 1608.0000 1.0000
21.0300 1553.0000 1.0000
21.0400 1546.0000 1.0000
21.0500 1557.0000 1.0000
21.0600 1568.0000 1.0000
21.0700 1546.0000 1.0000
21.0800 1565.0000 1.0000
21.0900 1591.0000 1.0000
21.1000 1594.0000 1.0000
21.1100 1580.0000 1.0000
21.1200 1579.0000 1.0000
21.1300 1527.0000 1.0000
21.1400 1580.0000 1.0000
21.1500 1546.0000 1.0000
21.1600 1588.0000 1.0000
21.1700 1578.0000 1.0000
21.1800 1604.0000 1.0000
21.1900 1557.0000 1.0000
21.2000 1582.0000 1.0000
21.2100 1487.0000 1.0000
21.2200 1506.0000 1.0000
21.2300 1553.0000 1.0000
21.2400 1539.0000 1.0000
21.2500 1540.0000 1.0000
21.2600 1573.0000 1.0000
21.2700 1568.0000 1.0000
21.2800 1548.0000 1.0000
21.2900 1542.0000 1.0000
21.3000 1571.0000 1.0000
21.3100 1524.0000 1.0000
21.3200 1563.0000 1.0000
21.3300 1596.0000 1.0000
21.3400 1529.0000 1.0000
21.3500 1533.0000 1.0000
21.3600 1593.0000 1.0000
21.3700 1604.0000 1.0000
21.3800 1538.0000 1.0000
21.3900 1602.0000 1.0000
21.4000 1577.0000 1.0000
21.4100 1534.0000 1.0000
21.4200 1567.0000 1.0000
21.4300 1498.0000 1.0000
21.4400 1503.0000 1.0000
21.4500 1592.0000 1.0000
21.4600 1558.0000 1.0000
21.4700 1588.0000 1.0000
21.4800 1591.0000 1.0000
21.4900 1565.0000 1.0000
21.5000 1517.0000 1.0000
21.5100 1523.0000 1.0000
21.5200 1582.0000 1.0000
21.5300 1549.0000 1.0000
21.5400 1552.0000 1.0000
21.5500 1502.0000 1.0000
21.5600 1552.0000 1.0000
21.5700 1587.0000 1.0000
21.5800 1552.0000 1.0000
21.5900 1615.0000 1.0000
21.6000 1535.0000 1.0000
21.6100 1550.0000 1.0000
21.6200 1566.0000 1.0000
21.6300 1626.0000 1.0000
21.6400 1615.0000 1.0000
21.6500 1537.0000 1.0000
21.6600 1610.0000 1.0000
21.6700 1648.0000 1.0000
21.6800 1588.0000 1.0000
21.6900 1600.0000 1.0000
21.7000 1614.0000 1.0000
21.7100 1599.0000 1.0000
21.7200 1606.0000 1.0000
21.7300 1570.0000 1.0000
21.7400 1490.0000 1.0000
21.7500 1576.0000 1.0000
21.7600 1614.0000 1.0000
21.7700 1525.0000 1.0000
21.7800 1569.0000 1.0000
21.7900 1562.0000 1.0000
21.8000 1546.0000 1.0000
21.8100 1550.0000 1.0000
21.8200 1583.0000 1.0000
21.8300 1574.0000 1.0000
21.8400 1585.0000 1.0000
21.8500 1599.0000 1.0000
21.8600 1628.0000 1.0000
21.8700 1555.0000 1.0000
21.8800 1599.0000 1.0000
21.8900 1597.0000 1.0000
21.9000 1597.0000 1.0000
21.9100 1582.0000 1.0000
21.9200 1578.0000 1.0000
21.9300 1592.0000 1.0000
21.9400 1561.0000 1.0000
21.9500 1630.0000 1.0000
21.9600 1566.0000 1.0000
21.9700 1599.0000 1.0000
21.9800 1581.0000 1.0000
21.9900 1627.0000 1.0000
22.0000 1596.0000 1.0000
22.0100 1621.0000 1.0000
22.0200 1578.0000 1.0000
22.0300 1620.0000 1.0000
22.0400 1566.0000 1.0000
22.0500 1578.0000 1.0000
22.0600 1607.0000 1.0000
22.0700 1650.0000 1.0000
22.0800 1554.0000 1.0000
22.0900 1630.0000 1.0000
22.1000 1579.0000 1.0000
22.1100 1562.0000 1.0000
22.1200 1570.0000 1.0000
22.1300 1517.0000 1.0000
22.1400 1564.0000 1.0000
22.1500 1555.0000 1.0000
22.1600 1539.0000 1.0000
22.1700 1545.0000 1.0000
22.1800 1586.0000 1.0000
22.1900 1569.0000 1.0000
22.2000 1561.0000 1.0000
22.2100 1582.0000 1.0000
22.2200 1526.0000 1.0000
22.2300 1641.0000 1.0000
22.2400 1542.0000 1.0000
22.2500 1602.0000 1.0000
22.2600 1508.0000 1.0000
22.2700 1579.0000 1.0000
22.2800 1551.0000 1.0000
22.2900 1553.0000 1.0000
22.3000 1551.0000 1.0000
22.3100 1564.0000 1.0000
22.3200 1637.0000 1.0000
22.3300 1566.0000 1.0000
22.3400 1622.0000 1.0000
22.3500 1547.0000 1.0000
22.3600 1592.0000 1.0000
22.3700 1564.0000 1.0000
22.3800 1537.0000 1.0000
22.3900 1608.0000 1.0000
22.4000 1632.0000 1.0000
22.4100 1651.0000 1.0000
22.4200 1638.0000 1.0000
22.4300 1602.0000 1.0000
22.4400 1577.0000 1.0000
22.4500 1556.0000 1.0000
22.4600 1561.0000 1.0000
22.4700 1642.0000 1.0000
22.4800 1604.0000 1.0000
22.4900 1573.0000 1.0000
22.5000 1620.0000 1.0000
22.5100 1609.0000 1.0000
22.5200 1641.0000 1.0000
22.5300 1584.0000 1.0000
22.5400 1543.0000 1.0000
22.5500 1618.0000 1.0000
22.5600 1607.0000 1.0000
22.5700 1571.0000 1.0000
22.5800 1567.0000 1.0000
22.5900 1532.0000 1.0000
22.6000 1589.0000 1.0000
22.6100 1624.0000 1.0000
22.6200 1555.0000 1.0000
22.6300 1566.0000 1.0000
22.6400 1565.0000 1.0000
22.6500 1552.0000 1.0000
22.6600 1548.0000 1.0000
22.6700 1647.0000 1.0000
22.6800 1633.0000 1.0000
22.6900 1611.0000 1.0000
22.7000 1590.0000 1.0000
22.7100 1590.0000 1.0000
22.7200 1554.0000 1.0000
22.7300 1595.0000 1.0000
22.7400 1582.0000 1.0000
22.7500 1631.0000 1.0000
22.7600 1588.0000 1.0000
22.7700 1591.0000 1.0000
22.7800 1581.0000 1.0000
22.7900 1619.0000 1.0000
22.8000 1596.0000 1.0000
22.8100 1688.0000 1.0000
22.8200 1594.0000 1.0000
22.8300 1636.0000 1.0000
22.8400 1542.0000 1.0000
22.8500 1569.0000 1.0000
22.8600 1609.0000 1.0000
22.8700 1586.0000 1.0000
22.8800 1632.0000 1.0000
22.8900 1643.0000 1.0000
22.9000 1608.0000 1.0000
22.9100 1573.0000 1.0000
22.9200 1589.0000 1.0000
22.9300 1544.0000 1.0000
22.9400 1578.0000 1.0000
22.9500 1605.0000 1.0000
22.9600 1573.0000 1.0000
22.9700 1645.0000 1.0000
22.9800 1559.0000 1.0000
22.9900 1594.0000 1.0000
23.0000 1594.0000 1.0000
23.0100 1590.0000 1.0000
23.0200 1669.0000 1.0000
23.0300 1573.0000 1.0000
23.0400 1579.0000 1.0000
23.0500 1549.0000 1.0000
23.0600 1562.0000 1.0000
23.0700 1563.0000 1.0000
23.0800 1549.0000 1.0000
23.0900 1567.0000 1.0000
23.1000 1535.0000 1.0000
23.1100 1577.0000 1.0000
23.1200 1612.0000 1.0000
23.1300 1653.0000 1.0000
23.1400 1589.0000 1.0000
23.1500 1578.0000 1.0000
23.1600 1616.0000 1.0000
23.1700 1568.0000 1.0000
23.1800 1562.0000 1.0000
23.1900 1561.0000 1.0000
23.2000 1567.0000 1.0000
23.2100 1609.0000 1.0000
23.2200 1593.0000 1.0000
23.2300 1623.0000 1.0000
23.2400 1628.0000 1.0000
23.2500 1571.0000 1.0000
23.2600 1574.0000 1.0000
23.2700 1595.0000 1.0000
23.2800 1618.0000 1.0000
23.2900 1586.0000 1.0000
23.3000 1615.0000 1.0000
23.3100 1527.0000 1.0000
23.3200 1592.0000 1.0000
23.3300 1517.0000 1.0000
23.3400 1555.0000 1.0000
23.3500 1629.0000 1.0000
23.3600 1581.0000 1.0000
23.3700 1582.0000 1.0000
23.3800 1540.0000 1.0000
23.3900 1553.0000 1.0000
23.4000 1594.0000 1.0000
23.4100 1655.0000 1.0000
23.4200 1597.0000 1.0000
23.4300 1611.0000 1.0000
23.4400 1595.0000 1.0000
23.4500 1567.0000 1.0000
23.4600 1639.0000 1.0000
23.4700 1560.0000 1.0000
23.4800 1608.0000 1.0000
23.4900 1521.0000 1.0000
23.5000 1605.0000 1.0000
23.5100 1597.0000 1.0000
23.5200 1608.0000 1.0000
23.5300 1617.0000 1.0000
23.5400 1585.0000 1.0000
23.5500 1608.0000 1.0000
23.5600 1656.0000 1.0000
23.5700 1592.0000 1.0000
23.5800 1645.0000 1.0000
23.5900 1580.0000 1.0000
23.6000 1610.0000 1.0000
23.6100 1564.0000 1.0000
23.6200 1534.0000 1.0000
23.6300 1604.0000 1.0000
23.6400 1530.0000 1.0000
23.6500 1552.0000 1.0000
23.6600 1605.0000 1.0000
23.6700 1615.0000 1.0000
23.6800 1652.0000 1.0000
23.6900 1607.0000 1.0000
23.7000 1677.0000 1.0000
23.7100 1602.0000 1.0000
23.7200 1582.0000 1.0000
23.7300 1593.0000 1.0000
23.7400 1569.0000 1.0000
23.7500 1645.0000 1.0000
23.7600 1657.0000 1.0000
23.7700 1584.0000 1.0000
23.7800 1654.0000 1.0000
23.7900 1608.0000 1.0000
23.8000 1575.0000 1.0000
23.8100 1611.0000 1.0000
23.8200 1595.0000 1.0000
23.8300 1642.0000 1.0000
23.8400 1568.0000 1.0000
23.8500 1586.0000 1.0000
23.8600 1580.0000 1.0000
23.8700 1688.0000 1.0000
23.8800 1601.0000 1.0000
23.8900 1614.0000 1.0000
23.9000 1665.0000 1.0000
23.9100 1543.0000 1.0000
23.9200 1586.0000 1.0000
23.9300 1665.0000 1.0000
23.9400 1664.0000 1.0000
23.9500 1635.0000 1.0000
23.9600 1641.0000 1.0000
23.9700 1569.0000 1.0000
23.9800 1606.0000 1.0000
23.9900 1615.0000 1.0000
24.0000 1615.0000 1.0000
24.0100 1557.0000 1.0000
24.0200 1684.0000 1.0000
24.0300 1630.0000 1.0000
24.0400 1583.0000 1.0000
24.0500 1645.0000 1.0000
24.0600 1622.0000 1.0000
24.0700 1579.0000 1.0000
24.0800 1623.0000 1.0000
24.0900 1537.0000 1.0000
24.1000 1609.0000 1.0000
24.1100 1601.0000 1.0000
24.1200 1639.0000 1.0000
24.1300 1642.0000 1.0000
24.1400 1623.0000 1.0000
24.1500 1649.0000 1.0000
24.1600 1673.0000 1.0000
24.1700 1544.0000 1.0000
24.1800 1580.0000 1.0000
24.1900 1611.0000 1.0000
24.2000 1563.0000 1.0000
24.2100 1610.0000 1.0000
24.2200 1518.0000 1.0000
24.2300 1612.0000 1.0000
24.2400 1581.0000 1.0000
24.2500 1611.0000 1.0000
24.2600 1535.0000 1.0000
24.2700 1603.0000 1.0000
24.2800 1606.0000 1.0000
24.2900 1627.0000 1.0000
24.3000 1582.0000 1.0000
24.3100 1561.0000 1.0000
24.3200 1537.0000 1.0000
24.3300 1675.0000 1.0000
24.3400 1631.0000 1.0000
24.3500 1611.0000 1.0000
24.3600 1568.0000 1.0000
24.3700 1647.0000 1.0000
24.3800 1649.0000 1.0000
24.3900 1658.0000 1.0000
24.4000 1612.0000 1.0000
24.4100 1561.0000 1.0000
24.4200 1640.0000 1.0000
24.4300 1636.0000 1.0000
24.4400 1700.0000 1.0000
24.4500 1601.0000 1.0000
24.4600 1628.0000 1.0000
24.4700 1649.0000 1.0000
24.4800 1617.0000 1.0000
24.4900 1608.0000 1.0000
24.5000 1594.0000 1.0000
24.5100 1664.0000 1.0000
24.5200 1637.0000 1.0000
24.5300 1603.0000 1.0000
24.5400 1672.0000 1.0000
24.5500 1649.0000 1.0000
24.5600 1536.0000 1.0000
24.5700 1614.0000 1.0000
24.5800 1597.0000 1.0000
24.5900 1582.0000 1.0000
24.6000 1570.0000 1.0000
24.6100 1564.0000 1.0000
24.6200 1658.0000 1.0000
24.6300 1611.0000 1.0000
24.6400 1664.0000 1.0000
24.6500 1659.0000 1.0000
24.6600 1642.0000 1.0000
24.6700 1693.0000 1.0000
24.6800 1678.0000 1.0000
24.6900 1630.0000 1.0000
24.7000 1615.0000 1.0000
24.7100 1622.0000 1.0000
24.7200 1628.0000 1.0000
24.7300 1729.0000 1.0000
24.7400 1616.0000 1.0000
24.7500 1621.0000 1.0000
24.7600 1614.0000 1.0000
24.7700 1589.0000 1.0000
24.7800 1584.0000 1.0000
24.7900 1690.0000 1.0000
24.8000 1607.0000 1.0000
24.8100 1653.0000 1.0000
24.8200 1620.0000 1.0000
24.8300 1632.0000 1.0000
24.8400 1645.0000 1.0000
24.8500 1635.0000 1.0000
24.8600 1685.0000 1.0000
24.8700 1701.0000 1.0000
24.8800 1669.0000 1.0000
24.8900 1659.0000 1.0000
24.9000 1693.0000 1.0000
24.9100 1708.0000 1.0000
24.9200 1719.0000 1.0000
24.9300 1750.0000 1.0000
24.9400 1743.0000 1.0000
24.9500 1717.0000 1.0000
24.9600 1709.0000 1.0000
24.9700 1723.0000 1.0000
24.9800 1656.0000 1.0000
24.9900 1682.0000 1.0000
25.0000 1718.0000 1.0000
25.0100 1713.0000 1.0000
25.0200 1710.0000 1.0000
25.0300 1711.0000 1.0000
25.0400 1727.0000 1.0000
25.0500 1642.0000 1.0000
25.0600 1724.0000 1.0000
25.0700 1703.0000 1.0000
25.0800 1676.0000 1.0000
25.0900 1709.0000 1.0000
25.1000 1650.0000 1.0000
25.1100 1645.0000 1.0000
25.1200 1679.0000 1.0000
25.1300 1670.0000 1.0000
25.1400 1762.0000 1.0000
25.1500 1698.0000 1.0000
25.1600 1696.0000 1.0000
25.1700 1703.0000 1.0000
25.1800 1702.0000 1.0000
25.1900 1735.0000 1.0000
25.2000 1657.0000 1.0000
25.2100 1655.0000 1.0000
25.2200 1667.0000 1.0000
25.2300 1637.0000 1.0000
25.2400 1659.0000 1.0000
25.2500 1667.0000 1.0000
25.2600 1628.0000 1.0000
25.2700 1703.0000 1.0000
25.2800 1594.0000 1.0000
25.2900 1597.0000 1.0000
25.3000 1599.0000 1.0000
25.3100 1643.0000 1.0000
25.3200 1642.0000 1.0000
25.3300 1660.0000 1.0000
25.3400 1722.0000 1.0000
25.3500 1692.0000 1.0000
25.3600 1693.0000 1.0000
25.3700 1679.0000 1.0000
25.3800 1654.0000 1.0000
25.3900 1688.0000 1.0000
25.4000 1678.0000 1.0000
25.4100 1667.0000 1.0000
25.4200 1691.0000 1.0000
25.4300 1626.0000 1.0000
25.4400 1668.0000 1.0000
25.4500 1653.0000 1.0000
25.4600 1612.0000 1.0000
25.4700 1666.0000 1.0000
25.4800 1663.0000 1.0000
25.4900 1662.0000 1.0000
25.5000 1667.0000 1.0000
25.5100 1714.0000 1.0000
25.5200 1630.0000 1.0000
25.5300 1610.0000 1.0000
25.5400 1703.0000 1.0000
25.5500 1655.0000 1.0000
25.5600 1649.0000 1.0000
25.5700 1610.0000 1.0000
25.5800 1687.0000 1.0000
25.5900 1655.0000 1.0000
25.6000 1688.0000 1.0000
25.6100 1580.0000 1.0000
25.6200 1669.0000 1.0000
25.6300 1663.0000 1.0000
25.6400 1636.0000 1.0000
25.6500 1637.0000 1.0000
25.6600 1621.0000 1.0000
25.6700 1577.0000 1.0000
25.6800 1630.0000 1.0000
25.6900 1589.0000 1.0000
25.7000 1626.0000 1.0000
25.7100 1682.0000 1.0000
25.7200 1694.0000 1.0000
25.7300 1647.0000 1.0000
25.7400 1606.0000 1.0000
25.7500 1655.0000 1.0000
25.7600 1623.0000 1.0000
25.7700 1609.0000 1.0000
25.7800 1605.0000 1.0000
25.7900 1661.0000 1.0000
25.8000 1668.0000 1.0000
25.8100 1605.0000 1.0000
25.8200 1689.0000 1.0000
25.8300 1596.0000 1.0000
25.8400 1612.0000 1.0000
25.8500 1603.0000 1.0000
25.8600 1631.0000 1.0000
25.8700 1709.0000 1.0000
25.8800 1583.0000 1.0000
25.8900 1648.0000 1.0000
25.9000 1741.0000 1.0000
25.9100 1656.0000 1.0000
25.9200 1649.0000 1.0000
25.9300 1649.0000 1.0000
25.9400 1684.0000 1.0000
25.9500 1620.0000 1.0000
25.9600 1648.0000 1.0000
25.9700 1682.0000 1.0000
25.9800 1688.0000 1.0000
25.9900 1710.0000 1.0000
26.0000 1661.0000 1.0000
26.0100 1667.0000 1.0000
26.0200 1622.0000 1.0000
26.0300 1647.0000 1.0000
26.0400 1638.0000 1.0000
26.0500 1648.0000 1.0000
26.0600 1695.0000 1.0000
26.0700 1638.0000 1.0000
26.0800 1706.0000 1.0000
26.0900 1644.0000 1.0000
26.1000 1731.0000 1.0000
26.1100 1679.0000 1.0000
26.1200 1622.0000 1.0000
26.1300 1638.0000 1.0000
26.1400 1706.0000 1.0000
26.1500 1651.0000 1.0000
26.1600 1599.0000 1.0000
26.1700 1671.0000 1.0000
26.1800 1690.0000 1.0000
26.1900 1688.0000 1.0000
26.2000 1680.0000 1.0000
26.2100 1683.0000 1.0000
26.2200 1670.0000 1.0000
26.2300 1682.0000 1.0000
26.2400 1628.0000 1.0000
26.2500 1617.0000 1.0000
26.2600 1701.0000 1.0000
26.2700 1671.0000 1.0000
26.2800 1752.0000 1.0000
26.2900 1725.0000 1.0000
26.3000 1652.0000 1.0000
26.3100 1635.0000 1.0000
26.3200 1681.0000 1.0000
26.3300 1715.0000 1.0000
26.3400 1677.0000 1.0000
26.3500 1700.0000 1.0000
26.3600 1694.0000 1.0000
26.3700 1693.0000 1.0000
26.3800 1660.0000 1.0000
26.3900 1656.0000 1.0000
26.4000 1637.0000 1.0000
26.4100 1664.0000 1.0000
26.4200 1684.0000 1.0000
26.4300 1734.0000 1.0000
26.4400 1749.0000 1.0000
26.4500 1783.0000 1.0000
26.4600 1725.0000 1.0000
26.4700 1699.0000 1.0000
26.4800 1764.0000 1.0000
26.4900 1713.0000 1.0000
26.5000 1709.0000 1.0000
26.5100 1750.0000 1.0000
26.5200 1699.0000 1.0000
26.5300 1719.0000 1.0000
26.5400 1644.0000 1.0000
26.5500 1734.0000 1.0000
26.5600 1791.0000 1.0000
26.5700 1717.0000 1.0000
26.5800 1741.0000 1.0000
26.5900 1694.0000 1.0000
26.6000 1752.0000 1.0000
26.6100 1776.0000 1.0000
26.6200 1719.0000 1.0000
26.6300 1749.0000 1.0000
26.6400 1809.0000 1.0000
26.6500 1776.0000 1.0000
26.6600 1711.0000 1.0000
26.6700 1754.0000 1.0000
26.6800 1677.0000 1.0000
26.6900 1702.0000 1.0000
26.7000 1728.0000 1.0000
26.7100 1747.0000 1.0000
26.7200 1815.0000 1.0000
26.7300 1766.0000 1.0000
26.7400 1770.0000 1.0000
26.7500 1821.0000 1.0000
26.7600 1788.0000 1.0000
26.7700 1800.0000 1.0000
26.7800 1813.0000 1.0000
26.7900 1778.0000 1.0000
26.8000 1818.0000 1.0000
26.8100 1867.0000 1.0000
26.8200 1836.0000 1.0000
26.8300 1857.0000 1.0000
26.8400 1804.0000 1.0000
26.8500 1830.0000 1.0000
26.8600 1848.0000 1.0000
26.8700 1835.0000 1.0000
26.8800 1830.0000 1.0000
26.8900 1927.0000 1.0000
26.9000 1928.0000 1.0000
26.9100 1906.0000 1.0000
26.9200 1891.0000 1.0000
26.9300 1933.0000 1.0000
26.9400 1921.0000 1.0000
26.9500 1923.0000 1.0000
26.9600 1939.0000 1.0000
26.9700 1924.0000 1.0000
26.9800 2021.0000 1.0000
26.9900 2033.0000 1.0000
27.0000 2095.0000 1.0000
27.0100 2068.0000 1.0000
27.0200 2087.0000 1.0000
27.0300 2126.0000 1.0000
27.0400 2162.0000 1.0000
27.0500 2166.0000 1.0000
27.0600 2246.0000 1.0000
27.0700 2221.0000 1.0000
27.0800 2272.0000 1.0000
27.0900 2386.0000 1.0000
27.1000 2438.0000 1.0000
27.1100 2453.0000 1.0000
27.1200 2540.0000 1.0000
27.1300 2581.0000 1.0000
27.1400 2616.0000 1.0000
27.1500 2803.0000 1.0000
27.1600 2830.0000 1.0000
27.1700 2966.0000 1.0000
27.1800 2999.0000 1.0000
27.1900 3132.0000 1.0000
27.2000 3295.0000 1.0000
27.2100 3455.0000 1.0000
27.2200 3594.0000 1.0000
27.2300 3851.0000 1.0000
27.2400 3925.0000 1.0000
27.2500 4132.0000 1.0000
27.2600 4312.0000 1.0000
27.2700 4525.0000 1.0000
27.2800 4876.0000 1.0000
27.2900 5018.0000 1.0000
27.3000 5318.0000 1.0000
27.3100 5706.0000 1.0000
27.3200 5826.0000 1.0000
27.3300 5866.0000 1.0000
27.3400 6085.0000 1.0000
27.3500 6165.0000 1.0000
27.3600 6274.0000 1.0000
27.3700 6281.0000 1.0000
27.3800 6174.0000 1.0000
27.3900 5959.0000 1.0000
27.4000 5912.0000 1.0000
27.4100 5780.0000 1.0000
27.4200 5471.0000 1.0000
27.4300 5254.0000 1.0000
27.4400 5025.0000 1.0000
27.4500 4787.0000 1.0000
27.4600 4627.0000 1.0000
27.4700 4353.0000 1.0000
27.4800 4044.0000 1.0000
27.4900 3960.0000 1.0000
27.5000 3794.0000 1.0000
27.5100 3649.0000 1.0000
27.5200 3415.0000 1.0000
27.5300 3326.0000 1.0000
27.5400 3188.0000 1.0000
27.5500 3075.0000 1.0000
27.5600 2891.0000 1.0000
27.5700 2798.0000 1.0000
27.5800 2762.0000 1.0000
27.5900 2629.0000 1.0000
27.6000 2543.0000 1.0000
27.6100 2538.0000 1.0000
27.6200 2503.0000 1.0000
27.6300 2440.0000 1.0000
27.6400 2448.0000 1.0000
27.6500 2282.0000 1.0000
27.6600 2234.0000 1.0000
27.6700 2245.0000 1.0000
27.6800 2237.0000 1.0000
27.6900 2223.0000 1.0000
27.7000 2119.0000 1.0000
27.7100 2172.0000 1.0000
27.7200 1986.0000 1.0000
27.7300 2042.0000 1.0000
27.7400 2035.0000 1.0000
27.7500 2016.0000 1.0000
27.7600 2045.0000 1.0000
27.7700 1926.0000 1.0000
27.7800 1916.0000 1.0000
27.7900 1888.0000 1.0000
27.8000 1836.0000 1.0000
27.8100 1889.0000 1.0000
27.8200 1874.0000 1.0000
27.8300 1847.0000 1.0000
27.8400 1846.0000 1.0000
27.8500 1876.0000 1.0000
27.8600 1893.0000 1.0000
27.8700 1804.0000 1.0000
27.8800 1826.0000 1.0000
27.8900 1783.0000 1.0000
27.9000 1865.0000 1.0000
27.9100 1856.0000 1.0000
27.9200 1832.0000 1.0000
27.9300 1832.0000 1.0000
27.9400 1783.0000 1.0000
27.9500 1706.0000 1.0000
27.9600 1733.0000 1.0000
27.9700 1814.0000 1.0000
27.9800 1774.0000 1.0000
27.9900 1793.0000 1.0000
28.0000 1752.0000 1.0000
28.0100 1761.0000 1.0000
28.0200 1759.0000 1.0000
28.0300 1786.0000 1.0000
28.0400 1744.0000 1.0000
28.0500 1714.0000 1.0000
28.0600 1674.0000 1.0000
28.0700 1675.0000 1.0000
28.0800 1702.0000 1.0000
28.0900 1800.0000 1.0000
28.1000 1743.0000 1.0000
28.1100 1773.0000 1.0000
28.1200 1732.0000 1.0000
28.1300 1661.0000 1.0000
28.1400 1701.0000 1.0000
28.1500 1694.0000 1.0000
28.1600 1704.0000 1.0000
28.1700 1676.0000 1.0000
28.1800 1661.0000 1.0000
28.1900 1691.0000 1.0000
28.2000 1706.0000 1.0000
28.2100 1734.0000 1.0000
28.2200 1673.0000 1.0000
28.2300 1738.0000 1.0000
28.2400 1749.0000 1.0000
28.2500 1681.0000 1.0000
28.2600 1662.0000 1.0000
28.2700 1648.0000 1.0000
28.2800 1595.0000 1.0000
28.2900 1723.0000 1.0000
28.3000 1720.0000 1.0000
28.3100 1635.0000 1.0000
28.3200 1657.0000 1.0000
28.3300 1679.0000 1.0000
28.3400 1655.0000 1.0000
28.3500 1643.0000 1.0000
28.3600 1647.0000 1.0000
28.3700 1608.0000 1.0000
28.3800 1636.0000 1.0000
28.3900 1625.0000 1.0000
28.4000 1667.0000 1.0000
28.4100 1662.0000 1.0000
28.4200 1636.0000 1.0000
28.4300 1716.0000 1.0000
28.4400 1689.0000 1.0000
28.4500 1618.0000 1.0000
28.4600 1637.0000 1.0000
28.4700 1627.0000 1.0000
28.4800 1658.0000 1.0000
28.4900 1692.0000 1.0000
28.5000 1615.0000 1.0000
28.5100 1642.0000 1.0000
28.5200 1649.0000 1.0000
28.5300 1629.0000 1.0000
28.5400 1610.0000 1.0000
28.5500 1642.0000 1.0000
28.5600 1611.0000 1.0000
28.5700 1613.0000 1.0000
28.5800 1614.0000 1.0000
28.5900 1670.0000 1.0000
28.6000 1674.0000 1.0000
28.6100 1685.0000 1.0000
28.6200 1651.0000 1.0000
28.6300 1603.0000 1.0000
28.6400 1651.0000 1.0000
28.6500 1690.0000 1.0000
28.6600 1692.0000 1.0000
28.6700 1701.0000 1.0000
28.6800 1556.0000 1.0000
28.6900 1623.0000 1.0000
28.7000 1647.0000 1.0000
28.7100 1616.0000 1.0000
28.7200 1595.0000 1.0000
28.7300 1633.0000 1.0000
28.7400 1626.0000 1.0000
28.7500 1622.0000 1.0000
28.7600 1654.0000 1.0000
28.7700 1619.0000 1.0000
28.7800 1612.0000 1.0000
28.7900 1614.0000 1.0000
28.8000 1671.0000 1.0000
28.8100 1653.0000 1.0000
28.8200 1659.0000 1.0000
28.8300 1552.0000 1.0000
28.8400 1579.0000 1.0000
28.8500 1624.0000 1.0000
28.8600 1655.0000 1.0000
28.8700 1591.0000 1.0000
28.8800 1589.0000 1.0000
28.8900 1620.0000 1.0000
28.9000 1639.0000 1.0000
28.9100 1578.0000 1.0000
28.9200 1572.0000 1.0000
28.9300 1660.0000 1.0000
28.9400 1614.0000 1.0000
28.9500 1631.0000 1.0000
28.9600 1564.0000 1.0000
28.9700 1559.0000 1.0000
28.9800 1555.0000 1.0000
28.9900 1615.0000 1.0000
29.0000 1616.0000 1.0000
29.0100 1578.0000 1.0000
29.0200 1594.0000 1.0000
29.0300 1605.0000 1.0000
29.0400 1601.0000 1.0000
29.0500 1592.0000 1.0000
29.0600 1595.0000 1.0000
29.0700 1623.0000 1.0000
29.0800 1606.0000 1.0000
29.0900 1557.0000 1.0000
29.1000 1591.0000 1.0000
29.1100 1625.0000 1.0000
29.1200 1641.0000 1.0000
29.1300 1637.0000 1.0000
29.1400 1590.0000 1.0000
29.1500 1607.0000 1.0000
29.1600 1643.0000 1.0000
29.1700 1712.0000 1.0000
29.1800 1637.0000 1.0000
29.1900 1655.0000 1.0000
29.2000 1559.0000 1.0000
29.2100 1616.0000 1.0000
29.2200 1572.0000 1.0000
29.2300 1613.0000 1.0000
29.2400 1563.0000 1.0000
29.2500 1564.0000 1.0000
29.2600 1618.0000 1.0000
29.2700 1627.0000 1.0000
29.2800 1554.0000 1.0000
29.2900 1524.0000 1.0000
29.3000 1586.0000 1.0000
29.3100 1607.0000 1.0000
29.3200 1522.0000 1.0000
29.3300 1523.0000 1.0000
29.3400 1562.0000 1.0000
29.3500 1600.0000 1.0000
29.3600 1608.0000 1.0000
29.3700 1600.0000 1.0000
29.3800 1620.0000 1.0000
29.3900 1546.0000 1.0000
29.4000 1622.0000 1.0000
29.4100 1611.0000 1.0000
29.4200 1601.0000 1.0000
29.4300 1538.0000 1.0000
29.4400 1533.0000 1.0000
29.4500 1644.0000 1.0000
29.4600 1525.0000 1.0000
29.4700 1566.0000 1.0000
29.4800 1587.0000 1.0000
29.4900 1567.0000 1.0000
29.5000 1554.0000 1.0000
29.5100 1592.0000 1.0000
29.5200 1531.0000 1.0000
29.5300 1556.0000 1.0000
29.5400 1559.0000 1.0000
29.5500 1593.0000 1.0000
29.5600 1542.0000 1.0000
29.5700 1541.0000 1.0000
29.5800 1615.0000 1.0000
29.5900 1627.0000 1.0000
29.6000 1651.0000 1.0000
29.6100 1570.0000 1.0000
29.6200 1582.0000 1.0000
29.6300 1590.0000 1.0000
29.6400 1568.0000 1.0000
29.6500 1562.0000 1.0000
29.6600 1554.0000 1.0000
29.6700 1652.0000 1.0000
29.6800 1538.0000 1.0000
29.6900 1546.0000 1.0000
29.7000 1593.0000 1.0000
29.7100 1579.0000 1.0000
29.7200 1626.0000 1.0000
29.7300 1587.0000 1.0000
29.7400 1546.0000 1.0000
29.7500 1587.0000 1.0000
29.7600 1552.0000 1.0000
29.7700 1572.0000 1.0000
29.7800 1536.0000 1.0000
29.7900 1548.0000 1.0000
29.8000 1605.0000 1.0000
29.8100 1549.0000 1.0000
29.8200 1565.0000 1.0000
29.8300 1600.0000 1.0000
29.8400 1556.0000 1.0000
29.8500 1549.0000 1.0000
29.8600 1601.0000 1.0000
29.8700 1555.0000 1.0000
29.8800 1552.0000 1.0000
29.8900 1541.0000 1.0000
29.9000 1557.0000 1.0000
29.9100 1507.0000 1.0000
29.9200 1592.0000 1.0000
29.9300 1538.0000 1.0000
29.9400 1547.0000 1.0000
29.9500 1598.0000 1.0000
29.9600 1613.0000 1.0000
29.9700 1556.0000 1.0000
29.9800 1612.0000 1.0000
29.9900 1571.0000 1.0000
30.0000 1551.0000 1.0000
30.0100 1489.0000 1.0000
30.0200 1551.0000 1.0000
30.0300 1506.0000 1.0000
30.0400 1601.0000 1.0000
30.0500 1592.0000 1.0000
30.0600 1565.0000 1.0000
30.0700 1577.0000 1.0000
30.0800 1554.0000 1.0000
30.0900 1565.0000 1.0000
30.1000 1587.0000 1.0000
30.1100 1589.0000 1.0000
30.1200 1554.0000 1.0000
30.1300 1548.0000 1.0000
30.1400 1491.0000 1.0000
30.1500 1541.0000 1.0000
30.1600 1555.0000 1.0000
30.1700 1532.0000 1.0000
30.1800 1528.0000 1.0000
30.1900 1550.0000 1.0000
30.2000 1535.0000 1.0000
30.2100 1515.0000 1.0000
30.2200 1537.0000 1.0000
30.2300 1486.0000 1.0000
30.2400 1554.0000 1.0000
30.2500 1518.0000 1.0000
30.2600 1526.0000 1.0000
30.2700 1545.0000 1.0000
30.2800 1549.0000 1.0000
30.2900 1504.0000 1.0000
30.3000 1527.0000 1.0000
30.3100 1528.0000 1.0000
30.3200 1512.0000 1.0000
30.3300 1581.0000 1.0000
30.3400 1580.0000 1.0000
30.3500 1515.0000 1.0000
30.3600 1554.0000 1.0000
30.3700 1564.0000 1.0000
30.3800 1581.0000 1.0000
30.3900 1549.0000 1.0000
30.4000 1588.0000 1.0000
30.4100 1548.0000 1.0000
30.4200 1588.0000 1.0000
30.4300 1477.0000 1.0000
30.4400 1488.0000 1.0000
30.4500 1536.0000 1.0000
30.4600 1556.0000 1.0000
30.4700 1561.0000 1.0000
30.4800 1533.0000 1.0000
30.4900 1524.0000 1.0000
30.5000 1450.0000 1.0000
30.5100 1509.0000 1.0000
30.5200 1511.0000 1.0000
30.5300 1535.0000 1.0000
30.5400 1540.0000 1.0000
30.5500 1483.0000 1.0000
30.5600 1507.0000 1.0000
30.5700 1480.0000 1.0000
30.5800 1518.0000 1.0000
30.5900 1493.0000 1.0000
30.6000 1546.0000 1.0000
30.6100 1518.0000 1.0000
30.6200 1500.0000 1.0000
30.6300 1448.0000 1.0000
30.6400 1470.0000 1.0000
30.6500 1500.0000 1.0000
30.6600 1517.0000 1.0000
30.6700 1545.0000 1.0000
30.6800 1510.0000 1.0000
30.6900 1577.0000 1.0000
30.7000 1559.0000 1.0000
30.7100 1542.0000 1.0000
30.7200 1557.0000 1.0000
30.7300 1497.0000 1.0000
30.7400 1477.0000 1.0000
30.7500 1541.0000 1.0000
30.7600 1529.0000 1.0000
30.7700 1544.0000 1.0000
30.7800 1503.0000 1.0000
30.7900 1504.0000 1.0000
30.8000 1562.0000 1.0000
30.8100 1478.0000 1.0000
30.8200 1489.0000 1.0000
30.8300 1506.0000 1.0000
30.8400 1541.0000 1.0000
30.8500 1522.0000 1.0000
30.8600 1538.0000 1.0000
30.8700 1489.0000 1.0000
30.8800 1550.0000 1.0000
30.8900 1504.0000 1.0000
30.9000 1536.0000 1.0000
30.9100 1486.0000 1.0000
30.9200 1480.0000 1.0000
30.9300 1576.0000 1.0000
30.9400 1527.0000 1.0000
30.9500 1483.0000 1.0000
30.9600 1522.0000 1.0000
30.9700 1512.0000 1.0000
30.9800 1491.0000 1.0000
30.9900 1496.0000 1.0000
31.0000 1515.0000 1.0000
31.0100 1499.0000 1.0000
31.0200 1498.0000 1.0000
31.0300 1507.0000 1.0000
31.0400 1505.0000 1.0000
31.0500 1528.0000 1.0000
31.0600 1496.0000 1.0000
31.0700 1484.0000 1.0000
31.0800 1515.0000 1.0000
31.0900 1477.0000 1.0000
31.1000 1521.0000 1.0000
31.1100 1485.0000 1.0000
31.1200 1514.0000 1.0000
31.1300 1495.0000 1.0000
31.1400 1506.0000 1.0000
31.1500 1515.0000 1.0000
31.1600 1501.0000 1.0000
31.1700 1506.0000 1.0000
31.1800 1513.0000 1.0000
31.1900 1507.0000 1.0000
31.2000 1469.0000 1.0000
31.2100 1485.0000 1.0000
31.2200 1511.0000 1.0000
31.2300 1545.0000 1.0000
31.2400 1531.0000 1.0000
31.2500 1530.0000 1.0000
31.2600 1456.0000 1.0000
31.2700 1529.0000 1.0000
31.2800 1567.0000 1.0000
31.2900 1531.0000 1.0000
31.3000 1505.0000 1.0000
31.3100 1490.0000 1.0000
31.3200 1511.0000 1.0000
31.3300 1504.0000 1.0000
31.3400 1425.0000 1.0000
31.3500 1478.0000 1.0000
31.3600 1531.0000 1.0000
31.3700 1492.0000 1.0000
31.3800 1517.0000 1.0000
31.3900 1481.0000 1.0000
31.4000 1496.0000 1.0000
31.4100 1559.0000 1.0000
31.4200 1500.0000 1.0000
31.4300 1485.0000 1.0000
31.4400 1448.0000 1.0000
31.4500 1387.0000 1.0000
31.4600 1450.0000 1.0000
31.4700 1519.0000 1.0000
31.4800 1511.0000 1.0000
31.4900 1471.0000 1.0000
31.5000 1494.0000 1.0000
31.5100 1472.0000 1.0000
31.5200 1541.0000 1.0000
31.5300 1490.0000 1.0000
31.5400 1511.0000 1.0000
31.5500 1495.0000 1.0000
31.5600 1482.0000 1.0000
31.5700 1475.0000 1.0000
31.5800 1497.0000 1.0000
31.5900 1486.0000 1.0000
31.6000 1419.0000 1.0000
31.6100 1463.0000 1.0000
31.6200 1485.0000 1.0000
31.6300 1427.0000 1.0000
31.6400 1468.0000 1.0000
31.6500 1454.0000 1.0000
31.6600 1508.0000 1.0000
31.6700 1493.0000 1.0000
31.6800 1461.0000 1.0000
31.6900 1497.0000 1.0000
31.7000 1415.0000 1.0000
31.7100 1479.0000 1.0000
31.7200 1469.0000 1.0000
31.7300 1492.0000 1.0000
31.7400 1530.0000 1.0000
31.7500 1494.0000 1.0000
31.7600 1459.0000 1.0000
31.7700 1392.0000 1.0000
31.7800 1401.0000 1.0000
31.7900 1477.0000 1.0000
31.8000 1495.0000 1.0000
31.8100 1477.0000 1.0000
31.8200 1480.0000 1.0000
31.8300 1480.0000 1.0000
31.8400 1430.0000 1.0000
31.8500 1482.0000 1.0000
31.8600 1470.0000 1.0000
31.8700 1462.0000 1.0000
31.8800 1463.0000 1.0000
31.8900 1493.0000 1.0000
31.9000 1455.0000 1.0000
31.9100 1493.0000 1.0000
31.9200 1431.0000 1.0000
31.9300 1479.0000 1.0000
31.9400 1466.0000 1.0000
31.9500 1535.0000 1.0000
31.9600 1470.0000 1.0000
31.9700 1456.0000 1.0000
31.9800 1563.0000 1.0000
31.9900 1511.0000 1.0000
32.0000 1482.0000 1.0000
32.0100 1553.0000 1.0000
32.0200 1512.0000 1.0000
32.0300 1435.0000 1.0000
32.0400 1502.0000 1.0000
32.0500 1471.0000 1.0000
32.0600 1515.0000 1.0000
32.0700 1455.0000 1.0000
32.0800 1508.0000 1.0000
32.0900 1487.0000 1.0000
32.1000 1540.0000 1.0000
32.1100 1543.0000 1.0000
32.1200 1496.0000 1.0000
32.1300 1479.0000 1.0000
32.1400 1534.0000 1.0000
32.1500 1487.0000 1.0000
32.1600 1495.0000 1.0000
32.1700 1470.0000 1.0000
32.1800 1488.0000 1.0000
32.1900 1495.0000 1.0000
32.2000 1472.0000 1.0000
32.2100 1446.0000 1.0000
32.2200 1443.0000 1.0000
32.2300 1452.0000 1.0000
32.2400 1499.0000 1.0000
32.2500 1431.0000 1.0000
32.2600 1429.0000 1.0000
32.2700 1502.0000 1.0000
32.2800 1496.0000 1.0000
32.2900 1457.0000 1.0000
32.3000 1421.0000 1.0000
32.3100 1432.0000 1.0000
32.3200 1433.0000 1.0000
32.3300 1467.0000 1.0000
32.3400 1501.0000 1.0000
32.3500 1477.0000 1.0000
32.3600 1448.0000 1.0000
32.3700 1476.0000 1.0000
32.3800 1430.0000 1.0000
32.3900 1486.0000 1.0000
32.4000 1383.0000 1.0000
32.4100 1404.0000 1.0000
32.4200 1424.0000 1.0000
32.4300 1427.0000 1.0000
32.4400 1432.0000 1.0000
32.4500 1418.0000 1.0000
32.4600 1430.0000 1.0000
32.4700 1439.0000 1.0000
32.4800 1440.0000 1.0000
32.4900 1467.0000 1.0000
32.5000 1507.0000 1.0000
32.5100 1491.0000 1.0000
32.5200 1443.0000 1.0000
32.5300 1437.0000 1.0000
32.5400 1427.0000 1.0000
32.5500 1458.0000 1.0000
32.5600 1461.0000 1.0000
32.5700 1448.0000 1.0000
32.5800 1462.0000 1.0000
32.5900 1440.0000 1.0000
32.6000 1406.0000 1.0000
32.6100 1426.0000 1.0000
32.6200 1426.0000 1.0000
32.6300 1418.0000 1.0000
32.6400 1434.0000 1.0000
32.6500 1363.0000 1.0000
32.6600 1412.0000 1.0000
32.6700 1430.0000 1.0000
32.6800 1435.0000 1.0000
32.6900 1465.0000 1.0000
32.7000 1457.0000 1.0000
32.7100 1377.0000 1.0000
32.7200 1331.0000 1.0000
32.7300 1406.0000 1.0000
32.7400 1423.0000 1.0000
32.7500 1380.0000 1.0000
32.7600 1356.0000 1.0000
32.7700 1476.0000 1.0000
32.7800 1399.0000 1.0000
32.7900 1478.0000 1.0000
32.8000 1424.0000 1.0000
32.8100 1460.0000 1.0000
32.8200 1449.0000 1.0000
32.8300 1428.0000 1.0000
32.8400 1408.0000 1.0000
32.8500 1391.0000 1.0000
32.8600 1397.0000 1.0000
32.8700 1392.0000 1.0000
32.8800 1413.0000 1.0000
32.8900 1467.0000 1.0000
32.9000 1443.0000 1.0000
32.9100 1437.0000 1.0000
32.9200 1411.0000 1.0000
32.9300 1470.0000 1.0000
32.9400 1470.0000 1.0000
32.9500 1466.0000 1.0000
32.9600 1441.0000 1.0000
32.9700 1412.0000 1.0000
32.9800 1386.0000 1.0000
32.9900 1385.0000 1.0000
33.0000 1368.0000 1.0000
33.0100 1370.0000 1.0000
33.0200 1382.0000 1.0000
33.0300 1386.0000 1.0000
33.0400 1411.0000 1.0000
33.0500 1403.0000 1.0000
33.0600 1397.0000 1.0000
33.0700 1389.0000 1.0000
33.0800 1450.0000 1.0000
33.0900 1377.0000 1.0000
33.1000 1446.0000 1.0000
33.1100 1391.0000 1.0000
33.1200 1386.0000 1.0000
33.1300 1380.0000 1.0000
33.1400 1355.0000 1.0000
33.1500 1351.0000 1.0000
33.1600 1433.0000 1.0000
33.1700 1386.0000 1.0000
33.1800 1415.0000 1.0000
33.1900 1425.0000 1.0000
33.2000 1436.0000 1.0000
33.2100 1367.0000 1.0000
33.2200 1326.0000 1.0000
33.2300 1380.0000 1.0000
33.2400 1426.0000 1.0000
33.2500 1398.0000 1.0000
33.2600 1441.0000 1.0000
33.2700 1354.0000 1.0000
33.2800 1371.0000 1.0000
33.2900 1362.0000 1.0000
33.3000 1455.0000 1.0000
33.3100 1454.0000 1.0000
33.3200 1405.0000 1.0000
33.3300 1401.0000 1.0000
33.3400 1362.0000 1.0000
33.3500 1332.0000 1.0000
33.3600 1411.0000 1.0000
33.3700 1363.0000 1.0000
33.3800 1370.0000 1.0000
33.3900 1400.0000 1.0000
33.4000 1379.0000 1.0000
33.4100 1407.0000 1.0000
33.4200 1401.0000 1.0000
33.4300 1405.0000 1.0000
33.4400 1393.0000 1.0000
33.4500 1402.0000 1.0000
33.4600 1380.0000 1.0000
33.4700 1485.0000 1.0000
33.4800 1419.0000 1.0000
33.4900 1386.0000 1.0000
33.5000 1443.0000 1.0000
33.5100 1383.0000 1.0000
33.5200 1392.0000 1.0000
33.5300 1415.0000 1.0000
33.5400 1364.0000 1.0000
33.5500 1375.0000 1.0000
33.5600 1395.0000 1.0000
33.5700 1418.0000 1.0000
33.5800 1445.0000 1.0000
33.5900 1464.0000 1.0000
33.6000 1489.0000 1.0000
33.6100 1461.0000 1.0000
33.6200 1372.0000 1.0000
33.6300 1392.0000 1.0000
33.6400 1352.0000 1.0000
33.6500 1371.0000 1.0000
33.6600 1408.0000 1.0000
33.6700 1462.0000 1.0000
33.6800 1426.0000 1.0000
33.6900 1409.0000 1.0000
33.7000 1449.0000 1.0000
33.7100 1383.0000 1.0000
33.7200 1435.0000 1.0000
33.7300 1416.0000 1.0000
33.7400 1412.0000 1.0000
33.7500 1394.0000 1.0000
33.7600 1393.0000 1.0000
33.7700 1434.0000 1.0000
33.7800 1430.0000 1.0000
33.7900 1446.0000 1.0000
33.8000 1460.0000 1.0000
33.8100 1449.0000 1.0000
33.8200 1490.0000 1.0000
33.8300 1509.0000 1.0000
33.8400 1493.0000 1.0000
33.8500 1526.0000 1.0000
33.8600 1461.0000 1.0000
33.8700 1547.0000 1.0000
33.8800 1503.0000 1.0000
33.8900 1584.0000 1.0000
33.9000 1566.0000 1.0000
33.9100 1558.0000 1.0000
33.9200 1585.0000 1.0000
33.9300 1549.0000 1.0000
33.9400 1546.0000 1.0000
33.9500 1593.0000 1.0000
33.9600 1683.0000 1.0000
33.9700 1605.0000 1.0000
33.9800 1622.0000 1.0000
33.9900 1693.0000 1.0000
34.0000 1644.0000 1.0000
34.0100 1689.0000 1.0000
34.0200 1683.0000 1.0000
34.0300 1633.0000 1.0000
34.0400 1577.0000 1.0000
34.0500 1656.0000 1.0000
34.0600 1644.0000 1.0000
34.0700 1573.0000 1.0000
34.0800 1535.0000 1.0000
34.0900 1577.0000 1.0000
34.1000 1595.0000 1.0000
34.1100 1633.0000 1.0000
34.1200 1663.0000 1.0000
34.1300 1540.0000 1.0000
34.1400 1540.0000 1.0000
34.1500 1540.0000 1.0000
34.1600 1553.0000 1.0000
34.1700 1535.0000 1.0000
34.1800 1614.0000 1.0000
34.1900 1594.0000 1.0000
34.2000 1570.0000 1.0000
34.2100 1584.0000 1.0000
34.2200 1611.0000 1.0000
34.2300 1569.0000 1.0000
34.2400 1557.0000 1.0000
34.2500 1573.0000 1.0000
34.2600 1606.0000 1.0000
34.2700 1654.0000 1.0000
34.2800 1658.0000 1.0000
34.2900 1675.0000 1.0000
34.3000 1730.0000 1.0000
34.3100 1719.0000 1.0000
34.3200 1738.0000 1.0000
34.3300 1727.0000 1.0000
34.3400 1800.0000 1.0000
34.3500 1855.0000 1.0000
34.3600 1855.0000 1.0000
34.3700 1940.0000 1.0000
34.3800 1963.0000 1.0000
34.3900 1980.0000 1.0000
34.4000 2053.0000 1.0000
34.4100 2105.0000 1.0000
34.4200 2222.0000 1.0000
34.4300 2230.0000 1.0000
34.4400 2451.0000 1.0000
34.4500 2437.0000 1.0000
34.4600 2486.0000 1.0000
34.4700 2577.0000 1.0000
34.4800 2771.0000 1.0000
34.4900 2834.0000 1.0000
34.5000 3029.0000 1.0000
34.5100 3003.0000 1.0000
34.5200 3145.0000 1.0000
34.5300 3190.0000 1.0000
34.5400 3164.0000 1.0000
34.5500 3228.0000 1.0000
34.5600 3166.0000 1.0000
34.5700 3138.0000 1.0000
34.5800 3153.0000 1.0000
34.5900 3214.0000 1.0000
34.6000 3105.0000 1.0000
34.6100 2997.0000 1.0000
34.6200 2878.0000 1.0000
34.6300 2900.0000 1.0000
34.6400 2805.0000 1.0000
34.6500 2735.0000 1.0000
34.6600 2605.0000 1.0000
34.6700 2556.0000 1.0000
34.6800 2430.0000 1.0000
34.6900 2429.0000 1.0000
34.7000 2342.0000 1.0000
34.7100 2186.0000 1.0000
34.7200 2160.0000 1.0000
34.7300 2030.0000 1.0000
34.7400 1955.0000 1.0000
34.7500 1953.0000 1.0000
34.7600 1898.0000 1.0000
34.7700 1898.0000 1.0000
34.7800 1808.0000 1.0000
34.7900 1748.0000 1.0000
34.8000 1727.0000 1.0000
34.8100 1789.0000 1.0000
34.8200 1736.0000 1.0000
34.8300 1697.0000 1.0000
34.8400 1724.0000 1.0000
34.8500 1604.0000 1.0000
34.8600 1651.0000 1.0000
34.8700 1623.0000 1.0000
34.8800 1609.0000 1.0000
34.8900 1540.0000 1.0000
34.9000 1533.0000 1.0000
34.9100 1590.0000 1.0000
34.9200 1549.0000 1.0000
34.9300 1526.0000 1.0000
34.9400 1515.0000 1.0000
34.9500 1531.0000 1.0000
34.9600 1507.0000 1.0000
34.9700 1465.0000 1.0000
34.9800 1460.0000 1.0000
34.9900 1394.0000 1.0000
35.0000 1433.0000 1.0000
35.0100 1448.0000 1.0000
35.0200 1436.0000 1.0000
35.0300 1355.0000 1.0000
35.0400 1387.0000 1.0000
35.0500 1335.0000 1.0000
35.0600 1372.0000 1.0000
35.0700 1342.0000 1.0000
35.0800 1359.0000 1.0000
35.0900 1432.0000 1.0000
35.1000 1390.0000 1.0000
35.1100 1366.0000 1.0000
35.1200 1337.0000 1.0000
35.1300 1351.0000 1.0000
35.1400 1354.0000 1.0000
35.1500 1247.0000 1.0000
35.1600 1306.0000 1.0000
35.1700 1393.0000 1.0000
35.1800 1313.0000 1.0000
35.1900 1338.0000 1.0000
35.2000 1330.0000 1.0000
35.2100 1294.0000 1.0000
35.2200 1324.0000 1.0000
35.2300 1263.0000 1.0000
35.2400 1279.0000 1.0000
35.2500 1252.0000 1.0000
35.2600 1232.0000 1.0000
35.2700 1318.0000 1.0000
35.2800 1302.0000 1.0000
35.2900 1252.0000 1.0000
35.3000 1262.0000 1.0000
35.3100 1291.0000 1.0000
35.3200 1235.0000 1.0000
35.3300 1266.0000 1.0000
35.3400 1217.0000 1.0000
35.3500 1313.0000 1.0000
35.3600 1285.0000 1.0000
35.3700 1268.0000 1.0000
35.3800 1241.0000 1.0000
35.3900 1232.0000 1.0000
35.4000 1225.0000 1.0000
35.4100 1250.0000 1.0000
35.4200 1237.0000 1.0000
35.4300 1306.0000 1.0000
35.4400 1268.0000 1.0000
35.4500 1272.0000 1.0000
35.4600 1237.0000 1.0000
35.4700 1256.0000 1.0000
35.4800 1276.0000 1.0000
35.4900 1215.0000 1.0000
35.5000 1234.0000 1.0000
35.5100 1286.0000 1.0000
35.5200 1253.0000 1.0000
35.5300 1245.0000 1.0000
35.5400 1177.0000 1.0000
35.5500 1262.0000 1.0000
35.5600 1246.0000 1.0000
35.5700 1234.0000 1.0000
35.5800 1188.0000 1.0000
35.5900 1205.0000 1.0000
35.6000 1212.0000 1.0000
35.6100 1241.0000 1.0000
35.6200 1220.0000 1.0000
35.6300 1237.0000 1.0000
35.6400 1235.0000 1.0000
35.6500 1188.0000 1.0000
35.6600 1206.0000 1.0000
35.6700 1241.0000 1.0000
35.6800 1172.0000 1.0000
35.6900 1229.0000 1.0000
35.7000 1249.0000 1.0000
35.7100 1228.0000 1.0000
35.7200 1219.0000 1.0000
35.7300 1205.0000 1.0000
35.7400 1209.0000 1.0000
35.7500 1143.0000 1.0000
35.7600 1209.0000 1.0000
35.7700 1131.0000 1.0000
35.7800 1174.0000 1.0000
35.7900 1222.0000 1.0000
35.8000 1202.0000 1.0000
35.8100 1128.0000 1.0000
35.8200 1232.0000 1.0000
35.8300 1236.0000 1.0000
35.8400 1277.0000 1.0000
35.8500 1210.0000 1.0000
35.8600 1195.0000 1.0000
35.8700 1225.0000 1.0000
35.8800 1201.0000 1.0000
35.8900 1211.0000 1.0000
35.9000 1156.0000 1.0000
35.9100 1194.0000 1.0000
35.9200 1197.0000 1.0000
35.9300 1228.0000 1.0000
35.9400 1207.0000 1.0000
35.9500 1172.0000 1.0000
35.9600 1215.0000 1.0000
35.9700 1230.0000 1.0000
35.9800 1212.0000 1.0000
35.9900 1187.0000 1.0000
36.0000 1140.0000 1.0000
36.0100 1213.0000 1.0000
36.0200 1203.0000 1.0000
36.0300 1259.0000 1.0000
36.0400 1220.0000 1.0000
36.0500 1282.0000 1.0000
36.0600 1267.0000 1.0000
36.0700 1253.0000 1.0000
36.0800 1198.0000 1.0000
36.0900 1195.0000 1.0000
36.1000 1199.0000 1.0000
36.1100 1225.0000 1.0000
36.1200 1172.0000 1.0000
36.1300 1188.0000 1.0000
36.1400 1251.0000 1.0000
36.1500 1269.0000 1.0000
36.1600 1262.0000 1.0000
36.1700 1201.0000 1.0000
36.1800 1242.0000 1.0000
36.1900 1288.0000 1.0000
36.2000 1276.0000 1.0000
36.2100 1250.0000 1.0000
36.2200 1266.0000 1.0000
36.2300 1353.0000 1.0000
36.2400 1323.0000 1.0000
36.2500 1366.0000 1.0000
36.2600 1341.0000 1.0000
36.2700 1413.0000 1.0000
36.2800 1403.0000 1.0000
36.2900 1437.0000 1.0000
36.3000 1471.0000 1.0000
36.3100 1455.0000 1.0000
36.3200 1412.0000 1.0000
36.3300 1555.0000 1.0000
36.3400 1528.0000 1.0000
36.3500 1608.0000 1.0000
36.3600 1608.0000 1.0000
36.3700 1670.0000 1.0000
36.3800 1760.0000 1.0000
36.3900 1788.0000 1.0000
36.4000 1876.0000 1.0000
36.4100 1860.0000 1.0000
36.4200 1889.0000 1.0000
36.4300 1974.0000 1.0000
36.4400 2048.0000 1.0000
36.4500 2121.0000 1.0000
36.4600 2128.0000 1.0000
36.4700 2050.0000 1.0000
36.4800 2134.0000 1.0000
36.4900 2049.0000 1.0000
36.5000 2040.0000 1.0000
36.5100 1965.0000 1.0000
36.5200 1947.0000 1.0000
36.5300 1957.0000 1.0000
36.5400 1793.0000 1.0000
36.5500 1809.0000 1.0000
36.5600 1751.0000 1.0000
36.5700 1732.0000 1.0000
36.5800 1685.0000 1.0000
36.5900 1695.0000 1.0000
36.6000 1614.0000 1.0000
36.6100 1524.0000 1.0000
36.6200 1480.0000 1.0000
36.6300 1394.0000 1.0000
36.6400 1477.0000 1.0000
36.6500 1355.0000 1.0000
36.6600 1371.0000 1.0000
36.6700 1345.0000 1.0000
36.6800 1341.0000 1.0000
36.6900 1337.0000 1.0000
36.7000 1311.0000 1.0000
36.7100 1275.0000 1.0000
36.7200 1247.0000 1.0000
36.7300 1198.0000 1.0000
36.7400 1181.0000 1.0000
36.7500 1197.0000 1.0000
36.7600 1238.0000 1.0000
36.7700 1215.0000 1.0000
36.7800 1189.0000 1.0000
36.7900 1149.0000 1.0000
36.8000 1116.0000 1.0000
36.8100 1166.0000 1.0000
36.8200 1139.0000 1.0000
36.8300 1111.0000 1.0000
36.8400 1112.0000 1.0000
36.8500 1141.0000 1.0000
36.8600 1142.0000 1.0000
36.8700 1141.0000 1.0000
36.8800 1155.0000 1.0000
36.8900 1128.0000 1.0000
36.9000 1123.0000 1.0000
36.9100 1118.0000 1.0000
36.9200 1145.0000 1.0000
36.9300 1146.0000 1.0000
36.9400 1130.0000 1.0000
36.9500 1072.0000 1.0000
36.9600 1111.0000 1.0000
36.9700 1142.0000 1.0000
36.9800 1109.0000 1.0000
36.9900 1142.0000 1.0000
37.0000 1165.0000 1.0000
37.0100 1153.0000 1.0000
37.0200 1118.0000 1.0000
37.0300 1092.0000 1.0000
37.0400 1100.0000 1.0000
37.0500 1078.0000 1.0000
37.0600 1079.0000 1.0000
37.0700 1102.0000 1.0000
37.0800 1104.0000 1.0000
37.0900 1143.0000 1.0000
37.1000 1093.0000 1.0000
37.1100 1118.0000 1.0000
37.1200 1108.0000 1.0000
37.1300 1107.0000 1.0000
37.1400 1131.0000 1.0000
37.1500 1148.0000 1.0000
37.1600 1130.0000 1.0000
37.1700 1101.0000 1.0000
37.1800 1087.0000 1.0000
37.1900 1099.0000 1.0000
37.2000 1076.0000 1.0000
37.2100 1093.0000 1.0000
37.2200 1112.0000 1.0000
37.2300 1108.0000 1.0000
37.2400 1075.0000 1.0000
37.2500 1090.0000 1.0000
37.2600 1110.0000 1.0000
37.2700 1117.0000 1.0000
37.2800 1123.0000 1.0000
37.2900 1120.0000 1.0000
37.3000 1136.0000 1.0000
37.3100 1116.0000 1.0000
37.3200 1094.0000 1.0000
37.3300 1161.0000 1.0000
37.3400 1109.0000 1.0000
37.3500 1065.0000 1.0000
37.3600 1105.0000 1.0000
37.3700 1154.0000 1.0000
37.3800 1100.0000 1.0000
37.3900 1122.0000 1.0000
37.4000 1149.0000 1.0000
37.4100 1092.0000 1.0000
37.4200 1110.0000 1.0000
37.4300 1112.0000 1.0000
37.4400 1082.0000 1.0000
37.4500 1107.0000 1.0000
37.4600 1142.0000 1.0000
37.4700 1121.0000 1.0000
37.4800 1113.0000 1.0000
37.4900 1049.0000 1.0000
37.5000 1095.0000 1.0000
37.5100 1151.0000 1.0000
37.5200 1077.0000 1.0000
37.5300 1109.0000 1.0000
37.5400 1081.0000 1.0000
37.5500 1098.0000 1.0000
37.5600 1124.0000 1.0000
37.5700 1075.0000 1.0000
37.5800 1084.0000 1.0000
37.5900 1133.0000 1.0000
37.6000 1091.0000 1.0000
37.6100 1127.0000 1.0000
37.6200 1133.0000 1.0000
37.6300 1159.0000 1.0000
37.6400 1133.0000 1.0000
37.6500 1114.0000 1.0000
37.6600 1071.0000 1.0000
37.6700 1072.0000 1.0000
37.6800 1149.0000 1.0000
37.6900 1126.0000 1.0000
37.7000 1130.0000 1.0000
37.7100 1098.0000 1.0000
37.7200 1061.0000 1.0000
37.7300 1112.0000 1.0000
37.7400 1112.0000 1.0000
37.7500 1072.0000 1.0000
37.7600 1071.0000 1.0000
37.7700 1058.0000 1.0000
37.7800 1138.0000 1.0000
37.7900 1158.0000 1.0000
37.8000 1102.0000 1.0000
37.8100 1078.0000 1.0000
37.8200 1103.0000 1.0000
37.8300 1086.0000 1.0000
37.8400 1165.0000 1.0000
37.8500 1122.0000 1.0000
37.8600 1102.0000 1.0000
37.8700 1118.0000 1.0000
37.8800 1163.0000 1.0000
37.8900 1144.0000 1.0000
37.9000 1112.0000 1.0000
37.9100 1067.0000 1.0000
37.9200 1167.0000 1.0000
37.9300 1148.0000 1.0000
37.9400 1148.0000 1.0000
37.9500 1169.0000 1.0000
37.9600 1168.0000 1.0000
37.9700 1157.0000 1.0000
37.9800 1120.0000 1.0000
37.9900 1057.0000 1.0000
38.0000 1113.0000 1.0000
38.0100 1137.0000 1.0000
38.0200 1178.0000 1.0000
38.0300 1167.0000 1.0000
38.0400 1184.0000 1.0000
38.0500 1178.0000 1.0000
38.0600 1218.0000 1.0000
38.0700 1190.0000 1.0000
38.0800 1182.0000 1.0000
38.0900 1241.0000 1.0000
38.1000 1181.0000 1.0000
38.1100 1178.0000 1.0000
38.1200 1219.0000 1.0000
38.1300 1259.0000 1.0000
38.1400 1250.0000 1.0000
38.1500 1212.0000 1.0000
38.1600 1296.0000 1.0000
38.1700 1290.0000 1.0000
38.1800 1339.0000 1.0000
38.1900 1320.0000 1.0000
38.2000 1297.0000 1.0000
38.2100 1373.0000 1.0000
38.2200 1356.0000 1.0000
38.2300 1431.0000 1.0000
38.2400 1422.0000 1.0000
38.2500 1464.0000 1.0000
38.2600 1458.0000 1.0000
38.2700 1543.0000 1.0000
38.2800 1616.0000 1.0000
38.2900 1599.0000 1.0000
38.3000 1638.0000 1.0000
38.3100 1679.0000 1.0000
38.3200 1788.0000 1.0000
38.3300 1833.0000 1.0000
38.3400 1878.0000 1.0000
38.3500 1915.0000 1.0000
38.3600 2066.0000 1.0000
38.3700 2135.0000 1.0000
38.3800 2287.0000 1.0000
38.3900 2395.0000 1.0000
38.4000 2444.0000 1.0000
38.4100 2572.0000 1.0000
38.4200 2729.0000 1.0000
38.4300 2854.0000 1.0000
38.4400 3083.0000 1.0000
38.4500 3288.0000 1.0000
38.4600 3555.0000 1.0000
38.4700 3776.0000 1.0000
38.4800 4008.0000 1.0000
38.4900 4252.0000 1.0000
38.5000 4609.0000 1.0000
38.5100 4926.0000 1.0000
38.5200 5357.0000 1.0000
38.5300 5684.0000 1.0000
38.5400 6210.0000 1.0000
38.5500 6331.0000 1.0000
38.5600 6576.0000 1.0000
38.5700 6815.0000 1.0000
38.5800 7024.0000 1.0000
38.5900 7215.0000 1.0000
38.6000 7415.0000 1.0000
38.6100 7438.0000 1.0000
38.6200 7362.0000 1.0000
38.6300 7335.0000 1.0000
38.6400 7155.0000 1.0000
38.6500 6853.0000 1.0000
38.6600 6801.0000 1.0000
38.6700 6535.0000 1.0000
38.6800 6400.0000 1.0000
38.6900 6063.0000 1.0000
38.7000 5707.0000 1.0000
38.7100 5552.0000 1.0000
38.7200 5098.0000 1.0000
38.7300 4922.0000 1.0000
38.7400 4574.0000 1.0000
38.7500 4259.0000 1.0000
38.7600 4043.0000 1.0000
38.7700 3763.0000 1.0000
38.7800 3507.0000 1.0000
38.7900 3309.0000 1.0000
38.8000 3099.0000 1.0000
38.8100 2947.0000 1.0000
38.8200 2688.0000 1.0000
38.8300 2479.0000 1.0000
38.8400 2376.0000 1.0000
38.8500 2238.0000 1.0000
38.8600 2104.0000 1.0000
38.8700 2058.0000 1.0000
38.8800 1977.0000 1.0000
38.8900 1908.0000 1.0000
38.9000 1794.0000 1.0000
38.9100 1739.0000 1.0000
38.9200 1663.0000 1.0000
38.9300 1532.0000 1.0000
38.9400 1544.0000 1.0000
38.9500 1461.0000 1.0000
38.9600 1456.0000 1.0000
38.9700 1445.0000 1.0000
38.9800 1471.0000 1.0000
38.9900 1359.0000 1.0000
39.0000 1310.0000 1.0000
39.0100 1334.0000 1.0000
39.0200 1238.0000 1.0000
39.0300 1200.0000 1.0000
39.0400 1213.0000 1.0000
39.0500 1211.0000 1.0000
39.0600 1253.0000 1.0000
39.0700 1203.0000 1.0000
39.0800 1226.0000 1.0000
39.0900 1151.0000 1.0000
39.1000 1160.0000 1.0000
39.1100 1158.0000 1.0000
39.1200 1163.0000 1.0000
39.1300 1129.0000 1.0000
39.1400 1128.0000 1.0000
39.1500 1085.0000 1.0000
39.1600 1085.0000 1.0000
39.1700 1087.0000 1.0000
39.1800 1097.0000 1.0000
39.1900 1070.0000 1.0000
39.2000 1092.0000 1.0000
39.2100 1087.0000 1.0000
39.2200 1065.0000 1.0000
39.2300 1111.0000 1.0000
39.2400 1082.0000 1.0000
39.2500 1071.0000 1.0000
39.2600 1017.0000 1.0000
39.2700 1094.0000 1.0000
39.2800 1059.0000 1.0000
39.2900 1040.0000 1.0000
39.3000 1040.0000 1.0000
39.3100 1057.0000 1.0000
39.3200 1016.0000 1.0000
39.3300 1052.0000 1.0000
39.3400 1091.0000 1.0000
39.3500 1055.0000 1.0000
39.3600 1039.0000 1.0000
39.3700 1081.0000 1.0000
39.3800 1045.0000 1.0000
39.3900 1020.0000 1.0000
39.4000 1038.0000 1.0000
39.4100 1065.0000 1.0000
39.4200 1000.0000 1.0000
39.4300 1040.0000 1.0000
39.4400 1057.0000 1.0000
39.4500 993.0000 1.0000
39.4600 1012.0000 1.0000
39.4700 1032.0000 1.0000
39.4800 1053.0000 1.0000
39.4900 1011.0000 1.0000
39.5000 1005.0000 1.0000
39.5100 1078.0000 1.0000
39.5200 1020.0000 1.0000
39.5300 1009.0000 1.0000
39.5400 1056.0000 1.0000
39.5500 1034.0000 1.0000
39.5600 1013.0000 1.0000
39.5700 1042.0000 1.0000
39.5800 1034.0000 1.0000
39.5900 1070.0000 1.0000
39.6000 1076.0000 1.0000
39.6100 1046.0000 1.0000
39.6200 1011.0000 1.0000
39.6300 1004.0000 1.0000
39.6400 1077.0000 1.0000
39.6500 1055.0000 1.0000
39.6600 1020.0000 1.0000
39.6700 1042.0000 1.0000
39.6800 1044.0000 1.0000
39.6900 1010.0000 1.0000
39.7000 1030.0000 1.0000
39.7100 1054.0000 1.0000
39.7200 1057.0000 1.0000
39.7300 1011.0000 1.0000
39.7400 1041.0000 1.0000
39.7500 1016.0000 1.0000
39.7600 1068.0000 1.0000
39.7700 1010.0000 1.0000
39.7800 1027.0000 1.0000
39.7900 986.0000 1.0000
39.8000 1021.0000 1.0000
39.8100 969.0000 1.0000
39.8200 976.0000 1.0000
39.8300 983.0000 1.0000
39.8400 1035.0000 1.0000
39.8500 984.0000 1.0000
39.8600 993.0000 1.0000
39.8700 964.0000 1.0000
39.8800 983.0000 1.0000
39.8900 944.0000 1.0000
39.9000 935.0000 1.0000
39.9100 999.0000 1.0000
39.9200 967.0000 1.0000
39.9300 1027.0000 1.0000
39.9400 1002.0000 1.0000
39.9500 995.0000 1.0000
39.9600 929.0000 1.0000
39.9700 951.0000 1.0000
39.9800 987.0000 1.0000
39.9900 969.0000 1.0000
40.0000 934.0000 1.0000
40.0100 1002.0000 1.0000
40.0200 988.0000 1.0000
40.0300 974.0000 1.0000
40.0400 976.0000 1.0000
40.0500 948.0000 1.0000
40.0600 913.0000 1.0000
40.0700 946.0000 1.0000
40.0800 924.0000 1.0000
40.0900 911.0000 1.0000
40.1000 947.0000 1.0000
40.1100 925.0000 1.0000
40.1200 941.0000 1.0000
40.1300 943.0000 1.0000
40.1400 991.0000 1.0000
40.1500 958.0000 1.0000
40.1600 943.0000 1.0000
40.1700 990.0000 1.0000
40.1800 992.0000 1.0000
40.1900 948.0000 1.0000
40.2000 949.0000 1.0000
40.2100 1002.0000 1.0000
40.2200 896.0000 1.0000
40.2300 953.0000 1.0000
40.2400 931.0000 1.0000
40.2500 966.0000 1.0000
40.2600 974.0000 1.0000
40.2700 951.0000 1.0000
40.2800 972.0000 1.0000
40.2900 968.0000 1.0000
40.3000 951.0000 1.0000
40.3100 925.0000 1.0000
40.3200 925.0000 1.0000
40.3300 976.0000 1.0000
40.3400 911.0000 1.0000
40.3500 937.0000 1.0000
40.3600 930.0000 1.0000
40.3700 972.0000 1.0000
40.3800 974.0000 1.0000
40.3900 922.0000 1.0000
40.4000 900.0000 1.0000
40.4100 937.0000 1.0000
40.4200 933.0000 1.0000
40.4300 899.0000 1.0000
40.4400 912.0000 1.0000
40.4500 991.0000 1.0000
40.4600 955.0000 1.0000
40.4700 929.0000 1.0000
40.4800 868.0000 1.0000
40.4900 944.0000 1.0000
40.5000 940.0000 1.0000
40.5100 946.0000 1.0000
40.5200 914.0000 1.0000
40.5300 877.0000 1.0000
40.5400 973.0000 1.0000
40.5500 949.0000 1.0000
40.5600 899.0000 1.0000
40.5700 910.0000 1.0000
40.5800 904.0000 1.0000
40.5900 925.0000 1.0000
40.6000 916.0000 1.0000
40.6100 926.0000 1.0000
40.6200 906.0000 1.0000
40.6300 931.0000 1.0000
40.6400 922.0000 1.0000
40.6500 914.0000 1.0000
40.6600 889.0000 1.0000
40.6700 918.0000 1.0000
40.6800 990.0000 1.0000
40.6900 928.0000 1.0000
40.7000 954.0000 1.0000
40.7100 887.0000 1.0000
40.7200 920.0000 1.0000
40.7300 884.0000 1.0000
40.7400 923.0000 1.0000
40.7500 920.0000 1.0000
40.7600 921.0000 1.0000
40.7700 916.0000 1.0000
40.7800 927.0000 1.0000
40.7900 936.0000 1.0000
40.8000 933.0000 1.0000
40.8100 878.0000 1.0000
40.8200 873.0000 1.0000
40.8300 873.0000 1.0000
40.8400 1004.0000 1.0000
40.8500 919.0000 1.0000
40.8600 917.0000 1.0000
40.8700 918.0000 1.0000
40.8800 924.0000 1.0000
40.8900 901.0000 1.0000
40.9000 861.0000 1.0000
40.9100 898.0000 1.0000
40.9200 913.0000 1.0000
40.9300 879.0000 1.0000
40.9400 902.0000 1.0000
40.9500 918.0000 1.0000
40.9600 918.0000 1.0000
40.9700 854.0000 1.0000
40.9800 898.0000 1.0000
40.9900 906.0000 1.0000
41.0000 897.0000 1.0000
41.0100 912.0000 1.0000
41.0200 935.0000 1.0000
41.0300 917.0000 1.0000
41.0400 928.0000 1.0000
41.0500 890.0000 1.0000
41.0600 907.0000 1.0000
41.0700 911.0000 1.0000
41.0800 916.0000 1.0000
41.0900 904.0000 1.0000
41.1000 899.0000 1.0000
41.1100 902.0000 1.0000
41.1200 890.0000 1.0000
41.1300 875.0000 1.0000
41.1400 877.0000 1.0000
41.1500 881.0000 1.0000
41.1600 885.0000 1.0000
41.1700 873.0000 1.0000
41.1800 920.0000 1.0000
41.1900 919.0000 1.0000
41.2000 922.0000 1.0000
41.2100 902.0000 1.0000
41.2200 865.0000 1.0000
41.2300 918.0000 1.0000
41.2400 901.0000 1.0000
41.2500 887.0000 1.0000
41.2600 902.0000 1.0000
41.2700 923.0000 1.0000
41.2800 916.0000 1.0000
41.2900 895.0000 1.0000
41.3000 915.0000 1.0000
41.3100 921.0000 1.0000
41.3200 921.0000 1.0000
41.3300 949.0000 1.0000
41.3400 940.0000 1.0000
41.3500 948.0000 1.0000
41.3600 925.0000 1.0000
41.3700 901.0000 1.0000
41.3800 857.0000 1.0000
41.3900 870.0000 1.0000
41.4000 896.0000 1.0000
41.4100 861.0000 1.0000
41.4200 879.0000 1.0000
41.4300 922.0000 1.0000
41.4400 957.0000 1.0000
41.4500 927.0000 1.0000
41.4600 924.0000 1.0000
41.4700 889.0000 1.0000
41.4800 843.0000 1.0000
41.4900 904.0000 1.0000
41.5000 862.0000 1.0000
41.5100 859.0000 1.0000
41.5200 895.0000 1.0000
41.5300 917.0000 1.0000
41.5400 918.0000 1.0000
41.5500 941.0000 1.0000
41.5600 891.0000 1.0000
41.5700 879.0000 1.0000
41.5800 898.0000 1.0000
41.5900 900.0000 1.0000
41.6000 917.0000 1.0000
41.6100 911.0000 1.0000
41.6200 935.0000 1.0000
41.6300 927.0000 1.0000
41.6400 946.0000 1.0000
41.6500 908.0000 1.0000
41.6600 902.0000 1.0000
41.6700 915.0000 1.0000
41.6800 992.0000 1.0000
41.6900 921.0000 1.0000
41.7000 935.0000 1.0000
41.7100 967.0000 1.0000
41.7200 951.0000 1.0000
41.7300 915.0000 1.0000
41.7400 907.0000 1.0000
41.7500 956.0000 1.0000
41.7600 936.0000 1.0000
41.7700 937.0000 1.0000
41.7800 922.0000 1.0000
41.7900 925.0000 1.0000
41.8000 893.0000 1.0000
41.8100 947.0000 1.0000
41.8200 893.0000 1.0000
41.8300 926.0000 1.0000
41.8400 886.0000 1.0000
41.8500 901.0000 1.0000
41.8600 904.0000 1.0000
41.8700 940.0000 1.0000
41.8800 885.0000 1.0000
41.8900 914.0000 1.0000
41.9000 905.0000 1.0000
41.9100 902.0000 1.0000
41.9200 937.0000 1.0000
41.9300 929.0000 1.0000
41.9400 882.0000 1.0000
41.9500 851.0000 1.0000
41.9600 931.0000 1.0000
41.9700 895.0000 1.0000
41.9800 870.0000 1.0000
41.9900 903.0000 1.0000
42.0000 910.0000 1.0000
42.0100 884.0000 1.0000
42.0200 902.0000 1.0000
42.0300 854.0000 1.0000
42.0400 892.0000 1.0000
42.0500 891.0000 1.0000
42.0600 874.0000 1.0000
42.0700 882.0000 1.0000
42.0800 930.0000 1.0000
42.0900 933.0000 1.0000
42.1000 898.0000 1.0000
42.1100 898.0000 1.0000
42.1200 902.0000 1.0000
42.1300 879.0000 1.0000
42.1400 889.0000 1.0000
42.1500 918.0000 1.0000
42.1600 920.0000 1.0000
42.1700 861.0000 1.0000
42.1800 875.0000 1.0000
42.1900 904.0000 1.0000
42.2000 871.0000 1.0000
42.2100 865.0000 1.0000
42.2200 887.0000 1.0000
42.2300 863.0000 1.0000
42.2400 826.0000 1.0000
42.2500 892.0000 1.0000
42.2600 888.0000 1.0000
42.2700 889.0000 1.0000
42.2800 876.0000 1.0000
42.2900 881.0000 1.0000
42.3000 900.0000 1.0000
42.3100 895.0000 1.0000
42.3200 877.0000 1.0000
42.3300 889.0000 1.0000
42.3400 913.0000 1.0000
42.3500 893.0000 1.0000
42.3600 893.0000 1.0000
42.3700 908.0000 1.0000
42.3800 911.0000 1.0000
42.3900 898.0000 1.0000
42.4000 832.0000 1.0000
42.4100 899.0000 1.0000
42.4200 887.0000 1.0000
42.4300 878.0000 1.0000
42.4400 926.0000 1.0000
42.4500 911.0000 1.0000
42.4600 891.0000 1.0000
42.4700 899.0000 1.0000
42.4800 878.0000 1.0000
42.4900 878.0000 1.0000
42.5000 905.0000 1.0000
42.5100 898.0000 1.0000
42.5200 865.0000 1.0000
42.5300 872.0000 1.0000
42.5400 902.0000 1.0000
42.5500 877.0000 1.0000
42.5600 855.0000 1.0000
42.5700 885.0000 1.0000
42.5800 889.0000 1.0000
42.5900 877.0000 1.0000
42.6000 836.0000 1.0000
42.6100 912.0000 1.0000
42.6200 886.0000 1.0000
42.6300 878.0000 1.0000
42.6400 887.0000 1.0000
42.6500 858.0000 1.0000
42.6600 876.0000 1.0000
42.6700 873.0000 1.0000
42.6800 922.0000 1.0000
42.6900 873.0000 1.0000
42.7000 869.0000 1.0000
42.7100 915.0000 1.0000
42.7200 918.0000 1.0000
42.7300 940.0000 1.0000
42.7400 904.0000 1.0000
42.7500 910.0000 1.0000
42.7600 905.0000 1.0000
42.7700 919.0000 1.0000
42.7800 878.0000 1.0000
42.7900 902.0000 1.0000
42.8000 889.0000 1.0000
42.8100 911.0000 1.0000
42.8200 850.0000 1.0000
42.8300 882.0000 1.0000
42.8400 918.0000 1.0000
42.8500 898.0000 1.0000
42.8600 889.0000 1.0000
42.8700 897.0000 1.0000
42.8800 913.0000 1.0000
42.8900 853.0000 1.0000
42.9000 922.0000 1.0000
42.9100 908.0000 1.0000
42.9200 897.0000 1.0000
42.9300 897.0000 1.0000
42.9400 894.0000 1.0000
42.9500 855.0000 1.0000
42.9600 849.0000 1.0000
42.9700 912.0000 1.0000
42.9800 898.0000 1.0000
42.9900 899.0000 1.0000
43.0000 879.0000 1.0000
43.0100 940.0000 1.0000
43.0200 869.0000 1.0000
43.0300 866.0000 1.0000
43.0400 872.0000 1.0000
43.0500 887.0000 1.0000
43.0600 941.0000 1.0000
43.0700 904.0000 1.0000
43.0800 919.0000 1.0000
43.0900 876.0000 1.0000
43.1000 915.0000 1.0000
43.1100 904.0000 1.0000
43.1200 888.0000 1.0000
43.1300 871.0000 1.0000
43.1400 929.0000 1.0000
43.1500 929.0000 1.0000
43.1600 938.0000 1.0000
43.1700 912.0000 1.0000
43.1800 948.0000 1.0000
43.1900 949.0000 1.0000
43.2000 917.0000 1.0000
43.2100 958.0000 1.0000
43.2200 957.0000 1.0000
43.2300 1030.0000 1.0000
43.2400 967.0000 1.0000
43.2500 1025.0000 1.0000
43.2600 1010.0000 1.0000
43.2700 953.0000 1.0000
43.2800 987.0000 1.0000
43.2900 1001.0000 1.0000
43.3000 946.0000 1.0000
43.3100 1007.0000 1.0000
43.3200 985.0000 1.0000
43.3300 962.0000 1.0000
43.3400 977.0000 1.0000
43.3500 927.0000 1.0000
43.3600 981.0000 1.0000
43.3700 926.0000 1.0000
43.3800 925.0000 1.0000
43.3900 976.0000 1.0000
43.4000 950.0000 1.0000
43.4100 954.0000 1.0000
43.4200 890.0000 1.0000
43.4300 919.0000 1.0000
43.4400 928.0000 1.0000
43.4500 945.0000 1.0000
43.4600 938.0000 1.0000
43.4700 946.0000 1.0000
43.4800 950.0000 1.0000
43.4900 919.0000 1.0000
43.5000 949.0000 1.0000
43.5100 874.0000 1.0000
43.5200 892.0000 1.0000
43.5300 883.0000 1.0000
43.5400 912.0000 1.0000
43.5500 910.0000 1.0000
43.5600 842.0000 1.0000
43.5700 860.0000 1.0000
43.5800 905.0000 1.0000
43.5900 896.0000 1.0000
43.6000 904.0000 1.0000
43.6100 911.0000 1.0000
43.6200 900.0000 1.0000
43.6300 889.0000 1.0000
43.6400 829.0000 1.0000
43.6500 854.0000 1.0000
43.6600 832.0000 1.0000
43.6700 861.0000 1.0000
43.6800 877.0000 1.0000
43.6900 882.0000 1.0000
43.7000 888.0000 1.0000
43.7100 896.0000 1.0000
43.7200 843.0000 1.0000
43.7300 882.0000 1.0000
43.7400 860.0000 1.0000
43.7500 909.0000 1.0000
43.7600 934.0000 1.0000
43.7700 843.0000 1.0000
43.7800 880.0000 1.0000
43.7900 902.0000 1.0000
43.8000 901.0000 1.0000
43.8100 880.0000 1.0000
43.8200 893.0000 1.0000
43.8300 897.0000 1.0000
43.8400 874.0000 1.0000
43.8500 860.0000 1.0000
43.8600 900.0000 1.0000
43.8700 871.0000 1.0000
43.8800 868.0000 1.0000
43.8900 858.0000 1.0000
43.9000 868.0000 1.0000
43.9100 833.0000 1.0000
43.9200 847.0000 1.0000
43.9300 844.0000 1.0000
43.9400 864.0000 1.0000
43.9500 848.0000 1.0000
43.9600 851.0000 1.0000
43.9700 885.0000 1.0000
43.9800 877.0000 1.0000
43.9900 865.0000 1.0000
44.0000 845.0000 1.0000
44.0100 883.0000 1.0000
44.0200 881.0000 1.0000
44.0300 841.0000 1.0000
44.0400 859.0000 1.0000
44.0500 838.0000 1.0000
44.0600 868.0000 1.0000
44.0700 854.0000 1.0000
44.0800 867.0000 1.0000
44.0900 868.0000 1.0000
44.1000 855.0000 1.0000
44.1100 874.0000 1.0000
44.1200 901.0000 1.0000
44.1300 871.0000 1.0000
44.1400 872.0000 1.0000
44.1500 907.0000 1.0000
44.1600 855.0000 1.0000
44.1700 847.0000 1.0000
44.1800 863.0000 1.0000
44.1900 870.0000 1.0000
44.2000 857.0000 1.0000
44.2100 877.0000 1.0000
44.2200 871.0000 1.0000
44.2300 824.0000 1.0000
44.2400 869.0000 1.0000
44.2500 854.0000 1.0000
44.2600 861.0000 1.0000
44.2700 829.0000 1.0000
44.2800 886.0000 1.0000
44.2900 847.0000 1.0000
44.3000 843.0000 1.0000
44.3100 891.0000 1.0000
44.3200 901.0000 1.0000
44.3300 867.0000 1.0000
44.3400 814.0000 1.0000
44.3500 878.0000 1.0000
44.3600 861.0000 1.0000
44.3700 836.0000 1.0000
44.3800 881.0000 1.0000
44.3900 861.0000 1.0000
44.4000 912.0000 1.0000
44.4100 893.0000 1.0000
44.4200 904.0000 1.0000
44.4300 873.0000 1.0000
44.4400 849.0000 1.0000
44.4500 877.0000 1.0000
44.4600 856.0000 1.0000
44.4700 868.0000 1.0000
44.4800 921.0000 1.0000
44.4900 870.0000 1.0000
44.5000 789.0000 1.0000
44.5100 832.0000 1.0000
44.5200 909.0000 1.0000
44.5300 882.0000 1.0000
44.5400 890.0000 1.0000
44.5500 832.0000 1.0000
44.5600 853.0000 1.0000
44.5700 839.0000 1.0000
44.5800 847.0000 1.0000
44.5900 851.0000 1.0000
44.6000 845.0000 1.0000
44.6100 839.0000 1.0000
44.6200 826.0000 1.0000
44.6300 843.0000 1.0000
44.6400 797.0000 1.0000
44.6500 826.0000 1.0000
44.6600 832.0000 1.0000
44.6700 861.0000 1.0000
44.6800 887.0000 1.0000
44.6900 881.0000 1.0000
44.7000 875.0000 1.0000
44.7100 836.0000 1.0000
44.7200 794.0000 1.0000
44.7300 873.0000 1.0000
44.7400 846.0000 1.0000
44.7500 835.0000 1.0000
44.7600 884.0000 1.0000
44.7700 876.0000 1.0000
44.7800 839.0000 1.0000
44.7900 818.0000 1.0000
44.8000 848.0000 1.0000
44.8100 849.0000 1.0000
44.8200 851.0000 1.0000
44.8300 852.0000 1.0000
44.8400 815.0000 1.0000
44.8500 827.0000 1.0000
44.8600 811.0000 1.0000
44.8700 831.0000 1.0000
44.8800 792.0000 1.0000
44.8900 827.0000 1.0000
44.9000 822.0000 1.0000
44.9100 849.0000 1.0000
44.9200 877.0000 1.0000
44.9300 857.0000 1.0000
44.9400 811.0000 1.0000
44.9500 902.0000 1.0000
44.9600 865.0000 1.0000
44.9700 861.0000 1.0000
44.9800 874.0000 1.0000
44.9900 842.0000 1.0000
45.0000 808.0000 1.0000
45.0100 832.0000 1.0000
45.0200 840.0000 1.0000
45.0300 849.0000 1.0000
45.0400 860.0000 1.0000
45.0500 837.0000 1.0000
45.0600 838.0000 1.0000
45.0700 855.0000 1.0000
45.0800 821.0000 1.0000
45.0900 863.0000 1.0000
45.1000 848.0000 1.0000
45.1100 813.0000 1.0000
45.1200 833.0000 1.0000
45.1300 840.0000 1.0000
45.1400 852.0000 1.0000
45.1500 843.0000 1.0000
45.1600 855.0000 1.0000
45.1700 862.0000 1.0000
45.1800 841.0000 1.0000
45.1900 815.0000 1.0000
45.2000 864.0000 1.0000
45.2100 879.0000 1.0000
45.2200 839.0000 1.0000
45.2300 854.0000 1.0000
45.2400 804.0000 1.0000
45.2500 828.0000 1.0000
45.2600 836.0000 1.0000
45.2700 856.0000 1.0000
45.2800 840.0000 1.0000
45.2900 858.0000 1.0000
45.3000 863.0000 1.0000
45.3100 834.0000 1.0000
45.3200 822.0000 1.0000
45.3300 836.0000 1.0000
45.3400 859.0000 1.0000
45.3500 856.0000 1.0000
45.3600 799.0000 1.0000
45.3700 831.0000 1.0000
45.3800 835.0000 1.0000
45.3900 883.0000 1.0000
45.4000 831.0000 1.0000
45.4100 861.0000 1.0000
45.4200 820.0000 1.0000
45.4300 810.0000 1.0000
45.4400 833.0000 1.0000
45.4500 864.0000 1.0000
45.4600 792.0000 1.0000
45.4700 828.0000 1.0000
45.4800 856.0000 1.0000
45.4900 810.0000 1.0000
45.5000 897.0000 1.0000
45.5100 833.0000 1.0000
45.5200 780.0000 1.0000
45.5300 798.0000 1.0000
45.5400 859.0000 1.0000
45.5500 804.0000 1.0000
45.5600 860.0000 1.0000
45.5700 813.0000 1.0000
45.5800 795.0000 1.0000
45.5900 822.0000 1.0000
45.6000 837.0000 1.0000
45.6100 852.0000 1.0000
45.6200 848.0000 1.0000
45.6300 830.0000 1.0000
45.6400 864.0000 1.0000
45.6500 869.0000 1.0000
45.6600 889.0000 1.0000
45.6700 871.0000 1.0000
45.6800 860.0000 1.0000
45.6900 824.0000 1.0000
45.7000 796.0000 1.0000
45.7100 770.0000 1.0000
45.7200 800.0000 1.0000
45.7300 807.0000 1.0000
45.7400 799.0000 1.0000
45.7500 822.0000 1.0000
45.7600 826.0000 1.0000
45.7700 797.0000 1.0000
45.7800 835.0000 1.0000
45.7900 795.0000 1.0000
45.8000 803.0000 1.0000
45.8100 831.0000 1.0000
45.8200 798.0000 1.0000
45.8300 829.0000 1.0000
45.8400 815.0000 1.0000
45.8500 816.0000 1.0000
45.8600 831.0000 1.0000
45.8700 787.0000 1.0000
45.8800 819.0000 1.0000
45.8900 841.0000 1.0000
45.9000 845.0000 1.0000
45.9100 836.0000 1.0000
45.9200 845.0000 1.0000
45.9300 817.0000 1.0000
45.9400 819.0000 1.0000
45.9500 805.0000 1.0000
45.9600 816.0000 1.0000
45.9700 811.0000 1.0000
45.9800 808.0000 1.0000
45.9900 828.0000 1.0000
46.0000 831.0000 1.0000
46.0100 798.0000 1.0000
46.0200 795.0000 1.0000
46.0300 800.0000 1.0000
46.0400 778.0000 1.0000
46.0500 846.0000 1.0000
46.0600 826.0000 1.0000
46.0700 826.0000 1.0000
46.0800 817.0000 1.0000
46.0900 845.0000 1.0000
46.1000 795.0000 1.0000
46.1100 838.0000 1.0000
46.1200 833.0000 1.0000
46.1300 818.0000 1.0000
46.1400 795.0000 1.0000
46.1500 801.0000 1.0000
46.1600 813.0000 1.0000
46.1700 789.0000 1.0000
46.1800 845.0000 1.0000
46.1900 854.0000 1.0000
46.2000 817.0000 1.0000
46.2100 790.0000 1.0000
46.2200 833.0000 1.0000
46.2300 806.0000 1.0000
46.2400 821.0000 1.0000
46.2500 810.0000 1.0000
46.2600 771.0000 1.0000
46.2700 785.0000 1.0000
46.2800 777.0000 1.0000
46.2900 823.0000 1.0000
46.3000 801.0000 1.0000
46.3100 815.0000 1.0000
46.3200 820.0000 1.0000
46.3300 836.0000 1.0000
46.3400 796.0000 1.0000
46.3500 796.0000 1.0000
46.3600 789.0000 1.0000
46.3700 820.0000 1.0000
46.3800 819.0000 1.0000
46.3900 789.0000 1.0000
46.4000 806.0000 1.0000
46.4100 759.0000 1.0000
46.4200 771.0000 1.0000
46.4300 833.0000 1.0000
46.4400 821.0000 1.0000
46.4500 797.0000 1.0000
46.4600 795.0000 1.0000
46.4700 818.0000 1.0000
46.4800 822.0000 1.0000
46.4900 804.0000 1.0000
46.5000 834.0000 1.0000
46.5100 795.0000 1.0000
46.5200 751.0000 1.0000
46.5300 792.0000 1.0000
46.5400 816.0000 1.0000
46.5500 808.0000 1.0000
46.5600 751.0000 1.0000
46.5700 765.0000 1.0000
46.5800 819.0000 1.0000
46.5900 785.0000 1.0000
46.6000 832.0000 1.0000
46.6100 817.0000 1.0000
46.6200 837.0000 1.0000
46.6300 846.0000 1.0000
46.6400 821.0000 1.0000
46.6500 766.0000 1.0000
46.6600 814.0000 1.0000
46.6700 778.0000 1.0000
46.6800 751.0000 1.0000
46.6900 809.0000 1.0000
46.7000 823.0000 1.0000
46.7100 810.0000 1.0000
46.7200 821.0000 1.0000
46.7300 856.0000 1.0000
46.7400 826.0000 1.0000
46.7500 790.0000 1.0000
46.7600 778.0000 1.0000
46.7700 840.0000 1.0000
46.7800 825.0000 1.0000
46.7900 820.0000 1.0000
46.8000 818.0000 1.0000
46.8100 793.0000 1.0000
46.8200 809.0000 1.0000
46.8300 823.0000 1.0000
46.8400 816.0000 1.0000
46.8500 751.0000 1.0000
46.8600 770.0000 1.0000
46.8700 848.0000 1.0000
46.8800 763.0000 1.0000
46.8900 854.0000 1.0000
46.9000 816.0000 1.0000
46.9100 834.0000 1.0000
46.9200 781.0000 1.0000
46.9300 815.0000 1.0000
46.9400 781.0000 1.0000
46.9500 790.0000 1.0000
46.9600 806.0000 1.0000
46.9700 792.0000 1.0000
46.9800 798.0000 1.0000
46.9900 818.0000 1.0000
47.0000 792.0000 1.0000
47.0100 822.0000 1.0000
47.0200 876.0000 1.0000
47.0300 853.0000 1.0000
47.0400 839.0000 1.0000
47.0500 838.0000 1.0000
47.0600 834.0000 1.0000
47.0700 843.0000 1.0000
47.0800 864.0000 1.0000
47.0900 839.0000 1.0000
47.1000 825.0000 1.0000
47.1100 861.0000 1.0000
47.1200 803.0000 1.0000
47.1300 859.0000 1.0000
47.1400 799.0000 1.0000
47.1500 810.0000 1.0000
47.1600 813.0000 1.0000
47.1700 873.0000 1.0000
47.1800 841.0000 1.0000
47.1900 823.0000 1.0000
47.2000 810.0000 1.0000
47.2100 815.0000 1.0000
47.2200 792.0000 1.0000
47.2300 815.0000 1.0000
47.2400 860.0000 1.0000
47.2500 814.0000 1.0000
47.2600 796.0000 1.0000
47.2700 782.0000 1.0000
47.2800 827.0000 1.0000
47.2900 860.0000 1.0000
47.3000 759.0000 1.0000
47.3100 770.0000 1.0000
47.3200 789.0000 1.0000
47.3300 760.0000 1.0000
47.3400 755.0000 1.0000
47.3500 817.0000 1.0000
47.3600 782.0000 1.0000
47.3700 806.0000 1.0000
47.3800 803.0000 1.0000
47.3900 770.0000 1.0000
47.4000 810.0000 1.0000
47.4100 832.0000 1.0000
47.4200 802.0000 1.0000
47.4300 747.0000 1.0000
47.4400 801.0000 1.0000
47.4500 797.0000 1.0000
47.4600 815.0000 1.0000
47.4700 798.0000 1.0000
47.4800 818.0000 1.0000
47.4900 792.0000 1.0000
47.5000 797.0000 1.0000
47.5100 814.0000 1.0000
47.5200 764.0000 1.0000
47.5300 752.0000 1.0000
47.5400 775.0000 1.0000
47.5500 703.0000 1.0000
47.5600 774.0000 1.0000
47.5700 768.0000 1.0000
47.5800 762.0000 1.0000
47.5900 775.0000 1.0000
47.6000 778.0000 1.0000
47.6100 830.0000 1.0000
47.6200 786.0000 1.0000
47.6300 767.0000 1.0000
47.6400 774.0000 1.0000
47.6500 788.0000 1.0000
47.6600 818.0000 1.0000
47.6700 746.0000 1.0000
47.6800 779.0000 1.0000
47.6900 756.0000 1.0000
47.7000 791.0000 1.0000
47.7100 767.0000 1.0000
47.7200 801.0000 1.0000
47.7300 782.0000 1.0000
47.7400 803.0000 1.0000
47.7500 806.0000 1.0000
47.7600 764.0000 1.0000
47.7700 784.0000 1.0000
47.7800 800.0000 1.0000
47.7900 782.0000 1.0000
47.8000 811.0000 1.0000
47.8100 788.0000 1.0000
47.8200 746.0000 1.0000
47.8300 766.0000 1.0000
47.8400 772.0000 1.0000
47.8500 807.0000 1.0000
47.8600 767.0000 1.0000
47.8700 781.0000 1.0000
47.8800 803.0000 1.0000
47.8900 780.0000 1.0000
47.9000 822.0000 1.0000
47.9100 777.0000 1.0000
47.9200 767.0000 1.0000
47.9300 778.0000 1.0000
47.9400 744.0000 1.0000
47.9500 759.0000 1.0000
47.9600 770.0000 1.0000
47.9700 813.0000 1.0000
47.9800 775.0000 1.0000
47.9900 741.0000 1.0000
48.0000 789.0000 1.0000
48.0100 802.0000 1.0000
48.0200 759.0000 1.0000
48.0300 770.0000 1.0000
48.0400 733.0000 1.0000
48.0500 779.0000 1.0000
48.0600 723.0000 1.0000
48.0700 774.0000 1.0000
48.0800 767.0000 1.0000
48.0900 789.0000 1.0000
48.1000 803.0000 1.0000
48.1100 833.0000 1.0000
48.1200 817.0000 1.0000
48.1300 786.0000 1.0000
48.1400 841.0000 1.0000
48.1500 787.0000 1.0000
48.1600 794.0000 1.0000
48.1700 745.0000 1.0000
48.1800 762.0000 1.0000
48.1900 736.0000 1.0000
48.2000 764.0000 1.0000
48.2100 740.0000 1.0000
48.2200 777.0000 1.0000
48.2300 798.0000 1.0000
48.2400 757.0000 1.0000
48.2500 761.0000 1.0000
48.2600 749.0000 1.0000
48.2700 779.0000 1.0000
48.2800 774.0000 1.0000
48.2900 757.0000 1.0000
48.3000 765.0000 1.0000
48.3100 769.0000 1.0000
48.3200 731.0000 1.0000
48.3300 787.0000 1.0000
48.3400 765.0000 1.0000
48.3500 764.0000 1.0000
48.3600 722.0000 1.0000
48.3700 758.0000 1.0000
48.3800 754.0000 1.0000
48.3900 773.0000 1.0000
48.4000 745.0000 1.0000
48.4100 792.0000 1.0000
48.4200 787.0000 1.0000
48.4300 738.0000 1.0000
48.4400 745.0000 1.0000
48.4500 799.0000 1.0000
48.4600 772.0000 1.0000
48.4700 746.0000 1.0000
48.4800 785.0000 1.0000
48.4900 839.0000 1.0000
48.5000 801.0000 1.0000
48.5100 782.0000 1.0000
48.5200 762.0000 1.0000
48.5300 786.0000 1.0000
48.5400 745.0000 1.0000
48.5500 758.0000 1.0000
48.5600 785.0000 1.0000
48.5700 771.0000 1.0000
48.5800 729.0000 1.0000
48.5900 753.0000 1.0000
48.6000 730.0000 1.0000
48.6100 726.0000 1.0000
48.6200 767.0000 1.0000
48.6300 721.0000 1.0000
48.6400 774.0000 1.0000
48.6500 777.0000 1.0000
48.6600 748.0000 1.0000
48.6700 776.0000 1.0000
48.6800 765.0000 1.0000
48.6900 784.0000 1.0000
48.7000 747.0000 1.0000
48.7100 730.0000 1.0000
48.7200 709.0000 1.0000
48.7300 754.0000 1.0000
48.7400 755.0000 1.0000
48.7500 804.0000 1.0000
48.7600 715.0000 1.0000
48.7700 755.0000 1.0000
48.7800 766.0000 1.0000
48.7900 772.0000 1.0000
48.8000 780.0000 1.0000
48.8100 794.0000 1.0000
48.8200 800.0000 1.0000
48.8300 818.0000 1.0000
48.8400 756.0000 1.0000
48.8500 760.0000 1.0000
48.8600 768.0000 1.0000
48.8700 713.0000 1.0000
48.8800 724.0000 1.0000
48.8900 788.0000 1.0000
48.9000 735.0000 1.0000
48.9100 706.0000 1.0000
48.9200 725.0000 1.0000
48.9300 763.0000 1.0000
48.9400 730.0000 1.0000
48.9500 738.0000 1.0000
48.9600 800.0000 1.0000
48.9700 784.0000 1.0000
48.9800 770.0000 1.0000
48.9900 783.0000 1.0000
49.0000 749.0000 1.0000
49.0100 805.0000 1.0000
49.0200 753.0000 1.0000
49.0300 734.0000 1.0000
49.0400 702.0000 1.0000
49.0500 737.0000 1.0000
49.0600 780.0000 1.0000
49.0700 730.0000 1.0000
49.0800 765.0000 1.0000
49.0900 743.0000 1.0000
49.1000 747.0000 1.0000
49.1100 739.0000 1.0000
49.1200 764.0000 1.0000
49.1300 773.0000 1.0000
49.1400 771.0000 1.0000
49.1500 770.0000 1.0000
49.1600 780.0000 1.0000
49.1700 749.0000 1.0000
49.1800 765.0000 1.0000
49.1900 742.0000 1.0000
49.2000 774.0000 1.0000
49.2100 741.0000 1.0000
49.2200 742.0000 1.0000
49.2300 769.0000 1.0000
49.2400 752.0000 1.0000
49.2500 709.0000 1.0000
49.2600 731.0000 1.0000
49.2700 736.0000 1.0000
49.2800 731.0000 1.0000
49.2900 775.0000 1.0000
49.3000 729.0000 1.0000
49.3100 773.0000 1.0000
49.3200 693.0000 1.0000
49.3300 776.0000 1.0000
49.3400 806.0000 1.0000
49.3500 772.0000 1.0000
49.3600 783.0000 1.0000
49.3700 781.0000 1.0000
49.3800 751.0000 1.0000
49.3900 749.0000 1.0000
49.4000 749.0000 1.0000
49.4100 711.0000 1.0000
49.4200 775.0000 1.0000
49.4300 739.0000 1.0000
49.4400 744.0000 1.0000
49.4500 758.0000 1.0000
49.4600 761.0000 1.0000
49.4700 747.0000 1.0000
49.4800 739.0000 1.0000
49.4900 759.0000 1.0000
49.5000 745.0000 1.0000
49.5100 774.0000 1.0000
49.5200 732.0000 1.0000
49.5300 804.0000 1.0000
49.5400 751.0000 1.0000
49.5500 733.0000 1.0000
49.5600 777.0000 1.0000
49.5700 777.0000 1.0000
49.5800 772.0000 1.0000
49.5900 751.0000 1.0000
49.6000 760.0000 1.0000
49.6100 721.0000 1.0000
49.6200 777.0000 1.0000
49.6300 739.0000 1.0000
49.6400 733.0000 1.0000
49.6500 769.0000 1.0000
49.6600 782.0000 1.0000
49.6700 825.0000 1.0000
49.6800 733.0000 1.0000
49.6900 739.0000 1.0000
49.7000 753.0000 1.0000
49.7100 741.0000 1.0000
49.7200 776.0000 1.0000
49.7300 740.0000 1.0000
49.7400 738.0000 1.0000
49.7500 800.0000 1.0000
49.7600 772.0000 1.0000
49.7700 779.0000 1.0000
49.7800 766.0000 1.0000
49.7900 797.0000 1.0000
49.8000 787.0000 1.0000
49.8100 735.0000 1.0000
49.8200 707.0000 1.0000
49.8300 716.0000 1.0000
49.8400 729.0000 1.0000
49.8500 761.0000 1.0000
49.8600 788.0000 1.0000
49.8700 737.0000 1.0000
49.8800 711.0000 1.0000
49.8900 711.0000 1.0000
49.9000 780.0000 1.0000
49.9100 777.0000 1.0000
49.9200 738.0000 1.0000
49.9300 746.0000 1.0000
49.9400 772.0000 1.0000
49.9500 778.0000 1.0000
49.9600 714.0000 1.0000
49.9700 751.0000 1.0000
49.9800 773.0000 1.0000
49.9900 743.0000 1.0000
50.0000 765.0000 1.0000
50.0100 771.0000 1.0000
50.0200 772.0000 1.0000
50.0300 747.0000 1.0000
50.0400 745.0000 1.0000
50.0500 776.0000 1.0000
50.0600 777.0000 1.0000
50.0700 788.0000 1.0000
50.0800 761.0000 1.0000
50.0900 746.0000 1.0000
50.1000 810.0000 1.0000
50.1100 748.0000 1.0000
50.1200 732.0000 1.0000
50.1300 756.0000 1.0000
50.1400 786.0000 1.0000
50.1500 815.0000 1.0000
50.1600 765.0000 1.0000
50.1700 792.0000 1.0000
50.1800 804.0000 1.0000
50.1900 789.0000 1.0000
50.2000 794.0000 1.0000
50.2100 779.0000 1.0000
50.2200 761.0000 1.0000
50.2300 794.0000 1.0000
50.2400 782.0000 1.0000
50.2500 793.0000 1.0000
50.2600 783.0000 1.0000
50.2700 747.0000 1.0000
50.2800 731.0000 1.0000
50.2900 760.0000 1.0000
50.3000 772.0000 1.0000
50.3100 773.0000 1.0000
50.3200 810.0000 1.0000
50.3300 822.0000 1.0000
50.3400 830.0000 1.0000
50.3500 784.0000 1.0000
50.3600 835.0000 1.0000
50.3700 779.0000 1.0000
50.3800 784.0000 1.0000
50.3900 776.0000 1.0000
50.4000 778.0000 1.0000
50.4100 792.0000 1.0000
50.4200 790.0000 1.0000
50.4300 797.0000 1.0000
50.4400 827.0000 1.0000
50.4500 785.0000 1.0000
50.4600 787.0000 1.0000
50.4700 775.0000 1.0000
50.4800 776.0000 1.0000
50.4900 790.0000 1.0000
50.5000 815.0000 1.0000
50.5100 758.0000 1.0000
50.5200 757.0000 1.0000
50.5300 772.0000 1.0000
50.5400 731.0000 1.0000
50.5500 754.0000 1.0000
50.5600 773.0000 1.0000
50.5700 788.0000 1.0000
50.5800 742.0000 1.0000
50.5900 755.0000 1.0000
50.6000 757.0000 1.0000
50.6100 799.0000 1.0000
50.6200 785.0000 1.0000
50.6300 776.0000 1.0000
50.6400 748.0000 1.0000
50.6500 779.0000 1.0000
50.6600 809.0000 1.0000
50.6700 801.0000 1.0000
50.6800 759.0000 1.0000
50.6900 787.0000 1.0000
50.7000 758.0000 1.0000
50.7100 738.0000 1.0000
50.7200 746.0000 1.0000
50.7300 771.0000 1.0000
50.7400 783.0000 1.0000
50.7500 775.0000 1.0000
50.7600 779.0000 1.0000
50.7700 812.0000 1.0000
50.7800 762.0000 1.0000
50.7900 770.0000 1.0000
50.8000 727.0000 1.0000
50.8100 768.0000 1.0000
50.8200 766.0000 1.0000
50.8300 767.0000 1.0000
50.8400 746.0000 1.0000
50.8500 814.0000 1.0000
50.8600 728.0000 1.0000
50.8700 769.0000 1.0000
50.8800 801.0000 1.0000
50.8900 799.0000 1.0000
50.9000 771.0000 1.0000
50.9100 809.0000 1.0000
50.9200 772.0000 1.0000
50.9300 777.0000 1.0000
50.9400 741.0000 1.0000
50.9500 725.0000 1.0000
50.9600 765.0000 1.0000
50.9700 743.0000 1.0000
50.9800 797.0000 1.0000
50.9900 816.0000 1.0000
51.0000 805.0000 1.0000
51.0100 804.0000 1.0000
51.0200 797.0000 1.0000
51.0300 776.0000 1.0000
51.0400 776.0000 1.0000
51.0500 835.0000 1.0000
51.0600 740.0000 1.0000
51.0700 782.0000 1.0000
51.0800 764.0000 1.0000
51.0900 757.0000 1.0000
51.1000 762.0000 1.0000
51.1100 778.0000 1.0000
51.1200 735.0000 1.0000
51.1300 772.0000 1.0000
51.1400 754.0000 1.0000
51.1500 749.0000 1.0000
51.1600 775.0000 1.0000
51.1700 752.0000 1.0000
51.1800 792.0000 1.0000
51.1900 790.0000 1.0000
51.2000 745.0000 1.0000
51.2100 744.0000 1.0000
51.2200 748.0000 1.0000
51.2300 744.0000 1.0000
51.2400 749.0000 1.0000
51.2500 759.0000 1.0000
51.2600 767.0000 1.0000
51.2700 750.0000 1.0000
51.2800 738.0000 1.0000
51.2900 767.0000 1.0000
51.3000 765.0000 1.0000
51.3100 757.0000 1.0000
51.3200 771.0000 1.0000
51.3300 766.0000 1.0000
51.3400 780.0000 1.0000
51.3500 761.0000 1.0000
51.3600 824.0000 1.0000
51.3700 780.0000 1.0000
51.3800 768.0000 1.0000
51.3900 798.0000 1.0000
51.4000 750.0000 1.0000
51.4100 818.0000 1.0000
51.4200 784.0000 1.0000
51.4300 775.0000 1.0000
51.4400 769.0000 1.0000
51.4500 795.0000 1.0000
51.4600 794.0000 1.0000
51.4700 779.0000 1.0000
51.4800 765.0000 1.0000
51.4900 755.0000 1.0000
51.5000 756.0000 1.0000
51.5100 765.0000 1.0000
51.5200 843.0000 1.0000
51.5300 793.0000 1.0000
51.5400 782.0000 1.0000
51.5500 813.0000 1.0000
51.5600 828.0000 1.0000
51.5700 811.0000 1.0000
51.5800 777.0000 1.0000
51.5900 811.0000 1.0000
51.6000 751.0000 1.0000
51.6100 824.0000 1.0000
51.6200 736.0000 1.0000
51.6300 762.0000 1.0000
51.6400 832.0000 1.0000
51.6500 815.0000 1.0000
51.6600 810.0000 1.0000
51.6700 786.0000 1.0000
51.6800 785.0000 1.0000
51.6900 779.0000 1.0000
51.7000 819.0000 1.0000
51.7100 803.0000 1.0000
51.7200 772.0000 1.0000
51.7300 837.0000 1.0000
51.7400 813.0000 1.0000
51.7500 800.0000 1.0000
51.7600 777.0000 1.0000
51.7700 738.0000 1.0000
51.7800 809.0000 1.0000
51.7900 834.0000 1.0000
51.8000 804.0000 1.0000
51.8100 844.0000 1.0000
51.8200 824.0000 1.0000
51.8300 805.0000 1.0000
51.8400 824.0000 1.0000
51.8500 894.0000 1.0000
51.8600 844.0000 1.0000
51.8700 871.0000 1.0000
51.8800 882.0000 1.0000
51.8900 861.0000 1.0000
51.9000 902.0000 1.0000
51.9100 909.0000 1.0000
51.9200 909.0000 1.0000
51.9300 911.0000 1.0000
51.9400 897.0000 1.0000
51.9500 928.0000 1.0000
51.9600 952.0000 1.0000
51.9700 949.0000 1.0000
51.9800 1017.0000 1.0000
51.9900 970.0000 1.0000
52.0000 1030.0000 1.0000
52.0100 1016.0000 1.0000
52.0200 1100.0000 1.0000
52.0300 1143.0000 1.0000
52.0400 1108.0000 1.0000
52.0500 1160.0000 1.0000
52.0600 1178.0000 1.0000
52.0700 1247.0000 1.0000
52.0800 1294.0000 1.0000
52.0900 1392.0000 1.0000
52.1000 1396.0000 1.0000
52.1100 1426.0000 1.0000
52.1200 1515.0000 1.0000
52.1300 1531.0000 1.0000
52.1400 1622.0000 1.0000
52.1500 1669.0000 1.0000
52.1600 1829.0000 1.0000
52.1700 1899.0000 1.0000
52.1800 2025.0000 1.0000
52.1900 2219.0000 1.0000
52.2000 2358.0000 1.0000
52.2100 2529.0000 1.0000
52.2200 2784.0000 1.0000
52.2300 2978.0000 1.0000
52.2400 3217.0000 1.0000
52.2500 3567.0000 1.0000
52.2600 3853.0000 1.0000
52.2700 4116.0000 1.0000
52.2800 4316.0000 1.0000
52.2900 4519.0000 1.0000
52.3000 4759.0000 1.0000
52.3100 5018.0000 1.0000
52.3200 5326.0000 1.0000
52.3300 5365.0000 1.0000
52.3400 5262.0000 1.0000
52.3500 5167.0000 1.0000
52.3600 5170.0000 1.0000
52.3700 4983.0000 1.0000
52.3800 4783.0000 1.0000
52.3900 4696.0000 1.0000
52.4000 4541.0000 1.0000
52.4100 4409.0000 1.0000
52.4200 4320.0000 1.0000
52.4300 4213.0000 1.0000
52.4400 4011.0000 1.0000
52.4500 3904.0000 1.0000
52.4600 3924.0000 1.0000
52.4700 3810.0000 1.0000
52.4800 3640.0000 1.0000
52.4900 3499.0000 1.0000
52.5000 3299.0000 1.0000
52.5100 3032.0000 1.0000
52.5200 2877.0000 1.0000
52.5300 2645.0000 1.0000
52.5400 2496.0000 1.0000
52.5500 2376.0000 1.0000
52.5600 2175.0000 1.0000
52.5700 1935.0000 1.0000
52.5800 1848.0000 1.0000
52.5900 1812.0000 1.0000
52.6000 1685.0000 1.0000
52.6100 1645.0000 1.0000
52.6200 1570.0000 1.0000
52.6300 1468.0000 1.0000
52.6400 1457.0000 1.0000
52.6500 1331.0000 1.0000
52.6600 1287.0000 1.0000
52.6700 1256.0000 1.0000
52.6800 1243.0000 1.0000
52.6900 1176.0000 1.0000
52.7000 1132.0000 1.0000
52.7100 1156.0000 1.0000
52.7200 1149.0000 1.0000
52.7300 1087.0000 1.0000
52.7400 1020.0000 1.0000
52.7500 1043.0000 1.0000
52.7600 1031.0000 1.0000
52.7700 1013.0000 1.0000
52.7800 987.0000 1.0000
52.7900 970.0000 1.0000
52.8000 943.0000 1.0000
52.8100 970.0000 1.0000
52.8200 977.0000 1.0000
52.8300 919.0000 1.0000
52.8400 866.0000 1.0000
52.8500 903.0000 1.0000
52.8600 922.0000 1.0000
52.8700 884.0000 1.0000
52.8800 898.0000 1.0000
52.8900 897.0000 1.0000
52.9000 859.0000 1.0000
52.9100 815.0000 1.0000
52.9200 841.0000 1.0000
52.9300 874.0000 1.0000
52.9400 888.0000 1.0000
52.9500 808.0000 1.0000
52.9600 824.0000 1.0000
52.9700 849.0000 1.0000
52.9800 850.0000 1.0000
52.9900 826.0000 1.0000
53.0000 815.0000 1.0000
53.0100 808.0000 1.0000
53.0200 796.0000 1.0000
53.0300 825.0000 1.0000
53.0400 817.0000 1.0000
53.0500 761.0000 1.0000
53.0600 802.0000 1.0000
53.0700 819.0000 1.0000
53.0800 811.0000 1.0000
53.0900 826.0000 1.0000
53.1000 813.0000 1.0000
53.1100 759.0000 1.0000
53.1200 787.0000 1.0000
53.1300 796.0000 1.0000
53.1400 815.0000 1.0000
53.1500 807.0000 1.0000
53.1600 784.0000 1.0000
53.1700 757.0000 1.0000
53.1800 792.0000 1.0000
53.1900 792.0000 1.0000
53.2000 790.0000 1.0000
53.2100 746.0000 1.0000
53.2200 779.0000 1.0000
53.2300 794.0000 1.0000
53.2400 812.0000 1.0000
53.2500 770.0000 1.0000
53.2600 788.0000 1.0000
53.2700 780.0000 1.0000
53.2800 752.0000 1.0000
53.2900 760.0000 1.0000
53.3000 762.0000 1.0000
53.3100 777.0000 1.0000
53.3200 766.0000 1.0000
53.3300 756.0000 1.0000
53.3400 801.0000 1.0000
53.3500 812.0000 1.0000
53.3600 762.0000 1.0000
53.3700 751.0000 1.0000
53.3800 754.0000 1.0000
53.3900 764.0000 1.0000
53.4000 773.0000 1.0000
53.4100 806.0000 1.0000
53.4200 766.0000 1.0000
53.4300 740.0000 1.0000
53.4400 771.0000 1.0000
53.4500 802.0000 1.0000
53.4600 731.0000 1.0000
53.4700 768.0000 1.0000
53.4800 771.0000 1.0000
53.4900 778.0000 1.0000
53.5000 783.0000 1.0000
53.5100 791.0000 1.0000
53.5200 755.0000 1.0000
53.5300 770.0000 1.0000
53.5400 723.0000 1.0000
53.5500 711.0000 1.0000
53.5600 731.0000 1.0000
53.5700 764.0000 1.0000
53.5800 795.0000 1.0000
53.5900 764.0000 1.0000
53.6000 776.0000 1.0000
53.6100 754.0000 1.0000
53.6200 688.0000 1.0000
53.6300 698.0000 1.0000
53.6400 734.0000 1.0000
53.6500 744.0000 1.0000
53.6600 771.0000 1.0000
53.6700 762.0000 1.0000
53.6800 765.0000 1.0000
53.6900 744.0000 1.0000
53.7000 719.0000 1.0000
53.7100 742.0000 1.0000
53.7200 736.0000 1.0000
53.7300 750.0000 1.0000
53.7400 737.0000 1.0000
53.7500 728.0000 1.0000
53.7600 720.0000 1.0000
53.7700 737.0000 1.0000
53.7800 720.0000 1.0000
53.7900 744.0000 1.0000
53.8000 747.0000 1.0000
53.8100 811.0000 1.0000
53.8200 793.0000 1.0000
53.8300 723.0000 1.0000
53.8400 736.0000 1.0000
53.8500 793.0000 1.0000
53.8600 788.0000 1.0000
53.8700 775.0000 1.0000
53.8800 732.0000 1.0000
53.8900 740.0000 1.0000
53.9000 776.0000 1.0000
53.9100 806.0000 1.0000
53.9200 724.0000 1.0000
53.9300 751.0000 1.0000
53.9400 723.0000 1.0000
53.9500 754.0000 1.0000
53.9600 760.0000 1.0000
53.9700 723.0000 1.0000
53.9800 725.0000 1.0000
53.9900 726.0000 1.0000
54.0000 773.0000 1.0000
54.0100 757.0000 1.0000
54.0200 763.0000 1.0000
54.0300 721.0000 1.0000
54.0400 758.0000 1.0000
54.0500 771.0000 1.0000
54.0600 730.0000 1.0000
54.0700 759.0000 1.0000
54.0800 766.0000 1.0000
54.0900 718.0000 1.0000
54.1000 664.0000 1.0000
54.1100 740.0000 1.0000
54.1200 739.0000 1.0000
54.1300 728.0000 1.0000
54.1400 758.0000 1.0000
54.1500 818.0000 1.0000
54.1600 787.0000 1.0000
54.1700 730.0000 1.0000
54.1800 732.0000 1.0000
54.1900 707.0000 1.0000
54.2000 728.0000 1.0000
54.2100 735.0000 1.0000
54.2200 736.0000 1.0000
54.2300 743.0000 1.0000
54.2400 773.0000 1.0000
54.2500 746.0000 1.0000
54.2600 777.0000 1.0000
54.2700 744.0000 1.0000
54.2800 777.0000 1.0000
54.2900 750.0000 1.0000
54.3000 741.0000 1.0000
54.3100 779.0000 1.0000
54.3200 733.0000 1.0000
54.3300 768.0000 1.0000
54.3400 681.0000 1.0000
54.3500 743.0000 1.0000
54.3600 752.0000 1.0000
54.3700 769.0000 1.0000
54.3800 732.0000 1.0000
54.3900 738.0000 1.0000
54.4000 751.0000 1.0000
54.4100 765.0000 1.0000
54.4200 748.0000 1.0000
54.4300 734.0000 1.0000
54.4400 747.0000 1.0000
54.4500 742.0000 1.0000
54.4600 762.0000 1.0000
54.4700 774.0000 1.0000
54.4800 779.0000 1.0000
54.4900 745.0000 1.0000
54.5000 756.0000 1.0000
54.5100 703.0000 1.0000
54.5200 758.0000 1.0000
54.5300 706.0000 1.0000
54.5400 737.0000 1.0000
54.5500 713.0000 1.0000
54.5600 768.0000 1.0000
54.5700 774.0000 1.0000
54.5800 782.0000 1.0000
54.5900 738.0000 1.0000
54.6000 776.0000 1.0000
54.6100 707.0000 1.0000
54.6200 770.0000 1.0000
54.6300 708.0000 1.0000
54.6400 749.0000 1.0000
54.6500 771.0000 1.0000
54.6600 757.0000 1.0000
54.6700 724.0000 1.0000
54.6800 735.0000 1.0000
54.6900 796.0000 1.0000
54.7000 759.0000 1.0000
54.7100 773.0000 1.0000
54.7200 825.0000 1.0000
54.7300 735.0000 1.0000
54.7400 748.0000 1.0000
54.7500 844.0000 1.0000
54.7600 796.0000 1.0000
54.7700 794.0000 1.0000
54.7800 816.0000 1.0000
54.7900 778.0000 1.0000
54.8000 752.0000 1.0000
54.8100 792.0000 1.0000
54.8200 779.0000 1.0000
54.8300 844.0000 1.0000
54.8400 815.0000 1.0000
54.8500 803.0000 1.0000
54.8600 803.0000 1.0000
54.8700 803.0000 1.0000
54.8800 797.0000 1.0000
54.8900 768.0000 1.0000
54.9000 764.0000 1.0000
54.9100 806.0000 1.0000
54.9200 801.0000 1.0000
54.9300 799.0000 1.0000
54.9400 824.0000 1.0000
54.9500 778.0000 1.0000
54.9600 839.0000 1.0000
54.9700 807.0000 1.0000
54.9800 851.0000 1.0000
54.9900 817.0000 1.0000
55.0000 802.0000 1.0000
55.0100 833.0000 1.0000
55.0200 815.0000 1.0000
55.0300 857.0000 1.0000
55.0400 841.0000 1.0000
55.0500 818.0000 1.0000
55.0600 832.0000 1.0000
55.0700 821.0000 1.0000
55.0800 822.0000 1.0000
55.0900 847.0000 1.0000
55.1000 850.0000 1.0000
55.1100 844.0000 1.0000
55.1200 824.0000 1.0000
55.1300 873.0000 1.0000
55.1400 843.0000 1.0000
55.1500 875.0000 1.0000
55.1600 877.0000 1.0000
55.1700 945.0000 1.0000
55.1800 936.0000 1.0000
55.1900 962.0000 1.0000
55.2000 980.0000 1.0000
55.2100 996.0000 1.0000
55.2200 979.0000 1.0000
55.2300 969.0000 1.0000
55.2400 959.0000 1.0000
55.2500 1031.0000 1.0000
55.2600 1026.0000 1.0000
55.2700 1045.0000 1.0000
55.2800 1028.0000 1.0000
55.2900 1083.0000 1.0000
55.3000 1109.0000 1.0000
55.3100 1092.0000 1.0000
55.3200 1143.0000 1.0000
55.3300 1164.0000 1.0000
55.3400 1170.0000 1.0000
55.3500 1113.0000 1.0000
55.3600 1122.0000 1.0000
55.3700 1074.0000 1.0000
55.3800 1159.0000 1.0000
55.3900 1134.0000 1.0000
55.4000 1055.0000 1.0000
55.4100 1121.0000 1.0000
55.4200 1049.0000 1.0000
55.4300 1062.0000 1.0000
55.4400 1060.0000 1.0000
55.4500 1074.0000 1.0000
55.4600 1063.0000 1.0000
55.4700 1055.0000 1.0000
55.4800 1053.0000 1.0000
55.4900 1036.0000 1.0000
55.5000 1021.0000 1.0000
55.5100 1011.0000 1.0000
55.5200 945.0000 1.0000
55.5300 979.0000 1.0000
55.5400 991.0000 1.0000
55.5500 952.0000 1.0000
55.5600 926.0000 1.0000
55.5700 891.0000 1.0000
55.5800 928.0000 1.0000
55.5900 844.0000 1.0000
55.6000 912.0000 1.0000
55.6100 886.0000 1.0000
55.6200 843.0000 1.0000
55.6300 896.0000 1.0000
55.6400 866.0000 1.0000
55.6500 848.0000 1.0000
55.6600 815.0000 1.0000
55.6700 828.0000 1.0000
55.6800 803.0000 1.0000
55.6900 804.0000 1.0000
55.7000 788.0000 1.0000
55.7100 771.0000 1.0000
55.7200 800.0000 1.0000
55.7300 767.0000 1.0000
55.7400 764.0000 1.0000
55.7500 785.0000 1.0000
55.7600 781.0000 1.0000
55.7700 747.0000 1.0000
55.7800 770.0000 1.0000
55.7900 768.0000 1.0000
55.8000 730.0000 1.0000
55.8100 794.0000 1.0000
55.8200 802.0000 1.0000
55.8300 765.0000 1.0000
55.8400 775.0000 1.0000
55.8500 780.0000 1.0000
55.8600 740.0000 1.0000
55.8700 721.0000 1.0000
55.8800 705.0000 1.0000
55.8900 743.0000 1.0000
55.9000 757.0000 1.0000
55.9100 738.0000 1.0000
55.9200 781.0000 1.0000
55.9300 749.0000 1.0000
55.9400 729.0000 1.0000
55.9500 721.0000 1.0000
55.9600 723.0000 1.0000
55.9700 727.0000 1.0000
55.9800 715.0000 1.0000
55.9900 769.0000 1.0000
56.0000 743.0000 1.0000
56.0100 737.0000 1.0000
56.0200 754.0000 1.0000
56.0300 762.0000 1.0000
56.0400 780.0000 1.0000
56.0500 705.0000 1.0000
56.0600 735.0000 1.0000
56.0700 751.0000 1.0000
56.0800 755.0000 1.0000
56.0900 744.0000 1.0000
56.1000 724.0000 1.0000
56.1100 705.0000 1.0000
56.1200 763.0000 1.0000
56.1300 716.0000 1.0000
56.1400 731.0000 1.0000
56.1500 719.0000 1.0000
56.1600 717.0000 1.0000
56.1700 724.0000 1.0000
56.1800 710.0000 1.0000
56.1900 677.0000 1.0000
56.2000 732.0000 1.0000
56.2100 744.0000 1.0000
56.2200 683.0000 1.0000
56.2300 694.0000 1.0000
56.2400 720.0000 1.0000
56.2500 751.0000 1.0000
56.2600 730.0000 1.0000
56.2700 707.0000 1.0000
56.2800 699.0000 1.0000
56.2900 722.0000 1.0000
56.3000 750.0000 1.0000
56.3100 717.0000 1.0000
56.3200 717.0000 1.0000
56.3300 724.0000 1.0000
56.3400 713.0000 1.0000
56.3500 678.0000 1.0000
56.3600 680.0000 1.0000
56.3700 683.0000 1.0000
56.3800 686.0000 1.0000
56.3900 679.0000 1.0000
56.4000 675.0000 1.0000
56.4100 707.0000 1.0000
56.4200 721.0000 1.0000
56.4300 710.0000 1.0000
56.4400 721.0000 1.0000
56.4500 729.0000 1.0000
56.4600 706.0000 1.0000
56.4700 702.0000 1.0000
56.4800 688.0000 1.0000
56.4900 697.0000 1.0000
56.5000 724.0000 1.0000
56.5100 714.0000 1.0000
56.5200 773.0000 1.0000
56.5300 743.0000 1.0000
56.5400 697.0000 1.0000
56.5500 720.0000 1.0000
56.5600 696.0000 1.0000
56.5700 679.0000 1.0000
56.5800 714.0000 1.0000
56.5900 711.0000 1.0000
56.6000 735.0000 1.0000
56.6100 710.0000 1.0000
56.6200 702.0000 1.0000
56.6300 749.0000 1.0000
56.6400 729.0000 1.0000
56.6500 723.0000 1.0000
56.6600 706.0000 1.0000
56.6700 705.0000 1.0000
56.6800 686.0000 1.0000
56.6900 706.0000 1.0000
56.7000 712.0000 1.0000
56.7100 697.0000 1.0000
56.7200 722.0000 1.0000
56.7300 708.0000 1.0000
56.7400 714.0000 1.0000
56.7500 671.0000 1.0000
56.7600 673.0000 1.0000
56.7700 698.0000 1.0000
56.7800 710.0000 1.0000
56.7900 738.0000 1.0000
56.8000 735.0000 1.0000
56.8100 705.0000 1.0000
56.8200 725.0000 1.0000
56.8300 702.0000 1.0000
56.8400 694.0000 1.0000
56.8500 716.0000 1.0000
56.8600 726.0000 1.0000
56.8700 656.0000 1.0000
56.8800 711.0000 1.0000
56.8900 751.0000 1.0000
56.9000 719.0000 1.0000
56.9100 726.0000 1.0000
56.9200 686.0000 1.0000
56.9300 738.0000 1.0000
56.9400 722.0000 1.0000
56.9500 747.0000 1.0000
56.9600 699.0000 1.0000
56.9700 735.0000 1.0000
56.9800 694.0000 1.0000
56.9900 714.0000 1.0000
57.0000 674.0000 1.0000
57.0100 675.0000 1.0000
57.0200 685.0000 1.0000
57.0300 692.0000 1.0000
57.0400 699.0000 1.0000
57.0500 706.0000 1.0000
57.0600 703.0000 1.0000
57.0700 736.0000 1.0000
57.0800 679.0000 1.0000
57.0900 718.0000 1.0000
57.1000 702.0000 1.0000
57.1100 717.0000 1.0000
57.1200 693.0000 1.0000
57.1300 724.0000 1.0000
57.1400 750.0000 1.0000
57.1500 695.0000 1.0000
57.1600 680.0000 1.0000
57.1700 707.0000 1.0000
57.1800 737.0000 1.0000
57.1900 705.0000 1.0000
57.2000 735.0000 1.0000
57.2100 694.0000 1.0000
57.2200 720.0000 1.0000
57.2300 688.0000 1.0000
57.2400 711.0000 1.0000
57.2500 666.0000 1.0000
57.2600 705.0000 1.0000
57.2700 713.0000 1.0000
57.2800 767.0000 1.0000
57.2900 704.0000 1.0000
57.3000 726.0000 1.0000
57.3100 707.0000 1.0000
57.3200 720.0000 1.0000
57.3300 713.0000 1.0000
57.3400 705.0000 1.0000
57.3500 709.0000 1.0000
57.3600 745.0000 1.0000
57.3700 701.0000 1.0000
57.3800 694.0000 1.0000
57.3900 694.0000 1.0000
57.4000 702.0000 1.0000
57.4100 710.0000 1.0000
57.4200 738.0000 1.0000
57.4300 716.0000 1.0000
57.4400 716.0000 1.0000
57.4500 674.0000 1.0000
57.4600 735.0000 1.0000
57.4700 697.0000 1.0000
57.4800 734.0000 1.0000
57.4900 729.0000 1.0000
57.5000 757.0000 1.0000
57.5100 702.0000 1.0000
57.5200 710.0000 1.0000
57.5300 664.0000 1.0000
57.5400 706.0000 1.0000
57.5500 719.0000 1.0000
57.5600 728.0000 1.0000
57.5700 712.0000 1.0000
57.5800 731.0000 1.0000
57.5900 742.0000 1.0000
57.6000 693.0000 1.0000
57.6100 678.0000 1.0000
57.6200 715.0000 1.0000
57.6300 763.0000 1.0000
57.6400 713.0000 1.0000
57.6500 738.0000 1.0000
57.6600 751.0000 1.0000
57.6700 668.0000 1.0000
57.6800 736.0000 1.0000
57.6900 716.0000 1.0000
57.7000 710.0000 1.0000
57.7100 657.0000 1.0000
57.7200 677.0000 1.0000
57.7300 688.0000 1.0000
57.7400 674.0000 1.0000
57.7500 708.0000 1.0000
57.7600 683.0000 1.0000
57.7700 714.0000 1.0000
57.7800 703.0000 1.0000
57.7900 706.0000 1.0000
57.8000 733.0000 1.0000
57.8100 709.0000 1.0000
57.8200 724.0000 1.0000
57.8300 703.0000 1.0000
57.8400 717.0000 1.0000
57.8500 683.0000 1.0000
57.8600 697.0000 1.0000
57.8700 727.0000 1.0000
57.8800 699.0000 1.0000
57.8900 691.0000 1.0000
57.9000 701.0000 1.0000
57.9100 744.0000 1.0000
57.9200 791.0000 1.0000
57.9300 765.0000 1.0000
57.9400 693.0000 1.0000
57.9500 695.0000 1.0000
57.9600 699.0000 1.0000
57.9700 697.0000 1.0000
57.9800 706.0000 1.0000
57.9900 707.0000 1.0000
58.0000 725.0000 1.0000
58.0100 718.0000 1.0000
58.0200 693.0000 1.0000
58.0300 694.0000 1.0000
58.0400 752.0000 1.0000
58.0500 706.0000 1.0000
58.0600 744.0000 1.0000
58.0700 687.0000 1.0000
58.0800 712.0000 1.0000
58.0900 760.0000 1.0000
58.1000 730.0000 1.0000
58.1100 747.0000 1.0000
58.1200 701.0000 1.0000
58.1300 720.0000 1.0000
58.1400 751.0000 1.0000
58.1500 705.0000 1.0000
58.1600 710.0000 1.0000
58.1700 705.0000 1.0000
58.1800 706.0000 1.0000
58.1900 732.0000 1.0000
58.2000 748.0000 1.0000
58.2100 693.0000 1.0000
58.2200 728.0000 1.0000
58.2300 723.0000 1.0000
58.2400 732.0000 1.0000
58.2500 754.0000 1.0000
58.2600 762.0000 1.0000
58.2700 760.0000 1.0000
58.2800 775.0000 1.0000
58.2900 725.0000 1.0000
58.3000 717.0000 1.0000
58.3100 726.0000 1.0000
58.3200 716.0000 1.0000
58.3300 740.0000 1.0000
58.3400 699.0000 1.0000
58.3500 690.0000 1.0000
58.3600 686.0000 1.0000
58.3700 726.0000 1.0000
58.3800 697.0000 1.0000
58.3900 726.0000 1.0000
58.4000 704.0000 1.0000
58.4100 775.0000 1.0000
58.4200 788.0000 1.0000
58.4300 809.0000 1.0000
58.4400 743.0000 1.0000
58.4500 726.0000 1.0000
58.4600 736.0000 1.0000
58.4700 729.0000 1.0000
58.4800 681.0000 1.0000
58.4900 671.0000 1.0000
58.5000 711.0000 1.0000
58.5100 717.0000 1.0000
58.5200 743.0000 1.0000
58.5300 707.0000 1.0000
58.5400 732.0000 1.0000
58.5500 677.0000 1.0000
58.5600 697.0000 1.0000
58.5700 728.0000 1.0000
58.5800 731.0000 1.0000
58.5900 739.0000 1.0000
58.6000 681.0000 1.0000
58.6100 717.0000 1.0000
58.6200 725.0000 1.0000
58.6300 738.0000 1.0000
58.6400 710.0000 1.0000
58.6500 700.0000 1.0000
58.6600 705.0000 1.0000
58.6700 696.0000 1.0000
58.6800 690.0000 1.0000
58.6900 702.0000 1.0000
58.7000 729.0000 1.0000
58.7100 713.0000 1.0000
58.7200 692.0000 1.0000
58.7300 690.0000 1.0000
58.7400 748.0000 1.0000
58.7500 734.0000 1.0000
58.7600 686.0000 1.0000
58.7700 699.0000 1.0000
58.7800 749.0000 1.0000
58.7900 708.0000 1.0000
58.8000 727.0000 1.0000
58.8100 708.0000 1.0000
58.8200 669.0000 1.0000
58.8300 711.0000 1.0000
58.8400 709.0000 1.0000
58.8500 739.0000 1.0000
58.8600 748.0000 1.0000
58.8700 731.0000 1.0000
58.8800 691.0000 1.0000
58.8900 720.0000 1.0000
58.9000 719.0000 1.0000
58.9100 725.0000 1.0000
58.9200 714.0000 1.0000
58.9300 690.0000 1.0000
58.9400 725.0000 1.0000
58.9500 693.0000 1.0000
58.9600 692.0000 1.0000
58.9700 732.0000 1.0000
58.9800 666.0000 1.0000
58.9900 726.0000 1.0000
59.0000 747.0000 1.0000
59.0100 732.0000 1.0000
59.0200 744.0000 1.0000
59.0300 727.0000 1.0000
59.0400 716.0000 1.0000
59.0500 685.0000 1.0000
59.0600 714.0000 1.0000
59.0700 724.0000 1.0000
59.0800 687.0000 1.0000
59.0900 645.0000 1.0000
59.1000 675.0000 1.0000
59.1100 675.0000 1.0000
59.1200 688.0000 1.0000
59.1300 677.0000 1.0000
59.1400 699.0000 1.0000
59.1500 726.0000 1.0000
59.1600 706.0000 1.0000
59.1700 744.0000 1.0000
59.1800 708.0000 1.0000
59.1900 685.0000 1.0000
59.2000 716.0000 1.0000
59.2100 687.0000 1.0000
59.2200 705.0000 1.0000
59.2300 752.0000 1.0000
59.2400 751.0000 1.0000
59.2500 710.0000 1.0000
59.2600 657.0000 1.0000
59.2700 699.0000 1.0000
59.2800 715.0000 1.0000
59.2900 676.0000 1.0000
59.3000 692.0000 1.0000
59.3100 695.0000 1.0000
59.3200 689.0000 1.0000
59.3300 697.0000 1.0000
59.3400 718.0000 1.0000
59.3500 699.0000 1.0000
59.3600 712.0000 1.0000
59.3700 699.0000 1.0000
59.3800 713.0000 1.0000
59.3900 733.0000 1.0000
59.4000 705.0000 1.0000
59.4100 694.0000 1.0000
59.4200 706.0000 1.0000
59.4300 732.0000 1.0000
59.4400 755.0000 1.0000
59.4500 721.0000 1.0000
59.4600 769.0000 1.0000
59.4700 713.0000 1.0000
59.4800 708.0000 1.0000
59.4900 721.0000 1.0000
59.5000 711.0000 1.0000
59.5100 711.0000 1.0000
59.5200 723.0000 1.0000
59.5300 720.0000 1.0000
59.5400 735.0000 1.0000
59.5500 689.0000 1.0000
59.5600 690.0000 1.0000
59.5700 684.0000 1.0000
59.5800 727.0000 1.0000
59.5900 717.0000 1.0000
59.6000 723.0000 1.0000
59.6100 682.0000 1.0000
59.6200 692.0000 1.0000
59.6300 658.0000 1.0000
59.6400 697.0000 1.0000
59.6500 684.0000 1.0000
59.6600 711.0000 1.0000
59.6700 687.0000 1.0000
59.6800 694.0000 1.0000
59.6900 707.0000 1.0000
59.7000 693.0000 1.0000
59.7100 683.0000 1.0000
59.7200 736.0000 1.0000
59.7300 698.0000 1.0000
59.7400 717.0000 1.0000
59.7500 700.0000 1.0000
59.7600 711.0000 1.0000
59.7700 691.0000 1.0000
59.7800 717.0000 1.0000
59.7900 722.0000 1.0000
59.8000 703.0000 1.0000
59.8100 709.0000 1.0000
59.8200 679.0000 1.0000
59.8300 706.0000 1.0000
59.8400 740.0000 1.0000
59.8500 697.0000 1.0000
59.8600 696.0000 1.0000
59.8700 714.0000 1.0000
59.8800 665.0000 1.0000
59.8900 665.0000 1.0000
59.9000 693.0000 1.0000
59.9100 691.0000 1.0000
59.9200 662.0000 1.0000
59.9300 683.0000 1.0000
59.9400 683.0000 1.0000
59.9500 746.0000 1.0000
59.9600 683.0000 1.0000
59.9700 660.0000 1.0000
59.9800 701.0000 1.0000
59.9900 679.0000 1.0000
60.0000 703.0000 1.0000
60.0100 684.0000 1.0000
60.0200 695.0000 1.0000
60.0300 661.0000 1.0000
60.0400 767.0000 1.0000
60.0500 689.0000 1.0000
60.0600 693.0000 1.0000
60.0700 691.0000 1.0000
60.0800 731.0000 1.0000
60.0900 678.0000 1.0000
60.1000 684.0000 1.0000
60.1100 712.0000 1.0000
60.1200 734.0000 1.0000
60.1300 704.0000 1.0000
60.1400 690.0000 1.0000
60.1500 736.0000 1.0000
60.1600 750.0000 1.0000
60.1700 717.0000 1.0000
60.1800 650.0000 1.0000
60.1900 690.0000 1.0000
60.2000 705.0000 1.0000
60.2100 699.0000 1.0000
60.2200 686.0000 1.0000
60.2300 699.0000 1.0000
60.2400 695.0000 1.0000
60.2500 748.0000 1.0000
60.2600 700.0000 1.0000
60.2700 698.0000 1.0000
60.2800 697.0000 1.0000
60.2900 757.0000 1.0000
60.3000 737.0000 1.0000
60.3100 629.0000 1.0000
60.3200 704.0000 1.0000
60.3300 687.0000 1.0000
60.3400 752.0000 1.0000
60.3500 695.0000 1.0000
60.3600 738.0000 1.0000
60.3700 672.0000 1.0000
60.3800 749.0000 1.0000
60.3900 696.0000 1.0000
60.4000 674.0000 1.0000
60.4100 710.0000 1.0000
60.4200 704.0000 1.0000
60.4300 708.0000 1.0000
60.4400 692.0000 1.0000
60.4500 699.0000 1.0000
60.4600 689.0000 1.0000
60.4700 721.0000 1.0000
60.4800 705.0000 1.0000
60.4900 703.0000 1.0000
60.5000 692.0000 1.0000
60.5100 695.0000 1.0000
60.5200 698.0000 1.0000
60.5300 695.0000 1.0000
60.5400 683.0000 1.0000
60.5500 689.0000 1.0000
60.5600 690.0000 1.0000
60.5700 721.0000 1.0000
60.5800 732.0000 1.0000
60.5900 696.0000 1.0000
60.6000 690.0000 1.0000
60.6100 688.0000 1.0000
60.6200 702.0000 1.0000
60.6300 720.0000 1.0000
60.6400 714.0000 1.0000
60.6500 670.0000 1.0000
60.6600 680.0000 1.0000
60.6700 720.0000 1.0000
60.6800 723.0000 1.0000
60.6900 731.0000 1.0000
60.7000 685.0000 1.0000
60.7100 700.0000 1.0000
60.7200 768.0000 1.0000
60.7300 696.0000 1.0000
60.7400 666.0000 1.0000
60.7500 681.0000 1.0000
60.7600 712.0000 1.0000
60.7700 699.0000 1.0000
60.7800 739.0000 1.0000
60.7900 685.0000 1.0000
60.8000 721.0000 1.0000
60.8100 749.0000 1.0000
60.8200 744.0000 1.0000
60.8300 676.0000 1.0000
60.8400 688.0000 1.0000
60.8500 700.0000 1.0000
60.8600 702.0000 1.0000
60.8700 706.0000 1.0000
60.8800 695.0000 1.0000
60.8900 734.0000 1.0000
60.9000 723.0000 1.0000
60.9100 711.0000 1.0000
60.9200 710.0000 1.0000
60.9300 744.0000 1.0000
60.9400 732.0000 1.0000
60.9500 678.0000 1.0000
60.9600 696.0000 1.0000
60.9700 694.0000 1.0000
60.9800 709.0000 1.0000
60.9900 684.0000 1.0000
61.0000 688.0000 1.0000
61.0100 689.0000 1.0000
61.0200 705.0000 1.0000
61.0300 750.0000 1.0000
61.0400 755.0000 1.0000
61.0500 724.0000 1.0000
61.0600 713.0000 1.0000
61.0700 743.0000 1.0000
61.0800 705.0000 1.0000
61.0900 726.0000 1.0000
61.1000 693.0000 1.0000
61.1100 682.0000 1.0000
61.1200 737.0000 1.0000
61.1300 739.0000 1.0000
61.1400 715.0000 1.0000
61.1500 688.0000 1.0000
61.1600 725.0000 1.0000
61.1700 754.0000 1.0000
61.1800 736.0000 1.0000
61.1900 736.0000 1.0000
61.2000 722.0000 1.0000
61.2100 756.0000 1.0000
61.2200 706.0000 1.0000
61.2300 723.0000 1.0000
61.2400 716.0000 1.0000
61.2500 716.0000 1.0000
61.2600 728.0000 1.0000
61.2700 697.0000 1.0000
61.2800 710.0000 1.0000
61.2900 713.0000 1.0000
61.3000 725.0000 1.0000
61.3100 713.0000 1.0000
61.3200 703.0000 1.0000
61.3300 721.0000 1.0000
61.3400 697.0000 1.0000
61.3500 715.0000 1.0000
61.3600 683.0000 1.0000
61.3700 697.0000 1.0000
61.3800 714.0000 1.0000
61.3900 733.0000 1.0000
61.4000 723.0000 1.0000
61.4100 703.0000 1.0000
61.4200 752.0000 1.0000
61.4300 735.0000 1.0000
61.4400 765.0000 1.0000
61.4500 685.0000 1.0000
61.4600 733.0000 1.0000
61.4700 714.0000 1.0000
61.4800 691.0000 1.0000
61.4900 724.0000 1.0000
61.5000 735.0000 1.0000
61.5100 725.0000 1.0000
61.5200 734.0000 1.0000
61.5300 760.0000 1.0000
61.5400 733.0000 1.0000
61.5500 764.0000 1.0000
61.5600 762.0000 1.0000
61.5700 719.0000 1.0000
61.5800 729.0000 1.0000
61.5900 749.0000 1.0000
61.6000 738.0000 1.0000
61.6100 714.0000 1.0000
61.6200 677.0000 1.0000
61.6300 723.0000 1.0000
61.6400 727.0000 1.0000
61.6500 723.0000 1.0000
61.6600 721.0000 1.0000
61.6700 709.0000 1.0000
61.6800 755.0000 1.0000
61.6900 713.0000 1.0000
61.7000 698.0000 1.0000
61.7100 739.0000 1.0000
61.7200 779.0000 1.0000
61.7300 771.0000 1.0000
61.7400 699.0000 1.0000
61.7500 719.0000 1.0000
61.7600 698.0000 1.0000
61.7700 770.0000 1.0000
61.7800 757.0000 1.0000
61.7900 738.0000 1.0000
61.8000 720.0000 1.0000
61.8100 764.0000 1.0000
61.8200 781.0000 1.0000
61.8300 794.0000 1.0000
61.8400 779.0000 1.0000
61.8500 772.0000 1.0000
61.8600 754.0000 1.0000
61.8700 729.0000 1.0000
61.8800 777.0000 1.0000
61.8900 773.0000 1.0000
61.9000 760.0000 1.0000
61.9100 788.0000 1.0000
61.9200 799.0000 1.0000
61.9300 779.0000 1.0000
61.9400 806.0000 1.0000
61.9500 829.0000 1.0000
61.9600 855.0000 1.0000
61.9700 806.0000 1.0000
61.9800 818.0000 1.0000
61.9900 858.0000 1.0000
62.0000 860.0000 1.0000
62.0100 845.0000 1.0000
62.0200 846.0000 1.0000
62.0300 921.0000 1.0000
62.0400 954.0000 1.0000
62.0500 950.0000 1.0000
62.0600 872.0000 1.0000
62.0700 919.0000 1.0000
62.0800 899.0000 1.0000
62.0900 953.0000 1.0000
62.1000 973.0000 1.0000
62.1100 971.0000 1.0000
62.1200 987.0000 1.0000
62.1300 1075.0000 1.0000
62.1400 1104.0000 1.0000
62.1500 1095.0000 1.0000
62.1600 1122.0000 1.0000
62.1700 1136.0000 1.0000
62.1800 1212.0000 1.0000
62.1900 1220.0000 1.0000
62.2000 1236.0000 1.0000
62.2100 1252.0000 1.0000
62.2200 1348.0000 1.0000
62.2300 1384.0000 1.0000
62.2400 1395.0000 1.0000
62.2500 1452.0000 1.0000
62.2600 1436.0000 1.0000
62.2700 1440.0000 1.0000
62.2800 1534.0000 1.0000
62.2900 1543.0000 1.0000
62.3000 1537.0000 1.0000
62.3100 1591.0000 1.0000
62.3200 1640.0000 1.0000
62.3300 1711.0000 1.0000
62.3400 1705.0000 1.0000
62.3500 1680.0000 1.0000
62.3600 1685.0000 1.0000
62.3700 1665.0000 1.0000
62.3800 1727.0000 1.0000
62.3900 1708.0000 1.0000
62.4000 1669.0000 1.0000
62.4100 1664.0000 1.0000
62.4200 1653.0000 1.0000
62.4300 1578.0000 1.0000
62.4400 1614.0000 1.0000
62.4500 1601.0000 1.0000
62.4600 1564.0000 1.0000
62.4700 1537.0000 1.0000
62.4800 1541.0000 1.0000
62.4900 1516.0000 1.0000
62.5000 1535.0000 1.0000
62.5100 1431.0000 1.0000
62.5200 1370.0000 1.0000
62.5300 1369.0000 1.0000
62.5400 1407.0000 1.0000
62.5500 1404.0000 1.0000
62.5600 1404.0000 1.0000
62.5700 1266.0000 1.0000
62.5800 1244.0000 1.0000
62.5900 1266.0000 1.0000
62.6000 1253.0000 1.0000
62.6100 1234.0000 1.0000
62.6200 1221.0000 1.0000
62.6300 1150.0000 1.0000
62.6400 1129.0000 1.0000
62.6500 1137.0000 1.0000
62.6600 1130.0000 1.0000
62.6700 1095.0000 1.0000
62.6800 981.0000 1.0000
62.6900 995.0000 1.0000
62.7000 1007.0000 1.0000
62.7100 1030.0000 1.0000
62.7200 1017.0000 1.0000
62.7300 938.0000 1.0000
62.7400 927.0000 1.0000
62.7500 903.0000 1.0000
62.7600 924.0000 1.0000
62.7700 896.0000 1.0000
62.7800 939.0000 1.0000
62.7900 917.0000 1.0000
62.8000 869.0000 1.0000
62.8100 844.0000 1.0000
62.8200 842.0000 1.0000
62.8300 886.0000 1.0000
62.8400 845.0000 1.0000
62.8500 875.0000 1.0000
62.8600 800.0000 1.0000
62.8700 856.0000 1.0000
62.8800 803.0000 1.0000
62.8900 841.0000 1.0000
62.9000 828.0000 1.0000
62.9100 818.0000 1.0000
62.9200 812.0000 1.0000
62.9300 807.0000 1.0000
62.9400 821.0000 1.0000
62.9500 829.0000 1.0000
62.9600 774.0000 1.0000
62.9700 796.0000 1.0000
62.9800 807.0000 1.0000
62.9900 744.0000 1.0000
63.0000 780.0000 1.0000
63.0100 824.0000 1.0000
63.0200 761.0000 1.0000
63.0300 780.0000 1.0000
63.0400 775.0000 1.0000
63.0500 769.0000 1.0000
63.0600 788.0000 1.0000
63.0700 774.0000 1.0000
63.0800 805.0000 1.0000
63.0900 799.0000 1.0000
63.1000 795.0000 1.0000
63.1100 760.0000 1.0000
63.1200 805.0000 1.0000
63.1300 775.0000 1.0000
63.1400 800.0000 1.0000
63.1500 766.0000 1.0000
63.1600 803.0000 1.0000
63.1700 777.0000 1.0000
63.1800 749.0000 1.0000
63.1900 752.0000 1.0000
63.2000 746.0000 1.0000
63.2100 843.0000 1.0000
63.2200 760.0000 1.0000
63.2300 751.0000 1.0000
63.2400 718.0000 1.0000
63.2500 754.0000 1.0000
63.2600 764.0000 1.0000
63.2700 797.0000 1.0000
63.2800 791.0000 1.0000
63.2900 780.0000 1.0000
63.3000 735.0000 1.0000
63.3100 737.0000 1.0000
63.3200 781.0000 1.0000
63.3300 759.0000 1.0000
63.3400 744.0000 1.0000
63.3500 691.0000 1.0000
63.3600 740.0000 1.0000
63.3700 747.0000 1.0000
63.3800 737.0000 1.0000
63.3900 726.0000 1.0000
63.4000 719.0000 1.0000
63.4100 712.0000 1.0000
63.4200 737.0000 1.0000
63.4300 748.0000 1.0000
63.4400 728.0000 1.0000
63.4500 707.0000 1.0000
63.4600 719.0000 1.0000
63.4700 712.0000 1.0000
63.4800 703.0000 1.0000
63.4900 742.0000 1.0000
63.5000 725.0000 1.0000
63.5100 726.0000 1.0000
63.5200 731.0000 1.0000
63.5300 724.0000 1.0000
63.5400 700.0000 1.0000
63.5500 754.0000 1.0000
63.5600 735.0000 1.0000
63.5700 733.0000 1.0000
63.5800 725.0000 1.0000
63.5900 746.0000 1.0000
63.6000 732.0000 1.0000
63.6100 734.0000 1.0000
63.6200 740.0000 1.0000
63.6300 725.0000 1.0000
63.6400 720.0000 1.0000
63.6500 750.0000 1.0000
63.6600 694.0000 1.0000
63.6700 698.0000 1.0000
63.6800 707.0000 1.0000
63.6900 688.0000 1.0000
63.7000 677.0000 1.0000
63.7100 727.0000 1.0000
63.7200 729.0000 1.0000
63.7300 676.0000 1.0000
63.7400 713.0000 1.0000
63.7500 715.0000 1.0000
63.7600 719.0000 1.0000
63.7700 725.0000 1.0000
63.7800 743.0000 1.0000
63.7900 765.0000 1.0000
63.8000 744.0000 1.0000
63.8100 731.0000 1.0000
63.8200 728.0000 1.0000
63.8300 730.0000 1.0000
63.8400 736.0000 1.0000
63.8500 736.0000 1.0000
63.8600 728.0000 1.0000
63.8700 743.0000 1.0000
63.8800 701.0000 1.0000
63.8900 704.0000 1.0000
63.9000 732.0000 1.0000
63.9100 723.0000 1.0000
63.9200 712.0000 1.0000
63.9300 681.0000 1.0000
63.9400 684.0000 1.0000
63.9500 726.0000 1.0000
63.9600 681.0000 1.0000
63.9700 708.0000 1.0000
63.9800 705.0000 1.0000
63.9900 730.0000 1.0000
64.0000 706.0000 1.0000
64.0100 733.0000 1.0000
64.0200 741.0000 1.0000
64.0300 747.0000 1.0000
64.0400 713.0000 1.0000
64.0500 703.0000 1.0000
64.0600 730.0000 1.0000
64.0700 768.0000 1.0000
64.0800 703.0000 1.0000
64.0900 714.0000 1.0000
64.1000 736.0000 1.0000
64.1100 718.0000 1.0000
64.1200 728.0000 1.0000
64.1300 719.0000 1.0000
64.1400 704.0000 1.0000
64.1500 732.0000 1.0000
64.1600 687.0000 1.0000
64.1700 705.0000 1.0000
64.1800 736.0000 1.0000
64.1900 708.0000 1.0000
64.2000 716.0000 1.0000
64.2100 753.0000 1.0000
64.2200 708.0000 1.0000
64.2300 718.0000 1.0000
64.2400 729.0000 1.0000
64.2500 729.0000 1.0000
64.2600 731.0000 1.0000
64.2700 713.0000 1.0000
64.2800 739.0000 1.0000
64.2900 695.0000 1.0000
64.3000 713.0000 1.0000
64.3100 722.0000 1.0000
64.3200 723.0000 1.0000
64.3300 689.0000 1.0000
64.3400 722.0000 1.0000
64.3500 743.0000 1.0000
64.3600 726.0000 1.0000
64.3700 757.0000 1.0000
64.3800 707.0000 1.0000
64.3900 726.0000 1.0000
64.4000 661.0000 1.0000
64.4100 693.0000 1.0000
64.4200 716.0000 1.0000
64.4300 696.0000 1.0000
64.4400 698.0000 1.0000
64.4500 715.0000 1.0000
64.4600 697.0000 1.0000
64.4700 775.0000 1.0000
64.4800 709.0000 1.0000
64.4900 762.0000 1.0000
64.5000 777.0000 1.0000
64.5100 783.0000 1.0000
64.5200 773.0000 1.0000
64.5300 747.0000 1.0000
64.5400 747.0000 1.0000
64.5500 753.0000 1.0000
64.5600 791.0000 1.0000
64.5700 759.0000 1.0000
64.5800 730.0000 1.0000
64.5900 762.0000 1.0000
64.6000 792.0000 1.0000
64.6100 806.0000 1.0000
64.6200 797.0000 1.0000
64.6300 795.0000 1.0000
64.6400 816.0000 1.0000
64.6500 835.0000 1.0000
64.6600 820.0000 1.0000
64.6700 860.0000 1.0000
64.6800 834.0000 1.0000
64.6900 820.0000 1.0000
64.7000 863.0000 1.0000
64.7100 884.0000 1.0000
64.7200 903.0000 1.0000
64.7300 917.0000 1.0000
64.7400 893.0000 1.0000
64.7500 863.0000 1.0000
64.7600 898.0000 1.0000
64.7700 863.0000 1.0000
64.7800 912.0000 1.0000
64.7900 862.0000 1.0000
64.8000 880.0000 1.0000
64.8100 856.0000 1.0000
64.8200 839.0000 1.0000
64.8300 826.0000 1.0000
64.8400 870.0000 1.0000
64.8500 898.0000 1.0000
64.8600 815.0000 1.0000
64.8700 822.0000 1.0000
64.8800 861.0000 1.0000
64.8900 845.0000 1.0000
64.9000 865.0000 1.0000
64.9100 842.0000 1.0000
64.9200 866.0000 1.0000
64.9300 847.0000 1.0000
64.9400 844.0000 1.0000
64.9500 799.0000 1.0000
64.9600 785.0000 1.0000
64.9700 786.0000 1.0000
64.9800 795.0000 1.0000
64.9900 827.0000 1.0000
65.0000 847.0000 1.0000
65.0100 800.0000 1.0000
65.0200 815.0000 1.0000
65.0300 781.0000 1.0000
65.0400 781.0000 1.0000
65.0500 780.0000 1.0000
65.0600 838.0000 1.0000
65.0700 807.0000 1.0000
65.0800 817.0000 1.0000
65.0900 772.0000 1.0000
65.1000 762.0000 1.0000
65.1100 783.0000 1.0000
65.1200 769.0000 1.0000
65.1300 740.0000 1.0000
65.1400 737.0000 1.0000
65.1500 765.0000 1.0000
65.1600 807.0000 1.0000
65.1700 774.0000 1.0000
65.1800 786.0000 1.0000
65.1900 798.0000 1.0000
65.2000 803.0000 1.0000
65.2100 797.0000 1.0000
65.2200 757.0000 1.0000
65.2300 749.0000 1.0000
65.2400 699.0000 1.0000
65.2500 726.0000 1.0000
65.2600 753.0000 1.0000
65.2700 714.0000 1.0000
65.2800 715.0000 1.0000
65.2900 761.0000 1.0000
65.3000 747.0000 1.0000
65.3100 762.0000 1.0000
65.3200 726.0000 1.0000
65.3300 750.0000 1.0000
65.3400 732.0000 1.0000
65.3500 761.0000 1.0000
65.3600 770.0000 1.0000
65.3700 783.0000 1.0000
65.3800 759.0000 1.0000
65.3900 764.0000 1.0000
65.4000 773.0000 1.0000
65.4100 695.0000 1.0000
65.4200 748.0000 1.0000
65.4300 689.0000 1.0000
65.4400 674.0000 1.0000
65.4500 718.0000 1.0000
65.4600 759.0000 1.0000
65.4700 694.0000 1.0000
65.4800 707.0000 1.0000
65.4900 752.0000 1.0000
65.5000 716.0000 1.0000
65.5100 746.0000 1.0000
65.5200 784.0000 1.0000
65.5300 741.0000 1.0000
65.5400 690.0000 1.0000
65.5500 702.0000 1.0000
65.5600 721.0000 1.0000
65.5700 736.0000 1.0000
65.5800 710.0000 1.0000
65.5900 713.0000 1.0000
65.6000 713.0000 1.0000
65.6100 686.0000 1.0000
65.6200 744.0000 1.0000
65.6300 716.0000 1.0000
65.6400 756.0000 1.0000
65.6500 727.0000 1.0000
65.6600 756.0000 1.0000
65.6700 773.0000 1.0000
65.6800 749.0000 1.0000
65.6900 734.0000 1.0000
65.7000 748.0000 1.0000
65.7100 760.0000 1.0000
65.7200 772.0000 1.0000
65.7300 784.0000 1.0000
65.7400 804.0000 1.0000
65.7500 769.0000 1.0000
65.7600 744.0000 1.0000
65.7700 790.0000 1.0000
65.7800 775.0000 1.0000
65.7900 773.0000 1.0000
65.8000 820.0000 1.0000
65.8100 810.0000 1.0000
65.8200 784.0000 1.0000
65.8300 788.0000 1.0000
65.8400 872.0000 1.0000
65.8500 825.0000 1.0000
65.8600 767.0000 1.0000
65.8700 824.0000 1.0000
65.8800 794.0000 1.0000
65.8900 799.0000 1.0000
65.9000 866.0000 1.0000
65.9100 846.0000 1.0000
65.9200 848.0000 1.0000
65.9300 845.0000 1.0000
65.9400 859.0000 1.0000
65.9500 930.0000 1.0000
65.9600 883.0000 1.0000
65.9700 903.0000 1.0000
65.9800 930.0000 1.0000
65.9900 954.0000 1.0000
66.0000 991.0000 1.0000
66.0100 989.0000 1.0000
66.0200 1001.0000 1.0000
66.0300 956.0000 1.0000
66.0400 1003.0000 1.0000
66.0500 994.0000 1.0000
66.0600 1101.0000 1.0000
66.0700 1109.0000 1.0000
66.0800 1175.0000 1.0000
66.0900 1202.0000 1.0000
66.1000 1197.0000 1.0000
66.1100 1265.0000 1.0000
66.1200 1328.0000 1.0000
66.1300 1360.0000 1.0000
66.1400 1434.0000 1.0000
66.1500 1450.0000 1.0000
66.1600 1429.0000 1.0000
66.1700 1603.0000 1.0000
66.1800 1681.0000 1.0000
66.1900 1782.0000 1.0000
66.2000 1854.0000 1.0000
66.2100 1921.0000 1.0000
66.2200 2016.0000 1.0000
66.2300 2158.0000 1.0000
66.2400 2196.0000 1.0000
66.2500 2353.0000 1.0000
66.2600 2472.0000 1.0000
66.2700 2498.0000 1.0000
66.2800 2652.0000 1.0000
66.2900 2735.0000 1.0000
66.3000 2857.0000 1.0000
66.3100 2841.0000 1.0000
66.3200 2833.0000 1.0000
66.3300 2853.0000 1.0000
66.3400 2881.0000 1.0000
66.3500 2828.0000 1.0000
66.3600 2816.0000 1.0000
66.3700 2599.0000 1.0000
66.3800 2578.0000 1.0000
66.3900 2581.0000 1.0000
66.4000 2469.0000 1.0000
66.4100 2407.0000 1.0000
66.4200 2468.0000 1.0000
66.4300 2432.0000 1.0000
66.4400 2383.0000 1.0000
66.4500 2384.0000 1.0000
66.4600 2368.0000 1.0000
66.4700 2348.0000 1.0000
66.4800 2248.0000 1.0000
66.4900 2243.0000 1.0000
66.5000 2157.0000 1.0000
66.5100 2180.0000 1.0000
66.5200 2117.0000 1.0000
66.5300 2098.0000 1.0000
66.5400 1907.0000 1.0000
66.5500 1869.0000 1.0000
66.5600 1836.0000 1.0000
66.5700 1696.0000 1.0000
66.5800 1653.0000 1.0000
66.5900 1564.0000 1.0000
66.6000 1522.0000 1.0000
66.6100 1502.0000 1.0000
66.6200 1463.0000 1.0000
66.6300 1380.0000 1.0000
66.6400 1359.0000 1.0000
66.6500 1311.0000 1.0000
66.6600 1251.0000 1.0000
66.6700 1215.0000 1.0000
66.6800 1213.0000 1.0000
66.6900 1131.0000 1.0000
66.7000 1118.0000 1.0000
66.7100 1067.0000 1.0000
66.7200 1089.0000 1.0000
66.7300 1021.0000 1.0000
66.7400 1022.0000 1.0000
66.7500 1017.0000 1.0000
66.7600 949.0000 1.0000
66.7700 950.0000 1.0000
66.7800 912.0000 1.0000
66.7900 962.0000 1.0000
66.8000 877.0000 1.0000
66.8100 924.0000 1.0000
66.8200 860.0000 1.0000
66.8300 847.0000 1.0000
66.8400 840.0000 1.0000
66.8500 846.0000 1.0000
66.8600 856.0000 1.0000
66.8700 823.0000 1.0000
66.8800 861.0000 1.0000
66.8900 844.0000 1.0000
66.9000 773.0000 1.0000
66.9100 859.0000 1.0000
66.9200 819.0000 1.0000
66.9300 787.0000 1.0000
66.9400 742.0000 1.0000
66.9500 766.0000 1.0000
66.9600 797.0000 1.0000
66.9700 759.0000 1.0000
66.9800 759.0000 1.0000
66.9900 794.0000 1.0000
67.0000 789.0000 1.0000
67.0100 756.0000 1.0000
67.0200 735.0000 1.0000
67.0300 731.0000 1.0000
67.0400 737.0000 1.0000
67.0500 746.0000 1.0000
67.0600 737.0000 1.0000
67.0700 733.0000 1.0000
67.0800 723.0000 1.0000
67.0900 744.0000 1.0000
67.1000 728.0000 1.0000
67.1100 672.0000 1.0000
67.1200 657.0000 1.0000
67.1300 707.0000 1.0000
67.1400 711.0000 1.0000
67.1500 704.0000 1.0000
67.1600 702.0000 1.0000
67.1700 675.0000 1.0000
67.1800 694.0000 1.0000
67.1900 716.0000 1.0000
67.2000 722.0000 1.0000
67.2100 700.0000 1.0000
67.2200 719.0000 1.0000
67.2300 717.0000 1.0000
67.2400 699.0000 1.0000
67.2500 726.0000 1.0000
67.2600 655.0000 1.0000
67.2700 683.0000 1.0000
67.2800 691.0000 1.0000
67.2900 685.0000 1.0000
67.3000 710.0000 1.0000
67.3100 687.0000 1.0000
67.3200 722.0000 1.0000
67.3300 711.0000 1.0000
67.3400 665.0000 1.0000
67.3500 661.0000 1.0000
67.3600 719.0000 1.0000
67.3700 665.0000 1.0000
67.3800 670.0000 1.0000
67.3900 650.0000 1.0000
67.4000 684.0000 1.0000
67.4100 660.0000 1.0000
67.4200 643.0000 1.0000
67.4300 700.0000 1.0000
67.4400 708.0000 1.0000
67.4500 674.0000 1.0000
67.4600 682.0000 1.0000
67.4700 645.0000 1.0000
67.4800 707.0000 1.0000
67.4900 674.0000 1.0000
67.5000 679.0000 1.0000
67.5100 683.0000 1.0000
67.5200 711.0000 1.0000
67.5300 698.0000 1.0000
67.5400 697.0000 1.0000
67.5500 679.0000 1.0000
67.5600 634.0000 1.0000
67.5700 672.0000 1.0000
67.5800 680.0000 1.0000
67.5900 676.0000 1.0000
67.6000 653.0000 1.0000
67.6100 639.0000 1.0000
67.6200 651.0000 1.0000
67.6300 667.0000 1.0000
67.6400 658.0000 1.0000
67.6500 673.0000 1.0000
67.6600 687.0000 1.0000
67.6700 696.0000 1.0000
67.6800 652.0000 1.0000
67.6900 700.0000 1.0000
67.7000 670.0000 1.0000
67.7100 650.0000 1.0000
67.7200 675.0000 1.0000
67.7300 696.0000 1.0000
67.7400 690.0000 1.0000
67.7500 642.0000 1.0000
67.7600 667.0000 1.0000
67.7700 652.0000 1.0000
67.7800 700.0000 1.0000
67.7900 650.0000 1.0000
67.8000 666.0000 1.0000
67.8100 677.0000 1.0000
67.8200 662.0000 1.0000
67.8300 635.0000 1.0000
67.8400 646.0000 1.0000
67.8500 650.0000 1.0000
67.8600 674.0000 1.0000
67.8700 651.0000 1.0000
67.8800 629.0000 1.0000
67.8900 597.0000 1.0000
67.9000 700.0000 1.0000
67.9100 644.0000 1.0000
67.9200 636.0000 1.0000
67.9300 663.0000 1.0000
67.9400 621.0000 1.0000
67.9500 654.0000 1.0000
67.9600 610.0000 1.0000
67.9700 660.0000 1.0000
67.9800 656.0000 1.0000
67.9900 658.0000 1.0000
68.0000 668.0000 1.0000
68.0100 652.0000 1.0000
68.0200 668.0000 1.0000
68.0300 676.0000 1.0000
68.0400 665.0000 1.0000
68.0500 646.0000 1.0000
68.0600 653.0000 1.0000
68.0700 631.0000 1.0000
68.0800 644.0000 1.0000
68.0900 624.0000 1.0000
68.1000 673.0000 1.0000
68.1100 670.0000 1.0000
68.1200 623.0000 1.0000
68.1300 617.0000 1.0000
68.1400 641.0000 1.0000
68.1500 668.0000 1.0000
68.1600 647.0000 1.0000
68.1700 609.0000 1.0000
68.1800 650.0000 1.0000
68.1900 614.0000 1.0000
68.2000 622.0000 1.0000
68.2100 649.0000 1.0000
68.2200 632.0000 1.0000
68.2300 643.0000 1.0000
68.2400 662.0000 1.0000
68.2500 695.0000 1.0000
68.2600 651.0000 1.0000
68.2700 650.0000 1.0000
68.2800 702.0000 1.0000
68.2900 663.0000 1.0000
68.3000 634.0000 1.0000
68.3100 668.0000 1.0000
68.3200 675.0000 1.0000
68.3300 630.0000 1.0000
68.3400 641.0000 1.0000
68.3500 608.0000 1.0000
68.3600 658.0000 1.0000
68.3700 664.0000 1.0000
68.3800 658.0000 1.0000
68.3900 625.0000 1.0000
68.4000 676.0000 1.0000
68.4100 694.0000 1.0000
68.4200 673.0000 1.0000
68.4300 622.0000 1.0000
68.4400 653.0000 1.0000
68.4500 630.0000 1.0000
68.4600 605.0000 1.0000
68.4700 633.0000 1.0000
68.4800 688.0000 1.0000
68.4900 640.0000 1.0000
68.5000 652.0000 1.0000
68.5100 632.0000 1.0000
68.5200 604.0000 1.0000
68.5300 594.0000 1.0000
68.5400 608.0000 1.0000
68.5500 607.0000 1.0000
68.5600 616.0000 1.0000
68.5700 622.0000 1.0000
68.5800 649.0000 1.0000
68.5900 647.0000 1.0000
68.6000 640.0000 1.0000
68.6100 654.0000 1.0000
68.6200 620.0000 1.0000
68.6300 611.0000 1.0000
68.6400 619.0000 1.0000
68.6500 632.0000 1.0000
68.6600 672.0000 1.0000
68.6700 613.0000 1.0000
68.6800 625.0000 1.0000
68.6900 620.0000 1.0000
68.7000 652.0000 1.0000
68.7100 652.0000 1.0000
68.7200 673.0000 1.0000
68.7300 622.0000 1.0000
68.7400 614.0000 1.0000
68.7500 613.0000 1.0000
68.7600 620.0000 1.0000
68.7700 608.0000 1.0000
68.7800 568.0000 1.0000
68.7900 606.0000 1.0000
68.8000 628.0000 1.0000
68.8100 701.0000 1.0000
68.8200 691.0000 1.0000
68.8300 633.0000 1.0000
68.8400 630.0000 1.0000
68.8500 660.0000 1.0000
68.8600 639.0000 1.0000
68.8700 666.0000 1.0000
68.8800 623.0000 1.0000
68.8900 648.0000 1.0000
68.9000 605.0000 1.0000
68.9100 638.0000 1.0000
68.9200 637.0000 1.0000
68.9300 622.0000 1.0000
68.9400 637.0000 1.0000
68.9500 638.0000 1.0000
68.9600 653.0000 1.0000
68.9700 618.0000 1.0000
68.9800 602.0000 1.0000
68.9900 620.0000 1.0000
69.0000 615.0000 1.0000
69.0100 604.0000 1.0000
69.0200 618.0000 1.0000
69.0300 595.0000 1.0000
69.0400 605.0000 1.0000
69.0500 658.0000 1.0000
69.0600 622.0000 1.0000
69.0700 603.0000 1.0000
69.0800 640.0000 1.0000
69.0900 645.0000 1.0000
69.1000 620.0000 1.0000
69.1100 619.0000 1.0000
69.1200 663.0000 1.0000
69.1300 605.0000 1.0000
69.1400 608.0000 1.0000
69.1500 606.0000 1.0000
69.1600 678.0000 1.0000
69.1700 633.0000 1.0000
69.1800 631.0000 1.0000
69.1900 651.0000 1.0000
69.2000 622.0000 1.0000
69.2100 615.0000 1.0000
69.2200 581.0000 1.0000
69.2300 621.0000 1.0000
69.2400 689.0000 1.0000
69.2500 605.0000 1.0000
69.2600 605.0000 1.0000
69.2700 624.0000 1.0000
69.2800 647.0000 1.0000
69.2900 640.0000 1.0000
69.3000 561.0000 1.0000
69.3100 621.0000 1.0000
69.3200 616.0000 1.0000
69.3300 617.0000 1.0000
69.3400 624.0000 1.0000
69.3500 650.0000 1.0000
69.3600 641.0000 1.0000
69.3700 610.0000 1.0000
69.3800 651.0000 1.0000
69.3900 590.0000 1.0000
69.4000 612.0000 1.0000
69.4100 615.0000 1.0000
69.4200 628.0000 1.0000
69.4300 610.0000 1.0000
69.4400 641.0000 1.0000
69.4500 646.0000 1.0000
69.4600 652.0000 1.0000
69.4700 617.0000 1.0000
69.4800 585.0000 1.0000
69.4900 610.0000 1.0000
69.5000 655.0000 1.0000
69.5100 659.0000 1.0000
69.5200 659.0000 1.0000
69.5300 622.0000 1.0000
69.5400 680.0000 1.0000
69.5500 638.0000 1.0000
69.5600 605.0000 1.0000
69.5700 661.0000 1.0000
69.5800 648.0000 1.0000
69.5900 643.0000 1.0000
69.6000 637.0000 1.0000
69.6100 616.0000 1.0000
69.6200 642.0000 1.0000
69.6300 633.0000 1.0000
69.6400 666.0000 1.0000
69.6500 607.0000 1.0000
69.6600 627.0000 1.0000
69.6700 612.0000 1.0000
69.6800 630.0000 1.0000
69.6900 645.0000 1.0000
69.7000 654.0000 1.0000
69.7100 624.0000 1.0000
69.7200 623.0000 1.0000
69.7300 656.0000 1.0000
69.7400 620.0000 1.0000
69.7500 598.0000 1.0000
69.7600 622.0000 1.0000
69.7700 622.0000 1.0000
69.7800 647.0000 1.0000
69.7900 603.0000 1.0000
69.8000 588.0000 1.0000
69.8100 591.0000 1.0000
69.8200 657.0000 1.0000
69.8300 620.0000 1.0000
69.8400 635.0000 1.0000
69.8500 633.0000 1.0000
69.8600 594.0000 1.0000
69.8700 622.0000 1.0000
69.8800 601.0000 1.0000
69.8900 590.0000 1.0000
69.9000 626.0000 1.0000
69.9100 601.0000 1.0000
69.9200 632.0000 1.0000
69.9300 638.0000 1.0000
69.9400 625.0000 1.0000
69.9500 597.0000 1.0000
69.9600 630.0000 1.0000
69.9700 587.0000 1.0000
69.9800 630.0000 1.0000
69.9900 644.0000 1.0000
70.0000 556.0000 1.0000
*RAS_INT_END
*RAS_TEMPERATURE_START
*RAS_TEMPERATURE_END
*RAS_DATA_END
