*RAS_DATA_START
*RAS_HEADER_START
*DISP_FMT_X "%.2f"
*DISP_FMT_Y "%.0f"
*DISP_FULLSCALE "12970.0000000000"
*DISP_LINE_COLOR "255.0000000000"
*DISP_LINE_STYLE "0.0000000000"
*DISP_LINE_WIDTH "0.2500000000"
*DISP_NOTE "測定データ-1"
*DISP_OFFSET_Y "0.0000000000"
*DISP_PEAKSEARCH_UNIT_Y "cps"
*DISP_RANGE_BOTTOM "0.0000000000"
*DISP_RANGE_LEFT "20.0000000000"
*DISP_RANGE_LOGCUTOFF "0.0100000000"
*DISP_RANGE_RIGHT "70.0000000000"
*DISP_RANGE_TOP "12970.0000000000"
*DISP_SCALE_MODE_Y "0.0000000000"
*DISP_TAB_NAME "2θ/θ"
*DISP_TITLE_Y "強度"
*DISP_UNIT_Y "cps"
*DISP_WINDOW_NAME "MSG_MACROENGINE"
*FILE_COMMENT " "
*FILE_MD5 ""
*FILE_MEMO " "
*FILE_OPERATOR "Administrator"
*FILE_SAMPLE " "
*FILE_TYPE "RAS_RAW"
*FILE_USERGROUP "システムマネージャ"
*FILE_VERSION "1.0000000000"
*HW_ATTACHMENT_ID "ATT0025"
*HW_ATTACHMENT_NAME "標準|Standard"
*HW_COUNTER_ID-0 "CUT0025"
*HW_COUNTER_ID-1 "CUT0020"
*HW_COUNTER_ID-2 "CUT0020"
*HW_COUNTER_ID-3 "CSL0021"
*HW_COUNTER_ID-4 "CMC0021"
*HW_COUNTER_NAME-0 "D/teX Ultra|D/teX Ultra"
*HW_COUNTER_NAME-1 "None|None"
*HW_COUNTER_NAME-2 "None|None"
*HW_COUNTER_NAME-3 "BBM|BBM"
*HW_COUNTER_NAME-4 "検出器モノクロメータ|Detector monochromator"
*HW_COUNTER_SELECT_NAME "D/teX Ultra|D/teX Ultra"
*HW_GONIOMETER_ID "GON0023"
*HW_GONIOMETER_NAME "SmartLab|SmartLab"
*HW_GONIOMETER_RADIUS-0 "90.0"
*HW_GONIOMETER_RADIUS-1 "114.0"
*HW_GONIOMETER_RADIUS-2 "190.0"
*HW_GONIOMETER_RADIUS-3 "300.0"
*HW_GONIOMETER_RADIUS-4 "187.0"
*HW_GONIOMETER_RADIUS-5 "300.0"
*HW_GONIOMETER_RADIUS-6 "113.0"
*HW_GONIOMETER_RADIUS-7 "331.0"
*HW_I_OPT_ID-0 "CBO0021"
*HW_I_OPT_ID-1 "ICR0023"
*HW_I_OPT_ID-2 "ISL0021"
*HW_I_OPT_ID-3 "ISO0021"
*HW_I_OPT_ID-4 "IAD0021"
*HW_I_OPT_ID-5 "IPR0001"
*HW_I_OPT_NAME-0 "CBOユニット|CBO unit"
*HW_I_OPT_NAME-1 "標準入射光学ユニット|Standard incident optical unit"
*HW_I_OPT_NAME-2 "標準入射スリットボックス|Standard incident slit box"
*HW_I_OPT_NAME-3 "入射平行スリット|Incident parallel slit"
*HW_I_OPT_NAME-4 "長手制限スリット|Length limiting slit"
*HW_I_OPT_NAME-5 "None|None"
*HW_R_ATTENUATER_AUTOMODE "0"
*HW_R_OPT_ID-0 "RSS0021"
*HW_R_OPT_ID-1 "RCR0023"
*HW_R_OPT_ID-2 "RSO0021"
*HW_R_OPT_ID-3 "RRS0021"
*HW_R_OPT_ID-4 "ATN0021"
*HW_R_OPT_ID-5 "RFL0021"
*HW_R_OPT_ID-6 "RAD0021"
*HW_R_OPT_NAME-0 "標準受光スリットボックス1|Standard receiving slit box # 1"
*HW_R_OPT_NAME-1 "標準受光光学ユニット1|Standard receiving unit # 1"
*HW_R_OPT_NAME-2 "標準受光光学ユニット2|Standard receiving optical unit # 2"
*HW_R_OPT_NAME-3 "標準受光スリットボックス2|Standard receiving slit box # 2"
*HW_R_OPT_NAME-4 "標準アッテネータ|Standard Attenuator"
*HW_R_OPT_NAME-5 "Cu Kβ|Cu K-beta"
*HW_R_OPT_NAME-6 "調整用受光スリット|Alignment receiving slit"
*HW_SAMPLE_HOLDER_ID "SMP0023"
*HW_SAMPLE_HOLDER_NAME "標準Zステージ|Standard Z stage"
*HW_XG_CURRENT_MAX "50"
*HW_XG_CURRENT_MIN "2"
*HW_XG_CURRENT_RESOLUTION "1"
*HW_XG_CURRENT_UNIT "mA"
*HW_XG_FOCUS "1mm x 10mm"
*HW_XG_FOCUS_TYPE "Normal"
*HW_XG_ID ""
*HW_XG_NAME "3kW 封入管(ID:1200)|3kW Sealed tube(ID:1200)"
*HW_XG_TARGET_ATOMIC_NUMBER "29.0000000000"
*HW_XG_TARGET_NAME "Cu"
*HW_XG_TYPE "Hermetic"
*HW_XG_VOLTAGE_MAX "60"
*HW_XG_VOLTAGE_MIN "20"
*HW_XG_VOLTAGE_RESOLUTION "1"
*HW_XG_VOLTAGE_UNIT "kV"
*HW_XG_WATT_MAX "1.500"
*HW_XG_WATT_UNIT "kW"
*HW_XG_WAVE_LENGTH_ALPHA1 "1.540593"
*HW_XG_WAVE_LENGTH_ALPHA2 "1.544414"
*HW_XG_WAVE_LENGTH_BETA "1.392250"
*MEAS_COND_AXIS_NAME-0 "2θ/θ"
*MEAS_COND_AXIS_NAME-1 "2θ"
*MEAS_COND_AXIS_NAME-2 "ω"
*MEAS_COND_AXIS_NAME-3 "Z"
*MEAS_COND_AXIS_NAME-4 "2θ/ω"
*MEAS_COND_AXIS_NAME-5 "θs"
*MEAS_COND_AXIS_NAME-6 "θd"
*MEAS_COND_AXIS_NAME-7 "Ts"
*MEAS_COND_AXIS_NAME-8 "CBO選択スリット"
*MEAS_COND_AXIS_NAME-9 "M"
*MEAS_COND_AXIS_NAME-10 "入射平行スリット"
*MEAS_COND_AXIS_NAME-11 "入射スリット"
*MEAS_COND_AXIS_NAME-12 ""
*MEAS_COND_AXIS_NAME-13 "Zs"
*MEAS_COND_AXIS_NAME-14 "入射光学素子"
*MEAS_COND_AXIS_NAME-15 "長手制限スリット"
*MEAS_COND_AXIS_NAME-16 "センタースリット"
*MEAS_COND_AXIS_NAME-17 "フィルター"
*MEAS_COND_AXIS_NAME-18 "受光スリット1"
*MEAS_COND_AXIS_NAME-19 "受光スリット2"
*MEAS_COND_AXIS_NAME-20 "受光光学素子"
*MEAS_COND_AXIS_NAME-21 "受光平行スリット"
*MEAS_COND_AXIS_NAME-22 "調整用受光スリット"
*MEAS_COND_AXIS_NAME-23 ""
*MEAS_COND_AXIS_NAME-24 ""
*MEAS_COND_AXIS_NAME-25 "Zd"
*MEAS_COND_AXIS_NAME-26 "アッテネータ"
*MEAS_COND_AXIS_NAME-27 "検出器モノクロメータ"
*MEAS_COND_AXIS_NAME-28 "モノクロメータスリット"
*MEAS_COND_AXIS_NAME-29 "プライマリビーム"
*MEAS_COND_AXIS_NAME-30 "PHA"
*MEAS_COND_AXIS_NAME_INTERNAL-0 "TwoThetaTheta"
*MEAS_COND_AXIS_NAME_INTERNAL-1 "TwoTheta"
*MEAS_COND_AXIS_NAME_INTERNAL-2 "Omega"
*MEAS_COND_AXIS_NAME_INTERNAL-3 "Z"
*MEAS_COND_AXIS_NAME_INTERNAL-4 "TwoThetaOmega"
*MEAS_COND_AXIS_NAME_INTERNAL-5 "ThetaS"
*MEAS_COND_AXIS_NAME_INTERNAL-6 "ThetaD"
*MEAS_COND_AXIS_NAME_INTERNAL-7 "Ts"
*MEAS_COND_AXIS_NAME_INTERNAL-8 "CBO"
*MEAS_COND_AXIS_NAME_INTERNAL-9 "CBO-M"
*MEAS_COND_AXIS_NAME_INTERNAL-10 "IncidentSollerSlit"
*MEAS_COND_AXIS_NAME_INTERNAL-11 "IncidentSlitBox"
*MEAS_COND_AXIS_NAME_INTERNAL-12 "IncidentSlitBox-_Axis"
*MEAS_COND_AXIS_NAME_INTERNAL-13 "Zs"
*MEAS_COND_AXIS_NAME_INTERNAL-14 "IncidentMonochromator"
*MEAS_COND_AXIS_NAME_INTERNAL-15 "IncidentAxdSlit"
*MEAS_COND_AXIS_NAME_INTERNAL-16 "CenterSlit"
*MEAS_COND_AXIS_NAME_INTERNAL-17 "Filter"
*MEAS_COND_AXIS_NAME_INTERNAL-18 "ReceivingSlitBox1"
*MEAS_COND_AXIS_NAME_INTERNAL-19 "ReceivingSlitBox2"
*MEAS_COND_AXIS_NAME_INTERNAL-20 "ReceivingOptics"
*MEAS_COND_AXIS_NAME_INTERNAL-21 "ReceivingSollerSlit"
*MEAS_COND_AXIS_NAME_INTERNAL-22 "ReceivingAxdSlit"
*MEAS_COND_AXIS_NAME_INTERNAL-23 "ReceivingSlitBox1-_Axis"
*MEAS_COND_AXIS_NAME_INTERNAL-24 "ReceivingSlitBox2-_Axis"
*MEAS_COND_AXIS_NAME_INTERNAL-25 "ReceivingSlitBox2-Zd"
*MEAS_COND_AXIS_NAME_INTERNAL-26 "Attenuator"
*MEAS_COND_AXIS_NAME_INTERNAL-27 "CounterMonochromator"
*MEAS_COND_AXIS_NAME_INTERNAL-28 "CounterSlit"
*MEAS_COND_AXIS_NAME_INTERNAL-29 "IncidentPrimary"
*MEAS_COND_AXIS_NAME_INTERNAL-30 "PHA"
*MEAS_COND_AXIS_NAME_MAGICNO-0 "83951616.0000000000"
*MEAS_COND_AXIS_NAME_MAGICNO-1 "268632064.0000000000"
*MEAS_COND_AXIS_NAME_MAGICNO-2 "268500992.0000000000"
*MEAS_COND_AXIS_NAME_MAGICNO-3 "285278208.0000000000"
*MEAS_COND_AXIS_NAME_MAGICNO-4 "83951616.0000000000"
*MEAS_COND_AXIS_NAME_MAGICNO-5 "131072.0000000000"
*MEAS_COND_AXIS_NAME_MAGICNO-6 "131072.0000000000"
*MEAS_COND_AXIS_NAME_MAGICNO-7 "318898176.0000000000"
*MEAS_COND_AXIS_NAME_MAGICNO-8 "20971521.0000000000"
*MEAS_COND_AXIS_NAME_MAGICNO-9 "285343744.0000000000"
*MEAS_COND_AXIS_NAME_MAGICNO-10 "20971521.0000000000"
*MEAS_COND_AXIS_NAME_MAGICNO-11 "22020097.0000000000"
*MEAS_COND_AXIS_NAME_MAGICNO-12 "25165824.0000000000"
*MEAS_COND_AXIS_NAME_MAGICNO-13 "318898176.0000000000"
*MEAS_COND_AXIS_NAME_MAGICNO-14 "1.0000000000"
*MEAS_COND_AXIS_NAME_MAGICNO-15 "20971521.0000000000"
*MEAS_COND_AXIS_NAME_MAGICNO-16 "20971521.0000000000"
*MEAS_COND_AXIS_NAME_MAGICNO-17 "20971521.0000000000"
*MEAS_COND_AXIS_NAME_MAGICNO-18 "23068673.0000000000"
*MEAS_COND_AXIS_NAME_MAGICNO-19 "23068673.0000000000"
*MEAS_COND_AXIS_NAME_MAGICNO-20 "20971521.0000000000"
*MEAS_COND_AXIS_NAME_MAGICNO-21 "20971521.0000000000"
*MEAS_COND_AXIS_NAME_MAGICNO-22 "20971521.0000000000"
*MEAS_COND_AXIS_NAME_MAGICNO-23 "25165824.0000000000"
*MEAS_COND_AXIS_NAME_MAGICNO-24 "25165824.0000000000"
*MEAS_COND_AXIS_NAME_MAGICNO-25 "285343744.0000000000"
*MEAS_COND_AXIS_NAME_MAGICNO-26 "17301505.0000000000"
*MEAS_COND_AXIS_NAME_MAGICNO-27 "20971521.0000000000"
*MEAS_COND_AXIS_NAME_MAGICNO-28 "20971521.0000000000"
*MEAS_COND_AXIS_NAME_MAGICNO-29 "20971521.0000000000"
*MEAS_COND_AXIS_NAME_MAGICNO-30 "0.0000000000"
*MEAS_COND_AXIS_OFFSET-0 "-"
*MEAS_COND_AXIS_OFFSET-1 "-0.1081000000"
*MEAS_COND_AXIS_OFFSET-2 "-1.4215000000"
*MEAS_COND_AXIS_OFFSET-3 "-"
*MEAS_COND_AXIS_OFFSET-4 "-"
*MEAS_COND_AXIS_OFFSET-5 "-1.4215000000"
*MEAS_COND_AXIS_OFFSET-6 "1.3134000000"
*MEAS_COND_AXIS_OFFSET-7 "-"
*MEAS_COND_AXIS_OFFSET-8 "-"
*MEAS_COND_AXIS_OFFSET-9 "-"
*MEAS_COND_AXIS_OFFSET-10 "-"
*MEAS_COND_AXIS_OFFSET-11 "-"
*MEAS_COND_AXIS_OFFSET-12 "-"
*MEAS_COND_AXIS_OFFSET-13 "-"
*MEAS_COND_AXIS_OFFSET-14 "-"
*MEAS_COND_AXIS_OFFSET-15 "-"
*MEAS_COND_AXIS_OFFSET-16 "-"
*MEAS_COND_AXIS_OFFSET-17 "-"
*MEAS_COND_AXIS_OFFSET-18 "-"
*MEAS_COND_AXIS_OFFSET-19 "-"
*MEAS_COND_AXIS_OFFSET-20 "-"
*MEAS_COND_AXIS_OFFSET-21 "-"
*MEAS_COND_AXIS_OFFSET-22 "-"
*MEAS_COND_AXIS_OFFSET-23 "-"
*MEAS_COND_AXIS_OFFSET-24 "-"
*MEAS_COND_AXIS_OFFSET-25 "-"
*MEAS_COND_AXIS_OFFSET-26 "-"
*MEAS_COND_AXIS_OFFSET-27 "-"
*MEAS_COND_AXIS_OFFSET-28 "-"
*MEAS_COND_AXIS_OFFSET-29 "-"
*MEAS_COND_AXIS_OFFSET-30 "-"
*MEAS_COND_AXIS_POSITION-0 "0.0000000000"
*MEAS_COND_AXIS_POSITION-1 "0.0000000000"
*MEAS_COND_AXIS_POSITION-2 "0.0000000000"
*MEAS_COND_AXIS_POSITION-3 "-2.3638400000"
*MEAS_COND_AXIS_POSITION-4 "0.0000000000"
*MEAS_COND_AXIS_POSITION-5 "0.0000000000"
*MEAS_COND_AXIS_POSITION-6 "0.0000000000"
*MEAS_COND_AXIS_POSITION-7 "-0.4278800000"
*MEAS_COND_AXIS_POSITION-8 "BB"
*MEAS_COND_AXIS_POSITION-9 "0.0000000000"
*MEAS_COND_AXIS_POSITION-10 "Soller_slit_5.0deg"
*MEAS_COND_AXIS_POSITION-11 "2/3deg"
*MEAS_COND_AXIS_POSITION-12 "2.2088000000"
*MEAS_COND_AXIS_POSITION-13 "-0.4140600000"
*MEAS_COND_AXIS_POSITION-14 "0.0000000000"
*MEAS_COND_AXIS_POSITION-15 "10.0mm"
*MEAS_COND_AXIS_POSITION-16 "None"
*MEAS_COND_AXIS_POSITION-17 "Cu_K-beta"
*MEAS_COND_AXIS_POSITION-18 "13.000mm"
*MEAS_COND_AXIS_POSITION-19 "13.000mm"
*MEAS_COND_AXIS_POSITION-20 "No_unit"
*MEAS_COND_AXIS_POSITION-21 "Soller_slit_5.0deg"
*MEAS_COND_AXIS_POSITION-22 "None"
*MEAS_COND_AXIS_POSITION-23 "13.0000000000"
*MEAS_COND_AXIS_POSITION-24 "13.0000000000"
*MEAS_COND_AXIS_POSITION-25 "0.0109400000"
*MEAS_COND_AXIS_POSITION-26 "Open"
*MEAS_COND_AXIS_POSITION-27 "None"
*MEAS_COND_AXIS_POSITION-28 "None"
*MEAS_COND_AXIS_POSITION-29 "None"
*MEAS_COND_AXIS_POSITION-30 "38.0000000000"
*MEAS_COND_AXIS_UNIT-0 "deg"
*MEAS_COND_AXIS_UNIT-1 "deg"
*MEAS_COND_AXIS_UNIT-2 "deg"
*MEAS_COND_AXIS_UNIT-3 "mm"
*MEAS_COND_AXIS_UNIT-4 "deg"
*MEAS_COND_AXIS_UNIT-5 "deg"
*MEAS_COND_AXIS_UNIT-6 "deg"
*MEAS_COND_AXIS_UNIT-7 "mm"
*MEAS_COND_AXIS_UNIT-8 ""
*MEAS_COND_AXIS_UNIT-9 "pulse"
*MEAS_COND_AXIS_UNIT-10 ""
*MEAS_COND_AXIS_UNIT-11 ""
*MEAS_COND_AXIS_UNIT-12 "mm"
*MEAS_COND_AXIS_UNIT-13 "mm"
*MEAS_COND_AXIS_UNIT-14 ""
*MEAS_COND_AXIS_UNIT-15 ""
*MEAS_COND_AXIS_UNIT-16 ""
*MEAS_COND_AXIS_UNIT-17 ""
*MEAS_COND_AXIS_UNIT-18 ""
*MEAS_COND_AXIS_UNIT-19 ""
*MEAS_COND_AXIS_UNIT-20 ""
*MEAS_COND_AXIS_UNIT-21 ""
*MEAS_COND_AXIS_UNIT-22 ""
*MEAS_COND_AXIS_UNIT-23 "mm"
*MEAS_COND_AXIS_UNIT-24 "mm"
*MEAS_COND_AXIS_UNIT-25 "mm"
*MEAS_COND_AXIS_UNIT-26 ""
*MEAS_COND_AXIS_UNIT-27 ""
*MEAS_COND_AXIS_UNIT-28 ""
*MEAS_COND_AXIS_UNIT-29 ""
*MEAS_COND_AXIS_UNIT-30 "div"
*MEAS_COND_COUNTER_CNTLOSS_CORR "0.0000000000"
*MEAS_COND_COUNTER_PHABASE "38.0000000000"
*MEAS_COND_COUNTER_PHAWINDOW "16.0000000000"
*MEAS_COND_COUNTER_PHA_UNIT "div"
*MEAS_COND_COUNTER_TAUDIFF "30.0000000000"
*MEAS_COND_COUNTER_TAUINT "0.0000000000"
*MEAS_COND_IRRADIATION_MODE "OFF"
*MEAS_COND_IRRADIATION_WIDTH ""
*MEAS_COND_OPT_ATTR "集中法"
*MEAS_COND_OPT_NAME "@集中法"
*MEAS_COND_UNSYMMETRIC_MODE "OFF"
*MEAS_COND_XG_CURRENT "30.0000000000"
*MEAS_COND_XG_VOLTAGE "40.0000000000"
*MEAS_COND_XG_WAVE_TYPE "Ka"
*MEAS_DATA_COUNT "5001.0000000000"
*MEAS_SCAN_AXIS_X "2θ/θ"
*MEAS_SCAN_AXIS_X_INTERNAL "TwoThetaTheta"
*MEAS_SCAN_END_TIME "06/03/22 11:52:08"
*MEAS_SCAN_MODE "CONTINUOUS"
*MEAS_SCAN_MONITOR "0"
*MEAS_SCAN_RESOLUTION_X "0.0002"
*MEAS_SCAN_SPEED "2.5"
*MEAS_SCAN_SPEED_UNIT "deg/min"
*MEAS_SCAN_START "20.0000000000"
*MEAS_SCAN_START_TIME "06/03/22 11:30:44"
*MEAS_SCAN_STEP "0.0100000000"
*MEAS_SCAN_STOP "70.0000000000"
*MEAS_SCAN_UNIT_X "deg"
*MEAS_SCAN_UNIT_Y "counts"
*RAS_HEADER_END
*RAS_INT_START
20.0000 756.0000 1.0000
20.0100 739.0000 1.0000
20.0200 766.0000 1.0000
20.0300 746.0000 1.0000
20.0400 744.0000 1.0000
20.0500 704.0000 1.0000
20.0600 770.0000 1.0000
20.0700 723.0000 1.0000
20.0800 729.0000 1.0000
20.0900 687.0000 1.0000
20.1000 751.0000 1.0000
20.1100 770.0000 1.0000
20.1200 781.0000 1.0000
20.1300 766.0000 1.0000
20.1400 747.0000 1.0000
20.1500 751.0000 1.0000
20.1600 778.0000 1.0000
20.1700 751.0000 1.0000
20.1800 753.0000 1.0000
20.1900 787.0000 1.0000
20.2000 744.0000 1.0000
20.2100 769.0000 1.0000
20.2200 750.0000 1.0000
20.2300 774.0000 1.0000
20.2400 768.0000 1.0000
20.2500 774.0000 1.0000
20.2600 757.0000 1.0000
20.2700 734.0000 1.0000
20.2800 750.0000 1.0000
20.2900 770.0000 1.0000
20.3000 771.0000 1.0000
20.3100 772.0000 1.0000
20.3200 762.0000 1.0000
20.3300 785.0000 1.0000
20.3400 764.0000 1.0000
20.3500 730.0000 1.0000
20.3600 828.0000 1.0000
20.3700 803.0000 1.0000
20.3800 774.0000 1.0000
20.3900 726.0000 1.0000
20.4000 759.0000 1.0000
20.4100 733.0000 1.0000
20.4200 742.0000 1.0000
20.4300 752.0000 1.0000
20.4400 750.0000 1.0000
20.4500 782.0000 1.0000
20.4600 780.0000 1.0000
20.4700 732.0000 1.0000
20.4800 778.0000 1.0000
20.4900 787.0000 1.0000
20.5000 776.0000 1.0000
20.5100 745.0000 1.0000
20.5200 748.0000 1.0000
20.5300 743.0000 1.0000
20.5400 723.0000 1.0000
20.5500 752.0000 1.0000
20.5600 762.0000 1.0000
20.5700 749.0000 1.0000
20.5800 788.0000 1.0000
20.5900 764.0000 1.0000
20.6000 737.0000 1.0000
20.6100 740.0000 1.0000
20.6200 746.0000 1.0000
20.6300 738.0000 1.0000
20.6400 762.0000 1.0000
20.6500 758.0000 1.0000
20.6600 731.0000 1.0000
20.6700 781.0000 1.0000
20.6800 751.0000 1.0000
20.6900 697.0000 1.0000
20.7000 731.0000 1.0000
20.7100 774.0000 1.0000
20.7200 764.0000 1.0000
20.7300 743.0000 1.0000
20.7400 790.0000 1.0000
20.7500 737.0000 1.0000
20.7600 761.0000 1.0000
20.7700 778.0000 1.0000
20.7800 792.0000 1.0000
20.7900 762.0000 1.0000
20.8000 735.0000 1.0000
20.8100 724.0000 1.0000
20.8200 731.0000 1.0000
20.8300 720.0000 1.0000
20.8400 726.0000 1.0000
20.8500 753.0000 1.0000
20.8600 742.0000 1.0000
20.8700 728.0000 1.0000
20.8800 734.0000 1.0000
20.8900 737.0000 1.0000
20.9000 738.0000 1.0000
20.9100 749.0000 1.0000
20.9200 745.0000 1.0000
20.9300 753.0000 1.0000
20.9400 772.0000 1.0000
20.9500 741.0000 1.0000
20.9600 779.0000 1.0000
20.9700 709.0000 1.0000
20.9800 727.0000 1.0000
20.9900 760.0000 1.0000
21.0000 720.0000 1.0000
21.0100 746.0000 1.0000
21.0200 708.0000 1.0000
21.0300 750.0000 1.0000
21.0400 728.0000 1.0000
21.0500 747.0000 1.0000
21.0600 744.0000 1.0000
21.0700 778.0000 1.0000
21.0800 721.0000 1.0000
21.0900 760.0000 1.0000
21.1000 767.0000 1.0000
21.1100 798.0000 1.0000
21.1200 726.0000 1.0000
21.1300 784.0000 1.0000
21.1400 754.0000 1.0000
21.1500 759.0000 1.0000
21.1600 753.0000 1.0000
21.1700 772.0000 1.0000
21.1800 748.0000 1.0000
21.1900 691.0000 1.0000
21.2000 761.0000 1.0000
21.2100 735.0000 1.0000
21.2200 727.0000 1.0000
21.2300 770.0000 1.0000
21.2400 749.0000 1.0000
21.2500 736.0000 1.0000
21.2600 762.0000 1.0000
21.2700 727.0000 1.0000
21.2800 723.0000 1.0000
21.2900 732.0000 1.0000
21.3000 763.0000 1.0000
21.3100 780.0000 1.0000
21.3200 749.0000 1.0000
21.3300 770.0000 1.0000
21.3400 757.0000 1.0000
21.3500 703.0000 1.0000
21.3600 722.0000 1.0000
21.3700 791.0000 1.0000
21.3800 731.0000 1.0000
21.3900 754.0000 1.0000
21.4000 733.0000 1.0000
21.4100 775.0000 1.0000
21.4200 757.0000 1.0000
21.4300 726.0000 1.0000
21.4400 708.0000 1.0000
21.4500 752.0000 1.0000
21.4600 749.0000 1.0000
21.4700 707.0000 1.0000
21.4800 742.0000 1.0000
21.4900 740.0000 1.0000
21.5000 677.0000 1.0000
21.5100 737.0000 1.0000
21.5200 735.0000 1.0000
21.5300 735.0000 1.0000
21.5400 736.0000 1.0000
21.5500 691.0000 1.0000
21.5600 769.0000 1.0000
21.5700 796.0000 1.0000
21.5800 742.0000 1.0000
21.5900 693.0000 1.0000
21.6000 675.0000 1.0000
21.6100 719.0000 1.0000
21.6200 697.0000 1.0000
21.6300 754.0000 1.0000
21.6400 699.0000 1.0000
21.6500 742.0000 1.0000
21.6600 768.0000 1.0000
21.6700 708.0000 1.0000
21.6800 726.0000 1.0000
21.6900 743.0000 1.0000
21.7000 729.0000 1.0000
21.7100 725.0000 1.0000
21.7200 704.0000 1.0000
21.7300 728.0000 1.0000
21.7400 768.0000 1.0000
21.7500 745.0000 1.0000
21.7600 771.0000 1.0000
21.7700 761.0000 1.0000
21.7800 740.0000 1.0000
21.7900 728.0000 1.0000
21.8000 794.0000 1.0000
21.8100 746.0000 1.0000
21.8200 703.0000 1.0000
21.8300 716.0000 1.0000
21.8400 723.0000 1.0000
21.8500 749.0000 1.0000
21.8600 726.0000 1.0000
21.8700 738.0000 1.0000
21.8800 720.0000 1.0000
21.8900 749.0000 1.0000
21.9000 774.0000 1.0000
21.9100 756.0000 1.0000
21.9200 711.0000 1.0000
21.9300 771.0000 1.0000
21.9400 793.0000 1.0000
21.9500 723.0000 1.0000
21.9600 748.0000 1.0000
21.9700 772.0000 1.0000
21.9800 709.0000 1.0000
21.9900 784.0000 1.0000
22.0000 778.0000 1.0000
22.0100 765.0000 1.0000
22.0200 788.0000 1.0000
22.0300 719.0000 1.0000
22.0400 798.0000 1.0000
22.0500 722.0000 1.0000
22.0600 778.0000 1.0000
22.0700 728.0000 1.0000
22.0800 761.0000 1.0000
22.0900 726.0000 1.0000
22.1000 748.0000 1.0000
22.1100 711.0000 1.0000
22.1200 772.0000 1.0000
22.1300 778.0000 1.0000
22.1400 749.0000 1.0000
22.1500 717.0000 1.0000
22.1600 725.0000 1.0000
22.1700 715.0000 1.0000
22.1800 721.0000 1.0000
22.1900 725.0000 1.0000
22.2000 731.0000 1.0000
22.2100 784.0000 1.0000
22.2200 757.0000 1.0000
22.2300 746.0000 1.0000
22.2400 758.0000 1.0000
22.2500 716.0000 1.0000
22.2600 740.0000 1.0000
22.2700 728.0000 1.0000
22.2800 719.0000 1.0000
22.2900 747.0000 1.0000
22.3000 735.0000 1.0000
22.3100 738.0000 1.0000
22.3200 728.0000 1.0000
22.3300 738.0000 1.0000
22.3400 751.0000 1.0000
22.3500 687.0000 1.0000
22.3600 732.0000 1.0000
22.3700 786.0000 1.0000
22.3800 773.0000 1.0000
22.3900 718.0000 1.0000
22.4000 773.0000 1.0000
22.4100 774.0000 1.0000
22.4200 763.0000 1.0000
22.4300 751.0000 1.0000
22.4400 724.0000 1.0000
22.4500 699.0000 1.0000
22.4600 710.0000 1.0000
22.4700 755.0000 1.0000
22.4800 779.0000 1.0000
22.4900 721.0000 1.0000
22.5000 746.0000 1.0000
22.5100 763.0000 1.0000
22.5200 696.0000 1.0000
22.5300 734.0000 1.0000
22.5400 698.0000 1.0000
22.5500 692.0000 1.0000
22.5600 741.0000 1.0000
22.5700 731.0000 1.0000
22.5800 755.0000 1.0000
22.5900 735.0000 1.0000
22.6000 729.0000 1.0000
22.6100 690.0000 1.0000
22.6200 738.0000 1.0000
22.6300 715.0000 1.0000
22.6400 697.0000 1.0000
22.6500 755.0000 1.0000
22.6600 717.0000 1.0000
22.6700 706.0000 1.0000
22.6800 760.0000 1.0000
22.6900 713.0000 1.0000
22.7000 750.0000 1.0000
22.7100 774.0000 1.0000
22.7200 701.0000 1.0000
22.7300 703.0000 1.0000
22.7400 711.0000 1.0000
22.7500 763.0000 1.0000
22.7600 731.0000 1.0000
22.7700 729.0000 1.0000
22.7800 714.0000 1.0000
22.7900 708.0000 1.0000
22.8000 730.0000 1.0000
22.8100 747.0000 1.0000
22.8200 754.0000 1.0000
22.8300 741.0000 1.0000
22.8400 742.0000 1.0000
22.8500 693.0000 1.0000
22.8600 641.0000 1.0000
22.8700 719.0000 1.0000
22.8800 693.0000 1.0000
22.8900 718.0000 1.0000
22.9000 731.0000 1.0000
22.9100 734.0000 1.0000
22.9200 692.0000 1.0000
22.9300 736.0000 1.0000
22.9400 742.0000 1.0000
22.9500 725.0000 1.0000
22.9600 722.0000 1.0000
22.9700 736.0000 1.0000
22.9800 728.0000 1.0000
22.9900 740.0000 1.0000
23.0000 694.0000 1.0000
23.0100 693.0000 1.0000
23.0200 722.0000 1.0000
23.0300 756.0000 1.0000
23.0400 717.0000 1.0000
23.0500 730.0000 1.0000
23.0600 736.0000 1.0000
23.0700 743.0000 1.0000
23.0800 749.0000 1.0000
23.0900 760.0000 1.0000
23.1000 764.0000 1.0000
23.1100 754.0000 1.0000
23.1200 702.0000 1.0000
23.1300 722.0000 1.0000
23.1400 736.0000 1.0000
23.1500 715.0000 1.0000
23.1600 698.0000 1.0000
23.1700 764.0000 1.0000
23.1800 727.0000 1.0000
23.1900 700.0000 1.0000
23.2000 726.0000 1.0000
23.2100 720.0000 1.0000
23.2200 731.0000 1.0000
23.2300 667.0000 1.0000
23.2400 733.0000 1.0000
23.2500 722.0000 1.0000
23.2600 710.0000 1.0000
23.2700 739.0000 1.0000
23.2800 693.0000 1.0000
23.2900 725.0000 1.0000
23.3000 713.0000 1.0000
23.3100 678.0000 1.0000
23.3200 707.0000 1.0000
23.3300 679.0000 1.0000
23.3400 760.0000 1.0000
23.3500 750.0000 1.0000
23.3600 745.0000 1.0000
23.3700 745.0000 1.0000
23.3800 705.0000 1.0000
23.3900 698.0000 1.0000
23.4000 713.0000 1.0000
23.4100 694.0000 1.0000
23.4200 728.0000 1.0000
23.4300 723.0000 1.0000
23.4400 683.0000 1.0000
23.4500 723.0000 1.0000
23.4600 745.0000 1.0000
23.4700 778.0000 1.0000
23.4800 761.0000 1.0000
23.4900 738.0000 1.0000
23.5000 706.0000 1.0000
23.5100 695.0000 1.0000
23.5200 735.0000 1.0000
23.5300 723.0000 1.0000
23.5400 745.0000 1.0000
23.5500 744.0000 1.0000
23.5600 761.0000 1.0000
23.5700 708.0000 1.0000
23.5800 783.0000 1.0000
23.5900 738.0000 1.0000
23.6000 698.0000 1.0000
23.6100 688.0000 1.0000
23.6200 724.0000 1.0000
23.6300 709.0000 1.0000
23.6400 713.0000 1.0000
23.6500 737.0000 1.0000
23.6600 711.0000 1.0000
23.6700 717.0000 1.0000
23.6800 754.0000 1.0000
23.6900 742.0000 1.0000
23.7000 721.0000 1.0000
23.7100 723.0000 1.0000
23.7200 710.0000 1.0000
23.7300 734.0000 1.0000
23.7400 714.0000 1.0000
23.7500 752.0000 1.0000
23.7600 741.0000 1.0000
23.7700 736.0000 1.0000
23.7800 713.0000 1.0000
23.7900 753.0000 1.0000
23.8000 724.0000 1.0000
23.8100 728.0000 1.0000
23.8200 746.0000 1.0000
23.8300 727.0000 1.0000
23.8400 716.0000 1.0000
23.8500 748.0000 1.0000
23.8600 721.0000 1.0000
23.8700 735.0000 1.0000
23.8800 739.0000 1.0000
23.8900 713.0000 1.0000
23.9000 706.0000 1.0000
23.9100 739.0000 1.0000
23.9200 711.0000 1.0000
23.9300 704.0000 1.0000
23.9400 682.0000 1.0000
23.9500 719.0000 1.0000
23.9600 763.0000 1.0000
23.9700 726.0000 1.0000
23.9800 751.0000 1.0000
23.9900 731.0000 1.0000
24.0000 745.0000 1.0000
24.0100 684.0000 1.0000
24.0200 716.0000 1.0000
24.0300 782.0000 1.0000
24.0400 735.0000 1.0000
24.0500 713.0000 1.0000
24.0600 742.0000 1.0000
24.0700 753.0000 1.0000
24.0800 720.0000 1.0000
24.0900 757.0000 1.0000
24.1000 736.0000 1.0000
24.1100 769.0000 1.0000
24.1200 726.0000 1.0000
24.1300 750.0000 1.0000
24.1400 730.0000 1.0000
24.1500 778.0000 1.0000
24.1600 776.0000 1.0000
24.1700 751.0000 1.0000
24.1800 741.0000 1.0000
24.1900 761.0000 1.0000
24.2000 757.0000 1.0000
24.2100 765.0000 1.0000
24.2200 711.0000 1.0000
24.2300 756.0000 1.0000
24.2400 798.0000 1.0000
24.2500 785.0000 1.0000
24.2600 772.0000 1.0000
24.2700 752.0000 1.0000
24.2800 758.0000 1.0000
24.2900 767.0000 1.0000
24.3000 719.0000 1.0000
24.3100 737.0000 1.0000
24.3200 764.0000 1.0000
24.3300 740.0000 1.0000
24.3400 727.0000 1.0000
24.3500 691.0000 1.0000
24.3600 728.0000 1.0000
24.3700 749.0000 1.0000
24.3800 719.0000 1.0000
24.3900 733.0000 1.0000
24.4000 733.0000 1.0000
24.4100 708.0000 1.0000
24.4200 729.0000 1.0000
24.4300 721.0000 1.0000
24.4400 710.0000 1.0000
24.4500 720.0000 1.0000
24.4600 726.0000 1.0000
24.4700 727.0000 1.0000
24.4800 689.0000 1.0000
24.4900 710.0000 1.0000
24.5000 718.0000 1.0000
24.5100 691.0000 1.0000
24.5200 718.0000 1.0000
24.5300 741.0000 1.0000
24.5400 736.0000 1.0000
24.5500 678.0000 1.0000
24.5600 736.0000 1.0000
24.5700 698.0000 1.0000
24.5800 685.0000 1.0000
24.5900 730.0000 1.0000
24.6000 711.0000 1.0000
24.6100 717.0000 1.0000
24.6200 760.0000 1.0000
24.6300 709.0000 1.0000
24.6400 715.0000 1.0000
24.6500 703.0000 1.0000
24.6600 718.0000 1.0000
24.6700 679.0000 1.0000
24.6800 672.0000 1.0000
24.6900 694.0000 1.0000
24.7000 680.0000 1.0000
24.7100 680.0000 1.0000
24.7200 677.0000 1.0000
24.7300 711.0000 1.0000
24.7400 705.0000 1.0000
24.7500 674.0000 1.0000
24.7600 713.0000 1.0000
24.7700 678.0000 1.0000
24.7800 671.0000 1.0000
24.7900 704.0000 1.0000
24.8000 690.0000 1.0000
24.8100 689.0000 1.0000
24.8200 690.0000 1.0000
24.8300 681.0000 1.0000
24.8400 707.0000 1.0000
24.8500 711.0000 1.0000
24.8600 688.0000 1.0000
24.8700 724.0000 1.0000
24.8800 738.0000 1.0000
24.8900 710.0000 1.0000
24.9000 725.0000 1.0000
24.9100 710.0000 1.0000
24.9200 667.0000 1.0000
24.9300 711.0000 1.0000
24.9400 658.0000 1.0000
24.9500 667.0000 1.0000
24.9600 695.0000 1.0000
24.9700 707.0000 1.0000
24.9800 703.0000 1.0000
24.9900 716.0000 1.0000
25.0000 734.0000 1.0000
25.0100 682.0000 1.0000
25.0200 684.0000 1.0000
25.0300 699.0000 1.0000
25.0400 712.0000 1.0000
25.0500 691.0000 1.0000
25.0600 697.0000 1.0000
25.0700 666.0000 1.0000
25.0800 733.0000 1.0000
25.0900 727.0000 1.0000
25.1000 699.0000 1.0000
25.1100 698.0000 1.0000
25.1200 683.0000 1.0000
25.1300 654.0000 1.0000
25.1400 726.0000 1.0000
25.1500 725.0000 1.0000
25.1600 730.0000 1.0000
25.1700 710.0000 1.0000
25.1800 696.0000 1.0000
25.1900 721.0000 1.0000
25.2000 675.0000 1.0000
25.2100 661.0000 1.0000
25.2200 694.0000 1.0000
25.2300 688.0000 1.0000
25.2400 733.0000 1.0000
25.2500 680.0000 1.0000
25.2600 707.0000 1.0000
25.2700 665.0000 1.0000
25.2800 648.0000 1.0000
25.2900 659.0000 1.0000
25.3000 668.0000 1.0000
25.3100 684.0000 1.0000
25.3200 668.0000 1.0000
25.3300 732.0000 1.0000
25.3400 661.0000 1.0000
25.3500 677.0000 1.0000
25.3600 707.0000 1.0000
25.3700 668.0000 1.0000
25.3800 666.0000 1.0000
25.3900 715.0000 1.0000
25.4000 710.0000 1.0000
25.4100 705.0000 1.0000
25.4200 746.0000 1.0000
25.4300 684.0000 1.0000
25.4400 703.0000 1.0000
25.4500 643.0000 1.0000
25.4600 688.0000 1.0000
25.4700 696.0000 1.0000
25.4800 712.0000 1.0000
25.4900 686.0000 1.0000
25.5000 710.0000 1.0000
25.5100 711.0000 1.0000
25.5200 715.0000 1.0000
25.5300 676.0000 1.0000
25.5400 708.0000 1.0000
25.5500 697.0000 1.0000
25.5600 713.0000 1.0000
25.5700 726.0000 1.0000
25.5800 717.0000 1.0000
25.5900 691.0000 1.0000
25.6000 671.0000 1.0000
25.6100 690.0000 1.0000
25.6200 716.0000 1.0000
25.6300 696.0000 1.0000
25.6400 748.0000 1.0000
25.6500 739.0000 1.0000
25.6600 711.0000 1.0000
25.6700 694.0000 1.0000
25.6800 721.0000 1.0000
25.6900 725.0000 1.0000
25.7000 730.0000 1.0000
25.7100 706.0000 1.0000
25.7200 709.0000 1.0000
25.7300 720.0000 1.0000
25.7400 701.0000 1.0000
25.7500 741.0000 1.0000
25.7600 716.0000 1.0000
25.7700 740.0000 1.0000
25.7800 726.0000 1.0000
25.7900 722.0000 1.0000
25.8000 778.0000 1.0000
25.8100 714.0000 1.0000
25.8200 703.0000 1.0000
25.8300 712.0000 1.0000
25.8400 741.0000 1.0000
25.8500 706.0000 1.0000
25.8600 698.0000 1.0000
25.8700 737.0000 1.0000
25.8800 699.0000 1.0000
25.8900 682.0000 1.0000
25.9000 752.0000 1.0000
25.9100 690.0000 1.0000
25.9200 678.0000 1.0000
25.9300 738.0000 1.0000
25.9400 740.0000 1.0000
25.9500 723.0000 1.0000
25.9600 734.0000 1.0000
25.9700 732.0000 1.0000
25.9800 746.0000 1.0000
25.9900 728.0000 1.0000
26.0000 740.0000 1.0000
26.0100 746.0000 1.0000
26.0200 720.0000 1.0000
26.0300 752.0000 1.0000
26.0400 709.0000 1.0000
26.0500 737.0000 1.0000
26.0600 739.0000 1.0000
26.0700 742.0000 1.0000
26.0800 674.0000 1.0000
26.0900 706.0000 1.0000
26.1000 705.0000 1.0000
26.1100 770.0000 1.0000
26.1200 753.0000 1.0000
26.1300 743.0000 1.0000
26.1400 742.0000 1.0000
26.1500 721.0000 1.0000
26.1600 718.0000 1.0000
26.1700 761.0000 1.0000
26.1800 765.0000 1.0000
26.1900 744.0000 1.0000
26.2000 768.0000 1.0000
26.2100 767.0000 1.0000
26.2200 783.0000 1.0000
26.2300 830.0000 1.0000
26.2400 818.0000 1.0000
26.2500 829.0000 1.0000
26.2600 835.0000 1.0000
26.2700 862.0000 1.0000
26.2800 831.0000 1.0000
26.2900 869.0000 1.0000
26.3000 884.0000 1.0000
26.3100 856.0000 1.0000
26.3200 942.0000 1.0000
26.3300 910.0000 1.0000
26.3400 921.0000 1.0000
26.3500 895.0000 1.0000
26.3600 971.0000 1.0000
26.3700 1020.0000 1.0000
26.3800 1044.0000 1.0000
26.3900 1057.0000 1.0000
26.4000 1082.0000 1.0000
26.4100 1129.0000 1.0000
26.4200 1144.0000 1.0000
26.4300 1114.0000 1.0000
26.4400 1203.0000 1.0000
26.4500 1263.0000 1.0000
26.4600 1288.0000 1.0000
26.4700 1397.0000 1.0000
26.4800 1455.0000 1.0000
26.4900 1565.0000 1.0000
26.5000 1601.0000 1.0000
26.5100 1706.0000 1.0000
26.5200 1792.0000 1.0000
26.5300 1926.0000 1.0000
26.5400 2001.0000 1.0000
26.5500 2090.0000 1.0000
26.5600 2251.0000 1.0000
26.5700 2278.0000 1.0000
26.5800 2396.0000 1.0000
26.5900 2449.0000 1.0000
26.6000 2465.0000 1.0000
26.6100 2505.0000 1.0000
26.6200 2594.0000 1.0000
26.6300 2538.0000 1.0000
26.6400 2426.0000 1.0000
26.6500 2336.0000 1.0000
26.6600 2245.0000 1.0000
26.6700 2182.0000 1.0000
26.6800 2139.0000 1.0000
26.6900 2055.0000 1.0000
26.7000 1987.0000 1.0000
26.7100 1833.0000 1.0000
26.7200 1756.0000 1.0000
26.7300 1684.0000 1.0000
26.7400 1572.0000 1.0000
26.7500 1443.0000 1.0000
26.7600 1421.0000 1.0000
26.7700 1435.0000 1.0000
26.7800 1275.0000 1.0000
26.7900 1224.0000 1.0000
26.8000 1191.0000 1.0000
26.8100 1135.0000 1.0000
26.8200 1130.0000 1.0000
26.8300 1063.0000 1.0000
26.8400 991.0000 1.0000
26.8500 1022.0000 1.0000
26.8600 925.0000 1.0000
26.8700 936.0000 1.0000
26.8800 924.0000 1.0000
26.8900 919.0000 1.0000
26.9000 893.0000 1.0000
26.9100 857.0000 1.0000
26.9200 875.0000 1.0000
26.9300 856.0000 1.0000
26.9400 892.0000 1.0000
26.9500 879.0000 1.0000
26.9600 851.0000 1.0000
26.9700 803.0000 1.0000
26.9800 787.0000 1.0000
26.9900 814.0000 1.0000
27.0000 804.0000 1.0000
27.0100 727.0000 1.0000
27.0200 815.0000 1.0000
27.0300 779.0000 1.0000
27.0400 754.0000 1.0000
27.0500 784.0000 1.0000
27.0600 777.0000 1.0000
27.0700 710.0000 1.0000
27.0800 758.0000 1.0000
27.0900 749.0000 1.0000
27.1000 717.0000 1.0000
27.1100 728.0000 1.0000
27.1200 754.0000 1.0000
27.1300 718.0000 1.0000
27.1400 695.0000 1.0000
27.1500 668.0000 1.0000
27.1600 722.0000 1.0000
27.1700 702.0000 1.0000
27.1800 681.0000 1.0000
27.1900 707.0000 1.0000
27.2000 692.0000 1.0000
27.2100 671.0000 1.0000
27.2200 673.0000 1.0000
27.2300 682.0000 1.0000
27.2400 655.0000 1.0000
27.2500 690.0000 1.0000
27.2600 680.0000 1.0000
27.2700 679.0000 1.0000
27.2800 667.0000 1.0000
27.2900 657.0000 1.0000
27.3000 717.0000 1.0000
27.3100 694.0000 1.0000
27.3200 644.0000 1.0000
27.3300 647.0000 1.0000
27.3400 645.0000 1.0000
27.3500 630.0000 1.0000
27.3600 689.0000 1.0000
27.3700 667.0000 1.0000
27.3800 683.0000 1.0000
27.3900 681.0000 1.0000
27.4000 663.0000 1.0000
27.4100 675.0000 1.0000
27.4200 674.0000 1.0000
27.4300 674.0000 1.0000
27.4400 701.0000 1.0000
27.4500 703.0000 1.0000
27.4600 681.0000 1.0000
27.4700 674.0000 1.0000
27.4800 679.0000 1.0000
27.4900 686.0000 1.0000
27.5000 659.0000 1.0000
27.5100 623.0000 1.0000
27.5200 611.0000 1.0000
27.5300 666.0000 1.0000
27.5400 662.0000 1.0000
27.5500 622.0000 1.0000
27.5600 627.0000 1.0000
27.5700 615.0000 1.0000
27.5800 622.0000 1.0000
27.5900 667.0000 1.0000
27.6000 645.0000 1.0000
27.6100 630.0000 1.0000
27.6200 650.0000 1.0000
27.6300 653.0000 1.0000
27.6400 679.0000 1.0000
27.6500 655.0000 1.0000
27.6600 650.0000 1.0000
27.6700 601.0000 1.0000
27.6800 665.0000 1.0000
27.6900 670.0000 1.0000
27.7000 650.0000 1.0000
27.7100 642.0000 1.0000
27.7200 652.0000 1.0000
27.7300 671.0000 1.0000
27.7400 658.0000 1.0000
27.7500 638.0000 1.0000
27.7600 640.0000 1.0000
27.7700 651.0000 1.0000
27.7800 639.0000 1.0000
27.7900 645.0000 1.0000
27.8000 638.0000 1.0000
27.8100 592.0000 1.0000
27.8200 626.0000 1.0000
27.8300 635.0000 1.0000
27.8400 638.0000 1.0000
27.8500 670.0000 1.0000
27.8600 615.0000 1.0000
27.8700 632.0000 1.0000
27.8800 643.0000 1.0000
27.8900 670.0000 1.0000
27.9000 665.0000 1.0000
27.9100 663.0000 1.0000
27.9200 706.0000 1.0000
27.9300 645.0000 1.0000
27.9400 655.0000 1.0000
27.9500 628.0000 1.0000
27.9600 592.0000 1.0000
27.9700 615.0000 1.0000
27.9800 596.0000 1.0000
27.9900 632.0000 1.0000
28.0000 650.0000 1.0000
28.0100 618.0000 1.0000
28.0200 615.0000 1.0000
28.0300 615.0000 1.0000
28.0400 627.0000 1.0000
28.0500 654.0000 1.0000
28.0600 624.0000 1.0000
28.0700 609.0000 1.0000
28.0800 603.0000 1.0000
28.0900 647.0000 1.0000
28.1000 662.0000 1.0000
28.1100 609.0000 1.0000
28.1200 578.0000 1.0000
28.1300 630.0000 1.0000
28.1400 590.0000 1.0000
28.1500 629.0000 1.0000
28.1600 586.0000 1.0000
28.1700 637.0000 1.0000
28.1800 640.0000 1.0000
28.1900 681.0000 1.0000
28.2000 646.0000 1.0000
28.2100 632.0000 1.0000
28.2200 636.0000 1.0000
28.2300 629.0000 1.0000
28.2400 616.0000 1.0000
28.2500 653.0000 1.0000
28.2600 628.0000 1.0000
28.2700 583.0000 1.0000
28.2800 615.0000 1.0000
28.2900 603.0000 1.0000
28.3000 587.0000 1.0000
28.3100 609.0000 1.0000
28.3200 643.0000 1.0000
28.3300 610.0000 1.0000
28.3400 607.0000 1.0000
28.3500 610.0000 1.0000
28.3600 630.0000 1.0000
28.3700 629.0000 1.0000
28.3800 640.0000 1.0000
28.3900 633.0000 1.0000
28.4000 634.0000 1.0000
28.4100 618.0000 1.0000
28.4200 631.0000 1.0000
28.4300 609.0000 1.0000
28.4400 591.0000 1.0000
28.4500 602.0000 1.0000
28.4600 589.0000 1.0000
28.4700 584.0000 1.0000
28.4800 653.0000 1.0000
28.4900 638.0000 1.0000
28.5000 644.0000 1.0000
28.5100 630.0000 1.0000
28.5200 615.0000 1.0000
28.5300 628.0000 1.0000
28.5400 605.0000 1.0000
28.5500 591.0000 1.0000
28.5600 602.0000 1.0000
28.5700 608.0000 1.0000
28.5800 573.0000 1.0000
28.5900 598.0000 1.0000
28.6000 594.0000 1.0000
28.6100 607.0000 1.0000
28.6200 593.0000 1.0000
28.6300 645.0000 1.0000
28.6400 594.0000 1.0000
28.6500 598.0000 1.0000
28.6600 616.0000 1.0000
28.6700 610.0000 1.0000
28.6800 572.0000 1.0000
28.6900 574.0000 1.0000
28.7000 568.0000 1.0000
28.7100 607.0000 1.0000
28.7200 598.0000 1.0000
28.7300 622.0000 1.0000
28.7400 611.0000 1.0000
28.7500 623.0000 1.0000
28.7600 599.0000 1.0000
28.7700 626.0000 1.0000
28.7800 584.0000 1.0000
28.7900 608.0000 1.0000
28.8000 611.0000 1.0000
28.8100 603.0000 1.0000
28.8200 588.0000 1.0000
28.8300 609.0000 1.0000
28.8400 556.0000 1.0000
28.8500 592.0000 1.0000
28.8600 614.0000 1.0000
28.8700 630.0000 1.0000
28.8800 618.0000 1.0000
28.8900 589.0000 1.0000
28.9000 633.0000 1.0000
28.9100 624.0000 1.0000
28.9200 583.0000 1.0000
28.9300 583.0000 1.0000
28.9400 598.0000 1.0000
28.9500 611.0000 1.0000
28.9600 592.0000 1.0000
28.9700 589.0000 1.0000
28.9800 585.0000 1.0000
28.9900 542.0000 1.0000
29.0000 588.0000 1.0000
29.0100 609.0000 1.0000
29.0200 544.0000 1.0000
29.0300 586.0000 1.0000
29.0400 613.0000 1.0000
29.0500 595.0000 1.0000
29.0600 589.0000 1.0000
29.0700 603.0000 1.0000
29.0800 595.0000 1.0000
29.0900 600.0000 1.0000
29.1000 636.0000 1.0000
29.1100 621.0000 1.0000
29.1200 577.0000 1.0000
29.1300 607.0000 1.0000
29.1400 604.0000 1.0000
29.1500 592.0000 1.0000
29.1600 586.0000 1.0000
29.1700 602.0000 1.0000
29.1800 576.0000 1.0000
29.1900 617.0000 1.0000
29.2000 594.0000 1.0000
29.2100 607.0000 1.0000
29.2200 560.0000 1.0000
29.2300 600.0000 1.0000
29.2400 607.0000 1.0000
29.2500 603.0000 1.0000
29.2600 611.0000 1.0000
29.2700 600.0000 1.0000
29.2800 588.0000 1.0000
29.2900 594.0000 1.0000
29.3000 613.0000 1.0000
29.3100 611.0000 1.0000
29.3200 602.0000 1.0000
29.3300 627.0000 1.0000
29.3400 638.0000 1.0000
29.3500 622.0000 1.0000
29.3600 611.0000 1.0000
29.3700 578.0000 1.0000
29.3800 573.0000 1.0000
29.3900 600.0000 1.0000
29.4000 567.0000 1.0000
29.4100 591.0000 1.0000
29.4200 603.0000 1.0000
29.4300 611.0000 1.0000
29.4400 570.0000 1.0000
29.4500 624.0000 1.0000
29.4600 553.0000 1.0000
29.4700 568.0000 1.0000
29.4800 574.0000 1.0000
29.4900 604.0000 1.0000
29.5000 624.0000 1.0000
29.5100 598.0000 1.0000
29.5200 588.0000 1.0000
29.5300 620.0000 1.0000
29.5400 581.0000 1.0000
29.5500 550.0000 1.0000
29.5600 587.0000 1.0000
29.5700 590.0000 1.0000
29.5800 559.0000 1.0000
29.5900 571.0000 1.0000
29.6000 573.0000 1.0000
29.6100 546.0000 1.0000
29.6200 578.0000 1.0000
29.6300 571.0000 1.0000
29.6400 563.0000 1.0000
29.6500 563.0000 1.0000
29.6600 552.0000 1.0000
29.6700 547.0000 1.0000
29.6800 595.0000 1.0000
29.6900 633.0000 1.0000
29.7000 560.0000 1.0000
29.7100 529.0000 1.0000
29.7200 573.0000 1.0000
29.7300 569.0000 1.0000
29.7400 593.0000 1.0000
29.7500 599.0000 1.0000
29.7600 571.0000 1.0000
29.7700 586.0000 1.0000
29.7800 598.0000 1.0000
29.7900 584.0000 1.0000
29.8000 562.0000 1.0000
29.8100 580.0000 1.0000
29.8200 585.0000 1.0000
29.8300 556.0000 1.0000
29.8400 591.0000 1.0000
29.8500 570.0000 1.0000
29.8600 554.0000 1.0000
29.8700 562.0000 1.0000
29.8800 587.0000 1.0000
29.8900 590.0000 1.0000
29.9000 575.0000 1.0000
29.9100 542.0000 1.0000
29.9200 537.0000 1.0000
29.9300 556.0000 1.0000
29.9400 538.0000 1.0000
29.9500 518.0000 1.0000
29.9600 594.0000 1.0000
29.9700 551.0000 1.0000
29.9800 551.0000 1.0000
29.9900 605.0000 1.0000
30.0000 543.0000 1.0000
30.0100 590.0000 1.0000
30.0200 563.0000 1.0000
30.0300 575.0000 1.0000
30.0400 553.0000 1.0000
30.0500 538.0000 1.0000
30.0600 545.0000 1.0000
30.0700 563.0000 1.0000
30.0800 536.0000 1.0000
30.0900 580.0000 1.0000
30.1000 590.0000 1.0000
30.1100 554.0000 1.0000
30.1200 527.0000 1.0000
30.1300 558.0000 1.0000
30.1400 594.0000 1.0000
30.1500 523.0000 1.0000
30.1600 551.0000 1.0000
30.1700 540.0000 1.0000
30.1800 589.0000 1.0000
30.1900 551.0000 1.0000
30.2000 558.0000 1.0000
30.2100 555.0000 1.0000
30.2200 584.0000 1.0000
30.2300 554.0000 1.0000
30.2400 552.0000 1.0000
30.2500 571.0000 1.0000
30.2600 576.0000 1.0000
30.2700 548.0000 1.0000
30.2800 553.0000 1.0000
30.2900 552.0000 1.0000
30.3000 526.0000 1.0000
30.3100 558.0000 1.0000
30.3200 552.0000 1.0000
30.3300 515.0000 1.0000
30.3400 541.0000 1.0000
30.3500 566.0000 1.0000
30.3600 588.0000 1.0000
30.3700 554.0000 1.0000
30.3800 567.0000 1.0000
30.3900 587.0000 1.0000
30.4000 576.0000 1.0000
30.4100 604.0000 1.0000
30.4200 557.0000 1.0000
30.4300 561.0000 1.0000
30.4400 550.0000 1.0000
30.4500 557.0000 1.0000
30.4600 566.0000 1.0000
30.4700 566.0000 1.0000
30.4800 540.0000 1.0000
30.4900 562.0000 1.0000
30.5000 591.0000 1.0000
30.5100 573.0000 1.0000
30.5200 585.0000 1.0000
30.5300 541.0000 1.0000
30.5400 561.0000 1.0000
30.5500 573.0000 1.0000
30.5600 539.0000 1.0000
30.5700 580.0000 1.0000
30.5800 572.0000 1.0000
30.5900 570.0000 1.0000
30.6000 601.0000 1.0000
30.6100 564.0000 1.0000
30.6200 522.0000 1.0000
30.6300 521.0000 1.0000
30.6400 552.0000 1.0000
30.6500 586.0000 1.0000
30.6600 595.0000 1.0000
30.6700 553.0000 1.0000
30.6800 543.0000 1.0000
30.6900 552.0000 1.0000
30.7000 573.0000 1.0000
30.7100 565.0000 1.0000
30.7200 585.0000 1.0000
30.7300 577.0000 1.0000
30.7400 574.0000 1.0000
30.7500 571.0000 1.0000
30.7600 544.0000 1.0000
30.7700 542.0000 1.0000
30.7800 537.0000 1.0000
30.7900 598.0000 1.0000
30.8000 560.0000 1.0000
30.8100 548.0000 1.0000
30.8200 548.0000 1.0000
30.8300 534.0000 1.0000
30.8400 507.0000 1.0000
30.8500 536.0000 1.0000
30.8600 557.0000 1.0000
30.8700 558.0000 1.0000
30.8800 538.0000 1.0000
30.8900 525.0000 1.0000
30.9000 533.0000 1.0000
30.9100 561.0000 1.0000
30.9200 534.0000 1.0000
30.9300 556.0000 1.0000
30.9400 545.0000 1.0000
30.9500 552.0000 1.0000
30.9600 568.0000 1.0000
30.9700 556.0000 1.0000
30.9800 563.0000 1.0000
30.9900 562.0000 1.0000
31.0000 578.0000 1.0000
31.0100 578.0000 1.0000
31.0200 533.0000 1.0000
31.0300 553.0000 1.0000
31.0400 525.0000 1.0000
31.0500 551.0000 1.0000
31.0600 532.0000 1.0000
31.0700 536.0000 1.0000
31.0800 542.0000 1.0000
31.0900 559.0000 1.0000
31.1000 578.0000 1.0000
31.1100 534.0000 1.0000
31.1200 550.0000 1.0000
31.1300 531.0000 1.0000
31.1400 526.0000 1.0000
31.1500 525.0000 1.0000
31.1600 554.0000 1.0000
31.1700 531.0000 1.0000
31.1800 576.0000 1.0000
31.1900 550.0000 1.0000
31.2000 553.0000 1.0000
31.2100 550.0000 1.0000
31.2200 597.0000 1.0000
31.2300 584.0000 1.0000
31.2400 557.0000 1.0000
31.2500 547.0000 1.0000
31.2600 553.0000 1.0000
31.2700 506.0000 1.0000
31.2800 536.0000 1.0000
31.2900 557.0000 1.0000
31.3000 567.0000 1.0000
31.3100 570.0000 1.0000
31.3200 583.0000 1.0000
31.3300 574.0000 1.0000
31.3400 567.0000 1.0000
31.3500 513.0000 1.0000
31.3600 526.0000 1.0000
31.3700 575.0000 1.0000
31.3800 609.0000 1.0000
31.3900 547.0000 1.0000
31.4000 561.0000 1.0000
31.4100 551.0000 1.0000
31.4200 511.0000 1.0000
31.4300 546.0000 1.0000
31.4400 535.0000 1.0000
31.4500 544.0000 1.0000
31.4600 492.0000 1.0000
31.4700 555.0000 1.0000
31.4800 551.0000 1.0000
31.4900 541.0000 1.0000
31.5000 537.0000 1.0000
31.5100 552.0000 1.0000
31.5200 575.0000 1.0000
31.5300 519.0000 1.0000
31.5400 536.0000 1.0000
31.5500 545.0000 1.0000
31.5600 531.0000 1.0000
31.5700 527.0000 1.0000
31.5800 527.0000 1.0000
31.5900 531.0000 1.0000
31.6000 522.0000 1.0000
31.6100 530.0000 1.0000
31.6200 564.0000 1.0000
31.6300 537.0000 1.0000
31.6400 502.0000 1.0000
31.6500 519.0000 1.0000
31.6600 532.0000 1.0000
31.6700 528.0000 1.0000
31.6800 519.0000 1.0000
31.6900 506.0000 1.0000
31.7000 536.0000 1.0000
31.7100 514.0000 1.0000
31.7200 544.0000 1.0000
31.7300 562.0000 1.0000
31.7400 543.0000 1.0000
31.7500 544.0000 1.0000
31.7600 527.0000 1.0000
31.7700 511.0000 1.0000
31.7800 519.0000 1.0000
31.7900 528.0000 1.0000
31.8000 499.0000 1.0000
31.8100 537.0000 1.0000
31.8200 547.0000 1.0000
31.8300 531.0000 1.0000
31.8400 519.0000 1.0000
31.8500 531.0000 1.0000
31.8600 532.0000 1.0000
31.8700 528.0000 1.0000
31.8800 539.0000 1.0000
31.8900 580.0000 1.0000
31.9000 546.0000 1.0000
31.9100 508.0000 1.0000
31.9200 484.0000 1.0000
31.9300 519.0000 1.0000
31.9400 522.0000 1.0000
31.9500 547.0000 1.0000
31.9600 524.0000 1.0000
31.9700 536.0000 1.0000
31.9800 502.0000 1.0000
31.9900 520.0000 1.0000
32.0000 507.0000 1.0000
32.0100 530.0000 1.0000
32.0200 528.0000 1.0000
32.0300 515.0000 1.0000
32.0400 489.0000 1.0000
32.0500 518.0000 1.0000
32.0600 532.0000 1.0000
32.0700 557.0000 1.0000
32.0800 548.0000 1.0000
32.0900 550.0000 1.0000
32.1000 568.0000 1.0000
32.1100 538.0000 1.0000
32.1200 561.0000 1.0000
32.1300 512.0000 1.0000
32.1400 537.0000 1.0000
32.1500 567.0000 1.0000
32.1600 503.0000 1.0000
32.1700 547.0000 1.0000
32.1800 506.0000 1.0000
32.1900 500.0000 1.0000
32.2000 537.0000 1.0000
32.2100 532.0000 1.0000
32.2200 486.0000 1.0000
32.2300 539.0000 1.0000
32.2400 523.0000 1.0000
32.2500 518.0000 1.0000
32.2600 535.0000 1.0000
32.2700 511.0000 1.0000
32.2800 524.0000 1.0000
32.2900 534.0000 1.0000
32.3000 486.0000 1.0000
32.3100 530.0000 1.0000
32.3200 518.0000 1.0000
32.3300 509.0000 1.0000
32.3400 540.0000 1.0000
32.3500 497.0000 1.0000
32.3600 531.0000 1.0000
32.3700 479.0000 1.0000
32.3800 514.0000 1.0000
32.3900 525.0000 1.0000
32.4000 495.0000 1.0000
32.4100 515.0000 1.0000
32.4200 475.0000 1.0000
32.4300 468.0000 1.0000
32.4400 512.0000 1.0000
32.4500 520.0000 1.0000
32.4600 522.0000 1.0000
32.4700 514.0000 1.0000
32.4800 497.0000 1.0000
32.4900 510.0000 1.0000
32.5000 533.0000 1.0000
32.5100 507.0000 1.0000
32.5200 505.0000 1.0000
32.5300 554.0000 1.0000
32.5400 506.0000 1.0000
32.5500 537.0000 1.0000
32.5600 506.0000 1.0000
32.5700 504.0000 1.0000
32.5800 533.0000 1.0000
32.5900 519.0000 1.0000
32.6000 508.0000 1.0000
32.6100 524.0000 1.0000
32.6200 531.0000 1.0000
32.6300 541.0000 1.0000
32.6400 537.0000 1.0000
32.6500 530.0000 1.0000
32.6600 530.0000 1.0000
32.6700 520.0000 1.0000
32.6800 512.0000 1.0000
32.6900 520.0000 1.0000
32.7000 523.0000 1.0000
32.7100 522.0000 1.0000
32.7200 525.0000 1.0000
32.7300 515.0000 1.0000
32.7400 468.0000 1.0000
32.7500 539.0000 1.0000
32.7600 540.0000 1.0000
32.7700 520.0000 1.0000
32.7800 525.0000 1.0000
32.7900 552.0000 1.0000
32.8000 530.0000 1.0000
32.8100 523.0000 1.0000
32.8200 533.0000 1.0000
32.8300 517.0000 1.0000
32.8400 523.0000 1.0000
32.8500 533.0000 1.0000
32.8600 527.0000 1.0000
32.8700 532.0000 1.0000
32.8800 525.0000 1.0000
32.8900 501.0000 1.0000
32.9000 509.0000 1.0000
32.9100 495.0000 1.0000
32.9200 545.0000 1.0000
32.9300 501.0000 1.0000
32.9400 545.0000 1.0000
32.9500 510.0000 1.0000
32.9600 526.0000 1.0000
32.9700 572.0000 1.0000
32.9800 513.0000 1.0000
32.9900 511.0000 1.0000
33.0000 490.0000 1.0000
33.0100 489.0000 1.0000
33.0200 512.0000 1.0000
33.0300 497.0000 1.0000
33.0400 536.0000 1.0000
33.0500 516.0000 1.0000
33.0600 497.0000 1.0000
33.0700 534.0000 1.0000
33.0800 549.0000 1.0000
33.0900 549.0000 1.0000
33.1000 521.0000 1.0000
33.1100 563.0000 1.0000
33.1200 598.0000 1.0000
33.1300 560.0000 1.0000
33.1400 566.0000 1.0000
33.1500 576.0000 1.0000
33.1600 588.0000 1.0000
33.1700 605.0000 1.0000
33.1800 609.0000 1.0000
33.1900 600.0000 1.0000
33.2000 554.0000 1.0000
33.2100 597.0000 1.0000
33.2200 611.0000 1.0000
33.2300 613.0000 1.0000
33.2400 549.0000 1.0000
33.2500 596.0000 1.0000
33.2600 634.0000 1.0000
33.2700 602.0000 1.0000
33.2800 629.0000 1.0000
33.2900 659.0000 1.0000
33.3000 615.0000 1.0000
33.3100 615.0000 1.0000
33.3200 609.0000 1.0000
33.3300 602.0000 1.0000
33.3400 624.0000 1.0000
33.3500 618.0000 1.0000
33.3600 604.0000 1.0000
33.3700 568.0000 1.0000
33.3800 594.0000 1.0000
33.3900 560.0000 1.0000
33.4000 594.0000 1.0000
33.4100 603.0000 1.0000
33.4200 591.0000 1.0000
33.4300 579.0000 1.0000
33.4400 561.0000 1.0000
33.4500 551.0000 1.0000
33.4600 587.0000 1.0000
33.4700 563.0000 1.0000
33.4800 535.0000 1.0000
33.4900 570.0000 1.0000
33.5000 559.0000 1.0000
33.5100 591.0000 1.0000
33.5200 585.0000 1.0000
33.5300 597.0000 1.0000
33.5400 625.0000 1.0000
33.5500 579.0000 1.0000
33.5600 645.0000 1.0000
33.5700 643.0000 1.0000
33.5800 638.0000 1.0000
33.5900 652.0000 1.0000
33.6000 654.0000 1.0000
33.6100 707.0000 1.0000
33.6200 702.0000 1.0000
33.6300 737.0000 1.0000
33.6400 751.0000 1.0000
33.6500 729.0000 1.0000
33.6600 773.0000 1.0000
33.6700 805.0000 1.0000
33.6800 824.0000 1.0000
33.6900 873.0000 1.0000
33.7000 898.0000 1.0000
33.7100 950.0000 1.0000
33.7200 951.0000 1.0000
33.7300 1005.0000 1.0000
33.7400 1097.0000 1.0000
33.7500 1182.0000 1.0000
33.7600 1176.0000 1.0000
33.7700 1197.0000 1.0000
33.7800 1244.0000 1.0000
33.7900 1287.0000 1.0000
33.8000 1321.0000 1.0000
33.8100 1302.0000 1.0000
33.8200 1322.0000 1.0000
33.8300 1270.0000 1.0000
33.8400 1292.0000 1.0000
33.8500 1252.0000 1.0000
33.8600 1216.0000 1.0000
33.8700 1228.0000 1.0000
33.8800 1176.0000 1.0000
33.8900 1176.0000 1.0000
33.9000 1084.0000 1.0000
33.9100 1082.0000 1.0000
33.9200 1075.0000 1.0000
33.9300 1035.0000 1.0000
33.9400 960.0000 1.0000
33.9500 920.0000 1.0000
33.9600 909.0000 1.0000
33.9700 876.0000 1.0000
33.9800 794.0000 1.0000
33.9900 757.0000 1.0000
34.0000 772.0000 1.0000
34.0100 771.0000 1.0000
34.0200 729.0000 1.0000
34.0300 700.0000 1.0000
34.0400 672.0000 1.0000
34.0500 697.0000 1.0000
34.0600 625.0000 1.0000
34.0700 624.0000 1.0000
34.0800 603.0000 1.0000
34.0900 634.0000 1.0000
34.1000 575.0000 1.0000
34.1100 621.0000 1.0000
34.1200 615.0000 1.0000
34.1300 593.0000 1.0000
34.1400 611.0000 1.0000
34.1500 524.0000 1.0000
34.1600 563.0000 1.0000
34.1700 554.0000 1.0000
34.1800 543.0000 1.0000
34.1900 531.0000 1.0000
34.2000 563.0000 1.0000
34.2100 519.0000 1.0000
34.2200 524.0000 1.0000
34.2300 492.0000 1.0000
34.2400 496.0000 1.0000
34.2500 524.0000 1.0000
34.2600 513.0000 1.0000
34.2700 507.0000 1.0000
34.2800 530.0000 1.0000
34.2900 520.0000 1.0000
34.3000 509.0000 1.0000
34.3100 527.0000 1.0000
34.3200 540.0000 1.0000
34.3300 492.0000 1.0000
34.3400 500.0000 1.0000
34.3500 528.0000 1.0000
34.3600 489.0000 1.0000
34.3700 502.0000 1.0000
34.3800 496.0000 1.0000
34.3900 478.0000 1.0000
34.4000 450.0000 1.0000
34.4100 483.0000 1.0000
34.4200 474.0000 1.0000
34.4300 491.0000 1.0000
34.4400 471.0000 1.0000
34.4500 470.0000 1.0000
34.4600 492.0000 1.0000
34.4700 488.0000 1.0000
34.4800 463.0000 1.0000
34.4900 481.0000 1.0000
34.5000 468.0000 1.0000
34.5100 457.0000 1.0000
34.5200 469.0000 1.0000
34.5300 461.0000 1.0000
34.5400 475.0000 1.0000
34.5500 445.0000 1.0000
34.5600 476.0000 1.0000
34.5700 450.0000 1.0000
34.5800 473.0000 1.0000
34.5900 476.0000 1.0000
34.6000 464.0000 1.0000
34.6100 456.0000 1.0000
34.6200 434.0000 1.0000
34.6300 447.0000 1.0000
34.6400 453.0000 1.0000
34.6500 466.0000 1.0000
34.6600 483.0000 1.0000
34.6700 481.0000 1.0000
34.6800 502.0000 1.0000
34.6900 484.0000 1.0000
34.7000 451.0000 1.0000
34.7100 454.0000 1.0000
34.7200 480.0000 1.0000
34.7300 467.0000 1.0000
34.7400 455.0000 1.0000
34.7500 453.0000 1.0000
34.7600 460.0000 1.0000
34.7700 479.0000 1.0000
34.7800 427.0000 1.0000
34.7900 464.0000 1.0000
34.8000 443.0000 1.0000
34.8100 460.0000 1.0000
34.8200 428.0000 1.0000
34.8300 460.0000 1.0000
34.8400 469.0000 1.0000
34.8500 478.0000 1.0000
34.8600 438.0000 1.0000
34.8700 454.0000 1.0000
34.8800 459.0000 1.0000
34.8900 519.0000 1.0000
34.9000 440.0000 1.0000
34.9100 464.0000 1.0000
34.9200 484.0000 1.0000
34.9300 483.0000 1.0000
34.9400 475.0000 1.0000
34.9500 454.0000 1.0000
34.9600 451.0000 1.0000
34.9700 467.0000 1.0000
34.9800 438.0000 1.0000
34.9900 445.0000 1.0000
35.0000 436.0000 1.0000
35.0100 444.0000 1.0000
35.0200 456.0000 1.0000
35.0300 454.0000 1.0000
35.0400 427.0000 1.0000
35.0500 454.0000 1.0000
35.0600 464.0000 1.0000
35.0700 450.0000 1.0000
35.0800 450.0000 1.0000
35.0900 493.0000 1.0000
35.1000 488.0000 1.0000
35.1100 469.0000 1.0000
35.1200 446.0000 1.0000
35.1300 432.0000 1.0000
35.1400 421.0000 1.0000
35.1500 434.0000 1.0000
35.1600 403.0000 1.0000
35.1700 455.0000 1.0000
35.1800 446.0000 1.0000
35.1900 474.0000 1.0000
35.2000 456.0000 1.0000
35.2100 472.0000 1.0000
35.2200 463.0000 1.0000
35.2300 456.0000 1.0000
35.2400 456.0000 1.0000
35.2500 422.0000 1.0000
35.2600 430.0000 1.0000
35.2700 455.0000 1.0000
35.2800 443.0000 1.0000
35.2900 464.0000 1.0000
35.3000 455.0000 1.0000
35.3100 433.0000 1.0000
35.3200 452.0000 1.0000
35.3300 438.0000 1.0000
35.3400 455.0000 1.0000
35.3500 481.0000 1.0000
35.3600 455.0000 1.0000
35.3700 438.0000 1.0000
35.3800 477.0000 1.0000
35.3900 471.0000 1.0000
35.4000 490.0000 1.0000
35.4100 421.0000 1.0000
35.4200 455.0000 1.0000
35.4300 446.0000 1.0000
35.4400 472.0000 1.0000
35.4500 461.0000 1.0000
35.4600 455.0000 1.0000
35.4700 478.0000 1.0000
35.4800 499.0000 1.0000
35.4900 477.0000 1.0000
35.5000 487.0000 1.0000
35.5100 436.0000 1.0000
35.5200 462.0000 1.0000
35.5300 479.0000 1.0000
35.5400 510.0000 1.0000
35.5500 506.0000 1.0000
35.5600 519.0000 1.0000
35.5700 534.0000 1.0000
35.5800 561.0000 1.0000
35.5900 571.0000 1.0000
35.6000 551.0000 1.0000
35.6100 577.0000 1.0000
35.6200 603.0000 1.0000
35.6300 630.0000 1.0000
35.6400 632.0000 1.0000
35.6500 673.0000 1.0000
35.6600 706.0000 1.0000
35.6700 725.0000 1.0000
35.6800 756.0000 1.0000
35.6900 745.0000 1.0000
35.7000 765.0000 1.0000
35.7100 758.0000 1.0000
35.7200 820.0000 1.0000
35.7300 793.0000 1.0000
35.7400 839.0000 1.0000
35.7500 847.0000 1.0000
35.7600 804.0000 1.0000
35.7700 782.0000 1.0000
35.7800 790.0000 1.0000
35.7900 775.0000 1.0000
35.8000 746.0000 1.0000
35.8100 712.0000 1.0000
35.8200 711.0000 1.0000
35.8300 666.0000 1.0000
35.8400 664.0000 1.0000
35.8500 663.0000 1.0000
35.8600 650.0000 1.0000
35.8700 621.0000 1.0000
35.8800 612.0000 1.0000
35.8900 609.0000 1.0000
35.9000 556.0000 1.0000
35.9100 513.0000 1.0000
35.9200 511.0000 1.0000
35.9300 529.0000 1.0000
35.9400 515.0000 1.0000
35.9500 469.0000 1.0000
35.9600 470.0000 1.0000
35.9700 490.0000 1.0000
35.9800 457.0000 1.0000
35.9900 446.0000 1.0000
36.0000 496.0000 1.0000
36.0100 478.0000 1.0000
36.0200 443.0000 1.0000
36.0300 455.0000 1.0000
36.0400 446.0000 1.0000
36.0500 461.0000 1.0000
36.0600 472.0000 1.0000
36.0700 434.0000 1.0000
36.0800 442.0000 1.0000
36.0900 439.0000 1.0000
36.1000 451.0000 1.0000
36.1100 441.0000 1.0000
36.1200 406.0000 1.0000
36.1300 457.0000 1.0000
36.1400 445.0000 1.0000
36.1500 436.0000 1.0000
36.1600 429.0000 1.0000
36.1700 430.0000 1.0000
36.1800 435.0000 1.0000
36.1900 430.0000 1.0000
36.2000 389.0000 1.0000
36.2100 427.0000 1.0000
36.2200 436.0000 1.0000
36.2300 413.0000 1.0000
36.2400 417.0000 1.0000
36.2500 417.0000 1.0000
36.2600 445.0000 1.0000
36.2700 446.0000 1.0000
36.2800 425.0000 1.0000
36.2900 403.0000 1.0000
36.3000 452.0000 1.0000
36.3100 412.0000 1.0000
36.3200 412.0000 1.0000
36.3300 432.0000 1.0000
36.3400 425.0000 1.0000
36.3500 436.0000 1.0000
36.3600 410.0000 1.0000
36.3700 394.0000 1.0000
36.3800 397.0000 1.0000
36.3900 405.0000 1.0000
36.4000 391.0000 1.0000
36.4100 377.0000 1.0000
36.4200 409.0000 1.0000
36.4300 437.0000 1.0000
36.4400 440.0000 1.0000
36.4500 418.0000 1.0000
36.4600 419.0000 1.0000
36.4700 399.0000 1.0000
36.4800 380.0000 1.0000
36.4900 424.0000 1.0000
36.5000 411.0000 1.0000
36.5100 428.0000 1.0000
36.5200 423.0000 1.0000
36.5300 417.0000 1.0000
36.5400 410.0000 1.0000
36.5500 425.0000 1.0000
36.5600 424.0000 1.0000
36.5700 429.0000 1.0000
36.5800 429.0000 1.0000
36.5900 401.0000 1.0000
36.6000 390.0000 1.0000
36.6100 394.0000 1.0000
36.6200 406.0000 1.0000
36.6300 425.0000 1.0000
36.6400 412.0000 1.0000
36.6500 406.0000 1.0000
36.6600 417.0000 1.0000
36.6700 425.0000 1.0000
36.6800 433.0000 1.0000
36.6900 413.0000 1.0000
36.7000 390.0000 1.0000
36.7100 413.0000 1.0000
36.7200 413.0000 1.0000
36.7300 405.0000 1.0000
36.7400 410.0000 1.0000
36.7500 389.0000 1.0000
36.7600 407.0000 1.0000
36.7700 436.0000 1.0000
36.7800 447.0000 1.0000
36.7900 406.0000 1.0000
36.8000 387.0000 1.0000
36.8100 403.0000 1.0000
36.8200 401.0000 1.0000
36.8300 406.0000 1.0000
36.8400 366.0000 1.0000
36.8500 401.0000 1.0000
36.8600 410.0000 1.0000
36.8700 401.0000 1.0000
36.8800 427.0000 1.0000
36.8900 412.0000 1.0000
36.9000 403.0000 1.0000
36.9100 407.0000 1.0000
36.9200 421.0000 1.0000
36.9300 428.0000 1.0000
36.9400 425.0000 1.0000
36.9500 415.0000 1.0000
36.9600 418.0000 1.0000
36.9700 421.0000 1.0000
36.9800 402.0000 1.0000
36.9900 414.0000 1.0000
37.0000 389.0000 1.0000
37.0100 411.0000 1.0000
37.0200 398.0000 1.0000
37.0300 411.0000 1.0000
37.0400 381.0000 1.0000
37.0500 425.0000 1.0000
37.0600 406.0000 1.0000
37.0700 416.0000 1.0000
37.0800 427.0000 1.0000
37.0900 424.0000 1.0000
37.1000 410.0000 1.0000
37.1100 405.0000 1.0000
37.1200 424.0000 1.0000
37.1300 376.0000 1.0000
37.1400 382.0000 1.0000
37.1500 402.0000 1.0000
37.1600 398.0000 1.0000
37.1700 387.0000 1.0000
37.1800 395.0000 1.0000
37.1900 381.0000 1.0000
37.2000 417.0000 1.0000
37.2100 404.0000 1.0000
37.2200 400.0000 1.0000
37.2300 439.0000 1.0000
37.2400 411.0000 1.0000
37.2500 421.0000 1.0000
37.2600 429.0000 1.0000
37.2700 393.0000 1.0000
37.2800 382.0000 1.0000
37.2900 409.0000 1.0000
37.3000 451.0000 1.0000
37.3100 379.0000 1.0000
37.3200 419.0000 1.0000
37.3300 429.0000 1.0000
37.3400 401.0000 1.0000
37.3500 421.0000 1.0000
37.3600 412.0000 1.0000
37.3700 451.0000 1.0000
37.3800 421.0000 1.0000
37.3900 439.0000 1.0000
37.4000 443.0000 1.0000
37.4100 426.0000 1.0000
37.4200 474.0000 1.0000
37.4300 479.0000 1.0000
37.4400 447.0000 1.0000
37.4500 479.0000 1.0000
37.4600 486.0000 1.0000
37.4700 441.0000 1.0000
37.4800 474.0000 1.0000
37.4900 460.0000 1.0000
37.5000 469.0000 1.0000
37.5100 464.0000 1.0000
37.5200 479.0000 1.0000
37.5300 502.0000 1.0000
37.5400 501.0000 1.0000
37.5500 521.0000 1.0000
37.5600 498.0000 1.0000
37.5700 530.0000 1.0000
37.5800 514.0000 1.0000
37.5900 563.0000 1.0000
37.6000 555.0000 1.0000
37.6100 558.0000 1.0000
37.6200 577.0000 1.0000
37.6300 656.0000 1.0000
37.6400 689.0000 1.0000
37.6500 689.0000 1.0000
37.6600 731.0000 1.0000
37.6700 759.0000 1.0000
37.6800 803.0000 1.0000
37.6900 813.0000 1.0000
37.7000 821.0000 1.0000
37.7100 962.0000 1.0000
37.7200 997.0000 1.0000
37.7300 1059.0000 1.0000
37.7400 1125.0000 1.0000
37.7500 1143.0000 1.0000
37.7600 1233.0000 1.0000
37.7700 1351.0000 1.0000
37.7800 1387.0000 1.0000
37.7900 1515.0000 1.0000
37.8000 1519.0000 1.0000
37.8100 1598.0000 1.0000
37.8200 1674.0000 1.0000
37.8300 1755.0000 1.0000
37.8400 1751.0000 1.0000
37.8500 1806.0000 1.0000
37.8600 1842.0000 1.0000
37.8700 1875.0000 1.0000
37.8800 1798.0000 1.0000
37.8900 1806.0000 1.0000
37.9000 1801.0000 1.0000
37.9100 1703.0000 1.0000
37.9200 1643.0000 1.0000
37.9300 1661.0000 1.0000
37.9400 1598.0000 1.0000
37.9500 1592.0000 1.0000
37.9600 1532.0000 1.0000
37.9700 1377.0000 1.0000
37.9800 1336.0000 1.0000
37.9900 1224.0000 1.0000
38.0000 1197.0000 1.0000
38.0100 1079.0000 1.0000
38.0200 1015.0000 1.0000
38.0300 1006.0000 1.0000
38.0400 916.0000 1.0000
38.0500 880.0000 1.0000
38.0600 885.0000 1.0000
38.0700 829.0000 1.0000
38.0800 746.0000 1.0000
38.0900 785.0000 1.0000
38.1000 740.0000 1.0000
38.1100 674.0000 1.0000
38.1200 644.0000 1.0000
38.1300 623.0000 1.0000
38.1400 600.0000 1.0000
38.1500 596.0000 1.0000
38.1600 544.0000 1.0000
38.1700 530.0000 1.0000
38.1800 519.0000 1.0000
38.1900 536.0000 1.0000
38.2000 532.0000 1.0000
38.2100 482.0000 1.0000
38.2200 456.0000 1.0000
38.2300 495.0000 1.0000
38.2400 455.0000 1.0000
38.2500 469.0000 1.0000
38.2600 440.0000 1.0000
38.2700 453.0000 1.0000
38.2800 453.0000 1.0000
38.2900 427.0000 1.0000
38.3000 442.0000 1.0000
38.3100 420.0000 1.0000
38.3200 418.0000 1.0000
38.3300 379.0000 1.0000
38.3400 405.0000 1.0000
38.3500 419.0000 1.0000
38.3600 402.0000 1.0000
38.3700 411.0000 1.0000
38.3800 387.0000 1.0000
38.3900 409.0000 1.0000
38.4000 375.0000 1.0000
38.4100 372.0000 1.0000
38.4200 385.0000 1.0000
38.4300 401.0000 1.0000
38.4400 401.0000 1.0000
38.4500 351.0000 1.0000
38.4600 378.0000 1.0000
38.4700 375.0000 1.0000
38.4800 397.0000 1.0000
38.4900 391.0000 1.0000
38.5000 385.0000 1.0000
38.5100 376.0000 1.0000
38.5200 375.0000 1.0000
38.5300 387.0000 1.0000
38.5400 372.0000 1.0000
38.5500 390.0000 1.0000
38.5600 365.0000 1.0000
38.5700 373.0000 1.0000
38.5800 404.0000 1.0000
38.5900 377.0000 1.0000
38.6000 378.0000 1.0000
38.6100 408.0000 1.0000
38.6200 360.0000 1.0000
38.6300 388.0000 1.0000
38.6400 361.0000 1.0000
38.6500 364.0000 1.0000
38.6600 346.0000 1.0000
38.6700 354.0000 1.0000
38.6800 367.0000 1.0000
38.6900 411.0000 1.0000
38.7000 403.0000 1.0000
38.7100 410.0000 1.0000
38.7200 371.0000 1.0000
38.7300 358.0000 1.0000
38.7400 378.0000 1.0000
38.7500 369.0000 1.0000
38.7600 408.0000 1.0000
38.7700 380.0000 1.0000
38.7800 391.0000 1.0000
38.7900 411.0000 1.0000
38.8000 385.0000 1.0000
38.8100 372.0000 1.0000
38.8200 385.0000 1.0000
38.8300 357.0000 1.0000
38.8400 366.0000 1.0000
38.8500 408.0000 1.0000
38.8600 429.0000 1.0000
38.8700 396.0000 1.0000
38.8800 354.0000 1.0000
38.8900 390.0000 1.0000
38.9000 388.0000 1.0000
38.9100 383.0000 1.0000
38.9200 388.0000 1.0000
38.9300 398.0000 1.0000
38.9400 385.0000 1.0000
38.9500 376.0000 1.0000
38.9600 386.0000 1.0000
38.9700 379.0000 1.0000
38.9800 379.0000 1.0000
38.9900 388.0000 1.0000
39.0000 393.0000 1.0000
39.0100 405.0000 1.0000
39.0200 390.0000 1.0000
39.0300 380.0000 1.0000
39.0400 383.0000 1.0000
39.0500 370.0000 1.0000
39.0600 387.0000 1.0000
39.0700 381.0000 1.0000
39.0800 361.0000 1.0000
39.0900 377.0000 1.0000
39.1000 365.0000 1.0000
39.1100 363.0000 1.0000
39.1200 364.0000 1.0000
39.1300 364.0000 1.0000
39.1400 384.0000 1.0000
39.1500 365.0000 1.0000
39.1600 353.0000 1.0000
39.1700 391.0000 1.0000
39.1800 337.0000 1.0000
39.1900 381.0000 1.0000
39.2000 368.0000 1.0000
39.2100 361.0000 1.0000
39.2200 359.0000 1.0000
39.2300 340.0000 1.0000
39.2400 321.0000 1.0000
39.2500 348.0000 1.0000
39.2600 354.0000 1.0000
39.2700 363.0000 1.0000
39.2800 370.0000 1.0000
39.2900 368.0000 1.0000
39.3000 340.0000 1.0000
39.3100 355.0000 1.0000
39.3200 351.0000 1.0000
39.3300 358.0000 1.0000
39.3400 361.0000 1.0000
39.3500 366.0000 1.0000
39.3600 373.0000 1.0000
39.3700 328.0000 1.0000
39.3800 356.0000 1.0000
39.3900 365.0000 1.0000
39.4000 349.0000 1.0000
39.4100 327.0000 1.0000
39.4200 328.0000 1.0000
39.4300 358.0000 1.0000
39.4400 344.0000 1.0000
39.4500 347.0000 1.0000
39.4600 335.0000 1.0000
39.4700 363.0000 1.0000
39.4800 365.0000 1.0000
39.4900 355.0000 1.0000
39.5000 360.0000 1.0000
39.5100 348.0000 1.0000
39.5200 345.0000 1.0000
39.5300 333.0000 1.0000
39.5400 355.0000 1.0000
39.5500 325.0000 1.0000
39.5600 344.0000 1.0000
39.5700 346.0000 1.0000
39.5800 339.0000 1.0000
39.5900 335.0000 1.0000
39.6000 343.0000 1.0000
39.6100 336.0000 1.0000
39.6200 341.0000 1.0000
39.6300 330.0000 1.0000
39.6400 347.0000 1.0000
39.6500 351.0000 1.0000
39.6600 323.0000 1.0000
39.6700 339.0000 1.0000
39.6800 313.0000 1.0000
39.6900 338.0000 1.0000
39.7000 355.0000 1.0000
39.7100 358.0000 1.0000
39.7200 362.0000 1.0000
39.7300 360.0000 1.0000
39.7400 340.0000 1.0000
39.7500 338.0000 1.0000
39.7600 369.0000 1.0000
39.7700 334.0000 1.0000
39.7800 348.0000 1.0000
39.7900 334.0000 1.0000
39.8000 340.0000 1.0000
39.8100 364.0000 1.0000
39.8200 313.0000 1.0000
39.8300 334.0000 1.0000
39.8400 345.0000 1.0000
39.8500 350.0000 1.0000
39.8600 345.0000 1.0000
39.8700 307.0000 1.0000
39.8800 333.0000 1.0000
39.8900 326.0000 1.0000
39.9000 368.0000 1.0000
39.9100 356.0000 1.0000
39.9200 342.0000 1.0000
39.9300 339.0000 1.0000
39.9400 332.0000 1.0000
39.9500 350.0000 1.0000
39.9600 354.0000 1.0000
39.9700 340.0000 1.0000
39.9800 358.0000 1.0000
39.9900 338.0000 1.0000
40.0000 342.0000 1.0000
40.0100 335.0000 1.0000
40.0200 335.0000 1.0000
40.0300 363.0000 1.0000
40.0400 357.0000 1.0000
40.0500 332.0000 1.0000
40.0600 355.0000 1.0000
40.0700 348.0000 1.0000
40.0800 337.0000 1.0000
40.0900 333.0000 1.0000
40.1000 357.0000 1.0000
40.1100 326.0000 1.0000
40.1200 336.0000 1.0000
40.1300 338.0000 1.0000
40.1400 371.0000 1.0000
40.1500 347.0000 1.0000
40.1600 353.0000 1.0000
40.1700 307.0000 1.0000
40.1800 326.0000 1.0000
40.1900 360.0000 1.0000
40.2000 353.0000 1.0000
40.2100 319.0000 1.0000
40.2200 320.0000 1.0000
40.2300 313.0000 1.0000
40.2400 310.0000 1.0000
40.2500 328.0000 1.0000
40.2600 358.0000 1.0000
40.2700 359.0000 1.0000
40.2800 328.0000 1.0000
40.2900 328.0000 1.0000
40.3000 309.0000 1.0000
40.3100 329.0000 1.0000
40.3200 339.0000 1.0000
40.3300 321.0000 1.0000
40.3400 340.0000 1.0000
40.3500 356.0000 1.0000
40.3600 338.0000 1.0000
40.3700 341.0000 1.0000
40.3800 338.0000 1.0000
40.3900 355.0000 1.0000
40.4000 349.0000 1.0000
40.4100 344.0000 1.0000
40.4200 340.0000 1.0000
40.4300 361.0000 1.0000
40.4400 335.0000 1.0000
40.4500 363.0000 1.0000
40.4600 311.0000 1.0000
40.4700 342.0000 1.0000
40.4800 330.0000 1.0000
40.4900 311.0000 1.0000
40.5000 337.0000 1.0000
40.5100 323.0000 1.0000
40.5200 337.0000 1.0000
40.5300 326.0000 1.0000
40.5400 343.0000 1.0000
40.5500 354.0000 1.0000
40.5600 333.0000 1.0000
40.5700 347.0000 1.0000
40.5800 376.0000 1.0000
40.5900 347.0000 1.0000
40.6000 317.0000 1.0000
40.6100 307.0000 1.0000
40.6200 321.0000 1.0000
40.6300 328.0000 1.0000
40.6400 308.0000 1.0000
40.6500 338.0000 1.0000
40.6600 305.0000 1.0000
40.6700 335.0000 1.0000
40.6800 316.0000 1.0000
40.6900 333.0000 1.0000
40.7000 333.0000 1.0000
40.7100 320.0000 1.0000
40.7200 327.0000 1.0000
40.7300 352.0000 1.0000
40.7400 315.0000 1.0000
40.7500 343.0000 1.0000
40.7600 355.0000 1.0000
40.7700 343.0000 1.0000
40.7800 309.0000 1.0000
40.7900 363.0000 1.0000
40.8000 338.0000 1.0000
40.8100 339.0000 1.0000
40.8200 347.0000 1.0000
40.8300 347.0000 1.0000
40.8400 338.0000 1.0000
40.8500 335.0000 1.0000
40.8600 385.0000 1.0000
40.8700 329.0000 1.0000
40.8800 330.0000 1.0000
40.8900 338.0000 1.0000
40.9000 329.0000 1.0000
40.9100 331.0000 1.0000
40.9200 342.0000 1.0000
40.9300 352.0000 1.0000
40.9400 349.0000 1.0000
40.9500 345.0000 1.0000
40.9600 355.0000 1.0000
40.9700 349.0000 1.0000
40.9800 392.0000 1.0000
40.9900 357.0000 1.0000
41.0000 353.0000 1.0000
41.0100 366.0000 1.0000
41.0200 380.0000 1.0000
41.0300 385.0000 1.0000
41.0400 385.0000 1.0000
41.0500 347.0000 1.0000
41.0600 329.0000 1.0000
41.0700 352.0000 1.0000
41.0800 339.0000 1.0000
41.0900 348.0000 1.0000
41.1000 376.0000 1.0000
41.1100 362.0000 1.0000
41.1200 324.0000 1.0000
41.1300 335.0000 1.0000
41.1400 350.0000 1.0000
41.1500 349.0000 1.0000
41.1600 328.0000 1.0000
41.1700 330.0000 1.0000
41.1800 359.0000 1.0000
41.1900 343.0000 1.0000
41.2000 346.0000 1.0000
41.2100 349.0000 1.0000
41.2200 334.0000 1.0000
41.2300 330.0000 1.0000
41.2400 339.0000 1.0000
41.2500 309.0000 1.0000
41.2600 335.0000 1.0000
41.2700 341.0000 1.0000
41.2800 350.0000 1.0000
41.2900 355.0000 1.0000
41.3000 312.0000 1.0000
41.3100 332.0000 1.0000
41.3200 337.0000 1.0000
41.3300 341.0000 1.0000
41.3400 336.0000 1.0000
41.3500 341.0000 1.0000
41.3600 346.0000 1.0000
41.3700 365.0000 1.0000
41.3800 340.0000 1.0000
41.3900 322.0000 1.0000
41.4000 300.0000 1.0000
41.4100 314.0000 1.0000
41.4200 331.0000 1.0000
41.4300 322.0000 1.0000
41.4400 335.0000 1.0000
41.4500 327.0000 1.0000
41.4600 303.0000 1.0000
41.4700 328.0000 1.0000
41.4800 332.0000 1.0000
41.4900 319.0000 1.0000
41.5000 319.0000 1.0000
41.5100 333.0000 1.0000
41.5200 329.0000 1.0000
41.5300 323.0000 1.0000
41.5400 338.0000 1.0000
41.5500 317.0000 1.0000
41.5600 316.0000 1.0000
41.5700 301.0000 1.0000
41.5800 325.0000 1.0000
41.5900 321.0000 1.0000
41.6000 331.0000 1.0000
41.6100 319.0000 1.0000
41.6200 320.0000 1.0000
41.6300 319.0000 1.0000
41.6400 334.0000 1.0000
41.6500 341.0000 1.0000
41.6600 342.0000 1.0000
41.6700 334.0000 1.0000
41.6800 317.0000 1.0000
41.6900 319.0000 1.0000
41.7000 315.0000 1.0000
41.7100 306.0000 1.0000
41.7200 330.0000 1.0000
41.7300 321.0000 1.0000
41.7400 351.0000 1.0000
41.7500 349.0000 1.0000
41.7600 351.0000 1.0000
41.7700 323.0000 1.0000
41.7800 340.0000 1.0000
41.7900 319.0000 1.0000
41.8000 315.0000 1.0000
41.8100 338.0000 1.0000
41.8200 354.0000 1.0000
41.8300 333.0000 1.0000
41.8400 330.0000 1.0000
41.8500 319.0000 1.0000
41.8600 335.0000 1.0000
41.8700 327.0000 1.0000
41.8800 351.0000 1.0000
41.8900 341.0000 1.0000
41.9000 311.0000 1.0000
41.9100 345.0000 1.0000
41.9200 336.0000 1.0000
41.9300 334.0000 1.0000
41.9400 328.0000 1.0000
41.9500 306.0000 1.0000
41.9600 314.0000 1.0000
41.9700 345.0000 1.0000
41.9800 314.0000 1.0000
41.9900 325.0000 1.0000
42.0000 364.0000 1.0000
42.0100 340.0000 1.0000
42.0200 331.0000 1.0000
42.0300 306.0000 1.0000
42.0400 336.0000 1.0000
42.0500 332.0000 1.0000
42.0600 332.0000 1.0000
42.0700 329.0000 1.0000
42.0800 313.0000 1.0000
42.0900 333.0000 1.0000
42.1000 338.0000 1.0000
42.1100 316.0000 1.0000
42.1200 322.0000 1.0000
42.1300 319.0000 1.0000
42.1400 333.0000 1.0000
42.1500 339.0000 1.0000
42.1600 321.0000 1.0000
42.1700 307.0000 1.0000
42.1800 279.0000 1.0000
42.1900 318.0000 1.0000
42.2000 339.0000 1.0000
42.2100 333.0000 1.0000
42.2200 333.0000 1.0000
42.2300 328.0000 1.0000
42.2400 316.0000 1.0000
42.2500 298.0000 1.0000
42.2600 322.0000 1.0000
42.2700 337.0000 1.0000
42.2800 279.0000 1.0000
42.2900 329.0000 1.0000
42.3000 370.0000 1.0000
42.3100 339.0000 1.0000
42.3200 309.0000 1.0000
42.3300 361.0000 1.0000
42.3400 326.0000 1.0000
42.3500 345.0000 1.0000
42.3600 319.0000 1.0000
42.3700 316.0000 1.0000
42.3800 326.0000 1.0000
42.3900 347.0000 1.0000
42.4000 340.0000 1.0000
42.4100 313.0000 1.0000
42.4200 323.0000 1.0000
42.4300 369.0000 1.0000
42.4400 346.0000 1.0000
42.4500 324.0000 1.0000
42.4600 351.0000 1.0000
42.4700 330.0000 1.0000
42.4800 341.0000 1.0000
42.4900 345.0000 1.0000
42.5000 324.0000 1.0000
42.5100 346.0000 1.0000
42.5200 329.0000 1.0000
42.5300 345.0000 1.0000
42.5400 373.0000 1.0000
42.5500 357.0000 1.0000
42.5600 348.0000 1.0000
42.5700 382.0000 1.0000
42.5800 384.0000 1.0000
42.5900 339.0000 1.0000
42.6000 360.0000 1.0000
42.6100 344.0000 1.0000
42.6200 345.0000 1.0000
42.6300 350.0000 1.0000
42.6400 372.0000 1.0000
42.6500 369.0000 1.0000
42.6600 343.0000 1.0000
42.6700 346.0000 1.0000
42.6800 352.0000 1.0000
42.6900 353.0000 1.0000
42.7000 353.0000 1.0000
42.7100 349.0000 1.0000
42.7200 373.0000 1.0000
42.7300 329.0000 1.0000
42.7400 343.0000 1.0000
42.7500 352.0000 1.0000
42.7600 329.0000 1.0000
42.7700 339.0000 1.0000
42.7800 319.0000 1.0000
42.7900 338.0000 1.0000
42.8000 322.0000 1.0000
42.8100 329.0000 1.0000
42.8200 328.0000 1.0000
42.8300 351.0000 1.0000
42.8400 341.0000 1.0000
42.8500 306.0000 1.0000
42.8600 324.0000 1.0000
42.8700 336.0000 1.0000
42.8800 306.0000 1.0000
42.8900 294.0000 1.0000
42.9000 298.0000 1.0000
42.9100 323.0000 1.0000
42.9200 319.0000 1.0000
42.9300 316.0000 1.0000
42.9400 325.0000 1.0000
42.9500 351.0000 1.0000
42.9600 305.0000 1.0000
42.9700 314.0000 1.0000
42.9800 317.0000 1.0000
42.9900 324.0000 1.0000
43.0000 326.0000 1.0000
43.0100 316.0000 1.0000
43.0200 324.0000 1.0000
43.0300 315.0000 1.0000
43.0400 337.0000 1.0000
43.0500 340.0000 1.0000
43.0600 336.0000 1.0000
43.0700 303.0000 1.0000
43.0800 319.0000 1.0000
43.0900 320.0000 1.0000
43.1000 342.0000 1.0000
43.1100 318.0000 1.0000
43.1200 321.0000 1.0000
43.1300 316.0000 1.0000
43.1400 337.0000 1.0000
43.1500 322.0000 1.0000
43.1600 317.0000 1.0000
43.1700 298.0000 1.0000
43.1800 274.0000 1.0000
43.1900 291.0000 1.0000
43.2000 325.0000 1.0000
43.2100 313.0000 1.0000
43.2200 322.0000 1.0000
43.2300 317.0000 1.0000
43.2400 305.0000 1.0000
43.2500 307.0000 1.0000
43.2600 294.0000 1.0000
43.2700 301.0000 1.0000
43.2800 316.0000 1.0000
43.2900 319.0000 1.0000
43.3000 317.0000 1.0000
43.3100 330.0000 1.0000
43.3200 309.0000 1.0000
43.3300 313.0000 1.0000
43.3400 311.0000 1.0000
43.3500 338.0000 1.0000
43.3600 328.0000 1.0000
43.3700 318.0000 1.0000
43.3800 338.0000 1.0000
43.3900 346.0000 1.0000
43.4000 308.0000 1.0000
43.4100 314.0000 1.0000
43.4200 310.0000 1.0000
43.4300 318.0000 1.0000
43.4400 321.0000 1.0000
43.4500 342.0000 1.0000
43.4600 309.0000 1.0000
43.4700 339.0000 1.0000
43.4800 334.0000 1.0000
43.4900 333.0000 1.0000
43.5000 334.0000 1.0000
43.5100 331.0000 1.0000
43.5200 328.0000 1.0000
43.5300 309.0000 1.0000
43.5400 311.0000 1.0000
43.5500 329.0000 1.0000
43.5600 325.0000 1.0000
43.5700 315.0000 1.0000
43.5800 306.0000 1.0000
43.5900 336.0000 1.0000
43.6000 314.0000 1.0000
43.6100 311.0000 1.0000
43.6200 300.0000 1.0000
43.6300 341.0000 1.0000
43.6400 323.0000 1.0000
43.6500 342.0000 1.0000
43.6600 343.0000 1.0000
43.6700 354.0000 1.0000
43.6800 310.0000 1.0000
43.6900 327.0000 1.0000
43.7000 304.0000 1.0000
43.7100 323.0000 1.0000
43.7200 328.0000 1.0000
43.7300 319.0000 1.0000
43.7400 318.0000 1.0000
43.7500 288.0000 1.0000
43.7600 296.0000 1.0000
43.7700 303.0000 1.0000
43.7800 306.0000 1.0000
43.7900 351.0000 1.0000
43.8000 305.0000 1.0000
43.8100 331.0000 1.0000
43.8200 313.0000 1.0000
43.8300 313.0000 1.0000
43.8400 313.0000 1.0000
43.8500 335.0000 1.0000
43.8600 308.0000 1.0000
43.8700 311.0000 1.0000
43.8800 337.0000 1.0000
43.8900 316.0000 1.0000
43.9000 324.0000 1.0000
43.9100 335.0000 1.0000
43.9200 328.0000 1.0000
43.9300 314.0000 1.0000
43.9400 317.0000 1.0000
43.9500 307.0000 1.0000
43.9600 334.0000 1.0000
43.9700 321.0000 1.0000
43.9800 291.0000 1.0000
43.9900 307.0000 1.0000
44.0000 307.0000 1.0000
44.0100 306.0000 1.0000
44.0200 294.0000 1.0000
44.0300 299.0000 1.0000
44.0400 317.0000 1.0000
44.0500 280.0000 1.0000
44.0600 314.0000 1.0000
44.0700 342.0000 1.0000
44.0800 322.0000 1.0000
44.0900 318.0000 1.0000
44.1000 339.0000 1.0000
44.1100 333.0000 1.0000
44.1200 320.0000 1.0000
44.1300 322.0000 1.0000
44.1400 296.0000 1.0000
44.1500 303.0000 1.0000
44.1600 324.0000 1.0000
44.1700 317.0000 1.0000
44.1800 315.0000 1.0000
44.1900 303.0000 1.0000
44.2000 288.0000 1.0000
44.2100 276.0000 1.0000
44.2200 316.0000 1.0000
44.2300 339.0000 1.0000
44.2400 314.0000 1.0000
44.2500 309.0000 1.0000
44.2600 291.0000 1.0000
44.2700 307.0000 1.0000
44.2800 319.0000 1.0000
44.2900 301.0000 1.0000
44.3000 316.0000 1.0000
44.3100 296.0000 1.0000
44.3200 308.0000 1.0000
44.3300 299.0000 1.0000
44.3400 306.0000 1.0000
44.3500 309.0000 1.0000
44.3600 323.0000 1.0000
44.3700 308.0000 1.0000
44.3800 297.0000 1.0000
44.3900 318.0000 1.0000
44.4000 327.0000 1.0000
44.4100 309.0000 1.0000
44.4200 312.0000 1.0000
44.4300 313.0000 1.0000
44.4400 348.0000 1.0000
44.4500 295.0000 1.0000
44.4600 309.0000 1.0000
44.4700 336.0000 1.0000
44.4800 321.0000 1.0000
44.4900 296.0000 1.0000
44.5000 337.0000 1.0000
44.5100 312.0000 1.0000
44.5200 316.0000 1.0000
44.5300 286.0000 1.0000
44.5400 291.0000 1.0000
44.5500 286.0000 1.0000
44.5600 300.0000 1.0000
44.5700 309.0000 1.0000
44.5800 290.0000 1.0000
44.5900 285.0000 1.0000
44.6000 283.0000 1.0000
44.6100 303.0000 1.0000
44.6200 329.0000 1.0000
44.6300 293.0000 1.0000
44.6400 314.0000 1.0000
44.6500 296.0000 1.0000
44.6600 306.0000 1.0000
44.6700 331.0000 1.0000
44.6800 310.0000 1.0000
44.6900 322.0000 1.0000
44.7000 286.0000 1.0000
44.7100 316.0000 1.0000
44.7200 319.0000 1.0000
44.7300 291.0000 1.0000
44.7400 313.0000 1.0000
44.7500 303.0000 1.0000
44.7600 317.0000 1.0000
44.7700 259.0000 1.0000
44.7800 284.0000 1.0000
44.7900 302.0000 1.0000
44.8000 311.0000 1.0000
44.8100 308.0000 1.0000
44.8200 315.0000 1.0000
44.8300 290.0000 1.0000
44.8400 272.0000 1.0000
44.8500 309.0000 1.0000
44.8600 316.0000 1.0000
44.8700 282.0000 1.0000
44.8800 288.0000 1.0000
44.8900 331.0000 1.0000
44.9000 297.0000 1.0000
44.9100 290.0000 1.0000
44.9200 285.0000 1.0000
44.9300 344.0000 1.0000
44.9400 291.0000 1.0000
44.9500 284.0000 1.0000
44.9600 305.0000 1.0000
44.9700 261.0000 1.0000
44.9800 292.0000 1.0000
44.9900 296.0000 1.0000
45.0000 305.0000 1.0000
45.0100 317.0000 1.0000
45.0200 315.0000 1.0000
45.0300 322.0000 1.0000
45.0400 315.0000 1.0000
45.0500 306.0000 1.0000
45.0600 282.0000 1.0000
45.0700 323.0000 1.0000
45.0800 308.0000 1.0000
45.0900 256.0000 1.0000
45.1000 289.0000 1.0000
45.1100 305.0000 1.0000
45.1200 263.0000 1.0000
45.1300 285.0000 1.0000
45.1400 287.0000 1.0000
45.1500 288.0000 1.0000
45.1600 290.0000 1.0000
45.1700 309.0000 1.0000
45.1800 317.0000 1.0000
45.1900 291.0000 1.0000
45.2000 291.0000 1.0000
45.2100 292.0000 1.0000
45.2200 281.0000 1.0000
45.2300 303.0000 1.0000
45.2400 288.0000 1.0000
45.2500 313.0000 1.0000
45.2600 344.0000 1.0000
45.2700 307.0000 1.0000
45.2800 277.0000 1.0000
45.2900 292.0000 1.0000
45.3000 289.0000 1.0000
45.3100 341.0000 1.0000
45.3200 296.0000 1.0000
45.3300 301.0000 1.0000
45.3400 317.0000 1.0000
45.3500 311.0000 1.0000
45.3600 278.0000 1.0000
45.3700 309.0000 1.0000
45.3800 322.0000 1.0000
45.3900 313.0000 1.0000
45.4000 290.0000 1.0000
45.4100 307.0000 1.0000
45.4200 307.0000 1.0000
45.4300 319.0000 1.0000
45.4400 295.0000 1.0000
45.4500 313.0000 1.0000
45.4600 307.0000 1.0000
45.4700 278.0000 1.0000
45.4800 297.0000 1.0000
45.4900 307.0000 1.0000
45.5000 329.0000 1.0000
45.5100 285.0000 1.0000
45.5200 297.0000 1.0000
45.5300 289.0000 1.0000
45.5400 317.0000 1.0000
45.5500 314.0000 1.0000
45.5600 273.0000 1.0000
45.5700 292.0000 1.0000
45.5800 280.0000 1.0000
45.5900 315.0000 1.0000
45.6000 297.0000 1.0000
45.6100 332.0000 1.0000
45.6200 276.0000 1.0000
45.6300 292.0000 1.0000
45.6400 313.0000 1.0000
45.6500 296.0000 1.0000
45.6600 282.0000 1.0000
45.6700 271.0000 1.0000
45.6800 302.0000 1.0000
45.6900 293.0000 1.0000
45.7000 309.0000 1.0000
45.7100 299.0000 1.0000
45.7200 318.0000 1.0000
45.7300 310.0000 1.0000
45.7400 275.0000 1.0000
45.7500 288.0000 1.0000
45.7600 301.0000 1.0000
45.7700 303.0000 1.0000
45.7800 284.0000 1.0000
45.7900 302.0000 1.0000
45.8000 315.0000 1.0000
45.8100 315.0000 1.0000
45.8200 289.0000 1.0000
45.8300 327.0000 1.0000
45.8400 287.0000 1.0000
45.8500 286.0000 1.0000
45.8600 301.0000 1.0000
45.8700 309.0000 1.0000
45.8800 317.0000 1.0000
45.8900 305.0000 1.0000
45.9000 312.0000 1.0000
45.9100 287.0000 1.0000
45.9200 293.0000 1.0000
45.9300 298.0000 1.0000
45.9400 319.0000 1.0000
45.9500 313.0000 1.0000
45.9600 296.0000 1.0000
45.9700 290.0000 1.0000
45.9800 304.0000 1.0000
45.9900 301.0000 1.0000
46.0000 292.0000 1.0000
46.0100 311.0000 1.0000
46.0200 309.0000 1.0000
46.0300 294.0000 1.0000
46.0400 321.0000 1.0000
46.0500 305.0000 1.0000
46.0600 303.0000 1.0000
46.0700 311.0000 1.0000
46.0800 269.0000 1.0000
46.0900 271.0000 1.0000
46.1000 291.0000 1.0000
46.1100 319.0000 1.0000
46.1200 303.0000 1.0000
46.1300 298.0000 1.0000
46.1400 295.0000 1.0000
46.1500 283.0000 1.0000
46.1600 299.0000 1.0000
46.1700 305.0000 1.0000
46.1800 253.0000 1.0000
46.1900 276.0000 1.0000
46.2000 314.0000 1.0000
46.2100 307.0000 1.0000
46.2200 276.0000 1.0000
46.2300 293.0000 1.0000
46.2400 323.0000 1.0000
46.2500 269.0000 1.0000
46.2600 282.0000 1.0000
46.2700 296.0000 1.0000
46.2800 318.0000 1.0000
46.2900 312.0000 1.0000
46.3000 310.0000 1.0000
46.3100 304.0000 1.0000
46.3200 300.0000 1.0000
46.3300 319.0000 1.0000
46.3400 281.0000 1.0000
46.3500 306.0000 1.0000
46.3600 287.0000 1.0000
46.3700 301.0000 1.0000
46.3800 326.0000 1.0000
46.3900 317.0000 1.0000
46.4000 312.0000 1.0000
46.4100 316.0000 1.0000
46.4200 295.0000 1.0000
46.4300 327.0000 1.0000
46.4400 298.0000 1.0000
46.4500 289.0000 1.0000
46.4600 264.0000 1.0000
46.4700 284.0000 1.0000
46.4800 285.0000 1.0000
46.4900 280.0000 1.0000
46.5000 290.0000 1.0000
46.5100 300.0000 1.0000
46.5200 296.0000 1.0000
46.5300 305.0000 1.0000
46.5400 333.0000 1.0000
46.5500 298.0000 1.0000
46.5600 290.0000 1.0000
46.5700 315.0000 1.0000
46.5800 285.0000 1.0000
46.5900 284.0000 1.0000
46.6000 284.0000 1.0000
46.6100 273.0000 1.0000
46.6200 269.0000 1.0000
46.6300 297.0000 1.0000
46.6400 290.0000 1.0000
46.6500 300.0000 1.0000
46.6600 284.0000 1.0000
46.6700 304.0000 1.0000
46.6800 282.0000 1.0000
46.6900 264.0000 1.0000
46.7000 279.0000 1.0000
46.7100 278.0000 1.0000
46.7200 286.0000 1.0000
46.7300 267.0000 1.0000
46.7400 282.0000 1.0000
46.7500 281.0000 1.0000
46.7600 310.0000 1.0000
46.7700 251.0000 1.0000
46.7800 278.0000 1.0000
46.7900 314.0000 1.0000
46.8000 298.0000 1.0000
46.8100 279.0000 1.0000
46.8200 292.0000 1.0000
46.8300 271.0000 1.0000
46.8400 275.0000 1.0000
46.8500 301.0000 1.0000
46.8600 303.0000 1.0000
46.8700 256.0000 1.0000
46.8800 273.0000 1.0000
46.8900 302.0000 1.0000
46.9000 275.0000 1.0000
46.9100 297.0000 1.0000
46.9200 279.0000 1.0000
46.9300 296.0000 1.0000
46.9400 284.0000 1.0000
46.9500 295.0000 1.0000
46.9600 279.0000 1.0000
46.9700 293.0000 1.0000
46.9800 283.0000 1.0000
46.9900 299.0000 1.0000
47.0000 308.0000 1.0000
47.0100 283.0000 1.0000
47.0200 273.0000 1.0000
47.0300 284.0000 1.0000
47.0400 263.0000 1.0000
47.0500 293.0000 1.0000
47.0600 285.0000 1.0000
47.0700 299.0000 1.0000
47.0800 255.0000 1.0000
47.0900 299.0000 1.0000
47.1000 286.0000 1.0000
47.1100 277.0000 1.0000
47.1200 293.0000 1.0000
47.1300 267.0000 1.0000
47.1400 285.0000 1.0000
47.1500 305.0000 1.0000
47.1600 284.0000 1.0000
47.1700 305.0000 1.0000
47.1800 283.0000 1.0000
47.1900 266.0000 1.0000
47.2000 254.0000 1.0000
47.2100 300.0000 1.0000
47.2200 289.0000 1.0000
47.2300 277.0000 1.0000
47.2400 282.0000 1.0000
47.2500 290.0000 1.0000
47.2600 268.0000 1.0000
47.2700 303.0000 1.0000
47.2800 276.0000 1.0000
47.2900 287.0000 1.0000
47.3000 264.0000 1.0000
47.3100 307.0000 1.0000
47.3200 304.0000 1.0000
47.3300 294.0000 1.0000
47.3400 240.0000 1.0000
47.3500 277.0000 1.0000
47.3600 300.0000 1.0000
47.3700 282.0000 1.0000
47.3800 274.0000 1.0000
47.3900 303.0000 1.0000
47.4000 298.0000 1.0000
47.4100 272.0000 1.0000
47.4200 271.0000 1.0000
47.4300 291.0000 1.0000
47.4400 280.0000 1.0000
47.4500 323.0000 1.0000
47.4600 305.0000 1.0000
47.4700 302.0000 1.0000
47.4800 289.0000 1.0000
47.4900 289.0000 1.0000
47.5000 280.0000 1.0000
47.5100 290.0000 1.0000
47.5200 317.0000 1.0000
47.5300 298.0000 1.0000
47.5400 262.0000 1.0000
47.5500 307.0000 1.0000
47.5600 319.0000 1.0000
47.5700 291.0000 1.0000
47.5800 264.0000 1.0000
47.5900 300.0000 1.0000
47.6000 288.0000 1.0000
47.6100 296.0000 1.0000
47.6200 308.0000 1.0000
47.6300 268.0000 1.0000
47.6400 289.0000 1.0000
47.6500 277.0000 1.0000
47.6600 282.0000 1.0000
47.6700 281.0000 1.0000
47.6800 264.0000 1.0000
47.6900 289.0000 1.0000
47.7000 283.0000 1.0000
47.7100 272.0000 1.0000
47.7200 254.0000 1.0000
47.7300 274.0000 1.0000
47.7400 272.0000 1.0000
47.7500 292.0000 1.0000
47.7600 261.0000 1.0000
47.7700 260.0000 1.0000
47.7800 276.0000 1.0000
47.7900 276.0000 1.0000
47.8000 327.0000 1.0000
47.8100 278.0000 1.0000
47.8200 272.0000 1.0000
47.8300 287.0000 1.0000
47.8400 275.0000 1.0000
47.8500 272.0000 1.0000
47.8600 270.0000 1.0000
47.8700 298.0000 1.0000
47.8800 280.0000 1.0000
47.8900 287.0000 1.0000
47.9000 293.0000 1.0000
47.9100 265.0000 1.0000
47.9200 266.0000 1.0000
47.9300 283.0000 1.0000
47.9400 289.0000 1.0000
47.9500 286.0000 1.0000
47.9600 267.0000 1.0000
47.9700 260.0000 1.0000
47.9800 273.0000 1.0000
47.9900 271.0000 1.0000
48.0000 288.0000 1.0000
48.0100 287.0000 1.0000
48.0200 306.0000 1.0000
48.0300 280.0000 1.0000
48.0400 254.0000 1.0000
48.0500 292.0000 1.0000
48.0600 265.0000 1.0000
48.0700 253.0000 1.0000
48.0800 308.0000 1.0000
48.0900 282.0000 1.0000
48.1000 263.0000 1.0000
48.1100 257.0000 1.0000
48.1200 292.0000 1.0000
48.1300 282.0000 1.0000
48.1400 282.0000 1.0000
48.1500 255.0000 1.0000
48.1600 323.0000 1.0000
48.1700 262.0000 1.0000
48.1800 263.0000 1.0000
48.1900 291.0000 1.0000
48.2000 277.0000 1.0000
48.2100 275.0000 1.0000
48.2200 283.0000 1.0000
48.2300 291.0000 1.0000
48.2400 282.0000 1.0000
48.2500 277.0000 1.0000
48.2600 290.0000 1.0000
48.2700 283.0000 1.0000
48.2800 285.0000 1.0000
48.2900 273.0000 1.0000
48.3000 271.0000 1.0000
48.3100 290.0000 1.0000
48.3200 292.0000 1.0000
48.3300 266.0000 1.0000
48.3400 287.0000 1.0000
48.3500 304.0000 1.0000
48.3600 259.0000 1.0000
48.3700 254.0000 1.0000
48.3800 259.0000 1.0000
48.3900 292.0000 1.0000
48.4000 298.0000 1.0000
48.4100 294.0000 1.0000
48.4200 272.0000 1.0000
48.4300 282.0000 1.0000
48.4400 305.0000 1.0000
48.4500 275.0000 1.0000
48.4600 277.0000 1.0000
48.4700 285.0000 1.0000
48.4800 287.0000 1.0000
48.4900 308.0000 1.0000
48.5000 323.0000 1.0000
48.5100 287.0000 1.0000
48.5200 281.0000 1.0000
48.5300 287.0000 1.0000
48.5400 259.0000 1.0000
48.5500 284.0000 1.0000
48.5600 295.0000 1.0000
48.5700 265.0000 1.0000
48.5800 274.0000 1.0000
48.5900 262.0000 1.0000
48.6000 283.0000 1.0000
48.6100 283.0000 1.0000
48.6200 282.0000 1.0000
48.6300 305.0000 1.0000
48.6400 280.0000 1.0000
48.6500 272.0000 1.0000
48.6600 267.0000 1.0000
48.6700 272.0000 1.0000
48.6800 267.0000 1.0000
48.6900 272.0000 1.0000
48.7000 265.0000 1.0000
48.7100 267.0000 1.0000
48.7200 292.0000 1.0000
48.7300 280.0000 1.0000
48.7400 272.0000 1.0000
48.7500 261.0000 1.0000
48.7600 261.0000 1.0000
48.7700 269.0000 1.0000
48.7800 270.0000 1.0000
48.7900 274.0000 1.0000
48.8000 266.0000 1.0000
48.8100 261.0000 1.0000
48.8200 277.0000 1.0000
48.8300 249.0000 1.0000
48.8400 273.0000 1.0000
48.8500 272.0000 1.0000
48.8600 269.0000 1.0000
48.8700 283.0000 1.0000
48.8800 273.0000 1.0000
48.8900 288.0000 1.0000
48.9000 287.0000 1.0000
48.9100 278.0000 1.0000
48.9200 297.0000 1.0000
48.9300 265.0000 1.0000
48.9400 264.0000 1.0000
48.9500 249.0000 1.0000
48.9600 267.0000 1.0000
48.9700 281.0000 1.0000
48.9800 264.0000 1.0000
48.9900 262.0000 1.0000
49.0000 279.0000 1.0000
49.0100 269.0000 1.0000
49.0200 283.0000 1.0000
49.0300 277.0000 1.0000
49.0400 296.0000 1.0000
49.0500 303.0000 1.0000
49.0600 295.0000 1.0000
49.0700 269.0000 1.0000
49.0800 291.0000 1.0000
49.0900 281.0000 1.0000
49.1000 251.0000 1.0000
49.1100 254.0000 1.0000
49.1200 279.0000 1.0000
49.1300 300.0000 1.0000
49.1400 286.0000 1.0000
49.1500 289.0000 1.0000
49.1600 289.0000 1.0000
49.1700 284.0000 1.0000
49.1800 273.0000 1.0000
49.1900 282.0000 1.0000
49.2000 279.0000 1.0000
49.2100 298.0000 1.0000
49.2200 307.0000 1.0000
49.2300 267.0000 1.0000
49.2400 287.0000 1.0000
49.2500 264.0000 1.0000
49.2600 264.0000 1.0000
49.2700 262.0000 1.0000
49.2800 245.0000 1.0000
49.2900 282.0000 1.0000
49.3000 275.0000 1.0000
49.3100 283.0000 1.0000
49.3200 264.0000 1.0000
49.3300 283.0000 1.0000
49.3400 284.0000 1.0000
49.3500 287.0000 1.0000
49.3600 276.0000 1.0000
49.3700 289.0000 1.0000
49.3800 276.0000 1.0000
49.3900 250.0000 1.0000
49.4000 295.0000 1.0000
49.4100 300.0000 1.0000
49.4200 297.0000 1.0000
49.4300 289.0000 1.0000
49.4400 303.0000 1.0000
49.4500 263.0000 1.0000
49.4600 272.0000 1.0000
49.4700 279.0000 1.0000
49.4800 277.0000 1.0000
49.4900 272.0000 1.0000
49.5000 299.0000 1.0000
49.5100 308.0000 1.0000
49.5200 307.0000 1.0000
49.5300 302.0000 1.0000
49.5400 295.0000 1.0000
49.5500 294.0000 1.0000
49.5600 291.0000 1.0000
49.5700 286.0000 1.0000
49.5800 294.0000 1.0000
49.5900 266.0000 1.0000
49.6000 301.0000 1.0000
49.6100 305.0000 1.0000
49.6200 301.0000 1.0000
49.6300 264.0000 1.0000
49.6400 286.0000 1.0000
49.6500 304.0000 1.0000
49.6600 304.0000 1.0000
49.6700 271.0000 1.0000
49.6800 273.0000 1.0000
49.6900 277.0000 1.0000
49.7000 283.0000 1.0000
49.7100 297.0000 1.0000
49.7200 313.0000 1.0000
49.7300 307.0000 1.0000
49.7400 298.0000 1.0000
49.7500 288.0000 1.0000
49.7600 288.0000 1.0000
49.7700 314.0000 1.0000
49.7800 289.0000 1.0000
49.7900 319.0000 1.0000
49.8000 298.0000 1.0000
49.8100 321.0000 1.0000
49.8200 312.0000 1.0000
49.8300 278.0000 1.0000
49.8400 261.0000 1.0000
49.8500 277.0000 1.0000
49.8600 270.0000 1.0000
49.8700 283.0000 1.0000
49.8800 266.0000 1.0000
49.8900 307.0000 1.0000
49.9000 329.0000 1.0000
49.9100 296.0000 1.0000
49.9200 253.0000 1.0000
49.9300 289.0000 1.0000
49.9400 292.0000 1.0000
49.9500 293.0000 1.0000
49.9600 298.0000 1.0000
49.9700 298.0000 1.0000
49.9800 297.0000 1.0000
49.9900 279.0000 1.0000
50.0000 298.0000 1.0000
50.0100 269.0000 1.0000
50.0200 288.0000 1.0000
50.0300 278.0000 1.0000
50.0400 282.0000 1.0000
50.0500 300.0000 1.0000
50.0600 284.0000 1.0000
50.0700 284.0000 1.0000
50.0800 259.0000 1.0000
50.0900 255.0000 1.0000
50.1000 294.0000 1.0000
50.1100 258.0000 1.0000
50.1200 297.0000 1.0000
50.1300 284.0000 1.0000
50.1400 276.0000 1.0000
50.1500 264.0000 1.0000
50.1600 275.0000 1.0000
50.1700 287.0000 1.0000
50.1800 296.0000 1.0000
50.1900 255.0000 1.0000
50.2000 277.0000 1.0000
50.2100 275.0000 1.0000
50.2200 285.0000 1.0000
50.2300 261.0000 1.0000
50.2400 261.0000 1.0000
50.2500 274.0000 1.0000
50.2600 283.0000 1.0000
50.2700 267.0000 1.0000
50.2800 275.0000 1.0000
50.2900 275.0000 1.0000
50.3000 283.0000 1.0000
50.3100 270.0000 1.0000
50.3200 258.0000 1.0000
50.3300 256.0000 1.0000
50.3400 265.0000 1.0000
50.3500 280.0000 1.0000
50.3600 254.0000 1.0000
50.3700 274.0000 1.0000
50.3800 285.0000 1.0000
50.3900 283.0000 1.0000
50.4000 280.0000 1.0000
50.4100 257.0000 1.0000
50.4200 259.0000 1.0000
50.4300 268.0000 1.0000
50.4400 267.0000 1.0000
50.4500 266.0000 1.0000
50.4600 281.0000 1.0000
50.4700 267.0000 1.0000
50.4800 287.0000 1.0000
50.4900 280.0000 1.0000
50.5000 278.0000 1.0000
50.5100 324.0000 1.0000
50.5200 279.0000 1.0000
50.5300 264.0000 1.0000
50.5400 278.0000 1.0000
50.5500 284.0000 1.0000
50.5600 282.0000 1.0000
50.5700 262.0000 1.0000
50.5800 285.0000 1.0000
50.5900 284.0000 1.0000
50.6000 289.0000 1.0000
50.6100 287.0000 1.0000
50.6200 277.0000 1.0000
50.6300 271.0000 1.0000
50.6400 270.0000 1.0000
50.6500 277.0000 1.0000
50.6600 292.0000 1.0000
50.6700 294.0000 1.0000
50.6800 275.0000 1.0000
50.6900 291.0000 1.0000
50.7000 288.0000 1.0000
50.7100 310.0000 1.0000
50.7200 275.0000 1.0000
50.7300 292.0000 1.0000
50.7400 280.0000 1.0000
50.7500 292.0000 1.0000
50.7600 292.0000 1.0000
50.7700 297.0000 1.0000
50.7800 285.0000 1.0000
50.7900 278.0000 1.0000
50.8000 273.0000 1.0000
50.8100 259.0000 1.0000
50.8200 279.0000 1.0000
50.8300 299.0000 1.0000
50.8400 298.0000 1.0000
50.8500 261.0000 1.0000
50.8600 298.0000 1.0000
50.8700 300.0000 1.0000
50.8800 263.0000 1.0000
50.8900 259.0000 1.0000
50.9000 287.0000 1.0000
50.9100 304.0000 1.0000
50.9200 285.0000 1.0000
50.9300 270.0000 1.0000
50.9400 260.0000 1.0000
50.9500 284.0000 1.0000
50.9600 277.0000 1.0000
50.9700 293.0000 1.0000
50.9800 306.0000 1.0000
50.9900 308.0000 1.0000
51.0000 305.0000 1.0000
51.0100 276.0000 1.0000
51.0200 320.0000 1.0000
51.0300 310.0000 1.0000
51.0400 292.0000 1.0000
51.0500 287.0000 1.0000
51.0600 313.0000 1.0000
51.0700 318.0000 1.0000
51.0800 307.0000 1.0000
51.0900 312.0000 1.0000
51.1000 306.0000 1.0000
51.1100 319.0000 1.0000
51.1200 311.0000 1.0000
51.1300 308.0000 1.0000
51.1400 281.0000 1.0000
51.1500 316.0000 1.0000
51.1600 300.0000 1.0000
51.1700 316.0000 1.0000
51.1800 327.0000 1.0000
51.1900 312.0000 1.0000
51.2000 327.0000 1.0000
51.2100 338.0000 1.0000
51.2200 313.0000 1.0000
51.2300 336.0000 1.0000
51.2400 313.0000 1.0000
51.2500 326.0000 1.0000
51.2600 335.0000 1.0000
51.2700 328.0000 1.0000
51.2800 357.0000 1.0000
51.2900 345.0000 1.0000
51.3000 363.0000 1.0000
51.3100 345.0000 1.0000
51.3200 355.0000 1.0000
51.3300 415.0000 1.0000
51.3400 377.0000 1.0000
51.3500 389.0000 1.0000
51.3600 428.0000 1.0000
51.3700 498.0000 1.0000
51.3800 477.0000 1.0000
51.3900 488.0000 1.0000
51.4000 492.0000 1.0000
51.4100 523.0000 1.0000
51.4200 532.0000 1.0000
51.4300 536.0000 1.0000
51.4400 538.0000 1.0000
51.4500 617.0000 1.0000
51.4600 656.0000 1.0000
51.4700 679.0000 1.0000
51.4800 745.0000 1.0000
51.4900 783.0000 1.0000
51.5000 857.0000 1.0000
51.5100 936.0000 1.0000
51.5200 997.0000 1.0000
51.5300 1080.0000 1.0000
51.5400 1131.0000 1.0000
51.5500 1256.0000 1.0000
51.5600 1398.0000 1.0000
51.5700 1492.0000 1.0000
51.5800 1621.0000 1.0000
51.5900 1691.0000 1.0000
51.6000 1773.0000 1.0000
51.6100 1903.0000 1.0000
51.6200 1895.0000 1.0000
51.6300 1890.0000 1.0000
51.6400 1996.0000 1.0000
51.6500 2046.0000 1.0000
51.6600 1936.0000 1.0000
51.6700 1907.0000 1.0000
51.6800 1862.0000 1.0000
51.6900 1794.0000 1.0000
51.7000 1679.0000 1.0000
51.7100 1731.0000 1.0000
51.7200 1581.0000 1.0000
51.7300 1556.0000 1.0000
51.7400 1519.0000 1.0000
51.7500 1499.0000 1.0000
51.7600 1475.0000 1.0000
51.7700 1345.0000 1.0000
51.7800 1331.0000 1.0000
51.7900 1285.0000 1.0000
51.8000 1225.0000 1.0000
51.8100 1170.0000 1.0000
51.8200 1067.0000 1.0000
51.8300 1004.0000 1.0000
51.8400 972.0000 1.0000
51.8500 873.0000 1.0000
51.8600 819.0000 1.0000
51.8700 761.0000 1.0000
51.8800 726.0000 1.0000
51.8900 739.0000 1.0000
51.9000 630.0000 1.0000
51.9100 646.0000 1.0000
51.9200 591.0000 1.0000
51.9300 518.0000 1.0000
51.9400 509.0000 1.0000
51.9500 499.0000 1.0000
51.9600 466.0000 1.0000
51.9700 485.0000 1.0000
51.9800 447.0000 1.0000
51.9900 410.0000 1.0000
52.0000 422.0000 1.0000
52.0100 370.0000 1.0000
52.0200 418.0000 1.0000
52.0300 398.0000 1.0000
52.0400 394.0000 1.0000
52.0500 386.0000 1.0000
52.0600 399.0000 1.0000
52.0700 377.0000 1.0000
52.0800 380.0000 1.0000
52.0900 357.0000 1.0000
52.1000 356.0000 1.0000
52.1100 378.0000 1.0000
52.1200 372.0000 1.0000
52.1300 314.0000 1.0000
52.1400 355.0000 1.0000
52.1500 366.0000 1.0000
52.1600 324.0000 1.0000
52.1700 339.0000 1.0000
52.1800 348.0000 1.0000
52.1900 328.0000 1.0000
52.2000 329.0000 1.0000
52.2100 313.0000 1.0000
52.2200 317.0000 1.0000
52.2300 326.0000 1.0000
52.2400 329.0000 1.0000
52.2500 299.0000 1.0000
52.2600 310.0000 1.0000
52.2700 305.0000 1.0000
52.2800 294.0000 1.0000
52.2900 294.0000 1.0000
52.3000 303.0000 1.0000
52.3100 278.0000 1.0000
52.3200 289.0000 1.0000
52.3300 303.0000 1.0000
52.3400 316.0000 1.0000
52.3500 301.0000 1.0000
52.3600 272.0000 1.0000
52.3700 292.0000 1.0000
52.3800 291.0000 1.0000
52.3900 284.0000 1.0000
52.4000 298.0000 1.0000
52.4100 304.0000 1.0000
52.4200 269.0000 1.0000
52.4300 276.0000 1.0000
52.4400 285.0000 1.0000
52.4500 259.0000 1.0000
52.4600 255.0000 1.0000
52.4700 262.0000 1.0000
52.4800 279.0000 1.0000
52.4900 308.0000 1.0000
52.5000 280.0000 1.0000
52.5100 294.0000 1.0000
52.5200 273.0000 1.0000
52.5300 283.0000 1.0000
52.5400 272.0000 1.0000
52.5500 281.0000 1.0000
52.5600 283.0000 1.0000
52.5700 282.0000 1.0000
52.5800 262.0000 1.0000
52.5900 260.0000 1.0000
52.6000 297.0000 1.0000
52.6100 277.0000 1.0000
52.6200 285.0000 1.0000
52.6300 289.0000 1.0000
52.6400 280.0000 1.0000
52.6500 251.0000 1.0000
52.6600 267.0000 1.0000
52.6700 280.0000 1.0000
52.6800 287.0000 1.0000
52.6900 280.0000 1.0000
52.7000 271.0000 1.0000
52.7100 270.0000 1.0000
52.7200 279.0000 1.0000
52.7300 274.0000 1.0000
52.7400 286.0000 1.0000
52.7500 274.0000 1.0000
52.7600 272.0000 1.0000
52.7700 277.0000 1.0000
52.7800 299.0000 1.0000
52.7900 244.0000 1.0000
52.8000 270.0000 1.0000
52.8100 279.0000 1.0000
52.8200 296.0000 1.0000
52.8300 267.0000 1.0000
52.8400 276.0000 1.0000
52.8500 253.0000 1.0000
52.8600 283.0000 1.0000
52.8700 260.0000 1.0000
52.8800 270.0000 1.0000
52.8900 253.0000 1.0000
52.9000 285.0000 1.0000
52.9100 282.0000 1.0000
52.9200 266.0000 1.0000
52.9300 273.0000 1.0000
52.9400 285.0000 1.0000
52.9500 285.0000 1.0000
52.9600 270.0000 1.0000
52.9700 290.0000 1.0000
52.9800 265.0000 1.0000
52.9900 255.0000 1.0000
53.0000 263.0000 1.0000
53.0100 279.0000 1.0000
53.0200 270.0000 1.0000
53.0300 286.0000 1.0000
53.0400 262.0000 1.0000
53.0500 273.0000 1.0000
53.0600 252.0000 1.0000
53.0700 275.0000 1.0000
53.0800 274.0000 1.0000
53.0900 299.0000 1.0000
53.1000 267.0000 1.0000
53.1100 257.0000 1.0000
53.1200 248.0000 1.0000
53.1300 279.0000 1.0000
53.1400 235.0000 1.0000
53.1500 244.0000 1.0000
53.1600 251.0000 1.0000
53.1700 291.0000 1.0000
53.1800 284.0000 1.0000
53.1900 258.0000 1.0000
53.2000 260.0000 1.0000
53.2100 274.0000 1.0000
53.2200 264.0000 1.0000
53.2300 257.0000 1.0000
53.2400 264.0000 1.0000
53.2500 281.0000 1.0000
53.2600 262.0000 1.0000
53.2700 240.0000 1.0000
53.2800 269.0000 1.0000
53.2900 253.0000 1.0000
53.3000 251.0000 1.0000
53.3100 278.0000 1.0000
53.3200 278.0000 1.0000
53.3300 276.0000 1.0000
53.3400 273.0000 1.0000
53.3500 267.0000 1.0000
53.3600 260.0000 1.0000
53.3700 263.0000 1.0000
53.3800 251.0000 1.0000
53.3900 272.0000 1.0000
53.4000 291.0000 1.0000
53.4100 291.0000 1.0000
53.4200 269.0000 1.0000
53.4300 273.0000 1.0000
53.4400 262.0000 1.0000
53.4500 268.0000 1.0000
53.4600 264.0000 1.0000
53.4700 275.0000 1.0000
53.4800 275.0000 1.0000
53.4900 277.0000 1.0000
53.5000 265.0000 1.0000
53.5100 257.0000 1.0000
53.5200 267.0000 1.0000
53.5300 263.0000 1.0000
53.5400 288.0000 1.0000
53.5500 265.0000 1.0000
53.5600 238.0000 1.0000
53.5700 263.0000 1.0000
53.5800 290.0000 1.0000
53.5900 265.0000 1.0000
53.6000 252.0000 1.0000
53.6100 255.0000 1.0000
53.6200 264.0000 1.0000
53.6300 273.0000 1.0000
53.6400 258.0000 1.0000
53.6500 266.0000 1.0000
53.6600 261.0000 1.0000
53.6700 261.0000 1.0000
53.6800 269.0000 1.0000
53.6900 276.0000 1.0000
53.7000 293.0000 1.0000
53.7100 259.0000 1.0000
53.7200 259.0000 1.0000
53.7300 273.0000 1.0000
53.7400 268.0000 1.0000
53.7500 269.0000 1.0000
53.7600 263.0000 1.0000
53.7700 276.0000 1.0000
53.7800 307.0000 1.0000
53.7900 267.0000 1.0000
53.8000 265.0000 1.0000
53.8100 270.0000 1.0000
53.8200 277.0000 1.0000
53.8300 250.0000 1.0000
53.8400 272.0000 1.0000
53.8500 263.0000 1.0000
53.8600 249.0000 1.0000
53.8700 242.0000 1.0000
53.8800 264.0000 1.0000
53.8900 268.0000 1.0000
53.9000 280.0000 1.0000
53.9100 279.0000 1.0000
53.9200 242.0000 1.0000
53.9300 273.0000 1.0000
53.9400 297.0000 1.0000
53.9500 290.0000 1.0000
53.9600 261.0000 1.0000
53.9700 258.0000 1.0000
53.9800 262.0000 1.0000
53.9900 283.0000 1.0000
54.0000 293.0000 1.0000
54.0100 297.0000 1.0000
54.0200 272.0000 1.0000
54.0300 280.0000 1.0000
54.0400 287.0000 1.0000
54.0500 284.0000 1.0000
54.0600 300.0000 1.0000
54.0700 275.0000 1.0000
54.0800 275.0000 1.0000
54.0900 284.0000 1.0000
54.1000 299.0000 1.0000
54.1100 299.0000 1.0000
54.1200 290.0000 1.0000
54.1300 286.0000 1.0000
54.1400 305.0000 1.0000
54.1500 302.0000 1.0000
54.1600 317.0000 1.0000
54.1700 311.0000 1.0000
54.1800 302.0000 1.0000
54.1900 298.0000 1.0000
54.2000 326.0000 1.0000
54.2100 284.0000 1.0000
54.2200 287.0000 1.0000
54.2300 268.0000 1.0000
54.2400 294.0000 1.0000
54.2500 290.0000 1.0000
54.2600 276.0000 1.0000
54.2700 254.0000 1.0000
54.2800 308.0000 1.0000
54.2900 326.0000 1.0000
54.3000 317.0000 1.0000
54.3100 290.0000 1.0000
54.3200 308.0000 1.0000
54.3300 298.0000 1.0000
54.3400 300.0000 1.0000
54.3500 300.0000 1.0000
54.3600 303.0000 1.0000
54.3700 288.0000 1.0000
54.3800 299.0000 1.0000
54.3900 312.0000 1.0000
54.4000 340.0000 1.0000
54.4100 349.0000 1.0000
54.4200 291.0000 1.0000
54.4300 302.0000 1.0000
54.4400 320.0000 1.0000
54.4500 304.0000 1.0000
54.4600 299.0000 1.0000
54.4700 284.0000 1.0000
54.4800 306.0000 1.0000
54.4900 311.0000 1.0000
54.5000 336.0000 1.0000
54.5100 307.0000 1.0000
54.5200 315.0000 1.0000
54.5300 330.0000 1.0000
54.5400 316.0000 1.0000
54.5500 337.0000 1.0000
54.5600 348.0000 1.0000
54.5700 369.0000 1.0000
54.5800 340.0000 1.0000
54.5900 354.0000 1.0000
54.6000 366.0000 1.0000
54.6100 383.0000 1.0000
54.6200 385.0000 1.0000
54.6300 394.0000 1.0000
54.6400 382.0000 1.0000
54.6500 383.0000 1.0000
54.6600 380.0000 1.0000
54.6700 389.0000 1.0000
54.6800 404.0000 1.0000
54.6900 393.0000 1.0000
54.7000 387.0000 1.0000
54.7100 401.0000 1.0000
54.7200 358.0000 1.0000
54.7300 367.0000 1.0000
54.7400 384.0000 1.0000
54.7500 394.0000 1.0000
54.7600 379.0000 1.0000
54.7700 399.0000 1.0000
54.7800 365.0000 1.0000
54.7900 354.0000 1.0000
54.8000 375.0000 1.0000
54.8100 387.0000 1.0000
54.8200 356.0000 1.0000
54.8300 360.0000 1.0000
54.8400 328.0000 1.0000
54.8500 358.0000 1.0000
54.8600 353.0000 1.0000
54.8700 365.0000 1.0000
54.8800 344.0000 1.0000
54.8900 327.0000 1.0000
54.9000 300.0000 1.0000
54.9100 301.0000 1.0000
54.9200 316.0000 1.0000
54.9300 307.0000 1.0000
54.9400 305.0000 1.0000
54.9500 313.0000 1.0000
54.9600 308.0000 1.0000
54.9700 306.0000 1.0000
54.9800 322.0000 1.0000
54.9900 301.0000 1.0000
55.0000 308.0000 1.0000
55.0100 289.0000 1.0000
55.0200 280.0000 1.0000
55.0300 281.0000 1.0000
55.0400 284.0000 1.0000
55.0500 292.0000 1.0000
55.0600 259.0000 1.0000
55.0700 271.0000 1.0000
55.0800 276.0000 1.0000
55.0900 261.0000 1.0000
55.1000 265.0000 1.0000
55.1100 281.0000 1.0000
55.1200 278.0000 1.0000
55.1300 271.0000 1.0000
55.1400 294.0000 1.0000
55.1500 306.0000 1.0000
55.1600 286.0000 1.0000
55.1700 266.0000 1.0000
55.1800 281.0000 1.0000
55.1900 294.0000 1.0000
55.2000 285.0000 1.0000
55.2100 258.0000 1.0000
55.2200 264.0000 1.0000
55.2300 289.0000 1.0000
55.2400 261.0000 1.0000
55.2500 291.0000 1.0000
55.2600 276.0000 1.0000
55.2700 263.0000 1.0000
55.2800 258.0000 1.0000
55.2900 249.0000 1.0000
55.3000 271.0000 1.0000
55.3100 280.0000 1.0000
55.3200 297.0000 1.0000
55.3300 279.0000 1.0000
55.3400 271.0000 1.0000
55.3500 286.0000 1.0000
55.3600 295.0000 1.0000
55.3700 228.0000 1.0000
55.3800 253.0000 1.0000
55.3900 261.0000 1.0000
55.4000 259.0000 1.0000
55.4100 238.0000 1.0000
55.4200 254.0000 1.0000
55.4300 256.0000 1.0000
55.4400 240.0000 1.0000
55.4500 237.0000 1.0000
55.4600 252.0000 1.0000
55.4700 244.0000 1.0000
55.4800 275.0000 1.0000
55.4900 257.0000 1.0000
55.5000 251.0000 1.0000
55.5100 251.0000 1.0000
55.5200 242.0000 1.0000
55.5300 251.0000 1.0000
55.5400 246.0000 1.0000
55.5500 240.0000 1.0000
55.5600 262.0000 1.0000
55.5700 263.0000 1.0000
55.5800 251.0000 1.0000
55.5900 259.0000 1.0000
55.6000 261.0000 1.0000
55.6100 260.0000 1.0000
55.6200 260.0000 1.0000
55.6300 255.0000 1.0000
55.6400 253.0000 1.0000
55.6500 262.0000 1.0000
55.6600 262.0000 1.0000
55.6700 270.0000 1.0000
55.6800 252.0000 1.0000
55.6900 258.0000 1.0000
55.7000 288.0000 1.0000
55.7100 245.0000 1.0000
55.7200 244.0000 1.0000
55.7300 256.0000 1.0000
55.7400 240.0000 1.0000
55.7500 272.0000 1.0000
55.7600 283.0000 1.0000
55.7700 254.0000 1.0000
55.7800 238.0000 1.0000
55.7900 262.0000 1.0000
55.8000 250.0000 1.0000
55.8100 264.0000 1.0000
55.8200 244.0000 1.0000
55.8300 259.0000 1.0000
55.8400 269.0000 1.0000
55.8500 258.0000 1.0000
55.8600 258.0000 1.0000
55.8700 232.0000 1.0000
55.8800 243.0000 1.0000
55.8900 233.0000 1.0000
55.9000 261.0000 1.0000
55.9100 255.0000 1.0000
55.9200 264.0000 1.0000
55.9300 267.0000 1.0000
55.9400 267.0000 1.0000
55.9500 258.0000 1.0000
55.9600 243.0000 1.0000
55.9700 275.0000 1.0000
55.9800 260.0000 1.0000
55.9900 256.0000 1.0000
56.0000 251.0000 1.0000
56.0100 250.0000 1.0000
56.0200 260.0000 1.0000
56.0300 246.0000 1.0000
56.0400 238.0000 1.0000
56.0500 244.0000 1.0000
56.0600 266.0000 1.0000
56.0700 274.0000 1.0000
56.0800 273.0000 1.0000
56.0900 230.0000 1.0000
56.1000 229.0000 1.0000
56.1100 264.0000 1.0000
56.1200 268.0000 1.0000
56.1300 231.0000 1.0000
56.1400 269.0000 1.0000
56.1500 256.0000 1.0000
56.1600 266.0000 1.0000
56.1700 272.0000 1.0000
56.1800 255.0000 1.0000
56.1900 272.0000 1.0000
56.2000 273.0000 1.0000
56.2100 260.0000 1.0000
56.2200 262.0000 1.0000
56.2300 272.0000 1.0000
56.2400 246.0000 1.0000
56.2500 241.0000 1.0000
56.2600 245.0000 1.0000
56.2700 249.0000 1.0000
56.2800 263.0000 1.0000
56.2900 276.0000 1.0000
56.3000 248.0000 1.0000
56.3100 248.0000 1.0000
56.3200 248.0000 1.0000
56.3300 298.0000 1.0000
56.3400 265.0000 1.0000
56.3500 275.0000 1.0000
56.3600 270.0000 1.0000
56.3700 264.0000 1.0000
56.3800 242.0000 1.0000
56.3900 261.0000 1.0000
56.4000 263.0000 1.0000
56.4100 283.0000 1.0000
56.4200 284.0000 1.0000
56.4300 258.0000 1.0000
56.4400 251.0000 1.0000
56.4500 244.0000 1.0000
56.4600 245.0000 1.0000
56.4700 246.0000 1.0000
56.4800 267.0000 1.0000
56.4900 272.0000 1.0000
56.5000 265.0000 1.0000
56.5100 251.0000 1.0000
56.5200 262.0000 1.0000
56.5300 264.0000 1.0000
56.5400 254.0000 1.0000
56.5500 264.0000 1.0000
56.5600 269.0000 1.0000
56.5700 238.0000 1.0000
56.5800 228.0000 1.0000
56.5900 250.0000 1.0000
56.6000 243.0000 1.0000
56.6100 271.0000 1.0000
56.6200 258.0000 1.0000
56.6300 297.0000 1.0000
56.6400 291.0000 1.0000
56.6500 269.0000 1.0000
56.6600 270.0000 1.0000
56.6700 260.0000 1.0000
56.6800 268.0000 1.0000
56.6900 244.0000 1.0000
56.7000 235.0000 1.0000
56.7100 268.0000 1.0000
56.7200 268.0000 1.0000
56.7300 263.0000 1.0000
56.7400 270.0000 1.0000
56.7500 289.0000 1.0000
56.7600 252.0000 1.0000
56.7700 250.0000 1.0000
56.7800 242.0000 1.0000
56.7900 220.0000 1.0000
56.8000 271.0000 1.0000
56.8100 258.0000 1.0000
56.8200 266.0000 1.0000
56.8300 241.0000 1.0000
56.8400 251.0000 1.0000
56.8500 263.0000 1.0000
56.8600 245.0000 1.0000
56.8700 255.0000 1.0000
56.8800 275.0000 1.0000
56.8900 263.0000 1.0000
56.9000 273.0000 1.0000
56.9100 275.0000 1.0000
56.9200 244.0000 1.0000
56.9300 252.0000 1.0000
56.9400 236.0000 1.0000
56.9500 268.0000 1.0000
56.9600 263.0000 1.0000
56.9700 263.0000 1.0000
56.9800 271.0000 1.0000
56.9900 226.0000 1.0000
57.0000 250.0000 1.0000
57.0100 249.0000 1.0000
57.0200 230.0000 1.0000
57.0300 231.0000 1.0000
57.0400 270.0000 1.0000
57.0500 243.0000 1.0000
57.0600 219.0000 1.0000
57.0700 221.0000 1.0000
57.0800 254.0000 1.0000
57.0900 271.0000 1.0000
57.1000 265.0000 1.0000
57.1100 272.0000 1.0000
57.1200 249.0000 1.0000
57.1300 238.0000 1.0000
57.1400 261.0000 1.0000
57.1500 275.0000 1.0000
57.1600 269.0000 1.0000
57.1700 262.0000 1.0000
57.1800 276.0000 1.0000
57.1900 249.0000 1.0000
57.2000 271.0000 1.0000
57.2100 235.0000 1.0000
57.2200 250.0000 1.0000
57.2300 267.0000 1.0000
57.2400 263.0000 1.0000
57.2500 284.0000 1.0000
57.2600 256.0000 1.0000
57.2700 236.0000 1.0000
57.2800 230.0000 1.0000
57.2900 264.0000 1.0000
57.3000 243.0000 1.0000
57.3100 244.0000 1.0000
57.3200 258.0000 1.0000
57.3300 236.0000 1.0000
57.3400 238.0000 1.0000
57.3500 258.0000 1.0000
57.3600 236.0000 1.0000
57.3700 272.0000 1.0000
57.3800 250.0000 1.0000
57.3900 286.0000 1.0000
57.4000 254.0000 1.0000
57.4100 250.0000 1.0000
57.4200 254.0000 1.0000
57.4300 252.0000 1.0000
57.4400 283.0000 1.0000
57.4500 235.0000 1.0000
57.4600 263.0000 1.0000
57.4700 252.0000 1.0000
57.4800 238.0000 1.0000
57.4900 261.0000 1.0000
57.5000 244.0000 1.0000
57.5100 254.0000 1.0000
57.5200 251.0000 1.0000
57.5300 268.0000 1.0000
57.5400 256.0000 1.0000
57.5500 264.0000 1.0000
57.5600 261.0000 1.0000
57.5700 260.0000 1.0000
57.5800 240.0000 1.0000
57.5900 262.0000 1.0000
57.6000 283.0000 1.0000
57.6100 256.0000 1.0000
57.6200 238.0000 1.0000
57.6300 279.0000 1.0000
57.6400 258.0000 1.0000
57.6500 262.0000 1.0000
57.6600 254.0000 1.0000
57.6700 254.0000 1.0000
57.6800 253.0000 1.0000
57.6900 267.0000 1.0000
57.7000 247.0000 1.0000
57.7100 267.0000 1.0000
57.7200 249.0000 1.0000
57.7300 254.0000 1.0000
57.7400 277.0000 1.0000
57.7500 270.0000 1.0000
57.7600 269.0000 1.0000
57.7700 262.0000 1.0000
57.7800 241.0000 1.0000
57.7900 274.0000 1.0000
57.8000 283.0000 1.0000
57.8100 258.0000 1.0000
57.8200 259.0000 1.0000
57.8300 263.0000 1.0000
57.8400 261.0000 1.0000
57.8500 261.0000 1.0000
57.8600 283.0000 1.0000
57.8700 267.0000 1.0000
57.8800 274.0000 1.0000
57.8900 247.0000 1.0000
57.9000 250.0000 1.0000
57.9100 239.0000 1.0000
57.9200 249.0000 1.0000
57.9300 227.0000 1.0000
57.9400 246.0000 1.0000
57.9500 253.0000 1.0000
57.9600 252.0000 1.0000
57.9700 257.0000 1.0000
57.9800 264.0000 1.0000
57.9900 265.0000 1.0000
58.0000 281.0000 1.0000
58.0100 298.0000 1.0000
58.0200 285.0000 1.0000
58.0300 263.0000 1.0000
58.0400 286.0000 1.0000
58.0500 270.0000 1.0000
58.0600 264.0000 1.0000
58.0700 253.0000 1.0000
58.0800 233.0000 1.0000
58.0900 236.0000 1.0000
58.1000 260.0000 1.0000
58.1100 260.0000 1.0000
58.1200 287.0000 1.0000
58.1300 243.0000 1.0000
58.1400 277.0000 1.0000
58.1500 252.0000 1.0000
58.1600 264.0000 1.0000
58.1700 253.0000 1.0000
58.1800 240.0000 1.0000
58.1900 249.0000 1.0000
58.2000 247.0000 1.0000
58.2100 269.0000 1.0000
58.2200 256.0000 1.0000
58.2300 264.0000 1.0000
58.2400 240.0000 1.0000
58.2500 238.0000 1.0000
58.2600 261.0000 1.0000
58.2700 247.0000 1.0000
58.2800 261.0000 1.0000
58.2900 260.0000 1.0000
58.3000 253.0000 1.0000
58.3100 261.0000 1.0000
58.3200 240.0000 1.0000
58.3300 280.0000 1.0000
58.3400 245.0000 1.0000
58.3500 265.0000 1.0000
58.3600 251.0000 1.0000
58.3700 259.0000 1.0000
58.3800 257.0000 1.0000
58.3900 291.0000 1.0000
58.4000 237.0000 1.0000
58.4100 237.0000 1.0000
58.4200 260.0000 1.0000
58.4300 260.0000 1.0000
58.4400 234.0000 1.0000
58.4500 262.0000 1.0000
58.4600 254.0000 1.0000
58.4700 283.0000 1.0000
58.4800 246.0000 1.0000
58.4900 252.0000 1.0000
58.5000 243.0000 1.0000
58.5100 234.0000 1.0000
58.5200 252.0000 1.0000
58.5300 276.0000 1.0000
58.5400 281.0000 1.0000
58.5500 252.0000 1.0000
58.5600 264.0000 1.0000
58.5700 246.0000 1.0000
58.5800 232.0000 1.0000
58.5900 238.0000 1.0000
58.6000 237.0000 1.0000
58.6100 251.0000 1.0000
58.6200 257.0000 1.0000
58.6300 244.0000 1.0000
58.6400 248.0000 1.0000
58.6500 268.0000 1.0000
58.6600 246.0000 1.0000
58.6700 259.0000 1.0000
58.6800 254.0000 1.0000
58.6900 237.0000 1.0000
58.7000 256.0000 1.0000
58.7100 274.0000 1.0000
58.7200 258.0000 1.0000
58.7300 254.0000 1.0000
58.7400 261.0000 1.0000
58.7500 265.0000 1.0000
58.7600 255.0000 1.0000
58.7700 256.0000 1.0000
58.7800 258.0000 1.0000
58.7900 231.0000 1.0000
58.8000 252.0000 1.0000
58.8100 244.0000 1.0000
58.8200 224.0000 1.0000
58.8300 255.0000 1.0000
58.8400 272.0000 1.0000
58.8500 237.0000 1.0000
58.8600 262.0000 1.0000
58.8700 239.0000 1.0000
58.8800 258.0000 1.0000
58.8900 241.0000 1.0000
58.9000 238.0000 1.0000
58.9100 261.0000 1.0000
58.9200 249.0000 1.0000
58.9300 260.0000 1.0000
58.9400 253.0000 1.0000
58.9500 258.0000 1.0000
58.9600 231.0000 1.0000
58.9700 218.0000 1.0000
58.9800 232.0000 1.0000
58.9900 242.0000 1.0000
59.0000 260.0000 1.0000
59.0100 243.0000 1.0000
59.0200 255.0000 1.0000
59.0300 250.0000 1.0000
59.0400 238.0000 1.0000
59.0500 248.0000 1.0000
59.0600 257.0000 1.0000
59.0700 237.0000 1.0000
59.0800 244.0000 1.0000
59.0900 245.0000 1.0000
59.1000 257.0000 1.0000
59.1100 291.0000 1.0000
59.1200 263.0000 1.0000
59.1300 257.0000 1.0000
59.1400 278.0000 1.0000
59.1500 261.0000 1.0000
59.1600 248.0000 1.0000
59.1700 247.0000 1.0000
59.1800 252.0000 1.0000
59.1900 246.0000 1.0000
59.2000 267.0000 1.0000
59.2100 221.0000 1.0000
59.2200 227.0000 1.0000
59.2300 244.0000 1.0000
59.2400 243.0000 1.0000
59.2500 246.0000 1.0000
59.2600 255.0000 1.0000
59.2700 233.0000 1.0000
59.2800 252.0000 1.0000
59.2900 241.0000 1.0000
59.3000 241.0000 1.0000
59.3100 264.0000 1.0000
59.3200 260.0000 1.0000
59.3300 285.0000 1.0000
59.3400 252.0000 1.0000
59.3500 252.0000 1.0000
59.3600 238.0000 1.0000
59.3700 240.0000 1.0000
59.3800 240.0000 1.0000
59.3900 229.0000 1.0000
59.4000 248.0000 1.0000
59.4100 239.0000 1.0000
59.4200 245.0000 1.0000
59.4300 263.0000 1.0000
59.4400 266.0000 1.0000
59.4500 265.0000 1.0000
59.4600 245.0000 1.0000
59.4700 254.0000 1.0000
59.4800 261.0000 1.0000
59.4900 256.0000 1.0000
59.5000 245.0000 1.0000
59.5100 233.0000 1.0000
59.5200 244.0000 1.0000
59.5300 240.0000 1.0000
59.5400 230.0000 1.0000
59.5500 244.0000 1.0000
59.5600 251.0000 1.0000
59.5700 221.0000 1.0000
59.5800 252.0000 1.0000
59.5900 250.0000 1.0000
59.6000 259.0000 1.0000
59.6100 254.0000 1.0000
59.6200 240.0000 1.0000
59.6300 253.0000 1.0000
59.6400 260.0000 1.0000
59.6500 250.0000 1.0000
59.6600 260.0000 1.0000
59.6700 245.0000 1.0000
59.6800 241.0000 1.0000
59.6900 228.0000 1.0000
59.7000 271.0000 1.0000
59.7100 263.0000 1.0000
59.7200 247.0000 1.0000
59.7300 235.0000 1.0000
59.7400 243.0000 1.0000
59.7500 233.0000 1.0000
59.7600 246.0000 1.0000
59.7700 251.0000 1.0000
59.7800 245.0000 1.0000
59.7900 243.0000 1.0000
59.8000 244.0000 1.0000
59.8100 226.0000 1.0000
59.8200 245.0000 1.0000
59.8300 236.0000 1.0000
59.8400 229.0000 1.0000
59.8500 252.0000 1.0000
59.8600 256.0000 1.0000
59.8700 276.0000 1.0000
59.8800 249.0000 1.0000
59.8900 259.0000 1.0000
59.9000 243.0000 1.0000
59.9100 250.0000 1.0000
59.9200 249.0000 1.0000
59.9300 238.0000 1.0000
59.9400 255.0000 1.0000
59.9500 248.0000 1.0000
59.9600 238.0000 1.0000
59.9700 223.0000 1.0000
59.9800 265.0000 1.0000
59.9900 257.0000 1.0000
60.0000 259.0000 1.0000
60.0100 248.0000 1.0000
60.0200 263.0000 1.0000
60.0300 229.0000 1.0000
60.0400 260.0000 1.0000
60.0500 260.0000 1.0000
60.0600 266.0000 1.0000
60.0700 252.0000 1.0000
60.0800 250.0000 1.0000
60.0900 242.0000 1.0000
60.1000 264.0000 1.0000
60.1100 237.0000 1.0000
60.1200 244.0000 1.0000
60.1300 247.0000 1.0000
60.1400 257.0000 1.0000
60.1500 275.0000 1.0000
60.1600 243.0000 1.0000
60.1700 246.0000 1.0000
60.1800 252.0000 1.0000
60.1900 230.0000 1.0000
60.2000 261.0000 1.0000
60.2100 229.0000 1.0000
60.2200 251.0000 1.0000
60.2300 278.0000 1.0000
60.2400 257.0000 1.0000
60.2500 239.0000 1.0000
60.2600 241.0000 1.0000
60.2700 252.0000 1.0000
60.2800 231.0000 1.0000
60.2900 272.0000 1.0000
60.3000 274.0000 1.0000
60.3100 223.0000 1.0000
60.3200 234.0000 1.0000
60.3300 248.0000 1.0000
60.3400 230.0000 1.0000
60.3500 263.0000 1.0000
60.3600 248.0000 1.0000
60.3700 234.0000 1.0000
60.3800 260.0000 1.0000
60.3900 261.0000 1.0000
60.4000 264.0000 1.0000
60.4100 254.0000 1.0000
60.4200 258.0000 1.0000
60.4300 238.0000 1.0000
60.4400 266.0000 1.0000
60.4500 226.0000 1.0000
60.4600 232.0000 1.0000
60.4700 245.0000 1.0000
60.4800 255.0000 1.0000
60.4900 243.0000 1.0000
60.5000 262.0000 1.0000
60.5100 250.0000 1.0000
60.5200 249.0000 1.0000
60.5300 249.0000 1.0000
60.5400 249.0000 1.0000
60.5500 244.0000 1.0000
60.5600 262.0000 1.0000
60.5700 251.0000 1.0000
60.5800 228.0000 1.0000
60.5900 245.0000 1.0000
60.6000 238.0000 1.0000
60.6100 261.0000 1.0000
60.6200 224.0000 1.0000
60.6300 237.0000 1.0000
60.6400 257.0000 1.0000
60.6500 256.0000 1.0000
60.6600 274.0000 1.0000
60.6700 290.0000 1.0000
60.6800 233.0000 1.0000
60.6900 249.0000 1.0000
60.7000 275.0000 1.0000
60.7100 277.0000 1.0000
60.7200 267.0000 1.0000
60.7300 231.0000 1.0000
60.7400 224.0000 1.0000
60.7500 250.0000 1.0000
60.7600 243.0000 1.0000
60.7700 272.0000 1.0000
60.7800 258.0000 1.0000
60.7900 243.0000 1.0000
60.8000 230.0000 1.0000
60.8100 240.0000 1.0000
60.8200 238.0000 1.0000
60.8300 266.0000 1.0000
60.8400 254.0000 1.0000
60.8500 254.0000 1.0000
60.8600 251.0000 1.0000
60.8700 246.0000 1.0000
60.8800 245.0000 1.0000
60.8900 241.0000 1.0000
60.9000 247.0000 1.0000
60.9100 234.0000 1.0000
60.9200 270.0000 1.0000
60.9300 253.0000 1.0000
60.9400 262.0000 1.0000
60.9500 248.0000 1.0000
60.9600 257.0000 1.0000
60.9700 254.0000 1.0000
60.9800 215.0000 1.0000
60.9900 236.0000 1.0000
61.0000 280.0000 1.0000
61.0100 254.0000 1.0000
61.0200 240.0000 1.0000
61.0300 268.0000 1.0000
61.0400 248.0000 1.0000
61.0500 269.0000 1.0000
61.0600 258.0000 1.0000
61.0700 268.0000 1.0000
61.0800 289.0000 1.0000
61.0900 249.0000 1.0000
61.1000 252.0000 1.0000
61.1100 256.0000 1.0000
61.1200 269.0000 1.0000
61.1300 274.0000 1.0000
61.1400 272.0000 1.0000
61.1500 262.0000 1.0000
61.1600 266.0000 1.0000
61.1700 253.0000 1.0000
61.1800 267.0000 1.0000
61.1900 255.0000 1.0000
61.2000 275.0000 1.0000
61.2100 263.0000 1.0000
61.2200 268.0000 1.0000
61.2300 276.0000 1.0000
61.2400 291.0000 1.0000
61.2500 296.0000 1.0000
61.2600 265.0000 1.0000
61.2700 276.0000 1.0000
61.2800 265.0000 1.0000
61.2900 268.0000 1.0000
61.3000 266.0000 1.0000
61.3100 281.0000 1.0000
61.3200 294.0000 1.0000
61.3300 296.0000 1.0000
61.3400 308.0000 1.0000
61.3500 288.0000 1.0000
61.3600 296.0000 1.0000
61.3700 314.0000 1.0000
61.3800 317.0000 1.0000
61.3900 312.0000 1.0000
61.4000 324.0000 1.0000
61.4100 280.0000 1.0000
61.4200 317.0000 1.0000
61.4300 328.0000 1.0000
61.4400 312.0000 1.0000
61.4500 304.0000 1.0000
61.4600 342.0000 1.0000
61.4700 347.0000 1.0000
61.4800 379.0000 1.0000
61.4900 389.0000 1.0000
61.5000 370.0000 1.0000
61.5100 389.0000 1.0000
61.5200 347.0000 1.0000
61.5300 394.0000 1.0000
61.5400 398.0000 1.0000
61.5500 416.0000 1.0000
61.5600 460.0000 1.0000
61.5700 447.0000 1.0000
61.5800 434.0000 1.0000
61.5900 446.0000 1.0000
61.6000 476.0000 1.0000
61.6100 484.0000 1.0000
61.6200 485.0000 1.0000
61.6300 489.0000 1.0000
61.6400 510.0000 1.0000
61.6500 523.0000 1.0000
61.6600 489.0000 1.0000
61.6700 496.0000 1.0000
61.6800 518.0000 1.0000
61.6900 513.0000 1.0000
61.7000 508.0000 1.0000
61.7100 532.0000 1.0000
61.7200 522.0000 1.0000
61.7300 474.0000 1.0000
61.7400 509.0000 1.0000
61.7500 480.0000 1.0000
61.7600 494.0000 1.0000
61.7700 524.0000 1.0000
61.7800 515.0000 1.0000
61.7900 515.0000 1.0000
61.8000 512.0000 1.0000
61.8100 489.0000 1.0000
61.8200 471.0000 1.0000
61.8300 450.0000 1.0000
61.8400 486.0000 1.0000
61.8500 439.0000 1.0000
61.8600 420.0000 1.0000
61.8700 458.0000 1.0000
61.8800 446.0000 1.0000
61.8900 407.0000 1.0000
61.9000 398.0000 1.0000
61.9100 407.0000 1.0000
61.9200 372.0000 1.0000
61.9300 377.0000 1.0000
61.9400 385.0000 1.0000
61.9500 370.0000 1.0000
61.9600 390.0000 1.0000
61.9700 366.0000 1.0000
61.9800 353.0000 1.0000
61.9900 351.0000 1.0000
62.0000 325.0000 1.0000
62.0100 326.0000 1.0000
62.0200 315.0000 1.0000
62.0300 313.0000 1.0000
62.0400 338.0000 1.0000
62.0500 341.0000 1.0000
62.0600 346.0000 1.0000
62.0700 300.0000 1.0000
62.0800 278.0000 1.0000
62.0900 317.0000 1.0000
62.1000 336.0000 1.0000
62.1100 300.0000 1.0000
62.1200 295.0000 1.0000
62.1300 298.0000 1.0000
62.1400 284.0000 1.0000
62.1500 261.0000 1.0000
62.1600 291.0000 1.0000
62.1700 285.0000 1.0000
62.1800 311.0000 1.0000
62.1900 307.0000 1.0000
62.2000 271.0000 1.0000
62.2100 300.0000 1.0000
62.2200 280.0000 1.0000
62.2300 279.0000 1.0000
62.2400 277.0000 1.0000
62.2500 290.0000 1.0000
62.2600 267.0000 1.0000
62.2700 270.0000 1.0000
62.2800 298.0000 1.0000
62.2900 283.0000 1.0000
62.3000 270.0000 1.0000
62.3100 285.0000 1.0000
62.3200 286.0000 1.0000
62.3300 262.0000 1.0000
62.3400 240.0000 1.0000
62.3500 256.0000 1.0000
62.3600 258.0000 1.0000
62.3700 284.0000 1.0000
62.3800 275.0000 1.0000
62.3900 253.0000 1.0000
62.4000 260.0000 1.0000
62.4100 282.0000 1.0000
62.4200 298.0000 1.0000
62.4300 285.0000 1.0000
62.4400 271.0000 1.0000
62.4500 251.0000 1.0000
62.4600 258.0000 1.0000
62.4700 270.0000 1.0000
62.4800 303.0000 1.0000
62.4900 309.0000 1.0000
62.5000 283.0000 1.0000
62.5100 302.0000 1.0000
62.5200 276.0000 1.0000
62.5300 273.0000 1.0000
62.5400 276.0000 1.0000
62.5500 259.0000 1.0000
62.5600 274.0000 1.0000
62.5700 271.0000 1.0000
62.5800 261.0000 1.0000
62.5900 284.0000 1.0000
62.6000 280.0000 1.0000
62.6100 243.0000 1.0000
62.6200 282.0000 1.0000
62.6300 303.0000 1.0000
62.6400 285.0000 1.0000
62.6500 265.0000 1.0000
62.6600 265.0000 1.0000
62.6700 288.0000 1.0000
62.6800 243.0000 1.0000
62.6900 264.0000 1.0000
62.7000 278.0000 1.0000
62.7100 240.0000 1.0000
62.7200 275.0000 1.0000
62.7300 245.0000 1.0000
62.7400 276.0000 1.0000
62.7500 265.0000 1.0000
62.7600 261.0000 1.0000
62.7700 276.0000 1.0000
62.7800 267.0000 1.0000
62.7900 271.0000 1.0000
62.8000 259.0000 1.0000
62.8100 239.0000 1.0000
62.8200 290.0000 1.0000
62.8300 276.0000 1.0000
62.8400 255.0000 1.0000
62.8500 255.0000 1.0000
62.8600 241.0000 1.0000
62.8700 251.0000 1.0000
62.8800 265.0000 1.0000
62.8900 237.0000 1.0000
62.9000 271.0000 1.0000
62.9100 258.0000 1.0000
62.9200 241.0000 1.0000
62.9300 262.0000 1.0000
62.9400 254.0000 1.0000
62.9500 239.0000 1.0000
62.9600 241.0000 1.0000
62.9700 257.0000 1.0000
62.9800 273.0000 1.0000
62.9900 261.0000 1.0000
63.0000 272.0000 1.0000
63.0100 231.0000 1.0000
63.0200 252.0000 1.0000
63.0300 241.0000 1.0000
63.0400 247.0000 1.0000
63.0500 249.0000 1.0000
63.0600 260.0000 1.0000
63.0700 253.0000 1.0000
63.0800 257.0000 1.0000
63.0900 241.0000 1.0000
63.1000 253.0000 1.0000
63.1100 241.0000 1.0000
63.1200 257.0000 1.0000
63.1300 233.0000 1.0000
63.1400 233.0000 1.0000
63.1500 254.0000 1.0000
63.1600 280.0000 1.0000
63.1700 249.0000 1.0000
63.1800 254.0000 1.0000
63.1900 233.0000 1.0000
63.2000 235.0000 1.0000
63.2100 240.0000 1.0000
63.2200 249.0000 1.0000
63.2300 251.0000 1.0000
63.2400 266.0000 1.0000
63.2500 252.0000 1.0000
63.2600 269.0000 1.0000
63.2700 242.0000 1.0000
63.2800 258.0000 1.0000
63.2900 235.0000 1.0000
63.3000 249.0000 1.0000
63.3100 261.0000 1.0000
63.3200 270.0000 1.0000
63.3300 271.0000 1.0000
63.3400 231.0000 1.0000
63.3500 241.0000 1.0000
63.3600 249.0000 1.0000
63.3700 249.0000 1.0000
63.3800 255.0000 1.0000
63.3900 251.0000 1.0000
63.4000 233.0000 1.0000
63.4100 267.0000 1.0000
63.4200 244.0000 1.0000
63.4300 267.0000 1.0000
63.4400 244.0000 1.0000
63.4500 236.0000 1.0000
63.4600 236.0000 1.0000
63.4700 223.0000 1.0000
63.4800 254.0000 1.0000
63.4900 260.0000 1.0000
63.5000 253.0000 1.0000
63.5100 281.0000 1.0000
63.5200 252.0000 1.0000
63.5300 244.0000 1.0000
63.5400 265.0000 1.0000
63.5500 250.0000 1.0000
63.5600 240.0000 1.0000
63.5700 259.0000 1.0000
63.5800 255.0000 1.0000
63.5900 264.0000 1.0000
63.6000 237.0000 1.0000
63.6100 218.0000 1.0000
63.6200 235.0000 1.0000
63.6300 263.0000 1.0000
63.6400 267.0000 1.0000
63.6500 252.0000 1.0000
63.6600 281.0000 1.0000
63.6700 253.0000 1.0000
63.6800 272.0000 1.0000
63.6900 242.0000 1.0000
63.7000 243.0000 1.0000
63.7100 262.0000 1.0000
63.7200 265.0000 1.0000
63.7300 287.0000 1.0000
63.7400 275.0000 1.0000
63.7500 254.0000 1.0000
63.7600 270.0000 1.0000
63.7700 268.0000 1.0000
63.7800 252.0000 1.0000
63.7900 303.0000 1.0000
63.8000 274.0000 1.0000
63.8100 257.0000 1.0000
63.8200 276.0000 1.0000
63.8300 263.0000 1.0000
63.8400 279.0000 1.0000
63.8500 247.0000 1.0000
63.8600 286.0000 1.0000
63.8700 273.0000 1.0000
63.8800 279.0000 1.0000
63.8900 291.0000 1.0000
63.9000 281.0000 1.0000
63.9100 290.0000 1.0000
63.9200 295.0000 1.0000
63.9300 322.0000 1.0000
63.9400 296.0000 1.0000
63.9500 282.0000 1.0000
63.9600 316.0000 1.0000
63.9700 292.0000 1.0000
63.9800 308.0000 1.0000
63.9900 346.0000 1.0000
64.0000 350.0000 1.0000
64.0100 352.0000 1.0000
64.0200 363.0000 1.0000
64.0300 328.0000 1.0000
64.0400 341.0000 1.0000
64.0500 368.0000 1.0000
64.0600 352.0000 1.0000
64.0700 374.0000 1.0000
64.0800 364.0000 1.0000
64.0900 392.0000 1.0000
64.1000 376.0000 1.0000
64.1100 413.0000 1.0000
64.1200 348.0000 1.0000
64.1300 386.0000 1.0000
64.1400 399.0000 1.0000
64.1500 356.0000 1.0000
64.1600 366.0000 1.0000
64.1700 368.0000 1.0000
64.1800 356.0000 1.0000
64.1900 362.0000 1.0000
64.2000 365.0000 1.0000
64.2100 349.0000 1.0000
64.2200 351.0000 1.0000
64.2300 373.0000 1.0000
64.2400 361.0000 1.0000
64.2500 348.0000 1.0000
64.2600 342.0000 1.0000
64.2700 377.0000 1.0000
64.2800 339.0000 1.0000
64.2900 295.0000 1.0000
64.3000 330.0000 1.0000
64.3100 326.0000 1.0000
64.3200 338.0000 1.0000
64.3300 313.0000 1.0000
64.3400 327.0000 1.0000
64.3500 330.0000 1.0000
64.3600 308.0000 1.0000
64.3700 297.0000 1.0000
64.3800 315.0000 1.0000
64.3900 314.0000 1.0000
64.4000 311.0000 1.0000
64.4100 294.0000 1.0000
64.4200 282.0000 1.0000
64.4300 272.0000 1.0000
64.4400 269.0000 1.0000
64.4500 290.0000 1.0000
64.4600 288.0000 1.0000
64.4700 299.0000 1.0000
64.4800 302.0000 1.0000
64.4900 292.0000 1.0000
64.5000 289.0000 1.0000
64.5100 282.0000 1.0000
64.5200 305.0000 1.0000
64.5300 293.0000 1.0000
64.5400 290.0000 1.0000
64.5500 285.0000 1.0000
64.5600 265.0000 1.0000
64.5700 298.0000 1.0000
64.5800 262.0000 1.0000
64.5900 280.0000 1.0000
64.6000 271.0000 1.0000
64.6100 277.0000 1.0000
64.6200 269.0000 1.0000
64.6300 262.0000 1.0000
64.6400 271.0000 1.0000
64.6500 252.0000 1.0000
64.6600 299.0000 1.0000
64.6700 267.0000 1.0000
64.6800 257.0000 1.0000
64.6900 248.0000 1.0000
64.7000 263.0000 1.0000
64.7100 293.0000 1.0000
64.7200 297.0000 1.0000
64.7300 276.0000 1.0000
64.7400 258.0000 1.0000
64.7500 222.0000 1.0000
64.7600 272.0000 1.0000
64.7700 224.0000 1.0000
64.7800 280.0000 1.0000
64.7900 275.0000 1.0000
64.8000 250.0000 1.0000
64.8100 254.0000 1.0000
64.8200 246.0000 1.0000
64.8300 252.0000 1.0000
64.8400 244.0000 1.0000
64.8500 234.0000 1.0000
64.8600 249.0000 1.0000
64.8700 259.0000 1.0000
64.8800 270.0000 1.0000
64.8900 272.0000 1.0000
64.9000 261.0000 1.0000
64.9100 276.0000 1.0000
64.9200 255.0000 1.0000
64.9300 261.0000 1.0000
64.9400 257.0000 1.0000
64.9500 280.0000 1.0000
64.9600 260.0000 1.0000
64.9700 240.0000 1.0000
64.9800 264.0000 1.0000
64.9900 243.0000 1.0000
65.0000 242.0000 1.0000
65.0100 282.0000 1.0000
65.0200 279.0000 1.0000
65.0300 260.0000 1.0000
65.0400 244.0000 1.0000
65.0500 267.0000 1.0000
65.0600 250.0000 1.0000
65.0700 244.0000 1.0000
65.0800 273.0000 1.0000
65.0900 253.0000 1.0000
65.1000 259.0000 1.0000
65.1100 284.0000 1.0000
65.1200 270.0000 1.0000
65.1300 264.0000 1.0000
65.1400 267.0000 1.0000
65.1500 293.0000 1.0000
65.1600 249.0000 1.0000
65.1700 268.0000 1.0000
65.1800 285.0000 1.0000
65.1900 268.0000 1.0000
65.2000 254.0000 1.0000
65.2100 277.0000 1.0000
65.2200 295.0000 1.0000
65.2300 278.0000 1.0000
65.2400 285.0000 1.0000
65.2500 281.0000 1.0000
65.2600 283.0000 1.0000
65.2700 274.0000 1.0000
65.2800 300.0000 1.0000
65.2900 308.0000 1.0000
65.3000 312.0000 1.0000
65.3100 334.0000 1.0000
65.3200 304.0000 1.0000
65.3300 323.0000 1.0000
65.3400 345.0000 1.0000
65.3500 324.0000 1.0000
65.3600 325.0000 1.0000
65.3700 308.0000 1.0000
65.3800 316.0000 1.0000
65.3900 385.0000 1.0000
65.4000 368.0000 1.0000
65.4100 368.0000 1.0000
65.4200 375.0000 1.0000
65.4300 369.0000 1.0000
65.4400 404.0000 1.0000
65.4500 402.0000 1.0000
65.4600 423.0000 1.0000
65.4700 407.0000 1.0000
65.4800 432.0000 1.0000
65.4900 475.0000 1.0000
65.5000 477.0000 1.0000
65.5100 479.0000 1.0000
65.5200 498.0000 1.0000
65.5300 543.0000 1.0000
65.5400 626.0000 1.0000
65.5500 649.0000 1.0000
65.5600 659.0000 1.0000
65.5700 697.0000 1.0000
65.5800 734.0000 1.0000
65.5900 751.0000 1.0000
65.6000 789.0000 1.0000
65.6100 816.0000 1.0000
65.6200 833.0000 1.0000
65.6300 840.0000 1.0000
65.6400 878.0000 1.0000
65.6500 899.0000 1.0000
65.6600 930.0000 1.0000
65.6700 921.0000 1.0000
65.6800 946.0000 1.0000
65.6900 940.0000 1.0000
65.7000 939.0000 1.0000
65.7100 936.0000 1.0000
65.7200 921.0000 1.0000
65.7300 896.0000 1.0000
65.7400 854.0000 1.0000
65.7500 863.0000 1.0000
65.7600 808.0000 1.0000
65.7700 826.0000 1.0000
65.7800 818.0000 1.0000
65.7900 775.0000 1.0000
65.8000 787.0000 1.0000
65.8100 761.0000 1.0000
65.8200 807.0000 1.0000
65.8300 770.0000 1.0000
65.8400 769.0000 1.0000
65.8500 744.0000 1.0000
65.8600 706.0000 1.0000
65.8700 681.0000 1.0000
65.8800 667.0000 1.0000
65.8900 681.0000 1.0000
65.9000 621.0000 1.0000
65.9100 614.0000 1.0000
65.9200 600.0000 1.0000
65.9300 565.0000 1.0000
65.9400 563.0000 1.0000
65.9500 520.0000 1.0000
65.9600 524.0000 1.0000
65.9700 493.0000 1.0000
65.9800 482.0000 1.0000
65.9900 475.0000 1.0000
66.0000 477.0000 1.0000
66.0100 431.0000 1.0000
66.0200 406.0000 1.0000
66.0300 418.0000 1.0000
66.0400 378.0000 1.0000
66.0500 382.0000 1.0000
66.0600 368.0000 1.0000
66.0700 367.0000 1.0000
66.0800 365.0000 1.0000
66.0900 343.0000 1.0000
66.1000 340.0000 1.0000
66.1100 321.0000 1.0000
66.1200 321.0000 1.0000
66.1300 315.0000 1.0000
66.1400 293.0000 1.0000
66.1500 308.0000 1.0000
66.1600 325.0000 1.0000
66.1700 303.0000 1.0000
66.1800 313.0000 1.0000
66.1900 283.0000 1.0000
66.2000 299.0000 1.0000
66.2100 291.0000 1.0000
66.2200 296.0000 1.0000
66.2300 283.0000 1.0000
66.2400 276.0000 1.0000
66.2500 275.0000 1.0000
66.2600 273.0000 1.0000
66.2700 253.0000 1.0000
66.2800 268.0000 1.0000
66.2900 262.0000 1.0000
66.3000 273.0000 1.0000
66.3100 287.0000 1.0000
66.3200 288.0000 1.0000
66.3300 256.0000 1.0000
66.3400 260.0000 1.0000
66.3500 256.0000 1.0000
66.3600 270.0000 1.0000
66.3700 256.0000 1.0000
66.3800 258.0000 1.0000
66.3900 256.0000 1.0000
66.4000 246.0000 1.0000
66.4100 272.0000 1.0000
66.4200 274.0000 1.0000
66.4300 264.0000 1.0000
66.4400 287.0000 1.0000
66.4500 257.0000 1.0000
66.4600 257.0000 1.0000
66.4700 262.0000 1.0000
66.4800 268.0000 1.0000
66.4900 239.0000 1.0000
66.5000 250.0000 1.0000
66.5100 249.0000 1.0000
66.5200 234.0000 1.0000
66.5300 241.0000 1.0000
66.5400 251.0000 1.0000
66.5500 261.0000 1.0000
66.5600 248.0000 1.0000
66.5700 237.0000 1.0000
66.5800 263.0000 1.0000
66.5900 269.0000 1.0000
66.6000 255.0000 1.0000
66.6100 242.0000 1.0000
66.6200 231.0000 1.0000
66.6300 260.0000 1.0000
66.6400 267.0000 1.0000
66.6500 253.0000 1.0000
66.6600 250.0000 1.0000
66.6700 230.0000 1.0000
66.6800 259.0000 1.0000
66.6900 236.0000 1.0000
66.7000 240.0000 1.0000
66.7100 234.0000 1.0000
66.7200 248.0000 1.0000
66.7300 254.0000 1.0000
66.7400 217.0000 1.0000
66.7500 224.0000 1.0000
66.7600 234.0000 1.0000
66.7700 243.0000 1.0000
66.7800 227.0000 1.0000
66.7900 225.0000 1.0000
66.8000 256.0000 1.0000
66.8100 247.0000 1.0000
66.8200 241.0000 1.0000
66.8300 229.0000 1.0000
66.8400 228.0000 1.0000
66.8500 239.0000 1.0000
66.8600 228.0000 1.0000
66.8700 247.0000 1.0000
66.8800 233.0000 1.0000
66.8900 245.0000 1.0000
66.9000 251.0000 1.0000
66.9100 216.0000 1.0000
66.9200 251.0000 1.0000
66.9300 226.0000 1.0000
66.9400 238.0000 1.0000
66.9500 253.0000 1.0000
66.9600 271.0000 1.0000
66.9700 233.0000 1.0000
66.9800 212.0000 1.0000
66.9900 226.0000 1.0000
67.0000 245.0000 1.0000
67.0100 219.0000 1.0000
67.0200 239.0000 1.0000
67.0300 214.0000 1.0000
67.0400 238.0000 1.0000
67.0500 245.0000 1.0000
67.0600 242.0000 1.0000
67.0700 252.0000 1.0000
67.0800 235.0000 1.0000
67.0900 243.0000 1.0000
67.1000 213.0000 1.0000
67.1100 244.0000 1.0000
67.1200 248.0000 1.0000
67.1300 229.0000 1.0000
67.1400 237.0000 1.0000
67.1500 233.0000 1.0000
67.1600 259.0000 1.0000
67.1700 244.0000 1.0000
67.1800 255.0000 1.0000
67.1900 244.0000 1.0000
67.2000 251.0000 1.0000
67.2100 231.0000 1.0000
67.2200 243.0000 1.0000
67.2300 241.0000 1.0000
67.2400 230.0000 1.0000
67.2500 262.0000 1.0000
67.2600 232.0000 1.0000
67.2700 242.0000 1.0000
67.2800 222.0000 1.0000
67.2900 249.0000 1.0000
67.3000 220.0000 1.0000
67.3100 212.0000 1.0000
67.3200 241.0000 1.0000
67.3300 230.0000 1.0000
67.3400 223.0000 1.0000
67.3500 226.0000 1.0000
67.3600 243.0000 1.0000
67.3700 249.0000 1.0000
67.3800 228.0000 1.0000
67.3900 245.0000 1.0000
67.4000 230.0000 1.0000
67.4100 253.0000 1.0000
67.4200 248.0000 1.0000
67.4300 209.0000 1.0000
67.4400 227.0000 1.0000
67.4500 227.0000 1.0000
67.4600 239.0000 1.0000
67.4700 238.0000 1.0000
67.4800 220.0000 1.0000
67.4900 210.0000 1.0000
67.5000 230.0000 1.0000
67.5100 241.0000 1.0000
67.5200 255.0000 1.0000
67.5300 227.0000 1.0000
67.5400 212.0000 1.0000
67.5500 223.0000 1.0000
67.5600 264.0000 1.0000
67.5700 231.0000 1.0000
67.5800 221.0000 1.0000
67.5900 222.0000 1.0000
67.6000 226.0000 1.0000
67.6100 241.0000 1.0000
67.6200 256.0000 1.0000
67.6300 236.0000 1.0000
67.6400 227.0000 1.0000
67.6500 208.0000 1.0000
67.6600 213.0000 1.0000
67.6700 219.0000 1.0000
67.6800 245.0000 1.0000
67.6900 231.0000 1.0000
67.7000 219.0000 1.0000
67.7100 222.0000 1.0000
67.7200 220.0000 1.0000
67.7300 236.0000 1.0000
67.7400 229.0000 1.0000
67.7500 241.0000 1.0000
67.7600 216.0000 1.0000
67.7700 242.0000 1.0000
67.7800 232.0000 1.0000
67.7900 243.0000 1.0000
67.8000 234.0000 1.0000
67.8100 242.0000 1.0000
67.8200 233.0000 1.0000
67.8300 235.0000 1.0000
67.8400 220.0000 1.0000
67.8500 225.0000 1.0000
67.8600 231.0000 1.0000
67.8700 231.0000 1.0000
67.8800 222.0000 1.0000
67.8900 234.0000 1.0000
67.9000 238.0000 1.0000
67.9100 217.0000 1.0000
67.9200 218.0000 1.0000
67.9300 217.0000 1.0000
67.9400 209.0000 1.0000
67.9500 242.0000 1.0000
67.9600 221.0000 1.0000
67.9700 222.0000 1.0000
67.9800 252.0000 1.0000
67.9900 223.0000 1.0000
68.0000 209.0000 1.0000
68.0100 248.0000 1.0000
68.0200 230.0000 1.0000
68.0300 191.0000 1.0000
68.0400 217.0000 1.0000
68.0500 225.0000 1.0000
68.0600 240.0000 1.0000
68.0700 241.0000 1.0000
68.0800 216.0000 1.0000
68.0900 226.0000 1.0000
68.1000 266.0000 1.0000
68.1100 222.0000 1.0000
68.1200 229.0000 1.0000
68.1300 233.0000 1.0000
68.1400 253.0000 1.0000
68.1500 215.0000 1.0000
68.1600 224.0000 1.0000
68.1700 217.0000 1.0000
68.1800 207.0000 1.0000
68.1900 232.0000 1.0000
68.2000 206.0000 1.0000
68.2100 223.0000 1.0000
68.2200 220.0000 1.0000
68.2300 226.0000 1.0000
68.2400 222.0000 1.0000
68.2500 219.0000 1.0000
68.2600 226.0000 1.0000
68.2700 226.0000 1.0000
68.2800 219.0000 1.0000
68.2900 244.0000 1.0000
68.3000 211.0000 1.0000
68.3100 227.0000 1.0000
68.3200 220.0000 1.0000
68.3300 224.0000 1.0000
68.3400 222.0000 1.0000
68.3500 225.0000 1.0000
68.3600 231.0000 1.0000
68.3700 243.0000 1.0000
68.3800 223.0000 1.0000
68.3900 220.0000 1.0000
68.4000 215.0000 1.0000
68.4100 212.0000 1.0000
68.4200 238.0000 1.0000
68.4300 223.0000 1.0000
68.4400 213.0000 1.0000
68.4500 233.0000 1.0000
68.4600 241.0000 1.0000
68.4700 254.0000 1.0000
68.4800 237.0000 1.0000
68.4900 236.0000 1.0000
68.5000 226.0000 1.0000
68.5100 231.0000 1.0000
68.5200 223.0000 1.0000
68.5300 244.0000 1.0000
68.5400 213.0000 1.0000
68.5500 220.0000 1.0000
68.5600 222.0000 1.0000
68.5700 220.0000 1.0000
68.5800 197.0000 1.0000
68.5900 242.0000 1.0000
68.6000 209.0000 1.0000
68.6100 244.0000 1.0000
68.6200 214.0000 1.0000
68.6300 217.0000 1.0000
68.6400 233.0000 1.0000
68.6500 210.0000 1.0000
68.6600 220.0000 1.0000
68.6700 215.0000 1.0000
68.6800 198.0000 1.0000
68.6900 226.0000 1.0000
68.7000 230.0000 1.0000
68.7100 233.0000 1.0000
68.7200 245.0000 1.0000
68.7300 223.0000 1.0000
68.7400 219.0000 1.0000
68.7500 216.0000 1.0000
68.7600 231.0000 1.0000
68.7700 213.0000 1.0000
68.7800 219.0000 1.0000
68.7900 220.0000 1.0000
68.8000 216.0000 1.0000
68.8100 209.0000 1.0000
68.8200 217.0000 1.0000
68.8300 226.0000 1.0000
68.8400 213.0000 1.0000
68.8500 225.0000 1.0000
68.8600 228.0000 1.0000
68.8700 231.0000 1.0000
68.8800 252.0000 1.0000
68.8900 225.0000 1.0000
68.9000 218.0000 1.0000
68.9100 204.0000 1.0000
68.9200 226.0000 1.0000
68.9300 234.0000 1.0000
68.9400 221.0000 1.0000
68.9500 216.0000 1.0000
68.9600 243.0000 1.0000
68.9700 213.0000 1.0000
68.9800 248.0000 1.0000
68.9900 252.0000 1.0000
69.0000 235.0000 1.0000
69.0100 221.0000 1.0000
69.0200 232.0000 1.0000
69.0300 189.0000 1.0000
69.0400 254.0000 1.0000
69.0500 227.0000 1.0000
69.0600 213.0000 1.0000
69.0700 214.0000 1.0000
69.0800 202.0000 1.0000
69.0900 211.0000 1.0000
69.1000 204.0000 1.0000
69.1100 229.0000 1.0000
69.1200 234.0000 1.0000
69.1300 243.0000 1.0000
69.1400 235.0000 1.0000
69.1500 255.0000 1.0000
69.1600 216.0000 1.0000
69.1700 218.0000 1.0000
69.1800 213.0000 1.0000
69.1900 228.0000 1.0000
69.2000 237.0000 1.0000
69.2100 227.0000 1.0000
69.2200 224.0000 1.0000
69.2300 222.0000 1.0000
69.2400 241.0000 1.0000
69.2500 240.0000 1.0000
69.2600 192.0000 1.0000
69.2700 219.0000 1.0000
69.2800 239.0000 1.0000
69.2900 231.0000 1.0000
69.3000 206.0000 1.0000
69.3100 215.0000 1.0000
69.3200 234.0000 1.0000
69.3300 221.0000 1.0000
69.3400 215.0000 1.0000
69.3500 203.0000 1.0000
69.3600 231.0000 1.0000
69.3700 211.0000 1.0000
69.3800 230.0000 1.0000
69.3900 228.0000 1.0000
69.4000 205.0000 1.0000
69.4100 214.0000 1.0000
69.4200 236.0000 1.0000
69.4300 227.0000 1.0000
69.4400 216.0000 1.0000
69.4500 240.0000 1.0000
69.4600 215.0000 1.0000
69.4700 221.0000 1.0000
69.4800 219.0000 1.0000
69.4900 219.0000 1.0000
69.5000 214.0000 1.0000
69.5100 219.0000 1.0000
69.5200 220.0000 1.0000
69.5300 220.0000 1.0000
69.5400 241.0000 1.0000
69.5500 231.0000 1.0000
69.5600 248.0000 1.0000
69.5700 218.0000 1.0000
69.5800 229.0000 1.0000
69.5900 238.0000 1.0000
69.6000 218.0000 1.0000
69.6100 215.0000 1.0000
69.6200 242.0000 1.0000
69.6300 228.0000 1.0000
69.6400 207.0000 1.0000
69.6500 208.0000 1.0000
69.6600 231.0000 1.0000
69.6700 222.0000 1.0000
69.6800 256.0000 1.0000
69.6900 207.0000 1.0000
69.7000 202.0000 1.0000
69.7100 210.0000 1.0000
69.7200 217.0000 1.0000
69.7300 211.0000 1.0000
69.7400 227.0000 1.0000
69.7500 222.0000 1.0000
69.7600 220.0000 1.0000
69.7700 220.0000 1.0000
69.7800 218.0000 1.0000
69.7900 231.0000 1.0000
69.8000 238.0000 1.0000
69.8100 243.0000 1.0000
69.8200 231.0000 1.0000
69.8300 219.0000 1.0000
69.8400 221.0000 1.0000
69.8500 197.0000 1.0000
69.8600 215.0000 1.0000
69.8700 196.0000 1.0000
69.8800 233.0000 1.0000
69.8900 211.0000 1.0000
69.9000 211.0000 1.0000
69.9100 216.0000 1.0000
69.9200 220.0000 1.0000
69.9300 233.0000 1.0000
69.9400 217.0000 1.0000
69.9500 219.0000 1.0000
69.9600 220.0000 1.0000
69.9700 248.0000 1.0000
69.9800 227.0000 1.0000
69.9900 200.0000 1.0000
70.0000 233.0000 1.0000
*RAS_INT_END
*RAS_TEMPERATURE_START
*RAS_TEMPERATURE_END
*RAS_DATA_END
