*RAS_DATA_START
*RAS_HEADER_START
*DISP_FMT_X "%.2f"
*DISP_FMT_Y "%.0f"
*DISP_FULLSCALE "13736.0000000000"
*DISP_LINE_COLOR "255.0000000000"
*DISP_LINE_STYLE "0.0000000000"
*DISP_LINE_WIDTH "0.2500000000"
*DISP_NOTE "測定データ-2"
*DISP_OFFSET_Y "0.0000000000"
*DISP_PEAKSEARCH_UNIT_Y "cps"
*DISP_RANGE_BOTTOM "0.0000000000"
*DISP_RANGE_LEFT "20.0000000000"
*DISP_RANGE_LOGCUTOFF "0.0100000000"
*DISP_RANGE_RIGHT "70.0000000000"
*DISP_RANGE_TOP "13736.0000000000"
*DISP_SCALE_MODE_Y "0.0000000000"
*DISP_TAB_NAME "2θ/θ"
*DISP_TITLE_Y "強度"
*DISP_UNIT_Y "cps"
*DISP_WINDOW_NAME "MSG_MACROENGINE"
*FILE_COMMENT " "
*FILE_MD5 ""
*FILE_MEMO " "
*FILE_OPERATOR "Administrator"
*FILE_SAMPLE " "
*FILE_TYPE "RAS_RAW"
*FILE_USERGROUP "システムマネージャ"
*FILE_VERSION "1.0000000000"
*HW_ATTACHMENT_ID "ATT0025"
*HW_ATTACHMENT_NAME "標準|Standard"
*HW_COUNTER_ID-0 "CUT0025"
*HW_COUNTER_ID-1 "CUT0020"
*HW_COUNTER_ID-2 "CUT0020"
*HW_COUNTER_ID-3 "CSL0021"
*HW_COUNTER_ID-4 "CMC0021"
*HW_COUNTER_NAME-0 "D/teX Ultra|D/teX Ultra"
*HW_COUNTER_NAME-1 "None|None"
*HW_COUNTER_NAME-2 "None|None"
*HW_COUNTER_NAME-3 "BBM|BBM"
*HW_COUNTER_NAME-4 "検出器モノクロメータ|Detector monochromator"
*HW_COUNTER_SELECT_NAME "D/teX Ultra|D/teX Ultra"
*HW_GONIOMETER_ID "GON0023"
*HW_GONIOMETER_NAME "SmartLab|SmartLab"
*HW_GONIOMETER_RADIUS-0 "90.0"
*HW_GONIOMETER_RADIUS-1 "114.0"
*HW_GONIOMETER_RADIUS-2 "190.0"
*HW_GONIOMETER_RADIUS-3 "300.0"
*HW_GONIOMETER_RADIUS-4 "187.0"
*HW_GONIOMETER_RADIUS-5 "300.0"
*HW_GONIOMETER_RADIUS-6 "113.0"
*HW_GONIOMETER_RADIUS-7 "331.0"
*HW_I_OPT_ID-0 "CBO0021"
*HW_I_OPT_ID-1 "ICR0023"
*HW_I_OPT_ID-2 "ISL0021"
*HW_I_OPT_ID-3 "ISO0021"
*HW_I_OPT_ID-4 "IAD0021"
*HW_I_OPT_ID-5 "IPR0001"
*HW_I_OPT_NAME-0 "CBOユニット|CBO unit"
*HW_I_OPT_NAME-1 "標準入射光学ユニット|Standard incident optical unit"
*HW_I_OPT_NAME-2 "標準入射スリットボックス|Standard incident slit box"
*HW_I_OPT_NAME-3 "入射平行スリット|Incident parallel slit"
*HW_I_OPT_NAME-4 "長手制限スリット|Length limiting slit"
*HW_I_OPT_NAME-5 "None|None"
*HW_R_ATTENUATER_AUTOMODE "0"
*HW_R_OPT_ID-0 "RSS0021"
*HW_R_OPT_ID-1 "RCR0023"
*HW_R_OPT_ID-2 "RSO0021"
*HW_R_OPT_ID-3 "RRS0021"
*HW_R_OPT_ID-4 "ATN0021"
*HW_R_OPT_ID-5 "RFL0021"
*HW_R_OPT_ID-6 "RAD0021"
*HW_R_OPT_NAME-0 "標準受光スリットボックス1|Standard receiving slit box # 1"
*HW_R_OPT_NAME-1 "標準受光光学ユニット1|Standard receiving unit # 1"
*HW_R_OPT_NAME-2 "標準受光光学ユニット2|Standard receiving optical unit # 2"
*HW_R_OPT_NAME-3 "標準受光スリットボックス2|Standard receiving slit box # 2"
*HW_R_OPT_NAME-4 "標準アッテネータ|Standard Attenuator"
*HW_R_OPT_NAME-5 "Cu Kβ|Cu K-beta"
*HW_R_OPT_NAME-6 "調整用受光スリット|Alignment receiving slit"
*HW_SAMPLE_HOLDER_ID "SMP0023"
*HW_SAMPLE_HOLDER_NAME "標準Zステージ|Standard Z stage"
*HW_XG_CURRENT_MAX "50"
*HW_XG_CURRENT_MIN "2"
*HW_XG_CURRENT_RESOLUTION "1"
*HW_XG_CURRENT_UNIT "mA"
*HW_XG_FOCUS "1mm x 10mm"
*HW_XG_FOCUS_TYPE "Normal"
*HW_XG_ID ""
*HW_XG_NAME "3kW 封入管(ID:1200)|3kW Sealed tube(ID:1200)"
*HW_XG_TARGET_ATOMIC_NUMBER "29.0000000000"
*HW_XG_TARGET_NAME "Cu"
*HW_XG_TYPE "Hermetic"
*HW_XG_VOLTAGE_MAX "60"
*HW_XG_VOLTAGE_MIN "20"
*HW_XG_VOLTAGE_RESOLUTION "1"
*HW_XG_VOLTAGE_UNIT "kV"
*HW_XG_WATT_MAX "1.500"
*HW_XG_WATT_UNIT "kW"
*HW_XG_WAVE_LENGTH_ALPHA1 "1.540593"
*HW_XG_WAVE_LENGTH_ALPHA2 "1.544414"
*HW_XG_WAVE_LENGTH_BETA "1.392250"
*MEAS_COND_AXIS_NAME-0 "2θ/θ"
*MEAS_COND_AXIS_NAME-1 "2θ"
*MEAS_COND_AXIS_NAME-2 "ω"
*MEAS_COND_AXIS_NAME-3 "Z"
*MEAS_COND_AXIS_NAME-4 "2θ/ω"
*MEAS_COND_AXIS_NAME-5 "θs"
*MEAS_COND_AXIS_NAME-6 "θd"
*MEAS_COND_AXIS_NAME-7 "Ts"
*MEAS_COND_AXIS_NAME-8 "CBO選択スリット"
*MEAS_COND_AXIS_NAME-9 "M"
*MEAS_COND_AXIS_NAME-10 "入射平行スリット"
*MEAS_COND_AXIS_NAME-11 "入射スリット"
*MEAS_COND_AXIS_NAME-12 ""
*MEAS_COND_AXIS_NAME-13 "Zs"
*MEAS_COND_AXIS_NAME-14 "入射光学素子"
*MEAS_COND_AXIS_NAME-15 "長手制限スリット"
*MEAS_COND_AXIS_NAME-16 "センタースリット"
*MEAS_COND_AXIS_NAME-17 "フィルター"
*MEAS_COND_AXIS_NAME-18 "受光スリット1"
*MEAS_COND_AXIS_NAME-19 "受光スリット2"
*MEAS_COND_AXIS_NAME-20 "受光光学素子"
*MEAS_COND_AXIS_NAME-21 "受光平行スリット"
*MEAS_COND_AXIS_NAME-22 "調整用受光スリット"
*MEAS_COND_AXIS_NAME-23 ""
*MEAS_COND_AXIS_NAME-24 ""
*MEAS_COND_AXIS_NAME-25 "Zd"
*MEAS_COND_AXIS_NAME-26 "アッテネータ"
*MEAS_COND_AXIS_NAME-27 "検出器モノクロメータ"
*MEAS_COND_AXIS_NAME-28 "モノクロメータスリット"
*MEAS_COND_AXIS_NAME-29 "プライマリビーム"
*MEAS_COND_AXIS_NAME-30 "PHA"
*MEAS_COND_AXIS_NAME_INTERNAL-0 "TwoThetaTheta"
*MEAS_COND_AXIS_NAME_INTERNAL-1 "TwoTheta"
*MEAS_COND_AXIS_NAME_INTERNAL-2 "Omega"
*MEAS_COND_AXIS_NAME_INTERNAL-3 "Z"
*MEAS_COND_AXIS_NAME_INTERNAL-4 "TwoThetaOmega"
*MEAS_COND_AXIS_NAME_INTERNAL-5 "ThetaS"
*MEAS_COND_AXIS_NAME_INTERNAL-6 "ThetaD"
*MEAS_COND_AXIS_NAME_INTERNAL-7 "Ts"
*MEAS_COND_AXIS_NAME_INTERNAL-8 "CBO"
*MEAS_COND_AXIS_NAME_INTERNAL-9 "CBO-M"
*MEAS_COND_AXIS_NAME_INTERNAL-10 "IncidentSollerSlit"
*MEAS_COND_AXIS_NAME_INTERNAL-11 "IncidentSlitBox"
*MEAS_COND_AXIS_NAME_INTERNAL-12 "IncidentSlitBox-_Axis"
*MEAS_COND_AXIS_NAME_INTERNAL-13 "Zs"
*MEAS_COND_AXIS_NAME_INTERNAL-14 "IncidentMonochromator"
*MEAS_COND_AXIS_NAME_INTERNAL-15 "IncidentAxdSlit"
*MEAS_COND_AXIS_NAME_INTERNAL-16 "CenterSlit"
*MEAS_COND_AXIS_NAME_INTERNAL-17 "Filter"
*MEAS_COND_AXIS_NAME_INTERNAL-18 "ReceivingSlitBox1"
*MEAS_COND_AXIS_NAME_INTERNAL-19 "ReceivingSlitBox2"
*MEAS_COND_AXIS_NAME_INTERNAL-20 "ReceivingOptics"
*MEAS_COND_AXIS_NAME_INTERNAL-21 "ReceivingSollerSlit"
*MEAS_COND_AXIS_NAME_INTERNAL-22 "ReceivingAxdSlit"
*MEAS_COND_AXIS_NAME_INTERNAL-23 "ReceivingSlitBox1-_Axis"
*MEAS_COND_AXIS_NAME_INTERNAL-24 "ReceivingSlitBox2-_Axis"
*MEAS_COND_AXIS_NAME_INTERNAL-25 "ReceivingSlitBox2-Zd"
*MEAS_COND_AXIS_NAME_INTERNAL-26 "Attenuator"
*MEAS_COND_AXIS_NAME_INTERNAL-27 "CounterMonochromator"
*MEAS_COND_AXIS_NAME_INTERNAL-28 "CounterSlit"
*MEAS_COND_AXIS_NAME_INTERNAL-29 "IncidentPrimary"
*MEAS_COND_AXIS_NAME_INTERNAL-30 "PHA"
*MEAS_COND_AXIS_NAME_MAGICNO-0 "83951616.0000000000"
*MEAS_COND_AXIS_NAME_MAGICNO-1 "268632064.0000000000"
*MEAS_COND_AXIS_NAME_MAGICNO-2 "268500992.0000000000"
*MEAS_COND_AXIS_NAME_MAGICNO-3 "285278208.0000000000"
*MEAS_COND_AXIS_NAME_MAGICNO-4 "83951616.0000000000"
*MEAS_COND_AXIS_NAME_MAGICNO-5 "131072.0000000000"
*MEAS_COND_AXIS_NAME_MAGICNO-6 "131072.0000000000"
*MEAS_COND_AXIS_NAME_MAGICNO-7 "318898176.0000000000"
*MEAS_COND_AXIS_NAME_MAGICNO-8 "20971521.0000000000"
*MEAS_COND_AXIS_NAME_MAGICNO-9 "285343744.0000000000"
*MEAS_COND_AXIS_NAME_MAGICNO-10 "20971521.0000000000"
*MEAS_COND_AXIS_NAME_MAGICNO-11 "22020097.0000000000"
*MEAS_COND_AXIS_NAME_MAGICNO-12 "25165824.0000000000"
*MEAS_COND_AXIS_NAME_MAGICNO-13 "318898176.0000000000"
*MEAS_COND_AXIS_NAME_MAGICNO-14 "1.0000000000"
*MEAS_COND_AXIS_NAME_MAGICNO-15 "20971521.0000000000"
*MEAS_COND_AXIS_NAME_MAGICNO-16 "20971521.0000000000"
*MEAS_COND_AXIS_NAME_MAGICNO-17 "20971521.0000000000"
*MEAS_COND_AXIS_NAME_MAGICNO-18 "23068673.0000000000"
*MEAS_COND_AXIS_NAME_MAGICNO-19 "23068673.0000000000"
*MEAS_COND_AXIS_NAME_MAGICNO-20 "20971521.0000000000"
*MEAS_COND_AXIS_NAME_MAGICNO-21 "20971521.0000000000"
*MEAS_COND_AXIS_NAME_MAGICNO-22 "20971521.0000000000"
*MEAS_COND_AXIS_NAME_MAGICNO-23 "25165824.0000000000"
*MEAS_COND_AXIS_NAME_MAGICNO-24 "25165824.0000000000"
*MEAS_COND_AXIS_NAME_MAGICNO-25 "285343744.0000000000"
*MEAS_COND_AXIS_NAME_MAGICNO-26 "17301505.0000000000"
*MEAS_COND_AXIS_NAME_MAGICNO-27 "20971521.0000000000"
*MEAS_COND_AXIS_NAME_MAGICNO-28 "20971521.0000000000"
*MEAS_COND_AXIS_NAME_MAGICNO-29 "20971521.0000000000"
*MEAS_COND_AXIS_NAME_MAGICNO-30 "0.0000000000"
*MEAS_COND_AXIS_OFFSET-0 "-"
*MEAS_COND_AXIS_OFFSET-1 "-0.1081000000"
*MEAS_COND_AXIS_OFFSET-2 "0.3758000000"
*MEAS_COND_AXIS_OFFSET-3 "-"
*MEAS_COND_AXIS_OFFSET-4 "-"
*MEAS_COND_AXIS_OFFSET-5 "0.3758000000"
*MEAS_COND_AXIS_OFFSET-6 "-0.4839000000"
*MEAS_COND_AXIS_OFFSET-7 "-"
*MEAS_COND_AXIS_OFFSET-8 "-"
*MEAS_COND_AXIS_OFFSET-9 "-"
*MEAS_COND_AXIS_OFFSET-10 "-"
*MEAS_COND_AXIS_OFFSET-11 "-"
*MEAS_COND_AXIS_OFFSET-12 "-"
*MEAS_COND_AXIS_OFFSET-13 "-"
*MEAS_COND_AXIS_OFFSET-14 "-"
*MEAS_COND_AXIS_OFFSET-15 "-"
*MEAS_COND_AXIS_OFFSET-16 "-"
*MEAS_COND_AXIS_OFFSET-17 "-"
*MEAS_COND_AXIS_OFFSET-18 "-"
*MEAS_COND_AXIS_OFFSET-19 "-"
*MEAS_COND_AXIS_OFFSET-20 "-"
*MEAS_COND_AXIS_OFFSET-21 "-"
*MEAS_COND_AXIS_OFFSET-22 "-"
*MEAS_COND_AXIS_OFFSET-23 "-"
*MEAS_COND_AXIS_OFFSET-24 "-"
*MEAS_COND_AXIS_OFFSET-25 "-"
*MEAS_COND_AXIS_OFFSET-26 "-"
*MEAS_COND_AXIS_OFFSET-27 "-"
*MEAS_COND_AXIS_OFFSET-28 "-"
*MEAS_COND_AXIS_OFFSET-29 "-"
*MEAS_COND_AXIS_OFFSET-30 "-"
*MEAS_COND_AXIS_POSITION-0 "0.0000000000"
*MEAS_COND_AXIS_POSITION-1 "0.0000000000"
*MEAS_COND_AXIS_POSITION-2 "0.0000000000"
*MEAS_COND_AXIS_POSITION-3 "-0.5500000000"
*MEAS_COND_AXIS_POSITION-4 "0.0000000000"
*MEAS_COND_AXIS_POSITION-5 "0.0000000000"
*MEAS_COND_AXIS_POSITION-6 "0.0000000000"
*MEAS_COND_AXIS_POSITION-7 "-0.4278800000"
*MEAS_COND_AXIS_POSITION-8 "BB"
*MEAS_COND_AXIS_POSITION-9 "0.0000000000"
*MEAS_COND_AXIS_POSITION-10 "Soller_slit_5.0deg"
*MEAS_COND_AXIS_POSITION-11 "2/3deg"
*MEAS_COND_AXIS_POSITION-12 "2.2088000000"
*MEAS_COND_AXIS_POSITION-13 "-0.4140600000"
*MEAS_COND_AXIS_POSITION-14 "0.0000000000"
*MEAS_COND_AXIS_POSITION-15 "10.0mm"
*MEAS_COND_AXIS_POSITION-16 "None"
*MEAS_COND_AXIS_POSITION-17 "Cu_K-beta"
*MEAS_COND_AXIS_POSITION-18 "13.000mm"
*MEAS_COND_AXIS_POSITION-19 "13.000mm"
*MEAS_COND_AXIS_POSITION-20 "No_unit"
*MEAS_COND_AXIS_POSITION-21 "Soller_slit_5.0deg"
*MEAS_COND_AXIS_POSITION-22 "None"
*MEAS_COND_AXIS_POSITION-23 "13.0000000000"
*MEAS_COND_AXIS_POSITION-24 "13.0000000000"
*MEAS_COND_AXIS_POSITION-25 "0.0109400000"
*MEAS_COND_AXIS_POSITION-26 "Open"
*MEAS_COND_AXIS_POSITION-27 "None"
*MEAS_COND_AXIS_POSITION-28 "None"
*MEAS_COND_AXIS_POSITION-29 "None"
*MEAS_COND_AXIS_POSITION-30 "38.0000000000"
*MEAS_COND_AXIS_UNIT-0 "deg"
*MEAS_COND_AXIS_UNIT-1 "deg"
*MEAS_COND_AXIS_UNIT-2 "deg"
*MEAS_COND_AXIS_UNIT-3 "mm"
*MEAS_COND_AXIS_UNIT-4 "deg"
*MEAS_COND_AXIS_UNIT-5 "deg"
*MEAS_COND_AXIS_UNIT-6 "deg"
*MEAS_COND_AXIS_UNIT-7 "mm"
*MEAS_COND_AXIS_UNIT-8 ""
*MEAS_COND_AXIS_UNIT-9 "pulse"
*MEAS_COND_AXIS_UNIT-10 ""
*MEAS_COND_AXIS_UNIT-11 ""
*MEAS_COND_AXIS_UNIT-12 "mm"
*MEAS_COND_AXIS_UNIT-13 "mm"
*MEAS_COND_AXIS_UNIT-14 ""
*MEAS_COND_AXIS_UNIT-15 ""
*MEAS_COND_AXIS_UNIT-16 ""
*MEAS_COND_AXIS_UNIT-17 ""
*MEAS_COND_AXIS_UNIT-18 ""
*MEAS_COND_AXIS_UNIT-19 ""
*MEAS_COND_AXIS_UNIT-20 ""
*MEAS_COND_AXIS_UNIT-21 ""
*MEAS_COND_AXIS_UNIT-22 ""
*MEAS_COND_AXIS_UNIT-23 "mm"
*MEAS_COND_AXIS_UNIT-24 "mm"
*MEAS_COND_AXIS_UNIT-25 "mm"
*MEAS_COND_AXIS_UNIT-26 ""
*MEAS_COND_AXIS_UNIT-27 ""
*MEAS_COND_AXIS_UNIT-28 ""
*MEAS_COND_AXIS_UNIT-29 ""
*MEAS_COND_AXIS_UNIT-30 "div"
*MEAS_COND_COUNTER_CNTLOSS_CORR "0.0000000000"
*MEAS_COND_COUNTER_PHABASE "38.0000000000"
*MEAS_COND_COUNTER_PHAWINDOW "16.0000000000"
*MEAS_COND_COUNTER_PHA_UNIT "div"
*MEAS_COND_COUNTER_TAUDIFF "30.0000000000"
*MEAS_COND_COUNTER_TAUINT "0.0000000000"
*MEAS_COND_IRRADIATION_MODE "OFF"
*MEAS_COND_IRRADIATION_WIDTH ""
*MEAS_COND_OPT_ATTR "集中法"
*MEAS_COND_OPT_NAME "@集中法"
*MEAS_COND_UNSYMMETRIC_MODE "OFF"
*MEAS_COND_XG_CURRENT "30.0000000000"
*MEAS_COND_XG_VOLTAGE "40.0000000000"
*MEAS_COND_XG_WAVE_TYPE "Ka"
*MEAS_DATA_COUNT "5001.0000000000"
*MEAS_SCAN_AXIS_X "2θ/θ"
*MEAS_SCAN_AXIS_X_INTERNAL "TwoThetaTheta"
*MEAS_SCAN_END_TIME "07/08/21 12:43:08"
*MEAS_SCAN_MODE "CONTINUOUS"
*MEAS_SCAN_MONITOR "0"
*MEAS_SCAN_RESOLUTION_X "0.0002"
*MEAS_SCAN_SPEED "1.0"
*MEAS_SCAN_SPEED_UNIT "deg/min"
*MEAS_SCAN_START "20.0000000000"
*MEAS_SCAN_START_TIME "07/08/21 11:50:14"
*MEAS_SCAN_STEP "0.0100000000"
*MEAS_SCAN_STOP "70.0000000000"
*MEAS_SCAN_UNIT_X "deg"
*MEAS_SCAN_UNIT_Y "counts"
*RAS_HEADER_END
*RAS_INT_START
20.0000 1523.0000 1.0000
20.0100 1505.0000 1.0000
20.0200 1576.0000 1.0000
20.0300 1573.0000 1.0000
20.0400 1540.0000 1.0000
20.0500 1595.0000 1.0000
20.0600 1537.0000 1.0000
20.0700 1541.0000 1.0000
20.0800 1490.0000 1.0000
20.0900 1563.0000 1.0000
20.1000 1578.0000 1.0000
20.1100 1540.0000 1.0000
20.1200 1576.0000 1.0000
20.1300 1570.0000 1.0000
20.1400 1499.0000 1.0000
20.1500 1566.0000 1.0000
20.1600 1568.0000 1.0000
20.1700 1588.0000 1.0000
20.1800 1561.0000 1.0000
20.1900 1619.0000 1.0000
20.2000 1561.0000 1.0000
20.2100 1549.0000 1.0000
20.2200 1522.0000 1.0000
20.2300 1641.0000 1.0000
20.2400 1564.0000 1.0000
20.2500 1604.0000 1.0000
20.2600 1589.0000 1.0000
20.2700 1552.0000 1.0000
20.2800 1540.0000 1.0000
20.2900 1570.0000 1.0000
20.3000 1572.0000 1.0000
20.3100 1555.0000 1.0000
20.3200 1565.0000 1.0000
20.3300 1521.0000 1.0000
20.3400 1512.0000 1.0000
20.3500 1603.0000 1.0000
20.3600 1581.0000 1.0000
20.3700 1568.0000 1.0000
20.3800 1637.0000 1.0000
20.3900 1590.0000 1.0000
20.4000 1596.0000 1.0000
20.4100 1531.0000 1.0000
20.4200 1532.0000 1.0000
20.4300 1586.0000 1.0000
20.4400 1625.0000 1.0000
20.4500 1568.0000 1.0000
20.4600 1587.0000 1.0000
20.4700 1580.0000 1.0000
20.4800 1602.0000 1.0000
20.4900 1523.0000 1.0000
20.5000 1538.0000 1.0000
20.5100 1624.0000 1.0000
20.5200 1588.0000 1.0000
20.5300 1600.0000 1.0000
20.5400 1563.0000 1.0000
20.5500 1604.0000 1.0000
20.5600 1578.0000 1.0000
20.5700 1582.0000 1.0000
20.5800 1624.0000 1.0000
20.5900 1607.0000 1.0000
20.6000 1593.0000 1.0000
20.6100 1546.0000 1.0000
20.6200 1573.0000 1.0000
20.6300 1583.0000 1.0000
20.6400 1505.0000 1.0000
20.6500 1620.0000 1.0000
20.6600 1547.0000 1.0000
20.6700 1541.0000 1.0000
20.6800 1598.0000 1.0000
20.6900 1612.0000 1.0000
20.7000 1601.0000 1.0000
20.7100 1568.0000 1.0000
20.7200 1608.0000 1.0000
20.7300 1573.0000 1.0000
20.7400 1531.0000 1.0000
20.7500 1507.0000 1.0000
20.7600 1564.0000 1.0000
20.7700 1520.0000 1.0000
20.7800 1516.0000 1.0000
20.7900 1497.0000 1.0000
20.8000 1585.0000 1.0000
20.8100 1543.0000 1.0000
20.8200 1521.0000 1.0000
20.8300 1534.0000 1.0000
20.8400 1540.0000 1.0000
20.8500 1576.0000 1.0000
20.8600 1490.0000 1.0000
20.8700 1563.0000 1.0000
20.8800 1501.0000 1.0000
20.8900 1583.0000 1.0000
20.9000 1601.0000 1.0000
20.9100 1499.0000 1.0000
20.9200 1559.0000 1.0000
20.9300 1549.0000 1.0000
20.9400 1568.0000 1.0000
20.9500 1578.0000 1.0000
20.9600 1538.0000 1.0000
20.9700 1543.0000 1.0000
20.9800 1556.0000 1.0000
20.9900 1560.0000 1.0000
21.0000 1562.0000 1.0000
21.0100 1527.0000 1.0000
21.0200 1580.0000 1.0000
21.0300 1560.0000 1.0000
21.0400 1534.0000 1.0000
21.0500 1558.0000 1.0000
21.0600 1526.0000 1.0000
21.0700 1558.0000 1.0000
21.0800 1555.0000 1.0000
21.0900 1610.0000 1.0000
21.1000 1603.0000 1.0000
21.1100 1586.0000 1.0000
21.1200 1589.0000 1.0000
21.1300 1551.0000 1.0000
21.1400 1492.0000 1.0000
21.1500 1545.0000 1.0000
21.1600 1631.0000 1.0000
21.1700 1643.0000 1.0000
21.1800 1594.0000 1.0000
21.1900 1597.0000 1.0000
21.2000 1570.0000 1.0000
21.2100 1543.0000 1.0000
21.2200 1551.0000 1.0000
21.2300 1534.0000 1.0000
21.2400 1609.0000 1.0000
21.2500 1603.0000 1.0000
21.2600 1640.0000 1.0000
21.2700 1555.0000 1.0000
21.2800 1560.0000 1.0000
21.2900 1583.0000 1.0000
21.3000 1578.0000 1.0000
21.3100 1582.0000 1.0000
21.3200 1559.0000 1.0000
21.3300 1593.0000 1.0000
21.3400 1626.0000 1.0000
21.3500 1584.0000 1.0000
21.3600 1605.0000 1.0000
21.3700 1589.0000 1.0000
21.3800 1533.0000 1.0000
21.3900 1554.0000 1.0000
21.4000 1558.0000 1.0000
21.4100 1558.0000 1.0000
21.4200 1627.0000 1.0000
21.4300 1581.0000 1.0000
21.4400 1569.0000 1.0000
21.4500 1598.0000 1.0000
21.4600 1575.0000 1.0000
21.4700 1561.0000 1.0000
21.4800 1628.0000 1.0000
21.4900 1571.0000 1.0000
21.5000 1611.0000 1.0000
21.5100 1605.0000 1.0000
21.5200 1583.0000 1.0000
21.5300 1594.0000 1.0000
21.5400 1544.0000 1.0000
21.5500 1623.0000 1.0000
21.5600 1568.0000 1.0000
21.5700 1609.0000 1.0000
21.5800 1530.0000 1.0000
21.5900 1551.0000 1.0000
21.6000 1562.0000 1.0000
21.6100 1623.0000 1.0000
21.6200 1603.0000 1.0000
21.6300 1642.0000 1.0000
21.6400 1595.0000 1.0000
21.6500 1628.0000 1.0000
21.6600 1608.0000 1.0000
21.6700 1552.0000 1.0000
21.6800 1586.0000 1.0000
21.6900 1570.0000 1.0000
21.7000 1592.0000 1.0000
21.7100 1628.0000 1.0000
21.7200 1624.0000 1.0000
21.7300 1602.0000 1.0000
21.7400 1542.0000 1.0000
21.7500 1575.0000 1.0000
21.7600 1574.0000 1.0000
21.7700 1617.0000 1.0000
21.7800 1577.0000 1.0000
21.7900 1591.0000 1.0000
21.8000 1575.0000 1.0000
21.8100 1546.0000 1.0000
21.8200 1599.0000 1.0000
21.8300 1592.0000 1.0000
21.8400 1651.0000 1.0000
21.8500 1626.0000 1.0000
21.8600 1633.0000 1.0000
21.8700 1586.0000 1.0000
21.8800 1508.0000 1.0000
21.8900 1517.0000 1.0000
21.9000 1549.0000 1.0000
21.9100 1560.0000 1.0000
21.9200 1571.0000 1.0000
21.9300 1677.0000 1.0000
21.9400 1594.0000 1.0000
21.9500 1540.0000 1.0000
21.9600 1587.0000 1.0000
21.9700 1605.0000 1.0000
21.9800 1601.0000 1.0000
21.9900 1572.0000 1.0000
22.0000 1616.0000 1.0000
22.0100 1635.0000 1.0000
22.0200 1543.0000 1.0000
22.0300 1514.0000 1.0000
22.0400 1571.0000 1.0000
22.0500 1596.0000 1.0000
22.0600 1606.0000 1.0000
22.0700 1613.0000 1.0000
22.0800 1680.0000 1.0000
22.0900 1606.0000 1.0000
22.1000 1606.0000 1.0000
22.1100 1557.0000 1.0000
22.1200 1619.0000 1.0000
22.1300 1554.0000 1.0000
22.1400 1588.0000 1.0000
22.1500 1597.0000 1.0000
22.1600 1574.0000 1.0000
22.1700 1608.0000 1.0000
22.1800 1523.0000 1.0000
22.1900 1639.0000 1.0000
22.2000 1576.0000 1.0000
22.2100 1578.0000 1.0000
22.2200 1545.0000 1.0000
22.2300 1632.0000 1.0000
22.2400 1584.0000 1.0000
22.2500 1550.0000 1.0000
22.2600 1652.0000 1.0000
22.2700 1594.0000 1.0000
22.2800 1646.0000 1.0000
22.2900 1649.0000 1.0000
22.3000 1609.0000 1.0000
22.3100 1577.0000 1.0000
22.3200 1620.0000 1.0000
22.3300 1589.0000 1.0000
22.3400 1568.0000 1.0000
22.3500 1567.0000 1.0000
22.3600 1571.0000 1.0000
22.3700 1646.0000 1.0000
22.3800 1679.0000 1.0000
22.3900 1579.0000 1.0000
22.4000 1546.0000 1.0000
22.4100 1622.0000 1.0000
22.4200 1583.0000 1.0000
22.4300 1618.0000 1.0000
22.4400 1551.0000 1.0000
22.4500 1536.0000 1.0000
22.4600 1606.0000 1.0000
22.4700 1681.0000 1.0000
22.4800 1636.0000 1.0000
22.4900 1638.0000 1.0000
22.5000 1592.0000 1.0000
22.5100 1602.0000 1.0000
22.5200 1612.0000 1.0000
22.5300 1633.0000 1.0000
22.5400 1625.0000 1.0000
22.5500 1603.0000 1.0000
22.5600 1604.0000 1.0000
22.5700 1638.0000 1.0000
22.5800 1570.0000 1.0000
22.5900 1591.0000 1.0000
22.6000 1609.0000 1.0000
22.6100 1693.0000 1.0000
22.6200 1626.0000 1.0000
22.6300 1533.0000 1.0000
22.6400 1607.0000 1.0000
22.6500 1581.0000 1.0000
22.6600 1638.0000 1.0000
22.6700 1636.0000 1.0000
22.6800 1641.0000 1.0000
22.6900 1644.0000 1.0000
22.7000 1675.0000 1.0000
22.7100 1674.0000 1.0000
22.7200 1659.0000 1.0000
22.7300 1634.0000 1.0000
22.7400 1539.0000 1.0000
22.7500 1580.0000 1.0000
22.7600 1596.0000 1.0000
22.7700 1586.0000 1.0000
22.7800 1590.0000 1.0000
22.7900 1653.0000 1.0000
22.8000 1667.0000 1.0000
22.8100 1653.0000 1.0000
22.8200 1643.0000 1.0000
22.8300 1649.0000 1.0000
22.8400 1640.0000 1.0000
22.8500 1622.0000 1.0000
22.8600 1612.0000 1.0000
22.8700 1657.0000 1.0000
22.8800 1647.0000 1.0000
22.8900 1612.0000 1.0000
22.9000 1568.0000 1.0000
22.9100 1584.0000 1.0000
22.9200 1615.0000 1.0000
22.9300 1654.0000 1.0000
22.9400 1617.0000 1.0000
22.9500 1652.0000 1.0000
22.9600 1616.0000 1.0000
22.9700 1596.0000 1.0000
22.9800 1604.0000 1.0000
22.9900 1681.0000 1.0000
23.0000 1587.0000 1.0000
23.0100 1589.0000 1.0000
23.0200 1569.0000 1.0000
23.0300 1628.0000 1.0000
23.0400 1614.0000 1.0000
23.0500 1673.0000 1.0000
23.0600 1594.0000 1.0000
23.0700 1600.0000 1.0000
23.0800 1603.0000 1.0000
23.0900 1601.0000 1.0000
23.1000 1636.0000 1.0000
23.1100 1600.0000 1.0000
23.1200 1659.0000 1.0000
23.1300 1616.0000 1.0000
23.1400 1590.0000 1.0000
23.1500 1633.0000 1.0000
23.1600 1614.0000 1.0000
23.1700 1588.0000 1.0000
23.1800 1606.0000 1.0000
23.1900 1559.0000 1.0000
23.2000 1620.0000 1.0000
23.2100 1598.0000 1.0000
23.2200 1646.0000 1.0000
23.2300 1592.0000 1.0000
23.2400 1643.0000 1.0000
23.2500 1626.0000 1.0000
23.2600 1639.0000 1.0000
23.2700 1632.0000 1.0000
23.2800 1582.0000 1.0000
23.2900 1618.0000 1.0000
23.3000 1647.0000 1.0000
23.3100 1641.0000 1.0000
23.3200 1619.0000 1.0000
23.3300 1643.0000 1.0000
23.3400 1626.0000 1.0000
23.3500 1632.0000 1.0000
23.3600 1632.0000 1.0000
23.3700 1614.0000 1.0000
23.3800 1660.0000 1.0000
23.3900 1651.0000 1.0000
23.4000 1657.0000 1.0000
23.4100 1688.0000 1.0000
23.4200 1642.0000 1.0000
23.4300 1666.0000 1.0000
23.4400 1587.0000 1.0000
23.4500 1592.0000 1.0000
23.4600 1637.0000 1.0000
23.4700 1582.0000 1.0000
23.4800 1606.0000 1.0000
23.4900 1597.0000 1.0000
23.5000 1619.0000 1.0000
23.5100 1611.0000 1.0000
23.5200 1618.0000 1.0000
23.5300 1611.0000 1.0000
23.5400 1588.0000 1.0000
23.5500 1568.0000 1.0000
23.5600 1580.0000 1.0000
23.5700 1609.0000 1.0000
23.5800 1581.0000 1.0000
23.5900 1575.0000 1.0000
23.6000 1633.0000 1.0000
23.6100 1630.0000 1.0000
23.6200 1668.0000 1.0000
23.6300 1634.0000 1.0000
23.6400 1629.0000 1.0000
23.6500 1625.0000 1.0000
23.6600 1575.0000 1.0000
23.6700 1621.0000 1.0000
23.6800 1607.0000 1.0000
23.6900 1666.0000 1.0000
23.7000 1635.0000 1.0000
23.7100 1679.0000 1.0000
23.7200 1567.0000 1.0000
23.7300 1586.0000 1.0000
23.7400 1658.0000 1.0000
23.7500 1643.0000 1.0000
23.7600 1626.0000 1.0000
23.7700 1638.0000 1.0000
23.7800 1683.0000 1.0000
23.7900 1703.0000 1.0000
23.8000 1666.0000 1.0000
23.8100 1684.0000 1.0000
23.8200 1689.0000 1.0000
23.8300 1627.0000 1.0000
23.8400 1650.0000 1.0000
23.8500 1657.0000 1.0000
23.8600 1694.0000 1.0000
23.8700 1552.0000 1.0000
23.8800 1625.0000 1.0000
23.8900 1653.0000 1.0000
23.9000 1629.0000 1.0000
23.9100 1705.0000 1.0000
23.9200 1643.0000 1.0000
23.9300 1701.0000 1.0000
23.9400 1648.0000 1.0000
23.9500 1663.0000 1.0000
23.9600 1649.0000 1.0000
23.9700 1637.0000 1.0000
23.9800 1672.0000 1.0000
23.9900 1657.0000 1.0000
24.0000 1684.0000 1.0000
24.0100 1703.0000 1.0000
24.0200 1632.0000 1.0000
24.0300 1669.0000 1.0000
24.0400 1592.0000 1.0000
24.0500 1722.0000 1.0000
24.0600 1711.0000 1.0000
24.0700 1674.0000 1.0000
24.0800 1688.0000 1.0000
24.0900 1645.0000 1.0000
24.1000 1694.0000 1.0000
24.1100 1648.0000 1.0000
24.1200 1676.0000 1.0000
24.1300 1661.0000 1.0000
24.1400 1711.0000 1.0000
24.1500 1669.0000 1.0000
24.1600 1616.0000 1.0000
24.1700 1613.0000 1.0000
24.1800 1625.0000 1.0000
24.1900 1670.0000 1.0000
24.2000 1730.0000 1.0000
24.2100 1709.0000 1.0000
24.2200 1618.0000 1.0000
24.2300 1684.0000 1.0000
24.2400 1618.0000 1.0000
24.2500 1640.0000 1.0000
24.2600 1672.0000 1.0000
24.2700 1666.0000 1.0000
24.2800 1720.0000 1.0000
24.2900 1633.0000 1.0000
24.3000 1608.0000 1.0000
24.3100 1677.0000 1.0000
24.3200 1696.0000 1.0000
24.3300 1672.0000 1.0000
24.3400 1622.0000 1.0000
24.3500 1709.0000 1.0000
24.3600 1660.0000 1.0000
24.3700 1722.0000 1.0000
24.3800 1655.0000 1.0000
24.3900 1652.0000 1.0000
24.4000 1674.0000 1.0000
24.4100 1613.0000 1.0000
24.4200 1677.0000 1.0000
24.4300 1691.0000 1.0000
24.4400 1622.0000 1.0000
24.4500 1576.0000 1.0000
24.4600 1671.0000 1.0000
24.4700 1707.0000 1.0000
24.4800 1664.0000 1.0000
24.4900 1683.0000 1.0000
24.5000 1706.0000 1.0000
24.5100 1733.0000 1.0000
24.5200 1610.0000 1.0000
24.5300 1611.0000 1.0000
24.5400 1657.0000 1.0000
24.5500 1749.0000 1.0000
24.5600 1731.0000 1.0000
24.5700 1721.0000 1.0000
24.5800 1688.0000 1.0000
24.5900 1704.0000 1.0000
24.6000 1660.0000 1.0000
24.6100 1680.0000 1.0000
24.6200 1685.0000 1.0000
24.6300 1713.0000 1.0000
24.6400 1759.0000 1.0000
24.6500 1686.0000 1.0000
24.6600 1628.0000 1.0000
24.6700 1749.0000 1.0000
24.6800 1705.0000 1.0000
24.6900 1774.0000 1.0000
24.7000 1711.0000 1.0000
24.7100 1647.0000 1.0000
24.7200 1694.0000 1.0000
24.7300 1675.0000 1.0000
24.7400 1658.0000 1.0000
24.7500 1674.0000 1.0000
24.7600 1639.0000 1.0000
24.7700 1652.0000 1.0000
24.7800 1648.0000 1.0000
24.7900 1670.0000 1.0000
24.8000 1752.0000 1.0000
24.8100 1701.0000 1.0000
24.8200 1738.0000 1.0000
24.8300 1723.0000 1.0000
24.8400 1745.0000 1.0000
24.8500 1761.0000 1.0000
24.8600 1738.0000 1.0000
24.8700 1775.0000 1.0000
24.8800 1731.0000 1.0000
24.8900 1734.0000 1.0000
24.9000 1772.0000 1.0000
24.9100 1783.0000 1.0000
24.9200 1804.0000 1.0000
24.9300 1783.0000 1.0000
24.9400 1725.0000 1.0000
24.9500 1855.0000 1.0000
24.9600 1777.0000 1.0000
24.9700 1783.0000 1.0000
24.9800 1715.0000 1.0000
24.9900 1753.0000 1.0000
25.0000 1766.0000 1.0000
25.0100 1769.0000 1.0000
25.0200 1772.0000 1.0000
25.0300 1830.0000 1.0000
25.0400 1733.0000 1.0000
25.0500 1735.0000 1.0000
25.0600 1730.0000 1.0000
25.0700 1745.0000 1.0000
25.0800 1732.0000 1.0000
25.0900 1727.0000 1.0000
25.1000 1731.0000 1.0000
25.1100 1754.0000 1.0000
25.1200 1773.0000 1.0000
25.1300 1788.0000 1.0000
25.1400 1735.0000 1.0000
25.1500 1699.0000 1.0000
25.1600 1701.0000 1.0000
25.1700 1689.0000 1.0000
25.1800 1778.0000 1.0000
25.1900 1713.0000 1.0000
25.2000 1718.0000 1.0000
25.2100 1696.0000 1.0000
25.2200 1695.0000 1.0000
25.2300 1668.0000 1.0000
25.2400 1651.0000 1.0000
25.2500 1734.0000 1.0000
25.2600 1699.0000 1.0000
25.2700 1714.0000 1.0000
25.2800 1702.0000 1.0000
25.2900 1678.0000 1.0000
25.3000 1684.0000 1.0000
25.3100 1700.0000 1.0000
25.3200 1710.0000 1.0000
25.3300 1763.0000 1.0000
25.3400 1704.0000 1.0000
25.3500 1646.0000 1.0000
25.3600 1683.0000 1.0000
25.3700 1768.0000 1.0000
25.3800 1766.0000 1.0000
25.3900 1710.0000 1.0000
25.4000 1654.0000 1.0000
25.4100 1755.0000 1.0000
25.4200 1683.0000 1.0000
25.4300 1695.0000 1.0000
25.4400 1676.0000 1.0000
25.4500 1678.0000 1.0000
25.4600 1705.0000 1.0000
25.4700 1728.0000 1.0000
25.4800 1691.0000 1.0000
25.4900 1654.0000 1.0000
25.5000 1724.0000 1.0000
25.5100 1694.0000 1.0000
25.5200 1612.0000 1.0000
25.5300 1672.0000 1.0000
25.5400 1738.0000 1.0000
25.5500 1777.0000 1.0000
25.5600 1705.0000 1.0000
25.5700 1693.0000 1.0000
25.5800 1739.0000 1.0000
25.5900 1716.0000 1.0000
25.6000 1689.0000 1.0000
25.6100 1715.0000 1.0000
25.6200 1676.0000 1.0000
25.6300 1666.0000 1.0000
25.6400 1666.0000 1.0000
25.6500 1664.0000 1.0000
25.6600 1685.0000 1.0000
25.6700 1697.0000 1.0000
25.6800 1690.0000 1.0000
25.6900 1711.0000 1.0000
25.7000 1730.0000 1.0000
25.7100 1724.0000 1.0000
25.7200 1719.0000 1.0000
25.7300 1665.0000 1.0000
25.7400 1703.0000 1.0000
25.7500 1606.0000 1.0000
25.7600 1711.0000 1.0000
25.7700 1727.0000 1.0000
25.7800 1646.0000 1.0000
25.7900 1691.0000 1.0000
25.8000 1716.0000 1.0000
25.8100 1640.0000 1.0000
25.8200 1650.0000 1.0000
25.8300 1735.0000 1.0000
25.8400 1624.0000 1.0000
25.8500 1730.0000 1.0000
25.8600 1733.0000 1.0000
25.8700 1652.0000 1.0000
25.8800 1645.0000 1.0000
25.8900 1582.0000 1.0000
25.9000 1655.0000 1.0000
25.9100 1674.0000 1.0000
25.9200 1710.0000 1.0000
25.9300 1694.0000 1.0000
25.9400 1724.0000 1.0000
25.9500 1712.0000 1.0000
25.9600 1674.0000 1.0000
25.9700 1624.0000 1.0000
25.9800 1645.0000 1.0000
25.9900 1729.0000 1.0000
26.0000 1730.0000 1.0000
26.0100 1674.0000 1.0000
26.0200 1695.0000 1.0000
26.0300 1742.0000 1.0000
26.0400 1664.0000 1.0000
26.0500 1657.0000 1.0000
26.0600 1696.0000 1.0000
26.0700 1753.0000 1.0000
26.0800 1677.0000 1.0000
26.0900 1758.0000 1.0000
26.1000 1732.0000 1.0000
26.1100 1721.0000 1.0000
26.1200 1666.0000 1.0000
26.1300 1755.0000 1.0000
26.1400 1664.0000 1.0000
26.1500 1699.0000 1.0000
26.1600 1719.0000 1.0000
26.1700 1733.0000 1.0000
26.1800 1711.0000 1.0000
26.1900 1765.0000 1.0000
26.2000 1745.0000 1.0000
26.2100 1694.0000 1.0000
26.2200 1704.0000 1.0000
26.2300 1751.0000 1.0000
26.2400 1706.0000 1.0000
26.2500 1686.0000 1.0000
26.2600 1709.0000 1.0000
26.2700 1688.0000 1.0000
26.2800 1812.0000 1.0000
26.2900 1802.0000 1.0000
26.3000 1733.0000 1.0000
26.3100 1690.0000 1.0000
26.3200 1738.0000 1.0000
26.3300 1723.0000 1.0000
26.3400 1782.0000 1.0000
26.3500 1728.0000 1.0000
26.3600 1758.0000 1.0000
26.3700 1796.0000 1.0000
26.3800 1765.0000 1.0000
26.3900 1677.0000 1.0000
26.4000 1780.0000 1.0000
26.4100 1762.0000 1.0000
26.4200 1767.0000 1.0000
26.4300 1793.0000 1.0000
26.4400 1841.0000 1.0000
26.4500 1834.0000 1.0000
26.4600 1777.0000 1.0000
26.4700 1791.0000 1.0000
26.4800 1764.0000 1.0000
26.4900 1734.0000 1.0000
26.5000 1780.0000 1.0000
26.5100 1771.0000 1.0000
26.5200 1735.0000 1.0000
26.5300 1798.0000 1.0000
26.5400 1784.0000 1.0000
26.5500 1773.0000 1.0000
26.5600 1749.0000 1.0000
26.5700 1796.0000 1.0000
26.5800 1867.0000 1.0000
26.5900 1815.0000 1.0000
26.6000 1750.0000 1.0000
26.6100 1765.0000 1.0000
26.6200 1827.0000 1.0000
26.6300 1788.0000 1.0000
26.6400 1870.0000 1.0000
26.6500 1811.0000 1.0000
26.6600 1806.0000 1.0000
26.6700 1826.0000 1.0000
26.6800 1765.0000 1.0000
26.6900 1801.0000 1.0000
26.7000 1784.0000 1.0000
26.7100 1818.0000 1.0000
26.7200 1850.0000 1.0000
26.7300 1836.0000 1.0000
26.7400 1829.0000 1.0000
26.7500 1833.0000 1.0000
26.7600 1857.0000 1.0000
26.7700 1798.0000 1.0000
26.7800 1851.0000 1.0000
26.7900 1862.0000 1.0000
26.8000 1901.0000 1.0000
26.8100 1896.0000 1.0000
26.8200 1968.0000 1.0000
26.8300 1948.0000 1.0000
26.8400 1937.0000 1.0000
26.8500 1905.0000 1.0000
26.8600 1913.0000 1.0000
26.8700 1918.0000 1.0000
26.8800 2005.0000 1.0000
26.8900 1993.0000 1.0000
26.9000 1982.0000 1.0000
26.9100 2026.0000 1.0000
26.9200 2020.0000 1.0000
26.9300 2076.0000 1.0000
26.9400 2014.0000 1.0000
26.9500 2111.0000 1.0000
26.9600 2150.0000 1.0000
26.9700 2141.0000 1.0000
26.9800 2195.0000 1.0000
26.9900 2269.0000 1.0000
27.0000 2313.0000 1.0000
27.0100 2313.0000 1.0000
27.0200 2406.0000 1.0000
27.0300 2482.0000 1.0000
27.0400 2553.0000 1.0000
27.0500 2513.0000 1.0000
27.0600 2575.0000 1.0000
27.0700 2728.0000 1.0000
27.0800 2752.0000 1.0000
27.0900 2872.0000 1.0000
27.1000 2889.0000 1.0000
27.1100 3113.0000 1.0000
27.1200 3236.0000 1.0000
27.1300 3320.0000 1.0000
27.1400 3421.0000 1.0000
27.1500 3531.0000 1.0000
27.1600 3779.0000 1.0000
27.1700 3989.0000 1.0000
27.1800 4070.0000 1.0000
27.1900 4392.0000 1.0000
27.2000 4655.0000 1.0000
27.2100 4895.0000 1.0000
27.2200 5116.0000 1.0000
27.2300 5396.0000 1.0000
27.2400 5649.0000 1.0000
27.2500 5912.0000 1.0000
27.2600 6281.0000 1.0000
27.2700 6416.0000 1.0000
27.2800 6445.0000 1.0000
27.2900 6739.0000 1.0000
27.3000 6676.0000 1.0000
27.3100 6843.0000 1.0000
27.3200 6868.0000 1.0000
27.3300 6624.0000 1.0000
27.3400 6349.0000 1.0000
27.3500 6192.0000 1.0000
27.3600 5970.0000 1.0000
27.3700 5780.0000 1.0000
27.3800 5453.0000 1.0000
27.3900 5170.0000 1.0000
27.4000 4933.0000 1.0000
27.4100 4633.0000 1.0000
27.4200 4502.0000 1.0000
27.4300 4110.0000 1.0000
27.4400 3949.0000 1.0000
27.4500 3733.0000 1.0000
27.4600 3565.0000 1.0000
27.4700 3442.0000 1.0000
27.4800 3272.0000 1.0000
27.4900 3164.0000 1.0000
27.5000 3079.0000 1.0000
27.5100 2981.0000 1.0000
27.5200 2853.0000 1.0000
27.5300 2697.0000 1.0000
27.5400 2689.0000 1.0000
27.5500 2624.0000 1.0000
27.5600 2536.0000 1.0000
27.5700 2547.0000 1.0000
27.5800 2411.0000 1.0000
27.5900 2273.0000 1.0000
27.6000 2338.0000 1.0000
27.6100 2194.0000 1.0000
27.6200 2238.0000 1.0000
27.6300 2189.0000 1.0000
27.6400 2198.0000 1.0000
27.6500 2154.0000 1.0000
27.6600 2152.0000 1.0000
27.6700 2072.0000 1.0000
27.6800 2083.0000 1.0000
27.6900 2053.0000 1.0000
27.7000 2033.0000 1.0000
27.7100 1971.0000 1.0000
27.7200 1935.0000 1.0000
27.7300 1999.0000 1.0000
27.7400 2005.0000 1.0000
27.7500 1975.0000 1.0000
27.7600 1948.0000 1.0000
27.7700 1897.0000 1.0000
27.7800 1837.0000 1.0000
27.7900 1910.0000 1.0000
27.8000 1856.0000 1.0000
27.8100 1895.0000 1.0000
27.8200 1836.0000 1.0000
27.8300 1828.0000 1.0000
27.8400 1843.0000 1.0000
27.8500 1785.0000 1.0000
27.8600 1829.0000 1.0000
27.8700 1841.0000 1.0000
27.8800 1763.0000 1.0000
27.8900 1823.0000 1.0000
27.9000 1843.0000 1.0000
27.9100 1800.0000 1.0000
27.9200 1781.0000 1.0000
27.9300 1747.0000 1.0000
27.9400 1809.0000 1.0000
27.9500 1783.0000 1.0000
27.9600 1790.0000 1.0000
27.9700 1853.0000 1.0000
27.9800 1681.0000 1.0000
27.9900 1749.0000 1.0000
28.0000 1789.0000 1.0000
28.0100 1797.0000 1.0000
28.0200 1790.0000 1.0000
28.0300 1664.0000 1.0000
28.0400 1786.0000 1.0000
28.0500 1745.0000 1.0000
28.0600 1705.0000 1.0000
28.0700 1745.0000 1.0000
28.0800 1670.0000 1.0000
28.0900 1675.0000 1.0000
28.1000 1672.0000 1.0000
28.1100 1638.0000 1.0000
28.1200 1732.0000 1.0000
28.1300 1678.0000 1.0000
28.1400 1660.0000 1.0000
28.1500 1748.0000 1.0000
28.1600 1728.0000 1.0000
28.1700 1639.0000 1.0000
28.1800 1670.0000 1.0000
28.1900 1612.0000 1.0000
28.2000 1694.0000 1.0000
28.2100 1708.0000 1.0000
28.2200 1609.0000 1.0000
28.2300 1689.0000 1.0000
28.2400 1741.0000 1.0000
28.2500 1611.0000 1.0000
28.2600 1644.0000 1.0000
28.2700 1646.0000 1.0000
28.2800 1647.0000 1.0000
28.2900 1667.0000 1.0000
28.3000 1662.0000 1.0000
28.3100 1656.0000 1.0000
28.3200 1669.0000 1.0000
28.3300 1613.0000 1.0000
28.3400 1568.0000 1.0000
28.3500 1675.0000 1.0000
28.3600 1637.0000 1.0000
28.3700 1722.0000 1.0000
28.3800 1706.0000 1.0000
28.3900 1633.0000 1.0000
28.4000 1623.0000 1.0000
28.4100 1651.0000 1.0000
28.4200 1613.0000 1.0000
28.4300 1633.0000 1.0000
28.4400 1671.0000 1.0000
28.4500 1671.0000 1.0000
28.4600 1657.0000 1.0000
28.4700 1692.0000 1.0000
28.4800 1611.0000 1.0000
28.4900 1626.0000 1.0000
28.5000 1598.0000 1.0000
28.5100 1591.0000 1.0000
28.5200 1618.0000 1.0000
28.5300 1606.0000 1.0000
28.5400 1620.0000 1.0000
28.5500 1607.0000 1.0000
28.5600 1599.0000 1.0000
28.5700 1619.0000 1.0000
28.5800 1647.0000 1.0000
28.5900 1646.0000 1.0000
28.6000 1589.0000 1.0000
28.6100 1581.0000 1.0000
28.6200 1669.0000 1.0000
28.6300 1663.0000 1.0000
28.6400 1590.0000 1.0000
28.6500 1613.0000 1.0000
28.6600 1641.0000 1.0000
28.6700 1643.0000 1.0000
28.6800 1617.0000 1.0000
28.6900 1610.0000 1.0000
28.7000 1622.0000 1.0000
28.7100 1636.0000 1.0000
28.7200 1626.0000 1.0000
28.7300 1566.0000 1.0000
28.7400 1631.0000 1.0000
28.7500 1635.0000 1.0000
28.7600 1641.0000 1.0000
28.7700 1629.0000 1.0000
28.7800 1616.0000 1.0000
28.7900 1579.0000 1.0000
28.8000 1559.0000 1.0000
28.8100 1582.0000 1.0000
28.8200 1563.0000 1.0000
28.8300 1532.0000 1.0000
28.8400 1603.0000 1.0000
28.8500 1616.0000 1.0000
28.8600 1572.0000 1.0000
28.8700 1600.0000 1.0000
28.8800 1672.0000 1.0000
28.8900 1604.0000 1.0000
28.9000 1604.0000 1.0000
28.9100 1594.0000 1.0000
28.9200 1545.0000 1.0000
28.9300 1613.0000 1.0000
28.9400 1550.0000 1.0000
28.9500 1593.0000 1.0000
28.9600 1574.0000 1.0000
28.9700 1620.0000 1.0000
28.9800 1618.0000 1.0000
28.9900 1591.0000 1.0000
29.0000 1588.0000 1.0000
29.0100 1566.0000 1.0000
29.0200 1501.0000 1.0000
29.0300 1583.0000 1.0000
29.0400 1629.0000 1.0000
29.0500 1591.0000 1.0000
29.0600 1610.0000 1.0000
29.0700 1589.0000 1.0000
29.0800 1569.0000 1.0000
29.0900 1610.0000 1.0000
29.1000 1589.0000 1.0000
29.1100 1583.0000 1.0000
29.1200 1542.0000 1.0000
29.1300 1509.0000 1.0000
29.1400 1575.0000 1.0000
29.1500 1572.0000 1.0000
29.1600 1550.0000 1.0000
29.1700 1579.0000 1.0000
29.1800 1580.0000 1.0000
29.1900 1628.0000 1.0000
29.2000 1557.0000 1.0000
29.2100 1515.0000 1.0000
29.2200 1490.0000 1.0000
29.2300 1607.0000 1.0000
29.2400 1564.0000 1.0000
29.2500 1492.0000 1.0000
29.2600 1503.0000 1.0000
29.2700 1540.0000 1.0000
29.2800 1562.0000 1.0000
29.2900 1597.0000 1.0000
29.3000 1566.0000 1.0000
29.3100 1554.0000 1.0000
29.3200 1559.0000 1.0000
29.3300 1510.0000 1.0000
29.3400 1561.0000 1.0000
29.3500 1538.0000 1.0000
29.3600 1520.0000 1.0000
29.3700 1534.0000 1.0000
29.3800 1479.0000 1.0000
29.3900 1581.0000 1.0000
29.4000 1567.0000 1.0000
29.4100 1504.0000 1.0000
29.4200 1533.0000 1.0000
29.4300 1539.0000 1.0000
29.4400 1538.0000 1.0000
29.4500 1511.0000 1.0000
29.4600 1519.0000 1.0000
29.4700 1587.0000 1.0000
29.4800 1595.0000 1.0000
29.4900 1491.0000 1.0000
29.5000 1545.0000 1.0000
29.5100 1541.0000 1.0000
29.5200 1519.0000 1.0000
29.5300 1534.0000 1.0000
29.5400 1554.0000 1.0000
29.5500 1566.0000 1.0000
29.5600 1511.0000 1.0000
29.5700 1506.0000 1.0000
29.5800 1536.0000 1.0000
29.5900 1525.0000 1.0000
29.6000 1501.0000 1.0000
29.6100 1573.0000 1.0000
29.6200 1528.0000 1.0000
29.6300 1515.0000 1.0000
29.6400 1511.0000 1.0000
29.6500 1484.0000 1.0000
29.6600 1514.0000 1.0000
29.6700 1509.0000 1.0000
29.6800 1556.0000 1.0000
29.6900 1534.0000 1.0000
29.7000 1510.0000 1.0000
29.7100 1531.0000 1.0000
29.7200 1520.0000 1.0000
29.7300 1494.0000 1.0000
29.7400 1585.0000 1.0000
29.7500 1533.0000 1.0000
29.7600 1552.0000 1.0000
29.7700 1540.0000 1.0000
29.7800 1519.0000 1.0000
29.7900 1493.0000 1.0000
29.8000 1472.0000 1.0000
29.8100 1534.0000 1.0000
29.8200 1488.0000 1.0000
29.8300 1512.0000 1.0000
29.8400 1541.0000 1.0000
29.8500 1507.0000 1.0000
29.8600 1532.0000 1.0000
29.8700 1524.0000 1.0000
29.8800 1481.0000 1.0000
29.8900 1527.0000 1.0000
29.9000 1478.0000 1.0000
29.9100 1454.0000 1.0000
29.9200 1461.0000 1.0000
29.9300 1530.0000 1.0000
29.9400 1513.0000 1.0000
29.9500 1554.0000 1.0000
29.9600 1493.0000 1.0000
29.9700 1532.0000 1.0000
29.9800 1501.0000 1.0000
29.9900 1429.0000 1.0000
30.0000 1479.0000 1.0000
30.0100 1462.0000 1.0000
30.0200 1531.0000 1.0000
30.0300 1523.0000 1.0000
30.0400 1494.0000 1.0000
30.0500 1477.0000 1.0000
30.0600 1506.0000 1.0000
30.0700 1432.0000 1.0000
30.0800 1489.0000 1.0000
30.0900 1480.0000 1.0000
30.1000 1523.0000 1.0000
30.1100 1456.0000 1.0000
30.1200 1483.0000 1.0000
30.1300 1455.0000 1.0000
30.1400 1533.0000 1.0000
30.1500 1459.0000 1.0000
30.1600 1556.0000 1.0000
30.1700 1482.0000 1.0000
30.1800 1493.0000 1.0000
30.1900 1498.0000 1.0000
30.2000 1504.0000 1.0000
30.2100 1477.0000 1.0000
30.2200 1504.0000 1.0000
30.2300 1491.0000 1.0000
30.2400 1487.0000 1.0000
30.2500 1442.0000 1.0000
30.2600 1460.0000 1.0000
30.2700 1517.0000 1.0000
30.2800 1506.0000 1.0000
30.2900 1471.0000 1.0000
30.3000 1537.0000 1.0000
30.3100 1459.0000 1.0000
30.3200 1513.0000 1.0000
30.3300 1461.0000 1.0000
30.3400 1510.0000 1.0000
30.3500 1457.0000 1.0000
30.3600 1457.0000 1.0000
30.3700 1505.0000 1.0000
30.3800 1515.0000 1.0000
30.3900 1428.0000 1.0000
30.4000 1437.0000 1.0000
30.4100 1490.0000 1.0000
30.4200 1502.0000 1.0000
30.4300 1506.0000 1.0000
30.4400 1513.0000 1.0000
30.4500 1464.0000 1.0000
30.4600 1425.0000 1.0000
30.4700 1451.0000 1.0000
30.4800 1403.0000 1.0000
30.4900 1424.0000 1.0000
30.5000 1404.0000 1.0000
30.5100 1415.0000 1.0000
30.5200 1450.0000 1.0000
30.5300 1456.0000 1.0000
30.5400 1463.0000 1.0000
30.5500 1469.0000 1.0000
30.5600 1507.0000 1.0000
30.5700 1466.0000 1.0000
30.5800 1423.0000 1.0000
30.5900 1436.0000 1.0000
30.6000 1489.0000 1.0000
30.6100 1517.0000 1.0000
30.6200 1454.0000 1.0000
30.6300 1479.0000 1.0000
30.6400 1500.0000 1.0000
30.6500 1449.0000 1.0000
30.6600 1461.0000 1.0000
30.6700 1441.0000 1.0000
30.6800 1509.0000 1.0000
30.6900 1500.0000 1.0000
30.7000 1411.0000 1.0000
30.7100 1476.0000 1.0000
30.7200 1436.0000 1.0000
30.7300 1445.0000 1.0000
30.7400 1475.0000 1.0000
30.7500 1425.0000 1.0000
30.7600 1480.0000 1.0000
30.7700 1390.0000 1.0000
30.7800 1445.0000 1.0000
30.7900 1426.0000 1.0000
30.8000 1450.0000 1.0000
30.8100 1427.0000 1.0000
30.8200 1449.0000 1.0000
30.8300 1492.0000 1.0000
30.8400 1460.0000 1.0000
30.8500 1452.0000 1.0000
30.8600 1468.0000 1.0000
30.8700 1444.0000 1.0000
30.8800 1399.0000 1.0000
30.8900 1385.0000 1.0000
30.9000 1443.0000 1.0000
30.9100 1451.0000 1.0000
30.9200 1427.0000 1.0000
30.9300 1453.0000 1.0000
30.9400 1395.0000 1.0000
30.9500 1406.0000 1.0000
30.9600 1436.0000 1.0000
30.9700 1380.0000 1.0000
30.9800 1407.0000 1.0000
30.9900 1472.0000 1.0000
31.0000 1475.0000 1.0000
31.0100 1424.0000 1.0000
31.0200 1392.0000 1.0000
31.0300 1435.0000 1.0000
31.0400 1436.0000 1.0000
31.0500 1448.0000 1.0000
31.0600 1366.0000 1.0000
31.0700 1476.0000 1.0000
31.0800 1459.0000 1.0000
31.0900 1417.0000 1.0000
31.1000 1437.0000 1.0000
31.1100 1357.0000 1.0000
31.1200 1485.0000 1.0000
31.1300 1462.0000 1.0000
31.1400 1477.0000 1.0000
31.1500 1428.0000 1.0000
31.1600 1438.0000 1.0000
31.1700 1440.0000 1.0000
31.1800 1466.0000 1.0000
31.1900 1465.0000 1.0000
31.2000 1446.0000 1.0000
31.2100 1379.0000 1.0000
31.2200 1395.0000 1.0000
31.2300 1473.0000 1.0000
31.2400 1471.0000 1.0000
31.2500 1441.0000 1.0000
31.2600 1471.0000 1.0000
31.2700 1455.0000 1.0000
31.2800 1428.0000 1.0000
31.2900 1432.0000 1.0000
31.3000 1450.0000 1.0000
31.3100 1467.0000 1.0000
31.3200 1413.0000 1.0000
31.3300 1420.0000 1.0000
31.3400 1428.0000 1.0000
31.3500 1448.0000 1.0000
31.3600 1389.0000 1.0000
31.3700 1377.0000 1.0000
31.3800 1345.0000 1.0000
31.3900 1352.0000 1.0000
31.4000 1423.0000 1.0000
31.4100 1404.0000 1.0000
31.4200 1448.0000 1.0000
31.4300 1418.0000 1.0000
31.4400 1396.0000 1.0000
31.4500 1369.0000 1.0000
31.4600 1434.0000 1.0000
31.4700 1396.0000 1.0000
31.4800 1441.0000 1.0000
31.4900 1460.0000 1.0000
31.5000 1386.0000 1.0000
31.5100 1432.0000 1.0000
31.5200 1418.0000 1.0000
31.5300 1424.0000 1.0000
31.5400 1404.0000 1.0000
31.5500 1435.0000 1.0000
31.5600 1344.0000 1.0000
31.5700 1388.0000 1.0000
31.5800 1407.0000 1.0000
31.5900 1452.0000 1.0000
31.6000 1387.0000 1.0000
31.6100 1379.0000 1.0000
31.6200 1333.0000 1.0000
31.6300 1410.0000 1.0000
31.6400 1481.0000 1.0000
31.6500 1412.0000 1.0000
31.6600 1363.0000 1.0000
31.6700 1356.0000 1.0000
31.6800 1312.0000 1.0000
31.6900 1374.0000 1.0000
31.7000 1365.0000 1.0000
31.7100 1402.0000 1.0000
31.7200 1379.0000 1.0000
31.7300 1383.0000 1.0000
31.7400 1405.0000 1.0000
31.7500 1454.0000 1.0000
31.7600 1393.0000 1.0000
31.7700 1383.0000 1.0000
31.7800 1377.0000 1.0000
31.7900 1418.0000 1.0000
31.8000 1463.0000 1.0000
31.8100 1386.0000 1.0000
31.8200 1345.0000 1.0000
31.8300 1372.0000 1.0000
31.8400 1395.0000 1.0000
31.8500 1393.0000 1.0000
31.8600 1395.0000 1.0000
31.8700 1371.0000 1.0000
31.8800 1383.0000 1.0000
31.8900 1457.0000 1.0000
31.9000 1376.0000 1.0000
31.9100 1452.0000 1.0000
31.9200 1408.0000 1.0000
31.9300 1423.0000 1.0000
31.9400 1447.0000 1.0000
31.9500 1470.0000 1.0000
31.9600 1453.0000 1.0000
31.9700 1390.0000 1.0000
31.9800 1367.0000 1.0000
31.9900 1395.0000 1.0000
32.0000 1430.0000 1.0000
32.0100 1423.0000 1.0000
32.0200 1429.0000 1.0000
32.0300 1416.0000 1.0000
32.0400 1430.0000 1.0000
32.0500 1390.0000 1.0000
32.0600 1455.0000 1.0000
32.0700 1424.0000 1.0000
32.0800 1352.0000 1.0000
32.0900 1347.0000 1.0000
32.1000 1382.0000 1.0000
32.1100 1427.0000 1.0000
32.1200 1385.0000 1.0000
32.1300 1413.0000 1.0000
32.1400 1458.0000 1.0000
32.1500 1420.0000 1.0000
32.1600 1415.0000 1.0000
32.1700 1380.0000 1.0000
32.1800 1324.0000 1.0000
32.1900 1423.0000 1.0000
32.2000 1386.0000 1.0000
32.2100 1385.0000 1.0000
32.2200 1421.0000 1.0000
32.2300 1371.0000 1.0000
32.2400 1345.0000 1.0000
32.2500 1376.0000 1.0000
32.2600 1345.0000 1.0000
32.2700 1399.0000 1.0000
32.2800 1430.0000 1.0000
32.2900 1308.0000 1.0000
32.3000 1416.0000 1.0000
32.3100 1403.0000 1.0000
32.3200 1481.0000 1.0000
32.3300 1359.0000 1.0000
32.3400 1378.0000 1.0000
32.3500 1392.0000 1.0000
32.3600 1393.0000 1.0000
32.3700 1298.0000 1.0000
32.3800 1326.0000 1.0000
32.3900 1374.0000 1.0000
32.4000 1351.0000 1.0000
32.4100 1364.0000 1.0000
32.4200 1312.0000 1.0000
32.4300 1345.0000 1.0000
32.4400 1349.0000 1.0000
32.4500 1335.0000 1.0000
32.4600 1417.0000 1.0000
32.4700 1392.0000 1.0000
32.4800 1334.0000 1.0000
32.4900 1376.0000 1.0000
32.5000 1382.0000 1.0000
32.5100 1330.0000 1.0000
32.5200 1356.0000 1.0000
32.5300 1326.0000 1.0000
32.5400 1367.0000 1.0000
32.5500 1350.0000 1.0000
32.5600 1393.0000 1.0000
32.5700 1390.0000 1.0000
32.5800 1395.0000 1.0000
32.5900 1335.0000 1.0000
32.6000 1329.0000 1.0000
32.6100 1313.0000 1.0000
32.6200 1344.0000 1.0000
32.6300 1307.0000 1.0000
32.6400 1302.0000 1.0000
32.6500 1298.0000 1.0000
32.6600 1328.0000 1.0000
32.6700 1381.0000 1.0000
32.6800 1384.0000 1.0000
32.6900 1366.0000 1.0000
32.7000 1324.0000 1.0000
32.7100 1332.0000 1.0000
32.7200 1340.0000 1.0000
32.7300 1301.0000 1.0000
32.7400 1340.0000 1.0000
32.7500 1287.0000 1.0000
32.7600 1314.0000 1.0000
32.7700 1311.0000 1.0000
32.7800 1366.0000 1.0000
32.7900 1351.0000 1.0000
32.8000 1383.0000 1.0000
32.8100 1400.0000 1.0000
32.8200 1319.0000 1.0000
32.8300 1322.0000 1.0000
32.8400 1334.0000 1.0000
32.8500 1351.0000 1.0000
32.8600 1335.0000 1.0000
32.8700 1337.0000 1.0000
32.8800 1340.0000 1.0000
32.8900 1358.0000 1.0000
32.9000 1360.0000 1.0000
32.9100 1351.0000 1.0000
32.9200 1286.0000 1.0000
32.9300 1317.0000 1.0000
32.9400 1292.0000 1.0000
32.9500 1321.0000 1.0000
32.9600 1333.0000 1.0000
32.9700 1358.0000 1.0000
32.9800 1349.0000 1.0000
32.9900 1386.0000 1.0000
33.0000 1323.0000 1.0000
33.0100 1315.0000 1.0000
33.0200 1272.0000 1.0000
33.0300 1336.0000 1.0000
33.0400 1340.0000 1.0000
33.0500 1333.0000 1.0000
33.0600 1314.0000 1.0000
33.0700 1361.0000 1.0000
33.0800 1309.0000 1.0000
33.0900 1325.0000 1.0000
33.1000 1330.0000 1.0000
33.1100 1340.0000 1.0000
33.1200 1317.0000 1.0000
33.1300 1296.0000 1.0000
33.1400 1256.0000 1.0000
33.1500 1245.0000 1.0000
33.1600 1304.0000 1.0000
33.1700 1288.0000 1.0000
33.1800 1308.0000 1.0000
33.1900 1369.0000 1.0000
33.2000 1357.0000 1.0000
33.2100 1336.0000 1.0000
33.2200 1310.0000 1.0000
33.2300 1338.0000 1.0000
33.2400 1303.0000 1.0000
33.2500 1325.0000 1.0000
33.2600 1340.0000 1.0000
33.2700 1281.0000 1.0000
33.2800 1327.0000 1.0000
33.2900 1300.0000 1.0000
33.3000 1283.0000 1.0000
33.3100 1331.0000 1.0000
33.3200 1292.0000 1.0000
33.3300 1306.0000 1.0000
33.3400 1311.0000 1.0000
33.3500 1365.0000 1.0000
33.3600 1360.0000 1.0000
33.3700 1395.0000 1.0000
33.3800 1337.0000 1.0000
33.3900 1270.0000 1.0000
33.4000 1339.0000 1.0000
33.4100 1350.0000 1.0000
33.4200 1343.0000 1.0000
33.4300 1374.0000 1.0000
33.4400 1359.0000 1.0000
33.4500 1249.0000 1.0000
33.4600 1301.0000 1.0000
33.4700 1319.0000 1.0000
33.4800 1329.0000 1.0000
33.4900 1386.0000 1.0000
33.5000 1317.0000 1.0000
33.5100 1358.0000 1.0000
33.5200 1285.0000 1.0000
33.5300 1283.0000 1.0000
33.5400 1354.0000 1.0000
33.5500 1320.0000 1.0000
33.5600 1323.0000 1.0000
33.5700 1376.0000 1.0000
33.5800 1266.0000 1.0000
33.5900 1318.0000 1.0000
33.6000 1330.0000 1.0000
33.6100 1291.0000 1.0000
33.6200 1353.0000 1.0000
33.6300 1350.0000 1.0000
33.6400 1322.0000 1.0000
33.6500 1295.0000 1.0000
33.6600 1262.0000 1.0000
33.6700 1341.0000 1.0000
33.6800 1279.0000 1.0000
33.6900 1343.0000 1.0000
33.7000 1374.0000 1.0000
33.7100 1372.0000 1.0000
33.7200 1338.0000 1.0000
33.7300 1372.0000 1.0000
33.7400 1364.0000 1.0000
33.7500 1363.0000 1.0000
33.7600 1380.0000 1.0000
33.7700 1410.0000 1.0000
33.7800 1400.0000 1.0000
33.7900 1440.0000 1.0000
33.8000 1351.0000 1.0000
33.8100 1426.0000 1.0000
33.8200 1467.0000 1.0000
33.8300 1406.0000 1.0000
33.8400 1352.0000 1.0000
33.8500 1449.0000 1.0000
33.8600 1491.0000 1.0000
33.8700 1445.0000 1.0000
33.8800 1477.0000 1.0000
33.8900 1508.0000 1.0000
33.9000 1519.0000 1.0000
33.9100 1521.0000 1.0000
33.9200 1581.0000 1.0000
33.9300 1533.0000 1.0000
33.9400 1557.0000 1.0000
33.9500 1576.0000 1.0000
33.9600 1551.0000 1.0000
33.9700 1505.0000 1.0000
33.9800 1535.0000 1.0000
33.9900 1573.0000 1.0000
34.0000 1529.0000 1.0000
34.0100 1532.0000 1.0000
34.0200 1494.0000 1.0000
34.0300 1515.0000 1.0000
34.0400 1515.0000 1.0000
34.0500 1439.0000 1.0000
34.0600 1471.0000 1.0000
34.0700 1459.0000 1.0000
34.0800 1506.0000 1.0000
34.0900 1470.0000 1.0000
34.1000 1413.0000 1.0000
34.1100 1514.0000 1.0000
34.1200 1511.0000 1.0000
34.1300 1478.0000 1.0000
34.1400 1531.0000 1.0000
34.1500 1486.0000 1.0000
34.1600 1519.0000 1.0000
34.1700 1518.0000 1.0000
34.1800 1509.0000 1.0000
34.1900 1606.0000 1.0000
34.2000 1584.0000 1.0000
34.2100 1615.0000 1.0000
34.2200 1576.0000 1.0000
34.2300 1559.0000 1.0000
34.2400 1655.0000 1.0000
34.2500 1711.0000 1.0000
34.2600 1694.0000 1.0000
34.2700 1699.0000 1.0000
34.2800 1761.0000 1.0000
34.2900 1791.0000 1.0000
34.3000 1840.0000 1.0000
34.3100 1838.0000 1.0000
34.3200 1985.0000 1.0000
34.3300 2022.0000 1.0000
34.3400 2077.0000 1.0000
34.3500 2081.0000 1.0000
34.3600 2177.0000 1.0000
34.3700 2206.0000 1.0000
34.3800 2280.0000 1.0000
34.3900 2421.0000 1.0000
34.4000 2520.0000 1.0000
34.4100 2647.0000 1.0000
34.4200 2722.0000 1.0000
34.4300 2863.0000 1.0000
34.4400 2977.0000 1.0000
34.4500 3026.0000 1.0000
34.4600 3256.0000 1.0000
34.4700 3360.0000 1.0000
34.4800 3312.0000 1.0000
34.4900 3330.0000 1.0000
34.5000 3363.0000 1.0000
34.5100 3360.0000 1.0000
34.5200 3362.0000 1.0000
34.5300 3312.0000 1.0000
34.5400 3207.0000 1.0000
34.5500 3224.0000 1.0000
34.5600 3005.0000 1.0000
34.5700 2951.0000 1.0000
34.5800 2811.0000 1.0000
34.5900 2811.0000 1.0000
34.6000 2649.0000 1.0000
34.6100 2575.0000 1.0000
34.6200 2482.0000 1.0000
34.6300 2372.0000 1.0000
34.6400 2317.0000 1.0000
34.6500 2164.0000 1.0000
34.6600 2141.0000 1.0000
34.6700 2069.0000 1.0000
34.6800 1976.0000 1.0000
34.6900 1912.0000 1.0000
34.7000 1831.0000 1.0000
34.7100 1808.0000 1.0000
34.7200 1760.0000 1.0000
34.7300 1818.0000 1.0000
34.7400 1697.0000 1.0000
34.7500 1694.0000 1.0000
34.7600 1644.0000 1.0000
34.7700 1664.0000 1.0000
34.7800 1589.0000 1.0000
34.7900 1647.0000 1.0000
34.8000 1620.0000 1.0000
34.8100 1528.0000 1.0000
34.8200 1503.0000 1.0000
34.8300 1505.0000 1.0000
34.8400 1471.0000 1.0000
34.8500 1473.0000 1.0000
34.8600 1487.0000 1.0000
34.8700 1436.0000 1.0000
34.8800 1441.0000 1.0000
34.8900 1360.0000 1.0000
34.9000 1411.0000 1.0000
34.9100 1421.0000 1.0000
34.9200 1420.0000 1.0000
34.9300 1364.0000 1.0000
34.9400 1432.0000 1.0000
34.9500 1363.0000 1.0000
34.9600 1344.0000 1.0000
34.9700 1303.0000 1.0000
34.9800 1374.0000 1.0000
34.9900 1281.0000 1.0000
35.0000 1323.0000 1.0000
35.0100 1299.0000 1.0000
35.0200 1279.0000 1.0000
35.0300 1332.0000 1.0000
35.0400 1295.0000 1.0000
35.0500 1296.0000 1.0000
35.0600 1261.0000 1.0000
35.0700 1241.0000 1.0000
35.0800 1250.0000 1.0000
35.0900 1238.0000 1.0000
35.1000 1220.0000 1.0000
35.1100 1211.0000 1.0000
35.1200 1299.0000 1.0000
35.1300 1238.0000 1.0000
35.1400 1175.0000 1.0000
35.1500 1221.0000 1.0000
35.1600 1207.0000 1.0000
35.1700 1195.0000 1.0000
35.1800 1223.0000 1.0000
35.1900 1234.0000 1.0000
35.2000 1253.0000 1.0000
35.2100 1215.0000 1.0000
35.2200 1228.0000 1.0000
35.2300 1226.0000 1.0000
35.2400 1224.0000 1.0000
35.2500 1198.0000 1.0000
35.2600 1252.0000 1.0000
35.2700 1178.0000 1.0000
35.2800 1279.0000 1.0000
35.2900 1223.0000 1.0000
35.3000 1259.0000 1.0000
35.3100 1208.0000 1.0000
35.3200 1203.0000 1.0000
35.3300 1218.0000 1.0000
35.3400 1201.0000 1.0000
35.3500 1241.0000 1.0000
35.3600 1161.0000 1.0000
35.3700 1128.0000 1.0000
35.3800 1183.0000 1.0000
35.3900 1162.0000 1.0000
35.4000 1161.0000 1.0000
35.4100 1218.0000 1.0000
35.4200 1170.0000 1.0000
35.4300 1182.0000 1.0000
35.4400 1186.0000 1.0000
35.4500 1195.0000 1.0000
35.4600 1208.0000 1.0000
35.4700 1225.0000 1.0000
35.4800 1175.0000 1.0000
35.4900 1220.0000 1.0000
35.5000 1173.0000 1.0000
35.5100 1155.0000 1.0000
35.5200 1167.0000 1.0000
35.5300 1151.0000 1.0000
35.5400 1099.0000 1.0000
35.5500 1118.0000 1.0000
35.5600 1152.0000 1.0000
35.5700 1213.0000 1.0000
35.5800 1165.0000 1.0000
35.5900 1138.0000 1.0000
35.6000 1147.0000 1.0000
35.6100 1216.0000 1.0000
35.6200 1173.0000 1.0000
35.6300 1192.0000 1.0000
35.6400 1142.0000 1.0000
35.6500 1139.0000 1.0000
35.6600 1119.0000 1.0000
35.6700 1143.0000 1.0000
35.6800 1159.0000 1.0000
35.6900 1175.0000 1.0000
35.7000 1154.0000 1.0000
35.7100 1209.0000 1.0000
35.7200 1161.0000 1.0000
35.7300 1161.0000 1.0000
35.7400 1179.0000 1.0000
35.7500 1141.0000 1.0000
35.7600 1138.0000 1.0000
35.7700 1109.0000 1.0000
35.7800 1133.0000 1.0000
35.7900 1150.0000 1.0000
35.8000 1190.0000 1.0000
35.8100 1132.0000 1.0000
35.8200 1124.0000 1.0000
35.8300 1144.0000 1.0000
35.8400 1140.0000 1.0000
35.8500 1142.0000 1.0000
35.8600 1169.0000 1.0000
35.8700 1140.0000 1.0000
35.8800 1080.0000 1.0000
35.8900 1117.0000 1.0000
35.9000 1109.0000 1.0000
35.9100 1118.0000 1.0000
35.9200 1146.0000 1.0000
35.9300 1131.0000 1.0000
35.9400 1116.0000 1.0000
35.9500 1115.0000 1.0000
35.9600 1134.0000 1.0000
35.9700 1104.0000 1.0000
35.9800 1152.0000 1.0000
35.9900 1095.0000 1.0000
36.0000 1077.0000 1.0000
36.0100 1122.0000 1.0000
36.0200 1157.0000 1.0000
36.0300 1164.0000 1.0000
36.0400 1116.0000 1.0000
36.0500 1107.0000 1.0000
36.0600 1116.0000 1.0000
36.0700 1099.0000 1.0000
36.0800 1181.0000 1.0000
36.0900 1186.0000 1.0000
36.1000 1130.0000 1.0000
36.1100 1140.0000 1.0000
36.1200 1187.0000 1.0000
36.1300 1180.0000 1.0000
36.1400 1201.0000 1.0000
36.1500 1175.0000 1.0000
36.1600 1218.0000 1.0000
36.1700 1142.0000 1.0000
36.1800 1222.0000 1.0000
36.1900 1241.0000 1.0000
36.2000 1205.0000 1.0000
36.2100 1283.0000 1.0000
36.2200 1309.0000 1.0000
36.2300 1264.0000 1.0000
36.2400 1315.0000 1.0000
36.2500 1339.0000 1.0000
36.2600 1271.0000 1.0000
36.2700 1357.0000 1.0000
36.2800 1433.0000 1.0000
36.2900 1446.0000 1.0000
36.3000 1524.0000 1.0000
36.3100 1520.0000 1.0000
36.3200 1526.0000 1.0000
36.3300 1686.0000 1.0000
36.3400 1710.0000 1.0000
36.3500 1752.0000 1.0000
36.3600 1835.0000 1.0000
36.3700 1984.0000 1.0000
36.3800 1938.0000 1.0000
36.3900 2067.0000 1.0000
36.4000 2209.0000 1.0000
36.4100 2204.0000 1.0000
36.4200 2188.0000 1.0000
36.4300 2109.0000 1.0000
36.4400 1979.0000 1.0000
36.4500 2008.0000 1.0000
36.4600 1889.0000 1.0000
36.4700 1895.0000 1.0000
36.4800 1765.0000 1.0000
36.4900 1779.0000 1.0000
36.5000 1691.0000 1.0000
36.5100 1684.0000 1.0000
36.5200 1646.0000 1.0000
36.5300 1574.0000 1.0000
36.5400 1428.0000 1.0000
36.5500 1433.0000 1.0000
36.5600 1362.0000 1.0000
36.5700 1311.0000 1.0000
36.5800 1264.0000 1.0000
36.5900 1256.0000 1.0000
36.6000 1179.0000 1.0000
36.6100 1185.0000 1.0000
36.6200 1254.0000 1.0000
36.6300 1192.0000 1.0000
36.6400 1143.0000 1.0000
36.6500 1148.0000 1.0000
36.6600 1129.0000 1.0000
36.6700 1150.0000 1.0000
36.6800 1131.0000 1.0000
36.6900 1101.0000 1.0000
36.7000 1106.0000 1.0000
36.7100 1108.0000 1.0000
36.7200 1087.0000 1.0000
36.7300 1043.0000 1.0000
36.7400 1106.0000 1.0000
36.7500 1078.0000 1.0000
36.7600 1085.0000 1.0000
36.7700 1101.0000 1.0000
36.7800 1002.0000 1.0000
36.7900 1075.0000 1.0000
36.8000 1093.0000 1.0000
36.8100 1118.0000 1.0000
36.8200 1127.0000 1.0000
36.8300 1029.0000 1.0000
36.8400 1050.0000 1.0000
36.8500 1035.0000 1.0000
36.8600 1044.0000 1.0000
36.8700 1071.0000 1.0000
36.8800 1130.0000 1.0000
36.8900 1066.0000 1.0000
36.9000 1092.0000 1.0000
36.9100 1049.0000 1.0000
36.9200 1019.0000 1.0000
36.9300 1032.0000 1.0000
36.9400 1033.0000 1.0000
36.9500 1050.0000 1.0000
36.9600 1121.0000 1.0000
36.9700 1040.0000 1.0000
36.9800 1059.0000 1.0000
36.9900 1056.0000 1.0000
37.0000 991.0000 1.0000
37.0100 1021.0000 1.0000
37.0200 1014.0000 1.0000
37.0300 1074.0000 1.0000
37.0400 1002.0000 1.0000
37.0500 1081.0000 1.0000
37.0600 1103.0000 1.0000
37.0700 1041.0000 1.0000
37.0800 1042.0000 1.0000
37.0900 1063.0000 1.0000
37.1000 1038.0000 1.0000
37.1100 1013.0000 1.0000
37.1200 1053.0000 1.0000
37.1300 1112.0000 1.0000
37.1400 1017.0000 1.0000
37.1500 1071.0000 1.0000
37.1600 1030.0000 1.0000
37.1700 1036.0000 1.0000
37.1800 1071.0000 1.0000
37.1900 1099.0000 1.0000
37.2000 1082.0000 1.0000
37.2100 1056.0000 1.0000
37.2200 1087.0000 1.0000
37.2300 1063.0000 1.0000
37.2400 1049.0000 1.0000
37.2500 1092.0000 1.0000
37.2600 1055.0000 1.0000
37.2700 1077.0000 1.0000
37.2800 1085.0000 1.0000
37.2900 1110.0000 1.0000
37.3000 1074.0000 1.0000
37.3100 1057.0000 1.0000
37.3200 1025.0000 1.0000
37.3300 1090.0000 1.0000
37.3400 1054.0000 1.0000
37.3500 1087.0000 1.0000
37.3600 989.0000 1.0000
37.3700 1033.0000 1.0000
37.3800 1029.0000 1.0000
37.3900 1051.0000 1.0000
37.4000 1032.0000 1.0000
37.4100 1098.0000 1.0000
37.4200 1116.0000 1.0000
37.4300 1091.0000 1.0000
37.4400 1026.0000 1.0000
37.4500 1006.0000 1.0000
37.4600 1058.0000 1.0000
37.4700 1073.0000 1.0000
37.4800 1044.0000 1.0000
37.4900 1019.0000 1.0000
37.5000 1032.0000 1.0000
37.5100 1085.0000 1.0000
37.5200 1103.0000 1.0000
37.5300 1079.0000 1.0000
37.5400 1018.0000 1.0000
37.5500 1029.0000 1.0000
37.5600 1084.0000 1.0000
37.5700 1072.0000 1.0000
37.5800 1055.0000 1.0000
37.5900 1006.0000 1.0000
37.6000 1065.0000 1.0000
37.6100 1055.0000 1.0000
37.6200 1066.0000 1.0000
37.6300 1071.0000 1.0000
37.6400 1007.0000 1.0000
37.6500 1059.0000 1.0000
37.6600 1026.0000 1.0000
37.6700 1008.0000 1.0000
37.6800 1018.0000 1.0000
37.6900 1051.0000 1.0000
37.7000 1132.0000 1.0000
37.7100 1076.0000 1.0000
37.7200 1050.0000 1.0000
37.7300 1053.0000 1.0000
37.7400 1014.0000 1.0000
37.7500 1020.0000 1.0000
37.7600 1063.0000 1.0000
37.7700 1064.0000 1.0000
37.7800 1061.0000 1.0000
37.7900 1027.0000 1.0000
37.8000 1007.0000 1.0000
37.8100 1042.0000 1.0000
37.8200 1043.0000 1.0000
37.8300 1060.0000 1.0000
37.8400 1026.0000 1.0000
37.8500 1056.0000 1.0000
37.8600 1089.0000 1.0000
37.8700 1053.0000 1.0000
37.8800 1070.0000 1.0000
37.8900 1037.0000 1.0000
37.9000 1061.0000 1.0000
37.9100 1037.0000 1.0000
37.9200 1041.0000 1.0000
37.9300 1061.0000 1.0000
37.9400 1072.0000 1.0000
37.9500 1050.0000 1.0000
37.9600 1087.0000 1.0000
37.9700 1132.0000 1.0000
37.9800 1008.0000 1.0000
37.9900 1106.0000 1.0000
38.0000 1089.0000 1.0000
38.0100 1131.0000 1.0000
38.0200 1142.0000 1.0000
38.0300 1132.0000 1.0000
38.0400 1094.0000 1.0000
38.0500 1087.0000 1.0000
38.0600 1146.0000 1.0000
38.0700 1165.0000 1.0000
38.0800 1124.0000 1.0000
38.0900 1117.0000 1.0000
38.1000 1148.0000 1.0000
38.1100 1191.0000 1.0000
38.1200 1242.0000 1.0000
38.1300 1236.0000 1.0000
38.1400 1248.0000 1.0000
38.1500 1273.0000 1.0000
38.1600 1337.0000 1.0000
38.1700 1319.0000 1.0000
38.1800 1346.0000 1.0000
38.1900 1346.0000 1.0000
38.2000 1405.0000 1.0000
38.2100 1463.0000 1.0000
38.2200 1469.0000 1.0000
38.2300 1476.0000 1.0000
38.2400 1495.0000 1.0000
38.2500 1483.0000 1.0000
38.2600 1665.0000 1.0000
38.2700 1700.0000 1.0000
38.2800 1673.0000 1.0000
38.2900 1862.0000 1.0000
38.3000 1855.0000 1.0000
38.3100 1951.0000 1.0000
38.3200 2004.0000 1.0000
38.3300 2104.0000 1.0000
38.3400 2239.0000 1.0000
38.3500 2398.0000 1.0000
38.3600 2519.0000 1.0000
38.3700 2647.0000 1.0000
38.3800 2812.0000 1.0000
38.3900 3091.0000 1.0000
38.4000 3298.0000 1.0000
38.4100 3405.0000 1.0000
38.4200 3570.0000 1.0000
38.4300 3955.0000 1.0000
38.4400 4234.0000 1.0000
38.4500 4496.0000 1.0000
38.4600 4699.0000 1.0000
38.4700 4907.0000 1.0000
38.4800 5227.0000 1.0000
38.4900 5593.0000 1.0000
38.5000 5839.0000 1.0000
38.5100 6096.0000 1.0000
38.5200 6076.0000 1.0000
38.5300 6248.0000 1.0000
38.5400 6237.0000 1.0000
38.5500 6115.0000 1.0000
38.5600 6165.0000 1.0000
38.5700 6076.0000 1.0000
38.5800 5852.0000 1.0000
38.5900 5743.0000 1.0000
38.6000 5623.0000 1.0000
38.6100 5365.0000 1.0000
38.6200 5173.0000 1.0000
38.6300 4973.0000 1.0000
38.6400 4681.0000 1.0000
38.6500 4506.0000 1.0000
38.6600 4223.0000 1.0000
38.6700 3939.0000 1.0000
38.6800 3852.0000 1.0000
38.6900 3540.0000 1.0000
38.7000 3231.0000 1.0000
38.7100 3085.0000 1.0000
38.7200 2849.0000 1.0000
38.7300 2710.0000 1.0000
38.7400 2488.0000 1.0000
38.7500 2424.0000 1.0000
38.7600 2298.0000 1.0000
38.7700 2080.0000 1.0000
38.7800 2009.0000 1.0000
38.7900 1913.0000 1.0000
38.8000 1851.0000 1.0000
38.8100 1784.0000 1.0000
38.8200 1605.0000 1.0000
38.8300 1705.0000 1.0000
38.8400 1562.0000 1.0000
38.8500 1488.0000 1.0000
38.8600 1529.0000 1.0000
38.8700 1419.0000 1.0000
38.8800 1386.0000 1.0000
38.8900 1352.0000 1.0000
38.9000 1340.0000 1.0000
38.9100 1280.0000 1.0000
38.9200 1224.0000 1.0000
38.9300 1205.0000 1.0000
38.9400 1214.0000 1.0000
38.9500 1215.0000 1.0000
38.9600 1191.0000 1.0000
38.9700 1206.0000 1.0000
38.9800 1154.0000 1.0000
38.9900 1109.0000 1.0000
39.0000 1122.0000 1.0000
39.0100 1139.0000 1.0000
39.0200 1135.0000 1.0000
39.0300 1079.0000 1.0000
39.0400 1096.0000 1.0000
39.0500 1114.0000 1.0000
39.0600 1056.0000 1.0000
39.0700 1008.0000 1.0000
39.0800 1013.0000 1.0000
39.0900 1006.0000 1.0000
39.1000 997.0000 1.0000
39.1100 1036.0000 1.0000
39.1200 1027.0000 1.0000
39.1300 1010.0000 1.0000
39.1400 1011.0000 1.0000
39.1500 1015.0000 1.0000
39.1600 995.0000 1.0000
39.1700 1043.0000 1.0000
39.1800 972.0000 1.0000
39.1900 1034.0000 1.0000
39.2000 1019.0000 1.0000
39.2100 994.0000 1.0000
39.2200 1012.0000 1.0000
39.2300 993.0000 1.0000
39.2400 960.0000 1.0000
39.2500 975.0000 1.0000
39.2600 991.0000 1.0000
39.2700 936.0000 1.0000
39.2800 941.0000 1.0000
39.2900 1027.0000 1.0000
39.3000 980.0000 1.0000
39.3100 978.0000 1.0000
39.3200 969.0000 1.0000
39.3300 998.0000 1.0000
39.3400 982.0000 1.0000
39.3500 957.0000 1.0000
39.3600 977.0000 1.0000
39.3700 961.0000 1.0000
39.3800 1034.0000 1.0000
39.3900 978.0000 1.0000
39.4000 933.0000 1.0000
39.4100 974.0000 1.0000
39.4200 1004.0000 1.0000
39.4300 1013.0000 1.0000
39.4400 968.0000 1.0000
39.4500 944.0000 1.0000
39.4600 957.0000 1.0000
39.4700 978.0000 1.0000
39.4800 996.0000 1.0000
39.4900 993.0000 1.0000
39.5000 994.0000 1.0000
39.5100 993.0000 1.0000
39.5200 1007.0000 1.0000
39.5300 1025.0000 1.0000
39.5400 1015.0000 1.0000
39.5500 996.0000 1.0000
39.5600 1018.0000 1.0000
39.5700 1015.0000 1.0000
39.5800 982.0000 1.0000
39.5900 986.0000 1.0000
39.6000 1011.0000 1.0000
39.6100 1006.0000 1.0000
39.6200 1022.0000 1.0000
39.6300 1009.0000 1.0000
39.6400 1019.0000 1.0000
39.6500 1041.0000 1.0000
39.6600 996.0000 1.0000
39.6700 992.0000 1.0000
39.6800 1010.0000 1.0000
39.6900 982.0000 1.0000
39.7000 943.0000 1.0000
39.7100 950.0000 1.0000
39.7200 915.0000 1.0000
39.7300 926.0000 1.0000
39.7400 971.0000 1.0000
39.7500 958.0000 1.0000
39.7600 966.0000 1.0000
39.7700 935.0000 1.0000
39.7800 963.0000 1.0000
39.7900 967.0000 1.0000
39.8000 979.0000 1.0000
39.8100 917.0000 1.0000
39.8200 944.0000 1.0000
39.8300 981.0000 1.0000
39.8400 969.0000 1.0000
39.8500 924.0000 1.0000
39.8600 886.0000 1.0000
39.8700 960.0000 1.0000
39.8800 924.0000 1.0000
39.8900 873.0000 1.0000
39.9000 884.0000 1.0000
39.9100 894.0000 1.0000
39.9200 904.0000 1.0000
39.9300 917.0000 1.0000
39.9400 913.0000 1.0000
39.9500 906.0000 1.0000
39.9600 907.0000 1.0000
39.9700 914.0000 1.0000
39.9800 925.0000 1.0000
39.9900 875.0000 1.0000
40.0000 902.0000 1.0000
40.0100 950.0000 1.0000
40.0200 943.0000 1.0000
40.0300 926.0000 1.0000
40.0400 884.0000 1.0000
40.0500 960.0000 1.0000
40.0600 881.0000 1.0000
40.0700 866.0000 1.0000
40.0800 940.0000 1.0000
40.0900 900.0000 1.0000
40.1000 882.0000 1.0000
40.1100 979.0000 1.0000
40.1200 917.0000 1.0000
40.1300 912.0000 1.0000
40.1400 896.0000 1.0000
40.1500 896.0000 1.0000
40.1600 874.0000 1.0000
40.1700 905.0000 1.0000
40.1800 922.0000 1.0000
40.1900 903.0000 1.0000
40.2000 869.0000 1.0000
40.2100 834.0000 1.0000
40.2200 891.0000 1.0000
40.2300 903.0000 1.0000
40.2400 926.0000 1.0000
40.2500 897.0000 1.0000
40.2600 908.0000 1.0000
40.2700 817.0000 1.0000
40.2800 878.0000 1.0000
40.2900 893.0000 1.0000
40.3000 924.0000 1.0000
40.3100 889.0000 1.0000
40.3200 873.0000 1.0000
40.3300 871.0000 1.0000
40.3400 888.0000 1.0000
40.3500 917.0000 1.0000
40.3600 876.0000 1.0000
40.3700 883.0000 1.0000
40.3800 882.0000 1.0000
40.3900 867.0000 1.0000
40.4000 897.0000 1.0000
40.4100 889.0000 1.0000
40.4200 890.0000 1.0000
40.4300 900.0000 1.0000
40.4400 853.0000 1.0000
40.4500 846.0000 1.0000
40.4600 854.0000 1.0000
40.4700 884.0000 1.0000
40.4800 967.0000 1.0000
40.4900 858.0000 1.0000
40.5000 903.0000 1.0000
40.5100 891.0000 1.0000
40.5200 873.0000 1.0000
40.5300 860.0000 1.0000
40.5400 897.0000 1.0000
40.5500 896.0000 1.0000
40.5600 891.0000 1.0000
40.5700 841.0000 1.0000
40.5800 894.0000 1.0000
40.5900 858.0000 1.0000
40.6000 858.0000 1.0000
40.6100 895.0000 1.0000
40.6200 873.0000 1.0000
40.6300 882.0000 1.0000
40.6400 826.0000 1.0000
40.6500 837.0000 1.0000
40.6600 837.0000 1.0000
40.6700 887.0000 1.0000
40.6800 868.0000 1.0000
40.6900 816.0000 1.0000
40.7000 858.0000 1.0000
40.7100 843.0000 1.0000
40.7200 886.0000 1.0000
40.7300 872.0000 1.0000
40.7400 817.0000 1.0000
40.7500 861.0000 1.0000
40.7600 870.0000 1.0000
40.7700 923.0000 1.0000
40.7800 919.0000 1.0000
40.7900 893.0000 1.0000
40.8000 827.0000 1.0000
40.8100 818.0000 1.0000
40.8200 881.0000 1.0000
40.8300 869.0000 1.0000
40.8400 876.0000 1.0000
40.8500 873.0000 1.0000
40.8600 861.0000 1.0000
40.8700 882.0000 1.0000
40.8800 882.0000 1.0000
40.8900 891.0000 1.0000
40.9000 858.0000 1.0000
40.9100 855.0000 1.0000
40.9200 818.0000 1.0000
40.9300 832.0000 1.0000
40.9400 847.0000 1.0000
40.9500 867.0000 1.0000
40.9600 884.0000 1.0000
40.9700 864.0000 1.0000
40.9800 867.0000 1.0000
40.9900 849.0000 1.0000
41.0000 850.0000 1.0000
41.0100 835.0000 1.0000
41.0200 846.0000 1.0000
41.0300 853.0000 1.0000
41.0400 864.0000 1.0000
41.0500 869.0000 1.0000
41.0600 865.0000 1.0000
41.0700 888.0000 1.0000
41.0800 872.0000 1.0000
41.0900 877.0000 1.0000
41.1000 942.0000 1.0000
41.1100 899.0000 1.0000
41.1200 835.0000 1.0000
41.1300 923.0000 1.0000
41.1400 863.0000 1.0000
41.1500 845.0000 1.0000
41.1600 815.0000 1.0000
41.1700 907.0000 1.0000
41.1800 898.0000 1.0000
41.1900 878.0000 1.0000
41.2000 825.0000 1.0000
41.2100 843.0000 1.0000
41.2200 857.0000 1.0000
41.2300 809.0000 1.0000
41.2400 849.0000 1.0000
41.2500 843.0000 1.0000
41.2600 832.0000 1.0000
41.2700 832.0000 1.0000
41.2800 861.0000 1.0000
41.2900 870.0000 1.0000
41.3000 851.0000 1.0000
41.3100 818.0000 1.0000
41.3200 825.0000 1.0000
41.3300 849.0000 1.0000
41.3400 866.0000 1.0000
41.3500 859.0000 1.0000
41.3600 859.0000 1.0000
41.3700 868.0000 1.0000
41.3800 897.0000 1.0000
41.3900 855.0000 1.0000
41.4000 848.0000 1.0000
41.4100 886.0000 1.0000
41.4200 834.0000 1.0000
41.4300 916.0000 1.0000
41.4400 924.0000 1.0000
41.4500 907.0000 1.0000
41.4600 894.0000 1.0000
41.4700 852.0000 1.0000
41.4800 862.0000 1.0000
41.4900 883.0000 1.0000
41.5000 869.0000 1.0000
41.5100 892.0000 1.0000
41.5200 875.0000 1.0000
41.5300 886.0000 1.0000
41.5400 845.0000 1.0000
41.5500 859.0000 1.0000
41.5600 855.0000 1.0000
41.5700 927.0000 1.0000
41.5800 906.0000 1.0000
41.5900 949.0000 1.0000
41.6000 846.0000 1.0000
41.6100 859.0000 1.0000
41.6200 968.0000 1.0000
41.6300 907.0000 1.0000
41.6400 951.0000 1.0000
41.6500 876.0000 1.0000
41.6600 874.0000 1.0000
41.6700 886.0000 1.0000
41.6800 901.0000 1.0000
41.6900 872.0000 1.0000
41.7000 915.0000 1.0000
41.7100 876.0000 1.0000
41.7200 856.0000 1.0000
41.7300 881.0000 1.0000
41.7400 881.0000 1.0000
41.7500 896.0000 1.0000
41.7600 855.0000 1.0000
41.7700 876.0000 1.0000
41.7800 855.0000 1.0000
41.7900 896.0000 1.0000
41.8000 873.0000 1.0000
41.8100 938.0000 1.0000
41.8200 859.0000 1.0000
41.8300 850.0000 1.0000
41.8400 850.0000 1.0000
41.8500 830.0000 1.0000
41.8600 848.0000 1.0000
41.8700 863.0000 1.0000
41.8800 845.0000 1.0000
41.8900 870.0000 1.0000
41.9000 838.0000 1.0000
41.9100 893.0000 1.0000
41.9200 883.0000 1.0000
41.9300 835.0000 1.0000
41.9400 879.0000 1.0000
41.9500 800.0000 1.0000
41.9600 842.0000 1.0000
41.9700 816.0000 1.0000
41.9800 866.0000 1.0000
41.9900 870.0000 1.0000
42.0000 844.0000 1.0000
42.0100 868.0000 1.0000
42.0200 858.0000 1.0000
42.0300 883.0000 1.0000
42.0400 866.0000 1.0000
42.0500 804.0000 1.0000
42.0600 799.0000 1.0000
42.0700 783.0000 1.0000
42.0800 822.0000 1.0000
42.0900 868.0000 1.0000
42.1000 875.0000 1.0000
42.1100 825.0000 1.0000
42.1200 882.0000 1.0000
42.1300 874.0000 1.0000
42.1400 826.0000 1.0000
42.1500 822.0000 1.0000
42.1600 842.0000 1.0000
42.1700 827.0000 1.0000
42.1800 825.0000 1.0000
42.1900 857.0000 1.0000
42.2000 880.0000 1.0000
42.2100 830.0000 1.0000
42.2200 811.0000 1.0000
42.2300 875.0000 1.0000
42.2400 896.0000 1.0000
42.2500 856.0000 1.0000
42.2600 844.0000 1.0000
42.2700 810.0000 1.0000
42.2800 845.0000 1.0000
42.2900 847.0000 1.0000
42.3000 829.0000 1.0000
42.3100 816.0000 1.0000
42.3200 835.0000 1.0000
42.3300 820.0000 1.0000
42.3400 849.0000 1.0000
42.3500 847.0000 1.0000
42.3600 857.0000 1.0000
42.3700 854.0000 1.0000
42.3800 851.0000 1.0000
42.3900 848.0000 1.0000
42.4000 872.0000 1.0000
42.4100 839.0000 1.0000
42.4200 840.0000 1.0000
42.4300 825.0000 1.0000
42.4400 805.0000 1.0000
42.4500 844.0000 1.0000
42.4600 838.0000 1.0000
42.4700 838.0000 1.0000
42.4800 811.0000 1.0000
42.4900 822.0000 1.0000
42.5000 853.0000 1.0000
42.5100 865.0000 1.0000
42.5200 852.0000 1.0000
42.5300 811.0000 1.0000
42.5400 867.0000 1.0000
42.5500 819.0000 1.0000
42.5600 819.0000 1.0000
42.5700 872.0000 1.0000
42.5800 837.0000 1.0000
42.5900 869.0000 1.0000
42.6000 840.0000 1.0000
42.6100 781.0000 1.0000
42.6200 831.0000 1.0000
42.6300 816.0000 1.0000
42.6400 816.0000 1.0000
42.6500 846.0000 1.0000
42.6600 857.0000 1.0000
42.6700 852.0000 1.0000
42.6800 861.0000 1.0000
42.6900 845.0000 1.0000
42.7000 827.0000 1.0000
42.7100 807.0000 1.0000
42.7200 843.0000 1.0000
42.7300 846.0000 1.0000
42.7400 789.0000 1.0000
42.7500 864.0000 1.0000
42.7600 883.0000 1.0000
42.7700 833.0000 1.0000
42.7800 814.0000 1.0000
42.7900 877.0000 1.0000
42.8000 852.0000 1.0000
42.8100 847.0000 1.0000
42.8200 833.0000 1.0000
42.8300 832.0000 1.0000
42.8400 870.0000 1.0000
42.8500 855.0000 1.0000
42.8600 808.0000 1.0000
42.8700 840.0000 1.0000
42.8800 863.0000 1.0000
42.8900 819.0000 1.0000
42.9000 849.0000 1.0000
42.9100 886.0000 1.0000
42.9200 811.0000 1.0000
42.9300 834.0000 1.0000
42.9400 845.0000 1.0000
42.9500 858.0000 1.0000
42.9600 832.0000 1.0000
42.9700 852.0000 1.0000
42.9800 859.0000 1.0000
42.9900 815.0000 1.0000
43.0000 892.0000 1.0000
43.0100 853.0000 1.0000
43.0200 865.0000 1.0000
43.0300 825.0000 1.0000
43.0400 864.0000 1.0000
43.0500 813.0000 1.0000
43.0600 861.0000 1.0000
43.0700 816.0000 1.0000
43.0800 922.0000 1.0000
43.0900 855.0000 1.0000
43.1000 838.0000 1.0000
43.1100 876.0000 1.0000
43.1200 857.0000 1.0000
43.1300 850.0000 1.0000
43.1400 884.0000 1.0000
43.1500 895.0000 1.0000
43.1600 904.0000 1.0000
43.1700 886.0000 1.0000
43.1800 878.0000 1.0000
43.1900 951.0000 1.0000
43.2000 944.0000 1.0000
43.2100 935.0000 1.0000
43.2200 916.0000 1.0000
43.2300 922.0000 1.0000
43.2400 920.0000 1.0000
43.2500 940.0000 1.0000
43.2600 935.0000 1.0000
43.2700 926.0000 1.0000
43.2800 874.0000 1.0000
43.2900 895.0000 1.0000
43.3000 907.0000 1.0000
43.3100 878.0000 1.0000
43.3200 867.0000 1.0000
43.3300 863.0000 1.0000
43.3400 863.0000 1.0000
43.3500 875.0000 1.0000
43.3600 870.0000 1.0000
43.3700 842.0000 1.0000
43.3800 873.0000 1.0000
43.3900 878.0000 1.0000
43.4000 857.0000 1.0000
43.4100 896.0000 1.0000
43.4200 858.0000 1.0000
43.4300 901.0000 1.0000
43.4400 824.0000 1.0000
43.4500 825.0000 1.0000
43.4600 851.0000 1.0000
43.4700 906.0000 1.0000
43.4800 871.0000 1.0000
43.4900 824.0000 1.0000
43.5000 844.0000 1.0000
43.5100 899.0000 1.0000
43.5200 836.0000 1.0000
43.5300 870.0000 1.0000
43.5400 868.0000 1.0000
43.5500 859.0000 1.0000
43.5600 809.0000 1.0000
43.5700 825.0000 1.0000
43.5800 824.0000 1.0000
43.5900 848.0000 1.0000
43.6000 809.0000 1.0000
43.6100 789.0000 1.0000
43.6200 798.0000 1.0000
43.6300 796.0000 1.0000
43.6400 811.0000 1.0000
43.6500 872.0000 1.0000
43.6600 806.0000 1.0000
43.6700 803.0000 1.0000
43.6800 817.0000 1.0000
43.6900 784.0000 1.0000
43.7000 834.0000 1.0000
43.7100 809.0000 1.0000
43.7200 844.0000 1.0000
43.7300 857.0000 1.0000
43.7400 815.0000 1.0000
43.7500 797.0000 1.0000
43.7600 825.0000 1.0000
43.7700 848.0000 1.0000
43.7800 825.0000 1.0000
43.7900 847.0000 1.0000
43.8000 809.0000 1.0000
43.8100 843.0000 1.0000
43.8200 840.0000 1.0000
43.8300 815.0000 1.0000
43.8400 845.0000 1.0000
43.8500 829.0000 1.0000
43.8600 829.0000 1.0000
43.8700 852.0000 1.0000
43.8800 800.0000 1.0000
43.8900 836.0000 1.0000
43.9000 797.0000 1.0000
43.9100 858.0000 1.0000
43.9200 854.0000 1.0000
43.9300 818.0000 1.0000
43.9400 839.0000 1.0000
43.9500 831.0000 1.0000
43.9600 834.0000 1.0000
43.9700 839.0000 1.0000
43.9800 868.0000 1.0000
43.9900 833.0000 1.0000
44.0000 781.0000 1.0000
44.0100 783.0000 1.0000
44.0200 808.0000 1.0000
44.0300 816.0000 1.0000
44.0400 772.0000 1.0000
44.0500 817.0000 1.0000
44.0600 783.0000 1.0000
44.0700 839.0000 1.0000
44.0800 839.0000 1.0000
44.0900 817.0000 1.0000
44.1000 826.0000 1.0000
44.1100 834.0000 1.0000
44.1200 818.0000 1.0000
44.1300 746.0000 1.0000
44.1400 769.0000 1.0000
44.1500 784.0000 1.0000
44.1600 800.0000 1.0000
44.1700 884.0000 1.0000
44.1800 829.0000 1.0000
44.1900 853.0000 1.0000
44.2000 834.0000 1.0000
44.2100 827.0000 1.0000
44.2200 832.0000 1.0000
44.2300 839.0000 1.0000
44.2400 799.0000 1.0000
44.2500 808.0000 1.0000
44.2600 818.0000 1.0000
44.2700 829.0000 1.0000
44.2800 796.0000 1.0000
44.2900 817.0000 1.0000
44.3000 810.0000 1.0000
44.3100 824.0000 1.0000
44.3200 803.0000 1.0000
44.3300 810.0000 1.0000
44.3400 911.0000 1.0000
44.3500 819.0000 1.0000
44.3600 779.0000 1.0000
44.3700 823.0000 1.0000
44.3800 837.0000 1.0000
44.3900 795.0000 1.0000
44.4000 783.0000 1.0000
44.4100 820.0000 1.0000
44.4200 803.0000 1.0000
44.4300 818.0000 1.0000
44.4400 810.0000 1.0000
44.4500 795.0000 1.0000
44.4600 841.0000 1.0000
44.4700 787.0000 1.0000
44.4800 764.0000 1.0000
44.4900 789.0000 1.0000
44.5000 837.0000 1.0000
44.5100 870.0000 1.0000
44.5200 780.0000 1.0000
44.5300 771.0000 1.0000
44.5400 821.0000 1.0000
44.5500 835.0000 1.0000
44.5600 774.0000 1.0000
44.5700 795.0000 1.0000
44.5800 825.0000 1.0000
44.5900 834.0000 1.0000
44.6000 801.0000 1.0000
44.6100 818.0000 1.0000
44.6200 823.0000 1.0000
44.6300 806.0000 1.0000
44.6400 819.0000 1.0000
44.6500 779.0000 1.0000
44.6600 804.0000 1.0000
44.6700 815.0000 1.0000
44.6800 806.0000 1.0000
44.6900 817.0000 1.0000
44.7000 796.0000 1.0000
44.7100 788.0000 1.0000
44.7200 786.0000 1.0000
44.7300 789.0000 1.0000
44.7400 786.0000 1.0000
44.7500 783.0000 1.0000
44.7600 820.0000 1.0000
44.7700 803.0000 1.0000
44.7800 772.0000 1.0000
44.7900 791.0000 1.0000
44.8000 858.0000 1.0000
44.8100 787.0000 1.0000
44.8200 800.0000 1.0000
44.8300 773.0000 1.0000
44.8400 824.0000 1.0000
44.8500 800.0000 1.0000
44.8600 787.0000 1.0000
44.8700 777.0000 1.0000
44.8800 805.0000 1.0000
44.8900 801.0000 1.0000
44.9000 827.0000 1.0000
44.9100 807.0000 1.0000
44.9200 794.0000 1.0000
44.9300 827.0000 1.0000
44.9400 814.0000 1.0000
44.9500 785.0000 1.0000
44.9600 812.0000 1.0000
44.9700 830.0000 1.0000
44.9800 796.0000 1.0000
44.9900 835.0000 1.0000
45.0000 802.0000 1.0000
45.0100 767.0000 1.0000
45.0200 797.0000 1.0000
45.0300 790.0000 1.0000
45.0400 862.0000 1.0000
45.0500 762.0000 1.0000
45.0600 755.0000 1.0000
45.0700 796.0000 1.0000
45.0800 765.0000 1.0000
45.0900 777.0000 1.0000
45.1000 801.0000 1.0000
45.1100 788.0000 1.0000
45.1200 787.0000 1.0000
45.1300 735.0000 1.0000
45.1400 792.0000 1.0000
45.1500 781.0000 1.0000
45.1600 804.0000 1.0000
45.1700 792.0000 1.0000
45.1800 802.0000 1.0000
45.1900 791.0000 1.0000
45.2000 757.0000 1.0000
45.2100 780.0000 1.0000
45.2200 842.0000 1.0000
45.2300 796.0000 1.0000
45.2400 782.0000 1.0000
45.2500 826.0000 1.0000
45.2600 772.0000 1.0000
45.2700 828.0000 1.0000
45.2800 797.0000 1.0000
45.2900 774.0000 1.0000
45.3000 780.0000 1.0000
45.3100 813.0000 1.0000
45.3200 780.0000 1.0000
45.3300 814.0000 1.0000
45.3400 775.0000 1.0000
45.3500 775.0000 1.0000
45.3600 802.0000 1.0000
45.3700 790.0000 1.0000
45.3800 797.0000 1.0000
45.3900 812.0000 1.0000
45.4000 767.0000 1.0000
45.4100 801.0000 1.0000
45.4200 822.0000 1.0000
45.4300 794.0000 1.0000
45.4400 781.0000 1.0000
45.4500 808.0000 1.0000
45.4600 802.0000 1.0000
45.4700 807.0000 1.0000
45.4800 775.0000 1.0000
45.4900 759.0000 1.0000
45.5000 763.0000 1.0000
45.5100 802.0000 1.0000
45.5200 773.0000 1.0000
45.5300 776.0000 1.0000
45.5400 769.0000 1.0000
45.5500 828.0000 1.0000
45.5600 800.0000 1.0000
45.5700 805.0000 1.0000
45.5800 754.0000 1.0000
45.5900 748.0000 1.0000
45.6000 811.0000 1.0000
45.6100 802.0000 1.0000
45.6200 805.0000 1.0000
45.6300 796.0000 1.0000
45.6400 800.0000 1.0000
45.6500 795.0000 1.0000
45.6600 772.0000 1.0000
45.6700 764.0000 1.0000
45.6800 767.0000 1.0000
45.6900 809.0000 1.0000
45.7000 791.0000 1.0000
45.7100 794.0000 1.0000
45.7200 784.0000 1.0000
45.7300 787.0000 1.0000
45.7400 820.0000 1.0000
45.7500 799.0000 1.0000
45.7600 771.0000 1.0000
45.7700 810.0000 1.0000
45.7800 767.0000 1.0000
45.7900 778.0000 1.0000
45.8000 767.0000 1.0000
45.8100 734.0000 1.0000
45.8200 818.0000 1.0000
45.8300 746.0000 1.0000
45.8400 796.0000 1.0000
45.8500 814.0000 1.0000
45.8600 755.0000 1.0000
45.8700 790.0000 1.0000
45.8800 789.0000 1.0000
45.8900 762.0000 1.0000
45.9000 776.0000 1.0000
45.9100 790.0000 1.0000
45.9200 747.0000 1.0000
45.9300 825.0000 1.0000
45.9400 769.0000 1.0000
45.9500 761.0000 1.0000
45.9600 797.0000 1.0000
45.9700 766.0000 1.0000
45.9800 802.0000 1.0000
45.9900 759.0000 1.0000
46.0000 783.0000 1.0000
46.0100 751.0000 1.0000
46.0200 754.0000 1.0000
46.0300 748.0000 1.0000
46.0400 738.0000 1.0000
46.0500 762.0000 1.0000
46.0600 760.0000 1.0000
46.0700 805.0000 1.0000
46.0800 770.0000 1.0000
46.0900 765.0000 1.0000
46.1000 753.0000 1.0000
46.1100 761.0000 1.0000
46.1200 786.0000 1.0000
46.1300 760.0000 1.0000
46.1400 752.0000 1.0000
46.1500 744.0000 1.0000
46.1600 777.0000 1.0000
46.1700 753.0000 1.0000
46.1800 737.0000 1.0000
46.1900 774.0000 1.0000
46.2000 809.0000 1.0000
46.2100 789.0000 1.0000
46.2200 770.0000 1.0000
46.2300 739.0000 1.0000
46.2400 777.0000 1.0000
46.2500 779.0000 1.0000
46.2600 781.0000 1.0000
46.2700 811.0000 1.0000
46.2800 759.0000 1.0000
46.2900 761.0000 1.0000
46.3000 771.0000 1.0000
46.3100 755.0000 1.0000
46.3200 743.0000 1.0000
46.3300 772.0000 1.0000
46.3400 780.0000 1.0000
46.3500 805.0000 1.0000
46.3600 752.0000 1.0000
46.3700 756.0000 1.0000
46.3800 775.0000 1.0000
46.3900 772.0000 1.0000
46.4000 785.0000 1.0000
46.4100 733.0000 1.0000
46.4200 733.0000 1.0000
46.4300 754.0000 1.0000
46.4400 780.0000 1.0000
46.4500 702.0000 1.0000
46.4600 768.0000 1.0000
46.4700 728.0000 1.0000
46.4800 734.0000 1.0000
46.4900 765.0000 1.0000
46.5000 714.0000 1.0000
46.5100 769.0000 1.0000
46.5200 757.0000 1.0000
46.5300 780.0000 1.0000
46.5400 794.0000 1.0000
46.5500 739.0000 1.0000
46.5600 751.0000 1.0000
46.5700 766.0000 1.0000
46.5800 750.0000 1.0000
46.5900 766.0000 1.0000
46.6000 772.0000 1.0000
46.6100 752.0000 1.0000
46.6200 760.0000 1.0000
46.6300 723.0000 1.0000
46.6400 750.0000 1.0000
46.6500 742.0000 1.0000
46.6600 799.0000 1.0000
46.6700 819.0000 1.0000
46.6800 751.0000 1.0000
46.6900 769.0000 1.0000
46.7000 784.0000 1.0000
46.7100 766.0000 1.0000
46.7200 763.0000 1.0000
46.7300 754.0000 1.0000
46.7400 797.0000 1.0000
46.7500 771.0000 1.0000
46.7600 795.0000 1.0000
46.7700 779.0000 1.0000
46.7800 740.0000 1.0000
46.7900 757.0000 1.0000
46.8000 762.0000 1.0000
46.8100 766.0000 1.0000
46.8200 796.0000 1.0000
46.8300 790.0000 1.0000
46.8400 750.0000 1.0000
46.8500 782.0000 1.0000
46.8600 831.0000 1.0000
46.8700 752.0000 1.0000
46.8800 780.0000 1.0000
46.8900 772.0000 1.0000
46.9000 795.0000 1.0000
46.9100 771.0000 1.0000
46.9200 783.0000 1.0000
46.9300 770.0000 1.0000
46.9400 795.0000 1.0000
46.9500 795.0000 1.0000
46.9600 774.0000 1.0000
46.9700 781.0000 1.0000
46.9800 786.0000 1.0000
46.9900 768.0000 1.0000
47.0000 820.0000 1.0000
47.0100 829.0000 1.0000
47.0200 789.0000 1.0000
47.0300 814.0000 1.0000
47.0400 805.0000 1.0000
47.0500 830.0000 1.0000
47.0600 763.0000 1.0000
47.0700 764.0000 1.0000
47.0800 794.0000 1.0000
47.0900 788.0000 1.0000
47.1000 786.0000 1.0000
47.1100 782.0000 1.0000
47.1200 769.0000 1.0000
47.1300 782.0000 1.0000
47.1400 741.0000 1.0000
47.1500 787.0000 1.0000
47.1600 726.0000 1.0000
47.1700 740.0000 1.0000
47.1800 714.0000 1.0000
47.1900 736.0000 1.0000
47.2000 786.0000 1.0000
47.2100 775.0000 1.0000
47.2200 741.0000 1.0000
47.2300 826.0000 1.0000
47.2400 781.0000 1.0000
47.2500 785.0000 1.0000
47.2600 750.0000 1.0000
47.2700 789.0000 1.0000
47.2800 767.0000 1.0000
47.2900 753.0000 1.0000
47.3000 724.0000 1.0000
47.3100 774.0000 1.0000
47.3200 763.0000 1.0000
47.3300 703.0000 1.0000
47.3400 727.0000 1.0000
47.3500 765.0000 1.0000
47.3600 806.0000 1.0000
47.3700 730.0000 1.0000
47.3800 752.0000 1.0000
47.3900 707.0000 1.0000
47.4000 729.0000 1.0000
47.4100 749.0000 1.0000
47.4200 755.0000 1.0000
47.4300 709.0000 1.0000
47.4400 729.0000 1.0000
47.4500 750.0000 1.0000
47.4600 744.0000 1.0000
47.4700 746.0000 1.0000
47.4800 743.0000 1.0000
47.4900 754.0000 1.0000
47.5000 776.0000 1.0000
47.5100 743.0000 1.0000
47.5200 698.0000 1.0000
47.5300 740.0000 1.0000
47.5400 755.0000 1.0000
47.5500 781.0000 1.0000
47.5600 731.0000 1.0000
47.5700 732.0000 1.0000
47.5800 697.0000 1.0000
47.5900 727.0000 1.0000
47.6000 745.0000 1.0000
47.6100 742.0000 1.0000
47.6200 757.0000 1.0000
47.6300 773.0000 1.0000
47.6400 727.0000 1.0000
47.6500 729.0000 1.0000
47.6600 771.0000 1.0000
47.6700 762.0000 1.0000
47.6800 736.0000 1.0000
47.6900 714.0000 1.0000
47.7000 711.0000 1.0000
47.7100 710.0000 1.0000
47.7200 755.0000 1.0000
47.7300 783.0000 1.0000
47.7400 799.0000 1.0000
47.7500 738.0000 1.0000
47.7600 716.0000 1.0000
47.7700 749.0000 1.0000
47.7800 739.0000 1.0000
47.7900 773.0000 1.0000
47.8000 770.0000 1.0000
47.8100 780.0000 1.0000
47.8200 790.0000 1.0000
47.8300 750.0000 1.0000
47.8400 752.0000 1.0000
47.8500 761.0000 1.0000
47.8600 765.0000 1.0000
47.8700 740.0000 1.0000
47.8800 730.0000 1.0000
47.8900 732.0000 1.0000
47.9000 764.0000 1.0000
47.9100 733.0000 1.0000
47.9200 751.0000 1.0000
47.9300 755.0000 1.0000
47.9400 763.0000 1.0000
47.9500 720.0000 1.0000
47.9600 746.0000 1.0000
47.9700 719.0000 1.0000
47.9800 725.0000 1.0000
47.9900 732.0000 1.0000
48.0000 733.0000 1.0000
48.0100 746.0000 1.0000
48.0200 706.0000 1.0000
48.0300 729.0000 1.0000
48.0400 785.0000 1.0000
48.0500 744.0000 1.0000
48.0600 742.0000 1.0000
48.0700 748.0000 1.0000
48.0800 767.0000 1.0000
48.0900 786.0000 1.0000
48.1000 766.0000 1.0000
48.1100 782.0000 1.0000
48.1200 759.0000 1.0000
48.1300 771.0000 1.0000
48.1400 767.0000 1.0000
48.1500 707.0000 1.0000
48.1600 741.0000 1.0000
48.1700 712.0000 1.0000
48.1800 727.0000 1.0000
48.1900 705.0000 1.0000
48.2000 695.0000 1.0000
48.2100 761.0000 1.0000
48.2200 708.0000 1.0000
48.2300 712.0000 1.0000
48.2400 721.0000 1.0000
48.2500 740.0000 1.0000
48.2600 731.0000 1.0000
48.2700 712.0000 1.0000
48.2800 781.0000 1.0000
48.2900 751.0000 1.0000
48.3000 703.0000 1.0000
48.3100 766.0000 1.0000
48.3200 755.0000 1.0000
48.3300 745.0000 1.0000
48.3400 703.0000 1.0000
48.3500 756.0000 1.0000
48.3600 719.0000 1.0000
48.3700 706.0000 1.0000
48.3800 736.0000 1.0000
48.3900 755.0000 1.0000
48.4000 722.0000 1.0000
48.4100 705.0000 1.0000
48.4200 737.0000 1.0000
48.4300 743.0000 1.0000
48.4400 702.0000 1.0000
48.4500 726.0000 1.0000
48.4600 732.0000 1.0000
48.4700 747.0000 1.0000
48.4800 751.0000 1.0000
48.4900 753.0000 1.0000
48.5000 747.0000 1.0000
48.5100 754.0000 1.0000
48.5200 730.0000 1.0000
48.5300 724.0000 1.0000
48.5400 746.0000 1.0000
48.5500 752.0000 1.0000
48.5600 731.0000 1.0000
48.5700 781.0000 1.0000
48.5800 728.0000 1.0000
48.5900 744.0000 1.0000
48.6000 709.0000 1.0000
48.6100 713.0000 1.0000
48.6200 737.0000 1.0000
48.6300 729.0000 1.0000
48.6400 731.0000 1.0000
48.6500 750.0000 1.0000
48.6600 730.0000 1.0000
48.6700 692.0000 1.0000
48.6800 703.0000 1.0000
48.6900 752.0000 1.0000
48.7000 776.0000 1.0000
48.7100 758.0000 1.0000
48.7200 736.0000 1.0000
48.7300 732.0000 1.0000
48.7400 682.0000 1.0000
48.7500 776.0000 1.0000
48.7600 721.0000 1.0000
48.7700 713.0000 1.0000
48.7800 729.0000 1.0000
48.7900 727.0000 1.0000
48.8000 763.0000 1.0000
48.8100 738.0000 1.0000
48.8200 742.0000 1.0000
48.8300 710.0000 1.0000
48.8400 739.0000 1.0000
48.8500 701.0000 1.0000
48.8600 732.0000 1.0000
48.8700 758.0000 1.0000
48.8800 745.0000 1.0000
48.8900 767.0000 1.0000
48.9000 723.0000 1.0000
48.9100 746.0000 1.0000
48.9200 717.0000 1.0000
48.9300 724.0000 1.0000
48.9400 728.0000 1.0000
48.9500 744.0000 1.0000
48.9600 735.0000 1.0000
48.9700 730.0000 1.0000
48.9800 675.0000 1.0000
48.9900 747.0000 1.0000
49.0000 696.0000 1.0000
49.0100 716.0000 1.0000
49.0200 743.0000 1.0000
49.0300 714.0000 1.0000
49.0400 688.0000 1.0000
49.0500 702.0000 1.0000
49.0600 707.0000 1.0000
49.0700 730.0000 1.0000
49.0800 736.0000 1.0000
49.0900 718.0000 1.0000
49.1000 691.0000 1.0000
49.1100 761.0000 1.0000
49.1200 706.0000 1.0000
49.1300 757.0000 1.0000
49.1400 735.0000 1.0000
49.1500 731.0000 1.0000
49.1600 735.0000 1.0000
49.1700 741.0000 1.0000
49.1800 727.0000 1.0000
49.1900 690.0000 1.0000
49.2000 674.0000 1.0000
49.2100 735.0000 1.0000
49.2200 706.0000 1.0000
49.2300 721.0000 1.0000
49.2400 697.0000 1.0000
49.2500 780.0000 1.0000
49.2600 765.0000 1.0000
49.2700 750.0000 1.0000
49.2800 776.0000 1.0000
49.2900 737.0000 1.0000
49.3000 743.0000 1.0000
49.3100 750.0000 1.0000
49.3200 724.0000 1.0000
49.3300 744.0000 1.0000
49.3400 736.0000 1.0000
49.3500 739.0000 1.0000
49.3600 739.0000 1.0000
49.3700 727.0000 1.0000
49.3800 752.0000 1.0000
49.3900 735.0000 1.0000
49.4000 730.0000 1.0000
49.4100 734.0000 1.0000
49.4200 742.0000 1.0000
49.4300 695.0000 1.0000
49.4400 734.0000 1.0000
49.4500 750.0000 1.0000
49.4600 710.0000 1.0000
49.4700 726.0000 1.0000
49.4800 703.0000 1.0000
49.4900 688.0000 1.0000
49.5000 720.0000 1.0000
49.5100 743.0000 1.0000
49.5200 696.0000 1.0000
49.5300 683.0000 1.0000
49.5400 701.0000 1.0000
49.5500 755.0000 1.0000
49.5600 744.0000 1.0000
49.5700 759.0000 1.0000
49.5800 703.0000 1.0000
49.5900 706.0000 1.0000
49.6000 689.0000 1.0000
49.6100 699.0000 1.0000
49.6200 717.0000 1.0000
49.6300 736.0000 1.0000
49.6400 691.0000 1.0000
49.6500 729.0000 1.0000
49.6600 670.0000 1.0000
49.6700 697.0000 1.0000
49.6800 725.0000 1.0000
49.6900 719.0000 1.0000
49.7000 747.0000 1.0000
49.7100 714.0000 1.0000
49.7200 769.0000 1.0000
49.7300 724.0000 1.0000
49.7400 694.0000 1.0000
49.7500 672.0000 1.0000
49.7600 714.0000 1.0000
49.7700 712.0000 1.0000
49.7800 709.0000 1.0000
49.7900 712.0000 1.0000
49.8000 726.0000 1.0000
49.8100 696.0000 1.0000
49.8200 700.0000 1.0000
49.8300 700.0000 1.0000
49.8400 723.0000 1.0000
49.8500 707.0000 1.0000
49.8600 750.0000 1.0000
49.8700 746.0000 1.0000
49.8800 734.0000 1.0000
49.8900 688.0000 1.0000
49.9000 750.0000 1.0000
49.9100 744.0000 1.0000
49.9200 734.0000 1.0000
49.9300 728.0000 1.0000
49.9400 710.0000 1.0000
49.9500 716.0000 1.0000
49.9600 724.0000 1.0000
49.9700 710.0000 1.0000
49.9800 706.0000 1.0000
49.9900 729.0000 1.0000
50.0000 775.0000 1.0000
50.0100 760.0000 1.0000
50.0200 764.0000 1.0000
50.0300 773.0000 1.0000
50.0400 715.0000 1.0000
50.0500 708.0000 1.0000
50.0600 719.0000 1.0000
50.0700 755.0000 1.0000
50.0800 704.0000 1.0000
50.0900 717.0000 1.0000
50.1000 767.0000 1.0000
50.1100 698.0000 1.0000
50.1200 736.0000 1.0000
50.1300 796.0000 1.0000
50.1400 722.0000 1.0000
50.1500 707.0000 1.0000
50.1600 738.0000 1.0000
50.1700 783.0000 1.0000
50.1800 721.0000 1.0000
50.1900 728.0000 1.0000
50.2000 746.0000 1.0000
50.2100 787.0000 1.0000
50.2200 776.0000 1.0000
50.2300 784.0000 1.0000
50.2400 762.0000 1.0000
50.2500 799.0000 1.0000
50.2600 790.0000 1.0000
50.2700 734.0000 1.0000
50.2800 748.0000 1.0000
50.2900 735.0000 1.0000
50.3000 777.0000 1.0000
50.3100 725.0000 1.0000
50.3200 746.0000 1.0000
50.3300 761.0000 1.0000
50.3400 717.0000 1.0000
50.3500 736.0000 1.0000
50.3600 766.0000 1.0000
50.3700 779.0000 1.0000
50.3800 725.0000 1.0000
50.3900 736.0000 1.0000
50.4000 734.0000 1.0000
50.4100 727.0000 1.0000
50.4200 785.0000 1.0000
50.4300 740.0000 1.0000
50.4400 725.0000 1.0000
50.4500 754.0000 1.0000
50.4600 763.0000 1.0000
50.4700 770.0000 1.0000
50.4800 755.0000 1.0000
50.4900 776.0000 1.0000
50.5000 754.0000 1.0000
50.5100 721.0000 1.0000
50.5200 729.0000 1.0000
50.5300 744.0000 1.0000
50.5400 773.0000 1.0000
50.5500 761.0000 1.0000
50.5600 724.0000 1.0000
50.5700 742.0000 1.0000
50.5800 784.0000 1.0000
50.5900 790.0000 1.0000
50.6000 725.0000 1.0000
50.6100 694.0000 1.0000
50.6200 727.0000 1.0000
50.6300 732.0000 1.0000
50.6400 739.0000 1.0000
50.6500 710.0000 1.0000
50.6600 706.0000 1.0000
50.6700 710.0000 1.0000
50.6800 748.0000 1.0000
50.6900 750.0000 1.0000
50.7000 700.0000 1.0000
50.7100 735.0000 1.0000
50.7200 761.0000 1.0000
50.7300 734.0000 1.0000
50.7400 729.0000 1.0000
50.7500 689.0000 1.0000
50.7600 722.0000 1.0000
50.7700 762.0000 1.0000
50.7800 712.0000 1.0000
50.7900 730.0000 1.0000
50.8000 703.0000 1.0000
50.8100 745.0000 1.0000
50.8200 715.0000 1.0000
50.8300 776.0000 1.0000
50.8400 744.0000 1.0000
50.8500 758.0000 1.0000
50.8600 693.0000 1.0000
50.8700 747.0000 1.0000
50.8800 753.0000 1.0000
50.8900 721.0000 1.0000
50.9000 738.0000 1.0000
50.9100 716.0000 1.0000
50.9200 739.0000 1.0000
50.9300 740.0000 1.0000
50.9400 730.0000 1.0000
50.9500 747.0000 1.0000
50.9600 701.0000 1.0000
50.9700 701.0000 1.0000
50.9800 704.0000 1.0000
50.9900 726.0000 1.0000
51.0000 732.0000 1.0000
51.0100 745.0000 1.0000
51.0200 711.0000 1.0000
51.0300 721.0000 1.0000
51.0400 734.0000 1.0000
51.0500 745.0000 1.0000
51.0600 774.0000 1.0000
51.0700 747.0000 1.0000
51.0800 744.0000 1.0000
51.0900 772.0000 1.0000
51.1000 754.0000 1.0000
51.1100 714.0000 1.0000
51.1200 761.0000 1.0000
51.1300 750.0000 1.0000
51.1400 716.0000 1.0000
51.1500 705.0000 1.0000
51.1600 711.0000 1.0000
51.1700 732.0000 1.0000
51.1800 715.0000 1.0000
51.1900 725.0000 1.0000
51.2000 730.0000 1.0000
51.2100 698.0000 1.0000
51.2200 735.0000 1.0000
51.2300 717.0000 1.0000
51.2400 728.0000 1.0000
51.2500 722.0000 1.0000
51.2600 760.0000 1.0000
51.2700 718.0000 1.0000
51.2800 730.0000 1.0000
51.2900 736.0000 1.0000
51.3000 741.0000 1.0000
51.3100 742.0000 1.0000
51.3200 726.0000 1.0000
51.3300 733.0000 1.0000
51.3400 754.0000 1.0000
51.3500 788.0000 1.0000
51.3600 756.0000 1.0000
51.3700 714.0000 1.0000
51.3800 773.0000 1.0000
51.3900 720.0000 1.0000
51.4000 712.0000 1.0000
51.4100 708.0000 1.0000
51.4200 691.0000 1.0000
51.4300 700.0000 1.0000
51.4400 760.0000 1.0000
51.4500 781.0000 1.0000
51.4600 762.0000 1.0000
51.4700 775.0000 1.0000
51.4800 751.0000 1.0000
51.4900 747.0000 1.0000
51.5000 755.0000 1.0000
51.5100 750.0000 1.0000
51.5200 790.0000 1.0000
51.5300 712.0000 1.0000
51.5400 767.0000 1.0000
51.5500 712.0000 1.0000
51.5600 732.0000 1.0000
51.5700 744.0000 1.0000
51.5800 706.0000 1.0000
51.5900 783.0000 1.0000
51.6000 756.0000 1.0000
51.6100 776.0000 1.0000
51.6200 802.0000 1.0000
51.6300 781.0000 1.0000
51.6400 796.0000 1.0000
51.6500 746.0000 1.0000
51.6600 808.0000 1.0000
51.6700 733.0000 1.0000
51.6800 758.0000 1.0000
51.6900 755.0000 1.0000
51.7000 754.0000 1.0000
51.7100 745.0000 1.0000
51.7200 848.0000 1.0000
51.7300 800.0000 1.0000
51.7400 819.0000 1.0000
51.7500 819.0000 1.0000
51.7600 811.0000 1.0000
51.7700 808.0000 1.0000
51.7800 816.0000 1.0000
51.7900 827.0000 1.0000
51.8000 838.0000 1.0000
51.8100 784.0000 1.0000
51.8200 852.0000 1.0000
51.8300 829.0000 1.0000
51.8400 794.0000 1.0000
51.8500 837.0000 1.0000
51.8600 909.0000 1.0000
51.8700 895.0000 1.0000
51.8800 879.0000 1.0000
51.8900 910.0000 1.0000
51.9000 904.0000 1.0000
51.9100 918.0000 1.0000
51.9200 964.0000 1.0000
51.9300 967.0000 1.0000
51.9400 988.0000 1.0000
51.9500 1028.0000 1.0000
51.9600 1081.0000 1.0000
51.9700 1096.0000 1.0000
51.9800 1114.0000 1.0000
51.9900 1093.0000 1.0000
52.0000 1197.0000 1.0000
52.0100 1211.0000 1.0000
52.0200 1246.0000 1.0000
52.0300 1261.0000 1.0000
52.0400 1311.0000 1.0000
52.0500 1415.0000 1.0000
52.0600 1458.0000 1.0000
52.0700 1542.0000 1.0000
52.0800 1576.0000 1.0000
52.0900 1680.0000 1.0000
52.1000 1832.0000 1.0000
52.1100 1890.0000 1.0000
52.1200 2059.0000 1.0000
52.1300 2203.0000 1.0000
52.1400 2376.0000 1.0000
52.1500 2610.0000 1.0000
52.1600 2842.0000 1.0000
52.1700 2925.0000 1.0000
52.1800 3310.0000 1.0000
52.1900 3534.0000 1.0000
52.2000 3810.0000 1.0000
52.2100 4126.0000 1.0000
52.2200 4467.0000 1.0000
52.2300 4771.0000 1.0000
52.2400 4927.0000 1.0000
52.2500 5134.0000 1.0000
52.2600 5497.0000 1.0000
52.2700 5364.0000 1.0000
52.2800 5415.0000 1.0000
52.2900 5302.0000 1.0000
52.3000 5236.0000 1.0000
52.3100 5113.0000 1.0000
52.3200 5000.0000 1.0000
52.3300 4788.0000 1.0000
52.3400 4682.0000 1.0000
52.3500 4590.0000 1.0000
52.3600 4441.0000 1.0000
52.3700 4308.0000 1.0000
52.3800 4172.0000 1.0000
52.3900 4153.0000 1.0000
52.4000 3960.0000 1.0000
52.4100 3895.0000 1.0000
52.4200 3662.0000 1.0000
52.4300 3511.0000 1.0000
52.4400 3353.0000 1.0000
52.4500 3240.0000 1.0000
52.4600 2926.0000 1.0000
52.4700 2736.0000 1.0000
52.4800 2533.0000 1.0000
52.4900 2404.0000 1.0000
52.5000 2205.0000 1.0000
52.5100 2019.0000 1.0000
52.5200 1923.0000 1.0000
52.5300 1809.0000 1.0000
52.5400 1639.0000 1.0000
52.5500 1637.0000 1.0000
52.5600 1520.0000 1.0000
52.5700 1390.0000 1.0000
52.5800 1406.0000 1.0000
52.5900 1371.0000 1.0000
52.6000 1317.0000 1.0000
52.6100 1310.0000 1.0000
52.6200 1227.0000 1.0000
52.6300 1118.0000 1.0000
52.6400 1169.0000 1.0000
52.6500 1148.0000 1.0000
52.6600 1135.0000 1.0000
52.6700 1012.0000 1.0000
52.6800 982.0000 1.0000
52.6900 1008.0000 1.0000
52.7000 994.0000 1.0000
52.7100 958.0000 1.0000
52.7200 925.0000 1.0000
52.7300 971.0000 1.0000
52.7400 906.0000 1.0000
52.7500 933.0000 1.0000
52.7600 910.0000 1.0000
52.7700 928.0000 1.0000
52.7800 870.0000 1.0000
52.7900 839.0000 1.0000
52.8000 850.0000 1.0000
52.8100 847.0000 1.0000
52.8200 833.0000 1.0000
52.8300 842.0000 1.0000
52.8400 838.0000 1.0000
52.8500 767.0000 1.0000
52.8600 837.0000 1.0000
52.8700 848.0000 1.0000
52.8800 786.0000 1.0000
52.8900 813.0000 1.0000
52.9000 834.0000 1.0000
52.9100 846.0000 1.0000
52.9200 834.0000 1.0000
52.9300 783.0000 1.0000
52.9400 773.0000 1.0000
52.9500 785.0000 1.0000
52.9600 764.0000 1.0000
52.9700 808.0000 1.0000
52.9800 739.0000 1.0000
52.9900 745.0000 1.0000
53.0000 800.0000 1.0000
53.0100 749.0000 1.0000
53.0200 777.0000 1.0000
53.0300 804.0000 1.0000
53.0400 815.0000 1.0000
53.0500 785.0000 1.0000
53.0600 784.0000 1.0000
53.0700 753.0000 1.0000
53.0800 743.0000 1.0000
53.0900 762.0000 1.0000
53.1000 784.0000 1.0000
53.1100 771.0000 1.0000
53.1200 766.0000 1.0000
53.1300 747.0000 1.0000
53.1400 784.0000 1.0000
53.1500 737.0000 1.0000
53.1600 768.0000 1.0000
53.1700 708.0000 1.0000
53.1800 697.0000 1.0000
53.1900 743.0000 1.0000
53.2000 753.0000 1.0000
53.2100 706.0000 1.0000
53.2200 770.0000 1.0000
53.2300 741.0000 1.0000
53.2400 749.0000 1.0000
53.2500 711.0000 1.0000
53.2600 734.0000 1.0000
53.2700 779.0000 1.0000
53.2800 745.0000 1.0000
53.2900 682.0000 1.0000
53.3000 728.0000 1.0000
53.3100 757.0000 1.0000
53.3200 767.0000 1.0000
53.3300 728.0000 1.0000
53.3400 722.0000 1.0000
53.3500 723.0000 1.0000
53.3600 735.0000 1.0000
53.3700 741.0000 1.0000
53.3800 736.0000 1.0000
53.3900 745.0000 1.0000
53.4000 743.0000 1.0000
53.4100 702.0000 1.0000
53.4200 712.0000 1.0000
53.4300 731.0000 1.0000
53.4400 756.0000 1.0000
53.4500 758.0000 1.0000
53.4600 689.0000 1.0000
53.4700 727.0000 1.0000
53.4800 726.0000 1.0000
53.4900 712.0000 1.0000
53.5000 682.0000 1.0000
53.5100 717.0000 1.0000
53.5200 737.0000 1.0000
53.5300 714.0000 1.0000
53.5400 694.0000 1.0000
53.5500 722.0000 1.0000
53.5600 728.0000 1.0000
53.5700 703.0000 1.0000
53.5800 727.0000 1.0000
53.5900 721.0000 1.0000
53.6000 719.0000 1.0000
53.6100 719.0000 1.0000
53.6200 716.0000 1.0000
53.6300 717.0000 1.0000
53.6400 699.0000 1.0000
53.6500 724.0000 1.0000
53.6600 711.0000 1.0000
53.6700 696.0000 1.0000
53.6800 682.0000 1.0000
53.6900 691.0000 1.0000
53.7000 694.0000 1.0000
53.7100 724.0000 1.0000
53.7200 704.0000 1.0000
53.7300 682.0000 1.0000
53.7400 661.0000 1.0000
53.7500 720.0000 1.0000
53.7600 749.0000 1.0000
53.7700 727.0000 1.0000
53.7800 704.0000 1.0000
53.7900 703.0000 1.0000
53.8000 747.0000 1.0000
53.8100 730.0000 1.0000
53.8200 769.0000 1.0000
53.8300 721.0000 1.0000
53.8400 732.0000 1.0000
53.8500 692.0000 1.0000
53.8600 684.0000 1.0000
53.8700 692.0000 1.0000
53.8800 738.0000 1.0000
53.8900 735.0000 1.0000
53.9000 723.0000 1.0000
53.9100 727.0000 1.0000
53.9200 692.0000 1.0000
53.9300 706.0000 1.0000
53.9400 689.0000 1.0000
53.9500 713.0000 1.0000
53.9600 735.0000 1.0000
53.9700 678.0000 1.0000
53.9800 695.0000 1.0000
53.9900 729.0000 1.0000
54.0000 717.0000 1.0000
54.0100 728.0000 1.0000
54.0200 703.0000 1.0000
54.0300 691.0000 1.0000
54.0400 672.0000 1.0000
54.0500 731.0000 1.0000
54.0600 743.0000 1.0000
54.0700 725.0000 1.0000
54.0800 744.0000 1.0000
54.0900 678.0000 1.0000
54.1000 713.0000 1.0000
54.1100 682.0000 1.0000
54.1200 704.0000 1.0000
54.1300 698.0000 1.0000
54.1400 689.0000 1.0000
54.1500 693.0000 1.0000
54.1600 665.0000 1.0000
54.1700 702.0000 1.0000
54.1800 707.0000 1.0000
54.1900 710.0000 1.0000
54.2000 704.0000 1.0000
54.2100 676.0000 1.0000
54.2200 684.0000 1.0000
54.2300 730.0000 1.0000
54.2400 731.0000 1.0000
54.2500 724.0000 1.0000
54.2600 673.0000 1.0000
54.2700 696.0000 1.0000
54.2800 701.0000 1.0000
54.2900 689.0000 1.0000
54.3000 687.0000 1.0000
54.3100 735.0000 1.0000
54.3200 715.0000 1.0000
54.3300 739.0000 1.0000
54.3400 727.0000 1.0000
54.3500 721.0000 1.0000
54.3600 741.0000 1.0000
54.3700 718.0000 1.0000
54.3800 721.0000 1.0000
54.3900 695.0000 1.0000
54.4000 740.0000 1.0000
54.4100 715.0000 1.0000
54.4200 715.0000 1.0000
54.4300 711.0000 1.0000
54.4400 713.0000 1.0000
54.4500 714.0000 1.0000
54.4600 699.0000 1.0000
54.4700 696.0000 1.0000
54.4800 717.0000 1.0000
54.4900 680.0000 1.0000
54.5000 683.0000 1.0000
54.5100 744.0000 1.0000
54.5200 726.0000 1.0000
54.5300 755.0000 1.0000
54.5400 748.0000 1.0000
54.5500 695.0000 1.0000
54.5600 737.0000 1.0000
54.5700 734.0000 1.0000
54.5800 723.0000 1.0000
54.5900 713.0000 1.0000
54.6000 676.0000 1.0000
54.6100 699.0000 1.0000
54.6200 719.0000 1.0000
54.6300 745.0000 1.0000
54.6400 710.0000 1.0000
54.6500 746.0000 1.0000
54.6600 760.0000 1.0000
54.6700 737.0000 1.0000
54.6800 717.0000 1.0000
54.6900 724.0000 1.0000
54.7000 776.0000 1.0000
54.7100 724.0000 1.0000
54.7200 747.0000 1.0000
54.7300 783.0000 1.0000
54.7400 779.0000 1.0000
54.7500 722.0000 1.0000
54.7600 719.0000 1.0000
54.7700 766.0000 1.0000
54.7800 727.0000 1.0000
54.7900 791.0000 1.0000
54.8000 781.0000 1.0000
54.8100 746.0000 1.0000
54.8200 775.0000 1.0000
54.8300 766.0000 1.0000
54.8400 760.0000 1.0000
54.8500 767.0000 1.0000
54.8600 725.0000 1.0000
54.8700 739.0000 1.0000
54.8800 754.0000 1.0000
54.8900 780.0000 1.0000
54.9000 774.0000 1.0000
54.9100 786.0000 1.0000
54.9200 741.0000 1.0000
54.9300 758.0000 1.0000
54.9400 811.0000 1.0000
54.9500 789.0000 1.0000
54.9600 745.0000 1.0000
54.9700 829.0000 1.0000
54.9800 809.0000 1.0000
54.9900 784.0000 1.0000
55.0000 775.0000 1.0000
55.0100 806.0000 1.0000
55.0200 795.0000 1.0000
55.0300 750.0000 1.0000
55.0400 818.0000 1.0000
55.0500 800.0000 1.0000
55.0600 836.0000 1.0000
55.0700 853.0000 1.0000
55.0800 832.0000 1.0000
55.0900 868.0000 1.0000
55.1000 867.0000 1.0000
55.1100 834.0000 1.0000
55.1200 863.0000 1.0000
55.1300 887.0000 1.0000
55.1400 904.0000 1.0000
55.1500 885.0000 1.0000
55.1600 941.0000 1.0000
55.1700 1000.0000 1.0000
55.1800 964.0000 1.0000
55.1900 958.0000 1.0000
55.2000 947.0000 1.0000
55.2100 993.0000 1.0000
55.2200 1056.0000 1.0000
55.2300 1066.0000 1.0000
55.2400 1070.0000 1.0000
55.2500 1077.0000 1.0000
55.2600 1057.0000 1.0000
55.2700 1118.0000 1.0000
55.2800 1128.0000 1.0000
55.2900 1100.0000 1.0000
55.3000 1143.0000 1.0000
55.3100 1078.0000 1.0000
55.3200 1071.0000 1.0000
55.3300 1079.0000 1.0000
55.3400 1062.0000 1.0000
55.3500 1076.0000 1.0000
55.3600 1048.0000 1.0000
55.3700 997.0000 1.0000
55.3800 1083.0000 1.0000
55.3900 1056.0000 1.0000
55.4000 1107.0000 1.0000
55.4100 990.0000 1.0000
55.4200 1001.0000 1.0000
55.4300 968.0000 1.0000
55.4400 967.0000 1.0000
55.4500 946.0000 1.0000
55.4600 954.0000 1.0000
55.4700 922.0000 1.0000
55.4800 930.0000 1.0000
55.4900 973.0000 1.0000
55.5000 930.0000 1.0000
55.5100 873.0000 1.0000
55.5200 879.0000 1.0000
55.5300 846.0000 1.0000
55.5400 899.0000 1.0000
55.5500 891.0000 1.0000
55.5600 818.0000 1.0000
55.5700 852.0000 1.0000
55.5800 823.0000 1.0000
55.5900 807.0000 1.0000
55.6000 813.0000 1.0000
55.6100 762.0000 1.0000
55.6200 757.0000 1.0000
55.6300 814.0000 1.0000
55.6400 759.0000 1.0000
55.6500 709.0000 1.0000
55.6600 755.0000 1.0000
55.6700 719.0000 1.0000
55.6800 746.0000 1.0000
55.6900 755.0000 1.0000
55.7000 713.0000 1.0000
55.7100 742.0000 1.0000
55.7200 714.0000 1.0000
55.7300 752.0000 1.0000
55.7400 754.0000 1.0000
55.7500 720.0000 1.0000
55.7600 774.0000 1.0000
55.7700 711.0000 1.0000
55.7800 733.0000 1.0000
55.7900 722.0000 1.0000
55.8000 675.0000 1.0000
55.8100 697.0000 1.0000
55.8200 701.0000 1.0000
55.8300 696.0000 1.0000
55.8400 696.0000 1.0000
55.8500 743.0000 1.0000
55.8600 700.0000 1.0000
55.8700 678.0000 1.0000
55.8800 731.0000 1.0000
55.8900 751.0000 1.0000
55.9000 653.0000 1.0000
55.9100 719.0000 1.0000
55.9200 673.0000 1.0000
55.9300 716.0000 1.0000
55.9400 710.0000 1.0000
55.9500 696.0000 1.0000
55.9600 694.0000 1.0000
55.9700 706.0000 1.0000
55.9800 654.0000 1.0000
55.9900 709.0000 1.0000
56.0000 691.0000 1.0000
56.0100 674.0000 1.0000
56.0200 718.0000 1.0000
56.0300 697.0000 1.0000
56.0400 666.0000 1.0000
56.0500 688.0000 1.0000
56.0600 679.0000 1.0000
56.0700 673.0000 1.0000
56.0800 718.0000 1.0000
56.0900 709.0000 1.0000
56.1000 731.0000 1.0000
56.1100 712.0000 1.0000
56.1200 702.0000 1.0000
56.1300 710.0000 1.0000
56.1400 700.0000 1.0000
56.1500 696.0000 1.0000
56.1600 694.0000 1.0000
56.1700 678.0000 1.0000
56.1800 700.0000 1.0000
56.1900 690.0000 1.0000
56.2000 703.0000 1.0000
56.2100 723.0000 1.0000
56.2200 662.0000 1.0000
56.2300 678.0000 1.0000
56.2400 666.0000 1.0000
56.2500 696.0000 1.0000
56.2600 673.0000 1.0000
56.2700 680.0000 1.0000
56.2800 688.0000 1.0000
56.2900 690.0000 1.0000
56.3000 726.0000 1.0000
56.3100 702.0000 1.0000
56.3200 697.0000 1.0000
56.3300 715.0000 1.0000
56.3400 695.0000 1.0000
56.3500 670.0000 1.0000
56.3600 707.0000 1.0000
56.3700 688.0000 1.0000
56.3800 714.0000 1.0000
56.3900 652.0000 1.0000
56.4000 646.0000 1.0000
56.4100 715.0000 1.0000
56.4200 702.0000 1.0000
56.4300 662.0000 1.0000
56.4400 708.0000 1.0000
56.4500 705.0000 1.0000
56.4600 643.0000 1.0000
56.4700 691.0000 1.0000
56.4800 685.0000 1.0000
56.4900 713.0000 1.0000
56.5000 705.0000 1.0000
56.5100 670.0000 1.0000
56.5200 648.0000 1.0000
56.5300 694.0000 1.0000
56.5400 736.0000 1.0000
56.5500 697.0000 1.0000
56.5600 678.0000 1.0000
56.5700 672.0000 1.0000
56.5800 733.0000 1.0000
56.5900 710.0000 1.0000
56.6000 711.0000 1.0000
56.6100 678.0000 1.0000
56.6200 680.0000 1.0000
56.6300 638.0000 1.0000
56.6400 669.0000 1.0000
56.6500 718.0000 1.0000
56.6600 673.0000 1.0000
56.6700 674.0000 1.0000
56.6800 644.0000 1.0000
56.6900 649.0000 1.0000
56.7000 679.0000 1.0000
56.7100 706.0000 1.0000
56.7200 729.0000 1.0000
56.7300 716.0000 1.0000
56.7400 666.0000 1.0000
56.7500 656.0000 1.0000
56.7600 678.0000 1.0000
56.7700 674.0000 1.0000
56.7800 721.0000 1.0000
56.7900 717.0000 1.0000
56.8000 673.0000 1.0000
56.8100 678.0000 1.0000
56.8200 702.0000 1.0000
56.8300 670.0000 1.0000
56.8400 694.0000 1.0000
56.8500 704.0000 1.0000
56.8600 672.0000 1.0000
56.8700 687.0000 1.0000
56.8800 711.0000 1.0000
56.8900 743.0000 1.0000
56.9000 677.0000 1.0000
56.9100 675.0000 1.0000
56.9200 687.0000 1.0000
56.9300 707.0000 1.0000
56.9400 690.0000 1.0000
56.9500 640.0000 1.0000
56.9600 701.0000 1.0000
56.9700 673.0000 1.0000
56.9800 688.0000 1.0000
56.9900 705.0000 1.0000
57.0000 691.0000 1.0000
57.0100 667.0000 1.0000
57.0200 712.0000 1.0000
57.0300 710.0000 1.0000
57.0400 745.0000 1.0000
57.0500 676.0000 1.0000
57.0600 694.0000 1.0000
57.0700 665.0000 1.0000
57.0800 689.0000 1.0000
57.0900 659.0000 1.0000
57.1000 681.0000 1.0000
57.1100 657.0000 1.0000
57.1200 682.0000 1.0000
57.1300 677.0000 1.0000
57.1400 668.0000 1.0000
57.1500 711.0000 1.0000
57.1600 721.0000 1.0000
57.1700 708.0000 1.0000
57.1800 687.0000 1.0000
57.1900 713.0000 1.0000
57.2000 692.0000 1.0000
57.2100 644.0000 1.0000
57.2200 657.0000 1.0000
57.2300 719.0000 1.0000
57.2400 690.0000 1.0000
57.2500 693.0000 1.0000
57.2600 698.0000 1.0000
57.2700 706.0000 1.0000
57.2800 701.0000 1.0000
57.2900 725.0000 1.0000
57.3000 664.0000 1.0000
57.3100 649.0000 1.0000
57.3200 666.0000 1.0000
57.3300 688.0000 1.0000
57.3400 701.0000 1.0000
57.3500 712.0000 1.0000
57.3600 693.0000 1.0000
57.3700 706.0000 1.0000
57.3800 677.0000 1.0000
57.3900 656.0000 1.0000
57.4000 688.0000 1.0000
57.4100 674.0000 1.0000
57.4200 668.0000 1.0000
57.4300 687.0000 1.0000
57.4400 681.0000 1.0000
57.4500 720.0000 1.0000
57.4600 728.0000 1.0000
57.4700 704.0000 1.0000
57.4800 738.0000 1.0000
57.4900 721.0000 1.0000
57.5000 739.0000 1.0000
57.5100 705.0000 1.0000
57.5200 672.0000 1.0000
57.5300 696.0000 1.0000
57.5400 695.0000 1.0000
57.5500 713.0000 1.0000
57.5600 643.0000 1.0000
57.5700 693.0000 1.0000
57.5800 688.0000 1.0000
57.5900 687.0000 1.0000
57.6000 671.0000 1.0000
57.6100 711.0000 1.0000
57.6200 665.0000 1.0000
57.6300 676.0000 1.0000
57.6400 670.0000 1.0000
57.6500 683.0000 1.0000
57.6600 691.0000 1.0000
57.6700 676.0000 1.0000
57.6800 673.0000 1.0000
57.6900 686.0000 1.0000
57.7000 677.0000 1.0000
57.7100 670.0000 1.0000
57.7200 674.0000 1.0000
57.7300 678.0000 1.0000
57.7400 663.0000 1.0000
57.7500 678.0000 1.0000
57.7600 684.0000 1.0000
57.7700 689.0000 1.0000
57.7800 657.0000 1.0000
57.7900 665.0000 1.0000
57.8000 672.0000 1.0000
57.8100 734.0000 1.0000
57.8200 693.0000 1.0000
57.8300 660.0000 1.0000
57.8400 663.0000 1.0000
57.8500 714.0000 1.0000
57.8600 666.0000 1.0000
57.8700 667.0000 1.0000
57.8800 655.0000 1.0000
57.8900 675.0000 1.0000
57.9000 740.0000 1.0000
57.9100 690.0000 1.0000
57.9200 686.0000 1.0000
57.9300 667.0000 1.0000
57.9400 673.0000 1.0000
57.9500 723.0000 1.0000
57.9600 677.0000 1.0000
57.9700 712.0000 1.0000
57.9800 674.0000 1.0000
57.9900 638.0000 1.0000
58.0000 677.0000 1.0000
58.0100 703.0000 1.0000
58.0200 675.0000 1.0000
58.0300 684.0000 1.0000
58.0400 710.0000 1.0000
58.0500 721.0000 1.0000
58.0600 708.0000 1.0000
58.0700 667.0000 1.0000
58.0800 675.0000 1.0000
58.0900 697.0000 1.0000
58.1000 686.0000 1.0000
58.1100 728.0000 1.0000
58.1200 673.0000 1.0000
58.1300 695.0000 1.0000
58.1400 672.0000 1.0000
58.1500 682.0000 1.0000
58.1600 699.0000 1.0000
58.1700 711.0000 1.0000
58.1800 663.0000 1.0000
58.1900 715.0000 1.0000
58.2000 667.0000 1.0000
58.2100 718.0000 1.0000
58.2200 712.0000 1.0000
58.2300 702.0000 1.0000
58.2400 700.0000 1.0000
58.2500 682.0000 1.0000
58.2600 742.0000 1.0000
58.2700 737.0000 1.0000
58.2800 735.0000 1.0000
58.2900 675.0000 1.0000
58.3000 716.0000 1.0000
58.3100 714.0000 1.0000
58.3200 685.0000 1.0000
58.3300 715.0000 1.0000
58.3400 692.0000 1.0000
58.3500 715.0000 1.0000
58.3600 683.0000 1.0000
58.3700 677.0000 1.0000
58.3800 736.0000 1.0000
58.3900 716.0000 1.0000
58.4000 700.0000 1.0000
58.4100 680.0000 1.0000
58.4200 698.0000 1.0000
58.4300 655.0000 1.0000
58.4400 721.0000 1.0000
58.4500 704.0000 1.0000
58.4600 710.0000 1.0000
58.4700 694.0000 1.0000
58.4800 674.0000 1.0000
58.4900 694.0000 1.0000
58.5000 712.0000 1.0000
58.5100 706.0000 1.0000
58.5200 686.0000 1.0000
58.5300 682.0000 1.0000
58.5400 688.0000 1.0000
58.5500 719.0000 1.0000
58.5600 673.0000 1.0000
58.5700 635.0000 1.0000
58.5800 686.0000 1.0000
58.5900 685.0000 1.0000
58.6000 675.0000 1.0000
58.6100 689.0000 1.0000
58.6200 673.0000 1.0000
58.6300 692.0000 1.0000
58.6400 650.0000 1.0000
58.6500 685.0000 1.0000
58.6600 650.0000 1.0000
58.6700 692.0000 1.0000
58.6800 692.0000 1.0000
58.6900 723.0000 1.0000
58.7000 677.0000 1.0000
58.7100 673.0000 1.0000
58.7200 642.0000 1.0000
58.7300 654.0000 1.0000
58.7400 689.0000 1.0000
58.7500 703.0000 1.0000
58.7600 699.0000 1.0000
58.7700 639.0000 1.0000
58.7800 721.0000 1.0000
58.7900 671.0000 1.0000
58.8000 674.0000 1.0000
58.8100 691.0000 1.0000
58.8200 666.0000 1.0000
58.8300 670.0000 1.0000
58.8400 696.0000 1.0000
58.8500 655.0000 1.0000
58.8600 693.0000 1.0000
58.8700 682.0000 1.0000
58.8800 705.0000 1.0000
58.8900 668.0000 1.0000
58.9000 624.0000 1.0000
58.9100 690.0000 1.0000
58.9200 660.0000 1.0000
58.9300 691.0000 1.0000
58.9400 668.0000 1.0000
58.9500 656.0000 1.0000
58.9600 669.0000 1.0000
58.9700 684.0000 1.0000
58.9800 678.0000 1.0000
58.9900 660.0000 1.0000
59.0000 698.0000 1.0000
59.0100 696.0000 1.0000
59.0200 671.0000 1.0000
59.0300 673.0000 1.0000
59.0400 689.0000 1.0000
59.0500 674.0000 1.0000
59.0600 663.0000 1.0000
59.0700 696.0000 1.0000
59.0800 640.0000 1.0000
59.0900 701.0000 1.0000
59.1000 709.0000 1.0000
59.1100 725.0000 1.0000
59.1200 713.0000 1.0000
59.1300 729.0000 1.0000
59.1400 685.0000 1.0000
59.1500 658.0000 1.0000
59.1600 634.0000 1.0000
59.1700 693.0000 1.0000
59.1800 659.0000 1.0000
59.1900 692.0000 1.0000
59.2000 727.0000 1.0000
59.2100 675.0000 1.0000
59.2200 663.0000 1.0000
59.2300 713.0000 1.0000
59.2400 709.0000 1.0000
59.2500 686.0000 1.0000
59.2600 715.0000 1.0000
59.2700 667.0000 1.0000
59.2800 702.0000 1.0000
59.2900 704.0000 1.0000
59.3000 679.0000 1.0000
59.3100 722.0000 1.0000
59.3200 664.0000 1.0000
59.3300 723.0000 1.0000
59.3400 745.0000 1.0000
59.3500 709.0000 1.0000
59.3600 712.0000 1.0000
59.3700 706.0000 1.0000
59.3800 698.0000 1.0000
59.3900 664.0000 1.0000
59.4000 702.0000 1.0000
59.4100 694.0000 1.0000
59.4200 694.0000 1.0000
59.4300 676.0000 1.0000
59.4400 654.0000 1.0000
59.4500 665.0000 1.0000
59.4600 679.0000 1.0000
59.4700 687.0000 1.0000
59.4800 736.0000 1.0000
59.4900 699.0000 1.0000
59.5000 661.0000 1.0000
59.5100 657.0000 1.0000
59.5200 699.0000 1.0000
59.5300 687.0000 1.0000
59.5400 671.0000 1.0000
59.5500 716.0000 1.0000
59.5600 659.0000 1.0000
59.5700 677.0000 1.0000
59.5800 701.0000 1.0000
59.5900 687.0000 1.0000
59.6000 654.0000 1.0000
59.6100 685.0000 1.0000
59.6200 680.0000 1.0000
59.6300 723.0000 1.0000
59.6400 682.0000 1.0000
59.6500 703.0000 1.0000
59.6600 655.0000 1.0000
59.6700 640.0000 1.0000
59.6800 692.0000 1.0000
59.6900 698.0000 1.0000
59.7000 694.0000 1.0000
59.7100 643.0000 1.0000
59.7200 635.0000 1.0000
59.7300 667.0000 1.0000
59.7400 663.0000 1.0000
59.7500 696.0000 1.0000
59.7600 700.0000 1.0000
59.7700 658.0000 1.0000
59.7800 674.0000 1.0000
59.7900 709.0000 1.0000
59.8000 673.0000 1.0000
59.8100 721.0000 1.0000
59.8200 670.0000 1.0000
59.8300 707.0000 1.0000
59.8400 685.0000 1.0000
59.8500 669.0000 1.0000
59.8600 721.0000 1.0000
59.8700 664.0000 1.0000
59.8800 717.0000 1.0000
59.8900 696.0000 1.0000
59.9000 663.0000 1.0000
59.9100 636.0000 1.0000
59.9200 677.0000 1.0000
59.9300 687.0000 1.0000
59.9400 674.0000 1.0000
59.9500 664.0000 1.0000
59.9600 656.0000 1.0000
59.9700 677.0000 1.0000
59.9800 692.0000 1.0000
59.9900 659.0000 1.0000
60.0000 691.0000 1.0000
60.0100 633.0000 1.0000
60.0200 633.0000 1.0000
60.0300 671.0000 1.0000
60.0400 627.0000 1.0000
60.0500 661.0000 1.0000
60.0600 728.0000 1.0000
60.0700 692.0000 1.0000
60.0800 683.0000 1.0000
60.0900 638.0000 1.0000
60.1000 667.0000 1.0000
60.1100 718.0000 1.0000
60.1200 648.0000 1.0000
60.1300 696.0000 1.0000
60.1400 682.0000 1.0000
60.1500 652.0000 1.0000
60.1600 650.0000 1.0000
60.1700 627.0000 1.0000
60.1800 642.0000 1.0000
60.1900 660.0000 1.0000
60.2000 678.0000 1.0000
60.2100 689.0000 1.0000
60.2200 675.0000 1.0000
60.2300 672.0000 1.0000
60.2400 666.0000 1.0000
60.2500 655.0000 1.0000
60.2600 698.0000 1.0000
60.2700 664.0000 1.0000
60.2800 667.0000 1.0000
60.2900 678.0000 1.0000
60.3000 746.0000 1.0000
60.3100 742.0000 1.0000
60.3200 668.0000 1.0000
60.3300 691.0000 1.0000
60.3400 704.0000 1.0000
60.3500 701.0000 1.0000
60.3600 644.0000 1.0000
60.3700 713.0000 1.0000
60.3800 708.0000 1.0000
60.3900 650.0000 1.0000
60.4000 637.0000 1.0000
60.4100 671.0000 1.0000
60.4200 649.0000 1.0000
60.4300 667.0000 1.0000
60.4400 674.0000 1.0000
60.4500 653.0000 1.0000
60.4600 718.0000 1.0000
60.4700 649.0000 1.0000
60.4800 672.0000 1.0000
60.4900 647.0000 1.0000
60.5000 659.0000 1.0000
60.5100 693.0000 1.0000
60.5200 658.0000 1.0000
60.5300 672.0000 1.0000
60.5400 720.0000 1.0000
60.5500 715.0000 1.0000
60.5600 697.0000 1.0000
60.5700 650.0000 1.0000
60.5800 689.0000 1.0000
60.5900 730.0000 1.0000
60.6000 681.0000 1.0000
60.6100 674.0000 1.0000
60.6200 657.0000 1.0000
60.6300 715.0000 1.0000
60.6400 698.0000 1.0000
60.6500 697.0000 1.0000
60.6600 697.0000 1.0000
60.6700 693.0000 1.0000
60.6800 680.0000 1.0000
60.6900 666.0000 1.0000
60.7000 647.0000 1.0000
60.7100 682.0000 1.0000
60.7200 690.0000 1.0000
60.7300 670.0000 1.0000
60.7400 712.0000 1.0000
60.7500 708.0000 1.0000
60.7600 700.0000 1.0000
60.7700 674.0000 1.0000
60.7800 711.0000 1.0000
60.7900 679.0000 1.0000
60.8000 675.0000 1.0000
60.8100 665.0000 1.0000
60.8200 700.0000 1.0000
60.8300 715.0000 1.0000
60.8400 666.0000 1.0000
60.8500 679.0000 1.0000
60.8600 661.0000 1.0000
60.8700 724.0000 1.0000
60.8800 698.0000 1.0000
60.8900 666.0000 1.0000
60.9000 665.0000 1.0000
60.9100 703.0000 1.0000
60.9200 706.0000 1.0000
60.9300 699.0000 1.0000
60.9400 661.0000 1.0000
60.9500 724.0000 1.0000
60.9600 693.0000 1.0000
60.9700 661.0000 1.0000
60.9800 636.0000 1.0000
60.9900 716.0000 1.0000
61.0000 686.0000 1.0000
61.0100 687.0000 1.0000
61.0200 698.0000 1.0000
61.0300 644.0000 1.0000
61.0400 670.0000 1.0000
61.0500 667.0000 1.0000
61.0600 670.0000 1.0000
61.0700 679.0000 1.0000
61.0800 712.0000 1.0000
61.0900 705.0000 1.0000
61.1000 676.0000 1.0000
61.1100 664.0000 1.0000
61.1200 669.0000 1.0000
61.1300 697.0000 1.0000
61.1400 678.0000 1.0000
61.1500 685.0000 1.0000
61.1600 676.0000 1.0000
61.1700 700.0000 1.0000
61.1800 657.0000 1.0000
61.1900 682.0000 1.0000
61.2000 673.0000 1.0000
61.2100 663.0000 1.0000
61.2200 658.0000 1.0000
61.2300 719.0000 1.0000
61.2400 655.0000 1.0000
61.2500 656.0000 1.0000
61.2600 693.0000 1.0000
61.2700 670.0000 1.0000
61.2800 662.0000 1.0000
61.2900 675.0000 1.0000
61.3000 684.0000 1.0000
61.3100 708.0000 1.0000
61.3200 709.0000 1.0000
61.3300 706.0000 1.0000
61.3400 701.0000 1.0000
61.3500 716.0000 1.0000
61.3600 654.0000 1.0000
61.3700 654.0000 1.0000
61.3800 674.0000 1.0000
61.3900 682.0000 1.0000
61.4000 691.0000 1.0000
61.4100 669.0000 1.0000
61.4200 689.0000 1.0000
61.4300 694.0000 1.0000
61.4400 688.0000 1.0000
61.4500 690.0000 1.0000
61.4600 706.0000 1.0000
61.4700 692.0000 1.0000
61.4800 692.0000 1.0000
61.4900 708.0000 1.0000
61.5000 708.0000 1.0000
61.5100 716.0000 1.0000
61.5200 679.0000 1.0000
61.5300 677.0000 1.0000
61.5400 650.0000 1.0000
61.5500 683.0000 1.0000
61.5600 693.0000 1.0000
61.5700 716.0000 1.0000
61.5800 669.0000 1.0000
61.5900 718.0000 1.0000
61.6000 694.0000 1.0000
61.6100 705.0000 1.0000
61.6200 683.0000 1.0000
61.6300 708.0000 1.0000
61.6400 645.0000 1.0000
61.6500 712.0000 1.0000
61.6600 700.0000 1.0000
61.6700 698.0000 1.0000
61.6800 719.0000 1.0000
61.6900 729.0000 1.0000
61.7000 749.0000 1.0000
61.7100 734.0000 1.0000
61.7200 707.0000 1.0000
61.7300 696.0000 1.0000
61.7400 694.0000 1.0000
61.7500 755.0000 1.0000
61.7600 721.0000 1.0000
61.7700 775.0000 1.0000
61.7800 736.0000 1.0000
61.7900 781.0000 1.0000
61.8000 747.0000 1.0000
61.8100 716.0000 1.0000
61.8200 741.0000 1.0000
61.8300 724.0000 1.0000
61.8400 687.0000 1.0000
61.8500 761.0000 1.0000
61.8600 774.0000 1.0000
61.8700 741.0000 1.0000
61.8800 749.0000 1.0000
61.8900 780.0000 1.0000
61.9000 826.0000 1.0000
61.9100 790.0000 1.0000
61.9200 757.0000 1.0000
61.9300 826.0000 1.0000
61.9400 811.0000 1.0000
61.9500 804.0000 1.0000
61.9600 815.0000 1.0000
61.9700 817.0000 1.0000
61.9800 830.0000 1.0000
61.9900 864.0000 1.0000
62.0000 848.0000 1.0000
62.0100 838.0000 1.0000
62.0200 919.0000 1.0000
62.0300 904.0000 1.0000
62.0400 921.0000 1.0000
62.0500 887.0000 1.0000
62.0600 953.0000 1.0000
62.0700 945.0000 1.0000
62.0800 1008.0000 1.0000
62.0900 1041.0000 1.0000
62.1000 1054.0000 1.0000
62.1100 1111.0000 1.0000
62.1200 1109.0000 1.0000
62.1300 1120.0000 1.0000
62.1400 1197.0000 1.0000
62.1500 1199.0000 1.0000
62.1600 1243.0000 1.0000
62.1700 1225.0000 1.0000
62.1800 1264.0000 1.0000
62.1900 1292.0000 1.0000
62.2000 1417.0000 1.0000
62.2100 1447.0000 1.0000
62.2200 1430.0000 1.0000
62.2300 1441.0000 1.0000
62.2400 1546.0000 1.0000
62.2500 1476.0000 1.0000
62.2600 1480.0000 1.0000
62.2700 1508.0000 1.0000
62.2800 1591.0000 1.0000
62.2900 1541.0000 1.0000
62.3000 1587.0000 1.0000
62.3100 1576.0000 1.0000
62.3200 1569.0000 1.0000
62.3300 1615.0000 1.0000
62.3400 1471.0000 1.0000
62.3500 1505.0000 1.0000
62.3600 1523.0000 1.0000
62.3700 1537.0000 1.0000
62.3800 1554.0000 1.0000
62.3900 1492.0000 1.0000
62.4000 1496.0000 1.0000
62.4100 1405.0000 1.0000
62.4200 1461.0000 1.0000
62.4300 1377.0000 1.0000
62.4400 1372.0000 1.0000
62.4500 1274.0000 1.0000
62.4600 1348.0000 1.0000
62.4700 1340.0000 1.0000
62.4800 1285.0000 1.0000
62.4900 1306.0000 1.0000
62.5000 1191.0000 1.0000
62.5100 1245.0000 1.0000
62.5200 1161.0000 1.0000
62.5300 1176.0000 1.0000
62.5400 1189.0000 1.0000
62.5500 1114.0000 1.0000
62.5600 1124.0000 1.0000
62.5700 1107.0000 1.0000
62.5800 1018.0000 1.0000
62.5900 1003.0000 1.0000
62.6000 983.0000 1.0000
62.6100 973.0000 1.0000
62.6200 949.0000 1.0000
62.6300 928.0000 1.0000
62.6400 938.0000 1.0000
62.6500 928.0000 1.0000
62.6600 943.0000 1.0000
62.6700 915.0000 1.0000
62.6800 898.0000 1.0000
62.6900 865.0000 1.0000
62.7000 929.0000 1.0000
62.7100 897.0000 1.0000
62.7200 850.0000 1.0000
62.7300 833.0000 1.0000
62.7400 825.0000 1.0000
62.7500 814.0000 1.0000
62.7600 817.0000 1.0000
62.7700 825.0000 1.0000
62.7800 795.0000 1.0000
62.7900 773.0000 1.0000
62.8000 811.0000 1.0000
62.8100 801.0000 1.0000
62.8200 803.0000 1.0000
62.8300 768.0000 1.0000
62.8400 806.0000 1.0000
62.8500 779.0000 1.0000
62.8600 792.0000 1.0000
62.8700 753.0000 1.0000
62.8800 740.0000 1.0000
62.8900 753.0000 1.0000
62.9000 784.0000 1.0000
62.9100 742.0000 1.0000
62.9200 774.0000 1.0000
62.9300 777.0000 1.0000
62.9400 735.0000 1.0000
62.9500 736.0000 1.0000
62.9600 766.0000 1.0000
62.9700 745.0000 1.0000
62.9800 745.0000 1.0000
62.9900 769.0000 1.0000
63.0000 734.0000 1.0000
63.0100 753.0000 1.0000
63.0200 716.0000 1.0000
63.0300 749.0000 1.0000
63.0400 730.0000 1.0000
63.0500 749.0000 1.0000
63.0600 757.0000 1.0000
63.0700 735.0000 1.0000
63.0800 726.0000 1.0000
63.0900 708.0000 1.0000
63.1000 733.0000 1.0000
63.1100 748.0000 1.0000
63.1200 753.0000 1.0000
63.1300 762.0000 1.0000
63.1400 739.0000 1.0000
63.1500 717.0000 1.0000
63.1600 738.0000 1.0000
63.1700 734.0000 1.0000
63.1800 690.0000 1.0000
63.1900 692.0000 1.0000
63.2000 723.0000 1.0000
63.2100 763.0000 1.0000
63.2200 772.0000 1.0000
63.2300 731.0000 1.0000
63.2400 786.0000 1.0000
63.2500 749.0000 1.0000
63.2600 755.0000 1.0000
63.2700 686.0000 1.0000
63.2800 717.0000 1.0000
63.2900 700.0000 1.0000
63.3000 678.0000 1.0000
63.3100 693.0000 1.0000
63.3200 726.0000 1.0000
63.3300 724.0000 1.0000
63.3400 719.0000 1.0000
63.3500 734.0000 1.0000
63.3600 705.0000 1.0000
63.3700 697.0000 1.0000
63.3800 675.0000 1.0000
63.3900 685.0000 1.0000
63.4000 691.0000 1.0000
63.4100 700.0000 1.0000
63.4200 718.0000 1.0000
63.4300 678.0000 1.0000
63.4400 707.0000 1.0000
63.4500 698.0000 1.0000
63.4600 725.0000 1.0000
63.4700 678.0000 1.0000
63.4800 686.0000 1.0000
63.4900 689.0000 1.0000
63.5000 678.0000 1.0000
63.5100 653.0000 1.0000
63.5200 684.0000 1.0000
63.5300 653.0000 1.0000
63.5400 705.0000 1.0000
63.5500 722.0000 1.0000
63.5600 683.0000 1.0000
63.5700 667.0000 1.0000
63.5800 673.0000 1.0000
63.5900 686.0000 1.0000
63.6000 639.0000 1.0000
63.6100 737.0000 1.0000
63.6200 652.0000 1.0000
63.6300 692.0000 1.0000
63.6400 681.0000 1.0000
63.6500 704.0000 1.0000
63.6600 689.0000 1.0000
63.6700 664.0000 1.0000
63.6800 699.0000 1.0000
63.6900 717.0000 1.0000
63.7000 658.0000 1.0000
63.7100 648.0000 1.0000
63.7200 691.0000 1.0000
63.7300 675.0000 1.0000
63.7400 735.0000 1.0000
63.7500 706.0000 1.0000
63.7600 682.0000 1.0000
63.7700 665.0000 1.0000
63.7800 692.0000 1.0000
63.7900 680.0000 1.0000
63.8000 703.0000 1.0000
63.8100 684.0000 1.0000
63.8200 664.0000 1.0000
63.8300 658.0000 1.0000
63.8400 656.0000 1.0000
63.8500 704.0000 1.0000
63.8600 696.0000 1.0000
63.8700 688.0000 1.0000
63.8800 684.0000 1.0000
63.8900 708.0000 1.0000
63.9000 672.0000 1.0000
63.9100 703.0000 1.0000
63.9200 674.0000 1.0000
63.9300 704.0000 1.0000
63.9400 661.0000 1.0000
63.9500 664.0000 1.0000
63.9600 664.0000 1.0000
63.9700 666.0000 1.0000
63.9800 686.0000 1.0000
63.9900 656.0000 1.0000
64.0000 634.0000 1.0000
64.0100 727.0000 1.0000
64.0200 657.0000 1.0000
64.0300 674.0000 1.0000
64.0400 678.0000 1.0000
64.0500 668.0000 1.0000
64.0600 641.0000 1.0000
64.0700 672.0000 1.0000
64.0800 706.0000 1.0000
64.0900 733.0000 1.0000
64.1000 671.0000 1.0000
64.1100 681.0000 1.0000
64.1200 712.0000 1.0000
64.1300 738.0000 1.0000
64.1400 696.0000 1.0000
64.1500 697.0000 1.0000
64.1600 662.0000 1.0000
64.1700 708.0000 1.0000
64.1800 660.0000 1.0000
64.1900 695.0000 1.0000
64.2000 728.0000 1.0000
64.2100 713.0000 1.0000
64.2200 681.0000 1.0000
64.2300 726.0000 1.0000
64.2400 718.0000 1.0000
64.2500 686.0000 1.0000
64.2600 658.0000 1.0000
64.2700 687.0000 1.0000
64.2800 726.0000 1.0000
64.2900 722.0000 1.0000
64.3000 673.0000 1.0000
64.3100 702.0000 1.0000
64.3200 686.0000 1.0000
64.3300 676.0000 1.0000
64.3400 700.0000 1.0000
64.3500 699.0000 1.0000
64.3600 680.0000 1.0000
64.3700 660.0000 1.0000
64.3800 724.0000 1.0000
64.3900 729.0000 1.0000
64.4000 711.0000 1.0000
64.4100 711.0000 1.0000
64.4200 682.0000 1.0000
64.4300 723.0000 1.0000
64.4400 772.0000 1.0000
64.4500 771.0000 1.0000
64.4600 742.0000 1.0000
64.4700 741.0000 1.0000
64.4800 718.0000 1.0000
64.4900 732.0000 1.0000
64.5000 751.0000 1.0000
64.5100 776.0000 1.0000
64.5200 776.0000 1.0000
64.5300 748.0000 1.0000
64.5400 753.0000 1.0000
64.5500 818.0000 1.0000
64.5600 757.0000 1.0000
64.5700 778.0000 1.0000
64.5800 785.0000 1.0000
64.5900 827.0000 1.0000
64.6000 818.0000 1.0000
64.6100 847.0000 1.0000
64.6200 874.0000 1.0000
64.6300 854.0000 1.0000
64.6400 868.0000 1.0000
64.6500 889.0000 1.0000
64.6600 943.0000 1.0000
64.6700 946.0000 1.0000
64.6800 921.0000 1.0000
64.6900 955.0000 1.0000
64.7000 921.0000 1.0000
64.7100 921.0000 1.0000
64.7200 923.0000 1.0000
64.7300 934.0000 1.0000
64.7400 848.0000 1.0000
64.7500 878.0000 1.0000
64.7600 862.0000 1.0000
64.7700 893.0000 1.0000
64.7800 887.0000 1.0000
64.7900 854.0000 1.0000
64.8000 845.0000 1.0000
64.8100 853.0000 1.0000
64.8200 913.0000 1.0000
64.8300 838.0000 1.0000
64.8400 872.0000 1.0000
64.8500 850.0000 1.0000
64.8600 858.0000 1.0000
64.8700 875.0000 1.0000
64.8800 824.0000 1.0000
64.8900 847.0000 1.0000
64.9000 826.0000 1.0000
64.9100 800.0000 1.0000
64.9200 819.0000 1.0000
64.9300 786.0000 1.0000
64.9400 781.0000 1.0000
64.9500 768.0000 1.0000
64.9600 778.0000 1.0000
64.9700 742.0000 1.0000
64.9800 745.0000 1.0000
64.9900 772.0000 1.0000
65.0000 723.0000 1.0000
65.0100 768.0000 1.0000
65.0200 768.0000 1.0000
65.0300 737.0000 1.0000
65.0400 728.0000 1.0000
65.0500 722.0000 1.0000
65.0600 757.0000 1.0000
65.0700 725.0000 1.0000
65.0800 724.0000 1.0000
65.0900 686.0000 1.0000
65.1000 730.0000 1.0000
65.1100 731.0000 1.0000
65.1200 730.0000 1.0000
65.1300 693.0000 1.0000
65.1400 717.0000 1.0000
65.1500 738.0000 1.0000
65.1600 723.0000 1.0000
65.1700 738.0000 1.0000
65.1800 704.0000 1.0000
65.1900 739.0000 1.0000
65.2000 726.0000 1.0000
65.2100 696.0000 1.0000
65.2200 725.0000 1.0000
65.2300 714.0000 1.0000
65.2400 731.0000 1.0000
65.2500 667.0000 1.0000
65.2600 738.0000 1.0000
65.2700 671.0000 1.0000
65.2800 704.0000 1.0000
65.2900 717.0000 1.0000
65.3000 700.0000 1.0000
65.3100 726.0000 1.0000
65.3200 670.0000 1.0000
65.3300 676.0000 1.0000
65.3400 724.0000 1.0000
65.3500 672.0000 1.0000
65.3600 695.0000 1.0000
65.3700 722.0000 1.0000
65.3800 737.0000 1.0000
65.3900 751.0000 1.0000
65.4000 706.0000 1.0000
65.4100 712.0000 1.0000
65.4200 751.0000 1.0000
65.4300 706.0000 1.0000
65.4400 695.0000 1.0000
65.4500 747.0000 1.0000
65.4600 725.0000 1.0000
65.4700 712.0000 1.0000
65.4800 727.0000 1.0000
65.4900 698.0000 1.0000
65.5000 697.0000 1.0000
65.5100 726.0000 1.0000
65.5200 789.0000 1.0000
65.5300 720.0000 1.0000
65.5400 730.0000 1.0000
65.5500 685.0000 1.0000
65.5600 732.0000 1.0000
65.5700 747.0000 1.0000
65.5800 753.0000 1.0000
65.5900 739.0000 1.0000
65.6000 758.0000 1.0000
65.6100 759.0000 1.0000
65.6200 744.0000 1.0000
65.6300 718.0000 1.0000
65.6400 766.0000 1.0000
65.6500 762.0000 1.0000
65.6600 706.0000 1.0000
65.6700 763.0000 1.0000
65.6800 712.0000 1.0000
65.6900 745.0000 1.0000
65.7000 724.0000 1.0000
65.7100 702.0000 1.0000
65.7200 760.0000 1.0000
65.7300 763.0000 1.0000
65.7400 747.0000 1.0000
65.7500 741.0000 1.0000
65.7600 731.0000 1.0000
65.7700 784.0000 1.0000
65.7800 799.0000 1.0000
65.7900 779.0000 1.0000
65.8000 782.0000 1.0000
65.8100 805.0000 1.0000
65.8200 806.0000 1.0000
65.8300 817.0000 1.0000
65.8400 854.0000 1.0000
65.8500 820.0000 1.0000
65.8600 804.0000 1.0000
65.8700 823.0000 1.0000
65.8800 840.0000 1.0000
65.8900 875.0000 1.0000
65.9000 877.0000 1.0000
65.9100 856.0000 1.0000
65.9200 875.0000 1.0000
65.9300 916.0000 1.0000
65.9400 953.0000 1.0000
65.9500 957.0000 1.0000
65.9600 995.0000 1.0000
65.9700 965.0000 1.0000
65.9800 1007.0000 1.0000
65.9900 1010.0000 1.0000
66.0000 1051.0000 1.0000
66.0100 1064.0000 1.0000
66.0200 1116.0000 1.0000
66.0300 1118.0000 1.0000
66.0400 1166.0000 1.0000
66.0500 1156.0000 1.0000
66.0600 1207.0000 1.0000
66.0700 1283.0000 1.0000
66.0800 1391.0000 1.0000
66.0900 1400.0000 1.0000
66.1000 1340.0000 1.0000
66.1100 1523.0000 1.0000
66.1200 1565.0000 1.0000
66.1300 1651.0000 1.0000
66.1400 1769.0000 1.0000
66.1500 1901.0000 1.0000
66.1600 1936.0000 1.0000
66.1700 2071.0000 1.0000
66.1800 2038.0000 1.0000
66.1900 2259.0000 1.0000
66.2000 2414.0000 1.0000
66.2100 2402.0000 1.0000
66.2200 2574.0000 1.0000
66.2300 2609.0000 1.0000
66.2400 2657.0000 1.0000
66.2500 2716.0000 1.0000
66.2600 2795.0000 1.0000
66.2700 2732.0000 1.0000
66.2800 2788.0000 1.0000
66.2900 2765.0000 1.0000
66.3000 2712.0000 1.0000
66.3100 2744.0000 1.0000
66.3200 2655.0000 1.0000
66.3300 2639.0000 1.0000
66.3400 2596.0000 1.0000
66.3500 2540.0000 1.0000
66.3600 2429.0000 1.0000
66.3700 2438.0000 1.0000
66.3800 2342.0000 1.0000
66.3900 2362.0000 1.0000
66.4000 2336.0000 1.0000
66.4100 2282.0000 1.0000
66.4200 2223.0000 1.0000
66.4300 2191.0000 1.0000
66.4400 2211.0000 1.0000
66.4500 2139.0000 1.0000
66.4600 2123.0000 1.0000
66.4700 2043.0000 1.0000
66.4800 1983.0000 1.0000
66.4900 1949.0000 1.0000
66.5000 1856.0000 1.0000
66.5100 1718.0000 1.0000
66.5200 1739.0000 1.0000
66.5300 1661.0000 1.0000
66.5400 1544.0000 1.0000
66.5500 1550.0000 1.0000
66.5600 1487.0000 1.0000
66.5700 1341.0000 1.0000
66.5800 1336.0000 1.0000
66.5900 1337.0000 1.0000
66.6000 1316.0000 1.0000
66.6100 1121.0000 1.0000
66.6200 1118.0000 1.0000
66.6300 1131.0000 1.0000
66.6400 1109.0000 1.0000
66.6500 1050.0000 1.0000
66.6600 1037.0000 1.0000
66.6700 1002.0000 1.0000
66.6800 1031.0000 1.0000
66.6900 1014.0000 1.0000
66.7000 941.0000 1.0000
66.7100 916.0000 1.0000
66.7200 954.0000 1.0000
66.7300 916.0000 1.0000
66.7400 868.0000 1.0000
66.7500 888.0000 1.0000
66.7600 846.0000 1.0000
66.7700 845.0000 1.0000
66.7800 848.0000 1.0000
66.7900 805.0000 1.0000
66.8000 804.0000 1.0000
66.8100 865.0000 1.0000
66.8200 823.0000 1.0000
66.8300 789.0000 1.0000
66.8400 774.0000 1.0000
66.8500 780.0000 1.0000
66.8600 772.0000 1.0000
66.8700 788.0000 1.0000
66.8800 724.0000 1.0000
66.8900 765.0000 1.0000
66.9000 721.0000 1.0000
66.9100 774.0000 1.0000
66.9200 744.0000 1.0000
66.9300 745.0000 1.0000
66.9400 748.0000 1.0000
66.9500 744.0000 1.0000
66.9600 732.0000 1.0000
66.9700 686.0000 1.0000
66.9800 708.0000 1.0000
66.9900 733.0000 1.0000
67.0000 713.0000 1.0000
67.0100 683.0000 1.0000
67.0200 723.0000 1.0000
67.0300 704.0000 1.0000
67.0400 705.0000 1.0000
67.0500 684.0000 1.0000
67.0600 689.0000 1.0000
67.0700 680.0000 1.0000
67.0800 683.0000 1.0000
67.0900 698.0000 1.0000
67.1000 708.0000 1.0000
67.1100 666.0000 1.0000
67.1200 649.0000 1.0000
67.1300 713.0000 1.0000
67.1400 671.0000 1.0000
67.1500 700.0000 1.0000
67.1600 694.0000 1.0000
67.1700 675.0000 1.0000
67.1800 668.0000 1.0000
67.1900 649.0000 1.0000
67.2000 697.0000 1.0000
67.2100 651.0000 1.0000
67.2200 672.0000 1.0000
67.2300 651.0000 1.0000
67.2400 644.0000 1.0000
67.2500 680.0000 1.0000
67.2600 681.0000 1.0000
67.2700 652.0000 1.0000
67.2800 680.0000 1.0000
67.2900 660.0000 1.0000
67.3000 665.0000 1.0000
67.3100 646.0000 1.0000
67.3200 686.0000 1.0000
67.3300 625.0000 1.0000
67.3400 666.0000 1.0000
67.3500 672.0000 1.0000
67.3600 649.0000 1.0000
67.3700 665.0000 1.0000
67.3800 664.0000 1.0000
67.3900 715.0000 1.0000
67.4000 669.0000 1.0000
67.4100 702.0000 1.0000
67.4200 721.0000 1.0000
67.4300 632.0000 1.0000
67.4400 611.0000 1.0000
67.4500 638.0000 1.0000
67.4600 667.0000 1.0000
67.4700 688.0000 1.0000
67.4800 654.0000 1.0000
67.4900 631.0000 1.0000
67.5000 650.0000 1.0000
67.5100 663.0000 1.0000
67.5200 653.0000 1.0000
67.5300 643.0000 1.0000
67.5400 675.0000 1.0000
67.5500 636.0000 1.0000
67.5600 671.0000 1.0000
67.5700 656.0000 1.0000
67.5800 694.0000 1.0000
67.5900 663.0000 1.0000
67.6000 661.0000 1.0000
67.6100 657.0000 1.0000
67.6200 639.0000 1.0000
67.6300 636.0000 1.0000
67.6400 621.0000 1.0000
67.6500 602.0000 1.0000
67.6600 670.0000 1.0000
67.6700 676.0000 1.0000
67.6800 639.0000 1.0000
67.6900 618.0000 1.0000
67.7000 643.0000 1.0000
67.7100 645.0000 1.0000
67.7200 618.0000 1.0000
67.7300 664.0000 1.0000
67.7400 628.0000 1.0000
67.7500 657.0000 1.0000
67.7600 679.0000 1.0000
67.7700 655.0000 1.0000
67.7800 657.0000 1.0000
67.7900 650.0000 1.0000
67.8000 662.0000 1.0000
67.8100 644.0000 1.0000
67.8200 636.0000 1.0000
67.8300 626.0000 1.0000
67.8400 652.0000 1.0000
67.8500 641.0000 1.0000
67.8600 616.0000 1.0000
67.8700 632.0000 1.0000
67.8800 596.0000 1.0000
67.8900 601.0000 1.0000
67.9000 640.0000 1.0000
67.9100 629.0000 1.0000
67.9200 615.0000 1.0000
67.9300 687.0000 1.0000
67.9400 663.0000 1.0000
67.9500 650.0000 1.0000
67.9600 612.0000 1.0000
67.9700 645.0000 1.0000
67.9800 601.0000 1.0000
67.9900 676.0000 1.0000
68.0000 620.0000 1.0000
68.0100 624.0000 1.0000
68.0200 628.0000 1.0000
68.0300 643.0000 1.0000
68.0400 628.0000 1.0000
68.0500 631.0000 1.0000
68.0600 658.0000 1.0000
68.0700 652.0000 1.0000
68.0800 628.0000 1.0000
68.0900 656.0000 1.0000
68.1000 628.0000 1.0000
68.1100 606.0000 1.0000
68.1200 604.0000 1.0000
68.1300 616.0000 1.0000
68.1400 636.0000 1.0000
68.1500 645.0000 1.0000
68.1600 633.0000 1.0000
68.1700 629.0000 1.0000
68.1800 634.0000 1.0000
68.1900 665.0000 1.0000
68.2000 649.0000 1.0000
68.2100 630.0000 1.0000
68.2200 637.0000 1.0000
68.2300 636.0000 1.0000
68.2400 659.0000 1.0000
68.2500 638.0000 1.0000
68.2600 645.0000 1.0000
68.2700 610.0000 1.0000
68.2800 625.0000 1.0000
68.2900 633.0000 1.0000
68.3000 643.0000 1.0000
68.3100 645.0000 1.0000
68.3200 661.0000 1.0000
68.3300 647.0000 1.0000
68.3400 676.0000 1.0000
68.3500 615.0000 1.0000
68.3600 664.0000 1.0000
68.3700 647.0000 1.0000
68.3800 614.0000 1.0000
68.3900 595.0000 1.0000
68.4000 609.0000 1.0000
68.4100 612.0000 1.0000
68.4200 633.0000 1.0000
68.4300 641.0000 1.0000
68.4400 621.0000 1.0000
68.4500 595.0000 1.0000
68.4600 623.0000 1.0000
68.4700 607.0000 1.0000
68.4800 571.0000 1.0000
68.4900 634.0000 1.0000
68.5000 618.0000 1.0000
68.5100 593.0000 1.0000
68.5200 630.0000 1.0000
68.5300 613.0000 1.0000
68.5400 598.0000 1.0000
68.5500 599.0000 1.0000
68.5600 590.0000 1.0000
68.5700 591.0000 1.0000
68.5800 614.0000 1.0000
68.5900 624.0000 1.0000
68.6000 605.0000 1.0000
68.6100 577.0000 1.0000
68.6200 630.0000 1.0000
68.6300 601.0000 1.0000
68.6400 617.0000 1.0000
68.6500 645.0000 1.0000
68.6600 619.0000 1.0000
68.6700 600.0000 1.0000
68.6800 635.0000 1.0000
68.6900 605.0000 1.0000
68.7000 606.0000 1.0000
68.7100 570.0000 1.0000
68.7200 611.0000 1.0000
68.7300 623.0000 1.0000
68.7400 594.0000 1.0000
68.7500 601.0000 1.0000
68.7600 576.0000 1.0000
68.7700 623.0000 1.0000
68.7800 623.0000 1.0000
68.7900 603.0000 1.0000
68.8000 589.0000 1.0000
68.8100 643.0000 1.0000
68.8200 658.0000 1.0000
68.8300 618.0000 1.0000
68.8400 641.0000 1.0000
68.8500 613.0000 1.0000
68.8600 593.0000 1.0000
68.8700 651.0000 1.0000
68.8800 630.0000 1.0000
68.8900 603.0000 1.0000
68.9000 635.0000 1.0000
68.9100 596.0000 1.0000
68.9200 612.0000 1.0000
68.9300 584.0000 1.0000
68.9400 609.0000 1.0000
68.9500 599.0000 1.0000
68.9600 624.0000 1.0000
68.9700 567.0000 1.0000
68.9800 614.0000 1.0000
68.9900 652.0000 1.0000
69.0000 630.0000 1.0000
69.0100 582.0000 1.0000
69.0200 617.0000 1.0000
69.0300 658.0000 1.0000
69.0400 589.0000 1.0000
69.0500 614.0000 1.0000
69.0600 605.0000 1.0000
69.0700 603.0000 1.0000
69.0800 619.0000 1.0000
69.0900 601.0000 1.0000
69.1000 625.0000 1.0000
69.1100 651.0000 1.0000
69.1200 607.0000 1.0000
69.1300 632.0000 1.0000
69.1400 600.0000 1.0000
69.1500 601.0000 1.0000
69.1600 622.0000 1.0000
69.1700 587.0000 1.0000
69.1800 594.0000 1.0000
69.1900 586.0000 1.0000
69.2000 592.0000 1.0000
69.2100 607.0000 1.0000
69.2200 591.0000 1.0000
69.2300 625.0000 1.0000
69.2400 591.0000 1.0000
69.2500 592.0000 1.0000
69.2600 621.0000 1.0000
69.2700 589.0000 1.0000
69.2800 622.0000 1.0000
69.2900 634.0000 1.0000
69.3000 605.0000 1.0000
69.3100 615.0000 1.0000
69.3200 622.0000 1.0000
69.3300 577.0000 1.0000
69.3400 635.0000 1.0000
69.3500 592.0000 1.0000
69.3600 591.0000 1.0000
69.3700 600.0000 1.0000
69.3800 620.0000 1.0000
69.3900 636.0000 1.0000
69.4000 607.0000 1.0000
69.4100 592.0000 1.0000
69.4200 634.0000 1.0000
69.4300 619.0000 1.0000
69.4400 602.0000 1.0000
69.4500 621.0000 1.0000
69.4600 628.0000 1.0000
69.4700 577.0000 1.0000
69.4800 603.0000 1.0000
69.4900 579.0000 1.0000
69.5000 607.0000 1.0000
69.5100 619.0000 1.0000
69.5200 632.0000 1.0000
69.5300 613.0000 1.0000
69.5400 592.0000 1.0000
69.5500 594.0000 1.0000
69.5600 619.0000 1.0000
69.5700 633.0000 1.0000
69.5800 657.0000 1.0000
69.5900 648.0000 1.0000
69.6000 666.0000 1.0000
69.6100 655.0000 1.0000
69.6200 645.0000 1.0000
69.6300 617.0000 1.0000
69.6400 626.0000 1.0000
69.6500 625.0000 1.0000
69.6600 607.0000 1.0000
69.6700 638.0000 1.0000
69.6800 612.0000 1.0000
69.6900 611.0000 1.0000
69.7000 588.0000 1.0000
69.7100 609.0000 1.0000
69.7200 607.0000 1.0000
69.7300 597.0000 1.0000
69.7400 603.0000 1.0000
69.7500 603.0000 1.0000
69.7600 613.0000 1.0000
69.7700 606.0000 1.0000
69.7800 621.0000 1.0000
69.7900 621.0000 1.0000
69.8000 649.0000 1.0000
69.8100 626.0000 1.0000
69.8200 607.0000 1.0000
69.8300 583.0000 1.0000
69.8400 585.0000 1.0000
69.8500 586.0000 1.0000
69.8600 616.0000 1.0000
69.8700 637.0000 1.0000
69.8800 604.0000 1.0000
69.8900 592.0000 1.0000
69.9000 619.0000 1.0000
69.9100 589.0000 1.0000
69.9200 633.0000 1.0000
69.9300 598.0000 1.0000
69.9400 652.0000 1.0000
69.9500 590.0000 1.0000
69.9600 602.0000 1.0000
69.9700 610.0000 1.0000
69.9800 566.0000 1.0000
69.9900 593.0000 1.0000
70.0000 550.0000 1.0000
*RAS_INT_END
*RAS_TEMPERATURE_START
*RAS_TEMPERATURE_END
*RAS_DATA_END
