*RAS_DATA_START
*RAS_HEADER_START
*DISP_FMT_X "%.2f"
*DISP_FMT_Y "%.0f"
*DISP_FULLSCALE "13685.0000000000"
*DISP_LINE_COLOR "255.0000000000"
*DISP_LINE_STYLE "0.0000000000"
*DISP_LINE_WIDTH "0.2500000000"
*DISP_NOTE "測定データ-5"
*DISP_OFFSET_Y "0.0000000000"
*DISP_PEAKSEARCH_UNIT_Y "cps"
*DISP_RANGE_BOTTOM "0.0000000000"
*DISP_RANGE_LEFT "20.0000000000"
*DISP_RANGE_LOGCUTOFF "0.0100000000"
*DISP_RANGE_RIGHT "70.0000000000"
*DISP_RANGE_TOP "13685.0000000000"
*DISP_SCALE_MODE_Y "0.0000000000"
*DISP_TAB_NAME "2θ/θ"
*DISP_TITLE_Y "強度"
*DISP_UNIT_Y "cps"
*DISP_WINDOW_NAME "MSG_MACROENGINE"
*FILE_COMMENT " "
*FILE_MD5 ""
*FILE_MEMO " "
*FILE_OPERATOR "Administrator"
*FILE_SAMPLE " "
*FILE_TYPE "RAS_RAW"
*FILE_USERGROUP "システムマネージャ"
*FILE_VERSION "1.0000000000"
*HW_ATTACHMENT_ID "ATT0025"
*HW_ATTACHMENT_NAME "標準|Standard"
*HW_COUNTER_ID-0 "CUT0025"
*HW_COUNTER_ID-1 "CUT0020"
*HW_COUNTER_ID-2 "CUT0020"
*HW_COUNTER_ID-3 "CSL0021"
*HW_COUNTER_ID-4 "CMC0021"
*HW_COUNTER_NAME-0 "D/teX Ultra|D/teX Ultra"
*HW_COUNTER_NAME-1 "None|None"
*HW_COUNTER_NAME-2 "None|None"
*HW_COUNTER_NAME-3 "BBM|BBM"
*HW_COUNTER_NAME-4 "検出器モノクロメータ|Detector monochromator"
*HW_COUNTER_SELECT_NAME "D/teX Ultra|D/teX Ultra"
*HW_GONIOMETER_ID "GON0023"
*HW_GONIOMETER_NAME "SmartLab|SmartLab"
*HW_GONIOMETER_RADIUS-0 "90.0"
*HW_GONIOMETER_RADIUS-1 "114.0"
*HW_GONIOMETER_RADIUS-2 "190.0"
*HW_GONIOMETER_RADIUS-3 "300.0"
*HW_GONIOMETER_RADIUS-4 "187.0"
*HW_GONIOMETER_RADIUS-5 "300.0"
*HW_GONIOMETER_RADIUS-6 "113.0"
*HW_GONIOMETER_RADIUS-7 "331.0"
*HW_I_OPT_ID-0 "CBO0021"
*HW_I_OPT_ID-1 "ICR0023"
*HW_I_OPT_ID-2 "ISL0021"
*HW_I_OPT_ID-3 "ISO0021"
*HW_I_OPT_ID-4 "IAD0021"
*HW_I_OPT_ID-5 "IPR0001"
*HW_I_OPT_NAME-0 "CBOユニット|CBO unit"
*HW_I_OPT_NAME-1 "標準入射光学ユニット|Standard incident optical unit"
*HW_I_OPT_NAME-2 "標準入射スリットボックス|Standard incident slit box"
*HW_I_OPT_NAME-3 "入射平行スリット|Incident parallel slit"
*HW_I_OPT_NAME-4 "長手制限スリット|Length limiting slit"
*HW_I_OPT_NAME-5 "None|None"
*HW_R_ATTENUATER_AUTOMODE "0"
*HW_R_OPT_ID-0 "RSS0021"
*HW_R_OPT_ID-1 "RCR0023"
*HW_R_OPT_ID-2 "RSO0021"
*HW_R_OPT_ID-3 "RRS0021"
*HW_R_OPT_ID-4 "ATN0021"
*HW_R_OPT_ID-5 "RFL0021"
*HW_R_OPT_ID-6 "RAD0021"
*HW_R_OPT_NAME-0 "標準受光スリットボックス1|Standard receiving slit box # 1"
*HW_R_OPT_NAME-1 "標準受光光学ユニット1|Standard receiving unit # 1"
*HW_R_OPT_NAME-2 "標準受光光学ユニット2|Standard receiving optical unit # 2"
*HW_R_OPT_NAME-3 "標準受光スリットボックス2|Standard receiving slit box # 2"
*HW_R_OPT_NAME-4 "標準アッテネータ|Standard Attenuator"
*HW_R_OPT_NAME-5 "Cu Kβ|Cu K-beta"
*HW_R_OPT_NAME-6 "調整用受光スリット|Alignment receiving slit"
*HW_SAMPLE_HOLDER_ID "SMP0023"
*HW_SAMPLE_HOLDER_NAME "標準Zステージ|Standard Z stage"
*HW_XG_CURRENT_MAX "50"
*HW_XG_CURRENT_MIN "2"
*HW_XG_CURRENT_RESOLUTION "1"
*HW_XG_CURRENT_UNIT "mA"
*HW_XG_FOCUS "1mm x 10mm"
*HW_XG_FOCUS_TYPE "Normal"
*HW_XG_ID ""
*HW_XG_NAME "3kW 封入管(ID:1200)|3kW Sealed tube(ID:1200)"
*HW_XG_TARGET_ATOMIC_NUMBER "29.0000000000"
*HW_XG_TARGET_NAME "Cu"
*HW_XG_TYPE "Hermetic"
*HW_XG_VOLTAGE_MAX "60"
*HW_XG_VOLTAGE_MIN "20"
*HW_XG_VOLTAGE_RESOLUTION "1"
*HW_XG_VOLTAGE_UNIT "kV"
*HW_XG_WATT_MAX "1.500"
*HW_XG_WATT_UNIT "kW"
*HW_XG_WAVE_LENGTH_ALPHA1 "1.540593"
*HW_XG_WAVE_LENGTH_ALPHA2 "1.544414"
*HW_XG_WAVE_LENGTH_BETA "1.392250"
*MEAS_COND_AXIS_NAME-0 "2θ/θ"
*MEAS_COND_AXIS_NAME-1 "2θ"
*MEAS_COND_AXIS_NAME-2 "ω"
*MEAS_COND_AXIS_NAME-3 "Z"
*MEAS_COND_AXIS_NAME-4 "2θ/ω"
*MEAS_COND_AXIS_NAME-5 "θs"
*MEAS_COND_AXIS_NAME-6 "θd"
*MEAS_COND_AXIS_NAME-7 "Ts"
*MEAS_COND_AXIS_NAME-8 "CBO選択スリット"
*MEAS_COND_AXIS_NAME-9 "M"
*MEAS_COND_AXIS_NAME-10 "入射平行スリット"
*MEAS_COND_AXIS_NAME-11 "入射スリット"
*MEAS_COND_AXIS_NAME-12 ""
*MEAS_COND_AXIS_NAME-13 "Zs"
*MEAS_COND_AXIS_NAME-14 "入射光学素子"
*MEAS_COND_AXIS_NAME-15 "長手制限スリット"
*MEAS_COND_AXIS_NAME-16 "センタースリット"
*MEAS_COND_AXIS_NAME-17 "フィルター"
*MEAS_COND_AXIS_NAME-18 "受光スリット1"
*MEAS_COND_AXIS_NAME-19 "受光スリット2"
*MEAS_COND_AXIS_NAME-20 "受光光学素子"
*MEAS_COND_AXIS_NAME-21 "受光平行スリット"
*MEAS_COND_AXIS_NAME-22 "調整用受光スリット"
*MEAS_COND_AXIS_NAME-23 ""
*MEAS_COND_AXIS_NAME-24 ""
*MEAS_COND_AXIS_NAME-25 "Zd"
*MEAS_COND_AXIS_NAME-26 "アッテネータ"
*MEAS_COND_AXIS_NAME-27 "検出器モノクロメータ"
*MEAS_COND_AXIS_NAME-28 "モノクロメータスリット"
*MEAS_COND_AXIS_NAME-29 "プライマリビーム"
*MEAS_COND_AXIS_NAME-30 "PHA"
*MEAS_COND_AXIS_NAME_INTERNAL-0 "TwoThetaTheta"
*MEAS_COND_AXIS_NAME_INTERNAL-1 "TwoTheta"
*MEAS_COND_AXIS_NAME_INTERNAL-2 "Omega"
*MEAS_COND_AXIS_NAME_INTERNAL-3 "Z"
*MEAS_COND_AXIS_NAME_INTERNAL-4 "TwoThetaOmega"
*MEAS_COND_AXIS_NAME_INTERNAL-5 "ThetaS"
*MEAS_COND_AXIS_NAME_INTERNAL-6 "ThetaD"
*MEAS_COND_AXIS_NAME_INTERNAL-7 "Ts"
*MEAS_COND_AXIS_NAME_INTERNAL-8 "CBO"
*MEAS_COND_AXIS_NAME_INTERNAL-9 "CBO-M"
*MEAS_COND_AXIS_NAME_INTERNAL-10 "IncidentSollerSlit"
*MEAS_COND_AXIS_NAME_INTERNAL-11 "IncidentSlitBox"
*MEAS_COND_AXIS_NAME_INTERNAL-12 "IncidentSlitBox-_Axis"
*MEAS_COND_AXIS_NAME_INTERNAL-13 "Zs"
*MEAS_COND_AXIS_NAME_INTERNAL-14 "IncidentMonochromator"
*MEAS_COND_AXIS_NAME_INTERNAL-15 "IncidentAxdSlit"
*MEAS_COND_AXIS_NAME_INTERNAL-16 "CenterSlit"
*MEAS_COND_AXIS_NAME_INTERNAL-17 "Filter"
*MEAS_COND_AXIS_NAME_INTERNAL-18 "ReceivingSlitBox1"
*MEAS_COND_AXIS_NAME_INTERNAL-19 "ReceivingSlitBox2"
*MEAS_COND_AXIS_NAME_INTERNAL-20 "ReceivingOptics"
*MEAS_COND_AXIS_NAME_INTERNAL-21 "ReceivingSollerSlit"
*MEAS_COND_AXIS_NAME_INTERNAL-22 "ReceivingAxdSlit"
*MEAS_COND_AXIS_NAME_INTERNAL-23 "ReceivingSlitBox1-_Axis"
*MEAS_COND_AXIS_NAME_INTERNAL-24 "ReceivingSlitBox2-_Axis"
*MEAS_COND_AXIS_NAME_INTERNAL-25 "ReceivingSlitBox2-Zd"
*MEAS_COND_AXIS_NAME_INTERNAL-26 "Attenuator"
*MEAS_COND_AXIS_NAME_INTERNAL-27 "CounterMonochromator"
*MEAS_COND_AXIS_NAME_INTERNAL-28 "CounterSlit"
*MEAS_COND_AXIS_NAME_INTERNAL-29 "IncidentPrimary"
*MEAS_COND_AXIS_NAME_INTERNAL-30 "PHA"
*MEAS_COND_AXIS_NAME_MAGICNO-0 "83951616.0000000000"
*MEAS_COND_AXIS_NAME_MAGICNO-1 "268632064.0000000000"
*MEAS_COND_AXIS_NAME_MAGICNO-2 "268500992.0000000000"
*MEAS_COND_AXIS_NAME_MAGICNO-3 "285278208.0000000000"
*MEAS_COND_AXIS_NAME_MAGICNO-4 "83951616.0000000000"
*MEAS_COND_AXIS_NAME_MAGICNO-5 "131072.0000000000"
*MEAS_COND_AXIS_NAME_MAGICNO-6 "131072.0000000000"
*MEAS_COND_AXIS_NAME_MAGICNO-7 "318898176.0000000000"
*MEAS_COND_AXIS_NAME_MAGICNO-8 "20971521.0000000000"
*MEAS_COND_AXIS_NAME_MAGICNO-9 "285343744.0000000000"
*MEAS_COND_AXIS_NAME_MAGICNO-10 "20971521.0000000000"
*MEAS_COND_AXIS_NAME_MAGICNO-11 "22020097.0000000000"
*MEAS_COND_AXIS_NAME_MAGICNO-12 "25165824.0000000000"
*MEAS_COND_AXIS_NAME_MAGICNO-13 "318898176.0000000000"
*MEAS_COND_AXIS_NAME_MAGICNO-14 "1.0000000000"
*MEAS_COND_AXIS_NAME_MAGICNO-15 "20971521.0000000000"
*MEAS_COND_AXIS_NAME_MAGICNO-16 "20971521.0000000000"
*MEAS_COND_AXIS_NAME_MAGICNO-17 "20971521.0000000000"
*MEAS_COND_AXIS_NAME_MAGICNO-18 "23068673.0000000000"
*MEAS_COND_AXIS_NAME_MAGICNO-19 "23068673.0000000000"
*MEAS_COND_AXIS_NAME_MAGICNO-20 "20971521.0000000000"
*MEAS_COND_AXIS_NAME_MAGICNO-21 "20971521.0000000000"
*MEAS_COND_AXIS_NAME_MAGICNO-22 "20971521.0000000000"
*MEAS_COND_AXIS_NAME_MAGICNO-23 "25165824.0000000000"
*MEAS_COND_AXIS_NAME_MAGICNO-24 "25165824.0000000000"
*MEAS_COND_AXIS_NAME_MAGICNO-25 "285343744.0000000000"
*MEAS_COND_AXIS_NAME_MAGICNO-26 "17301505.0000000000"
*MEAS_COND_AXIS_NAME_MAGICNO-27 "20971521.0000000000"
*MEAS_COND_AXIS_NAME_MAGICNO-28 "20971521.0000000000"
*MEAS_COND_AXIS_NAME_MAGICNO-29 "20971521.0000000000"
*MEAS_COND_AXIS_NAME_MAGICNO-30 "0.0000000000"
*MEAS_COND_AXIS_OFFSET-0 "-"
*MEAS_COND_AXIS_OFFSET-1 "-0.1081000000"
*MEAS_COND_AXIS_OFFSET-2 "-1.4215000000"
*MEAS_COND_AXIS_OFFSET-3 "-"
*MEAS_COND_AXIS_OFFSET-4 "-"
*MEAS_COND_AXIS_OFFSET-5 "-1.4215000000"
*MEAS_COND_AXIS_OFFSET-6 "1.3134000000"
*MEAS_COND_AXIS_OFFSET-7 "-"
*MEAS_COND_AXIS_OFFSET-8 "-"
*MEAS_COND_AXIS_OFFSET-9 "-"
*MEAS_COND_AXIS_OFFSET-10 "-"
*MEAS_COND_AXIS_OFFSET-11 "-"
*MEAS_COND_AXIS_OFFSET-12 "-"
*MEAS_COND_AXIS_OFFSET-13 "-"
*MEAS_COND_AXIS_OFFSET-14 "-"
*MEAS_COND_AXIS_OFFSET-15 "-"
*MEAS_COND_AXIS_OFFSET-16 "-"
*MEAS_COND_AXIS_OFFSET-17 "-"
*MEAS_COND_AXIS_OFFSET-18 "-"
*MEAS_COND_AXIS_OFFSET-19 "-"
*MEAS_COND_AXIS_OFFSET-20 "-"
*MEAS_COND_AXIS_OFFSET-21 "-"
*MEAS_COND_AXIS_OFFSET-22 "-"
*MEAS_COND_AXIS_OFFSET-23 "-"
*MEAS_COND_AXIS_OFFSET-24 "-"
*MEAS_COND_AXIS_OFFSET-25 "-"
*MEAS_COND_AXIS_OFFSET-26 "-"
*MEAS_COND_AXIS_OFFSET-27 "-"
*MEAS_COND_AXIS_OFFSET-28 "-"
*MEAS_COND_AXIS_OFFSET-29 "-"
*MEAS_COND_AXIS_OFFSET-30 "-"
*MEAS_COND_AXIS_POSITION-0 "0.0000000000"
*MEAS_COND_AXIS_POSITION-1 "0.0000000000"
*MEAS_COND_AXIS_POSITION-2 "0.0000000000"
*MEAS_COND_AXIS_POSITION-3 "-2.3638400000"
*MEAS_COND_AXIS_POSITION-4 "0.0000000000"
*MEAS_COND_AXIS_POSITION-5 "0.0000000000"
*MEAS_COND_AXIS_POSITION-6 "0.0000000000"
*MEAS_COND_AXIS_POSITION-7 "-0.4278800000"
*MEAS_COND_AXIS_POSITION-8 "BB"
*MEAS_COND_AXIS_POSITION-9 "0.0000000000"
*MEAS_COND_AXIS_POSITION-10 "Soller_slit_5.0deg"
*MEAS_COND_AXIS_POSITION-11 "2/3deg"
*MEAS_COND_AXIS_POSITION-12 "2.2088000000"
*MEAS_COND_AXIS_POSITION-13 "-0.4140600000"
*MEAS_COND_AXIS_POSITION-14 "0.0000000000"
*MEAS_COND_AXIS_POSITION-15 "10.0mm"
*MEAS_COND_AXIS_POSITION-16 "None"
*MEAS_COND_AXIS_POSITION-17 "Cu_K-beta"
*MEAS_COND_AXIS_POSITION-18 "13.000mm"
*MEAS_COND_AXIS_POSITION-19 "13.000mm"
*MEAS_COND_AXIS_POSITION-20 "No_unit"
*MEAS_COND_AXIS_POSITION-21 "Soller_slit_5.0deg"
*MEAS_COND_AXIS_POSITION-22 "None"
*MEAS_COND_AXIS_POSITION-23 "13.0000000000"
*MEAS_COND_AXIS_POSITION-24 "13.0000000000"
*MEAS_COND_AXIS_POSITION-25 "0.0109400000"
*MEAS_COND_AXIS_POSITION-26 "Open"
*MEAS_COND_AXIS_POSITION-27 "None"
*MEAS_COND_AXIS_POSITION-28 "None"
*MEAS_COND_AXIS_POSITION-29 "None"
*MEAS_COND_AXIS_POSITION-30 "38.0000000000"
*MEAS_COND_AXIS_UNIT-0 "deg"
*MEAS_COND_AXIS_UNIT-1 "deg"
*MEAS_COND_AXIS_UNIT-2 "deg"
*MEAS_COND_AXIS_UNIT-3 "mm"
*MEAS_COND_AXIS_UNIT-4 "deg"
*MEAS_COND_AXIS_UNIT-5 "deg"
*MEAS_COND_AXIS_UNIT-6 "deg"
*MEAS_COND_AXIS_UNIT-7 "mm"
*MEAS_COND_AXIS_UNIT-8 ""
*MEAS_COND_AXIS_UNIT-9 "pulse"
*MEAS_COND_AXIS_UNIT-10 ""
*MEAS_COND_AXIS_UNIT-11 ""
*MEAS_COND_AXIS_UNIT-12 "mm"
*MEAS_COND_AXIS_UNIT-13 "mm"
*MEAS_COND_AXIS_UNIT-14 ""
*MEAS_COND_AXIS_UNIT-15 ""
*MEAS_COND_AXIS_UNIT-16 ""
*MEAS_COND_AXIS_UNIT-17 ""
*MEAS_COND_AXIS_UNIT-18 ""
*MEAS_COND_AXIS_UNIT-19 ""
*MEAS_COND_AXIS_UNIT-20 ""
*MEAS_COND_AXIS_UNIT-21 ""
*MEAS_COND_AXIS_UNIT-22 ""
*MEAS_COND_AXIS_UNIT-23 "mm"
*MEAS_COND_AXIS_UNIT-24 "mm"
*MEAS_COND_AXIS_UNIT-25 "mm"
*MEAS_COND_AXIS_UNIT-26 ""
*MEAS_COND_AXIS_UNIT-27 ""
*MEAS_COND_AXIS_UNIT-28 ""
*MEAS_COND_AXIS_UNIT-29 ""
*MEAS_COND_AXIS_UNIT-30 "div"
*MEAS_COND_COUNTER_CNTLOSS_CORR "0.0000000000"
*MEAS_COND_COUNTER_PHABASE "38.0000000000"
*MEAS_COND_COUNTER_PHAWINDOW "16.0000000000"
*MEAS_COND_COUNTER_PHA_UNIT "div"
*MEAS_COND_COUNTER_TAUDIFF "30.0000000000"
*MEAS_COND_COUNTER_TAUINT "0.0000000000"
*MEAS_COND_IRRADIATION_MODE "OFF"
*MEAS_COND_IRRADIATION_WIDTH ""
*MEAS_COND_OPT_ATTR "集中法"
*MEAS_COND_OPT_NAME "@集中法"
*MEAS_COND_UNSYMMETRIC_MODE "OFF"
*MEAS_COND_XG_CURRENT "30.0000000000"
*MEAS_COND_XG_VOLTAGE "40.0000000000"
*MEAS_COND_XG_WAVE_TYPE "Ka"
*MEAS_DATA_COUNT "5001.0000000000"
*MEAS_SCAN_AXIS_X "2θ/θ"
*MEAS_SCAN_AXIS_X_INTERNAL "TwoThetaTheta"
*MEAS_SCAN_END_TIME "06/03/22 13:22:33"
*MEAS_SCAN_MODE "CONTINUOUS"
*MEAS_SCAN_MONITOR "0"
*MEAS_SCAN_RESOLUTION_X "0.0002"
*MEAS_SCAN_SPEED "2.5"
*MEAS_SCAN_SPEED_UNIT "deg/min"
*MEAS_SCAN_START "20.0000000000"
*MEAS_SCAN_START_TIME "06/03/22 13:01:10"
*MEAS_SCAN_STEP "0.0100000000"
*MEAS_SCAN_STOP "70.0000000000"
*MEAS_SCAN_UNIT_X "deg"
*MEAS_SCAN_UNIT_Y "counts"
*RAS_HEADER_END
*RAS_INT_START
20.0000 760.0000 1.0000
20.0100 781.0000 1.0000
20.0200 736.0000 1.0000
20.0300 811.0000 1.0000
20.0400 807.0000 1.0000
20.0500 805.0000 1.0000
20.0600 806.0000 1.0000
20.0700 812.0000 1.0000
20.0800 799.0000 1.0000
20.0900 755.0000 1.0000
20.1000 808.0000 1.0000
20.1100 820.0000 1.0000
20.1200 805.0000 1.0000
20.1300 809.0000 1.0000
20.1400 836.0000 1.0000
20.1500 785.0000 1.0000
20.1600 815.0000 1.0000
20.1700 764.0000 1.0000
20.1800 784.0000 1.0000
20.1900 823.0000 1.0000
20.2000 788.0000 1.0000
20.2100 815.0000 1.0000
20.2200 790.0000 1.0000
20.2300 771.0000 1.0000
20.2400 756.0000 1.0000
20.2500 791.0000 1.0000
20.2600 736.0000 1.0000
20.2700 810.0000 1.0000
20.2800 769.0000 1.0000
20.2900 807.0000 1.0000
20.3000 776.0000 1.0000
20.3100 834.0000 1.0000
20.3200 766.0000 1.0000
20.3300 767.0000 1.0000
20.3400 788.0000 1.0000
20.3500 771.0000 1.0000
20.3600 779.0000 1.0000
20.3700 835.0000 1.0000
20.3800 791.0000 1.0000
20.3900 748.0000 1.0000
20.4000 803.0000 1.0000
20.4100 818.0000 1.0000
20.4200 817.0000 1.0000
20.4300 809.0000 1.0000
20.4400 807.0000 1.0000
20.4500 763.0000 1.0000
20.4600 805.0000 1.0000
20.4700 802.0000 1.0000
20.4800 795.0000 1.0000
20.4900 784.0000 1.0000
20.5000 772.0000 1.0000
20.5100 773.0000 1.0000
20.5200 788.0000 1.0000
20.5300 753.0000 1.0000
20.5400 790.0000 1.0000
20.5500 795.0000 1.0000
20.5600 812.0000 1.0000
20.5700 804.0000 1.0000
20.5800 763.0000 1.0000
20.5900 780.0000 1.0000
20.6000 784.0000 1.0000
20.6100 725.0000 1.0000
20.6200 777.0000 1.0000
20.6300 798.0000 1.0000
20.6400 802.0000 1.0000
20.6500 748.0000 1.0000
20.6600 777.0000 1.0000
20.6700 782.0000 1.0000
20.6800 786.0000 1.0000
20.6900 773.0000 1.0000
20.7000 794.0000 1.0000
20.7100 780.0000 1.0000
20.7200 766.0000 1.0000
20.7300 775.0000 1.0000
20.7400 820.0000 1.0000
20.7500 802.0000 1.0000
20.7600 801.0000 1.0000
20.7700 837.0000 1.0000
20.7800 796.0000 1.0000
20.7900 807.0000 1.0000
20.8000 849.0000 1.0000
20.8100 829.0000 1.0000
20.8200 812.0000 1.0000
20.8300 774.0000 1.0000
20.8400 759.0000 1.0000
20.8500 811.0000 1.0000
20.8600 790.0000 1.0000
20.8700 754.0000 1.0000
20.8800 801.0000 1.0000
20.8900 799.0000 1.0000
20.9000 773.0000 1.0000
20.9100 743.0000 1.0000
20.9200 759.0000 1.0000
20.9300 804.0000 1.0000
20.9400 815.0000 1.0000
20.9500 756.0000 1.0000
20.9600 761.0000 1.0000
20.9700 784.0000 1.0000
20.9800 791.0000 1.0000
20.9900 802.0000 1.0000
21.0000 812.0000 1.0000
21.0100 776.0000 1.0000
21.0200 773.0000 1.0000
21.0300 742.0000 1.0000
21.0400 767.0000 1.0000
21.0500 800.0000 1.0000
21.0600 798.0000 1.0000
21.0700 792.0000 1.0000
21.0800 775.0000 1.0000
21.0900 757.0000 1.0000
21.1000 733.0000 1.0000
21.1100 779.0000 1.0000
21.1200 781.0000 1.0000
21.1300 796.0000 1.0000
21.1400 797.0000 1.0000
21.1500 799.0000 1.0000
21.1600 795.0000 1.0000
21.1700 761.0000 1.0000
21.1800 773.0000 1.0000
21.1900 819.0000 1.0000
21.2000 805.0000 1.0000
21.2100 760.0000 1.0000
21.2200 731.0000 1.0000
21.2300 797.0000 1.0000
21.2400 782.0000 1.0000
21.2500 757.0000 1.0000
21.2600 773.0000 1.0000
21.2700 786.0000 1.0000
21.2800 789.0000 1.0000
21.2900 807.0000 1.0000
21.3000 783.0000 1.0000
21.3100 746.0000 1.0000
21.3200 747.0000 1.0000
21.3300 807.0000 1.0000
21.3400 766.0000 1.0000
21.3500 792.0000 1.0000
21.3600 792.0000 1.0000
21.3700 761.0000 1.0000
21.3800 817.0000 1.0000
21.3900 849.0000 1.0000
21.4000 770.0000 1.0000
21.4100 765.0000 1.0000
21.4200 809.0000 1.0000
21.4300 763.0000 1.0000
21.4400 795.0000 1.0000
21.4500 786.0000 1.0000
21.4600 830.0000 1.0000
21.4700 818.0000 1.0000
21.4800 827.0000 1.0000
21.4900 768.0000 1.0000
21.5000 780.0000 1.0000
21.5100 774.0000 1.0000
21.5200 761.0000 1.0000
21.5300 787.0000 1.0000
21.5400 731.0000 1.0000
21.5500 774.0000 1.0000
21.5600 802.0000 1.0000
21.5700 791.0000 1.0000
21.5800 792.0000 1.0000
21.5900 783.0000 1.0000
21.6000 788.0000 1.0000
21.6100 810.0000 1.0000
21.6200 779.0000 1.0000
21.6300 820.0000 1.0000
21.6400 807.0000 1.0000
21.6500 773.0000 1.0000
21.6600 791.0000 1.0000
21.6700 757.0000 1.0000
21.6800 765.0000 1.0000
21.6900 747.0000 1.0000
21.7000 772.0000 1.0000
21.7100 815.0000 1.0000
21.7200 802.0000 1.0000
21.7300 803.0000 1.0000
21.7400 789.0000 1.0000
21.7500 747.0000 1.0000
21.7600 768.0000 1.0000
21.7700 819.0000 1.0000
21.7800 797.0000 1.0000
21.7900 758.0000 1.0000
21.8000 802.0000 1.0000
21.8100 780.0000 1.0000
21.8200 760.0000 1.0000
21.8300 790.0000 1.0000
21.8400 747.0000 1.0000
21.8500 763.0000 1.0000
21.8600 778.0000 1.0000
21.8700 748.0000 1.0000
21.8800 798.0000 1.0000
21.8900 812.0000 1.0000
21.9000 815.0000 1.0000
21.9100 773.0000 1.0000
21.9200 785.0000 1.0000
21.9300 768.0000 1.0000
21.9400 785.0000 1.0000
21.9500 764.0000 1.0000
21.9600 774.0000 1.0000
21.9700 744.0000 1.0000
21.9800 749.0000 1.0000
21.9900 787.0000 1.0000
22.0000 768.0000 1.0000
22.0100 774.0000 1.0000
22.0200 762.0000 1.0000
22.0300 721.0000 1.0000
22.0400 774.0000 1.0000
22.0500 755.0000 1.0000
22.0600 795.0000 1.0000
22.0700 785.0000 1.0000
22.0800 805.0000 1.0000
22.0900 808.0000 1.0000
22.1000 764.0000 1.0000
22.1100 716.0000 1.0000
22.1200 740.0000 1.0000
22.1300 808.0000 1.0000
22.1400 738.0000 1.0000
22.1500 750.0000 1.0000
22.1600 772.0000 1.0000
22.1700 785.0000 1.0000
22.1800 758.0000 1.0000
22.1900 727.0000 1.0000
22.2000 769.0000 1.0000
22.2100 743.0000 1.0000
22.2200 739.0000 1.0000
22.2300 742.0000 1.0000
22.2400 794.0000 1.0000
22.2500 763.0000 1.0000
22.2600 802.0000 1.0000
22.2700 782.0000 1.0000
22.2800 758.0000 1.0000
22.2900 768.0000 1.0000
22.3000 763.0000 1.0000
22.3100 732.0000 1.0000
22.3200 740.0000 1.0000
22.3300 794.0000 1.0000
22.3400 763.0000 1.0000
22.3500 744.0000 1.0000
22.3600 737.0000 1.0000
22.3700 765.0000 1.0000
22.3800 803.0000 1.0000
22.3900 764.0000 1.0000
22.4000 781.0000 1.0000
22.4100 784.0000 1.0000
22.4200 796.0000 1.0000
22.4300 768.0000 1.0000
22.4400 795.0000 1.0000
22.4500 794.0000 1.0000
22.4600 746.0000 1.0000
22.4700 747.0000 1.0000
22.4800 727.0000 1.0000
22.4900 755.0000 1.0000
22.5000 759.0000 1.0000
22.5100 775.0000 1.0000
22.5200 803.0000 1.0000
22.5300 736.0000 1.0000
22.5400 738.0000 1.0000
22.5500 818.0000 1.0000
22.5600 758.0000 1.0000
22.5700 787.0000 1.0000
22.5800 748.0000 1.0000
22.5900 792.0000 1.0000
22.6000 769.0000 1.0000
22.6100 824.0000 1.0000
22.6200 757.0000 1.0000
22.6300 753.0000 1.0000
22.6400 802.0000 1.0000
22.6500 775.0000 1.0000
22.6600 741.0000 1.0000
22.6700 774.0000 1.0000
22.6800 777.0000 1.0000
22.6900 785.0000 1.0000
22.7000 785.0000 1.0000
22.7100 795.0000 1.0000
22.7200 810.0000 1.0000
22.7300 798.0000 1.0000
22.7400 797.0000 1.0000
22.7500 751.0000 1.0000
22.7600 788.0000 1.0000
22.7700 790.0000 1.0000
22.7800 778.0000 1.0000
22.7900 769.0000 1.0000
22.8000 782.0000 1.0000
22.8100 754.0000 1.0000
22.8200 752.0000 1.0000
22.8300 792.0000 1.0000
22.8400 784.0000 1.0000
22.8500 746.0000 1.0000
22.8600 742.0000 1.0000
22.8700 780.0000 1.0000
22.8800 727.0000 1.0000
22.8900 757.0000 1.0000
22.9000 790.0000 1.0000
22.9100 777.0000 1.0000
22.9200 792.0000 1.0000
22.9300 799.0000 1.0000
22.9400 777.0000 1.0000
22.9500 782.0000 1.0000
22.9600 775.0000 1.0000
22.9700 750.0000 1.0000
22.9800 761.0000 1.0000
22.9900 751.0000 1.0000
23.0000 781.0000 1.0000
23.0100 733.0000 1.0000
23.0200 790.0000 1.0000
23.0300 791.0000 1.0000
23.0400 780.0000 1.0000
23.0500 762.0000 1.0000
23.0600 740.0000 1.0000
23.0700 747.0000 1.0000
23.0800 688.0000 1.0000
23.0900 789.0000 1.0000
23.1000 735.0000 1.0000
23.1100 768.0000 1.0000
23.1200 798.0000 1.0000
23.1300 765.0000 1.0000
23.1400 771.0000 1.0000
23.1500 755.0000 1.0000
23.1600 770.0000 1.0000
23.1700 748.0000 1.0000
23.1800 773.0000 1.0000
23.1900 755.0000 1.0000
23.2000 759.0000 1.0000
23.2100 782.0000 1.0000
23.2200 794.0000 1.0000
23.2300 748.0000 1.0000
23.2400 749.0000 1.0000
23.2500 764.0000 1.0000
23.2600 762.0000 1.0000
23.2700 751.0000 1.0000
23.2800 758.0000 1.0000
23.2900 796.0000 1.0000
23.3000 784.0000 1.0000
23.3100 751.0000 1.0000
23.3200 744.0000 1.0000
23.3300 747.0000 1.0000
23.3400 775.0000 1.0000
23.3500 747.0000 1.0000
23.3600 738.0000 1.0000
23.3700 727.0000 1.0000
23.3800 751.0000 1.0000
23.3900 757.0000 1.0000
23.4000 752.0000 1.0000
23.4100 737.0000 1.0000
23.4200 742.0000 1.0000
23.4300 742.0000 1.0000
23.4400 736.0000 1.0000
23.4500 755.0000 1.0000
23.4600 742.0000 1.0000
23.4700 781.0000 1.0000
23.4800 753.0000 1.0000
23.4900 744.0000 1.0000
23.5000 783.0000 1.0000
23.5100 761.0000 1.0000
23.5200 814.0000 1.0000
23.5300 775.0000 1.0000
23.5400 736.0000 1.0000
23.5500 773.0000 1.0000
23.5600 746.0000 1.0000
23.5700 755.0000 1.0000
23.5800 758.0000 1.0000
23.5900 747.0000 1.0000
23.6000 763.0000 1.0000
23.6100 753.0000 1.0000
23.6200 780.0000 1.0000
23.6300 778.0000 1.0000
23.6400 750.0000 1.0000
23.6500 754.0000 1.0000
23.6600 763.0000 1.0000
23.6700 771.0000 1.0000
23.6800 769.0000 1.0000
23.6900 768.0000 1.0000
23.7000 790.0000 1.0000
23.7100 804.0000 1.0000
23.7200 745.0000 1.0000
23.7300 754.0000 1.0000
23.7400 757.0000 1.0000
23.7500 798.0000 1.0000
23.7600 756.0000 1.0000
23.7700 705.0000 1.0000
23.7800 774.0000 1.0000
23.7900 785.0000 1.0000
23.8000 773.0000 1.0000
23.8100 759.0000 1.0000
23.8200 757.0000 1.0000
23.8300 764.0000 1.0000
23.8400 770.0000 1.0000
23.8500 759.0000 1.0000
23.8600 754.0000 1.0000
23.8700 700.0000 1.0000
23.8800 743.0000 1.0000
23.8900 774.0000 1.0000
23.9000 785.0000 1.0000
23.9100 812.0000 1.0000
23.9200 773.0000 1.0000
23.9300 786.0000 1.0000
23.9400 719.0000 1.0000
23.9500 727.0000 1.0000
23.9600 764.0000 1.0000
23.9700 829.0000 1.0000
23.9800 768.0000 1.0000
23.9900 794.0000 1.0000
24.0000 757.0000 1.0000
24.0100 802.0000 1.0000
24.0200 772.0000 1.0000
24.0300 814.0000 1.0000
24.0400 798.0000 1.0000
24.0500 736.0000 1.0000
24.0600 754.0000 1.0000
24.0700 750.0000 1.0000
24.0800 745.0000 1.0000
24.0900 790.0000 1.0000
24.1000 767.0000 1.0000
24.1100 767.0000 1.0000
24.1200 785.0000 1.0000
24.1300 783.0000 1.0000
24.1400 824.0000 1.0000
24.1500 809.0000 1.0000
24.1600 795.0000 1.0000
24.1700 811.0000 1.0000
24.1800 856.0000 1.0000
24.1900 819.0000 1.0000
24.2000 756.0000 1.0000
24.2100 797.0000 1.0000
24.2200 832.0000 1.0000
24.2300 834.0000 1.0000
24.2400 828.0000 1.0000
24.2500 821.0000 1.0000
24.2600 782.0000 1.0000
24.2700 801.0000 1.0000
24.2800 818.0000 1.0000
24.2900 844.0000 1.0000
24.3000 797.0000 1.0000
24.3100 809.0000 1.0000
24.3200 811.0000 1.0000
24.3300 858.0000 1.0000
24.3400 775.0000 1.0000
24.3500 861.0000 1.0000
24.3600 837.0000 1.0000
24.3700 785.0000 1.0000
24.3800 790.0000 1.0000
24.3900 800.0000 1.0000
24.4000 770.0000 1.0000
24.4100 783.0000 1.0000
24.4200 803.0000 1.0000
24.4300 761.0000 1.0000
24.4400 735.0000 1.0000
24.4500 771.0000 1.0000
24.4600 765.0000 1.0000
24.4700 784.0000 1.0000
24.4800 798.0000 1.0000
24.4900 796.0000 1.0000
24.5000 771.0000 1.0000
24.5100 774.0000 1.0000
24.5200 780.0000 1.0000
24.5300 810.0000 1.0000
24.5400 753.0000 1.0000
24.5500 772.0000 1.0000
24.5600 749.0000 1.0000
24.5700 747.0000 1.0000
24.5800 717.0000 1.0000
24.5900 779.0000 1.0000
24.6000 764.0000 1.0000
24.6100 769.0000 1.0000
24.6200 768.0000 1.0000
24.6300 784.0000 1.0000
24.6400 739.0000 1.0000
24.6500 757.0000 1.0000
24.6600 778.0000 1.0000
24.6700 738.0000 1.0000
24.6800 753.0000 1.0000
24.6900 741.0000 1.0000
24.7000 757.0000 1.0000
24.7100 710.0000 1.0000
24.7200 737.0000 1.0000
24.7300 747.0000 1.0000
24.7400 738.0000 1.0000
24.7500 785.0000 1.0000
24.7600 747.0000 1.0000
24.7700 765.0000 1.0000
24.7800 696.0000 1.0000
24.7900 758.0000 1.0000
24.8000 747.0000 1.0000
24.8100 751.0000 1.0000
24.8200 749.0000 1.0000
24.8300 763.0000 1.0000
24.8400 717.0000 1.0000
24.8500 671.0000 1.0000
24.8600 739.0000 1.0000
24.8700 709.0000 1.0000
24.8800 746.0000 1.0000
24.8900 769.0000 1.0000
24.9000 737.0000 1.0000
24.9100 759.0000 1.0000
24.9200 772.0000 1.0000
24.9300 772.0000 1.0000
24.9400 774.0000 1.0000
24.9500 761.0000 1.0000
24.9600 711.0000 1.0000
24.9700 722.0000 1.0000
24.9800 732.0000 1.0000
24.9900 734.0000 1.0000
25.0000 739.0000 1.0000
25.0100 720.0000 1.0000
25.0200 759.0000 1.0000
25.0300 684.0000 1.0000
25.0400 716.0000 1.0000
25.0500 748.0000 1.0000
25.0600 771.0000 1.0000
25.0700 748.0000 1.0000
25.0800 753.0000 1.0000
25.0900 724.0000 1.0000
25.1000 727.0000 1.0000
25.1100 735.0000 1.0000
25.1200 766.0000 1.0000
25.1300 721.0000 1.0000
25.1400 747.0000 1.0000
25.1500 718.0000 1.0000
25.1600 787.0000 1.0000
25.1700 793.0000 1.0000
25.1800 754.0000 1.0000
25.1900 695.0000 1.0000
25.2000 691.0000 1.0000
25.2100 705.0000 1.0000
25.2200 732.0000 1.0000
25.2300 750.0000 1.0000
25.2400 735.0000 1.0000
25.2500 695.0000 1.0000
25.2600 753.0000 1.0000
25.2700 759.0000 1.0000
25.2800 771.0000 1.0000
25.2900 725.0000 1.0000
25.3000 743.0000 1.0000
25.3100 733.0000 1.0000
25.3200 753.0000 1.0000
25.3300 714.0000 1.0000
25.3400 747.0000 1.0000
25.3500 759.0000 1.0000
25.3600 748.0000 1.0000
25.3700 720.0000 1.0000
25.3800 706.0000 1.0000
25.3900 687.0000 1.0000
25.4000 696.0000 1.0000
25.4100 683.0000 1.0000
25.4200 706.0000 1.0000
25.4300 729.0000 1.0000
25.4400 704.0000 1.0000
25.4500 706.0000 1.0000
25.4600 718.0000 1.0000
25.4700 707.0000 1.0000
25.4800 735.0000 1.0000
25.4900 713.0000 1.0000
25.5000 726.0000 1.0000
25.5100 773.0000 1.0000
25.5200 748.0000 1.0000
25.5300 728.0000 1.0000
25.5400 722.0000 1.0000
25.5500 721.0000 1.0000
25.5600 750.0000 1.0000
25.5700 692.0000 1.0000
25.5800 713.0000 1.0000
25.5900 710.0000 1.0000
25.6000 695.0000 1.0000
25.6100 752.0000 1.0000
25.6200 750.0000 1.0000
25.6300 754.0000 1.0000
25.6400 721.0000 1.0000
25.6500 745.0000 1.0000
25.6600 703.0000 1.0000
25.6700 707.0000 1.0000
25.6800 732.0000 1.0000
25.6900 719.0000 1.0000
25.7000 726.0000 1.0000
25.7100 751.0000 1.0000
25.7200 710.0000 1.0000
25.7300 729.0000 1.0000
25.7400 722.0000 1.0000
25.7500 748.0000 1.0000
25.7600 727.0000 1.0000
25.7700 764.0000 1.0000
25.7800 764.0000 1.0000
25.7900 730.0000 1.0000
25.8000 744.0000 1.0000
25.8100 785.0000 1.0000
25.8200 728.0000 1.0000
25.8300 705.0000 1.0000
25.8400 693.0000 1.0000
25.8500 759.0000 1.0000
25.8600 742.0000 1.0000
25.8700 730.0000 1.0000
25.8800 767.0000 1.0000
25.8900 752.0000 1.0000
25.9000 746.0000 1.0000
25.9100 772.0000 1.0000
25.9200 749.0000 1.0000
25.9300 761.0000 1.0000
25.9400 766.0000 1.0000
25.9500 748.0000 1.0000
25.9600 728.0000 1.0000
25.9700 751.0000 1.0000
25.9800 724.0000 1.0000
25.9900 786.0000 1.0000
26.0000 767.0000 1.0000
26.0100 720.0000 1.0000
26.0200 730.0000 1.0000
26.0300 757.0000 1.0000
26.0400 749.0000 1.0000
26.0500 721.0000 1.0000
26.0600 720.0000 1.0000
26.0700 742.0000 1.0000
26.0800 798.0000 1.0000
26.0900 779.0000 1.0000
26.1000 789.0000 1.0000
26.1100 782.0000 1.0000
26.1200 802.0000 1.0000
26.1300 793.0000 1.0000
26.1400 789.0000 1.0000
26.1500 796.0000 1.0000
26.1600 737.0000 1.0000
26.1700 777.0000 1.0000
26.1800 831.0000 1.0000
26.1900 784.0000 1.0000
26.2000 825.0000 1.0000
26.2100 810.0000 1.0000
26.2200 831.0000 1.0000
26.2300 840.0000 1.0000
26.2400 833.0000 1.0000
26.2500 828.0000 1.0000
26.2600 888.0000 1.0000
26.2700 802.0000 1.0000
26.2800 760.0000 1.0000
26.2900 846.0000 1.0000
26.3000 871.0000 1.0000
26.3100 895.0000 1.0000
26.3200 902.0000 1.0000
26.3300 902.0000 1.0000
26.3400 933.0000 1.0000
26.3500 931.0000 1.0000
26.3600 945.0000 1.0000
26.3700 1004.0000 1.0000
26.3800 972.0000 1.0000
26.3900 1042.0000 1.0000
26.4000 1037.0000 1.0000
26.4100 1133.0000 1.0000
26.4200 1134.0000 1.0000
26.4300 1134.0000 1.0000
26.4400 1180.0000 1.0000
26.4500 1266.0000 1.0000
26.4600 1225.0000 1.0000
26.4700 1272.0000 1.0000
26.4800 1343.0000 1.0000
26.4900 1428.0000 1.0000
26.5000 1550.0000 1.0000
26.5100 1618.0000 1.0000
26.5200 1695.0000 1.0000
26.5300 1803.0000 1.0000
26.5400 1884.0000 1.0000
26.5500 2052.0000 1.0000
26.5600 2146.0000 1.0000
26.5700 2274.0000 1.0000
26.5800 2396.0000 1.0000
26.5900 2402.0000 1.0000
26.6000 2513.0000 1.0000
26.6100 2602.0000 1.0000
26.6200 2632.0000 1.0000
26.6300 2696.0000 1.0000
26.6400 2736.0000 1.0000
26.6500 2647.0000 1.0000
26.6600 2737.0000 1.0000
26.6700 2629.0000 1.0000
26.6800 2572.0000 1.0000
26.6900 2493.0000 1.0000
26.7000 2391.0000 1.0000
26.7100 2254.0000 1.0000
26.7200 2114.0000 1.0000
26.7300 2045.0000 1.0000
26.7400 1988.0000 1.0000
26.7500 1878.0000 1.0000
26.7600 1743.0000 1.0000
26.7700 1603.0000 1.0000
26.7800 1547.0000 1.0000
26.7900 1522.0000 1.0000
26.8000 1442.0000 1.0000
26.8100 1385.0000 1.0000
26.8200 1248.0000 1.0000
26.8300 1236.0000 1.0000
26.8400 1220.0000 1.0000
26.8500 1189.0000 1.0000
26.8600 1151.0000 1.0000
26.8700 1079.0000 1.0000
26.8800 1099.0000 1.0000
26.8900 1016.0000 1.0000
26.9000 974.0000 1.0000
26.9100 988.0000 1.0000
26.9200 1015.0000 1.0000
26.9300 977.0000 1.0000
26.9400 932.0000 1.0000
26.9500 906.0000 1.0000
26.9600 882.0000 1.0000
26.9700 889.0000 1.0000
26.9800 861.0000 1.0000
26.9900 873.0000 1.0000
27.0000 873.0000 1.0000
27.0100 856.0000 1.0000
27.0200 808.0000 1.0000
27.0300 861.0000 1.0000
27.0400 838.0000 1.0000
27.0500 809.0000 1.0000
27.0600 789.0000 1.0000
27.0700 769.0000 1.0000
27.0800 784.0000 1.0000
27.0900 785.0000 1.0000
27.1000 788.0000 1.0000
27.1100 763.0000 1.0000
27.1200 783.0000 1.0000
27.1300 751.0000 1.0000
27.1400 721.0000 1.0000
27.1500 778.0000 1.0000
27.1600 814.0000 1.0000
27.1700 770.0000 1.0000
27.1800 730.0000 1.0000
27.1900 765.0000 1.0000
27.2000 743.0000 1.0000
27.2100 763.0000 1.0000
27.2200 755.0000 1.0000
27.2300 789.0000 1.0000
27.2400 742.0000 1.0000
27.2500 714.0000 1.0000
27.2600 676.0000 1.0000
27.2700 735.0000 1.0000
27.2800 723.0000 1.0000
27.2900 732.0000 1.0000
27.3000 733.0000 1.0000
27.3100 683.0000 1.0000
27.3200 699.0000 1.0000
27.3300 747.0000 1.0000
27.3400 715.0000 1.0000
27.3500 719.0000 1.0000
27.3600 723.0000 1.0000
27.3700 665.0000 1.0000
27.3800 708.0000 1.0000
27.3900 721.0000 1.0000
27.4000 700.0000 1.0000
27.4100 722.0000 1.0000
27.4200 744.0000 1.0000
27.4300 727.0000 1.0000
27.4400 698.0000 1.0000
27.4500 676.0000 1.0000
27.4600 710.0000 1.0000
27.4700 673.0000 1.0000
27.4800 714.0000 1.0000
27.4900 699.0000 1.0000
27.5000 701.0000 1.0000
27.5100 707.0000 1.0000
27.5200 657.0000 1.0000
27.5300 678.0000 1.0000
27.5400 676.0000 1.0000
27.5500 732.0000 1.0000
27.5600 684.0000 1.0000
27.5700 694.0000 1.0000
27.5800 680.0000 1.0000
27.5900 719.0000 1.0000
27.6000 689.0000 1.0000
27.6100 674.0000 1.0000
27.6200 663.0000 1.0000
27.6300 673.0000 1.0000
27.6400 708.0000 1.0000
27.6500 659.0000 1.0000
27.6600 673.0000 1.0000
27.6700 696.0000 1.0000
27.6800 694.0000 1.0000
27.6900 699.0000 1.0000
27.7000 653.0000 1.0000
27.7100 671.0000 1.0000
27.7200 651.0000 1.0000
27.7300 667.0000 1.0000
27.7400 654.0000 1.0000
27.7500 656.0000 1.0000
27.7600 669.0000 1.0000
27.7700 704.0000 1.0000
27.7800 696.0000 1.0000
27.7900 645.0000 1.0000
27.8000 683.0000 1.0000
27.8100 700.0000 1.0000
27.8200 707.0000 1.0000
27.8300 703.0000 1.0000
27.8400 725.0000 1.0000
27.8500 636.0000 1.0000
27.8600 676.0000 1.0000
27.8700 680.0000 1.0000
27.8800 659.0000 1.0000
27.8900 642.0000 1.0000
27.9000 675.0000 1.0000
27.9100 638.0000 1.0000
27.9200 679.0000 1.0000
27.9300 658.0000 1.0000
27.9400 678.0000 1.0000
27.9500 658.0000 1.0000
27.9600 648.0000 1.0000
27.9700 629.0000 1.0000
27.9800 642.0000 1.0000
27.9900 673.0000 1.0000
28.0000 633.0000 1.0000
28.0100 612.0000 1.0000
28.0200 690.0000 1.0000
28.0300 690.0000 1.0000
28.0400 685.0000 1.0000
28.0500 669.0000 1.0000
28.0600 690.0000 1.0000
28.0700 629.0000 1.0000
28.0800 631.0000 1.0000
28.0900 667.0000 1.0000
28.1000 634.0000 1.0000
28.1100 662.0000 1.0000
28.1200 615.0000 1.0000
28.1300 626.0000 1.0000
28.1400 639.0000 1.0000
28.1500 597.0000 1.0000
28.1600 633.0000 1.0000
28.1700 679.0000 1.0000
28.1800 616.0000 1.0000
28.1900 662.0000 1.0000
28.2000 661.0000 1.0000
28.2100 639.0000 1.0000
28.2200 644.0000 1.0000
28.2300 639.0000 1.0000
28.2400 670.0000 1.0000
28.2500 646.0000 1.0000
28.2600 657.0000 1.0000
28.2700 638.0000 1.0000
28.2800 622.0000 1.0000
28.2900 681.0000 1.0000
28.3000 644.0000 1.0000
28.3100 610.0000 1.0000
28.3200 647.0000 1.0000
28.3300 647.0000 1.0000
28.3400 656.0000 1.0000
28.3500 650.0000 1.0000
28.3600 665.0000 1.0000
28.3700 669.0000 1.0000
28.3800 658.0000 1.0000
28.3900 638.0000 1.0000
28.4000 645.0000 1.0000
28.4100 622.0000 1.0000
28.4200 648.0000 1.0000
28.4300 673.0000 1.0000
28.4400 650.0000 1.0000
28.4500 661.0000 1.0000
28.4600 644.0000 1.0000
28.4700 608.0000 1.0000
28.4800 658.0000 1.0000
28.4900 679.0000 1.0000
28.5000 671.0000 1.0000
28.5100 662.0000 1.0000
28.5200 650.0000 1.0000
28.5300 638.0000 1.0000
28.5400 643.0000 1.0000
28.5500 640.0000 1.0000
28.5600 638.0000 1.0000
28.5700 638.0000 1.0000
28.5800 622.0000 1.0000
28.5900 633.0000 1.0000
28.6000 630.0000 1.0000
28.6100 642.0000 1.0000
28.6200 639.0000 1.0000
28.6300 631.0000 1.0000
28.6400 645.0000 1.0000
28.6500 663.0000 1.0000
28.6600 629.0000 1.0000
28.6700 607.0000 1.0000
28.6800 617.0000 1.0000
28.6900 657.0000 1.0000
28.7000 616.0000 1.0000
28.7100 615.0000 1.0000
28.7200 657.0000 1.0000
28.7300 663.0000 1.0000
28.7400 644.0000 1.0000
28.7500 648.0000 1.0000
28.7600 619.0000 1.0000
28.7700 622.0000 1.0000
28.7800 643.0000 1.0000
28.7900 633.0000 1.0000
28.8000 630.0000 1.0000
28.8100 609.0000 1.0000
28.8200 621.0000 1.0000
28.8300 644.0000 1.0000
28.8400 621.0000 1.0000
28.8500 626.0000 1.0000
28.8600 608.0000 1.0000
28.8700 612.0000 1.0000
28.8800 608.0000 1.0000
28.8900 622.0000 1.0000
28.9000 591.0000 1.0000
28.9100 647.0000 1.0000
28.9200 593.0000 1.0000
28.9300 615.0000 1.0000
28.9400 640.0000 1.0000
28.9500 611.0000 1.0000
28.9600 630.0000 1.0000
28.9700 674.0000 1.0000
28.9800 648.0000 1.0000
28.9900 632.0000 1.0000
29.0000 625.0000 1.0000
29.0100 600.0000 1.0000
29.0200 612.0000 1.0000
29.0300 636.0000 1.0000
29.0400 638.0000 1.0000
29.0500 653.0000 1.0000
29.0600 563.0000 1.0000
29.0700 640.0000 1.0000
29.0800 596.0000 1.0000
29.0900 652.0000 1.0000
29.1000 620.0000 1.0000
29.1100 629.0000 1.0000
29.1200 620.0000 1.0000
29.1300 623.0000 1.0000
29.1400 637.0000 1.0000
29.1500 627.0000 1.0000
29.1600 623.0000 1.0000
29.1700 635.0000 1.0000
29.1800 582.0000 1.0000
29.1900 653.0000 1.0000
29.2000 611.0000 1.0000
29.2100 601.0000 1.0000
29.2200 624.0000 1.0000
29.2300 615.0000 1.0000
29.2400 622.0000 1.0000
29.2500 616.0000 1.0000
29.2600 614.0000 1.0000
29.2700 600.0000 1.0000
29.2800 625.0000 1.0000
29.2900 632.0000 1.0000
29.3000 628.0000 1.0000
29.3100 625.0000 1.0000
29.3200 601.0000 1.0000
29.3300 604.0000 1.0000
29.3400 634.0000 1.0000
29.3500 590.0000 1.0000
29.3600 594.0000 1.0000
29.3700 626.0000 1.0000
29.3800 629.0000 1.0000
29.3900 591.0000 1.0000
29.4000 626.0000 1.0000
29.4100 605.0000 1.0000
29.4200 620.0000 1.0000
29.4300 594.0000 1.0000
29.4400 626.0000 1.0000
29.4500 579.0000 1.0000
29.4600 581.0000 1.0000
29.4700 633.0000 1.0000
29.4800 622.0000 1.0000
29.4900 612.0000 1.0000
29.5000 642.0000 1.0000
29.5100 605.0000 1.0000
29.5200 589.0000 1.0000
29.5300 600.0000 1.0000
29.5400 629.0000 1.0000
29.5500 598.0000 1.0000
29.5600 564.0000 1.0000
29.5700 630.0000 1.0000
29.5800 610.0000 1.0000
29.5900 593.0000 1.0000
29.6000 648.0000 1.0000
29.6100 590.0000 1.0000
29.6200 596.0000 1.0000
29.6300 639.0000 1.0000
29.6400 567.0000 1.0000
29.6500 626.0000 1.0000
29.6600 601.0000 1.0000
29.6700 619.0000 1.0000
29.6800 602.0000 1.0000
29.6900 577.0000 1.0000
29.7000 621.0000 1.0000
29.7100 569.0000 1.0000
29.7200 620.0000 1.0000
29.7300 594.0000 1.0000
29.7400 578.0000 1.0000
29.7500 601.0000 1.0000
29.7600 588.0000 1.0000
29.7700 641.0000 1.0000
29.7800 594.0000 1.0000
29.7900 576.0000 1.0000
29.8000 621.0000 1.0000
29.8100 604.0000 1.0000
29.8200 585.0000 1.0000
29.8300 609.0000 1.0000
29.8400 594.0000 1.0000
29.8500 608.0000 1.0000
29.8600 615.0000 1.0000
29.8700 602.0000 1.0000
29.8800 639.0000 1.0000
29.8900 604.0000 1.0000
29.9000 544.0000 1.0000
29.9100 567.0000 1.0000
29.9200 590.0000 1.0000
29.9300 568.0000 1.0000
29.9400 565.0000 1.0000
29.9500 621.0000 1.0000
29.9600 612.0000 1.0000
29.9700 618.0000 1.0000
29.9800 601.0000 1.0000
29.9900 590.0000 1.0000
30.0000 575.0000 1.0000
30.0100 567.0000 1.0000
30.0200 576.0000 1.0000
30.0300 585.0000 1.0000
30.0400 580.0000 1.0000
30.0500 655.0000 1.0000
30.0600 625.0000 1.0000
30.0700 567.0000 1.0000
30.0800 595.0000 1.0000
30.0900 620.0000 1.0000
30.1000 594.0000 1.0000
30.1100 602.0000 1.0000
30.1200 596.0000 1.0000
30.1300 555.0000 1.0000
30.1400 599.0000 1.0000
30.1500 605.0000 1.0000
30.1600 613.0000 1.0000
30.1700 590.0000 1.0000
30.1800 567.0000 1.0000
30.1900 587.0000 1.0000
30.2000 595.0000 1.0000
30.2100 599.0000 1.0000
30.2200 572.0000 1.0000
30.2300 569.0000 1.0000
30.2400 574.0000 1.0000
30.2500 577.0000 1.0000
30.2600 597.0000 1.0000
30.2700 555.0000 1.0000
30.2800 585.0000 1.0000
30.2900 555.0000 1.0000
30.3000 588.0000 1.0000
30.3100 591.0000 1.0000
30.3200 539.0000 1.0000
30.3300 619.0000 1.0000
30.3400 543.0000 1.0000
30.3500 558.0000 1.0000
30.3600 567.0000 1.0000
30.3700 575.0000 1.0000
30.3800 567.0000 1.0000
30.3900 583.0000 1.0000
30.4000 577.0000 1.0000
30.4100 590.0000 1.0000
30.4200 601.0000 1.0000
30.4300 605.0000 1.0000
30.4400 555.0000 1.0000
30.4500 590.0000 1.0000
30.4600 602.0000 1.0000
30.4700 604.0000 1.0000
30.4800 573.0000 1.0000
30.4900 573.0000 1.0000
30.5000 585.0000 1.0000
30.5100 601.0000 1.0000
30.5200 615.0000 1.0000
30.5300 551.0000 1.0000
30.5400 559.0000 1.0000
30.5500 549.0000 1.0000
30.5600 559.0000 1.0000
30.5700 556.0000 1.0000
30.5800 596.0000 1.0000
30.5900 570.0000 1.0000
30.6000 577.0000 1.0000
30.6100 594.0000 1.0000
30.6200 551.0000 1.0000
30.6300 542.0000 1.0000
30.6400 575.0000 1.0000
30.6500 555.0000 1.0000
30.6600 584.0000 1.0000
30.6700 580.0000 1.0000
30.6800 596.0000 1.0000
30.6900 586.0000 1.0000
30.7000 546.0000 1.0000
30.7100 557.0000 1.0000
30.7200 571.0000 1.0000
30.7300 581.0000 1.0000
30.7400 575.0000 1.0000
30.7500 586.0000 1.0000
30.7600 598.0000 1.0000
30.7700 565.0000 1.0000
30.7800 604.0000 1.0000
30.7900 550.0000 1.0000
30.8000 555.0000 1.0000
30.8100 515.0000 1.0000
30.8200 549.0000 1.0000
30.8300 551.0000 1.0000
30.8400 555.0000 1.0000
30.8500 555.0000 1.0000
30.8600 547.0000 1.0000
30.8700 573.0000 1.0000
30.8800 567.0000 1.0000
30.8900 565.0000 1.0000
30.9000 550.0000 1.0000
30.9100 542.0000 1.0000
30.9200 560.0000 1.0000
30.9300 549.0000 1.0000
30.9400 576.0000 1.0000
30.9500 553.0000 1.0000
30.9600 546.0000 1.0000
30.9700 575.0000 1.0000
30.9800 589.0000 1.0000
30.9900 580.0000 1.0000
31.0000 502.0000 1.0000
31.0100 550.0000 1.0000
31.0200 534.0000 1.0000
31.0300 566.0000 1.0000
31.0400 562.0000 1.0000
31.0500 537.0000 1.0000
31.0600 534.0000 1.0000
31.0700 552.0000 1.0000
31.0800 564.0000 1.0000
31.0900 580.0000 1.0000
31.1000 560.0000 1.0000
31.1100 548.0000 1.0000
31.1200 552.0000 1.0000
31.1300 555.0000 1.0000
31.1400 587.0000 1.0000
31.1500 544.0000 1.0000
31.1600 573.0000 1.0000
31.1700 542.0000 1.0000
31.1800 557.0000 1.0000
31.1900 541.0000 1.0000
31.2000 557.0000 1.0000
31.2100 542.0000 1.0000
31.2200 525.0000 1.0000
31.2300 577.0000 1.0000
31.2400 537.0000 1.0000
31.2500 561.0000 1.0000
31.2600 605.0000 1.0000
31.2700 522.0000 1.0000
31.2800 537.0000 1.0000
31.2900 587.0000 1.0000
31.3000 576.0000 1.0000
31.3100 601.0000 1.0000
31.3200 592.0000 1.0000
31.3300 630.0000 1.0000
31.3400 614.0000 1.0000
31.3500 571.0000 1.0000
31.3600 574.0000 1.0000
31.3700 594.0000 1.0000
31.3800 564.0000 1.0000
31.3900 537.0000 1.0000
31.4000 542.0000 1.0000
31.4100 581.0000 1.0000
31.4200 546.0000 1.0000
31.4300 568.0000 1.0000
31.4400 595.0000 1.0000
31.4500 564.0000 1.0000
31.4600 547.0000 1.0000
31.4700 566.0000 1.0000
31.4800 557.0000 1.0000
31.4900 549.0000 1.0000
31.5000 574.0000 1.0000
31.5100 548.0000 1.0000
31.5200 582.0000 1.0000
31.5300 544.0000 1.0000
31.5400 541.0000 1.0000
31.5500 577.0000 1.0000
31.5600 575.0000 1.0000
31.5700 582.0000 1.0000
31.5800 558.0000 1.0000
31.5900 504.0000 1.0000
31.6000 539.0000 1.0000
31.6100 586.0000 1.0000
31.6200 576.0000 1.0000
31.6300 535.0000 1.0000
31.6400 566.0000 1.0000
31.6500 537.0000 1.0000
31.6600 573.0000 1.0000
31.6700 584.0000 1.0000
31.6800 521.0000 1.0000
31.6900 527.0000 1.0000
31.7000 605.0000 1.0000
31.7100 584.0000 1.0000
31.7200 569.0000 1.0000
31.7300 555.0000 1.0000
31.7400 557.0000 1.0000
31.7500 597.0000 1.0000
31.7600 578.0000 1.0000
31.7700 546.0000 1.0000
31.7800 558.0000 1.0000
31.7900 556.0000 1.0000
31.8000 515.0000 1.0000
31.8100 524.0000 1.0000
31.8200 581.0000 1.0000
31.8300 544.0000 1.0000
31.8400 532.0000 1.0000
31.8500 510.0000 1.0000
31.8600 571.0000 1.0000
31.8700 517.0000 1.0000
31.8800 530.0000 1.0000
31.8900 565.0000 1.0000
31.9000 581.0000 1.0000
31.9100 554.0000 1.0000
31.9200 520.0000 1.0000
31.9300 558.0000 1.0000
31.9400 542.0000 1.0000
31.9500 531.0000 1.0000
31.9600 522.0000 1.0000
31.9700 588.0000 1.0000
31.9800 550.0000 1.0000
31.9900 536.0000 1.0000
32.0000 538.0000 1.0000
32.0100 520.0000 1.0000
32.0200 557.0000 1.0000
32.0300 520.0000 1.0000
32.0400 545.0000 1.0000
32.0500 548.0000 1.0000
32.0600 591.0000 1.0000
32.0700 515.0000 1.0000
32.0800 519.0000 1.0000
32.0900 568.0000 1.0000
32.1000 540.0000 1.0000
32.1100 530.0000 1.0000
32.1200 534.0000 1.0000
32.1300 558.0000 1.0000
32.1400 582.0000 1.0000
32.1500 562.0000 1.0000
32.1600 529.0000 1.0000
32.1700 551.0000 1.0000
32.1800 563.0000 1.0000
32.1900 539.0000 1.0000
32.2000 531.0000 1.0000
32.2100 543.0000 1.0000
32.2200 518.0000 1.0000
32.2300 551.0000 1.0000
32.2400 529.0000 1.0000
32.2500 525.0000 1.0000
32.2600 533.0000 1.0000
32.2700 531.0000 1.0000
32.2800 534.0000 1.0000
32.2900 498.0000 1.0000
32.3000 532.0000 1.0000
32.3100 537.0000 1.0000
32.3200 567.0000 1.0000
32.3300 559.0000 1.0000
32.3400 559.0000 1.0000
32.3500 582.0000 1.0000
32.3600 532.0000 1.0000
32.3700 508.0000 1.0000
32.3800 574.0000 1.0000
32.3900 559.0000 1.0000
32.4000 552.0000 1.0000
32.4100 513.0000 1.0000
32.4200 475.0000 1.0000
32.4300 543.0000 1.0000
32.4400 528.0000 1.0000
32.4500 522.0000 1.0000
32.4600 538.0000 1.0000
32.4700 533.0000 1.0000
32.4800 551.0000 1.0000
32.4900 523.0000 1.0000
32.5000 491.0000 1.0000
32.5100 519.0000 1.0000
32.5200 541.0000 1.0000
32.5300 499.0000 1.0000
32.5400 530.0000 1.0000
32.5500 558.0000 1.0000
32.5600 514.0000 1.0000
32.5700 524.0000 1.0000
32.5800 562.0000 1.0000
32.5900 556.0000 1.0000
32.6000 566.0000 1.0000
32.6100 515.0000 1.0000
32.6200 519.0000 1.0000
32.6300 554.0000 1.0000
32.6400 516.0000 1.0000
32.6500 548.0000 1.0000
32.6600 537.0000 1.0000
32.6700 524.0000 1.0000
32.6800 498.0000 1.0000
32.6900 503.0000 1.0000
32.7000 511.0000 1.0000
32.7100 566.0000 1.0000
32.7200 525.0000 1.0000
32.7300 527.0000 1.0000
32.7400 567.0000 1.0000
32.7500 542.0000 1.0000
32.7600 548.0000 1.0000
32.7700 500.0000 1.0000
32.7800 523.0000 1.0000
32.7900 538.0000 1.0000
32.8000 549.0000 1.0000
32.8100 528.0000 1.0000
32.8200 545.0000 1.0000
32.8300 507.0000 1.0000
32.8400 559.0000 1.0000
32.8500 534.0000 1.0000
32.8600 516.0000 1.0000
32.8700 535.0000 1.0000
32.8800 547.0000 1.0000
32.8900 531.0000 1.0000
32.9000 546.0000 1.0000
32.9100 548.0000 1.0000
32.9200 543.0000 1.0000
32.9300 553.0000 1.0000
32.9400 544.0000 1.0000
32.9500 529.0000 1.0000
32.9600 536.0000 1.0000
32.9700 533.0000 1.0000
32.9800 530.0000 1.0000
32.9900 530.0000 1.0000
33.0000 565.0000 1.0000
33.0100 519.0000 1.0000
33.0200 546.0000 1.0000
33.0300 570.0000 1.0000
33.0400 552.0000 1.0000
33.0500 557.0000 1.0000
33.0600 566.0000 1.0000
33.0700 547.0000 1.0000
33.0800 550.0000 1.0000
33.0900 566.0000 1.0000
33.1000 570.0000 1.0000
33.1100 595.0000 1.0000
33.1200 599.0000 1.0000
33.1300 588.0000 1.0000
33.1400 601.0000 1.0000
33.1500 580.0000 1.0000
33.1600 584.0000 1.0000
33.1700 605.0000 1.0000
33.1800 657.0000 1.0000
33.1900 643.0000 1.0000
33.2000 640.0000 1.0000
33.2100 620.0000 1.0000
33.2200 633.0000 1.0000
33.2300 616.0000 1.0000
33.2400 638.0000 1.0000
33.2500 646.0000 1.0000
33.2600 669.0000 1.0000
33.2700 691.0000 1.0000
33.2800 705.0000 1.0000
33.2900 716.0000 1.0000
33.3000 705.0000 1.0000
33.3100 684.0000 1.0000
33.3200 726.0000 1.0000
33.3300 699.0000 1.0000
33.3400 692.0000 1.0000
33.3500 683.0000 1.0000
33.3600 688.0000 1.0000
33.3700 638.0000 1.0000
33.3800 623.0000 1.0000
33.3900 656.0000 1.0000
33.4000 598.0000 1.0000
33.4100 679.0000 1.0000
33.4200 691.0000 1.0000
33.4300 662.0000 1.0000
33.4400 644.0000 1.0000
33.4500 614.0000 1.0000
33.4600 610.0000 1.0000
33.4700 597.0000 1.0000
33.4800 604.0000 1.0000
33.4900 613.0000 1.0000
33.5000 605.0000 1.0000
33.5100 580.0000 1.0000
33.5200 564.0000 1.0000
33.5300 572.0000 1.0000
33.5400 615.0000 1.0000
33.5500 611.0000 1.0000
33.5600 628.0000 1.0000
33.5700 591.0000 1.0000
33.5800 605.0000 1.0000
33.5900 605.0000 1.0000
33.6000 634.0000 1.0000
33.6100 646.0000 1.0000
33.6200 665.0000 1.0000
33.6300 646.0000 1.0000
33.6400 643.0000 1.0000
33.6500 720.0000 1.0000
33.6600 694.0000 1.0000
33.6700 768.0000 1.0000
33.6800 798.0000 1.0000
33.6900 817.0000 1.0000
33.7000 749.0000 1.0000
33.7100 802.0000 1.0000
33.7200 852.0000 1.0000
33.7300 868.0000 1.0000
33.7400 885.0000 1.0000
33.7500 979.0000 1.0000
33.7600 986.0000 1.0000
33.7700 1072.0000 1.0000
33.7800 1124.0000 1.0000
33.7900 1100.0000 1.0000
33.8000 1192.0000 1.0000
33.8100 1235.0000 1.0000
33.8200 1252.0000 1.0000
33.8300 1289.0000 1.0000
33.8400 1285.0000 1.0000
33.8500 1298.0000 1.0000
33.8600 1346.0000 1.0000
33.8700 1281.0000 1.0000
33.8800 1267.0000 1.0000
33.8900 1271.0000 1.0000
33.9000 1223.0000 1.0000
33.9100 1277.0000 1.0000
33.9200 1178.0000 1.0000
33.9300 1125.0000 1.0000
33.9400 1075.0000 1.0000
33.9500 1046.0000 1.0000
33.9600 984.0000 1.0000
33.9700 985.0000 1.0000
33.9800 910.0000 1.0000
33.9900 866.0000 1.0000
34.0000 826.0000 1.0000
34.0100 835.0000 1.0000
34.0200 827.0000 1.0000
34.0300 722.0000 1.0000
34.0400 744.0000 1.0000
34.0500 717.0000 1.0000
34.0600 686.0000 1.0000
34.0700 672.0000 1.0000
34.0800 671.0000 1.0000
34.0900 653.0000 1.0000
34.1000 650.0000 1.0000
34.1100 685.0000 1.0000
34.1200 602.0000 1.0000
34.1300 609.0000 1.0000
34.1400 614.0000 1.0000
34.1500 605.0000 1.0000
34.1600 587.0000 1.0000
34.1700 567.0000 1.0000
34.1800 625.0000 1.0000
34.1900 585.0000 1.0000
34.2000 594.0000 1.0000
34.2100 625.0000 1.0000
34.2200 600.0000 1.0000
34.2300 555.0000 1.0000
34.2400 537.0000 1.0000
34.2500 542.0000 1.0000
34.2600 556.0000 1.0000
34.2700 555.0000 1.0000
34.2800 543.0000 1.0000
34.2900 536.0000 1.0000
34.3000 548.0000 1.0000
34.3100 540.0000 1.0000
34.3200 523.0000 1.0000
34.3300 497.0000 1.0000
34.3400 524.0000 1.0000
34.3500 476.0000 1.0000
34.3600 510.0000 1.0000
34.3700 502.0000 1.0000
34.3800 460.0000 1.0000
34.3900 513.0000 1.0000
34.4000 491.0000 1.0000
34.4100 490.0000 1.0000
34.4200 517.0000 1.0000
34.4300 509.0000 1.0000
34.4400 509.0000 1.0000
34.4500 519.0000 1.0000
34.4600 492.0000 1.0000
34.4700 488.0000 1.0000
34.4800 520.0000 1.0000
34.4900 502.0000 1.0000
34.5000 493.0000 1.0000
34.5100 508.0000 1.0000
34.5200 491.0000 1.0000
34.5300 485.0000 1.0000
34.5400 515.0000 1.0000
34.5500 462.0000 1.0000
34.5600 451.0000 1.0000
34.5700 467.0000 1.0000
34.5800 469.0000 1.0000
34.5900 498.0000 1.0000
34.6000 470.0000 1.0000
34.6100 490.0000 1.0000
34.6200 498.0000 1.0000
34.6300 466.0000 1.0000
34.6400 515.0000 1.0000
34.6500 503.0000 1.0000
34.6600 511.0000 1.0000
34.6700 521.0000 1.0000
34.6800 516.0000 1.0000
34.6900 460.0000 1.0000
34.7000 467.0000 1.0000
34.7100 481.0000 1.0000
34.7200 473.0000 1.0000
34.7300 482.0000 1.0000
34.7400 474.0000 1.0000
34.7500 456.0000 1.0000
34.7600 487.0000 1.0000
34.7700 478.0000 1.0000
34.7800 456.0000 1.0000
34.7900 464.0000 1.0000
34.8000 467.0000 1.0000
34.8100 502.0000 1.0000
34.8200 487.0000 1.0000
34.8300 486.0000 1.0000
34.8400 479.0000 1.0000
34.8500 475.0000 1.0000
34.8600 486.0000 1.0000
34.8700 499.0000 1.0000
34.8800 446.0000 1.0000
34.8900 461.0000 1.0000
34.9000 467.0000 1.0000
34.9100 491.0000 1.0000
34.9200 482.0000 1.0000
34.9300 460.0000 1.0000
34.9400 476.0000 1.0000
34.9500 460.0000 1.0000
34.9600 477.0000 1.0000
34.9700 451.0000 1.0000
34.9800 463.0000 1.0000
34.9900 458.0000 1.0000
35.0000 464.0000 1.0000
35.0100 452.0000 1.0000
35.0200 482.0000 1.0000
35.0300 469.0000 1.0000
35.0400 466.0000 1.0000
35.0500 449.0000 1.0000
35.0600 448.0000 1.0000
35.0700 485.0000 1.0000
35.0800 460.0000 1.0000
35.0900 444.0000 1.0000
35.1000 463.0000 1.0000
35.1100 445.0000 1.0000
35.1200 472.0000 1.0000
35.1300 469.0000 1.0000
35.1400 477.0000 1.0000
35.1500 436.0000 1.0000
35.1600 479.0000 1.0000
35.1700 458.0000 1.0000
35.1800 504.0000 1.0000
35.1900 439.0000 1.0000
35.2000 453.0000 1.0000
35.2100 478.0000 1.0000
35.2200 438.0000 1.0000
35.2300 470.0000 1.0000
35.2400 497.0000 1.0000
35.2500 472.0000 1.0000
35.2600 467.0000 1.0000
35.2700 446.0000 1.0000
35.2800 455.0000 1.0000
35.2900 480.0000 1.0000
35.3000 461.0000 1.0000
35.3100 462.0000 1.0000
35.3200 459.0000 1.0000
35.3300 482.0000 1.0000
35.3400 484.0000 1.0000
35.3500 464.0000 1.0000
35.3600 452.0000 1.0000
35.3700 423.0000 1.0000
35.3800 463.0000 1.0000
35.3900 486.0000 1.0000
35.4000 458.0000 1.0000
35.4100 464.0000 1.0000
35.4200 492.0000 1.0000
35.4300 465.0000 1.0000
35.4400 476.0000 1.0000
35.4500 478.0000 1.0000
35.4600 464.0000 1.0000
35.4700 451.0000 1.0000
35.4800 471.0000 1.0000
35.4900 483.0000 1.0000
35.5000 508.0000 1.0000
35.5100 500.0000 1.0000
35.5200 487.0000 1.0000
35.5300 503.0000 1.0000
35.5400 508.0000 1.0000
35.5500 513.0000 1.0000
35.5600 513.0000 1.0000
35.5700 512.0000 1.0000
35.5800 515.0000 1.0000
35.5900 516.0000 1.0000
35.6000 540.0000 1.0000
35.6100 522.0000 1.0000
35.6200 545.0000 1.0000
35.6300 536.0000 1.0000
35.6400 542.0000 1.0000
35.6500 588.0000 1.0000
35.6600 621.0000 1.0000
35.6700 631.0000 1.0000
35.6800 652.0000 1.0000
35.6900 688.0000 1.0000
35.7000 693.0000 1.0000
35.7100 700.0000 1.0000
35.7200 691.0000 1.0000
35.7300 732.0000 1.0000
35.7400 761.0000 1.0000
35.7500 750.0000 1.0000
35.7600 794.0000 1.0000
35.7700 814.0000 1.0000
35.7800 775.0000 1.0000
35.7900 792.0000 1.0000
35.8000 801.0000 1.0000
35.8100 808.0000 1.0000
35.8200 807.0000 1.0000
35.8300 746.0000 1.0000
35.8400 697.0000 1.0000
35.8500 727.0000 1.0000
35.8600 681.0000 1.0000
35.8700 687.0000 1.0000
35.8800 668.0000 1.0000
35.8900 667.0000 1.0000
35.9000 602.0000 1.0000
35.9100 646.0000 1.0000
35.9200 598.0000 1.0000
35.9300 567.0000 1.0000
35.9400 525.0000 1.0000
35.9500 546.0000 1.0000
35.9600 556.0000 1.0000
35.9700 508.0000 1.0000
35.9800 523.0000 1.0000
35.9900 512.0000 1.0000
36.0000 477.0000 1.0000
36.0100 514.0000 1.0000
36.0200 487.0000 1.0000
36.0300 536.0000 1.0000
36.0400 457.0000 1.0000
36.0500 464.0000 1.0000
36.0600 456.0000 1.0000
36.0700 453.0000 1.0000
36.0800 482.0000 1.0000
36.0900 473.0000 1.0000
36.1000 440.0000 1.0000
36.1100 444.0000 1.0000
36.1200 449.0000 1.0000
36.1300 456.0000 1.0000
36.1400 475.0000 1.0000
36.1500 445.0000 1.0000
36.1600 428.0000 1.0000
36.1700 452.0000 1.0000
36.1800 416.0000 1.0000
36.1900 413.0000 1.0000
36.2000 425.0000 1.0000
36.2100 408.0000 1.0000
36.2200 436.0000 1.0000
36.2300 398.0000 1.0000
36.2400 425.0000 1.0000
36.2500 422.0000 1.0000
36.2600 434.0000 1.0000
36.2700 399.0000 1.0000
36.2800 408.0000 1.0000
36.2900 452.0000 1.0000
36.3000 484.0000 1.0000
36.3100 451.0000 1.0000
36.3200 435.0000 1.0000
36.3300 417.0000 1.0000
36.3400 421.0000 1.0000
36.3500 414.0000 1.0000
36.3600 420.0000 1.0000
36.3700 440.0000 1.0000
36.3800 442.0000 1.0000
36.3900 408.0000 1.0000
36.4000 417.0000 1.0000
36.4100 408.0000 1.0000
36.4200 439.0000 1.0000
36.4300 439.0000 1.0000
36.4400 479.0000 1.0000
36.4500 450.0000 1.0000
36.4600 412.0000 1.0000
36.4700 407.0000 1.0000
36.4800 414.0000 1.0000
36.4900 453.0000 1.0000
36.5000 412.0000 1.0000
36.5100 408.0000 1.0000
36.5200 413.0000 1.0000
36.5300 415.0000 1.0000
36.5400 447.0000 1.0000
36.5500 421.0000 1.0000
36.5600 422.0000 1.0000
36.5700 410.0000 1.0000
36.5800 442.0000 1.0000
36.5900 408.0000 1.0000
36.6000 434.0000 1.0000
36.6100 398.0000 1.0000
36.6200 416.0000 1.0000
36.6300 425.0000 1.0000
36.6400 419.0000 1.0000
36.6500 424.0000 1.0000
36.6600 407.0000 1.0000
36.6700 426.0000 1.0000
36.6800 432.0000 1.0000
36.6900 433.0000 1.0000
36.7000 424.0000 1.0000
36.7100 421.0000 1.0000
36.7200 399.0000 1.0000
36.7300 413.0000 1.0000
36.7400 442.0000 1.0000
36.7500 429.0000 1.0000
36.7600 437.0000 1.0000
36.7700 453.0000 1.0000
36.7800 426.0000 1.0000
36.7900 428.0000 1.0000
36.8000 404.0000 1.0000
36.8100 417.0000 1.0000
36.8200 441.0000 1.0000
36.8300 434.0000 1.0000
36.8400 469.0000 1.0000
36.8500 448.0000 1.0000
36.8600 440.0000 1.0000
36.8700 421.0000 1.0000
36.8800 444.0000 1.0000
36.8900 426.0000 1.0000
36.9000 426.0000 1.0000
36.9100 424.0000 1.0000
36.9200 438.0000 1.0000
36.9300 386.0000 1.0000
36.9400 452.0000 1.0000
36.9500 397.0000 1.0000
36.9600 431.0000 1.0000
36.9700 404.0000 1.0000
36.9800 426.0000 1.0000
36.9900 396.0000 1.0000
37.0000 417.0000 1.0000
37.0100 393.0000 1.0000
37.0200 402.0000 1.0000
37.0300 429.0000 1.0000
37.0400 402.0000 1.0000
37.0500 429.0000 1.0000
37.0600 426.0000 1.0000
37.0700 425.0000 1.0000
37.0800 424.0000 1.0000
37.0900 420.0000 1.0000
37.1000 440.0000 1.0000
37.1100 404.0000 1.0000
37.1200 402.0000 1.0000
37.1300 405.0000 1.0000
37.1400 438.0000 1.0000
37.1500 421.0000 1.0000
37.1600 441.0000 1.0000
37.1700 427.0000 1.0000
37.1800 408.0000 1.0000
37.1900 412.0000 1.0000
37.2000 428.0000 1.0000
37.2100 437.0000 1.0000
37.2200 460.0000 1.0000
37.2300 448.0000 1.0000
37.2400 384.0000 1.0000
37.2500 404.0000 1.0000
37.2600 395.0000 1.0000
37.2700 401.0000 1.0000
37.2800 441.0000 1.0000
37.2900 422.0000 1.0000
37.3000 415.0000 1.0000
37.3100 452.0000 1.0000
37.3200 436.0000 1.0000
37.3300 437.0000 1.0000
37.3400 460.0000 1.0000
37.3500 439.0000 1.0000
37.3600 438.0000 1.0000
37.3700 462.0000 1.0000
37.3800 460.0000 1.0000
37.3900 444.0000 1.0000
37.4000 415.0000 1.0000
37.4100 440.0000 1.0000
37.4200 453.0000 1.0000
37.4300 439.0000 1.0000
37.4400 454.0000 1.0000
37.4500 449.0000 1.0000
37.4600 426.0000 1.0000
37.4700 467.0000 1.0000
37.4800 480.0000 1.0000
37.4900 460.0000 1.0000
37.5000 475.0000 1.0000
37.5100 460.0000 1.0000
37.5200 469.0000 1.0000
37.5300 484.0000 1.0000
37.5400 464.0000 1.0000
37.5500 500.0000 1.0000
37.5600 458.0000 1.0000
37.5700 517.0000 1.0000
37.5800 555.0000 1.0000
37.5900 535.0000 1.0000
37.6000 573.0000 1.0000
37.6100 581.0000 1.0000
37.6200 544.0000 1.0000
37.6300 552.0000 1.0000
37.6400 582.0000 1.0000
37.6500 637.0000 1.0000
37.6600 661.0000 1.0000
37.6700 667.0000 1.0000
37.6800 701.0000 1.0000
37.6900 753.0000 1.0000
37.7000 809.0000 1.0000
37.7100 808.0000 1.0000
37.7200 835.0000 1.0000
37.7300 948.0000 1.0000
37.7400 965.0000 1.0000
37.7500 1006.0000 1.0000
37.7600 1096.0000 1.0000
37.7700 1174.0000 1.0000
37.7800 1201.0000 1.0000
37.7900 1343.0000 1.0000
37.8000 1447.0000 1.0000
37.8100 1525.0000 1.0000
37.8200 1574.0000 1.0000
37.8300 1718.0000 1.0000
37.8400 1771.0000 1.0000
37.8500 1815.0000 1.0000
37.8600 1924.0000 1.0000
37.8700 1944.0000 1.0000
37.8800 1987.0000 1.0000
37.8900 2019.0000 1.0000
37.9000 2019.0000 1.0000
37.9100 2109.0000 1.0000
37.9200 2072.0000 1.0000
37.9300 2014.0000 1.0000
37.9400 1957.0000 1.0000
37.9500 2016.0000 1.0000
37.9600 1905.0000 1.0000
37.9700 1905.0000 1.0000
37.9800 1838.0000 1.0000
37.9900 1703.0000 1.0000
38.0000 1647.0000 1.0000
38.0100 1569.0000 1.0000
38.0200 1507.0000 1.0000
38.0300 1417.0000 1.0000
38.0400 1333.0000 1.0000
38.0500 1281.0000 1.0000
38.0600 1245.0000 1.0000
38.0700 1224.0000 1.0000
38.0800 1067.0000 1.0000
38.0900 1012.0000 1.0000
38.1000 981.0000 1.0000
38.1100 930.0000 1.0000
38.1200 878.0000 1.0000
38.1300 839.0000 1.0000
38.1400 782.0000 1.0000
38.1500 738.0000 1.0000
38.1600 711.0000 1.0000
38.1700 681.0000 1.0000
38.1800 664.0000 1.0000
38.1900 607.0000 1.0000
38.2000 597.0000 1.0000
38.2100 632.0000 1.0000
38.2200 555.0000 1.0000
38.2300 578.0000 1.0000
38.2400 538.0000 1.0000
38.2500 502.0000 1.0000
38.2600 509.0000 1.0000
38.2700 534.0000 1.0000
38.2800 493.0000 1.0000
38.2900 468.0000 1.0000
38.3000 507.0000 1.0000
38.3100 454.0000 1.0000
38.3200 466.0000 1.0000
38.3300 448.0000 1.0000
38.3400 452.0000 1.0000
38.3500 446.0000 1.0000
38.3600 430.0000 1.0000
38.3700 442.0000 1.0000
38.3800 401.0000 1.0000
38.3900 442.0000 1.0000
38.4000 453.0000 1.0000
38.4100 424.0000 1.0000
38.4200 439.0000 1.0000
38.4300 442.0000 1.0000
38.4400 419.0000 1.0000
38.4500 399.0000 1.0000
38.4600 398.0000 1.0000
38.4700 398.0000 1.0000
38.4800 407.0000 1.0000
38.4900 414.0000 1.0000
38.5000 406.0000 1.0000
38.5100 411.0000 1.0000
38.5200 393.0000 1.0000
38.5300 384.0000 1.0000
38.5400 411.0000 1.0000
38.5500 377.0000 1.0000
38.5600 373.0000 1.0000
38.5700 397.0000 1.0000
38.5800 380.0000 1.0000
38.5900 400.0000 1.0000
38.6000 400.0000 1.0000
38.6100 432.0000 1.0000
38.6200 416.0000 1.0000
38.6300 391.0000 1.0000
38.6400 388.0000 1.0000
38.6500 365.0000 1.0000
38.6600 384.0000 1.0000
38.6700 413.0000 1.0000
38.6800 380.0000 1.0000
38.6900 391.0000 1.0000
38.7000 414.0000 1.0000
38.7100 390.0000 1.0000
38.7200 394.0000 1.0000
38.7300 389.0000 1.0000
38.7400 374.0000 1.0000
38.7500 405.0000 1.0000
38.7600 380.0000 1.0000
38.7700 390.0000 1.0000
38.7800 409.0000 1.0000
38.7900 390.0000 1.0000
38.8000 371.0000 1.0000
38.8100 416.0000 1.0000
38.8200 424.0000 1.0000
38.8300 391.0000 1.0000
38.8400 385.0000 1.0000
38.8500 402.0000 1.0000
38.8600 387.0000 1.0000
38.8700 396.0000 1.0000
38.8800 387.0000 1.0000
38.8900 418.0000 1.0000
38.9000 385.0000 1.0000
38.9100 383.0000 1.0000
38.9200 433.0000 1.0000
38.9300 425.0000 1.0000
38.9400 408.0000 1.0000
38.9500 426.0000 1.0000
38.9600 410.0000 1.0000
38.9700 379.0000 1.0000
38.9800 389.0000 1.0000
38.9900 393.0000 1.0000
39.0000 411.0000 1.0000
39.0100 387.0000 1.0000
39.0200 403.0000 1.0000
39.0300 365.0000 1.0000
39.0400 417.0000 1.0000
39.0500 379.0000 1.0000
39.0600 394.0000 1.0000
39.0700 384.0000 1.0000
39.0800 390.0000 1.0000
39.0900 402.0000 1.0000
39.1000 370.0000 1.0000
39.1100 376.0000 1.0000
39.1200 397.0000 1.0000
39.1300 393.0000 1.0000
39.1400 393.0000 1.0000
39.1500 410.0000 1.0000
39.1600 387.0000 1.0000
39.1700 373.0000 1.0000
39.1800 393.0000 1.0000
39.1900 382.0000 1.0000
39.2000 372.0000 1.0000
39.2100 383.0000 1.0000
39.2200 394.0000 1.0000
39.2300 399.0000 1.0000
39.2400 363.0000 1.0000
39.2500 373.0000 1.0000
39.2600 415.0000 1.0000
39.2700 407.0000 1.0000
39.2800 346.0000 1.0000
39.2900 398.0000 1.0000
39.3000 374.0000 1.0000
39.3100 335.0000 1.0000
39.3200 347.0000 1.0000
39.3300 345.0000 1.0000
39.3400 355.0000 1.0000
39.3500 362.0000 1.0000
39.3600 355.0000 1.0000
39.3700 379.0000 1.0000
39.3800 382.0000 1.0000
39.3900 355.0000 1.0000
39.4000 368.0000 1.0000
39.4100 354.0000 1.0000
39.4200 360.0000 1.0000
39.4300 328.0000 1.0000
39.4400 365.0000 1.0000
39.4500 371.0000 1.0000
39.4600 364.0000 1.0000
39.4700 373.0000 1.0000
39.4800 398.0000 1.0000
39.4900 360.0000 1.0000
39.5000 369.0000 1.0000
39.5100 348.0000 1.0000
39.5200 366.0000 1.0000
39.5300 347.0000 1.0000
39.5400 364.0000 1.0000
39.5500 353.0000 1.0000
39.5600 345.0000 1.0000
39.5700 323.0000 1.0000
39.5800 353.0000 1.0000
39.5900 373.0000 1.0000
39.6000 337.0000 1.0000
39.6100 339.0000 1.0000
39.6200 342.0000 1.0000
39.6300 382.0000 1.0000
39.6400 380.0000 1.0000
39.6500 353.0000 1.0000
39.6600 390.0000 1.0000
39.6700 337.0000 1.0000
39.6800 384.0000 1.0000
39.6900 374.0000 1.0000
39.7000 351.0000 1.0000
39.7100 345.0000 1.0000
39.7200 370.0000 1.0000
39.7300 352.0000 1.0000
39.7400 365.0000 1.0000
39.7500 356.0000 1.0000
39.7600 365.0000 1.0000
39.7700 354.0000 1.0000
39.7800 347.0000 1.0000
39.7900 369.0000 1.0000
39.8000 340.0000 1.0000
39.8100 338.0000 1.0000
39.8200 311.0000 1.0000
39.8300 338.0000 1.0000
39.8400 345.0000 1.0000
39.8500 361.0000 1.0000
39.8600 376.0000 1.0000
39.8700 385.0000 1.0000
39.8800 378.0000 1.0000
39.8900 348.0000 1.0000
39.9000 362.0000 1.0000
39.9100 391.0000 1.0000
39.9200 359.0000 1.0000
39.9300 356.0000 1.0000
39.9400 339.0000 1.0000
39.9500 337.0000 1.0000
39.9600 349.0000 1.0000
39.9700 317.0000 1.0000
39.9800 322.0000 1.0000
39.9900 342.0000 1.0000
40.0000 386.0000 1.0000
40.0100 369.0000 1.0000
40.0200 380.0000 1.0000
40.0300 364.0000 1.0000
40.0400 349.0000 1.0000
40.0500 342.0000 1.0000
40.0600 361.0000 1.0000
40.0700 383.0000 1.0000
40.0800 363.0000 1.0000
40.0900 340.0000 1.0000
40.1000 361.0000 1.0000
40.1100 325.0000 1.0000
40.1200 375.0000 1.0000
40.1300 340.0000 1.0000
40.1400 391.0000 1.0000
40.1500 372.0000 1.0000
40.1600 371.0000 1.0000
40.1700 366.0000 1.0000
40.1800 355.0000 1.0000
40.1900 390.0000 1.0000
40.2000 349.0000 1.0000
40.2100 338.0000 1.0000
40.2200 344.0000 1.0000
40.2300 371.0000 1.0000
40.2400 351.0000 1.0000
40.2500 360.0000 1.0000
40.2600 353.0000 1.0000
40.2700 351.0000 1.0000
40.2800 349.0000 1.0000
40.2900 338.0000 1.0000
40.3000 351.0000 1.0000
40.3100 329.0000 1.0000
40.3200 362.0000 1.0000
40.3300 345.0000 1.0000
40.3400 355.0000 1.0000
40.3500 322.0000 1.0000
40.3600 320.0000 1.0000
40.3700 321.0000 1.0000
40.3800 354.0000 1.0000
40.3900 348.0000 1.0000
40.4000 340.0000 1.0000
40.4100 356.0000 1.0000
40.4200 362.0000 1.0000
40.4300 341.0000 1.0000
40.4400 359.0000 1.0000
40.4500 357.0000 1.0000
40.4600 355.0000 1.0000
40.4700 353.0000 1.0000
40.4800 335.0000 1.0000
40.4900 362.0000 1.0000
40.5000 348.0000 1.0000
40.5100 352.0000 1.0000
40.5200 369.0000 1.0000
40.5300 364.0000 1.0000
40.5400 360.0000 1.0000
40.5500 375.0000 1.0000
40.5600 318.0000 1.0000
40.5700 351.0000 1.0000
40.5800 359.0000 1.0000
40.5900 339.0000 1.0000
40.6000 351.0000 1.0000
40.6100 348.0000 1.0000
40.6200 325.0000 1.0000
40.6300 339.0000 1.0000
40.6400 376.0000 1.0000
40.6500 370.0000 1.0000
40.6600 345.0000 1.0000
40.6700 374.0000 1.0000
40.6800 349.0000 1.0000
40.6900 346.0000 1.0000
40.7000 335.0000 1.0000
40.7100 339.0000 1.0000
40.7200 344.0000 1.0000
40.7300 344.0000 1.0000
40.7400 352.0000 1.0000
40.7500 336.0000 1.0000
40.7600 349.0000 1.0000
40.7700 340.0000 1.0000
40.7800 357.0000 1.0000
40.7900 354.0000 1.0000
40.8000 379.0000 1.0000
40.8100 347.0000 1.0000
40.8200 349.0000 1.0000
40.8300 346.0000 1.0000
40.8400 352.0000 1.0000
40.8500 351.0000 1.0000
40.8600 378.0000 1.0000
40.8700 388.0000 1.0000
40.8800 344.0000 1.0000
40.8900 341.0000 1.0000
40.9000 347.0000 1.0000
40.9100 365.0000 1.0000
40.9200 378.0000 1.0000
40.9300 339.0000 1.0000
40.9400 343.0000 1.0000
40.9500 372.0000 1.0000
40.9600 426.0000 1.0000
40.9700 402.0000 1.0000
40.9800 376.0000 1.0000
40.9900 372.0000 1.0000
41.0000 370.0000 1.0000
41.0100 392.0000 1.0000
41.0200 367.0000 1.0000
41.0300 351.0000 1.0000
41.0400 385.0000 1.0000
41.0500 391.0000 1.0000
41.0600 391.0000 1.0000
41.0700 391.0000 1.0000
41.0800 414.0000 1.0000
41.0900 376.0000 1.0000
41.1000 372.0000 1.0000
41.1100 390.0000 1.0000
41.1200 375.0000 1.0000
41.1300 358.0000 1.0000
41.1400 336.0000 1.0000
41.1500 351.0000 1.0000
41.1600 354.0000 1.0000
41.1700 355.0000 1.0000
41.1800 348.0000 1.0000
41.1900 351.0000 1.0000
41.2000 350.0000 1.0000
41.2100 341.0000 1.0000
41.2200 339.0000 1.0000
41.2300 382.0000 1.0000
41.2400 381.0000 1.0000
41.2500 357.0000 1.0000
41.2600 333.0000 1.0000
41.2700 389.0000 1.0000
41.2800 362.0000 1.0000
41.2900 363.0000 1.0000
41.3000 359.0000 1.0000
41.3100 348.0000 1.0000
41.3200 356.0000 1.0000
41.3300 338.0000 1.0000
41.3400 343.0000 1.0000
41.3500 357.0000 1.0000
41.3600 326.0000 1.0000
41.3700 366.0000 1.0000
41.3800 358.0000 1.0000
41.3900 353.0000 1.0000
41.4000 360.0000 1.0000
41.4100 343.0000 1.0000
41.4200 331.0000 1.0000
41.4300 326.0000 1.0000
41.4400 337.0000 1.0000
41.4500 326.0000 1.0000
41.4600 343.0000 1.0000
41.4700 351.0000 1.0000
41.4800 353.0000 1.0000
41.4900 317.0000 1.0000
41.5000 346.0000 1.0000
41.5100 355.0000 1.0000
41.5200 361.0000 1.0000
41.5300 351.0000 1.0000
41.5400 356.0000 1.0000
41.5500 343.0000 1.0000
41.5600 344.0000 1.0000
41.5700 334.0000 1.0000
41.5800 335.0000 1.0000
41.5900 305.0000 1.0000
41.6000 331.0000 1.0000
41.6100 338.0000 1.0000
41.6200 347.0000 1.0000
41.6300 355.0000 1.0000
41.6400 334.0000 1.0000
41.6500 338.0000 1.0000
41.6600 344.0000 1.0000
41.6700 351.0000 1.0000
41.6800 350.0000 1.0000
41.6900 396.0000 1.0000
41.7000 336.0000 1.0000
41.7100 314.0000 1.0000
41.7200 344.0000 1.0000
41.7300 354.0000 1.0000
41.7400 350.0000 1.0000
41.7500 346.0000 1.0000
41.7600 315.0000 1.0000
41.7700 328.0000 1.0000
41.7800 362.0000 1.0000
41.7900 346.0000 1.0000
41.8000 346.0000 1.0000
41.8100 333.0000 1.0000
41.8200 333.0000 1.0000
41.8300 320.0000 1.0000
41.8400 335.0000 1.0000
41.8500 353.0000 1.0000
41.8600 343.0000 1.0000
41.8700 331.0000 1.0000
41.8800 325.0000 1.0000
41.8900 341.0000 1.0000
41.9000 338.0000 1.0000
41.9100 364.0000 1.0000
41.9200 313.0000 1.0000
41.9300 324.0000 1.0000
41.9400 364.0000 1.0000
41.9500 359.0000 1.0000
41.9600 324.0000 1.0000
41.9700 351.0000 1.0000
41.9800 336.0000 1.0000
41.9900 323.0000 1.0000
42.0000 336.0000 1.0000
42.0100 364.0000 1.0000
42.0200 334.0000 1.0000
42.0300 342.0000 1.0000
42.0400 353.0000 1.0000
42.0500 341.0000 1.0000
42.0600 332.0000 1.0000
42.0700 340.0000 1.0000
42.0800 347.0000 1.0000
42.0900 369.0000 1.0000
42.1000 352.0000 1.0000
42.1100 337.0000 1.0000
42.1200 321.0000 1.0000
42.1300 350.0000 1.0000
42.1400 346.0000 1.0000
42.1500 342.0000 1.0000
42.1600 344.0000 1.0000
42.1700 331.0000 1.0000
42.1800 324.0000 1.0000
42.1900 329.0000 1.0000
42.2000 361.0000 1.0000
42.2100 343.0000 1.0000
42.2200 349.0000 1.0000
42.2300 335.0000 1.0000
42.2400 340.0000 1.0000
42.2500 311.0000 1.0000
42.2600 317.0000 1.0000
42.2700 333.0000 1.0000
42.2800 351.0000 1.0000
42.2900 332.0000 1.0000
42.3000 352.0000 1.0000
42.3100 358.0000 1.0000
42.3200 342.0000 1.0000
42.3300 366.0000 1.0000
42.3400 362.0000 1.0000
42.3500 337.0000 1.0000
42.3600 343.0000 1.0000
42.3700 349.0000 1.0000
42.3800 306.0000 1.0000
42.3900 323.0000 1.0000
42.4000 325.0000 1.0000
42.4100 335.0000 1.0000
42.4200 373.0000 1.0000
42.4300 365.0000 1.0000
42.4400 349.0000 1.0000
42.4500 348.0000 1.0000
42.4600 329.0000 1.0000
42.4700 356.0000 1.0000
42.4800 357.0000 1.0000
42.4900 322.0000 1.0000
42.5000 339.0000 1.0000
42.5100 337.0000 1.0000
42.5200 362.0000 1.0000
42.5300 353.0000 1.0000
42.5400 375.0000 1.0000
42.5500 348.0000 1.0000
42.5600 364.0000 1.0000
42.5700 371.0000 1.0000
42.5800 357.0000 1.0000
42.5900 366.0000 1.0000
42.6000 371.0000 1.0000
42.6100 351.0000 1.0000
42.6200 389.0000 1.0000
42.6300 347.0000 1.0000
42.6400 366.0000 1.0000
42.6500 360.0000 1.0000
42.6600 386.0000 1.0000
42.6700 340.0000 1.0000
42.6800 363.0000 1.0000
42.6900 367.0000 1.0000
42.7000 394.0000 1.0000
42.7100 378.0000 1.0000
42.7200 385.0000 1.0000
42.7300 357.0000 1.0000
42.7400 362.0000 1.0000
42.7500 351.0000 1.0000
42.7600 344.0000 1.0000
42.7700 354.0000 1.0000
42.7800 364.0000 1.0000
42.7900 355.0000 1.0000
42.8000 324.0000 1.0000
42.8100 363.0000 1.0000
42.8200 344.0000 1.0000
42.8300 332.0000 1.0000
42.8400 329.0000 1.0000
42.8500 316.0000 1.0000
42.8600 384.0000 1.0000
42.8700 360.0000 1.0000
42.8800 344.0000 1.0000
42.8900 335.0000 1.0000
42.9000 339.0000 1.0000
42.9100 353.0000 1.0000
42.9200 334.0000 1.0000
42.9300 346.0000 1.0000
42.9400 356.0000 1.0000
42.9500 344.0000 1.0000
42.9600 332.0000 1.0000
42.9700 334.0000 1.0000
42.9800 357.0000 1.0000
42.9900 327.0000 1.0000
43.0000 362.0000 1.0000
43.0100 338.0000 1.0000
43.0200 320.0000 1.0000
43.0300 303.0000 1.0000
43.0400 311.0000 1.0000
43.0500 326.0000 1.0000
43.0600 313.0000 1.0000
43.0700 360.0000 1.0000
43.0800 332.0000 1.0000
43.0900 332.0000 1.0000
43.1000 359.0000 1.0000
43.1100 313.0000 1.0000
43.1200 340.0000 1.0000
43.1300 340.0000 1.0000
43.1400 328.0000 1.0000
43.1500 326.0000 1.0000
43.1600 345.0000 1.0000
43.1700 348.0000 1.0000
43.1800 350.0000 1.0000
43.1900 308.0000 1.0000
43.2000 340.0000 1.0000
43.2100 310.0000 1.0000
43.2200 342.0000 1.0000
43.2300 354.0000 1.0000
43.2400 314.0000 1.0000
43.2500 324.0000 1.0000
43.2600 315.0000 1.0000
43.2700 329.0000 1.0000
43.2800 319.0000 1.0000
43.2900 318.0000 1.0000
43.3000 319.0000 1.0000
43.3100 312.0000 1.0000
43.3200 331.0000 1.0000
43.3300 332.0000 1.0000
43.3400 331.0000 1.0000
43.3500 337.0000 1.0000
43.3600 318.0000 1.0000
43.3700 351.0000 1.0000
43.3800 353.0000 1.0000
43.3900 333.0000 1.0000
43.4000 333.0000 1.0000
43.4100 350.0000 1.0000
43.4200 334.0000 1.0000
43.4300 315.0000 1.0000
43.4400 312.0000 1.0000
43.4500 324.0000 1.0000
43.4600 306.0000 1.0000
43.4700 354.0000 1.0000
43.4800 336.0000 1.0000
43.4900 342.0000 1.0000
43.5000 333.0000 1.0000
43.5100 354.0000 1.0000
43.5200 337.0000 1.0000
43.5300 321.0000 1.0000
43.5400 362.0000 1.0000
43.5500 331.0000 1.0000
43.5600 316.0000 1.0000
43.5700 318.0000 1.0000
43.5800 332.0000 1.0000
43.5900 322.0000 1.0000
43.6000 370.0000 1.0000
43.6100 342.0000 1.0000
43.6200 347.0000 1.0000
43.6300 348.0000 1.0000
43.6400 331.0000 1.0000
43.6500 325.0000 1.0000
43.6600 362.0000 1.0000
43.6700 332.0000 1.0000
43.6800 341.0000 1.0000
43.6900 310.0000 1.0000
43.7000 332.0000 1.0000
43.7100 338.0000 1.0000
43.7200 315.0000 1.0000
43.7300 327.0000 1.0000
43.7400 338.0000 1.0000
43.7500 331.0000 1.0000
43.7600 356.0000 1.0000
43.7700 349.0000 1.0000
43.7800 323.0000 1.0000
43.7900 341.0000 1.0000
43.8000 347.0000 1.0000
43.8100 344.0000 1.0000
43.8200 319.0000 1.0000
43.8300 329.0000 1.0000
43.8400 324.0000 1.0000
43.8500 329.0000 1.0000
43.8600 330.0000 1.0000
43.8700 331.0000 1.0000
43.8800 350.0000 1.0000
43.8900 336.0000 1.0000
43.9000 347.0000 1.0000
43.9100 316.0000 1.0000
43.9200 353.0000 1.0000
43.9300 314.0000 1.0000
43.9400 321.0000 1.0000
43.9500 357.0000 1.0000
43.9600 313.0000 1.0000
43.9700 297.0000 1.0000
43.9800 281.0000 1.0000
43.9900 326.0000 1.0000
44.0000 309.0000 1.0000
44.0100 303.0000 1.0000
44.0200 338.0000 1.0000
44.0300 319.0000 1.0000
44.0400 315.0000 1.0000
44.0500 352.0000 1.0000
44.0600 346.0000 1.0000
44.0700 331.0000 1.0000
44.0800 306.0000 1.0000
44.0900 292.0000 1.0000
44.1000 321.0000 1.0000
44.1100 329.0000 1.0000
44.1200 337.0000 1.0000
44.1300 296.0000 1.0000
44.1400 340.0000 1.0000
44.1500 314.0000 1.0000
44.1600 311.0000 1.0000
44.1700 333.0000 1.0000
44.1800 343.0000 1.0000
44.1900 303.0000 1.0000
44.2000 333.0000 1.0000
44.2100 342.0000 1.0000
44.2200 325.0000 1.0000
44.2300 318.0000 1.0000
44.2400 327.0000 1.0000
44.2500 331.0000 1.0000
44.2600 319.0000 1.0000
44.2700 301.0000 1.0000
44.2800 295.0000 1.0000
44.2900 295.0000 1.0000
44.3000 320.0000 1.0000
44.3100 315.0000 1.0000
44.3200 311.0000 1.0000
44.3300 301.0000 1.0000
44.3400 335.0000 1.0000
44.3500 342.0000 1.0000
44.3600 319.0000 1.0000
44.3700 308.0000 1.0000
44.3800 299.0000 1.0000
44.3900 280.0000 1.0000
44.4000 337.0000 1.0000
44.4100 322.0000 1.0000
44.4200 316.0000 1.0000
44.4300 311.0000 1.0000
44.4400 305.0000 1.0000
44.4500 321.0000 1.0000
44.4600 314.0000 1.0000
44.4700 304.0000 1.0000
44.4800 321.0000 1.0000
44.4900 325.0000 1.0000
44.5000 319.0000 1.0000
44.5100 307.0000 1.0000
44.5200 302.0000 1.0000
44.5300 308.0000 1.0000
44.5400 299.0000 1.0000
44.5500 290.0000 1.0000
44.5600 310.0000 1.0000
44.5700 296.0000 1.0000
44.5800 314.0000 1.0000
44.5900 314.0000 1.0000
44.6000 315.0000 1.0000
44.6100 349.0000 1.0000
44.6200 323.0000 1.0000
44.6300 304.0000 1.0000
44.6400 328.0000 1.0000
44.6500 306.0000 1.0000
44.6600 316.0000 1.0000
44.6700 326.0000 1.0000
44.6800 313.0000 1.0000
44.6900 308.0000 1.0000
44.7000 330.0000 1.0000
44.7100 312.0000 1.0000
44.7200 309.0000 1.0000
44.7300 320.0000 1.0000
44.7400 312.0000 1.0000
44.7500 296.0000 1.0000
44.7600 306.0000 1.0000
44.7700 318.0000 1.0000
44.7800 297.0000 1.0000
44.7900 314.0000 1.0000
44.8000 320.0000 1.0000
44.8100 298.0000 1.0000
44.8200 304.0000 1.0000
44.8300 326.0000 1.0000
44.8400 321.0000 1.0000
44.8500 323.0000 1.0000
44.8600 331.0000 1.0000
44.8700 327.0000 1.0000
44.8800 359.0000 1.0000
44.8900 304.0000 1.0000
44.9000 323.0000 1.0000
44.9100 313.0000 1.0000
44.9200 334.0000 1.0000
44.9300 335.0000 1.0000
44.9400 318.0000 1.0000
44.9500 301.0000 1.0000
44.9600 301.0000 1.0000
44.9700 289.0000 1.0000
44.9800 298.0000 1.0000
44.9900 338.0000 1.0000
45.0000 306.0000 1.0000
45.0100 333.0000 1.0000
45.0200 317.0000 1.0000
45.0300 305.0000 1.0000
45.0400 312.0000 1.0000
45.0500 302.0000 1.0000
45.0600 353.0000 1.0000
45.0700 307.0000 1.0000
45.0800 281.0000 1.0000
45.0900 296.0000 1.0000
45.1000 279.0000 1.0000
45.1100 289.0000 1.0000
45.1200 298.0000 1.0000
45.1300 347.0000 1.0000
45.1400 322.0000 1.0000
45.1500 310.0000 1.0000
45.1600 354.0000 1.0000
45.1700 293.0000 1.0000
45.1800 311.0000 1.0000
45.1900 315.0000 1.0000
45.2000 311.0000 1.0000
45.2100 303.0000 1.0000
45.2200 305.0000 1.0000
45.2300 323.0000 1.0000
45.2400 304.0000 1.0000
45.2500 309.0000 1.0000
45.2600 304.0000 1.0000
45.2700 324.0000 1.0000
45.2800 332.0000 1.0000
45.2900 317.0000 1.0000
45.3000 283.0000 1.0000
45.3100 319.0000 1.0000
45.3200 343.0000 1.0000
45.3300 315.0000 1.0000
45.3400 305.0000 1.0000
45.3500 290.0000 1.0000
45.3600 308.0000 1.0000
45.3700 314.0000 1.0000
45.3800 312.0000 1.0000
45.3900 314.0000 1.0000
45.4000 287.0000 1.0000
45.4100 281.0000 1.0000
45.4200 305.0000 1.0000
45.4300 315.0000 1.0000
45.4400 311.0000 1.0000
45.4500 321.0000 1.0000
45.4600 298.0000 1.0000
45.4700 267.0000 1.0000
45.4800 297.0000 1.0000
45.4900 301.0000 1.0000
45.5000 330.0000 1.0000
45.5100 326.0000 1.0000
45.5200 319.0000 1.0000
45.5300 306.0000 1.0000
45.5400 357.0000 1.0000
45.5500 306.0000 1.0000
45.5600 331.0000 1.0000
45.5700 302.0000 1.0000
45.5800 281.0000 1.0000
45.5900 322.0000 1.0000
45.6000 307.0000 1.0000
45.6100 316.0000 1.0000
45.6200 320.0000 1.0000
45.6300 325.0000 1.0000
45.6400 267.0000 1.0000
45.6500 319.0000 1.0000
45.6600 306.0000 1.0000
45.6700 321.0000 1.0000
45.6800 309.0000 1.0000
45.6900 285.0000 1.0000
45.7000 269.0000 1.0000
45.7100 308.0000 1.0000
45.7200 315.0000 1.0000
45.7300 314.0000 1.0000
45.7400 316.0000 1.0000
45.7500 311.0000 1.0000
45.7600 312.0000 1.0000
45.7700 296.0000 1.0000
45.7800 299.0000 1.0000
45.7900 290.0000 1.0000
45.8000 321.0000 1.0000
45.8100 302.0000 1.0000
45.8200 310.0000 1.0000
45.8300 287.0000 1.0000
45.8400 290.0000 1.0000
45.8500 320.0000 1.0000
45.8600 320.0000 1.0000
45.8700 309.0000 1.0000
45.8800 300.0000 1.0000
45.8900 297.0000 1.0000
45.9000 292.0000 1.0000
45.9100 294.0000 1.0000
45.9200 264.0000 1.0000
45.9300 289.0000 1.0000
45.9400 290.0000 1.0000
45.9500 257.0000 1.0000
45.9600 288.0000 1.0000
45.9700 297.0000 1.0000
45.9800 307.0000 1.0000
45.9900 310.0000 1.0000
46.0000 322.0000 1.0000
46.0100 317.0000 1.0000
46.0200 317.0000 1.0000
46.0300 295.0000 1.0000
46.0400 280.0000 1.0000
46.0500 332.0000 1.0000
46.0600 300.0000 1.0000
46.0700 305.0000 1.0000
46.0800 309.0000 1.0000
46.0900 304.0000 1.0000
46.1000 296.0000 1.0000
46.1100 310.0000 1.0000
46.1200 300.0000 1.0000
46.1300 302.0000 1.0000
46.1400 311.0000 1.0000
46.1500 326.0000 1.0000
46.1600 313.0000 1.0000
46.1700 297.0000 1.0000
46.1800 299.0000 1.0000
46.1900 313.0000 1.0000
46.2000 308.0000 1.0000
46.2100 293.0000 1.0000
46.2200 304.0000 1.0000
46.2300 320.0000 1.0000
46.2400 328.0000 1.0000
46.2500 297.0000 1.0000
46.2600 309.0000 1.0000
46.2700 294.0000 1.0000
46.2800 331.0000 1.0000
46.2900 305.0000 1.0000
46.3000 300.0000 1.0000
46.3100 316.0000 1.0000
46.3200 336.0000 1.0000
46.3300 339.0000 1.0000
46.3400 306.0000 1.0000
46.3500 292.0000 1.0000
46.3600 295.0000 1.0000
46.3700 326.0000 1.0000
46.3800 330.0000 1.0000
46.3900 313.0000 1.0000
46.4000 300.0000 1.0000
46.4100 334.0000 1.0000
46.4200 328.0000 1.0000
46.4300 321.0000 1.0000
46.4400 336.0000 1.0000
46.4500 325.0000 1.0000
46.4600 316.0000 1.0000
46.4700 323.0000 1.0000
46.4800 320.0000 1.0000
46.4900 306.0000 1.0000
46.5000 317.0000 1.0000
46.5100 305.0000 1.0000
46.5200 274.0000 1.0000
46.5300 306.0000 1.0000
46.5400 311.0000 1.0000
46.5500 282.0000 1.0000
46.5600 298.0000 1.0000
46.5700 318.0000 1.0000
46.5800 281.0000 1.0000
46.5900 311.0000 1.0000
46.6000 285.0000 1.0000
46.6100 312.0000 1.0000
46.6200 307.0000 1.0000
46.6300 307.0000 1.0000
46.6400 320.0000 1.0000
46.6500 307.0000 1.0000
46.6600 324.0000 1.0000
46.6700 318.0000 1.0000
46.6800 291.0000 1.0000
46.6900 292.0000 1.0000
46.7000 295.0000 1.0000
46.7100 317.0000 1.0000
46.7200 316.0000 1.0000
46.7300 312.0000 1.0000
46.7400 293.0000 1.0000
46.7500 294.0000 1.0000
46.7600 278.0000 1.0000
46.7700 317.0000 1.0000
46.7800 311.0000 1.0000
46.7900 311.0000 1.0000
46.8000 309.0000 1.0000
46.8100 304.0000 1.0000
46.8200 290.0000 1.0000
46.8300 306.0000 1.0000
46.8400 283.0000 1.0000
46.8500 321.0000 1.0000
46.8600 294.0000 1.0000
46.8700 284.0000 1.0000
46.8800 290.0000 1.0000
46.8900 318.0000 1.0000
46.9000 291.0000 1.0000
46.9100 315.0000 1.0000
46.9200 295.0000 1.0000
46.9300 292.0000 1.0000
46.9400 298.0000 1.0000
46.9500 334.0000 1.0000
46.9600 330.0000 1.0000
46.9700 298.0000 1.0000
46.9800 310.0000 1.0000
46.9900 303.0000 1.0000
47.0000 279.0000 1.0000
47.0100 264.0000 1.0000
47.0200 307.0000 1.0000
47.0300 310.0000 1.0000
47.0400 296.0000 1.0000
47.0500 301.0000 1.0000
47.0600 293.0000 1.0000
47.0700 284.0000 1.0000
47.0800 288.0000 1.0000
47.0900 287.0000 1.0000
47.1000 308.0000 1.0000
47.1100 293.0000 1.0000
47.1200 312.0000 1.0000
47.1300 287.0000 1.0000
47.1400 313.0000 1.0000
47.1500 279.0000 1.0000
47.1600 296.0000 1.0000
47.1700 281.0000 1.0000
47.1800 322.0000 1.0000
47.1900 303.0000 1.0000
47.2000 287.0000 1.0000
47.2100 312.0000 1.0000
47.2200 282.0000 1.0000
47.2300 311.0000 1.0000
47.2400 296.0000 1.0000
47.2500 300.0000 1.0000
47.2600 308.0000 1.0000
47.2700 290.0000 1.0000
47.2800 286.0000 1.0000
47.2900 312.0000 1.0000
47.3000 317.0000 1.0000
47.3100 310.0000 1.0000
47.3200 303.0000 1.0000
47.3300 314.0000 1.0000
47.3400 290.0000 1.0000
47.3500 297.0000 1.0000
47.3600 289.0000 1.0000
47.3700 284.0000 1.0000
47.3800 321.0000 1.0000
47.3900 301.0000 1.0000
47.4000 303.0000 1.0000
47.4100 301.0000 1.0000
47.4200 307.0000 1.0000
47.4300 293.0000 1.0000
47.4400 299.0000 1.0000
47.4500 281.0000 1.0000
47.4600 286.0000 1.0000
47.4700 295.0000 1.0000
47.4800 297.0000 1.0000
47.4900 265.0000 1.0000
47.5000 280.0000 1.0000
47.5100 271.0000 1.0000
47.5200 281.0000 1.0000
47.5300 300.0000 1.0000
47.5400 315.0000 1.0000
47.5500 288.0000 1.0000
47.5600 287.0000 1.0000
47.5700 295.0000 1.0000
47.5800 285.0000 1.0000
47.5900 277.0000 1.0000
47.6000 282.0000 1.0000
47.6100 270.0000 1.0000
47.6200 255.0000 1.0000
47.6300 292.0000 1.0000
47.6400 299.0000 1.0000
47.6500 291.0000 1.0000
47.6600 264.0000 1.0000
47.6700 293.0000 1.0000
47.6800 298.0000 1.0000
47.6900 304.0000 1.0000
47.7000 288.0000 1.0000
47.7100 301.0000 1.0000
47.7200 294.0000 1.0000
47.7300 284.0000 1.0000
47.7400 276.0000 1.0000
47.7500 306.0000 1.0000
47.7600 305.0000 1.0000
47.7700 295.0000 1.0000
47.7800 286.0000 1.0000
47.7900 317.0000 1.0000
47.8000 294.0000 1.0000
47.8100 303.0000 1.0000
47.8200 287.0000 1.0000
47.8300 277.0000 1.0000
47.8400 301.0000 1.0000
47.8500 276.0000 1.0000
47.8600 281.0000 1.0000
47.8700 286.0000 1.0000
47.8800 294.0000 1.0000
47.8900 292.0000 1.0000
47.9000 297.0000 1.0000
47.9100 275.0000 1.0000
47.9200 281.0000 1.0000
47.9300 295.0000 1.0000
47.9400 277.0000 1.0000
47.9500 284.0000 1.0000
47.9600 288.0000 1.0000
47.9700 279.0000 1.0000
47.9800 281.0000 1.0000
47.9900 280.0000 1.0000
48.0000 287.0000 1.0000
48.0100 312.0000 1.0000
48.0200 283.0000 1.0000
48.0300 300.0000 1.0000
48.0400 311.0000 1.0000
48.0500 316.0000 1.0000
48.0600 294.0000 1.0000
48.0700 260.0000 1.0000
48.0800 283.0000 1.0000
48.0900 287.0000 1.0000
48.1000 267.0000 1.0000
48.1100 259.0000 1.0000
48.1200 267.0000 1.0000
48.1300 282.0000 1.0000
48.1400 304.0000 1.0000
48.1500 278.0000 1.0000
48.1600 287.0000 1.0000
48.1700 285.0000 1.0000
48.1800 305.0000 1.0000
48.1900 293.0000 1.0000
48.2000 296.0000 1.0000
48.2100 279.0000 1.0000
48.2200 314.0000 1.0000
48.2300 305.0000 1.0000
48.2400 276.0000 1.0000
48.2500 280.0000 1.0000
48.2600 300.0000 1.0000
48.2700 288.0000 1.0000
48.2800 292.0000 1.0000
48.2900 294.0000 1.0000
48.3000 274.0000 1.0000
48.3100 278.0000 1.0000
48.3200 290.0000 1.0000
48.3300 281.0000 1.0000
48.3400 263.0000 1.0000
48.3500 298.0000 1.0000
48.3600 308.0000 1.0000
48.3700 289.0000 1.0000
48.3800 271.0000 1.0000
48.3900 304.0000 1.0000
48.4000 299.0000 1.0000
48.4100 283.0000 1.0000
48.4200 286.0000 1.0000
48.4300 277.0000 1.0000
48.4400 289.0000 1.0000
48.4500 286.0000 1.0000
48.4600 288.0000 1.0000
48.4700 265.0000 1.0000
48.4800 280.0000 1.0000
48.4900 316.0000 1.0000
48.5000 283.0000 1.0000
48.5100 283.0000 1.0000
48.5200 265.0000 1.0000
48.5300 284.0000 1.0000
48.5400 299.0000 1.0000
48.5500 315.0000 1.0000
48.5600 299.0000 1.0000
48.5700 310.0000 1.0000
48.5800 286.0000 1.0000
48.5900 287.0000 1.0000
48.6000 298.0000 1.0000
48.6100 283.0000 1.0000
48.6200 278.0000 1.0000
48.6300 283.0000 1.0000
48.6400 297.0000 1.0000
48.6500 283.0000 1.0000
48.6600 269.0000 1.0000
48.6700 257.0000 1.0000
48.6800 295.0000 1.0000
48.6900 301.0000 1.0000
48.7000 281.0000 1.0000
48.7100 311.0000 1.0000
48.7200 271.0000 1.0000
48.7300 307.0000 1.0000
48.7400 329.0000 1.0000
48.7500 303.0000 1.0000
48.7600 305.0000 1.0000
48.7700 277.0000 1.0000
48.7800 303.0000 1.0000
48.7900 278.0000 1.0000
48.8000 290.0000 1.0000
48.8100 272.0000 1.0000
48.8200 284.0000 1.0000
48.8300 265.0000 1.0000
48.8400 279.0000 1.0000
48.8500 261.0000 1.0000
48.8600 271.0000 1.0000
48.8700 295.0000 1.0000
48.8800 283.0000 1.0000
48.8900 292.0000 1.0000
48.9000 274.0000 1.0000
48.9100 292.0000 1.0000
48.9200 292.0000 1.0000
48.9300 307.0000 1.0000
48.9400 314.0000 1.0000
48.9500 262.0000 1.0000
48.9600 287.0000 1.0000
48.9700 278.0000 1.0000
48.9800 296.0000 1.0000
48.9900 305.0000 1.0000
49.0000 282.0000 1.0000
49.0100 284.0000 1.0000
49.0200 299.0000 1.0000
49.0300 274.0000 1.0000
49.0400 271.0000 1.0000
49.0500 290.0000 1.0000
49.0600 288.0000 1.0000
49.0700 290.0000 1.0000
49.0800 264.0000 1.0000
49.0900 265.0000 1.0000
49.1000 283.0000 1.0000
49.1100 267.0000 1.0000
49.1200 293.0000 1.0000
49.1300 296.0000 1.0000
49.1400 283.0000 1.0000
49.1500 265.0000 1.0000
49.1600 278.0000 1.0000
49.1700 290.0000 1.0000
49.1800 310.0000 1.0000
49.1900 291.0000 1.0000
49.2000 313.0000 1.0000
49.2100 286.0000 1.0000
49.2200 300.0000 1.0000
49.2300 286.0000 1.0000
49.2400 302.0000 1.0000
49.2500 288.0000 1.0000
49.2600 289.0000 1.0000
49.2700 340.0000 1.0000
49.2800 288.0000 1.0000
49.2900 267.0000 1.0000
49.3000 291.0000 1.0000
49.3100 295.0000 1.0000
49.3200 309.0000 1.0000
49.3300 279.0000 1.0000
49.3400 294.0000 1.0000
49.3500 288.0000 1.0000
49.3600 276.0000 1.0000
49.3700 273.0000 1.0000
49.3800 302.0000 1.0000
49.3900 318.0000 1.0000
49.4000 289.0000 1.0000
49.4100 305.0000 1.0000
49.4200 301.0000 1.0000
49.4300 284.0000 1.0000
49.4400 287.0000 1.0000
49.4500 281.0000 1.0000
49.4600 308.0000 1.0000
49.4700 335.0000 1.0000
49.4800 296.0000 1.0000
49.4900 295.0000 1.0000
49.5000 297.0000 1.0000
49.5100 294.0000 1.0000
49.5200 313.0000 1.0000
49.5300 322.0000 1.0000
49.5400 339.0000 1.0000
49.5500 353.0000 1.0000
49.5600 338.0000 1.0000
49.5700 350.0000 1.0000
49.5800 335.0000 1.0000
49.5900 319.0000 1.0000
49.6000 319.0000 1.0000
49.6100 351.0000 1.0000
49.6200 333.0000 1.0000
49.6300 369.0000 1.0000
49.6400 313.0000 1.0000
49.6500 341.0000 1.0000
49.6600 302.0000 1.0000
49.6700 341.0000 1.0000
49.6800 309.0000 1.0000
49.6900 324.0000 1.0000
49.7000 305.0000 1.0000
49.7100 299.0000 1.0000
49.7200 318.0000 1.0000
49.7300 323.0000 1.0000
49.7400 314.0000 1.0000
49.7500 312.0000 1.0000
49.7600 324.0000 1.0000
49.7700 310.0000 1.0000
49.7800 323.0000 1.0000
49.7900 318.0000 1.0000
49.8000 326.0000 1.0000
49.8100 291.0000 1.0000
49.8200 303.0000 1.0000
49.8300 334.0000 1.0000
49.8400 281.0000 1.0000
49.8500 323.0000 1.0000
49.8600 299.0000 1.0000
49.8700 299.0000 1.0000
49.8800 291.0000 1.0000
49.8900 286.0000 1.0000
49.9000 295.0000 1.0000
49.9100 297.0000 1.0000
49.9200 281.0000 1.0000
49.9300 283.0000 1.0000
49.9400 274.0000 1.0000
49.9500 301.0000 1.0000
49.9600 280.0000 1.0000
49.9700 300.0000 1.0000
49.9800 273.0000 1.0000
49.9900 292.0000 1.0000
50.0000 281.0000 1.0000
50.0100 284.0000 1.0000
50.0200 257.0000 1.0000
50.0300 276.0000 1.0000
50.0400 283.0000 1.0000
50.0500 314.0000 1.0000
50.0600 273.0000 1.0000
50.0700 270.0000 1.0000
50.0800 303.0000 1.0000
50.0900 289.0000 1.0000
50.1000 252.0000 1.0000
50.1100 288.0000 1.0000
50.1200 298.0000 1.0000
50.1300 281.0000 1.0000
50.1400 284.0000 1.0000
50.1500 290.0000 1.0000
50.1600 282.0000 1.0000
50.1700 309.0000 1.0000
50.1800 273.0000 1.0000
50.1900 295.0000 1.0000
50.2000 289.0000 1.0000
50.2100 287.0000 1.0000
50.2200 284.0000 1.0000
50.2300 299.0000 1.0000
50.2400 289.0000 1.0000
50.2500 280.0000 1.0000
50.2600 315.0000 1.0000
50.2700 308.0000 1.0000
50.2800 282.0000 1.0000
50.2900 311.0000 1.0000
50.3000 303.0000 1.0000
50.3100 301.0000 1.0000
50.3200 322.0000 1.0000
50.3300 294.0000 1.0000
50.3400 307.0000 1.0000
50.3500 321.0000 1.0000
50.3600 287.0000 1.0000
50.3700 291.0000 1.0000
50.3800 283.0000 1.0000
50.3900 279.0000 1.0000
50.4000 265.0000 1.0000
50.4100 286.0000 1.0000
50.4200 297.0000 1.0000
50.4300 290.0000 1.0000
50.4400 276.0000 1.0000
50.4500 289.0000 1.0000
50.4600 313.0000 1.0000
50.4700 296.0000 1.0000
50.4800 288.0000 1.0000
50.4900 266.0000 1.0000
50.5000 273.0000 1.0000
50.5100 286.0000 1.0000
50.5200 274.0000 1.0000
50.5300 275.0000 1.0000
50.5400 273.0000 1.0000
50.5500 296.0000 1.0000
50.5600 279.0000 1.0000
50.5700 290.0000 1.0000
50.5800 289.0000 1.0000
50.5900 277.0000 1.0000
50.6000 303.0000 1.0000
50.6100 289.0000 1.0000
50.6200 300.0000 1.0000
50.6300 288.0000 1.0000
50.6400 274.0000 1.0000
50.6500 271.0000 1.0000
50.6600 290.0000 1.0000
50.6700 277.0000 1.0000
50.6800 286.0000 1.0000
50.6900 314.0000 1.0000
50.7000 282.0000 1.0000
50.7100 301.0000 1.0000
50.7200 331.0000 1.0000
50.7300 286.0000 1.0000
50.7400 298.0000 1.0000
50.7500 338.0000 1.0000
50.7600 297.0000 1.0000
50.7700 306.0000 1.0000
50.7800 294.0000 1.0000
50.7900 308.0000 1.0000
50.8000 284.0000 1.0000
50.8100 266.0000 1.0000
50.8200 291.0000 1.0000
50.8300 309.0000 1.0000
50.8400 300.0000 1.0000
50.8500 290.0000 1.0000
50.8600 292.0000 1.0000
50.8700 275.0000 1.0000
50.8800 312.0000 1.0000
50.8900 280.0000 1.0000
50.9000 275.0000 1.0000
50.9100 311.0000 1.0000
50.9200 276.0000 1.0000
50.9300 279.0000 1.0000
50.9400 290.0000 1.0000
50.9500 278.0000 1.0000
50.9600 288.0000 1.0000
50.9700 320.0000 1.0000
50.9800 301.0000 1.0000
50.9900 293.0000 1.0000
51.0000 304.0000 1.0000
51.0100 307.0000 1.0000
51.0200 314.0000 1.0000
51.0300 271.0000 1.0000
51.0400 315.0000 1.0000
51.0500 284.0000 1.0000
51.0600 279.0000 1.0000
51.0700 319.0000 1.0000
51.0800 313.0000 1.0000
51.0900 299.0000 1.0000
51.1000 281.0000 1.0000
51.1100 314.0000 1.0000
51.1200 267.0000 1.0000
51.1300 325.0000 1.0000
51.1400 324.0000 1.0000
51.1500 307.0000 1.0000
51.1600 288.0000 1.0000
51.1700 303.0000 1.0000
51.1800 297.0000 1.0000
51.1900 286.0000 1.0000
51.2000 302.0000 1.0000
51.2100 316.0000 1.0000
51.2200 320.0000 1.0000
51.2300 338.0000 1.0000
51.2400 339.0000 1.0000
51.2500 339.0000 1.0000
51.2600 321.0000 1.0000
51.2700 334.0000 1.0000
51.2800 346.0000 1.0000
51.2900 360.0000 1.0000
51.3000 360.0000 1.0000
51.3100 352.0000 1.0000
51.3200 354.0000 1.0000
51.3300 380.0000 1.0000
51.3400 382.0000 1.0000
51.3500 414.0000 1.0000
51.3600 385.0000 1.0000
51.3700 414.0000 1.0000
51.3800 467.0000 1.0000
51.3900 431.0000 1.0000
51.4000 450.0000 1.0000
51.4100 413.0000 1.0000
51.4200 482.0000 1.0000
51.4300 500.0000 1.0000
51.4400 480.0000 1.0000
51.4500 516.0000 1.0000
51.4600 536.0000 1.0000
51.4700 552.0000 1.0000
51.4800 603.0000 1.0000
51.4900 625.0000 1.0000
51.5000 724.0000 1.0000
51.5100 766.0000 1.0000
51.5200 826.0000 1.0000
51.5300 842.0000 1.0000
51.5400 893.0000 1.0000
51.5500 985.0000 1.0000
51.5600 1078.0000 1.0000
51.5700 1069.0000 1.0000
51.5800 1209.0000 1.0000
51.5900 1294.0000 1.0000
51.6000 1389.0000 1.0000
51.6100 1464.0000 1.0000
51.6200 1568.0000 1.0000
51.6300 1608.0000 1.0000
51.6400 1710.0000 1.0000
51.6500 1758.0000 1.0000
51.6600 1763.0000 1.0000
51.6700 1825.0000 1.0000
51.6800 1872.0000 1.0000
51.6900 1899.0000 1.0000
51.7000 1856.0000 1.0000
51.7100 1725.0000 1.0000
51.7200 1734.0000 1.0000
51.7300 1784.0000 1.0000
51.7400 1662.0000 1.0000
51.7500 1557.0000 1.0000
51.7600 1565.0000 1.0000
51.7700 1485.0000 1.0000
51.7800 1483.0000 1.0000
51.7900 1379.0000 1.0000
51.8000 1382.0000 1.0000
51.8100 1318.0000 1.0000
51.8200 1292.0000 1.0000
51.8300 1247.0000 1.0000
51.8400 1171.0000 1.0000
51.8500 1067.0000 1.0000
51.8600 1062.0000 1.0000
51.8700 1004.0000 1.0000
51.8800 878.0000 1.0000
51.8900 885.0000 1.0000
51.9000 751.0000 1.0000
51.9100 715.0000 1.0000
51.9200 663.0000 1.0000
51.9300 655.0000 1.0000
51.9400 621.0000 1.0000
51.9500 567.0000 1.0000
51.9600 586.0000 1.0000
51.9700 503.0000 1.0000
51.9800 529.0000 1.0000
51.9900 495.0000 1.0000
52.0000 454.0000 1.0000
52.0100 491.0000 1.0000
52.0200 461.0000 1.0000
52.0300 439.0000 1.0000
52.0400 443.0000 1.0000
52.0500 454.0000 1.0000
52.0600 393.0000 1.0000
52.0700 399.0000 1.0000
52.0800 389.0000 1.0000
52.0900 408.0000 1.0000
52.1000 380.0000 1.0000
52.1100 360.0000 1.0000
52.1200 369.0000 1.0000
52.1300 340.0000 1.0000
52.1400 342.0000 1.0000
52.1500 352.0000 1.0000
52.1600 337.0000 1.0000
52.1700 363.0000 1.0000
52.1800 339.0000 1.0000
52.1900 330.0000 1.0000
52.2000 329.0000 1.0000
52.2100 341.0000 1.0000
52.2200 334.0000 1.0000
52.2300 321.0000 1.0000
52.2400 328.0000 1.0000
52.2500 358.0000 1.0000
52.2600 311.0000 1.0000
52.2700 298.0000 1.0000
52.2800 333.0000 1.0000
52.2900 338.0000 1.0000
52.3000 289.0000 1.0000
52.3100 315.0000 1.0000
52.3200 308.0000 1.0000
52.3300 302.0000 1.0000
52.3400 298.0000 1.0000
52.3500 296.0000 1.0000
52.3600 321.0000 1.0000
52.3700 311.0000 1.0000
52.3800 283.0000 1.0000
52.3900 295.0000 1.0000
52.4000 271.0000 1.0000
52.4100 311.0000 1.0000
52.4200 321.0000 1.0000
52.4300 308.0000 1.0000
52.4400 293.0000 1.0000
52.4500 282.0000 1.0000
52.4600 309.0000 1.0000
52.4700 325.0000 1.0000
52.4800 286.0000 1.0000
52.4900 289.0000 1.0000
52.5000 311.0000 1.0000
52.5100 292.0000 1.0000
52.5200 291.0000 1.0000
52.5300 282.0000 1.0000
52.5400 261.0000 1.0000
52.5500 302.0000 1.0000
52.5600 279.0000 1.0000
52.5700 265.0000 1.0000
52.5800 289.0000 1.0000
52.5900 300.0000 1.0000
52.6000 292.0000 1.0000
52.6100 270.0000 1.0000
52.6200 302.0000 1.0000
52.6300 303.0000 1.0000
52.6400 296.0000 1.0000
52.6500 277.0000 1.0000
52.6600 330.0000 1.0000
52.6700 277.0000 1.0000
52.6800 278.0000 1.0000
52.6900 277.0000 1.0000
52.7000 274.0000 1.0000
52.7100 272.0000 1.0000
52.7200 279.0000 1.0000
52.7300 294.0000 1.0000
52.7400 269.0000 1.0000
52.7500 271.0000 1.0000
52.7600 294.0000 1.0000
52.7700 319.0000 1.0000
52.7800 281.0000 1.0000
52.7900 293.0000 1.0000
52.8000 301.0000 1.0000
52.8100 272.0000 1.0000
52.8200 263.0000 1.0000
52.8300 279.0000 1.0000
52.8400 295.0000 1.0000
52.8500 287.0000 1.0000
52.8600 297.0000 1.0000
52.8700 301.0000 1.0000
52.8800 280.0000 1.0000
52.8900 261.0000 1.0000
52.9000 285.0000 1.0000
52.9100 306.0000 1.0000
52.9200 289.0000 1.0000
52.9300 292.0000 1.0000
52.9400 296.0000 1.0000
52.9500 270.0000 1.0000
52.9600 284.0000 1.0000
52.9700 276.0000 1.0000
52.9800 244.0000 1.0000
52.9900 257.0000 1.0000
53.0000 271.0000 1.0000
53.0100 262.0000 1.0000
53.0200 283.0000 1.0000
53.0300 290.0000 1.0000
53.0400 275.0000 1.0000
53.0500 259.0000 1.0000
53.0600 292.0000 1.0000
53.0700 272.0000 1.0000
53.0800 263.0000 1.0000
53.0900 277.0000 1.0000
53.1000 276.0000 1.0000
53.1100 275.0000 1.0000
53.1200 285.0000 1.0000
53.1300 278.0000 1.0000
53.1400 267.0000 1.0000
53.1500 293.0000 1.0000
53.1600 271.0000 1.0000
53.1700 286.0000 1.0000
53.1800 274.0000 1.0000
53.1900 295.0000 1.0000
53.2000 289.0000 1.0000
53.2100 281.0000 1.0000
53.2200 239.0000 1.0000
53.2300 257.0000 1.0000
53.2400 282.0000 1.0000
53.2500 294.0000 1.0000
53.2600 271.0000 1.0000
53.2700 274.0000 1.0000
53.2800 280.0000 1.0000
53.2900 277.0000 1.0000
53.3000 273.0000 1.0000
53.3100 299.0000 1.0000
53.3200 283.0000 1.0000
53.3300 276.0000 1.0000
53.3400 272.0000 1.0000
53.3500 276.0000 1.0000
53.3600 297.0000 1.0000
53.3700 276.0000 1.0000
53.3800 301.0000 1.0000
53.3900 291.0000 1.0000
53.4000 271.0000 1.0000
53.4100 292.0000 1.0000
53.4200 266.0000 1.0000
53.4300 282.0000 1.0000
53.4400 296.0000 1.0000
53.4500 265.0000 1.0000
53.4600 292.0000 1.0000
53.4700 262.0000 1.0000
53.4800 258.0000 1.0000
53.4900 276.0000 1.0000
53.5000 269.0000 1.0000
53.5100 280.0000 1.0000
53.5200 279.0000 1.0000
53.5300 286.0000 1.0000
53.5400 278.0000 1.0000
53.5500 252.0000 1.0000
53.5600 293.0000 1.0000
53.5700 257.0000 1.0000
53.5800 274.0000 1.0000
53.5900 289.0000 1.0000
53.6000 290.0000 1.0000
53.6100 293.0000 1.0000
53.6200 256.0000 1.0000
53.6300 266.0000 1.0000
53.6400 279.0000 1.0000
53.6500 286.0000 1.0000
53.6600 275.0000 1.0000
53.6700 274.0000 1.0000
53.6800 280.0000 1.0000
53.6900 278.0000 1.0000
53.7000 277.0000 1.0000
53.7100 250.0000 1.0000
53.7200 255.0000 1.0000
53.7300 266.0000 1.0000
53.7400 268.0000 1.0000
53.7500 269.0000 1.0000
53.7600 295.0000 1.0000
53.7700 268.0000 1.0000
53.7800 286.0000 1.0000
53.7900 262.0000 1.0000
53.8000 263.0000 1.0000
53.8100 278.0000 1.0000
53.8200 241.0000 1.0000
53.8300 248.0000 1.0000
53.8400 278.0000 1.0000
53.8500 274.0000 1.0000
53.8600 278.0000 1.0000
53.8700 281.0000 1.0000
53.8800 259.0000 1.0000
53.8900 265.0000 1.0000
53.9000 300.0000 1.0000
53.9100 291.0000 1.0000
53.9200 265.0000 1.0000
53.9300 276.0000 1.0000
53.9400 258.0000 1.0000
53.9500 295.0000 1.0000
53.9600 304.0000 1.0000
53.9700 270.0000 1.0000
53.9800 268.0000 1.0000
53.9900 314.0000 1.0000
54.0000 321.0000 1.0000
54.0100 311.0000 1.0000
54.0200 279.0000 1.0000
54.0300 300.0000 1.0000
54.0400 305.0000 1.0000
54.0500 296.0000 1.0000
54.0600 288.0000 1.0000
54.0700 283.0000 1.0000
54.0800 279.0000 1.0000
54.0900 314.0000 1.0000
54.1000 308.0000 1.0000
54.1100 298.0000 1.0000
54.1200 298.0000 1.0000
54.1300 309.0000 1.0000
54.1400 282.0000 1.0000
54.1500 326.0000 1.0000
54.1600 368.0000 1.0000
54.1700 334.0000 1.0000
54.1800 328.0000 1.0000
54.1900 345.0000 1.0000
54.2000 323.0000 1.0000
54.2100 352.0000 1.0000
54.2200 330.0000 1.0000
54.2300 337.0000 1.0000
54.2400 297.0000 1.0000
54.2500 309.0000 1.0000
54.2600 327.0000 1.0000
54.2700 312.0000 1.0000
54.2800 326.0000 1.0000
54.2900 315.0000 1.0000
54.3000 336.0000 1.0000
54.3100 322.0000 1.0000
54.3200 340.0000 1.0000
54.3300 328.0000 1.0000
54.3400 340.0000 1.0000
54.3500 341.0000 1.0000
54.3600 292.0000 1.0000
54.3700 313.0000 1.0000
54.3800 334.0000 1.0000
54.3900 337.0000 1.0000
54.4000 349.0000 1.0000
54.4100 317.0000 1.0000
54.4200 298.0000 1.0000
54.4300 302.0000 1.0000
54.4400 311.0000 1.0000
54.4500 299.0000 1.0000
54.4600 321.0000 1.0000
54.4700 350.0000 1.0000
54.4800 338.0000 1.0000
54.4900 343.0000 1.0000
54.5000 324.0000 1.0000
54.5100 317.0000 1.0000
54.5200 311.0000 1.0000
54.5300 338.0000 1.0000
54.5400 347.0000 1.0000
54.5500 346.0000 1.0000
54.5600 370.0000 1.0000
54.5700 399.0000 1.0000
54.5800 358.0000 1.0000
54.5900 369.0000 1.0000
54.6000 371.0000 1.0000
54.6100 365.0000 1.0000
54.6200 416.0000 1.0000
54.6300 416.0000 1.0000
54.6400 378.0000 1.0000
54.6500 414.0000 1.0000
54.6600 423.0000 1.0000
54.6700 397.0000 1.0000
54.6800 402.0000 1.0000
54.6900 406.0000 1.0000
54.7000 424.0000 1.0000
54.7100 416.0000 1.0000
54.7200 414.0000 1.0000
54.7300 420.0000 1.0000
54.7400 423.0000 1.0000
54.7500 410.0000 1.0000
54.7600 419.0000 1.0000
54.7700 414.0000 1.0000
54.7800 414.0000 1.0000
54.7900 434.0000 1.0000
54.8000 421.0000 1.0000
54.8100 416.0000 1.0000
54.8200 396.0000 1.0000
54.8300 369.0000 1.0000
54.8400 380.0000 1.0000
54.8500 406.0000 1.0000
54.8600 370.0000 1.0000
54.8700 371.0000 1.0000
54.8800 384.0000 1.0000
54.8900 375.0000 1.0000
54.9000 378.0000 1.0000
54.9100 331.0000 1.0000
54.9200 330.0000 1.0000
54.9300 359.0000 1.0000
54.9400 360.0000 1.0000
54.9500 343.0000 1.0000
54.9600 332.0000 1.0000
54.9700 318.0000 1.0000
54.9800 308.0000 1.0000
54.9900 305.0000 1.0000
55.0000 295.0000 1.0000
55.0100 316.0000 1.0000
55.0200 307.0000 1.0000
55.0300 306.0000 1.0000
55.0400 305.0000 1.0000
55.0500 296.0000 1.0000
55.0600 301.0000 1.0000
55.0700 313.0000 1.0000
55.0800 278.0000 1.0000
55.0900 287.0000 1.0000
55.1000 287.0000 1.0000
55.1100 291.0000 1.0000
55.1200 283.0000 1.0000
55.1300 263.0000 1.0000
55.1400 274.0000 1.0000
55.1500 295.0000 1.0000
55.1600 267.0000 1.0000
55.1700 275.0000 1.0000
55.1800 277.0000 1.0000
55.1900 263.0000 1.0000
55.2000 277.0000 1.0000
55.2100 289.0000 1.0000
55.2200 296.0000 1.0000
55.2300 281.0000 1.0000
55.2400 261.0000 1.0000
55.2500 285.0000 1.0000
55.2600 304.0000 1.0000
55.2700 254.0000 1.0000
55.2800 244.0000 1.0000
55.2900 305.0000 1.0000
55.3000 267.0000 1.0000
55.3100 263.0000 1.0000
55.3200 274.0000 1.0000
55.3300 269.0000 1.0000
55.3400 238.0000 1.0000
55.3500 283.0000 1.0000
55.3600 288.0000 1.0000
55.3700 257.0000 1.0000
55.3800 284.0000 1.0000
55.3900 299.0000 1.0000
55.4000 291.0000 1.0000
55.4100 288.0000 1.0000
55.4200 265.0000 1.0000
55.4300 250.0000 1.0000
55.4400 263.0000 1.0000
55.4500 252.0000 1.0000
55.4600 266.0000 1.0000
55.4700 259.0000 1.0000
55.4800 253.0000 1.0000
55.4900 290.0000 1.0000
55.5000 252.0000 1.0000
55.5100 280.0000 1.0000
55.5200 277.0000 1.0000
55.5300 266.0000 1.0000
55.5400 259.0000 1.0000
55.5500 263.0000 1.0000
55.5600 277.0000 1.0000
55.5700 270.0000 1.0000
55.5800 286.0000 1.0000
55.5900 282.0000 1.0000
55.6000 255.0000 1.0000
55.6100 262.0000 1.0000
55.6200 273.0000 1.0000
55.6300 258.0000 1.0000
55.6400 265.0000 1.0000
55.6500 251.0000 1.0000
55.6600 258.0000 1.0000
55.6700 266.0000 1.0000
55.6800 256.0000 1.0000
55.6900 258.0000 1.0000
55.7000 225.0000 1.0000
55.7100 259.0000 1.0000
55.7200 268.0000 1.0000
55.7300 256.0000 1.0000
55.7400 254.0000 1.0000
55.7500 222.0000 1.0000
55.7600 237.0000 1.0000
55.7700 245.0000 1.0000
55.7800 250.0000 1.0000
55.7900 271.0000 1.0000
55.8000 303.0000 1.0000
55.8100 295.0000 1.0000
55.8200 270.0000 1.0000
55.8300 289.0000 1.0000
55.8400 267.0000 1.0000
55.8500 270.0000 1.0000
55.8600 257.0000 1.0000
55.8700 273.0000 1.0000
55.8800 277.0000 1.0000
55.8900 267.0000 1.0000
55.9000 254.0000 1.0000
55.9100 240.0000 1.0000
55.9200 260.0000 1.0000
55.9300 257.0000 1.0000
55.9400 269.0000 1.0000
55.9500 277.0000 1.0000
55.9600 253.0000 1.0000
55.9700 276.0000 1.0000
55.9800 274.0000 1.0000
55.9900 234.0000 1.0000
56.0000 276.0000 1.0000
56.0100 277.0000 1.0000
56.0200 255.0000 1.0000
56.0300 254.0000 1.0000
56.0400 291.0000 1.0000
56.0500 231.0000 1.0000
56.0600 226.0000 1.0000
56.0700 257.0000 1.0000
56.0800 241.0000 1.0000
56.0900 273.0000 1.0000
56.1000 274.0000 1.0000
56.1100 281.0000 1.0000
56.1200 257.0000 1.0000
56.1300 281.0000 1.0000
56.1400 263.0000 1.0000
56.1500 252.0000 1.0000
56.1600 254.0000 1.0000
56.1700 282.0000 1.0000
56.1800 275.0000 1.0000
56.1900 253.0000 1.0000
56.2000 277.0000 1.0000
56.2100 287.0000 1.0000
56.2200 271.0000 1.0000
56.2300 275.0000 1.0000
56.2400 279.0000 1.0000
56.2500 273.0000 1.0000
56.2600 274.0000 1.0000
56.2700 244.0000 1.0000
56.2800 257.0000 1.0000
56.2900 263.0000 1.0000
56.3000 263.0000 1.0000
56.3100 257.0000 1.0000
56.3200 258.0000 1.0000
56.3300 276.0000 1.0000
56.3400 255.0000 1.0000
56.3500 251.0000 1.0000
56.3600 258.0000 1.0000
56.3700 252.0000 1.0000
56.3800 264.0000 1.0000
56.3900 253.0000 1.0000
56.4000 273.0000 1.0000
56.4100 270.0000 1.0000
56.4200 259.0000 1.0000
56.4300 281.0000 1.0000
56.4400 255.0000 1.0000
56.4500 268.0000 1.0000
56.4600 255.0000 1.0000
56.4700 242.0000 1.0000
56.4800 253.0000 1.0000
56.4900 251.0000 1.0000
56.5000 242.0000 1.0000
56.5100 277.0000 1.0000
56.5200 248.0000 1.0000
56.5300 265.0000 1.0000
56.5400 263.0000 1.0000
56.5500 281.0000 1.0000
56.5600 263.0000 1.0000
56.5700 262.0000 1.0000
56.5800 269.0000 1.0000
56.5900 266.0000 1.0000
56.6000 291.0000 1.0000
56.6100 265.0000 1.0000
56.6200 258.0000 1.0000
56.6300 294.0000 1.0000
56.6400 271.0000 1.0000
56.6500 261.0000 1.0000
56.6600 284.0000 1.0000
56.6700 254.0000 1.0000
56.6800 279.0000 1.0000
56.6900 269.0000 1.0000
56.7000 254.0000 1.0000
56.7100 259.0000 1.0000
56.7200 280.0000 1.0000
56.7300 252.0000 1.0000
56.7400 258.0000 1.0000
56.7500 251.0000 1.0000
56.7600 256.0000 1.0000
56.7700 255.0000 1.0000
56.7800 255.0000 1.0000
56.7900 248.0000 1.0000
56.8000 264.0000 1.0000
56.8100 263.0000 1.0000
56.8200 288.0000 1.0000
56.8300 251.0000 1.0000
56.8400 271.0000 1.0000
56.8500 298.0000 1.0000
56.8600 249.0000 1.0000
56.8700 241.0000 1.0000
56.8800 270.0000 1.0000
56.8900 267.0000 1.0000
56.9000 275.0000 1.0000
56.9100 257.0000 1.0000
56.9200 259.0000 1.0000
56.9300 264.0000 1.0000
56.9400 238.0000 1.0000
56.9500 246.0000 1.0000
56.9600 273.0000 1.0000
56.9700 265.0000 1.0000
56.9800 258.0000 1.0000
56.9900 295.0000 1.0000
57.0000 276.0000 1.0000
57.0100 257.0000 1.0000
57.0200 268.0000 1.0000
57.0300 288.0000 1.0000
57.0400 256.0000 1.0000
57.0500 275.0000 1.0000
57.0600 275.0000 1.0000
57.0700 267.0000 1.0000
57.0800 248.0000 1.0000
57.0900 251.0000 1.0000
57.1000 262.0000 1.0000
57.1100 261.0000 1.0000
57.1200 231.0000 1.0000
57.1300 249.0000 1.0000
57.1400 285.0000 1.0000
57.1500 251.0000 1.0000
57.1600 251.0000 1.0000
57.1700 240.0000 1.0000
57.1800 240.0000 1.0000
57.1900 257.0000 1.0000
57.2000 295.0000 1.0000
57.2100 311.0000 1.0000
57.2200 263.0000 1.0000
57.2300 269.0000 1.0000
57.2400 262.0000 1.0000
57.2500 243.0000 1.0000
57.2600 266.0000 1.0000
57.2700 275.0000 1.0000
57.2800 250.0000 1.0000
57.2900 261.0000 1.0000
57.3000 274.0000 1.0000
57.3100 284.0000 1.0000
57.3200 261.0000 1.0000
57.3300 251.0000 1.0000
57.3400 262.0000 1.0000
57.3500 245.0000 1.0000
57.3600 250.0000 1.0000
57.3700 229.0000 1.0000
57.3800 298.0000 1.0000
57.3900 282.0000 1.0000
57.4000 246.0000 1.0000
57.4100 255.0000 1.0000
57.4200 268.0000 1.0000
57.4300 245.0000 1.0000
57.4400 273.0000 1.0000
57.4500 246.0000 1.0000
57.4600 262.0000 1.0000
57.4700 263.0000 1.0000
57.4800 282.0000 1.0000
57.4900 268.0000 1.0000
57.5000 265.0000 1.0000
57.5100 275.0000 1.0000
57.5200 281.0000 1.0000
57.5300 270.0000 1.0000
57.5400 268.0000 1.0000
57.5500 278.0000 1.0000
57.5600 282.0000 1.0000
57.5700 257.0000 1.0000
57.5800 244.0000 1.0000
57.5900 267.0000 1.0000
57.6000 267.0000 1.0000
57.6100 269.0000 1.0000
57.6200 249.0000 1.0000
57.6300 279.0000 1.0000
57.6400 264.0000 1.0000
57.6500 286.0000 1.0000
57.6600 280.0000 1.0000
57.6700 285.0000 1.0000
57.6800 277.0000 1.0000
57.6900 264.0000 1.0000
57.7000 258.0000 1.0000
57.7100 261.0000 1.0000
57.7200 266.0000 1.0000
57.7300 292.0000 1.0000
57.7400 295.0000 1.0000
57.7500 272.0000 1.0000
57.7600 256.0000 1.0000
57.7700 257.0000 1.0000
57.7800 281.0000 1.0000
57.7900 274.0000 1.0000
57.8000 308.0000 1.0000
57.8100 273.0000 1.0000
57.8200 244.0000 1.0000
57.8300 282.0000 1.0000
57.8400 278.0000 1.0000
57.8500 300.0000 1.0000
57.8600 292.0000 1.0000
57.8700 274.0000 1.0000
57.8800 274.0000 1.0000
57.8900 270.0000 1.0000
57.9000 238.0000 1.0000
57.9100 270.0000 1.0000
57.9200 272.0000 1.0000
57.9300 252.0000 1.0000
57.9400 268.0000 1.0000
57.9500 257.0000 1.0000
57.9600 273.0000 1.0000
57.9700 263.0000 1.0000
57.9800 258.0000 1.0000
57.9900 276.0000 1.0000
58.0000 254.0000 1.0000
58.0100 268.0000 1.0000
58.0200 269.0000 1.0000
58.0300 266.0000 1.0000
58.0400 264.0000 1.0000
58.0500 265.0000 1.0000
58.0600 271.0000 1.0000
58.0700 256.0000 1.0000
58.0800 255.0000 1.0000
58.0900 242.0000 1.0000
58.1000 249.0000 1.0000
58.1100 291.0000 1.0000
58.1200 256.0000 1.0000
58.1300 253.0000 1.0000
58.1400 279.0000 1.0000
58.1500 249.0000 1.0000
58.1600 253.0000 1.0000
58.1700 258.0000 1.0000
58.1800 243.0000 1.0000
58.1900 264.0000 1.0000
58.2000 281.0000 1.0000
58.2100 280.0000 1.0000
58.2200 264.0000 1.0000
58.2300 268.0000 1.0000
58.2400 270.0000 1.0000
58.2500 256.0000 1.0000
58.2600 253.0000 1.0000
58.2700 254.0000 1.0000
58.2800 283.0000 1.0000
58.2900 270.0000 1.0000
58.3000 255.0000 1.0000
58.3100 257.0000 1.0000
58.3200 279.0000 1.0000
58.3300 275.0000 1.0000
58.3400 305.0000 1.0000
58.3500 289.0000 1.0000
58.3600 249.0000 1.0000
58.3700 231.0000 1.0000
58.3800 270.0000 1.0000
58.3900 261.0000 1.0000
58.4000 245.0000 1.0000
58.4100 294.0000 1.0000
58.4200 246.0000 1.0000
58.4300 251.0000 1.0000
58.4400 255.0000 1.0000
58.4500 300.0000 1.0000
58.4600 250.0000 1.0000
58.4700 248.0000 1.0000
58.4800 244.0000 1.0000
58.4900 255.0000 1.0000
58.5000 253.0000 1.0000
58.5100 246.0000 1.0000
58.5200 249.0000 1.0000
58.5300 251.0000 1.0000
58.5400 266.0000 1.0000
58.5500 262.0000 1.0000
58.5600 241.0000 1.0000
58.5700 250.0000 1.0000
58.5800 262.0000 1.0000
58.5900 261.0000 1.0000
58.6000 258.0000 1.0000
58.6100 260.0000 1.0000
58.6200 270.0000 1.0000
58.6300 261.0000 1.0000
58.6400 259.0000 1.0000
58.6500 288.0000 1.0000
58.6600 262.0000 1.0000
58.6700 273.0000 1.0000
58.6800 301.0000 1.0000
58.6900 271.0000 1.0000
58.7000 261.0000 1.0000
58.7100 265.0000 1.0000
58.7200 262.0000 1.0000
58.7300 271.0000 1.0000
58.7400 259.0000 1.0000
58.7500 259.0000 1.0000
58.7600 242.0000 1.0000
58.7700 240.0000 1.0000
58.7800 249.0000 1.0000
58.7900 279.0000 1.0000
58.8000 292.0000 1.0000
58.8100 269.0000 1.0000
58.8200 250.0000 1.0000
58.8300 279.0000 1.0000
58.8400 260.0000 1.0000
58.8500 263.0000 1.0000
58.8600 242.0000 1.0000
58.8700 273.0000 1.0000
58.8800 278.0000 1.0000
58.8900 264.0000 1.0000
58.9000 243.0000 1.0000
58.9100 255.0000 1.0000
58.9200 276.0000 1.0000
58.9300 267.0000 1.0000
58.9400 266.0000 1.0000
58.9500 249.0000 1.0000
58.9600 252.0000 1.0000
58.9700 262.0000 1.0000
58.9800 260.0000 1.0000
58.9900 265.0000 1.0000
59.0000 261.0000 1.0000
59.0100 275.0000 1.0000
59.0200 238.0000 1.0000
59.0300 252.0000 1.0000
59.0400 249.0000 1.0000
59.0500 252.0000 1.0000
59.0600 250.0000 1.0000
59.0700 252.0000 1.0000
59.0800 258.0000 1.0000
59.0900 268.0000 1.0000
59.1000 274.0000 1.0000
59.1100 263.0000 1.0000
59.1200 243.0000 1.0000
59.1300 264.0000 1.0000
59.1400 245.0000 1.0000
59.1500 248.0000 1.0000
59.1600 277.0000 1.0000
59.1700 251.0000 1.0000
59.1800 239.0000 1.0000
59.1900 273.0000 1.0000
59.2000 266.0000 1.0000
59.2100 245.0000 1.0000
59.2200 245.0000 1.0000
59.2300 257.0000 1.0000
59.2400 232.0000 1.0000
59.2500 260.0000 1.0000
59.2600 260.0000 1.0000
59.2700 279.0000 1.0000
59.2800 251.0000 1.0000
59.2900 265.0000 1.0000
59.3000 248.0000 1.0000
59.3100 258.0000 1.0000
59.3200 280.0000 1.0000
59.3300 281.0000 1.0000
59.3400 244.0000 1.0000
59.3500 250.0000 1.0000
59.3600 242.0000 1.0000
59.3700 262.0000 1.0000
59.3800 277.0000 1.0000
59.3900 266.0000 1.0000
59.4000 269.0000 1.0000
59.4100 250.0000 1.0000
59.4200 246.0000 1.0000
59.4300 265.0000 1.0000
59.4400 253.0000 1.0000
59.4500 254.0000 1.0000
59.4600 261.0000 1.0000
59.4700 267.0000 1.0000
59.4800 271.0000 1.0000
59.4900 282.0000 1.0000
59.5000 253.0000 1.0000
59.5100 244.0000 1.0000
59.5200 258.0000 1.0000
59.5300 256.0000 1.0000
59.5400 279.0000 1.0000
59.5500 276.0000 1.0000
59.5600 285.0000 1.0000
59.5700 252.0000 1.0000
59.5800 251.0000 1.0000
59.5900 257.0000 1.0000
59.6000 239.0000 1.0000
59.6100 259.0000 1.0000
59.6200 261.0000 1.0000
59.6300 267.0000 1.0000
59.6400 249.0000 1.0000
59.6500 267.0000 1.0000
59.6600 244.0000 1.0000
59.6700 261.0000 1.0000
59.6800 245.0000 1.0000
59.6900 261.0000 1.0000
59.7000 254.0000 1.0000
59.7100 261.0000 1.0000
59.7200 242.0000 1.0000
59.7300 275.0000 1.0000
59.7400 269.0000 1.0000
59.7500 258.0000 1.0000
59.7600 254.0000 1.0000
59.7700 270.0000 1.0000
59.7800 270.0000 1.0000
59.7900 255.0000 1.0000
59.8000 245.0000 1.0000
59.8100 241.0000 1.0000
59.8200 271.0000 1.0000
59.8300 249.0000 1.0000
59.8400 261.0000 1.0000
59.8500 250.0000 1.0000
59.8600 261.0000 1.0000
59.8700 263.0000 1.0000
59.8800 263.0000 1.0000
59.8900 268.0000 1.0000
59.9000 241.0000 1.0000
59.9100 270.0000 1.0000
59.9200 269.0000 1.0000
59.9300 251.0000 1.0000
59.9400 244.0000 1.0000
59.9500 269.0000 1.0000
59.9600 265.0000 1.0000
59.9700 262.0000 1.0000
59.9800 253.0000 1.0000
59.9900 278.0000 1.0000
60.0000 247.0000 1.0000
60.0100 255.0000 1.0000
60.0200 268.0000 1.0000
60.0300 244.0000 1.0000
60.0400 262.0000 1.0000
60.0500 235.0000 1.0000
60.0600 255.0000 1.0000
60.0700 230.0000 1.0000
60.0800 265.0000 1.0000
60.0900 267.0000 1.0000
60.1000 260.0000 1.0000
60.1100 240.0000 1.0000
60.1200 257.0000 1.0000
60.1300 235.0000 1.0000
60.1400 236.0000 1.0000
60.1500 288.0000 1.0000
60.1600 265.0000 1.0000
60.1700 270.0000 1.0000
60.1800 234.0000 1.0000
60.1900 259.0000 1.0000
60.2000 263.0000 1.0000
60.2100 254.0000 1.0000
60.2200 269.0000 1.0000
60.2300 224.0000 1.0000
60.2400 269.0000 1.0000
60.2500 258.0000 1.0000
60.2600 262.0000 1.0000
60.2700 255.0000 1.0000
60.2800 261.0000 1.0000
60.2900 242.0000 1.0000
60.3000 240.0000 1.0000
60.3100 254.0000 1.0000
60.3200 255.0000 1.0000
60.3300 237.0000 1.0000
60.3400 250.0000 1.0000
60.3500 242.0000 1.0000
60.3600 227.0000 1.0000
60.3700 257.0000 1.0000
60.3800 243.0000 1.0000
60.3900 220.0000 1.0000
60.4000 230.0000 1.0000
60.4100 263.0000 1.0000
60.4200 252.0000 1.0000
60.4300 248.0000 1.0000
60.4400 238.0000 1.0000
60.4500 248.0000 1.0000
60.4600 267.0000 1.0000
60.4700 272.0000 1.0000
60.4800 261.0000 1.0000
60.4900 247.0000 1.0000
60.5000 263.0000 1.0000
60.5100 264.0000 1.0000
60.5200 266.0000 1.0000
60.5300 246.0000 1.0000
60.5400 254.0000 1.0000
60.5500 250.0000 1.0000
60.5600 251.0000 1.0000
60.5700 273.0000 1.0000
60.5800 253.0000 1.0000
60.5900 253.0000 1.0000
60.6000 265.0000 1.0000
60.6100 264.0000 1.0000
60.6200 255.0000 1.0000
60.6300 267.0000 1.0000
60.6400 280.0000 1.0000
60.6500 268.0000 1.0000
60.6600 265.0000 1.0000
60.6700 252.0000 1.0000
60.6800 273.0000 1.0000
60.6900 281.0000 1.0000
60.7000 258.0000 1.0000
60.7100 259.0000 1.0000
60.7200 249.0000 1.0000
60.7300 255.0000 1.0000
60.7400 257.0000 1.0000
60.7500 241.0000 1.0000
60.7600 248.0000 1.0000
60.7700 243.0000 1.0000
60.7800 250.0000 1.0000
60.7900 253.0000 1.0000
60.8000 265.0000 1.0000
60.8100 270.0000 1.0000
60.8200 271.0000 1.0000
60.8300 247.0000 1.0000
60.8400 274.0000 1.0000
60.8500 257.0000 1.0000
60.8600 259.0000 1.0000
60.8700 282.0000 1.0000
60.8800 286.0000 1.0000
60.8900 263.0000 1.0000
60.9000 250.0000 1.0000
60.9100 261.0000 1.0000
60.9200 262.0000 1.0000
60.9300 280.0000 1.0000
60.9400 279.0000 1.0000
60.9500 270.0000 1.0000
60.9600 268.0000 1.0000
60.9700 265.0000 1.0000
60.9800 272.0000 1.0000
60.9900 270.0000 1.0000
61.0000 279.0000 1.0000
61.0100 278.0000 1.0000
61.0200 237.0000 1.0000
61.0300 274.0000 1.0000
61.0400 247.0000 1.0000
61.0500 251.0000 1.0000
61.0600 237.0000 1.0000
61.0700 271.0000 1.0000
61.0800 254.0000 1.0000
61.0900 254.0000 1.0000
61.1000 284.0000 1.0000
61.1100 270.0000 1.0000
61.1200 251.0000 1.0000
61.1300 258.0000 1.0000
61.1400 256.0000 1.0000
61.1500 270.0000 1.0000
61.1600 283.0000 1.0000
61.1700 272.0000 1.0000
61.1800 263.0000 1.0000
61.1900 276.0000 1.0000
61.2000 284.0000 1.0000
61.2100 286.0000 1.0000
61.2200 235.0000 1.0000
61.2300 236.0000 1.0000
61.2400 270.0000 1.0000
61.2500 253.0000 1.0000
61.2600 294.0000 1.0000
61.2700 266.0000 1.0000
61.2800 290.0000 1.0000
61.2900 280.0000 1.0000
61.3000 304.0000 1.0000
61.3100 261.0000 1.0000
61.3200 284.0000 1.0000
61.3300 283.0000 1.0000
61.3400 297.0000 1.0000
61.3500 279.0000 1.0000
61.3600 278.0000 1.0000
61.3700 311.0000 1.0000
61.3800 309.0000 1.0000
61.3900 308.0000 1.0000
61.4000 302.0000 1.0000
61.4100 287.0000 1.0000
61.4200 326.0000 1.0000
61.4300 331.0000 1.0000
61.4400 328.0000 1.0000
61.4500 322.0000 1.0000
61.4600 344.0000 1.0000
61.4700 339.0000 1.0000
61.4800 332.0000 1.0000
61.4900 345.0000 1.0000
61.5000 354.0000 1.0000
61.5100 324.0000 1.0000
61.5200 335.0000 1.0000
61.5300 385.0000 1.0000
61.5400 413.0000 1.0000
61.5500 402.0000 1.0000
61.5600 418.0000 1.0000
61.5700 435.0000 1.0000
61.5800 428.0000 1.0000
61.5900 472.0000 1.0000
61.6000 464.0000 1.0000
61.6100 459.0000 1.0000
61.6200 486.0000 1.0000
61.6300 489.0000 1.0000
61.6400 476.0000 1.0000
61.6500 513.0000 1.0000
61.6600 525.0000 1.0000
61.6700 516.0000 1.0000
61.6800 527.0000 1.0000
61.6900 517.0000 1.0000
61.7000 518.0000 1.0000
61.7100 537.0000 1.0000
61.7200 551.0000 1.0000
61.7300 535.0000 1.0000
61.7400 522.0000 1.0000
61.7500 534.0000 1.0000
61.7600 545.0000 1.0000
61.7700 577.0000 1.0000
61.7800 523.0000 1.0000
61.7900 535.0000 1.0000
61.8000 548.0000 1.0000
61.8100 552.0000 1.0000
61.8200 513.0000 1.0000
61.8300 475.0000 1.0000
61.8400 480.0000 1.0000
61.8500 536.0000 1.0000
61.8600 543.0000 1.0000
61.8700 522.0000 1.0000
61.8800 489.0000 1.0000
61.8900 478.0000 1.0000
61.9000 474.0000 1.0000
61.9100 466.0000 1.0000
61.9200 420.0000 1.0000
61.9300 447.0000 1.0000
61.9400 467.0000 1.0000
61.9500 458.0000 1.0000
61.9600 429.0000 1.0000
61.9700 405.0000 1.0000
61.9800 427.0000 1.0000
61.9900 391.0000 1.0000
62.0000 410.0000 1.0000
62.0100 383.0000 1.0000
62.0200 376.0000 1.0000
62.0300 375.0000 1.0000
62.0400 330.0000 1.0000
62.0500 346.0000 1.0000
62.0600 338.0000 1.0000
62.0700 325.0000 1.0000
62.0800 364.0000 1.0000
62.0900 316.0000 1.0000
62.1000 344.0000 1.0000
62.1100 334.0000 1.0000
62.1200 360.0000 1.0000
62.1300 339.0000 1.0000
62.1400 304.0000 1.0000
62.1500 320.0000 1.0000
62.1600 291.0000 1.0000
62.1700 316.0000 1.0000
62.1800 296.0000 1.0000
62.1900 301.0000 1.0000
62.2000 272.0000 1.0000
62.2100 304.0000 1.0000
62.2200 297.0000 1.0000
62.2300 263.0000 1.0000
62.2400 310.0000 1.0000
62.2500 298.0000 1.0000
62.2600 299.0000 1.0000
62.2700 291.0000 1.0000
62.2800 272.0000 1.0000
62.2900 279.0000 1.0000
62.3000 296.0000 1.0000
62.3100 266.0000 1.0000
62.3200 274.0000 1.0000
62.3300 308.0000 1.0000
62.3400 302.0000 1.0000
62.3500 309.0000 1.0000
62.3600 285.0000 1.0000
62.3700 287.0000 1.0000
62.3800 290.0000 1.0000
62.3900 288.0000 1.0000
62.4000 294.0000 1.0000
62.4100 280.0000 1.0000
62.4200 290.0000 1.0000
62.4300 277.0000 1.0000
62.4400 287.0000 1.0000
62.4500 302.0000 1.0000
62.4600 296.0000 1.0000
62.4700 287.0000 1.0000
62.4800 312.0000 1.0000
62.4900 297.0000 1.0000
62.5000 280.0000 1.0000
62.5100 293.0000 1.0000
62.5200 274.0000 1.0000
62.5300 278.0000 1.0000
62.5400 298.0000 1.0000
62.5500 300.0000 1.0000
62.5600 306.0000 1.0000
62.5700 312.0000 1.0000
62.5800 273.0000 1.0000
62.5900 293.0000 1.0000
62.6000 303.0000 1.0000
62.6100 307.0000 1.0000
62.6200 288.0000 1.0000
62.6300 294.0000 1.0000
62.6400 286.0000 1.0000
62.6500 291.0000 1.0000
62.6600 282.0000 1.0000
62.6700 285.0000 1.0000
62.6800 270.0000 1.0000
62.6900 290.0000 1.0000
62.7000 315.0000 1.0000
62.7100 272.0000 1.0000
62.7200 287.0000 1.0000
62.7300 283.0000 1.0000
62.7400 299.0000 1.0000
62.7500 277.0000 1.0000
62.7600 273.0000 1.0000
62.7700 256.0000 1.0000
62.7800 270.0000 1.0000
62.7900 264.0000 1.0000
62.8000 289.0000 1.0000
62.8100 304.0000 1.0000
62.8200 257.0000 1.0000
62.8300 278.0000 1.0000
62.8400 288.0000 1.0000
62.8500 261.0000 1.0000
62.8600 255.0000 1.0000
62.8700 273.0000 1.0000
62.8800 274.0000 1.0000
62.8900 247.0000 1.0000
62.9000 263.0000 1.0000
62.9100 275.0000 1.0000
62.9200 271.0000 1.0000
62.9300 314.0000 1.0000
62.9400 270.0000 1.0000
62.9500 240.0000 1.0000
62.9600 235.0000 1.0000
62.9700 251.0000 1.0000
62.9800 263.0000 1.0000
62.9900 249.0000 1.0000
63.0000 237.0000 1.0000
63.0100 252.0000 1.0000
63.0200 272.0000 1.0000
63.0300 260.0000 1.0000
63.0400 232.0000 1.0000
63.0500 243.0000 1.0000
63.0600 252.0000 1.0000
63.0700 267.0000 1.0000
63.0800 269.0000 1.0000
63.0900 263.0000 1.0000
63.1000 228.0000 1.0000
63.1100 261.0000 1.0000
63.1200 263.0000 1.0000
63.1300 248.0000 1.0000
63.1400 269.0000 1.0000
63.1500 248.0000 1.0000
63.1600 224.0000 1.0000
63.1700 246.0000 1.0000
63.1800 253.0000 1.0000
63.1900 252.0000 1.0000
63.2000 273.0000 1.0000
63.2100 234.0000 1.0000
63.2200 236.0000 1.0000
63.2300 267.0000 1.0000
63.2400 245.0000 1.0000
63.2500 248.0000 1.0000
63.2600 256.0000 1.0000
63.2700 247.0000 1.0000
63.2800 234.0000 1.0000
63.2900 246.0000 1.0000
63.3000 250.0000 1.0000
63.3100 278.0000 1.0000
63.3200 271.0000 1.0000
63.3300 275.0000 1.0000
63.3400 254.0000 1.0000
63.3500 243.0000 1.0000
63.3600 246.0000 1.0000
63.3700 236.0000 1.0000
63.3800 248.0000 1.0000
63.3900 269.0000 1.0000
63.4000 242.0000 1.0000
63.4100 259.0000 1.0000
63.4200 247.0000 1.0000
63.4300 271.0000 1.0000
63.4400 290.0000 1.0000
63.4500 271.0000 1.0000
63.4600 258.0000 1.0000
63.4700 238.0000 1.0000
63.4800 249.0000 1.0000
63.4900 261.0000 1.0000
63.5000 250.0000 1.0000
63.5100 264.0000 1.0000
63.5200 274.0000 1.0000
63.5300 272.0000 1.0000
63.5400 260.0000 1.0000
63.5500 241.0000 1.0000
63.5600 251.0000 1.0000
63.5700 255.0000 1.0000
63.5800 234.0000 1.0000
63.5900 256.0000 1.0000
63.6000 262.0000 1.0000
63.6100 280.0000 1.0000
63.6200 263.0000 1.0000
63.6300 266.0000 1.0000
63.6400 281.0000 1.0000
63.6500 258.0000 1.0000
63.6600 248.0000 1.0000
63.6700 245.0000 1.0000
63.6800 266.0000 1.0000
63.6900 260.0000 1.0000
63.7000 235.0000 1.0000
63.7100 262.0000 1.0000
63.7200 283.0000 1.0000
63.7300 252.0000 1.0000
63.7400 290.0000 1.0000
63.7500 279.0000 1.0000
63.7600 267.0000 1.0000
63.7700 258.0000 1.0000
63.7800 263.0000 1.0000
63.7900 246.0000 1.0000
63.8000 266.0000 1.0000
63.8100 272.0000 1.0000
63.8200 259.0000 1.0000
63.8300 251.0000 1.0000
63.8400 247.0000 1.0000
63.8500 251.0000 1.0000
63.8600 262.0000 1.0000
63.8700 292.0000 1.0000
63.8800 310.0000 1.0000
63.8900 266.0000 1.0000
63.9000 258.0000 1.0000
63.9100 274.0000 1.0000
63.9200 286.0000 1.0000
63.9300 288.0000 1.0000
63.9400 283.0000 1.0000
63.9500 267.0000 1.0000
63.9600 266.0000 1.0000
63.9700 290.0000 1.0000
63.9800 297.0000 1.0000
63.9900 297.0000 1.0000
64.0000 284.0000 1.0000
64.0100 294.0000 1.0000
64.0200 297.0000 1.0000
64.0300 293.0000 1.0000
64.0400 323.0000 1.0000
64.0500 341.0000 1.0000
64.0600 342.0000 1.0000
64.0700 323.0000 1.0000
64.0800 326.0000 1.0000
64.0900 346.0000 1.0000
64.1000 346.0000 1.0000
64.1100 361.0000 1.0000
64.1200 362.0000 1.0000
64.1300 370.0000 1.0000
64.1400 364.0000 1.0000
64.1500 361.0000 1.0000
64.1600 339.0000 1.0000
64.1700 375.0000 1.0000
64.1800 352.0000 1.0000
64.1900 340.0000 1.0000
64.2000 319.0000 1.0000
64.2100 303.0000 1.0000
64.2200 329.0000 1.0000
64.2300 358.0000 1.0000
64.2400 322.0000 1.0000
64.2500 357.0000 1.0000
64.2600 337.0000 1.0000
64.2700 349.0000 1.0000
64.2800 294.0000 1.0000
64.2900 338.0000 1.0000
64.3000 328.0000 1.0000
64.3100 332.0000 1.0000
64.3200 314.0000 1.0000
64.3300 315.0000 1.0000
64.3400 325.0000 1.0000
64.3500 304.0000 1.0000
64.3600 307.0000 1.0000
64.3700 320.0000 1.0000
64.3800 331.0000 1.0000
64.3900 327.0000 1.0000
64.4000 304.0000 1.0000
64.4100 312.0000 1.0000
64.4200 294.0000 1.0000
64.4300 302.0000 1.0000
64.4400 303.0000 1.0000
64.4500 268.0000 1.0000
64.4600 296.0000 1.0000
64.4700 292.0000 1.0000
64.4800 296.0000 1.0000
64.4900 253.0000 1.0000
64.5000 301.0000 1.0000
64.5100 259.0000 1.0000
64.5200 274.0000 1.0000
64.5300 268.0000 1.0000
64.5400 285.0000 1.0000
64.5500 291.0000 1.0000
64.5600 275.0000 1.0000
64.5700 277.0000 1.0000
64.5800 258.0000 1.0000
64.5900 259.0000 1.0000
64.6000 276.0000 1.0000
64.6100 251.0000 1.0000
64.6200 264.0000 1.0000
64.6300 269.0000 1.0000
64.6400 268.0000 1.0000
64.6500 285.0000 1.0000
64.6600 272.0000 1.0000
64.6700 289.0000 1.0000
64.6800 257.0000 1.0000
64.6900 276.0000 1.0000
64.7000 269.0000 1.0000
64.7100 273.0000 1.0000
64.7200 271.0000 1.0000
64.7300 281.0000 1.0000
64.7400 272.0000 1.0000
64.7500 267.0000 1.0000
64.7600 255.0000 1.0000
64.7700 272.0000 1.0000
64.7800 254.0000 1.0000
64.7900 275.0000 1.0000
64.8000 293.0000 1.0000
64.8100 269.0000 1.0000
64.8200 278.0000 1.0000
64.8300 279.0000 1.0000
64.8400 247.0000 1.0000
64.8500 241.0000 1.0000
64.8600 237.0000 1.0000
64.8700 253.0000 1.0000
64.8800 261.0000 1.0000
64.8900 240.0000 1.0000
64.9000 276.0000 1.0000
64.9100 256.0000 1.0000
64.9200 257.0000 1.0000
64.9300 278.0000 1.0000
64.9400 257.0000 1.0000
64.9500 264.0000 1.0000
64.9600 249.0000 1.0000
64.9700 273.0000 1.0000
64.9800 290.0000 1.0000
64.9900 275.0000 1.0000
65.0000 268.0000 1.0000
65.0100 266.0000 1.0000
65.0200 260.0000 1.0000
65.0300 273.0000 1.0000
65.0400 277.0000 1.0000
65.0500 237.0000 1.0000
65.0600 255.0000 1.0000
65.0700 269.0000 1.0000
65.0800 281.0000 1.0000
65.0900 259.0000 1.0000
65.1000 283.0000 1.0000
65.1100 241.0000 1.0000
65.1200 270.0000 1.0000
65.1300 267.0000 1.0000
65.1400 264.0000 1.0000
65.1500 299.0000 1.0000
65.1600 297.0000 1.0000
65.1700 266.0000 1.0000
65.1800 284.0000 1.0000
65.1900 261.0000 1.0000
65.2000 276.0000 1.0000
65.2100 275.0000 1.0000
65.2200 266.0000 1.0000
65.2300 298.0000 1.0000
65.2400 289.0000 1.0000
65.2500 275.0000 1.0000
65.2600 324.0000 1.0000
65.2700 282.0000 1.0000
65.2800 309.0000 1.0000
65.2900 309.0000 1.0000
65.3000 292.0000 1.0000
65.3100 303.0000 1.0000
65.3200 303.0000 1.0000
65.3300 281.0000 1.0000
65.3400 322.0000 1.0000
65.3500 350.0000 1.0000
65.3600 316.0000 1.0000
65.3700 315.0000 1.0000
65.3800 331.0000 1.0000
65.3900 321.0000 1.0000
65.4000 332.0000 1.0000
65.4100 346.0000 1.0000
65.4200 346.0000 1.0000
65.4300 346.0000 1.0000
65.4400 381.0000 1.0000
65.4500 376.0000 1.0000
65.4600 394.0000 1.0000
65.4700 391.0000 1.0000
65.4800 418.0000 1.0000
65.4900 424.0000 1.0000
65.5000 439.0000 1.0000
65.5100 449.0000 1.0000
65.5200 454.0000 1.0000
65.5300 502.0000 1.0000
65.5400 523.0000 1.0000
65.5500 478.0000 1.0000
65.5600 505.0000 1.0000
65.5700 547.0000 1.0000
65.5800 584.0000 1.0000
65.5900 598.0000 1.0000
65.6000 635.0000 1.0000
65.6100 671.0000 1.0000
65.6200 652.0000 1.0000
65.6300 708.0000 1.0000
65.6400 753.0000 1.0000
65.6500 768.0000 1.0000
65.6600 780.0000 1.0000
65.6700 834.0000 1.0000
65.6800 851.0000 1.0000
65.6900 868.0000 1.0000
65.7000 864.0000 1.0000
65.7100 859.0000 1.0000
65.7200 894.0000 1.0000
65.7300 889.0000 1.0000
65.7400 907.0000 1.0000
65.7500 934.0000 1.0000
65.7600 899.0000 1.0000
65.7700 904.0000 1.0000
65.7800 867.0000 1.0000
65.7900 846.0000 1.0000
65.8000 832.0000 1.0000
65.8100 788.0000 1.0000
65.8200 783.0000 1.0000
65.8300 788.0000 1.0000
65.8400 754.0000 1.0000
65.8500 787.0000 1.0000
65.8600 758.0000 1.0000
65.8700 731.0000 1.0000
65.8800 732.0000 1.0000
65.8900 711.0000 1.0000
65.9000 738.0000 1.0000
65.9100 670.0000 1.0000
65.9200 675.0000 1.0000
65.9300 653.0000 1.0000
65.9400 619.0000 1.0000
65.9500 592.0000 1.0000
65.9600 680.0000 1.0000
65.9700 612.0000 1.0000
65.9800 553.0000 1.0000
65.9900 554.0000 1.0000
66.0000 482.0000 1.0000
66.0100 521.0000 1.0000
66.0200 479.0000 1.0000
66.0300 493.0000 1.0000
66.0400 441.0000 1.0000
66.0500 452.0000 1.0000
66.0600 437.0000 1.0000
66.0700 390.0000 1.0000
66.0800 360.0000 1.0000
66.0900 420.0000 1.0000
66.1000 385.0000 1.0000
66.1100 352.0000 1.0000
66.1200 335.0000 1.0000
66.1300 376.0000 1.0000
66.1400 352.0000 1.0000
66.1500 354.0000 1.0000
66.1600 347.0000 1.0000
66.1700 337.0000 1.0000
66.1800 301.0000 1.0000
66.1900 299.0000 1.0000
66.2000 322.0000 1.0000
66.2100 289.0000 1.0000
66.2200 279.0000 1.0000
66.2300 293.0000 1.0000
66.2400 307.0000 1.0000
66.2500 295.0000 1.0000
66.2600 299.0000 1.0000
66.2700 305.0000 1.0000
66.2800 294.0000 1.0000
66.2900 276.0000 1.0000
66.3000 298.0000 1.0000
66.3100 304.0000 1.0000
66.3200 263.0000 1.0000
66.3300 270.0000 1.0000
66.3400 269.0000 1.0000
66.3500 263.0000 1.0000
66.3600 272.0000 1.0000
66.3700 298.0000 1.0000
66.3800 261.0000 1.0000
66.3900 266.0000 1.0000
66.4000 261.0000 1.0000
66.4100 251.0000 1.0000
66.4200 280.0000 1.0000
66.4300 255.0000 1.0000
66.4400 285.0000 1.0000
66.4500 282.0000 1.0000
66.4600 245.0000 1.0000
66.4700 276.0000 1.0000
66.4800 286.0000 1.0000
66.4900 253.0000 1.0000
66.5000 245.0000 1.0000
66.5100 248.0000 1.0000
66.5200 271.0000 1.0000
66.5300 272.0000 1.0000
66.5400 257.0000 1.0000
66.5500 263.0000 1.0000
66.5600 254.0000 1.0000
66.5700 247.0000 1.0000
66.5800 249.0000 1.0000
66.5900 265.0000 1.0000
66.6000 230.0000 1.0000
66.6100 246.0000 1.0000
66.6200 247.0000 1.0000
66.6300 265.0000 1.0000
66.6400 231.0000 1.0000
66.6500 254.0000 1.0000
66.6600 274.0000 1.0000
66.6700 254.0000 1.0000
66.6800 235.0000 1.0000
66.6900 249.0000 1.0000
66.7000 234.0000 1.0000
66.7100 229.0000 1.0000
66.7200 262.0000 1.0000
66.7300 273.0000 1.0000
66.7400 270.0000 1.0000
66.7500 259.0000 1.0000
66.7600 270.0000 1.0000
66.7700 266.0000 1.0000
66.7800 246.0000 1.0000
66.7900 241.0000 1.0000
66.8000 252.0000 1.0000
66.8100 252.0000 1.0000
66.8200 218.0000 1.0000
66.8300 232.0000 1.0000
66.8400 221.0000 1.0000
66.8500 234.0000 1.0000
66.8600 237.0000 1.0000
66.8700 250.0000 1.0000
66.8800 258.0000 1.0000
66.8900 217.0000 1.0000
66.9000 249.0000 1.0000
66.9100 247.0000 1.0000
66.9200 259.0000 1.0000
66.9300 237.0000 1.0000
66.9400 237.0000 1.0000
66.9500 251.0000 1.0000
66.9600 229.0000 1.0000
66.9700 224.0000 1.0000
66.9800 242.0000 1.0000
66.9900 240.0000 1.0000
67.0000 243.0000 1.0000
67.0100 241.0000 1.0000
67.0200 252.0000 1.0000
67.0300 237.0000 1.0000
67.0400 231.0000 1.0000
67.0500 245.0000 1.0000
67.0600 236.0000 1.0000
67.0700 240.0000 1.0000
67.0800 243.0000 1.0000
67.0900 256.0000 1.0000
67.1000 234.0000 1.0000
67.1100 231.0000 1.0000
67.1200 222.0000 1.0000
67.1300 248.0000 1.0000
67.1400 249.0000 1.0000
67.1500 244.0000 1.0000
67.1600 213.0000 1.0000
67.1700 252.0000 1.0000
67.1800 261.0000 1.0000
67.1900 221.0000 1.0000
67.2000 224.0000 1.0000
67.2100 235.0000 1.0000
67.2200 248.0000 1.0000
67.2300 230.0000 1.0000
67.2400 211.0000 1.0000
67.2500 237.0000 1.0000
67.2600 231.0000 1.0000
67.2700 237.0000 1.0000
67.2800 243.0000 1.0000
67.2900 250.0000 1.0000
67.3000 248.0000 1.0000
67.3100 236.0000 1.0000
67.3200 233.0000 1.0000
67.3300 247.0000 1.0000
67.3400 251.0000 1.0000
67.3500 234.0000 1.0000
67.3600 223.0000 1.0000
67.3700 256.0000 1.0000
67.3800 224.0000 1.0000
67.3900 254.0000 1.0000
67.4000 230.0000 1.0000
67.4100 234.0000 1.0000
67.4200 230.0000 1.0000
67.4300 225.0000 1.0000
67.4400 232.0000 1.0000
67.4500 249.0000 1.0000
67.4600 232.0000 1.0000
67.4700 233.0000 1.0000
67.4800 214.0000 1.0000
67.4900 245.0000 1.0000
67.5000 235.0000 1.0000
67.5100 217.0000 1.0000
67.5200 233.0000 1.0000
67.5300 255.0000 1.0000
67.5400 236.0000 1.0000
67.5500 231.0000 1.0000
67.5600 250.0000 1.0000
67.5700 267.0000 1.0000
67.5800 246.0000 1.0000
67.5900 229.0000 1.0000
67.6000 219.0000 1.0000
67.6100 220.0000 1.0000
67.6200 223.0000 1.0000
67.6300 257.0000 1.0000
67.6400 257.0000 1.0000
67.6500 240.0000 1.0000
67.6600 218.0000 1.0000
67.6700 241.0000 1.0000
67.6800 250.0000 1.0000
67.6900 228.0000 1.0000
67.7000 231.0000 1.0000
67.7100 249.0000 1.0000
67.7200 244.0000 1.0000
67.7300 238.0000 1.0000
67.7400 234.0000 1.0000
67.7500 201.0000 1.0000
67.7600 230.0000 1.0000
67.7700 253.0000 1.0000
67.7800 234.0000 1.0000
67.7900 249.0000 1.0000
67.8000 237.0000 1.0000
67.8100 254.0000 1.0000
67.8200 242.0000 1.0000
67.8300 233.0000 1.0000
67.8400 233.0000 1.0000
67.8500 227.0000 1.0000
67.8600 215.0000 1.0000
67.8700 250.0000 1.0000
67.8800 242.0000 1.0000
67.8900 243.0000 1.0000
67.9000 213.0000 1.0000
67.9100 227.0000 1.0000
67.9200 222.0000 1.0000
67.9300 253.0000 1.0000
67.9400 244.0000 1.0000
67.9500 230.0000 1.0000
67.9600 244.0000 1.0000
67.9700 226.0000 1.0000
67.9800 247.0000 1.0000
67.9900 233.0000 1.0000
68.0000 258.0000 1.0000
68.0100 214.0000 1.0000
68.0200 239.0000 1.0000
68.0300 228.0000 1.0000
68.0400 226.0000 1.0000
68.0500 230.0000 1.0000
68.0600 238.0000 1.0000
68.0700 225.0000 1.0000
68.0800 243.0000 1.0000
68.0900 229.0000 1.0000
68.1000 239.0000 1.0000
68.1100 229.0000 1.0000
68.1200 240.0000 1.0000
68.1300 245.0000 1.0000
68.1400 238.0000 1.0000
68.1500 231.0000 1.0000
68.1600 225.0000 1.0000
68.1700 246.0000 1.0000
68.1800 220.0000 1.0000
68.1900 214.0000 1.0000
68.2000 230.0000 1.0000
68.2100 216.0000 1.0000
68.2200 223.0000 1.0000
68.2300 245.0000 1.0000
68.2400 222.0000 1.0000
68.2500 229.0000 1.0000
68.2600 221.0000 1.0000
68.2700 254.0000 1.0000
68.2800 230.0000 1.0000
68.2900 199.0000 1.0000
68.3000 216.0000 1.0000
68.3100 238.0000 1.0000
68.3200 221.0000 1.0000
68.3300 216.0000 1.0000
68.3400 226.0000 1.0000
68.3500 227.0000 1.0000
68.3600 224.0000 1.0000
68.3700 234.0000 1.0000
68.3800 246.0000 1.0000
68.3900 228.0000 1.0000
68.4000 236.0000 1.0000
68.4100 233.0000 1.0000
68.4200 236.0000 1.0000
68.4300 249.0000 1.0000
68.4400 224.0000 1.0000
68.4500 225.0000 1.0000
68.4600 252.0000 1.0000
68.4700 220.0000 1.0000
68.4800 239.0000 1.0000
68.4900 245.0000 1.0000
68.5000 233.0000 1.0000
68.5100 215.0000 1.0000
68.5200 221.0000 1.0000
68.5300 217.0000 1.0000
68.5400 213.0000 1.0000
68.5500 240.0000 1.0000
68.5600 240.0000 1.0000
68.5700 233.0000 1.0000
68.5800 229.0000 1.0000
68.5900 245.0000 1.0000
68.6000 219.0000 1.0000
68.6100 230.0000 1.0000
68.6200 238.0000 1.0000
68.6300 229.0000 1.0000
68.6400 233.0000 1.0000
68.6500 239.0000 1.0000
68.6600 249.0000 1.0000
68.6700 217.0000 1.0000
68.6800 221.0000 1.0000
68.6900 229.0000 1.0000
68.7000 232.0000 1.0000
68.7100 244.0000 1.0000
68.7200 236.0000 1.0000
68.7300 235.0000 1.0000
68.7400 231.0000 1.0000
68.7500 252.0000 1.0000
68.7600 238.0000 1.0000
68.7700 223.0000 1.0000
68.7800 201.0000 1.0000
68.7900 242.0000 1.0000
68.8000 238.0000 1.0000
68.8100 262.0000 1.0000
68.8200 207.0000 1.0000
68.8300 232.0000 1.0000
68.8400 252.0000 1.0000
68.8500 244.0000 1.0000
68.8600 215.0000 1.0000
68.8700 243.0000 1.0000
68.8800 227.0000 1.0000
68.8900 221.0000 1.0000
68.9000 233.0000 1.0000
68.9100 236.0000 1.0000
68.9200 234.0000 1.0000
68.9300 242.0000 1.0000
68.9400 246.0000 1.0000
68.9500 218.0000 1.0000
68.9600 244.0000 1.0000
68.9700 235.0000 1.0000
68.9800 229.0000 1.0000
68.9900 230.0000 1.0000
69.0000 209.0000 1.0000
69.0100 238.0000 1.0000
69.0200 204.0000 1.0000
69.0300 228.0000 1.0000
69.0400 230.0000 1.0000
69.0500 221.0000 1.0000
69.0600 205.0000 1.0000
69.0700 229.0000 1.0000
69.0800 248.0000 1.0000
69.0900 222.0000 1.0000
69.1000 226.0000 1.0000
69.1100 232.0000 1.0000
69.1200 240.0000 1.0000
69.1300 209.0000 1.0000
69.1400 248.0000 1.0000
69.1500 253.0000 1.0000
69.1600 227.0000 1.0000
69.1700 227.0000 1.0000
69.1800 219.0000 1.0000
69.1900 230.0000 1.0000
69.2000 221.0000 1.0000
69.2100 232.0000 1.0000
69.2200 235.0000 1.0000
69.2300 220.0000 1.0000
69.2400 211.0000 1.0000
69.2500 206.0000 1.0000
69.2600 239.0000 1.0000
69.2700 222.0000 1.0000
69.2800 220.0000 1.0000
69.2900 252.0000 1.0000
69.3000 239.0000 1.0000
69.3100 225.0000 1.0000
69.3200 219.0000 1.0000
69.3300 226.0000 1.0000
69.3400 215.0000 1.0000
69.3500 223.0000 1.0000
69.3600 220.0000 1.0000
69.3700 230.0000 1.0000
69.3800 209.0000 1.0000
69.3900 213.0000 1.0000
69.4000 231.0000 1.0000
69.4100 217.0000 1.0000
69.4200 228.0000 1.0000
69.4300 231.0000 1.0000
69.4400 241.0000 1.0000
69.4500 217.0000 1.0000
69.4600 229.0000 1.0000
69.4700 232.0000 1.0000
69.4800 223.0000 1.0000
69.4900 229.0000 1.0000
69.5000 217.0000 1.0000
69.5100 215.0000 1.0000
69.5200 205.0000 1.0000
69.5300 244.0000 1.0000
69.5400 241.0000 1.0000
69.5500 206.0000 1.0000
69.5600 228.0000 1.0000
69.5700 213.0000 1.0000
69.5800 221.0000 1.0000
69.5900 224.0000 1.0000
69.6000 203.0000 1.0000
69.6100 181.0000 1.0000
69.6200 227.0000 1.0000
69.6300 190.0000 1.0000
69.6400 232.0000 1.0000
69.6500 234.0000 1.0000
69.6600 211.0000 1.0000
69.6700 227.0000 1.0000
69.6800 249.0000 1.0000
69.6900 216.0000 1.0000
69.7000 219.0000 1.0000
69.7100 213.0000 1.0000
69.7200 206.0000 1.0000
69.7300 237.0000 1.0000
69.7400 245.0000 1.0000
69.7500 234.0000 1.0000
69.7600 249.0000 1.0000
69.7700 219.0000 1.0000
69.7800 221.0000 1.0000
69.7900 208.0000 1.0000
69.8000 234.0000 1.0000
69.8100 243.0000 1.0000
69.8200 206.0000 1.0000
69.8300 227.0000 1.0000
69.8400 225.0000 1.0000
69.8500 229.0000 1.0000
69.8600 213.0000 1.0000
69.8700 227.0000 1.0000
69.8800 218.0000 1.0000
69.8900 223.0000 1.0000
69.9000 209.0000 1.0000
69.9100 235.0000 1.0000
69.9200 226.0000 1.0000
69.9300 225.0000 1.0000
69.9400 219.0000 1.0000
69.9500 227.0000 1.0000
69.9600 196.0000 1.0000
69.9700 216.0000 1.0000
69.9800 234.0000 1.0000
69.9900 230.0000 1.0000
70.0000 231.0000 1.0000
*RAS_INT_END
*RAS_TEMPERATURE_START
*RAS_TEMPERATURE_END
*RAS_DATA_END
