*RAS_DATA_START
*RAS_HEADER_START
*DISP_FMT_X "%.2f"
*DISP_FMT_Y "%.0f"
*DISP_FULLSCALE "16730.0000000000"
*DISP_LINE_COLOR "255.0000000000"
*DISP_LINE_STYLE "0.0000000000"
*DISP_LINE_WIDTH "0.2500000000"
*DISP_NOTE "測定データ-9"
*DISP_OFFSET_Y "0.0000000000"
*DISP_PEAKSEARCH_UNIT_Y "cps"
*DISP_RANGE_BOTTOM "0.0000000000"
*DISP_RANGE_LEFT "20.0000000000"
*DISP_RANGE_LOGCUTOFF "0.0100000000"
*DISP_RANGE_RIGHT "70.0000000000"
*DISP_RANGE_TOP "16730.0000000000"
*DISP_SCALE_MODE_Y "0.0000000000"
*DISP_TAB_NAME "2θ/θ"
*DISP_TITLE_Y "強度"
*DISP_UNIT_Y "cps"
*DISP_WINDOW_NAME "MSG_MACROENGINE"
*FILE_COMMENT " "
*FILE_MD5 ""
*FILE_MEMO " "
*FILE_OPERATOR "Administrator"
*FILE_SAMPLE " "
*FILE_TYPE "RAS_RAW"
*FILE_USERGROUP "システムマネージャ"
*FILE_VERSION "1.0000000000"
*HW_ATTACHMENT_ID "ATT0025"
*HW_ATTACHMENT_NAME "標準|Standard"
*HW_COUNTER_ID-0 "CUT0025"
*HW_COUNTER_ID-1 "CUT0020"
*HW_COUNTER_ID-2 "CUT0020"
*HW_COUNTER_ID-3 "CSL0021"
*HW_COUNTER_ID-4 "CMC0021"
*HW_COUNTER_NAME-0 "D/teX Ultra|D/teX Ultra"
*HW_COUNTER_NAME-1 "None|None"
*HW_COUNTER_NAME-2 "None|None"
*HW_COUNTER_NAME-3 "BBM|BBM"
*HW_COUNTER_NAME-4 "検出器モノクロメータ|Detector monochromator"
*HW_COUNTER_SELECT_NAME "D/teX Ultra|D/teX Ultra"
*HW_GONIOMETER_ID "GON0023"
*HW_GONIOMETER_NAME "SmartLab|SmartLab"
*HW_GONIOMETER_RADIUS-0 "90.0"
*HW_GONIOMETER_RADIUS-1 "114.0"
*HW_GONIOMETER_RADIUS-2 "190.0"
*HW_GONIOMETER_RADIUS-3 "300.0"
*HW_GONIOMETER_RADIUS-4 "187.0"
*HW_GONIOMETER_RADIUS-5 "300.0"
*HW_GONIOMETER_RADIUS-6 "113.0"
*HW_GONIOMETER_RADIUS-7 "331.0"
*HW_I_OPT_ID-0 "CBO0021"
*HW_I_OPT_ID-1 "ICR0023"
*HW_I_OPT_ID-2 "ISL0021"
*HW_I_OPT_ID-3 "ISO0021"
*HW_I_OPT_ID-4 "IAD0021"
*HW_I_OPT_ID-5 "IPR0001"
*HW_I_OPT_NAME-0 "CBOユニット|CBO unit"
*HW_I_OPT_NAME-1 "標準入射光学ユニット|Standard incident optical unit"
*HW_I_OPT_NAME-2 "標準入射スリットボックス|Standard incident slit box"
*HW_I_OPT_NAME-3 "入射平行スリット|Incident parallel slit"
*HW_I_OPT_NAME-4 "長手制限スリット|Length limiting slit"
*HW_I_OPT_NAME-5 "None|None"
*HW_R_ATTENUATER_AUTOMODE "0"
*HW_R_OPT_ID-0 "RSS0021"
*HW_R_OPT_ID-1 "RCR0023"
*HW_R_OPT_ID-2 "RSO0021"
*HW_R_OPT_ID-3 "RRS0021"
*HW_R_OPT_ID-4 "ATN0021"
*HW_R_OPT_ID-5 "RFL0021"
*HW_R_OPT_ID-6 "RAD0021"
*HW_R_OPT_NAME-0 "標準受光スリットボックス1|Standard receiving slit box # 1"
*HW_R_OPT_NAME-1 "標準受光光学ユニット1|Standard receiving unit # 1"
*HW_R_OPT_NAME-2 "標準受光光学ユニット2|Standard receiving optical unit # 2"
*HW_R_OPT_NAME-3 "標準受光スリットボックス2|Standard receiving slit box # 2"
*HW_R_OPT_NAME-4 "標準アッテネータ|Standard Attenuator"
*HW_R_OPT_NAME-5 "Cu Kβ|Cu K-beta"
*HW_R_OPT_NAME-6 "調整用受光スリット|Alignment receiving slit"
*HW_SAMPLE_HOLDER_ID "SMP0023"
*HW_SAMPLE_HOLDER_NAME "標準Zステージ|Standard Z stage"
*HW_XG_CURRENT_MAX "50"
*HW_XG_CURRENT_MIN "2"
*HW_XG_CURRENT_RESOLUTION "1"
*HW_XG_CURRENT_UNIT "mA"
*HW_XG_FOCUS "1mm x 10mm"
*HW_XG_FOCUS_TYPE "Normal"
*HW_XG_ID ""
*HW_XG_NAME "3kW 封入管(ID:1200)|3kW Sealed tube(ID:1200)"
*HW_XG_TARGET_ATOMIC_NUMBER "29.0000000000"
*HW_XG_TARGET_NAME "Cu"
*HW_XG_TYPE "Hermetic"
*HW_XG_VOLTAGE_MAX "60"
*HW_XG_VOLTAGE_MIN "20"
*HW_XG_VOLTAGE_RESOLUTION "1"
*HW_XG_VOLTAGE_UNIT "kV"
*HW_XG_WATT_MAX "1.500"
*HW_XG_WATT_UNIT "kW"
*HW_XG_WAVE_LENGTH_ALPHA1 "1.540593"
*HW_XG_WAVE_LENGTH_ALPHA2 "1.544414"
*HW_XG_WAVE_LENGTH_BETA "1.392250"
*MEAS_COND_AXIS_NAME-0 "2θ/θ"
*MEAS_COND_AXIS_NAME-1 "2θ"
*MEAS_COND_AXIS_NAME-2 "ω"
*MEAS_COND_AXIS_NAME-3 "Z"
*MEAS_COND_AXIS_NAME-4 "2θ/ω"
*MEAS_COND_AXIS_NAME-5 "θs"
*MEAS_COND_AXIS_NAME-6 "θd"
*MEAS_COND_AXIS_NAME-7 "Ts"
*MEAS_COND_AXIS_NAME-8 "CBO選択スリット"
*MEAS_COND_AXIS_NAME-9 "M"
*MEAS_COND_AXIS_NAME-10 "入射平行スリット"
*MEAS_COND_AXIS_NAME-11 "入射スリット"
*MEAS_COND_AXIS_NAME-12 ""
*MEAS_COND_AXIS_NAME-13 "Zs"
*MEAS_COND_AXIS_NAME-14 "入射光学素子"
*MEAS_COND_AXIS_NAME-15 "長手制限スリット"
*MEAS_COND_AXIS_NAME-16 "センタースリット"
*MEAS_COND_AXIS_NAME-17 "フィルター"
*MEAS_COND_AXIS_NAME-18 "受光スリット1"
*MEAS_COND_AXIS_NAME-19 "受光スリット2"
*MEAS_COND_AXIS_NAME-20 "受光光学素子"
*MEAS_COND_AXIS_NAME-21 "受光平行スリット"
*MEAS_COND_AXIS_NAME-22 "調整用受光スリット"
*MEAS_COND_AXIS_NAME-23 ""
*MEAS_COND_AXIS_NAME-24 ""
*MEAS_COND_AXIS_NAME-25 "Zd"
*MEAS_COND_AXIS_NAME-26 "アッテネータ"
*MEAS_COND_AXIS_NAME-27 "検出器モノクロメータ"
*MEAS_COND_AXIS_NAME-28 "モノクロメータスリット"
*MEAS_COND_AXIS_NAME-29 "プライマリビーム"
*MEAS_COND_AXIS_NAME-30 "PHA"
*MEAS_COND_AXIS_NAME_INTERNAL-0 "TwoThetaTheta"
*MEAS_COND_AXIS_NAME_INTERNAL-1 "TwoTheta"
*MEAS_COND_AXIS_NAME_INTERNAL-2 "Omega"
*MEAS_COND_AXIS_NAME_INTERNAL-3 "Z"
*MEAS_COND_AXIS_NAME_INTERNAL-4 "TwoThetaOmega"
*MEAS_COND_AXIS_NAME_INTERNAL-5 "ThetaS"
*MEAS_COND_AXIS_NAME_INTERNAL-6 "ThetaD"
*MEAS_COND_AXIS_NAME_INTERNAL-7 "Ts"
*MEAS_COND_AXIS_NAME_INTERNAL-8 "CBO"
*MEAS_COND_AXIS_NAME_INTERNAL-9 "CBO-M"
*MEAS_COND_AXIS_NAME_INTERNAL-10 "IncidentSollerSlit"
*MEAS_COND_AXIS_NAME_INTERNAL-11 "IncidentSlitBox"
*MEAS_COND_AXIS_NAME_INTERNAL-12 "IncidentSlitBox-_Axis"
*MEAS_COND_AXIS_NAME_INTERNAL-13 "Zs"
*MEAS_COND_AXIS_NAME_INTERNAL-14 "IncidentMonochromator"
*MEAS_COND_AXIS_NAME_INTERNAL-15 "IncidentAxdSlit"
*MEAS_COND_AXIS_NAME_INTERNAL-16 "CenterSlit"
*MEAS_COND_AXIS_NAME_INTERNAL-17 "Filter"
*MEAS_COND_AXIS_NAME_INTERNAL-18 "ReceivingSlitBox1"
*MEAS_COND_AXIS_NAME_INTERNAL-19 "ReceivingSlitBox2"
*MEAS_COND_AXIS_NAME_INTERNAL-20 "ReceivingOptics"
*MEAS_COND_AXIS_NAME_INTERNAL-21 "ReceivingSollerSlit"
*MEAS_COND_AXIS_NAME_INTERNAL-22 "ReceivingAxdSlit"
*MEAS_COND_AXIS_NAME_INTERNAL-23 "ReceivingSlitBox1-_Axis"
*MEAS_COND_AXIS_NAME_INTERNAL-24 "ReceivingSlitBox2-_Axis"
*MEAS_COND_AXIS_NAME_INTERNAL-25 "ReceivingSlitBox2-Zd"
*MEAS_COND_AXIS_NAME_INTERNAL-26 "Attenuator"
*MEAS_COND_AXIS_NAME_INTERNAL-27 "CounterMonochromator"
*MEAS_COND_AXIS_NAME_INTERNAL-28 "CounterSlit"
*MEAS_COND_AXIS_NAME_INTERNAL-29 "IncidentPrimary"
*MEAS_COND_AXIS_NAME_INTERNAL-30 "PHA"
*MEAS_COND_AXIS_NAME_MAGICNO-0 "83951616.0000000000"
*MEAS_COND_AXIS_NAME_MAGICNO-1 "268632064.0000000000"
*MEAS_COND_AXIS_NAME_MAGICNO-2 "268500992.0000000000"
*MEAS_COND_AXIS_NAME_MAGICNO-3 "285278208.0000000000"
*MEAS_COND_AXIS_NAME_MAGICNO-4 "83951616.0000000000"
*MEAS_COND_AXIS_NAME_MAGICNO-5 "131072.0000000000"
*MEAS_COND_AXIS_NAME_MAGICNO-6 "131072.0000000000"
*MEAS_COND_AXIS_NAME_MAGICNO-7 "318898176.0000000000"
*MEAS_COND_AXIS_NAME_MAGICNO-8 "20971521.0000000000"
*MEAS_COND_AXIS_NAME_MAGICNO-9 "285343744.0000000000"
*MEAS_COND_AXIS_NAME_MAGICNO-10 "20971521.0000000000"
*MEAS_COND_AXIS_NAME_MAGICNO-11 "22020097.0000000000"
*MEAS_COND_AXIS_NAME_MAGICNO-12 "25165824.0000000000"
*MEAS_COND_AXIS_NAME_MAGICNO-13 "318898176.0000000000"
*MEAS_COND_AXIS_NAME_MAGICNO-14 "1.0000000000"
*MEAS_COND_AXIS_NAME_MAGICNO-15 "20971521.0000000000"
*MEAS_COND_AXIS_NAME_MAGICNO-16 "20971521.0000000000"
*MEAS_COND_AXIS_NAME_MAGICNO-17 "20971521.0000000000"
*MEAS_COND_AXIS_NAME_MAGICNO-18 "23068673.0000000000"
*MEAS_COND_AXIS_NAME_MAGICNO-19 "23068673.0000000000"
*MEAS_COND_AXIS_NAME_MAGICNO-20 "20971521.0000000000"
*MEAS_COND_AXIS_NAME_MAGICNO-21 "20971521.0000000000"
*MEAS_COND_AXIS_NAME_MAGICNO-22 "20971521.0000000000"
*MEAS_COND_AXIS_NAME_MAGICNO-23 "25165824.0000000000"
*MEAS_COND_AXIS_NAME_MAGICNO-24 "25165824.0000000000"
*MEAS_COND_AXIS_NAME_MAGICNO-25 "285343744.0000000000"
*MEAS_COND_AXIS_NAME_MAGICNO-26 "17301505.0000000000"
*MEAS_COND_AXIS_NAME_MAGICNO-27 "20971521.0000000000"
*MEAS_COND_AXIS_NAME_MAGICNO-28 "20971521.0000000000"
*MEAS_COND_AXIS_NAME_MAGICNO-29 "20971521.0000000000"
*MEAS_COND_AXIS_NAME_MAGICNO-30 "0.0000000000"
*MEAS_COND_AXIS_OFFSET-0 "-"
*MEAS_COND_AXIS_OFFSET-1 "-0.0801000000"
*MEAS_COND_AXIS_OFFSET-2 "0.1646000000"
*MEAS_COND_AXIS_OFFSET-3 "-"
*MEAS_COND_AXIS_OFFSET-4 "-"
*MEAS_COND_AXIS_OFFSET-5 "0.1646000000"
*MEAS_COND_AXIS_OFFSET-6 "-0.2447000000"
*MEAS_COND_AXIS_OFFSET-7 "-"
*MEAS_COND_AXIS_OFFSET-8 "-"
*MEAS_COND_AXIS_OFFSET-9 "-"
*MEAS_COND_AXIS_OFFSET-10 "-"
*MEAS_COND_AXIS_OFFSET-11 "-"
*MEAS_COND_AXIS_OFFSET-12 "-"
*MEAS_COND_AXIS_OFFSET-13 "-"
*MEAS_COND_AXIS_OFFSET-14 "-"
*MEAS_COND_AXIS_OFFSET-15 "-"
*MEAS_COND_AXIS_OFFSET-16 "-"
*MEAS_COND_AXIS_OFFSET-17 "-"
*MEAS_COND_AXIS_OFFSET-18 "-"
*MEAS_COND_AXIS_OFFSET-19 "-"
*MEAS_COND_AXIS_OFFSET-20 "-"
*MEAS_COND_AXIS_OFFSET-21 "-"
*MEAS_COND_AXIS_OFFSET-22 "-"
*MEAS_COND_AXIS_OFFSET-23 "-"
*MEAS_COND_AXIS_OFFSET-24 "-"
*MEAS_COND_AXIS_OFFSET-25 "-"
*MEAS_COND_AXIS_OFFSET-26 "-"
*MEAS_COND_AXIS_OFFSET-27 "-"
*MEAS_COND_AXIS_OFFSET-28 "-"
*MEAS_COND_AXIS_OFFSET-29 "-"
*MEAS_COND_AXIS_OFFSET-30 "-"
*MEAS_COND_AXIS_POSITION-0 "0.0000000000"
*MEAS_COND_AXIS_POSITION-1 "0.0000000000"
*MEAS_COND_AXIS_POSITION-2 "0.0000000000"
*MEAS_COND_AXIS_POSITION-3 "-2.9256400000"
*MEAS_COND_AXIS_POSITION-4 "0.0000000000"
*MEAS_COND_AXIS_POSITION-5 "0.0000000000"
*MEAS_COND_AXIS_POSITION-6 "0.0000000000"
*MEAS_COND_AXIS_POSITION-7 "-0.4278800000"
*MEAS_COND_AXIS_POSITION-8 "BB"
*MEAS_COND_AXIS_POSITION-9 "0.0000000000"
*MEAS_COND_AXIS_POSITION-10 "Soller_slit_5.0deg"
*MEAS_COND_AXIS_POSITION-11 "2/3deg"
*MEAS_COND_AXIS_POSITION-12 "2.2088000000"
*MEAS_COND_AXIS_POSITION-13 "-1.0609400000"
*MEAS_COND_AXIS_POSITION-14 "0.0000000000"
*MEAS_COND_AXIS_POSITION-15 "10.0mm"
*MEAS_COND_AXIS_POSITION-16 "None"
*MEAS_COND_AXIS_POSITION-17 "Cu_K-beta"
*MEAS_COND_AXIS_POSITION-18 "13.000mm"
*MEAS_COND_AXIS_POSITION-19 "13.000mm"
*MEAS_COND_AXIS_POSITION-20 "No_unit"
*MEAS_COND_AXIS_POSITION-21 "Soller_slit_5.0deg"
*MEAS_COND_AXIS_POSITION-22 "None"
*MEAS_COND_AXIS_POSITION-23 "13.0000000000"
*MEAS_COND_AXIS_POSITION-24 "13.0000000000"
*MEAS_COND_AXIS_POSITION-25 "0.0081300000"
*MEAS_COND_AXIS_POSITION-26 "Open"
*MEAS_COND_AXIS_POSITION-27 "None"
*MEAS_COND_AXIS_POSITION-28 "None"
*MEAS_COND_AXIS_POSITION-29 "None"
*MEAS_COND_AXIS_POSITION-30 "38.0000000000"
*MEAS_COND_AXIS_UNIT-0 "deg"
*MEAS_COND_AXIS_UNIT-1 "deg"
*MEAS_COND_AXIS_UNIT-2 "deg"
*MEAS_COND_AXIS_UNIT-3 "mm"
*MEAS_COND_AXIS_UNIT-4 "deg"
*MEAS_COND_AXIS_UNIT-5 "deg"
*MEAS_COND_AXIS_UNIT-6 "deg"
*MEAS_COND_AXIS_UNIT-7 "mm"
*MEAS_COND_AXIS_UNIT-8 ""
*MEAS_COND_AXIS_UNIT-9 "pulse"
*MEAS_COND_AXIS_UNIT-10 ""
*MEAS_COND_AXIS_UNIT-11 ""
*MEAS_COND_AXIS_UNIT-12 "mm"
*MEAS_COND_AXIS_UNIT-13 "mm"
*MEAS_COND_AXIS_UNIT-14 ""
*MEAS_COND_AXIS_UNIT-15 ""
*MEAS_COND_AXIS_UNIT-16 ""
*MEAS_COND_AXIS_UNIT-17 ""
*MEAS_COND_AXIS_UNIT-18 ""
*MEAS_COND_AXIS_UNIT-19 ""
*MEAS_COND_AXIS_UNIT-20 ""
*MEAS_COND_AXIS_UNIT-21 ""
*MEAS_COND_AXIS_UNIT-22 ""
*MEAS_COND_AXIS_UNIT-23 "mm"
*MEAS_COND_AXIS_UNIT-24 "mm"
*MEAS_COND_AXIS_UNIT-25 "mm"
*MEAS_COND_AXIS_UNIT-26 ""
*MEAS_COND_AXIS_UNIT-27 ""
*MEAS_COND_AXIS_UNIT-28 ""
*MEAS_COND_AXIS_UNIT-29 ""
*MEAS_COND_AXIS_UNIT-30 "div"
*MEAS_COND_COUNTER_CNTLOSS_CORR "0.0000000000"
*MEAS_COND_COUNTER_PHABASE "38.0000000000"
*MEAS_COND_COUNTER_PHAWINDOW "16.0000000000"
*MEAS_COND_COUNTER_PHA_UNIT "div"
*MEAS_COND_COUNTER_TAUDIFF "30.0000000000"
*MEAS_COND_COUNTER_TAUINT "0.0000000000"
*MEAS_COND_IRRADIATION_MODE "OFF"
*MEAS_COND_IRRADIATION_WIDTH ""
*MEAS_COND_OPT_ATTR "集中法"
*MEAS_COND_OPT_NAME "@集中法"
*MEAS_COND_UNSYMMETRIC_MODE "OFF"
*MEAS_COND_XG_CURRENT "30.0000000000"
*MEAS_COND_XG_VOLTAGE "40.0000000000"
*MEAS_COND_XG_WAVE_TYPE "Ka"
*MEAS_DATA_COUNT "5001.0000000000"
*MEAS_SCAN_AXIS_X "2θ/θ"
*MEAS_SCAN_AXIS_X_INTERNAL "TwoThetaTheta"
*MEAS_SCAN_END_TIME "07/09/22 16:11:01"
*MEAS_SCAN_MODE "CONTINUOUS"
*MEAS_SCAN_MONITOR "0"
*MEAS_SCAN_RESOLUTION_X "0.0002"
*MEAS_SCAN_SPEED "2.5"
*MEAS_SCAN_SPEED_UNIT "deg/min"
*MEAS_SCAN_START "20.0000000000"
*MEAS_SCAN_START_TIME "07/09/22 15:49:38"
*MEAS_SCAN_STEP "0.0100000000"
*MEAS_SCAN_STOP "70.0000000000"
*MEAS_SCAN_UNIT_X "deg"
*MEAS_SCAN_UNIT_Y "counts"
*RAS_HEADER_END
*RAS_INT_START
20.0000 993.0000 1.0000
20.0100 1009.0000 1.0000
20.0200 974.0000 1.0000
20.0300 989.0000 1.0000
20.0400 1025.0000 1.0000
20.0500 1022.0000 1.0000
20.0600 966.0000 1.0000
20.0700 990.0000 1.0000
20.0800 1004.0000 1.0000
20.0900 1031.0000 1.0000
20.1000 981.0000 1.0000
20.1100 985.0000 1.0000
20.1200 1032.0000 1.0000
20.1300 1030.0000 1.0000
20.1400 968.0000 1.0000
20.1500 971.0000 1.0000
20.1600 944.0000 1.0000
20.1700 967.0000 1.0000
20.1800 974.0000 1.0000
20.1900 979.0000 1.0000
20.2000 1032.0000 1.0000
20.2100 991.0000 1.0000
20.2200 1004.0000 1.0000
20.2300 993.0000 1.0000
20.2400 1009.0000 1.0000
20.2500 983.0000 1.0000
20.2600 992.0000 1.0000
20.2700 974.0000 1.0000
20.2800 971.0000 1.0000
20.2900 1035.0000 1.0000
20.3000 970.0000 1.0000
20.3100 974.0000 1.0000
20.3200 971.0000 1.0000
20.3300 1037.0000 1.0000
20.3400 974.0000 1.0000
20.3500 1002.0000 1.0000
20.3600 1001.0000 1.0000
20.3700 1091.0000 1.0000
20.3800 1042.0000 1.0000
20.3900 971.0000 1.0000
20.4000 1028.0000 1.0000
20.4100 993.0000 1.0000
20.4200 994.0000 1.0000
20.4300 992.0000 1.0000
20.4400 966.0000 1.0000
20.4500 976.0000 1.0000
20.4600 969.0000 1.0000
20.4700 998.0000 1.0000
20.4800 1017.0000 1.0000
20.4900 984.0000 1.0000
20.5000 990.0000 1.0000
20.5100 959.0000 1.0000
20.5200 991.0000 1.0000
20.5300 1046.0000 1.0000
20.5400 1036.0000 1.0000
20.5500 1015.0000 1.0000
20.5600 967.0000 1.0000
20.5700 1022.0000 1.0000
20.5800 1008.0000 1.0000
20.5900 1007.0000 1.0000
20.6000 1024.0000 1.0000
20.6100 1005.0000 1.0000
20.6200 970.0000 1.0000
20.6300 1017.0000 1.0000
20.6400 994.0000 1.0000
20.6500 1032.0000 1.0000
20.6600 961.0000 1.0000
20.6700 1015.0000 1.0000
20.6800 1039.0000 1.0000
20.6900 1002.0000 1.0000
20.7000 985.0000 1.0000
20.7100 1026.0000 1.0000
20.7200 983.0000 1.0000
20.7300 988.0000 1.0000
20.7400 1000.0000 1.0000
20.7500 983.0000 1.0000
20.7600 968.0000 1.0000
20.7700 991.0000 1.0000
20.7800 1001.0000 1.0000
20.7900 998.0000 1.0000
20.8000 1030.0000 1.0000
20.8100 1008.0000 1.0000
20.8200 962.0000 1.0000
20.8300 991.0000 1.0000
20.8400 995.0000 1.0000
20.8500 938.0000 1.0000
20.8600 979.0000 1.0000
20.8700 997.0000 1.0000
20.8800 995.0000 1.0000
20.8900 964.0000 1.0000
20.9000 971.0000 1.0000
20.9100 997.0000 1.0000
20.9200 1022.0000 1.0000
20.9300 1027.0000 1.0000
20.9400 997.0000 1.0000
20.9500 966.0000 1.0000
20.9600 964.0000 1.0000
20.9700 1006.0000 1.0000
20.9800 1049.0000 1.0000
20.9900 951.0000 1.0000
21.0000 973.0000 1.0000
21.0100 1007.0000 1.0000
21.0200 976.0000 1.0000
21.0300 996.0000 1.0000
21.0400 1031.0000 1.0000
21.0500 1000.0000 1.0000
21.0600 978.0000 1.0000
21.0700 1052.0000 1.0000
21.0800 1026.0000 1.0000
21.0900 976.0000 1.0000
21.1000 1007.0000 1.0000
21.1100 997.0000 1.0000
21.1200 998.0000 1.0000
21.1300 1007.0000 1.0000
21.1400 979.0000 1.0000
21.1500 982.0000 1.0000
21.1600 961.0000 1.0000
21.1700 1006.0000 1.0000
21.1800 967.0000 1.0000
21.1900 1008.0000 1.0000
21.2000 1031.0000 1.0000
21.2100 1019.0000 1.0000
21.2200 994.0000 1.0000
21.2300 996.0000 1.0000
21.2400 998.0000 1.0000
21.2500 1013.0000 1.0000
21.2600 986.0000 1.0000
21.2700 1018.0000 1.0000
21.2800 1036.0000 1.0000
21.2900 1005.0000 1.0000
21.3000 1012.0000 1.0000
21.3100 958.0000 1.0000
21.3200 957.0000 1.0000
21.3300 1019.0000 1.0000
21.3400 988.0000 1.0000
21.3500 954.0000 1.0000
21.3600 1026.0000 1.0000
21.3700 1036.0000 1.0000
21.3800 1009.0000 1.0000
21.3900 1008.0000 1.0000
21.4000 977.0000 1.0000
21.4100 1017.0000 1.0000
21.4200 976.0000 1.0000
21.4300 964.0000 1.0000
21.4400 977.0000 1.0000
21.4500 1019.0000 1.0000
21.4600 948.0000 1.0000
21.4700 993.0000 1.0000
21.4800 1019.0000 1.0000
21.4900 972.0000 1.0000
21.5000 972.0000 1.0000
21.5100 999.0000 1.0000
21.5200 983.0000 1.0000
21.5300 981.0000 1.0000
21.5400 993.0000 1.0000
21.5500 968.0000 1.0000
21.5600 978.0000 1.0000
21.5700 1014.0000 1.0000
21.5800 1004.0000 1.0000
21.5900 1012.0000 1.0000
21.6000 997.0000 1.0000
21.6100 1002.0000 1.0000
21.6200 1024.0000 1.0000
21.6300 990.0000 1.0000
21.6400 990.0000 1.0000
21.6500 985.0000 1.0000
21.6600 935.0000 1.0000
21.6700 945.0000 1.0000
21.6800 979.0000 1.0000
21.6900 956.0000 1.0000
21.7000 968.0000 1.0000
21.7100 1019.0000 1.0000
21.7200 974.0000 1.0000
21.7300 946.0000 1.0000
21.7400 992.0000 1.0000
21.7500 1001.0000 1.0000
21.7600 1051.0000 1.0000
21.7700 1016.0000 1.0000
21.7800 1035.0000 1.0000
21.7900 980.0000 1.0000
21.8000 928.0000 1.0000
21.8100 1017.0000 1.0000
21.8200 997.0000 1.0000
21.8300 946.0000 1.0000
21.8400 1013.0000 1.0000
21.8500 1003.0000 1.0000
21.8600 986.0000 1.0000
21.8700 971.0000 1.0000
21.8800 965.0000 1.0000
21.8900 975.0000 1.0000
21.9000 967.0000 1.0000
21.9100 1007.0000 1.0000
21.9200 1045.0000 1.0000
21.9300 995.0000 1.0000
21.9400 974.0000 1.0000
21.9500 1006.0000 1.0000
21.9600 1030.0000 1.0000
21.9700 1017.0000 1.0000
21.9800 965.0000 1.0000
21.9900 1029.0000 1.0000
22.0000 1003.0000 1.0000
22.0100 986.0000 1.0000
22.0200 988.0000 1.0000
22.0300 981.0000 1.0000
22.0400 993.0000 1.0000
22.0500 990.0000 1.0000
22.0600 983.0000 1.0000
22.0700 953.0000 1.0000
22.0800 962.0000 1.0000
22.0900 976.0000 1.0000
22.1000 983.0000 1.0000
22.1100 976.0000 1.0000
22.1200 992.0000 1.0000
22.1300 997.0000 1.0000
22.1400 969.0000 1.0000
22.1500 961.0000 1.0000
22.1600 982.0000 1.0000
22.1700 985.0000 1.0000
22.1800 993.0000 1.0000
22.1900 978.0000 1.0000
22.2000 952.0000 1.0000
22.2100 1014.0000 1.0000
22.2200 1031.0000 1.0000
22.2300 955.0000 1.0000
22.2400 964.0000 1.0000
22.2500 939.0000 1.0000
22.2600 952.0000 1.0000
22.2700 990.0000 1.0000
22.2800 959.0000 1.0000
22.2900 955.0000 1.0000
22.3000 974.0000 1.0000
22.3100 975.0000 1.0000
22.3200 985.0000 1.0000
22.3300 1001.0000 1.0000
22.3400 1015.0000 1.0000
22.3500 1022.0000 1.0000
22.3600 909.0000 1.0000
22.3700 962.0000 1.0000
22.3800 957.0000 1.0000
22.3900 960.0000 1.0000
22.4000 994.0000 1.0000
22.4100 905.0000 1.0000
22.4200 932.0000 1.0000
22.4300 910.0000 1.0000
22.4400 935.0000 1.0000
22.4500 936.0000 1.0000
22.4600 944.0000 1.0000
22.4700 935.0000 1.0000
22.4800 995.0000 1.0000
22.4900 917.0000 1.0000
22.5000 943.0000 1.0000
22.5100 921.0000 1.0000
22.5200 1013.0000 1.0000
22.5300 952.0000 1.0000
22.5400 943.0000 1.0000
22.5500 979.0000 1.0000
22.5600 978.0000 1.0000
22.5700 947.0000 1.0000
22.5800 944.0000 1.0000
22.5900 1018.0000 1.0000
22.6000 1027.0000 1.0000
22.6100 963.0000 1.0000
22.6200 973.0000 1.0000
22.6300 928.0000 1.0000
22.6400 935.0000 1.0000
22.6500 964.0000 1.0000
22.6600 982.0000 1.0000
22.6700 988.0000 1.0000
22.6800 987.0000 1.0000
22.6900 941.0000 1.0000
22.7000 991.0000 1.0000
22.7100 988.0000 1.0000
22.7200 1013.0000 1.0000
22.7300 1027.0000 1.0000
22.7400 962.0000 1.0000
22.7500 971.0000 1.0000
22.7600 919.0000 1.0000
22.7700 966.0000 1.0000
22.7800 977.0000 1.0000
22.7900 990.0000 1.0000
22.8000 955.0000 1.0000
22.8100 964.0000 1.0000
22.8200 996.0000 1.0000
22.8300 946.0000 1.0000
22.8400 969.0000 1.0000
22.8500 955.0000 1.0000
22.8600 1026.0000 1.0000
22.8700 967.0000 1.0000
22.8800 948.0000 1.0000
22.8900 966.0000 1.0000
22.9000 962.0000 1.0000
22.9100 997.0000 1.0000
22.9200 989.0000 1.0000
22.9300 924.0000 1.0000
22.9400 973.0000 1.0000
22.9500 1028.0000 1.0000
22.9600 1000.0000 1.0000
22.9700 934.0000 1.0000
22.9800 987.0000 1.0000
22.9900 925.0000 1.0000
23.0000 965.0000 1.0000
23.0100 966.0000 1.0000
23.0200 966.0000 1.0000
23.0300 949.0000 1.0000
23.0400 986.0000 1.0000
23.0500 938.0000 1.0000
23.0600 969.0000 1.0000
23.0700 931.0000 1.0000
23.0800 965.0000 1.0000
23.0900 956.0000 1.0000
23.1000 944.0000 1.0000
23.1100 959.0000 1.0000
23.1200 935.0000 1.0000
23.1300 936.0000 1.0000
23.1400 929.0000 1.0000
23.1500 936.0000 1.0000
23.1600 979.0000 1.0000
23.1700 908.0000 1.0000
23.1800 1012.0000 1.0000
23.1900 997.0000 1.0000
23.2000 986.0000 1.0000
23.2100 966.0000 1.0000
23.2200 912.0000 1.0000
23.2300 946.0000 1.0000
23.2400 975.0000 1.0000
23.2500 993.0000 1.0000
23.2600 951.0000 1.0000
23.2700 897.0000 1.0000
23.2800 961.0000 1.0000
23.2900 963.0000 1.0000
23.3000 976.0000 1.0000
23.3100 980.0000 1.0000
23.3200 939.0000 1.0000
23.3300 930.0000 1.0000
23.3400 921.0000 1.0000
23.3500 966.0000 1.0000
23.3600 931.0000 1.0000
23.3700 936.0000 1.0000
23.3800 905.0000 1.0000
23.3900 941.0000 1.0000
23.4000 936.0000 1.0000
23.4100 911.0000 1.0000
23.4200 986.0000 1.0000
23.4300 915.0000 1.0000
23.4400 928.0000 1.0000
23.4500 968.0000 1.0000
23.4600 967.0000 1.0000
23.4700 940.0000 1.0000
23.4800 958.0000 1.0000
23.4900 967.0000 1.0000
23.5000 939.0000 1.0000
23.5100 984.0000 1.0000
23.5200 934.0000 1.0000
23.5300 939.0000 1.0000
23.5400 971.0000 1.0000
23.5500 986.0000 1.0000
23.5600 983.0000 1.0000
23.5700 911.0000 1.0000
23.5800 907.0000 1.0000
23.5900 916.0000 1.0000
23.6000 948.0000 1.0000
23.6100 966.0000 1.0000
23.6200 881.0000 1.0000
23.6300 930.0000 1.0000
23.6400 974.0000 1.0000
23.6500 933.0000 1.0000
23.6600 961.0000 1.0000
23.6700 985.0000 1.0000
23.6800 943.0000 1.0000
23.6900 942.0000 1.0000
23.7000 959.0000 1.0000
23.7100 935.0000 1.0000
23.7200 909.0000 1.0000
23.7300 948.0000 1.0000
23.7400 937.0000 1.0000
23.7500 949.0000 1.0000
23.7600 933.0000 1.0000
23.7700 968.0000 1.0000
23.7800 955.0000 1.0000
23.7900 985.0000 1.0000
23.8000 936.0000 1.0000
23.8100 925.0000 1.0000
23.8200 980.0000 1.0000
23.8300 975.0000 1.0000
23.8400 985.0000 1.0000
23.8500 1027.0000 1.0000
23.8600 959.0000 1.0000
23.8700 990.0000 1.0000
23.8800 946.0000 1.0000
23.8900 990.0000 1.0000
23.9000 1010.0000 1.0000
23.9100 977.0000 1.0000
23.9200 931.0000 1.0000
23.9300 1008.0000 1.0000
23.9400 1014.0000 1.0000
23.9500 976.0000 1.0000
23.9600 1023.0000 1.0000
23.9700 976.0000 1.0000
23.9800 994.0000 1.0000
23.9900 997.0000 1.0000
24.0000 955.0000 1.0000
24.0100 986.0000 1.0000
24.0200 1012.0000 1.0000
24.0300 989.0000 1.0000
24.0400 1058.0000 1.0000
24.0500 1012.0000 1.0000
24.0600 1039.0000 1.0000
24.0700 996.0000 1.0000
24.0800 1008.0000 1.0000
24.0900 1008.0000 1.0000
24.1000 1015.0000 1.0000
24.1100 996.0000 1.0000
24.1200 1004.0000 1.0000
24.1300 1044.0000 1.0000
24.1400 1003.0000 1.0000
24.1500 958.0000 1.0000
24.1600 939.0000 1.0000
24.1700 979.0000 1.0000
24.1800 979.0000 1.0000
24.1900 1024.0000 1.0000
24.2000 1043.0000 1.0000
24.2100 957.0000 1.0000
24.2200 939.0000 1.0000
24.2300 1019.0000 1.0000
24.2400 1012.0000 1.0000
24.2500 970.0000 1.0000
24.2600 939.0000 1.0000
24.2700 881.0000 1.0000
24.2800 954.0000 1.0000
24.2900 956.0000 1.0000
24.3000 954.0000 1.0000
24.3100 976.0000 1.0000
24.3200 964.0000 1.0000
24.3300 940.0000 1.0000
24.3400 950.0000 1.0000
24.3500 995.0000 1.0000
24.3600 944.0000 1.0000
24.3700 911.0000 1.0000
24.3800 968.0000 1.0000
24.3900 993.0000 1.0000
24.4000 968.0000 1.0000
24.4100 977.0000 1.0000
24.4200 925.0000 1.0000
24.4300 943.0000 1.0000
24.4400 961.0000 1.0000
24.4500 931.0000 1.0000
24.4600 909.0000 1.0000
24.4700 927.0000 1.0000
24.4800 932.0000 1.0000
24.4900 977.0000 1.0000
24.5000 1005.0000 1.0000
24.5100 930.0000 1.0000
24.5200 904.0000 1.0000
24.5300 919.0000 1.0000
24.5400 970.0000 1.0000
24.5500 946.0000 1.0000
24.5600 941.0000 1.0000
24.5700 968.0000 1.0000
24.5800 988.0000 1.0000
24.5900 958.0000 1.0000
24.6000 972.0000 1.0000
24.6100 953.0000 1.0000
24.6200 923.0000 1.0000
24.6300 952.0000 1.0000
24.6400 930.0000 1.0000
24.6500 938.0000 1.0000
24.6600 957.0000 1.0000
24.6700 905.0000 1.0000
24.6800 984.0000 1.0000
24.6900 979.0000 1.0000
24.7000 933.0000 1.0000
24.7100 896.0000 1.0000
24.7200 927.0000 1.0000
24.7300 970.0000 1.0000
24.7400 919.0000 1.0000
24.7500 929.0000 1.0000
24.7600 957.0000 1.0000
24.7700 892.0000 1.0000
24.7800 947.0000 1.0000
24.7900 945.0000 1.0000
24.8000 906.0000 1.0000
24.8100 918.0000 1.0000
24.8200 923.0000 1.0000
24.8300 936.0000 1.0000
24.8400 952.0000 1.0000
24.8500 945.0000 1.0000
24.8600 961.0000 1.0000
24.8700 928.0000 1.0000
24.8800 920.0000 1.0000
24.8900 975.0000 1.0000
24.9000 951.0000 1.0000
24.9100 936.0000 1.0000
24.9200 903.0000 1.0000
24.9300 958.0000 1.0000
24.9400 937.0000 1.0000
24.9500 950.0000 1.0000
24.9600 1028.0000 1.0000
24.9700 970.0000 1.0000
24.9800 921.0000 1.0000
24.9900 904.0000 1.0000
25.0000 958.0000 1.0000
25.0100 919.0000 1.0000
25.0200 923.0000 1.0000
25.0300 937.0000 1.0000
25.0400 968.0000 1.0000
25.0500 937.0000 1.0000
25.0600 918.0000 1.0000
25.0700 946.0000 1.0000
25.0800 957.0000 1.0000
25.0900 898.0000 1.0000
25.1000 942.0000 1.0000
25.1100 918.0000 1.0000
25.1200 937.0000 1.0000
25.1300 1004.0000 1.0000
25.1400 925.0000 1.0000
25.1500 937.0000 1.0000
25.1600 945.0000 1.0000
25.1700 924.0000 1.0000
25.1800 934.0000 1.0000
25.1900 933.0000 1.0000
25.2000 973.0000 1.0000
25.2100 953.0000 1.0000
25.2200 919.0000 1.0000
25.2300 934.0000 1.0000
25.2400 986.0000 1.0000
25.2500 964.0000 1.0000
25.2600 935.0000 1.0000
25.2700 940.0000 1.0000
25.2800 928.0000 1.0000
25.2900 878.0000 1.0000
25.3000 915.0000 1.0000
25.3100 962.0000 1.0000
25.3200 982.0000 1.0000
25.3300 1010.0000 1.0000
25.3400 924.0000 1.0000
25.3500 926.0000 1.0000
25.3600 912.0000 1.0000
25.3700 940.0000 1.0000
25.3800 920.0000 1.0000
25.3900 950.0000 1.0000
25.4000 932.0000 1.0000
25.4100 914.0000 1.0000
25.4200 907.0000 1.0000
25.4300 938.0000 1.0000
25.4400 937.0000 1.0000
25.4500 913.0000 1.0000
25.4600 970.0000 1.0000
25.4700 962.0000 1.0000
25.4800 949.0000 1.0000
25.4900 977.0000 1.0000
25.5000 985.0000 1.0000
25.5100 953.0000 1.0000
25.5200 905.0000 1.0000
25.5300 957.0000 1.0000
25.5400 961.0000 1.0000
25.5500 942.0000 1.0000
25.5600 948.0000 1.0000
25.5700 990.0000 1.0000
25.5800 959.0000 1.0000
25.5900 946.0000 1.0000
25.6000 981.0000 1.0000
25.6100 948.0000 1.0000
25.6200 931.0000 1.0000
25.6300 992.0000 1.0000
25.6400 993.0000 1.0000
25.6500 981.0000 1.0000
25.6600 933.0000 1.0000
25.6700 941.0000 1.0000
25.6800 948.0000 1.0000
25.6900 991.0000 1.0000
25.7000 971.0000 1.0000
25.7100 978.0000 1.0000
25.7200 957.0000 1.0000
25.7300 952.0000 1.0000
25.7400 965.0000 1.0000
25.7500 980.0000 1.0000
25.7600 1021.0000 1.0000
25.7700 1022.0000 1.0000
25.7800 985.0000 1.0000
25.7900 993.0000 1.0000
25.8000 1020.0000 1.0000
25.8100 976.0000 1.0000
25.8200 970.0000 1.0000
25.8300 935.0000 1.0000
25.8400 950.0000 1.0000
25.8500 976.0000 1.0000
25.8600 951.0000 1.0000
25.8700 959.0000 1.0000
25.8800 1013.0000 1.0000
25.8900 992.0000 1.0000
25.9000 985.0000 1.0000
25.9100 983.0000 1.0000
25.9200 988.0000 1.0000
25.9300 1043.0000 1.0000
25.9400 984.0000 1.0000
25.9500 1004.0000 1.0000
25.9600 1014.0000 1.0000
25.9700 1031.0000 1.0000
25.9800 984.0000 1.0000
25.9900 1045.0000 1.0000
26.0000 1084.0000 1.0000
26.0100 1033.0000 1.0000
26.0200 1058.0000 1.0000
26.0300 1056.0000 1.0000
26.0400 1060.0000 1.0000
26.0500 1058.0000 1.0000
26.0600 1081.0000 1.0000
26.0700 1114.0000 1.0000
26.0800 1142.0000 1.0000
26.0900 1141.0000 1.0000
26.1000 1124.0000 1.0000
26.1100 1197.0000 1.0000
26.1200 1237.0000 1.0000
26.1300 1188.0000 1.0000
26.1400 1274.0000 1.0000
26.1500 1295.0000 1.0000
26.1600 1256.0000 1.0000
26.1700 1313.0000 1.0000
26.1800 1348.0000 1.0000
26.1900 1412.0000 1.0000
26.2000 1483.0000 1.0000
26.2100 1500.0000 1.0000
26.2200 1539.0000 1.0000
26.2300 1590.0000 1.0000
26.2400 1668.0000 1.0000
26.2500 1739.0000 1.0000
26.2600 1803.0000 1.0000
26.2700 1839.0000 1.0000
26.2800 1985.0000 1.0000
26.2900 2120.0000 1.0000
26.3000 2183.0000 1.0000
26.3100 2255.0000 1.0000
26.3200 2473.0000 1.0000
26.3300 2567.0000 1.0000
26.3400 2732.0000 1.0000
26.3500 2759.0000 1.0000
26.3600 2900.0000 1.0000
26.3700 3086.0000 1.0000
26.3800 3196.0000 1.0000
26.3900 3343.0000 1.0000
26.4000 3324.0000 1.0000
26.4100 3248.0000 1.0000
26.4200 3316.0000 1.0000
26.4300 3346.0000 1.0000
26.4400 3303.0000 1.0000
26.4500 3254.0000 1.0000
26.4600 3102.0000 1.0000
26.4700 2971.0000 1.0000
26.4800 2856.0000 1.0000
26.4900 2700.0000 1.0000
26.5000 2621.0000 1.0000
26.5100 2493.0000 1.0000
26.5200 2480.0000 1.0000
26.5300 2273.0000 1.0000
26.5400 2184.0000 1.0000
26.5500 2196.0000 1.0000
26.5600 2004.0000 1.0000
26.5700 1869.0000 1.0000
26.5800 1828.0000 1.0000
26.5900 1648.0000 1.0000
26.6000 1625.0000 1.0000
26.6100 1639.0000 1.0000
26.6200 1545.0000 1.0000
26.6300 1473.0000 1.0000
26.6400 1466.0000 1.0000
26.6500 1371.0000 1.0000
26.6600 1336.0000 1.0000
26.6700 1331.0000 1.0000
26.6800 1307.0000 1.0000
26.6900 1285.0000 1.0000
26.7000 1231.0000 1.0000
26.7100 1193.0000 1.0000
26.7200 1185.0000 1.0000
26.7300 1145.0000 1.0000
26.7400 1143.0000 1.0000
26.7500 1121.0000 1.0000
26.7600 1080.0000 1.0000
26.7700 1108.0000 1.0000
26.7800 1113.0000 1.0000
26.7900 1078.0000 1.0000
26.8000 1033.0000 1.0000
26.8100 1060.0000 1.0000
26.8200 1059.0000 1.0000
26.8300 1044.0000 1.0000
26.8400 1029.0000 1.0000
26.8500 1030.0000 1.0000
26.8600 1073.0000 1.0000
26.8700 1024.0000 1.0000
26.8800 1051.0000 1.0000
26.8900 1035.0000 1.0000
26.9000 968.0000 1.0000
26.9100 973.0000 1.0000
26.9200 965.0000 1.0000
26.9300 980.0000 1.0000
26.9400 991.0000 1.0000
26.9500 979.0000 1.0000
26.9600 972.0000 1.0000
26.9700 986.0000 1.0000
26.9800 971.0000 1.0000
26.9900 972.0000 1.0000
27.0000 969.0000 1.0000
27.0100 912.0000 1.0000
27.0200 935.0000 1.0000
27.0300 960.0000 1.0000
27.0400 953.0000 1.0000
27.0500 953.0000 1.0000
27.0600 943.0000 1.0000
27.0700 949.0000 1.0000
27.0800 935.0000 1.0000
27.0900 939.0000 1.0000
27.1000 924.0000 1.0000
27.1100 900.0000 1.0000
27.1200 879.0000 1.0000
27.1300 924.0000 1.0000
27.1400 898.0000 1.0000
27.1500 874.0000 1.0000
27.1600 879.0000 1.0000
27.1700 959.0000 1.0000
27.1800 897.0000 1.0000
27.1900 829.0000 1.0000
27.2000 875.0000 1.0000
27.2100 858.0000 1.0000
27.2200 898.0000 1.0000
27.2300 935.0000 1.0000
27.2400 926.0000 1.0000
27.2500 900.0000 1.0000
27.2600 876.0000 1.0000
27.2700 928.0000 1.0000
27.2800 895.0000 1.0000
27.2900 884.0000 1.0000
27.3000 844.0000 1.0000
27.3100 881.0000 1.0000
27.3200 921.0000 1.0000
27.3300 882.0000 1.0000
27.3400 877.0000 1.0000
27.3500 894.0000 1.0000
27.3600 892.0000 1.0000
27.3700 853.0000 1.0000
27.3800 835.0000 1.0000
27.3900 878.0000 1.0000
27.4000 883.0000 1.0000
27.4100 905.0000 1.0000
27.4200 880.0000 1.0000
27.4300 892.0000 1.0000
27.4400 911.0000 1.0000
27.4500 904.0000 1.0000
27.4600 842.0000 1.0000
27.4700 925.0000 1.0000
27.4800 838.0000 1.0000
27.4900 854.0000 1.0000
27.5000 859.0000 1.0000
27.5100 866.0000 1.0000
27.5200 860.0000 1.0000
27.5300 862.0000 1.0000
27.5400 875.0000 1.0000
27.5500 863.0000 1.0000
27.5600 861.0000 1.0000
27.5700 886.0000 1.0000
27.5800 892.0000 1.0000
27.5900 889.0000 1.0000
27.6000 886.0000 1.0000
27.6100 858.0000 1.0000
27.6200 854.0000 1.0000
27.6300 867.0000 1.0000
27.6400 895.0000 1.0000
27.6500 902.0000 1.0000
27.6600 857.0000 1.0000
27.6700 897.0000 1.0000
27.6800 873.0000 1.0000
27.6900 862.0000 1.0000
27.7000 830.0000 1.0000
27.7100 836.0000 1.0000
27.7200 853.0000 1.0000
27.7300 863.0000 1.0000
27.7400 915.0000 1.0000
27.7500 893.0000 1.0000
27.7600 840.0000 1.0000
27.7700 862.0000 1.0000
27.7800 843.0000 1.0000
27.7900 844.0000 1.0000
27.8000 866.0000 1.0000
27.8100 885.0000 1.0000
27.8200 871.0000 1.0000
27.8300 873.0000 1.0000
27.8400 905.0000 1.0000
27.8500 840.0000 1.0000
27.8600 914.0000 1.0000
27.8700 844.0000 1.0000
27.8800 862.0000 1.0000
27.8900 858.0000 1.0000
27.9000 879.0000 1.0000
27.9100 841.0000 1.0000
27.9200 811.0000 1.0000
27.9300 839.0000 1.0000
27.9400 837.0000 1.0000
27.9500 801.0000 1.0000
27.9600 851.0000 1.0000
27.9700 897.0000 1.0000
27.9800 842.0000 1.0000
27.9900 839.0000 1.0000
28.0000 859.0000 1.0000
28.0100 873.0000 1.0000
28.0200 869.0000 1.0000
28.0300 841.0000 1.0000
28.0400 877.0000 1.0000
28.0500 822.0000 1.0000
28.0600 858.0000 1.0000
28.0700 855.0000 1.0000
28.0800 833.0000 1.0000
28.0900 799.0000 1.0000
28.1000 839.0000 1.0000
28.1100 795.0000 1.0000
28.1200 774.0000 1.0000
28.1300 827.0000 1.0000
28.1400 902.0000 1.0000
28.1500 836.0000 1.0000
28.1600 795.0000 1.0000
28.1700 845.0000 1.0000
28.1800 870.0000 1.0000
28.1900 839.0000 1.0000
28.2000 852.0000 1.0000
28.2100 832.0000 1.0000
28.2200 846.0000 1.0000
28.2300 857.0000 1.0000
28.2400 840.0000 1.0000
28.2500 863.0000 1.0000
28.2600 850.0000 1.0000
28.2700 843.0000 1.0000
28.2800 878.0000 1.0000
28.2900 864.0000 1.0000
28.3000 860.0000 1.0000
28.3100 824.0000 1.0000
28.3200 815.0000 1.0000
28.3300 835.0000 1.0000
28.3400 856.0000 1.0000
28.3500 840.0000 1.0000
28.3600 870.0000 1.0000
28.3700 840.0000 1.0000
28.3800 809.0000 1.0000
28.3900 799.0000 1.0000
28.4000 828.0000 1.0000
28.4100 830.0000 1.0000
28.4200 871.0000 1.0000
28.4300 809.0000 1.0000
28.4400 799.0000 1.0000
28.4500 808.0000 1.0000
28.4600 838.0000 1.0000
28.4700 808.0000 1.0000
28.4800 824.0000 1.0000
28.4900 869.0000 1.0000
28.5000 844.0000 1.0000
28.5100 835.0000 1.0000
28.5200 817.0000 1.0000
28.5300 858.0000 1.0000
28.5400 829.0000 1.0000
28.5500 881.0000 1.0000
28.5600 813.0000 1.0000
28.5700 824.0000 1.0000
28.5800 809.0000 1.0000
28.5900 810.0000 1.0000
28.6000 800.0000 1.0000
28.6100 790.0000 1.0000
28.6200 831.0000 1.0000
28.6300 810.0000 1.0000
28.6400 811.0000 1.0000
28.6500 792.0000 1.0000
28.6600 816.0000 1.0000
28.6700 892.0000 1.0000
28.6800 862.0000 1.0000
28.6900 831.0000 1.0000
28.7000 849.0000 1.0000
28.7100 823.0000 1.0000
28.7200 846.0000 1.0000
28.7300 834.0000 1.0000
28.7400 835.0000 1.0000
28.7500 801.0000 1.0000
28.7600 825.0000 1.0000
28.7700 761.0000 1.0000
28.7800 797.0000 1.0000
28.7900 779.0000 1.0000
28.8000 820.0000 1.0000
28.8100 796.0000 1.0000
28.8200 842.0000 1.0000
28.8300 794.0000 1.0000
28.8400 827.0000 1.0000
28.8500 786.0000 1.0000
28.8600 820.0000 1.0000
28.8700 857.0000 1.0000
28.8800 846.0000 1.0000
28.8900 832.0000 1.0000
28.9000 815.0000 1.0000
28.9100 809.0000 1.0000
28.9200 790.0000 1.0000
28.9300 844.0000 1.0000
28.9400 834.0000 1.0000
28.9500 818.0000 1.0000
28.9600 830.0000 1.0000
28.9700 828.0000 1.0000
28.9800 765.0000 1.0000
28.9900 835.0000 1.0000
29.0000 773.0000 1.0000
29.0100 790.0000 1.0000
29.0200 833.0000 1.0000
29.0300 828.0000 1.0000
29.0400 804.0000 1.0000
29.0500 805.0000 1.0000
29.0600 761.0000 1.0000
29.0700 815.0000 1.0000
29.0800 821.0000 1.0000
29.0900 841.0000 1.0000
29.1000 839.0000 1.0000
29.1100 815.0000 1.0000
29.1200 808.0000 1.0000
29.1300 836.0000 1.0000
29.1400 824.0000 1.0000
29.1500 812.0000 1.0000
29.1600 772.0000 1.0000
29.1700 724.0000 1.0000
29.1800 780.0000 1.0000
29.1900 826.0000 1.0000
29.2000 812.0000 1.0000
29.2100 798.0000 1.0000
29.2200 828.0000 1.0000
29.2300 778.0000 1.0000
29.2400 774.0000 1.0000
29.2500 783.0000 1.0000
29.2600 749.0000 1.0000
29.2700 826.0000 1.0000
29.2800 798.0000 1.0000
29.2900 783.0000 1.0000
29.3000 756.0000 1.0000
29.3100 795.0000 1.0000
29.3200 784.0000 1.0000
29.3300 782.0000 1.0000
29.3400 815.0000 1.0000
29.3500 778.0000 1.0000
29.3600 780.0000 1.0000
29.3700 764.0000 1.0000
29.3800 752.0000 1.0000
29.3900 778.0000 1.0000
29.4000 772.0000 1.0000
29.4100 786.0000 1.0000
29.4200 763.0000 1.0000
29.4300 751.0000 1.0000
29.4400 812.0000 1.0000
29.4500 793.0000 1.0000
29.4600 762.0000 1.0000
29.4700 803.0000 1.0000
29.4800 786.0000 1.0000
29.4900 804.0000 1.0000
29.5000 802.0000 1.0000
29.5100 779.0000 1.0000
29.5200 838.0000 1.0000
29.5300 799.0000 1.0000
29.5400 765.0000 1.0000
29.5500 748.0000 1.0000
29.5600 768.0000 1.0000
29.5700 783.0000 1.0000
29.5800 771.0000 1.0000
29.5900 783.0000 1.0000
29.6000 778.0000 1.0000
29.6100 814.0000 1.0000
29.6200 784.0000 1.0000
29.6300 811.0000 1.0000
29.6400 807.0000 1.0000
29.6500 815.0000 1.0000
29.6600 775.0000 1.0000
29.6700 811.0000 1.0000
29.6800 754.0000 1.0000
29.6900 764.0000 1.0000
29.7000 764.0000 1.0000
29.7100 828.0000 1.0000
29.7200 749.0000 1.0000
29.7300 760.0000 1.0000
29.7400 831.0000 1.0000
29.7500 802.0000 1.0000
29.7600 780.0000 1.0000
29.7700 786.0000 1.0000
29.7800 774.0000 1.0000
29.7900 822.0000 1.0000
29.8000 780.0000 1.0000
29.8100 792.0000 1.0000
29.8200 725.0000 1.0000
29.8300 780.0000 1.0000
29.8400 808.0000 1.0000
29.8500 807.0000 1.0000
29.8600 762.0000 1.0000
29.8700 793.0000 1.0000
29.8800 760.0000 1.0000
29.8900 784.0000 1.0000
29.9000 810.0000 1.0000
29.9100 755.0000 1.0000
29.9200 830.0000 1.0000
29.9300 829.0000 1.0000
29.9400 791.0000 1.0000
29.9500 777.0000 1.0000
29.9600 756.0000 1.0000
29.9700 744.0000 1.0000
29.9800 755.0000 1.0000
29.9900 758.0000 1.0000
30.0000 793.0000 1.0000
30.0100 760.0000 1.0000
30.0200 765.0000 1.0000
30.0300 754.0000 1.0000
30.0400 778.0000 1.0000
30.0500 819.0000 1.0000
30.0600 825.0000 1.0000
30.0700 785.0000 1.0000
30.0800 811.0000 1.0000
30.0900 847.0000 1.0000
30.1000 804.0000 1.0000
30.1100 771.0000 1.0000
30.1200 800.0000 1.0000
30.1300 772.0000 1.0000
30.1400 789.0000 1.0000
30.1500 788.0000 1.0000
30.1600 771.0000 1.0000
30.1700 764.0000 1.0000
30.1800 765.0000 1.0000
30.1900 764.0000 1.0000
30.2000 801.0000 1.0000
30.2100 790.0000 1.0000
30.2200 731.0000 1.0000
30.2300 788.0000 1.0000
30.2400 802.0000 1.0000
30.2500 788.0000 1.0000
30.2600 770.0000 1.0000
30.2700 783.0000 1.0000
30.2800 786.0000 1.0000
30.2900 761.0000 1.0000
30.3000 816.0000 1.0000
30.3100 832.0000 1.0000
30.3200 736.0000 1.0000
30.3300 766.0000 1.0000
30.3400 750.0000 1.0000
30.3500 768.0000 1.0000
30.3600 755.0000 1.0000
30.3700 808.0000 1.0000
30.3800 790.0000 1.0000
30.3900 771.0000 1.0000
30.4000 751.0000 1.0000
30.4100 762.0000 1.0000
30.4200 804.0000 1.0000
30.4300 790.0000 1.0000
30.4400 759.0000 1.0000
30.4500 778.0000 1.0000
30.4600 738.0000 1.0000
30.4700 769.0000 1.0000
30.4800 737.0000 1.0000
30.4900 773.0000 1.0000
30.5000 776.0000 1.0000
30.5100 782.0000 1.0000
30.5200 732.0000 1.0000
30.5300 796.0000 1.0000
30.5400 750.0000 1.0000
30.5500 750.0000 1.0000
30.5600 765.0000 1.0000
30.5700 761.0000 1.0000
30.5800 755.0000 1.0000
30.5900 812.0000 1.0000
30.6000 750.0000 1.0000
30.6100 766.0000 1.0000
30.6200 747.0000 1.0000
30.6300 763.0000 1.0000
30.6400 782.0000 1.0000
30.6500 781.0000 1.0000
30.6600 787.0000 1.0000
30.6700 799.0000 1.0000
30.6800 767.0000 1.0000
30.6900 770.0000 1.0000
30.7000 725.0000 1.0000
30.7100 751.0000 1.0000
30.7200 738.0000 1.0000
30.7300 781.0000 1.0000
30.7400 767.0000 1.0000
30.7500 740.0000 1.0000
30.7600 799.0000 1.0000
30.7700 762.0000 1.0000
30.7800 709.0000 1.0000
30.7900 749.0000 1.0000
30.8000 756.0000 1.0000
30.8100 776.0000 1.0000
30.8200 785.0000 1.0000
30.8300 748.0000 1.0000
30.8400 757.0000 1.0000
30.8500 736.0000 1.0000
30.8600 757.0000 1.0000
30.8700 692.0000 1.0000
30.8800 727.0000 1.0000
30.8900 751.0000 1.0000
30.9000 735.0000 1.0000
30.9100 764.0000 1.0000
30.9200 719.0000 1.0000
30.9300 739.0000 1.0000
30.9400 755.0000 1.0000
30.9500 739.0000 1.0000
30.9600 715.0000 1.0000
30.9700 752.0000 1.0000
30.9800 733.0000 1.0000
30.9900 752.0000 1.0000
31.0000 714.0000 1.0000
31.0100 803.0000 1.0000
31.0200 760.0000 1.0000
31.0300 756.0000 1.0000
31.0400 738.0000 1.0000
31.0500 711.0000 1.0000
31.0600 718.0000 1.0000
31.0700 746.0000 1.0000
31.0800 776.0000 1.0000
31.0900 781.0000 1.0000
31.1000 772.0000 1.0000
31.1100 798.0000 1.0000
31.1200 762.0000 1.0000
31.1300 782.0000 1.0000
31.1400 786.0000 1.0000
31.1500 812.0000 1.0000
31.1600 754.0000 1.0000
31.1700 790.0000 1.0000
31.1800 757.0000 1.0000
31.1900 733.0000 1.0000
31.2000 741.0000 1.0000
31.2100 786.0000 1.0000
31.2200 772.0000 1.0000
31.2300 738.0000 1.0000
31.2400 734.0000 1.0000
31.2500 764.0000 1.0000
31.2600 738.0000 1.0000
31.2700 738.0000 1.0000
31.2800 745.0000 1.0000
31.2900 760.0000 1.0000
31.3000 786.0000 1.0000
31.3100 744.0000 1.0000
31.3200 727.0000 1.0000
31.3300 719.0000 1.0000
31.3400 739.0000 1.0000
31.3500 746.0000 1.0000
31.3600 751.0000 1.0000
31.3700 773.0000 1.0000
31.3800 780.0000 1.0000
31.3900 742.0000 1.0000
31.4000 718.0000 1.0000
31.4100 744.0000 1.0000
31.4200 785.0000 1.0000
31.4300 749.0000 1.0000
31.4400 784.0000 1.0000
31.4500 703.0000 1.0000
31.4600 731.0000 1.0000
31.4700 715.0000 1.0000
31.4800 750.0000 1.0000
31.4900 755.0000 1.0000
31.5000 736.0000 1.0000
31.5100 736.0000 1.0000
31.5200 728.0000 1.0000
31.5300 730.0000 1.0000
31.5400 730.0000 1.0000
31.5500 700.0000 1.0000
31.5600 729.0000 1.0000
31.5700 739.0000 1.0000
31.5800 678.0000 1.0000
31.5900 728.0000 1.0000
31.6000 752.0000 1.0000
31.6100 730.0000 1.0000
31.6200 743.0000 1.0000
31.6300 771.0000 1.0000
31.6400 776.0000 1.0000
31.6500 738.0000 1.0000
31.6600 703.0000 1.0000
31.6700 740.0000 1.0000
31.6800 727.0000 1.0000
31.6900 762.0000 1.0000
31.7000 709.0000 1.0000
31.7100 721.0000 1.0000
31.7200 734.0000 1.0000
31.7300 725.0000 1.0000
31.7400 733.0000 1.0000
31.7500 745.0000 1.0000
31.7600 741.0000 1.0000
31.7700 726.0000 1.0000
31.7800 731.0000 1.0000
31.7900 785.0000 1.0000
31.8000 731.0000 1.0000
31.8100 710.0000 1.0000
31.8200 697.0000 1.0000
31.8300 728.0000 1.0000
31.8400 710.0000 1.0000
31.8500 703.0000 1.0000
31.8600 725.0000 1.0000
31.8700 698.0000 1.0000
31.8800 761.0000 1.0000
31.8900 733.0000 1.0000
31.9000 736.0000 1.0000
31.9100 777.0000 1.0000
31.9200 762.0000 1.0000
31.9300 749.0000 1.0000
31.9400 728.0000 1.0000
31.9500 735.0000 1.0000
31.9600 742.0000 1.0000
31.9700 756.0000 1.0000
31.9800 744.0000 1.0000
31.9900 728.0000 1.0000
32.0000 738.0000 1.0000
32.0100 746.0000 1.0000
32.0200 758.0000 1.0000
32.0300 690.0000 1.0000
32.0400 683.0000 1.0000
32.0500 690.0000 1.0000
32.0600 678.0000 1.0000
32.0700 714.0000 1.0000
32.0800 740.0000 1.0000
32.0900 750.0000 1.0000
32.1000 692.0000 1.0000
32.1100 706.0000 1.0000
32.1200 745.0000 1.0000
32.1300 723.0000 1.0000
32.1400 697.0000 1.0000
32.1500 664.0000 1.0000
32.1600 673.0000 1.0000
32.1700 715.0000 1.0000
32.1800 730.0000 1.0000
32.1900 685.0000 1.0000
32.2000 707.0000 1.0000
32.2100 732.0000 1.0000
32.2200 669.0000 1.0000
32.2300 713.0000 1.0000
32.2400 716.0000 1.0000
32.2500 687.0000 1.0000
32.2600 700.0000 1.0000
32.2700 712.0000 1.0000
32.2800 721.0000 1.0000
32.2900 721.0000 1.0000
32.3000 696.0000 1.0000
32.3100 721.0000 1.0000
32.3200 697.0000 1.0000
32.3300 707.0000 1.0000
32.3400 737.0000 1.0000
32.3500 731.0000 1.0000
32.3600 731.0000 1.0000
32.3700 687.0000 1.0000
32.3800 692.0000 1.0000
32.3900 695.0000 1.0000
32.4000 752.0000 1.0000
32.4100 723.0000 1.0000
32.4200 741.0000 1.0000
32.4300 707.0000 1.0000
32.4400 710.0000 1.0000
32.4500 713.0000 1.0000
32.4600 698.0000 1.0000
32.4700 746.0000 1.0000
32.4800 706.0000 1.0000
32.4900 712.0000 1.0000
32.5000 700.0000 1.0000
32.5100 710.0000 1.0000
32.5200 726.0000 1.0000
32.5300 765.0000 1.0000
32.5400 732.0000 1.0000
32.5500 709.0000 1.0000
32.5600 702.0000 1.0000
32.5700 746.0000 1.0000
32.5800 721.0000 1.0000
32.5900 662.0000 1.0000
32.6000 724.0000 1.0000
32.6100 724.0000 1.0000
32.6200 697.0000 1.0000
32.6300 765.0000 1.0000
32.6400 722.0000 1.0000
32.6500 749.0000 1.0000
32.6600 742.0000 1.0000
32.6700 753.0000 1.0000
32.6800 752.0000 1.0000
32.6900 683.0000 1.0000
32.7000 723.0000 1.0000
32.7100 749.0000 1.0000
32.7200 706.0000 1.0000
32.7300 717.0000 1.0000
32.7400 722.0000 1.0000
32.7500 731.0000 1.0000
32.7600 705.0000 1.0000
32.7700 718.0000 1.0000
32.7800 714.0000 1.0000
32.7900 709.0000 1.0000
32.8000 740.0000 1.0000
32.8100 749.0000 1.0000
32.8200 719.0000 1.0000
32.8300 725.0000 1.0000
32.8400 756.0000 1.0000
32.8500 731.0000 1.0000
32.8600 723.0000 1.0000
32.8700 744.0000 1.0000
32.8800 743.0000 1.0000
32.8900 765.0000 1.0000
32.9000 764.0000 1.0000
32.9100 786.0000 1.0000
32.9200 787.0000 1.0000
32.9300 738.0000 1.0000
32.9400 745.0000 1.0000
32.9500 819.0000 1.0000
32.9600 755.0000 1.0000
32.9700 793.0000 1.0000
32.9800 771.0000 1.0000
32.9900 792.0000 1.0000
33.0000 830.0000 1.0000
33.0100 816.0000 1.0000
33.0200 851.0000 1.0000
33.0300 816.0000 1.0000
33.0400 855.0000 1.0000
33.0500 826.0000 1.0000
33.0600 831.0000 1.0000
33.0700 826.0000 1.0000
33.0800 822.0000 1.0000
33.0900 873.0000 1.0000
33.1000 858.0000 1.0000
33.1100 787.0000 1.0000
33.1200 804.0000 1.0000
33.1300 834.0000 1.0000
33.1400 760.0000 1.0000
33.1500 821.0000 1.0000
33.1600 839.0000 1.0000
33.1700 822.0000 1.0000
33.1800 777.0000 1.0000
33.1900 818.0000 1.0000
33.2000 796.0000 1.0000
33.2100 853.0000 1.0000
33.2200 819.0000 1.0000
33.2300 793.0000 1.0000
33.2400 756.0000 1.0000
33.2500 810.0000 1.0000
33.2600 821.0000 1.0000
33.2700 786.0000 1.0000
33.2800 817.0000 1.0000
33.2900 838.0000 1.0000
33.3000 823.0000 1.0000
33.3100 814.0000 1.0000
33.3200 777.0000 1.0000
33.3300 762.0000 1.0000
33.3400 812.0000 1.0000
33.3500 895.0000 1.0000
33.3600 886.0000 1.0000
33.3700 865.0000 1.0000
33.3800 864.0000 1.0000
33.3900 852.0000 1.0000
33.4000 906.0000 1.0000
33.4100 920.0000 1.0000
33.4200 920.0000 1.0000
33.4300 969.0000 1.0000
33.4400 990.0000 1.0000
33.4500 1024.0000 1.0000
33.4600 1050.0000 1.0000
33.4700 1092.0000 1.0000
33.4800 1129.0000 1.0000
33.4900 1148.0000 1.0000
33.5000 1182.0000 1.0000
33.5100 1212.0000 1.0000
33.5200 1325.0000 1.0000
33.5300 1339.0000 1.0000
33.5400 1420.0000 1.0000
33.5500 1459.0000 1.0000
33.5600 1527.0000 1.0000
33.5700 1568.0000 1.0000
33.5800 1675.0000 1.0000
33.5900 1697.0000 1.0000
33.6000 1707.0000 1.0000
33.6100 1731.0000 1.0000
33.6200 1665.0000 1.0000
33.6300 1691.0000 1.0000
33.6400 1733.0000 1.0000
33.6500 1670.0000 1.0000
33.6600 1681.0000 1.0000
33.6700 1617.0000 1.0000
33.6800 1645.0000 1.0000
33.6900 1623.0000 1.0000
33.7000 1545.0000 1.0000
33.7100 1436.0000 1.0000
33.7200 1380.0000 1.0000
33.7300 1366.0000 1.0000
33.7400 1296.0000 1.0000
33.7500 1265.0000 1.0000
33.7600 1262.0000 1.0000
33.7700 1172.0000 1.0000
33.7800 1131.0000 1.0000
33.7900 1128.0000 1.0000
33.8000 1031.0000 1.0000
33.8100 991.0000 1.0000
33.8200 974.0000 1.0000
33.8300 1012.0000 1.0000
33.8400 955.0000 1.0000
33.8500 909.0000 1.0000
33.8600 920.0000 1.0000
33.8700 913.0000 1.0000
33.8800 862.0000 1.0000
33.8900 825.0000 1.0000
33.9000 849.0000 1.0000
33.9100 888.0000 1.0000
33.9200 838.0000 1.0000
33.9300 821.0000 1.0000
33.9400 781.0000 1.0000
33.9500 820.0000 1.0000
33.9600 778.0000 1.0000
33.9700 788.0000 1.0000
33.9800 769.0000 1.0000
33.9900 770.0000 1.0000
34.0000 755.0000 1.0000
34.0100 779.0000 1.0000
34.0200 712.0000 1.0000
34.0300 713.0000 1.0000
34.0400 721.0000 1.0000
34.0500 716.0000 1.0000
34.0600 738.0000 1.0000
34.0700 689.0000 1.0000
34.0800 694.0000 1.0000
34.0900 714.0000 1.0000
34.1000 755.0000 1.0000
34.1100 700.0000 1.0000
34.1200 681.0000 1.0000
34.1300 725.0000 1.0000
34.1400 700.0000 1.0000
34.1500 659.0000 1.0000
34.1600 698.0000 1.0000
34.1700 691.0000 1.0000
34.1800 648.0000 1.0000
34.1900 685.0000 1.0000
34.2000 661.0000 1.0000
34.2100 682.0000 1.0000
34.2200 703.0000 1.0000
34.2300 660.0000 1.0000
34.2400 677.0000 1.0000
34.2500 697.0000 1.0000
34.2600 677.0000 1.0000
34.2700 667.0000 1.0000
34.2800 665.0000 1.0000
34.2900 696.0000 1.0000
34.3000 697.0000 1.0000
34.3100 638.0000 1.0000
34.3200 695.0000 1.0000
34.3300 684.0000 1.0000
34.3400 690.0000 1.0000
34.3500 670.0000 1.0000
34.3600 650.0000 1.0000
34.3700 649.0000 1.0000
34.3800 666.0000 1.0000
34.3900 630.0000 1.0000
34.4000 604.0000 1.0000
34.4100 649.0000 1.0000
34.4200 671.0000 1.0000
34.4300 686.0000 1.0000
34.4400 689.0000 1.0000
34.4500 675.0000 1.0000
34.4600 641.0000 1.0000
34.4700 662.0000 1.0000
34.4800 656.0000 1.0000
34.4900 653.0000 1.0000
34.5000 620.0000 1.0000
34.5100 672.0000 1.0000
34.5200 690.0000 1.0000
34.5300 607.0000 1.0000
34.5400 639.0000 1.0000
34.5500 648.0000 1.0000
34.5600 640.0000 1.0000
34.5700 642.0000 1.0000
34.5800 663.0000 1.0000
34.5900 640.0000 1.0000
34.6000 612.0000 1.0000
34.6100 671.0000 1.0000
34.6200 677.0000 1.0000
34.6300 646.0000 1.0000
34.6400 620.0000 1.0000
34.6500 658.0000 1.0000
34.6600 637.0000 1.0000
34.6700 639.0000 1.0000
34.6800 645.0000 1.0000
34.6900 616.0000 1.0000
34.7000 661.0000 1.0000
34.7100 633.0000 1.0000
34.7200 631.0000 1.0000
34.7300 631.0000 1.0000
34.7400 658.0000 1.0000
34.7500 636.0000 1.0000
34.7600 637.0000 1.0000
34.7700 638.0000 1.0000
34.7800 623.0000 1.0000
34.7900 619.0000 1.0000
34.8000 655.0000 1.0000
34.8100 623.0000 1.0000
34.8200 621.0000 1.0000
34.8300 637.0000 1.0000
34.8400 628.0000 1.0000
34.8500 604.0000 1.0000
34.8600 624.0000 1.0000
34.8700 664.0000 1.0000
34.8800 641.0000 1.0000
34.8900 622.0000 1.0000
34.9000 640.0000 1.0000
34.9100 645.0000 1.0000
34.9200 637.0000 1.0000
34.9300 618.0000 1.0000
34.9400 607.0000 1.0000
34.9500 579.0000 1.0000
34.9600 615.0000 1.0000
34.9700 643.0000 1.0000
34.9800 628.0000 1.0000
34.9900 638.0000 1.0000
35.0000 619.0000 1.0000
35.0100 637.0000 1.0000
35.0200 621.0000 1.0000
35.0300 626.0000 1.0000
35.0400 590.0000 1.0000
35.0500 625.0000 1.0000
35.0600 631.0000 1.0000
35.0700 622.0000 1.0000
35.0800 661.0000 1.0000
35.0900 616.0000 1.0000
35.1000 657.0000 1.0000
35.1100 611.0000 1.0000
35.1200 629.0000 1.0000
35.1300 613.0000 1.0000
35.1400 611.0000 1.0000
35.1500 606.0000 1.0000
35.1600 621.0000 1.0000
35.1700 622.0000 1.0000
35.1800 630.0000 1.0000
35.1900 631.0000 1.0000
35.2000 647.0000 1.0000
35.2100 610.0000 1.0000
35.2200 623.0000 1.0000
35.2300 630.0000 1.0000
35.2400 681.0000 1.0000
35.2500 678.0000 1.0000
35.2600 668.0000 1.0000
35.2700 670.0000 1.0000
35.2800 648.0000 1.0000
35.2900 701.0000 1.0000
35.3000 700.0000 1.0000
35.3100 666.0000 1.0000
35.3200 691.0000 1.0000
35.3300 708.0000 1.0000
35.3400 709.0000 1.0000
35.3500 728.0000 1.0000
35.3600 716.0000 1.0000
35.3700 726.0000 1.0000
35.3800 801.0000 1.0000
35.3900 769.0000 1.0000
35.4000 769.0000 1.0000
35.4100 834.0000 1.0000
35.4200 839.0000 1.0000
35.4300 908.0000 1.0000
35.4400 932.0000 1.0000
35.4500 978.0000 1.0000
35.4600 1029.0000 1.0000
35.4700 1076.0000 1.0000
35.4800 1099.0000 1.0000
35.4900 1155.0000 1.0000
35.5000 1170.0000 1.0000
35.5100 1266.0000 1.0000
35.5200 1266.0000 1.0000
35.5300 1244.0000 1.0000
35.5400 1217.0000 1.0000
35.5500 1245.0000 1.0000
35.5600 1238.0000 1.0000
35.5700 1177.0000 1.0000
35.5800 1174.0000 1.0000
35.5900 1131.0000 1.0000
35.6000 1102.0000 1.0000
35.6100 1124.0000 1.0000
35.6200 1069.0000 1.0000
35.6300 984.0000 1.0000
35.6400 1010.0000 1.0000
35.6500 912.0000 1.0000
35.6600 899.0000 1.0000
35.6700 903.0000 1.0000
35.6800 848.0000 1.0000
35.6900 834.0000 1.0000
35.7000 820.0000 1.0000
35.7100 730.0000 1.0000
35.7200 749.0000 1.0000
35.7300 678.0000 1.0000
35.7400 679.0000 1.0000
35.7500 639.0000 1.0000
35.7600 679.0000 1.0000
35.7700 661.0000 1.0000
35.7800 619.0000 1.0000
35.7900 641.0000 1.0000
35.8000 609.0000 1.0000
35.8100 615.0000 1.0000
35.8200 599.0000 1.0000
35.8300 614.0000 1.0000
35.8400 604.0000 1.0000
35.8500 610.0000 1.0000
35.8600 627.0000 1.0000
35.8700 610.0000 1.0000
35.8800 628.0000 1.0000
35.8900 616.0000 1.0000
35.9000 611.0000 1.0000
35.9100 588.0000 1.0000
35.9200 574.0000 1.0000
35.9300 574.0000 1.0000
35.9400 598.0000 1.0000
35.9500 563.0000 1.0000
35.9600 585.0000 1.0000
35.9700 579.0000 1.0000
35.9800 593.0000 1.0000
35.9900 601.0000 1.0000
36.0000 587.0000 1.0000
36.0100 579.0000 1.0000
36.0200 573.0000 1.0000
36.0300 542.0000 1.0000
36.0400 583.0000 1.0000
36.0500 579.0000 1.0000
36.0600 577.0000 1.0000
36.0700 562.0000 1.0000
36.0800 557.0000 1.0000
36.0900 552.0000 1.0000
36.1000 546.0000 1.0000
36.1100 571.0000 1.0000
36.1200 616.0000 1.0000
36.1300 587.0000 1.0000
36.1400 584.0000 1.0000
36.1500 580.0000 1.0000
36.1600 562.0000 1.0000
36.1700 579.0000 1.0000
36.1800 615.0000 1.0000
36.1900 596.0000 1.0000
36.2000 540.0000 1.0000
36.2100 582.0000 1.0000
36.2200 581.0000 1.0000
36.2300 546.0000 1.0000
36.2400 583.0000 1.0000
36.2500 574.0000 1.0000
36.2600 544.0000 1.0000
36.2700 569.0000 1.0000
36.2800 564.0000 1.0000
36.2900 575.0000 1.0000
36.3000 624.0000 1.0000
36.3100 633.0000 1.0000
36.3200 573.0000 1.0000
36.3300 569.0000 1.0000
36.3400 610.0000 1.0000
36.3500 616.0000 1.0000
36.3600 593.0000 1.0000
36.3700 601.0000 1.0000
36.3800 618.0000 1.0000
36.3900 552.0000 1.0000
36.4000 589.0000 1.0000
36.4100 598.0000 1.0000
36.4200 589.0000 1.0000
36.4300 600.0000 1.0000
36.4400 603.0000 1.0000
36.4500 567.0000 1.0000
36.4600 565.0000 1.0000
36.4700 567.0000 1.0000
36.4800 594.0000 1.0000
36.4900 585.0000 1.0000
36.5000 568.0000 1.0000
36.5100 583.0000 1.0000
36.5200 626.0000 1.0000
36.5300 571.0000 1.0000
36.5400 579.0000 1.0000
36.5500 569.0000 1.0000
36.5600 569.0000 1.0000
36.5700 552.0000 1.0000
36.5800 585.0000 1.0000
36.5900 594.0000 1.0000
36.6000 572.0000 1.0000
36.6100 609.0000 1.0000
36.6200 571.0000 1.0000
36.6300 608.0000 1.0000
36.6400 601.0000 1.0000
36.6500 556.0000 1.0000
36.6600 591.0000 1.0000
36.6700 575.0000 1.0000
36.6800 585.0000 1.0000
36.6900 576.0000 1.0000
36.7000 557.0000 1.0000
36.7100 565.0000 1.0000
36.7200 608.0000 1.0000
36.7300 598.0000 1.0000
36.7400 582.0000 1.0000
36.7500 588.0000 1.0000
36.7600 579.0000 1.0000
36.7700 585.0000 1.0000
36.7800 562.0000 1.0000
36.7900 622.0000 1.0000
36.8000 584.0000 1.0000
36.8100 551.0000 1.0000
36.8200 552.0000 1.0000
36.8300 583.0000 1.0000
36.8400 569.0000 1.0000
36.8500 533.0000 1.0000
36.8600 576.0000 1.0000
36.8700 555.0000 1.0000
36.8800 569.0000 1.0000
36.8900 577.0000 1.0000
36.9000 596.0000 1.0000
36.9100 588.0000 1.0000
36.9200 566.0000 1.0000
36.9300 578.0000 1.0000
36.9400 564.0000 1.0000
36.9500 543.0000 1.0000
36.9600 590.0000 1.0000
36.9700 607.0000 1.0000
36.9800 570.0000 1.0000
36.9900 583.0000 1.0000
37.0000 585.0000 1.0000
37.0100 592.0000 1.0000
37.0200 588.0000 1.0000
37.0300 583.0000 1.0000
37.0400 573.0000 1.0000
37.0500 601.0000 1.0000
37.0600 578.0000 1.0000
37.0700 620.0000 1.0000
37.0800 568.0000 1.0000
37.0900 610.0000 1.0000
37.1000 589.0000 1.0000
37.1100 587.0000 1.0000
37.1200 597.0000 1.0000
37.1300 592.0000 1.0000
37.1400 571.0000 1.0000
37.1500 612.0000 1.0000
37.1600 602.0000 1.0000
37.1700 620.0000 1.0000
37.1800 606.0000 1.0000
37.1900 588.0000 1.0000
37.2000 582.0000 1.0000
37.2100 593.0000 1.0000
37.2200 611.0000 1.0000
37.2300 590.0000 1.0000
37.2400 643.0000 1.0000
37.2500 647.0000 1.0000
37.2600 642.0000 1.0000
37.2700 696.0000 1.0000
37.2800 685.0000 1.0000
37.2900 684.0000 1.0000
37.3000 680.0000 1.0000
37.3100 696.0000 1.0000
37.3200 736.0000 1.0000
37.3300 726.0000 1.0000
37.3400 777.0000 1.0000
37.3500 747.0000 1.0000
37.3600 755.0000 1.0000
37.3700 776.0000 1.0000
37.3800 785.0000 1.0000
37.3900 763.0000 1.0000
37.4000 817.0000 1.0000
37.4100 915.0000 1.0000
37.4200 878.0000 1.0000
37.4300 957.0000 1.0000
37.4400 966.0000 1.0000
37.4500 1028.0000 1.0000
37.4600 1077.0000 1.0000
37.4700 1119.0000 1.0000
37.4800 1166.0000 1.0000
37.4900 1183.0000 1.0000
37.5000 1316.0000 1.0000
37.5100 1388.0000 1.0000
37.5200 1416.0000 1.0000
37.5300 1576.0000 1.0000
37.5400 1667.0000 1.0000
37.5500 1760.0000 1.0000
37.5600 1834.0000 1.0000
37.5700 1927.0000 1.0000
37.5800 2158.0000 1.0000
37.5900 2173.0000 1.0000
37.6000 2311.0000 1.0000
37.6100 2490.0000 1.0000
37.6200 2556.0000 1.0000
37.6300 2730.0000 1.0000
37.6400 2778.0000 1.0000
37.6500 2972.0000 1.0000
37.6600 2871.0000 1.0000
37.6700 3014.0000 1.0000
37.6800 2984.0000 1.0000
37.6900 2981.0000 1.0000
37.7000 2947.0000 1.0000
37.7100 2897.0000 1.0000
37.7200 2884.0000 1.0000
37.7300 2801.0000 1.0000
37.7400 2756.0000 1.0000
37.7500 2654.0000 1.0000
37.7600 2581.0000 1.0000
37.7700 2458.0000 1.0000
37.7800 2416.0000 1.0000
37.7900 2222.0000 1.0000
37.8000 2162.0000 1.0000
37.8100 2043.0000 1.0000
37.8200 1915.0000 1.0000
37.8300 1754.0000 1.0000
37.8400 1600.0000 1.0000
37.8500 1607.0000 1.0000
37.8600 1490.0000 1.0000
37.8700 1407.0000 1.0000
37.8800 1320.0000 1.0000
37.8900 1250.0000 1.0000
37.9000 1212.0000 1.0000
37.9100 1153.0000 1.0000
37.9200 1030.0000 1.0000
37.9300 1028.0000 1.0000
37.9400 971.0000 1.0000
37.9500 951.0000 1.0000
37.9600 869.0000 1.0000
37.9700 876.0000 1.0000
37.9800 841.0000 1.0000
37.9900 795.0000 1.0000
38.0000 719.0000 1.0000
38.0100 760.0000 1.0000
38.0200 783.0000 1.0000
38.0300 739.0000 1.0000
38.0400 703.0000 1.0000
38.0500 696.0000 1.0000
38.0600 650.0000 1.0000
38.0700 603.0000 1.0000
38.0800 631.0000 1.0000
38.0900 616.0000 1.0000
38.1000 657.0000 1.0000
38.1100 631.0000 1.0000
38.1200 598.0000 1.0000
38.1300 609.0000 1.0000
38.1400 591.0000 1.0000
38.1500 633.0000 1.0000
38.1600 613.0000 1.0000
38.1700 597.0000 1.0000
38.1800 580.0000 1.0000
38.1900 547.0000 1.0000
38.2000 592.0000 1.0000
38.2100 556.0000 1.0000
38.2200 605.0000 1.0000
38.2300 578.0000 1.0000
38.2400 594.0000 1.0000
38.2500 545.0000 1.0000
38.2600 558.0000 1.0000
38.2700 556.0000 1.0000
38.2800 519.0000 1.0000
38.2900 565.0000 1.0000
38.3000 551.0000 1.0000
38.3100 527.0000 1.0000
38.3200 529.0000 1.0000
38.3300 544.0000 1.0000
38.3400 531.0000 1.0000
38.3500 535.0000 1.0000
38.3600 525.0000 1.0000
38.3700 526.0000 1.0000
38.3800 544.0000 1.0000
38.3900 524.0000 1.0000
38.4000 525.0000 1.0000
38.4100 540.0000 1.0000
38.4200 554.0000 1.0000
38.4300 548.0000 1.0000
38.4400 525.0000 1.0000
38.4500 531.0000 1.0000
38.4600 554.0000 1.0000
38.4700 544.0000 1.0000
38.4800 557.0000 1.0000
38.4900 543.0000 1.0000
38.5000 549.0000 1.0000
38.5100 530.0000 1.0000
38.5200 509.0000 1.0000
38.5300 482.0000 1.0000
38.5400 495.0000 1.0000
38.5500 543.0000 1.0000
38.5600 535.0000 1.0000
38.5700 532.0000 1.0000
38.5800 529.0000 1.0000
38.5900 518.0000 1.0000
38.6000 521.0000 1.0000
38.6100 499.0000 1.0000
38.6200 544.0000 1.0000
38.6300 527.0000 1.0000
38.6400 517.0000 1.0000
38.6500 548.0000 1.0000
38.6600 538.0000 1.0000
38.6700 573.0000 1.0000
38.6800 547.0000 1.0000
38.6900 552.0000 1.0000
38.7000 516.0000 1.0000
38.7100 522.0000 1.0000
38.7200 562.0000 1.0000
38.7300 515.0000 1.0000
38.7400 550.0000 1.0000
38.7500 542.0000 1.0000
38.7600 553.0000 1.0000
38.7700 540.0000 1.0000
38.7800 535.0000 1.0000
38.7900 503.0000 1.0000
38.8000 552.0000 1.0000
38.8100 515.0000 1.0000
38.8200 510.0000 1.0000
38.8300 543.0000 1.0000
38.8400 502.0000 1.0000
38.8500 556.0000 1.0000
38.8600 511.0000 1.0000
38.8700 502.0000 1.0000
38.8800 507.0000 1.0000
38.8900 485.0000 1.0000
38.9000 539.0000 1.0000
38.9100 510.0000 1.0000
38.9200 526.0000 1.0000
38.9300 522.0000 1.0000
38.9400 514.0000 1.0000
38.9500 503.0000 1.0000
38.9600 509.0000 1.0000
38.9700 527.0000 1.0000
38.9800 544.0000 1.0000
38.9900 503.0000 1.0000
39.0000 536.0000 1.0000
39.0100 530.0000 1.0000
39.0200 493.0000 1.0000
39.0300 508.0000 1.0000
39.0400 519.0000 1.0000
39.0500 538.0000 1.0000
39.0600 530.0000 1.0000
39.0700 496.0000 1.0000
39.0800 485.0000 1.0000
39.0900 499.0000 1.0000
39.1000 535.0000 1.0000
39.1100 494.0000 1.0000
39.1200 515.0000 1.0000
39.1300 510.0000 1.0000
39.1400 508.0000 1.0000
39.1500 483.0000 1.0000
39.1600 505.0000 1.0000
39.1700 536.0000 1.0000
39.1800 501.0000 1.0000
39.1900 497.0000 1.0000
39.2000 462.0000 1.0000
39.2100 491.0000 1.0000
39.2200 484.0000 1.0000
39.2300 475.0000 1.0000
39.2400 511.0000 1.0000
39.2500 538.0000 1.0000
39.2600 493.0000 1.0000
39.2700 486.0000 1.0000
39.2800 444.0000 1.0000
39.2900 520.0000 1.0000
39.3000 507.0000 1.0000
39.3100 547.0000 1.0000
39.3200 491.0000 1.0000
39.3300 468.0000 1.0000
39.3400 527.0000 1.0000
39.3500 480.0000 1.0000
39.3600 522.0000 1.0000
39.3700 495.0000 1.0000
39.3800 488.0000 1.0000
39.3900 470.0000 1.0000
39.4000 542.0000 1.0000
39.4100 468.0000 1.0000
39.4200 482.0000 1.0000
39.4300 473.0000 1.0000
39.4400 471.0000 1.0000
39.4500 463.0000 1.0000
39.4600 493.0000 1.0000
39.4700 473.0000 1.0000
39.4800 500.0000 1.0000
39.4900 535.0000 1.0000
39.5000 511.0000 1.0000
39.5100 491.0000 1.0000
39.5200 479.0000 1.0000
39.5300 480.0000 1.0000
39.5400 483.0000 1.0000
39.5500 481.0000 1.0000
39.5600 476.0000 1.0000
39.5700 472.0000 1.0000
39.5800 483.0000 1.0000
39.5900 525.0000 1.0000
39.6000 520.0000 1.0000
39.6100 495.0000 1.0000
39.6200 511.0000 1.0000
39.6300 496.0000 1.0000
39.6400 484.0000 1.0000
39.6500 483.0000 1.0000
39.6600 507.0000 1.0000
39.6700 485.0000 1.0000
39.6800 507.0000 1.0000
39.6900 509.0000 1.0000
39.7000 525.0000 1.0000
39.7100 509.0000 1.0000
39.7200 464.0000 1.0000
39.7300 476.0000 1.0000
39.7400 480.0000 1.0000
39.7500 523.0000 1.0000
39.7600 516.0000 1.0000
39.7700 463.0000 1.0000
39.7800 448.0000 1.0000
39.7900 505.0000 1.0000
39.8000 489.0000 1.0000
39.8100 483.0000 1.0000
39.8200 476.0000 1.0000
39.8300 497.0000 1.0000
39.8400 511.0000 1.0000
39.8500 486.0000 1.0000
39.8600 500.0000 1.0000
39.8700 504.0000 1.0000
39.8800 496.0000 1.0000
39.8900 489.0000 1.0000
39.9000 453.0000 1.0000
39.9100 446.0000 1.0000
39.9200 464.0000 1.0000
39.9300 487.0000 1.0000
39.9400 479.0000 1.0000
39.9500 503.0000 1.0000
39.9600 470.0000 1.0000
39.9700 500.0000 1.0000
39.9800 499.0000 1.0000
39.9900 458.0000 1.0000
40.0000 458.0000 1.0000
40.0100 519.0000 1.0000
40.0200 500.0000 1.0000
40.0300 463.0000 1.0000
40.0400 494.0000 1.0000
40.0500 478.0000 1.0000
40.0600 477.0000 1.0000
40.0700 471.0000 1.0000
40.0800 497.0000 1.0000
40.0900 478.0000 1.0000
40.1000 516.0000 1.0000
40.1100 477.0000 1.0000
40.1200 474.0000 1.0000
40.1300 490.0000 1.0000
40.1400 475.0000 1.0000
40.1500 478.0000 1.0000
40.1600 433.0000 1.0000
40.1700 452.0000 1.0000
40.1800 502.0000 1.0000
40.1900 488.0000 1.0000
40.2000 462.0000 1.0000
40.2100 496.0000 1.0000
40.2200 483.0000 1.0000
40.2300 536.0000 1.0000
40.2400 475.0000 1.0000
40.2500 454.0000 1.0000
40.2600 442.0000 1.0000
40.2700 475.0000 1.0000
40.2800 516.0000 1.0000
40.2900 476.0000 1.0000
40.3000 490.0000 1.0000
40.3100 474.0000 1.0000
40.3200 486.0000 1.0000
40.3300 473.0000 1.0000
40.3400 458.0000 1.0000
40.3500 486.0000 1.0000
40.3600 481.0000 1.0000
40.3700 473.0000 1.0000
40.3800 487.0000 1.0000
40.3900 478.0000 1.0000
40.4000 488.0000 1.0000
40.4100 460.0000 1.0000
40.4200 452.0000 1.0000
40.4300 469.0000 1.0000
40.4400 458.0000 1.0000
40.4500 484.0000 1.0000
40.4600 484.0000 1.0000
40.4700 487.0000 1.0000
40.4800 497.0000 1.0000
40.4900 497.0000 1.0000
40.5000 463.0000 1.0000
40.5100 474.0000 1.0000
40.5200 482.0000 1.0000
40.5300 457.0000 1.0000
40.5400 451.0000 1.0000
40.5500 476.0000 1.0000
40.5600 494.0000 1.0000
40.5700 505.0000 1.0000
40.5800 505.0000 1.0000
40.5900 489.0000 1.0000
40.6000 438.0000 1.0000
40.6100 464.0000 1.0000
40.6200 469.0000 1.0000
40.6300 534.0000 1.0000
40.6400 483.0000 1.0000
40.6500 504.0000 1.0000
40.6600 468.0000 1.0000
40.6700 501.0000 1.0000
40.6800 493.0000 1.0000
40.6900 489.0000 1.0000
40.7000 504.0000 1.0000
40.7100 486.0000 1.0000
40.7200 468.0000 1.0000
40.7300 477.0000 1.0000
40.7400 468.0000 1.0000
40.7500 490.0000 1.0000
40.7600 489.0000 1.0000
40.7700 512.0000 1.0000
40.7800 510.0000 1.0000
40.7900 481.0000 1.0000
40.8000 490.0000 1.0000
40.8100 498.0000 1.0000
40.8200 467.0000 1.0000
40.8300 491.0000 1.0000
40.8400 449.0000 1.0000
40.8500 497.0000 1.0000
40.8600 467.0000 1.0000
40.8700 496.0000 1.0000
40.8800 483.0000 1.0000
40.8900 477.0000 1.0000
40.9000 477.0000 1.0000
40.9100 501.0000 1.0000
40.9200 489.0000 1.0000
40.9300 508.0000 1.0000
40.9400 494.0000 1.0000
40.9500 490.0000 1.0000
40.9600 486.0000 1.0000
40.9700 493.0000 1.0000
40.9800 454.0000 1.0000
40.9900 473.0000 1.0000
41.0000 470.0000 1.0000
41.0100 466.0000 1.0000
41.0200 471.0000 1.0000
41.0300 471.0000 1.0000
41.0400 462.0000 1.0000
41.0500 482.0000 1.0000
41.0600 477.0000 1.0000
41.0700 460.0000 1.0000
41.0800 447.0000 1.0000
41.0900 501.0000 1.0000
41.1000 464.0000 1.0000
41.1100 431.0000 1.0000
41.1200 467.0000 1.0000
41.1300 445.0000 1.0000
41.1400 453.0000 1.0000
41.1500 453.0000 1.0000
41.1600 458.0000 1.0000
41.1700 481.0000 1.0000
41.1800 482.0000 1.0000
41.1900 485.0000 1.0000
41.2000 464.0000 1.0000
41.2100 484.0000 1.0000
41.2200 462.0000 1.0000
41.2300 487.0000 1.0000
41.2400 495.0000 1.0000
41.2500 474.0000 1.0000
41.2600 462.0000 1.0000
41.2700 428.0000 1.0000
41.2800 467.0000 1.0000
41.2900 481.0000 1.0000
41.3000 474.0000 1.0000
41.3100 459.0000 1.0000
41.3200 464.0000 1.0000
41.3300 464.0000 1.0000
41.3400 521.0000 1.0000
41.3500 467.0000 1.0000
41.3600 448.0000 1.0000
41.3700 439.0000 1.0000
41.3800 461.0000 1.0000
41.3900 454.0000 1.0000
41.4000 479.0000 1.0000
41.4100 445.0000 1.0000
41.4200 475.0000 1.0000
41.4300 461.0000 1.0000
41.4400 497.0000 1.0000
41.4500 458.0000 1.0000
41.4600 472.0000 1.0000
41.4700 534.0000 1.0000
41.4800 479.0000 1.0000
41.4900 462.0000 1.0000
41.5000 457.0000 1.0000
41.5100 492.0000 1.0000
41.5200 436.0000 1.0000
41.5300 428.0000 1.0000
41.5400 440.0000 1.0000
41.5500 482.0000 1.0000
41.5600 502.0000 1.0000
41.5700 476.0000 1.0000
41.5800 504.0000 1.0000
41.5900 437.0000 1.0000
41.6000 462.0000 1.0000
41.6100 483.0000 1.0000
41.6200 471.0000 1.0000
41.6300 484.0000 1.0000
41.6400 475.0000 1.0000
41.6500 462.0000 1.0000
41.6600 467.0000 1.0000
41.6700 432.0000 1.0000
41.6800 468.0000 1.0000
41.6900 456.0000 1.0000
41.7000 455.0000 1.0000
41.7100 448.0000 1.0000
41.7200 451.0000 1.0000
41.7300 453.0000 1.0000
41.7400 426.0000 1.0000
41.7500 461.0000 1.0000
41.7600 438.0000 1.0000
41.7700 484.0000 1.0000
41.7800 467.0000 1.0000
41.7900 467.0000 1.0000
41.8000 461.0000 1.0000
41.8100 475.0000 1.0000
41.8200 463.0000 1.0000
41.8300 494.0000 1.0000
41.8400 475.0000 1.0000
41.8500 442.0000 1.0000
41.8600 465.0000 1.0000
41.8700 487.0000 1.0000
41.8800 457.0000 1.0000
41.8900 466.0000 1.0000
41.9000 467.0000 1.0000
41.9100 457.0000 1.0000
41.9200 470.0000 1.0000
41.9300 497.0000 1.0000
41.9400 457.0000 1.0000
41.9500 450.0000 1.0000
41.9600 463.0000 1.0000
41.9700 496.0000 1.0000
41.9800 468.0000 1.0000
41.9900 470.0000 1.0000
42.0000 441.0000 1.0000
42.0100 484.0000 1.0000
42.0200 479.0000 1.0000
42.0300 454.0000 1.0000
42.0400 440.0000 1.0000
42.0500 440.0000 1.0000
42.0600 451.0000 1.0000
42.0700 447.0000 1.0000
42.0800 453.0000 1.0000
42.0900 475.0000 1.0000
42.1000 475.0000 1.0000
42.1100 475.0000 1.0000
42.1200 466.0000 1.0000
42.1300 466.0000 1.0000
42.1400 463.0000 1.0000
42.1500 470.0000 1.0000
42.1600 477.0000 1.0000
42.1700 492.0000 1.0000
42.1800 468.0000 1.0000
42.1900 480.0000 1.0000
42.2000 474.0000 1.0000
42.2100 478.0000 1.0000
42.2200 516.0000 1.0000
42.2300 466.0000 1.0000
42.2400 475.0000 1.0000
42.2500 471.0000 1.0000
42.2600 472.0000 1.0000
42.2700 509.0000 1.0000
42.2800 482.0000 1.0000
42.2900 479.0000 1.0000
42.3000 472.0000 1.0000
42.3100 503.0000 1.0000
42.3200 507.0000 1.0000
42.3300 524.0000 1.0000
42.3400 476.0000 1.0000
42.3500 485.0000 1.0000
42.3600 512.0000 1.0000
42.3700 543.0000 1.0000
42.3800 504.0000 1.0000
42.3900 473.0000 1.0000
42.4000 488.0000 1.0000
42.4100 475.0000 1.0000
42.4200 494.0000 1.0000
42.4300 520.0000 1.0000
42.4400 483.0000 1.0000
42.4500 464.0000 1.0000
42.4600 479.0000 1.0000
42.4700 480.0000 1.0000
42.4800 466.0000 1.0000
42.4900 450.0000 1.0000
42.5000 504.0000 1.0000
42.5100 500.0000 1.0000
42.5200 482.0000 1.0000
42.5300 485.0000 1.0000
42.5400 483.0000 1.0000
42.5500 513.0000 1.0000
42.5600 489.0000 1.0000
42.5700 448.0000 1.0000
42.5800 487.0000 1.0000
42.5900 440.0000 1.0000
42.6000 479.0000 1.0000
42.6100 423.0000 1.0000
42.6200 483.0000 1.0000
42.6300 474.0000 1.0000
42.6400 495.0000 1.0000
42.6500 492.0000 1.0000
42.6600 454.0000 1.0000
42.6700 462.0000 1.0000
42.6800 465.0000 1.0000
42.6900 436.0000 1.0000
42.7000 446.0000 1.0000
42.7100 475.0000 1.0000
42.7200 453.0000 1.0000
42.7300 448.0000 1.0000
42.7400 441.0000 1.0000
42.7500 468.0000 1.0000
42.7600 437.0000 1.0000
42.7700 486.0000 1.0000
42.7800 479.0000 1.0000
42.7900 462.0000 1.0000
42.8000 461.0000 1.0000
42.8100 469.0000 1.0000
42.8200 469.0000 1.0000
42.8300 433.0000 1.0000
42.8400 428.0000 1.0000
42.8500 470.0000 1.0000
42.8600 459.0000 1.0000
42.8700 465.0000 1.0000
42.8800 459.0000 1.0000
42.8900 468.0000 1.0000
42.9000 453.0000 1.0000
42.9100 440.0000 1.0000
42.9200 432.0000 1.0000
42.9300 475.0000 1.0000
42.9400 446.0000 1.0000
42.9500 430.0000 1.0000
42.9600 430.0000 1.0000
42.9700 450.0000 1.0000
42.9800 410.0000 1.0000
42.9900 473.0000 1.0000
43.0000 445.0000 1.0000
43.0100 456.0000 1.0000
43.0200 442.0000 1.0000
43.0300 471.0000 1.0000
43.0400 433.0000 1.0000
43.0500 456.0000 1.0000
43.0600 403.0000 1.0000
43.0700 448.0000 1.0000
43.0800 491.0000 1.0000
43.0900 461.0000 1.0000
43.1000 441.0000 1.0000
43.1100 455.0000 1.0000
43.1200 427.0000 1.0000
43.1300 464.0000 1.0000
43.1400 463.0000 1.0000
43.1500 454.0000 1.0000
43.1600 455.0000 1.0000
43.1700 460.0000 1.0000
43.1800 462.0000 1.0000
43.1900 473.0000 1.0000
43.2000 461.0000 1.0000
43.2100 444.0000 1.0000
43.2200 515.0000 1.0000
43.2300 434.0000 1.0000
43.2400 420.0000 1.0000
43.2500 426.0000 1.0000
43.2600 446.0000 1.0000
43.2700 485.0000 1.0000
43.2800 466.0000 1.0000
43.2900 442.0000 1.0000
43.3000 462.0000 1.0000
43.3100 452.0000 1.0000
43.3200 462.0000 1.0000
43.3300 458.0000 1.0000
43.3400 477.0000 1.0000
43.3500 463.0000 1.0000
43.3600 444.0000 1.0000
43.3700 441.0000 1.0000
43.3800 414.0000 1.0000
43.3900 445.0000 1.0000
43.4000 468.0000 1.0000
43.4100 452.0000 1.0000
43.4200 480.0000 1.0000
43.4300 472.0000 1.0000
43.4400 504.0000 1.0000
43.4500 440.0000 1.0000
43.4600 471.0000 1.0000
43.4700 468.0000 1.0000
43.4800 444.0000 1.0000
43.4900 417.0000 1.0000
43.5000 493.0000 1.0000
43.5100 434.0000 1.0000
43.5200 508.0000 1.0000
43.5300 473.0000 1.0000
43.5400 472.0000 1.0000
43.5500 437.0000 1.0000
43.5600 493.0000 1.0000
43.5700 462.0000 1.0000
43.5800 473.0000 1.0000
43.5900 456.0000 1.0000
43.6000 466.0000 1.0000
43.6100 461.0000 1.0000
43.6200 411.0000 1.0000
43.6300 446.0000 1.0000
43.6400 480.0000 1.0000
43.6500 472.0000 1.0000
43.6600 434.0000 1.0000
43.6700 477.0000 1.0000
43.6800 459.0000 1.0000
43.6900 450.0000 1.0000
43.7000 461.0000 1.0000
43.7100 437.0000 1.0000
43.7200 441.0000 1.0000
43.7300 445.0000 1.0000
43.7400 429.0000 1.0000
43.7500 466.0000 1.0000
43.7600 432.0000 1.0000
43.7700 457.0000 1.0000
43.7800 428.0000 1.0000
43.7900 432.0000 1.0000
43.8000 412.0000 1.0000
43.8100 439.0000 1.0000
43.8200 459.0000 1.0000
43.8300 446.0000 1.0000
43.8400 419.0000 1.0000
43.8500 427.0000 1.0000
43.8600 423.0000 1.0000
43.8700 395.0000 1.0000
43.8800 420.0000 1.0000
43.8900 452.0000 1.0000
43.9000 467.0000 1.0000
43.9100 463.0000 1.0000
43.9200 396.0000 1.0000
43.9300 401.0000 1.0000
43.9400 437.0000 1.0000
43.9500 408.0000 1.0000
43.9600 433.0000 1.0000
43.9700 434.0000 1.0000
43.9800 449.0000 1.0000
43.9900 424.0000 1.0000
44.0000 474.0000 1.0000
44.0100 439.0000 1.0000
44.0200 434.0000 1.0000
44.0300 429.0000 1.0000
44.0400 421.0000 1.0000
44.0500 451.0000 1.0000
44.0600 434.0000 1.0000
44.0700 421.0000 1.0000
44.0800 408.0000 1.0000
44.0900 436.0000 1.0000
44.1000 472.0000 1.0000
44.1100 464.0000 1.0000
44.1200 435.0000 1.0000
44.1300 447.0000 1.0000
44.1400 465.0000 1.0000
44.1500 427.0000 1.0000
44.1600 428.0000 1.0000
44.1700 457.0000 1.0000
44.1800 422.0000 1.0000
44.1900 427.0000 1.0000
44.2000 451.0000 1.0000
44.2100 426.0000 1.0000
44.2200 440.0000 1.0000
44.2300 416.0000 1.0000
44.2400 419.0000 1.0000
44.2500 427.0000 1.0000
44.2600 431.0000 1.0000
44.2700 451.0000 1.0000
44.2800 437.0000 1.0000
44.2900 472.0000 1.0000
44.3000 413.0000 1.0000
44.3100 405.0000 1.0000
44.3200 408.0000 1.0000
44.3300 434.0000 1.0000
44.3400 428.0000 1.0000
44.3500 442.0000 1.0000
44.3600 458.0000 1.0000
44.3700 437.0000 1.0000
44.3800 435.0000 1.0000
44.3900 429.0000 1.0000
44.4000 477.0000 1.0000
44.4100 478.0000 1.0000
44.4200 434.0000 1.0000
44.4300 424.0000 1.0000
44.4400 439.0000 1.0000
44.4500 422.0000 1.0000
44.4600 417.0000 1.0000
44.4700 463.0000 1.0000
44.4800 415.0000 1.0000
44.4900 437.0000 1.0000
44.5000 428.0000 1.0000
44.5100 424.0000 1.0000
44.5200 438.0000 1.0000
44.5300 416.0000 1.0000
44.5400 420.0000 1.0000
44.5500 442.0000 1.0000
44.5600 440.0000 1.0000
44.5700 437.0000 1.0000
44.5800 430.0000 1.0000
44.5900 443.0000 1.0000
44.6000 409.0000 1.0000
44.6100 421.0000 1.0000
44.6200 408.0000 1.0000
44.6300 421.0000 1.0000
44.6400 443.0000 1.0000
44.6500 430.0000 1.0000
44.6600 433.0000 1.0000
44.6700 434.0000 1.0000
44.6800 413.0000 1.0000
44.6900 443.0000 1.0000
44.7000 429.0000 1.0000
44.7100 445.0000 1.0000
44.7200 424.0000 1.0000
44.7300 468.0000 1.0000
44.7400 433.0000 1.0000
44.7500 404.0000 1.0000
44.7600 408.0000 1.0000
44.7700 440.0000 1.0000
44.7800 452.0000 1.0000
44.7900 457.0000 1.0000
44.8000 456.0000 1.0000
44.8100 428.0000 1.0000
44.8200 464.0000 1.0000
44.8300 422.0000 1.0000
44.8400 438.0000 1.0000
44.8500 434.0000 1.0000
44.8600 466.0000 1.0000
44.8700 435.0000 1.0000
44.8800 454.0000 1.0000
44.8900 418.0000 1.0000
44.9000 450.0000 1.0000
44.9100 448.0000 1.0000
44.9200 418.0000 1.0000
44.9300 441.0000 1.0000
44.9400 427.0000 1.0000
44.9500 437.0000 1.0000
44.9600 451.0000 1.0000
44.9700 404.0000 1.0000
44.9800 447.0000 1.0000
44.9900 418.0000 1.0000
45.0000 424.0000 1.0000
45.0100 443.0000 1.0000
45.0200 428.0000 1.0000
45.0300 417.0000 1.0000
45.0400 444.0000 1.0000
45.0500 413.0000 1.0000
45.0600 439.0000 1.0000
45.0700 423.0000 1.0000
45.0800 410.0000 1.0000
45.0900 433.0000 1.0000
45.1000 444.0000 1.0000
45.1100 407.0000 1.0000
45.1200 420.0000 1.0000
45.1300 425.0000 1.0000
45.1400 443.0000 1.0000
45.1500 434.0000 1.0000
45.1600 443.0000 1.0000
45.1700 412.0000 1.0000
45.1800 413.0000 1.0000
45.1900 438.0000 1.0000
45.2000 441.0000 1.0000
45.2100 427.0000 1.0000
45.2200 382.0000 1.0000
45.2300 396.0000 1.0000
45.2400 446.0000 1.0000
45.2500 397.0000 1.0000
45.2600 432.0000 1.0000
45.2700 432.0000 1.0000
45.2800 397.0000 1.0000
45.2900 447.0000 1.0000
45.3000 432.0000 1.0000
45.3100 430.0000 1.0000
45.3200 437.0000 1.0000
45.3300 400.0000 1.0000
45.3400 397.0000 1.0000
45.3500 432.0000 1.0000
45.3600 432.0000 1.0000
45.3700 419.0000 1.0000
45.3800 419.0000 1.0000
45.3900 409.0000 1.0000
45.4000 413.0000 1.0000
45.4100 404.0000 1.0000
45.4200 415.0000 1.0000
45.4300 414.0000 1.0000
45.4400 456.0000 1.0000
45.4500 423.0000 1.0000
45.4600 409.0000 1.0000
45.4700 438.0000 1.0000
45.4800 409.0000 1.0000
45.4900 451.0000 1.0000
45.5000 412.0000 1.0000
45.5100 412.0000 1.0000
45.5200 422.0000 1.0000
45.5300 394.0000 1.0000
45.5400 409.0000 1.0000
45.5500 419.0000 1.0000
45.5600 423.0000 1.0000
45.5700 420.0000 1.0000
45.5800 424.0000 1.0000
45.5900 411.0000 1.0000
45.6000 436.0000 1.0000
45.6100 422.0000 1.0000
45.6200 423.0000 1.0000
45.6300 448.0000 1.0000
45.6400 415.0000 1.0000
45.6500 432.0000 1.0000
45.6600 380.0000 1.0000
45.6700 429.0000 1.0000
45.6800 418.0000 1.0000
45.6900 440.0000 1.0000
45.7000 434.0000 1.0000
45.7100 429.0000 1.0000
45.7200 387.0000 1.0000
45.7300 421.0000 1.0000
45.7400 430.0000 1.0000
45.7500 444.0000 1.0000
45.7600 404.0000 1.0000
45.7700 430.0000 1.0000
45.7800 469.0000 1.0000
45.7900 437.0000 1.0000
45.8000 442.0000 1.0000
45.8100 410.0000 1.0000
45.8200 420.0000 1.0000
45.8300 412.0000 1.0000
45.8400 417.0000 1.0000
45.8500 397.0000 1.0000
45.8600 419.0000 1.0000
45.8700 387.0000 1.0000
45.8800 425.0000 1.0000
45.8900 419.0000 1.0000
45.9000 430.0000 1.0000
45.9100 424.0000 1.0000
45.9200 441.0000 1.0000
45.9300 421.0000 1.0000
45.9400 445.0000 1.0000
45.9500 453.0000 1.0000
45.9600 426.0000 1.0000
45.9700 407.0000 1.0000
45.9800 445.0000 1.0000
45.9900 439.0000 1.0000
46.0000 412.0000 1.0000
46.0100 412.0000 1.0000
46.0200 430.0000 1.0000
46.0300 416.0000 1.0000
46.0400 420.0000 1.0000
46.0500 410.0000 1.0000
46.0600 433.0000 1.0000
46.0700 436.0000 1.0000
46.0800 442.0000 1.0000
46.0900 427.0000 1.0000
46.1000 401.0000 1.0000
46.1100 424.0000 1.0000
46.1200 416.0000 1.0000
46.1300 443.0000 1.0000
46.1400 434.0000 1.0000
46.1500 431.0000 1.0000
46.1600 449.0000 1.0000
46.1700 434.0000 1.0000
46.1800 414.0000 1.0000
46.1900 434.0000 1.0000
46.2000 423.0000 1.0000
46.2100 383.0000 1.0000
46.2200 417.0000 1.0000
46.2300 416.0000 1.0000
46.2400 418.0000 1.0000
46.2500 427.0000 1.0000
46.2600 448.0000 1.0000
46.2700 408.0000 1.0000
46.2800 422.0000 1.0000
46.2900 399.0000 1.0000
46.3000 449.0000 1.0000
46.3100 435.0000 1.0000
46.3200 403.0000 1.0000
46.3300 414.0000 1.0000
46.3400 420.0000 1.0000
46.3500 448.0000 1.0000
46.3600 440.0000 1.0000
46.3700 370.0000 1.0000
46.3800 375.0000 1.0000
46.3900 410.0000 1.0000
46.4000 408.0000 1.0000
46.4100 437.0000 1.0000
46.4200 408.0000 1.0000
46.4300 409.0000 1.0000
46.4400 427.0000 1.0000
46.4500 443.0000 1.0000
46.4600 416.0000 1.0000
46.4700 397.0000 1.0000
46.4800 428.0000 1.0000
46.4900 395.0000 1.0000
46.5000 425.0000 1.0000
46.5100 384.0000 1.0000
46.5200 412.0000 1.0000
46.5300 424.0000 1.0000
46.5400 422.0000 1.0000
46.5500 434.0000 1.0000
46.5600 448.0000 1.0000
46.5700 418.0000 1.0000
46.5800 402.0000 1.0000
46.5900 412.0000 1.0000
46.6000 432.0000 1.0000
46.6100 384.0000 1.0000
46.6200 414.0000 1.0000
46.6300 410.0000 1.0000
46.6400 391.0000 1.0000
46.6500 467.0000 1.0000
46.6600 456.0000 1.0000
46.6700 423.0000 1.0000
46.6800 393.0000 1.0000
46.6900 455.0000 1.0000
46.7000 384.0000 1.0000
46.7100 418.0000 1.0000
46.7200 412.0000 1.0000
46.7300 413.0000 1.0000
46.7400 414.0000 1.0000
46.7500 396.0000 1.0000
46.7600 413.0000 1.0000
46.7700 403.0000 1.0000
46.7800 408.0000 1.0000
46.7900 403.0000 1.0000
46.8000 399.0000 1.0000
46.8100 407.0000 1.0000
46.8200 389.0000 1.0000
46.8300 422.0000 1.0000
46.8400 384.0000 1.0000
46.8500 374.0000 1.0000
46.8600 407.0000 1.0000
46.8700 425.0000 1.0000
46.8800 395.0000 1.0000
46.8900 421.0000 1.0000
46.9000 413.0000 1.0000
46.9100 413.0000 1.0000
46.9200 400.0000 1.0000
46.9300 394.0000 1.0000
46.9400 392.0000 1.0000
46.9500 381.0000 1.0000
46.9600 368.0000 1.0000
46.9700 403.0000 1.0000
46.9800 393.0000 1.0000
46.9900 386.0000 1.0000
47.0000 384.0000 1.0000
47.0100 410.0000 1.0000
47.0200 402.0000 1.0000
47.0300 419.0000 1.0000
47.0400 410.0000 1.0000
47.0500 439.0000 1.0000
47.0600 421.0000 1.0000
47.0700 412.0000 1.0000
47.0800 397.0000 1.0000
47.0900 364.0000 1.0000
47.1000 394.0000 1.0000
47.1100 368.0000 1.0000
47.1200 408.0000 1.0000
47.1300 397.0000 1.0000
47.1400 400.0000 1.0000
47.1500 434.0000 1.0000
47.1600 395.0000 1.0000
47.1700 420.0000 1.0000
47.1800 423.0000 1.0000
47.1900 403.0000 1.0000
47.2000 373.0000 1.0000
47.2100 403.0000 1.0000
47.2200 386.0000 1.0000
47.2300 403.0000 1.0000
47.2400 406.0000 1.0000
47.2500 401.0000 1.0000
47.2600 386.0000 1.0000
47.2700 416.0000 1.0000
47.2800 407.0000 1.0000
47.2900 380.0000 1.0000
47.3000 393.0000 1.0000
47.3100 387.0000 1.0000
47.3200 377.0000 1.0000
47.3300 427.0000 1.0000
47.3400 406.0000 1.0000
47.3500 400.0000 1.0000
47.3600 446.0000 1.0000
47.3700 380.0000 1.0000
47.3800 426.0000 1.0000
47.3900 395.0000 1.0000
47.4000 410.0000 1.0000
47.4100 398.0000 1.0000
47.4200 410.0000 1.0000
47.4300 420.0000 1.0000
47.4400 399.0000 1.0000
47.4500 419.0000 1.0000
47.4600 399.0000 1.0000
47.4700 435.0000 1.0000
47.4800 422.0000 1.0000
47.4900 388.0000 1.0000
47.5000 408.0000 1.0000
47.5100 387.0000 1.0000
47.5200 379.0000 1.0000
47.5300 404.0000 1.0000
47.5400 429.0000 1.0000
47.5500 383.0000 1.0000
47.5600 386.0000 1.0000
47.5700 394.0000 1.0000
47.5800 379.0000 1.0000
47.5900 390.0000 1.0000
47.6000 407.0000 1.0000
47.6100 382.0000 1.0000
47.6200 411.0000 1.0000
47.6300 393.0000 1.0000
47.6400 394.0000 1.0000
47.6500 445.0000 1.0000
47.6600 401.0000 1.0000
47.6700 354.0000 1.0000
47.6800 355.0000 1.0000
47.6900 357.0000 1.0000
47.7000 412.0000 1.0000
47.7100 401.0000 1.0000
47.7200 410.0000 1.0000
47.7300 369.0000 1.0000
47.7400 403.0000 1.0000
47.7500 400.0000 1.0000
47.7600 382.0000 1.0000
47.7700 393.0000 1.0000
47.7800 369.0000 1.0000
47.7900 400.0000 1.0000
47.8000 380.0000 1.0000
47.8100 371.0000 1.0000
47.8200 438.0000 1.0000
47.8300 411.0000 1.0000
47.8400 388.0000 1.0000
47.8500 404.0000 1.0000
47.8600 387.0000 1.0000
47.8700 401.0000 1.0000
47.8800 412.0000 1.0000
47.8900 394.0000 1.0000
47.9000 413.0000 1.0000
47.9100 420.0000 1.0000
47.9200 399.0000 1.0000
47.9300 430.0000 1.0000
47.9400 374.0000 1.0000
47.9500 408.0000 1.0000
47.9600 419.0000 1.0000
47.9700 399.0000 1.0000
47.9800 389.0000 1.0000
47.9900 397.0000 1.0000
48.0000 403.0000 1.0000
48.0100 413.0000 1.0000
48.0200 417.0000 1.0000
48.0300 403.0000 1.0000
48.0400 402.0000 1.0000
48.0500 384.0000 1.0000
48.0600 384.0000 1.0000
48.0700 404.0000 1.0000
48.0800 381.0000 1.0000
48.0900 382.0000 1.0000
48.1000 417.0000 1.0000
48.1100 400.0000 1.0000
48.1200 407.0000 1.0000
48.1300 398.0000 1.0000
48.1400 368.0000 1.0000
48.1500 396.0000 1.0000
48.1600 398.0000 1.0000
48.1700 398.0000 1.0000
48.1800 395.0000 1.0000
48.1900 400.0000 1.0000
48.2000 402.0000 1.0000
48.2100 379.0000 1.0000
48.2200 386.0000 1.0000
48.2300 369.0000 1.0000
48.2400 398.0000 1.0000
48.2500 387.0000 1.0000
48.2600 410.0000 1.0000
48.2700 398.0000 1.0000
48.2800 410.0000 1.0000
48.2900 399.0000 1.0000
48.3000 371.0000 1.0000
48.3100 415.0000 1.0000
48.3200 391.0000 1.0000
48.3300 437.0000 1.0000
48.3400 389.0000 1.0000
48.3500 378.0000 1.0000
48.3600 380.0000 1.0000
48.3700 361.0000 1.0000
48.3800 378.0000 1.0000
48.3900 430.0000 1.0000
48.4000 400.0000 1.0000
48.4100 379.0000 1.0000
48.4200 385.0000 1.0000
48.4300 403.0000 1.0000
48.4400 396.0000 1.0000
48.4500 398.0000 1.0000
48.4600 376.0000 1.0000
48.4700 405.0000 1.0000
48.4800 387.0000 1.0000
48.4900 413.0000 1.0000
48.5000 392.0000 1.0000
48.5100 384.0000 1.0000
48.5200 385.0000 1.0000
48.5300 381.0000 1.0000
48.5400 392.0000 1.0000
48.5500 370.0000 1.0000
48.5600 373.0000 1.0000
48.5700 357.0000 1.0000
48.5800 416.0000 1.0000
48.5900 419.0000 1.0000
48.6000 380.0000 1.0000
48.6100 376.0000 1.0000
48.6200 377.0000 1.0000
48.6300 397.0000 1.0000
48.6400 403.0000 1.0000
48.6500 401.0000 1.0000
48.6600 380.0000 1.0000
48.6700 404.0000 1.0000
48.6800 391.0000 1.0000
48.6900 388.0000 1.0000
48.7000 387.0000 1.0000
48.7100 388.0000 1.0000
48.7200 388.0000 1.0000
48.7300 387.0000 1.0000
48.7400 377.0000 1.0000
48.7500 393.0000 1.0000
48.7600 400.0000 1.0000
48.7700 392.0000 1.0000
48.7800 382.0000 1.0000
48.7900 404.0000 1.0000
48.8000 402.0000 1.0000
48.8100 376.0000 1.0000
48.8200 386.0000 1.0000
48.8300 390.0000 1.0000
48.8400 395.0000 1.0000
48.8500 392.0000 1.0000
48.8600 360.0000 1.0000
48.8700 405.0000 1.0000
48.8800 412.0000 1.0000
48.8900 397.0000 1.0000
48.9000 423.0000 1.0000
48.9100 397.0000 1.0000
48.9200 396.0000 1.0000
48.9300 434.0000 1.0000
48.9400 424.0000 1.0000
48.9500 369.0000 1.0000
48.9600 405.0000 1.0000
48.9700 404.0000 1.0000
48.9800 382.0000 1.0000
48.9900 368.0000 1.0000
49.0000 404.0000 1.0000
49.0100 421.0000 1.0000
49.0200 392.0000 1.0000
49.0300 407.0000 1.0000
49.0400 401.0000 1.0000
49.0500 374.0000 1.0000
49.0600 389.0000 1.0000
49.0700 427.0000 1.0000
49.0800 413.0000 1.0000
49.0900 381.0000 1.0000
49.1000 401.0000 1.0000
49.1100 417.0000 1.0000
49.1200 403.0000 1.0000
49.1300 414.0000 1.0000
49.1400 392.0000 1.0000
49.1500 389.0000 1.0000
49.1600 385.0000 1.0000
49.1700 361.0000 1.0000
49.1800 356.0000 1.0000
49.1900 394.0000 1.0000
49.2000 390.0000 1.0000
49.2100 441.0000 1.0000
49.2200 396.0000 1.0000
49.2300 403.0000 1.0000
49.2400 406.0000 1.0000
49.2500 406.0000 1.0000
49.2600 419.0000 1.0000
49.2700 420.0000 1.0000
49.2800 413.0000 1.0000
49.2900 421.0000 1.0000
49.3000 407.0000 1.0000
49.3100 443.0000 1.0000
49.3200 440.0000 1.0000
49.3300 443.0000 1.0000
49.3400 460.0000 1.0000
49.3500 423.0000 1.0000
49.3600 431.0000 1.0000
49.3700 444.0000 1.0000
49.3800 438.0000 1.0000
49.3900 446.0000 1.0000
49.4000 430.0000 1.0000
49.4100 463.0000 1.0000
49.4200 430.0000 1.0000
49.4300 422.0000 1.0000
49.4400 403.0000 1.0000
49.4500 427.0000 1.0000
49.4600 395.0000 1.0000
49.4700 414.0000 1.0000
49.4800 390.0000 1.0000
49.4900 420.0000 1.0000
49.5000 467.0000 1.0000
49.5100 445.0000 1.0000
49.5200 393.0000 1.0000
49.5300 418.0000 1.0000
49.5400 434.0000 1.0000
49.5500 446.0000 1.0000
49.5600 410.0000 1.0000
49.5700 412.0000 1.0000
49.5800 405.0000 1.0000
49.5900 399.0000 1.0000
49.6000 386.0000 1.0000
49.6100 397.0000 1.0000
49.6200 413.0000 1.0000
49.6300 423.0000 1.0000
49.6400 388.0000 1.0000
49.6500 416.0000 1.0000
49.6600 399.0000 1.0000
49.6700 413.0000 1.0000
49.6800 411.0000 1.0000
49.6900 391.0000 1.0000
49.7000 398.0000 1.0000
49.7100 428.0000 1.0000
49.7200 374.0000 1.0000
49.7300 416.0000 1.0000
49.7400 411.0000 1.0000
49.7500 393.0000 1.0000
49.7600 387.0000 1.0000
49.7700 410.0000 1.0000
49.7800 405.0000 1.0000
49.7900 402.0000 1.0000
49.8000 402.0000 1.0000
49.8100 404.0000 1.0000
49.8200 392.0000 1.0000
49.8300 414.0000 1.0000
49.8400 414.0000 1.0000
49.8500 385.0000 1.0000
49.8600 419.0000 1.0000
49.8700 433.0000 1.0000
49.8800 399.0000 1.0000
49.8900 387.0000 1.0000
49.9000 423.0000 1.0000
49.9100 370.0000 1.0000
49.9200 399.0000 1.0000
49.9300 414.0000 1.0000
49.9400 381.0000 1.0000
49.9500 399.0000 1.0000
49.9600 398.0000 1.0000
49.9700 389.0000 1.0000
49.9800 385.0000 1.0000
49.9900 402.0000 1.0000
50.0000 429.0000 1.0000
50.0100 408.0000 1.0000
50.0200 389.0000 1.0000
50.0300 413.0000 1.0000
50.0400 405.0000 1.0000
50.0500 428.0000 1.0000
50.0600 379.0000 1.0000
50.0700 448.0000 1.0000
50.0800 392.0000 1.0000
50.0900 395.0000 1.0000
50.1000 414.0000 1.0000
50.1100 414.0000 1.0000
50.1200 413.0000 1.0000
50.1300 405.0000 1.0000
50.1400 401.0000 1.0000
50.1500 376.0000 1.0000
50.1600 382.0000 1.0000
50.1700 363.0000 1.0000
50.1800 368.0000 1.0000
50.1900 364.0000 1.0000
50.2000 418.0000 1.0000
50.2100 396.0000 1.0000
50.2200 359.0000 1.0000
50.2300 368.0000 1.0000
50.2400 382.0000 1.0000
50.2500 367.0000 1.0000
50.2600 379.0000 1.0000
50.2700 381.0000 1.0000
50.2800 361.0000 1.0000
50.2900 397.0000 1.0000
50.3000 399.0000 1.0000
50.3100 417.0000 1.0000
50.3200 412.0000 1.0000
50.3300 391.0000 1.0000
50.3400 409.0000 1.0000
50.3500 393.0000 1.0000
50.3600 406.0000 1.0000
50.3700 402.0000 1.0000
50.3800 405.0000 1.0000
50.3900 426.0000 1.0000
50.4000 412.0000 1.0000
50.4100 387.0000 1.0000
50.4200 421.0000 1.0000
50.4300 361.0000 1.0000
50.4400 386.0000 1.0000
50.4500 405.0000 1.0000
50.4600 401.0000 1.0000
50.4700 393.0000 1.0000
50.4800 397.0000 1.0000
50.4900 413.0000 1.0000
50.5000 397.0000 1.0000
50.5100 408.0000 1.0000
50.5200 386.0000 1.0000
50.5300 382.0000 1.0000
50.5400 367.0000 1.0000
50.5500 442.0000 1.0000
50.5600 412.0000 1.0000
50.5700 395.0000 1.0000
50.5800 398.0000 1.0000
50.5900 394.0000 1.0000
50.6000 393.0000 1.0000
50.6100 398.0000 1.0000
50.6200 415.0000 1.0000
50.6300 389.0000 1.0000
50.6400 396.0000 1.0000
50.6500 375.0000 1.0000
50.6600 409.0000 1.0000
50.6700 407.0000 1.0000
50.6800 406.0000 1.0000
50.6900 390.0000 1.0000
50.7000 394.0000 1.0000
50.7100 379.0000 1.0000
50.7200 412.0000 1.0000
50.7300 416.0000 1.0000
50.7400 393.0000 1.0000
50.7500 419.0000 1.0000
50.7600 415.0000 1.0000
50.7700 416.0000 1.0000
50.7800 414.0000 1.0000
50.7900 410.0000 1.0000
50.8000 391.0000 1.0000
50.8100 407.0000 1.0000
50.8200 380.0000 1.0000
50.8300 446.0000 1.0000
50.8400 425.0000 1.0000
50.8500 402.0000 1.0000
50.8600 420.0000 1.0000
50.8700 412.0000 1.0000
50.8800 372.0000 1.0000
50.8900 382.0000 1.0000
50.9000 407.0000 1.0000
50.9100 451.0000 1.0000
50.9200 433.0000 1.0000
50.9300 467.0000 1.0000
50.9400 472.0000 1.0000
50.9500 434.0000 1.0000
50.9600 431.0000 1.0000
50.9700 470.0000 1.0000
50.9800 424.0000 1.0000
50.9900 442.0000 1.0000
51.0000 427.0000 1.0000
51.0100 458.0000 1.0000
51.0200 470.0000 1.0000
51.0300 471.0000 1.0000
51.0400 474.0000 1.0000
51.0500 482.0000 1.0000
51.0600 486.0000 1.0000
51.0700 479.0000 1.0000
51.0800 494.0000 1.0000
51.0900 501.0000 1.0000
51.1000 505.0000 1.0000
51.1100 499.0000 1.0000
51.1200 528.0000 1.0000
51.1300 539.0000 1.0000
51.1400 562.0000 1.0000
51.1500 597.0000 1.0000
51.1600 562.0000 1.0000
51.1700 599.0000 1.0000
51.1800 602.0000 1.0000
51.1900 636.0000 1.0000
51.2000 645.0000 1.0000
51.2100 657.0000 1.0000
51.2200 712.0000 1.0000
51.2300 727.0000 1.0000
51.2400 781.0000 1.0000
51.2500 780.0000 1.0000
51.2600 855.0000 1.0000
51.2700 904.0000 1.0000
51.2800 931.0000 1.0000
51.2900 995.0000 1.0000
51.3000 1114.0000 1.0000
51.3100 1217.0000 1.0000
51.3200 1261.0000 1.0000
51.3300 1316.0000 1.0000
51.3400 1402.0000 1.0000
51.3500 1531.0000 1.0000
51.3600 1657.0000 1.0000
51.3700 1838.0000 1.0000
51.3800 1950.0000 1.0000
51.3900 1995.0000 1.0000
51.4000 2172.0000 1.0000
51.4100 2231.0000 1.0000
51.4200 2368.0000 1.0000
51.4300 2453.0000 1.0000
51.4400 2498.0000 1.0000
51.4500 2625.0000 1.0000
51.4600 2601.0000 1.0000
51.4700 2555.0000 1.0000
51.4800 2482.0000 1.0000
51.4900 2507.0000 1.0000
51.5000 2501.0000 1.0000
51.5100 2381.0000 1.0000
51.5200 2304.0000 1.0000
51.5300 2238.0000 1.0000
51.5400 2165.0000 1.0000
51.5500 2174.0000 1.0000
51.5600 2056.0000 1.0000
51.5700 2057.0000 1.0000
51.5800 1884.0000 1.0000
51.5900 1873.0000 1.0000
51.6000 1787.0000 1.0000
51.6100 1746.0000 1.0000
51.6200 1668.0000 1.0000
51.6300 1532.0000 1.0000
51.6400 1418.0000 1.0000
51.6500 1353.0000 1.0000
51.6600 1306.0000 1.0000
51.6700 1245.0000 1.0000
51.6800 1116.0000 1.0000
51.6900 1112.0000 1.0000
51.7000 972.0000 1.0000
51.7100 937.0000 1.0000
51.7200 909.0000 1.0000
51.7300 869.0000 1.0000
51.7400 789.0000 1.0000
51.7500 704.0000 1.0000
51.7600 714.0000 1.0000
51.7700 692.0000 1.0000
51.7800 713.0000 1.0000
51.7900 618.0000 1.0000
51.8000 611.0000 1.0000
51.8100 608.0000 1.0000
51.8200 615.0000 1.0000
51.8300 595.0000 1.0000
51.8400 594.0000 1.0000
51.8500 547.0000 1.0000
51.8600 529.0000 1.0000
51.8700 564.0000 1.0000
51.8800 510.0000 1.0000
51.8900 507.0000 1.0000
51.9000 514.0000 1.0000
51.9100 474.0000 1.0000
51.9200 510.0000 1.0000
51.9300 477.0000 1.0000
51.9400 429.0000 1.0000
51.9500 455.0000 1.0000
51.9600 483.0000 1.0000
51.9700 490.0000 1.0000
51.9800 472.0000 1.0000
51.9900 486.0000 1.0000
52.0000 496.0000 1.0000
52.0100 486.0000 1.0000
52.0200 416.0000 1.0000
52.0300 416.0000 1.0000
52.0400 431.0000 1.0000
52.0500 456.0000 1.0000
52.0600 415.0000 1.0000
52.0700 441.0000 1.0000
52.0800 401.0000 1.0000
52.0900 429.0000 1.0000
52.1000 427.0000 1.0000
52.1100 432.0000 1.0000
52.1200 415.0000 1.0000
52.1300 433.0000 1.0000
52.1400 397.0000 1.0000
52.1500 408.0000 1.0000
52.1600 395.0000 1.0000
52.1700 411.0000 1.0000
52.1800 422.0000 1.0000
52.1900 412.0000 1.0000
52.2000 434.0000 1.0000
52.2100 395.0000 1.0000
52.2200 426.0000 1.0000
52.2300 434.0000 1.0000
52.2400 427.0000 1.0000
52.2500 418.0000 1.0000
52.2600 420.0000 1.0000
52.2700 426.0000 1.0000
52.2800 409.0000 1.0000
52.2900 402.0000 1.0000
52.3000 365.0000 1.0000
52.3100 394.0000 1.0000
52.3200 378.0000 1.0000
52.3300 419.0000 1.0000
52.3400 421.0000 1.0000
52.3500 376.0000 1.0000
52.3600 399.0000 1.0000
52.3700 371.0000 1.0000
52.3800 431.0000 1.0000
52.3900 389.0000 1.0000
52.4000 423.0000 1.0000
52.4100 395.0000 1.0000
52.4200 400.0000 1.0000
52.4300 381.0000 1.0000
52.4400 405.0000 1.0000
52.4500 424.0000 1.0000
52.4600 417.0000 1.0000
52.4700 399.0000 1.0000
52.4800 410.0000 1.0000
52.4900 383.0000 1.0000
52.5000 364.0000 1.0000
52.5100 396.0000 1.0000
52.5200 392.0000 1.0000
52.5300 413.0000 1.0000
52.5400 407.0000 1.0000
52.5500 375.0000 1.0000
52.5600 400.0000 1.0000
52.5700 385.0000 1.0000
52.5800 386.0000 1.0000
52.5900 354.0000 1.0000
52.6000 409.0000 1.0000
52.6100 386.0000 1.0000
52.6200 394.0000 1.0000
52.6300 396.0000 1.0000
52.6400 370.0000 1.0000
52.6500 374.0000 1.0000
52.6600 385.0000 1.0000
52.6700 354.0000 1.0000
52.6800 365.0000 1.0000
52.6900 432.0000 1.0000
52.7000 379.0000 1.0000
52.7100 399.0000 1.0000
52.7200 381.0000 1.0000
52.7300 395.0000 1.0000
52.7400 357.0000 1.0000
52.7500 378.0000 1.0000
52.7600 368.0000 1.0000
52.7700 379.0000 1.0000
52.7800 376.0000 1.0000
52.7900 409.0000 1.0000
52.8000 375.0000 1.0000
52.8100 371.0000 1.0000
52.8200 373.0000 1.0000
52.8300 369.0000 1.0000
52.8400 405.0000 1.0000
52.8500 373.0000 1.0000
52.8600 384.0000 1.0000
52.8700 400.0000 1.0000
52.8800 383.0000 1.0000
52.8900 427.0000 1.0000
52.9000 380.0000 1.0000
52.9100 412.0000 1.0000
52.9200 389.0000 1.0000
52.9300 369.0000 1.0000
52.9400 392.0000 1.0000
52.9500 405.0000 1.0000
52.9600 386.0000 1.0000
52.9700 388.0000 1.0000
52.9800 375.0000 1.0000
52.9900 361.0000 1.0000
53.0000 403.0000 1.0000
53.0100 407.0000 1.0000
53.0200 378.0000 1.0000
53.0300 363.0000 1.0000
53.0400 394.0000 1.0000
53.0500 372.0000 1.0000
53.0600 374.0000 1.0000
53.0700 392.0000 1.0000
53.0800 383.0000 1.0000
53.0900 376.0000 1.0000
53.1000 387.0000 1.0000
53.1100 365.0000 1.0000
53.1200 356.0000 1.0000
53.1300 369.0000 1.0000
53.1400 423.0000 1.0000
53.1500 386.0000 1.0000
53.1600 403.0000 1.0000
53.1700 415.0000 1.0000
53.1800 384.0000 1.0000
53.1900 364.0000 1.0000
53.2000 384.0000 1.0000
53.2100 387.0000 1.0000
53.2200 381.0000 1.0000
53.2300 349.0000 1.0000
53.2400 360.0000 1.0000
53.2500 374.0000 1.0000
53.2600 391.0000 1.0000
53.2700 392.0000 1.0000
53.2800 359.0000 1.0000
53.2900 383.0000 1.0000
53.3000 385.0000 1.0000
53.3100 369.0000 1.0000
53.3200 384.0000 1.0000
53.3300 379.0000 1.0000
53.3400 371.0000 1.0000
53.3500 367.0000 1.0000
53.3600 364.0000 1.0000
53.3700 364.0000 1.0000
53.3800 359.0000 1.0000
53.3900 365.0000 1.0000
53.4000 391.0000 1.0000
53.4100 391.0000 1.0000
53.4200 379.0000 1.0000
53.4300 351.0000 1.0000
53.4400 369.0000 1.0000
53.4500 358.0000 1.0000
53.4600 372.0000 1.0000
53.4700 407.0000 1.0000
53.4800 406.0000 1.0000
53.4900 405.0000 1.0000
53.5000 370.0000 1.0000
53.5100 422.0000 1.0000
53.5200 402.0000 1.0000
53.5300 434.0000 1.0000
53.5400 374.0000 1.0000
53.5500 382.0000 1.0000
53.5600 381.0000 1.0000
53.5700 387.0000 1.0000
53.5800 355.0000 1.0000
53.5900 372.0000 1.0000
53.6000 376.0000 1.0000
53.6100 367.0000 1.0000
53.6200 376.0000 1.0000
53.6300 389.0000 1.0000
53.6400 400.0000 1.0000
53.6500 378.0000 1.0000
53.6600 403.0000 1.0000
53.6700 390.0000 1.0000
53.6800 374.0000 1.0000
53.6900 418.0000 1.0000
53.7000 404.0000 1.0000
53.7100 384.0000 1.0000
53.7200 423.0000 1.0000
53.7300 383.0000 1.0000
53.7400 393.0000 1.0000
53.7500 378.0000 1.0000
53.7600 407.0000 1.0000
53.7700 379.0000 1.0000
53.7800 400.0000 1.0000
53.7900 373.0000 1.0000
53.8000 416.0000 1.0000
53.8100 421.0000 1.0000
53.8200 381.0000 1.0000
53.8300 370.0000 1.0000
53.8400 385.0000 1.0000
53.8500 367.0000 1.0000
53.8600 380.0000 1.0000
53.8700 368.0000 1.0000
53.8800 413.0000 1.0000
53.8900 420.0000 1.0000
53.9000 445.0000 1.0000
53.9100 407.0000 1.0000
53.9200 413.0000 1.0000
53.9300 392.0000 1.0000
53.9400 388.0000 1.0000
53.9500 415.0000 1.0000
53.9600 398.0000 1.0000
53.9700 408.0000 1.0000
53.9800 417.0000 1.0000
53.9900 405.0000 1.0000
54.0000 389.0000 1.0000
54.0100 386.0000 1.0000
54.0200 397.0000 1.0000
54.0300 437.0000 1.0000
54.0400 443.0000 1.0000
54.0500 459.0000 1.0000
54.0600 402.0000 1.0000
54.0700 400.0000 1.0000
54.0800 396.0000 1.0000
54.0900 426.0000 1.0000
54.1000 415.0000 1.0000
54.1100 395.0000 1.0000
54.1200 417.0000 1.0000
54.1300 426.0000 1.0000
54.1400 421.0000 1.0000
54.1500 413.0000 1.0000
54.1600 400.0000 1.0000
54.1700 415.0000 1.0000
54.1800 450.0000 1.0000
54.1900 450.0000 1.0000
54.2000 427.0000 1.0000
54.2100 418.0000 1.0000
54.2200 440.0000 1.0000
54.2300 420.0000 1.0000
54.2400 430.0000 1.0000
54.2500 437.0000 1.0000
54.2600 457.0000 1.0000
54.2700 458.0000 1.0000
54.2800 472.0000 1.0000
54.2900 446.0000 1.0000
54.3000 479.0000 1.0000
54.3100 428.0000 1.0000
54.3200 434.0000 1.0000
54.3300 484.0000 1.0000
54.3400 446.0000 1.0000
54.3500 455.0000 1.0000
54.3600 509.0000 1.0000
54.3700 505.0000 1.0000
54.3800 555.0000 1.0000
54.3900 569.0000 1.0000
54.4000 568.0000 1.0000
54.4100 575.0000 1.0000
54.4200 527.0000 1.0000
54.4300 555.0000 1.0000
54.4400 559.0000 1.0000
54.4500 554.0000 1.0000
54.4600 567.0000 1.0000
54.4700 582.0000 1.0000
54.4800 596.0000 1.0000
54.4900 586.0000 1.0000
54.5000 594.0000 1.0000
54.5100 552.0000 1.0000
54.5200 572.0000 1.0000
54.5300 571.0000 1.0000
54.5400 597.0000 1.0000
54.5500 586.0000 1.0000
54.5600 565.0000 1.0000
54.5700 554.0000 1.0000
54.5800 533.0000 1.0000
54.5900 543.0000 1.0000
54.6000 555.0000 1.0000
54.6100 575.0000 1.0000
54.6200 530.0000 1.0000
54.6300 539.0000 1.0000
54.6400 556.0000 1.0000
54.6500 521.0000 1.0000
54.6600 522.0000 1.0000
54.6700 507.0000 1.0000
54.6800 514.0000 1.0000
54.6900 487.0000 1.0000
54.7000 543.0000 1.0000
54.7100 476.0000 1.0000
54.7200 459.0000 1.0000
54.7300 433.0000 1.0000
54.7400 423.0000 1.0000
54.7500 468.0000 1.0000
54.7600 438.0000 1.0000
54.7700 405.0000 1.0000
54.7800 412.0000 1.0000
54.7900 445.0000 1.0000
54.8000 423.0000 1.0000
54.8100 402.0000 1.0000
54.8200 387.0000 1.0000
54.8300 428.0000 1.0000
54.8400 414.0000 1.0000
54.8500 416.0000 1.0000
54.8600 391.0000 1.0000
54.8700 405.0000 1.0000
54.8800 375.0000 1.0000
54.8900 400.0000 1.0000
54.9000 409.0000 1.0000
54.9100 360.0000 1.0000
54.9200 407.0000 1.0000
54.9300 398.0000 1.0000
54.9400 411.0000 1.0000
54.9500 386.0000 1.0000
54.9600 380.0000 1.0000
54.9700 403.0000 1.0000
54.9800 382.0000 1.0000
54.9900 384.0000 1.0000
55.0000 392.0000 1.0000
55.0100 410.0000 1.0000
55.0200 399.0000 1.0000
55.0300 416.0000 1.0000
55.0400 385.0000 1.0000
55.0500 387.0000 1.0000
55.0600 409.0000 1.0000
55.0700 363.0000 1.0000
55.0800 373.0000 1.0000
55.0900 394.0000 1.0000
55.1000 374.0000 1.0000
55.1100 378.0000 1.0000
55.1200 376.0000 1.0000
55.1300 368.0000 1.0000
55.1400 363.0000 1.0000
55.1500 378.0000 1.0000
55.1600 383.0000 1.0000
55.1700 387.0000 1.0000
55.1800 366.0000 1.0000
55.1900 374.0000 1.0000
55.2000 381.0000 1.0000
55.2100 379.0000 1.0000
55.2200 363.0000 1.0000
55.2300 377.0000 1.0000
55.2400 396.0000 1.0000
55.2500 386.0000 1.0000
55.2600 365.0000 1.0000
55.2700 363.0000 1.0000
55.2800 368.0000 1.0000
55.2900 376.0000 1.0000
55.3000 374.0000 1.0000
55.3100 367.0000 1.0000
55.3200 357.0000 1.0000
55.3300 396.0000 1.0000
55.3400 361.0000 1.0000
55.3500 380.0000 1.0000
55.3600 384.0000 1.0000
55.3700 398.0000 1.0000
55.3800 369.0000 1.0000
55.3900 349.0000 1.0000
55.4000 376.0000 1.0000
55.4100 372.0000 1.0000
55.4200 371.0000 1.0000
55.4300 382.0000 1.0000
55.4400 375.0000 1.0000
55.4500 375.0000 1.0000
55.4600 380.0000 1.0000
55.4700 385.0000 1.0000
55.4800 379.0000 1.0000
55.4900 364.0000 1.0000
55.5000 345.0000 1.0000
55.5100 360.0000 1.0000
55.5200 372.0000 1.0000
55.5300 354.0000 1.0000
55.5400 358.0000 1.0000
55.5500 376.0000 1.0000
55.5600 383.0000 1.0000
55.5700 342.0000 1.0000
55.5800 347.0000 1.0000
55.5900 379.0000 1.0000
55.6000 379.0000 1.0000
55.6100 374.0000 1.0000
55.6200 361.0000 1.0000
55.6300 363.0000 1.0000
55.6400 347.0000 1.0000
55.6500 368.0000 1.0000
55.6600 381.0000 1.0000
55.6700 372.0000 1.0000
55.6800 384.0000 1.0000
55.6900 388.0000 1.0000
55.7000 386.0000 1.0000
55.7100 379.0000 1.0000
55.7200 364.0000 1.0000
55.7300 332.0000 1.0000
55.7400 358.0000 1.0000
55.7500 350.0000 1.0000
55.7600 372.0000 1.0000
55.7700 367.0000 1.0000
55.7800 365.0000 1.0000
55.7900 356.0000 1.0000
55.8000 384.0000 1.0000
55.8100 375.0000 1.0000
55.8200 372.0000 1.0000
55.8300 391.0000 1.0000
55.8400 355.0000 1.0000
55.8500 360.0000 1.0000
55.8600 367.0000 1.0000
55.8700 379.0000 1.0000
55.8800 363.0000 1.0000
55.8900 379.0000 1.0000
55.9000 356.0000 1.0000
55.9100 371.0000 1.0000
55.9200 346.0000 1.0000
55.9300 329.0000 1.0000
55.9400 339.0000 1.0000
55.9500 340.0000 1.0000
55.9600 331.0000 1.0000
55.9700 391.0000 1.0000
55.9800 397.0000 1.0000
55.9900 368.0000 1.0000
56.0000 366.0000 1.0000
56.0100 361.0000 1.0000
56.0200 371.0000 1.0000
56.0300 361.0000 1.0000
56.0400 352.0000 1.0000
56.0500 362.0000 1.0000
56.0600 388.0000 1.0000
56.0700 341.0000 1.0000
56.0800 362.0000 1.0000
56.0900 361.0000 1.0000
56.1000 363.0000 1.0000
56.1100 381.0000 1.0000
56.1200 373.0000 1.0000
56.1300 335.0000 1.0000
56.1400 371.0000 1.0000
56.1500 371.0000 1.0000
56.1600 368.0000 1.0000
56.1700 381.0000 1.0000
56.1800 395.0000 1.0000
56.1900 339.0000 1.0000
56.2000 387.0000 1.0000
56.2100 370.0000 1.0000
56.2200 368.0000 1.0000
56.2300 345.0000 1.0000
56.2400 389.0000 1.0000
56.2500 389.0000 1.0000
56.2600 398.0000 1.0000
56.2700 357.0000 1.0000
56.2800 332.0000 1.0000
56.2900 361.0000 1.0000
56.3000 355.0000 1.0000
56.3100 372.0000 1.0000
56.3200 365.0000 1.0000
56.3300 355.0000 1.0000
56.3400 372.0000 1.0000
56.3500 363.0000 1.0000
56.3600 374.0000 1.0000
56.3700 386.0000 1.0000
56.3800 345.0000 1.0000
56.3900 331.0000 1.0000
56.4000 363.0000 1.0000
56.4100 370.0000 1.0000
56.4200 384.0000 1.0000
56.4300 355.0000 1.0000
56.4400 344.0000 1.0000
56.4500 352.0000 1.0000
56.4600 374.0000 1.0000
56.4700 350.0000 1.0000
56.4800 371.0000 1.0000
56.4900 388.0000 1.0000
56.5000 383.0000 1.0000
56.5100 409.0000 1.0000
56.5200 330.0000 1.0000
56.5300 351.0000 1.0000
56.5400 364.0000 1.0000
56.5500 327.0000 1.0000
56.5600 362.0000 1.0000
56.5700 343.0000 1.0000
56.5800 366.0000 1.0000
56.5900 358.0000 1.0000
56.6000 335.0000 1.0000
56.6100 364.0000 1.0000
56.6200 366.0000 1.0000
56.6300 351.0000 1.0000
56.6400 353.0000 1.0000
56.6500 374.0000 1.0000
56.6600 349.0000 1.0000
56.6700 342.0000 1.0000
56.6800 358.0000 1.0000
56.6900 346.0000 1.0000
56.7000 361.0000 1.0000
56.7100 351.0000 1.0000
56.7200 352.0000 1.0000
56.7300 356.0000 1.0000
56.7400 363.0000 1.0000
56.7500 346.0000 1.0000
56.7600 353.0000 1.0000
56.7700 363.0000 1.0000
56.7800 351.0000 1.0000
56.7900 353.0000 1.0000
56.8000 340.0000 1.0000
56.8100 338.0000 1.0000
56.8200 390.0000 1.0000
56.8300 387.0000 1.0000
56.8400 357.0000 1.0000
56.8500 353.0000 1.0000
56.8600 356.0000 1.0000
56.8700 338.0000 1.0000
56.8800 383.0000 1.0000
56.8900 375.0000 1.0000
56.9000 365.0000 1.0000
56.9100 352.0000 1.0000
56.9200 350.0000 1.0000
56.9300 364.0000 1.0000
56.9400 367.0000 1.0000
56.9500 341.0000 1.0000
56.9600 373.0000 1.0000
56.9700 384.0000 1.0000
56.9800 379.0000 1.0000
56.9900 388.0000 1.0000
57.0000 358.0000 1.0000
57.0100 373.0000 1.0000
57.0200 341.0000 1.0000
57.0300 362.0000 1.0000
57.0400 365.0000 1.0000
57.0500 348.0000 1.0000
57.0600 342.0000 1.0000
57.0700 370.0000 1.0000
57.0800 360.0000 1.0000
57.0900 337.0000 1.0000
57.1000 356.0000 1.0000
57.1100 342.0000 1.0000
57.1200 350.0000 1.0000
57.1300 339.0000 1.0000
57.1400 336.0000 1.0000
57.1500 345.0000 1.0000
57.1600 362.0000 1.0000
57.1700 371.0000 1.0000
57.1800 374.0000 1.0000
57.1900 396.0000 1.0000
57.2000 394.0000 1.0000
57.2100 368.0000 1.0000
57.2200 413.0000 1.0000
57.2300 376.0000 1.0000
57.2400 379.0000 1.0000
57.2500 328.0000 1.0000
57.2600 370.0000 1.0000
57.2700 365.0000 1.0000
57.2800 365.0000 1.0000
57.2900 397.0000 1.0000
57.3000 384.0000 1.0000
57.3100 393.0000 1.0000
57.3200 382.0000 1.0000
57.3300 363.0000 1.0000
57.3400 378.0000 1.0000
57.3500 380.0000 1.0000
57.3600 364.0000 1.0000
57.3700 358.0000 1.0000
57.3800 378.0000 1.0000
57.3900 361.0000 1.0000
57.4000 361.0000 1.0000
57.4100 407.0000 1.0000
57.4200 374.0000 1.0000
57.4300 367.0000 1.0000
57.4400 376.0000 1.0000
57.4500 378.0000 1.0000
57.4600 398.0000 1.0000
57.4700 382.0000 1.0000
57.4800 375.0000 1.0000
57.4900 361.0000 1.0000
57.5000 370.0000 1.0000
57.5100 358.0000 1.0000
57.5200 374.0000 1.0000
57.5300 372.0000 1.0000
57.5400 393.0000 1.0000
57.5500 388.0000 1.0000
57.5600 375.0000 1.0000
57.5700 376.0000 1.0000
57.5800 397.0000 1.0000
57.5900 372.0000 1.0000
57.6000 372.0000 1.0000
57.6100 373.0000 1.0000
57.6200 371.0000 1.0000
57.6300 336.0000 1.0000
57.6400 356.0000 1.0000
57.6500 338.0000 1.0000
57.6600 345.0000 1.0000
57.6700 375.0000 1.0000
57.6800 388.0000 1.0000
57.6900 359.0000 1.0000
57.7000 355.0000 1.0000
57.7100 339.0000 1.0000
57.7200 335.0000 1.0000
57.7300 381.0000 1.0000
57.7400 372.0000 1.0000
57.7500 379.0000 1.0000
57.7600 348.0000 1.0000
57.7700 376.0000 1.0000
57.7800 341.0000 1.0000
57.7900 365.0000 1.0000
57.8000 368.0000 1.0000
57.8100 358.0000 1.0000
57.8200 386.0000 1.0000
57.8300 387.0000 1.0000
57.8400 367.0000 1.0000
57.8500 364.0000 1.0000
57.8600 375.0000 1.0000
57.8700 366.0000 1.0000
57.8800 369.0000 1.0000
57.8900 364.0000 1.0000
57.9000 335.0000 1.0000
57.9100 358.0000 1.0000
57.9200 358.0000 1.0000
57.9300 372.0000 1.0000
57.9400 361.0000 1.0000
57.9500 360.0000 1.0000
57.9600 372.0000 1.0000
57.9700 380.0000 1.0000
57.9800 342.0000 1.0000
57.9900 359.0000 1.0000
58.0000 395.0000 1.0000
58.0100 348.0000 1.0000
58.0200 346.0000 1.0000
58.0300 352.0000 1.0000
58.0400 356.0000 1.0000
58.0500 341.0000 1.0000
58.0600 362.0000 1.0000
58.0700 392.0000 1.0000
58.0800 338.0000 1.0000
58.0900 340.0000 1.0000
58.1000 357.0000 1.0000
58.1100 385.0000 1.0000
58.1200 384.0000 1.0000
58.1300 373.0000 1.0000
58.1400 353.0000 1.0000
58.1500 365.0000 1.0000
58.1600 365.0000 1.0000
58.1700 347.0000 1.0000
58.1800 347.0000 1.0000
58.1900 358.0000 1.0000
58.2000 358.0000 1.0000
58.2100 363.0000 1.0000
58.2200 368.0000 1.0000
58.2300 339.0000 1.0000
58.2400 343.0000 1.0000
58.2500 366.0000 1.0000
58.2600 368.0000 1.0000
58.2700 368.0000 1.0000
58.2800 363.0000 1.0000
58.2900 343.0000 1.0000
58.3000 374.0000 1.0000
58.3100 388.0000 1.0000
58.3200 370.0000 1.0000
58.3300 354.0000 1.0000
58.3400 360.0000 1.0000
58.3500 356.0000 1.0000
58.3600 392.0000 1.0000
58.3700 370.0000 1.0000
58.3800 338.0000 1.0000
58.3900 365.0000 1.0000
58.4000 372.0000 1.0000
58.4100 361.0000 1.0000
58.4200 387.0000 1.0000
58.4300 366.0000 1.0000
58.4400 391.0000 1.0000
58.4500 350.0000 1.0000
58.4600 367.0000 1.0000
58.4700 392.0000 1.0000
58.4800 370.0000 1.0000
58.4900 368.0000 1.0000
58.5000 341.0000 1.0000
58.5100 364.0000 1.0000
58.5200 387.0000 1.0000
58.5300 346.0000 1.0000
58.5400 367.0000 1.0000
58.5500 334.0000 1.0000
58.5600 343.0000 1.0000
58.5700 361.0000 1.0000
58.5800 363.0000 1.0000
58.5900 335.0000 1.0000
58.6000 359.0000 1.0000
58.6100 354.0000 1.0000
58.6200 354.0000 1.0000
58.6300 328.0000 1.0000
58.6400 368.0000 1.0000
58.6500 348.0000 1.0000
58.6600 371.0000 1.0000
58.6700 349.0000 1.0000
58.6800 354.0000 1.0000
58.6900 348.0000 1.0000
58.7000 367.0000 1.0000
58.7100 348.0000 1.0000
58.7200 372.0000 1.0000
58.7300 372.0000 1.0000
58.7400 364.0000 1.0000
58.7500 375.0000 1.0000
58.7600 351.0000 1.0000
58.7700 375.0000 1.0000
58.7800 381.0000 1.0000
58.7900 365.0000 1.0000
58.8000 377.0000 1.0000
58.8100 374.0000 1.0000
58.8200 370.0000 1.0000
58.8300 348.0000 1.0000
58.8400 342.0000 1.0000
58.8500 340.0000 1.0000
58.8600 350.0000 1.0000
58.8700 353.0000 1.0000
58.8800 347.0000 1.0000
58.8900 365.0000 1.0000
58.9000 350.0000 1.0000
58.9100 351.0000 1.0000
58.9200 357.0000 1.0000
58.9300 351.0000 1.0000
58.9400 350.0000 1.0000
58.9500 368.0000 1.0000
58.9600 347.0000 1.0000
58.9700 339.0000 1.0000
58.9800 315.0000 1.0000
58.9900 341.0000 1.0000
59.0000 352.0000 1.0000
59.0100 337.0000 1.0000
59.0200 355.0000 1.0000
59.0300 344.0000 1.0000
59.0400 356.0000 1.0000
59.0500 327.0000 1.0000
59.0600 364.0000 1.0000
59.0700 354.0000 1.0000
59.0800 347.0000 1.0000
59.0900 360.0000 1.0000
59.1000 344.0000 1.0000
59.1100 365.0000 1.0000
59.1200 353.0000 1.0000
59.1300 361.0000 1.0000
59.1400 371.0000 1.0000
59.1500 352.0000 1.0000
59.1600 330.0000 1.0000
59.1700 340.0000 1.0000
59.1800 347.0000 1.0000
59.1900 376.0000 1.0000
59.2000 385.0000 1.0000
59.2100 365.0000 1.0000
59.2200 379.0000 1.0000
59.2300 383.0000 1.0000
59.2400 369.0000 1.0000
59.2500 353.0000 1.0000
59.2600 372.0000 1.0000
59.2700 379.0000 1.0000
59.2800 368.0000 1.0000
59.2900 348.0000 1.0000
59.3000 374.0000 1.0000
59.3100 379.0000 1.0000
59.3200 397.0000 1.0000
59.3300 375.0000 1.0000
59.3400 346.0000 1.0000
59.3500 376.0000 1.0000
59.3600 360.0000 1.0000
59.3700 340.0000 1.0000
59.3800 367.0000 1.0000
59.3900 324.0000 1.0000
59.4000 332.0000 1.0000
59.4100 371.0000 1.0000
59.4200 336.0000 1.0000
59.4300 400.0000 1.0000
59.4400 371.0000 1.0000
59.4500 353.0000 1.0000
59.4600 367.0000 1.0000
59.4700 392.0000 1.0000
59.4800 356.0000 1.0000
59.4900 368.0000 1.0000
59.5000 334.0000 1.0000
59.5100 353.0000 1.0000
59.5200 360.0000 1.0000
59.5300 365.0000 1.0000
59.5400 368.0000 1.0000
59.5500 356.0000 1.0000
59.5600 350.0000 1.0000
59.5700 349.0000 1.0000
59.5800 362.0000 1.0000
59.5900 375.0000 1.0000
59.6000 389.0000 1.0000
59.6100 371.0000 1.0000
59.6200 353.0000 1.0000
59.6300 381.0000 1.0000
59.6400 399.0000 1.0000
59.6500 374.0000 1.0000
59.6600 324.0000 1.0000
59.6700 344.0000 1.0000
59.6800 352.0000 1.0000
59.6900 366.0000 1.0000
59.7000 341.0000 1.0000
59.7100 374.0000 1.0000
59.7200 341.0000 1.0000
59.7300 383.0000 1.0000
59.7400 365.0000 1.0000
59.7500 349.0000 1.0000
59.7600 354.0000 1.0000
59.7700 349.0000 1.0000
59.7800 338.0000 1.0000
59.7900 324.0000 1.0000
59.8000 347.0000 1.0000
59.8100 355.0000 1.0000
59.8200 381.0000 1.0000
59.8300 337.0000 1.0000
59.8400 353.0000 1.0000
59.8500 393.0000 1.0000
59.8600 351.0000 1.0000
59.8700 374.0000 1.0000
59.8800 366.0000 1.0000
59.8900 366.0000 1.0000
59.9000 385.0000 1.0000
59.9100 381.0000 1.0000
59.9200 387.0000 1.0000
59.9300 333.0000 1.0000
59.9400 339.0000 1.0000
59.9500 313.0000 1.0000
59.9600 351.0000 1.0000
59.9700 366.0000 1.0000
59.9800 352.0000 1.0000
59.9900 333.0000 1.0000
60.0000 342.0000 1.0000
60.0100 380.0000 1.0000
60.0200 393.0000 1.0000
60.0300 345.0000 1.0000
60.0400 351.0000 1.0000
60.0500 353.0000 1.0000
60.0600 338.0000 1.0000
60.0700 383.0000 1.0000
60.0800 363.0000 1.0000
60.0900 376.0000 1.0000
60.1000 392.0000 1.0000
60.1100 346.0000 1.0000
60.1200 355.0000 1.0000
60.1300 369.0000 1.0000
60.1400 329.0000 1.0000
60.1500 358.0000 1.0000
60.1600 363.0000 1.0000
60.1700 355.0000 1.0000
60.1800 357.0000 1.0000
60.1900 361.0000 1.0000
60.2000 361.0000 1.0000
60.2100 332.0000 1.0000
60.2200 366.0000 1.0000
60.2300 362.0000 1.0000
60.2400 347.0000 1.0000
60.2500 372.0000 1.0000
60.2600 370.0000 1.0000
60.2700 354.0000 1.0000
60.2800 397.0000 1.0000
60.2900 368.0000 1.0000
60.3000 354.0000 1.0000
60.3100 369.0000 1.0000
60.3200 367.0000 1.0000
60.3300 354.0000 1.0000
60.3400 375.0000 1.0000
60.3500 380.0000 1.0000
60.3600 369.0000 1.0000
60.3700 343.0000 1.0000
60.3800 361.0000 1.0000
60.3900 334.0000 1.0000
60.4000 335.0000 1.0000
60.4100 353.0000 1.0000
60.4200 355.0000 1.0000
60.4300 353.0000 1.0000
60.4400 345.0000 1.0000
60.4500 388.0000 1.0000
60.4600 383.0000 1.0000
60.4700 373.0000 1.0000
60.4800 352.0000 1.0000
60.4900 371.0000 1.0000
60.5000 370.0000 1.0000
60.5100 369.0000 1.0000
60.5200 359.0000 1.0000
60.5300 377.0000 1.0000
60.5400 346.0000 1.0000
60.5500 312.0000 1.0000
60.5600 374.0000 1.0000
60.5700 343.0000 1.0000
60.5800 353.0000 1.0000
60.5900 367.0000 1.0000
60.6000 347.0000 1.0000
60.6100 360.0000 1.0000
60.6200 357.0000 1.0000
60.6300 405.0000 1.0000
60.6400 365.0000 1.0000
60.6500 366.0000 1.0000
60.6600 348.0000 1.0000
60.6700 367.0000 1.0000
60.6800 390.0000 1.0000
60.6900 360.0000 1.0000
60.7000 352.0000 1.0000
60.7100 387.0000 1.0000
60.7200 362.0000 1.0000
60.7300 368.0000 1.0000
60.7400 384.0000 1.0000
60.7500 358.0000 1.0000
60.7600 340.0000 1.0000
60.7700 385.0000 1.0000
60.7800 396.0000 1.0000
60.7900 356.0000 1.0000
60.8000 397.0000 1.0000
60.8100 368.0000 1.0000
60.8200 357.0000 1.0000
60.8300 352.0000 1.0000
60.8400 350.0000 1.0000
60.8500 366.0000 1.0000
60.8600 342.0000 1.0000
60.8700 352.0000 1.0000
60.8800 380.0000 1.0000
60.8900 384.0000 1.0000
60.9000 363.0000 1.0000
60.9100 355.0000 1.0000
60.9200 366.0000 1.0000
60.9300 377.0000 1.0000
60.9400 377.0000 1.0000
60.9500 389.0000 1.0000
60.9600 378.0000 1.0000
60.9700 372.0000 1.0000
60.9800 375.0000 1.0000
60.9900 354.0000 1.0000
61.0000 366.0000 1.0000
61.0100 355.0000 1.0000
61.0200 396.0000 1.0000
61.0300 393.0000 1.0000
61.0400 396.0000 1.0000
61.0500 393.0000 1.0000
61.0600 376.0000 1.0000
61.0700 370.0000 1.0000
61.0800 413.0000 1.0000
61.0900 389.0000 1.0000
61.1000 379.0000 1.0000
61.1100 409.0000 1.0000
61.1200 403.0000 1.0000
61.1300 423.0000 1.0000
61.1400 391.0000 1.0000
61.1500 379.0000 1.0000
61.1600 417.0000 1.0000
61.1700 419.0000 1.0000
61.1800 416.0000 1.0000
61.1900 420.0000 1.0000
61.2000 437.0000 1.0000
61.2100 452.0000 1.0000
61.2200 444.0000 1.0000
61.2300 440.0000 1.0000
61.2400 463.0000 1.0000
61.2500 470.0000 1.0000
61.2600 482.0000 1.0000
61.2700 496.0000 1.0000
61.2800 484.0000 1.0000
61.2900 495.0000 1.0000
61.3000 504.0000 1.0000
61.3100 516.0000 1.0000
61.3200 567.0000 1.0000
61.3300 588.0000 1.0000
61.3400 555.0000 1.0000
61.3500 621.0000 1.0000
61.3600 597.0000 1.0000
61.3700 601.0000 1.0000
61.3800 648.0000 1.0000
61.3900 622.0000 1.0000
61.4000 670.0000 1.0000
61.4100 673.0000 1.0000
61.4200 716.0000 1.0000
61.4300 751.0000 1.0000
61.4400 682.0000 1.0000
61.4500 775.0000 1.0000
61.4600 796.0000 1.0000
61.4700 776.0000 1.0000
61.4800 778.0000 1.0000
61.4900 789.0000 1.0000
61.5000 776.0000 1.0000
61.5100 757.0000 1.0000
61.5200 795.0000 1.0000
61.5300 783.0000 1.0000
61.5400 798.0000 1.0000
61.5500 802.0000 1.0000
61.5600 794.0000 1.0000
61.5700 759.0000 1.0000
61.5800 787.0000 1.0000
61.5900 757.0000 1.0000
61.6000 786.0000 1.0000
61.6100 713.0000 1.0000
61.6200 745.0000 1.0000
61.6300 700.0000 1.0000
61.6400 728.0000 1.0000
61.6500 725.0000 1.0000
61.6600 724.0000 1.0000
61.6700 662.0000 1.0000
61.6800 676.0000 1.0000
61.6900 678.0000 1.0000
61.7000 623.0000 1.0000
61.7100 637.0000 1.0000
61.7200 658.0000 1.0000
61.7300 663.0000 1.0000
61.7400 611.0000 1.0000
61.7500 590.0000 1.0000
61.7600 589.0000 1.0000
61.7700 587.0000 1.0000
61.7800 570.0000 1.0000
61.7900 576.0000 1.0000
61.8000 516.0000 1.0000
61.8100 528.0000 1.0000
61.8200 530.0000 1.0000
61.8300 520.0000 1.0000
61.8400 510.0000 1.0000
61.8500 520.0000 1.0000
61.8600 503.0000 1.0000
61.8700 474.0000 1.0000
61.8800 462.0000 1.0000
61.8900 438.0000 1.0000
61.9000 457.0000 1.0000
61.9100 439.0000 1.0000
61.9200 466.0000 1.0000
61.9300 461.0000 1.0000
61.9400 419.0000 1.0000
61.9500 451.0000 1.0000
61.9600 461.0000 1.0000
61.9700 396.0000 1.0000
61.9800 416.0000 1.0000
61.9900 414.0000 1.0000
62.0000 426.0000 1.0000
62.0100 392.0000 1.0000
62.0200 407.0000 1.0000
62.0300 439.0000 1.0000
62.0400 380.0000 1.0000
62.0500 420.0000 1.0000
62.0600 419.0000 1.0000
62.0700 411.0000 1.0000
62.0800 396.0000 1.0000
62.0900 389.0000 1.0000
62.1000 365.0000 1.0000
62.1100 434.0000 1.0000
62.1200 418.0000 1.0000
62.1300 363.0000 1.0000
62.1400 390.0000 1.0000
62.1500 409.0000 1.0000
62.1600 371.0000 1.0000
62.1700 396.0000 1.0000
62.1800 399.0000 1.0000
62.1900 437.0000 1.0000
62.2000 403.0000 1.0000
62.2100 405.0000 1.0000
62.2200 412.0000 1.0000
62.2300 392.0000 1.0000
62.2400 391.0000 1.0000
62.2500 426.0000 1.0000
62.2600 371.0000 1.0000
62.2700 409.0000 1.0000
62.2800 399.0000 1.0000
62.2900 415.0000 1.0000
62.3000 394.0000 1.0000
62.3100 387.0000 1.0000
62.3200 424.0000 1.0000
62.3300 428.0000 1.0000
62.3400 385.0000 1.0000
62.3500 421.0000 1.0000
62.3600 403.0000 1.0000
62.3700 394.0000 1.0000
62.3800 386.0000 1.0000
62.3900 380.0000 1.0000
62.4000 411.0000 1.0000
62.4100 414.0000 1.0000
62.4200 376.0000 1.0000
62.4300 388.0000 1.0000
62.4400 394.0000 1.0000
62.4500 376.0000 1.0000
62.4600 386.0000 1.0000
62.4700 396.0000 1.0000
62.4800 390.0000 1.0000
62.4900 363.0000 1.0000
62.5000 383.0000 1.0000
62.5100 351.0000 1.0000
62.5200 346.0000 1.0000
62.5300 373.0000 1.0000
62.5400 402.0000 1.0000
62.5500 389.0000 1.0000
62.5600 340.0000 1.0000
62.5700 372.0000 1.0000
62.5800 379.0000 1.0000
62.5900 357.0000 1.0000
62.6000 344.0000 1.0000
62.6100 360.0000 1.0000
62.6200 373.0000 1.0000
62.6300 385.0000 1.0000
62.6400 360.0000 1.0000
62.6500 350.0000 1.0000
62.6600 347.0000 1.0000
62.6700 353.0000 1.0000
62.6800 336.0000 1.0000
62.6900 349.0000 1.0000
62.7000 371.0000 1.0000
62.7100 371.0000 1.0000
62.7200 368.0000 1.0000
62.7300 342.0000 1.0000
62.7400 362.0000 1.0000
62.7500 356.0000 1.0000
62.7600 369.0000 1.0000
62.7700 339.0000 1.0000
62.7800 361.0000 1.0000
62.7900 347.0000 1.0000
62.8000 323.0000 1.0000
62.8100 379.0000 1.0000
62.8200 376.0000 1.0000
62.8300 375.0000 1.0000
62.8400 377.0000 1.0000
62.8500 369.0000 1.0000
62.8600 380.0000 1.0000
62.8700 364.0000 1.0000
62.8800 361.0000 1.0000
62.8900 328.0000 1.0000
62.9000 347.0000 1.0000
62.9100 351.0000 1.0000
62.9200 346.0000 1.0000
62.9300 359.0000 1.0000
62.9400 378.0000 1.0000
62.9500 364.0000 1.0000
62.9600 361.0000 1.0000
62.9700 341.0000 1.0000
62.9800 334.0000 1.0000
62.9900 351.0000 1.0000
63.0000 367.0000 1.0000
63.0100 359.0000 1.0000
63.0200 373.0000 1.0000
63.0300 374.0000 1.0000
63.0400 357.0000 1.0000
63.0500 380.0000 1.0000
63.0600 356.0000 1.0000
63.0700 375.0000 1.0000
63.0800 379.0000 1.0000
63.0900 374.0000 1.0000
63.1000 372.0000 1.0000
63.1100 358.0000 1.0000
63.1200 362.0000 1.0000
63.1300 353.0000 1.0000
63.1400 344.0000 1.0000
63.1500 393.0000 1.0000
63.1600 365.0000 1.0000
63.1700 384.0000 1.0000
63.1800 363.0000 1.0000
63.1900 366.0000 1.0000
63.2000 376.0000 1.0000
63.2100 335.0000 1.0000
63.2200 377.0000 1.0000
63.2300 363.0000 1.0000
63.2400 369.0000 1.0000
63.2500 374.0000 1.0000
63.2600 353.0000 1.0000
63.2700 337.0000 1.0000
63.2800 380.0000 1.0000
63.2900 359.0000 1.0000
63.3000 377.0000 1.0000
63.3100 368.0000 1.0000
63.3200 340.0000 1.0000
63.3300 369.0000 1.0000
63.3400 364.0000 1.0000
63.3500 399.0000 1.0000
63.3600 346.0000 1.0000
63.3700 374.0000 1.0000
63.3800 365.0000 1.0000
63.3900 358.0000 1.0000
63.4000 343.0000 1.0000
63.4100 357.0000 1.0000
63.4200 365.0000 1.0000
63.4300 375.0000 1.0000
63.4400 379.0000 1.0000
63.4500 353.0000 1.0000
63.4600 312.0000 1.0000
63.4700 350.0000 1.0000
63.4800 357.0000 1.0000
63.4900 382.0000 1.0000
63.5000 356.0000 1.0000
63.5100 356.0000 1.0000
63.5200 370.0000 1.0000
63.5300 356.0000 1.0000
63.5400 340.0000 1.0000
63.5500 340.0000 1.0000
63.5600 350.0000 1.0000
63.5700 391.0000 1.0000
63.5800 390.0000 1.0000
63.5900 413.0000 1.0000
63.6000 360.0000 1.0000
63.6100 357.0000 1.0000
63.6200 369.0000 1.0000
63.6300 373.0000 1.0000
63.6400 392.0000 1.0000
63.6500 380.0000 1.0000
63.6600 381.0000 1.0000
63.6700 397.0000 1.0000
63.6800 390.0000 1.0000
63.6900 395.0000 1.0000
63.7000 426.0000 1.0000
63.7100 394.0000 1.0000
63.7200 377.0000 1.0000
63.7300 390.0000 1.0000
63.7400 425.0000 1.0000
63.7500 415.0000 1.0000
63.7600 414.0000 1.0000
63.7700 405.0000 1.0000
63.7800 424.0000 1.0000
63.7900 462.0000 1.0000
63.8000 478.0000 1.0000
63.8100 470.0000 1.0000
63.8200 461.0000 1.0000
63.8300 485.0000 1.0000
63.8400 518.0000 1.0000
63.8500 520.0000 1.0000
63.8600 535.0000 1.0000
63.8700 561.0000 1.0000
63.8800 581.0000 1.0000
63.8900 562.0000 1.0000
63.9000 599.0000 1.0000
63.9100 569.0000 1.0000
63.9200 563.0000 1.0000
63.9300 554.0000 1.0000
63.9400 536.0000 1.0000
63.9500 552.0000 1.0000
63.9600 525.0000 1.0000
63.9700 511.0000 1.0000
63.9800 509.0000 1.0000
63.9900 516.0000 1.0000
64.0000 494.0000 1.0000
64.0100 480.0000 1.0000
64.0200 510.0000 1.0000
64.0300 506.0000 1.0000
64.0400 543.0000 1.0000
64.0500 560.0000 1.0000
64.0600 497.0000 1.0000
64.0700 490.0000 1.0000
64.0800 513.0000 1.0000
64.0900 500.0000 1.0000
64.1000 527.0000 1.0000
64.1100 479.0000 1.0000
64.1200 465.0000 1.0000
64.1300 480.0000 1.0000
64.1400 482.0000 1.0000
64.1500 474.0000 1.0000
64.1600 458.0000 1.0000
64.1700 412.0000 1.0000
64.1800 405.0000 1.0000
64.1900 415.0000 1.0000
64.2000 414.0000 1.0000
64.2100 407.0000 1.0000
64.2200 422.0000 1.0000
64.2300 399.0000 1.0000
64.2400 412.0000 1.0000
64.2500 396.0000 1.0000
64.2600 394.0000 1.0000
64.2700 403.0000 1.0000
64.2800 386.0000 1.0000
64.2900 398.0000 1.0000
64.3000 375.0000 1.0000
64.3100 379.0000 1.0000
64.3200 407.0000 1.0000
64.3300 349.0000 1.0000
64.3400 376.0000 1.0000
64.3500 404.0000 1.0000
64.3600 387.0000 1.0000
64.3700 401.0000 1.0000
64.3800 411.0000 1.0000
64.3900 418.0000 1.0000
64.4000 360.0000 1.0000
64.4100 378.0000 1.0000
64.4200 368.0000 1.0000
64.4300 401.0000 1.0000
64.4400 390.0000 1.0000
64.4500 371.0000 1.0000
64.4600 376.0000 1.0000
64.4700 375.0000 1.0000
64.4800 368.0000 1.0000
64.4900 351.0000 1.0000
64.5000 367.0000 1.0000
64.5100 352.0000 1.0000
64.5200 348.0000 1.0000
64.5300 356.0000 1.0000
64.5400 365.0000 1.0000
64.5500 377.0000 1.0000
64.5600 347.0000 1.0000
64.5700 374.0000 1.0000
64.5800 344.0000 1.0000
64.5900 358.0000 1.0000
64.6000 368.0000 1.0000
64.6100 359.0000 1.0000
64.6200 366.0000 1.0000
64.6300 376.0000 1.0000
64.6400 379.0000 1.0000
64.6500 377.0000 1.0000
64.6600 379.0000 1.0000
64.6700 353.0000 1.0000
64.6800 358.0000 1.0000
64.6900 375.0000 1.0000
64.7000 405.0000 1.0000
64.7100 361.0000 1.0000
64.7200 351.0000 1.0000
64.7300 381.0000 1.0000
64.7400 377.0000 1.0000
64.7500 368.0000 1.0000
64.7600 369.0000 1.0000
64.7700 401.0000 1.0000
64.7800 353.0000 1.0000
64.7900 380.0000 1.0000
64.8000 392.0000 1.0000
64.8100 384.0000 1.0000
64.8200 366.0000 1.0000
64.8300 362.0000 1.0000
64.8400 372.0000 1.0000
64.8500 385.0000 1.0000
64.8600 392.0000 1.0000
64.8700 383.0000 1.0000
64.8800 379.0000 1.0000
64.8900 368.0000 1.0000
64.9000 393.0000 1.0000
64.9100 378.0000 1.0000
64.9200 385.0000 1.0000
64.9300 394.0000 1.0000
64.9400 387.0000 1.0000
64.9500 382.0000 1.0000
64.9600 354.0000 1.0000
64.9700 391.0000 1.0000
64.9800 393.0000 1.0000
64.9900 368.0000 1.0000
65.0000 365.0000 1.0000
65.0100 339.0000 1.0000
65.0200 384.0000 1.0000
65.0300 388.0000 1.0000
65.0400 416.0000 1.0000
65.0500 426.0000 1.0000
65.0600 419.0000 1.0000
65.0700 392.0000 1.0000
65.0800 414.0000 1.0000
65.0900 425.0000 1.0000
65.1000 442.0000 1.0000
65.1100 463.0000 1.0000
65.1200 467.0000 1.0000
65.1300 459.0000 1.0000
65.1400 415.0000 1.0000
65.1500 428.0000 1.0000
65.1600 449.0000 1.0000
65.1700 439.0000 1.0000
65.1800 479.0000 1.0000
65.1900 472.0000 1.0000
65.2000 478.0000 1.0000
65.2100 497.0000 1.0000
65.2200 529.0000 1.0000
65.2300 520.0000 1.0000
65.2400 559.0000 1.0000
65.2500 585.0000 1.0000
65.2600 552.0000 1.0000
65.2700 523.0000 1.0000
65.2800 580.0000 1.0000
65.2900 617.0000 1.0000
65.3000 656.0000 1.0000
65.3100 655.0000 1.0000
65.3200 672.0000 1.0000
65.3300 701.0000 1.0000
65.3400 726.0000 1.0000
65.3500 758.0000 1.0000
65.3600 792.0000 1.0000
65.3700 848.0000 1.0000
65.3800 874.0000 1.0000
65.3900 896.0000 1.0000
65.4000 944.0000 1.0000
65.4100 982.0000 1.0000
65.4200 986.0000 1.0000
65.4300 1162.0000 1.0000
65.4400 1135.0000 1.0000
65.4500 1162.0000 1.0000
65.4600 1230.0000 1.0000
65.4700 1194.0000 1.0000
65.4800 1243.0000 1.0000
65.4900 1253.0000 1.0000
65.5000 1237.0000 1.0000
65.5100 1278.0000 1.0000
65.5200 1256.0000 1.0000
65.5300 1290.0000 1.0000
65.5400 1302.0000 1.0000
65.5500 1322.0000 1.0000
65.5600 1279.0000 1.0000
65.5700 1225.0000 1.0000
65.5800 1196.0000 1.0000
65.5900 1231.0000 1.0000
65.6000 1195.0000 1.0000
65.6100 1147.0000 1.0000
65.6200 1154.0000 1.0000
65.6300 1124.0000 1.0000
65.6400 1098.0000 1.0000
65.6500 1107.0000 1.0000
65.6600 1067.0000 1.0000
65.6700 1071.0000 1.0000
65.6800 989.0000 1.0000
65.6900 990.0000 1.0000
65.7000 1000.0000 1.0000
65.7100 946.0000 1.0000
65.7200 909.0000 1.0000
65.7300 933.0000 1.0000
65.7400 894.0000 1.0000
65.7500 894.0000 1.0000
65.7600 830.0000 1.0000
65.7700 851.0000 1.0000
65.7800 773.0000 1.0000
65.7900 711.0000 1.0000
65.8000 655.0000 1.0000
65.8100 684.0000 1.0000
65.8200 648.0000 1.0000
65.8300 685.0000 1.0000
65.8400 621.0000 1.0000
65.8500 538.0000 1.0000
65.8600 585.0000 1.0000
65.8700 550.0000 1.0000
65.8800 554.0000 1.0000
65.8900 535.0000 1.0000
65.9000 518.0000 1.0000
65.9100 496.0000 1.0000
65.9200 505.0000 1.0000
65.9300 486.0000 1.0000
65.9400 478.0000 1.0000
65.9500 441.0000 1.0000
65.9600 466.0000 1.0000
65.9700 471.0000 1.0000
65.9800 474.0000 1.0000
65.9900 471.0000 1.0000
66.0000 440.0000 1.0000
66.0100 433.0000 1.0000
66.0200 412.0000 1.0000
66.0300 411.0000 1.0000
66.0400 394.0000 1.0000
66.0500 399.0000 1.0000
66.0600 422.0000 1.0000
66.0700 385.0000 1.0000
66.0800 391.0000 1.0000
66.0900 414.0000 1.0000
66.1000 409.0000 1.0000
66.1100 388.0000 1.0000
66.1200 391.0000 1.0000
66.1300 386.0000 1.0000
66.1400 352.0000 1.0000
66.1500 377.0000 1.0000
66.1600 356.0000 1.0000
66.1700 385.0000 1.0000
66.1800 382.0000 1.0000
66.1900 347.0000 1.0000
66.2000 369.0000 1.0000
66.2100 363.0000 1.0000
66.2200 331.0000 1.0000
66.2300 336.0000 1.0000
66.2400 356.0000 1.0000
66.2500 357.0000 1.0000
66.2600 345.0000 1.0000
66.2700 372.0000 1.0000
66.2800 351.0000 1.0000
66.2900 391.0000 1.0000
66.3000 378.0000 1.0000
66.3100 364.0000 1.0000
66.3200 352.0000 1.0000
66.3300 341.0000 1.0000
66.3400 340.0000 1.0000
66.3500 316.0000 1.0000
66.3600 349.0000 1.0000
66.3700 348.0000 1.0000
66.3800 342.0000 1.0000
66.3900 368.0000 1.0000
66.4000 363.0000 1.0000
66.4100 355.0000 1.0000
66.4200 338.0000 1.0000
66.4300 318.0000 1.0000
66.4400 333.0000 1.0000
66.4500 329.0000 1.0000
66.4600 326.0000 1.0000
66.4700 345.0000 1.0000
66.4800 332.0000 1.0000
66.4900 342.0000 1.0000
66.5000 321.0000 1.0000
66.5100 331.0000 1.0000
66.5200 360.0000 1.0000
66.5300 318.0000 1.0000
66.5400 355.0000 1.0000
66.5500 322.0000 1.0000
66.5600 351.0000 1.0000
66.5700 349.0000 1.0000
66.5800 362.0000 1.0000
66.5900 358.0000 1.0000
66.6000 324.0000 1.0000
66.6100 339.0000 1.0000
66.6200 329.0000 1.0000
66.6300 353.0000 1.0000
66.6400 351.0000 1.0000
66.6500 332.0000 1.0000
66.6600 349.0000 1.0000
66.6700 354.0000 1.0000
66.6800 355.0000 1.0000
66.6900 312.0000 1.0000
66.7000 343.0000 1.0000
66.7100 343.0000 1.0000
66.7200 340.0000 1.0000
66.7300 335.0000 1.0000
66.7400 331.0000 1.0000
66.7500 336.0000 1.0000
66.7600 335.0000 1.0000
66.7700 351.0000 1.0000
66.7800 342.0000 1.0000
66.7900 373.0000 1.0000
66.8000 322.0000 1.0000
66.8100 315.0000 1.0000
66.8200 345.0000 1.0000
66.8300 351.0000 1.0000
66.8400 323.0000 1.0000
66.8500 341.0000 1.0000
66.8600 335.0000 1.0000
66.8700 322.0000 1.0000
66.8800 334.0000 1.0000
66.8900 330.0000 1.0000
66.9000 351.0000 1.0000
66.9100 328.0000 1.0000
66.9200 332.0000 1.0000
66.9300 360.0000 1.0000
66.9400 326.0000 1.0000
66.9500 327.0000 1.0000
66.9600 317.0000 1.0000
66.9700 355.0000 1.0000
66.9800 351.0000 1.0000
66.9900 336.0000 1.0000
67.0000 360.0000 1.0000
67.0100 370.0000 1.0000
67.0200 357.0000 1.0000
67.0300 325.0000 1.0000
67.0400 335.0000 1.0000
67.0500 334.0000 1.0000
67.0600 304.0000 1.0000
67.0700 313.0000 1.0000
67.0800 326.0000 1.0000
67.0900 345.0000 1.0000
67.1000 327.0000 1.0000
67.1100 336.0000 1.0000
67.1200 320.0000 1.0000
67.1300 323.0000 1.0000
67.1400 318.0000 1.0000
67.1500 337.0000 1.0000
67.1600 343.0000 1.0000
67.1700 362.0000 1.0000
67.1800 319.0000 1.0000
67.1900 321.0000 1.0000
67.2000 322.0000 1.0000
67.2100 301.0000 1.0000
67.2200 358.0000 1.0000
67.2300 317.0000 1.0000
67.2400 310.0000 1.0000
67.2500 316.0000 1.0000
67.2600 312.0000 1.0000
67.2700 308.0000 1.0000
67.2800 309.0000 1.0000
67.2900 347.0000 1.0000
67.3000 373.0000 1.0000
67.3100 328.0000 1.0000
67.3200 311.0000 1.0000
67.3300 309.0000 1.0000
67.3400 331.0000 1.0000
67.3500 310.0000 1.0000
67.3600 321.0000 1.0000
67.3700 330.0000 1.0000
67.3800 327.0000 1.0000
67.3900 344.0000 1.0000
67.4000 333.0000 1.0000
67.4100 314.0000 1.0000
67.4200 308.0000 1.0000
67.4300 323.0000 1.0000
67.4400 345.0000 1.0000
67.4500 289.0000 1.0000
67.4600 338.0000 1.0000
67.4700 311.0000 1.0000
67.4800 362.0000 1.0000
67.4900 330.0000 1.0000
67.5000 344.0000 1.0000
67.5100 351.0000 1.0000
67.5200 326.0000 1.0000
67.5300 325.0000 1.0000
67.5400 315.0000 1.0000
67.5500 327.0000 1.0000
67.5600 302.0000 1.0000
67.5700 285.0000 1.0000
67.5800 309.0000 1.0000
67.5900 317.0000 1.0000
67.6000 323.0000 1.0000
67.6100 342.0000 1.0000
67.6200 303.0000 1.0000
67.6300 319.0000 1.0000
67.6400 314.0000 1.0000
67.6500 319.0000 1.0000
67.6600 328.0000 1.0000
67.6700 319.0000 1.0000
67.6800 322.0000 1.0000
67.6900 302.0000 1.0000
67.7000 335.0000 1.0000
67.7100 341.0000 1.0000
67.7200 337.0000 1.0000
67.7300 318.0000 1.0000
67.7400 329.0000 1.0000
67.7500 332.0000 1.0000
67.7600 332.0000 1.0000
67.7700 358.0000 1.0000
67.7800 325.0000 1.0000
67.7900 307.0000 1.0000
67.8000 310.0000 1.0000
67.8100 305.0000 1.0000
67.8200 313.0000 1.0000
67.8300 315.0000 1.0000
67.8400 340.0000 1.0000
67.8500 329.0000 1.0000
67.8600 309.0000 1.0000
67.8700 311.0000 1.0000
67.8800 328.0000 1.0000
67.8900 312.0000 1.0000
67.9000 336.0000 1.0000
67.9100 331.0000 1.0000
67.9200 317.0000 1.0000
67.9300 318.0000 1.0000
67.9400 318.0000 1.0000
67.9500 307.0000 1.0000
67.9600 328.0000 1.0000
67.9700 321.0000 1.0000
67.9800 322.0000 1.0000
67.9900 309.0000 1.0000
68.0000 313.0000 1.0000
68.0100 325.0000 1.0000
68.0200 344.0000 1.0000
68.0300 318.0000 1.0000
68.0400 320.0000 1.0000
68.0500 312.0000 1.0000
68.0600 309.0000 1.0000
68.0700 319.0000 1.0000
68.0800 314.0000 1.0000
68.0900 312.0000 1.0000
68.1000 298.0000 1.0000
68.1100 319.0000 1.0000
68.1200 332.0000 1.0000
68.1300 321.0000 1.0000
68.1400 314.0000 1.0000
68.1500 322.0000 1.0000
68.1600 329.0000 1.0000
68.1700 352.0000 1.0000
68.1800 335.0000 1.0000
68.1900 321.0000 1.0000
68.2000 323.0000 1.0000
68.2100 317.0000 1.0000
68.2200 283.0000 1.0000
68.2300 303.0000 1.0000
68.2400 286.0000 1.0000
68.2500 314.0000 1.0000
68.2600 295.0000 1.0000
68.2700 334.0000 1.0000
68.2800 304.0000 1.0000
68.2900 300.0000 1.0000
68.3000 324.0000 1.0000
68.3100 353.0000 1.0000
68.3200 327.0000 1.0000
68.3300 326.0000 1.0000
68.3400 323.0000 1.0000
68.3500 303.0000 1.0000
68.3600 330.0000 1.0000
68.3700 312.0000 1.0000
68.3800 328.0000 1.0000
68.3900 303.0000 1.0000
68.4000 303.0000 1.0000
68.4100 306.0000 1.0000
68.4200 298.0000 1.0000
68.4300 329.0000 1.0000
68.4400 318.0000 1.0000
68.4500 294.0000 1.0000
68.4600 317.0000 1.0000
68.4700 325.0000 1.0000
68.4800 312.0000 1.0000
68.4900 326.0000 1.0000
68.5000 310.0000 1.0000
68.5100 323.0000 1.0000
68.5200 294.0000 1.0000
68.5300 303.0000 1.0000
68.5400 309.0000 1.0000
68.5500 308.0000 1.0000
68.5600 319.0000 1.0000
68.5700 312.0000 1.0000
68.5800 318.0000 1.0000
68.5900 332.0000 1.0000
68.6000 308.0000 1.0000
68.6100 299.0000 1.0000
68.6200 313.0000 1.0000
68.6300 322.0000 1.0000
68.6400 331.0000 1.0000
68.6500 340.0000 1.0000
68.6600 305.0000 1.0000
68.6700 304.0000 1.0000
68.6800 301.0000 1.0000
68.6900 298.0000 1.0000
68.7000 322.0000 1.0000
68.7100 323.0000 1.0000
68.7200 336.0000 1.0000
68.7300 284.0000 1.0000
68.7400 319.0000 1.0000
68.7500 334.0000 1.0000
68.7600 338.0000 1.0000
68.7700 305.0000 1.0000
68.7800 326.0000 1.0000
68.7900 291.0000 1.0000
68.8000 323.0000 1.0000
68.8100 360.0000 1.0000
68.8200 344.0000 1.0000
68.8300 340.0000 1.0000
68.8400 320.0000 1.0000
68.8500 330.0000 1.0000
68.8600 323.0000 1.0000
68.8700 299.0000 1.0000
68.8800 316.0000 1.0000
68.8900 303.0000 1.0000
68.9000 317.0000 1.0000
68.9100 320.0000 1.0000
68.9200 320.0000 1.0000
68.9300 315.0000 1.0000
68.9400 315.0000 1.0000
68.9500 324.0000 1.0000
68.9600 308.0000 1.0000
68.9700 309.0000 1.0000
68.9800 322.0000 1.0000
68.9900 318.0000 1.0000
69.0000 321.0000 1.0000
69.0100 324.0000 1.0000
69.0200 305.0000 1.0000
69.0300 332.0000 1.0000
69.0400 307.0000 1.0000
69.0500 280.0000 1.0000
69.0600 312.0000 1.0000
69.0700 301.0000 1.0000
69.0800 281.0000 1.0000
69.0900 301.0000 1.0000
69.1000 311.0000 1.0000
69.1100 319.0000 1.0000
69.1200 307.0000 1.0000
69.1300 311.0000 1.0000
69.1400 300.0000 1.0000
69.1500 305.0000 1.0000
69.1600 294.0000 1.0000
69.1700 319.0000 1.0000
69.1800 295.0000 1.0000
69.1900 299.0000 1.0000
69.2000 310.0000 1.0000
69.2100 305.0000 1.0000
69.2200 308.0000 1.0000
69.2300 326.0000 1.0000
69.2400 288.0000 1.0000
69.2500 304.0000 1.0000
69.2600 329.0000 1.0000
69.2700 309.0000 1.0000
69.2800 323.0000 1.0000
69.2900 320.0000 1.0000
69.3000 314.0000 1.0000
69.3100 304.0000 1.0000
69.3200 344.0000 1.0000
69.3300 318.0000 1.0000
69.3400 324.0000 1.0000
69.3500 289.0000 1.0000
69.3600 300.0000 1.0000
69.3700 316.0000 1.0000
69.3800 325.0000 1.0000
69.3900 292.0000 1.0000
69.4000 310.0000 1.0000
69.4100 284.0000 1.0000
69.4200 303.0000 1.0000
69.4300 322.0000 1.0000
69.4400 300.0000 1.0000
69.4500 314.0000 1.0000
69.4600 302.0000 1.0000
69.4700 286.0000 1.0000
69.4800 305.0000 1.0000
69.4900 307.0000 1.0000
69.5000 308.0000 1.0000
69.5100 317.0000 1.0000
69.5200 314.0000 1.0000
69.5300 304.0000 1.0000
69.5400 310.0000 1.0000
69.5500 287.0000 1.0000
69.5600 330.0000 1.0000
69.5700 329.0000 1.0000
69.5800 328.0000 1.0000
69.5900 315.0000 1.0000
69.6000 308.0000 1.0000
69.6100 300.0000 1.0000
69.6200 290.0000 1.0000
69.6300 304.0000 1.0000
69.6400 315.0000 1.0000
69.6500 313.0000 1.0000
69.6600 328.0000 1.0000
69.6700 323.0000 1.0000
69.6800 318.0000 1.0000
69.6900 310.0000 1.0000
69.7000 308.0000 1.0000
69.7100 288.0000 1.0000
69.7200 306.0000 1.0000
69.7300 331.0000 1.0000
69.7400 301.0000 1.0000
69.7500 310.0000 1.0000
69.7600 293.0000 1.0000
69.7700 290.0000 1.0000
69.7800 297.0000 1.0000
69.7900 320.0000 1.0000
69.8000 335.0000 1.0000
69.8100 304.0000 1.0000
69.8200 310.0000 1.0000
69.8300 319.0000 1.0000
69.8400 314.0000 1.0000
69.8500 306.0000 1.0000
69.8600 317.0000 1.0000
69.8700 306.0000 1.0000
69.8800 262.0000 1.0000
69.8900 306.0000 1.0000
69.9000 315.0000 1.0000
69.9100 299.0000 1.0000
69.9200 328.0000 1.0000
69.9300 318.0000 1.0000
69.9400 300.0000 1.0000
69.9500 303.0000 1.0000
69.9600 281.0000 1.0000
69.9700 252.0000 1.0000
69.9800 304.0000 1.0000
69.9900 272.0000 1.0000
70.0000 297.0000 1.0000
*RAS_INT_END
*RAS_TEMPERATURE_START
*RAS_TEMPERATURE_END
*RAS_DATA_END
