*RAS_DATA_START
*RAS_HEADER_START
*DISP_FMT_X "%.2f"
*DISP_FMT_Y "%.0f"
*DISP_FULLSCALE "12960.0000000000"
*DISP_LINE_COLOR "255.0000000000"
*DISP_LINE_STYLE "0.0000000000"
*DISP_LINE_WIDTH "0.2500000000"
*DISP_NOTE "測定データ-4"
*DISP_OFFSET_Y "0.0000000000"
*DISP_PEAKSEARCH_UNIT_Y "cps"
*DISP_RANGE_BOTTOM "0.0000000000"
*DISP_RANGE_LEFT "20.0000000000"
*DISP_RANGE_LOGCUTOFF "0.0100000000"
*DISP_RANGE_RIGHT "70.0000000000"
*DISP_RANGE_TOP "12960.0000000000"
*DISP_SCALE_MODE_Y "0.0000000000"
*DISP_TAB_NAME "2θ/θ"
*DISP_TITLE_Y "強度"
*DISP_UNIT_Y "cps"
*DISP_WINDOW_NAME "MSG_MACROENGINE"
*FILE_COMMENT " "
*FILE_MD5 ""
*FILE_MEMO " "
*FILE_OPERATOR "Administrator"
*FILE_SAMPLE " "
*FILE_TYPE "RAS_RAW"
*FILE_USERGROUP "システムマネージャ"
*FILE_VERSION "1.0000000000"
*HW_ATTACHMENT_ID "ATT0025"
*HW_ATTACHMENT_NAME "標準|Standard"
*HW_COUNTER_ID-0 "CUT0025"
*HW_COUNTER_ID-1 "CUT0020"
*HW_COUNTER_ID-2 "CUT0020"
*HW_COUNTER_ID-3 "CSL0021"
*HW_COUNTER_ID-4 "CMC0021"
*HW_COUNTER_NAME-0 "D/teX Ultra|D/teX Ultra"
*HW_COUNTER_NAME-1 "None|None"
*HW_COUNTER_NAME-2 "None|None"
*HW_COUNTER_NAME-3 "BBM|BBM"
*HW_COUNTER_NAME-4 "検出器モノクロメータ|Detector monochromator"
*HW_COUNTER_SELECT_NAME "D/teX Ultra|D/teX Ultra"
*HW_GONIOMETER_ID "GON0023"
*HW_GONIOMETER_NAME "SmartLab|SmartLab"
*HW_GONIOMETER_RADIUS-0 "90.0"
*HW_GONIOMETER_RADIUS-1 "114.0"
*HW_GONIOMETER_RADIUS-2 "190.0"
*HW_GONIOMETER_RADIUS-3 "300.0"
*HW_GONIOMETER_RADIUS-4 "187.0"
*HW_GONIOMETER_RADIUS-5 "300.0"
*HW_GONIOMETER_RADIUS-6 "113.0"
*HW_GONIOMETER_RADIUS-7 "331.0"
*HW_I_OPT_ID-0 "CBO0021"
*HW_I_OPT_ID-1 "ICR0023"
*HW_I_OPT_ID-2 "ISL0021"
*HW_I_OPT_ID-3 "ISO0021"
*HW_I_OPT_ID-4 "IAD0021"
*HW_I_OPT_ID-5 "IPR0001"
*HW_I_OPT_NAME-0 "CBOユニット|CBO unit"
*HW_I_OPT_NAME-1 "標準入射光学ユニット|Standard incident optical unit"
*HW_I_OPT_NAME-2 "標準入射スリットボックス|Standard incident slit box"
*HW_I_OPT_NAME-3 "入射平行スリット|Incident parallel slit"
*HW_I_OPT_NAME-4 "長手制限スリット|Length limiting slit"
*HW_I_OPT_NAME-5 "None|None"
*HW_R_ATTENUATER_AUTOMODE "0"
*HW_R_OPT_ID-0 "RSS0021"
*HW_R_OPT_ID-1 "RCR0023"
*HW_R_OPT_ID-2 "RSO0021"
*HW_R_OPT_ID-3 "RRS0021"
*HW_R_OPT_ID-4 "ATN0021"
*HW_R_OPT_ID-5 "RFL0021"
*HW_R_OPT_ID-6 "RAD0021"
*HW_R_OPT_NAME-0 "標準受光スリットボックス1|Standard receiving slit box # 1"
*HW_R_OPT_NAME-1 "標準受光光学ユニット1|Standard receiving unit # 1"
*HW_R_OPT_NAME-2 "標準受光光学ユニット2|Standard receiving optical unit # 2"
*HW_R_OPT_NAME-3 "標準受光スリットボックス2|Standard receiving slit box # 2"
*HW_R_OPT_NAME-4 "標準アッテネータ|Standard Attenuator"
*HW_R_OPT_NAME-5 "Cu Kβ|Cu K-beta"
*HW_R_OPT_NAME-6 "調整用受光スリット|Alignment receiving slit"
*HW_SAMPLE_HOLDER_ID "SMP0023"
*HW_SAMPLE_HOLDER_NAME "標準Zステージ|Standard Z stage"
*HW_XG_CURRENT_MAX "50"
*HW_XG_CURRENT_MIN "2"
*HW_XG_CURRENT_RESOLUTION "1"
*HW_XG_CURRENT_UNIT "mA"
*HW_XG_FOCUS "1mm x 10mm"
*HW_XG_FOCUS_TYPE "Normal"
*HW_XG_ID ""
*HW_XG_NAME "3kW 封入管(ID:1200)|3kW Sealed tube(ID:1200)"
*HW_XG_TARGET_ATOMIC_NUMBER "29.0000000000"
*HW_XG_TARGET_NAME "Cu"
*HW_XG_TYPE "Hermetic"
*HW_XG_VOLTAGE_MAX "60"
*HW_XG_VOLTAGE_MIN "20"
*HW_XG_VOLTAGE_RESOLUTION "1"
*HW_XG_VOLTAGE_UNIT "kV"
*HW_XG_WATT_MAX "1.500"
*HW_XG_WATT_UNIT "kW"
*HW_XG_WAVE_LENGTH_ALPHA1 "1.540593"
*HW_XG_WAVE_LENGTH_ALPHA2 "1.544414"
*HW_XG_WAVE_LENGTH_BETA "1.392250"
*MEAS_COND_AXIS_NAME-0 "2θ/θ"
*MEAS_COND_AXIS_NAME-1 "2θ"
*MEAS_COND_AXIS_NAME-2 "ω"
*MEAS_COND_AXIS_NAME-3 "Z"
*MEAS_COND_AXIS_NAME-4 "2θ/ω"
*MEAS_COND_AXIS_NAME-5 "θs"
*MEAS_COND_AXIS_NAME-6 "θd"
*MEAS_COND_AXIS_NAME-7 "Ts"
*MEAS_COND_AXIS_NAME-8 "CBO選択スリット"
*MEAS_COND_AXIS_NAME-9 "M"
*MEAS_COND_AXIS_NAME-10 "入射平行スリット"
*MEAS_COND_AXIS_NAME-11 "入射スリット"
*MEAS_COND_AXIS_NAME-12 ""
*MEAS_COND_AXIS_NAME-13 "Zs"
*MEAS_COND_AXIS_NAME-14 "入射光学素子"
*MEAS_COND_AXIS_NAME-15 "長手制限スリット"
*MEAS_COND_AXIS_NAME-16 "センタースリット"
*MEAS_COND_AXIS_NAME-17 "フィルター"
*MEAS_COND_AXIS_NAME-18 "受光スリット1"
*MEAS_COND_AXIS_NAME-19 "受光スリット2"
*MEAS_COND_AXIS_NAME-20 "受光光学素子"
*MEAS_COND_AXIS_NAME-21 "受光平行スリット"
*MEAS_COND_AXIS_NAME-22 "調整用受光スリット"
*MEAS_COND_AXIS_NAME-23 ""
*MEAS_COND_AXIS_NAME-24 ""
*MEAS_COND_AXIS_NAME-25 "Zd"
*MEAS_COND_AXIS_NAME-26 "アッテネータ"
*MEAS_COND_AXIS_NAME-27 "検出器モノクロメータ"
*MEAS_COND_AXIS_NAME-28 "モノクロメータスリット"
*MEAS_COND_AXIS_NAME-29 "プライマリビーム"
*MEAS_COND_AXIS_NAME-30 "PHA"
*MEAS_COND_AXIS_NAME_INTERNAL-0 "TwoThetaTheta"
*MEAS_COND_AXIS_NAME_INTERNAL-1 "TwoTheta"
*MEAS_COND_AXIS_NAME_INTERNAL-2 "Omega"
*MEAS_COND_AXIS_NAME_INTERNAL-3 "Z"
*MEAS_COND_AXIS_NAME_INTERNAL-4 "TwoThetaOmega"
*MEAS_COND_AXIS_NAME_INTERNAL-5 "ThetaS"
*MEAS_COND_AXIS_NAME_INTERNAL-6 "ThetaD"
*MEAS_COND_AXIS_NAME_INTERNAL-7 "Ts"
*MEAS_COND_AXIS_NAME_INTERNAL-8 "CBO"
*MEAS_COND_AXIS_NAME_INTERNAL-9 "CBO-M"
*MEAS_COND_AXIS_NAME_INTERNAL-10 "IncidentSollerSlit"
*MEAS_COND_AXIS_NAME_INTERNAL-11 "IncidentSlitBox"
*MEAS_COND_AXIS_NAME_INTERNAL-12 "IncidentSlitBox-_Axis"
*MEAS_COND_AXIS_NAME_INTERNAL-13 "Zs"
*MEAS_COND_AXIS_NAME_INTERNAL-14 "IncidentMonochromator"
*MEAS_COND_AXIS_NAME_INTERNAL-15 "IncidentAxdSlit"
*MEAS_COND_AXIS_NAME_INTERNAL-16 "CenterSlit"
*MEAS_COND_AXIS_NAME_INTERNAL-17 "Filter"
*MEAS_COND_AXIS_NAME_INTERNAL-18 "ReceivingSlitBox1"
*MEAS_COND_AXIS_NAME_INTERNAL-19 "ReceivingSlitBox2"
*MEAS_COND_AXIS_NAME_INTERNAL-20 "ReceivingOptics"
*MEAS_COND_AXIS_NAME_INTERNAL-21 "ReceivingSollerSlit"
*MEAS_COND_AXIS_NAME_INTERNAL-22 "ReceivingAxdSlit"
*MEAS_COND_AXIS_NAME_INTERNAL-23 "ReceivingSlitBox1-_Axis"
*MEAS_COND_AXIS_NAME_INTERNAL-24 "ReceivingSlitBox2-_Axis"
*MEAS_COND_AXIS_NAME_INTERNAL-25 "ReceivingSlitBox2-Zd"
*MEAS_COND_AXIS_NAME_INTERNAL-26 "Attenuator"
*MEAS_COND_AXIS_NAME_INTERNAL-27 "CounterMonochromator"
*MEAS_COND_AXIS_NAME_INTERNAL-28 "CounterSlit"
*MEAS_COND_AXIS_NAME_INTERNAL-29 "IncidentPrimary"
*MEAS_COND_AXIS_NAME_INTERNAL-30 "PHA"
*MEAS_COND_AXIS_NAME_MAGICNO-0 "83951616.0000000000"
*MEAS_COND_AXIS_NAME_MAGICNO-1 "268632064.0000000000"
*MEAS_COND_AXIS_NAME_MAGICNO-2 "268500992.0000000000"
*MEAS_COND_AXIS_NAME_MAGICNO-3 "285278208.0000000000"
*MEAS_COND_AXIS_NAME_MAGICNO-4 "83951616.0000000000"
*MEAS_COND_AXIS_NAME_MAGICNO-5 "131072.0000000000"
*MEAS_COND_AXIS_NAME_MAGICNO-6 "131072.0000000000"
*MEAS_COND_AXIS_NAME_MAGICNO-7 "318898176.0000000000"
*MEAS_COND_AXIS_NAME_MAGICNO-8 "20971521.0000000000"
*MEAS_COND_AXIS_NAME_MAGICNO-9 "285343744.0000000000"
*MEAS_COND_AXIS_NAME_MAGICNO-10 "20971521.0000000000"
*MEAS_COND_AXIS_NAME_MAGICNO-11 "22020097.0000000000"
*MEAS_COND_AXIS_NAME_MAGICNO-12 "25165824.0000000000"
*MEAS_COND_AXIS_NAME_MAGICNO-13 "318898176.0000000000"
*MEAS_COND_AXIS_NAME_MAGICNO-14 "1.0000000000"
*MEAS_COND_AXIS_NAME_MAGICNO-15 "20971521.0000000000"
*MEAS_COND_AXIS_NAME_MAGICNO-16 "20971521.0000000000"
*MEAS_COND_AXIS_NAME_MAGICNO-17 "20971521.0000000000"
*MEAS_COND_AXIS_NAME_MAGICNO-18 "23068673.0000000000"
*MEAS_COND_AXIS_NAME_MAGICNO-19 "23068673.0000000000"
*MEAS_COND_AXIS_NAME_MAGICNO-20 "20971521.0000000000"
*MEAS_COND_AXIS_NAME_MAGICNO-21 "20971521.0000000000"
*MEAS_COND_AXIS_NAME_MAGICNO-22 "20971521.0000000000"
*MEAS_COND_AXIS_NAME_MAGICNO-23 "25165824.0000000000"
*MEAS_COND_AXIS_NAME_MAGICNO-24 "25165824.0000000000"
*MEAS_COND_AXIS_NAME_MAGICNO-25 "285343744.0000000000"
*MEAS_COND_AXIS_NAME_MAGICNO-26 "17301505.0000000000"
*MEAS_COND_AXIS_NAME_MAGICNO-27 "20971521.0000000000"
*MEAS_COND_AXIS_NAME_MAGICNO-28 "20971521.0000000000"
*MEAS_COND_AXIS_NAME_MAGICNO-29 "20971521.0000000000"
*MEAS_COND_AXIS_NAME_MAGICNO-30 "0.0000000000"
*MEAS_COND_AXIS_OFFSET-0 "-"
*MEAS_COND_AXIS_OFFSET-1 "-0.1081000000"
*MEAS_COND_AXIS_OFFSET-2 "0.3758000000"
*MEAS_COND_AXIS_OFFSET-3 "-"
*MEAS_COND_AXIS_OFFSET-4 "-"
*MEAS_COND_AXIS_OFFSET-5 "0.3758000000"
*MEAS_COND_AXIS_OFFSET-6 "-0.4839000000"
*MEAS_COND_AXIS_OFFSET-7 "-"
*MEAS_COND_AXIS_OFFSET-8 "-"
*MEAS_COND_AXIS_OFFSET-9 "-"
*MEAS_COND_AXIS_OFFSET-10 "-"
*MEAS_COND_AXIS_OFFSET-11 "-"
*MEAS_COND_AXIS_OFFSET-12 "-"
*MEAS_COND_AXIS_OFFSET-13 "-"
*MEAS_COND_AXIS_OFFSET-14 "-"
*MEAS_COND_AXIS_OFFSET-15 "-"
*MEAS_COND_AXIS_OFFSET-16 "-"
*MEAS_COND_AXIS_OFFSET-17 "-"
*MEAS_COND_AXIS_OFFSET-18 "-"
*MEAS_COND_AXIS_OFFSET-19 "-"
*MEAS_COND_AXIS_OFFSET-20 "-"
*MEAS_COND_AXIS_OFFSET-21 "-"
*MEAS_COND_AXIS_OFFSET-22 "-"
*MEAS_COND_AXIS_OFFSET-23 "-"
*MEAS_COND_AXIS_OFFSET-24 "-"
*MEAS_COND_AXIS_OFFSET-25 "-"
*MEAS_COND_AXIS_OFFSET-26 "-"
*MEAS_COND_AXIS_OFFSET-27 "-"
*MEAS_COND_AXIS_OFFSET-28 "-"
*MEAS_COND_AXIS_OFFSET-29 "-"
*MEAS_COND_AXIS_OFFSET-30 "-"
*MEAS_COND_AXIS_POSITION-0 "0.0000000000"
*MEAS_COND_AXIS_POSITION-1 "0.0000000000"
*MEAS_COND_AXIS_POSITION-2 "0.0000000000"
*MEAS_COND_AXIS_POSITION-3 "-0.5500000000"
*MEAS_COND_AXIS_POSITION-4 "0.0000000000"
*MEAS_COND_AXIS_POSITION-5 "0.0000000000"
*MEAS_COND_AXIS_POSITION-6 "0.0000000000"
*MEAS_COND_AXIS_POSITION-7 "-0.4278800000"
*MEAS_COND_AXIS_POSITION-8 "BB"
*MEAS_COND_AXIS_POSITION-9 "0.0000000000"
*MEAS_COND_AXIS_POSITION-10 "Soller_slit_5.0deg"
*MEAS_COND_AXIS_POSITION-11 "2/3deg"
*MEAS_COND_AXIS_POSITION-12 "2.2088000000"
*MEAS_COND_AXIS_POSITION-13 "-0.4140600000"
*MEAS_COND_AXIS_POSITION-14 "0.0000000000"
*MEAS_COND_AXIS_POSITION-15 "10.0mm"
*MEAS_COND_AXIS_POSITION-16 "None"
*MEAS_COND_AXIS_POSITION-17 "Cu_K-beta"
*MEAS_COND_AXIS_POSITION-18 "13.000mm"
*MEAS_COND_AXIS_POSITION-19 "13.000mm"
*MEAS_COND_AXIS_POSITION-20 "No_unit"
*MEAS_COND_AXIS_POSITION-21 "Soller_slit_5.0deg"
*MEAS_COND_AXIS_POSITION-22 "None"
*MEAS_COND_AXIS_POSITION-23 "13.0000000000"
*MEAS_COND_AXIS_POSITION-24 "13.0000000000"
*MEAS_COND_AXIS_POSITION-25 "0.0109400000"
*MEAS_COND_AXIS_POSITION-26 "Open"
*MEAS_COND_AXIS_POSITION-27 "None"
*MEAS_COND_AXIS_POSITION-28 "None"
*MEAS_COND_AXIS_POSITION-29 "None"
*MEAS_COND_AXIS_POSITION-30 "38.0000000000"
*MEAS_COND_AXIS_UNIT-0 "deg"
*MEAS_COND_AXIS_UNIT-1 "deg"
*MEAS_COND_AXIS_UNIT-2 "deg"
*MEAS_COND_AXIS_UNIT-3 "mm"
*MEAS_COND_AXIS_UNIT-4 "deg"
*MEAS_COND_AXIS_UNIT-5 "deg"
*MEAS_COND_AXIS_UNIT-6 "deg"
*MEAS_COND_AXIS_UNIT-7 "mm"
*MEAS_COND_AXIS_UNIT-8 ""
*MEAS_COND_AXIS_UNIT-9 "pulse"
*MEAS_COND_AXIS_UNIT-10 ""
*MEAS_COND_AXIS_UNIT-11 ""
*MEAS_COND_AXIS_UNIT-12 "mm"
*MEAS_COND_AXIS_UNIT-13 "mm"
*MEAS_COND_AXIS_UNIT-14 ""
*MEAS_COND_AXIS_UNIT-15 ""
*MEAS_COND_AXIS_UNIT-16 ""
*MEAS_COND_AXIS_UNIT-17 ""
*MEAS_COND_AXIS_UNIT-18 ""
*MEAS_COND_AXIS_UNIT-19 ""
*MEAS_COND_AXIS_UNIT-20 ""
*MEAS_COND_AXIS_UNIT-21 ""
*MEAS_COND_AXIS_UNIT-22 ""
*MEAS_COND_AXIS_UNIT-23 "mm"
*MEAS_COND_AXIS_UNIT-24 "mm"
*MEAS_COND_AXIS_UNIT-25 "mm"
*MEAS_COND_AXIS_UNIT-26 ""
*MEAS_COND_AXIS_UNIT-27 ""
*MEAS_COND_AXIS_UNIT-28 ""
*MEAS_COND_AXIS_UNIT-29 ""
*MEAS_COND_AXIS_UNIT-30 "div"
*MEAS_COND_COUNTER_CNTLOSS_CORR "0.0000000000"
*MEAS_COND_COUNTER_PHABASE "38.0000000000"
*MEAS_COND_COUNTER_PHAWINDOW "16.0000000000"
*MEAS_COND_COUNTER_PHA_UNIT "div"
*MEAS_COND_COUNTER_TAUDIFF "30.0000000000"
*MEAS_COND_COUNTER_TAUINT "0.0000000000"
*MEAS_COND_IRRADIATION_MODE "OFF"
*MEAS_COND_IRRADIATION_WIDTH ""
*MEAS_COND_OPT_ATTR "集中法"
*MEAS_COND_OPT_NAME "@集中法"
*MEAS_COND_UNSYMMETRIC_MODE "OFF"
*MEAS_COND_XG_CURRENT "30.0000000000"
*MEAS_COND_XG_VOLTAGE "40.0000000000"
*MEAS_COND_XG_WAVE_TYPE "Ka"
*MEAS_DATA_COUNT "5001.0000000000"
*MEAS_SCAN_AXIS_X "2θ/θ"
*MEAS_SCAN_AXIS_X_INTERNAL "TwoThetaTheta"
*MEAS_SCAN_END_TIME "07/29/21 16:40:42"
*MEAS_SCAN_MODE "CONTINUOUS"
*MEAS_SCAN_MONITOR "0"
*MEAS_SCAN_RESOLUTION_X "0.0002"
*MEAS_SCAN_SPEED "2.5"
*MEAS_SCAN_SPEED_UNIT "deg/min"
*MEAS_SCAN_START "20.0000000000"
*MEAS_SCAN_START_TIME "07/29/21 16:19:18"
*MEAS_SCAN_STEP "0.0100000000"
*MEAS_SCAN_STOP "70.0000000000"
*MEAS_SCAN_UNIT_X "deg"
*MEAS_SCAN_UNIT_Y "counts"
*RAS_HEADER_END
*RAS_INT_START
20.0000 674.0000 1.0000
20.0100 644.0000 1.0000
20.0200 643.0000 1.0000
20.0300 653.0000 1.0000
20.0400 668.0000 1.0000
20.0500 627.0000 1.0000
20.0600 673.0000 1.0000
20.0700 654.0000 1.0000
20.0800 637.0000 1.0000
20.0900 679.0000 1.0000
20.1000 670.0000 1.0000
20.1100 630.0000 1.0000
20.1200 642.0000 1.0000
20.1300 662.0000 1.0000
20.1400 621.0000 1.0000
20.1500 600.0000 1.0000
20.1600 635.0000 1.0000
20.1700 618.0000 1.0000
20.1800 655.0000 1.0000
20.1900 643.0000 1.0000
20.2000 633.0000 1.0000
20.2100 642.0000 1.0000
20.2200 631.0000 1.0000
20.2300 671.0000 1.0000
20.2400 644.0000 1.0000
20.2500 643.0000 1.0000
20.2600 649.0000 1.0000
20.2700 581.0000 1.0000
20.2800 634.0000 1.0000
20.2900 577.0000 1.0000
20.3000 642.0000 1.0000
20.3100 610.0000 1.0000
20.3200 627.0000 1.0000
20.3300 641.0000 1.0000
20.3400 603.0000 1.0000
20.3500 638.0000 1.0000
20.3600 633.0000 1.0000
20.3700 646.0000 1.0000
20.3800 614.0000 1.0000
20.3900 616.0000 1.0000
20.4000 647.0000 1.0000
20.4100 663.0000 1.0000
20.4200 624.0000 1.0000
20.4300 668.0000 1.0000
20.4400 623.0000 1.0000
20.4500 629.0000 1.0000
20.4600 663.0000 1.0000
20.4700 628.0000 1.0000
20.4800 638.0000 1.0000
20.4900 617.0000 1.0000
20.5000 669.0000 1.0000
20.5100 668.0000 1.0000
20.5200 624.0000 1.0000
20.5300 643.0000 1.0000
20.5400 650.0000 1.0000
20.5500 680.0000 1.0000
20.5600 674.0000 1.0000
20.5700 643.0000 1.0000
20.5800 611.0000 1.0000
20.5900 619.0000 1.0000
20.6000 621.0000 1.0000
20.6100 619.0000 1.0000
20.6200 647.0000 1.0000
20.6300 639.0000 1.0000
20.6400 649.0000 1.0000
20.6500 658.0000 1.0000
20.6600 683.0000 1.0000
20.6700 636.0000 1.0000
20.6800 652.0000 1.0000
20.6900 613.0000 1.0000
20.7000 611.0000 1.0000
20.7100 655.0000 1.0000
20.7200 629.0000 1.0000
20.7300 645.0000 1.0000
20.7400 596.0000 1.0000
20.7500 632.0000 1.0000
20.7600 646.0000 1.0000
20.7700 602.0000 1.0000
20.7800 648.0000 1.0000
20.7900 677.0000 1.0000
20.8000 625.0000 1.0000
20.8100 654.0000 1.0000
20.8200 688.0000 1.0000
20.8300 693.0000 1.0000
20.8400 640.0000 1.0000
20.8500 625.0000 1.0000
20.8600 624.0000 1.0000
20.8700 652.0000 1.0000
20.8800 623.0000 1.0000
20.8900 630.0000 1.0000
20.9000 622.0000 1.0000
20.9100 703.0000 1.0000
20.9200 620.0000 1.0000
20.9300 663.0000 1.0000
20.9400 660.0000 1.0000
20.9500 619.0000 1.0000
20.9600 639.0000 1.0000
20.9700 653.0000 1.0000
20.9800 663.0000 1.0000
20.9900 678.0000 1.0000
21.0000 623.0000 1.0000
21.0100 613.0000 1.0000
21.0200 656.0000 1.0000
21.0300 637.0000 1.0000
21.0400 635.0000 1.0000
21.0500 653.0000 1.0000
21.0600 647.0000 1.0000
21.0700 641.0000 1.0000
21.0800 625.0000 1.0000
21.0900 656.0000 1.0000
21.1000 616.0000 1.0000
21.1100 674.0000 1.0000
21.1200 641.0000 1.0000
21.1300 673.0000 1.0000
21.1400 650.0000 1.0000
21.1500 650.0000 1.0000
21.1600 660.0000 1.0000
21.1700 675.0000 1.0000
21.1800 667.0000 1.0000
21.1900 660.0000 1.0000
21.2000 642.0000 1.0000
21.2100 610.0000 1.0000
21.2200 630.0000 1.0000
21.2300 664.0000 1.0000
21.2400 618.0000 1.0000
21.2500 651.0000 1.0000
21.2600 673.0000 1.0000
21.2700 647.0000 1.0000
21.2800 615.0000 1.0000
21.2900 603.0000 1.0000
21.3000 633.0000 1.0000
21.3100 652.0000 1.0000
21.3200 639.0000 1.0000
21.3300 625.0000 1.0000
21.3400 627.0000 1.0000
21.3500 617.0000 1.0000
21.3600 672.0000 1.0000
21.3700 650.0000 1.0000
21.3800 650.0000 1.0000
21.3900 623.0000 1.0000
21.4000 638.0000 1.0000
21.4100 625.0000 1.0000
21.4200 648.0000 1.0000
21.4300 672.0000 1.0000
21.4400 654.0000 1.0000
21.4500 649.0000 1.0000
21.4600 633.0000 1.0000
21.4700 652.0000 1.0000
21.4800 645.0000 1.0000
21.4900 668.0000 1.0000
21.5000 641.0000 1.0000
21.5100 667.0000 1.0000
21.5200 628.0000 1.0000
21.5300 653.0000 1.0000
21.5400 648.0000 1.0000
21.5500 651.0000 1.0000
21.5600 648.0000 1.0000
21.5700 642.0000 1.0000
21.5800 594.0000 1.0000
21.5900 593.0000 1.0000
21.6000 617.0000 1.0000
21.6100 642.0000 1.0000
21.6200 656.0000 1.0000
21.6300 634.0000 1.0000
21.6400 628.0000 1.0000
21.6500 634.0000 1.0000
21.6600 663.0000 1.0000
21.6700 633.0000 1.0000
21.6800 621.0000 1.0000
21.6900 633.0000 1.0000
21.7000 636.0000 1.0000
21.7100 615.0000 1.0000
21.7200 660.0000 1.0000
21.7300 633.0000 1.0000
21.7400 603.0000 1.0000
21.7500 610.0000 1.0000
21.7600 632.0000 1.0000
21.7700 659.0000 1.0000
21.7800 640.0000 1.0000
21.7900 641.0000 1.0000
21.8000 663.0000 1.0000
21.8100 681.0000 1.0000
21.8200 670.0000 1.0000
21.8300 664.0000 1.0000
21.8400 649.0000 1.0000
21.8500 658.0000 1.0000
21.8600 632.0000 1.0000
21.8700 661.0000 1.0000
21.8800 668.0000 1.0000
21.8900 662.0000 1.0000
21.9000 647.0000 1.0000
21.9100 630.0000 1.0000
21.9200 664.0000 1.0000
21.9300 623.0000 1.0000
21.9400 679.0000 1.0000
21.9500 608.0000 1.0000
21.9600 671.0000 1.0000
21.9700 632.0000 1.0000
21.9800 647.0000 1.0000
21.9900 654.0000 1.0000
22.0000 608.0000 1.0000
22.0100 641.0000 1.0000
22.0200 609.0000 1.0000
22.0300 642.0000 1.0000
22.0400 644.0000 1.0000
22.0500 669.0000 1.0000
22.0600 670.0000 1.0000
22.0700 648.0000 1.0000
22.0800 653.0000 1.0000
22.0900 621.0000 1.0000
22.1000 693.0000 1.0000
22.1100 668.0000 1.0000
22.1200 676.0000 1.0000
22.1300 645.0000 1.0000
22.1400 633.0000 1.0000
22.1500 653.0000 1.0000
22.1600 674.0000 1.0000
22.1700 654.0000 1.0000
22.1800 650.0000 1.0000
22.1900 698.0000 1.0000
22.2000 705.0000 1.0000
22.2100 665.0000 1.0000
22.2200 643.0000 1.0000
22.2300 647.0000 1.0000
22.2400 657.0000 1.0000
22.2500 650.0000 1.0000
22.2600 668.0000 1.0000
22.2700 657.0000 1.0000
22.2800 651.0000 1.0000
22.2900 660.0000 1.0000
22.3000 645.0000 1.0000
22.3100 684.0000 1.0000
22.3200 677.0000 1.0000
22.3300 671.0000 1.0000
22.3400 651.0000 1.0000
22.3500 674.0000 1.0000
22.3600 657.0000 1.0000
22.3700 640.0000 1.0000
22.3800 657.0000 1.0000
22.3900 678.0000 1.0000
22.4000 682.0000 1.0000
22.4100 623.0000 1.0000
22.4200 637.0000 1.0000
22.4300 633.0000 1.0000
22.4400 639.0000 1.0000
22.4500 650.0000 1.0000
22.4600 651.0000 1.0000
22.4700 638.0000 1.0000
22.4800 657.0000 1.0000
22.4900 650.0000 1.0000
22.5000 680.0000 1.0000
22.5100 656.0000 1.0000
22.5200 667.0000 1.0000
22.5300 622.0000 1.0000
22.5400 637.0000 1.0000
22.5500 624.0000 1.0000
22.5600 686.0000 1.0000
22.5700 681.0000 1.0000
22.5800 644.0000 1.0000
22.5900 658.0000 1.0000
22.6000 664.0000 1.0000
22.6100 638.0000 1.0000
22.6200 640.0000 1.0000
22.6300 611.0000 1.0000
22.6400 622.0000 1.0000
22.6500 676.0000 1.0000
22.6600 640.0000 1.0000
22.6700 650.0000 1.0000
22.6800 638.0000 1.0000
22.6900 680.0000 1.0000
22.7000 682.0000 1.0000
22.7100 675.0000 1.0000
22.7200 660.0000 1.0000
22.7300 647.0000 1.0000
22.7400 654.0000 1.0000
22.7500 635.0000 1.0000
22.7600 695.0000 1.0000
22.7700 655.0000 1.0000
22.7800 642.0000 1.0000
22.7900 653.0000 1.0000
22.8000 677.0000 1.0000
22.8100 635.0000 1.0000
22.8200 680.0000 1.0000
22.8300 673.0000 1.0000
22.8400 698.0000 1.0000
22.8500 663.0000 1.0000
22.8600 665.0000 1.0000
22.8700 656.0000 1.0000
22.8800 611.0000 1.0000
22.8900 646.0000 1.0000
22.9000 678.0000 1.0000
22.9100 639.0000 1.0000
22.9200 681.0000 1.0000
22.9300 625.0000 1.0000
22.9400 645.0000 1.0000
22.9500 649.0000 1.0000
22.9600 676.0000 1.0000
22.9700 699.0000 1.0000
22.9800 632.0000 1.0000
22.9900 685.0000 1.0000
23.0000 662.0000 1.0000
23.0100 692.0000 1.0000
23.0200 679.0000 1.0000
23.0300 668.0000 1.0000
23.0400 608.0000 1.0000
23.0500 648.0000 1.0000
23.0600 666.0000 1.0000
23.0700 673.0000 1.0000
23.0800 674.0000 1.0000
23.0900 654.0000 1.0000
23.1000 707.0000 1.0000
23.1100 632.0000 1.0000
23.1200 647.0000 1.0000
23.1300 659.0000 1.0000
23.1400 641.0000 1.0000
23.1500 714.0000 1.0000
23.1600 679.0000 1.0000
23.1700 664.0000 1.0000
23.1800 708.0000 1.0000
23.1900 652.0000 1.0000
23.2000 674.0000 1.0000
23.2100 651.0000 1.0000
23.2200 675.0000 1.0000
23.2300 642.0000 1.0000
23.2400 622.0000 1.0000
23.2500 668.0000 1.0000
23.2600 694.0000 1.0000
23.2700 627.0000 1.0000
23.2800 645.0000 1.0000
23.2900 674.0000 1.0000
23.3000 652.0000 1.0000
23.3100 640.0000 1.0000
23.3200 610.0000 1.0000
23.3300 604.0000 1.0000
23.3400 677.0000 1.0000
23.3500 706.0000 1.0000
23.3600 672.0000 1.0000
23.3700 649.0000 1.0000
23.3800 621.0000 1.0000
23.3900 631.0000 1.0000
23.4000 706.0000 1.0000
23.4100 688.0000 1.0000
23.4200 671.0000 1.0000
23.4300 712.0000 1.0000
23.4400 664.0000 1.0000
23.4500 677.0000 1.0000
23.4600 658.0000 1.0000
23.4700 661.0000 1.0000
23.4800 678.0000 1.0000
23.4900 623.0000 1.0000
23.5000 664.0000 1.0000
23.5100 653.0000 1.0000
23.5200 682.0000 1.0000
23.5300 654.0000 1.0000
23.5400 624.0000 1.0000
23.5500 640.0000 1.0000
23.5600 639.0000 1.0000
23.5700 673.0000 1.0000
23.5800 654.0000 1.0000
23.5900 643.0000 1.0000
23.6000 644.0000 1.0000
23.6100 640.0000 1.0000
23.6200 689.0000 1.0000
23.6300 676.0000 1.0000
23.6400 624.0000 1.0000
23.6500 642.0000 1.0000
23.6600 697.0000 1.0000
23.6700 682.0000 1.0000
23.6800 645.0000 1.0000
23.6900 631.0000 1.0000
23.7000 648.0000 1.0000
23.7100 667.0000 1.0000
23.7200 643.0000 1.0000
23.7300 693.0000 1.0000
23.7400 655.0000 1.0000
23.7500 660.0000 1.0000
23.7600 665.0000 1.0000
23.7700 651.0000 1.0000
23.7800 683.0000 1.0000
23.7900 664.0000 1.0000
23.8000 662.0000 1.0000
23.8100 678.0000 1.0000
23.8200 670.0000 1.0000
23.8300 683.0000 1.0000
23.8400 676.0000 1.0000
23.8500 644.0000 1.0000
23.8600 659.0000 1.0000
23.8700 660.0000 1.0000
23.8800 620.0000 1.0000
23.8900 669.0000 1.0000
23.9000 651.0000 1.0000
23.9100 657.0000 1.0000
23.9200 626.0000 1.0000
23.9300 618.0000 1.0000
23.9400 663.0000 1.0000
23.9500 659.0000 1.0000
23.9600 682.0000 1.0000
23.9700 692.0000 1.0000
23.9800 655.0000 1.0000
23.9900 666.0000 1.0000
24.0000 682.0000 1.0000
24.0100 701.0000 1.0000
24.0200 668.0000 1.0000
24.0300 669.0000 1.0000
24.0400 641.0000 1.0000
24.0500 629.0000 1.0000
24.0600 675.0000 1.0000
24.0700 665.0000 1.0000
24.0800 693.0000 1.0000
24.0900 662.0000 1.0000
24.1000 676.0000 1.0000
24.1100 657.0000 1.0000
24.1200 662.0000 1.0000
24.1300 645.0000 1.0000
24.1400 641.0000 1.0000
24.1500 678.0000 1.0000
24.1600 678.0000 1.0000
24.1700 715.0000 1.0000
24.1800 681.0000 1.0000
24.1900 635.0000 1.0000
24.2000 661.0000 1.0000
24.2100 652.0000 1.0000
24.2200 647.0000 1.0000
24.2300 677.0000 1.0000
24.2400 645.0000 1.0000
24.2500 677.0000 1.0000
24.2600 713.0000 1.0000
24.2700 645.0000 1.0000
24.2800 645.0000 1.0000
24.2900 663.0000 1.0000
24.3000 684.0000 1.0000
24.3100 645.0000 1.0000
24.3200 649.0000 1.0000
24.3300 650.0000 1.0000
24.3400 714.0000 1.0000
24.3500 645.0000 1.0000
24.3600 716.0000 1.0000
24.3700 670.0000 1.0000
24.3800 661.0000 1.0000
24.3900 600.0000 1.0000
24.4000 658.0000 1.0000
24.4100 683.0000 1.0000
24.4200 644.0000 1.0000
24.4300 653.0000 1.0000
24.4400 680.0000 1.0000
24.4500 713.0000 1.0000
24.4600 671.0000 1.0000
24.4700 656.0000 1.0000
24.4800 696.0000 1.0000
24.4900 712.0000 1.0000
24.5000 666.0000 1.0000
24.5100 654.0000 1.0000
24.5200 683.0000 1.0000
24.5300 669.0000 1.0000
24.5400 679.0000 1.0000
24.5500 663.0000 1.0000
24.5600 646.0000 1.0000
24.5700 686.0000 1.0000
24.5800 686.0000 1.0000
24.5900 676.0000 1.0000
24.6000 678.0000 1.0000
24.6100 685.0000 1.0000
24.6200 683.0000 1.0000
24.6300 707.0000 1.0000
24.6400 689.0000 1.0000
24.6500 689.0000 1.0000
24.6600 685.0000 1.0000
24.6700 694.0000 1.0000
24.6800 718.0000 1.0000
24.6900 626.0000 1.0000
24.7000 703.0000 1.0000
24.7100 694.0000 1.0000
24.7200 684.0000 1.0000
24.7300 709.0000 1.0000
24.7400 697.0000 1.0000
24.7500 684.0000 1.0000
24.7600 666.0000 1.0000
24.7700 713.0000 1.0000
24.7800 686.0000 1.0000
24.7900 689.0000 1.0000
24.8000 722.0000 1.0000
24.8100 723.0000 1.0000
24.8200 643.0000 1.0000
24.8300 672.0000 1.0000
24.8400 691.0000 1.0000
24.8500 709.0000 1.0000
24.8600 687.0000 1.0000
24.8700 660.0000 1.0000
24.8800 667.0000 1.0000
24.8900 679.0000 1.0000
24.9000 702.0000 1.0000
24.9100 700.0000 1.0000
24.9200 725.0000 1.0000
24.9300 730.0000 1.0000
24.9400 714.0000 1.0000
24.9500 728.0000 1.0000
24.9600 685.0000 1.0000
24.9700 670.0000 1.0000
24.9800 749.0000 1.0000
24.9900 686.0000 1.0000
25.0000 693.0000 1.0000
25.0100 699.0000 1.0000
25.0200 688.0000 1.0000
25.0300 665.0000 1.0000
25.0400 699.0000 1.0000
25.0500 676.0000 1.0000
25.0600 688.0000 1.0000
25.0700 698.0000 1.0000
25.0800 697.0000 1.0000
25.0900 677.0000 1.0000
25.1000 701.0000 1.0000
25.1100 678.0000 1.0000
25.1200 677.0000 1.0000
25.1300 691.0000 1.0000
25.1400 745.0000 1.0000
25.1500 732.0000 1.0000
25.1600 660.0000 1.0000
25.1700 710.0000 1.0000
25.1800 669.0000 1.0000
25.1900 651.0000 1.0000
25.2000 706.0000 1.0000
25.2100 731.0000 1.0000
25.2200 725.0000 1.0000
25.2300 710.0000 1.0000
25.2400 698.0000 1.0000
25.2500 691.0000 1.0000
25.2600 725.0000 1.0000
25.2700 704.0000 1.0000
25.2800 669.0000 1.0000
25.2900 673.0000 1.0000
25.3000 663.0000 1.0000
25.3100 691.0000 1.0000
25.3200 671.0000 1.0000
25.3300 707.0000 1.0000
25.3400 670.0000 1.0000
25.3500 696.0000 1.0000
25.3600 699.0000 1.0000
25.3700 705.0000 1.0000
25.3800 693.0000 1.0000
25.3900 703.0000 1.0000
25.4000 658.0000 1.0000
25.4100 678.0000 1.0000
25.4200 645.0000 1.0000
25.4300 671.0000 1.0000
25.4400 695.0000 1.0000
25.4500 689.0000 1.0000
25.4600 714.0000 1.0000
25.4700 674.0000 1.0000
25.4800 648.0000 1.0000
25.4900 663.0000 1.0000
25.5000 676.0000 1.0000
25.5100 697.0000 1.0000
25.5200 687.0000 1.0000
25.5300 677.0000 1.0000
25.5400 685.0000 1.0000
25.5500 669.0000 1.0000
25.5600 717.0000 1.0000
25.5700 672.0000 1.0000
25.5800 661.0000 1.0000
25.5900 633.0000 1.0000
25.6000 685.0000 1.0000
25.6100 682.0000 1.0000
25.6200 672.0000 1.0000
25.6300 639.0000 1.0000
25.6400 638.0000 1.0000
25.6500 704.0000 1.0000
25.6600 646.0000 1.0000
25.6700 685.0000 1.0000
25.6800 675.0000 1.0000
25.6900 689.0000 1.0000
25.7000 656.0000 1.0000
25.7100 671.0000 1.0000
25.7200 670.0000 1.0000
25.7300 692.0000 1.0000
25.7400 675.0000 1.0000
25.7500 693.0000 1.0000
25.7600 716.0000 1.0000
25.7700 665.0000 1.0000
25.7800 687.0000 1.0000
25.7900 650.0000 1.0000
25.8000 643.0000 1.0000
25.8100 655.0000 1.0000
25.8200 643.0000 1.0000
25.8300 674.0000 1.0000
25.8400 658.0000 1.0000
25.8500 666.0000 1.0000
25.8600 716.0000 1.0000
25.8700 709.0000 1.0000
25.8800 663.0000 1.0000
25.8900 676.0000 1.0000
25.9000 688.0000 1.0000
25.9100 643.0000 1.0000
25.9200 674.0000 1.0000
25.9300 659.0000 1.0000
25.9400 685.0000 1.0000
25.9500 739.0000 1.0000
25.9600 713.0000 1.0000
25.9700 658.0000 1.0000
25.9800 674.0000 1.0000
25.9900 669.0000 1.0000
26.0000 725.0000 1.0000
26.0100 719.0000 1.0000
26.0200 697.0000 1.0000
26.0300 704.0000 1.0000
26.0400 670.0000 1.0000
26.0500 654.0000 1.0000
26.0600 719.0000 1.0000
26.0700 706.0000 1.0000
26.0800 707.0000 1.0000
26.0900 718.0000 1.0000
26.1000 681.0000 1.0000
26.1100 656.0000 1.0000
26.1200 689.0000 1.0000
26.1300 696.0000 1.0000
26.1400 684.0000 1.0000
26.1500 613.0000 1.0000
26.1600 661.0000 1.0000
26.1700 677.0000 1.0000
26.1800 706.0000 1.0000
26.1900 672.0000 1.0000
26.2000 701.0000 1.0000
26.2100 696.0000 1.0000
26.2200 698.0000 1.0000
26.2300 701.0000 1.0000
26.2400 686.0000 1.0000
26.2500 689.0000 1.0000
26.2600 711.0000 1.0000
26.2700 664.0000 1.0000
26.2800 677.0000 1.0000
26.2900 708.0000 1.0000
26.3000 664.0000 1.0000
26.3100 683.0000 1.0000
26.3200 694.0000 1.0000
26.3300 687.0000 1.0000
26.3400 718.0000 1.0000
26.3500 754.0000 1.0000
26.3600 726.0000 1.0000
26.3700 677.0000 1.0000
26.3800 699.0000 1.0000
26.3900 696.0000 1.0000
26.4000 725.0000 1.0000
26.4100 713.0000 1.0000
26.4200 696.0000 1.0000
26.4300 704.0000 1.0000
26.4400 707.0000 1.0000
26.4500 697.0000 1.0000
26.4600 681.0000 1.0000
26.4700 704.0000 1.0000
26.4800 734.0000 1.0000
26.4900 735.0000 1.0000
26.5000 734.0000 1.0000
26.5100 671.0000 1.0000
26.5200 675.0000 1.0000
26.5300 729.0000 1.0000
26.5400 666.0000 1.0000
26.5500 698.0000 1.0000
26.5600 700.0000 1.0000
26.5700 710.0000 1.0000
26.5800 717.0000 1.0000
26.5900 695.0000 1.0000
26.6000 683.0000 1.0000
26.6100 706.0000 1.0000
26.6200 718.0000 1.0000
26.6300 713.0000 1.0000
26.6400 729.0000 1.0000
26.6500 699.0000 1.0000
26.6600 720.0000 1.0000
26.6700 711.0000 1.0000
26.6800 699.0000 1.0000
26.6900 738.0000 1.0000
26.7000 751.0000 1.0000
26.7100 732.0000 1.0000
26.7200 782.0000 1.0000
26.7300 746.0000 1.0000
26.7400 712.0000 1.0000
26.7500 770.0000 1.0000
26.7600 711.0000 1.0000
26.7700 712.0000 1.0000
26.7800 767.0000 1.0000
26.7900 764.0000 1.0000
26.8000 790.0000 1.0000
26.8100 808.0000 1.0000
26.8200 774.0000 1.0000
26.8300 763.0000 1.0000
26.8400 776.0000 1.0000
26.8500 791.0000 1.0000
26.8600 791.0000 1.0000
26.8700 812.0000 1.0000
26.8800 739.0000 1.0000
26.8900 751.0000 1.0000
26.9000 808.0000 1.0000
26.9100 823.0000 1.0000
26.9200 793.0000 1.0000
26.9300 787.0000 1.0000
26.9400 822.0000 1.0000
26.9500 828.0000 1.0000
26.9600 849.0000 1.0000
26.9700 828.0000 1.0000
26.9800 826.0000 1.0000
26.9900 827.0000 1.0000
27.0000 861.0000 1.0000
27.0100 924.0000 1.0000
27.0200 968.0000 1.0000
27.0300 930.0000 1.0000
27.0400 928.0000 1.0000
27.0500 920.0000 1.0000
27.0600 970.0000 1.0000
27.0700 1042.0000 1.0000
27.0800 1082.0000 1.0000
27.0900 1029.0000 1.0000
27.1000 1020.0000 1.0000
27.1100 1120.0000 1.0000
27.1200 1158.0000 1.0000
27.1300 1174.0000 1.0000
27.1400 1179.0000 1.0000
27.1500 1239.0000 1.0000
27.1600 1326.0000 1.0000
27.1700 1373.0000 1.0000
27.1800 1398.0000 1.0000
27.1900 1479.0000 1.0000
27.2000 1622.0000 1.0000
27.2100 1590.0000 1.0000
27.2200 1694.0000 1.0000
27.2300 1731.0000 1.0000
27.2400 1813.0000 1.0000
27.2500 2052.0000 1.0000
27.2600 2025.0000 1.0000
27.2700 2128.0000 1.0000
27.2800 2259.0000 1.0000
27.2900 2319.0000 1.0000
27.3000 2422.0000 1.0000
27.3100 2521.0000 1.0000
27.3200 2592.0000 1.0000
27.3300 2547.0000 1.0000
27.3400 2543.0000 1.0000
27.3500 2413.0000 1.0000
27.3600 2450.0000 1.0000
27.3700 2464.0000 1.0000
27.3800 2318.0000 1.0000
27.3900 2294.0000 1.0000
27.4000 2219.0000 1.0000
27.4100 2139.0000 1.0000
27.4200 2007.0000 1.0000
27.4300 1856.0000 1.0000
27.4400 1793.0000 1.0000
27.4500 1681.0000 1.0000
27.4600 1558.0000 1.0000
27.4700 1559.0000 1.0000
27.4800 1456.0000 1.0000
27.4900 1354.0000 1.0000
27.5000 1343.0000 1.0000
27.5100 1279.0000 1.0000
27.5200 1204.0000 1.0000
27.5300 1211.0000 1.0000
27.5400 1183.0000 1.0000
27.5500 1147.0000 1.0000
27.5600 1126.0000 1.0000
27.5700 1063.0000 1.0000
27.5800 1083.0000 1.0000
27.5900 1020.0000 1.0000
27.6000 978.0000 1.0000
27.6100 973.0000 1.0000
27.6200 946.0000 1.0000
27.6300 958.0000 1.0000
27.6400 923.0000 1.0000
27.6500 910.0000 1.0000
27.6600 828.0000 1.0000
27.6700 872.0000 1.0000
27.6800 875.0000 1.0000
27.6900 885.0000 1.0000
27.7000 840.0000 1.0000
27.7100 824.0000 1.0000
27.7200 829.0000 1.0000
27.7300 810.0000 1.0000
27.7400 834.0000 1.0000
27.7500 782.0000 1.0000
27.7600 794.0000 1.0000
27.7700 836.0000 1.0000
27.7800 809.0000 1.0000
27.7900 799.0000 1.0000
27.8000 809.0000 1.0000
27.8100 770.0000 1.0000
27.8200 731.0000 1.0000
27.8300 738.0000 1.0000
27.8400 749.0000 1.0000
27.8500 751.0000 1.0000
27.8600 729.0000 1.0000
27.8700 776.0000 1.0000
27.8800 741.0000 1.0000
27.8900 748.0000 1.0000
27.9000 763.0000 1.0000
27.9100 758.0000 1.0000
27.9200 750.0000 1.0000
27.9300 748.0000 1.0000
27.9400 739.0000 1.0000
27.9500 721.0000 1.0000
27.9600 719.0000 1.0000
27.9700 726.0000 1.0000
27.9800 742.0000 1.0000
27.9900 730.0000 1.0000
28.0000 722.0000 1.0000
28.0100 749.0000 1.0000
28.0200 688.0000 1.0000
28.0300 698.0000 1.0000
28.0400 713.0000 1.0000
28.0500 749.0000 1.0000
28.0600 693.0000 1.0000
28.0700 714.0000 1.0000
28.0800 717.0000 1.0000
28.0900 721.0000 1.0000
28.1000 711.0000 1.0000
28.1100 717.0000 1.0000
28.1200 642.0000 1.0000
28.1300 667.0000 1.0000
28.1400 709.0000 1.0000
28.1500 691.0000 1.0000
28.1600 720.0000 1.0000
28.1700 711.0000 1.0000
28.1800 675.0000 1.0000
28.1900 631.0000 1.0000
28.2000 655.0000 1.0000
28.2100 652.0000 1.0000
28.2200 665.0000 1.0000
28.2300 671.0000 1.0000
28.2400 706.0000 1.0000
28.2500 704.0000 1.0000
28.2600 665.0000 1.0000
28.2700 679.0000 1.0000
28.2800 664.0000 1.0000
28.2900 690.0000 1.0000
28.3000 674.0000 1.0000
28.3100 694.0000 1.0000
28.3200 641.0000 1.0000
28.3300 645.0000 1.0000
28.3400 668.0000 1.0000
28.3500 672.0000 1.0000
28.3600 684.0000 1.0000
28.3700 701.0000 1.0000
28.3800 668.0000 1.0000
28.3900 660.0000 1.0000
28.4000 708.0000 1.0000
28.4100 702.0000 1.0000
28.4200 669.0000 1.0000
28.4300 658.0000 1.0000
28.4400 649.0000 1.0000
28.4500 676.0000 1.0000
28.4600 671.0000 1.0000
28.4700 672.0000 1.0000
28.4800 697.0000 1.0000
28.4900 672.0000 1.0000
28.5000 679.0000 1.0000
28.5100 655.0000 1.0000
28.5200 678.0000 1.0000
28.5300 645.0000 1.0000
28.5400 641.0000 1.0000
28.5500 605.0000 1.0000
28.5600 629.0000 1.0000
28.5700 664.0000 1.0000
28.5800 675.0000 1.0000
28.5900 695.0000 1.0000
28.6000 639.0000 1.0000
28.6100 653.0000 1.0000
28.6200 667.0000 1.0000
28.6300 650.0000 1.0000
28.6400 637.0000 1.0000
28.6500 655.0000 1.0000
28.6600 691.0000 1.0000
28.6700 647.0000 1.0000
28.6800 688.0000 1.0000
28.6900 657.0000 1.0000
28.7000 672.0000 1.0000
28.7100 645.0000 1.0000
28.7200 649.0000 1.0000
28.7300 650.0000 1.0000
28.7400 655.0000 1.0000
28.7500 678.0000 1.0000
28.7600 660.0000 1.0000
28.7700 671.0000 1.0000
28.7800 631.0000 1.0000
28.7900 669.0000 1.0000
28.8000 662.0000 1.0000
28.8100 690.0000 1.0000
28.8200 715.0000 1.0000
28.8300 661.0000 1.0000
28.8400 644.0000 1.0000
28.8500 660.0000 1.0000
28.8600 657.0000 1.0000
28.8700 670.0000 1.0000
28.8800 633.0000 1.0000
28.8900 660.0000 1.0000
28.9000 651.0000 1.0000
28.9100 646.0000 1.0000
28.9200 685.0000 1.0000
28.9300 648.0000 1.0000
28.9400 652.0000 1.0000
28.9500 624.0000 1.0000
28.9600 645.0000 1.0000
28.9700 676.0000 1.0000
28.9800 665.0000 1.0000
28.9900 610.0000 1.0000
29.0000 642.0000 1.0000
29.0100 649.0000 1.0000
29.0200 669.0000 1.0000
29.0300 672.0000 1.0000
29.0400 647.0000 1.0000
29.0500 620.0000 1.0000
29.0600 647.0000 1.0000
29.0700 654.0000 1.0000
29.0800 655.0000 1.0000
29.0900 663.0000 1.0000
29.1000 682.0000 1.0000
29.1100 628.0000 1.0000
29.1200 609.0000 1.0000
29.1300 635.0000 1.0000
29.1400 681.0000 1.0000
29.1500 654.0000 1.0000
29.1600 653.0000 1.0000
29.1700 654.0000 1.0000
29.1800 681.0000 1.0000
29.1900 653.0000 1.0000
29.2000 632.0000 1.0000
29.2100 697.0000 1.0000
29.2200 659.0000 1.0000
29.2300 654.0000 1.0000
29.2400 669.0000 1.0000
29.2500 656.0000 1.0000
29.2600 640.0000 1.0000
29.2700 649.0000 1.0000
29.2800 613.0000 1.0000
29.2900 636.0000 1.0000
29.3000 642.0000 1.0000
29.3100 617.0000 1.0000
29.3200 641.0000 1.0000
29.3300 646.0000 1.0000
29.3400 655.0000 1.0000
29.3500 637.0000 1.0000
29.3600 626.0000 1.0000
29.3700 615.0000 1.0000
29.3800 608.0000 1.0000
29.3900 669.0000 1.0000
29.4000 648.0000 1.0000
29.4100 638.0000 1.0000
29.4200 665.0000 1.0000
29.4300 630.0000 1.0000
29.4400 635.0000 1.0000
29.4500 626.0000 1.0000
29.4600 613.0000 1.0000
29.4700 651.0000 1.0000
29.4800 635.0000 1.0000
29.4900 690.0000 1.0000
29.5000 631.0000 1.0000
29.5100 656.0000 1.0000
29.5200 657.0000 1.0000
29.5300 610.0000 1.0000
29.5400 640.0000 1.0000
29.5500 654.0000 1.0000
29.5600 672.0000 1.0000
29.5700 683.0000 1.0000
29.5800 661.0000 1.0000
29.5900 664.0000 1.0000
29.6000 612.0000 1.0000
29.6100 646.0000 1.0000
29.6200 615.0000 1.0000
29.6300 652.0000 1.0000
29.6400 629.0000 1.0000
29.6500 621.0000 1.0000
29.6600 626.0000 1.0000
29.6700 656.0000 1.0000
29.6800 667.0000 1.0000
29.6900 602.0000 1.0000
29.7000 630.0000 1.0000
29.7100 630.0000 1.0000
29.7200 640.0000 1.0000
29.7300 652.0000 1.0000
29.7400 643.0000 1.0000
29.7500 626.0000 1.0000
29.7600 637.0000 1.0000
29.7700 606.0000 1.0000
29.7800 609.0000 1.0000
29.7900 613.0000 1.0000
29.8000 627.0000 1.0000
29.8100 629.0000 1.0000
29.8200 622.0000 1.0000
29.8300 693.0000 1.0000
29.8400 642.0000 1.0000
29.8500 625.0000 1.0000
29.8600 623.0000 1.0000
29.8700 603.0000 1.0000
29.8800 630.0000 1.0000
29.8900 630.0000 1.0000
29.9000 617.0000 1.0000
29.9100 617.0000 1.0000
29.9200 646.0000 1.0000
29.9300 636.0000 1.0000
29.9400 609.0000 1.0000
29.9500 611.0000 1.0000
29.9600 612.0000 1.0000
29.9700 633.0000 1.0000
29.9800 668.0000 1.0000
29.9900 664.0000 1.0000
30.0000 608.0000 1.0000
30.0100 603.0000 1.0000
30.0200 574.0000 1.0000
30.0300 662.0000 1.0000
30.0400 624.0000 1.0000
30.0500 614.0000 1.0000
30.0600 611.0000 1.0000
30.0700 636.0000 1.0000
30.0800 682.0000 1.0000
30.0900 625.0000 1.0000
30.1000 614.0000 1.0000
30.1100 632.0000 1.0000
30.1200 613.0000 1.0000
30.1300 615.0000 1.0000
30.1400 606.0000 1.0000
30.1500 598.0000 1.0000
30.1600 613.0000 1.0000
30.1700 617.0000 1.0000
30.1800 607.0000 1.0000
30.1900 558.0000 1.0000
30.2000 580.0000 1.0000
30.2100 633.0000 1.0000
30.2200 619.0000 1.0000
30.2300 588.0000 1.0000
30.2400 604.0000 1.0000
30.2500 637.0000 1.0000
30.2600 616.0000 1.0000
30.2700 610.0000 1.0000
30.2800 599.0000 1.0000
30.2900 647.0000 1.0000
30.3000 661.0000 1.0000
30.3100 605.0000 1.0000
30.3200 610.0000 1.0000
30.3300 583.0000 1.0000
30.3400 614.0000 1.0000
30.3500 573.0000 1.0000
30.3600 621.0000 1.0000
30.3700 632.0000 1.0000
30.3800 590.0000 1.0000
30.3900 612.0000 1.0000
30.4000 650.0000 1.0000
30.4100 593.0000 1.0000
30.4200 592.0000 1.0000
30.4300 589.0000 1.0000
30.4400 615.0000 1.0000
30.4500 630.0000 1.0000
30.4600 628.0000 1.0000
30.4700 649.0000 1.0000
30.4800 610.0000 1.0000
30.4900 614.0000 1.0000
30.5000 633.0000 1.0000
30.5100 628.0000 1.0000
30.5200 607.0000 1.0000
30.5300 600.0000 1.0000
30.5400 629.0000 1.0000
30.5500 634.0000 1.0000
30.5600 594.0000 1.0000
30.5700 600.0000 1.0000
30.5800 600.0000 1.0000
30.5900 595.0000 1.0000
30.6000 626.0000 1.0000
30.6100 614.0000 1.0000
30.6200 611.0000 1.0000
30.6300 632.0000 1.0000
30.6400 658.0000 1.0000
30.6500 607.0000 1.0000
30.6600 636.0000 1.0000
30.6700 684.0000 1.0000
30.6800 595.0000 1.0000
30.6900 572.0000 1.0000
30.7000 593.0000 1.0000
30.7100 638.0000 1.0000
30.7200 630.0000 1.0000
30.7300 619.0000 1.0000
30.7400 635.0000 1.0000
30.7500 636.0000 1.0000
30.7600 611.0000 1.0000
30.7700 582.0000 1.0000
30.7800 655.0000 1.0000
30.7900 595.0000 1.0000
30.8000 616.0000 1.0000
30.8100 618.0000 1.0000
30.8200 597.0000 1.0000
30.8300 650.0000 1.0000
30.8400 646.0000 1.0000
30.8500 588.0000 1.0000
30.8600 604.0000 1.0000
30.8700 612.0000 1.0000
30.8800 612.0000 1.0000
30.8900 579.0000 1.0000
30.9000 606.0000 1.0000
30.9100 576.0000 1.0000
30.9200 607.0000 1.0000
30.9300 616.0000 1.0000
30.9400 638.0000 1.0000
30.9500 624.0000 1.0000
30.9600 607.0000 1.0000
30.9700 599.0000 1.0000
30.9800 597.0000 1.0000
30.9900 629.0000 1.0000
31.0000 608.0000 1.0000
31.0100 624.0000 1.0000
31.0200 607.0000 1.0000
31.0300 596.0000 1.0000
31.0400 600.0000 1.0000
31.0500 597.0000 1.0000
31.0600 627.0000 1.0000
31.0700 612.0000 1.0000
31.0800 610.0000 1.0000
31.0900 641.0000 1.0000
31.1000 610.0000 1.0000
31.1100 594.0000 1.0000
31.1200 560.0000 1.0000
31.1300 627.0000 1.0000
31.1400 615.0000 1.0000
31.1500 608.0000 1.0000
31.1600 652.0000 1.0000
31.1700 622.0000 1.0000
31.1800 625.0000 1.0000
31.1900 555.0000 1.0000
31.2000 576.0000 1.0000
31.2100 636.0000 1.0000
31.2200 624.0000 1.0000
31.2300 584.0000 1.0000
31.2400 605.0000 1.0000
31.2500 617.0000 1.0000
31.2600 593.0000 1.0000
31.2700 593.0000 1.0000
31.2800 582.0000 1.0000
31.2900 597.0000 1.0000
31.3000 610.0000 1.0000
31.3100 611.0000 1.0000
31.3200 627.0000 1.0000
31.3300 598.0000 1.0000
31.3400 622.0000 1.0000
31.3500 610.0000 1.0000
31.3600 594.0000 1.0000
31.3700 625.0000 1.0000
31.3800 651.0000 1.0000
31.3900 616.0000 1.0000
31.4000 584.0000 1.0000
31.4100 599.0000 1.0000
31.4200 613.0000 1.0000
31.4300 593.0000 1.0000
31.4400 569.0000 1.0000
31.4500 579.0000 1.0000
31.4600 598.0000 1.0000
31.4700 608.0000 1.0000
31.4800 559.0000 1.0000
31.4900 572.0000 1.0000
31.5000 555.0000 1.0000
31.5100 585.0000 1.0000
31.5200 623.0000 1.0000
31.5300 608.0000 1.0000
31.5400 594.0000 1.0000
31.5500 576.0000 1.0000
31.5600 580.0000 1.0000
31.5700 589.0000 1.0000
31.5800 615.0000 1.0000
31.5900 589.0000 1.0000
31.6000 617.0000 1.0000
31.6100 581.0000 1.0000
31.6200 575.0000 1.0000
31.6300 624.0000 1.0000
31.6400 586.0000 1.0000
31.6500 586.0000 1.0000
31.6600 587.0000 1.0000
31.6700 610.0000 1.0000
31.6800 600.0000 1.0000
31.6900 608.0000 1.0000
31.7000 539.0000 1.0000
31.7100 576.0000 1.0000
31.7200 602.0000 1.0000
31.7300 584.0000 1.0000
31.7400 614.0000 1.0000
31.7500 567.0000 1.0000
31.7600 622.0000 1.0000
31.7700 572.0000 1.0000
31.7800 603.0000 1.0000
31.7900 609.0000 1.0000
31.8000 585.0000 1.0000
31.8100 607.0000 1.0000
31.8200 586.0000 1.0000
31.8300 602.0000 1.0000
31.8400 583.0000 1.0000
31.8500 619.0000 1.0000
31.8600 567.0000 1.0000
31.8700 597.0000 1.0000
31.8800 588.0000 1.0000
31.8900 585.0000 1.0000
31.9000 608.0000 1.0000
31.9100 603.0000 1.0000
31.9200 560.0000 1.0000
31.9300 604.0000 1.0000
31.9400 625.0000 1.0000
31.9500 614.0000 1.0000
31.9600 614.0000 1.0000
31.9700 595.0000 1.0000
31.9800 627.0000 1.0000
31.9900 593.0000 1.0000
32.0000 602.0000 1.0000
32.0100 593.0000 1.0000
32.0200 608.0000 1.0000
32.0300 630.0000 1.0000
32.0400 604.0000 1.0000
32.0500 585.0000 1.0000
32.0600 580.0000 1.0000
32.0700 614.0000 1.0000
32.0800 624.0000 1.0000
32.0900 603.0000 1.0000
32.1000 578.0000 1.0000
32.1100 582.0000 1.0000
32.1200 603.0000 1.0000
32.1300 601.0000 1.0000
32.1400 598.0000 1.0000
32.1500 600.0000 1.0000
32.1600 610.0000 1.0000
32.1700 595.0000 1.0000
32.1800 527.0000 1.0000
32.1900 581.0000 1.0000
32.2000 599.0000 1.0000
32.2100 602.0000 1.0000
32.2200 613.0000 1.0000
32.2300 587.0000 1.0000
32.2400 576.0000 1.0000
32.2500 626.0000 1.0000
32.2600 605.0000 1.0000
32.2700 638.0000 1.0000
32.2800 595.0000 1.0000
32.2900 635.0000 1.0000
32.3000 557.0000 1.0000
32.3100 577.0000 1.0000
32.3200 589.0000 1.0000
32.3300 591.0000 1.0000
32.3400 601.0000 1.0000
32.3500 620.0000 1.0000
32.3600 605.0000 1.0000
32.3700 626.0000 1.0000
32.3800 608.0000 1.0000
32.3900 602.0000 1.0000
32.4000 634.0000 1.0000
32.4100 644.0000 1.0000
32.4200 590.0000 1.0000
32.4300 590.0000 1.0000
32.4400 606.0000 1.0000
32.4500 638.0000 1.0000
32.4600 561.0000 1.0000
32.4700 594.0000 1.0000
32.4800 579.0000 1.0000
32.4900 580.0000 1.0000
32.5000 581.0000 1.0000
32.5100 613.0000 1.0000
32.5200 611.0000 1.0000
32.5300 591.0000 1.0000
32.5400 562.0000 1.0000
32.5500 616.0000 1.0000
32.5600 560.0000 1.0000
32.5700 571.0000 1.0000
32.5800 572.0000 1.0000
32.5900 569.0000 1.0000
32.6000 622.0000 1.0000
32.6100 600.0000 1.0000
32.6200 577.0000 1.0000
32.6300 573.0000 1.0000
32.6400 596.0000 1.0000
32.6500 548.0000 1.0000
32.6600 583.0000 1.0000
32.6700 580.0000 1.0000
32.6800 598.0000 1.0000
32.6900 569.0000 1.0000
32.7000 586.0000 1.0000
32.7100 554.0000 1.0000
32.7200 593.0000 1.0000
32.7300 561.0000 1.0000
32.7400 589.0000 1.0000
32.7500 559.0000 1.0000
32.7600 547.0000 1.0000
32.7700 556.0000 1.0000
32.7800 581.0000 1.0000
32.7900 522.0000 1.0000
32.8000 585.0000 1.0000
32.8100 576.0000 1.0000
32.8200 548.0000 1.0000
32.8300 578.0000 1.0000
32.8400 573.0000 1.0000
32.8500 587.0000 1.0000
32.8600 572.0000 1.0000
32.8700 570.0000 1.0000
32.8800 573.0000 1.0000
32.8900 559.0000 1.0000
32.9000 528.0000 1.0000
32.9100 557.0000 1.0000
32.9200 565.0000 1.0000
32.9300 559.0000 1.0000
32.9400 552.0000 1.0000
32.9500 569.0000 1.0000
32.9600 548.0000 1.0000
32.9700 556.0000 1.0000
32.9800 592.0000 1.0000
32.9900 566.0000 1.0000
33.0000 584.0000 1.0000
33.0100 566.0000 1.0000
33.0200 572.0000 1.0000
33.0300 574.0000 1.0000
33.0400 570.0000 1.0000
33.0500 592.0000 1.0000
33.0600 550.0000 1.0000
33.0700 547.0000 1.0000
33.0800 575.0000 1.0000
33.0900 535.0000 1.0000
33.1000 546.0000 1.0000
33.1100 542.0000 1.0000
33.1200 570.0000 1.0000
33.1300 540.0000 1.0000
33.1400 501.0000 1.0000
33.1500 536.0000 1.0000
33.1600 560.0000 1.0000
33.1700 540.0000 1.0000
33.1800 547.0000 1.0000
33.1900 568.0000 1.0000
33.2000 578.0000 1.0000
33.2100 545.0000 1.0000
33.2200 567.0000 1.0000
33.2300 515.0000 1.0000
33.2400 534.0000 1.0000
33.2500 540.0000 1.0000
33.2600 574.0000 1.0000
33.2700 583.0000 1.0000
33.2800 535.0000 1.0000
33.2900 502.0000 1.0000
33.3000 500.0000 1.0000
33.3100 561.0000 1.0000
33.3200 582.0000 1.0000
33.3300 510.0000 1.0000
33.3400 551.0000 1.0000
33.3500 582.0000 1.0000
33.3600 552.0000 1.0000
33.3700 559.0000 1.0000
33.3800 576.0000 1.0000
33.3900 585.0000 1.0000
33.4000 576.0000 1.0000
33.4100 547.0000 1.0000
33.4200 577.0000 1.0000
33.4300 577.0000 1.0000
33.4400 592.0000 1.0000
33.4500 565.0000 1.0000
33.4600 554.0000 1.0000
33.4700 519.0000 1.0000
33.4800 563.0000 1.0000
33.4900 551.0000 1.0000
33.5000 536.0000 1.0000
33.5100 589.0000 1.0000
33.5200 549.0000 1.0000
33.5300 581.0000 1.0000
33.5400 575.0000 1.0000
33.5500 617.0000 1.0000
33.5600 575.0000 1.0000
33.5700 579.0000 1.0000
33.5800 580.0000 1.0000
33.5900 584.0000 1.0000
33.6000 547.0000 1.0000
33.6100 556.0000 1.0000
33.6200 584.0000 1.0000
33.6300 572.0000 1.0000
33.6400 562.0000 1.0000
33.6500 553.0000 1.0000
33.6600 580.0000 1.0000
33.6700 555.0000 1.0000
33.6800 569.0000 1.0000
33.6900 573.0000 1.0000
33.7000 566.0000 1.0000
33.7100 600.0000 1.0000
33.7200 546.0000 1.0000
33.7300 618.0000 1.0000
33.7400 596.0000 1.0000
33.7500 594.0000 1.0000
33.7600 582.0000 1.0000
33.7700 610.0000 1.0000
33.7800 596.0000 1.0000
33.7900 601.0000 1.0000
33.8000 604.0000 1.0000
33.8100 638.0000 1.0000
33.8200 635.0000 1.0000
33.8300 588.0000 1.0000
33.8400 584.0000 1.0000
33.8500 620.0000 1.0000
33.8600 654.0000 1.0000
33.8700 602.0000 1.0000
33.8800 610.0000 1.0000
33.8900 641.0000 1.0000
33.9000 619.0000 1.0000
33.9100 604.0000 1.0000
33.9200 642.0000 1.0000
33.9300 675.0000 1.0000
33.9400 676.0000 1.0000
33.9500 641.0000 1.0000
33.9600 596.0000 1.0000
33.9700 654.0000 1.0000
33.9800 657.0000 1.0000
33.9900 626.0000 1.0000
34.0000 642.0000 1.0000
34.0100 630.0000 1.0000
34.0200 589.0000 1.0000
34.0300 678.0000 1.0000
34.0400 607.0000 1.0000
34.0500 662.0000 1.0000
34.0600 663.0000 1.0000
34.0700 624.0000 1.0000
34.0800 643.0000 1.0000
34.0900 650.0000 1.0000
34.1000 625.0000 1.0000
34.1100 630.0000 1.0000
34.1200 588.0000 1.0000
34.1300 612.0000 1.0000
34.1400 643.0000 1.0000
34.1500 637.0000 1.0000
34.1600 608.0000 1.0000
34.1700 636.0000 1.0000
34.1800 658.0000 1.0000
34.1900 624.0000 1.0000
34.2000 665.0000 1.0000
34.2100 645.0000 1.0000
34.2200 634.0000 1.0000
34.2300 626.0000 1.0000
34.2400 653.0000 1.0000
34.2500 688.0000 1.0000
34.2600 695.0000 1.0000
34.2700 682.0000 1.0000
34.2800 719.0000 1.0000
34.2900 720.0000 1.0000
34.3000 709.0000 1.0000
34.3100 737.0000 1.0000
34.3200 769.0000 1.0000
34.3300 765.0000 1.0000
34.3400 769.0000 1.0000
34.3500 770.0000 1.0000
34.3600 829.0000 1.0000
34.3700 850.0000 1.0000
34.3800 864.0000 1.0000
34.3900 917.0000 1.0000
34.4000 925.0000 1.0000
34.4100 952.0000 1.0000
34.4200 954.0000 1.0000
34.4300 1061.0000 1.0000
34.4400 1153.0000 1.0000
34.4500 1139.0000 1.0000
34.4600 1240.0000 1.0000
34.4700 1286.0000 1.0000
34.4800 1311.0000 1.0000
34.4900 1306.0000 1.0000
34.5000 1301.0000 1.0000
34.5100 1403.0000 1.0000
34.5200 1438.0000 1.0000
34.5300 1408.0000 1.0000
34.5400 1465.0000 1.0000
34.5500 1457.0000 1.0000
34.5600 1365.0000 1.0000
34.5700 1358.0000 1.0000
34.5800 1374.0000 1.0000
34.5900 1365.0000 1.0000
34.6000 1259.0000 1.0000
34.6100 1241.0000 1.0000
34.6200 1185.0000 1.0000
34.6300 1137.0000 1.0000
34.6400 1124.0000 1.0000
34.6500 1070.0000 1.0000
34.6600 1009.0000 1.0000
34.6700 1021.0000 1.0000
34.6800 993.0000 1.0000
34.6900 932.0000 1.0000
34.7000 845.0000 1.0000
34.7100 832.0000 1.0000
34.7200 813.0000 1.0000
34.7300 789.0000 1.0000
34.7400 778.0000 1.0000
34.7500 750.0000 1.0000
34.7600 785.0000 1.0000
34.7700 767.0000 1.0000
34.7800 731.0000 1.0000
34.7900 718.0000 1.0000
34.8000 709.0000 1.0000
34.8100 735.0000 1.0000
34.8200 678.0000 1.0000
34.8300 684.0000 1.0000
34.8400 651.0000 1.0000
34.8500 640.0000 1.0000
34.8600 649.0000 1.0000
34.8700 687.0000 1.0000
34.8800 636.0000 1.0000
34.8900 602.0000 1.0000
34.9000 639.0000 1.0000
34.9100 628.0000 1.0000
34.9200 597.0000 1.0000
34.9300 587.0000 1.0000
34.9400 599.0000 1.0000
34.9500 618.0000 1.0000
34.9600 557.0000 1.0000
34.9700 569.0000 1.0000
34.9800 553.0000 1.0000
34.9900 583.0000 1.0000
35.0000 565.0000 1.0000
35.0100 548.0000 1.0000
35.0200 578.0000 1.0000
35.0300 555.0000 1.0000
35.0400 578.0000 1.0000
35.0500 545.0000 1.0000
35.0600 576.0000 1.0000
35.0700 544.0000 1.0000
35.0800 585.0000 1.0000
35.0900 536.0000 1.0000
35.1000 552.0000 1.0000
35.1100 523.0000 1.0000
35.1200 564.0000 1.0000
35.1300 559.0000 1.0000
35.1400 529.0000 1.0000
35.1500 530.0000 1.0000
35.1600 536.0000 1.0000
35.1700 510.0000 1.0000
35.1800 551.0000 1.0000
35.1900 518.0000 1.0000
35.2000 496.0000 1.0000
35.2100 500.0000 1.0000
35.2200 538.0000 1.0000
35.2300 557.0000 1.0000
35.2400 510.0000 1.0000
35.2500 516.0000 1.0000
35.2600 516.0000 1.0000
35.2700 498.0000 1.0000
35.2800 511.0000 1.0000
35.2900 523.0000 1.0000
35.3000 489.0000 1.0000
35.3100 514.0000 1.0000
35.3200 501.0000 1.0000
35.3300 516.0000 1.0000
35.3400 518.0000 1.0000
35.3500 516.0000 1.0000
35.3600 549.0000 1.0000
35.3700 505.0000 1.0000
35.3800 504.0000 1.0000
35.3900 486.0000 1.0000
35.4000 520.0000 1.0000
35.4100 482.0000 1.0000
35.4200 512.0000 1.0000
35.4300 505.0000 1.0000
35.4400 510.0000 1.0000
35.4500 553.0000 1.0000
35.4600 515.0000 1.0000
35.4700 529.0000 1.0000
35.4800 556.0000 1.0000
35.4900 497.0000 1.0000
35.5000 525.0000 1.0000
35.5100 484.0000 1.0000
35.5200 550.0000 1.0000
35.5300 495.0000 1.0000
35.5400 509.0000 1.0000
35.5500 534.0000 1.0000
35.5600 508.0000 1.0000
35.5700 490.0000 1.0000
35.5800 499.0000 1.0000
35.5900 487.0000 1.0000
35.6000 471.0000 1.0000
35.6100 477.0000 1.0000
35.6200 487.0000 1.0000
35.6300 496.0000 1.0000
35.6400 472.0000 1.0000
35.6500 444.0000 1.0000
35.6600 462.0000 1.0000
35.6700 495.0000 1.0000
35.6800 529.0000 1.0000
35.6900 499.0000 1.0000
35.7000 498.0000 1.0000
35.7100 491.0000 1.0000
35.7200 470.0000 1.0000
35.7300 485.0000 1.0000
35.7400 516.0000 1.0000
35.7500 447.0000 1.0000
35.7600 496.0000 1.0000
35.7700 459.0000 1.0000
35.7800 510.0000 1.0000
35.7900 488.0000 1.0000
35.8000 457.0000 1.0000
35.8100 476.0000 1.0000
35.8200 498.0000 1.0000
35.8300 455.0000 1.0000
35.8400 508.0000 1.0000
35.8500 492.0000 1.0000
35.8600 470.0000 1.0000
35.8700 512.0000 1.0000
35.8800 500.0000 1.0000
35.8900 480.0000 1.0000
35.9000 468.0000 1.0000
35.9100 505.0000 1.0000
35.9200 486.0000 1.0000
35.9300 524.0000 1.0000
35.9400 541.0000 1.0000
35.9500 509.0000 1.0000
35.9600 469.0000 1.0000
35.9700 451.0000 1.0000
35.9800 492.0000 1.0000
35.9900 473.0000 1.0000
36.0000 501.0000 1.0000
36.0100 471.0000 1.0000
36.0200 433.0000 1.0000
36.0300 466.0000 1.0000
36.0400 466.0000 1.0000
36.0500 485.0000 1.0000
36.0600 497.0000 1.0000
36.0700 494.0000 1.0000
36.0800 542.0000 1.0000
36.0900 494.0000 1.0000
36.1000 527.0000 1.0000
36.1100 512.0000 1.0000
36.1200 518.0000 1.0000
36.1300 498.0000 1.0000
36.1400 493.0000 1.0000
36.1500 511.0000 1.0000
36.1600 520.0000 1.0000
36.1700 580.0000 1.0000
36.1800 531.0000 1.0000
36.1900 555.0000 1.0000
36.2000 531.0000 1.0000
36.2100 553.0000 1.0000
36.2200 532.0000 1.0000
36.2300 537.0000 1.0000
36.2400 547.0000 1.0000
36.2500 555.0000 1.0000
36.2600 600.0000 1.0000
36.2700 570.0000 1.0000
36.2800 582.0000 1.0000
36.2900 590.0000 1.0000
36.3000 591.0000 1.0000
36.3100 624.0000 1.0000
36.3200 653.0000 1.0000
36.3300 687.0000 1.0000
36.3400 692.0000 1.0000
36.3500 738.0000 1.0000
36.3600 720.0000 1.0000
36.3700 736.0000 1.0000
36.3800 710.0000 1.0000
36.3900 783.0000 1.0000
36.4000 802.0000 1.0000
36.4100 789.0000 1.0000
36.4200 837.0000 1.0000
36.4300 857.0000 1.0000
36.4400 844.0000 1.0000
36.4500 809.0000 1.0000
36.4600 833.0000 1.0000
36.4700 846.0000 1.0000
36.4800 843.0000 1.0000
36.4900 805.0000 1.0000
36.5000 780.0000 1.0000
36.5100 743.0000 1.0000
36.5200 773.0000 1.0000
36.5300 755.0000 1.0000
36.5400 773.0000 1.0000
36.5500 698.0000 1.0000
36.5600 725.0000 1.0000
36.5700 706.0000 1.0000
36.5800 666.0000 1.0000
36.5900 673.0000 1.0000
36.6000 640.0000 1.0000
36.6100 620.0000 1.0000
36.6200 592.0000 1.0000
36.6300 584.0000 1.0000
36.6400 569.0000 1.0000
36.6500 537.0000 1.0000
36.6600 558.0000 1.0000
36.6700 559.0000 1.0000
36.6800 547.0000 1.0000
36.6900 528.0000 1.0000
36.7000 536.0000 1.0000
36.7100 507.0000 1.0000
36.7200 523.0000 1.0000
36.7300 483.0000 1.0000
36.7400 484.0000 1.0000
36.7500 495.0000 1.0000
36.7600 486.0000 1.0000
36.7700 483.0000 1.0000
36.7800 472.0000 1.0000
36.7900 501.0000 1.0000
36.8000 490.0000 1.0000
36.8100 442.0000 1.0000
36.8200 435.0000 1.0000
36.8300 420.0000 1.0000
36.8400 485.0000 1.0000
36.8500 429.0000 1.0000
36.8600 439.0000 1.0000
36.8700 460.0000 1.0000
36.8800 443.0000 1.0000
36.8900 483.0000 1.0000
36.9000 418.0000 1.0000
36.9100 453.0000 1.0000
36.9200 459.0000 1.0000
36.9300 458.0000 1.0000
36.9400 449.0000 1.0000
36.9500 469.0000 1.0000
36.9600 462.0000 1.0000
36.9700 442.0000 1.0000
36.9800 461.0000 1.0000
36.9900 481.0000 1.0000
37.0000 475.0000 1.0000
37.0100 443.0000 1.0000
37.0200 488.0000 1.0000
37.0300 489.0000 1.0000
37.0400 428.0000 1.0000
37.0500 430.0000 1.0000
37.0600 467.0000 1.0000
37.0700 446.0000 1.0000
37.0800 480.0000 1.0000
37.0900 437.0000 1.0000
37.1000 436.0000 1.0000
37.1100 466.0000 1.0000
37.1200 449.0000 1.0000
37.1300 428.0000 1.0000
37.1400 380.0000 1.0000
37.1500 433.0000 1.0000
37.1600 439.0000 1.0000
37.1700 437.0000 1.0000
37.1800 451.0000 1.0000
37.1900 471.0000 1.0000
37.2000 430.0000 1.0000
37.2100 463.0000 1.0000
37.2200 429.0000 1.0000
37.2300 454.0000 1.0000
37.2400 454.0000 1.0000
37.2500 448.0000 1.0000
37.2600 487.0000 1.0000
37.2700 475.0000 1.0000
37.2800 445.0000 1.0000
37.2900 442.0000 1.0000
37.3000 441.0000 1.0000
37.3100 422.0000 1.0000
37.3200 441.0000 1.0000
37.3300 454.0000 1.0000
37.3400 444.0000 1.0000
37.3500 449.0000 1.0000
37.3600 423.0000 1.0000
37.3700 431.0000 1.0000
37.3800 449.0000 1.0000
37.3900 439.0000 1.0000
37.4000 434.0000 1.0000
37.4100 436.0000 1.0000
37.4200 467.0000 1.0000
37.4300 452.0000 1.0000
37.4400 444.0000 1.0000
37.4500 483.0000 1.0000
37.4600 450.0000 1.0000
37.4700 452.0000 1.0000
37.4800 476.0000 1.0000
37.4900 440.0000 1.0000
37.5000 434.0000 1.0000
37.5100 440.0000 1.0000
37.5200 452.0000 1.0000
37.5300 467.0000 1.0000
37.5400 425.0000 1.0000
37.5500 436.0000 1.0000
37.5600 451.0000 1.0000
37.5700 456.0000 1.0000
37.5800 459.0000 1.0000
37.5900 450.0000 1.0000
37.6000 454.0000 1.0000
37.6100 477.0000 1.0000
37.6200 453.0000 1.0000
37.6300 411.0000 1.0000
37.6400 409.0000 1.0000
37.6500 428.0000 1.0000
37.6600 436.0000 1.0000
37.6700 458.0000 1.0000
37.6800 445.0000 1.0000
37.6900 446.0000 1.0000
37.7000 456.0000 1.0000
37.7100 458.0000 1.0000
37.7200 445.0000 1.0000
37.7300 453.0000 1.0000
37.7400 493.0000 1.0000
37.7500 452.0000 1.0000
37.7600 450.0000 1.0000
37.7700 465.0000 1.0000
37.7800 445.0000 1.0000
37.7900 444.0000 1.0000
37.8000 469.0000 1.0000
37.8100 502.0000 1.0000
37.8200 452.0000 1.0000
37.8300 456.0000 1.0000
37.8400 416.0000 1.0000
37.8500 456.0000 1.0000
37.8600 454.0000 1.0000
37.8700 419.0000 1.0000
37.8800 446.0000 1.0000
37.8900 454.0000 1.0000
37.9000 475.0000 1.0000
37.9100 488.0000 1.0000
37.9200 421.0000 1.0000
37.9300 444.0000 1.0000
37.9400 476.0000 1.0000
37.9500 456.0000 1.0000
37.9600 456.0000 1.0000
37.9700 470.0000 1.0000
37.9800 446.0000 1.0000
37.9900 472.0000 1.0000
38.0000 445.0000 1.0000
38.0100 461.0000 1.0000
38.0200 456.0000 1.0000
38.0300 461.0000 1.0000
38.0400 488.0000 1.0000
38.0500 490.0000 1.0000
38.0600 475.0000 1.0000
38.0700 447.0000 1.0000
38.0800 471.0000 1.0000
38.0900 465.0000 1.0000
38.1000 478.0000 1.0000
38.1100 498.0000 1.0000
38.1200 524.0000 1.0000
38.1300 512.0000 1.0000
38.1400 522.0000 1.0000
38.1500 529.0000 1.0000
38.1600 499.0000 1.0000
38.1700 514.0000 1.0000
38.1800 544.0000 1.0000
38.1900 567.0000 1.0000
38.2000 558.0000 1.0000
38.2100 524.0000 1.0000
38.2200 563.0000 1.0000
38.2300 595.0000 1.0000
38.2400 598.0000 1.0000
38.2500 616.0000 1.0000
38.2600 650.0000 1.0000
38.2700 626.0000 1.0000
38.2800 659.0000 1.0000
38.2900 679.0000 1.0000
38.3000 718.0000 1.0000
38.3100 712.0000 1.0000
38.3200 713.0000 1.0000
38.3300 773.0000 1.0000
38.3400 794.0000 1.0000
38.3500 835.0000 1.0000
38.3600 862.0000 1.0000
38.3700 921.0000 1.0000
38.3800 977.0000 1.0000
38.3900 1060.0000 1.0000
38.4000 1014.0000 1.0000
38.4100 1170.0000 1.0000
38.4200 1183.0000 1.0000
38.4300 1298.0000 1.0000
38.4400 1322.0000 1.0000
38.4500 1446.0000 1.0000
38.4600 1581.0000 1.0000
38.4700 1709.0000 1.0000
38.4800 1782.0000 1.0000
38.4900 1884.0000 1.0000
38.5000 1947.0000 1.0000
38.5100 2075.0000 1.0000
38.5200 2232.0000 1.0000
38.5300 2250.0000 1.0000
38.5400 2434.0000 1.0000
38.5500 2464.0000 1.0000
38.5600 2493.0000 1.0000
38.5700 2520.0000 1.0000
38.5800 2513.0000 1.0000
38.5900 2549.0000 1.0000
38.6000 2544.0000 1.0000
38.6100 2437.0000 1.0000
38.6200 2458.0000 1.0000
38.6300 2352.0000 1.0000
38.6400 2267.0000 1.0000
38.6500 2146.0000 1.0000
38.6600 2077.0000 1.0000
38.6700 2013.0000 1.0000
38.6800 1815.0000 1.0000
38.6900 1822.0000 1.0000
38.7000 1666.0000 1.0000
38.7100 1579.0000 1.0000
38.7200 1550.0000 1.0000
38.7300 1465.0000 1.0000
38.7400 1412.0000 1.0000
38.7500 1295.0000 1.0000
38.7600 1145.0000 1.0000
38.7700 1106.0000 1.0000
38.7800 1053.0000 1.0000
38.7900 966.0000 1.0000
38.8000 865.0000 1.0000
38.8100 852.0000 1.0000
38.8200 907.0000 1.0000
38.8300 821.0000 1.0000
38.8400 794.0000 1.0000
38.8500 744.0000 1.0000
38.8600 673.0000 1.0000
38.8700 721.0000 1.0000
38.8800 636.0000 1.0000
38.8900 621.0000 1.0000
38.9000 607.0000 1.0000
38.9100 588.0000 1.0000
38.9200 572.0000 1.0000
38.9300 605.0000 1.0000
38.9400 557.0000 1.0000
38.9500 506.0000 1.0000
38.9600 547.0000 1.0000
38.9700 516.0000 1.0000
38.9800 510.0000 1.0000
38.9900 502.0000 1.0000
39.0000 495.0000 1.0000
39.0100 487.0000 1.0000
39.0200 480.0000 1.0000
39.0300 478.0000 1.0000
39.0400 517.0000 1.0000
39.0500 465.0000 1.0000
39.0600 470.0000 1.0000
39.0700 470.0000 1.0000
39.0800 489.0000 1.0000
39.0900 473.0000 1.0000
39.1000 447.0000 1.0000
39.1100 448.0000 1.0000
39.1200 422.0000 1.0000
39.1300 434.0000 1.0000
39.1400 464.0000 1.0000
39.1500 436.0000 1.0000
39.1600 449.0000 1.0000
39.1700 430.0000 1.0000
39.1800 415.0000 1.0000
39.1900 413.0000 1.0000
39.2000 458.0000 1.0000
39.2100 447.0000 1.0000
39.2200 438.0000 1.0000
39.2300 403.0000 1.0000
39.2400 384.0000 1.0000
39.2500 407.0000 1.0000
39.2600 446.0000 1.0000
39.2700 427.0000 1.0000
39.2800 438.0000 1.0000
39.2900 418.0000 1.0000
39.3000 383.0000 1.0000
39.3100 395.0000 1.0000
39.3200 417.0000 1.0000
39.3300 424.0000 1.0000
39.3400 415.0000 1.0000
39.3500 430.0000 1.0000
39.3600 422.0000 1.0000
39.3700 389.0000 1.0000
39.3800 433.0000 1.0000
39.3900 396.0000 1.0000
39.4000 406.0000 1.0000
39.4100 388.0000 1.0000
39.4200 373.0000 1.0000
39.4300 409.0000 1.0000
39.4400 422.0000 1.0000
39.4500 434.0000 1.0000
39.4600 417.0000 1.0000
39.4700 421.0000 1.0000
39.4800 455.0000 1.0000
39.4900 400.0000 1.0000
39.5000 409.0000 1.0000
39.5100 439.0000 1.0000
39.5200 417.0000 1.0000
39.5300 432.0000 1.0000
39.5400 435.0000 1.0000
39.5500 416.0000 1.0000
39.5600 416.0000 1.0000
39.5700 428.0000 1.0000
39.5800 421.0000 1.0000
39.5900 427.0000 1.0000
39.6000 424.0000 1.0000
39.6100 430.0000 1.0000
39.6200 423.0000 1.0000
39.6300 441.0000 1.0000
39.6400 442.0000 1.0000
39.6500 447.0000 1.0000
39.6600 461.0000 1.0000
39.6700 429.0000 1.0000
39.6800 391.0000 1.0000
39.6900 430.0000 1.0000
39.7000 414.0000 1.0000
39.7100 404.0000 1.0000
39.7200 452.0000 1.0000
39.7300 421.0000 1.0000
39.7400 387.0000 1.0000
39.7500 380.0000 1.0000
39.7600 374.0000 1.0000
39.7700 425.0000 1.0000
39.7800 448.0000 1.0000
39.7900 396.0000 1.0000
39.8000 405.0000 1.0000
39.8100 371.0000 1.0000
39.8200 397.0000 1.0000
39.8300 391.0000 1.0000
39.8400 380.0000 1.0000
39.8500 400.0000 1.0000
39.8600 404.0000 1.0000
39.8700 426.0000 1.0000
39.8800 389.0000 1.0000
39.8900 358.0000 1.0000
39.9000 365.0000 1.0000
39.9100 401.0000 1.0000
39.9200 397.0000 1.0000
39.9300 390.0000 1.0000
39.9400 400.0000 1.0000
39.9500 376.0000 1.0000
39.9600 404.0000 1.0000
39.9700 418.0000 1.0000
39.9800 430.0000 1.0000
39.9900 377.0000 1.0000
40.0000 380.0000 1.0000
40.0100 385.0000 1.0000
40.0200 374.0000 1.0000
40.0300 374.0000 1.0000
40.0400 395.0000 1.0000
40.0500 395.0000 1.0000
40.0600 410.0000 1.0000
40.0700 382.0000 1.0000
40.0800 401.0000 1.0000
40.0900 362.0000 1.0000
40.1000 407.0000 1.0000
40.1100 369.0000 1.0000
40.1200 346.0000 1.0000
40.1300 389.0000 1.0000
40.1400 419.0000 1.0000
40.1500 372.0000 1.0000
40.1600 400.0000 1.0000
40.1700 389.0000 1.0000
40.1800 378.0000 1.0000
40.1900 408.0000 1.0000
40.2000 397.0000 1.0000
40.2100 349.0000 1.0000
40.2200 397.0000 1.0000
40.2300 400.0000 1.0000
40.2400 392.0000 1.0000
40.2500 382.0000 1.0000
40.2600 380.0000 1.0000
40.2700 378.0000 1.0000
40.2800 366.0000 1.0000
40.2900 389.0000 1.0000
40.3000 363.0000 1.0000
40.3100 360.0000 1.0000
40.3200 396.0000 1.0000
40.3300 364.0000 1.0000
40.3400 359.0000 1.0000
40.3500 399.0000 1.0000
40.3600 399.0000 1.0000
40.3700 379.0000 1.0000
40.3800 389.0000 1.0000
40.3900 383.0000 1.0000
40.4000 373.0000 1.0000
40.4100 363.0000 1.0000
40.4200 400.0000 1.0000
40.4300 376.0000 1.0000
40.4400 354.0000 1.0000
40.4500 380.0000 1.0000
40.4600 385.0000 1.0000
40.4700 365.0000 1.0000
40.4800 369.0000 1.0000
40.4900 391.0000 1.0000
40.5000 394.0000 1.0000
40.5100 389.0000 1.0000
40.5200 387.0000 1.0000
40.5300 399.0000 1.0000
40.5400 388.0000 1.0000
40.5500 390.0000 1.0000
40.5600 377.0000 1.0000
40.5700 348.0000 1.0000
40.5800 399.0000 1.0000
40.5900 345.0000 1.0000
40.6000 332.0000 1.0000
40.6100 368.0000 1.0000
40.6200 361.0000 1.0000
40.6300 387.0000 1.0000
40.6400 387.0000 1.0000
40.6500 355.0000 1.0000
40.6600 356.0000 1.0000
40.6700 346.0000 1.0000
40.6800 384.0000 1.0000
40.6900 373.0000 1.0000
40.7000 353.0000 1.0000
40.7100 353.0000 1.0000
40.7200 381.0000 1.0000
40.7300 391.0000 1.0000
40.7400 389.0000 1.0000
40.7500 381.0000 1.0000
40.7600 347.0000 1.0000
40.7700 355.0000 1.0000
40.7800 385.0000 1.0000
40.7900 379.0000 1.0000
40.8000 359.0000 1.0000
40.8100 402.0000 1.0000
40.8200 378.0000 1.0000
40.8300 385.0000 1.0000
40.8400 348.0000 1.0000
40.8500 365.0000 1.0000
40.8600 373.0000 1.0000
40.8700 397.0000 1.0000
40.8800 368.0000 1.0000
40.8900 368.0000 1.0000
40.9000 371.0000 1.0000
40.9100 361.0000 1.0000
40.9200 383.0000 1.0000
40.9300 367.0000 1.0000
40.9400 376.0000 1.0000
40.9500 364.0000 1.0000
40.9600 379.0000 1.0000
40.9700 354.0000 1.0000
40.9800 381.0000 1.0000
40.9900 394.0000 1.0000
41.0000 354.0000 1.0000
41.0100 401.0000 1.0000
41.0200 355.0000 1.0000
41.0300 337.0000 1.0000
41.0400 366.0000 1.0000
41.0500 351.0000 1.0000
41.0600 370.0000 1.0000
41.0700 362.0000 1.0000
41.0800 377.0000 1.0000
41.0900 376.0000 1.0000
41.1000 334.0000 1.0000
41.1100 338.0000 1.0000
41.1200 377.0000 1.0000
41.1300 363.0000 1.0000
41.1400 384.0000 1.0000
41.1500 368.0000 1.0000
41.1600 357.0000 1.0000
41.1700 385.0000 1.0000
41.1800 372.0000 1.0000
41.1900 351.0000 1.0000
41.2000 374.0000 1.0000
41.2100 363.0000 1.0000
41.2200 356.0000 1.0000
41.2300 377.0000 1.0000
41.2400 340.0000 1.0000
41.2500 370.0000 1.0000
41.2600 354.0000 1.0000
41.2700 355.0000 1.0000
41.2800 362.0000 1.0000
41.2900 389.0000 1.0000
41.3000 347.0000 1.0000
41.3100 397.0000 1.0000
41.3200 384.0000 1.0000
41.3300 391.0000 1.0000
41.3400 371.0000 1.0000
41.3500 356.0000 1.0000
41.3600 368.0000 1.0000
41.3700 361.0000 1.0000
41.3800 369.0000 1.0000
41.3900 351.0000 1.0000
41.4000 372.0000 1.0000
41.4100 369.0000 1.0000
41.4200 353.0000 1.0000
41.4300 376.0000 1.0000
41.4400 368.0000 1.0000
41.4500 375.0000 1.0000
41.4600 412.0000 1.0000
41.4700 381.0000 1.0000
41.4800 365.0000 1.0000
41.4900 366.0000 1.0000
41.5000 365.0000 1.0000
41.5100 365.0000 1.0000
41.5200 343.0000 1.0000
41.5300 351.0000 1.0000
41.5400 356.0000 1.0000
41.5500 394.0000 1.0000
41.5600 358.0000 1.0000
41.5700 395.0000 1.0000
41.5800 375.0000 1.0000
41.5900 392.0000 1.0000
41.6000 394.0000 1.0000
41.6100 387.0000 1.0000
41.6200 400.0000 1.0000
41.6300 385.0000 1.0000
41.6400 394.0000 1.0000
41.6500 385.0000 1.0000
41.6600 360.0000 1.0000
41.6700 373.0000 1.0000
41.6800 343.0000 1.0000
41.6900 373.0000 1.0000
41.7000 401.0000 1.0000
41.7100 391.0000 1.0000
41.7200 374.0000 1.0000
41.7300 366.0000 1.0000
41.7400 328.0000 1.0000
41.7500 369.0000 1.0000
41.7600 370.0000 1.0000
41.7700 363.0000 1.0000
41.7800 377.0000 1.0000
41.7900 361.0000 1.0000
41.8000 389.0000 1.0000
41.8100 372.0000 1.0000
41.8200 365.0000 1.0000
41.8300 342.0000 1.0000
41.8400 363.0000 1.0000
41.8500 365.0000 1.0000
41.8600 355.0000 1.0000
41.8700 378.0000 1.0000
41.8800 402.0000 1.0000
41.8900 349.0000 1.0000
41.9000 351.0000 1.0000
41.9100 342.0000 1.0000
41.9200 368.0000 1.0000
41.9300 402.0000 1.0000
41.9400 357.0000 1.0000
41.9500 378.0000 1.0000
41.9600 406.0000 1.0000
41.9700 372.0000 1.0000
41.9800 361.0000 1.0000
41.9900 364.0000 1.0000
42.0000 354.0000 1.0000
42.0100 379.0000 1.0000
42.0200 393.0000 1.0000
42.0300 356.0000 1.0000
42.0400 352.0000 1.0000
42.0500 332.0000 1.0000
42.0600 349.0000 1.0000
42.0700 385.0000 1.0000
42.0800 335.0000 1.0000
42.0900 381.0000 1.0000
42.1000 379.0000 1.0000
42.1100 362.0000 1.0000
42.1200 401.0000 1.0000
42.1300 397.0000 1.0000
42.1400 354.0000 1.0000
42.1500 335.0000 1.0000
42.1600 391.0000 1.0000
42.1700 355.0000 1.0000
42.1800 363.0000 1.0000
42.1900 343.0000 1.0000
42.2000 338.0000 1.0000
42.2100 351.0000 1.0000
42.2200 346.0000 1.0000
42.2300 365.0000 1.0000
42.2400 378.0000 1.0000
42.2500 371.0000 1.0000
42.2600 361.0000 1.0000
42.2700 344.0000 1.0000
42.2800 388.0000 1.0000
42.2900 362.0000 1.0000
42.3000 364.0000 1.0000
42.3100 385.0000 1.0000
42.3200 400.0000 1.0000
42.3300 339.0000 1.0000
42.3400 370.0000 1.0000
42.3500 350.0000 1.0000
42.3600 385.0000 1.0000
42.3700 369.0000 1.0000
42.3800 400.0000 1.0000
42.3900 365.0000 1.0000
42.4000 377.0000 1.0000
42.4100 349.0000 1.0000
42.4200 354.0000 1.0000
42.4300 356.0000 1.0000
42.4400 412.0000 1.0000
42.4500 352.0000 1.0000
42.4600 360.0000 1.0000
42.4700 385.0000 1.0000
42.4800 385.0000 1.0000
42.4900 371.0000 1.0000
42.5000 345.0000 1.0000
42.5100 358.0000 1.0000
42.5200 358.0000 1.0000
42.5300 355.0000 1.0000
42.5400 362.0000 1.0000
42.5500 414.0000 1.0000
42.5600 372.0000 1.0000
42.5700 373.0000 1.0000
42.5800 354.0000 1.0000
42.5900 369.0000 1.0000
42.6000 365.0000 1.0000
42.6100 365.0000 1.0000
42.6200 378.0000 1.0000
42.6300 387.0000 1.0000
42.6400 350.0000 1.0000
42.6500 361.0000 1.0000
42.6600 373.0000 1.0000
42.6700 350.0000 1.0000
42.6800 378.0000 1.0000
42.6900 335.0000 1.0000
42.7000 365.0000 1.0000
42.7100 343.0000 1.0000
42.7200 378.0000 1.0000
42.7300 364.0000 1.0000
42.7400 367.0000 1.0000
42.7500 361.0000 1.0000
42.7600 351.0000 1.0000
42.7700 359.0000 1.0000
42.7800 349.0000 1.0000
42.7900 371.0000 1.0000
42.8000 388.0000 1.0000
42.8100 373.0000 1.0000
42.8200 356.0000 1.0000
42.8300 331.0000 1.0000
42.8400 348.0000 1.0000
42.8500 340.0000 1.0000
42.8600 342.0000 1.0000
42.8700 333.0000 1.0000
42.8800 363.0000 1.0000
42.8900 356.0000 1.0000
42.9000 377.0000 1.0000
42.9100 388.0000 1.0000
42.9200 356.0000 1.0000
42.9300 356.0000 1.0000
42.9400 362.0000 1.0000
42.9500 343.0000 1.0000
42.9600 347.0000 1.0000
42.9700 357.0000 1.0000
42.9800 385.0000 1.0000
42.9900 372.0000 1.0000
43.0000 360.0000 1.0000
43.0100 368.0000 1.0000
43.0200 356.0000 1.0000
43.0300 357.0000 1.0000
43.0400 356.0000 1.0000
43.0500 364.0000 1.0000
43.0600 348.0000 1.0000
43.0700 373.0000 1.0000
43.0800 339.0000 1.0000
43.0900 376.0000 1.0000
43.1000 379.0000 1.0000
43.1100 384.0000 1.0000
43.1200 378.0000 1.0000
43.1300 374.0000 1.0000
43.1400 356.0000 1.0000
43.1500 350.0000 1.0000
43.1600 359.0000 1.0000
43.1700 388.0000 1.0000
43.1800 381.0000 1.0000
43.1900 382.0000 1.0000
43.2000 396.0000 1.0000
43.2100 403.0000 1.0000
43.2200 396.0000 1.0000
43.2300 399.0000 1.0000
43.2400 372.0000 1.0000
43.2500 394.0000 1.0000
43.2600 373.0000 1.0000
43.2700 410.0000 1.0000
43.2800 416.0000 1.0000
43.2900 415.0000 1.0000
43.3000 404.0000 1.0000
43.3100 397.0000 1.0000
43.3200 385.0000 1.0000
43.3300 396.0000 1.0000
43.3400 357.0000 1.0000
43.3500 373.0000 1.0000
43.3600 393.0000 1.0000
43.3700 408.0000 1.0000
43.3800 379.0000 1.0000
43.3900 381.0000 1.0000
43.4000 385.0000 1.0000
43.4100 382.0000 1.0000
43.4200 375.0000 1.0000
43.4300 354.0000 1.0000
43.4400 395.0000 1.0000
43.4500 403.0000 1.0000
43.4600 412.0000 1.0000
43.4700 397.0000 1.0000
43.4800 406.0000 1.0000
43.4900 375.0000 1.0000
43.5000 392.0000 1.0000
43.5100 356.0000 1.0000
43.5200 374.0000 1.0000
43.5300 359.0000 1.0000
43.5400 349.0000 1.0000
43.5500 373.0000 1.0000
43.5600 386.0000 1.0000
43.5700 335.0000 1.0000
43.5800 323.0000 1.0000
43.5900 355.0000 1.0000
43.6000 377.0000 1.0000
43.6100 366.0000 1.0000
43.6200 376.0000 1.0000
43.6300 320.0000 1.0000
43.6400 394.0000 1.0000
43.6500 361.0000 1.0000
43.6600 365.0000 1.0000
43.6700 379.0000 1.0000
43.6800 357.0000 1.0000
43.6900 335.0000 1.0000
43.7000 366.0000 1.0000
43.7100 362.0000 1.0000
43.7200 376.0000 1.0000
43.7300 343.0000 1.0000
43.7400 349.0000 1.0000
43.7500 365.0000 1.0000
43.7600 352.0000 1.0000
43.7700 378.0000 1.0000
43.7800 394.0000 1.0000
43.7900 361.0000 1.0000
43.8000 340.0000 1.0000
43.8100 331.0000 1.0000
43.8200 337.0000 1.0000
43.8300 382.0000 1.0000
43.8400 353.0000 1.0000
43.8500 360.0000 1.0000
43.8600 381.0000 1.0000
43.8700 367.0000 1.0000
43.8800 348.0000 1.0000
43.8900 355.0000 1.0000
43.9000 344.0000 1.0000
43.9100 354.0000 1.0000
43.9200 371.0000 1.0000
43.9300 375.0000 1.0000
43.9400 372.0000 1.0000
43.9500 373.0000 1.0000
43.9600 392.0000 1.0000
43.9700 349.0000 1.0000
43.9800 353.0000 1.0000
43.9900 342.0000 1.0000
44.0000 349.0000 1.0000
44.0100 386.0000 1.0000
44.0200 366.0000 1.0000
44.0300 352.0000 1.0000
44.0400 378.0000 1.0000
44.0500 367.0000 1.0000
44.0600 339.0000 1.0000
44.0700 327.0000 1.0000
44.0800 327.0000 1.0000
44.0900 317.0000 1.0000
44.1000 326.0000 1.0000
44.1100 362.0000 1.0000
44.1200 363.0000 1.0000
44.1300 376.0000 1.0000
44.1400 327.0000 1.0000
44.1500 340.0000 1.0000
44.1600 365.0000 1.0000
44.1700 333.0000 1.0000
44.1800 346.0000 1.0000
44.1900 336.0000 1.0000
44.2000 376.0000 1.0000
44.2100 358.0000 1.0000
44.2200 339.0000 1.0000
44.2300 337.0000 1.0000
44.2400 334.0000 1.0000
44.2500 315.0000 1.0000
44.2600 345.0000 1.0000
44.2700 360.0000 1.0000
44.2800 343.0000 1.0000
44.2900 393.0000 1.0000
44.3000 355.0000 1.0000
44.3100 397.0000 1.0000
44.3200 379.0000 1.0000
44.3300 356.0000 1.0000
44.3400 357.0000 1.0000
44.3500 369.0000 1.0000
44.3600 350.0000 1.0000
44.3700 337.0000 1.0000
44.3800 352.0000 1.0000
44.3900 378.0000 1.0000
44.4000 357.0000 1.0000
44.4100 348.0000 1.0000
44.4200 366.0000 1.0000
44.4300 349.0000 1.0000
44.4400 362.0000 1.0000
44.4500 382.0000 1.0000
44.4600 364.0000 1.0000
44.4700 342.0000 1.0000
44.4800 353.0000 1.0000
44.4900 362.0000 1.0000
44.5000 320.0000 1.0000
44.5100 341.0000 1.0000
44.5200 329.0000 1.0000
44.5300 369.0000 1.0000
44.5400 332.0000 1.0000
44.5500 353.0000 1.0000
44.5600 331.0000 1.0000
44.5700 337.0000 1.0000
44.5800 365.0000 1.0000
44.5900 357.0000 1.0000
44.6000 337.0000 1.0000
44.6100 331.0000 1.0000
44.6200 345.0000 1.0000
44.6300 311.0000 1.0000
44.6400 346.0000 1.0000
44.6500 352.0000 1.0000
44.6600 333.0000 1.0000
44.6700 356.0000 1.0000
44.6800 363.0000 1.0000
44.6900 383.0000 1.0000
44.7000 322.0000 1.0000
44.7100 337.0000 1.0000
44.7200 332.0000 1.0000
44.7300 332.0000 1.0000
44.7400 342.0000 1.0000
44.7500 339.0000 1.0000
44.7600 340.0000 1.0000
44.7700 337.0000 1.0000
44.7800 353.0000 1.0000
44.7900 348.0000 1.0000
44.8000 336.0000 1.0000
44.8100 382.0000 1.0000
44.8200 343.0000 1.0000
44.8300 312.0000 1.0000
44.8400 366.0000 1.0000
44.8500 322.0000 1.0000
44.8600 336.0000 1.0000
44.8700 329.0000 1.0000
44.8800 373.0000 1.0000
44.8900 349.0000 1.0000
44.9000 329.0000 1.0000
44.9100 334.0000 1.0000
44.9200 343.0000 1.0000
44.9300 314.0000 1.0000
44.9400 384.0000 1.0000
44.9500 336.0000 1.0000
44.9600 355.0000 1.0000
44.9700 327.0000 1.0000
44.9800 329.0000 1.0000
44.9900 358.0000 1.0000
45.0000 342.0000 1.0000
45.0100 347.0000 1.0000
45.0200 359.0000 1.0000
45.0300 352.0000 1.0000
45.0400 365.0000 1.0000
45.0500 353.0000 1.0000
45.0600 342.0000 1.0000
45.0700 351.0000 1.0000
45.0800 342.0000 1.0000
45.0900 341.0000 1.0000
45.1000 362.0000 1.0000
45.1100 325.0000 1.0000
45.1200 366.0000 1.0000
45.1300 357.0000 1.0000
45.1400 318.0000 1.0000
45.1500 352.0000 1.0000
45.1600 333.0000 1.0000
45.1700 333.0000 1.0000
45.1800 357.0000 1.0000
45.1900 356.0000 1.0000
45.2000 331.0000 1.0000
45.2100 359.0000 1.0000
45.2200 326.0000 1.0000
45.2300 365.0000 1.0000
45.2400 365.0000 1.0000
45.2500 344.0000 1.0000
45.2600 317.0000 1.0000
45.2700 366.0000 1.0000
45.2800 362.0000 1.0000
45.2900 328.0000 1.0000
45.3000 374.0000 1.0000
45.3100 329.0000 1.0000
45.3200 348.0000 1.0000
45.3300 330.0000 1.0000
45.3400 348.0000 1.0000
45.3500 341.0000 1.0000
45.3600 288.0000 1.0000
45.3700 347.0000 1.0000
45.3800 350.0000 1.0000
45.3900 321.0000 1.0000
45.4000 354.0000 1.0000
45.4100 342.0000 1.0000
45.4200 334.0000 1.0000
45.4300 321.0000 1.0000
45.4400 317.0000 1.0000
45.4500 352.0000 1.0000
45.4600 340.0000 1.0000
45.4700 337.0000 1.0000
45.4800 340.0000 1.0000
45.4900 329.0000 1.0000
45.5000 340.0000 1.0000
45.5100 359.0000 1.0000
45.5200 360.0000 1.0000
45.5300 330.0000 1.0000
45.5400 308.0000 1.0000
45.5500 324.0000 1.0000
45.5600 323.0000 1.0000
45.5700 336.0000 1.0000
45.5800 344.0000 1.0000
45.5900 371.0000 1.0000
45.6000 323.0000 1.0000
45.6100 363.0000 1.0000
45.6200 361.0000 1.0000
45.6300 315.0000 1.0000
45.6400 320.0000 1.0000
45.6500 335.0000 1.0000
45.6600 334.0000 1.0000
45.6700 340.0000 1.0000
45.6800 324.0000 1.0000
45.6900 324.0000 1.0000
45.7000 353.0000 1.0000
45.7100 316.0000 1.0000
45.7200 324.0000 1.0000
45.7300 349.0000 1.0000
45.7400 361.0000 1.0000
45.7500 324.0000 1.0000
45.7600 342.0000 1.0000
45.7700 350.0000 1.0000
45.7800 348.0000 1.0000
45.7900 330.0000 1.0000
45.8000 343.0000 1.0000
45.8100 320.0000 1.0000
45.8200 320.0000 1.0000
45.8300 327.0000 1.0000
45.8400 345.0000 1.0000
45.8500 345.0000 1.0000
45.8600 342.0000 1.0000
45.8700 309.0000 1.0000
45.8800 338.0000 1.0000
45.8900 324.0000 1.0000
45.9000 342.0000 1.0000
45.9100 329.0000 1.0000
45.9200 353.0000 1.0000
45.9300 358.0000 1.0000
45.9400 337.0000 1.0000
45.9500 337.0000 1.0000
45.9600 353.0000 1.0000
45.9700 360.0000 1.0000
45.9800 328.0000 1.0000
45.9900 328.0000 1.0000
46.0000 313.0000 1.0000
46.0100 341.0000 1.0000
46.0200 364.0000 1.0000
46.0300 325.0000 1.0000
46.0400 374.0000 1.0000
46.0500 344.0000 1.0000
46.0600 374.0000 1.0000
46.0700 327.0000 1.0000
46.0800 343.0000 1.0000
46.0900 344.0000 1.0000
46.1000 338.0000 1.0000
46.1100 353.0000 1.0000
46.1200 322.0000 1.0000
46.1300 347.0000 1.0000
46.1400 337.0000 1.0000
46.1500 333.0000 1.0000
46.1600 353.0000 1.0000
46.1700 355.0000 1.0000
46.1800 352.0000 1.0000
46.1900 356.0000 1.0000
46.2000 372.0000 1.0000
46.2100 349.0000 1.0000
46.2200 310.0000 1.0000
46.2300 337.0000 1.0000
46.2400 302.0000 1.0000
46.2500 317.0000 1.0000
46.2600 336.0000 1.0000
46.2700 336.0000 1.0000
46.2800 330.0000 1.0000
46.2900 333.0000 1.0000
46.3000 354.0000 1.0000
46.3100 318.0000 1.0000
46.3200 330.0000 1.0000
46.3300 348.0000 1.0000
46.3400 317.0000 1.0000
46.3500 361.0000 1.0000
46.3600 347.0000 1.0000
46.3700 327.0000 1.0000
46.3800 336.0000 1.0000
46.3900 327.0000 1.0000
46.4000 353.0000 1.0000
46.4100 344.0000 1.0000
46.4200 353.0000 1.0000
46.4300 366.0000 1.0000
46.4400 348.0000 1.0000
46.4500 324.0000 1.0000
46.4600 338.0000 1.0000
46.4700 341.0000 1.0000
46.4800 339.0000 1.0000
46.4900 358.0000 1.0000
46.5000 325.0000 1.0000
46.5100 342.0000 1.0000
46.5200 333.0000 1.0000
46.5300 345.0000 1.0000
46.5400 321.0000 1.0000
46.5500 329.0000 1.0000
46.5600 312.0000 1.0000
46.5700 345.0000 1.0000
46.5800 356.0000 1.0000
46.5900 320.0000 1.0000
46.6000 321.0000 1.0000
46.6100 312.0000 1.0000
46.6200 343.0000 1.0000
46.6300 331.0000 1.0000
46.6400 348.0000 1.0000
46.6500 339.0000 1.0000
46.6600 326.0000 1.0000
46.6700 353.0000 1.0000
46.6800 312.0000 1.0000
46.6900 326.0000 1.0000
46.7000 344.0000 1.0000
46.7100 318.0000 1.0000
46.7200 351.0000 1.0000
46.7300 312.0000 1.0000
46.7400 316.0000 1.0000
46.7500 309.0000 1.0000
46.7600 327.0000 1.0000
46.7700 362.0000 1.0000
46.7800 327.0000 1.0000
46.7900 302.0000 1.0000
46.8000 340.0000 1.0000
46.8100 351.0000 1.0000
46.8200 361.0000 1.0000
46.8300 335.0000 1.0000
46.8400 349.0000 1.0000
46.8500 330.0000 1.0000
46.8600 334.0000 1.0000
46.8700 341.0000 1.0000
46.8800 346.0000 1.0000
46.8900 351.0000 1.0000
46.9000 359.0000 1.0000
46.9100 331.0000 1.0000
46.9200 316.0000 1.0000
46.9300 304.0000 1.0000
46.9400 304.0000 1.0000
46.9500 335.0000 1.0000
46.9600 335.0000 1.0000
46.9700 335.0000 1.0000
46.9800 319.0000 1.0000
46.9900 336.0000 1.0000
47.0000 344.0000 1.0000
47.0100 350.0000 1.0000
47.0200 360.0000 1.0000
47.0300 362.0000 1.0000
47.0400 346.0000 1.0000
47.0500 357.0000 1.0000
47.0600 366.0000 1.0000
47.0700 352.0000 1.0000
47.0800 336.0000 1.0000
47.0900 343.0000 1.0000
47.1000 323.0000 1.0000
47.1100 327.0000 1.0000
47.1200 330.0000 1.0000
47.1300 297.0000 1.0000
47.1400 342.0000 1.0000
47.1500 324.0000 1.0000
47.1600 312.0000 1.0000
47.1700 327.0000 1.0000
47.1800 362.0000 1.0000
47.1900 316.0000 1.0000
47.2000 344.0000 1.0000
47.2100 313.0000 1.0000
47.2200 333.0000 1.0000
47.2300 334.0000 1.0000
47.2400 300.0000 1.0000
47.2500 363.0000 1.0000
47.2600 361.0000 1.0000
47.2700 340.0000 1.0000
47.2800 351.0000 1.0000
47.2900 341.0000 1.0000
47.3000 339.0000 1.0000
47.3100 323.0000 1.0000
47.3200 319.0000 1.0000
47.3300 311.0000 1.0000
47.3400 317.0000 1.0000
47.3500 340.0000 1.0000
47.3600 332.0000 1.0000
47.3700 310.0000 1.0000
47.3800 311.0000 1.0000
47.3900 334.0000 1.0000
47.4000 348.0000 1.0000
47.4100 332.0000 1.0000
47.4200 324.0000 1.0000
47.4300 328.0000 1.0000
47.4400 328.0000 1.0000
47.4500 293.0000 1.0000
47.4600 321.0000 1.0000
47.4700 324.0000 1.0000
47.4800 309.0000 1.0000
47.4900 336.0000 1.0000
47.5000 344.0000 1.0000
47.5100 325.0000 1.0000
47.5200 294.0000 1.0000
47.5300 313.0000 1.0000
47.5400 338.0000 1.0000
47.5500 305.0000 1.0000
47.5600 322.0000 1.0000
47.5700 348.0000 1.0000
47.5800 377.0000 1.0000
47.5900 343.0000 1.0000
47.6000 332.0000 1.0000
47.6100 366.0000 1.0000
47.6200 335.0000 1.0000
47.6300 312.0000 1.0000
47.6400 329.0000 1.0000
47.6500 352.0000 1.0000
47.6600 338.0000 1.0000
47.6700 308.0000 1.0000
47.6800 320.0000 1.0000
47.6900 327.0000 1.0000
47.7000 314.0000 1.0000
47.7100 334.0000 1.0000
47.7200 308.0000 1.0000
47.7300 311.0000 1.0000
47.7400 316.0000 1.0000
47.7500 311.0000 1.0000
47.7600 325.0000 1.0000
47.7700 325.0000 1.0000
47.7800 326.0000 1.0000
47.7900 305.0000 1.0000
47.8000 337.0000 1.0000
47.8100 343.0000 1.0000
47.8200 325.0000 1.0000
47.8300 315.0000 1.0000
47.8400 330.0000 1.0000
47.8500 312.0000 1.0000
47.8600 299.0000 1.0000
47.8700 302.0000 1.0000
47.8800 357.0000 1.0000
47.8900 314.0000 1.0000
47.9000 302.0000 1.0000
47.9100 282.0000 1.0000
47.9200 334.0000 1.0000
47.9300 326.0000 1.0000
47.9400 330.0000 1.0000
47.9500 310.0000 1.0000
47.9600 336.0000 1.0000
47.9700 324.0000 1.0000
47.9800 321.0000 1.0000
47.9900 335.0000 1.0000
48.0000 326.0000 1.0000
48.0100 316.0000 1.0000
48.0200 318.0000 1.0000
48.0300 294.0000 1.0000
48.0400 305.0000 1.0000
48.0500 296.0000 1.0000
48.0600 332.0000 1.0000
48.0700 333.0000 1.0000
48.0800 338.0000 1.0000
48.0900 304.0000 1.0000
48.1000 311.0000 1.0000
48.1100 320.0000 1.0000
48.1200 334.0000 1.0000
48.1300 301.0000 1.0000
48.1400 331.0000 1.0000
48.1500 322.0000 1.0000
48.1600 325.0000 1.0000
48.1700 327.0000 1.0000
48.1800 292.0000 1.0000
48.1900 314.0000 1.0000
48.2000 312.0000 1.0000
48.2100 305.0000 1.0000
48.2200 319.0000 1.0000
48.2300 324.0000 1.0000
48.2400 323.0000 1.0000
48.2500 303.0000 1.0000
48.2600 288.0000 1.0000
48.2700 311.0000 1.0000
48.2800 311.0000 1.0000
48.2900 342.0000 1.0000
48.3000 305.0000 1.0000
48.3100 331.0000 1.0000
48.3200 331.0000 1.0000
48.3300 331.0000 1.0000
48.3400 329.0000 1.0000
48.3500 341.0000 1.0000
48.3600 323.0000 1.0000
48.3700 302.0000 1.0000
48.3800 320.0000 1.0000
48.3900 314.0000 1.0000
48.4000 332.0000 1.0000
48.4100 306.0000 1.0000
48.4200 314.0000 1.0000
48.4300 328.0000 1.0000
48.4400 328.0000 1.0000
48.4500 297.0000 1.0000
48.4600 309.0000 1.0000
48.4700 317.0000 1.0000
48.4800 329.0000 1.0000
48.4900 300.0000 1.0000
48.5000 310.0000 1.0000
48.5100 341.0000 1.0000
48.5200 340.0000 1.0000
48.5300 326.0000 1.0000
48.5400 330.0000 1.0000
48.5500 315.0000 1.0000
48.5600 296.0000 1.0000
48.5700 344.0000 1.0000
48.5800 340.0000 1.0000
48.5900 314.0000 1.0000
48.6000 322.0000 1.0000
48.6100 323.0000 1.0000
48.6200 349.0000 1.0000
48.6300 304.0000 1.0000
48.6400 279.0000 1.0000
48.6500 304.0000 1.0000
48.6600 308.0000 1.0000
48.6700 329.0000 1.0000
48.6800 304.0000 1.0000
48.6900 328.0000 1.0000
48.7000 306.0000 1.0000
48.7100 293.0000 1.0000
48.7200 305.0000 1.0000
48.7300 327.0000 1.0000
48.7400 321.0000 1.0000
48.7500 305.0000 1.0000
48.7600 324.0000 1.0000
48.7700 301.0000 1.0000
48.7800 320.0000 1.0000
48.7900 322.0000 1.0000
48.8000 315.0000 1.0000
48.8100 327.0000 1.0000
48.8200 296.0000 1.0000
48.8300 303.0000 1.0000
48.8400 331.0000 1.0000
48.8500 286.0000 1.0000
48.8600 290.0000 1.0000
48.8700 313.0000 1.0000
48.8800 330.0000 1.0000
48.8900 316.0000 1.0000
48.9000 330.0000 1.0000
48.9100 303.0000 1.0000
48.9200 305.0000 1.0000
48.9300 327.0000 1.0000
48.9400 306.0000 1.0000
48.9500 314.0000 1.0000
48.9600 340.0000 1.0000
48.9700 285.0000 1.0000
48.9800 317.0000 1.0000
48.9900 316.0000 1.0000
49.0000 306.0000 1.0000
49.0100 281.0000 1.0000
49.0200 292.0000 1.0000
49.0300 298.0000 1.0000
49.0400 316.0000 1.0000
49.0500 327.0000 1.0000
49.0600 305.0000 1.0000
49.0700 324.0000 1.0000
49.0800 313.0000 1.0000
49.0900 304.0000 1.0000
49.1000 320.0000 1.0000
49.1100 346.0000 1.0000
49.1200 291.0000 1.0000
49.1300 312.0000 1.0000
49.1400 317.0000 1.0000
49.1500 309.0000 1.0000
49.1600 300.0000 1.0000
49.1700 332.0000 1.0000
49.1800 313.0000 1.0000
49.1900 292.0000 1.0000
49.2000 304.0000 1.0000
49.2100 323.0000 1.0000
49.2200 299.0000 1.0000
49.2300 301.0000 1.0000
49.2400 336.0000 1.0000
49.2500 309.0000 1.0000
49.2600 297.0000 1.0000
49.2700 341.0000 1.0000
49.2800 319.0000 1.0000
49.2900 328.0000 1.0000
49.3000 347.0000 1.0000
49.3100 317.0000 1.0000
49.3200 272.0000 1.0000
49.3300 302.0000 1.0000
49.3400 290.0000 1.0000
49.3500 318.0000 1.0000
49.3600 334.0000 1.0000
49.3700 329.0000 1.0000
49.3800 347.0000 1.0000
49.3900 326.0000 1.0000
49.4000 316.0000 1.0000
49.4100 314.0000 1.0000
49.4200 300.0000 1.0000
49.4300 317.0000 1.0000
49.4400 326.0000 1.0000
49.4500 308.0000 1.0000
49.4600 303.0000 1.0000
49.4700 317.0000 1.0000
49.4800 316.0000 1.0000
49.4900 291.0000 1.0000
49.5000 302.0000 1.0000
49.5100 302.0000 1.0000
49.5200 302.0000 1.0000
49.5300 288.0000 1.0000
49.5400 340.0000 1.0000
49.5500 345.0000 1.0000
49.5600 334.0000 1.0000
49.5700 332.0000 1.0000
49.5800 341.0000 1.0000
49.5900 300.0000 1.0000
49.6000 303.0000 1.0000
49.6100 289.0000 1.0000
49.6200 307.0000 1.0000
49.6300 314.0000 1.0000
49.6400 318.0000 1.0000
49.6500 297.0000 1.0000
49.6600 297.0000 1.0000
49.6700 349.0000 1.0000
49.6800 282.0000 1.0000
49.6900 284.0000 1.0000
49.7000 324.0000 1.0000
49.7100 335.0000 1.0000
49.7200 325.0000 1.0000
49.7300 321.0000 1.0000
49.7400 275.0000 1.0000
49.7500 306.0000 1.0000
49.7600 310.0000 1.0000
49.7700 298.0000 1.0000
49.7800 287.0000 1.0000
49.7900 341.0000 1.0000
49.8000 308.0000 1.0000
49.8100 284.0000 1.0000
49.8200 304.0000 1.0000
49.8300 271.0000 1.0000
49.8400 295.0000 1.0000
49.8500 308.0000 1.0000
49.8600 318.0000 1.0000
49.8700 293.0000 1.0000
49.8800 320.0000 1.0000
49.8900 300.0000 1.0000
49.9000 296.0000 1.0000
49.9100 306.0000 1.0000
49.9200 327.0000 1.0000
49.9300 314.0000 1.0000
49.9400 326.0000 1.0000
49.9500 341.0000 1.0000
49.9600 293.0000 1.0000
49.9700 300.0000 1.0000
49.9800 314.0000 1.0000
49.9900 300.0000 1.0000
50.0000 291.0000 1.0000
50.0100 302.0000 1.0000
50.0200 326.0000 1.0000
50.0300 318.0000 1.0000
50.0400 281.0000 1.0000
50.0500 316.0000 1.0000
50.0600 339.0000 1.0000
50.0700 301.0000 1.0000
50.0800 296.0000 1.0000
50.0900 324.0000 1.0000
50.1000 345.0000 1.0000
50.1100 347.0000 1.0000
50.1200 333.0000 1.0000
50.1300 306.0000 1.0000
50.1400 332.0000 1.0000
50.1500 311.0000 1.0000
50.1600 319.0000 1.0000
50.1700 312.0000 1.0000
50.1800 335.0000 1.0000
50.1900 331.0000 1.0000
50.2000 326.0000 1.0000
50.2100 308.0000 1.0000
50.2200 293.0000 1.0000
50.2300 314.0000 1.0000
50.2400 311.0000 1.0000
50.2500 318.0000 1.0000
50.2600 337.0000 1.0000
50.2700 334.0000 1.0000
50.2800 328.0000 1.0000
50.2900 303.0000 1.0000
50.3000 334.0000 1.0000
50.3100 322.0000 1.0000
50.3200 315.0000 1.0000
50.3300 313.0000 1.0000
50.3400 319.0000 1.0000
50.3500 319.0000 1.0000
50.3600 314.0000 1.0000
50.3700 301.0000 1.0000
50.3800 309.0000 1.0000
50.3900 329.0000 1.0000
50.4000 302.0000 1.0000
50.4100 347.0000 1.0000
50.4200 332.0000 1.0000
50.4300 317.0000 1.0000
50.4400 315.0000 1.0000
50.4500 335.0000 1.0000
50.4600 323.0000 1.0000
50.4700 311.0000 1.0000
50.4800 315.0000 1.0000
50.4900 340.0000 1.0000
50.5000 321.0000 1.0000
50.5100 314.0000 1.0000
50.5200 333.0000 1.0000
50.5300 314.0000 1.0000
50.5400 322.0000 1.0000
50.5500 333.0000 1.0000
50.5600 316.0000 1.0000
50.5700 321.0000 1.0000
50.5800 298.0000 1.0000
50.5900 313.0000 1.0000
50.6000 350.0000 1.0000
50.6100 323.0000 1.0000
50.6200 337.0000 1.0000
50.6300 310.0000 1.0000
50.6400 321.0000 1.0000
50.6500 321.0000 1.0000
50.6600 299.0000 1.0000
50.6700 318.0000 1.0000
50.6800 292.0000 1.0000
50.6900 319.0000 1.0000
50.7000 318.0000 1.0000
50.7100 344.0000 1.0000
50.7200 304.0000 1.0000
50.7300 314.0000 1.0000
50.7400 322.0000 1.0000
50.7500 316.0000 1.0000
50.7600 306.0000 1.0000
50.7700 299.0000 1.0000
50.7800 313.0000 1.0000
50.7900 303.0000 1.0000
50.8000 318.0000 1.0000
50.8100 293.0000 1.0000
50.8200 353.0000 1.0000
50.8300 332.0000 1.0000
50.8400 324.0000 1.0000
50.8500 334.0000 1.0000
50.8600 317.0000 1.0000
50.8700 284.0000 1.0000
50.8800 319.0000 1.0000
50.8900 315.0000 1.0000
50.9000 322.0000 1.0000
50.9100 311.0000 1.0000
50.9200 319.0000 1.0000
50.9300 321.0000 1.0000
50.9400 313.0000 1.0000
50.9500 295.0000 1.0000
50.9600 322.0000 1.0000
50.9700 311.0000 1.0000
50.9800 327.0000 1.0000
50.9900 327.0000 1.0000
51.0000 333.0000 1.0000
51.0100 353.0000 1.0000
51.0200 303.0000 1.0000
51.0300 320.0000 1.0000
51.0400 330.0000 1.0000
51.0500 321.0000 1.0000
51.0600 326.0000 1.0000
51.0700 304.0000 1.0000
51.0800 308.0000 1.0000
51.0900 306.0000 1.0000
51.1000 302.0000 1.0000
51.1100 367.0000 1.0000
51.1200 368.0000 1.0000
51.1300 340.0000 1.0000
51.1400 296.0000 1.0000
51.1500 302.0000 1.0000
51.1600 301.0000 1.0000
51.1700 303.0000 1.0000
51.1800 323.0000 1.0000
51.1900 333.0000 1.0000
51.2000 339.0000 1.0000
51.2100 307.0000 1.0000
51.2200 304.0000 1.0000
51.2300 340.0000 1.0000
51.2400 338.0000 1.0000
51.2500 332.0000 1.0000
51.2600 294.0000 1.0000
51.2700 313.0000 1.0000
51.2800 320.0000 1.0000
51.2900 333.0000 1.0000
51.3000 349.0000 1.0000
51.3100 348.0000 1.0000
51.3200 325.0000 1.0000
51.3300 357.0000 1.0000
51.3400 318.0000 1.0000
51.3500 315.0000 1.0000
51.3600 330.0000 1.0000
51.3700 317.0000 1.0000
51.3800 319.0000 1.0000
51.3900 314.0000 1.0000
51.4000 314.0000 1.0000
51.4100 322.0000 1.0000
51.4200 321.0000 1.0000
51.4300 319.0000 1.0000
51.4400 322.0000 1.0000
51.4500 319.0000 1.0000
51.4600 306.0000 1.0000
51.4700 321.0000 1.0000
51.4800 339.0000 1.0000
51.4900 311.0000 1.0000
51.5000 324.0000 1.0000
51.5100 309.0000 1.0000
51.5200 308.0000 1.0000
51.5300 317.0000 1.0000
51.5400 316.0000 1.0000
51.5500 313.0000 1.0000
51.5600 324.0000 1.0000
51.5700 341.0000 1.0000
51.5800 308.0000 1.0000
51.5900 313.0000 1.0000
51.6000 334.0000 1.0000
51.6100 340.0000 1.0000
51.6200 332.0000 1.0000
51.6300 319.0000 1.0000
51.6400 344.0000 1.0000
51.6500 342.0000 1.0000
51.6600 346.0000 1.0000
51.6700 327.0000 1.0000
51.6800 332.0000 1.0000
51.6900 340.0000 1.0000
51.7000 344.0000 1.0000
51.7100 339.0000 1.0000
51.7200 308.0000 1.0000
51.7300 308.0000 1.0000
51.7400 366.0000 1.0000
51.7500 326.0000 1.0000
51.7600 333.0000 1.0000
51.7700 300.0000 1.0000
51.7800 319.0000 1.0000
51.7900 333.0000 1.0000
51.8000 348.0000 1.0000
51.8100 358.0000 1.0000
51.8200 335.0000 1.0000
51.8300 361.0000 1.0000
51.8400 346.0000 1.0000
51.8500 333.0000 1.0000
51.8600 367.0000 1.0000
51.8700 429.0000 1.0000
51.8800 384.0000 1.0000
51.8900 370.0000 1.0000
51.9000 380.0000 1.0000
51.9100 371.0000 1.0000
51.9200 353.0000 1.0000
51.9300 391.0000 1.0000
51.9400 393.0000 1.0000
51.9500 368.0000 1.0000
51.9600 413.0000 1.0000
51.9700 457.0000 1.0000
51.9800 441.0000 1.0000
51.9900 453.0000 1.0000
52.0000 457.0000 1.0000
52.0100 447.0000 1.0000
52.0200 483.0000 1.0000
52.0300 487.0000 1.0000
52.0400 528.0000 1.0000
52.0500 532.0000 1.0000
52.0600 520.0000 1.0000
52.0700 548.0000 1.0000
52.0800 573.0000 1.0000
52.0900 592.0000 1.0000
52.1000 592.0000 1.0000
52.1100 656.0000 1.0000
52.1200 712.0000 1.0000
52.1300 699.0000 1.0000
52.1400 783.0000 1.0000
52.1500 806.0000 1.0000
52.1600 845.0000 1.0000
52.1700 972.0000 1.0000
52.1800 999.0000 1.0000
52.1900 1053.0000 1.0000
52.2000 1175.0000 1.0000
52.2100 1323.0000 1.0000
52.2200 1366.0000 1.0000
52.2300 1466.0000 1.0000
52.2400 1641.0000 1.0000
52.2500 1699.0000 1.0000
52.2600 1881.0000 1.0000
52.2700 1950.0000 1.0000
52.2800 2108.0000 1.0000
52.2900 2252.0000 1.0000
52.3000 2341.0000 1.0000
52.3100 2363.0000 1.0000
52.3200 2348.0000 1.0000
52.3300 2451.0000 1.0000
52.3400 2333.0000 1.0000
52.3500 2264.0000 1.0000
52.3600 2235.0000 1.0000
52.3700 2128.0000 1.0000
52.3800 2046.0000 1.0000
52.3900 1922.0000 1.0000
52.4000 1874.0000 1.0000
52.4100 1894.0000 1.0000
52.4200 1811.0000 1.0000
52.4300 1740.0000 1.0000
52.4400 1728.0000 1.0000
52.4500 1626.0000 1.0000
52.4600 1651.0000 1.0000
52.4700 1561.0000 1.0000
52.4800 1472.0000 1.0000
52.4900 1404.0000 1.0000
52.5000 1325.0000 1.0000
52.5100 1216.0000 1.0000
52.5200 1225.0000 1.0000
52.5300 1048.0000 1.0000
52.5400 949.0000 1.0000
52.5500 878.0000 1.0000
52.5600 810.0000 1.0000
52.5700 796.0000 1.0000
52.5800 761.0000 1.0000
52.5900 716.0000 1.0000
52.6000 670.0000 1.0000
52.6100 618.0000 1.0000
52.6200 605.0000 1.0000
52.6300 600.0000 1.0000
52.6400 544.0000 1.0000
52.6500 556.0000 1.0000
52.6600 553.0000 1.0000
52.6700 502.0000 1.0000
52.6800 451.0000 1.0000
52.6900 493.0000 1.0000
52.7000 443.0000 1.0000
52.7100 432.0000 1.0000
52.7200 441.0000 1.0000
52.7300 417.0000 1.0000
52.7400 447.0000 1.0000
52.7500 435.0000 1.0000
52.7600 395.0000 1.0000
52.7700 409.0000 1.0000
52.7800 395.0000 1.0000
52.7900 391.0000 1.0000
52.8000 387.0000 1.0000
52.8100 389.0000 1.0000
52.8200 399.0000 1.0000
52.8300 390.0000 1.0000
52.8400 385.0000 1.0000
52.8500 403.0000 1.0000
52.8600 388.0000 1.0000
52.8700 359.0000 1.0000
52.8800 381.0000 1.0000
52.8900 355.0000 1.0000
52.9000 351.0000 1.0000
52.9100 347.0000 1.0000
52.9200 341.0000 1.0000
52.9300 364.0000 1.0000
52.9400 367.0000 1.0000
52.9500 337.0000 1.0000
52.9600 331.0000 1.0000
52.9700 340.0000 1.0000
52.9800 358.0000 1.0000
52.9900 337.0000 1.0000
53.0000 336.0000 1.0000
53.0100 350.0000 1.0000
53.0200 341.0000 1.0000
53.0300 331.0000 1.0000
53.0400 317.0000 1.0000
53.0500 294.0000 1.0000
53.0600 327.0000 1.0000
53.0700 329.0000 1.0000
53.0800 316.0000 1.0000
53.0900 336.0000 1.0000
53.1000 342.0000 1.0000
53.1100 343.0000 1.0000
53.1200 350.0000 1.0000
53.1300 348.0000 1.0000
53.1400 336.0000 1.0000
53.1500 364.0000 1.0000
53.1600 349.0000 1.0000
53.1700 317.0000 1.0000
53.1800 311.0000 1.0000
53.1900 331.0000 1.0000
53.2000 330.0000 1.0000
53.2100 336.0000 1.0000
53.2200 325.0000 1.0000
53.2300 327.0000 1.0000
53.2400 320.0000 1.0000
53.2500 342.0000 1.0000
53.2600 324.0000 1.0000
53.2700 318.0000 1.0000
53.2800 315.0000 1.0000
53.2900 325.0000 1.0000
53.3000 346.0000 1.0000
53.3100 315.0000 1.0000
53.3200 328.0000 1.0000
53.3300 310.0000 1.0000
53.3400 316.0000 1.0000
53.3500 311.0000 1.0000
53.3600 299.0000 1.0000
53.3700 342.0000 1.0000
53.3800 333.0000 1.0000
53.3900 343.0000 1.0000
53.4000 336.0000 1.0000
53.4100 327.0000 1.0000
53.4200 321.0000 1.0000
53.4300 333.0000 1.0000
53.4400 320.0000 1.0000
53.4500 297.0000 1.0000
53.4600 313.0000 1.0000
53.4700 316.0000 1.0000
53.4800 331.0000 1.0000
53.4900 305.0000 1.0000
53.5000 320.0000 1.0000
53.5100 317.0000 1.0000
53.5200 289.0000 1.0000
53.5300 292.0000 1.0000
53.5400 309.0000 1.0000
53.5500 316.0000 1.0000
53.5600 287.0000 1.0000
53.5700 312.0000 1.0000
53.5800 321.0000 1.0000
53.5900 322.0000 1.0000
53.6000 281.0000 1.0000
53.6100 299.0000 1.0000
53.6200 310.0000 1.0000
53.6300 307.0000 1.0000
53.6400 316.0000 1.0000
53.6500 344.0000 1.0000
53.6600 341.0000 1.0000
53.6700 327.0000 1.0000
53.6800 326.0000 1.0000
53.6900 320.0000 1.0000
53.7000 304.0000 1.0000
53.7100 337.0000 1.0000
53.7200 324.0000 1.0000
53.7300 314.0000 1.0000
53.7400 316.0000 1.0000
53.7500 301.0000 1.0000
53.7600 302.0000 1.0000
53.7700 299.0000 1.0000
53.7800 297.0000 1.0000
53.7900 307.0000 1.0000
53.8000 311.0000 1.0000
53.8100 326.0000 1.0000
53.8200 305.0000 1.0000
53.8300 331.0000 1.0000
53.8400 305.0000 1.0000
53.8500 314.0000 1.0000
53.8600 293.0000 1.0000
53.8700 323.0000 1.0000
53.8800 344.0000 1.0000
53.8900 341.0000 1.0000
53.9000 369.0000 1.0000
53.9100 311.0000 1.0000
53.9200 295.0000 1.0000
53.9300 287.0000 1.0000
53.9400 326.0000 1.0000
53.9500 296.0000 1.0000
53.9600 305.0000 1.0000
53.9700 341.0000 1.0000
53.9800 306.0000 1.0000
53.9900 294.0000 1.0000
54.0000 308.0000 1.0000
54.0100 300.0000 1.0000
54.0200 297.0000 1.0000
54.0300 290.0000 1.0000
54.0400 310.0000 1.0000
54.0500 316.0000 1.0000
54.0600 322.0000 1.0000
54.0700 339.0000 1.0000
54.0800 292.0000 1.0000
54.0900 302.0000 1.0000
54.1000 296.0000 1.0000
54.1100 307.0000 1.0000
54.1200 334.0000 1.0000
54.1300 326.0000 1.0000
54.1400 301.0000 1.0000
54.1500 327.0000 1.0000
54.1600 274.0000 1.0000
54.1700 313.0000 1.0000
54.1800 300.0000 1.0000
54.1900 295.0000 1.0000
54.2000 293.0000 1.0000
54.2100 327.0000 1.0000
54.2200 300.0000 1.0000
54.2300 306.0000 1.0000
54.2400 297.0000 1.0000
54.2500 304.0000 1.0000
54.2600 293.0000 1.0000
54.2700 290.0000 1.0000
54.2800 299.0000 1.0000
54.2900 282.0000 1.0000
54.3000 304.0000 1.0000
54.3100 320.0000 1.0000
54.3200 296.0000 1.0000
54.3300 335.0000 1.0000
54.3400 314.0000 1.0000
54.3500 294.0000 1.0000
54.3600 314.0000 1.0000
54.3700 313.0000 1.0000
54.3800 337.0000 1.0000
54.3900 324.0000 1.0000
54.4000 339.0000 1.0000
54.4100 298.0000 1.0000
54.4200 333.0000 1.0000
54.4300 324.0000 1.0000
54.4400 319.0000 1.0000
54.4500 334.0000 1.0000
54.4600 303.0000 1.0000
54.4700 298.0000 1.0000
54.4800 329.0000 1.0000
54.4900 308.0000 1.0000
54.5000 292.0000 1.0000
54.5100 315.0000 1.0000
54.5200 320.0000 1.0000
54.5300 356.0000 1.0000
54.5400 312.0000 1.0000
54.5500 319.0000 1.0000
54.5600 322.0000 1.0000
54.5700 283.0000 1.0000
54.5800 292.0000 1.0000
54.5900 320.0000 1.0000
54.6000 302.0000 1.0000
54.6100 316.0000 1.0000
54.6200 329.0000 1.0000
54.6300 322.0000 1.0000
54.6400 306.0000 1.0000
54.6500 319.0000 1.0000
54.6600 324.0000 1.0000
54.6700 338.0000 1.0000
54.6800 310.0000 1.0000
54.6900 300.0000 1.0000
54.7000 334.0000 1.0000
54.7100 330.0000 1.0000
54.7200 324.0000 1.0000
54.7300 324.0000 1.0000
54.7400 326.0000 1.0000
54.7500 319.0000 1.0000
54.7600 306.0000 1.0000
54.7700 301.0000 1.0000
54.7800 306.0000 1.0000
54.7900 308.0000 1.0000
54.8000 307.0000 1.0000
54.8100 315.0000 1.0000
54.8200 334.0000 1.0000
54.8300 340.0000 1.0000
54.8400 331.0000 1.0000
54.8500 323.0000 1.0000
54.8600 353.0000 1.0000
54.8700 308.0000 1.0000
54.8800 327.0000 1.0000
54.8900 322.0000 1.0000
54.9000 345.0000 1.0000
54.9100 324.0000 1.0000
54.9200 338.0000 1.0000
54.9300 369.0000 1.0000
54.9400 365.0000 1.0000
54.9500 333.0000 1.0000
54.9600 350.0000 1.0000
54.9700 322.0000 1.0000
54.9800 338.0000 1.0000
54.9900 356.0000 1.0000
55.0000 337.0000 1.0000
55.0100 351.0000 1.0000
55.0200 340.0000 1.0000
55.0300 324.0000 1.0000
55.0400 348.0000 1.0000
55.0500 330.0000 1.0000
55.0600 350.0000 1.0000
55.0700 338.0000 1.0000
55.0800 352.0000 1.0000
55.0900 359.0000 1.0000
55.1000 382.0000 1.0000
55.1100 327.0000 1.0000
55.1200 363.0000 1.0000
55.1300 342.0000 1.0000
55.1400 367.0000 1.0000
55.1500 365.0000 1.0000
55.1600 391.0000 1.0000
55.1700 373.0000 1.0000
55.1800 377.0000 1.0000
55.1900 418.0000 1.0000
55.2000 392.0000 1.0000
55.2100 389.0000 1.0000
55.2200 389.0000 1.0000
55.2300 423.0000 1.0000
55.2400 425.0000 1.0000
55.2500 445.0000 1.0000
55.2600 425.0000 1.0000
55.2700 464.0000 1.0000
55.2800 469.0000 1.0000
55.2900 464.0000 1.0000
55.3000 429.0000 1.0000
55.3100 443.0000 1.0000
55.3200 467.0000 1.0000
55.3300 480.0000 1.0000
55.3400 436.0000 1.0000
55.3500 452.0000 1.0000
55.3600 463.0000 1.0000
55.3700 487.0000 1.0000
55.3800 463.0000 1.0000
55.3900 486.0000 1.0000
55.4000 483.0000 1.0000
55.4100 461.0000 1.0000
55.4200 435.0000 1.0000
55.4300 416.0000 1.0000
55.4400 477.0000 1.0000
55.4500 451.0000 1.0000
55.4600 427.0000 1.0000
55.4700 401.0000 1.0000
55.4800 413.0000 1.0000
55.4900 418.0000 1.0000
55.5000 393.0000 1.0000
55.5100 397.0000 1.0000
55.5200 402.0000 1.0000
55.5300 412.0000 1.0000
55.5400 415.0000 1.0000
55.5500 401.0000 1.0000
55.5600 373.0000 1.0000
55.5700 403.0000 1.0000
55.5800 362.0000 1.0000
55.5900 354.0000 1.0000
55.6000 335.0000 1.0000
55.6100 336.0000 1.0000
55.6200 354.0000 1.0000
55.6300 356.0000 1.0000
55.6400 365.0000 1.0000
55.6500 377.0000 1.0000
55.6600 355.0000 1.0000
55.6700 314.0000 1.0000
55.6800 318.0000 1.0000
55.6900 328.0000 1.0000
55.7000 313.0000 1.0000
55.7100 317.0000 1.0000
55.7200 312.0000 1.0000
55.7300 329.0000 1.0000
55.7400 324.0000 1.0000
55.7500 303.0000 1.0000
55.7600 306.0000 1.0000
55.7700 313.0000 1.0000
55.7800 340.0000 1.0000
55.7900 349.0000 1.0000
55.8000 326.0000 1.0000
55.8100 317.0000 1.0000
55.8200 300.0000 1.0000
55.8300 333.0000 1.0000
55.8400 304.0000 1.0000
55.8500 303.0000 1.0000
55.8600 324.0000 1.0000
55.8700 327.0000 1.0000
55.8800 334.0000 1.0000
55.8900 315.0000 1.0000
55.9000 323.0000 1.0000
55.9100 312.0000 1.0000
55.9200 296.0000 1.0000
55.9300 315.0000 1.0000
55.9400 326.0000 1.0000
55.9500 302.0000 1.0000
55.9600 310.0000 1.0000
55.9700 286.0000 1.0000
55.9800 304.0000 1.0000
55.9900 291.0000 1.0000
56.0000 301.0000 1.0000
56.0100 297.0000 1.0000
56.0200 294.0000 1.0000
56.0300 298.0000 1.0000
56.0400 311.0000 1.0000
56.0500 338.0000 1.0000
56.0600 289.0000 1.0000
56.0700 289.0000 1.0000
56.0800 297.0000 1.0000
56.0900 287.0000 1.0000
56.1000 277.0000 1.0000
56.1100 268.0000 1.0000
56.1200 296.0000 1.0000
56.1300 302.0000 1.0000
56.1400 309.0000 1.0000
56.1500 291.0000 1.0000
56.1600 293.0000 1.0000
56.1700 293.0000 1.0000
56.1800 321.0000 1.0000
56.1900 311.0000 1.0000
56.2000 287.0000 1.0000
56.2100 287.0000 1.0000
56.2200 315.0000 1.0000
56.2300 297.0000 1.0000
56.2400 283.0000 1.0000
56.2500 282.0000 1.0000
56.2600 315.0000 1.0000
56.2700 293.0000 1.0000
56.2800 297.0000 1.0000
56.2900 302.0000 1.0000
56.3000 296.0000 1.0000
56.3100 308.0000 1.0000
56.3200 290.0000 1.0000
56.3300 303.0000 1.0000
56.3400 293.0000 1.0000
56.3500 300.0000 1.0000
56.3600 303.0000 1.0000
56.3700 317.0000 1.0000
56.3800 296.0000 1.0000
56.3900 316.0000 1.0000
56.4000 323.0000 1.0000
56.4100 310.0000 1.0000
56.4200 299.0000 1.0000
56.4300 304.0000 1.0000
56.4400 312.0000 1.0000
56.4500 285.0000 1.0000
56.4600 283.0000 1.0000
56.4700 303.0000 1.0000
56.4800 285.0000 1.0000
56.4900 320.0000 1.0000
56.5000 308.0000 1.0000
56.5100 310.0000 1.0000
56.5200 313.0000 1.0000
56.5300 289.0000 1.0000
56.5400 274.0000 1.0000
56.5500 327.0000 1.0000
56.5600 304.0000 1.0000
56.5700 277.0000 1.0000
56.5800 285.0000 1.0000
56.5900 305.0000 1.0000
56.6000 308.0000 1.0000
56.6100 299.0000 1.0000
56.6200 296.0000 1.0000
56.6300 291.0000 1.0000
56.6400 332.0000 1.0000
56.6500 285.0000 1.0000
56.6600 278.0000 1.0000
56.6700 296.0000 1.0000
56.6800 313.0000 1.0000
56.6900 281.0000 1.0000
56.7000 324.0000 1.0000
56.7100 298.0000 1.0000
56.7200 310.0000 1.0000
56.7300 288.0000 1.0000
56.7400 288.0000 1.0000
56.7500 279.0000 1.0000
56.7600 283.0000 1.0000
56.7700 279.0000 1.0000
56.7800 274.0000 1.0000
56.7900 292.0000 1.0000
56.8000 307.0000 1.0000
56.8100 298.0000 1.0000
56.8200 303.0000 1.0000
56.8300 292.0000 1.0000
56.8400 298.0000 1.0000
56.8500 293.0000 1.0000
56.8600 305.0000 1.0000
56.8700 273.0000 1.0000
56.8800 297.0000 1.0000
56.8900 282.0000 1.0000
56.9000 305.0000 1.0000
56.9100 308.0000 1.0000
56.9200 304.0000 1.0000
56.9300 311.0000 1.0000
56.9400 323.0000 1.0000
56.9500 307.0000 1.0000
56.9600 296.0000 1.0000
56.9700 304.0000 1.0000
56.9800 283.0000 1.0000
56.9900 296.0000 1.0000
57.0000 330.0000 1.0000
57.0100 306.0000 1.0000
57.0200 305.0000 1.0000
57.0300 312.0000 1.0000
57.0400 303.0000 1.0000
57.0500 312.0000 1.0000
57.0600 298.0000 1.0000
57.0700 306.0000 1.0000
57.0800 289.0000 1.0000
57.0900 296.0000 1.0000
57.1000 275.0000 1.0000
57.1100 307.0000 1.0000
57.1200 277.0000 1.0000
57.1300 271.0000 1.0000
57.1400 286.0000 1.0000
57.1500 305.0000 1.0000
57.1600 281.0000 1.0000
57.1700 311.0000 1.0000
57.1800 285.0000 1.0000
57.1900 294.0000 1.0000
57.2000 307.0000 1.0000
57.2100 321.0000 1.0000
57.2200 316.0000 1.0000
57.2300 286.0000 1.0000
57.2400 286.0000 1.0000
57.2500 306.0000 1.0000
57.2600 285.0000 1.0000
57.2700 286.0000 1.0000
57.2800 305.0000 1.0000
57.2900 305.0000 1.0000
57.3000 302.0000 1.0000
57.3100 284.0000 1.0000
57.3200 327.0000 1.0000
57.3300 323.0000 1.0000
57.3400 289.0000 1.0000
57.3500 316.0000 1.0000
57.3600 283.0000 1.0000
57.3700 323.0000 1.0000
57.3800 277.0000 1.0000
57.3900 281.0000 1.0000
57.4000 295.0000 1.0000
57.4100 315.0000 1.0000
57.4200 312.0000 1.0000
57.4300 324.0000 1.0000
57.4400 296.0000 1.0000
57.4500 283.0000 1.0000
57.4600 307.0000 1.0000
57.4700 302.0000 1.0000
57.4800 270.0000 1.0000
57.4900 297.0000 1.0000
57.5000 313.0000 1.0000
57.5100 316.0000 1.0000
57.5200 314.0000 1.0000
57.5300 270.0000 1.0000
57.5400 296.0000 1.0000
57.5500 321.0000 1.0000
57.5600 294.0000 1.0000
57.5700 266.0000 1.0000
57.5800 269.0000 1.0000
57.5900 296.0000 1.0000
57.6000 290.0000 1.0000
57.6100 304.0000 1.0000
57.6200 271.0000 1.0000
57.6300 281.0000 1.0000
57.6400 314.0000 1.0000
57.6500 292.0000 1.0000
57.6600 293.0000 1.0000
57.6700 269.0000 1.0000
57.6800 284.0000 1.0000
57.6900 303.0000 1.0000
57.7000 274.0000 1.0000
57.7100 325.0000 1.0000
57.7200 304.0000 1.0000
57.7300 301.0000 1.0000
57.7400 326.0000 1.0000
57.7500 275.0000 1.0000
57.7600 270.0000 1.0000
57.7700 297.0000 1.0000
57.7800 305.0000 1.0000
57.7900 297.0000 1.0000
57.8000 318.0000 1.0000
57.8100 310.0000 1.0000
57.8200 308.0000 1.0000
57.8300 295.0000 1.0000
57.8400 311.0000 1.0000
57.8500 311.0000 1.0000
57.8600 284.0000 1.0000
57.8700 284.0000 1.0000
57.8800 304.0000 1.0000
57.8900 298.0000 1.0000
57.9000 293.0000 1.0000
57.9100 298.0000 1.0000
57.9200 296.0000 1.0000
57.9300 315.0000 1.0000
57.9400 308.0000 1.0000
57.9500 299.0000 1.0000
57.9600 303.0000 1.0000
57.9700 286.0000 1.0000
57.9800 291.0000 1.0000
57.9900 300.0000 1.0000
58.0000 314.0000 1.0000
58.0100 287.0000 1.0000
58.0200 306.0000 1.0000
58.0300 331.0000 1.0000
58.0400 309.0000 1.0000
58.0500 312.0000 1.0000
58.0600 327.0000 1.0000
58.0700 284.0000 1.0000
58.0800 270.0000 1.0000
58.0900 274.0000 1.0000
58.1000 281.0000 1.0000
58.1100 293.0000 1.0000
58.1200 281.0000 1.0000
58.1300 318.0000 1.0000
58.1400 310.0000 1.0000
58.1500 315.0000 1.0000
58.1600 314.0000 1.0000
58.1700 309.0000 1.0000
58.1800 293.0000 1.0000
58.1900 277.0000 1.0000
58.2000 297.0000 1.0000
58.2100 304.0000 1.0000
58.2200 266.0000 1.0000
58.2300 271.0000 1.0000
58.2400 294.0000 1.0000
58.2500 281.0000 1.0000
58.2600 306.0000 1.0000
58.2700 293.0000 1.0000
58.2800 299.0000 1.0000
58.2900 287.0000 1.0000
58.3000 275.0000 1.0000
58.3100 314.0000 1.0000
58.3200 293.0000 1.0000
58.3300 304.0000 1.0000
58.3400 306.0000 1.0000
58.3500 319.0000 1.0000
58.3600 298.0000 1.0000
58.3700 298.0000 1.0000
58.3800 292.0000 1.0000
58.3900 291.0000 1.0000
58.4000 308.0000 1.0000
58.4100 306.0000 1.0000
58.4200 310.0000 1.0000
58.4300 299.0000 1.0000
58.4400 311.0000 1.0000
58.4500 288.0000 1.0000
58.4600 289.0000 1.0000
58.4700 288.0000 1.0000
58.4800 309.0000 1.0000
58.4900 301.0000 1.0000
58.5000 297.0000 1.0000
58.5100 295.0000 1.0000
58.5200 283.0000 1.0000
58.5300 296.0000 1.0000
58.5400 307.0000 1.0000
58.5500 289.0000 1.0000
58.5600 283.0000 1.0000
58.5700 299.0000 1.0000
58.5800 262.0000 1.0000
58.5900 281.0000 1.0000
58.6000 300.0000 1.0000
58.6100 323.0000 1.0000
58.6200 311.0000 1.0000
58.6300 284.0000 1.0000
58.6400 330.0000 1.0000
58.6500 320.0000 1.0000
58.6600 283.0000 1.0000
58.6700 292.0000 1.0000
58.6800 295.0000 1.0000
58.6900 286.0000 1.0000
58.7000 291.0000 1.0000
58.7100 289.0000 1.0000
58.7200 299.0000 1.0000
58.7300 292.0000 1.0000
58.7400 273.0000 1.0000
58.7500 300.0000 1.0000
58.7600 280.0000 1.0000
58.7700 322.0000 1.0000
58.7800 302.0000 1.0000
58.7900 263.0000 1.0000
58.8000 285.0000 1.0000
58.8100 299.0000 1.0000
58.8200 299.0000 1.0000
58.8300 300.0000 1.0000
58.8400 292.0000 1.0000
58.8500 291.0000 1.0000
58.8600 294.0000 1.0000
58.8700 275.0000 1.0000
58.8800 284.0000 1.0000
58.8900 296.0000 1.0000
58.9000 305.0000 1.0000
58.9100 344.0000 1.0000
58.9200 281.0000 1.0000
58.9300 294.0000 1.0000
58.9400 300.0000 1.0000
58.9500 307.0000 1.0000
58.9600 310.0000 1.0000
58.9700 285.0000 1.0000
58.9800 307.0000 1.0000
58.9900 277.0000 1.0000
59.0000 277.0000 1.0000
59.0100 300.0000 1.0000
59.0200 317.0000 1.0000
59.0300 298.0000 1.0000
59.0400 276.0000 1.0000
59.0500 305.0000 1.0000
59.0600 298.0000 1.0000
59.0700 284.0000 1.0000
59.0800 313.0000 1.0000
59.0900 289.0000 1.0000
59.1000 293.0000 1.0000
59.1100 292.0000 1.0000
59.1200 294.0000 1.0000
59.1300 327.0000 1.0000
59.1400 296.0000 1.0000
59.1500 306.0000 1.0000
59.1600 327.0000 1.0000
59.1700 295.0000 1.0000
59.1800 296.0000 1.0000
59.1900 300.0000 1.0000
59.2000 298.0000 1.0000
59.2100 283.0000 1.0000
59.2200 283.0000 1.0000
59.2300 261.0000 1.0000
59.2400 299.0000 1.0000
59.2500 305.0000 1.0000
59.2600 290.0000 1.0000
59.2700 300.0000 1.0000
59.2800 301.0000 1.0000
59.2900 308.0000 1.0000
59.3000 319.0000 1.0000
59.3100 296.0000 1.0000
59.3200 275.0000 1.0000
59.3300 300.0000 1.0000
59.3400 279.0000 1.0000
59.3500 298.0000 1.0000
59.3600 292.0000 1.0000
59.3700 294.0000 1.0000
59.3800 335.0000 1.0000
59.3900 302.0000 1.0000
59.4000 304.0000 1.0000
59.4100 279.0000 1.0000
59.4200 289.0000 1.0000
59.4300 327.0000 1.0000
59.4400 287.0000 1.0000
59.4500 293.0000 1.0000
59.4600 269.0000 1.0000
59.4700 310.0000 1.0000
59.4800 303.0000 1.0000
59.4900 305.0000 1.0000
59.5000 307.0000 1.0000
59.5100 279.0000 1.0000
59.5200 294.0000 1.0000
59.5300 312.0000 1.0000
59.5400 282.0000 1.0000
59.5500 305.0000 1.0000
59.5600 289.0000 1.0000
59.5700 288.0000 1.0000
59.5800 310.0000 1.0000
59.5900 298.0000 1.0000
59.6000 315.0000 1.0000
59.6100 297.0000 1.0000
59.6200 293.0000 1.0000
59.6300 296.0000 1.0000
59.6400 289.0000 1.0000
59.6500 278.0000 1.0000
59.6600 287.0000 1.0000
59.6700 296.0000 1.0000
59.6800 282.0000 1.0000
59.6900 289.0000 1.0000
59.7000 300.0000 1.0000
59.7100 282.0000 1.0000
59.7200 269.0000 1.0000
59.7300 295.0000 1.0000
59.7400 306.0000 1.0000
59.7500 296.0000 1.0000
59.7600 307.0000 1.0000
59.7700 281.0000 1.0000
59.7800 301.0000 1.0000
59.7900 307.0000 1.0000
59.8000 282.0000 1.0000
59.8100 276.0000 1.0000
59.8200 304.0000 1.0000
59.8300 298.0000 1.0000
59.8400 306.0000 1.0000
59.8500 306.0000 1.0000
59.8600 322.0000 1.0000
59.8700 274.0000 1.0000
59.8800 275.0000 1.0000
59.8900 284.0000 1.0000
59.9000 265.0000 1.0000
59.9100 287.0000 1.0000
59.9200 303.0000 1.0000
59.9300 311.0000 1.0000
59.9400 338.0000 1.0000
59.9500 311.0000 1.0000
59.9600 281.0000 1.0000
59.9700 272.0000 1.0000
59.9800 312.0000 1.0000
59.9900 277.0000 1.0000
60.0000 267.0000 1.0000
60.0100 260.0000 1.0000
60.0200 318.0000 1.0000
60.0300 293.0000 1.0000
60.0400 293.0000 1.0000
60.0500 298.0000 1.0000
60.0600 287.0000 1.0000
60.0700 290.0000 1.0000
60.0800 293.0000 1.0000
60.0900 289.0000 1.0000
60.1000 314.0000 1.0000
60.1100 325.0000 1.0000
60.1200 293.0000 1.0000
60.1300 287.0000 1.0000
60.1400 302.0000 1.0000
60.1500 304.0000 1.0000
60.1600 291.0000 1.0000
60.1700 294.0000 1.0000
60.1800 292.0000 1.0000
60.1900 329.0000 1.0000
60.2000 287.0000 1.0000
60.2100 266.0000 1.0000
60.2200 274.0000 1.0000
60.2300 296.0000 1.0000
60.2400 304.0000 1.0000
60.2500 290.0000 1.0000
60.2600 285.0000 1.0000
60.2700 293.0000 1.0000
60.2800 270.0000 1.0000
60.2900 294.0000 1.0000
60.3000 286.0000 1.0000
60.3100 282.0000 1.0000
60.3200 302.0000 1.0000
60.3300 302.0000 1.0000
60.3400 293.0000 1.0000
60.3500 286.0000 1.0000
60.3600 295.0000 1.0000
60.3700 305.0000 1.0000
60.3800 297.0000 1.0000
60.3900 323.0000 1.0000
60.4000 319.0000 1.0000
60.4100 289.0000 1.0000
60.4200 279.0000 1.0000
60.4300 284.0000 1.0000
60.4400 271.0000 1.0000
60.4500 282.0000 1.0000
60.4600 302.0000 1.0000
60.4700 314.0000 1.0000
60.4800 301.0000 1.0000
60.4900 278.0000 1.0000
60.5000 287.0000 1.0000
60.5100 298.0000 1.0000
60.5200 289.0000 1.0000
60.5300 281.0000 1.0000
60.5400 261.0000 1.0000
60.5500 305.0000 1.0000
60.5600 297.0000 1.0000
60.5700 289.0000 1.0000
60.5800 270.0000 1.0000
60.5900 309.0000 1.0000
60.6000 315.0000 1.0000
60.6100 298.0000 1.0000
60.6200 284.0000 1.0000
60.6300 319.0000 1.0000
60.6400 261.0000 1.0000
60.6500 280.0000 1.0000
60.6600 301.0000 1.0000
60.6700 279.0000 1.0000
60.6800 288.0000 1.0000
60.6900 295.0000 1.0000
60.7000 309.0000 1.0000
60.7100 292.0000 1.0000
60.7200 289.0000 1.0000
60.7300 318.0000 1.0000
60.7400 292.0000 1.0000
60.7500 291.0000 1.0000
60.7600 290.0000 1.0000
60.7700 308.0000 1.0000
60.7800 296.0000 1.0000
60.7900 280.0000 1.0000
60.8000 317.0000 1.0000
60.8100 264.0000 1.0000
60.8200 296.0000 1.0000
60.8300 291.0000 1.0000
60.8400 266.0000 1.0000
60.8500 318.0000 1.0000
60.8600 310.0000 1.0000
60.8700 280.0000 1.0000
60.8800 313.0000 1.0000
60.8900 293.0000 1.0000
60.9000 286.0000 1.0000
60.9100 317.0000 1.0000
60.9200 307.0000 1.0000
60.9300 283.0000 1.0000
60.9400 269.0000 1.0000
60.9500 282.0000 1.0000
60.9600 320.0000 1.0000
60.9700 311.0000 1.0000
60.9800 295.0000 1.0000
60.9900 299.0000 1.0000
61.0000 289.0000 1.0000
61.0100 302.0000 1.0000
61.0200 304.0000 1.0000
61.0300 281.0000 1.0000
61.0400 267.0000 1.0000
61.0500 314.0000 1.0000
61.0600 328.0000 1.0000
61.0700 317.0000 1.0000
61.0800 302.0000 1.0000
61.0900 292.0000 1.0000
61.1000 296.0000 1.0000
61.1100 284.0000 1.0000
61.1200 271.0000 1.0000
61.1300 271.0000 1.0000
61.1400 297.0000 1.0000
61.1500 279.0000 1.0000
61.1600 287.0000 1.0000
61.1700 282.0000 1.0000
61.1800 285.0000 1.0000
61.1900 293.0000 1.0000
61.2000 298.0000 1.0000
61.2100 300.0000 1.0000
61.2200 281.0000 1.0000
61.2300 303.0000 1.0000
61.2400 292.0000 1.0000
61.2500 298.0000 1.0000
61.2600 328.0000 1.0000
61.2700 326.0000 1.0000
61.2800 289.0000 1.0000
61.2900 294.0000 1.0000
61.3000 299.0000 1.0000
61.3100 310.0000 1.0000
61.3200 284.0000 1.0000
61.3300 298.0000 1.0000
61.3400 317.0000 1.0000
61.3500 318.0000 1.0000
61.3600 294.0000 1.0000
61.3700 295.0000 1.0000
61.3800 309.0000 1.0000
61.3900 300.0000 1.0000
61.4000 301.0000 1.0000
61.4100 304.0000 1.0000
61.4200 280.0000 1.0000
61.4300 299.0000 1.0000
61.4400 292.0000 1.0000
61.4500 293.0000 1.0000
61.4600 316.0000 1.0000
61.4700 288.0000 1.0000
61.4800 284.0000 1.0000
61.4900 316.0000 1.0000
61.5000 277.0000 1.0000
61.5100 279.0000 1.0000
61.5200 309.0000 1.0000
61.5300 284.0000 1.0000
61.5400 282.0000 1.0000
61.5500 281.0000 1.0000
61.5600 292.0000 1.0000
61.5700 291.0000 1.0000
61.5800 275.0000 1.0000
61.5900 297.0000 1.0000
61.6000 290.0000 1.0000
61.6100 290.0000 1.0000
61.6200 307.0000 1.0000
61.6300 288.0000 1.0000
61.6400 317.0000 1.0000
61.6500 306.0000 1.0000
61.6600 292.0000 1.0000
61.6700 296.0000 1.0000
61.6800 301.0000 1.0000
61.6900 320.0000 1.0000
61.7000 306.0000 1.0000
61.7100 319.0000 1.0000
61.7200 304.0000 1.0000
61.7300 279.0000 1.0000
61.7400 313.0000 1.0000
61.7500 306.0000 1.0000
61.7600 307.0000 1.0000
61.7700 323.0000 1.0000
61.7800 307.0000 1.0000
61.7900 318.0000 1.0000
61.8000 302.0000 1.0000
61.8100 325.0000 1.0000
61.8200 349.0000 1.0000
61.8300 317.0000 1.0000
61.8400 325.0000 1.0000
61.8500 294.0000 1.0000
61.8600 323.0000 1.0000
61.8700 358.0000 1.0000
61.8800 351.0000 1.0000
61.8900 342.0000 1.0000
61.9000 305.0000 1.0000
61.9100 341.0000 1.0000
61.9200 357.0000 1.0000
61.9300 350.0000 1.0000
61.9400 323.0000 1.0000
61.9500 335.0000 1.0000
61.9600 336.0000 1.0000
61.9700 339.0000 1.0000
61.9800 318.0000 1.0000
61.9900 347.0000 1.0000
62.0000 343.0000 1.0000
62.0100 369.0000 1.0000
62.0200 363.0000 1.0000
62.0300 313.0000 1.0000
62.0400 389.0000 1.0000
62.0500 341.0000 1.0000
62.0600 333.0000 1.0000
62.0700 390.0000 1.0000
62.0800 405.0000 1.0000
62.0900 364.0000 1.0000
62.1000 408.0000 1.0000
62.1100 393.0000 1.0000
62.1200 415.0000 1.0000
62.1300 457.0000 1.0000
62.1400 431.0000 1.0000
62.1500 474.0000 1.0000
62.1600 456.0000 1.0000
62.1700 487.0000 1.0000
62.1800 465.0000 1.0000
62.1900 490.0000 1.0000
62.2000 564.0000 1.0000
62.2100 503.0000 1.0000
62.2200 542.0000 1.0000
62.2300 527.0000 1.0000
62.2400 544.0000 1.0000
62.2500 584.0000 1.0000
62.2600 573.0000 1.0000
62.2700 583.0000 1.0000
62.2800 590.0000 1.0000
62.2900 614.0000 1.0000
62.3000 639.0000 1.0000
62.3100 653.0000 1.0000
62.3200 655.0000 1.0000
62.3300 631.0000 1.0000
62.3400 685.0000 1.0000
62.3500 669.0000 1.0000
62.3600 677.0000 1.0000
62.3700 618.0000 1.0000
62.3800 620.0000 1.0000
62.3900 617.0000 1.0000
62.4000 623.0000 1.0000
62.4100 654.0000 1.0000
62.4200 617.0000 1.0000
62.4300 632.0000 1.0000
62.4400 634.0000 1.0000
62.4500 576.0000 1.0000
62.4600 558.0000 1.0000
62.4700 629.0000 1.0000
62.4800 588.0000 1.0000
62.4900 581.0000 1.0000
62.5000 543.0000 1.0000
62.5100 535.0000 1.0000
62.5200 541.0000 1.0000
62.5300 560.0000 1.0000
62.5400 533.0000 1.0000
62.5500 515.0000 1.0000
62.5600 490.0000 1.0000
62.5700 463.0000 1.0000
62.5800 472.0000 1.0000
62.5900 501.0000 1.0000
62.6000 508.0000 1.0000
62.6100 444.0000 1.0000
62.6200 429.0000 1.0000
62.6300 424.0000 1.0000
62.6400 431.0000 1.0000
62.6500 401.0000 1.0000
62.6600 391.0000 1.0000
62.6700 397.0000 1.0000
62.6800 395.0000 1.0000
62.6900 389.0000 1.0000
62.7000 397.0000 1.0000
62.7100 353.0000 1.0000
62.7200 361.0000 1.0000
62.7300 388.0000 1.0000
62.7400 362.0000 1.0000
62.7500 360.0000 1.0000
62.7600 373.0000 1.0000
62.7700 400.0000 1.0000
62.7800 387.0000 1.0000
62.7900 361.0000 1.0000
62.8000 350.0000 1.0000
62.8100 372.0000 1.0000
62.8200 338.0000 1.0000
62.8300 354.0000 1.0000
62.8400 341.0000 1.0000
62.8500 354.0000 1.0000
62.8600 350.0000 1.0000
62.8700 325.0000 1.0000
62.8800 325.0000 1.0000
62.8900 331.0000 1.0000
62.9000 345.0000 1.0000
62.9100 315.0000 1.0000
62.9200 327.0000 1.0000
62.9300 323.0000 1.0000
62.9400 320.0000 1.0000
62.9500 347.0000 1.0000
62.9600 319.0000 1.0000
62.9700 310.0000 1.0000
62.9800 316.0000 1.0000
62.9900 324.0000 1.0000
63.0000 303.0000 1.0000
63.0100 326.0000 1.0000
63.0200 294.0000 1.0000
63.0300 324.0000 1.0000
63.0400 315.0000 1.0000
63.0500 317.0000 1.0000
63.0600 322.0000 1.0000
63.0700 350.0000 1.0000
63.0800 318.0000 1.0000
63.0900 318.0000 1.0000
63.1000 307.0000 1.0000
63.1100 324.0000 1.0000
63.1200 329.0000 1.0000
63.1300 336.0000 1.0000
63.1400 317.0000 1.0000
63.1500 331.0000 1.0000
63.1600 312.0000 1.0000
63.1700 300.0000 1.0000
63.1800 313.0000 1.0000
63.1900 326.0000 1.0000
63.2000 326.0000 1.0000
63.2100 330.0000 1.0000
63.2200 345.0000 1.0000
63.2300 313.0000 1.0000
63.2400 327.0000 1.0000
63.2500 324.0000 1.0000
63.2600 320.0000 1.0000
63.2700 308.0000 1.0000
63.2800 303.0000 1.0000
63.2900 326.0000 1.0000
63.3000 295.0000 1.0000
63.3100 315.0000 1.0000
63.3200 335.0000 1.0000
63.3300 319.0000 1.0000
63.3400 344.0000 1.0000
63.3500 298.0000 1.0000
63.3600 331.0000 1.0000
63.3700 294.0000 1.0000
63.3800 302.0000 1.0000
63.3900 313.0000 1.0000
63.4000 288.0000 1.0000
63.4100 326.0000 1.0000
63.4200 309.0000 1.0000
63.4300 317.0000 1.0000
63.4400 306.0000 1.0000
63.4500 288.0000 1.0000
63.4600 313.0000 1.0000
63.4700 292.0000 1.0000
63.4800 294.0000 1.0000
63.4900 310.0000 1.0000
63.5000 261.0000 1.0000
63.5100 284.0000 1.0000
63.5200 315.0000 1.0000
63.5300 309.0000 1.0000
63.5400 294.0000 1.0000
63.5500 273.0000 1.0000
63.5600 305.0000 1.0000
63.5700 320.0000 1.0000
63.5800 287.0000 1.0000
63.5900 267.0000 1.0000
63.6000 298.0000 1.0000
63.6100 302.0000 1.0000
63.6200 303.0000 1.0000
63.6300 273.0000 1.0000
63.6400 306.0000 1.0000
63.6500 311.0000 1.0000
63.6600 273.0000 1.0000
63.6700 306.0000 1.0000
63.6800 290.0000 1.0000
63.6900 280.0000 1.0000
63.7000 308.0000 1.0000
63.7100 304.0000 1.0000
63.7200 277.0000 1.0000
63.7300 298.0000 1.0000
63.7400 278.0000 1.0000
63.7500 353.0000 1.0000
63.7600 326.0000 1.0000
63.7700 282.0000 1.0000
63.7800 291.0000 1.0000
63.7900 305.0000 1.0000
63.8000 289.0000 1.0000
63.8100 282.0000 1.0000
63.8200 308.0000 1.0000
63.8300 268.0000 1.0000
63.8400 295.0000 1.0000
63.8500 293.0000 1.0000
63.8600 309.0000 1.0000
63.8700 283.0000 1.0000
63.8800 281.0000 1.0000
63.8900 300.0000 1.0000
63.9000 306.0000 1.0000
63.9100 272.0000 1.0000
63.9200 291.0000 1.0000
63.9300 315.0000 1.0000
63.9400 322.0000 1.0000
63.9500 310.0000 1.0000
63.9600 294.0000 1.0000
63.9700 289.0000 1.0000
63.9800 307.0000 1.0000
63.9900 285.0000 1.0000
64.0000 305.0000 1.0000
64.0100 306.0000 1.0000
64.0200 308.0000 1.0000
64.0300 308.0000 1.0000
64.0400 302.0000 1.0000
64.0500 311.0000 1.0000
64.0600 332.0000 1.0000
64.0700 293.0000 1.0000
64.0800 298.0000 1.0000
64.0900 310.0000 1.0000
64.1000 315.0000 1.0000
64.1100 263.0000 1.0000
64.1200 268.0000 1.0000
64.1300 274.0000 1.0000
64.1400 299.0000 1.0000
64.1500 314.0000 1.0000
64.1600 277.0000 1.0000
64.1700 300.0000 1.0000
64.1800 305.0000 1.0000
64.1900 306.0000 1.0000
64.2000 288.0000 1.0000
64.2100 306.0000 1.0000
64.2200 306.0000 1.0000
64.2300 302.0000 1.0000
64.2400 297.0000 1.0000
64.2500 316.0000 1.0000
64.2600 315.0000 1.0000
64.2700 273.0000 1.0000
64.2800 299.0000 1.0000
64.2900 323.0000 1.0000
64.3000 300.0000 1.0000
64.3100 309.0000 1.0000
64.3200 317.0000 1.0000
64.3300 317.0000 1.0000
64.3400 309.0000 1.0000
64.3500 304.0000 1.0000
64.3600 288.0000 1.0000
64.3700 303.0000 1.0000
64.3800 297.0000 1.0000
64.3900 293.0000 1.0000
64.4000 304.0000 1.0000
64.4100 309.0000 1.0000
64.4200 319.0000 1.0000
64.4300 339.0000 1.0000
64.4400 325.0000 1.0000
64.4500 354.0000 1.0000
64.4600 306.0000 1.0000
64.4700 309.0000 1.0000
64.4800 328.0000 1.0000
64.4900 301.0000 1.0000
64.5000 326.0000 1.0000
64.5100 325.0000 1.0000
64.5200 323.0000 1.0000
64.5300 314.0000 1.0000
64.5400 321.0000 1.0000
64.5500 314.0000 1.0000
64.5600 327.0000 1.0000
64.5700 313.0000 1.0000
64.5800 347.0000 1.0000
64.5900 358.0000 1.0000
64.6000 354.0000 1.0000
64.6100 344.0000 1.0000
64.6200 336.0000 1.0000
64.6300 377.0000 1.0000
64.6400 378.0000 1.0000
64.6500 356.0000 1.0000
64.6600 393.0000 1.0000
64.6700 400.0000 1.0000
64.6800 378.0000 1.0000
64.6900 385.0000 1.0000
64.7000 400.0000 1.0000
64.7100 428.0000 1.0000
64.7200 366.0000 1.0000
64.7300 363.0000 1.0000
64.7400 385.0000 1.0000
64.7500 415.0000 1.0000
64.7600 382.0000 1.0000
64.7700 393.0000 1.0000
64.7800 406.0000 1.0000
64.7900 396.0000 1.0000
64.8000 372.0000 1.0000
64.8100 381.0000 1.0000
64.8200 383.0000 1.0000
64.8300 398.0000 1.0000
64.8400 401.0000 1.0000
64.8500 379.0000 1.0000
64.8600 370.0000 1.0000
64.8700 358.0000 1.0000
64.8800 382.0000 1.0000
64.8900 397.0000 1.0000
64.9000 392.0000 1.0000
64.9100 362.0000 1.0000
64.9200 326.0000 1.0000
64.9300 343.0000 1.0000
64.9400 373.0000 1.0000
64.9500 396.0000 1.0000
64.9600 361.0000 1.0000
64.9700 355.0000 1.0000
64.9800 364.0000 1.0000
64.9900 344.0000 1.0000
65.0000 321.0000 1.0000
65.0100 341.0000 1.0000
65.0200 336.0000 1.0000
65.0300 348.0000 1.0000
65.0400 344.0000 1.0000
65.0500 351.0000 1.0000
65.0600 336.0000 1.0000
65.0700 335.0000 1.0000
65.0800 334.0000 1.0000
65.0900 306.0000 1.0000
65.1000 316.0000 1.0000
65.1100 336.0000 1.0000
65.1200 309.0000 1.0000
65.1300 313.0000 1.0000
65.1400 305.0000 1.0000
65.1500 320.0000 1.0000
65.1600 316.0000 1.0000
65.1700 314.0000 1.0000
65.1800 316.0000 1.0000
65.1900 335.0000 1.0000
65.2000 320.0000 1.0000
65.2100 302.0000 1.0000
65.2200 342.0000 1.0000
65.2300 333.0000 1.0000
65.2400 312.0000 1.0000
65.2500 326.0000 1.0000
65.2600 296.0000 1.0000
65.2700 321.0000 1.0000
65.2800 306.0000 1.0000
65.2900 323.0000 1.0000
65.3000 286.0000 1.0000
65.3100 299.0000 1.0000
65.3200 289.0000 1.0000
65.3300 332.0000 1.0000
65.3400 325.0000 1.0000
65.3500 343.0000 1.0000
65.3600 349.0000 1.0000
65.3700 311.0000 1.0000
65.3800 293.0000 1.0000
65.3900 313.0000 1.0000
65.4000 325.0000 1.0000
65.4100 317.0000 1.0000
65.4200 318.0000 1.0000
65.4300 314.0000 1.0000
65.4400 316.0000 1.0000
65.4500 300.0000 1.0000
65.4600 329.0000 1.0000
65.4700 341.0000 1.0000
65.4800 340.0000 1.0000
65.4900 323.0000 1.0000
65.5000 277.0000 1.0000
65.5100 295.0000 1.0000
65.5200 273.0000 1.0000
65.5300 310.0000 1.0000
65.5400 275.0000 1.0000
65.5500 287.0000 1.0000
65.5600 295.0000 1.0000
65.5700 308.0000 1.0000
65.5800 306.0000 1.0000
65.5900 288.0000 1.0000
65.6000 309.0000 1.0000
65.6100 316.0000 1.0000
65.6200 299.0000 1.0000
65.6300 325.0000 1.0000
65.6400 322.0000 1.0000
65.6500 303.0000 1.0000
65.6600 319.0000 1.0000
65.6700 333.0000 1.0000
65.6800 294.0000 1.0000
65.6900 310.0000 1.0000
65.7000 341.0000 1.0000
65.7100 330.0000 1.0000
65.7200 296.0000 1.0000
65.7300 294.0000 1.0000
65.7400 333.0000 1.0000
65.7500 339.0000 1.0000
65.7600 299.0000 1.0000
65.7700 323.0000 1.0000
65.7800 344.0000 1.0000
65.7900 342.0000 1.0000
65.8000 326.0000 1.0000
65.8100 333.0000 1.0000
65.8200 337.0000 1.0000
65.8300 314.0000 1.0000
65.8400 315.0000 1.0000
65.8500 334.0000 1.0000
65.8600 349.0000 1.0000
65.8700 352.0000 1.0000
65.8800 345.0000 1.0000
65.8900 340.0000 1.0000
65.9000 362.0000 1.0000
65.9100 367.0000 1.0000
65.9200 361.0000 1.0000
65.9300 326.0000 1.0000
65.9400 360.0000 1.0000
65.9500 357.0000 1.0000
65.9600 374.0000 1.0000
65.9700 389.0000 1.0000
65.9800 375.0000 1.0000
65.9900 406.0000 1.0000
66.0000 411.0000 1.0000
66.0100 427.0000 1.0000
66.0200 444.0000 1.0000
66.0300 445.0000 1.0000
66.0400 440.0000 1.0000
66.0500 433.0000 1.0000
66.0600 461.0000 1.0000
66.0700 493.0000 1.0000
66.0800 496.0000 1.0000
66.0900 518.0000 1.0000
66.1000 525.0000 1.0000
66.1100 548.0000 1.0000
66.1200 556.0000 1.0000
66.1300 572.0000 1.0000
66.1400 626.0000 1.0000
66.1500 637.0000 1.0000
66.1600 687.0000 1.0000
66.1700 705.0000 1.0000
66.1800 762.0000 1.0000
66.1900 808.0000 1.0000
66.2000 816.0000 1.0000
66.2100 838.0000 1.0000
66.2200 893.0000 1.0000
66.2300 989.0000 1.0000
66.2400 976.0000 1.0000
66.2500 1117.0000 1.0000
66.2600 1139.0000 1.0000
66.2700 1166.0000 1.0000
66.2800 1179.0000 1.0000
66.2900 1172.0000 1.0000
66.3000 1221.0000 1.0000
66.3100 1191.0000 1.0000
66.3200 1160.0000 1.0000
66.3300 1160.0000 1.0000
66.3400 1172.0000 1.0000
66.3500 1098.0000 1.0000
66.3600 1095.0000 1.0000
66.3700 1083.0000 1.0000
66.3800 1127.0000 1.0000
66.3900 1053.0000 1.0000
66.4000 1092.0000 1.0000
66.4100 1028.0000 1.0000
66.4200 980.0000 1.0000
66.4300 1042.0000 1.0000
66.4400 969.0000 1.0000
66.4500 978.0000 1.0000
66.4600 967.0000 1.0000
66.4700 965.0000 1.0000
66.4800 902.0000 1.0000
66.4900 911.0000 1.0000
66.5000 912.0000 1.0000
66.5100 890.0000 1.0000
66.5200 854.0000 1.0000
66.5300 828.0000 1.0000
66.5400 773.0000 1.0000
66.5500 731.0000 1.0000
66.5600 733.0000 1.0000
66.5700 685.0000 1.0000
66.5800 663.0000 1.0000
66.5900 633.0000 1.0000
66.6000 637.0000 1.0000
66.6100 591.0000 1.0000
66.6200 571.0000 1.0000
66.6300 524.0000 1.0000
66.6400 553.0000 1.0000
66.6500 535.0000 1.0000
66.6600 507.0000 1.0000
66.6700 468.0000 1.0000
66.6800 433.0000 1.0000
66.6900 464.0000 1.0000
66.7000 457.0000 1.0000
66.7100 445.0000 1.0000
66.7200 409.0000 1.0000
66.7300 448.0000 1.0000
66.7400 407.0000 1.0000
66.7500 405.0000 1.0000
66.7600 382.0000 1.0000
66.7700 367.0000 1.0000
66.7800 359.0000 1.0000
66.7900 365.0000 1.0000
66.8000 356.0000 1.0000
66.8100 349.0000 1.0000
66.8200 368.0000 1.0000
66.8300 362.0000 1.0000
66.8400 325.0000 1.0000
66.8500 349.0000 1.0000
66.8600 348.0000 1.0000
66.8700 344.0000 1.0000
66.8800 314.0000 1.0000
66.8900 316.0000 1.0000
66.9000 344.0000 1.0000
66.9100 334.0000 1.0000
66.9200 339.0000 1.0000
66.9300 332.0000 1.0000
66.9400 308.0000 1.0000
66.9500 349.0000 1.0000
66.9600 337.0000 1.0000
66.9700 311.0000 1.0000
66.9800 291.0000 1.0000
66.9900 309.0000 1.0000
67.0000 315.0000 1.0000
67.0100 324.0000 1.0000
67.0200 302.0000 1.0000
67.0300 298.0000 1.0000
67.0400 298.0000 1.0000
67.0500 286.0000 1.0000
67.0600 317.0000 1.0000
67.0700 291.0000 1.0000
67.0800 298.0000 1.0000
67.0900 304.0000 1.0000
67.1000 310.0000 1.0000
67.1100 299.0000 1.0000
67.1200 284.0000 1.0000
67.1300 303.0000 1.0000
67.1400 281.0000 1.0000
67.1500 298.0000 1.0000
67.1600 303.0000 1.0000
67.1700 287.0000 1.0000
67.1800 301.0000 1.0000
67.1900 293.0000 1.0000
67.2000 273.0000 1.0000
67.2100 279.0000 1.0000
67.2200 275.0000 1.0000
67.2300 303.0000 1.0000
67.2400 264.0000 1.0000
67.2500 304.0000 1.0000
67.2600 282.0000 1.0000
67.2700 284.0000 1.0000
67.2800 292.0000 1.0000
67.2900 276.0000 1.0000
67.3000 276.0000 1.0000
67.3100 284.0000 1.0000
67.3200 287.0000 1.0000
67.3300 280.0000 1.0000
67.3400 282.0000 1.0000
67.3500 287.0000 1.0000
67.3600 265.0000 1.0000
67.3700 275.0000 1.0000
67.3800 287.0000 1.0000
67.3900 286.0000 1.0000
67.4000 281.0000 1.0000
67.4100 277.0000 1.0000
67.4200 280.0000 1.0000
67.4300 285.0000 1.0000
67.4400 277.0000 1.0000
67.4500 305.0000 1.0000
67.4600 311.0000 1.0000
67.4700 276.0000 1.0000
67.4800 252.0000 1.0000
67.4900 287.0000 1.0000
67.5000 280.0000 1.0000
67.5100 288.0000 1.0000
67.5200 302.0000 1.0000
67.5300 297.0000 1.0000
67.5400 265.0000 1.0000
67.5500 267.0000 1.0000
67.5600 300.0000 1.0000
67.5700 283.0000 1.0000
67.5800 288.0000 1.0000
67.5900 269.0000 1.0000
67.6000 283.0000 1.0000
67.6100 266.0000 1.0000
67.6200 307.0000 1.0000
67.6300 294.0000 1.0000
67.6400 262.0000 1.0000
67.6500 278.0000 1.0000
67.6600 300.0000 1.0000
67.6700 265.0000 1.0000
67.6800 269.0000 1.0000
67.6900 279.0000 1.0000
67.7000 279.0000 1.0000
67.7100 291.0000 1.0000
67.7200 280.0000 1.0000
67.7300 313.0000 1.0000
67.7400 281.0000 1.0000
67.7500 273.0000 1.0000
67.7600 278.0000 1.0000
67.7700 289.0000 1.0000
67.7800 259.0000 1.0000
67.7900 273.0000 1.0000
67.8000 259.0000 1.0000
67.8100 277.0000 1.0000
67.8200 298.0000 1.0000
67.8300 257.0000 1.0000
67.8400 284.0000 1.0000
67.8500 289.0000 1.0000
67.8600 303.0000 1.0000
67.8700 279.0000 1.0000
67.8800 258.0000 1.0000
67.8900 261.0000 1.0000
67.9000 266.0000 1.0000
67.9100 268.0000 1.0000
67.9200 305.0000 1.0000
67.9300 278.0000 1.0000
67.9400 299.0000 1.0000
67.9500 280.0000 1.0000
67.9600 274.0000 1.0000
67.9700 305.0000 1.0000
67.9800 311.0000 1.0000
67.9900 272.0000 1.0000
68.0000 260.0000 1.0000
68.0100 256.0000 1.0000
68.0200 285.0000 1.0000
68.0300 251.0000 1.0000
68.0400 260.0000 1.0000
68.0500 286.0000 1.0000
68.0600 278.0000 1.0000
68.0700 286.0000 1.0000
68.0800 282.0000 1.0000
68.0900 262.0000 1.0000
68.1000 274.0000 1.0000
68.1100 255.0000 1.0000
68.1200 277.0000 1.0000
68.1300 302.0000 1.0000
68.1400 290.0000 1.0000
68.1500 276.0000 1.0000
68.1600 274.0000 1.0000
68.1700 259.0000 1.0000
68.1800 268.0000 1.0000
68.1900 273.0000 1.0000
68.2000 268.0000 1.0000
68.2100 270.0000 1.0000
68.2200 276.0000 1.0000
68.2300 262.0000 1.0000
68.2400 245.0000 1.0000
68.2500 235.0000 1.0000
68.2600 266.0000 1.0000
68.2700 291.0000 1.0000
68.2800 270.0000 1.0000
68.2900 270.0000 1.0000
68.3000 277.0000 1.0000
68.3100 259.0000 1.0000
68.3200 239.0000 1.0000
68.3300 287.0000 1.0000
68.3400 312.0000 1.0000
68.3500 247.0000 1.0000
68.3600 286.0000 1.0000
68.3700 281.0000 1.0000
68.3800 281.0000 1.0000
68.3900 280.0000 1.0000
68.4000 281.0000 1.0000
68.4100 276.0000 1.0000
68.4200 289.0000 1.0000
68.4300 264.0000 1.0000
68.4400 279.0000 1.0000
68.4500 284.0000 1.0000
68.4600 284.0000 1.0000
68.4700 277.0000 1.0000
68.4800 270.0000 1.0000
68.4900 273.0000 1.0000
68.5000 246.0000 1.0000
68.5100 278.0000 1.0000
68.5200 259.0000 1.0000
68.5300 248.0000 1.0000
68.5400 251.0000 1.0000
68.5500 278.0000 1.0000
68.5600 278.0000 1.0000
68.5700 277.0000 1.0000
68.5800 263.0000 1.0000
68.5900 231.0000 1.0000
68.6000 284.0000 1.0000
68.6100 266.0000 1.0000
68.6200 280.0000 1.0000
68.6300 242.0000 1.0000
68.6400 284.0000 1.0000
68.6500 276.0000 1.0000
68.6600 259.0000 1.0000
68.6700 270.0000 1.0000
68.6800 273.0000 1.0000
68.6900 246.0000 1.0000
68.7000 266.0000 1.0000
68.7100 273.0000 1.0000
68.7200 285.0000 1.0000
68.7300 269.0000 1.0000
68.7400 278.0000 1.0000
68.7500 280.0000 1.0000
68.7600 259.0000 1.0000
68.7700 263.0000 1.0000
68.7800 230.0000 1.0000
68.7900 263.0000 1.0000
68.8000 233.0000 1.0000
68.8100 249.0000 1.0000
68.8200 294.0000 1.0000
68.8300 260.0000 1.0000
68.8400 248.0000 1.0000
68.8500 242.0000 1.0000
68.8600 264.0000 1.0000
68.8700 275.0000 1.0000
68.8800 273.0000 1.0000
68.8900 275.0000 1.0000
68.9000 265.0000 1.0000
68.9100 267.0000 1.0000
68.9200 285.0000 1.0000
68.9300 248.0000 1.0000
68.9400 273.0000 1.0000
68.9500 245.0000 1.0000
68.9600 275.0000 1.0000
68.9700 273.0000 1.0000
68.9800 250.0000 1.0000
68.9900 291.0000 1.0000
69.0000 279.0000 1.0000
69.0100 226.0000 1.0000
69.0200 239.0000 1.0000
69.0300 250.0000 1.0000
69.0400 242.0000 1.0000
69.0500 255.0000 1.0000
69.0600 258.0000 1.0000
69.0700 258.0000 1.0000
69.0800 267.0000 1.0000
69.0900 267.0000 1.0000
69.1000 292.0000 1.0000
69.1100 291.0000 1.0000
69.1200 262.0000 1.0000
69.1300 265.0000 1.0000
69.1400 264.0000 1.0000
69.1500 269.0000 1.0000
69.1600 250.0000 1.0000
69.1700 253.0000 1.0000
69.1800 255.0000 1.0000
69.1900 273.0000 1.0000
69.2000 258.0000 1.0000
69.2100 265.0000 1.0000
69.2200 282.0000 1.0000
69.2300 269.0000 1.0000
69.2400 265.0000 1.0000
69.2500 237.0000 1.0000
69.2600 272.0000 1.0000
69.2700 261.0000 1.0000
69.2800 278.0000 1.0000
69.2900 245.0000 1.0000
69.3000 257.0000 1.0000
69.3100 251.0000 1.0000
69.3200 255.0000 1.0000
69.3300 270.0000 1.0000
69.3400 278.0000 1.0000
69.3500 261.0000 1.0000
69.3600 257.0000 1.0000
69.3700 271.0000 1.0000
69.3800 227.0000 1.0000
69.3900 258.0000 1.0000
69.4000 266.0000 1.0000
69.4100 271.0000 1.0000
69.4200 241.0000 1.0000
69.4300 278.0000 1.0000
69.4400 263.0000 1.0000
69.4500 259.0000 1.0000
69.4600 281.0000 1.0000
69.4700 241.0000 1.0000
69.4800 253.0000 1.0000
69.4900 273.0000 1.0000
69.5000 255.0000 1.0000
69.5100 257.0000 1.0000
69.5200 259.0000 1.0000
69.5300 270.0000 1.0000
69.5400 278.0000 1.0000
69.5500 266.0000 1.0000
69.5600 252.0000 1.0000
69.5700 244.0000 1.0000
69.5800 260.0000 1.0000
69.5900 285.0000 1.0000
69.6000 292.0000 1.0000
69.6100 283.0000 1.0000
69.6200 270.0000 1.0000
69.6300 284.0000 1.0000
69.6400 295.0000 1.0000
69.6500 284.0000 1.0000
69.6600 272.0000 1.0000
69.6700 256.0000 1.0000
69.6800 296.0000 1.0000
69.6900 269.0000 1.0000
69.7000 279.0000 1.0000
69.7100 263.0000 1.0000
69.7200 258.0000 1.0000
69.7300 243.0000 1.0000
69.7400 262.0000 1.0000
69.7500 282.0000 1.0000
69.7600 248.0000 1.0000
69.7700 274.0000 1.0000
69.7800 258.0000 1.0000
69.7900 243.0000 1.0000
69.8000 242.0000 1.0000
69.8100 262.0000 1.0000
69.8200 254.0000 1.0000
69.8300 276.0000 1.0000
69.8400 259.0000 1.0000
69.8500 260.0000 1.0000
69.8600 247.0000 1.0000
69.8700 265.0000 1.0000
69.8800 271.0000 1.0000
69.8900 268.0000 1.0000
69.9000 250.0000 1.0000
69.9100 255.0000 1.0000
69.9200 264.0000 1.0000
69.9300 248.0000 1.0000
69.9400 240.0000 1.0000
69.9500 254.0000 1.0000
69.9600 273.0000 1.0000
69.9700 279.0000 1.0000
69.9800 255.0000 1.0000
69.9900 279.0000 1.0000
70.0000 266.0000 1.0000
*RAS_INT_END
*RAS_TEMPERATURE_START
*RAS_TEMPERATURE_END
*RAS_DATA_END
