*RAS_DATA_START
*RAS_HEADER_START
*DISP_FMT_X "%.2f"
*DISP_FMT_Y "%.0f"
*DISP_FULLSCALE "20970.0000000000"
*DISP_LINE_COLOR "255.0000000000"
*DISP_LINE_STYLE "0.0000000000"
*DISP_LINE_WIDTH "0.2500000000"
*DISP_NOTE "測定データ-1"
*DISP_OFFSET_Y "0.0000000000"
*DISP_PEAKSEARCH_UNIT_Y "cps"
*DISP_RANGE_BOTTOM "0.0000000000"
*DISP_RANGE_LEFT "20.0000000000"
*DISP_RANGE_LOGCUTOFF "0.0100000000"
*DISP_RANGE_RIGHT "70.0000000000"
*DISP_RANGE_TOP "20970.0000000000"
*DISP_SCALE_MODE_Y "0.0000000000"
*DISP_TAB_NAME "2θ/θ"
*DISP_TITLE_Y "強度"
*DISP_UNIT_Y "cps"
*DISP_WINDOW_NAME "MSG_MACROENGINE"
*FILE_COMMENT " "
*FILE_MD5 ""
*FILE_MEMO " "
*FILE_OPERATOR "Administrator"
*FILE_SAMPLE " "
*FILE_TYPE "RAS_RAW"
*FILE_USERGROUP "システムマネージャ"
*FILE_VERSION "1.0000000000"
*HW_ATTACHMENT_ID "ATT0025"
*HW_ATTACHMENT_NAME "標準|Standard"
*HW_COUNTER_ID-0 "CUT0025"
*HW_COUNTER_ID-1 "CUT0020"
*HW_COUNTER_ID-2 "CUT0020"
*HW_COUNTER_ID-3 "CSL0021"
*HW_COUNTER_ID-4 "CMC0021"
*HW_COUNTER_NAME-0 "D/teX Ultra|D/teX Ultra"
*HW_COUNTER_NAME-1 "None|None"
*HW_COUNTER_NAME-2 "None|None"
*HW_COUNTER_NAME-3 "BBM|BBM"
*HW_COUNTER_NAME-4 "検出器モノクロメータ|Detector monochromator"
*HW_COUNTER_SELECT_NAME "D/teX Ultra|D/teX Ultra"
*HW_GONIOMETER_ID "GON0023"
*HW_GONIOMETER_NAME "SmartLab|SmartLab"
*HW_GONIOMETER_RADIUS-0 "90.0"
*HW_GONIOMETER_RADIUS-1 "114.0"
*HW_GONIOMETER_RADIUS-2 "190.0"
*HW_GONIOMETER_RADIUS-3 "300.0"
*HW_GONIOMETER_RADIUS-4 "187.0"
*HW_GONIOMETER_RADIUS-5 "300.0"
*HW_GONIOMETER_RADIUS-6 "113.0"
*HW_GONIOMETER_RADIUS-7 "331.0"
*HW_I_OPT_ID-0 "CBO0021"
*HW_I_OPT_ID-1 "ICR0023"
*HW_I_OPT_ID-2 "ISL0021"
*HW_I_OPT_ID-3 "ISO0021"
*HW_I_OPT_ID-4 "IAD0021"
*HW_I_OPT_ID-5 "IPR0001"
*HW_I_OPT_NAME-0 "CBOユニット|CBO unit"
*HW_I_OPT_NAME-1 "標準入射光学ユニット|Standard incident optical unit"
*HW_I_OPT_NAME-2 "標準入射スリットボックス|Standard incident slit box"
*HW_I_OPT_NAME-3 "入射平行スリット|Incident parallel slit"
*HW_I_OPT_NAME-4 "長手制限スリット|Length limiting slit"
*HW_I_OPT_NAME-5 "None|None"
*HW_R_ATTENUATER_AUTOMODE "0"
*HW_R_OPT_ID-0 "RSS0021"
*HW_R_OPT_ID-1 "RCR0023"
*HW_R_OPT_ID-2 "RSO0021"
*HW_R_OPT_ID-3 "RRS0021"
*HW_R_OPT_ID-4 "ATN0021"
*HW_R_OPT_ID-5 "RFL0021"
*HW_R_OPT_ID-6 "RAD0021"
*HW_R_OPT_NAME-0 "標準受光スリットボックス1|Standard receiving slit box # 1"
*HW_R_OPT_NAME-1 "標準受光光学ユニット1|Standard receiving unit # 1"
*HW_R_OPT_NAME-2 "標準受光光学ユニット2|Standard receiving optical unit # 2"
*HW_R_OPT_NAME-3 "標準受光スリットボックス2|Standard receiving slit box # 2"
*HW_R_OPT_NAME-4 "標準アッテネータ|Standard Attenuator"
*HW_R_OPT_NAME-5 "Cu Kβ|Cu K-beta"
*HW_R_OPT_NAME-6 "調整用受光スリット|Alignment receiving slit"
*HW_SAMPLE_HOLDER_ID "SMP0023"
*HW_SAMPLE_HOLDER_NAME "標準Zステージ|Standard Z stage"
*HW_XG_CURRENT_MAX "50"
*HW_XG_CURRENT_MIN "2"
*HW_XG_CURRENT_RESOLUTION "1"
*HW_XG_CURRENT_UNIT "mA"
*HW_XG_FOCUS "1mm x 10mm"
*HW_XG_FOCUS_TYPE "Normal"
*HW_XG_ID ""
*HW_XG_NAME "3kW 封入管(ID:1200)|3kW Sealed tube(ID:1200)"
*HW_XG_TARGET_ATOMIC_NUMBER "29.0000000000"
*HW_XG_TARGET_NAME "Cu"
*HW_XG_TYPE "Hermetic"
*HW_XG_VOLTAGE_MAX "60"
*HW_XG_VOLTAGE_MIN "20"
*HW_XG_VOLTAGE_RESOLUTION "1"
*HW_XG_VOLTAGE_UNIT "kV"
*HW_XG_WATT_MAX "1.500"
*HW_XG_WATT_UNIT "kW"
*HW_XG_WAVE_LENGTH_ALPHA1 "1.540593"
*HW_XG_WAVE_LENGTH_ALPHA2 "1.544414"
*HW_XG_WAVE_LENGTH_BETA "1.392250"
*MEAS_COND_AXIS_NAME-0 "2θ/θ"
*MEAS_COND_AXIS_NAME-1 "2θ"
*MEAS_COND_AXIS_NAME-2 "ω"
*MEAS_COND_AXIS_NAME-3 "Z"
*MEAS_COND_AXIS_NAME-4 "2θ/ω"
*MEAS_COND_AXIS_NAME-5 "θs"
*MEAS_COND_AXIS_NAME-6 "θd"
*MEAS_COND_AXIS_NAME-7 "Ts"
*MEAS_COND_AXIS_NAME-8 "CBO選択スリット"
*MEAS_COND_AXIS_NAME-9 "M"
*MEAS_COND_AXIS_NAME-10 "入射平行スリット"
*MEAS_COND_AXIS_NAME-11 "入射スリット"
*MEAS_COND_AXIS_NAME-12 ""
*MEAS_COND_AXIS_NAME-13 "Zs"
*MEAS_COND_AXIS_NAME-14 "入射光学素子"
*MEAS_COND_AXIS_NAME-15 "長手制限スリット"
*MEAS_COND_AXIS_NAME-16 "センタースリット"
*MEAS_COND_AXIS_NAME-17 "フィルター"
*MEAS_COND_AXIS_NAME-18 "受光スリット1"
*MEAS_COND_AXIS_NAME-19 "受光スリット2"
*MEAS_COND_AXIS_NAME-20 "受光光学素子"
*MEAS_COND_AXIS_NAME-21 "受光平行スリット"
*MEAS_COND_AXIS_NAME-22 "調整用受光スリット"
*MEAS_COND_AXIS_NAME-23 ""
*MEAS_COND_AXIS_NAME-24 ""
*MEAS_COND_AXIS_NAME-25 "Zd"
*MEAS_COND_AXIS_NAME-26 "アッテネータ"
*MEAS_COND_AXIS_NAME-27 "検出器モノクロメータ"
*MEAS_COND_AXIS_NAME-28 "モノクロメータスリット"
*MEAS_COND_AXIS_NAME-29 "プライマリビーム"
*MEAS_COND_AXIS_NAME-30 "PHA"
*MEAS_COND_AXIS_NAME_INTERNAL-0 "TwoThetaTheta"
*MEAS_COND_AXIS_NAME_INTERNAL-1 "TwoTheta"
*MEAS_COND_AXIS_NAME_INTERNAL-2 "Omega"
*MEAS_COND_AXIS_NAME_INTERNAL-3 "Z"
*MEAS_COND_AXIS_NAME_INTERNAL-4 "TwoThetaOmega"
*MEAS_COND_AXIS_NAME_INTERNAL-5 "ThetaS"
*MEAS_COND_AXIS_NAME_INTERNAL-6 "ThetaD"
*MEAS_COND_AXIS_NAME_INTERNAL-7 "Ts"
*MEAS_COND_AXIS_NAME_INTERNAL-8 "CBO"
*MEAS_COND_AXIS_NAME_INTERNAL-9 "CBO-M"
*MEAS_COND_AXIS_NAME_INTERNAL-10 "IncidentSollerSlit"
*MEAS_COND_AXIS_NAME_INTERNAL-11 "IncidentSlitBox"
*MEAS_COND_AXIS_NAME_INTERNAL-12 "IncidentSlitBox-_Axis"
*MEAS_COND_AXIS_NAME_INTERNAL-13 "Zs"
*MEAS_COND_AXIS_NAME_INTERNAL-14 "IncidentMonochromator"
*MEAS_COND_AXIS_NAME_INTERNAL-15 "IncidentAxdSlit"
*MEAS_COND_AXIS_NAME_INTERNAL-16 "CenterSlit"
*MEAS_COND_AXIS_NAME_INTERNAL-17 "Filter"
*MEAS_COND_AXIS_NAME_INTERNAL-18 "ReceivingSlitBox1"
*MEAS_COND_AXIS_NAME_INTERNAL-19 "ReceivingSlitBox2"
*MEAS_COND_AXIS_NAME_INTERNAL-20 "ReceivingOptics"
*MEAS_COND_AXIS_NAME_INTERNAL-21 "ReceivingSollerSlit"
*MEAS_COND_AXIS_NAME_INTERNAL-22 "ReceivingAxdSlit"
*MEAS_COND_AXIS_NAME_INTERNAL-23 "ReceivingSlitBox1-_Axis"
*MEAS_COND_AXIS_NAME_INTERNAL-24 "ReceivingSlitBox2-_Axis"
*MEAS_COND_AXIS_NAME_INTERNAL-25 "ReceivingSlitBox2-Zd"
*MEAS_COND_AXIS_NAME_INTERNAL-26 "Attenuator"
*MEAS_COND_AXIS_NAME_INTERNAL-27 "CounterMonochromator"
*MEAS_COND_AXIS_NAME_INTERNAL-28 "CounterSlit"
*MEAS_COND_AXIS_NAME_INTERNAL-29 "IncidentPrimary"
*MEAS_COND_AXIS_NAME_INTERNAL-30 "PHA"
*MEAS_COND_AXIS_NAME_MAGICNO-0 "83951616.0000000000"
*MEAS_COND_AXIS_NAME_MAGICNO-1 "268632064.0000000000"
*MEAS_COND_AXIS_NAME_MAGICNO-2 "268500992.0000000000"
*MEAS_COND_AXIS_NAME_MAGICNO-3 "285278208.0000000000"
*MEAS_COND_AXIS_NAME_MAGICNO-4 "83951616.0000000000"
*MEAS_COND_AXIS_NAME_MAGICNO-5 "131072.0000000000"
*MEAS_COND_AXIS_NAME_MAGICNO-6 "131072.0000000000"
*MEAS_COND_AXIS_NAME_MAGICNO-7 "318898176.0000000000"
*MEAS_COND_AXIS_NAME_MAGICNO-8 "20971521.0000000000"
*MEAS_COND_AXIS_NAME_MAGICNO-9 "285343744.0000000000"
*MEAS_COND_AXIS_NAME_MAGICNO-10 "20971521.0000000000"
*MEAS_COND_AXIS_NAME_MAGICNO-11 "22020097.0000000000"
*MEAS_COND_AXIS_NAME_MAGICNO-12 "25165824.0000000000"
*MEAS_COND_AXIS_NAME_MAGICNO-13 "318898176.0000000000"
*MEAS_COND_AXIS_NAME_MAGICNO-14 "1.0000000000"
*MEAS_COND_AXIS_NAME_MAGICNO-15 "20971521.0000000000"
*MEAS_COND_AXIS_NAME_MAGICNO-16 "20971521.0000000000"
*MEAS_COND_AXIS_NAME_MAGICNO-17 "20971521.0000000000"
*MEAS_COND_AXIS_NAME_MAGICNO-18 "23068673.0000000000"
*MEAS_COND_AXIS_NAME_MAGICNO-19 "23068673.0000000000"
*MEAS_COND_AXIS_NAME_MAGICNO-20 "20971521.0000000000"
*MEAS_COND_AXIS_NAME_MAGICNO-21 "20971521.0000000000"
*MEAS_COND_AXIS_NAME_MAGICNO-22 "20971521.0000000000"
*MEAS_COND_AXIS_NAME_MAGICNO-23 "25165824.0000000000"
*MEAS_COND_AXIS_NAME_MAGICNO-24 "25165824.0000000000"
*MEAS_COND_AXIS_NAME_MAGICNO-25 "285343744.0000000000"
*MEAS_COND_AXIS_NAME_MAGICNO-26 "17301505.0000000000"
*MEAS_COND_AXIS_NAME_MAGICNO-27 "20971521.0000000000"
*MEAS_COND_AXIS_NAME_MAGICNO-28 "20971521.0000000000"
*MEAS_COND_AXIS_NAME_MAGICNO-29 "20971521.0000000000"
*MEAS_COND_AXIS_NAME_MAGICNO-30 "0.0000000000"
*MEAS_COND_AXIS_OFFSET-0 "-"
*MEAS_COND_AXIS_OFFSET-1 "-0.0801000000"
*MEAS_COND_AXIS_OFFSET-2 "0.1646000000"
*MEAS_COND_AXIS_OFFSET-3 "-"
*MEAS_COND_AXIS_OFFSET-4 "-"
*MEAS_COND_AXIS_OFFSET-5 "0.1646000000"
*MEAS_COND_AXIS_OFFSET-6 "-0.2447000000"
*MEAS_COND_AXIS_OFFSET-7 "-"
*MEAS_COND_AXIS_OFFSET-8 "-"
*MEAS_COND_AXIS_OFFSET-9 "-"
*MEAS_COND_AXIS_OFFSET-10 "-"
*MEAS_COND_AXIS_OFFSET-11 "-"
*MEAS_COND_AXIS_OFFSET-12 "-"
*MEAS_COND_AXIS_OFFSET-13 "-"
*MEAS_COND_AXIS_OFFSET-14 "-"
*MEAS_COND_AXIS_OFFSET-15 "-"
*MEAS_COND_AXIS_OFFSET-16 "-"
*MEAS_COND_AXIS_OFFSET-17 "-"
*MEAS_COND_AXIS_OFFSET-18 "-"
*MEAS_COND_AXIS_OFFSET-19 "-"
*MEAS_COND_AXIS_OFFSET-20 "-"
*MEAS_COND_AXIS_OFFSET-21 "-"
*MEAS_COND_AXIS_OFFSET-22 "-"
*MEAS_COND_AXIS_OFFSET-23 "-"
*MEAS_COND_AXIS_OFFSET-24 "-"
*MEAS_COND_AXIS_OFFSET-25 "-"
*MEAS_COND_AXIS_OFFSET-26 "-"
*MEAS_COND_AXIS_OFFSET-27 "-"
*MEAS_COND_AXIS_OFFSET-28 "-"
*MEAS_COND_AXIS_OFFSET-29 "-"
*MEAS_COND_AXIS_OFFSET-30 "-"
*MEAS_COND_AXIS_POSITION-0 "0.0000000000"
*MEAS_COND_AXIS_POSITION-1 "0.0000000000"
*MEAS_COND_AXIS_POSITION-2 "0.0000000000"
*MEAS_COND_AXIS_POSITION-3 "-2.9256400000"
*MEAS_COND_AXIS_POSITION-4 "0.0000000000"
*MEAS_COND_AXIS_POSITION-5 "0.0000000000"
*MEAS_COND_AXIS_POSITION-6 "0.0000000000"
*MEAS_COND_AXIS_POSITION-7 "-0.4278800000"
*MEAS_COND_AXIS_POSITION-8 "BB"
*MEAS_COND_AXIS_POSITION-9 "0.0000000000"
*MEAS_COND_AXIS_POSITION-10 "Soller_slit_5.0deg"
*MEAS_COND_AXIS_POSITION-11 "2/3deg"
*MEAS_COND_AXIS_POSITION-12 "2.2088000000"
*MEAS_COND_AXIS_POSITION-13 "-1.0609400000"
*MEAS_COND_AXIS_POSITION-14 "0.0000000000"
*MEAS_COND_AXIS_POSITION-15 "10.0mm"
*MEAS_COND_AXIS_POSITION-16 "None"
*MEAS_COND_AXIS_POSITION-17 "Cu_K-beta"
*MEAS_COND_AXIS_POSITION-18 "13.000mm"
*MEAS_COND_AXIS_POSITION-19 "13.000mm"
*MEAS_COND_AXIS_POSITION-20 "No_unit"
*MEAS_COND_AXIS_POSITION-21 "Soller_slit_5.0deg"
*MEAS_COND_AXIS_POSITION-22 "None"
*MEAS_COND_AXIS_POSITION-23 "13.0000000000"
*MEAS_COND_AXIS_POSITION-24 "13.0000000000"
*MEAS_COND_AXIS_POSITION-25 "0.0081300000"
*MEAS_COND_AXIS_POSITION-26 "Open"
*MEAS_COND_AXIS_POSITION-27 "None"
*MEAS_COND_AXIS_POSITION-28 "None"
*MEAS_COND_AXIS_POSITION-29 "None"
*MEAS_COND_AXIS_POSITION-30 "38.0000000000"
*MEAS_COND_AXIS_UNIT-0 "deg"
*MEAS_COND_AXIS_UNIT-1 "deg"
*MEAS_COND_AXIS_UNIT-2 "deg"
*MEAS_COND_AXIS_UNIT-3 "mm"
*MEAS_COND_AXIS_UNIT-4 "deg"
*MEAS_COND_AXIS_UNIT-5 "deg"
*MEAS_COND_AXIS_UNIT-6 "deg"
*MEAS_COND_AXIS_UNIT-7 "mm"
*MEAS_COND_AXIS_UNIT-8 ""
*MEAS_COND_AXIS_UNIT-9 "pulse"
*MEAS_COND_AXIS_UNIT-10 ""
*MEAS_COND_AXIS_UNIT-11 ""
*MEAS_COND_AXIS_UNIT-12 "mm"
*MEAS_COND_AXIS_UNIT-13 "mm"
*MEAS_COND_AXIS_UNIT-14 ""
*MEAS_COND_AXIS_UNIT-15 ""
*MEAS_COND_AXIS_UNIT-16 ""
*MEAS_COND_AXIS_UNIT-17 ""
*MEAS_COND_AXIS_UNIT-18 ""
*MEAS_COND_AXIS_UNIT-19 ""
*MEAS_COND_AXIS_UNIT-20 ""
*MEAS_COND_AXIS_UNIT-21 ""
*MEAS_COND_AXIS_UNIT-22 ""
*MEAS_COND_AXIS_UNIT-23 "mm"
*MEAS_COND_AXIS_UNIT-24 "mm"
*MEAS_COND_AXIS_UNIT-25 "mm"
*MEAS_COND_AXIS_UNIT-26 ""
*MEAS_COND_AXIS_UNIT-27 ""
*MEAS_COND_AXIS_UNIT-28 ""
*MEAS_COND_AXIS_UNIT-29 ""
*MEAS_COND_AXIS_UNIT-30 "div"
*MEAS_COND_COUNTER_CNTLOSS_CORR "0.0000000000"
*MEAS_COND_COUNTER_PHABASE "38.0000000000"
*MEAS_COND_COUNTER_PHAWINDOW "16.0000000000"
*MEAS_COND_COUNTER_PHA_UNIT "div"
*MEAS_COND_COUNTER_TAUDIFF "30.0000000000"
*MEAS_COND_COUNTER_TAUINT "0.0000000000"
*MEAS_COND_IRRADIATION_MODE "OFF"
*MEAS_COND_IRRADIATION_WIDTH ""
*MEAS_COND_OPT_ATTR "集中法"
*MEAS_COND_OPT_NAME "@集中法"
*MEAS_COND_UNSYMMETRIC_MODE "OFF"
*MEAS_COND_XG_CURRENT "30.0000000000"
*MEAS_COND_XG_VOLTAGE "40.0000000000"
*MEAS_COND_XG_WAVE_TYPE "Ka"
*MEAS_DATA_COUNT "5001.0000000000"
*MEAS_SCAN_AXIS_X "2θ/θ"
*MEAS_SCAN_AXIS_X_INTERNAL "TwoThetaTheta"
*MEAS_SCAN_END_TIME "07/09/22 13:00:19"
*MEAS_SCAN_MODE "CONTINUOUS"
*MEAS_SCAN_MONITOR "0"
*MEAS_SCAN_RESOLUTION_X "0.0002"
*MEAS_SCAN_SPEED "2.5"
*MEAS_SCAN_SPEED_UNIT "deg/min"
*MEAS_SCAN_START "20.0000000000"
*MEAS_SCAN_START_TIME "07/09/22 12:38:55"
*MEAS_SCAN_STEP "0.0100000000"
*MEAS_SCAN_STOP "70.0000000000"
*MEAS_SCAN_UNIT_X "deg"
*MEAS_SCAN_UNIT_Y "counts"
*RAS_HEADER_END
*RAS_INT_START
20.0000 1101.0000 1.0000
20.0100 1138.0000 1.0000
20.0200 1057.0000 1.0000
20.0300 1063.0000 1.0000
20.0400 1062.0000 1.0000
20.0500 1061.0000 1.0000
20.0600 1073.0000 1.0000
20.0700 1054.0000 1.0000
20.0800 1097.0000 1.0000
20.0900 1110.0000 1.0000
20.1000 1086.0000 1.0000
20.1100 1103.0000 1.0000
20.1200 1062.0000 1.0000
20.1300 1100.0000 1.0000
20.1400 1083.0000 1.0000
20.1500 1066.0000 1.0000
20.1600 1092.0000 1.0000
20.1700 1135.0000 1.0000
20.1800 1068.0000 1.0000
20.1900 1104.0000 1.0000
20.2000 1063.0000 1.0000
20.2100 1076.0000 1.0000
20.2200 1122.0000 1.0000
20.2300 1105.0000 1.0000
20.2400 1077.0000 1.0000
20.2500 1075.0000 1.0000
20.2600 1071.0000 1.0000
20.2700 1109.0000 1.0000
20.2800 1139.0000 1.0000
20.2900 1058.0000 1.0000
20.3000 1116.0000 1.0000
20.3100 1069.0000 1.0000
20.3200 1031.0000 1.0000
20.3300 1096.0000 1.0000
20.3400 1082.0000 1.0000
20.3500 1061.0000 1.0000
20.3600 1067.0000 1.0000
20.3700 1049.0000 1.0000
20.3800 1049.0000 1.0000
20.3900 1054.0000 1.0000
20.4000 1102.0000 1.0000
20.4100 1060.0000 1.0000
20.4200 1103.0000 1.0000
20.4300 1125.0000 1.0000
20.4400 1070.0000 1.0000
20.4500 1158.0000 1.0000
20.4600 1090.0000 1.0000
20.4700 1006.0000 1.0000
20.4800 1092.0000 1.0000
20.4900 1048.0000 1.0000
20.5000 1073.0000 1.0000
20.5100 1105.0000 1.0000
20.5200 1092.0000 1.0000
20.5300 1074.0000 1.0000
20.5400 1054.0000 1.0000
20.5500 1075.0000 1.0000
20.5600 1061.0000 1.0000
20.5700 1103.0000 1.0000
20.5800 1137.0000 1.0000
20.5900 1076.0000 1.0000
20.6000 1037.0000 1.0000
20.6100 1085.0000 1.0000
20.6200 1089.0000 1.0000
20.6300 1088.0000 1.0000
20.6400 1076.0000 1.0000
20.6500 1067.0000 1.0000
20.6600 1097.0000 1.0000
20.6700 1080.0000 1.0000
20.6800 1158.0000 1.0000
20.6900 1106.0000 1.0000
20.7000 1098.0000 1.0000
20.7100 1114.0000 1.0000
20.7200 1108.0000 1.0000
20.7300 1077.0000 1.0000
20.7400 1083.0000 1.0000
20.7500 1098.0000 1.0000
20.7600 1070.0000 1.0000
20.7700 1106.0000 1.0000
20.7800 1058.0000 1.0000
20.7900 1094.0000 1.0000
20.8000 1144.0000 1.0000
20.8100 1108.0000 1.0000
20.8200 1069.0000 1.0000
20.8300 1107.0000 1.0000
20.8400 1039.0000 1.0000
20.8500 1086.0000 1.0000
20.8600 1081.0000 1.0000
20.8700 1096.0000 1.0000
20.8800 1101.0000 1.0000
20.8900 1080.0000 1.0000
20.9000 1110.0000 1.0000
20.9100 1059.0000 1.0000
20.9200 1058.0000 1.0000
20.9300 1100.0000 1.0000
20.9400 1090.0000 1.0000
20.9500 1096.0000 1.0000
20.9600 1116.0000 1.0000
20.9700 1088.0000 1.0000
20.9800 1053.0000 1.0000
20.9900 1135.0000 1.0000
21.0000 1092.0000 1.0000
21.0100 1099.0000 1.0000
21.0200 1085.0000 1.0000
21.0300 1121.0000 1.0000
21.0400 1103.0000 1.0000
21.0500 1096.0000 1.0000
21.0600 1112.0000 1.0000
21.0700 1085.0000 1.0000
21.0800 1046.0000 1.0000
21.0900 1077.0000 1.0000
21.1000 1096.0000 1.0000
21.1100 1116.0000 1.0000
21.1200 1103.0000 1.0000
21.1300 1120.0000 1.0000
21.1400 1103.0000 1.0000
21.1500 1090.0000 1.0000
21.1600 1045.0000 1.0000
21.1700 1075.0000 1.0000
21.1800 1074.0000 1.0000
21.1900 1047.0000 1.0000
21.2000 1090.0000 1.0000
21.2100 1068.0000 1.0000
21.2200 1154.0000 1.0000
21.2300 1143.0000 1.0000
21.2400 1105.0000 1.0000
21.2500 1071.0000 1.0000
21.2600 1095.0000 1.0000
21.2700 1084.0000 1.0000
21.2800 1136.0000 1.0000
21.2900 1058.0000 1.0000
21.3000 1126.0000 1.0000
21.3100 1105.0000 1.0000
21.3200 1115.0000 1.0000
21.3300 1057.0000 1.0000
21.3400 1065.0000 1.0000
21.3500 1085.0000 1.0000
21.3600 1022.0000 1.0000
21.3700 1024.0000 1.0000
21.3800 1060.0000 1.0000
21.3900 1081.0000 1.0000
21.4000 1095.0000 1.0000
21.4100 1073.0000 1.0000
21.4200 1056.0000 1.0000
21.4300 1072.0000 1.0000
21.4400 1089.0000 1.0000
21.4500 1071.0000 1.0000
21.4600 1127.0000 1.0000
21.4700 1076.0000 1.0000
21.4800 1096.0000 1.0000
21.4900 1084.0000 1.0000
21.5000 1107.0000 1.0000
21.5100 1047.0000 1.0000
21.5200 1057.0000 1.0000
21.5300 1104.0000 1.0000
21.5400 1081.0000 1.0000
21.5500 1139.0000 1.0000
21.5600 1105.0000 1.0000
21.5700 1060.0000 1.0000
21.5800 1050.0000 1.0000
21.5900 1124.0000 1.0000
21.6000 1103.0000 1.0000
21.6100 1094.0000 1.0000
21.6200 1087.0000 1.0000
21.6300 1092.0000 1.0000
21.6400 1089.0000 1.0000
21.6500 1108.0000 1.0000
21.6600 1087.0000 1.0000
21.6700 1057.0000 1.0000
21.6800 1106.0000 1.0000
21.6900 1096.0000 1.0000
21.7000 1094.0000 1.0000
21.7100 1094.0000 1.0000
21.7200 1096.0000 1.0000
21.7300 1062.0000 1.0000
21.7400 1066.0000 1.0000
21.7500 1101.0000 1.0000
21.7600 1078.0000 1.0000
21.7700 1059.0000 1.0000
21.7800 1053.0000 1.0000
21.7900 1041.0000 1.0000
21.8000 1100.0000 1.0000
21.8100 1103.0000 1.0000
21.8200 1082.0000 1.0000
21.8300 1112.0000 1.0000
21.8400 1069.0000 1.0000
21.8500 1135.0000 1.0000
21.8600 1174.0000 1.0000
21.8700 1093.0000 1.0000
21.8800 1023.0000 1.0000
21.8900 1119.0000 1.0000
21.9000 1064.0000 1.0000
21.9100 1094.0000 1.0000
21.9200 1060.0000 1.0000
21.9300 1087.0000 1.0000
21.9400 1109.0000 1.0000
21.9500 1069.0000 1.0000
21.9600 1094.0000 1.0000
21.9700 1089.0000 1.0000
21.9800 1060.0000 1.0000
21.9900 1094.0000 1.0000
22.0000 1122.0000 1.0000
22.0100 1091.0000 1.0000
22.0200 1066.0000 1.0000
22.0300 1065.0000 1.0000
22.0400 1063.0000 1.0000
22.0500 1097.0000 1.0000
22.0600 1083.0000 1.0000
22.0700 1101.0000 1.0000
22.0800 1099.0000 1.0000
22.0900 1095.0000 1.0000
22.1000 1106.0000 1.0000
22.1100 1069.0000 1.0000
22.1200 1079.0000 1.0000
22.1300 1050.0000 1.0000
22.1400 1079.0000 1.0000
22.1500 1089.0000 1.0000
22.1600 1125.0000 1.0000
22.1700 1064.0000 1.0000
22.1800 1116.0000 1.0000
22.1900 1119.0000 1.0000
22.2000 1084.0000 1.0000
22.2100 1098.0000 1.0000
22.2200 1123.0000 1.0000
22.2300 1084.0000 1.0000
22.2400 1079.0000 1.0000
22.2500 1079.0000 1.0000
22.2600 1076.0000 1.0000
22.2700 1101.0000 1.0000
22.2800 1067.0000 1.0000
22.2900 1096.0000 1.0000
22.3000 1104.0000 1.0000
22.3100 1090.0000 1.0000
22.3200 1073.0000 1.0000
22.3300 1076.0000 1.0000
22.3400 1078.0000 1.0000
22.3500 1087.0000 1.0000
22.3600 1053.0000 1.0000
22.3700 1086.0000 1.0000
22.3800 1110.0000 1.0000
22.3900 1093.0000 1.0000
22.4000 1110.0000 1.0000
22.4100 1151.0000 1.0000
22.4200 1087.0000 1.0000
22.4300 1056.0000 1.0000
22.4400 1076.0000 1.0000
22.4500 1105.0000 1.0000
22.4600 1092.0000 1.0000
22.4700 1115.0000 1.0000
22.4800 1126.0000 1.0000
22.4900 1060.0000 1.0000
22.5000 1107.0000 1.0000
22.5100 1022.0000 1.0000
22.5200 1098.0000 1.0000
22.5300 1083.0000 1.0000
22.5400 1028.0000 1.0000
22.5500 1061.0000 1.0000
22.5600 1053.0000 1.0000
22.5700 1062.0000 1.0000
22.5800 1000.0000 1.0000
22.5900 1078.0000 1.0000
22.6000 1132.0000 1.0000
22.6100 1103.0000 1.0000
22.6200 1056.0000 1.0000
22.6300 1043.0000 1.0000
22.6400 1045.0000 1.0000
22.6500 1078.0000 1.0000
22.6600 1093.0000 1.0000
22.6700 1071.0000 1.0000
22.6800 1041.0000 1.0000
22.6900 1044.0000 1.0000
22.7000 1039.0000 1.0000
22.7100 1025.0000 1.0000
22.7200 1083.0000 1.0000
22.7300 1062.0000 1.0000
22.7400 1038.0000 1.0000
22.7500 1028.0000 1.0000
22.7600 1048.0000 1.0000
22.7700 1056.0000 1.0000
22.7800 1076.0000 1.0000
22.7900 1052.0000 1.0000
22.8000 1092.0000 1.0000
22.8100 1078.0000 1.0000
22.8200 1104.0000 1.0000
22.8300 1100.0000 1.0000
22.8400 1063.0000 1.0000
22.8500 1013.0000 1.0000
22.8600 1086.0000 1.0000
22.8700 1046.0000 1.0000
22.8800 1100.0000 1.0000
22.8900 1081.0000 1.0000
22.9000 1006.0000 1.0000
22.9100 1031.0000 1.0000
22.9200 1079.0000 1.0000
22.9300 1122.0000 1.0000
22.9400 1098.0000 1.0000
22.9500 1102.0000 1.0000
22.9600 1103.0000 1.0000
22.9700 1079.0000 1.0000
22.9800 1077.0000 1.0000
22.9900 1105.0000 1.0000
23.0000 1075.0000 1.0000
23.0100 1072.0000 1.0000
23.0200 1105.0000 1.0000
23.0300 1102.0000 1.0000
23.0400 1050.0000 1.0000
23.0500 1035.0000 1.0000
23.0600 1026.0000 1.0000
23.0700 1060.0000 1.0000
23.0800 1091.0000 1.0000
23.0900 1073.0000 1.0000
23.1000 1062.0000 1.0000
23.1100 1056.0000 1.0000
23.1200 1060.0000 1.0000
23.1300 1028.0000 1.0000
23.1400 1071.0000 1.0000
23.1500 1114.0000 1.0000
23.1600 1063.0000 1.0000
23.1700 1102.0000 1.0000
23.1800 1089.0000 1.0000
23.1900 1055.0000 1.0000
23.2000 1067.0000 1.0000
23.2100 1045.0000 1.0000
23.2200 1061.0000 1.0000
23.2300 1068.0000 1.0000
23.2400 1044.0000 1.0000
23.2500 1066.0000 1.0000
23.2600 1024.0000 1.0000
23.2700 1054.0000 1.0000
23.2800 1094.0000 1.0000
23.2900 1057.0000 1.0000
23.3000 1035.0000 1.0000
23.3100 1023.0000 1.0000
23.3200 1071.0000 1.0000
23.3300 1045.0000 1.0000
23.3400 1046.0000 1.0000
23.3500 1024.0000 1.0000
23.3600 1073.0000 1.0000
23.3700 1044.0000 1.0000
23.3800 1031.0000 1.0000
23.3900 1051.0000 1.0000
23.4000 1051.0000 1.0000
23.4100 1065.0000 1.0000
23.4200 1052.0000 1.0000
23.4300 1069.0000 1.0000
23.4400 1077.0000 1.0000
23.4500 1034.0000 1.0000
23.4600 1003.0000 1.0000
23.4700 1010.0000 1.0000
23.4800 1021.0000 1.0000
23.4900 1055.0000 1.0000
23.5000 1108.0000 1.0000
23.5100 1066.0000 1.0000
23.5200 1060.0000 1.0000
23.5300 1033.0000 1.0000
23.5400 1068.0000 1.0000
23.5500 1057.0000 1.0000
23.5600 1062.0000 1.0000
23.5700 1102.0000 1.0000
23.5800 1021.0000 1.0000
23.5900 1015.0000 1.0000
23.6000 1048.0000 1.0000
23.6100 1029.0000 1.0000
23.6200 1064.0000 1.0000
23.6300 1084.0000 1.0000
23.6400 1076.0000 1.0000
23.6500 1052.0000 1.0000
23.6600 1060.0000 1.0000
23.6700 1035.0000 1.0000
23.6800 1096.0000 1.0000
23.6900 1109.0000 1.0000
23.7000 1060.0000 1.0000
23.7100 1076.0000 1.0000
23.7200 1094.0000 1.0000
23.7300 1086.0000 1.0000
23.7400 1082.0000 1.0000
23.7500 1025.0000 1.0000
23.7600 1067.0000 1.0000
23.7700 1097.0000 1.0000
23.7800 1098.0000 1.0000
23.7900 1096.0000 1.0000
23.8000 1059.0000 1.0000
23.8100 1073.0000 1.0000
23.8200 1062.0000 1.0000
23.8300 1108.0000 1.0000
23.8400 1110.0000 1.0000
23.8500 1097.0000 1.0000
23.8600 1083.0000 1.0000
23.8700 1109.0000 1.0000
23.8800 1085.0000 1.0000
23.8900 1117.0000 1.0000
23.9000 1084.0000 1.0000
23.9100 1119.0000 1.0000
23.9200 1149.0000 1.0000
23.9300 1058.0000 1.0000
23.9400 1056.0000 1.0000
23.9500 1124.0000 1.0000
23.9600 1122.0000 1.0000
23.9700 1088.0000 1.0000
23.9800 1131.0000 1.0000
23.9900 1157.0000 1.0000
24.0000 1143.0000 1.0000
24.0100 1127.0000 1.0000
24.0200 1136.0000 1.0000
24.0300 1200.0000 1.0000
24.0400 1132.0000 1.0000
24.0500 1144.0000 1.0000
24.0600 1162.0000 1.0000
24.0700 1188.0000 1.0000
24.0800 1200.0000 1.0000
24.0900 1187.0000 1.0000
24.1000 1130.0000 1.0000
24.1100 1155.0000 1.0000
24.1200 1187.0000 1.0000
24.1300 1168.0000 1.0000
24.1400 1198.0000 1.0000
24.1500 1172.0000 1.0000
24.1600 1153.0000 1.0000
24.1700 1186.0000 1.0000
24.1800 1144.0000 1.0000
24.1900 1081.0000 1.0000
24.2000 1116.0000 1.0000
24.2100 1076.0000 1.0000
24.2200 1135.0000 1.0000
24.2300 1073.0000 1.0000
24.2400 1097.0000 1.0000
24.2500 1119.0000 1.0000
24.2600 1083.0000 1.0000
24.2700 1107.0000 1.0000
24.2800 1119.0000 1.0000
24.2900 1082.0000 1.0000
24.3000 1088.0000 1.0000
24.3100 1069.0000 1.0000
24.3200 1100.0000 1.0000
24.3300 1058.0000 1.0000
24.3400 1081.0000 1.0000
24.3500 1063.0000 1.0000
24.3600 1073.0000 1.0000
24.3700 1096.0000 1.0000
24.3800 1151.0000 1.0000
24.3900 1035.0000 1.0000
24.4000 1123.0000 1.0000
24.4100 1028.0000 1.0000
24.4200 1095.0000 1.0000
24.4300 1073.0000 1.0000
24.4400 1118.0000 1.0000
24.4500 1113.0000 1.0000
24.4600 1034.0000 1.0000
24.4700 1046.0000 1.0000
24.4800 1045.0000 1.0000
24.4900 1053.0000 1.0000
24.5000 1054.0000 1.0000
24.5100 1114.0000 1.0000
24.5200 1021.0000 1.0000
24.5300 1021.0000 1.0000
24.5400 1035.0000 1.0000
24.5500 1035.0000 1.0000
24.5600 1060.0000 1.0000
24.5700 1066.0000 1.0000
24.5800 1043.0000 1.0000
24.5900 1059.0000 1.0000
24.6000 1039.0000 1.0000
24.6100 1057.0000 1.0000
24.6200 1079.0000 1.0000
24.6300 1037.0000 1.0000
24.6400 1081.0000 1.0000
24.6500 1035.0000 1.0000
24.6600 1019.0000 1.0000
24.6700 1021.0000 1.0000
24.6800 1075.0000 1.0000
24.6900 1023.0000 1.0000
24.7000 1045.0000 1.0000
24.7100 1022.0000 1.0000
24.7200 1017.0000 1.0000
24.7300 1035.0000 1.0000
24.7400 1035.0000 1.0000
24.7500 990.0000 1.0000
24.7600 1064.0000 1.0000
24.7700 1067.0000 1.0000
24.7800 1055.0000 1.0000
24.7900 995.0000 1.0000
24.8000 1012.0000 1.0000
24.8100 1075.0000 1.0000
24.8200 1073.0000 1.0000
24.8300 1027.0000 1.0000
24.8400 1013.0000 1.0000
24.8500 1051.0000 1.0000
24.8600 1016.0000 1.0000
24.8700 1039.0000 1.0000
24.8800 1027.0000 1.0000
24.8900 1053.0000 1.0000
24.9000 1016.0000 1.0000
24.9100 1024.0000 1.0000
24.9200 1043.0000 1.0000
24.9300 1054.0000 1.0000
24.9400 1023.0000 1.0000
24.9500 994.0000 1.0000
24.9600 1022.0000 1.0000
24.9700 1025.0000 1.0000
24.9800 1054.0000 1.0000
24.9900 1097.0000 1.0000
25.0000 1071.0000 1.0000
25.0100 1036.0000 1.0000
25.0200 1034.0000 1.0000
25.0300 1047.0000 1.0000
25.0400 1056.0000 1.0000
25.0500 1065.0000 1.0000
25.0600 1059.0000 1.0000
25.0700 1059.0000 1.0000
25.0800 1065.0000 1.0000
25.0900 997.0000 1.0000
25.1000 1027.0000 1.0000
25.1100 1029.0000 1.0000
25.1200 1054.0000 1.0000
25.1300 1038.0000 1.0000
25.1400 1024.0000 1.0000
25.1500 1032.0000 1.0000
25.1600 1042.0000 1.0000
25.1700 1006.0000 1.0000
25.1800 1063.0000 1.0000
25.1900 1043.0000 1.0000
25.2000 1062.0000 1.0000
25.2100 1020.0000 1.0000
25.2200 1032.0000 1.0000
25.2300 1043.0000 1.0000
25.2400 1118.0000 1.0000
25.2500 1055.0000 1.0000
25.2600 1086.0000 1.0000
25.2700 1070.0000 1.0000
25.2800 1039.0000 1.0000
25.2900 1022.0000 1.0000
25.3000 1065.0000 1.0000
25.3100 1025.0000 1.0000
25.3200 1010.0000 1.0000
25.3300 989.0000 1.0000
25.3400 1044.0000 1.0000
25.3500 1030.0000 1.0000
25.3600 1015.0000 1.0000
25.3700 1059.0000 1.0000
25.3800 1037.0000 1.0000
25.3900 1039.0000 1.0000
25.4000 1018.0000 1.0000
25.4100 1033.0000 1.0000
25.4200 1055.0000 1.0000
25.4300 1007.0000 1.0000
25.4400 1065.0000 1.0000
25.4500 1056.0000 1.0000
25.4600 1013.0000 1.0000
25.4700 1046.0000 1.0000
25.4800 1106.0000 1.0000
25.4900 1022.0000 1.0000
25.5000 977.0000 1.0000
25.5100 1013.0000 1.0000
25.5200 1052.0000 1.0000
25.5300 1021.0000 1.0000
25.5400 1054.0000 1.0000
25.5500 1071.0000 1.0000
25.5600 1033.0000 1.0000
25.5700 1005.0000 1.0000
25.5800 1056.0000 1.0000
25.5900 1047.0000 1.0000
25.6000 1035.0000 1.0000
25.6100 1086.0000 1.0000
25.6200 1000.0000 1.0000
25.6300 1062.0000 1.0000
25.6400 1049.0000 1.0000
25.6500 1029.0000 1.0000
25.6600 1022.0000 1.0000
25.6700 1092.0000 1.0000
25.6800 1078.0000 1.0000
25.6900 1023.0000 1.0000
25.7000 1092.0000 1.0000
25.7100 1114.0000 1.0000
25.7200 1038.0000 1.0000
25.7300 1064.0000 1.0000
25.7400 1015.0000 1.0000
25.7500 1032.0000 1.0000
25.7600 1073.0000 1.0000
25.7700 1063.0000 1.0000
25.7800 1068.0000 1.0000
25.7900 1065.0000 1.0000
25.8000 1066.0000 1.0000
25.8100 1084.0000 1.0000
25.8200 1134.0000 1.0000
25.8300 1135.0000 1.0000
25.8400 1026.0000 1.0000
25.8500 1087.0000 1.0000
25.8600 1090.0000 1.0000
25.8700 1116.0000 1.0000
25.8800 1096.0000 1.0000
25.8900 1086.0000 1.0000
25.9000 1051.0000 1.0000
25.9100 1059.0000 1.0000
25.9200 1076.0000 1.0000
25.9300 1102.0000 1.0000
25.9400 1056.0000 1.0000
25.9500 1122.0000 1.0000
25.9600 1093.0000 1.0000
25.9700 1119.0000 1.0000
25.9800 1158.0000 1.0000
25.9900 1104.0000 1.0000
26.0000 1140.0000 1.0000
26.0100 1159.0000 1.0000
26.0200 1140.0000 1.0000
26.0300 1207.0000 1.0000
26.0400 1207.0000 1.0000
26.0500 1181.0000 1.0000
26.0600 1179.0000 1.0000
26.0700 1179.0000 1.0000
26.0800 1230.0000 1.0000
26.0900 1234.0000 1.0000
26.1000 1224.0000 1.0000
26.1100 1194.0000 1.0000
26.1200 1286.0000 1.0000
26.1300 1324.0000 1.0000
26.1400 1285.0000 1.0000
26.1500 1305.0000 1.0000
26.1600 1333.0000 1.0000
26.1700 1355.0000 1.0000
26.1800 1401.0000 1.0000
26.1900 1436.0000 1.0000
26.2000 1481.0000 1.0000
26.2100 1477.0000 1.0000
26.2200 1631.0000 1.0000
26.2300 1571.0000 1.0000
26.2400 1639.0000 1.0000
26.2500 1697.0000 1.0000
26.2600 1711.0000 1.0000
26.2700 1843.0000 1.0000
26.2800 1957.0000 1.0000
26.2900 2041.0000 1.0000
26.3000 2066.0000 1.0000
26.3100 2176.0000 1.0000
26.3200 2388.0000 1.0000
26.3300 2455.0000 1.0000
26.3400 2691.0000 1.0000
26.3500 2822.0000 1.0000
26.3600 2975.0000 1.0000
26.3700 3103.0000 1.0000
26.3800 3253.0000 1.0000
26.3900 3462.0000 1.0000
26.4000 3668.0000 1.0000
26.4100 3790.0000 1.0000
26.4200 3893.0000 1.0000
26.4300 3998.0000 1.0000
26.4400 4194.0000 1.0000
26.4500 4063.0000 1.0000
26.4600 3835.0000 1.0000
26.4700 3877.0000 1.0000
26.4800 3802.0000 1.0000
26.4900 3556.0000 1.0000
26.5000 3541.0000 1.0000
26.5100 3374.0000 1.0000
26.5200 3163.0000 1.0000
26.5300 3031.0000 1.0000
26.5400 2853.0000 1.0000
26.5500 2627.0000 1.0000
26.5600 2557.0000 1.0000
26.5700 2401.0000 1.0000
26.5800 2214.0000 1.0000
26.5900 2126.0000 1.0000
26.6000 2011.0000 1.0000
26.6100 1935.0000 1.0000
26.6200 1802.0000 1.0000
26.6300 1778.0000 1.0000
26.6400 1775.0000 1.0000
26.6500 1598.0000 1.0000
26.6600 1599.0000 1.0000
26.6700 1558.0000 1.0000
26.6800 1538.0000 1.0000
26.6900 1419.0000 1.0000
26.7000 1350.0000 1.0000
26.7100 1377.0000 1.0000
26.7200 1350.0000 1.0000
26.7300 1374.0000 1.0000
26.7400 1335.0000 1.0000
26.7500 1282.0000 1.0000
26.7600 1279.0000 1.0000
26.7700 1258.0000 1.0000
26.7800 1245.0000 1.0000
26.7900 1173.0000 1.0000
26.8000 1204.0000 1.0000
26.8100 1217.0000 1.0000
26.8200 1185.0000 1.0000
26.8300 1197.0000 1.0000
26.8400 1175.0000 1.0000
26.8500 1176.0000 1.0000
26.8600 1165.0000 1.0000
26.8700 1190.0000 1.0000
26.8800 1122.0000 1.0000
26.8900 1112.0000 1.0000
26.9000 1103.0000 1.0000
26.9100 1101.0000 1.0000
26.9200 1118.0000 1.0000
26.9300 1118.0000 1.0000
26.9400 1089.0000 1.0000
26.9500 1082.0000 1.0000
26.9600 1081.0000 1.0000
26.9700 1072.0000 1.0000
26.9800 1072.0000 1.0000
26.9900 1094.0000 1.0000
27.0000 1090.0000 1.0000
27.0100 1086.0000 1.0000
27.0200 1045.0000 1.0000
27.0300 1083.0000 1.0000
27.0400 1050.0000 1.0000
27.0500 1070.0000 1.0000
27.0600 1031.0000 1.0000
27.0700 1043.0000 1.0000
27.0800 980.0000 1.0000
27.0900 1062.0000 1.0000
27.1000 1047.0000 1.0000
27.1100 1020.0000 1.0000
27.1200 1039.0000 1.0000
27.1300 1055.0000 1.0000
27.1400 1011.0000 1.0000
27.1500 953.0000 1.0000
27.1600 1036.0000 1.0000
27.1700 1041.0000 1.0000
27.1800 1050.0000 1.0000
27.1900 963.0000 1.0000
27.2000 1015.0000 1.0000
27.2100 988.0000 1.0000
27.2200 1011.0000 1.0000
27.2300 984.0000 1.0000
27.2400 1005.0000 1.0000
27.2500 1020.0000 1.0000
27.2600 1035.0000 1.0000
27.2700 969.0000 1.0000
27.2800 944.0000 1.0000
27.2900 962.0000 1.0000
27.3000 1007.0000 1.0000
27.3100 995.0000 1.0000
27.3200 955.0000 1.0000
27.3300 978.0000 1.0000
27.3400 988.0000 1.0000
27.3500 1001.0000 1.0000
27.3600 981.0000 1.0000
27.3700 923.0000 1.0000
27.3800 1040.0000 1.0000
27.3900 1048.0000 1.0000
27.4000 993.0000 1.0000
27.4100 975.0000 1.0000
27.4200 971.0000 1.0000
27.4300 963.0000 1.0000
27.4400 972.0000 1.0000
27.4500 1014.0000 1.0000
27.4600 942.0000 1.0000
27.4700 981.0000 1.0000
27.4800 982.0000 1.0000
27.4900 990.0000 1.0000
27.5000 950.0000 1.0000
27.5100 969.0000 1.0000
27.5200 991.0000 1.0000
27.5300 974.0000 1.0000
27.5400 1031.0000 1.0000
27.5500 968.0000 1.0000
27.5600 941.0000 1.0000
27.5700 975.0000 1.0000
27.5800 962.0000 1.0000
27.5900 943.0000 1.0000
27.6000 954.0000 1.0000
27.6100 933.0000 1.0000
27.6200 960.0000 1.0000
27.6300 976.0000 1.0000
27.6400 991.0000 1.0000
27.6500 948.0000 1.0000
27.6600 930.0000 1.0000
27.6700 967.0000 1.0000
27.6800 987.0000 1.0000
27.6900 974.0000 1.0000
27.7000 992.0000 1.0000
27.7100 1005.0000 1.0000
27.7200 982.0000 1.0000
27.7300 893.0000 1.0000
27.7400 976.0000 1.0000
27.7500 1000.0000 1.0000
27.7600 1019.0000 1.0000
27.7700 956.0000 1.0000
27.7800 967.0000 1.0000
27.7900 897.0000 1.0000
27.8000 970.0000 1.0000
27.8100 961.0000 1.0000
27.8200 963.0000 1.0000
27.8300 1030.0000 1.0000
27.8400 972.0000 1.0000
27.8500 940.0000 1.0000
27.8600 947.0000 1.0000
27.8700 983.0000 1.0000
27.8800 969.0000 1.0000
27.8900 962.0000 1.0000
27.9000 936.0000 1.0000
27.9100 978.0000 1.0000
27.9200 906.0000 1.0000
27.9300 897.0000 1.0000
27.9400 976.0000 1.0000
27.9500 930.0000 1.0000
27.9600 1037.0000 1.0000
27.9700 973.0000 1.0000
27.9800 940.0000 1.0000
27.9900 936.0000 1.0000
28.0000 938.0000 1.0000
28.0100 1005.0000 1.0000
28.0200 974.0000 1.0000
28.0300 964.0000 1.0000
28.0400 947.0000 1.0000
28.0500 980.0000 1.0000
28.0600 941.0000 1.0000
28.0700 964.0000 1.0000
28.0800 925.0000 1.0000
28.0900 899.0000 1.0000
28.1000 953.0000 1.0000
28.1100 911.0000 1.0000
28.1200 920.0000 1.0000
28.1300 938.0000 1.0000
28.1400 1029.0000 1.0000
28.1500 962.0000 1.0000
28.1600 923.0000 1.0000
28.1700 938.0000 1.0000
28.1800 987.0000 1.0000
28.1900 918.0000 1.0000
28.2000 953.0000 1.0000
28.2100 987.0000 1.0000
28.2200 972.0000 1.0000
28.2300 925.0000 1.0000
28.2400 940.0000 1.0000
28.2500 911.0000 1.0000
28.2600 940.0000 1.0000
28.2700 961.0000 1.0000
28.2800 946.0000 1.0000
28.2900 900.0000 1.0000
28.3000 942.0000 1.0000
28.3100 915.0000 1.0000
28.3200 933.0000 1.0000
28.3300 877.0000 1.0000
28.3400 930.0000 1.0000
28.3500 944.0000 1.0000
28.3600 881.0000 1.0000
28.3700 983.0000 1.0000
28.3800 930.0000 1.0000
28.3900 886.0000 1.0000
28.4000 871.0000 1.0000
28.4100 927.0000 1.0000
28.4200 924.0000 1.0000
28.4300 956.0000 1.0000
28.4400 959.0000 1.0000
28.4500 913.0000 1.0000
28.4600 894.0000 1.0000
28.4700 858.0000 1.0000
28.4800 887.0000 1.0000
28.4900 872.0000 1.0000
28.5000 902.0000 1.0000
28.5100 907.0000 1.0000
28.5200 918.0000 1.0000
28.5300 914.0000 1.0000
28.5400 956.0000 1.0000
28.5500 926.0000 1.0000
28.5600 864.0000 1.0000
28.5700 942.0000 1.0000
28.5800 963.0000 1.0000
28.5900 939.0000 1.0000
28.6000 941.0000 1.0000
28.6100 901.0000 1.0000
28.6200 889.0000 1.0000
28.6300 931.0000 1.0000
28.6400 933.0000 1.0000
28.6500 924.0000 1.0000
28.6600 899.0000 1.0000
28.6700 875.0000 1.0000
28.6800 939.0000 1.0000
28.6900 911.0000 1.0000
28.7000 862.0000 1.0000
28.7100 930.0000 1.0000
28.7200 933.0000 1.0000
28.7300 890.0000 1.0000
28.7400 903.0000 1.0000
28.7500 864.0000 1.0000
28.7600 910.0000 1.0000
28.7700 914.0000 1.0000
28.7800 906.0000 1.0000
28.7900 892.0000 1.0000
28.8000 924.0000 1.0000
28.8100 880.0000 1.0000
28.8200 886.0000 1.0000
28.8300 877.0000 1.0000
28.8400 884.0000 1.0000
28.8500 899.0000 1.0000
28.8600 914.0000 1.0000
28.8700 939.0000 1.0000
28.8800 896.0000 1.0000
28.8900 895.0000 1.0000
28.9000 881.0000 1.0000
28.9100 865.0000 1.0000
28.9200 886.0000 1.0000
28.9300 875.0000 1.0000
28.9400 868.0000 1.0000
28.9500 914.0000 1.0000
28.9600 935.0000 1.0000
28.9700 872.0000 1.0000
28.9800 849.0000 1.0000
28.9900 872.0000 1.0000
29.0000 864.0000 1.0000
29.0100 910.0000 1.0000
29.0200 874.0000 1.0000
29.0300 893.0000 1.0000
29.0400 899.0000 1.0000
29.0500 896.0000 1.0000
29.0600 922.0000 1.0000
29.0700 901.0000 1.0000
29.0800 869.0000 1.0000
29.0900 814.0000 1.0000
29.1000 870.0000 1.0000
29.1100 862.0000 1.0000
29.1200 873.0000 1.0000
29.1300 881.0000 1.0000
29.1400 909.0000 1.0000
29.1500 868.0000 1.0000
29.1600 960.0000 1.0000
29.1700 897.0000 1.0000
29.1800 929.0000 1.0000
29.1900 864.0000 1.0000
29.2000 897.0000 1.0000
29.2100 871.0000 1.0000
29.2200 853.0000 1.0000
29.2300 859.0000 1.0000
29.2400 851.0000 1.0000
29.2500 879.0000 1.0000
29.2600 880.0000 1.0000
29.2700 927.0000 1.0000
29.2800 861.0000 1.0000
29.2900 906.0000 1.0000
29.3000 906.0000 1.0000
29.3100 885.0000 1.0000
29.3200 887.0000 1.0000
29.3300 893.0000 1.0000
29.3400 860.0000 1.0000
29.3500 856.0000 1.0000
29.3600 865.0000 1.0000
29.3700 846.0000 1.0000
29.3800 873.0000 1.0000
29.3900 887.0000 1.0000
29.4000 896.0000 1.0000
29.4100 845.0000 1.0000
29.4200 871.0000 1.0000
29.4300 912.0000 1.0000
29.4400 868.0000 1.0000
29.4500 881.0000 1.0000
29.4600 890.0000 1.0000
29.4700 870.0000 1.0000
29.4800 899.0000 1.0000
29.4900 837.0000 1.0000
29.5000 868.0000 1.0000
29.5100 846.0000 1.0000
29.5200 841.0000 1.0000
29.5300 891.0000 1.0000
29.5400 793.0000 1.0000
29.5500 862.0000 1.0000
29.5600 849.0000 1.0000
29.5700 901.0000 1.0000
29.5800 854.0000 1.0000
29.5900 851.0000 1.0000
29.6000 880.0000 1.0000
29.6100 847.0000 1.0000
29.6200 853.0000 1.0000
29.6300 872.0000 1.0000
29.6400 869.0000 1.0000
29.6500 859.0000 1.0000
29.6600 861.0000 1.0000
29.6700 842.0000 1.0000
29.6800 916.0000 1.0000
29.6900 857.0000 1.0000
29.7000 847.0000 1.0000
29.7100 876.0000 1.0000
29.7200 854.0000 1.0000
29.7300 889.0000 1.0000
29.7400 860.0000 1.0000
29.7500 823.0000 1.0000
29.7600 862.0000 1.0000
29.7700 841.0000 1.0000
29.7800 849.0000 1.0000
29.7900 840.0000 1.0000
29.8000 875.0000 1.0000
29.8100 856.0000 1.0000
29.8200 850.0000 1.0000
29.8300 900.0000 1.0000
29.8400 844.0000 1.0000
29.8500 837.0000 1.0000
29.8600 869.0000 1.0000
29.8700 893.0000 1.0000
29.8800 867.0000 1.0000
29.8900 837.0000 1.0000
29.9000 895.0000 1.0000
29.9100 837.0000 1.0000
29.9200 862.0000 1.0000
29.9300 846.0000 1.0000
29.9400 831.0000 1.0000
29.9500 870.0000 1.0000
29.9600 851.0000 1.0000
29.9700 856.0000 1.0000
29.9800 863.0000 1.0000
29.9900 862.0000 1.0000
30.0000 801.0000 1.0000
30.0100 825.0000 1.0000
30.0200 870.0000 1.0000
30.0300 872.0000 1.0000
30.0400 846.0000 1.0000
30.0500 843.0000 1.0000
30.0600 834.0000 1.0000
30.0700 834.0000 1.0000
30.0800 842.0000 1.0000
30.0900 851.0000 1.0000
30.1000 848.0000 1.0000
30.1100 811.0000 1.0000
30.1200 851.0000 1.0000
30.1300 940.0000 1.0000
30.1400 855.0000 1.0000
30.1500 894.0000 1.0000
30.1600 873.0000 1.0000
30.1700 868.0000 1.0000
30.1800 816.0000 1.0000
30.1900 836.0000 1.0000
30.2000 821.0000 1.0000
30.2100 888.0000 1.0000
30.2200 853.0000 1.0000
30.2300 877.0000 1.0000
30.2400 865.0000 1.0000
30.2500 840.0000 1.0000
30.2600 843.0000 1.0000
30.2700 863.0000 1.0000
30.2800 882.0000 1.0000
30.2900 863.0000 1.0000
30.3000 852.0000 1.0000
30.3100 883.0000 1.0000
30.3200 861.0000 1.0000
30.3300 801.0000 1.0000
30.3400 802.0000 1.0000
30.3500 779.0000 1.0000
30.3600 838.0000 1.0000
30.3700 827.0000 1.0000
30.3800 819.0000 1.0000
30.3900 847.0000 1.0000
30.4000 806.0000 1.0000
30.4100 839.0000 1.0000
30.4200 829.0000 1.0000
30.4300 844.0000 1.0000
30.4400 800.0000 1.0000
30.4500 826.0000 1.0000
30.4600 836.0000 1.0000
30.4700 796.0000 1.0000
30.4800 880.0000 1.0000
30.4900 820.0000 1.0000
30.5000 808.0000 1.0000
30.5100 852.0000 1.0000
30.5200 854.0000 1.0000
30.5300 852.0000 1.0000
30.5400 879.0000 1.0000
30.5500 820.0000 1.0000
30.5600 840.0000 1.0000
30.5700 814.0000 1.0000
30.5800 843.0000 1.0000
30.5900 856.0000 1.0000
30.6000 868.0000 1.0000
30.6100 810.0000 1.0000
30.6200 835.0000 1.0000
30.6300 820.0000 1.0000
30.6400 812.0000 1.0000
30.6500 820.0000 1.0000
30.6600 805.0000 1.0000
30.6700 817.0000 1.0000
30.6800 881.0000 1.0000
30.6900 839.0000 1.0000
30.7000 825.0000 1.0000
30.7100 832.0000 1.0000
30.7200 827.0000 1.0000
30.7300 825.0000 1.0000
30.7400 846.0000 1.0000
30.7500 809.0000 1.0000
30.7600 813.0000 1.0000
30.7700 787.0000 1.0000
30.7800 843.0000 1.0000
30.7900 801.0000 1.0000
30.8000 836.0000 1.0000
30.8100 896.0000 1.0000
30.8200 798.0000 1.0000
30.8300 800.0000 1.0000
30.8400 830.0000 1.0000
30.8500 832.0000 1.0000
30.8600 845.0000 1.0000
30.8700 844.0000 1.0000
30.8800 819.0000 1.0000
30.8900 862.0000 1.0000
30.9000 804.0000 1.0000
30.9100 826.0000 1.0000
30.9200 808.0000 1.0000
30.9300 843.0000 1.0000
30.9400 838.0000 1.0000
30.9500 808.0000 1.0000
30.9600 898.0000 1.0000
30.9700 860.0000 1.0000
30.9800 824.0000 1.0000
30.9900 867.0000 1.0000
31.0000 801.0000 1.0000
31.0100 820.0000 1.0000
31.0200 852.0000 1.0000
31.0300 820.0000 1.0000
31.0400 811.0000 1.0000
31.0500 831.0000 1.0000
31.0600 831.0000 1.0000
31.0700 855.0000 1.0000
31.0800 811.0000 1.0000
31.0900 805.0000 1.0000
31.1000 839.0000 1.0000
31.1100 875.0000 1.0000
31.1200 863.0000 1.0000
31.1300 848.0000 1.0000
31.1400 821.0000 1.0000
31.1500 785.0000 1.0000
31.1600 877.0000 1.0000
31.1700 811.0000 1.0000
31.1800 880.0000 1.0000
31.1900 841.0000 1.0000
31.2000 879.0000 1.0000
31.2100 871.0000 1.0000
31.2200 843.0000 1.0000
31.2300 829.0000 1.0000
31.2400 845.0000 1.0000
31.2500 818.0000 1.0000
31.2600 877.0000 1.0000
31.2700 820.0000 1.0000
31.2800 864.0000 1.0000
31.2900 868.0000 1.0000
31.3000 776.0000 1.0000
31.3100 827.0000 1.0000
31.3200 831.0000 1.0000
31.3300 841.0000 1.0000
31.3400 845.0000 1.0000
31.3500 833.0000 1.0000
31.3600 850.0000 1.0000
31.3700 839.0000 1.0000
31.3800 864.0000 1.0000
31.3900 851.0000 1.0000
31.4000 831.0000 1.0000
31.4100 822.0000 1.0000
31.4200 821.0000 1.0000
31.4300 808.0000 1.0000
31.4400 781.0000 1.0000
31.4500 819.0000 1.0000
31.4600 828.0000 1.0000
31.4700 831.0000 1.0000
31.4800 821.0000 1.0000
31.4900 857.0000 1.0000
31.5000 827.0000 1.0000
31.5100 779.0000 1.0000
31.5200 806.0000 1.0000
31.5300 809.0000 1.0000
31.5400 777.0000 1.0000
31.5500 778.0000 1.0000
31.5600 794.0000 1.0000
31.5700 875.0000 1.0000
31.5800 768.0000 1.0000
31.5900 796.0000 1.0000
31.6000 816.0000 1.0000
31.6100 815.0000 1.0000
31.6200 843.0000 1.0000
31.6300 830.0000 1.0000
31.6400 796.0000 1.0000
31.6500 814.0000 1.0000
31.6600 818.0000 1.0000
31.6700 799.0000 1.0000
31.6800 825.0000 1.0000
31.6900 806.0000 1.0000
31.7000 813.0000 1.0000
31.7100 779.0000 1.0000
31.7200 758.0000 1.0000
31.7300 796.0000 1.0000
31.7400 811.0000 1.0000
31.7500 818.0000 1.0000
31.7600 804.0000 1.0000
31.7700 798.0000 1.0000
31.7800 789.0000 1.0000
31.7900 811.0000 1.0000
31.8000 845.0000 1.0000
31.8100 806.0000 1.0000
31.8200 837.0000 1.0000
31.8300 788.0000 1.0000
31.8400 808.0000 1.0000
31.8500 819.0000 1.0000
31.8600 804.0000 1.0000
31.8700 803.0000 1.0000
31.8800 810.0000 1.0000
31.8900 764.0000 1.0000
31.9000 817.0000 1.0000
31.9100 820.0000 1.0000
31.9200 810.0000 1.0000
31.9300 815.0000 1.0000
31.9400 806.0000 1.0000
31.9500 770.0000 1.0000
31.9600 806.0000 1.0000
31.9700 831.0000 1.0000
31.9800 786.0000 1.0000
31.9900 803.0000 1.0000
32.0000 775.0000 1.0000
32.0100 850.0000 1.0000
32.0200 832.0000 1.0000
32.0300 780.0000 1.0000
32.0400 801.0000 1.0000
32.0500 794.0000 1.0000
32.0600 794.0000 1.0000
32.0700 794.0000 1.0000
32.0800 784.0000 1.0000
32.0900 796.0000 1.0000
32.1000 828.0000 1.0000
32.1100 824.0000 1.0000
32.1200 789.0000 1.0000
32.1300 775.0000 1.0000
32.1400 765.0000 1.0000
32.1500 774.0000 1.0000
32.1600 816.0000 1.0000
32.1700 815.0000 1.0000
32.1800 788.0000 1.0000
32.1900 787.0000 1.0000
32.2000 776.0000 1.0000
32.2100 776.0000 1.0000
32.2200 782.0000 1.0000
32.2300 796.0000 1.0000
32.2400 794.0000 1.0000
32.2500 779.0000 1.0000
32.2600 794.0000 1.0000
32.2700 793.0000 1.0000
32.2800 826.0000 1.0000
32.2900 779.0000 1.0000
32.3000 787.0000 1.0000
32.3100 750.0000 1.0000
32.3200 801.0000 1.0000
32.3300 809.0000 1.0000
32.3400 781.0000 1.0000
32.3500 814.0000 1.0000
32.3600 813.0000 1.0000
32.3700 800.0000 1.0000
32.3800 789.0000 1.0000
32.3900 771.0000 1.0000
32.4000 791.0000 1.0000
32.4100 764.0000 1.0000
32.4200 750.0000 1.0000
32.4300 783.0000 1.0000
32.4400 782.0000 1.0000
32.4500 779.0000 1.0000
32.4600 789.0000 1.0000
32.4700 843.0000 1.0000
32.4800 857.0000 1.0000
32.4900 813.0000 1.0000
32.5000 777.0000 1.0000
32.5100 827.0000 1.0000
32.5200 838.0000 1.0000
32.5300 808.0000 1.0000
32.5400 829.0000 1.0000
32.5500 824.0000 1.0000
32.5600 767.0000 1.0000
32.5700 779.0000 1.0000
32.5800 717.0000 1.0000
32.5900 766.0000 1.0000
32.6000 818.0000 1.0000
32.6100 845.0000 1.0000
32.6200 794.0000 1.0000
32.6300 776.0000 1.0000
32.6400 811.0000 1.0000
32.6500 799.0000 1.0000
32.6600 804.0000 1.0000
32.6700 787.0000 1.0000
32.6800 787.0000 1.0000
32.6900 825.0000 1.0000
32.7000 823.0000 1.0000
32.7100 828.0000 1.0000
32.7200 793.0000 1.0000
32.7300 815.0000 1.0000
32.7400 821.0000 1.0000
32.7500 777.0000 1.0000
32.7600 778.0000 1.0000
32.7700 765.0000 1.0000
32.7800 860.0000 1.0000
32.7900 807.0000 1.0000
32.8000 818.0000 1.0000
32.8100 786.0000 1.0000
32.8200 805.0000 1.0000
32.8300 879.0000 1.0000
32.8400 861.0000 1.0000
32.8500 760.0000 1.0000
32.8600 788.0000 1.0000
32.8700 810.0000 1.0000
32.8800 875.0000 1.0000
32.8900 843.0000 1.0000
32.9000 906.0000 1.0000
32.9100 891.0000 1.0000
32.9200 842.0000 1.0000
32.9300 873.0000 1.0000
32.9400 885.0000 1.0000
32.9500 947.0000 1.0000
32.9600 902.0000 1.0000
32.9700 946.0000 1.0000
32.9800 914.0000 1.0000
32.9900 942.0000 1.0000
33.0000 919.0000 1.0000
33.0100 906.0000 1.0000
33.0200 908.0000 1.0000
33.0300 967.0000 1.0000
33.0400 1022.0000 1.0000
33.0500 981.0000 1.0000
33.0600 1000.0000 1.0000
33.0700 1019.0000 1.0000
33.0800 1029.0000 1.0000
33.0900 1069.0000 1.0000
33.1000 1088.0000 1.0000
33.1100 1030.0000 1.0000
33.1200 1030.0000 1.0000
33.1300 1040.0000 1.0000
33.1400 1045.0000 1.0000
33.1500 1062.0000 1.0000
33.1600 1019.0000 1.0000
33.1700 1004.0000 1.0000
33.1800 981.0000 1.0000
33.1900 956.0000 1.0000
33.2000 963.0000 1.0000
33.2100 923.0000 1.0000
33.2200 919.0000 1.0000
33.2300 893.0000 1.0000
33.2400 904.0000 1.0000
33.2500 878.0000 1.0000
33.2600 918.0000 1.0000
33.2700 897.0000 1.0000
33.2800 961.0000 1.0000
33.2900 914.0000 1.0000
33.3000 905.0000 1.0000
33.3100 916.0000 1.0000
33.3200 887.0000 1.0000
33.3300 926.0000 1.0000
33.3400 890.0000 1.0000
33.3500 921.0000 1.0000
33.3600 890.0000 1.0000
33.3700 955.0000 1.0000
33.3800 880.0000 1.0000
33.3900 922.0000 1.0000
33.4000 977.0000 1.0000
33.4100 957.0000 1.0000
33.4200 977.0000 1.0000
33.4300 999.0000 1.0000
33.4400 984.0000 1.0000
33.4500 1046.0000 1.0000
33.4600 1041.0000 1.0000
33.4700 1077.0000 1.0000
33.4800 1078.0000 1.0000
33.4900 1091.0000 1.0000
33.5000 1093.0000 1.0000
33.5100 1194.0000 1.0000
33.5200 1241.0000 1.0000
33.5300 1309.0000 1.0000
33.5400 1420.0000 1.0000
33.5500 1435.0000 1.0000
33.5600 1576.0000 1.0000
33.5700 1618.0000 1.0000
33.5800 1589.0000 1.0000
33.5900 1693.0000 1.0000
33.6000 1835.0000 1.0000
33.6100 1857.0000 1.0000
33.6200 1932.0000 1.0000
33.6300 1999.0000 1.0000
33.6400 2018.0000 1.0000
33.6500 2011.0000 1.0000
33.6600 2001.0000 1.0000
33.6700 1914.0000 1.0000
33.6800 1956.0000 1.0000
33.6900 1905.0000 1.0000
33.7000 1816.0000 1.0000
33.7100 1814.0000 1.0000
33.7200 1742.0000 1.0000
33.7300 1738.0000 1.0000
33.7400 1665.0000 1.0000
33.7500 1502.0000 1.0000
33.7600 1519.0000 1.0000
33.7700 1503.0000 1.0000
33.7800 1369.0000 1.0000
33.7900 1285.0000 1.0000
33.8000 1271.0000 1.0000
33.8100 1211.0000 1.0000
33.8200 1224.0000 1.0000
33.8300 1157.0000 1.0000
33.8400 1114.0000 1.0000
33.8500 1144.0000 1.0000
33.8600 1050.0000 1.0000
33.8700 1067.0000 1.0000
33.8800 967.0000 1.0000
33.8900 952.0000 1.0000
33.9000 966.0000 1.0000
33.9100 913.0000 1.0000
33.9200 949.0000 1.0000
33.9300 970.0000 1.0000
33.9400 925.0000 1.0000
33.9500 923.0000 1.0000
33.9600 899.0000 1.0000
33.9700 889.0000 1.0000
33.9800 841.0000 1.0000
33.9900 856.0000 1.0000
34.0000 878.0000 1.0000
34.0100 869.0000 1.0000
34.0200 829.0000 1.0000
34.0300 834.0000 1.0000
34.0400 789.0000 1.0000
34.0500 773.0000 1.0000
34.0600 831.0000 1.0000
34.0700 848.0000 1.0000
34.0800 775.0000 1.0000
34.0900 813.0000 1.0000
34.1000 767.0000 1.0000
34.1100 802.0000 1.0000
34.1200 786.0000 1.0000
34.1300 828.0000 1.0000
34.1400 760.0000 1.0000
34.1500 752.0000 1.0000
34.1600 751.0000 1.0000
34.1700 754.0000 1.0000
34.1800 735.0000 1.0000
34.1900 749.0000 1.0000
34.2000 736.0000 1.0000
34.2100 738.0000 1.0000
34.2200 735.0000 1.0000
34.2300 759.0000 1.0000
34.2400 711.0000 1.0000
34.2500 723.0000 1.0000
34.2600 735.0000 1.0000
34.2700 711.0000 1.0000
34.2800 754.0000 1.0000
34.2900 708.0000 1.0000
34.3000 733.0000 1.0000
34.3100 711.0000 1.0000
34.3200 734.0000 1.0000
34.3300 766.0000 1.0000
34.3400 745.0000 1.0000
34.3500 710.0000 1.0000
34.3600 721.0000 1.0000
34.3700 717.0000 1.0000
34.3800 741.0000 1.0000
34.3900 695.0000 1.0000
34.4000 699.0000 1.0000
34.4100 745.0000 1.0000
34.4200 672.0000 1.0000
34.4300 723.0000 1.0000
34.4400 715.0000 1.0000
34.4500 696.0000 1.0000
34.4600 697.0000 1.0000
34.4700 694.0000 1.0000
34.4800 688.0000 1.0000
34.4900 725.0000 1.0000
34.5000 737.0000 1.0000
34.5100 749.0000 1.0000
34.5200 693.0000 1.0000
34.5300 696.0000 1.0000
34.5400 682.0000 1.0000
34.5500 717.0000 1.0000
34.5600 721.0000 1.0000
34.5700 701.0000 1.0000
34.5800 701.0000 1.0000
34.5900 702.0000 1.0000
34.6000 729.0000 1.0000
34.6100 700.0000 1.0000
34.6200 718.0000 1.0000
34.6300 686.0000 1.0000
34.6400 694.0000 1.0000
34.6500 695.0000 1.0000
34.6600 695.0000 1.0000
34.6700 715.0000 1.0000
34.6800 693.0000 1.0000
34.6900 709.0000 1.0000
34.7000 666.0000 1.0000
34.7100 663.0000 1.0000
34.7200 697.0000 1.0000
34.7300 685.0000 1.0000
34.7400 687.0000 1.0000
34.7500 702.0000 1.0000
34.7600 728.0000 1.0000
34.7700 695.0000 1.0000
34.7800 692.0000 1.0000
34.7900 706.0000 1.0000
34.8000 688.0000 1.0000
34.8100 668.0000 1.0000
34.8200 700.0000 1.0000
34.8300 665.0000 1.0000
34.8400 668.0000 1.0000
34.8500 698.0000 1.0000
34.8600 705.0000 1.0000
34.8700 619.0000 1.0000
34.8800 641.0000 1.0000
34.8900 681.0000 1.0000
34.9000 684.0000 1.0000
34.9100 697.0000 1.0000
34.9200 639.0000 1.0000
34.9300 719.0000 1.0000
34.9400 692.0000 1.0000
34.9500 689.0000 1.0000
34.9600 691.0000 1.0000
34.9700 631.0000 1.0000
34.9800 645.0000 1.0000
34.9900 637.0000 1.0000
35.0000 647.0000 1.0000
35.0100 644.0000 1.0000
35.0200 648.0000 1.0000
35.0300 666.0000 1.0000
35.0400 659.0000 1.0000
35.0500 688.0000 1.0000
35.0600 640.0000 1.0000
35.0700 653.0000 1.0000
35.0800 662.0000 1.0000
35.0900 670.0000 1.0000
35.1000 650.0000 1.0000
35.1100 671.0000 1.0000
35.1200 667.0000 1.0000
35.1300 682.0000 1.0000
35.1400 674.0000 1.0000
35.1500 699.0000 1.0000
35.1600 632.0000 1.0000
35.1700 643.0000 1.0000
35.1800 687.0000 1.0000
35.1900 640.0000 1.0000
35.2000 657.0000 1.0000
35.2100 652.0000 1.0000
35.2200 666.0000 1.0000
35.2300 660.0000 1.0000
35.2400 684.0000 1.0000
35.2500 713.0000 1.0000
35.2600 697.0000 1.0000
35.2700 712.0000 1.0000
35.2800 680.0000 1.0000
35.2900 731.0000 1.0000
35.3000 719.0000 1.0000
35.3100 687.0000 1.0000
35.3200 716.0000 1.0000
35.3300 675.0000 1.0000
35.3400 704.0000 1.0000
35.3500 713.0000 1.0000
35.3600 720.0000 1.0000
35.3700 736.0000 1.0000
35.3800 763.0000 1.0000
35.3900 755.0000 1.0000
35.4000 780.0000 1.0000
35.4100 811.0000 1.0000
35.4200 770.0000 1.0000
35.4300 812.0000 1.0000
35.4400 764.0000 1.0000
35.4500 844.0000 1.0000
35.4600 835.0000 1.0000
35.4700 877.0000 1.0000
35.4800 896.0000 1.0000
35.4900 935.0000 1.0000
35.5000 927.0000 1.0000
35.5100 956.0000 1.0000
35.5200 1034.0000 1.0000
35.5300 1121.0000 1.0000
35.5400 1085.0000 1.0000
35.5500 1099.0000 1.0000
35.5600 1081.0000 1.0000
35.5700 1116.0000 1.0000
35.5800 1156.0000 1.0000
35.5900 1128.0000 1.0000
35.6000 1159.0000 1.0000
35.6100 1098.0000 1.0000
35.6200 1099.0000 1.0000
35.6300 1100.0000 1.0000
35.6400 1085.0000 1.0000
35.6500 1080.0000 1.0000
35.6600 1055.0000 1.0000
35.6700 980.0000 1.0000
35.6800 985.0000 1.0000
35.6900 904.0000 1.0000
35.7000 929.0000 1.0000
35.7100 805.0000 1.0000
35.7200 886.0000 1.0000
35.7300 810.0000 1.0000
35.7400 820.0000 1.0000
35.7500 774.0000 1.0000
35.7600 757.0000 1.0000
35.7700 706.0000 1.0000
35.7800 692.0000 1.0000
35.7900 698.0000 1.0000
35.8000 695.0000 1.0000
35.8100 682.0000 1.0000
35.8200 665.0000 1.0000
35.8300 674.0000 1.0000
35.8400 643.0000 1.0000
35.8500 682.0000 1.0000
35.8600 642.0000 1.0000
35.8700 615.0000 1.0000
35.8800 634.0000 1.0000
35.8900 665.0000 1.0000
35.9000 700.0000 1.0000
35.9100 669.0000 1.0000
35.9200 642.0000 1.0000
35.9300 650.0000 1.0000
35.9400 647.0000 1.0000
35.9500 594.0000 1.0000
35.9600 700.0000 1.0000
35.9700 653.0000 1.0000
35.9800 617.0000 1.0000
35.9900 626.0000 1.0000
36.0000 637.0000 1.0000
36.0100 600.0000 1.0000
36.0200 614.0000 1.0000
36.0300 635.0000 1.0000
36.0400 618.0000 1.0000
36.0500 617.0000 1.0000
36.0600 606.0000 1.0000
36.0700 629.0000 1.0000
36.0800 618.0000 1.0000
36.0900 638.0000 1.0000
36.1000 636.0000 1.0000
36.1100 620.0000 1.0000
36.1200 573.0000 1.0000
36.1300 603.0000 1.0000
36.1400 588.0000 1.0000
36.1500 613.0000 1.0000
36.1600 591.0000 1.0000
36.1700 603.0000 1.0000
36.1800 659.0000 1.0000
36.1900 573.0000 1.0000
36.2000 610.0000 1.0000
36.2100 611.0000 1.0000
36.2200 609.0000 1.0000
36.2300 594.0000 1.0000
36.2400 591.0000 1.0000
36.2500 607.0000 1.0000
36.2600 644.0000 1.0000
36.2700 615.0000 1.0000
36.2800 606.0000 1.0000
36.2900 583.0000 1.0000
36.3000 584.0000 1.0000
36.3100 600.0000 1.0000
36.3200 638.0000 1.0000
36.3300 603.0000 1.0000
36.3400 589.0000 1.0000
36.3500 600.0000 1.0000
36.3600 638.0000 1.0000
36.3700 583.0000 1.0000
36.3800 595.0000 1.0000
36.3900 648.0000 1.0000
36.4000 667.0000 1.0000
36.4100 649.0000 1.0000
36.4200 596.0000 1.0000
36.4300 572.0000 1.0000
36.4400 615.0000 1.0000
36.4500 565.0000 1.0000
36.4600 564.0000 1.0000
36.4700 574.0000 1.0000
36.4800 616.0000 1.0000
36.4900 619.0000 1.0000
36.5000 601.0000 1.0000
36.5100 606.0000 1.0000
36.5200 605.0000 1.0000
36.5300 576.0000 1.0000
36.5400 613.0000 1.0000
36.5500 577.0000 1.0000
36.5600 608.0000 1.0000
36.5700 608.0000 1.0000
36.5800 580.0000 1.0000
36.5900 631.0000 1.0000
36.6000 595.0000 1.0000
36.6100 603.0000 1.0000
36.6200 593.0000 1.0000
36.6300 595.0000 1.0000
36.6400 639.0000 1.0000
36.6500 599.0000 1.0000
36.6600 571.0000 1.0000
36.6700 597.0000 1.0000
36.6800 624.0000 1.0000
36.6900 575.0000 1.0000
36.7000 617.0000 1.0000
36.7100 599.0000 1.0000
36.7200 570.0000 1.0000
36.7300 609.0000 1.0000
36.7400 608.0000 1.0000
36.7500 609.0000 1.0000
36.7600 587.0000 1.0000
36.7700 588.0000 1.0000
36.7800 604.0000 1.0000
36.7900 636.0000 1.0000
36.8000 570.0000 1.0000
36.8100 580.0000 1.0000
36.8200 591.0000 1.0000
36.8300 559.0000 1.0000
36.8400 631.0000 1.0000
36.8500 622.0000 1.0000
36.8600 557.0000 1.0000
36.8700 560.0000 1.0000
36.8800 617.0000 1.0000
36.8900 610.0000 1.0000
36.9000 585.0000 1.0000
36.9100 600.0000 1.0000
36.9200 614.0000 1.0000
36.9300 630.0000 1.0000
36.9400 640.0000 1.0000
36.9500 586.0000 1.0000
36.9600 562.0000 1.0000
36.9700 610.0000 1.0000
36.9800 597.0000 1.0000
36.9900 593.0000 1.0000
37.0000 601.0000 1.0000
37.0100 550.0000 1.0000
37.0200 592.0000 1.0000
37.0300 579.0000 1.0000
37.0400 605.0000 1.0000
37.0500 626.0000 1.0000
37.0600 611.0000 1.0000
37.0700 609.0000 1.0000
37.0800 594.0000 1.0000
37.0900 600.0000 1.0000
37.1000 626.0000 1.0000
37.1100 609.0000 1.0000
37.1200 613.0000 1.0000
37.1300 610.0000 1.0000
37.1400 626.0000 1.0000
37.1500 620.0000 1.0000
37.1600 625.0000 1.0000
37.1700 636.0000 1.0000
37.1800 622.0000 1.0000
37.1900 637.0000 1.0000
37.2000 650.0000 1.0000
37.2100 654.0000 1.0000
37.2200 667.0000 1.0000
37.2300 618.0000 1.0000
37.2400 619.0000 1.0000
37.2500 646.0000 1.0000
37.2600 655.0000 1.0000
37.2700 649.0000 1.0000
37.2800 651.0000 1.0000
37.2900 619.0000 1.0000
37.3000 680.0000 1.0000
37.3100 686.0000 1.0000
37.3200 686.0000 1.0000
37.3300 681.0000 1.0000
37.3400 705.0000 1.0000
37.3500 711.0000 1.0000
37.3600 758.0000 1.0000
37.3700 783.0000 1.0000
37.3800 820.0000 1.0000
37.3900 769.0000 1.0000
37.4000 769.0000 1.0000
37.4100 803.0000 1.0000
37.4200 806.0000 1.0000
37.4300 855.0000 1.0000
37.4400 933.0000 1.0000
37.4500 869.0000 1.0000
37.4600 948.0000 1.0000
37.4700 993.0000 1.0000
37.4800 1022.0000 1.0000
37.4900 1094.0000 1.0000
37.5000 1167.0000 1.0000
37.5100 1114.0000 1.0000
37.5200 1234.0000 1.0000
37.5300 1301.0000 1.0000
37.5400 1347.0000 1.0000
37.5500 1518.0000 1.0000
37.5600 1503.0000 1.0000
37.5700 1631.0000 1.0000
37.5800 1759.0000 1.0000
37.5900 1804.0000 1.0000
37.6000 1976.0000 1.0000
37.6100 2135.0000 1.0000
37.6200 2288.0000 1.0000
37.6300 2409.0000 1.0000
37.6400 2531.0000 1.0000
37.6500 2637.0000 1.0000
37.6600 2713.0000 1.0000
37.6700 2751.0000 1.0000
37.6800 2917.0000 1.0000
37.6900 2951.0000 1.0000
37.7000 3075.0000 1.0000
37.7100 3094.0000 1.0000
37.7200 3052.0000 1.0000
37.7300 2927.0000 1.0000
37.7400 3030.0000 1.0000
37.7500 2927.0000 1.0000
37.7600 2820.0000 1.0000
37.7700 2731.0000 1.0000
37.7800 2626.0000 1.0000
37.7900 2522.0000 1.0000
37.8000 2413.0000 1.0000
37.8100 2256.0000 1.0000
37.8200 2158.0000 1.0000
37.8300 2146.0000 1.0000
37.8400 2062.0000 1.0000
37.8500 1858.0000 1.0000
37.8600 1699.0000 1.0000
37.8700 1619.0000 1.0000
37.8800 1621.0000 1.0000
37.8900 1547.0000 1.0000
37.9000 1397.0000 1.0000
37.9100 1275.0000 1.0000
37.9200 1241.0000 1.0000
37.9300 1160.0000 1.0000
37.9400 1104.0000 1.0000
37.9500 1016.0000 1.0000
37.9600 1002.0000 1.0000
37.9700 970.0000 1.0000
37.9800 944.0000 1.0000
37.9900 913.0000 1.0000
38.0000 902.0000 1.0000
38.0100 819.0000 1.0000
38.0200 812.0000 1.0000
38.0300 747.0000 1.0000
38.0400 796.0000 1.0000
38.0500 777.0000 1.0000
38.0600 708.0000 1.0000
38.0700 699.0000 1.0000
38.0800 719.0000 1.0000
38.0900 669.0000 1.0000
38.1000 678.0000 1.0000
38.1100 710.0000 1.0000
38.1200 699.0000 1.0000
38.1300 670.0000 1.0000
38.1400 625.0000 1.0000
38.1500 633.0000 1.0000
38.1600 633.0000 1.0000
38.1700 633.0000 1.0000
38.1800 652.0000 1.0000
38.1900 601.0000 1.0000
38.2000 638.0000 1.0000
38.2100 654.0000 1.0000
38.2200 594.0000 1.0000
38.2300 590.0000 1.0000
38.2400 594.0000 1.0000
38.2500 581.0000 1.0000
38.2600 566.0000 1.0000
38.2700 594.0000 1.0000
38.2800 601.0000 1.0000
38.2900 602.0000 1.0000
38.3000 583.0000 1.0000
38.3100 577.0000 1.0000
38.3200 575.0000 1.0000
38.3300 570.0000 1.0000
38.3400 597.0000 1.0000
38.3500 564.0000 1.0000
38.3600 571.0000 1.0000
38.3700 576.0000 1.0000
38.3800 590.0000 1.0000
38.3900 593.0000 1.0000
38.4000 599.0000 1.0000
38.4100 557.0000 1.0000
38.4200 532.0000 1.0000
38.4300 606.0000 1.0000
38.4400 587.0000 1.0000
38.4500 591.0000 1.0000
38.4600 547.0000 1.0000
38.4700 524.0000 1.0000
38.4800 548.0000 1.0000
38.4900 580.0000 1.0000
38.5000 540.0000 1.0000
38.5100 569.0000 1.0000
38.5200 572.0000 1.0000
38.5300 552.0000 1.0000
38.5400 574.0000 1.0000
38.5500 533.0000 1.0000
38.5600 598.0000 1.0000
38.5700 614.0000 1.0000
38.5800 507.0000 1.0000
38.5900 506.0000 1.0000
38.6000 532.0000 1.0000
38.6100 591.0000 1.0000
38.6200 557.0000 1.0000
38.6300 550.0000 1.0000
38.6400 543.0000 1.0000
38.6500 566.0000 1.0000
38.6600 588.0000 1.0000
38.6700 581.0000 1.0000
38.6800 585.0000 1.0000
38.6900 561.0000 1.0000
38.7000 579.0000 1.0000
38.7100 576.0000 1.0000
38.7200 588.0000 1.0000
38.7300 575.0000 1.0000
38.7400 570.0000 1.0000
38.7500 568.0000 1.0000
38.7600 544.0000 1.0000
38.7700 554.0000 1.0000
38.7800 609.0000 1.0000
38.7900 537.0000 1.0000
38.8000 588.0000 1.0000
38.8100 547.0000 1.0000
38.8200 606.0000 1.0000
38.8300 573.0000 1.0000
38.8400 561.0000 1.0000
38.8500 563.0000 1.0000
38.8600 544.0000 1.0000
38.8700 541.0000 1.0000
38.8800 521.0000 1.0000
38.8900 550.0000 1.0000
38.9000 547.0000 1.0000
38.9100 566.0000 1.0000
38.9200 567.0000 1.0000
38.9300 585.0000 1.0000
38.9400 578.0000 1.0000
38.9500 583.0000 1.0000
38.9600 543.0000 1.0000
38.9700 515.0000 1.0000
38.9800 531.0000 1.0000
38.9900 552.0000 1.0000
39.0000 543.0000 1.0000
39.0100 519.0000 1.0000
39.0200 525.0000 1.0000
39.0300 514.0000 1.0000
39.0400 540.0000 1.0000
39.0500 567.0000 1.0000
39.0600 541.0000 1.0000
39.0700 553.0000 1.0000
39.0800 503.0000 1.0000
39.0900 542.0000 1.0000
39.1000 563.0000 1.0000
39.1100 522.0000 1.0000
39.1200 482.0000 1.0000
39.1300 503.0000 1.0000
39.1400 535.0000 1.0000
39.1500 527.0000 1.0000
39.1600 539.0000 1.0000
39.1700 508.0000 1.0000
39.1800 507.0000 1.0000
39.1900 475.0000 1.0000
39.2000 528.0000 1.0000
39.2100 491.0000 1.0000
39.2200 499.0000 1.0000
39.2300 497.0000 1.0000
39.2400 515.0000 1.0000
39.2500 512.0000 1.0000
39.2600 493.0000 1.0000
39.2700 564.0000 1.0000
39.2800 543.0000 1.0000
39.2900 530.0000 1.0000
39.3000 528.0000 1.0000
39.3100 517.0000 1.0000
39.3200 535.0000 1.0000
39.3300 517.0000 1.0000
39.3400 533.0000 1.0000
39.3500 510.0000 1.0000
39.3600 525.0000 1.0000
39.3700 519.0000 1.0000
39.3800 481.0000 1.0000
39.3900 495.0000 1.0000
39.4000 524.0000 1.0000
39.4100 520.0000 1.0000
39.4200 482.0000 1.0000
39.4300 500.0000 1.0000
39.4400 502.0000 1.0000
39.4500 540.0000 1.0000
39.4600 487.0000 1.0000
39.4700 521.0000 1.0000
39.4800 509.0000 1.0000
39.4900 504.0000 1.0000
39.5000 495.0000 1.0000
39.5100 502.0000 1.0000
39.5200 512.0000 1.0000
39.5300 493.0000 1.0000
39.5400 495.0000 1.0000
39.5500 494.0000 1.0000
39.5600 557.0000 1.0000
39.5700 498.0000 1.0000
39.5800 512.0000 1.0000
39.5900 540.0000 1.0000
39.6000 541.0000 1.0000
39.6100 494.0000 1.0000
39.6200 543.0000 1.0000
39.6300 489.0000 1.0000
39.6400 562.0000 1.0000
39.6500 538.0000 1.0000
39.6600 512.0000 1.0000
39.6700 517.0000 1.0000
39.6800 518.0000 1.0000
39.6900 530.0000 1.0000
39.7000 534.0000 1.0000
39.7100 525.0000 1.0000
39.7200 520.0000 1.0000
39.7300 470.0000 1.0000
39.7400 510.0000 1.0000
39.7500 479.0000 1.0000
39.7600 490.0000 1.0000
39.7700 511.0000 1.0000
39.7800 513.0000 1.0000
39.7900 519.0000 1.0000
39.8000 508.0000 1.0000
39.8100 512.0000 1.0000
39.8200 521.0000 1.0000
39.8300 483.0000 1.0000
39.8400 463.0000 1.0000
39.8500 528.0000 1.0000
39.8600 531.0000 1.0000
39.8700 499.0000 1.0000
39.8800 514.0000 1.0000
39.8900 526.0000 1.0000
39.9000 487.0000 1.0000
39.9100 523.0000 1.0000
39.9200 488.0000 1.0000
39.9300 466.0000 1.0000
39.9400 492.0000 1.0000
39.9500 510.0000 1.0000
39.9600 510.0000 1.0000
39.9700 514.0000 1.0000
39.9800 500.0000 1.0000
39.9900 488.0000 1.0000
40.0000 484.0000 1.0000
40.0100 501.0000 1.0000
40.0200 526.0000 1.0000
40.0300 504.0000 1.0000
40.0400 509.0000 1.0000
40.0500 512.0000 1.0000
40.0600 539.0000 1.0000
40.0700 537.0000 1.0000
40.0800 536.0000 1.0000
40.0900 508.0000 1.0000
40.1000 505.0000 1.0000
40.1100 494.0000 1.0000
40.1200 495.0000 1.0000
40.1300 492.0000 1.0000
40.1400 492.0000 1.0000
40.1500 500.0000 1.0000
40.1600 518.0000 1.0000
40.1700 508.0000 1.0000
40.1800 490.0000 1.0000
40.1900 500.0000 1.0000
40.2000 519.0000 1.0000
40.2100 468.0000 1.0000
40.2200 506.0000 1.0000
40.2300 528.0000 1.0000
40.2400 517.0000 1.0000
40.2500 487.0000 1.0000
40.2600 489.0000 1.0000
40.2700 478.0000 1.0000
40.2800 529.0000 1.0000
40.2900 472.0000 1.0000
40.3000 443.0000 1.0000
40.3100 494.0000 1.0000
40.3200 518.0000 1.0000
40.3300 499.0000 1.0000
40.3400 524.0000 1.0000
40.3500 504.0000 1.0000
40.3600 466.0000 1.0000
40.3700 467.0000 1.0000
40.3800 506.0000 1.0000
40.3900 477.0000 1.0000
40.4000 508.0000 1.0000
40.4100 479.0000 1.0000
40.4200 517.0000 1.0000
40.4300 500.0000 1.0000
40.4400 500.0000 1.0000
40.4500 492.0000 1.0000
40.4600 518.0000 1.0000
40.4700 501.0000 1.0000
40.4800 505.0000 1.0000
40.4900 528.0000 1.0000
40.5000 564.0000 1.0000
40.5100 526.0000 1.0000
40.5200 533.0000 1.0000
40.5300 504.0000 1.0000
40.5400 531.0000 1.0000
40.5500 547.0000 1.0000
40.5600 547.0000 1.0000
40.5700 527.0000 1.0000
40.5800 514.0000 1.0000
40.5900 501.0000 1.0000
40.6000 477.0000 1.0000
40.6100 490.0000 1.0000
40.6200 534.0000 1.0000
40.6300 515.0000 1.0000
40.6400 533.0000 1.0000
40.6500 562.0000 1.0000
40.6600 512.0000 1.0000
40.6700 517.0000 1.0000
40.6800 492.0000 1.0000
40.6900 548.0000 1.0000
40.7000 551.0000 1.0000
40.7100 509.0000 1.0000
40.7200 534.0000 1.0000
40.7300 523.0000 1.0000
40.7400 535.0000 1.0000
40.7500 535.0000 1.0000
40.7600 522.0000 1.0000
40.7700 560.0000 1.0000
40.7800 543.0000 1.0000
40.7900 543.0000 1.0000
40.8000 571.0000 1.0000
40.8100 556.0000 1.0000
40.8200 540.0000 1.0000
40.8300 529.0000 1.0000
40.8400 505.0000 1.0000
40.8500 526.0000 1.0000
40.8600 543.0000 1.0000
40.8700 534.0000 1.0000
40.8800 543.0000 1.0000
40.8900 523.0000 1.0000
40.9000 533.0000 1.0000
40.9100 517.0000 1.0000
40.9200 514.0000 1.0000
40.9300 528.0000 1.0000
40.9400 532.0000 1.0000
40.9500 527.0000 1.0000
40.9600 560.0000 1.0000
40.9700 523.0000 1.0000
40.9800 507.0000 1.0000
40.9900 484.0000 1.0000
41.0000 500.0000 1.0000
41.0100 500.0000 1.0000
41.0200 471.0000 1.0000
41.0300 503.0000 1.0000
41.0400 487.0000 1.0000
41.0500 499.0000 1.0000
41.0600 511.0000 1.0000
41.0700 496.0000 1.0000
41.0800 501.0000 1.0000
41.0900 492.0000 1.0000
41.1000 479.0000 1.0000
41.1100 483.0000 1.0000
41.1200 478.0000 1.0000
41.1300 474.0000 1.0000
41.1400 457.0000 1.0000
41.1500 484.0000 1.0000
41.1600 471.0000 1.0000
41.1700 472.0000 1.0000
41.1800 494.0000 1.0000
41.1900 475.0000 1.0000
41.2000 474.0000 1.0000
41.2100 473.0000 1.0000
41.2200 521.0000 1.0000
41.2300 474.0000 1.0000
41.2400 489.0000 1.0000
41.2500 495.0000 1.0000
41.2600 483.0000 1.0000
41.2700 476.0000 1.0000
41.2800 497.0000 1.0000
41.2900 452.0000 1.0000
41.3000 479.0000 1.0000
41.3100 466.0000 1.0000
41.3200 510.0000 1.0000
41.3300 510.0000 1.0000
41.3400 500.0000 1.0000
41.3500 464.0000 1.0000
41.3600 470.0000 1.0000
41.3700 480.0000 1.0000
41.3800 485.0000 1.0000
41.3900 511.0000 1.0000
41.4000 453.0000 1.0000
41.4100 431.0000 1.0000
41.4200 497.0000 1.0000
41.4300 508.0000 1.0000
41.4400 458.0000 1.0000
41.4500 475.0000 1.0000
41.4600 456.0000 1.0000
41.4700 452.0000 1.0000
41.4800 492.0000 1.0000
41.4900 485.0000 1.0000
41.5000 485.0000 1.0000
41.5100 486.0000 1.0000
41.5200 496.0000 1.0000
41.5300 489.0000 1.0000
41.5400 497.0000 1.0000
41.5500 462.0000 1.0000
41.5600 478.0000 1.0000
41.5700 457.0000 1.0000
41.5800 459.0000 1.0000
41.5900 502.0000 1.0000
41.6000 514.0000 1.0000
41.6100 455.0000 1.0000
41.6200 452.0000 1.0000
41.6300 457.0000 1.0000
41.6400 484.0000 1.0000
41.6500 493.0000 1.0000
41.6600 457.0000 1.0000
41.6700 485.0000 1.0000
41.6800 468.0000 1.0000
41.6900 480.0000 1.0000
41.7000 449.0000 1.0000
41.7100 457.0000 1.0000
41.7200 465.0000 1.0000
41.7300 459.0000 1.0000
41.7400 458.0000 1.0000
41.7500 462.0000 1.0000
41.7600 461.0000 1.0000
41.7700 467.0000 1.0000
41.7800 496.0000 1.0000
41.7900 469.0000 1.0000
41.8000 489.0000 1.0000
41.8100 469.0000 1.0000
41.8200 446.0000 1.0000
41.8300 435.0000 1.0000
41.8400 486.0000 1.0000
41.8500 521.0000 1.0000
41.8600 475.0000 1.0000
41.8700 493.0000 1.0000
41.8800 432.0000 1.0000
41.8900 467.0000 1.0000
41.9000 477.0000 1.0000
41.9100 467.0000 1.0000
41.9200 451.0000 1.0000
41.9300 467.0000 1.0000
41.9400 465.0000 1.0000
41.9500 458.0000 1.0000
41.9600 482.0000 1.0000
41.9700 496.0000 1.0000
41.9800 467.0000 1.0000
41.9900 463.0000 1.0000
42.0000 457.0000 1.0000
42.0100 474.0000 1.0000
42.0200 459.0000 1.0000
42.0300 467.0000 1.0000
42.0400 461.0000 1.0000
42.0500 441.0000 1.0000
42.0600 452.0000 1.0000
42.0700 475.0000 1.0000
42.0800 454.0000 1.0000
42.0900 471.0000 1.0000
42.1000 499.0000 1.0000
42.1100 495.0000 1.0000
42.1200 443.0000 1.0000
42.1300 484.0000 1.0000
42.1400 447.0000 1.0000
42.1500 481.0000 1.0000
42.1600 442.0000 1.0000
42.1700 460.0000 1.0000
42.1800 465.0000 1.0000
42.1900 470.0000 1.0000
42.2000 478.0000 1.0000
42.2100 474.0000 1.0000
42.2200 447.0000 1.0000
42.2300 436.0000 1.0000
42.2400 460.0000 1.0000
42.2500 488.0000 1.0000
42.2600 501.0000 1.0000
42.2700 489.0000 1.0000
42.2800 471.0000 1.0000
42.2900 488.0000 1.0000
42.3000 501.0000 1.0000
42.3100 524.0000 1.0000
42.3200 501.0000 1.0000
42.3300 497.0000 1.0000
42.3400 469.0000 1.0000
42.3500 472.0000 1.0000
42.3600 465.0000 1.0000
42.3700 543.0000 1.0000
42.3800 483.0000 1.0000
42.3900 506.0000 1.0000
42.4000 540.0000 1.0000
42.4100 499.0000 1.0000
42.4200 513.0000 1.0000
42.4300 526.0000 1.0000
42.4400 492.0000 1.0000
42.4500 513.0000 1.0000
42.4600 511.0000 1.0000
42.4700 497.0000 1.0000
42.4800 487.0000 1.0000
42.4900 487.0000 1.0000
42.5000 490.0000 1.0000
42.5100 466.0000 1.0000
42.5200 460.0000 1.0000
42.5300 474.0000 1.0000
42.5400 499.0000 1.0000
42.5500 486.0000 1.0000
42.5600 452.0000 1.0000
42.5700 470.0000 1.0000
42.5800 482.0000 1.0000
42.5900 486.0000 1.0000
42.6000 460.0000 1.0000
42.6100 472.0000 1.0000
42.6200 480.0000 1.0000
42.6300 464.0000 1.0000
42.6400 469.0000 1.0000
42.6500 489.0000 1.0000
42.6600 458.0000 1.0000
42.6700 465.0000 1.0000
42.6800 433.0000 1.0000
42.6900 446.0000 1.0000
42.7000 429.0000 1.0000
42.7100 491.0000 1.0000
42.7200 463.0000 1.0000
42.7300 469.0000 1.0000
42.7400 470.0000 1.0000
42.7500 454.0000 1.0000
42.7600 457.0000 1.0000
42.7700 478.0000 1.0000
42.7800 465.0000 1.0000
42.7900 454.0000 1.0000
42.8000 446.0000 1.0000
42.8100 448.0000 1.0000
42.8200 496.0000 1.0000
42.8300 434.0000 1.0000
42.8400 427.0000 1.0000
42.8500 451.0000 1.0000
42.8600 429.0000 1.0000
42.8700 451.0000 1.0000
42.8800 452.0000 1.0000
42.8900 444.0000 1.0000
42.9000 426.0000 1.0000
42.9100 449.0000 1.0000
42.9200 436.0000 1.0000
42.9300 431.0000 1.0000
42.9400 436.0000 1.0000
42.9500 474.0000 1.0000
42.9600 442.0000 1.0000
42.9700 427.0000 1.0000
42.9800 409.0000 1.0000
42.9900 446.0000 1.0000
43.0000 451.0000 1.0000
43.0100 433.0000 1.0000
43.0200 467.0000 1.0000
43.0300 450.0000 1.0000
43.0400 477.0000 1.0000
43.0500 429.0000 1.0000
43.0600 424.0000 1.0000
43.0700 430.0000 1.0000
43.0800 421.0000 1.0000
43.0900 476.0000 1.0000
43.1000 450.0000 1.0000
43.1100 438.0000 1.0000
43.1200 437.0000 1.0000
43.1300 445.0000 1.0000
43.1400 456.0000 1.0000
43.1500 440.0000 1.0000
43.1600 444.0000 1.0000
43.1700 431.0000 1.0000
43.1800 434.0000 1.0000
43.1900 429.0000 1.0000
43.2000 414.0000 1.0000
43.2100 473.0000 1.0000
43.2200 440.0000 1.0000
43.2300 432.0000 1.0000
43.2400 427.0000 1.0000
43.2500 436.0000 1.0000
43.2600 429.0000 1.0000
43.2700 413.0000 1.0000
43.2800 417.0000 1.0000
43.2900 445.0000 1.0000
43.3000 439.0000 1.0000
43.3100 463.0000 1.0000
43.3200 434.0000 1.0000
43.3300 437.0000 1.0000
43.3400 427.0000 1.0000
43.3500 447.0000 1.0000
43.3600 443.0000 1.0000
43.3700 458.0000 1.0000
43.3800 467.0000 1.0000
43.3900 467.0000 1.0000
43.4000 434.0000 1.0000
43.4100 467.0000 1.0000
43.4200 440.0000 1.0000
43.4300 451.0000 1.0000
43.4400 444.0000 1.0000
43.4500 461.0000 1.0000
43.4600 437.0000 1.0000
43.4700 482.0000 1.0000
43.4800 472.0000 1.0000
43.4900 452.0000 1.0000
43.5000 413.0000 1.0000
43.5100 428.0000 1.0000
43.5200 446.0000 1.0000
43.5300 442.0000 1.0000
43.5400 476.0000 1.0000
43.5500 486.0000 1.0000
43.5600 496.0000 1.0000
43.5700 427.0000 1.0000
43.5800 471.0000 1.0000
43.5900 482.0000 1.0000
43.6000 446.0000 1.0000
43.6100 406.0000 1.0000
43.6200 423.0000 1.0000
43.6300 444.0000 1.0000
43.6400 429.0000 1.0000
43.6500 461.0000 1.0000
43.6600 443.0000 1.0000
43.6700 418.0000 1.0000
43.6800 436.0000 1.0000
43.6900 460.0000 1.0000
43.7000 448.0000 1.0000
43.7100 440.0000 1.0000
43.7200 466.0000 1.0000
43.7300 448.0000 1.0000
43.7400 456.0000 1.0000
43.7500 463.0000 1.0000
43.7600 469.0000 1.0000
43.7700 468.0000 1.0000
43.7800 445.0000 1.0000
43.7900 433.0000 1.0000
43.8000 402.0000 1.0000
43.8100 445.0000 1.0000
43.8200 397.0000 1.0000
43.8300 408.0000 1.0000
43.8400 420.0000 1.0000
43.8500 429.0000 1.0000
43.8600 425.0000 1.0000
43.8700 458.0000 1.0000
43.8800 456.0000 1.0000
43.8900 430.0000 1.0000
43.9000 438.0000 1.0000
43.9100 425.0000 1.0000
43.9200 469.0000 1.0000
43.9300 457.0000 1.0000
43.9400 425.0000 1.0000
43.9500 452.0000 1.0000
43.9600 447.0000 1.0000
43.9700 411.0000 1.0000
43.9800 408.0000 1.0000
43.9900 395.0000 1.0000
44.0000 434.0000 1.0000
44.0100 461.0000 1.0000
44.0200 423.0000 1.0000
44.0300 435.0000 1.0000
44.0400 414.0000 1.0000
44.0500 453.0000 1.0000
44.0600 436.0000 1.0000
44.0700 441.0000 1.0000
44.0800 438.0000 1.0000
44.0900 402.0000 1.0000
44.1000 425.0000 1.0000
44.1100 452.0000 1.0000
44.1200 452.0000 1.0000
44.1300 437.0000 1.0000
44.1400 417.0000 1.0000
44.1500 443.0000 1.0000
44.1600 440.0000 1.0000
44.1700 436.0000 1.0000
44.1800 432.0000 1.0000
44.1900 419.0000 1.0000
44.2000 420.0000 1.0000
44.2100 444.0000 1.0000
44.2200 423.0000 1.0000
44.2300 440.0000 1.0000
44.2400 441.0000 1.0000
44.2500 439.0000 1.0000
44.2600 423.0000 1.0000
44.2700 419.0000 1.0000
44.2800 403.0000 1.0000
44.2900 428.0000 1.0000
44.3000 419.0000 1.0000
44.3100 419.0000 1.0000
44.3200 412.0000 1.0000
44.3300 401.0000 1.0000
44.3400 425.0000 1.0000
44.3500 418.0000 1.0000
44.3600 409.0000 1.0000
44.3700 431.0000 1.0000
44.3800 435.0000 1.0000
44.3900 457.0000 1.0000
44.4000 402.0000 1.0000
44.4100 406.0000 1.0000
44.4200 424.0000 1.0000
44.4300 426.0000 1.0000
44.4400 429.0000 1.0000
44.4500 423.0000 1.0000
44.4600 388.0000 1.0000
44.4700 450.0000 1.0000
44.4800 456.0000 1.0000
44.4900 420.0000 1.0000
44.5000 418.0000 1.0000
44.5100 428.0000 1.0000
44.5200 449.0000 1.0000
44.5300 445.0000 1.0000
44.5400 412.0000 1.0000
44.5500 396.0000 1.0000
44.5600 426.0000 1.0000
44.5700 426.0000 1.0000
44.5800 422.0000 1.0000
44.5900 404.0000 1.0000
44.6000 416.0000 1.0000
44.6100 409.0000 1.0000
44.6200 399.0000 1.0000
44.6300 442.0000 1.0000
44.6400 412.0000 1.0000
44.6500 419.0000 1.0000
44.6600 410.0000 1.0000
44.6700 433.0000 1.0000
44.6800 446.0000 1.0000
44.6900 409.0000 1.0000
44.7000 403.0000 1.0000
44.7100 411.0000 1.0000
44.7200 420.0000 1.0000
44.7300 465.0000 1.0000
44.7400 411.0000 1.0000
44.7500 419.0000 1.0000
44.7600 401.0000 1.0000
44.7700 401.0000 1.0000
44.7800 405.0000 1.0000
44.7900 389.0000 1.0000
44.8000 397.0000 1.0000
44.8100 459.0000 1.0000
44.8200 441.0000 1.0000
44.8300 424.0000 1.0000
44.8400 421.0000 1.0000
44.8500 399.0000 1.0000
44.8600 449.0000 1.0000
44.8700 430.0000 1.0000
44.8800 442.0000 1.0000
44.8900 452.0000 1.0000
44.9000 429.0000 1.0000
44.9100 418.0000 1.0000
44.9200 396.0000 1.0000
44.9300 410.0000 1.0000
44.9400 435.0000 1.0000
44.9500 417.0000 1.0000
44.9600 413.0000 1.0000
44.9700 411.0000 1.0000
44.9800 396.0000 1.0000
44.9900 447.0000 1.0000
45.0000 408.0000 1.0000
45.0100 417.0000 1.0000
45.0200 415.0000 1.0000
45.0300 389.0000 1.0000
45.0400 388.0000 1.0000
45.0500 387.0000 1.0000
45.0600 386.0000 1.0000
45.0700 428.0000 1.0000
45.0800 417.0000 1.0000
45.0900 402.0000 1.0000
45.1000 406.0000 1.0000
45.1100 401.0000 1.0000
45.1200 441.0000 1.0000
45.1300 393.0000 1.0000
45.1400 432.0000 1.0000
45.1500 389.0000 1.0000
45.1600 402.0000 1.0000
45.1700 420.0000 1.0000
45.1800 423.0000 1.0000
45.1900 419.0000 1.0000
45.2000 416.0000 1.0000
45.2100 422.0000 1.0000
45.2200 429.0000 1.0000
45.2300 421.0000 1.0000
45.2400 420.0000 1.0000
45.2500 414.0000 1.0000
45.2600 430.0000 1.0000
45.2700 391.0000 1.0000
45.2800 393.0000 1.0000
45.2900 400.0000 1.0000
45.3000 405.0000 1.0000
45.3100 400.0000 1.0000
45.3200 442.0000 1.0000
45.3300 371.0000 1.0000
45.3400 448.0000 1.0000
45.3500 428.0000 1.0000
45.3600 430.0000 1.0000
45.3700 426.0000 1.0000
45.3800 404.0000 1.0000
45.3900 393.0000 1.0000
45.4000 399.0000 1.0000
45.4100 362.0000 1.0000
45.4200 403.0000 1.0000
45.4300 394.0000 1.0000
45.4400 395.0000 1.0000
45.4500 402.0000 1.0000
45.4600 414.0000 1.0000
45.4700 435.0000 1.0000
45.4800 412.0000 1.0000
45.4900 428.0000 1.0000
45.5000 409.0000 1.0000
45.5100 422.0000 1.0000
45.5200 425.0000 1.0000
45.5300 406.0000 1.0000
45.5400 407.0000 1.0000
45.5500 406.0000 1.0000
45.5600 398.0000 1.0000
45.5700 392.0000 1.0000
45.5800 409.0000 1.0000
45.5900 392.0000 1.0000
45.6000 407.0000 1.0000
45.6100 379.0000 1.0000
45.6200 400.0000 1.0000
45.6300 412.0000 1.0000
45.6400 415.0000 1.0000
45.6500 421.0000 1.0000
45.6600 435.0000 1.0000
45.6700 416.0000 1.0000
45.6800 398.0000 1.0000
45.6900 400.0000 1.0000
45.7000 429.0000 1.0000
45.7100 408.0000 1.0000
45.7200 405.0000 1.0000
45.7300 431.0000 1.0000
45.7400 415.0000 1.0000
45.7500 440.0000 1.0000
45.7600 433.0000 1.0000
45.7700 396.0000 1.0000
45.7800 401.0000 1.0000
45.7900 422.0000 1.0000
45.8000 418.0000 1.0000
45.8100 397.0000 1.0000
45.8200 421.0000 1.0000
45.8300 370.0000 1.0000
45.8400 410.0000 1.0000
45.8500 448.0000 1.0000
45.8600 445.0000 1.0000
45.8700 428.0000 1.0000
45.8800 420.0000 1.0000
45.8900 422.0000 1.0000
45.9000 424.0000 1.0000
45.9100 423.0000 1.0000
45.9200 404.0000 1.0000
45.9300 401.0000 1.0000
45.9400 411.0000 1.0000
45.9500 446.0000 1.0000
45.9600 433.0000 1.0000
45.9700 401.0000 1.0000
45.9800 435.0000 1.0000
45.9900 429.0000 1.0000
46.0000 402.0000 1.0000
46.0100 411.0000 1.0000
46.0200 361.0000 1.0000
46.0300 401.0000 1.0000
46.0400 447.0000 1.0000
46.0500 418.0000 1.0000
46.0600 433.0000 1.0000
46.0700 449.0000 1.0000
46.0800 421.0000 1.0000
46.0900 429.0000 1.0000
46.1000 432.0000 1.0000
46.1100 436.0000 1.0000
46.1200 411.0000 1.0000
46.1300 407.0000 1.0000
46.1400 419.0000 1.0000
46.1500 404.0000 1.0000
46.1600 392.0000 1.0000
46.1700 437.0000 1.0000
46.1800 463.0000 1.0000
46.1900 405.0000 1.0000
46.2000 402.0000 1.0000
46.2100 427.0000 1.0000
46.2200 399.0000 1.0000
46.2300 427.0000 1.0000
46.2400 438.0000 1.0000
46.2500 435.0000 1.0000
46.2600 411.0000 1.0000
46.2700 410.0000 1.0000
46.2800 437.0000 1.0000
46.2900 391.0000 1.0000
46.3000 420.0000 1.0000
46.3100 428.0000 1.0000
46.3200 425.0000 1.0000
46.3300 415.0000 1.0000
46.3400 423.0000 1.0000
46.3500 421.0000 1.0000
46.3600 454.0000 1.0000
46.3700 392.0000 1.0000
46.3800 420.0000 1.0000
46.3900 369.0000 1.0000
46.4000 388.0000 1.0000
46.4100 404.0000 1.0000
46.4200 412.0000 1.0000
46.4300 397.0000 1.0000
46.4400 383.0000 1.0000
46.4500 419.0000 1.0000
46.4600 408.0000 1.0000
46.4700 413.0000 1.0000
46.4800 394.0000 1.0000
46.4900 396.0000 1.0000
46.5000 392.0000 1.0000
46.5100 400.0000 1.0000
46.5200 401.0000 1.0000
46.5300 402.0000 1.0000
46.5400 401.0000 1.0000
46.5500 413.0000 1.0000
46.5600 409.0000 1.0000
46.5700 391.0000 1.0000
46.5800 375.0000 1.0000
46.5900 365.0000 1.0000
46.6000 376.0000 1.0000
46.6100 406.0000 1.0000
46.6200 419.0000 1.0000
46.6300 420.0000 1.0000
46.6400 383.0000 1.0000
46.6500 386.0000 1.0000
46.6600 395.0000 1.0000
46.6700 390.0000 1.0000
46.6800 383.0000 1.0000
46.6900 396.0000 1.0000
46.7000 416.0000 1.0000
46.7100 355.0000 1.0000
46.7200 381.0000 1.0000
46.7300 408.0000 1.0000
46.7400 407.0000 1.0000
46.7500 398.0000 1.0000
46.7600 411.0000 1.0000
46.7700 381.0000 1.0000
46.7800 401.0000 1.0000
46.7900 408.0000 1.0000
46.8000 381.0000 1.0000
46.8100 411.0000 1.0000
46.8200 390.0000 1.0000
46.8300 425.0000 1.0000
46.8400 416.0000 1.0000
46.8500 433.0000 1.0000
46.8600 395.0000 1.0000
46.8700 385.0000 1.0000
46.8800 401.0000 1.0000
46.8900 413.0000 1.0000
46.9000 420.0000 1.0000
46.9100 398.0000 1.0000
46.9200 414.0000 1.0000
46.9300 424.0000 1.0000
46.9400 408.0000 1.0000
46.9500 415.0000 1.0000
46.9600 433.0000 1.0000
46.9700 419.0000 1.0000
46.9800 397.0000 1.0000
46.9900 409.0000 1.0000
47.0000 395.0000 1.0000
47.0100 407.0000 1.0000
47.0200 417.0000 1.0000
47.0300 401.0000 1.0000
47.0400 402.0000 1.0000
47.0500 343.0000 1.0000
47.0600 399.0000 1.0000
47.0700 432.0000 1.0000
47.0800 418.0000 1.0000
47.0900 394.0000 1.0000
47.1000 389.0000 1.0000
47.1100 390.0000 1.0000
47.1200 405.0000 1.0000
47.1300 406.0000 1.0000
47.1400 360.0000 1.0000
47.1500 388.0000 1.0000
47.1600 386.0000 1.0000
47.1700 386.0000 1.0000
47.1800 417.0000 1.0000
47.1900 392.0000 1.0000
47.2000 408.0000 1.0000
47.2100 428.0000 1.0000
47.2200 414.0000 1.0000
47.2300 404.0000 1.0000
47.2400 376.0000 1.0000
47.2500 378.0000 1.0000
47.2600 405.0000 1.0000
47.2700 338.0000 1.0000
47.2800 415.0000 1.0000
47.2900 373.0000 1.0000
47.3000 363.0000 1.0000
47.3100 385.0000 1.0000
47.3200 395.0000 1.0000
47.3300 394.0000 1.0000
47.3400 343.0000 1.0000
47.3500 390.0000 1.0000
47.3600 379.0000 1.0000
47.3700 380.0000 1.0000
47.3800 400.0000 1.0000
47.3900 381.0000 1.0000
47.4000 424.0000 1.0000
47.4100 397.0000 1.0000
47.4200 401.0000 1.0000
47.4300 406.0000 1.0000
47.4400 361.0000 1.0000
47.4500 378.0000 1.0000
47.4600 407.0000 1.0000
47.4700 385.0000 1.0000
47.4800 372.0000 1.0000
47.4900 390.0000 1.0000
47.5000 403.0000 1.0000
47.5100 401.0000 1.0000
47.5200 386.0000 1.0000
47.5300 399.0000 1.0000
47.5400 415.0000 1.0000
47.5500 405.0000 1.0000
47.5600 403.0000 1.0000
47.5700 406.0000 1.0000
47.5800 388.0000 1.0000
47.5900 394.0000 1.0000
47.6000 374.0000 1.0000
47.6100 375.0000 1.0000
47.6200 384.0000 1.0000
47.6300 404.0000 1.0000
47.6400 421.0000 1.0000
47.6500 398.0000 1.0000
47.6600 381.0000 1.0000
47.6700 408.0000 1.0000
47.6800 397.0000 1.0000
47.6900 425.0000 1.0000
47.7000 387.0000 1.0000
47.7100 390.0000 1.0000
47.7200 385.0000 1.0000
47.7300 377.0000 1.0000
47.7400 408.0000 1.0000
47.7500 373.0000 1.0000
47.7600 363.0000 1.0000
47.7700 376.0000 1.0000
47.7800 391.0000 1.0000
47.7900 379.0000 1.0000
47.8000 373.0000 1.0000
47.8100 388.0000 1.0000
47.8200 383.0000 1.0000
47.8300 383.0000 1.0000
47.8400 415.0000 1.0000
47.8500 391.0000 1.0000
47.8600 413.0000 1.0000
47.8700 430.0000 1.0000
47.8800 380.0000 1.0000
47.8900 375.0000 1.0000
47.9000 411.0000 1.0000
47.9100 399.0000 1.0000
47.9200 380.0000 1.0000
47.9300 388.0000 1.0000
47.9400 406.0000 1.0000
47.9500 402.0000 1.0000
47.9600 399.0000 1.0000
47.9700 388.0000 1.0000
47.9800 370.0000 1.0000
47.9900 375.0000 1.0000
48.0000 354.0000 1.0000
48.0100 379.0000 1.0000
48.0200 409.0000 1.0000
48.0300 375.0000 1.0000
48.0400 365.0000 1.0000
48.0500 358.0000 1.0000
48.0600 377.0000 1.0000
48.0700 391.0000 1.0000
48.0800 416.0000 1.0000
48.0900 377.0000 1.0000
48.1000 412.0000 1.0000
48.1100 369.0000 1.0000
48.1200 382.0000 1.0000
48.1300 377.0000 1.0000
48.1400 379.0000 1.0000
48.1500 388.0000 1.0000
48.1600 388.0000 1.0000
48.1700 388.0000 1.0000
48.1800 374.0000 1.0000
48.1900 378.0000 1.0000
48.2000 386.0000 1.0000
48.2100 375.0000 1.0000
48.2200 380.0000 1.0000
48.2300 401.0000 1.0000
48.2400 403.0000 1.0000
48.2500 389.0000 1.0000
48.2600 367.0000 1.0000
48.2700 380.0000 1.0000
48.2800 401.0000 1.0000
48.2900 382.0000 1.0000
48.3000 383.0000 1.0000
48.3100 368.0000 1.0000
48.3200 394.0000 1.0000
48.3300 348.0000 1.0000
48.3400 387.0000 1.0000
48.3500 393.0000 1.0000
48.3600 387.0000 1.0000
48.3700 355.0000 1.0000
48.3800 357.0000 1.0000
48.3900 382.0000 1.0000
48.4000 382.0000 1.0000
48.4100 380.0000 1.0000
48.4200 399.0000 1.0000
48.4300 370.0000 1.0000
48.4400 397.0000 1.0000
48.4500 403.0000 1.0000
48.4600 374.0000 1.0000
48.4700 395.0000 1.0000
48.4800 405.0000 1.0000
48.4900 407.0000 1.0000
48.5000 395.0000 1.0000
48.5100 395.0000 1.0000
48.5200 361.0000 1.0000
48.5300 375.0000 1.0000
48.5400 342.0000 1.0000
48.5500 375.0000 1.0000
48.5600 378.0000 1.0000
48.5700 385.0000 1.0000
48.5800 379.0000 1.0000
48.5900 398.0000 1.0000
48.6000 368.0000 1.0000
48.6100 382.0000 1.0000
48.6200 403.0000 1.0000
48.6300 359.0000 1.0000
48.6400 351.0000 1.0000
48.6500 427.0000 1.0000
48.6600 406.0000 1.0000
48.6700 407.0000 1.0000
48.6800 369.0000 1.0000
48.6900 379.0000 1.0000
48.7000 370.0000 1.0000
48.7100 398.0000 1.0000
48.7200 370.0000 1.0000
48.7300 379.0000 1.0000
48.7400 380.0000 1.0000
48.7500 389.0000 1.0000
48.7600 369.0000 1.0000
48.7700 368.0000 1.0000
48.7800 388.0000 1.0000
48.7900 384.0000 1.0000
48.8000 384.0000 1.0000
48.8100 398.0000 1.0000
48.8200 398.0000 1.0000
48.8300 381.0000 1.0000
48.8400 370.0000 1.0000
48.8500 387.0000 1.0000
48.8600 384.0000 1.0000
48.8700 384.0000 1.0000
48.8800 382.0000 1.0000
48.8900 398.0000 1.0000
48.9000 362.0000 1.0000
48.9100 369.0000 1.0000
48.9200 397.0000 1.0000
48.9300 376.0000 1.0000
48.9400 406.0000 1.0000
48.9500 409.0000 1.0000
48.9600 413.0000 1.0000
48.9700 387.0000 1.0000
48.9800 387.0000 1.0000
48.9900 389.0000 1.0000
49.0000 388.0000 1.0000
49.0100 377.0000 1.0000
49.0200 367.0000 1.0000
49.0300 397.0000 1.0000
49.0400 411.0000 1.0000
49.0500 395.0000 1.0000
49.0600 401.0000 1.0000
49.0700 381.0000 1.0000
49.0800 399.0000 1.0000
49.0900 397.0000 1.0000
49.1000 408.0000 1.0000
49.1100 380.0000 1.0000
49.1200 360.0000 1.0000
49.1300 374.0000 1.0000
49.1400 379.0000 1.0000
49.1500 393.0000 1.0000
49.1600 388.0000 1.0000
49.1700 398.0000 1.0000
49.1800 373.0000 1.0000
49.1900 383.0000 1.0000
49.2000 409.0000 1.0000
49.2100 379.0000 1.0000
49.2200 390.0000 1.0000
49.2300 412.0000 1.0000
49.2400 387.0000 1.0000
49.2500 419.0000 1.0000
49.2600 376.0000 1.0000
49.2700 401.0000 1.0000
49.2800 405.0000 1.0000
49.2900 398.0000 1.0000
49.3000 438.0000 1.0000
49.3100 411.0000 1.0000
49.3200 476.0000 1.0000
49.3300 415.0000 1.0000
49.3400 392.0000 1.0000
49.3500 413.0000 1.0000
49.3600 443.0000 1.0000
49.3700 449.0000 1.0000
49.3800 417.0000 1.0000
49.3900 448.0000 1.0000
49.4000 443.0000 1.0000
49.4100 430.0000 1.0000
49.4200 422.0000 1.0000
49.4300 463.0000 1.0000
49.4400 422.0000 1.0000
49.4500 434.0000 1.0000
49.4600 443.0000 1.0000
49.4700 457.0000 1.0000
49.4800 449.0000 1.0000
49.4900 445.0000 1.0000
49.5000 399.0000 1.0000
49.5100 433.0000 1.0000
49.5200 424.0000 1.0000
49.5300 430.0000 1.0000
49.5400 416.0000 1.0000
49.5500 415.0000 1.0000
49.5600 427.0000 1.0000
49.5700 412.0000 1.0000
49.5800 439.0000 1.0000
49.5900 432.0000 1.0000
49.6000 398.0000 1.0000
49.6100 436.0000 1.0000
49.6200 406.0000 1.0000
49.6300 400.0000 1.0000
49.6400 412.0000 1.0000
49.6500 397.0000 1.0000
49.6600 418.0000 1.0000
49.6700 374.0000 1.0000
49.6800 371.0000 1.0000
49.6900 362.0000 1.0000
49.7000 425.0000 1.0000
49.7100 387.0000 1.0000
49.7200 383.0000 1.0000
49.7300 397.0000 1.0000
49.7400 432.0000 1.0000
49.7500 370.0000 1.0000
49.7600 441.0000 1.0000
49.7700 395.0000 1.0000
49.7800 381.0000 1.0000
49.7900 365.0000 1.0000
49.8000 389.0000 1.0000
49.8100 376.0000 1.0000
49.8200 358.0000 1.0000
49.8300 394.0000 1.0000
49.8400 369.0000 1.0000
49.8500 389.0000 1.0000
49.8600 376.0000 1.0000
49.8700 376.0000 1.0000
49.8800 391.0000 1.0000
49.8900 378.0000 1.0000
49.9000 349.0000 1.0000
49.9100 382.0000 1.0000
49.9200 374.0000 1.0000
49.9300 391.0000 1.0000
49.9400 421.0000 1.0000
49.9500 365.0000 1.0000
49.9600 427.0000 1.0000
49.9700 387.0000 1.0000
49.9800 370.0000 1.0000
49.9900 387.0000 1.0000
50.0000 368.0000 1.0000
50.0100 382.0000 1.0000
50.0200 387.0000 1.0000
50.0300 385.0000 1.0000
50.0400 367.0000 1.0000
50.0500 388.0000 1.0000
50.0600 390.0000 1.0000
50.0700 359.0000 1.0000
50.0800 375.0000 1.0000
50.0900 407.0000 1.0000
50.1000 424.0000 1.0000
50.1100 375.0000 1.0000
50.1200 408.0000 1.0000
50.1300 402.0000 1.0000
50.1400 397.0000 1.0000
50.1500 424.0000 1.0000
50.1600 370.0000 1.0000
50.1700 395.0000 1.0000
50.1800 363.0000 1.0000
50.1900 365.0000 1.0000
50.2000 385.0000 1.0000
50.2100 389.0000 1.0000
50.2200 383.0000 1.0000
50.2300 381.0000 1.0000
50.2400 370.0000 1.0000
50.2500 392.0000 1.0000
50.2600 412.0000 1.0000
50.2700 405.0000 1.0000
50.2800 359.0000 1.0000
50.2900 399.0000 1.0000
50.3000 391.0000 1.0000
50.3100 372.0000 1.0000
50.3200 383.0000 1.0000
50.3300 382.0000 1.0000
50.3400 359.0000 1.0000
50.3500 373.0000 1.0000
50.3600 373.0000 1.0000
50.3700 399.0000 1.0000
50.3800 405.0000 1.0000
50.3900 395.0000 1.0000
50.4000 375.0000 1.0000
50.4100 406.0000 1.0000
50.4200 369.0000 1.0000
50.4300 393.0000 1.0000
50.4400 388.0000 1.0000
50.4500 361.0000 1.0000
50.4600 357.0000 1.0000
50.4700 381.0000 1.0000
50.4800 400.0000 1.0000
50.4900 382.0000 1.0000
50.5000 397.0000 1.0000
50.5100 388.0000 1.0000
50.5200 394.0000 1.0000
50.5300 432.0000 1.0000
50.5400 397.0000 1.0000
50.5500 411.0000 1.0000
50.5600 392.0000 1.0000
50.5700 387.0000 1.0000
50.5800 399.0000 1.0000
50.5900 393.0000 1.0000
50.6000 394.0000 1.0000
50.6100 344.0000 1.0000
50.6200 372.0000 1.0000
50.6300 414.0000 1.0000
50.6400 380.0000 1.0000
50.6500 376.0000 1.0000
50.6600 419.0000 1.0000
50.6700 415.0000 1.0000
50.6800 388.0000 1.0000
50.6900 348.0000 1.0000
50.7000 391.0000 1.0000
50.7100 403.0000 1.0000
50.7200 421.0000 1.0000
50.7300 390.0000 1.0000
50.7400 377.0000 1.0000
50.7500 391.0000 1.0000
50.7600 381.0000 1.0000
50.7700 381.0000 1.0000
50.7800 393.0000 1.0000
50.7900 407.0000 1.0000
50.8000 412.0000 1.0000
50.8100 399.0000 1.0000
50.8200 425.0000 1.0000
50.8300 439.0000 1.0000
50.8400 430.0000 1.0000
50.8500 417.0000 1.0000
50.8600 391.0000 1.0000
50.8700 401.0000 1.0000
50.8800 417.0000 1.0000
50.8900 389.0000 1.0000
50.9000 372.0000 1.0000
50.9100 389.0000 1.0000
50.9200 394.0000 1.0000
50.9300 387.0000 1.0000
50.9400 451.0000 1.0000
50.9500 415.0000 1.0000
50.9600 399.0000 1.0000
50.9700 423.0000 1.0000
50.9800 412.0000 1.0000
50.9900 429.0000 1.0000
51.0000 433.0000 1.0000
51.0100 387.0000 1.0000
51.0200 407.0000 1.0000
51.0300 419.0000 1.0000
51.0400 410.0000 1.0000
51.0500 458.0000 1.0000
51.0600 460.0000 1.0000
51.0700 469.0000 1.0000
51.0800 453.0000 1.0000
51.0900 473.0000 1.0000
51.1000 492.0000 1.0000
51.1100 482.0000 1.0000
51.1200 487.0000 1.0000
51.1300 500.0000 1.0000
51.1400 510.0000 1.0000
51.1500 516.0000 1.0000
51.1600 515.0000 1.0000
51.1700 537.0000 1.0000
51.1800 565.0000 1.0000
51.1900 568.0000 1.0000
51.2000 637.0000 1.0000
51.2100 594.0000 1.0000
51.2200 611.0000 1.0000
51.2300 633.0000 1.0000
51.2400 686.0000 1.0000
51.2500 663.0000 1.0000
51.2600 686.0000 1.0000
51.2700 789.0000 1.0000
51.2800 763.0000 1.0000
51.2900 831.0000 1.0000
51.3000 849.0000 1.0000
51.3100 865.0000 1.0000
51.3200 1057.0000 1.0000
51.3300 1066.0000 1.0000
51.3400 1111.0000 1.0000
51.3500 1190.0000 1.0000
51.3600 1268.0000 1.0000
51.3700 1410.0000 1.0000
51.3800 1507.0000 1.0000
51.3900 1689.0000 1.0000
51.4000 1762.0000 1.0000
51.4100 1900.0000 1.0000
51.4200 2072.0000 1.0000
51.4300 2166.0000 1.0000
51.4400 2349.0000 1.0000
51.4500 2345.0000 1.0000
51.4600 2435.0000 1.0000
51.4700 2574.0000 1.0000
51.4800 2600.0000 1.0000
51.4900 2511.0000 1.0000
51.5000 2573.0000 1.0000
51.5100 2580.0000 1.0000
51.5200 2566.0000 1.0000
51.5300 2521.0000 1.0000
51.5400 2419.0000 1.0000
51.5500 2270.0000 1.0000
51.5600 2246.0000 1.0000
51.5700 2150.0000 1.0000
51.5800 2026.0000 1.0000
51.5900 1999.0000 1.0000
51.6000 1971.0000 1.0000
51.6100 1819.0000 1.0000
51.6200 1836.0000 1.0000
51.6300 1760.0000 1.0000
51.6400 1695.0000 1.0000
51.6500 1630.0000 1.0000
51.6600 1559.0000 1.0000
51.6700 1410.0000 1.0000
51.6800 1313.0000 1.0000
51.6900 1282.0000 1.0000
51.7000 1188.0000 1.0000
51.7100 1101.0000 1.0000
51.7200 1043.0000 1.0000
51.7300 933.0000 1.0000
51.7400 941.0000 1.0000
51.7500 856.0000 1.0000
51.7600 777.0000 1.0000
51.7700 754.0000 1.0000
51.7800 753.0000 1.0000
51.7900 698.0000 1.0000
51.8000 669.0000 1.0000
51.8100 668.0000 1.0000
51.8200 631.0000 1.0000
51.8300 578.0000 1.0000
51.8400 598.0000 1.0000
51.8500 612.0000 1.0000
51.8600 523.0000 1.0000
51.8700 565.0000 1.0000
51.8800 523.0000 1.0000
51.8900 495.0000 1.0000
51.9000 521.0000 1.0000
51.9100 494.0000 1.0000
51.9200 487.0000 1.0000
51.9300 492.0000 1.0000
51.9400 466.0000 1.0000
51.9500 502.0000 1.0000
51.9600 480.0000 1.0000
51.9700 463.0000 1.0000
51.9800 456.0000 1.0000
51.9900 447.0000 1.0000
52.0000 476.0000 1.0000
52.0100 436.0000 1.0000
52.0200 465.0000 1.0000
52.0300 431.0000 1.0000
52.0400 458.0000 1.0000
52.0500 465.0000 1.0000
52.0600 419.0000 1.0000
52.0700 425.0000 1.0000
52.0800 442.0000 1.0000
52.0900 450.0000 1.0000
52.1000 440.0000 1.0000
52.1100 432.0000 1.0000
52.1200 447.0000 1.0000
52.1300 421.0000 1.0000
52.1400 409.0000 1.0000
52.1500 415.0000 1.0000
52.1600 424.0000 1.0000
52.1700 403.0000 1.0000
52.1800 400.0000 1.0000
52.1900 397.0000 1.0000
52.2000 401.0000 1.0000
52.2100 386.0000 1.0000
52.2200 411.0000 1.0000
52.2300 393.0000 1.0000
52.2400 400.0000 1.0000
52.2500 397.0000 1.0000
52.2600 409.0000 1.0000
52.2700 393.0000 1.0000
52.2800 395.0000 1.0000
52.2900 399.0000 1.0000
52.3000 403.0000 1.0000
52.3100 359.0000 1.0000
52.3200 403.0000 1.0000
52.3300 388.0000 1.0000
52.3400 398.0000 1.0000
52.3500 398.0000 1.0000
52.3600 395.0000 1.0000
52.3700 410.0000 1.0000
52.3800 388.0000 1.0000
52.3900 397.0000 1.0000
52.4000 388.0000 1.0000
52.4100 384.0000 1.0000
52.4200 389.0000 1.0000
52.4300 389.0000 1.0000
52.4400 383.0000 1.0000
52.4500 394.0000 1.0000
52.4600 384.0000 1.0000
52.4700 373.0000 1.0000
52.4800 381.0000 1.0000
52.4900 385.0000 1.0000
52.5000 378.0000 1.0000
52.5100 372.0000 1.0000
52.5200 371.0000 1.0000
52.5300 388.0000 1.0000
52.5400 378.0000 1.0000
52.5500 380.0000 1.0000
52.5600 386.0000 1.0000
52.5700 390.0000 1.0000
52.5800 388.0000 1.0000
52.5900 377.0000 1.0000
52.6000 351.0000 1.0000
52.6100 353.0000 1.0000
52.6200 357.0000 1.0000
52.6300 401.0000 1.0000
52.6400 378.0000 1.0000
52.6500 360.0000 1.0000
52.6600 368.0000 1.0000
52.6700 389.0000 1.0000
52.6800 375.0000 1.0000
52.6900 366.0000 1.0000
52.7000 386.0000 1.0000
52.7100 378.0000 1.0000
52.7200 388.0000 1.0000
52.7300 379.0000 1.0000
52.7400 386.0000 1.0000
52.7500 351.0000 1.0000
52.7600 394.0000 1.0000
52.7700 350.0000 1.0000
52.7800 398.0000 1.0000
52.7900 386.0000 1.0000
52.8000 401.0000 1.0000
52.8100 400.0000 1.0000
52.8200 386.0000 1.0000
52.8300 353.0000 1.0000
52.8400 377.0000 1.0000
52.8500 363.0000 1.0000
52.8600 379.0000 1.0000
52.8700 387.0000 1.0000
52.8800 395.0000 1.0000
52.8900 387.0000 1.0000
52.9000 371.0000 1.0000
52.9100 382.0000 1.0000
52.9200 377.0000 1.0000
52.9300 387.0000 1.0000
52.9400 379.0000 1.0000
52.9500 411.0000 1.0000
52.9600 383.0000 1.0000
52.9700 386.0000 1.0000
52.9800 356.0000 1.0000
52.9900 347.0000 1.0000
53.0000 346.0000 1.0000
53.0100 356.0000 1.0000
53.0200 349.0000 1.0000
53.0300 369.0000 1.0000
53.0400 378.0000 1.0000
53.0500 391.0000 1.0000
53.0600 376.0000 1.0000
53.0700 354.0000 1.0000
53.0800 387.0000 1.0000
53.0900 406.0000 1.0000
53.1000 377.0000 1.0000
53.1100 359.0000 1.0000
53.1200 359.0000 1.0000
53.1300 369.0000 1.0000
53.1400 392.0000 1.0000
53.1500 372.0000 1.0000
53.1600 355.0000 1.0000
53.1700 386.0000 1.0000
53.1800 393.0000 1.0000
53.1900 351.0000 1.0000
53.2000 359.0000 1.0000
53.2100 372.0000 1.0000
53.2200 376.0000 1.0000
53.2300 406.0000 1.0000
53.2400 364.0000 1.0000
53.2500 389.0000 1.0000
53.2600 379.0000 1.0000
53.2700 405.0000 1.0000
53.2800 371.0000 1.0000
53.2900 342.0000 1.0000
53.3000 378.0000 1.0000
53.3100 352.0000 1.0000
53.3200 350.0000 1.0000
53.3300 369.0000 1.0000
53.3400 347.0000 1.0000
53.3500 363.0000 1.0000
53.3600 351.0000 1.0000
53.3700 338.0000 1.0000
53.3800 367.0000 1.0000
53.3900 349.0000 1.0000
53.4000 379.0000 1.0000
53.4100 372.0000 1.0000
53.4200 343.0000 1.0000
53.4300 347.0000 1.0000
53.4400 365.0000 1.0000
53.4500 380.0000 1.0000
53.4600 364.0000 1.0000
53.4700 368.0000 1.0000
53.4800 377.0000 1.0000
53.4900 390.0000 1.0000
53.5000 370.0000 1.0000
53.5100 383.0000 1.0000
53.5200 384.0000 1.0000
53.5300 381.0000 1.0000
53.5400 368.0000 1.0000
53.5500 357.0000 1.0000
53.5600 366.0000 1.0000
53.5700 374.0000 1.0000
53.5800 355.0000 1.0000
53.5900 375.0000 1.0000
53.6000 378.0000 1.0000
53.6100 354.0000 1.0000
53.6200 377.0000 1.0000
53.6300 365.0000 1.0000
53.6400 404.0000 1.0000
53.6500 361.0000 1.0000
53.6600 378.0000 1.0000
53.6700 369.0000 1.0000
53.6800 361.0000 1.0000
53.6900 361.0000 1.0000
53.7000 372.0000 1.0000
53.7100 350.0000 1.0000
53.7200 389.0000 1.0000
53.7300 342.0000 1.0000
53.7400 349.0000 1.0000
53.7500 359.0000 1.0000
53.7600 365.0000 1.0000
53.7700 351.0000 1.0000
53.7800 362.0000 1.0000
53.7900 406.0000 1.0000
53.8000 367.0000 1.0000
53.8100 409.0000 1.0000
53.8200 401.0000 1.0000
53.8300 388.0000 1.0000
53.8400 390.0000 1.0000
53.8500 388.0000 1.0000
53.8600 381.0000 1.0000
53.8700 373.0000 1.0000
53.8800 407.0000 1.0000
53.8900 400.0000 1.0000
53.9000 379.0000 1.0000
53.9100 442.0000 1.0000
53.9200 425.0000 1.0000
53.9300 445.0000 1.0000
53.9400 446.0000 1.0000
53.9500 420.0000 1.0000
53.9600 437.0000 1.0000
53.9700 429.0000 1.0000
53.9800 402.0000 1.0000
53.9900 429.0000 1.0000
54.0000 461.0000 1.0000
54.0100 431.0000 1.0000
54.0200 465.0000 1.0000
54.0300 452.0000 1.0000
54.0400 423.0000 1.0000
54.0500 430.0000 1.0000
54.0600 448.0000 1.0000
54.0700 459.0000 1.0000
54.0800 421.0000 1.0000
54.0900 431.0000 1.0000
54.1000 436.0000 1.0000
54.1100 443.0000 1.0000
54.1200 424.0000 1.0000
54.1300 391.0000 1.0000
54.1400 435.0000 1.0000
54.1500 427.0000 1.0000
54.1600 426.0000 1.0000
54.1700 436.0000 1.0000
54.1800 447.0000 1.0000
54.1900 439.0000 1.0000
54.2000 450.0000 1.0000
54.2100 413.0000 1.0000
54.2200 443.0000 1.0000
54.2300 431.0000 1.0000
54.2400 425.0000 1.0000
54.2500 430.0000 1.0000
54.2600 427.0000 1.0000
54.2700 436.0000 1.0000
54.2800 434.0000 1.0000
54.2900 457.0000 1.0000
54.3000 473.0000 1.0000
54.3100 444.0000 1.0000
54.3200 447.0000 1.0000
54.3300 458.0000 1.0000
54.3400 470.0000 1.0000
54.3500 435.0000 1.0000
54.3600 464.0000 1.0000
54.3700 497.0000 1.0000
54.3800 480.0000 1.0000
54.3900 489.0000 1.0000
54.4000 491.0000 1.0000
54.4100 508.0000 1.0000
54.4200 508.0000 1.0000
54.4300 540.0000 1.0000
54.4400 542.0000 1.0000
54.4500 544.0000 1.0000
54.4600 520.0000 1.0000
54.4700 544.0000 1.0000
54.4800 580.0000 1.0000
54.4900 579.0000 1.0000
54.5000 579.0000 1.0000
54.5100 586.0000 1.0000
54.5200 597.0000 1.0000
54.5300 550.0000 1.0000
54.5400 607.0000 1.0000
54.5500 581.0000 1.0000
54.5600 582.0000 1.0000
54.5700 581.0000 1.0000
54.5800 588.0000 1.0000
54.5900 569.0000 1.0000
54.6000 560.0000 1.0000
54.6100 548.0000 1.0000
54.6200 536.0000 1.0000
54.6300 522.0000 1.0000
54.6400 515.0000 1.0000
54.6500 553.0000 1.0000
54.6600 522.0000 1.0000
54.6700 515.0000 1.0000
54.6800 489.0000 1.0000
54.6900 471.0000 1.0000
54.7000 471.0000 1.0000
54.7100 467.0000 1.0000
54.7200 430.0000 1.0000
54.7300 489.0000 1.0000
54.7400 450.0000 1.0000
54.7500 456.0000 1.0000
54.7600 424.0000 1.0000
54.7700 419.0000 1.0000
54.7800 427.0000 1.0000
54.7900 435.0000 1.0000
54.8000 394.0000 1.0000
54.8100 408.0000 1.0000
54.8200 442.0000 1.0000
54.8300 413.0000 1.0000
54.8400 408.0000 1.0000
54.8500 413.0000 1.0000
54.8600 446.0000 1.0000
54.8700 439.0000 1.0000
54.8800 382.0000 1.0000
54.8900 390.0000 1.0000
54.9000 379.0000 1.0000
54.9100 372.0000 1.0000
54.9200 406.0000 1.0000
54.9300 387.0000 1.0000
54.9400 396.0000 1.0000
54.9500 387.0000 1.0000
54.9600 398.0000 1.0000
54.9700 384.0000 1.0000
54.9800 391.0000 1.0000
54.9900 391.0000 1.0000
55.0000 345.0000 1.0000
55.0100 378.0000 1.0000
55.0200 363.0000 1.0000
55.0300 383.0000 1.0000
55.0400 410.0000 1.0000
55.0500 372.0000 1.0000
55.0600 367.0000 1.0000
55.0700 352.0000 1.0000
55.0800 373.0000 1.0000
55.0900 361.0000 1.0000
55.1000 381.0000 1.0000
55.1100 398.0000 1.0000
55.1200 357.0000 1.0000
55.1300 380.0000 1.0000
55.1400 390.0000 1.0000
55.1500 366.0000 1.0000
55.1600 378.0000 1.0000
55.1700 371.0000 1.0000
55.1800 346.0000 1.0000
55.1900 389.0000 1.0000
55.2000 365.0000 1.0000
55.2100 390.0000 1.0000
55.2200 398.0000 1.0000
55.2300 380.0000 1.0000
55.2400 391.0000 1.0000
55.2500 370.0000 1.0000
55.2600 353.0000 1.0000
55.2700 393.0000 1.0000
55.2800 388.0000 1.0000
55.2900 358.0000 1.0000
55.3000 348.0000 1.0000
55.3100 371.0000 1.0000
55.3200 374.0000 1.0000
55.3300 323.0000 1.0000
55.3400 354.0000 1.0000
55.3500 385.0000 1.0000
55.3600 390.0000 1.0000
55.3700 341.0000 1.0000
55.3800 349.0000 1.0000
55.3900 300.0000 1.0000
55.4000 339.0000 1.0000
55.4100 375.0000 1.0000
55.4200 361.0000 1.0000
55.4300 356.0000 1.0000
55.4400 376.0000 1.0000
55.4500 339.0000 1.0000
55.4600 364.0000 1.0000
55.4700 344.0000 1.0000
55.4800 348.0000 1.0000
55.4900 350.0000 1.0000
55.5000 345.0000 1.0000
55.5100 357.0000 1.0000
55.5200 329.0000 1.0000
55.5300 353.0000 1.0000
55.5400 379.0000 1.0000
55.5500 339.0000 1.0000
55.5600 350.0000 1.0000
55.5700 360.0000 1.0000
55.5800 367.0000 1.0000
55.5900 353.0000 1.0000
55.6000 331.0000 1.0000
55.6100 369.0000 1.0000
55.6200 343.0000 1.0000
55.6300 333.0000 1.0000
55.6400 335.0000 1.0000
55.6500 365.0000 1.0000
55.6600 362.0000 1.0000
55.6700 376.0000 1.0000
55.6800 359.0000 1.0000
55.6900 345.0000 1.0000
55.7000 352.0000 1.0000
55.7100 366.0000 1.0000
55.7200 376.0000 1.0000
55.7300 379.0000 1.0000
55.7400 312.0000 1.0000
55.7500 334.0000 1.0000
55.7600 352.0000 1.0000
55.7700 369.0000 1.0000
55.7800 344.0000 1.0000
55.7900 349.0000 1.0000
55.8000 362.0000 1.0000
55.8100 351.0000 1.0000
55.8200 341.0000 1.0000
55.8300 327.0000 1.0000
55.8400 331.0000 1.0000
55.8500 376.0000 1.0000
55.8600 341.0000 1.0000
55.8700 357.0000 1.0000
55.8800 347.0000 1.0000
55.8900 341.0000 1.0000
55.9000 371.0000 1.0000
55.9100 351.0000 1.0000
55.9200 359.0000 1.0000
55.9300 362.0000 1.0000
55.9400 349.0000 1.0000
55.9500 407.0000 1.0000
55.9600 389.0000 1.0000
55.9700 363.0000 1.0000
55.9800 357.0000 1.0000
55.9900 355.0000 1.0000
56.0000 311.0000 1.0000
56.0100 339.0000 1.0000
56.0200 340.0000 1.0000
56.0300 345.0000 1.0000
56.0400 361.0000 1.0000
56.0500 329.0000 1.0000
56.0600 327.0000 1.0000
56.0700 331.0000 1.0000
56.0800 368.0000 1.0000
56.0900 357.0000 1.0000
56.1000 377.0000 1.0000
56.1100 357.0000 1.0000
56.1200 380.0000 1.0000
56.1300 386.0000 1.0000
56.1400 337.0000 1.0000
56.1500 352.0000 1.0000
56.1600 369.0000 1.0000
56.1700 340.0000 1.0000
56.1800 360.0000 1.0000
56.1900 361.0000 1.0000
56.2000 350.0000 1.0000
56.2100 341.0000 1.0000
56.2200 364.0000 1.0000
56.2300 333.0000 1.0000
56.2400 342.0000 1.0000
56.2500 319.0000 1.0000
56.2600 365.0000 1.0000
56.2700 340.0000 1.0000
56.2800 336.0000 1.0000
56.2900 360.0000 1.0000
56.3000 342.0000 1.0000
56.3100 354.0000 1.0000
56.3200 345.0000 1.0000
56.3300 357.0000 1.0000
56.3400 338.0000 1.0000
56.3500 391.0000 1.0000
56.3600 368.0000 1.0000
56.3700 342.0000 1.0000
56.3800 381.0000 1.0000
56.3900 355.0000 1.0000
56.4000 347.0000 1.0000
56.4100 357.0000 1.0000
56.4200 353.0000 1.0000
56.4300 363.0000 1.0000
56.4400 361.0000 1.0000
56.4500 359.0000 1.0000
56.4600 351.0000 1.0000
56.4700 360.0000 1.0000
56.4800 356.0000 1.0000
56.4900 354.0000 1.0000
56.5000 346.0000 1.0000
56.5100 348.0000 1.0000
56.5200 376.0000 1.0000
56.5300 362.0000 1.0000
56.5400 351.0000 1.0000
56.5500 354.0000 1.0000
56.5600 361.0000 1.0000
56.5700 336.0000 1.0000
56.5800 367.0000 1.0000
56.5900 359.0000 1.0000
56.6000 352.0000 1.0000
56.6100 364.0000 1.0000
56.6200 342.0000 1.0000
56.6300 328.0000 1.0000
56.6400 364.0000 1.0000
56.6500 365.0000 1.0000
56.6600 383.0000 1.0000
56.6700 330.0000 1.0000
56.6800 353.0000 1.0000
56.6900 369.0000 1.0000
56.7000 358.0000 1.0000
56.7100 345.0000 1.0000
56.7200 340.0000 1.0000
56.7300 373.0000 1.0000
56.7400 367.0000 1.0000
56.7500 356.0000 1.0000
56.7600 359.0000 1.0000
56.7700 348.0000 1.0000
56.7800 349.0000 1.0000
56.7900 355.0000 1.0000
56.8000 339.0000 1.0000
56.8100 343.0000 1.0000
56.8200 345.0000 1.0000
56.8300 349.0000 1.0000
56.8400 348.0000 1.0000
56.8500 348.0000 1.0000
56.8600 353.0000 1.0000
56.8700 323.0000 1.0000
56.8800 356.0000 1.0000
56.8900 390.0000 1.0000
56.9000 347.0000 1.0000
56.9100 346.0000 1.0000
56.9200 345.0000 1.0000
56.9300 350.0000 1.0000
56.9400 343.0000 1.0000
56.9500 356.0000 1.0000
56.9600 334.0000 1.0000
56.9700 335.0000 1.0000
56.9800 332.0000 1.0000
56.9900 366.0000 1.0000
57.0000 354.0000 1.0000
57.0100 340.0000 1.0000
57.0200 344.0000 1.0000
57.0300 334.0000 1.0000
57.0400 365.0000 1.0000
57.0500 361.0000 1.0000
57.0600 356.0000 1.0000
57.0700 316.0000 1.0000
57.0800 340.0000 1.0000
57.0900 356.0000 1.0000
57.1000 324.0000 1.0000
57.1100 380.0000 1.0000
57.1200 356.0000 1.0000
57.1300 318.0000 1.0000
57.1400 350.0000 1.0000
57.1500 330.0000 1.0000
57.1600 323.0000 1.0000
57.1700 345.0000 1.0000
57.1800 365.0000 1.0000
57.1900 360.0000 1.0000
57.2000 358.0000 1.0000
57.2100 333.0000 1.0000
57.2200 361.0000 1.0000
57.2300 320.0000 1.0000
57.2400 365.0000 1.0000
57.2500 354.0000 1.0000
57.2600 345.0000 1.0000
57.2700 357.0000 1.0000
57.2800 334.0000 1.0000
57.2900 339.0000 1.0000
57.3000 353.0000 1.0000
57.3100 381.0000 1.0000
57.3200 383.0000 1.0000
57.3300 342.0000 1.0000
57.3400 327.0000 1.0000
57.3500 358.0000 1.0000
57.3600 354.0000 1.0000
57.3700 322.0000 1.0000
57.3800 373.0000 1.0000
57.3900 351.0000 1.0000
57.4000 349.0000 1.0000
57.4100 350.0000 1.0000
57.4200 342.0000 1.0000
57.4300 369.0000 1.0000
57.4400 378.0000 1.0000
57.4500 337.0000 1.0000
57.4600 384.0000 1.0000
57.4700 377.0000 1.0000
57.4800 373.0000 1.0000
57.4900 371.0000 1.0000
57.5000 344.0000 1.0000
57.5100 368.0000 1.0000
57.5200 369.0000 1.0000
57.5300 340.0000 1.0000
57.5400 356.0000 1.0000
57.5500 363.0000 1.0000
57.5600 365.0000 1.0000
57.5700 354.0000 1.0000
57.5800 351.0000 1.0000
57.5900 345.0000 1.0000
57.6000 365.0000 1.0000
57.6100 356.0000 1.0000
57.6200 366.0000 1.0000
57.6300 372.0000 1.0000
57.6400 357.0000 1.0000
57.6500 355.0000 1.0000
57.6600 353.0000 1.0000
57.6700 348.0000 1.0000
57.6800 374.0000 1.0000
57.6900 370.0000 1.0000
57.7000 355.0000 1.0000
57.7100 334.0000 1.0000
57.7200 362.0000 1.0000
57.7300 350.0000 1.0000
57.7400 360.0000 1.0000
57.7500 379.0000 1.0000
57.7600 374.0000 1.0000
57.7700 375.0000 1.0000
57.7800 356.0000 1.0000
57.7900 391.0000 1.0000
57.8000 368.0000 1.0000
57.8100 355.0000 1.0000
57.8200 344.0000 1.0000
57.8300 368.0000 1.0000
57.8400 369.0000 1.0000
57.8500 367.0000 1.0000
57.8600 342.0000 1.0000
57.8700 350.0000 1.0000
57.8800 330.0000 1.0000
57.8900 335.0000 1.0000
57.9000 336.0000 1.0000
57.9100 356.0000 1.0000
57.9200 348.0000 1.0000
57.9300 333.0000 1.0000
57.9400 358.0000 1.0000
57.9500 352.0000 1.0000
57.9600 363.0000 1.0000
57.9700 333.0000 1.0000
57.9800 310.0000 1.0000
57.9900 360.0000 1.0000
58.0000 345.0000 1.0000
58.0100 351.0000 1.0000
58.0200 332.0000 1.0000
58.0300 361.0000 1.0000
58.0400 342.0000 1.0000
58.0500 334.0000 1.0000
58.0600 332.0000 1.0000
58.0700 326.0000 1.0000
58.0800 354.0000 1.0000
58.0900 346.0000 1.0000
58.1000 368.0000 1.0000
58.1100 341.0000 1.0000
58.1200 332.0000 1.0000
58.1300 353.0000 1.0000
58.1400 353.0000 1.0000
58.1500 406.0000 1.0000
58.1600 357.0000 1.0000
58.1700 319.0000 1.0000
58.1800 330.0000 1.0000
58.1900 326.0000 1.0000
58.2000 334.0000 1.0000
58.2100 345.0000 1.0000
58.2200 361.0000 1.0000
58.2300 353.0000 1.0000
58.2400 363.0000 1.0000
58.2500 360.0000 1.0000
58.2600 323.0000 1.0000
58.2700 336.0000 1.0000
58.2800 333.0000 1.0000
58.2900 350.0000 1.0000
58.3000 354.0000 1.0000
58.3100 330.0000 1.0000
58.3200 346.0000 1.0000
58.3300 350.0000 1.0000
58.3400 299.0000 1.0000
58.3500 354.0000 1.0000
58.3600 332.0000 1.0000
58.3700 361.0000 1.0000
58.3800 334.0000 1.0000
58.3900 340.0000 1.0000
58.4000 366.0000 1.0000
58.4100 339.0000 1.0000
58.4200 345.0000 1.0000
58.4300 354.0000 1.0000
58.4400 376.0000 1.0000
58.4500 329.0000 1.0000
58.4600 339.0000 1.0000
58.4700 322.0000 1.0000
58.4800 334.0000 1.0000
58.4900 361.0000 1.0000
58.5000 370.0000 1.0000
58.5100 351.0000 1.0000
58.5200 382.0000 1.0000
58.5300 352.0000 1.0000
58.5400 313.0000 1.0000
58.5500 364.0000 1.0000
58.5600 386.0000 1.0000
58.5700 379.0000 1.0000
58.5800 387.0000 1.0000
58.5900 346.0000 1.0000
58.6000 326.0000 1.0000
58.6100 370.0000 1.0000
58.6200 362.0000 1.0000
58.6300 368.0000 1.0000
58.6400 362.0000 1.0000
58.6500 345.0000 1.0000
58.6600 361.0000 1.0000
58.6700 372.0000 1.0000
58.6800 318.0000 1.0000
58.6900 342.0000 1.0000
58.7000 339.0000 1.0000
58.7100 372.0000 1.0000
58.7200 323.0000 1.0000
58.7300 334.0000 1.0000
58.7400 322.0000 1.0000
58.7500 362.0000 1.0000
58.7600 343.0000 1.0000
58.7700 334.0000 1.0000
58.7800 351.0000 1.0000
58.7900 358.0000 1.0000
58.8000 355.0000 1.0000
58.8100 337.0000 1.0000
58.8200 355.0000 1.0000
58.8300 344.0000 1.0000
58.8400 355.0000 1.0000
58.8500 364.0000 1.0000
58.8600 375.0000 1.0000
58.8700 327.0000 1.0000
58.8800 385.0000 1.0000
58.8900 338.0000 1.0000
58.9000 373.0000 1.0000
58.9100 326.0000 1.0000
58.9200 336.0000 1.0000
58.9300 352.0000 1.0000
58.9400 355.0000 1.0000
58.9500 352.0000 1.0000
58.9600 344.0000 1.0000
58.9700 331.0000 1.0000
58.9800 353.0000 1.0000
58.9900 343.0000 1.0000
59.0000 337.0000 1.0000
59.0100 324.0000 1.0000
59.0200 361.0000 1.0000
59.0300 365.0000 1.0000
59.0400 357.0000 1.0000
59.0500 341.0000 1.0000
59.0600 350.0000 1.0000
59.0700 355.0000 1.0000
59.0800 361.0000 1.0000
59.0900 343.0000 1.0000
59.1000 329.0000 1.0000
59.1100 361.0000 1.0000
59.1200 355.0000 1.0000
59.1300 346.0000 1.0000
59.1400 348.0000 1.0000
59.1500 326.0000 1.0000
59.1600 359.0000 1.0000
59.1700 344.0000 1.0000
59.1800 355.0000 1.0000
59.1900 372.0000 1.0000
59.2000 354.0000 1.0000
59.2100 355.0000 1.0000
59.2200 362.0000 1.0000
59.2300 340.0000 1.0000
59.2400 314.0000 1.0000
59.2500 345.0000 1.0000
59.2600 331.0000 1.0000
59.2700 327.0000 1.0000
59.2800 338.0000 1.0000
59.2900 363.0000 1.0000
59.3000 362.0000 1.0000
59.3100 372.0000 1.0000
59.3200 332.0000 1.0000
59.3300 318.0000 1.0000
59.3400 333.0000 1.0000
59.3500 330.0000 1.0000
59.3600 381.0000 1.0000
59.3700 334.0000 1.0000
59.3800 365.0000 1.0000
59.3900 352.0000 1.0000
59.4000 351.0000 1.0000
59.4100 320.0000 1.0000
59.4200 346.0000 1.0000
59.4300 361.0000 1.0000
59.4400 371.0000 1.0000
59.4500 367.0000 1.0000
59.4600 353.0000 1.0000
59.4700 343.0000 1.0000
59.4800 341.0000 1.0000
59.4900 365.0000 1.0000
59.5000 316.0000 1.0000
59.5100 368.0000 1.0000
59.5200 350.0000 1.0000
59.5300 371.0000 1.0000
59.5400 323.0000 1.0000
59.5500 389.0000 1.0000
59.5600 357.0000 1.0000
59.5700 370.0000 1.0000
59.5800 363.0000 1.0000
59.5900 340.0000 1.0000
59.6000 347.0000 1.0000
59.6100 340.0000 1.0000
59.6200 346.0000 1.0000
59.6300 342.0000 1.0000
59.6400 324.0000 1.0000
59.6500 326.0000 1.0000
59.6600 336.0000 1.0000
59.6700 330.0000 1.0000
59.6800 320.0000 1.0000
59.6900 346.0000 1.0000
59.7000 369.0000 1.0000
59.7100 342.0000 1.0000
59.7200 366.0000 1.0000
59.7300 357.0000 1.0000
59.7400 331.0000 1.0000
59.7500 363.0000 1.0000
59.7600 348.0000 1.0000
59.7700 387.0000 1.0000
59.7800 340.0000 1.0000
59.7900 349.0000 1.0000
59.8000 367.0000 1.0000
59.8100 327.0000 1.0000
59.8200 350.0000 1.0000
59.8300 353.0000 1.0000
59.8400 368.0000 1.0000
59.8500 371.0000 1.0000
59.8600 309.0000 1.0000
59.8700 318.0000 1.0000
59.8800 347.0000 1.0000
59.8900 354.0000 1.0000
59.9000 393.0000 1.0000
59.9100 374.0000 1.0000
59.9200 335.0000 1.0000
59.9300 334.0000 1.0000
59.9400 345.0000 1.0000
59.9500 339.0000 1.0000
59.9600 332.0000 1.0000
59.9700 351.0000 1.0000
59.9800 337.0000 1.0000
59.9900 338.0000 1.0000
60.0000 363.0000 1.0000
60.0100 372.0000 1.0000
60.0200 322.0000 1.0000
60.0300 335.0000 1.0000
60.0400 330.0000 1.0000
60.0500 322.0000 1.0000
60.0600 358.0000 1.0000
60.0700 362.0000 1.0000
60.0800 354.0000 1.0000
60.0900 341.0000 1.0000
60.1000 341.0000 1.0000
60.1100 372.0000 1.0000
60.1200 343.0000 1.0000
60.1300 332.0000 1.0000
60.1400 353.0000 1.0000
60.1500 367.0000 1.0000
60.1600 343.0000 1.0000
60.1700 357.0000 1.0000
60.1800 363.0000 1.0000
60.1900 373.0000 1.0000
60.2000 368.0000 1.0000
60.2100 365.0000 1.0000
60.2200 344.0000 1.0000
60.2300 338.0000 1.0000
60.2400 338.0000 1.0000
60.2500 314.0000 1.0000
60.2600 326.0000 1.0000
60.2700 365.0000 1.0000
60.2800 366.0000 1.0000
60.2900 363.0000 1.0000
60.3000 346.0000 1.0000
60.3100 353.0000 1.0000
60.3200 336.0000 1.0000
60.3300 336.0000 1.0000
60.3400 337.0000 1.0000
60.3500 384.0000 1.0000
60.3600 349.0000 1.0000
60.3700 356.0000 1.0000
60.3800 354.0000 1.0000
60.3900 363.0000 1.0000
60.4000 326.0000 1.0000
60.4100 338.0000 1.0000
60.4200 337.0000 1.0000
60.4300 337.0000 1.0000
60.4400 340.0000 1.0000
60.4500 332.0000 1.0000
60.4600 364.0000 1.0000
60.4700 344.0000 1.0000
60.4800 363.0000 1.0000
60.4900 371.0000 1.0000
60.5000 352.0000 1.0000
60.5100 345.0000 1.0000
60.5200 343.0000 1.0000
60.5300 362.0000 1.0000
60.5400 330.0000 1.0000
60.5500 362.0000 1.0000
60.5600 342.0000 1.0000
60.5700 377.0000 1.0000
60.5800 339.0000 1.0000
60.5900 346.0000 1.0000
60.6000 338.0000 1.0000
60.6100 373.0000 1.0000
60.6200 375.0000 1.0000
60.6300 352.0000 1.0000
60.6400 350.0000 1.0000
60.6500 379.0000 1.0000
60.6600 367.0000 1.0000
60.6700 328.0000 1.0000
60.6800 306.0000 1.0000
60.6900 344.0000 1.0000
60.7000 351.0000 1.0000
60.7100 371.0000 1.0000
60.7200 372.0000 1.0000
60.7300 365.0000 1.0000
60.7400 358.0000 1.0000
60.7500 330.0000 1.0000
60.7600 354.0000 1.0000
60.7700 373.0000 1.0000
60.7800 333.0000 1.0000
60.7900 348.0000 1.0000
60.8000 331.0000 1.0000
60.8100 327.0000 1.0000
60.8200 360.0000 1.0000
60.8300 365.0000 1.0000
60.8400 372.0000 1.0000
60.8500 342.0000 1.0000
60.8600 366.0000 1.0000
60.8700 370.0000 1.0000
60.8800 378.0000 1.0000
60.8900 390.0000 1.0000
60.9000 365.0000 1.0000
60.9100 361.0000 1.0000
60.9200 342.0000 1.0000
60.9300 355.0000 1.0000
60.9400 351.0000 1.0000
60.9500 363.0000 1.0000
60.9600 350.0000 1.0000
60.9700 383.0000 1.0000
60.9800 362.0000 1.0000
60.9900 378.0000 1.0000
61.0000 361.0000 1.0000
61.0100 350.0000 1.0000
61.0200 371.0000 1.0000
61.0300 360.0000 1.0000
61.0400 386.0000 1.0000
61.0500 372.0000 1.0000
61.0600 367.0000 1.0000
61.0700 387.0000 1.0000
61.0800 362.0000 1.0000
61.0900 379.0000 1.0000
61.1000 380.0000 1.0000
61.1100 409.0000 1.0000
61.1200 376.0000 1.0000
61.1300 391.0000 1.0000
61.1400 374.0000 1.0000
61.1500 370.0000 1.0000
61.1600 379.0000 1.0000
61.1700 421.0000 1.0000
61.1800 400.0000 1.0000
61.1900 393.0000 1.0000
61.2000 409.0000 1.0000
61.2100 410.0000 1.0000
61.2200 421.0000 1.0000
61.2300 454.0000 1.0000
61.2400 437.0000 1.0000
61.2500 439.0000 1.0000
61.2600 438.0000 1.0000
61.2700 437.0000 1.0000
61.2800 454.0000 1.0000
61.2900 458.0000 1.0000
61.3000 468.0000 1.0000
61.3100 466.0000 1.0000
61.3200 535.0000 1.0000
61.3300 502.0000 1.0000
61.3400 500.0000 1.0000
61.3500 552.0000 1.0000
61.3600 571.0000 1.0000
61.3700 559.0000 1.0000
61.3800 610.0000 1.0000
61.3900 570.0000 1.0000
61.4000 568.0000 1.0000
61.4100 613.0000 1.0000
61.4200 619.0000 1.0000
61.4300 645.0000 1.0000
61.4400 632.0000 1.0000
61.4500 645.0000 1.0000
61.4600 637.0000 1.0000
61.4700 711.0000 1.0000
61.4800 710.0000 1.0000
61.4900 751.0000 1.0000
61.5000 708.0000 1.0000
61.5100 746.0000 1.0000
61.5200 730.0000 1.0000
61.5300 717.0000 1.0000
61.5400 757.0000 1.0000
61.5500 763.0000 1.0000
61.5600 725.0000 1.0000
61.5700 741.0000 1.0000
61.5800 756.0000 1.0000
61.5900 747.0000 1.0000
61.6000 726.0000 1.0000
61.6100 682.0000 1.0000
61.6200 748.0000 1.0000
61.6300 721.0000 1.0000
61.6400 719.0000 1.0000
61.6500 654.0000 1.0000
61.6600 682.0000 1.0000
61.6700 660.0000 1.0000
61.6800 667.0000 1.0000
61.6900 651.0000 1.0000
61.7000 655.0000 1.0000
61.7100 656.0000 1.0000
61.7200 614.0000 1.0000
61.7300 654.0000 1.0000
61.7400 611.0000 1.0000
61.7500 632.0000 1.0000
61.7600 582.0000 1.0000
61.7700 615.0000 1.0000
61.7800 561.0000 1.0000
61.7900 544.0000 1.0000
61.8000 590.0000 1.0000
61.8100 594.0000 1.0000
61.8200 515.0000 1.0000
61.8300 493.0000 1.0000
61.8400 506.0000 1.0000
61.8500 507.0000 1.0000
61.8600 462.0000 1.0000
61.8700 466.0000 1.0000
61.8800 461.0000 1.0000
61.8900 421.0000 1.0000
61.9000 445.0000 1.0000
61.9100 449.0000 1.0000
61.9200 450.0000 1.0000
61.9300 420.0000 1.0000
61.9400 444.0000 1.0000
61.9500 440.0000 1.0000
61.9600 433.0000 1.0000
61.9700 435.0000 1.0000
61.9800 396.0000 1.0000
61.9900 388.0000 1.0000
62.0000 423.0000 1.0000
62.0100 393.0000 1.0000
62.0200 395.0000 1.0000
62.0300 385.0000 1.0000
62.0400 376.0000 1.0000
62.0500 379.0000 1.0000
62.0600 416.0000 1.0000
62.0700 402.0000 1.0000
62.0800 363.0000 1.0000
62.0900 381.0000 1.0000
62.1000 357.0000 1.0000
62.1100 380.0000 1.0000
62.1200 397.0000 1.0000
62.1300 387.0000 1.0000
62.1400 397.0000 1.0000
62.1500 393.0000 1.0000
62.1600 397.0000 1.0000
62.1700 387.0000 1.0000
62.1800 371.0000 1.0000
62.1900 375.0000 1.0000
62.2000 388.0000 1.0000
62.2100 389.0000 1.0000
62.2200 382.0000 1.0000
62.2300 367.0000 1.0000
62.2400 369.0000 1.0000
62.2500 391.0000 1.0000
62.2600 390.0000 1.0000
62.2700 402.0000 1.0000
62.2800 388.0000 1.0000
62.2900 402.0000 1.0000
62.3000 408.0000 1.0000
62.3100 379.0000 1.0000
62.3200 406.0000 1.0000
62.3300 434.0000 1.0000
62.3400 403.0000 1.0000
62.3500 404.0000 1.0000
62.3600 389.0000 1.0000
62.3700 439.0000 1.0000
62.3800 371.0000 1.0000
62.3900 426.0000 1.0000
62.4000 403.0000 1.0000
62.4100 394.0000 1.0000
62.4200 388.0000 1.0000
62.4300 406.0000 1.0000
62.4400 382.0000 1.0000
62.4500 384.0000 1.0000
62.4600 377.0000 1.0000
62.4700 384.0000 1.0000
62.4800 377.0000 1.0000
62.4900 384.0000 1.0000
62.5000 413.0000 1.0000
62.5100 392.0000 1.0000
62.5200 367.0000 1.0000
62.5300 342.0000 1.0000
62.5400 381.0000 1.0000
62.5500 403.0000 1.0000
62.5600 361.0000 1.0000
62.5700 384.0000 1.0000
62.5800 392.0000 1.0000
62.5900 354.0000 1.0000
62.6000 361.0000 1.0000
62.6100 369.0000 1.0000
62.6200 378.0000 1.0000
62.6300 389.0000 1.0000
62.6400 356.0000 1.0000
62.6500 376.0000 1.0000
62.6600 347.0000 1.0000
62.6700 365.0000 1.0000
62.6800 341.0000 1.0000
62.6900 369.0000 1.0000
62.7000 402.0000 1.0000
62.7100 356.0000 1.0000
62.7200 352.0000 1.0000
62.7300 369.0000 1.0000
62.7400 375.0000 1.0000
62.7500 369.0000 1.0000
62.7600 363.0000 1.0000
62.7700 344.0000 1.0000
62.7800 369.0000 1.0000
62.7900 385.0000 1.0000
62.8000 363.0000 1.0000
62.8100 358.0000 1.0000
62.8200 345.0000 1.0000
62.8300 341.0000 1.0000
62.8400 329.0000 1.0000
62.8500 341.0000 1.0000
62.8600 343.0000 1.0000
62.8700 342.0000 1.0000
62.8800 322.0000 1.0000
62.8900 327.0000 1.0000
62.9000 353.0000 1.0000
62.9100 364.0000 1.0000
62.9200 353.0000 1.0000
62.9300 349.0000 1.0000
62.9400 373.0000 1.0000
62.9500 372.0000 1.0000
62.9600 345.0000 1.0000
62.9700 348.0000 1.0000
62.9800 353.0000 1.0000
62.9900 346.0000 1.0000
63.0000 326.0000 1.0000
63.0100 351.0000 1.0000
63.0200 326.0000 1.0000
63.0300 314.0000 1.0000
63.0400 336.0000 1.0000
63.0500 334.0000 1.0000
63.0600 359.0000 1.0000
63.0700 353.0000 1.0000
63.0800 331.0000 1.0000
63.0900 335.0000 1.0000
63.1000 311.0000 1.0000
63.1100 318.0000 1.0000
63.1200 315.0000 1.0000
63.1300 339.0000 1.0000
63.1400 338.0000 1.0000
63.1500 327.0000 1.0000
63.1600 347.0000 1.0000
63.1700 351.0000 1.0000
63.1800 348.0000 1.0000
63.1900 350.0000 1.0000
63.2000 364.0000 1.0000
63.2100 342.0000 1.0000
63.2200 329.0000 1.0000
63.2300 327.0000 1.0000
63.2400 331.0000 1.0000
63.2500 353.0000 1.0000
63.2600 354.0000 1.0000
63.2700 346.0000 1.0000
63.2800 353.0000 1.0000
63.2900 344.0000 1.0000
63.3000 322.0000 1.0000
63.3100 363.0000 1.0000
63.3200 375.0000 1.0000
63.3300 337.0000 1.0000
63.3400 343.0000 1.0000
63.3500 348.0000 1.0000
63.3600 324.0000 1.0000
63.3700 369.0000 1.0000
63.3800 357.0000 1.0000
63.3900 329.0000 1.0000
63.4000 386.0000 1.0000
63.4100 363.0000 1.0000
63.4200 348.0000 1.0000
63.4300 331.0000 1.0000
63.4400 342.0000 1.0000
63.4500 349.0000 1.0000
63.4600 350.0000 1.0000
63.4700 339.0000 1.0000
63.4800 363.0000 1.0000
63.4900 355.0000 1.0000
63.5000 342.0000 1.0000
63.5100 363.0000 1.0000
63.5200 346.0000 1.0000
63.5300 344.0000 1.0000
63.5400 355.0000 1.0000
63.5500 337.0000 1.0000
63.5600 373.0000 1.0000
63.5700 364.0000 1.0000
63.5800 369.0000 1.0000
63.5900 370.0000 1.0000
63.6000 349.0000 1.0000
63.6100 345.0000 1.0000
63.6200 339.0000 1.0000
63.6300 349.0000 1.0000
63.6400 367.0000 1.0000
63.6500 359.0000 1.0000
63.6600 378.0000 1.0000
63.6700 346.0000 1.0000
63.6800 358.0000 1.0000
63.6900 355.0000 1.0000
63.7000 370.0000 1.0000
63.7100 339.0000 1.0000
63.7200 351.0000 1.0000
63.7300 338.0000 1.0000
63.7400 361.0000 1.0000
63.7500 349.0000 1.0000
63.7600 372.0000 1.0000
63.7700 346.0000 1.0000
63.7800 381.0000 1.0000
63.7900 358.0000 1.0000
63.8000 363.0000 1.0000
63.8100 397.0000 1.0000
63.8200 423.0000 1.0000
63.8300 421.0000 1.0000
63.8400 425.0000 1.0000
63.8500 415.0000 1.0000
63.8600 443.0000 1.0000
63.8700 440.0000 1.0000
63.8800 423.0000 1.0000
63.8900 476.0000 1.0000
63.9000 432.0000 1.0000
63.9100 422.0000 1.0000
63.9200 456.0000 1.0000
63.9300 442.0000 1.0000
63.9400 465.0000 1.0000
63.9500 490.0000 1.0000
63.9600 450.0000 1.0000
63.9700 480.0000 1.0000
63.9800 457.0000 1.0000
63.9900 481.0000 1.0000
64.0000 483.0000 1.0000
64.0100 459.0000 1.0000
64.0200 452.0000 1.0000
64.0300 427.0000 1.0000
64.0400 457.0000 1.0000
64.0500 460.0000 1.0000
64.0600 429.0000 1.0000
64.0700 472.0000 1.0000
64.0800 414.0000 1.0000
64.0900 460.0000 1.0000
64.1000 444.0000 1.0000
64.1100 395.0000 1.0000
64.1200 425.0000 1.0000
64.1300 458.0000 1.0000
64.1400 424.0000 1.0000
64.1500 402.0000 1.0000
64.1600 397.0000 1.0000
64.1700 419.0000 1.0000
64.1800 412.0000 1.0000
64.1900 418.0000 1.0000
64.2000 410.0000 1.0000
64.2100 428.0000 1.0000
64.2200 415.0000 1.0000
64.2300 409.0000 1.0000
64.2400 387.0000 1.0000
64.2500 385.0000 1.0000
64.2600 374.0000 1.0000
64.2700 379.0000 1.0000
64.2800 374.0000 1.0000
64.2900 409.0000 1.0000
64.3000 385.0000 1.0000
64.3100 358.0000 1.0000
64.3200 379.0000 1.0000
64.3300 403.0000 1.0000
64.3400 371.0000 1.0000
64.3500 364.0000 1.0000
64.3600 383.0000 1.0000
64.3700 380.0000 1.0000
64.3800 380.0000 1.0000
64.3900 371.0000 1.0000
64.4000 363.0000 1.0000
64.4100 359.0000 1.0000
64.4200 357.0000 1.0000
64.4300 398.0000 1.0000
64.4400 370.0000 1.0000
64.4500 385.0000 1.0000
64.4600 366.0000 1.0000
64.4700 358.0000 1.0000
64.4800 359.0000 1.0000
64.4900 336.0000 1.0000
64.5000 355.0000 1.0000
64.5100 350.0000 1.0000
64.5200 364.0000 1.0000
64.5300 349.0000 1.0000
64.5400 338.0000 1.0000
64.5500 389.0000 1.0000
64.5600 361.0000 1.0000
64.5700 374.0000 1.0000
64.5800 361.0000 1.0000
64.5900 369.0000 1.0000
64.6000 353.0000 1.0000
64.6100 344.0000 1.0000
64.6200 362.0000 1.0000
64.6300 357.0000 1.0000
64.6400 393.0000 1.0000
64.6500 377.0000 1.0000
64.6600 352.0000 1.0000
64.6700 380.0000 1.0000
64.6800 370.0000 1.0000
64.6900 364.0000 1.0000
64.7000 370.0000 1.0000
64.7100 356.0000 1.0000
64.7200 351.0000 1.0000
64.7300 350.0000 1.0000
64.7400 391.0000 1.0000
64.7500 372.0000 1.0000
64.7600 376.0000 1.0000
64.7700 344.0000 1.0000
64.7800 375.0000 1.0000
64.7900 373.0000 1.0000
64.8000 382.0000 1.0000
64.8100 344.0000 1.0000
64.8200 357.0000 1.0000
64.8300 341.0000 1.0000
64.8400 363.0000 1.0000
64.8500 364.0000 1.0000
64.8600 371.0000 1.0000
64.8700 373.0000 1.0000
64.8800 360.0000 1.0000
64.8900 352.0000 1.0000
64.9000 354.0000 1.0000
64.9100 387.0000 1.0000
64.9200 364.0000 1.0000
64.9300 342.0000 1.0000
64.9400 365.0000 1.0000
64.9500 390.0000 1.0000
64.9600 365.0000 1.0000
64.9700 372.0000 1.0000
64.9800 365.0000 1.0000
64.9900 395.0000 1.0000
65.0000 366.0000 1.0000
65.0100 334.0000 1.0000
65.0200 381.0000 1.0000
65.0300 377.0000 1.0000
65.0400 389.0000 1.0000
65.0500 379.0000 1.0000
65.0600 397.0000 1.0000
65.0700 438.0000 1.0000
65.0800 400.0000 1.0000
65.0900 407.0000 1.0000
65.1000 392.0000 1.0000
65.1100 377.0000 1.0000
65.1200 409.0000 1.0000
65.1300 436.0000 1.0000
65.1400 413.0000 1.0000
65.1500 401.0000 1.0000
65.1600 398.0000 1.0000
65.1700 414.0000 1.0000
65.1800 454.0000 1.0000
65.1900 442.0000 1.0000
65.2000 441.0000 1.0000
65.2100 433.0000 1.0000
65.2200 420.0000 1.0000
65.2300 424.0000 1.0000
65.2400 473.0000 1.0000
65.2500 502.0000 1.0000
65.2600 511.0000 1.0000
65.2700 527.0000 1.0000
65.2800 503.0000 1.0000
65.2900 498.0000 1.0000
65.3000 551.0000 1.0000
65.3100 586.0000 1.0000
65.3200 580.0000 1.0000
65.3300 637.0000 1.0000
65.3400 646.0000 1.0000
65.3500 666.0000 1.0000
65.3600 676.0000 1.0000
65.3700 669.0000 1.0000
65.3800 733.0000 1.0000
65.3900 740.0000 1.0000
65.4000 790.0000 1.0000
65.4100 795.0000 1.0000
65.4200 860.0000 1.0000
65.4300 919.0000 1.0000
65.4400 921.0000 1.0000
65.4500 991.0000 1.0000
65.4600 1090.0000 1.0000
65.4700 1073.0000 1.0000
65.4800 1072.0000 1.0000
65.4900 1139.0000 1.0000
65.5000 1151.0000 1.0000
65.5100 1196.0000 1.0000
65.5200 1223.0000 1.0000
65.5300 1277.0000 1.0000
65.5400 1233.0000 1.0000
65.5500 1276.0000 1.0000
65.5600 1265.0000 1.0000
65.5700 1294.0000 1.0000
65.5800 1215.0000 1.0000
65.5900 1240.0000 1.0000
65.6000 1177.0000 1.0000
65.6100 1161.0000 1.0000
65.6200 1134.0000 1.0000
65.6300 1110.0000 1.0000
65.6400 1087.0000 1.0000
65.6500 1115.0000 1.0000
65.6600 1076.0000 1.0000
65.6700 1082.0000 1.0000
65.6800 1017.0000 1.0000
65.6900 1039.0000 1.0000
65.7000 1039.0000 1.0000
65.7100 978.0000 1.0000
65.7200 928.0000 1.0000
65.7300 969.0000 1.0000
65.7400 913.0000 1.0000
65.7500 899.0000 1.0000
65.7600 873.0000 1.0000
65.7700 854.0000 1.0000
65.7800 801.0000 1.0000
65.7900 819.0000 1.0000
65.8000 750.0000 1.0000
65.8100 728.0000 1.0000
65.8200 703.0000 1.0000
65.8300 715.0000 1.0000
65.8400 660.0000 1.0000
65.8500 586.0000 1.0000
65.8600 621.0000 1.0000
65.8700 608.0000 1.0000
65.8800 543.0000 1.0000
65.8900 514.0000 1.0000
65.9000 531.0000 1.0000
65.9100 511.0000 1.0000
65.9200 497.0000 1.0000
65.9300 504.0000 1.0000
65.9400 471.0000 1.0000
65.9500 511.0000 1.0000
65.9600 485.0000 1.0000
65.9700 464.0000 1.0000
65.9800 475.0000 1.0000
65.9900 441.0000 1.0000
66.0000 434.0000 1.0000
66.0100 411.0000 1.0000
66.0200 408.0000 1.0000
66.0300 416.0000 1.0000
66.0400 415.0000 1.0000
66.0500 446.0000 1.0000
66.0600 392.0000 1.0000
66.0700 395.0000 1.0000
66.0800 405.0000 1.0000
66.0900 373.0000 1.0000
66.1000 380.0000 1.0000
66.1100 376.0000 1.0000
66.1200 346.0000 1.0000
66.1300 381.0000 1.0000
66.1400 354.0000 1.0000
66.1500 371.0000 1.0000
66.1600 412.0000 1.0000
66.1700 354.0000 1.0000
66.1800 380.0000 1.0000
66.1900 397.0000 1.0000
66.2000 338.0000 1.0000
66.2100 341.0000 1.0000
66.2200 373.0000 1.0000
66.2300 358.0000 1.0000
66.2400 361.0000 1.0000
66.2500 358.0000 1.0000
66.2600 361.0000 1.0000
66.2700 364.0000 1.0000
66.2800 366.0000 1.0000
66.2900 335.0000 1.0000
66.3000 349.0000 1.0000
66.3100 360.0000 1.0000
66.3200 345.0000 1.0000
66.3300 392.0000 1.0000
66.3400 358.0000 1.0000
66.3500 331.0000 1.0000
66.3600 359.0000 1.0000
66.3700 358.0000 1.0000
66.3800 365.0000 1.0000
66.3900 343.0000 1.0000
66.4000 329.0000 1.0000
66.4100 326.0000 1.0000
66.4200 339.0000 1.0000
66.4300 321.0000 1.0000
66.4400 321.0000 1.0000
66.4500 321.0000 1.0000
66.4600 339.0000 1.0000
66.4700 343.0000 1.0000
66.4800 326.0000 1.0000
66.4900 312.0000 1.0000
66.5000 350.0000 1.0000
66.5100 334.0000 1.0000
66.5200 318.0000 1.0000
66.5300 334.0000 1.0000
66.5400 350.0000 1.0000
66.5500 337.0000 1.0000
66.5600 347.0000 1.0000
66.5700 324.0000 1.0000
66.5800 318.0000 1.0000
66.5900 347.0000 1.0000
66.6000 349.0000 1.0000
66.6100 350.0000 1.0000
66.6200 345.0000 1.0000
66.6300 347.0000 1.0000
66.6400 324.0000 1.0000
66.6500 331.0000 1.0000
66.6600 323.0000 1.0000
66.6700 340.0000 1.0000
66.6800 353.0000 1.0000
66.6900 320.0000 1.0000
66.7000 330.0000 1.0000
66.7100 300.0000 1.0000
66.7200 319.0000 1.0000
66.7300 333.0000 1.0000
66.7400 349.0000 1.0000
66.7500 331.0000 1.0000
66.7600 346.0000 1.0000
66.7700 316.0000 1.0000
66.7800 318.0000 1.0000
66.7900 308.0000 1.0000
66.8000 319.0000 1.0000
66.8100 329.0000 1.0000
66.8200 341.0000 1.0000
66.8300 316.0000 1.0000
66.8400 329.0000 1.0000
66.8500 325.0000 1.0000
66.8600 321.0000 1.0000
66.8700 350.0000 1.0000
66.8800 306.0000 1.0000
66.8900 341.0000 1.0000
66.9000 340.0000 1.0000
66.9100 358.0000 1.0000
66.9200 337.0000 1.0000
66.9300 321.0000 1.0000
66.9400 314.0000 1.0000
66.9500 319.0000 1.0000
66.9600 344.0000 1.0000
66.9700 294.0000 1.0000
66.9800 322.0000 1.0000
66.9900 320.0000 1.0000
67.0000 327.0000 1.0000
67.0100 329.0000 1.0000
67.0200 339.0000 1.0000
67.0300 324.0000 1.0000
67.0400 305.0000 1.0000
67.0500 343.0000 1.0000
67.0600 325.0000 1.0000
67.0700 324.0000 1.0000
67.0800 329.0000 1.0000
67.0900 346.0000 1.0000
67.1000 348.0000 1.0000
67.1100 326.0000 1.0000
67.1200 327.0000 1.0000
67.1300 320.0000 1.0000
67.1400 330.0000 1.0000
67.1500 322.0000 1.0000
67.1600 321.0000 1.0000
67.1700 338.0000 1.0000
67.1800 327.0000 1.0000
67.1900 330.0000 1.0000
67.2000 323.0000 1.0000
67.2100 333.0000 1.0000
67.2200 310.0000 1.0000
67.2300 356.0000 1.0000
67.2400 322.0000 1.0000
67.2500 321.0000 1.0000
67.2600 316.0000 1.0000
67.2700 322.0000 1.0000
67.2800 311.0000 1.0000
67.2900 304.0000 1.0000
67.3000 319.0000 1.0000
67.3100 297.0000 1.0000
67.3200 318.0000 1.0000
67.3300 311.0000 1.0000
67.3400 322.0000 1.0000
67.3500 358.0000 1.0000
67.3600 319.0000 1.0000
67.3700 306.0000 1.0000
67.3800 307.0000 1.0000
67.3900 304.0000 1.0000
67.4000 290.0000 1.0000
67.4100 321.0000 1.0000
67.4200 343.0000 1.0000
67.4300 349.0000 1.0000
67.4400 334.0000 1.0000
67.4500 269.0000 1.0000
67.4600 305.0000 1.0000
67.4700 315.0000 1.0000
67.4800 299.0000 1.0000
67.4900 307.0000 1.0000
67.5000 337.0000 1.0000
67.5100 335.0000 1.0000
67.5200 326.0000 1.0000
67.5300 318.0000 1.0000
67.5400 351.0000 1.0000
67.5500 316.0000 1.0000
67.5600 316.0000 1.0000
67.5700 321.0000 1.0000
67.5800 362.0000 1.0000
67.5900 337.0000 1.0000
67.6000 317.0000 1.0000
67.6100 314.0000 1.0000
67.6200 313.0000 1.0000
67.6300 321.0000 1.0000
67.6400 322.0000 1.0000
67.6500 309.0000 1.0000
67.6600 321.0000 1.0000
67.6700 312.0000 1.0000
67.6800 320.0000 1.0000
67.6900 311.0000 1.0000
67.7000 301.0000 1.0000
67.7100 314.0000 1.0000
67.7200 333.0000 1.0000
67.7300 324.0000 1.0000
67.7400 280.0000 1.0000
67.7500 300.0000 1.0000
67.7600 324.0000 1.0000
67.7700 317.0000 1.0000
67.7800 318.0000 1.0000
67.7900 318.0000 1.0000
67.8000 309.0000 1.0000
67.8100 316.0000 1.0000
67.8200 325.0000 1.0000
67.8300 302.0000 1.0000
67.8400 267.0000 1.0000
67.8500 333.0000 1.0000
67.8600 308.0000 1.0000
67.8700 323.0000 1.0000
67.8800 346.0000 1.0000
67.8900 298.0000 1.0000
67.9000 325.0000 1.0000
67.9100 302.0000 1.0000
67.9200 304.0000 1.0000
67.9300 314.0000 1.0000
67.9400 331.0000 1.0000
67.9500 315.0000 1.0000
67.9600 302.0000 1.0000
67.9700 312.0000 1.0000
67.9800 313.0000 1.0000
67.9900 303.0000 1.0000
68.0000 307.0000 1.0000
68.0100 308.0000 1.0000
68.0200 307.0000 1.0000
68.0300 330.0000 1.0000
68.0400 304.0000 1.0000
68.0500 322.0000 1.0000
68.0600 315.0000 1.0000
68.0700 339.0000 1.0000
68.0800 343.0000 1.0000
68.0900 348.0000 1.0000
68.1000 303.0000 1.0000
68.1100 291.0000 1.0000
68.1200 295.0000 1.0000
68.1300 328.0000 1.0000
68.1400 302.0000 1.0000
68.1500 299.0000 1.0000
68.1600 305.0000 1.0000
68.1700 299.0000 1.0000
68.1800 266.0000 1.0000
68.1900 275.0000 1.0000
68.2000 310.0000 1.0000
68.2100 325.0000 1.0000
68.2200 300.0000 1.0000
68.2300 307.0000 1.0000
68.2400 286.0000 1.0000
68.2500 297.0000 1.0000
68.2600 311.0000 1.0000
68.2700 321.0000 1.0000
68.2800 309.0000 1.0000
68.2900 312.0000 1.0000
68.3000 310.0000 1.0000
68.3100 321.0000 1.0000
68.3200 308.0000 1.0000
68.3300 309.0000 1.0000
68.3400 317.0000 1.0000
68.3500 326.0000 1.0000
68.3600 310.0000 1.0000
68.3700 299.0000 1.0000
68.3800 294.0000 1.0000
68.3900 299.0000 1.0000
68.4000 315.0000 1.0000
68.4100 313.0000 1.0000
68.4200 313.0000 1.0000
68.4300 320.0000 1.0000
68.4400 330.0000 1.0000
68.4500 296.0000 1.0000
68.4600 305.0000 1.0000
68.4700 337.0000 1.0000
68.4800 306.0000 1.0000
68.4900 299.0000 1.0000
68.5000 287.0000 1.0000
68.5100 302.0000 1.0000
68.5200 328.0000 1.0000
68.5300 315.0000 1.0000
68.5400 319.0000 1.0000
68.5500 319.0000 1.0000
68.5600 342.0000 1.0000
68.5700 319.0000 1.0000
68.5800 288.0000 1.0000
68.5900 296.0000 1.0000
68.6000 326.0000 1.0000
68.6100 313.0000 1.0000
68.6200 337.0000 1.0000
68.6300 307.0000 1.0000
68.6400 293.0000 1.0000
68.6500 297.0000 1.0000
68.6600 289.0000 1.0000
68.6700 331.0000 1.0000
68.6800 315.0000 1.0000
68.6900 308.0000 1.0000
68.7000 296.0000 1.0000
68.7100 317.0000 1.0000
68.7200 333.0000 1.0000
68.7300 312.0000 1.0000
68.7400 278.0000 1.0000
68.7500 324.0000 1.0000
68.7600 314.0000 1.0000
68.7700 318.0000 1.0000
68.7800 309.0000 1.0000
68.7900 318.0000 1.0000
68.8000 311.0000 1.0000
68.8100 303.0000 1.0000
68.8200 329.0000 1.0000
68.8300 307.0000 1.0000
68.8400 280.0000 1.0000
68.8500 314.0000 1.0000
68.8600 309.0000 1.0000
68.8700 303.0000 1.0000
68.8800 294.0000 1.0000
68.8900 305.0000 1.0000
68.9000 322.0000 1.0000
68.9100 311.0000 1.0000
68.9200 320.0000 1.0000
68.9300 313.0000 1.0000
68.9400 300.0000 1.0000
68.9500 305.0000 1.0000
68.9600 292.0000 1.0000
68.9700 291.0000 1.0000
68.9800 304.0000 1.0000
68.9900 286.0000 1.0000
69.0000 301.0000 1.0000
69.0100 326.0000 1.0000
69.0200 323.0000 1.0000
69.0300 323.0000 1.0000
69.0400 322.0000 1.0000
69.0500 314.0000 1.0000
69.0600 321.0000 1.0000
69.0700 332.0000 1.0000
69.0800 310.0000 1.0000
69.0900 310.0000 1.0000
69.1000 308.0000 1.0000
69.1100 320.0000 1.0000
69.1200 336.0000 1.0000
69.1300 321.0000 1.0000
69.1400 318.0000 1.0000
69.1500 326.0000 1.0000
69.1600 314.0000 1.0000
69.1700 303.0000 1.0000
69.1800 299.0000 1.0000
69.1900 295.0000 1.0000
69.2000 274.0000 1.0000
69.2100 320.0000 1.0000
69.2200 299.0000 1.0000
69.2300 285.0000 1.0000
69.2400 315.0000 1.0000
69.2500 301.0000 1.0000
69.2600 322.0000 1.0000
69.2700 341.0000 1.0000
69.2800 324.0000 1.0000
69.2900 283.0000 1.0000
69.3000 325.0000 1.0000
69.3100 325.0000 1.0000
69.3200 296.0000 1.0000
69.3300 310.0000 1.0000
69.3400 315.0000 1.0000
69.3500 320.0000 1.0000
69.3600 293.0000 1.0000
69.3700 302.0000 1.0000
69.3800 321.0000 1.0000
69.3900 290.0000 1.0000
69.4000 325.0000 1.0000
69.4100 282.0000 1.0000
69.4200 288.0000 1.0000
69.4300 328.0000 1.0000
69.4400 305.0000 1.0000
69.4500 310.0000 1.0000
69.4600 292.0000 1.0000
69.4700 318.0000 1.0000
69.4800 309.0000 1.0000
69.4900 331.0000 1.0000
69.5000 282.0000 1.0000
69.5100 297.0000 1.0000
69.5200 306.0000 1.0000
69.5300 307.0000 1.0000
69.5400 310.0000 1.0000
69.5500 335.0000 1.0000
69.5600 325.0000 1.0000
69.5700 317.0000 1.0000
69.5800 330.0000 1.0000
69.5900 313.0000 1.0000
69.6000 277.0000 1.0000
69.6100 287.0000 1.0000
69.6200 290.0000 1.0000
69.6300 326.0000 1.0000
69.6400 276.0000 1.0000
69.6500 288.0000 1.0000
69.6600 292.0000 1.0000
69.6700 299.0000 1.0000
69.6800 287.0000 1.0000
69.6900 321.0000 1.0000
69.7000 323.0000 1.0000
69.7100 294.0000 1.0000
69.7200 293.0000 1.0000
69.7300 319.0000 1.0000
69.7400 313.0000 1.0000
69.7500 321.0000 1.0000
69.7600 333.0000 1.0000
69.7700 325.0000 1.0000
69.7800 308.0000 1.0000
69.7900 301.0000 1.0000
69.8000 294.0000 1.0000
69.8100 294.0000 1.0000
69.8200 307.0000 1.0000
69.8300 309.0000 1.0000
69.8400 319.0000 1.0000
69.8500 305.0000 1.0000
69.8600 299.0000 1.0000
69.8700 328.0000 1.0000
69.8800 299.0000 1.0000
69.8900 307.0000 1.0000
69.9000 329.0000 1.0000
69.9100 293.0000 1.0000
69.9200 300.0000 1.0000
69.9300 302.0000 1.0000
69.9400 293.0000 1.0000
69.9500 304.0000 1.0000
69.9600 298.0000 1.0000
69.9700 294.0000 1.0000
69.9800 276.0000 1.0000
69.9900 320.0000 1.0000
70.0000 291.0000 1.0000
*RAS_INT_END
*RAS_TEMPERATURE_START
*RAS_TEMPERATURE_END
*RAS_DATA_END
