*RAS_DATA_START
*RAS_HEADER_START
*DISP_FMT_X "%.2f"
*DISP_FMT_Y "%.0f"
*DISP_FULLSCALE "14536.0000000000"
*DISP_LINE_COLOR "255.0000000000"
*DISP_LINE_STYLE "0.0000000000"
*DISP_LINE_WIDTH "0.2500000000"
*DISP_NOTE "測定データ-4"
*DISP_OFFSET_Y "0.0000000000"
*DISP_PEAKSEARCH_UNIT_Y "cps"
*DISP_RANGE_BOTTOM "0.0000000000"
*DISP_RANGE_LEFT "20.0000000000"
*DISP_RANGE_LOGCUTOFF "0.0100000000"
*DISP_RANGE_RIGHT "70.0000000000"
*DISP_RANGE_TOP "14536.0000000000"
*DISP_SCALE_MODE_Y "0.0000000000"
*DISP_TAB_NAME "2θ/θ"
*DISP_TITLE_Y "強度"
*DISP_UNIT_Y "cps"
*DISP_WINDOW_NAME "MSG_MACROENGINE"
*FILE_COMMENT " "
*FILE_MD5 ""
*FILE_MEMO " "
*FILE_OPERATOR "Administrator"
*FILE_SAMPLE " "
*FILE_TYPE "RAS_RAW"
*FILE_USERGROUP "システムマネージャ"
*FILE_VERSION "1.0000000000"
*HW_ATTACHMENT_ID "ATT0025"
*HW_ATTACHMENT_NAME "標準|Standard"
*HW_COUNTER_ID-0 "CUT0025"
*HW_COUNTER_ID-1 "CUT0020"
*HW_COUNTER_ID-2 "CUT0020"
*HW_COUNTER_ID-3 "CSL0021"
*HW_COUNTER_ID-4 "CMC0021"
*HW_COUNTER_NAME-0 "D/teX Ultra|D/teX Ultra"
*HW_COUNTER_NAME-1 "None|None"
*HW_COUNTER_NAME-2 "None|None"
*HW_COUNTER_NAME-3 "BBM|BBM"
*HW_COUNTER_NAME-4 "検出器モノクロメータ|Detector monochromator"
*HW_COUNTER_SELECT_NAME "D/teX Ultra|D/teX Ultra"
*HW_GONIOMETER_ID "GON0023"
*HW_GONIOMETER_NAME "SmartLab|SmartLab"
*HW_GONIOMETER_RADIUS-0 "90.0"
*HW_GONIOMETER_RADIUS-1 "114.0"
*HW_GONIOMETER_RADIUS-2 "190.0"
*HW_GONIOMETER_RADIUS-3 "300.0"
*HW_GONIOMETER_RADIUS-4 "187.0"
*HW_GONIOMETER_RADIUS-5 "300.0"
*HW_GONIOMETER_RADIUS-6 "113.0"
*HW_GONIOMETER_RADIUS-7 "331.0"
*HW_I_OPT_ID-0 "CBO0021"
*HW_I_OPT_ID-1 "ICR0023"
*HW_I_OPT_ID-2 "ISL0021"
*HW_I_OPT_ID-3 "ISO0021"
*HW_I_OPT_ID-4 "IAD0021"
*HW_I_OPT_ID-5 "IPR0001"
*HW_I_OPT_NAME-0 "CBOユニット|CBO unit"
*HW_I_OPT_NAME-1 "標準入射光学ユニット|Standard incident optical unit"
*HW_I_OPT_NAME-2 "標準入射スリットボックス|Standard incident slit box"
*HW_I_OPT_NAME-3 "入射平行スリット|Incident parallel slit"
*HW_I_OPT_NAME-4 "長手制限スリット|Length limiting slit"
*HW_I_OPT_NAME-5 "None|None"
*HW_R_ATTENUATER_AUTOMODE "0"
*HW_R_OPT_ID-0 "RSS0021"
*HW_R_OPT_ID-1 "RCR0023"
*HW_R_OPT_ID-2 "RSO0021"
*HW_R_OPT_ID-3 "RRS0021"
*HW_R_OPT_ID-4 "ATN0021"
*HW_R_OPT_ID-5 "RFL0021"
*HW_R_OPT_ID-6 "RAD0021"
*HW_R_OPT_NAME-0 "標準受光スリットボックス1|Standard receiving slit box # 1"
*HW_R_OPT_NAME-1 "標準受光光学ユニット1|Standard receiving unit # 1"
*HW_R_OPT_NAME-2 "標準受光光学ユニット2|Standard receiving optical unit # 2"
*HW_R_OPT_NAME-3 "標準受光スリットボックス2|Standard receiving slit box # 2"
*HW_R_OPT_NAME-4 "標準アッテネータ|Standard Attenuator"
*HW_R_OPT_NAME-5 "Cu Kβ|Cu K-beta"
*HW_R_OPT_NAME-6 "調整用受光スリット|Alignment receiving slit"
*HW_SAMPLE_HOLDER_ID "SMP0023"
*HW_SAMPLE_HOLDER_NAME "標準Zステージ|Standard Z stage"
*HW_XG_CURRENT_MAX "50"
*HW_XG_CURRENT_MIN "2"
*HW_XG_CURRENT_RESOLUTION "1"
*HW_XG_CURRENT_UNIT "mA"
*HW_XG_FOCUS "1mm x 10mm"
*HW_XG_FOCUS_TYPE "Normal"
*HW_XG_ID ""
*HW_XG_NAME "3kW 封入管(ID:1200)|3kW Sealed tube(ID:1200)"
*HW_XG_TARGET_ATOMIC_NUMBER "29.0000000000"
*HW_XG_TARGET_NAME "Cu"
*HW_XG_TYPE "Hermetic"
*HW_XG_VOLTAGE_MAX "60"
*HW_XG_VOLTAGE_MIN "20"
*HW_XG_VOLTAGE_RESOLUTION "1"
*HW_XG_VOLTAGE_UNIT "kV"
*HW_XG_WATT_MAX "1.500"
*HW_XG_WATT_UNIT "kW"
*HW_XG_WAVE_LENGTH_ALPHA1 "1.540593"
*HW_XG_WAVE_LENGTH_ALPHA2 "1.544414"
*HW_XG_WAVE_LENGTH_BETA "1.392250"
*MEAS_COND_AXIS_NAME-0 "2θ/θ"
*MEAS_COND_AXIS_NAME-1 "2θ"
*MEAS_COND_AXIS_NAME-2 "ω"
*MEAS_COND_AXIS_NAME-3 "Z"
*MEAS_COND_AXIS_NAME-4 "2θ/ω"
*MEAS_COND_AXIS_NAME-5 "θs"
*MEAS_COND_AXIS_NAME-6 "θd"
*MEAS_COND_AXIS_NAME-7 "Ts"
*MEAS_COND_AXIS_NAME-8 "CBO選択スリット"
*MEAS_COND_AXIS_NAME-9 "M"
*MEAS_COND_AXIS_NAME-10 "入射平行スリット"
*MEAS_COND_AXIS_NAME-11 "入射スリット"
*MEAS_COND_AXIS_NAME-12 ""
*MEAS_COND_AXIS_NAME-13 "Zs"
*MEAS_COND_AXIS_NAME-14 "入射光学素子"
*MEAS_COND_AXIS_NAME-15 "長手制限スリット"
*MEAS_COND_AXIS_NAME-16 "センタースリット"
*MEAS_COND_AXIS_NAME-17 "フィルター"
*MEAS_COND_AXIS_NAME-18 "受光スリット1"
*MEAS_COND_AXIS_NAME-19 "受光スリット2"
*MEAS_COND_AXIS_NAME-20 "受光光学素子"
*MEAS_COND_AXIS_NAME-21 "受光平行スリット"
*MEAS_COND_AXIS_NAME-22 "調整用受光スリット"
*MEAS_COND_AXIS_NAME-23 ""
*MEAS_COND_AXIS_NAME-24 ""
*MEAS_COND_AXIS_NAME-25 "Zd"
*MEAS_COND_AXIS_NAME-26 "アッテネータ"
*MEAS_COND_AXIS_NAME-27 "検出器モノクロメータ"
*MEAS_COND_AXIS_NAME-28 "モノクロメータスリット"
*MEAS_COND_AXIS_NAME-29 "プライマリビーム"
*MEAS_COND_AXIS_NAME-30 "PHA"
*MEAS_COND_AXIS_NAME_INTERNAL-0 "TwoThetaTheta"
*MEAS_COND_AXIS_NAME_INTERNAL-1 "TwoTheta"
*MEAS_COND_AXIS_NAME_INTERNAL-2 "Omega"
*MEAS_COND_AXIS_NAME_INTERNAL-3 "Z"
*MEAS_COND_AXIS_NAME_INTERNAL-4 "TwoThetaOmega"
*MEAS_COND_AXIS_NAME_INTERNAL-5 "ThetaS"
*MEAS_COND_AXIS_NAME_INTERNAL-6 "ThetaD"
*MEAS_COND_AXIS_NAME_INTERNAL-7 "Ts"
*MEAS_COND_AXIS_NAME_INTERNAL-8 "CBO"
*MEAS_COND_AXIS_NAME_INTERNAL-9 "CBO-M"
*MEAS_COND_AXIS_NAME_INTERNAL-10 "IncidentSollerSlit"
*MEAS_COND_AXIS_NAME_INTERNAL-11 "IncidentSlitBox"
*MEAS_COND_AXIS_NAME_INTERNAL-12 "IncidentSlitBox-_Axis"
*MEAS_COND_AXIS_NAME_INTERNAL-13 "Zs"
*MEAS_COND_AXIS_NAME_INTERNAL-14 "IncidentMonochromator"
*MEAS_COND_AXIS_NAME_INTERNAL-15 "IncidentAxdSlit"
*MEAS_COND_AXIS_NAME_INTERNAL-16 "CenterSlit"
*MEAS_COND_AXIS_NAME_INTERNAL-17 "Filter"
*MEAS_COND_AXIS_NAME_INTERNAL-18 "ReceivingSlitBox1"
*MEAS_COND_AXIS_NAME_INTERNAL-19 "ReceivingSlitBox2"
*MEAS_COND_AXIS_NAME_INTERNAL-20 "ReceivingOptics"
*MEAS_COND_AXIS_NAME_INTERNAL-21 "ReceivingSollerSlit"
*MEAS_COND_AXIS_NAME_INTERNAL-22 "ReceivingAxdSlit"
*MEAS_COND_AXIS_NAME_INTERNAL-23 "ReceivingSlitBox1-_Axis"
*MEAS_COND_AXIS_NAME_INTERNAL-24 "ReceivingSlitBox2-_Axis"
*MEAS_COND_AXIS_NAME_INTERNAL-25 "ReceivingSlitBox2-Zd"
*MEAS_COND_AXIS_NAME_INTERNAL-26 "Attenuator"
*MEAS_COND_AXIS_NAME_INTERNAL-27 "CounterMonochromator"
*MEAS_COND_AXIS_NAME_INTERNAL-28 "CounterSlit"
*MEAS_COND_AXIS_NAME_INTERNAL-29 "IncidentPrimary"
*MEAS_COND_AXIS_NAME_INTERNAL-30 "PHA"
*MEAS_COND_AXIS_NAME_MAGICNO-0 "83951616.0000000000"
*MEAS_COND_AXIS_NAME_MAGICNO-1 "268632064.0000000000"
*MEAS_COND_AXIS_NAME_MAGICNO-2 "268500992.0000000000"
*MEAS_COND_AXIS_NAME_MAGICNO-3 "285278208.0000000000"
*MEAS_COND_AXIS_NAME_MAGICNO-4 "83951616.0000000000"
*MEAS_COND_AXIS_NAME_MAGICNO-5 "131072.0000000000"
*MEAS_COND_AXIS_NAME_MAGICNO-6 "131072.0000000000"
*MEAS_COND_AXIS_NAME_MAGICNO-7 "318898176.0000000000"
*MEAS_COND_AXIS_NAME_MAGICNO-8 "20971521.0000000000"
*MEAS_COND_AXIS_NAME_MAGICNO-9 "285343744.0000000000"
*MEAS_COND_AXIS_NAME_MAGICNO-10 "20971521.0000000000"
*MEAS_COND_AXIS_NAME_MAGICNO-11 "22020097.0000000000"
*MEAS_COND_AXIS_NAME_MAGICNO-12 "25165824.0000000000"
*MEAS_COND_AXIS_NAME_MAGICNO-13 "318898176.0000000000"
*MEAS_COND_AXIS_NAME_MAGICNO-14 "1.0000000000"
*MEAS_COND_AXIS_NAME_MAGICNO-15 "20971521.0000000000"
*MEAS_COND_AXIS_NAME_MAGICNO-16 "20971521.0000000000"
*MEAS_COND_AXIS_NAME_MAGICNO-17 "20971521.0000000000"
*MEAS_COND_AXIS_NAME_MAGICNO-18 "23068673.0000000000"
*MEAS_COND_AXIS_NAME_MAGICNO-19 "23068673.0000000000"
*MEAS_COND_AXIS_NAME_MAGICNO-20 "20971521.0000000000"
*MEAS_COND_AXIS_NAME_MAGICNO-21 "20971521.0000000000"
*MEAS_COND_AXIS_NAME_MAGICNO-22 "20971521.0000000000"
*MEAS_COND_AXIS_NAME_MAGICNO-23 "25165824.0000000000"
*MEAS_COND_AXIS_NAME_MAGICNO-24 "25165824.0000000000"
*MEAS_COND_AXIS_NAME_MAGICNO-25 "285343744.0000000000"
*MEAS_COND_AXIS_NAME_MAGICNO-26 "17301505.0000000000"
*MEAS_COND_AXIS_NAME_MAGICNO-27 "20971521.0000000000"
*MEAS_COND_AXIS_NAME_MAGICNO-28 "20971521.0000000000"
*MEAS_COND_AXIS_NAME_MAGICNO-29 "20971521.0000000000"
*MEAS_COND_AXIS_NAME_MAGICNO-30 "0.0000000000"
*MEAS_COND_AXIS_OFFSET-0 "-"
*MEAS_COND_AXIS_OFFSET-1 "-0.1081000000"
*MEAS_COND_AXIS_OFFSET-2 "0.3758000000"
*MEAS_COND_AXIS_OFFSET-3 "-"
*MEAS_COND_AXIS_OFFSET-4 "-"
*MEAS_COND_AXIS_OFFSET-5 "0.3758000000"
*MEAS_COND_AXIS_OFFSET-6 "-0.4839000000"
*MEAS_COND_AXIS_OFFSET-7 "-"
*MEAS_COND_AXIS_OFFSET-8 "-"
*MEAS_COND_AXIS_OFFSET-9 "-"
*MEAS_COND_AXIS_OFFSET-10 "-"
*MEAS_COND_AXIS_OFFSET-11 "-"
*MEAS_COND_AXIS_OFFSET-12 "-"
*MEAS_COND_AXIS_OFFSET-13 "-"
*MEAS_COND_AXIS_OFFSET-14 "-"
*MEAS_COND_AXIS_OFFSET-15 "-"
*MEAS_COND_AXIS_OFFSET-16 "-"
*MEAS_COND_AXIS_OFFSET-17 "-"
*MEAS_COND_AXIS_OFFSET-18 "-"
*MEAS_COND_AXIS_OFFSET-19 "-"
*MEAS_COND_AXIS_OFFSET-20 "-"
*MEAS_COND_AXIS_OFFSET-21 "-"
*MEAS_COND_AXIS_OFFSET-22 "-"
*MEAS_COND_AXIS_OFFSET-23 "-"
*MEAS_COND_AXIS_OFFSET-24 "-"
*MEAS_COND_AXIS_OFFSET-25 "-"
*MEAS_COND_AXIS_OFFSET-26 "-"
*MEAS_COND_AXIS_OFFSET-27 "-"
*MEAS_COND_AXIS_OFFSET-28 "-"
*MEAS_COND_AXIS_OFFSET-29 "-"
*MEAS_COND_AXIS_OFFSET-30 "-"
*MEAS_COND_AXIS_POSITION-0 "0.0000000000"
*MEAS_COND_AXIS_POSITION-1 "0.0000000000"
*MEAS_COND_AXIS_POSITION-2 "0.0000000000"
*MEAS_COND_AXIS_POSITION-3 "-0.5500000000"
*MEAS_COND_AXIS_POSITION-4 "0.0000000000"
*MEAS_COND_AXIS_POSITION-5 "0.0000000000"
*MEAS_COND_AXIS_POSITION-6 "0.0000000000"
*MEAS_COND_AXIS_POSITION-7 "-0.4278800000"
*MEAS_COND_AXIS_POSITION-8 "BB"
*MEAS_COND_AXIS_POSITION-9 "0.0000000000"
*MEAS_COND_AXIS_POSITION-10 "Soller_slit_5.0deg"
*MEAS_COND_AXIS_POSITION-11 "2/3deg"
*MEAS_COND_AXIS_POSITION-12 "2.2088000000"
*MEAS_COND_AXIS_POSITION-13 "-0.4140600000"
*MEAS_COND_AXIS_POSITION-14 "0.0000000000"
*MEAS_COND_AXIS_POSITION-15 "10.0mm"
*MEAS_COND_AXIS_POSITION-16 "None"
*MEAS_COND_AXIS_POSITION-17 "Cu_K-beta"
*MEAS_COND_AXIS_POSITION-18 "13.000mm"
*MEAS_COND_AXIS_POSITION-19 "13.000mm"
*MEAS_COND_AXIS_POSITION-20 "No_unit"
*MEAS_COND_AXIS_POSITION-21 "Soller_slit_5.0deg"
*MEAS_COND_AXIS_POSITION-22 "None"
*MEAS_COND_AXIS_POSITION-23 "13.0000000000"
*MEAS_COND_AXIS_POSITION-24 "13.0000000000"
*MEAS_COND_AXIS_POSITION-25 "0.0109400000"
*MEAS_COND_AXIS_POSITION-26 "Open"
*MEAS_COND_AXIS_POSITION-27 "None"
*MEAS_COND_AXIS_POSITION-28 "None"
*MEAS_COND_AXIS_POSITION-29 "None"
*MEAS_COND_AXIS_POSITION-30 "38.0000000000"
*MEAS_COND_AXIS_UNIT-0 "deg"
*MEAS_COND_AXIS_UNIT-1 "deg"
*MEAS_COND_AXIS_UNIT-2 "deg"
*MEAS_COND_AXIS_UNIT-3 "mm"
*MEAS_COND_AXIS_UNIT-4 "deg"
*MEAS_COND_AXIS_UNIT-5 "deg"
*MEAS_COND_AXIS_UNIT-6 "deg"
*MEAS_COND_AXIS_UNIT-7 "mm"
*MEAS_COND_AXIS_UNIT-8 ""
*MEAS_COND_AXIS_UNIT-9 "pulse"
*MEAS_COND_AXIS_UNIT-10 ""
*MEAS_COND_AXIS_UNIT-11 ""
*MEAS_COND_AXIS_UNIT-12 "mm"
*MEAS_COND_AXIS_UNIT-13 "mm"
*MEAS_COND_AXIS_UNIT-14 ""
*MEAS_COND_AXIS_UNIT-15 ""
*MEAS_COND_AXIS_UNIT-16 ""
*MEAS_COND_AXIS_UNIT-17 ""
*MEAS_COND_AXIS_UNIT-18 ""
*MEAS_COND_AXIS_UNIT-19 ""
*MEAS_COND_AXIS_UNIT-20 ""
*MEAS_COND_AXIS_UNIT-21 ""
*MEAS_COND_AXIS_UNIT-22 ""
*MEAS_COND_AXIS_UNIT-23 "mm"
*MEAS_COND_AXIS_UNIT-24 "mm"
*MEAS_COND_AXIS_UNIT-25 "mm"
*MEAS_COND_AXIS_UNIT-26 ""
*MEAS_COND_AXIS_UNIT-27 ""
*MEAS_COND_AXIS_UNIT-28 ""
*MEAS_COND_AXIS_UNIT-29 ""
*MEAS_COND_AXIS_UNIT-30 "div"
*MEAS_COND_COUNTER_CNTLOSS_CORR "0.0000000000"
*MEAS_COND_COUNTER_PHABASE "38.0000000000"
*MEAS_COND_COUNTER_PHAWINDOW "16.0000000000"
*MEAS_COND_COUNTER_PHA_UNIT "div"
*MEAS_COND_COUNTER_TAUDIFF "30.0000000000"
*MEAS_COND_COUNTER_TAUINT "0.0000000000"
*MEAS_COND_IRRADIATION_MODE "OFF"
*MEAS_COND_IRRADIATION_WIDTH ""
*MEAS_COND_OPT_ATTR "集中法"
*MEAS_COND_OPT_NAME "@集中法"
*MEAS_COND_UNSYMMETRIC_MODE "OFF"
*MEAS_COND_XG_CURRENT "30.0000000000"
*MEAS_COND_XG_VOLTAGE "40.0000000000"
*MEAS_COND_XG_WAVE_TYPE "Ka"
*MEAS_DATA_COUNT "5001.0000000000"
*MEAS_SCAN_AXIS_X "2θ/θ"
*MEAS_SCAN_AXIS_X_INTERNAL "TwoThetaTheta"
*MEAS_SCAN_END_TIME "06/30/21 15:17:49"
*MEAS_SCAN_MODE "CONTINUOUS"
*MEAS_SCAN_MONITOR "0"
*MEAS_SCAN_RESOLUTION_X "0.0002"
*MEAS_SCAN_SPEED "1.0"
*MEAS_SCAN_SPEED_UNIT "deg/min"
*MEAS_SCAN_START "20.0000000000"
*MEAS_SCAN_START_TIME "06/30/21 14:24:56"
*MEAS_SCAN_STEP "0.0100000000"
*MEAS_SCAN_STOP "70.0000000000"
*MEAS_SCAN_UNIT_X "deg"
*MEAS_SCAN_UNIT_Y "counts"
*RAS_HEADER_END
*RAS_INT_START
20.0000 1612.0000 1.0000
20.0100 1607.0000 1.0000
20.0200 1616.0000 1.0000
20.0300 1607.0000 1.0000
20.0400 1582.0000 1.0000
20.0500 1570.0000 1.0000
20.0600 1617.0000 1.0000
20.0700 1544.0000 1.0000
20.0800 1633.0000 1.0000
20.0900 1585.0000 1.0000
20.1000 1576.0000 1.0000
20.1100 1595.0000 1.0000
20.1200 1566.0000 1.0000
20.1300 1591.0000 1.0000
20.1400 1634.0000 1.0000
20.1500 1545.0000 1.0000
20.1600 1588.0000 1.0000
20.1700 1578.0000 1.0000
20.1800 1569.0000 1.0000
20.1900 1579.0000 1.0000
20.2000 1541.0000 1.0000
20.2100 1647.0000 1.0000
20.2200 1603.0000 1.0000
20.2300 1513.0000 1.0000
20.2400 1577.0000 1.0000
20.2500 1553.0000 1.0000
20.2600 1613.0000 1.0000
20.2700 1575.0000 1.0000
20.2800 1548.0000 1.0000
20.2900 1579.0000 1.0000
20.3000 1556.0000 1.0000
20.3100 1572.0000 1.0000
20.3200 1587.0000 1.0000
20.3300 1536.0000 1.0000
20.3400 1593.0000 1.0000
20.3500 1656.0000 1.0000
20.3600 1615.0000 1.0000
20.3700 1580.0000 1.0000
20.3800 1552.0000 1.0000
20.3900 1598.0000 1.0000
20.4000 1544.0000 1.0000
20.4100 1566.0000 1.0000
20.4200 1602.0000 1.0000
20.4300 1595.0000 1.0000
20.4400 1601.0000 1.0000
20.4500 1605.0000 1.0000
20.4600 1565.0000 1.0000
20.4700 1564.0000 1.0000
20.4800 1575.0000 1.0000
20.4900 1563.0000 1.0000
20.5000 1539.0000 1.0000
20.5100 1558.0000 1.0000
20.5200 1575.0000 1.0000
20.5300 1577.0000 1.0000
20.5400 1548.0000 1.0000
20.5500 1628.0000 1.0000
20.5600 1578.0000 1.0000
20.5700 1571.0000 1.0000
20.5800 1569.0000 1.0000
20.5900 1582.0000 1.0000
20.6000 1580.0000 1.0000
20.6100 1461.0000 1.0000
20.6200 1544.0000 1.0000
20.6300 1626.0000 1.0000
20.6400 1592.0000 1.0000
20.6500 1540.0000 1.0000
20.6600 1552.0000 1.0000
20.6700 1594.0000 1.0000
20.6800 1572.0000 1.0000
20.6900 1621.0000 1.0000
20.7000 1543.0000 1.0000
20.7100 1542.0000 1.0000
20.7200 1597.0000 1.0000
20.7300 1610.0000 1.0000
20.7400 1604.0000 1.0000
20.7500 1497.0000 1.0000
20.7600 1588.0000 1.0000
20.7700 1549.0000 1.0000
20.7800 1629.0000 1.0000
20.7900 1593.0000 1.0000
20.8000 1637.0000 1.0000
20.8100 1611.0000 1.0000
20.8200 1596.0000 1.0000
20.8300 1560.0000 1.0000
20.8400 1620.0000 1.0000
20.8500 1626.0000 1.0000
20.8600 1565.0000 1.0000
20.8700 1574.0000 1.0000
20.8800 1609.0000 1.0000
20.8900 1600.0000 1.0000
20.9000 1571.0000 1.0000
20.9100 1498.0000 1.0000
20.9200 1598.0000 1.0000
20.9300 1547.0000 1.0000
20.9400 1636.0000 1.0000
20.9500 1595.0000 1.0000
20.9600 1516.0000 1.0000
20.9700 1523.0000 1.0000
20.9800 1551.0000 1.0000
20.9900 1585.0000 1.0000
21.0000 1543.0000 1.0000
21.0100 1546.0000 1.0000
21.0200 1571.0000 1.0000
21.0300 1553.0000 1.0000
21.0400 1608.0000 1.0000
21.0500 1636.0000 1.0000
21.0600 1618.0000 1.0000
21.0700 1581.0000 1.0000
21.0800 1597.0000 1.0000
21.0900 1590.0000 1.0000
21.1000 1620.0000 1.0000
21.1100 1616.0000 1.0000
21.1200 1587.0000 1.0000
21.1300 1569.0000 1.0000
21.1400 1627.0000 1.0000
21.1500 1582.0000 1.0000
21.1600 1595.0000 1.0000
21.1700 1597.0000 1.0000
21.1800 1675.0000 1.0000
21.1900 1618.0000 1.0000
21.2000 1611.0000 1.0000
21.2100 1588.0000 1.0000
21.2200 1640.0000 1.0000
21.2300 1601.0000 1.0000
21.2400 1585.0000 1.0000
21.2500 1572.0000 1.0000
21.2600 1663.0000 1.0000
21.2700 1618.0000 1.0000
21.2800 1624.0000 1.0000
21.2900 1587.0000 1.0000
21.3000 1571.0000 1.0000
21.3100 1598.0000 1.0000
21.3200 1606.0000 1.0000
21.3300 1584.0000 1.0000
21.3400 1546.0000 1.0000
21.3500 1548.0000 1.0000
21.3600 1524.0000 1.0000
21.3700 1640.0000 1.0000
21.3800 1605.0000 1.0000
21.3900 1643.0000 1.0000
21.4000 1588.0000 1.0000
21.4100 1665.0000 1.0000
21.4200 1644.0000 1.0000
21.4300 1593.0000 1.0000
21.4400 1650.0000 1.0000
21.4500 1601.0000 1.0000
21.4600 1615.0000 1.0000
21.4700 1605.0000 1.0000
21.4800 1634.0000 1.0000
21.4900 1582.0000 1.0000
21.5000 1582.0000 1.0000
21.5100 1595.0000 1.0000
21.5200 1548.0000 1.0000
21.5300 1651.0000 1.0000
21.5400 1638.0000 1.0000
21.5500 1571.0000 1.0000
21.5600 1561.0000 1.0000
21.5700 1607.0000 1.0000
21.5800 1623.0000 1.0000
21.5900 1587.0000 1.0000
21.6000 1540.0000 1.0000
21.6100 1568.0000 1.0000
21.6200 1591.0000 1.0000
21.6300 1641.0000 1.0000
21.6400 1532.0000 1.0000
21.6500 1608.0000 1.0000
21.6600 1576.0000 1.0000
21.6700 1535.0000 1.0000
21.6800 1637.0000 1.0000
21.6900 1614.0000 1.0000
21.7000 1577.0000 1.0000
21.7100 1578.0000 1.0000
21.7200 1597.0000 1.0000
21.7300 1598.0000 1.0000
21.7400 1617.0000 1.0000
21.7500 1641.0000 1.0000
21.7600 1579.0000 1.0000
21.7700 1623.0000 1.0000
21.7800 1599.0000 1.0000
21.7900 1605.0000 1.0000
21.8000 1575.0000 1.0000
21.8100 1643.0000 1.0000
21.8200 1555.0000 1.0000
21.8300 1629.0000 1.0000
21.8400 1604.0000 1.0000
21.8500 1607.0000 1.0000
21.8600 1590.0000 1.0000
21.8700 1633.0000 1.0000
21.8800 1625.0000 1.0000
21.8900 1583.0000 1.0000
21.9000 1659.0000 1.0000
21.9100 1626.0000 1.0000
21.9200 1599.0000 1.0000
21.9300 1599.0000 1.0000
21.9400 1603.0000 1.0000
21.9500 1622.0000 1.0000
21.9600 1620.0000 1.0000
21.9700 1629.0000 1.0000
21.9800 1533.0000 1.0000
21.9900 1561.0000 1.0000
22.0000 1635.0000 1.0000
22.0100 1585.0000 1.0000
22.0200 1556.0000 1.0000
22.0300 1551.0000 1.0000
22.0400 1633.0000 1.0000
22.0500 1570.0000 1.0000
22.0600 1607.0000 1.0000
22.0700 1561.0000 1.0000
22.0800 1579.0000 1.0000
22.0900 1589.0000 1.0000
22.1000 1612.0000 1.0000
22.1100 1698.0000 1.0000
22.1200 1605.0000 1.0000
22.1300 1601.0000 1.0000
22.1400 1629.0000 1.0000
22.1500 1570.0000 1.0000
22.1600 1659.0000 1.0000
22.1700 1527.0000 1.0000
22.1800 1621.0000 1.0000
22.1900 1655.0000 1.0000
22.2000 1628.0000 1.0000
22.2100 1583.0000 1.0000
22.2200 1620.0000 1.0000
22.2300 1565.0000 1.0000
22.2400 1614.0000 1.0000
22.2500 1609.0000 1.0000
22.2600 1546.0000 1.0000
22.2700 1647.0000 1.0000
22.2800 1612.0000 1.0000
22.2900 1711.0000 1.0000
22.3000 1620.0000 1.0000
22.3100 1571.0000 1.0000
22.3200 1561.0000 1.0000
22.3300 1673.0000 1.0000
22.3400 1646.0000 1.0000
22.3500 1600.0000 1.0000
22.3600 1659.0000 1.0000
22.3700 1571.0000 1.0000
22.3800 1595.0000 1.0000
22.3900 1617.0000 1.0000
22.4000 1641.0000 1.0000
22.4100 1607.0000 1.0000
22.4200 1642.0000 1.0000
22.4300 1622.0000 1.0000
22.4400 1592.0000 1.0000
22.4500 1588.0000 1.0000
22.4600 1617.0000 1.0000
22.4700 1576.0000 1.0000
22.4800 1650.0000 1.0000
22.4900 1629.0000 1.0000
22.5000 1630.0000 1.0000
22.5100 1604.0000 1.0000
22.5200 1631.0000 1.0000
22.5300 1643.0000 1.0000
22.5400 1594.0000 1.0000
22.5500 1575.0000 1.0000
22.5600 1612.0000 1.0000
22.5700 1621.0000 1.0000
22.5800 1550.0000 1.0000
22.5900 1590.0000 1.0000
22.6000 1617.0000 1.0000
22.6100 1599.0000 1.0000
22.6200 1620.0000 1.0000
22.6300 1591.0000 1.0000
22.6400 1607.0000 1.0000
22.6500 1630.0000 1.0000
22.6600 1548.0000 1.0000
22.6700 1632.0000 1.0000
22.6800 1589.0000 1.0000
22.6900 1641.0000 1.0000
22.7000 1655.0000 1.0000
22.7100 1663.0000 1.0000
22.7200 1621.0000 1.0000
22.7300 1587.0000 1.0000
22.7400 1593.0000 1.0000
22.7500 1645.0000 1.0000
22.7600 1629.0000 1.0000
22.7700 1620.0000 1.0000
22.7800 1655.0000 1.0000
22.7900 1616.0000 1.0000
22.8000 1648.0000 1.0000
22.8100 1650.0000 1.0000
22.8200 1640.0000 1.0000
22.8300 1578.0000 1.0000
22.8400 1591.0000 1.0000
22.8500 1642.0000 1.0000
22.8600 1638.0000 1.0000
22.8700 1634.0000 1.0000
22.8800 1664.0000 1.0000
22.8900 1641.0000 1.0000
22.9000 1657.0000 1.0000
22.9100 1582.0000 1.0000
22.9200 1606.0000 1.0000
22.9300 1678.0000 1.0000
22.9400 1675.0000 1.0000
22.9500 1643.0000 1.0000
22.9600 1673.0000 1.0000
22.9700 1611.0000 1.0000
22.9800 1657.0000 1.0000
22.9900 1654.0000 1.0000
23.0000 1654.0000 1.0000
23.0100 1621.0000 1.0000
23.0200 1658.0000 1.0000
23.0300 1645.0000 1.0000
23.0400 1603.0000 1.0000
23.0500 1692.0000 1.0000
23.0600 1667.0000 1.0000
23.0700 1618.0000 1.0000
23.0800 1643.0000 1.0000
23.0900 1563.0000 1.0000
23.1000 1630.0000 1.0000
23.1100 1637.0000 1.0000
23.1200 1684.0000 1.0000
23.1300 1625.0000 1.0000
23.1400 1624.0000 1.0000
23.1500 1611.0000 1.0000
23.1600 1633.0000 1.0000
23.1700 1642.0000 1.0000
23.1800 1630.0000 1.0000
23.1900 1610.0000 1.0000
23.2000 1635.0000 1.0000
23.2100 1637.0000 1.0000
23.2200 1616.0000 1.0000
23.2300 1644.0000 1.0000
23.2400 1578.0000 1.0000
23.2500 1601.0000 1.0000
23.2600 1630.0000 1.0000
23.2700 1576.0000 1.0000
23.2800 1659.0000 1.0000
23.2900 1615.0000 1.0000
23.3000 1594.0000 1.0000
23.3100 1588.0000 1.0000
23.3200 1624.0000 1.0000
23.3300 1614.0000 1.0000
23.3400 1632.0000 1.0000
23.3500 1596.0000 1.0000
23.3600 1659.0000 1.0000
23.3700 1661.0000 1.0000
23.3800 1595.0000 1.0000
23.3900 1602.0000 1.0000
23.4000 1584.0000 1.0000
23.4100 1606.0000 1.0000
23.4200 1610.0000 1.0000
23.4300 1636.0000 1.0000
23.4400 1638.0000 1.0000
23.4500 1646.0000 1.0000
23.4600 1623.0000 1.0000
23.4700 1704.0000 1.0000
23.4800 1605.0000 1.0000
23.4900 1615.0000 1.0000
23.5000 1697.0000 1.0000
23.5100 1641.0000 1.0000
23.5200 1659.0000 1.0000
23.5300 1684.0000 1.0000
23.5400 1607.0000 1.0000
23.5500 1675.0000 1.0000
23.5600 1675.0000 1.0000
23.5700 1652.0000 1.0000
23.5800 1611.0000 1.0000
23.5900 1655.0000 1.0000
23.6000 1682.0000 1.0000
23.6100 1634.0000 1.0000
23.6200 1642.0000 1.0000
23.6300 1648.0000 1.0000
23.6400 1697.0000 1.0000
23.6500 1637.0000 1.0000
23.6600 1577.0000 1.0000
23.6700 1638.0000 1.0000
23.6800 1640.0000 1.0000
23.6900 1569.0000 1.0000
23.7000 1593.0000 1.0000
23.7100 1639.0000 1.0000
23.7200 1640.0000 1.0000
23.7300 1668.0000 1.0000
23.7400 1628.0000 1.0000
23.7500 1627.0000 1.0000
23.7600 1637.0000 1.0000
23.7700 1626.0000 1.0000
23.7800 1680.0000 1.0000
23.7900 1680.0000 1.0000
23.8000 1639.0000 1.0000
23.8100 1635.0000 1.0000
23.8200 1635.0000 1.0000
23.8300 1703.0000 1.0000
23.8400 1651.0000 1.0000
23.8500 1670.0000 1.0000
23.8600 1683.0000 1.0000
23.8700 1675.0000 1.0000
23.8800 1641.0000 1.0000
23.8900 1604.0000 1.0000
23.9000 1617.0000 1.0000
23.9100 1592.0000 1.0000
23.9200 1677.0000 1.0000
23.9300 1688.0000 1.0000
23.9400 1673.0000 1.0000
23.9500 1642.0000 1.0000
23.9600 1668.0000 1.0000
23.9700 1665.0000 1.0000
23.9800 1713.0000 1.0000
23.9900 1672.0000 1.0000
24.0000 1636.0000 1.0000
24.0100 1634.0000 1.0000
24.0200 1693.0000 1.0000
24.0300 1650.0000 1.0000
24.0400 1640.0000 1.0000
24.0500 1619.0000 1.0000
24.0600 1677.0000 1.0000
24.0700 1639.0000 1.0000
24.0800 1622.0000 1.0000
24.0900 1606.0000 1.0000
24.1000 1627.0000 1.0000
24.1100 1646.0000 1.0000
24.1200 1646.0000 1.0000
24.1300 1711.0000 1.0000
24.1400 1617.0000 1.0000
24.1500 1652.0000 1.0000
24.1600 1660.0000 1.0000
24.1700 1590.0000 1.0000
24.1800 1675.0000 1.0000
24.1900 1662.0000 1.0000
24.2000 1657.0000 1.0000
24.2100 1653.0000 1.0000
24.2200 1657.0000 1.0000
24.2300 1570.0000 1.0000
24.2400 1685.0000 1.0000
24.2500 1627.0000 1.0000
24.2600 1640.0000 1.0000
24.2700 1693.0000 1.0000
24.2800 1700.0000 1.0000
24.2900 1628.0000 1.0000
24.3000 1641.0000 1.0000
24.3100 1774.0000 1.0000
24.3200 1673.0000 1.0000
24.3300 1700.0000 1.0000
24.3400 1627.0000 1.0000
24.3500 1701.0000 1.0000
24.3600 1653.0000 1.0000
24.3700 1621.0000 1.0000
24.3800 1672.0000 1.0000
24.3900 1653.0000 1.0000
24.4000 1654.0000 1.0000
24.4100 1658.0000 1.0000
24.4200 1615.0000 1.0000
24.4300 1671.0000 1.0000
24.4400 1651.0000 1.0000
24.4500 1717.0000 1.0000
24.4600 1624.0000 1.0000
24.4700 1620.0000 1.0000
24.4800 1722.0000 1.0000
24.4900 1644.0000 1.0000
24.5000 1587.0000 1.0000
24.5100 1721.0000 1.0000
24.5200 1696.0000 1.0000
24.5300 1670.0000 1.0000
24.5400 1683.0000 1.0000
24.5500 1660.0000 1.0000
24.5600 1657.0000 1.0000
24.5700 1634.0000 1.0000
24.5800 1660.0000 1.0000
24.5900 1718.0000 1.0000
24.6000 1689.0000 1.0000
24.6100 1633.0000 1.0000
24.6200 1628.0000 1.0000
24.6300 1653.0000 1.0000
24.6400 1693.0000 1.0000
24.6500 1685.0000 1.0000
24.6600 1690.0000 1.0000
24.6700 1649.0000 1.0000
24.6800 1681.0000 1.0000
24.6900 1686.0000 1.0000
24.7000 1621.0000 1.0000
24.7100 1669.0000 1.0000
24.7200 1631.0000 1.0000
24.7300 1712.0000 1.0000
24.7400 1671.0000 1.0000
24.7500 1690.0000 1.0000
24.7600 1731.0000 1.0000
24.7700 1691.0000 1.0000
24.7800 1685.0000 1.0000
24.7900 1679.0000 1.0000
24.8000 1673.0000 1.0000
24.8100 1704.0000 1.0000
24.8200 1718.0000 1.0000
24.8300 1718.0000 1.0000
24.8400 1664.0000 1.0000
24.8500 1671.0000 1.0000
24.8600 1696.0000 1.0000
24.8700 1726.0000 1.0000
24.8800 1674.0000 1.0000
24.8900 1667.0000 1.0000
24.9000 1749.0000 1.0000
24.9100 1719.0000 1.0000
24.9200 1689.0000 1.0000
24.9300 1697.0000 1.0000
24.9400 1797.0000 1.0000
24.9500 1657.0000 1.0000
24.9600 1734.0000 1.0000
24.9700 1738.0000 1.0000
24.9800 1755.0000 1.0000
24.9900 1759.0000 1.0000
25.0000 1745.0000 1.0000
25.0100 1813.0000 1.0000
25.0200 1823.0000 1.0000
25.0300 1801.0000 1.0000
25.0400 1766.0000 1.0000
25.0500 1790.0000 1.0000
25.0600 1774.0000 1.0000
25.0700 1686.0000 1.0000
25.0800 1742.0000 1.0000
25.0900 1728.0000 1.0000
25.1000 1720.0000 1.0000
25.1100 1786.0000 1.0000
25.1200 1734.0000 1.0000
25.1300 1731.0000 1.0000
25.1400 1797.0000 1.0000
25.1500 1784.0000 1.0000
25.1600 1812.0000 1.0000
25.1700 1749.0000 1.0000
25.1800 1718.0000 1.0000
25.1900 1719.0000 1.0000
25.2000 1771.0000 1.0000
25.2100 1769.0000 1.0000
25.2200 1732.0000 1.0000
25.2300 1789.0000 1.0000
25.2400 1693.0000 1.0000
25.2500 1717.0000 1.0000
25.2600 1713.0000 1.0000
25.2700 1714.0000 1.0000
25.2800 1696.0000 1.0000
25.2900 1689.0000 1.0000
25.3000 1694.0000 1.0000
25.3100 1740.0000 1.0000
25.3200 1764.0000 1.0000
25.3300 1690.0000 1.0000
25.3400 1753.0000 1.0000
25.3500 1768.0000 1.0000
25.3600 1735.0000 1.0000
25.3700 1730.0000 1.0000
25.3800 1701.0000 1.0000
25.3900 1752.0000 1.0000
25.4000 1748.0000 1.0000
25.4100 1727.0000 1.0000
25.4200 1640.0000 1.0000
25.4300 1747.0000 1.0000
25.4400 1711.0000 1.0000
25.4500 1723.0000 1.0000
25.4600 1769.0000 1.0000
25.4700 1725.0000 1.0000
25.4800 1684.0000 1.0000
25.4900 1745.0000 1.0000
25.5000 1657.0000 1.0000
25.5100 1690.0000 1.0000
25.5200 1647.0000 1.0000
25.5300 1692.0000 1.0000
25.5400 1734.0000 1.0000
25.5500 1693.0000 1.0000
25.5600 1699.0000 1.0000
25.5700 1773.0000 1.0000
25.5800 1665.0000 1.0000
25.5900 1720.0000 1.0000
25.6000 1736.0000 1.0000
25.6100 1740.0000 1.0000
25.6200 1696.0000 1.0000
25.6300 1661.0000 1.0000
25.6400 1704.0000 1.0000
25.6500 1688.0000 1.0000
25.6600 1737.0000 1.0000
25.6700 1697.0000 1.0000
25.6800 1664.0000 1.0000
25.6900 1649.0000 1.0000
25.7000 1703.0000 1.0000
25.7100 1688.0000 1.0000
25.7200 1672.0000 1.0000
25.7300 1689.0000 1.0000
25.7400 1665.0000 1.0000
25.7500 1718.0000 1.0000
25.7600 1647.0000 1.0000
25.7700 1782.0000 1.0000
25.7800 1661.0000 1.0000
25.7900 1672.0000 1.0000
25.8000 1670.0000 1.0000
25.8100 1681.0000 1.0000
25.8200 1671.0000 1.0000
25.8300 1719.0000 1.0000
25.8400 1691.0000 1.0000
25.8500 1787.0000 1.0000
25.8600 1726.0000 1.0000
25.8700 1737.0000 1.0000
25.8800 1708.0000 1.0000
25.8900 1736.0000 1.0000
25.9000 1689.0000 1.0000
25.9100 1701.0000 1.0000
25.9200 1669.0000 1.0000
25.9300 1678.0000 1.0000
25.9400 1679.0000 1.0000
25.9500 1618.0000 1.0000
25.9600 1633.0000 1.0000
25.9700 1732.0000 1.0000
25.9800 1659.0000 1.0000
25.9900 1676.0000 1.0000
26.0000 1783.0000 1.0000
26.0100 1777.0000 1.0000
26.0200 1721.0000 1.0000
26.0300 1676.0000 1.0000
26.0400 1726.0000 1.0000
26.0500 1652.0000 1.0000
26.0600 1699.0000 1.0000
26.0700 1741.0000 1.0000
26.0800 1723.0000 1.0000
26.0900 1743.0000 1.0000
26.1000 1712.0000 1.0000
26.1100 1671.0000 1.0000
26.1200 1733.0000 1.0000
26.1300 1749.0000 1.0000
26.1400 1629.0000 1.0000
26.1500 1662.0000 1.0000
26.1600 1684.0000 1.0000
26.1700 1668.0000 1.0000
26.1800 1670.0000 1.0000
26.1900 1686.0000 1.0000
26.2000 1718.0000 1.0000
26.2100 1720.0000 1.0000
26.2200 1728.0000 1.0000
26.2300 1735.0000 1.0000
26.2400 1682.0000 1.0000
26.2500 1678.0000 1.0000
26.2600 1649.0000 1.0000
26.2700 1711.0000 1.0000
26.2800 1763.0000 1.0000
26.2900 1738.0000 1.0000
26.3000 1755.0000 1.0000
26.3100 1720.0000 1.0000
26.3200 1709.0000 1.0000
26.3300 1728.0000 1.0000
26.3400 1748.0000 1.0000
26.3500 1768.0000 1.0000
26.3600 1783.0000 1.0000
26.3700 1727.0000 1.0000
26.3800 1728.0000 1.0000
26.3900 1746.0000 1.0000
26.4000 1787.0000 1.0000
26.4100 1755.0000 1.0000
26.4200 1769.0000 1.0000
26.4300 1808.0000 1.0000
26.4400 1804.0000 1.0000
26.4500 1796.0000 1.0000
26.4600 1756.0000 1.0000
26.4700 1774.0000 1.0000
26.4800 1751.0000 1.0000
26.4900 1793.0000 1.0000
26.5000 1810.0000 1.0000
26.5100 1759.0000 1.0000
26.5200 1763.0000 1.0000
26.5300 1818.0000 1.0000
26.5400 1793.0000 1.0000
26.5500 1799.0000 1.0000
26.5600 1775.0000 1.0000
26.5700 1769.0000 1.0000
26.5800 1798.0000 1.0000
26.5900 1793.0000 1.0000
26.6000 1876.0000 1.0000
26.6100 1817.0000 1.0000
26.6200 1821.0000 1.0000
26.6300 1772.0000 1.0000
26.6400 1804.0000 1.0000
26.6500 1733.0000 1.0000
26.6600 1813.0000 1.0000
26.6700 1874.0000 1.0000
26.6800 1797.0000 1.0000
26.6900 1872.0000 1.0000
26.7000 1841.0000 1.0000
26.7100 1886.0000 1.0000
26.7200 1890.0000 1.0000
26.7300 1847.0000 1.0000
26.7400 1851.0000 1.0000
26.7500 1865.0000 1.0000
26.7600 1844.0000 1.0000
26.7700 1847.0000 1.0000
26.7800 1797.0000 1.0000
26.7900 1850.0000 1.0000
26.8000 1795.0000 1.0000
26.8100 1972.0000 1.0000
26.8200 1857.0000 1.0000
26.8300 1882.0000 1.0000
26.8400 1900.0000 1.0000
26.8500 1920.0000 1.0000
26.8600 1922.0000 1.0000
26.8700 1966.0000 1.0000
26.8800 1906.0000 1.0000
26.8900 1936.0000 1.0000
26.9000 1991.0000 1.0000
26.9100 1999.0000 1.0000
26.9200 1985.0000 1.0000
26.9300 1967.0000 1.0000
26.9400 2027.0000 1.0000
26.9500 2030.0000 1.0000
26.9600 2056.0000 1.0000
26.9700 2108.0000 1.0000
26.9800 2135.0000 1.0000
26.9900 2170.0000 1.0000
27.0000 2266.0000 1.0000
27.0100 2197.0000 1.0000
27.0200 2258.0000 1.0000
27.0300 2305.0000 1.0000
27.0400 2411.0000 1.0000
27.0500 2324.0000 1.0000
27.0600 2371.0000 1.0000
27.0700 2450.0000 1.0000
27.0800 2556.0000 1.0000
27.0900 2630.0000 1.0000
27.1000 2583.0000 1.0000
27.1100 2735.0000 1.0000
27.1200 2769.0000 1.0000
27.1300 2809.0000 1.0000
27.1400 2955.0000 1.0000
27.1500 3019.0000 1.0000
27.1600 3099.0000 1.0000
27.1700 3327.0000 1.0000
27.1800 3308.0000 1.0000
27.1900 3392.0000 1.0000
27.2000 3769.0000 1.0000
27.2100 3872.0000 1.0000
27.2200 3953.0000 1.0000
27.2300 4158.0000 1.0000
27.2400 4506.0000 1.0000
27.2500 4642.0000 1.0000
27.2600 4884.0000 1.0000
27.2700 5038.0000 1.0000
27.2800 5364.0000 1.0000
27.2900 5696.0000 1.0000
27.3000 5813.0000 1.0000
27.3100 5992.0000 1.0000
27.3200 6052.0000 1.0000
27.3300 6274.0000 1.0000
27.3400 6474.0000 1.0000
27.3500 6535.0000 1.0000
27.3600 6443.0000 1.0000
27.3700 6378.0000 1.0000
27.3800 6311.0000 1.0000
27.3900 6096.0000 1.0000
27.4000 6003.0000 1.0000
27.4100 5798.0000 1.0000
27.4200 5537.0000 1.0000
27.4300 5306.0000 1.0000
27.4400 5078.0000 1.0000
27.4500 4865.0000 1.0000
27.4600 4516.0000 1.0000
27.4700 4326.0000 1.0000
27.4800 4151.0000 1.0000
27.4900 3924.0000 1.0000
27.5000 3752.0000 1.0000
27.5100 3574.0000 1.0000
27.5200 3344.0000 1.0000
27.5300 3323.0000 1.0000
27.5400 3201.0000 1.0000
27.5500 2998.0000 1.0000
27.5600 2924.0000 1.0000
27.5700 2868.0000 1.0000
27.5800 2814.0000 1.0000
27.5900 2675.0000 1.0000
27.6000 2701.0000 1.0000
27.6100 2544.0000 1.0000
27.6200 2518.0000 1.0000
27.6300 2502.0000 1.0000
27.6400 2437.0000 1.0000
27.6500 2359.0000 1.0000
27.6600 2305.0000 1.0000
27.6700 2273.0000 1.0000
27.6800 2259.0000 1.0000
27.6900 2224.0000 1.0000
27.7000 2185.0000 1.0000
27.7100 2203.0000 1.0000
27.7200 2055.0000 1.0000
27.7300 2102.0000 1.0000
27.7400 2066.0000 1.0000
27.7500 2041.0000 1.0000
27.7600 2041.0000 1.0000
27.7700 1948.0000 1.0000
27.7800 1964.0000 1.0000
27.7900 1956.0000 1.0000
27.8000 2018.0000 1.0000
27.8100 1952.0000 1.0000
27.8200 1944.0000 1.0000
27.8300 1968.0000 1.0000
27.8400 1894.0000 1.0000
27.8500 1986.0000 1.0000
27.8600 1934.0000 1.0000
27.8700 1884.0000 1.0000
27.8800 1877.0000 1.0000
27.8900 1825.0000 1.0000
27.9000 1846.0000 1.0000
27.9100 1825.0000 1.0000
27.9200 1869.0000 1.0000
27.9300 1808.0000 1.0000
27.9400 1778.0000 1.0000
27.9500 1834.0000 1.0000
27.9600 1907.0000 1.0000
27.9700 1798.0000 1.0000
27.9800 1819.0000 1.0000
27.9900 1754.0000 1.0000
28.0000 1748.0000 1.0000
28.0100 1846.0000 1.0000
28.0200 1828.0000 1.0000
28.0300 1846.0000 1.0000
28.0400 1761.0000 1.0000
28.0500 1787.0000 1.0000
28.0600 1744.0000 1.0000
28.0700 1783.0000 1.0000
28.0800 1809.0000 1.0000
28.0900 1815.0000 1.0000
28.1000 1829.0000 1.0000
28.1100 1705.0000 1.0000
28.1200 1733.0000 1.0000
28.1300 1724.0000 1.0000
28.1400 1760.0000 1.0000
28.1500 1807.0000 1.0000
28.1600 1790.0000 1.0000
28.1700 1765.0000 1.0000
28.1800 1772.0000 1.0000
28.1900 1795.0000 1.0000
28.2000 1724.0000 1.0000
28.2100 1686.0000 1.0000
28.2200 1747.0000 1.0000
28.2300 1684.0000 1.0000
28.2400 1713.0000 1.0000
28.2500 1638.0000 1.0000
28.2600 1725.0000 1.0000
28.2700 1762.0000 1.0000
28.2800 1734.0000 1.0000
28.2900 1685.0000 1.0000
28.3000 1799.0000 1.0000
28.3100 1731.0000 1.0000
28.3200 1736.0000 1.0000
28.3300 1741.0000 1.0000
28.3400 1723.0000 1.0000
28.3500 1720.0000 1.0000
28.3600 1645.0000 1.0000
28.3700 1638.0000 1.0000
28.3800 1679.0000 1.0000
28.3900 1728.0000 1.0000
28.4000 1704.0000 1.0000
28.4100 1571.0000 1.0000
28.4200 1637.0000 1.0000
28.4300 1701.0000 1.0000
28.4400 1612.0000 1.0000
28.4500 1642.0000 1.0000
28.4600 1667.0000 1.0000
28.4700 1687.0000 1.0000
28.4800 1687.0000 1.0000
28.4900 1670.0000 1.0000
28.5000 1660.0000 1.0000
28.5100 1653.0000 1.0000
28.5200 1678.0000 1.0000
28.5300 1681.0000 1.0000
28.5400 1628.0000 1.0000
28.5500 1706.0000 1.0000
28.5600 1702.0000 1.0000
28.5700 1723.0000 1.0000
28.5800 1655.0000 1.0000
28.5900 1625.0000 1.0000
28.6000 1719.0000 1.0000
28.6100 1650.0000 1.0000
28.6200 1631.0000 1.0000
28.6300 1685.0000 1.0000
28.6400 1707.0000 1.0000
28.6500 1693.0000 1.0000
28.6600 1663.0000 1.0000
28.6700 1661.0000 1.0000
28.6800 1690.0000 1.0000
28.6900 1646.0000 1.0000
28.7000 1629.0000 1.0000
28.7100 1653.0000 1.0000
28.7200 1613.0000 1.0000
28.7300 1558.0000 1.0000
28.7400 1654.0000 1.0000
28.7500 1634.0000 1.0000
28.7600 1655.0000 1.0000
28.7700 1664.0000 1.0000
28.7800 1624.0000 1.0000
28.7900 1641.0000 1.0000
28.8000 1685.0000 1.0000
28.8100 1613.0000 1.0000
28.8200 1574.0000 1.0000
28.8300 1563.0000 1.0000
28.8400 1621.0000 1.0000
28.8500 1660.0000 1.0000
28.8600 1683.0000 1.0000
28.8700 1642.0000 1.0000
28.8800 1663.0000 1.0000
28.8900 1629.0000 1.0000
28.9000 1633.0000 1.0000
28.9100 1638.0000 1.0000
28.9200 1636.0000 1.0000
28.9300 1685.0000 1.0000
28.9400 1641.0000 1.0000
28.9500 1618.0000 1.0000
28.9600 1654.0000 1.0000
28.9700 1638.0000 1.0000
28.9800 1600.0000 1.0000
28.9900 1581.0000 1.0000
29.0000 1644.0000 1.0000
29.0100 1603.0000 1.0000
29.0200 1631.0000 1.0000
29.0300 1607.0000 1.0000
29.0400 1644.0000 1.0000
29.0500 1627.0000 1.0000
29.0600 1644.0000 1.0000
29.0700 1628.0000 1.0000
29.0800 1554.0000 1.0000
29.0900 1621.0000 1.0000
29.1000 1606.0000 1.0000
29.1100 1627.0000 1.0000
29.1200 1676.0000 1.0000
29.1300 1599.0000 1.0000
29.1400 1543.0000 1.0000
29.1500 1652.0000 1.0000
29.1600 1633.0000 1.0000
29.1700 1634.0000 1.0000
29.1800 1572.0000 1.0000
29.1900 1563.0000 1.0000
29.2000 1656.0000 1.0000
29.2100 1707.0000 1.0000
29.2200 1597.0000 1.0000
29.2300 1552.0000 1.0000
29.2400 1662.0000 1.0000
29.2500 1664.0000 1.0000
29.2600 1568.0000 1.0000
29.2700 1568.0000 1.0000
29.2800 1536.0000 1.0000
29.2900 1617.0000 1.0000
29.3000 1631.0000 1.0000
29.3100 1555.0000 1.0000
29.3200 1577.0000 1.0000
29.3300 1630.0000 1.0000
29.3400 1639.0000 1.0000
29.3500 1589.0000 1.0000
29.3600 1633.0000 1.0000
29.3700 1650.0000 1.0000
29.3800 1566.0000 1.0000
29.3900 1600.0000 1.0000
29.4000 1663.0000 1.0000
29.4100 1629.0000 1.0000
29.4200 1629.0000 1.0000
29.4300 1603.0000 1.0000
29.4400 1558.0000 1.0000
29.4500 1569.0000 1.0000
29.4600 1619.0000 1.0000
29.4700 1557.0000 1.0000
29.4800 1549.0000 1.0000
29.4900 1530.0000 1.0000
29.5000 1571.0000 1.0000
29.5100 1532.0000 1.0000
29.5200 1596.0000 1.0000
29.5300 1586.0000 1.0000
29.5400 1596.0000 1.0000
29.5500 1629.0000 1.0000
29.5600 1610.0000 1.0000
29.5700 1574.0000 1.0000
29.5800 1565.0000 1.0000
29.5900 1519.0000 1.0000
29.6000 1621.0000 1.0000
29.6100 1676.0000 1.0000
29.6200 1573.0000 1.0000
29.6300 1612.0000 1.0000
29.6400 1622.0000 1.0000
29.6500 1637.0000 1.0000
29.6600 1660.0000 1.0000
29.6700 1612.0000 1.0000
29.6800 1629.0000 1.0000
29.6900 1611.0000 1.0000
29.7000 1525.0000 1.0000
29.7100 1525.0000 1.0000
29.7200 1601.0000 1.0000
29.7300 1530.0000 1.0000
29.7400 1586.0000 1.0000
29.7500 1524.0000 1.0000
29.7600 1540.0000 1.0000
29.7700 1621.0000 1.0000
29.7800 1608.0000 1.0000
29.7900 1669.0000 1.0000
29.8000 1586.0000 1.0000
29.8100 1566.0000 1.0000
29.8200 1513.0000 1.0000
29.8300 1526.0000 1.0000
29.8400 1505.0000 1.0000
29.8500 1524.0000 1.0000
29.8600 1616.0000 1.0000
29.8700 1599.0000 1.0000
29.8800 1555.0000 1.0000
29.8900 1524.0000 1.0000
29.9000 1548.0000 1.0000
29.9100 1588.0000 1.0000
29.9200 1557.0000 1.0000
29.9300 1576.0000 1.0000
29.9400 1526.0000 1.0000
29.9500 1540.0000 1.0000
29.9600 1533.0000 1.0000
29.9700 1464.0000 1.0000
29.9800 1535.0000 1.0000
29.9900 1548.0000 1.0000
30.0000 1532.0000 1.0000
30.0100 1573.0000 1.0000
30.0200 1493.0000 1.0000
30.0300 1534.0000 1.0000
30.0400 1551.0000 1.0000
30.0500 1538.0000 1.0000
30.0600 1511.0000 1.0000
30.0700 1558.0000 1.0000
30.0800 1559.0000 1.0000
30.0900 1509.0000 1.0000
30.1000 1544.0000 1.0000
30.1100 1552.0000 1.0000
30.1200 1580.0000 1.0000
30.1300 1556.0000 1.0000
30.1400 1542.0000 1.0000
30.1500 1562.0000 1.0000
30.1600 1579.0000 1.0000
30.1700 1561.0000 1.0000
30.1800 1577.0000 1.0000
30.1900 1563.0000 1.0000
30.2000 1580.0000 1.0000
30.2100 1620.0000 1.0000
30.2200 1518.0000 1.0000
30.2300 1564.0000 1.0000
30.2400 1550.0000 1.0000
30.2500 1508.0000 1.0000
30.2600 1562.0000 1.0000
30.2700 1603.0000 1.0000
30.2800 1539.0000 1.0000
30.2900 1510.0000 1.0000
30.3000 1534.0000 1.0000
30.3100 1539.0000 1.0000
30.3200 1522.0000 1.0000
30.3300 1505.0000 1.0000
30.3400 1506.0000 1.0000
30.3500 1515.0000 1.0000
30.3600 1472.0000 1.0000
30.3700 1489.0000 1.0000
30.3800 1564.0000 1.0000
30.3900 1525.0000 1.0000
30.4000 1598.0000 1.0000
30.4100 1581.0000 1.0000
30.4200 1551.0000 1.0000
30.4300 1514.0000 1.0000
30.4400 1491.0000 1.0000
30.4500 1560.0000 1.0000
30.4600 1524.0000 1.0000
30.4700 1552.0000 1.0000
30.4800 1549.0000 1.0000
30.4900 1511.0000 1.0000
30.5000 1505.0000 1.0000
30.5100 1531.0000 1.0000
30.5200 1580.0000 1.0000
30.5300 1550.0000 1.0000
30.5400 1503.0000 1.0000
30.5500 1547.0000 1.0000
30.5600 1562.0000 1.0000
30.5700 1588.0000 1.0000
30.5800 1543.0000 1.0000
30.5900 1565.0000 1.0000
30.6000 1541.0000 1.0000
30.6100 1532.0000 1.0000
30.6200 1534.0000 1.0000
30.6300 1597.0000 1.0000
30.6400 1473.0000 1.0000
30.6500 1534.0000 1.0000
30.6600 1508.0000 1.0000
30.6700 1564.0000 1.0000
30.6800 1509.0000 1.0000
30.6900 1562.0000 1.0000
30.7000 1492.0000 1.0000
30.7100 1489.0000 1.0000
30.7200 1592.0000 1.0000
30.7300 1551.0000 1.0000
30.7400 1520.0000 1.0000
30.7500 1475.0000 1.0000
30.7600 1550.0000 1.0000
30.7700 1502.0000 1.0000
30.7800 1567.0000 1.0000
30.7900 1507.0000 1.0000
30.8000 1545.0000 1.0000
30.8100 1466.0000 1.0000
30.8200 1459.0000 1.0000
30.8300 1480.0000 1.0000
30.8400 1479.0000 1.0000
30.8500 1512.0000 1.0000
30.8600 1481.0000 1.0000
30.8700 1536.0000 1.0000
30.8800 1487.0000 1.0000
30.8900 1507.0000 1.0000
30.9000 1537.0000 1.0000
30.9100 1536.0000 1.0000
30.9200 1465.0000 1.0000
30.9300 1514.0000 1.0000
30.9400 1510.0000 1.0000
30.9500 1555.0000 1.0000
30.9600 1503.0000 1.0000
30.9700 1518.0000 1.0000
30.9800 1531.0000 1.0000
30.9900 1560.0000 1.0000
31.0000 1461.0000 1.0000
31.0100 1523.0000 1.0000
31.0200 1521.0000 1.0000
31.0300 1504.0000 1.0000
31.0400 1501.0000 1.0000
31.0500 1503.0000 1.0000
31.0600 1429.0000 1.0000
31.0700 1467.0000 1.0000
31.0800 1451.0000 1.0000
31.0900 1502.0000 1.0000
31.1000 1479.0000 1.0000
31.1100 1503.0000 1.0000
31.1200 1516.0000 1.0000
31.1300 1510.0000 1.0000
31.1400 1485.0000 1.0000
31.1500 1555.0000 1.0000
31.1600 1567.0000 1.0000
31.1700 1524.0000 1.0000
31.1800 1482.0000 1.0000
31.1900 1471.0000 1.0000
31.2000 1519.0000 1.0000
31.2100 1482.0000 1.0000
31.2200 1477.0000 1.0000
31.2300 1483.0000 1.0000
31.2400 1449.0000 1.0000
31.2500 1469.0000 1.0000
31.2600 1513.0000 1.0000
31.2700 1469.0000 1.0000
31.2800 1518.0000 1.0000
31.2900 1497.0000 1.0000
31.3000 1407.0000 1.0000
31.3100 1403.0000 1.0000
31.3200 1466.0000 1.0000
31.3300 1500.0000 1.0000
31.3400 1442.0000 1.0000
31.3500 1442.0000 1.0000
31.3600 1456.0000 1.0000
31.3700 1449.0000 1.0000
31.3800 1451.0000 1.0000
31.3900 1454.0000 1.0000
31.4000 1458.0000 1.0000
31.4100 1476.0000 1.0000
31.4200 1457.0000 1.0000
31.4300 1510.0000 1.0000
31.4400 1504.0000 1.0000
31.4500 1486.0000 1.0000
31.4600 1513.0000 1.0000
31.4700 1451.0000 1.0000
31.4800 1450.0000 1.0000
31.4900 1413.0000 1.0000
31.5000 1432.0000 1.0000
31.5100 1466.0000 1.0000
31.5200 1468.0000 1.0000
31.5300 1468.0000 1.0000
31.5400 1491.0000 1.0000
31.5500 1486.0000 1.0000
31.5600 1490.0000 1.0000
31.5700 1497.0000 1.0000
31.5800 1486.0000 1.0000
31.5900 1457.0000 1.0000
31.6000 1442.0000 1.0000
31.6100 1490.0000 1.0000
31.6200 1498.0000 1.0000
31.6300 1444.0000 1.0000
31.6400 1414.0000 1.0000
31.6500 1499.0000 1.0000
31.6600 1464.0000 1.0000
31.6700 1429.0000 1.0000
31.6800 1476.0000 1.0000
31.6900 1425.0000 1.0000
31.7000 1434.0000 1.0000
31.7100 1442.0000 1.0000
31.7200 1434.0000 1.0000
31.7300 1459.0000 1.0000
31.7400 1426.0000 1.0000
31.7500 1454.0000 1.0000
31.7600 1464.0000 1.0000
31.7700 1492.0000 1.0000
31.7800 1504.0000 1.0000
31.7900 1451.0000 1.0000
31.8000 1439.0000 1.0000
31.8100 1460.0000 1.0000
31.8200 1459.0000 1.0000
31.8300 1478.0000 1.0000
31.8400 1448.0000 1.0000
31.8500 1448.0000 1.0000
31.8600 1448.0000 1.0000
31.8700 1455.0000 1.0000
31.8800 1447.0000 1.0000
31.8900 1463.0000 1.0000
31.9000 1421.0000 1.0000
31.9100 1449.0000 1.0000
31.9200 1460.0000 1.0000
31.9300 1456.0000 1.0000
31.9400 1457.0000 1.0000
31.9500 1443.0000 1.0000
31.9600 1454.0000 1.0000
31.9700 1496.0000 1.0000
31.9800 1419.0000 1.0000
31.9900 1485.0000 1.0000
32.0000 1512.0000 1.0000
32.0100 1463.0000 1.0000
32.0200 1455.0000 1.0000
32.0300 1467.0000 1.0000
32.0400 1473.0000 1.0000
32.0500 1462.0000 1.0000
32.0600 1561.0000 1.0000
32.0700 1508.0000 1.0000
32.0800 1526.0000 1.0000
32.0900 1427.0000 1.0000
32.1000 1461.0000 1.0000
32.1100 1507.0000 1.0000
32.1200 1482.0000 1.0000
32.1300 1503.0000 1.0000
32.1400 1497.0000 1.0000
32.1500 1446.0000 1.0000
32.1600 1459.0000 1.0000
32.1700 1471.0000 1.0000
32.1800 1453.0000 1.0000
32.1900 1460.0000 1.0000
32.2000 1474.0000 1.0000
32.2100 1450.0000 1.0000
32.2200 1413.0000 1.0000
32.2300 1497.0000 1.0000
32.2400 1456.0000 1.0000
32.2500 1393.0000 1.0000
32.2600 1457.0000 1.0000
32.2700 1397.0000 1.0000
32.2800 1448.0000 1.0000
32.2900 1456.0000 1.0000
32.3000 1441.0000 1.0000
32.3100 1400.0000 1.0000
32.3200 1449.0000 1.0000
32.3300 1485.0000 1.0000
32.3400 1450.0000 1.0000
32.3500 1433.0000 1.0000
32.3600 1485.0000 1.0000
32.3700 1382.0000 1.0000
32.3800 1387.0000 1.0000
32.3900 1476.0000 1.0000
32.4000 1416.0000 1.0000
32.4100 1391.0000 1.0000
32.4200 1449.0000 1.0000
32.4300 1405.0000 1.0000
32.4400 1443.0000 1.0000
32.4500 1418.0000 1.0000
32.4600 1489.0000 1.0000
32.4700 1380.0000 1.0000
32.4800 1405.0000 1.0000
32.4900 1399.0000 1.0000
32.5000 1444.0000 1.0000
32.5100 1393.0000 1.0000
32.5200 1387.0000 1.0000
32.5300 1457.0000 1.0000
32.5400 1497.0000 1.0000
32.5500 1365.0000 1.0000
32.5600 1377.0000 1.0000
32.5700 1461.0000 1.0000
32.5800 1440.0000 1.0000
32.5900 1468.0000 1.0000
32.6000 1345.0000 1.0000
32.6100 1441.0000 1.0000
32.6200 1439.0000 1.0000
32.6300 1382.0000 1.0000
32.6400 1415.0000 1.0000
32.6500 1435.0000 1.0000
32.6600 1419.0000 1.0000
32.6700 1409.0000 1.0000
32.6800 1409.0000 1.0000
32.6900 1389.0000 1.0000
32.7000 1435.0000 1.0000
32.7100 1468.0000 1.0000
32.7200 1469.0000 1.0000
32.7300 1432.0000 1.0000
32.7400 1425.0000 1.0000
32.7500 1423.0000 1.0000
32.7600 1407.0000 1.0000
32.7700 1395.0000 1.0000
32.7800 1413.0000 1.0000
32.7900 1396.0000 1.0000
32.8000 1401.0000 1.0000
32.8100 1377.0000 1.0000
32.8200 1411.0000 1.0000
32.8300 1464.0000 1.0000
32.8400 1440.0000 1.0000
32.8500 1408.0000 1.0000
32.8600 1379.0000 1.0000
32.8700 1446.0000 1.0000
32.8800 1400.0000 1.0000
32.8900 1409.0000 1.0000
32.9000 1396.0000 1.0000
32.9100 1433.0000 1.0000
32.9200 1412.0000 1.0000
32.9300 1453.0000 1.0000
32.9400 1366.0000 1.0000
32.9500 1351.0000 1.0000
32.9600 1380.0000 1.0000
32.9700 1373.0000 1.0000
32.9800 1403.0000 1.0000
32.9900 1390.0000 1.0000
33.0000 1385.0000 1.0000
33.0100 1358.0000 1.0000
33.0200 1422.0000 1.0000
33.0300 1364.0000 1.0000
33.0400 1441.0000 1.0000
33.0500 1385.0000 1.0000
33.0600 1357.0000 1.0000
33.0700 1361.0000 1.0000
33.0800 1354.0000 1.0000
33.0900 1347.0000 1.0000
33.1000 1412.0000 1.0000
33.1100 1336.0000 1.0000
33.1200 1424.0000 1.0000
33.1300 1368.0000 1.0000
33.1400 1418.0000 1.0000
33.1500 1415.0000 1.0000
33.1600 1333.0000 1.0000
33.1700 1396.0000 1.0000
33.1800 1348.0000 1.0000
33.1900 1376.0000 1.0000
33.2000 1322.0000 1.0000
33.2100 1408.0000 1.0000
33.2200 1354.0000 1.0000
33.2300 1375.0000 1.0000
33.2400 1348.0000 1.0000
33.2500 1372.0000 1.0000
33.2600 1329.0000 1.0000
33.2700 1351.0000 1.0000
33.2800 1334.0000 1.0000
33.2900 1347.0000 1.0000
33.3000 1368.0000 1.0000
33.3100 1332.0000 1.0000
33.3200 1353.0000 1.0000
33.3300 1401.0000 1.0000
33.3400 1483.0000 1.0000
33.3500 1364.0000 1.0000
33.3600 1381.0000 1.0000
33.3700 1336.0000 1.0000
33.3800 1419.0000 1.0000
33.3900 1398.0000 1.0000
33.4000 1382.0000 1.0000
33.4100 1363.0000 1.0000
33.4200 1302.0000 1.0000
33.4300 1379.0000 1.0000
33.4400 1376.0000 1.0000
33.4500 1353.0000 1.0000
33.4600 1354.0000 1.0000
33.4700 1385.0000 1.0000
33.4800 1323.0000 1.0000
33.4900 1353.0000 1.0000
33.5000 1463.0000 1.0000
33.5100 1358.0000 1.0000
33.5200 1333.0000 1.0000
33.5300 1348.0000 1.0000
33.5400 1388.0000 1.0000
33.5500 1389.0000 1.0000
33.5600 1386.0000 1.0000
33.5700 1392.0000 1.0000
33.5800 1302.0000 1.0000
33.5900 1333.0000 1.0000
33.6000 1400.0000 1.0000
33.6100 1388.0000 1.0000
33.6200 1337.0000 1.0000
33.6300 1375.0000 1.0000
33.6400 1336.0000 1.0000
33.6500 1417.0000 1.0000
33.6600 1351.0000 1.0000
33.6700 1387.0000 1.0000
33.6800 1379.0000 1.0000
33.6900 1394.0000 1.0000
33.7000 1380.0000 1.0000
33.7100 1383.0000 1.0000
33.7200 1368.0000 1.0000
33.7300 1424.0000 1.0000
33.7400 1387.0000 1.0000
33.7500 1426.0000 1.0000
33.7600 1419.0000 1.0000
33.7700 1450.0000 1.0000
33.7800 1530.0000 1.0000
33.7900 1350.0000 1.0000
33.8000 1453.0000 1.0000
33.8100 1451.0000 1.0000
33.8200 1399.0000 1.0000
33.8300 1443.0000 1.0000
33.8400 1528.0000 1.0000
33.8500 1484.0000 1.0000
33.8600 1496.0000 1.0000
33.8700 1435.0000 1.0000
33.8800 1430.0000 1.0000
33.8900 1523.0000 1.0000
33.9000 1518.0000 1.0000
33.9100 1491.0000 1.0000
33.9200 1569.0000 1.0000
33.9300 1608.0000 1.0000
33.9400 1618.0000 1.0000
33.9500 1626.0000 1.0000
33.9600 1618.0000 1.0000
33.9700 1682.0000 1.0000
33.9800 1621.0000 1.0000
33.9900 1663.0000 1.0000
34.0000 1639.0000 1.0000
34.0100 1618.0000 1.0000
34.0200 1590.0000 1.0000
34.0300 1632.0000 1.0000
34.0400 1587.0000 1.0000
34.0500 1547.0000 1.0000
34.0600 1595.0000 1.0000
34.0700 1576.0000 1.0000
34.0800 1538.0000 1.0000
34.0900 1511.0000 1.0000
34.1000 1580.0000 1.0000
34.1100 1613.0000 1.0000
34.1200 1510.0000 1.0000
34.1300 1523.0000 1.0000
34.1400 1537.0000 1.0000
34.1500 1596.0000 1.0000
34.1600 1566.0000 1.0000
34.1700 1592.0000 1.0000
34.1800 1549.0000 1.0000
34.1900 1533.0000 1.0000
34.2000 1532.0000 1.0000
34.2100 1586.0000 1.0000
34.2200 1596.0000 1.0000
34.2300 1611.0000 1.0000
34.2400 1580.0000 1.0000
34.2500 1634.0000 1.0000
34.2600 1584.0000 1.0000
34.2700 1637.0000 1.0000
34.2800 1592.0000 1.0000
34.2900 1693.0000 1.0000
34.3000 1686.0000 1.0000
34.3100 1753.0000 1.0000
34.3200 1728.0000 1.0000
34.3300 1765.0000 1.0000
34.3400 1869.0000 1.0000
34.3500 1873.0000 1.0000
34.3600 1864.0000 1.0000
34.3700 1942.0000 1.0000
34.3800 2004.0000 1.0000
34.3900 1994.0000 1.0000
34.4000 2192.0000 1.0000
34.4100 2231.0000 1.0000
34.4200 2296.0000 1.0000
34.4300 2365.0000 1.0000
34.4400 2358.0000 1.0000
34.4500 2487.0000 1.0000
34.4600 2592.0000 1.0000
34.4700 2736.0000 1.0000
34.4800 2840.0000 1.0000
34.4900 2906.0000 1.0000
34.5000 3031.0000 1.0000
34.5100 3115.0000 1.0000
34.5200 3194.0000 1.0000
34.5300 3141.0000 1.0000
34.5400 3219.0000 1.0000
34.5500 3243.0000 1.0000
34.5600 3271.0000 1.0000
34.5700 3198.0000 1.0000
34.5800 3212.0000 1.0000
34.5900 3064.0000 1.0000
34.6000 3037.0000 1.0000
34.6100 2975.0000 1.0000
34.6200 2884.0000 1.0000
34.6300 2807.0000 1.0000
34.6400 2731.0000 1.0000
34.6500 2666.0000 1.0000
34.6600 2488.0000 1.0000
34.6700 2501.0000 1.0000
34.6800 2389.0000 1.0000
34.6900 2307.0000 1.0000
34.7000 2221.0000 1.0000
34.7100 2152.0000 1.0000
34.7200 2074.0000 1.0000
34.7300 1987.0000 1.0000
34.7400 1942.0000 1.0000
34.7500 1946.0000 1.0000
34.7600 1844.0000 1.0000
34.7700 1796.0000 1.0000
34.7800 1750.0000 1.0000
34.7900 1714.0000 1.0000
34.8000 1749.0000 1.0000
34.8100 1721.0000 1.0000
34.8200 1659.0000 1.0000
34.8300 1623.0000 1.0000
34.8400 1636.0000 1.0000
34.8500 1607.0000 1.0000
34.8600 1545.0000 1.0000
34.8700 1555.0000 1.0000
34.8800 1596.0000 1.0000
34.8900 1554.0000 1.0000
34.9000 1516.0000 1.0000
34.9100 1511.0000 1.0000
34.9200 1478.0000 1.0000
34.9300 1477.0000 1.0000
34.9400 1411.0000 1.0000
34.9500 1470.0000 1.0000
34.9600 1418.0000 1.0000
34.9700 1406.0000 1.0000
34.9800 1354.0000 1.0000
34.9900 1451.0000 1.0000
35.0000 1430.0000 1.0000
35.0100 1349.0000 1.0000
35.0200 1373.0000 1.0000
35.0300 1378.0000 1.0000
35.0400 1355.0000 1.0000
35.0500 1367.0000 1.0000
35.0600 1413.0000 1.0000
35.0700 1352.0000 1.0000
35.0800 1298.0000 1.0000
35.0900 1305.0000 1.0000
35.1000 1322.0000 1.0000
35.1100 1338.0000 1.0000
35.1200 1296.0000 1.0000
35.1300 1275.0000 1.0000
35.1400 1273.0000 1.0000
35.1500 1321.0000 1.0000
35.1600 1355.0000 1.0000
35.1700 1290.0000 1.0000
35.1800 1264.0000 1.0000
35.1900 1269.0000 1.0000
35.2000 1281.0000 1.0000
35.2100 1284.0000 1.0000
35.2200 1320.0000 1.0000
35.2300 1298.0000 1.0000
35.2400 1252.0000 1.0000
35.2500 1297.0000 1.0000
35.2600 1245.0000 1.0000
35.2700 1244.0000 1.0000
35.2800 1224.0000 1.0000
35.2900 1260.0000 1.0000
35.3000 1254.0000 1.0000
35.3100 1193.0000 1.0000
35.3200 1266.0000 1.0000
35.3300 1258.0000 1.0000
35.3400 1269.0000 1.0000
35.3500 1292.0000 1.0000
35.3600 1294.0000 1.0000
35.3700 1262.0000 1.0000
35.3800 1197.0000 1.0000
35.3900 1206.0000 1.0000
35.4000 1258.0000 1.0000
35.4100 1185.0000 1.0000
35.4200 1162.0000 1.0000
35.4300 1204.0000 1.0000
35.4400 1239.0000 1.0000
35.4500 1225.0000 1.0000
35.4600 1302.0000 1.0000
35.4700 1259.0000 1.0000
35.4800 1251.0000 1.0000
35.4900 1219.0000 1.0000
35.5000 1215.0000 1.0000
35.5100 1234.0000 1.0000
35.5200 1152.0000 1.0000
35.5300 1205.0000 1.0000
35.5400 1255.0000 1.0000
35.5500 1220.0000 1.0000
35.5600 1219.0000 1.0000
35.5700 1283.0000 1.0000
35.5800 1252.0000 1.0000
35.5900 1255.0000 1.0000
35.6000 1197.0000 1.0000
35.6100 1204.0000 1.0000
35.6200 1184.0000 1.0000
35.6300 1178.0000 1.0000
35.6400 1196.0000 1.0000
35.6500 1213.0000 1.0000
35.6600 1224.0000 1.0000
35.6700 1217.0000 1.0000
35.6800 1233.0000 1.0000
35.6900 1208.0000 1.0000
35.7000 1167.0000 1.0000
35.7100 1246.0000 1.0000
35.7200 1200.0000 1.0000
35.7300 1163.0000 1.0000
35.7400 1236.0000 1.0000
35.7500 1269.0000 1.0000
35.7600 1183.0000 1.0000
35.7700 1137.0000 1.0000
35.7800 1191.0000 1.0000
35.7900 1216.0000 1.0000
35.8000 1195.0000 1.0000
35.8100 1174.0000 1.0000
35.8200 1158.0000 1.0000
35.8300 1213.0000 1.0000
35.8400 1200.0000 1.0000
35.8500 1179.0000 1.0000
35.8600 1174.0000 1.0000
35.8700 1216.0000 1.0000
35.8800 1143.0000 1.0000
35.8900 1180.0000 1.0000
35.9000 1184.0000 1.0000
35.9100 1205.0000 1.0000
35.9200 1144.0000 1.0000
35.9300 1219.0000 1.0000
35.9400 1182.0000 1.0000
35.9500 1190.0000 1.0000
35.9600 1199.0000 1.0000
35.9700 1165.0000 1.0000
35.9800 1206.0000 1.0000
35.9900 1161.0000 1.0000
36.0000 1105.0000 1.0000
36.0100 1214.0000 1.0000
36.0200 1133.0000 1.0000
36.0300 1163.0000 1.0000
36.0400 1177.0000 1.0000
36.0500 1245.0000 1.0000
36.0600 1143.0000 1.0000
36.0700 1167.0000 1.0000
36.0800 1173.0000 1.0000
36.0900 1196.0000 1.0000
36.1000 1207.0000 1.0000
36.1100 1212.0000 1.0000
36.1200 1141.0000 1.0000
36.1300 1236.0000 1.0000
36.1400 1192.0000 1.0000
36.1500 1142.0000 1.0000
36.1600 1212.0000 1.0000
36.1700 1187.0000 1.0000
36.1800 1258.0000 1.0000
36.1900 1222.0000 1.0000
36.2000 1210.0000 1.0000
36.2100 1263.0000 1.0000
36.2200 1337.0000 1.0000
36.2300 1272.0000 1.0000
36.2400 1276.0000 1.0000
36.2500 1271.0000 1.0000
36.2600 1318.0000 1.0000
36.2700 1419.0000 1.0000
36.2800 1381.0000 1.0000
36.2900 1338.0000 1.0000
36.3000 1342.0000 1.0000
36.3100 1419.0000 1.0000
36.3200 1482.0000 1.0000
36.3300 1463.0000 1.0000
36.3400 1493.0000 1.0000
36.3500 1639.0000 1.0000
36.3600 1593.0000 1.0000
36.3700 1717.0000 1.0000
36.3800 1785.0000 1.0000
36.3900 1736.0000 1.0000
36.4000 1871.0000 1.0000
36.4100 2006.0000 1.0000
36.4200 2002.0000 1.0000
36.4300 2066.0000 1.0000
36.4400 2150.0000 1.0000
36.4500 2207.0000 1.0000
36.4600 2205.0000 1.0000
36.4700 2129.0000 1.0000
36.4800 2148.0000 1.0000
36.4900 2132.0000 1.0000
36.5000 2063.0000 1.0000
36.5100 1941.0000 1.0000
36.5200 1888.0000 1.0000
36.5300 1798.0000 1.0000
36.5400 1779.0000 1.0000
36.5500 1743.0000 1.0000
36.5600 1737.0000 1.0000
36.5700 1666.0000 1.0000
36.5800 1589.0000 1.0000
36.5900 1517.0000 1.0000
36.6000 1555.0000 1.0000
36.6100 1461.0000 1.0000
36.6200 1382.0000 1.0000
36.6300 1355.0000 1.0000
36.6400 1361.0000 1.0000
36.6500 1345.0000 1.0000
36.6600 1242.0000 1.0000
36.6700 1252.0000 1.0000
36.6800 1253.0000 1.0000
36.6900 1203.0000 1.0000
36.7000 1200.0000 1.0000
36.7100 1163.0000 1.0000
36.7200 1157.0000 1.0000
36.7300 1162.0000 1.0000
36.7400 1145.0000 1.0000
36.7500 1108.0000 1.0000
36.7600 1126.0000 1.0000
36.7700 1100.0000 1.0000
36.7800 1115.0000 1.0000
36.7900 1115.0000 1.0000
36.8000 1118.0000 1.0000
36.8100 1124.0000 1.0000
36.8200 1100.0000 1.0000
36.8300 1097.0000 1.0000
36.8400 1124.0000 1.0000
36.8500 1163.0000 1.0000
36.8600 1150.0000 1.0000
36.8700 1077.0000 1.0000
36.8800 1136.0000 1.0000
36.8900 1121.0000 1.0000
36.9000 1133.0000 1.0000
36.9100 1137.0000 1.0000
36.9200 1137.0000 1.0000
36.9300 1106.0000 1.0000
36.9400 1062.0000 1.0000
36.9500 1135.0000 1.0000
36.9600 1120.0000 1.0000
36.9700 1067.0000 1.0000
36.9800 1044.0000 1.0000
36.9900 1110.0000 1.0000
37.0000 1135.0000 1.0000
37.0100 1052.0000 1.0000
37.0200 1078.0000 1.0000
37.0300 1100.0000 1.0000
37.0400 1077.0000 1.0000
37.0500 1101.0000 1.0000
37.0600 1073.0000 1.0000
37.0700 1112.0000 1.0000
37.0800 1093.0000 1.0000
37.0900 1030.0000 1.0000
37.1000 1093.0000 1.0000
37.1100 1058.0000 1.0000
37.1200 1073.0000 1.0000
37.1300 1097.0000 1.0000
37.1400 1020.0000 1.0000
37.1500 1093.0000 1.0000
37.1600 1103.0000 1.0000
37.1700 1068.0000 1.0000
37.1800 1094.0000 1.0000
37.1900 1069.0000 1.0000
37.2000 1049.0000 1.0000
37.2100 1051.0000 1.0000
37.2200 1089.0000 1.0000
37.2300 1073.0000 1.0000
37.2400 1092.0000 1.0000
37.2500 1059.0000 1.0000
37.2600 1084.0000 1.0000
37.2700 1142.0000 1.0000
37.2800 1107.0000 1.0000
37.2900 1109.0000 1.0000
37.3000 1101.0000 1.0000
37.3100 1143.0000 1.0000
37.3200 1100.0000 1.0000
37.3300 1123.0000 1.0000
37.3400 1142.0000 1.0000
37.3500 1127.0000 1.0000
37.3600 1148.0000 1.0000
37.3700 1125.0000 1.0000
37.3800 1077.0000 1.0000
37.3900 1151.0000 1.0000
37.4000 1091.0000 1.0000
37.4100 1073.0000 1.0000
37.4200 1110.0000 1.0000
37.4300 1058.0000 1.0000
37.4400 1098.0000 1.0000
37.4500 1102.0000 1.0000
37.4600 1150.0000 1.0000
37.4700 1061.0000 1.0000
37.4800 1060.0000 1.0000
37.4900 1141.0000 1.0000
37.5000 1099.0000 1.0000
37.5100 1084.0000 1.0000
37.5200 1050.0000 1.0000
37.5300 1075.0000 1.0000
37.5400 1030.0000 1.0000
37.5500 1074.0000 1.0000
37.5600 1050.0000 1.0000
37.5700 1091.0000 1.0000
37.5800 1090.0000 1.0000
37.5900 1098.0000 1.0000
37.6000 1090.0000 1.0000
37.6100 1070.0000 1.0000
37.6200 1113.0000 1.0000
37.6300 1103.0000 1.0000
37.6400 1053.0000 1.0000
37.6500 1098.0000 1.0000
37.6600 1039.0000 1.0000
37.6700 1062.0000 1.0000
37.6800 1065.0000 1.0000
37.6900 1068.0000 1.0000
37.7000 1112.0000 1.0000
37.7100 1111.0000 1.0000
37.7200 1128.0000 1.0000
37.7300 1126.0000 1.0000
37.7400 1058.0000 1.0000
37.7500 1107.0000 1.0000
37.7600 1095.0000 1.0000
37.7700 1100.0000 1.0000
37.7800 1060.0000 1.0000
37.7900 1071.0000 1.0000
37.8000 1073.0000 1.0000
37.8100 1122.0000 1.0000
37.8200 1079.0000 1.0000
37.8300 1100.0000 1.0000
37.8400 1136.0000 1.0000
37.8500 1094.0000 1.0000
37.8600 1112.0000 1.0000
37.8700 1067.0000 1.0000
37.8800 1114.0000 1.0000
37.8900 1129.0000 1.0000
37.9000 1071.0000 1.0000
37.9100 1147.0000 1.0000
37.9200 1116.0000 1.0000
37.9300 1086.0000 1.0000
37.9400 1113.0000 1.0000
37.9500 1083.0000 1.0000
37.9600 1144.0000 1.0000
37.9700 1162.0000 1.0000
37.9800 1132.0000 1.0000
37.9900 1215.0000 1.0000
38.0000 1136.0000 1.0000
38.0100 1143.0000 1.0000
38.0200 1137.0000 1.0000
38.0300 1157.0000 1.0000
38.0400 1134.0000 1.0000
38.0500 1155.0000 1.0000
38.0600 1134.0000 1.0000
38.0700 1144.0000 1.0000
38.0800 1155.0000 1.0000
38.0900 1184.0000 1.0000
38.1000 1179.0000 1.0000
38.1100 1208.0000 1.0000
38.1200 1240.0000 1.0000
38.1300 1215.0000 1.0000
38.1400 1219.0000 1.0000
38.1500 1301.0000 1.0000
38.1600 1222.0000 1.0000
38.1700 1317.0000 1.0000
38.1800 1292.0000 1.0000
38.1900 1337.0000 1.0000
38.2000 1328.0000 1.0000
38.2100 1443.0000 1.0000
38.2200 1419.0000 1.0000
38.2300 1339.0000 1.0000
38.2400 1400.0000 1.0000
38.2500 1487.0000 1.0000
38.2600 1535.0000 1.0000
38.2700 1568.0000 1.0000
38.2800 1653.0000 1.0000
38.2900 1668.0000 1.0000
38.3000 1755.0000 1.0000
38.3100 1822.0000 1.0000
38.3200 1888.0000 1.0000
38.3300 1966.0000 1.0000
38.3400 1998.0000 1.0000
38.3500 2123.0000 1.0000
38.3600 2253.0000 1.0000
38.3700 2292.0000 1.0000
38.3800 2419.0000 1.0000
38.3900 2555.0000 1.0000
38.4000 2531.0000 1.0000
38.4100 2762.0000 1.0000
38.4200 2979.0000 1.0000
38.4300 3077.0000 1.0000
38.4400 3264.0000 1.0000
38.4500 3572.0000 1.0000
38.4600 3682.0000 1.0000
38.4700 3965.0000 1.0000
38.4800 4273.0000 1.0000
38.4900 4607.0000 1.0000
38.5000 4905.0000 1.0000
38.5100 5244.0000 1.0000
38.5200 5681.0000 1.0000
38.5300 5870.0000 1.0000
38.5400 6157.0000 1.0000
38.5500 6528.0000 1.0000
38.5600 6819.0000 1.0000
38.5700 6931.0000 1.0000
38.5800 6971.0000 1.0000
38.5900 7186.0000 1.0000
38.6000 7158.0000 1.0000
38.6100 7268.0000 1.0000
38.6200 7183.0000 1.0000
38.6300 6971.0000 1.0000
38.6400 6933.0000 1.0000
38.6500 6627.0000 1.0000
38.6600 6528.0000 1.0000
38.6700 6385.0000 1.0000
38.6800 5919.0000 1.0000
38.6900 5568.0000 1.0000
38.7000 5298.0000 1.0000
38.7100 5045.0000 1.0000
38.7200 4706.0000 1.0000
38.7300 4435.0000 1.0000
38.7400 4227.0000 1.0000
38.7500 4016.0000 1.0000
38.7600 3669.0000 1.0000
38.7700 3487.0000 1.0000
38.7800 3131.0000 1.0000
38.7900 3020.0000 1.0000
38.8000 2744.0000 1.0000
38.8100 2692.0000 1.0000
38.8200 2426.0000 1.0000
38.8300 2255.0000 1.0000
38.8400 2201.0000 1.0000
38.8500 2088.0000 1.0000
38.8600 2084.0000 1.0000
38.8700 1959.0000 1.0000
38.8800 1868.0000 1.0000
38.8900 1747.0000 1.0000
38.9000 1760.0000 1.0000
38.9100 1624.0000 1.0000
38.9200 1585.0000 1.0000
38.9300 1548.0000 1.0000
38.9400 1476.0000 1.0000
38.9500 1443.0000 1.0000
38.9600 1457.0000 1.0000
38.9700 1392.0000 1.0000
38.9800 1389.0000 1.0000
38.9900 1331.0000 1.0000
39.0000 1255.0000 1.0000
39.0100 1251.0000 1.0000
39.0200 1237.0000 1.0000
39.0300 1198.0000 1.0000
39.0400 1206.0000 1.0000
39.0500 1208.0000 1.0000
39.0600 1209.0000 1.0000
39.0700 1106.0000 1.0000
39.0800 1101.0000 1.0000
39.0900 1152.0000 1.0000
39.1000 1139.0000 1.0000
39.1100 1123.0000 1.0000
39.1200 1087.0000 1.0000
39.1300 1087.0000 1.0000
39.1400 1097.0000 1.0000
39.1500 1124.0000 1.0000
39.1600 1079.0000 1.0000
39.1700 1078.0000 1.0000
39.1800 1062.0000 1.0000
39.1900 1007.0000 1.0000
39.2000 1078.0000 1.0000
39.2100 1060.0000 1.0000
39.2200 1036.0000 1.0000
39.2300 1034.0000 1.0000
39.2400 990.0000 1.0000
39.2500 1027.0000 1.0000
39.2600 1041.0000 1.0000
39.2700 983.0000 1.0000
39.2800 1005.0000 1.0000
39.2900 995.0000 1.0000
39.3000 1027.0000 1.0000
39.3100 1006.0000 1.0000
39.3200 1045.0000 1.0000
39.3300 1039.0000 1.0000
39.3400 1022.0000 1.0000
39.3500 989.0000 1.0000
39.3600 1044.0000 1.0000
39.3700 973.0000 1.0000
39.3800 1028.0000 1.0000
39.3900 1032.0000 1.0000
39.4000 968.0000 1.0000
39.4100 1035.0000 1.0000
39.4200 1049.0000 1.0000
39.4300 965.0000 1.0000
39.4400 1031.0000 1.0000
39.4500 1037.0000 1.0000
39.4600 1030.0000 1.0000
39.4700 966.0000 1.0000
39.4800 920.0000 1.0000
39.4900 958.0000 1.0000
39.5000 948.0000 1.0000
39.5100 960.0000 1.0000
39.5200 1008.0000 1.0000
39.5300 990.0000 1.0000
39.5400 1043.0000 1.0000
39.5500 1045.0000 1.0000
39.5600 982.0000 1.0000
39.5700 1023.0000 1.0000
39.5800 1073.0000 1.0000
39.5900 1003.0000 1.0000
39.6000 988.0000 1.0000
39.6100 1053.0000 1.0000
39.6200 1023.0000 1.0000
39.6300 1015.0000 1.0000
39.6400 994.0000 1.0000
39.6500 1031.0000 1.0000
39.6600 979.0000 1.0000
39.6700 945.0000 1.0000
39.6800 1008.0000 1.0000
39.6900 1054.0000 1.0000
39.7000 994.0000 1.0000
39.7100 993.0000 1.0000
39.7200 1047.0000 1.0000
39.7300 1028.0000 1.0000
39.7400 1040.0000 1.0000
39.7500 957.0000 1.0000
39.7600 994.0000 1.0000
39.7700 964.0000 1.0000
39.7800 994.0000 1.0000
39.7900 964.0000 1.0000
39.8000 1022.0000 1.0000
39.8100 1016.0000 1.0000
39.8200 933.0000 1.0000
39.8300 917.0000 1.0000
39.8400 958.0000 1.0000
39.8500 960.0000 1.0000
39.8600 961.0000 1.0000
39.8700 996.0000 1.0000
39.8800 1009.0000 1.0000
39.8900 974.0000 1.0000
39.9000 938.0000 1.0000
39.9100 940.0000 1.0000
39.9200 944.0000 1.0000
39.9300 940.0000 1.0000
39.9400 968.0000 1.0000
39.9500 949.0000 1.0000
39.9600 940.0000 1.0000
39.9700 953.0000 1.0000
39.9800 940.0000 1.0000
39.9900 925.0000 1.0000
40.0000 906.0000 1.0000
40.0100 898.0000 1.0000
40.0200 984.0000 1.0000
40.0300 980.0000 1.0000
40.0400 960.0000 1.0000
40.0500 936.0000 1.0000
40.0600 908.0000 1.0000
40.0700 943.0000 1.0000
40.0800 937.0000 1.0000
40.0900 910.0000 1.0000
40.1000 948.0000 1.0000
40.1100 942.0000 1.0000
40.1200 913.0000 1.0000
40.1300 934.0000 1.0000
40.1400 941.0000 1.0000
40.1500 952.0000 1.0000
40.1600 982.0000 1.0000
40.1700 919.0000 1.0000
40.1800 933.0000 1.0000
40.1900 940.0000 1.0000
40.2000 955.0000 1.0000
40.2100 907.0000 1.0000
40.2200 886.0000 1.0000
40.2300 930.0000 1.0000
40.2400 957.0000 1.0000
40.2500 958.0000 1.0000
40.2600 937.0000 1.0000
40.2700 902.0000 1.0000
40.2800 894.0000 1.0000
40.2900 916.0000 1.0000
40.3000 917.0000 1.0000
40.3100 890.0000 1.0000
40.3200 900.0000 1.0000
40.3300 906.0000 1.0000
40.3400 904.0000 1.0000
40.3500 944.0000 1.0000
40.3600 909.0000 1.0000
40.3700 916.0000 1.0000
40.3800 909.0000 1.0000
40.3900 959.0000 1.0000
40.4000 961.0000 1.0000
40.4100 948.0000 1.0000
40.4200 938.0000 1.0000
40.4300 956.0000 1.0000
40.4400 930.0000 1.0000
40.4500 940.0000 1.0000
40.4600 987.0000 1.0000
40.4700 921.0000 1.0000
40.4800 933.0000 1.0000
40.4900 916.0000 1.0000
40.5000 908.0000 1.0000
40.5100 916.0000 1.0000
40.5200 919.0000 1.0000
40.5300 919.0000 1.0000
40.5400 897.0000 1.0000
40.5500 920.0000 1.0000
40.5600 888.0000 1.0000
40.5700 904.0000 1.0000
40.5800 899.0000 1.0000
40.5900 943.0000 1.0000
40.6000 919.0000 1.0000
40.6100 911.0000 1.0000
40.6200 902.0000 1.0000
40.6300 922.0000 1.0000
40.6400 876.0000 1.0000
40.6500 912.0000 1.0000
40.6600 923.0000 1.0000
40.6700 864.0000 1.0000
40.6800 880.0000 1.0000
40.6900 936.0000 1.0000
40.7000 927.0000 1.0000
40.7100 872.0000 1.0000
40.7200 916.0000 1.0000
40.7300 928.0000 1.0000
40.7400 910.0000 1.0000
40.7500 919.0000 1.0000
40.7600 890.0000 1.0000
40.7700 843.0000 1.0000
40.7800 885.0000 1.0000
40.7900 899.0000 1.0000
40.8000 916.0000 1.0000
40.8100 924.0000 1.0000
40.8200 891.0000 1.0000
40.8300 875.0000 1.0000
40.8400 897.0000 1.0000
40.8500 882.0000 1.0000
40.8600 907.0000 1.0000
40.8700 892.0000 1.0000
40.8800 887.0000 1.0000
40.8900 865.0000 1.0000
40.9000 847.0000 1.0000
40.9100 875.0000 1.0000
40.9200 913.0000 1.0000
40.9300 898.0000 1.0000
40.9400 905.0000 1.0000
40.9500 932.0000 1.0000
40.9600 866.0000 1.0000
40.9700 888.0000 1.0000
40.9800 883.0000 1.0000
40.9900 932.0000 1.0000
41.0000 879.0000 1.0000
41.0100 862.0000 1.0000
41.0200 884.0000 1.0000
41.0300 886.0000 1.0000
41.0400 860.0000 1.0000
41.0500 898.0000 1.0000
41.0600 920.0000 1.0000
41.0700 861.0000 1.0000
41.0800 876.0000 1.0000
41.0900 893.0000 1.0000
41.1000 957.0000 1.0000
41.1100 877.0000 1.0000
41.1200 883.0000 1.0000
41.1300 933.0000 1.0000
41.1400 920.0000 1.0000
41.1500 893.0000 1.0000
41.1600 966.0000 1.0000
41.1700 879.0000 1.0000
41.1800 904.0000 1.0000
41.1900 903.0000 1.0000
41.2000 907.0000 1.0000
41.2100 923.0000 1.0000
41.2200 908.0000 1.0000
41.2300 870.0000 1.0000
41.2400 899.0000 1.0000
41.2500 874.0000 1.0000
41.2600 887.0000 1.0000
41.2700 894.0000 1.0000
41.2800 886.0000 1.0000
41.2900 860.0000 1.0000
41.3000 837.0000 1.0000
41.3100 891.0000 1.0000
41.3200 881.0000 1.0000
41.3300 914.0000 1.0000
41.3400 898.0000 1.0000
41.3500 932.0000 1.0000
41.3600 937.0000 1.0000
41.3700 859.0000 1.0000
41.3800 882.0000 1.0000
41.3900 883.0000 1.0000
41.4000 849.0000 1.0000
41.4100 868.0000 1.0000
41.4200 936.0000 1.0000
41.4300 908.0000 1.0000
41.4400 849.0000 1.0000
41.4500 844.0000 1.0000
41.4600 880.0000 1.0000
41.4700 915.0000 1.0000
41.4800 908.0000 1.0000
41.4900 912.0000 1.0000
41.5000 883.0000 1.0000
41.5100 907.0000 1.0000
41.5200 874.0000 1.0000
41.5300 860.0000 1.0000
41.5400 922.0000 1.0000
41.5500 901.0000 1.0000
41.5600 857.0000 1.0000
41.5700 878.0000 1.0000
41.5800 895.0000 1.0000
41.5900 940.0000 1.0000
41.6000 884.0000 1.0000
41.6100 901.0000 1.0000
41.6200 897.0000 1.0000
41.6300 930.0000 1.0000
41.6400 917.0000 1.0000
41.6500 892.0000 1.0000
41.6600 944.0000 1.0000
41.6700 906.0000 1.0000
41.6800 942.0000 1.0000
41.6900 911.0000 1.0000
41.7000 907.0000 1.0000
41.7100 921.0000 1.0000
41.7200 845.0000 1.0000
41.7300 927.0000 1.0000
41.7400 921.0000 1.0000
41.7500 926.0000 1.0000
41.7600 918.0000 1.0000
41.7700 916.0000 1.0000
41.7800 833.0000 1.0000
41.7900 864.0000 1.0000
41.8000 901.0000 1.0000
41.8100 877.0000 1.0000
41.8200 867.0000 1.0000
41.8300 878.0000 1.0000
41.8400 871.0000 1.0000
41.8500 900.0000 1.0000
41.8600 884.0000 1.0000
41.8700 909.0000 1.0000
41.8800 886.0000 1.0000
41.8900 907.0000 1.0000
41.9000 887.0000 1.0000
41.9100 865.0000 1.0000
41.9200 858.0000 1.0000
41.9300 869.0000 1.0000
41.9400 937.0000 1.0000
41.9500 902.0000 1.0000
41.9600 924.0000 1.0000
41.9700 893.0000 1.0000
41.9800 887.0000 1.0000
41.9900 891.0000 1.0000
42.0000 835.0000 1.0000
42.0100 858.0000 1.0000
42.0200 875.0000 1.0000
42.0300 876.0000 1.0000
42.0400 909.0000 1.0000
42.0500 861.0000 1.0000
42.0600 838.0000 1.0000
42.0700 866.0000 1.0000
42.0800 829.0000 1.0000
42.0900 874.0000 1.0000
42.1000 890.0000 1.0000
42.1100 896.0000 1.0000
42.1200 879.0000 1.0000
42.1300 885.0000 1.0000
42.1400 862.0000 1.0000
42.1500 877.0000 1.0000
42.1600 887.0000 1.0000
42.1700 897.0000 1.0000
42.1800 948.0000 1.0000
42.1900 864.0000 1.0000
42.2000 872.0000 1.0000
42.2100 887.0000 1.0000
42.2200 865.0000 1.0000
42.2300 885.0000 1.0000
42.2400 853.0000 1.0000
42.2500 848.0000 1.0000
42.2600 861.0000 1.0000
42.2700 870.0000 1.0000
42.2800 901.0000 1.0000
42.2900 875.0000 1.0000
42.3000 884.0000 1.0000
42.3100 871.0000 1.0000
42.3200 875.0000 1.0000
42.3300 880.0000 1.0000
42.3400 864.0000 1.0000
42.3500 895.0000 1.0000
42.3600 873.0000 1.0000
42.3700 890.0000 1.0000
42.3800 892.0000 1.0000
42.3900 853.0000 1.0000
42.4000 867.0000 1.0000
42.4100 844.0000 1.0000
42.4200 854.0000 1.0000
42.4300 890.0000 1.0000
42.4400 853.0000 1.0000
42.4500 900.0000 1.0000
42.4600 832.0000 1.0000
42.4700 867.0000 1.0000
42.4800 837.0000 1.0000
42.4900 916.0000 1.0000
42.5000 864.0000 1.0000
42.5100 908.0000 1.0000
42.5200 857.0000 1.0000
42.5300 877.0000 1.0000
42.5400 927.0000 1.0000
42.5500 855.0000 1.0000
42.5600 869.0000 1.0000
42.5700 910.0000 1.0000
42.5800 912.0000 1.0000
42.5900 858.0000 1.0000
42.6000 890.0000 1.0000
42.6100 902.0000 1.0000
42.6200 874.0000 1.0000
42.6300 872.0000 1.0000
42.6400 841.0000 1.0000
42.6500 899.0000 1.0000
42.6600 913.0000 1.0000
42.6700 889.0000 1.0000
42.6800 896.0000 1.0000
42.6900 909.0000 1.0000
42.7000 907.0000 1.0000
42.7100 896.0000 1.0000
42.7200 867.0000 1.0000
42.7300 880.0000 1.0000
42.7400 849.0000 1.0000
42.7500 883.0000 1.0000
42.7600 889.0000 1.0000
42.7700 886.0000 1.0000
42.7800 903.0000 1.0000
42.7900 860.0000 1.0000
42.8000 898.0000 1.0000
42.8100 870.0000 1.0000
42.8200 889.0000 1.0000
42.8300 882.0000 1.0000
42.8400 876.0000 1.0000
42.8500 931.0000 1.0000
42.8600 831.0000 1.0000
42.8700 842.0000 1.0000
42.8800 870.0000 1.0000
42.8900 854.0000 1.0000
42.9000 872.0000 1.0000
42.9100 901.0000 1.0000
42.9200 867.0000 1.0000
42.9300 881.0000 1.0000
42.9400 897.0000 1.0000
42.9500 868.0000 1.0000
42.9600 937.0000 1.0000
42.9700 933.0000 1.0000
42.9800 884.0000 1.0000
42.9900 845.0000 1.0000
43.0000 872.0000 1.0000
43.0100 871.0000 1.0000
43.0200 881.0000 1.0000
43.0300 888.0000 1.0000
43.0400 902.0000 1.0000
43.0500 910.0000 1.0000
43.0600 885.0000 1.0000
43.0700 933.0000 1.0000
43.0800 914.0000 1.0000
43.0900 838.0000 1.0000
43.1000 880.0000 1.0000
43.1100 854.0000 1.0000
43.1200 879.0000 1.0000
43.1300 914.0000 1.0000
43.1400 927.0000 1.0000
43.1500 953.0000 1.0000
43.1600 918.0000 1.0000
43.1700 947.0000 1.0000
43.1800 939.0000 1.0000
43.1900 953.0000 1.0000
43.2000 943.0000 1.0000
43.2100 949.0000 1.0000
43.2200 944.0000 1.0000
43.2300 902.0000 1.0000
43.2400 926.0000 1.0000
43.2500 1004.0000 1.0000
43.2600 999.0000 1.0000
43.2700 970.0000 1.0000
43.2800 929.0000 1.0000
43.2900 928.0000 1.0000
43.3000 983.0000 1.0000
43.3100 967.0000 1.0000
43.3200 961.0000 1.0000
43.3300 947.0000 1.0000
43.3400 984.0000 1.0000
43.3500 942.0000 1.0000
43.3600 956.0000 1.0000
43.3700 932.0000 1.0000
43.3800 921.0000 1.0000
43.3900 941.0000 1.0000
43.4000 889.0000 1.0000
43.4100 958.0000 1.0000
43.4200 915.0000 1.0000
43.4300 962.0000 1.0000
43.4400 938.0000 1.0000
43.4500 903.0000 1.0000
43.4600 869.0000 1.0000
43.4700 912.0000 1.0000
43.4800 897.0000 1.0000
43.4900 949.0000 1.0000
43.5000 875.0000 1.0000
43.5100 850.0000 1.0000
43.5200 830.0000 1.0000
43.5300 893.0000 1.0000
43.5400 928.0000 1.0000
43.5500 852.0000 1.0000
43.5600 884.0000 1.0000
43.5700 885.0000 1.0000
43.5800 923.0000 1.0000
43.5900 896.0000 1.0000
43.6000 884.0000 1.0000
43.6100 870.0000 1.0000
43.6200 850.0000 1.0000
43.6300 823.0000 1.0000
43.6400 881.0000 1.0000
43.6500 927.0000 1.0000
43.6600 850.0000 1.0000
43.6700 848.0000 1.0000
43.6800 845.0000 1.0000
43.6900 875.0000 1.0000
43.7000 890.0000 1.0000
43.7100 829.0000 1.0000
43.7200 848.0000 1.0000
43.7300 898.0000 1.0000
43.7400 866.0000 1.0000
43.7500 881.0000 1.0000
43.7600 818.0000 1.0000
43.7700 857.0000 1.0000
43.7800 866.0000 1.0000
43.7900 851.0000 1.0000
43.8000 895.0000 1.0000
43.8100 846.0000 1.0000
43.8200 868.0000 1.0000
43.8300 855.0000 1.0000
43.8400 833.0000 1.0000
43.8500 849.0000 1.0000
43.8600 818.0000 1.0000
43.8700 885.0000 1.0000
43.8800 883.0000 1.0000
43.8900 867.0000 1.0000
43.9000 789.0000 1.0000
43.9100 825.0000 1.0000
43.9200 867.0000 1.0000
43.9300 859.0000 1.0000
43.9400 822.0000 1.0000
43.9500 816.0000 1.0000
43.9600 807.0000 1.0000
43.9700 807.0000 1.0000
43.9800 856.0000 1.0000
43.9900 831.0000 1.0000
44.0000 837.0000 1.0000
44.0100 844.0000 1.0000
44.0200 837.0000 1.0000
44.0300 875.0000 1.0000
44.0400 854.0000 1.0000
44.0500 829.0000 1.0000
44.0600 866.0000 1.0000
44.0700 879.0000 1.0000
44.0800 841.0000 1.0000
44.0900 874.0000 1.0000
44.1000 822.0000 1.0000
44.1100 853.0000 1.0000
44.1200 807.0000 1.0000
44.1300 834.0000 1.0000
44.1400 853.0000 1.0000
44.1500 861.0000 1.0000
44.1600 846.0000 1.0000
44.1700 836.0000 1.0000
44.1800 843.0000 1.0000
44.1900 842.0000 1.0000
44.2000 842.0000 1.0000
44.2100 793.0000 1.0000
44.2200 800.0000 1.0000
44.2300 822.0000 1.0000
44.2400 841.0000 1.0000
44.2500 825.0000 1.0000
44.2600 870.0000 1.0000
44.2700 830.0000 1.0000
44.2800 887.0000 1.0000
44.2900 838.0000 1.0000
44.3000 849.0000 1.0000
44.3100 859.0000 1.0000
44.3200 851.0000 1.0000
44.3300 871.0000 1.0000
44.3400 857.0000 1.0000
44.3500 880.0000 1.0000
44.3600 855.0000 1.0000
44.3700 807.0000 1.0000
44.3800 861.0000 1.0000
44.3900 921.0000 1.0000
44.4000 864.0000 1.0000
44.4100 831.0000 1.0000
44.4200 852.0000 1.0000
44.4300 875.0000 1.0000
44.4400 844.0000 1.0000
44.4500 876.0000 1.0000
44.4600 836.0000 1.0000
44.4700 890.0000 1.0000
44.4800 829.0000 1.0000
44.4900 863.0000 1.0000
44.5000 888.0000 1.0000
44.5100 860.0000 1.0000
44.5200 845.0000 1.0000
44.5300 816.0000 1.0000
44.5400 866.0000 1.0000
44.5500 859.0000 1.0000
44.5600 822.0000 1.0000
44.5700 856.0000 1.0000
44.5800 804.0000 1.0000
44.5900 835.0000 1.0000
44.6000 857.0000 1.0000
44.6100 851.0000 1.0000
44.6200 885.0000 1.0000
44.6300 877.0000 1.0000
44.6400 834.0000 1.0000
44.6500 883.0000 1.0000
44.6600 838.0000 1.0000
44.6700 806.0000 1.0000
44.6800 846.0000 1.0000
44.6900 836.0000 1.0000
44.7000 854.0000 1.0000
44.7100 826.0000 1.0000
44.7200 851.0000 1.0000
44.7300 842.0000 1.0000
44.7400 836.0000 1.0000
44.7500 798.0000 1.0000
44.7600 811.0000 1.0000
44.7700 849.0000 1.0000
44.7800 832.0000 1.0000
44.7900 825.0000 1.0000
44.8000 852.0000 1.0000
44.8100 826.0000 1.0000
44.8200 815.0000 1.0000
44.8300 795.0000 1.0000
44.8400 812.0000 1.0000
44.8500 832.0000 1.0000
44.8600 809.0000 1.0000
44.8700 836.0000 1.0000
44.8800 823.0000 1.0000
44.8900 838.0000 1.0000
44.9000 848.0000 1.0000
44.9100 833.0000 1.0000
44.9200 768.0000 1.0000
44.9300 843.0000 1.0000
44.9400 816.0000 1.0000
44.9500 842.0000 1.0000
44.9600 795.0000 1.0000
44.9700 827.0000 1.0000
44.9800 824.0000 1.0000
44.9900 842.0000 1.0000
45.0000 816.0000 1.0000
45.0100 831.0000 1.0000
45.0200 857.0000 1.0000
45.0300 818.0000 1.0000
45.0400 844.0000 1.0000
45.0500 795.0000 1.0000
45.0600 760.0000 1.0000
45.0700 809.0000 1.0000
45.0800 800.0000 1.0000
45.0900 814.0000 1.0000
45.1000 849.0000 1.0000
45.1100 820.0000 1.0000
45.1200 821.0000 1.0000
45.1300 826.0000 1.0000
45.1400 841.0000 1.0000
45.1500 841.0000 1.0000
45.1600 817.0000 1.0000
45.1700 814.0000 1.0000
45.1800 838.0000 1.0000
45.1900 770.0000 1.0000
45.2000 811.0000 1.0000
45.2100 824.0000 1.0000
45.2200 805.0000 1.0000
45.2300 794.0000 1.0000
45.2400 769.0000 1.0000
45.2500 780.0000 1.0000
45.2600 799.0000 1.0000
45.2700 828.0000 1.0000
45.2800 803.0000 1.0000
45.2900 834.0000 1.0000
45.3000 812.0000 1.0000
45.3100 823.0000 1.0000
45.3200 802.0000 1.0000
45.3300 813.0000 1.0000
45.3400 841.0000 1.0000
45.3500 833.0000 1.0000
45.3600 829.0000 1.0000
45.3700 815.0000 1.0000
45.3800 811.0000 1.0000
45.3900 780.0000 1.0000
45.4000 800.0000 1.0000
45.4100 820.0000 1.0000
45.4200 824.0000 1.0000
45.4300 795.0000 1.0000
45.4400 811.0000 1.0000
45.4500 780.0000 1.0000
45.4600 783.0000 1.0000
45.4700 802.0000 1.0000
45.4800 792.0000 1.0000
45.4900 822.0000 1.0000
45.5000 804.0000 1.0000
45.5100 820.0000 1.0000
45.5200 806.0000 1.0000
45.5300 847.0000 1.0000
45.5400 850.0000 1.0000
45.5500 835.0000 1.0000
45.5600 883.0000 1.0000
45.5700 825.0000 1.0000
45.5800 829.0000 1.0000
45.5900 831.0000 1.0000
45.6000 795.0000 1.0000
45.6100 830.0000 1.0000
45.6200 882.0000 1.0000
45.6300 785.0000 1.0000
45.6400 768.0000 1.0000
45.6500 824.0000 1.0000
45.6600 808.0000 1.0000
45.6700 784.0000 1.0000
45.6800 854.0000 1.0000
45.6900 790.0000 1.0000
45.7000 799.0000 1.0000
45.7100 825.0000 1.0000
45.7200 821.0000 1.0000
45.7300 822.0000 1.0000
45.7400 803.0000 1.0000
45.7500 790.0000 1.0000
45.7600 843.0000 1.0000
45.7700 811.0000 1.0000
45.7800 802.0000 1.0000
45.7900 743.0000 1.0000
45.8000 781.0000 1.0000
45.8100 755.0000 1.0000
45.8200 817.0000 1.0000
45.8300 813.0000 1.0000
45.8400 818.0000 1.0000
45.8500 861.0000 1.0000
45.8600 820.0000 1.0000
45.8700 787.0000 1.0000
45.8800 763.0000 1.0000
45.8900 796.0000 1.0000
45.9000 814.0000 1.0000
45.9100 833.0000 1.0000
45.9200 837.0000 1.0000
45.9300 844.0000 1.0000
45.9400 815.0000 1.0000
45.9500 823.0000 1.0000
45.9600 818.0000 1.0000
45.9700 838.0000 1.0000
45.9800 820.0000 1.0000
45.9900 761.0000 1.0000
46.0000 816.0000 1.0000
46.0100 793.0000 1.0000
46.0200 827.0000 1.0000
46.0300 782.0000 1.0000
46.0400 826.0000 1.0000
46.0500 785.0000 1.0000
46.0600 791.0000 1.0000
46.0700 792.0000 1.0000
46.0800 791.0000 1.0000
46.0900 799.0000 1.0000
46.1000 748.0000 1.0000
46.1100 827.0000 1.0000
46.1200 795.0000 1.0000
46.1300 811.0000 1.0000
46.1400 797.0000 1.0000
46.1500 744.0000 1.0000
46.1600 810.0000 1.0000
46.1700 817.0000 1.0000
46.1800 792.0000 1.0000
46.1900 800.0000 1.0000
46.2000 768.0000 1.0000
46.2100 800.0000 1.0000
46.2200 810.0000 1.0000
46.2300 773.0000 1.0000
46.2400 771.0000 1.0000
46.2500 813.0000 1.0000
46.2600 842.0000 1.0000
46.2700 765.0000 1.0000
46.2800 802.0000 1.0000
46.2900 816.0000 1.0000
46.3000 803.0000 1.0000
46.3100 762.0000 1.0000
46.3200 760.0000 1.0000
46.3300 829.0000 1.0000
46.3400 821.0000 1.0000
46.3500 796.0000 1.0000
46.3600 802.0000 1.0000
46.3700 806.0000 1.0000
46.3800 790.0000 1.0000
46.3900 772.0000 1.0000
46.4000 784.0000 1.0000
46.4100 803.0000 1.0000
46.4200 790.0000 1.0000
46.4300 808.0000 1.0000
46.4400 778.0000 1.0000
46.4500 786.0000 1.0000
46.4600 798.0000 1.0000
46.4700 750.0000 1.0000
46.4800 807.0000 1.0000
46.4900 801.0000 1.0000
46.5000 835.0000 1.0000
46.5100 788.0000 1.0000
46.5200 744.0000 1.0000
46.5300 826.0000 1.0000
46.5400 799.0000 1.0000
46.5500 819.0000 1.0000
46.5600 772.0000 1.0000
46.5700 787.0000 1.0000
46.5800 854.0000 1.0000
46.5900 822.0000 1.0000
46.6000 788.0000 1.0000
46.6100 825.0000 1.0000
46.6200 801.0000 1.0000
46.6300 781.0000 1.0000
46.6400 815.0000 1.0000
46.6500 799.0000 1.0000
46.6600 764.0000 1.0000
46.6700 789.0000 1.0000
46.6800 785.0000 1.0000
46.6900 802.0000 1.0000
46.7000 814.0000 1.0000
46.7100 817.0000 1.0000
46.7200 780.0000 1.0000
46.7300 824.0000 1.0000
46.7400 744.0000 1.0000
46.7500 796.0000 1.0000
46.7600 794.0000 1.0000
46.7700 810.0000 1.0000
46.7800 811.0000 1.0000
46.7900 812.0000 1.0000
46.8000 760.0000 1.0000
46.8100 790.0000 1.0000
46.8200 813.0000 1.0000
46.8300 789.0000 1.0000
46.8400 829.0000 1.0000
46.8500 815.0000 1.0000
46.8600 803.0000 1.0000
46.8700 783.0000 1.0000
46.8800 788.0000 1.0000
46.8900 805.0000 1.0000
46.9000 805.0000 1.0000
46.9100 757.0000 1.0000
46.9200 805.0000 1.0000
46.9300 771.0000 1.0000
46.9400 780.0000 1.0000
46.9500 839.0000 1.0000
46.9600 795.0000 1.0000
46.9700 784.0000 1.0000
46.9800 842.0000 1.0000
46.9900 805.0000 1.0000
47.0000 822.0000 1.0000
47.0100 783.0000 1.0000
47.0200 818.0000 1.0000
47.0300 820.0000 1.0000
47.0400 816.0000 1.0000
47.0500 823.0000 1.0000
47.0600 844.0000 1.0000
47.0700 806.0000 1.0000
47.0800 831.0000 1.0000
47.0900 841.0000 1.0000
47.1000 832.0000 1.0000
47.1100 852.0000 1.0000
47.1200 828.0000 1.0000
47.1300 830.0000 1.0000
47.1400 786.0000 1.0000
47.1500 835.0000 1.0000
47.1600 836.0000 1.0000
47.1700 804.0000 1.0000
47.1800 792.0000 1.0000
47.1900 777.0000 1.0000
47.2000 753.0000 1.0000
47.2100 761.0000 1.0000
47.2200 746.0000 1.0000
47.2300 777.0000 1.0000
47.2400 797.0000 1.0000
47.2500 798.0000 1.0000
47.2600 785.0000 1.0000
47.2700 773.0000 1.0000
47.2800 800.0000 1.0000
47.2900 768.0000 1.0000
47.3000 787.0000 1.0000
47.3100 781.0000 1.0000
47.3200 773.0000 1.0000
47.3300 765.0000 1.0000
47.3400 780.0000 1.0000
47.3500 738.0000 1.0000
47.3600 763.0000 1.0000
47.3700 824.0000 1.0000
47.3800 797.0000 1.0000
47.3900 798.0000 1.0000
47.4000 783.0000 1.0000
47.4100 792.0000 1.0000
47.4200 793.0000 1.0000
47.4300 760.0000 1.0000
47.4400 766.0000 1.0000
47.4500 767.0000 1.0000
47.4600 793.0000 1.0000
47.4700 790.0000 1.0000
47.4800 765.0000 1.0000
47.4900 833.0000 1.0000
47.5000 800.0000 1.0000
47.5100 813.0000 1.0000
47.5200 734.0000 1.0000
47.5300 774.0000 1.0000
47.5400 790.0000 1.0000
47.5500 760.0000 1.0000
47.5600 762.0000 1.0000
47.5700 765.0000 1.0000
47.5800 779.0000 1.0000
47.5900 802.0000 1.0000
47.6000 732.0000 1.0000
47.6100 732.0000 1.0000
47.6200 754.0000 1.0000
47.6300 739.0000 1.0000
47.6400 761.0000 1.0000
47.6500 762.0000 1.0000
47.6600 762.0000 1.0000
47.6700 769.0000 1.0000
47.6800 793.0000 1.0000
47.6900 771.0000 1.0000
47.7000 786.0000 1.0000
47.7100 768.0000 1.0000
47.7200 757.0000 1.0000
47.7300 766.0000 1.0000
47.7400 751.0000 1.0000
47.7500 801.0000 1.0000
47.7600 787.0000 1.0000
47.7700 797.0000 1.0000
47.7800 796.0000 1.0000
47.7900 794.0000 1.0000
47.8000 810.0000 1.0000
47.8100 792.0000 1.0000
47.8200 788.0000 1.0000
47.8300 726.0000 1.0000
47.8400 769.0000 1.0000
47.8500 746.0000 1.0000
47.8600 752.0000 1.0000
47.8700 739.0000 1.0000
47.8800 750.0000 1.0000
47.8900 760.0000 1.0000
47.9000 751.0000 1.0000
47.9100 791.0000 1.0000
47.9200 811.0000 1.0000
47.9300 774.0000 1.0000
47.9400 762.0000 1.0000
47.9500 821.0000 1.0000
47.9600 797.0000 1.0000
47.9700 734.0000 1.0000
47.9800 765.0000 1.0000
47.9900 756.0000 1.0000
48.0000 791.0000 1.0000
48.0100 772.0000 1.0000
48.0200 771.0000 1.0000
48.0300 789.0000 1.0000
48.0400 755.0000 1.0000
48.0500 752.0000 1.0000
48.0600 712.0000 1.0000
48.0700 777.0000 1.0000
48.0800 801.0000 1.0000
48.0900 758.0000 1.0000
48.1000 777.0000 1.0000
48.1100 752.0000 1.0000
48.1200 752.0000 1.0000
48.1300 727.0000 1.0000
48.1400 791.0000 1.0000
48.1500 781.0000 1.0000
48.1600 742.0000 1.0000
48.1700 791.0000 1.0000
48.1800 783.0000 1.0000
48.1900 753.0000 1.0000
48.2000 801.0000 1.0000
48.2100 782.0000 1.0000
48.2200 747.0000 1.0000
48.2300 718.0000 1.0000
48.2400 754.0000 1.0000
48.2500 740.0000 1.0000
48.2600 759.0000 1.0000
48.2700 743.0000 1.0000
48.2800 710.0000 1.0000
48.2900 752.0000 1.0000
48.3000 795.0000 1.0000
48.3100 774.0000 1.0000
48.3200 756.0000 1.0000
48.3300 738.0000 1.0000
48.3400 750.0000 1.0000
48.3500 756.0000 1.0000
48.3600 755.0000 1.0000
48.3700 801.0000 1.0000
48.3800 782.0000 1.0000
48.3900 789.0000 1.0000
48.4000 796.0000 1.0000
48.4100 776.0000 1.0000
48.4200 746.0000 1.0000
48.4300 776.0000 1.0000
48.4400 753.0000 1.0000
48.4500 786.0000 1.0000
48.4600 767.0000 1.0000
48.4700 792.0000 1.0000
48.4800 764.0000 1.0000
48.4900 783.0000 1.0000
48.5000 751.0000 1.0000
48.5100 733.0000 1.0000
48.5200 771.0000 1.0000
48.5300 797.0000 1.0000
48.5400 724.0000 1.0000
48.5500 763.0000 1.0000
48.5600 733.0000 1.0000
48.5700 813.0000 1.0000
48.5800 773.0000 1.0000
48.5900 793.0000 1.0000
48.6000 758.0000 1.0000
48.6100 761.0000 1.0000
48.6200 736.0000 1.0000
48.6300 723.0000 1.0000
48.6400 737.0000 1.0000
48.6500 760.0000 1.0000
48.6600 762.0000 1.0000
48.6700 733.0000 1.0000
48.6800 731.0000 1.0000
48.6900 783.0000 1.0000
48.7000 741.0000 1.0000
48.7100 753.0000 1.0000
48.7200 790.0000 1.0000
48.7300 748.0000 1.0000
48.7400 760.0000 1.0000
48.7500 758.0000 1.0000
48.7600 781.0000 1.0000
48.7700 768.0000 1.0000
48.7800 770.0000 1.0000
48.7900 730.0000 1.0000
48.8000 696.0000 1.0000
48.8100 736.0000 1.0000
48.8200 730.0000 1.0000
48.8300 701.0000 1.0000
48.8400 709.0000 1.0000
48.8500 724.0000 1.0000
48.8600 775.0000 1.0000
48.8700 771.0000 1.0000
48.8800 759.0000 1.0000
48.8900 742.0000 1.0000
48.9000 785.0000 1.0000
48.9100 748.0000 1.0000
48.9200 730.0000 1.0000
48.9300 736.0000 1.0000
48.9400 726.0000 1.0000
48.9500 735.0000 1.0000
48.9600 745.0000 1.0000
48.9700 752.0000 1.0000
48.9800 766.0000 1.0000
48.9900 733.0000 1.0000
49.0000 793.0000 1.0000
49.0100 751.0000 1.0000
49.0200 723.0000 1.0000
49.0300 770.0000 1.0000
49.0400 775.0000 1.0000
49.0500 764.0000 1.0000
49.0600 721.0000 1.0000
49.0700 772.0000 1.0000
49.0800 803.0000 1.0000
49.0900 779.0000 1.0000
49.1000 767.0000 1.0000
49.1100 715.0000 1.0000
49.1200 724.0000 1.0000
49.1300 736.0000 1.0000
49.1400 739.0000 1.0000
49.1500 769.0000 1.0000
49.1600 720.0000 1.0000
49.1700 738.0000 1.0000
49.1800 755.0000 1.0000
49.1900 765.0000 1.0000
49.2000 748.0000 1.0000
49.2100 757.0000 1.0000
49.2200 747.0000 1.0000
49.2300 737.0000 1.0000
49.2400 766.0000 1.0000
49.2500 751.0000 1.0000
49.2600 725.0000 1.0000
49.2700 775.0000 1.0000
49.2800 759.0000 1.0000
49.2900 727.0000 1.0000
49.3000 735.0000 1.0000
49.3100 734.0000 1.0000
49.3200 773.0000 1.0000
49.3300 743.0000 1.0000
49.3400 744.0000 1.0000
49.3500 784.0000 1.0000
49.3600 758.0000 1.0000
49.3700 725.0000 1.0000
49.3800 795.0000 1.0000
49.3900 736.0000 1.0000
49.4000 744.0000 1.0000
49.4100 770.0000 1.0000
49.4200 719.0000 1.0000
49.4300 752.0000 1.0000
49.4400 773.0000 1.0000
49.4500 726.0000 1.0000
49.4600 715.0000 1.0000
49.4700 755.0000 1.0000
49.4800 781.0000 1.0000
49.4900 735.0000 1.0000
49.5000 716.0000 1.0000
49.5100 725.0000 1.0000
49.5200 762.0000 1.0000
49.5300 740.0000 1.0000
49.5400 772.0000 1.0000
49.5500 725.0000 1.0000
49.5600 746.0000 1.0000
49.5700 770.0000 1.0000
49.5800 765.0000 1.0000
49.5900 751.0000 1.0000
49.6000 753.0000 1.0000
49.6100 780.0000 1.0000
49.6200 720.0000 1.0000
49.6300 744.0000 1.0000
49.6400 774.0000 1.0000
49.6500 766.0000 1.0000
49.6600 790.0000 1.0000
49.6700 770.0000 1.0000
49.6800 730.0000 1.0000
49.6900 761.0000 1.0000
49.7000 731.0000 1.0000
49.7100 736.0000 1.0000
49.7200 746.0000 1.0000
49.7300 711.0000 1.0000
49.7400 764.0000 1.0000
49.7500 728.0000 1.0000
49.7600 742.0000 1.0000
49.7700 691.0000 1.0000
49.7800 701.0000 1.0000
49.7900 775.0000 1.0000
49.8000 773.0000 1.0000
49.8100 734.0000 1.0000
49.8200 742.0000 1.0000
49.8300 725.0000 1.0000
49.8400 749.0000 1.0000
49.8500 756.0000 1.0000
49.8600 729.0000 1.0000
49.8700 749.0000 1.0000
49.8800 735.0000 1.0000
49.8900 743.0000 1.0000
49.9000 773.0000 1.0000
49.9100 706.0000 1.0000
49.9200 736.0000 1.0000
49.9300 737.0000 1.0000
49.9400 729.0000 1.0000
49.9500 760.0000 1.0000
49.9600 779.0000 1.0000
49.9700 775.0000 1.0000
49.9800 734.0000 1.0000
49.9900 703.0000 1.0000
50.0000 772.0000 1.0000
50.0100 744.0000 1.0000
50.0200 761.0000 1.0000
50.0300 756.0000 1.0000
50.0400 777.0000 1.0000
50.0500 760.0000 1.0000
50.0600 740.0000 1.0000
50.0700 771.0000 1.0000
50.0800 750.0000 1.0000
50.0900 776.0000 1.0000
50.1000 728.0000 1.0000
50.1100 752.0000 1.0000
50.1200 763.0000 1.0000
50.1300 791.0000 1.0000
50.1400 751.0000 1.0000
50.1500 756.0000 1.0000
50.1600 747.0000 1.0000
50.1700 762.0000 1.0000
50.1800 787.0000 1.0000
50.1900 789.0000 1.0000
50.2000 795.0000 1.0000
50.2100 829.0000 1.0000
50.2200 774.0000 1.0000
50.2300 786.0000 1.0000
50.2400 818.0000 1.0000
50.2500 811.0000 1.0000
50.2600 801.0000 1.0000
50.2700 798.0000 1.0000
50.2800 707.0000 1.0000
50.2900 775.0000 1.0000
50.3000 732.0000 1.0000
50.3100 746.0000 1.0000
50.3200 726.0000 1.0000
50.3300 834.0000 1.0000
50.3400 788.0000 1.0000
50.3500 756.0000 1.0000
50.3600 766.0000 1.0000
50.3700 796.0000 1.0000
50.3800 776.0000 1.0000
50.3900 800.0000 1.0000
50.4000 773.0000 1.0000
50.4100 762.0000 1.0000
50.4200 799.0000 1.0000
50.4300 754.0000 1.0000
50.4400 776.0000 1.0000
50.4500 775.0000 1.0000
50.4600 778.0000 1.0000
50.4700 758.0000 1.0000
50.4800 729.0000 1.0000
50.4900 763.0000 1.0000
50.5000 774.0000 1.0000
50.5100 772.0000 1.0000
50.5200 736.0000 1.0000
50.5300 757.0000 1.0000
50.5400 760.0000 1.0000
50.5500 795.0000 1.0000
50.5600 761.0000 1.0000
50.5700 767.0000 1.0000
50.5800 716.0000 1.0000
50.5900 719.0000 1.0000
50.6000 806.0000 1.0000
50.6100 791.0000 1.0000
50.6200 737.0000 1.0000
50.6300 794.0000 1.0000
50.6400 739.0000 1.0000
50.6500 804.0000 1.0000
50.6600 767.0000 1.0000
50.6700 783.0000 1.0000
50.6800 789.0000 1.0000
50.6900 815.0000 1.0000
50.7000 795.0000 1.0000
50.7100 754.0000 1.0000
50.7200 773.0000 1.0000
50.7300 771.0000 1.0000
50.7400 748.0000 1.0000
50.7500 727.0000 1.0000
50.7600 758.0000 1.0000
50.7700 766.0000 1.0000
50.7800 773.0000 1.0000
50.7900 779.0000 1.0000
50.8000 715.0000 1.0000
50.8100 746.0000 1.0000
50.8200 752.0000 1.0000
50.8300 757.0000 1.0000
50.8400 715.0000 1.0000
50.8500 741.0000 1.0000
50.8600 757.0000 1.0000
50.8700 773.0000 1.0000
50.8800 769.0000 1.0000
50.8900 774.0000 1.0000
50.9000 764.0000 1.0000
50.9100 788.0000 1.0000
50.9200 787.0000 1.0000
50.9300 755.0000 1.0000
50.9400 714.0000 1.0000
50.9500 756.0000 1.0000
50.9600 781.0000 1.0000
50.9700 754.0000 1.0000
50.9800 748.0000 1.0000
50.9900 731.0000 1.0000
51.0000 715.0000 1.0000
51.0100 698.0000 1.0000
51.0200 744.0000 1.0000
51.0300 747.0000 1.0000
51.0400 755.0000 1.0000
51.0500 736.0000 1.0000
51.0600 741.0000 1.0000
51.0700 760.0000 1.0000
51.0800 730.0000 1.0000
51.0900 737.0000 1.0000
51.1000 781.0000 1.0000
51.1100 804.0000 1.0000
51.1200 733.0000 1.0000
51.1300 767.0000 1.0000
51.1400 756.0000 1.0000
51.1500 722.0000 1.0000
51.1600 775.0000 1.0000
51.1700 796.0000 1.0000
51.1800 769.0000 1.0000
51.1900 698.0000 1.0000
51.2000 726.0000 1.0000
51.2100 714.0000 1.0000
51.2200 738.0000 1.0000
51.2300 767.0000 1.0000
51.2400 767.0000 1.0000
51.2500 759.0000 1.0000
51.2600 767.0000 1.0000
51.2700 781.0000 1.0000
51.2800 777.0000 1.0000
51.2900 781.0000 1.0000
51.3000 724.0000 1.0000
51.3100 742.0000 1.0000
51.3200 783.0000 1.0000
51.3300 777.0000 1.0000
51.3400 781.0000 1.0000
51.3500 740.0000 1.0000
51.3600 751.0000 1.0000
51.3700 760.0000 1.0000
51.3800 779.0000 1.0000
51.3900 750.0000 1.0000
51.4000 788.0000 1.0000
51.4100 784.0000 1.0000
51.4200 750.0000 1.0000
51.4300 715.0000 1.0000
51.4400 744.0000 1.0000
51.4500 798.0000 1.0000
51.4600 818.0000 1.0000
51.4700 825.0000 1.0000
51.4800 783.0000 1.0000
51.4900 776.0000 1.0000
51.5000 775.0000 1.0000
51.5100 758.0000 1.0000
51.5200 792.0000 1.0000
51.5300 785.0000 1.0000
51.5400 803.0000 1.0000
51.5500 818.0000 1.0000
51.5600 803.0000 1.0000
51.5700 735.0000 1.0000
51.5800 772.0000 1.0000
51.5900 777.0000 1.0000
51.6000 776.0000 1.0000
51.6100 764.0000 1.0000
51.6200 775.0000 1.0000
51.6300 723.0000 1.0000
51.6400 801.0000 1.0000
51.6500 788.0000 1.0000
51.6600 798.0000 1.0000
51.6700 766.0000 1.0000
51.6800 767.0000 1.0000
51.6900 781.0000 1.0000
51.7000 758.0000 1.0000
51.7100 790.0000 1.0000
51.7200 822.0000 1.0000
51.7300 833.0000 1.0000
51.7400 833.0000 1.0000
51.7500 785.0000 1.0000
51.7600 824.0000 1.0000
51.7700 803.0000 1.0000
51.7800 813.0000 1.0000
51.7900 801.0000 1.0000
51.8000 807.0000 1.0000
51.8100 809.0000 1.0000
51.8200 811.0000 1.0000
51.8300 830.0000 1.0000
51.8400 861.0000 1.0000
51.8500 823.0000 1.0000
51.8600 848.0000 1.0000
51.8700 848.0000 1.0000
51.8800 886.0000 1.0000
51.8900 900.0000 1.0000
51.9000 885.0000 1.0000
51.9100 912.0000 1.0000
51.9200 884.0000 1.0000
51.9300 947.0000 1.0000
51.9400 932.0000 1.0000
51.9500 941.0000 1.0000
51.9600 957.0000 1.0000
51.9700 970.0000 1.0000
51.9800 1000.0000 1.0000
51.9900 1001.0000 1.0000
52.0000 1050.0000 1.0000
52.0100 1039.0000 1.0000
52.0200 1089.0000 1.0000
52.0300 1119.0000 1.0000
52.0400 1189.0000 1.0000
52.0500 1174.0000 1.0000
52.0600 1194.0000 1.0000
52.0700 1248.0000 1.0000
52.0800 1368.0000 1.0000
52.0900 1378.0000 1.0000
52.1000 1423.0000 1.0000
52.1100 1486.0000 1.0000
52.1200 1519.0000 1.0000
52.1300 1659.0000 1.0000
52.1400 1679.0000 1.0000
52.1500 1810.0000 1.0000
52.1600 1908.0000 1.0000
52.1700 2123.0000 1.0000
52.1800 2185.0000 1.0000
52.1900 2321.0000 1.0000
52.2000 2603.0000 1.0000
52.2100 2800.0000 1.0000
52.2200 2976.0000 1.0000
52.2300 3306.0000 1.0000
52.2400 3479.0000 1.0000
52.2500 3748.0000 1.0000
52.2600 3987.0000 1.0000
52.2700 4290.0000 1.0000
52.2800 4482.0000 1.0000
52.2900 4821.0000 1.0000
52.3000 5023.0000 1.0000
52.3100 5233.0000 1.0000
52.3200 5272.0000 1.0000
52.3300 5396.0000 1.0000
52.3400 5269.0000 1.0000
52.3500 5228.0000 1.0000
52.3600 5067.0000 1.0000
52.3700 4795.0000 1.0000
52.3800 4600.0000 1.0000
52.3900 4567.0000 1.0000
52.4000 4361.0000 1.0000
52.4100 4281.0000 1.0000
52.4200 4206.0000 1.0000
52.4300 4037.0000 1.0000
52.4400 3984.0000 1.0000
52.4500 3919.0000 1.0000
52.4600 3819.0000 1.0000
52.4700 3629.0000 1.0000
52.4800 3492.0000 1.0000
52.4900 3298.0000 1.0000
52.5000 3099.0000 1.0000
52.5100 2826.0000 1.0000
52.5200 2737.0000 1.0000
52.5300 2568.0000 1.0000
52.5400 2369.0000 1.0000
52.5500 2178.0000 1.0000
52.5600 2056.0000 1.0000
52.5700 1963.0000 1.0000
52.5800 1824.0000 1.0000
52.5900 1666.0000 1.0000
52.6000 1614.0000 1.0000
52.6100 1495.0000 1.0000
52.6200 1427.0000 1.0000
52.6300 1421.0000 1.0000
52.6400 1374.0000 1.0000
52.6500 1348.0000 1.0000
52.6600 1301.0000 1.0000
52.6700 1198.0000 1.0000
52.6800 1222.0000 1.0000
52.6900 1156.0000 1.0000
52.7000 1075.0000 1.0000
52.7100 1108.0000 1.0000
52.7200 1086.0000 1.0000
52.7300 1071.0000 1.0000
52.7400 1067.0000 1.0000
52.7500 997.0000 1.0000
52.7600 1005.0000 1.0000
52.7700 968.0000 1.0000
52.7800 972.0000 1.0000
52.7900 962.0000 1.0000
52.8000 961.0000 1.0000
52.8100 946.0000 1.0000
52.8200 926.0000 1.0000
52.8300 910.0000 1.0000
52.8400 939.0000 1.0000
52.8500 905.0000 1.0000
52.8600 879.0000 1.0000
52.8700 832.0000 1.0000
52.8800 851.0000 1.0000
52.8900 894.0000 1.0000
52.9000 844.0000 1.0000
52.9100 847.0000 1.0000
52.9200 800.0000 1.0000
52.9300 856.0000 1.0000
52.9400 819.0000 1.0000
52.9500 857.0000 1.0000
52.9600 866.0000 1.0000
52.9700 861.0000 1.0000
52.9800 803.0000 1.0000
52.9900 801.0000 1.0000
53.0000 800.0000 1.0000
53.0100 809.0000 1.0000
53.0200 842.0000 1.0000
53.0300 816.0000 1.0000
53.0400 835.0000 1.0000
53.0500 817.0000 1.0000
53.0600 818.0000 1.0000
53.0700 788.0000 1.0000
53.0800 797.0000 1.0000
53.0900 815.0000 1.0000
53.1000 813.0000 1.0000
53.1100 805.0000 1.0000
53.1200 742.0000 1.0000
53.1300 759.0000 1.0000
53.1400 824.0000 1.0000
53.1500 779.0000 1.0000
53.1600 795.0000 1.0000
53.1700 786.0000 1.0000
53.1800 807.0000 1.0000
53.1900 821.0000 1.0000
53.2000 793.0000 1.0000
53.2100 746.0000 1.0000
53.2200 790.0000 1.0000
53.2300 817.0000 1.0000
53.2400 765.0000 1.0000
53.2500 749.0000 1.0000
53.2600 762.0000 1.0000
53.2700 730.0000 1.0000
53.2800 759.0000 1.0000
53.2900 800.0000 1.0000
53.3000 751.0000 1.0000
53.3100 777.0000 1.0000
53.3200 768.0000 1.0000
53.3300 728.0000 1.0000
53.3400 768.0000 1.0000
53.3500 737.0000 1.0000
53.3600 787.0000 1.0000
53.3700 777.0000 1.0000
53.3800 747.0000 1.0000
53.3900 762.0000 1.0000
53.4000 695.0000 1.0000
53.4100 739.0000 1.0000
53.4200 766.0000 1.0000
53.4300 766.0000 1.0000
53.4400 755.0000 1.0000
53.4500 726.0000 1.0000
53.4600 787.0000 1.0000
53.4700 738.0000 1.0000
53.4800 753.0000 1.0000
53.4900 760.0000 1.0000
53.5000 798.0000 1.0000
53.5100 711.0000 1.0000
53.5200 720.0000 1.0000
53.5300 749.0000 1.0000
53.5400 738.0000 1.0000
53.5500 741.0000 1.0000
53.5600 770.0000 1.0000
53.5700 746.0000 1.0000
53.5800 721.0000 1.0000
53.5900 701.0000 1.0000
53.6000 674.0000 1.0000
53.6100 755.0000 1.0000
53.6200 714.0000 1.0000
53.6300 762.0000 1.0000
53.6400 745.0000 1.0000
53.6500 702.0000 1.0000
53.6600 737.0000 1.0000
53.6700 787.0000 1.0000
53.6800 733.0000 1.0000
53.6900 741.0000 1.0000
53.7000 758.0000 1.0000
53.7100 735.0000 1.0000
53.7200 713.0000 1.0000
53.7300 730.0000 1.0000
53.7400 714.0000 1.0000
53.7500 744.0000 1.0000
53.7600 721.0000 1.0000
53.7700 698.0000 1.0000
53.7800 702.0000 1.0000
53.7900 729.0000 1.0000
53.8000 771.0000 1.0000
53.8100 729.0000 1.0000
53.8200 736.0000 1.0000
53.8300 752.0000 1.0000
53.8400 738.0000 1.0000
53.8500 739.0000 1.0000
53.8600 711.0000 1.0000
53.8700 745.0000 1.0000
53.8800 756.0000 1.0000
53.8900 771.0000 1.0000
53.9000 738.0000 1.0000
53.9100 720.0000 1.0000
53.9200 739.0000 1.0000
53.9300 776.0000 1.0000
53.9400 720.0000 1.0000
53.9500 739.0000 1.0000
53.9600 726.0000 1.0000
53.9700 695.0000 1.0000
53.9800 763.0000 1.0000
53.9900 762.0000 1.0000
54.0000 762.0000 1.0000
54.0100 732.0000 1.0000
54.0200 750.0000 1.0000
54.0300 774.0000 1.0000
54.0400 710.0000 1.0000
54.0500 729.0000 1.0000
54.0600 746.0000 1.0000
54.0700 740.0000 1.0000
54.0800 734.0000 1.0000
54.0900 734.0000 1.0000
54.1000 700.0000 1.0000
54.1100 750.0000 1.0000
54.1200 729.0000 1.0000
54.1300 712.0000 1.0000
54.1400 741.0000 1.0000
54.1500 718.0000 1.0000
54.1600 758.0000 1.0000
54.1700 713.0000 1.0000
54.1800 709.0000 1.0000
54.1900 761.0000 1.0000
54.2000 700.0000 1.0000
54.2100 696.0000 1.0000
54.2200 738.0000 1.0000
54.2300 731.0000 1.0000
54.2400 715.0000 1.0000
54.2500 726.0000 1.0000
54.2600 748.0000 1.0000
54.2700 733.0000 1.0000
54.2800 739.0000 1.0000
54.2900 734.0000 1.0000
54.3000 739.0000 1.0000
54.3100 699.0000 1.0000
54.3200 746.0000 1.0000
54.3300 726.0000 1.0000
54.3400 775.0000 1.0000
54.3500 687.0000 1.0000
54.3600 720.0000 1.0000
54.3700 703.0000 1.0000
54.3800 739.0000 1.0000
54.3900 783.0000 1.0000
54.4000 701.0000 1.0000
54.4100 710.0000 1.0000
54.4200 690.0000 1.0000
54.4300 725.0000 1.0000
54.4400 713.0000 1.0000
54.4500 720.0000 1.0000
54.4600 754.0000 1.0000
54.4700 718.0000 1.0000
54.4800 711.0000 1.0000
54.4900 733.0000 1.0000
54.5000 750.0000 1.0000
54.5100 733.0000 1.0000
54.5200 717.0000 1.0000
54.5300 731.0000 1.0000
54.5400 763.0000 1.0000
54.5500 740.0000 1.0000
54.5600 759.0000 1.0000
54.5700 718.0000 1.0000
54.5800 740.0000 1.0000
54.5900 762.0000 1.0000
54.6000 721.0000 1.0000
54.6100 757.0000 1.0000
54.6200 752.0000 1.0000
54.6300 720.0000 1.0000
54.6400 741.0000 1.0000
54.6500 767.0000 1.0000
54.6600 726.0000 1.0000
54.6700 738.0000 1.0000
54.6800 780.0000 1.0000
54.6900 777.0000 1.0000
54.7000 811.0000 1.0000
54.7100 774.0000 1.0000
54.7200 754.0000 1.0000
54.7300 772.0000 1.0000
54.7400 714.0000 1.0000
54.7500 769.0000 1.0000
54.7600 775.0000 1.0000
54.7700 752.0000 1.0000
54.7800 757.0000 1.0000
54.7900 778.0000 1.0000
54.8000 764.0000 1.0000
54.8100 752.0000 1.0000
54.8200 784.0000 1.0000
54.8300 827.0000 1.0000
54.8400 796.0000 1.0000
54.8500 873.0000 1.0000
54.8600 804.0000 1.0000
54.8700 777.0000 1.0000
54.8800 803.0000 1.0000
54.8900 783.0000 1.0000
54.9000 802.0000 1.0000
54.9100 778.0000 1.0000
54.9200 785.0000 1.0000
54.9300 835.0000 1.0000
54.9400 774.0000 1.0000
54.9500 811.0000 1.0000
54.9600 791.0000 1.0000
54.9700 755.0000 1.0000
54.9800 783.0000 1.0000
54.9900 786.0000 1.0000
55.0000 765.0000 1.0000
55.0100 826.0000 1.0000
55.0200 810.0000 1.0000
55.0300 843.0000 1.0000
55.0400 827.0000 1.0000
55.0500 819.0000 1.0000
55.0600 840.0000 1.0000
55.0700 817.0000 1.0000
55.0800 787.0000 1.0000
55.0900 827.0000 1.0000
55.1000 851.0000 1.0000
55.1100 827.0000 1.0000
55.1200 873.0000 1.0000
55.1300 916.0000 1.0000
55.1400 903.0000 1.0000
55.1500 892.0000 1.0000
55.1600 844.0000 1.0000
55.1700 922.0000 1.0000
55.1800 902.0000 1.0000
55.1900 875.0000 1.0000
55.2000 924.0000 1.0000
55.2100 918.0000 1.0000
55.2200 914.0000 1.0000
55.2300 951.0000 1.0000
55.2400 998.0000 1.0000
55.2500 1036.0000 1.0000
55.2600 1000.0000 1.0000
55.2700 1088.0000 1.0000
55.2800 1083.0000 1.0000
55.2900 1152.0000 1.0000
55.3000 1119.0000 1.0000
55.3100 1072.0000 1.0000
55.3200 1099.0000 1.0000
55.3300 1115.0000 1.0000
55.3400 1110.0000 1.0000
55.3500 1105.0000 1.0000
55.3600 1118.0000 1.0000
55.3700 1155.0000 1.0000
55.3800 1134.0000 1.0000
55.3900 1133.0000 1.0000
55.4000 1130.0000 1.0000
55.4100 1103.0000 1.0000
55.4200 1073.0000 1.0000
55.4300 1060.0000 1.0000
55.4400 1040.0000 1.0000
55.4500 1102.0000 1.0000
55.4600 1020.0000 1.0000
55.4700 1034.0000 1.0000
55.4800 1039.0000 1.0000
55.4900 1071.0000 1.0000
55.5000 1005.0000 1.0000
55.5100 981.0000 1.0000
55.5200 911.0000 1.0000
55.5300 1003.0000 1.0000
55.5400 973.0000 1.0000
55.5500 924.0000 1.0000
55.5600 913.0000 1.0000
55.5700 882.0000 1.0000
55.5800 867.0000 1.0000
55.5900 869.0000 1.0000
55.6000 814.0000 1.0000
55.6100 855.0000 1.0000
55.6200 869.0000 1.0000
55.6300 832.0000 1.0000
55.6400 818.0000 1.0000
55.6500 817.0000 1.0000
55.6600 837.0000 1.0000
55.6700 799.0000 1.0000
55.6800 800.0000 1.0000
55.6900 811.0000 1.0000
55.7000 809.0000 1.0000
55.7100 800.0000 1.0000
55.7200 789.0000 1.0000
55.7300 743.0000 1.0000
55.7400 764.0000 1.0000
55.7500 783.0000 1.0000
55.7600 801.0000 1.0000
55.7700 745.0000 1.0000
55.7800 727.0000 1.0000
55.7900 726.0000 1.0000
55.8000 764.0000 1.0000
55.8100 787.0000 1.0000
55.8200 749.0000 1.0000
55.8300 781.0000 1.0000
55.8400 773.0000 1.0000
55.8500 766.0000 1.0000
55.8600 763.0000 1.0000
55.8700 716.0000 1.0000
55.8800 766.0000 1.0000
55.8900 761.0000 1.0000
55.9000 742.0000 1.0000
55.9100 724.0000 1.0000
55.9200 741.0000 1.0000
55.9300 735.0000 1.0000
55.9400 732.0000 1.0000
55.9500 751.0000 1.0000
55.9600 753.0000 1.0000
55.9700 724.0000 1.0000
55.9800 719.0000 1.0000
55.9900 729.0000 1.0000
56.0000 765.0000 1.0000
56.0100 740.0000 1.0000
56.0200 752.0000 1.0000
56.0300 704.0000 1.0000
56.0400 738.0000 1.0000
56.0500 704.0000 1.0000
56.0600 715.0000 1.0000
56.0700 752.0000 1.0000
56.0800 734.0000 1.0000
56.0900 702.0000 1.0000
56.1000 711.0000 1.0000
56.1100 706.0000 1.0000
56.1200 694.0000 1.0000
56.1300 688.0000 1.0000
56.1400 739.0000 1.0000
56.1500 712.0000 1.0000
56.1600 720.0000 1.0000
56.1700 738.0000 1.0000
56.1800 760.0000 1.0000
56.1900 750.0000 1.0000
56.2000 739.0000 1.0000
56.2100 691.0000 1.0000
56.2200 728.0000 1.0000
56.2300 714.0000 1.0000
56.2400 688.0000 1.0000
56.2500 714.0000 1.0000
56.2600 737.0000 1.0000
56.2700 720.0000 1.0000
56.2800 692.0000 1.0000
56.2900 734.0000 1.0000
56.3000 731.0000 1.0000
56.3100 705.0000 1.0000
56.3200 715.0000 1.0000
56.3300 704.0000 1.0000
56.3400 724.0000 1.0000
56.3500 736.0000 1.0000
56.3600 690.0000 1.0000
56.3700 719.0000 1.0000
56.3800 685.0000 1.0000
56.3900 697.0000 1.0000
56.4000 684.0000 1.0000
56.4100 701.0000 1.0000
56.4200 727.0000 1.0000
56.4300 757.0000 1.0000
56.4400 719.0000 1.0000
56.4500 726.0000 1.0000
56.4600 686.0000 1.0000
56.4700 727.0000 1.0000
56.4800 723.0000 1.0000
56.4900 711.0000 1.0000
56.5000 694.0000 1.0000
56.5100 668.0000 1.0000
56.5200 696.0000 1.0000
56.5300 693.0000 1.0000
56.5400 670.0000 1.0000
56.5500 672.0000 1.0000
56.5600 717.0000 1.0000
56.5700 678.0000 1.0000
56.5800 713.0000 1.0000
56.5900 713.0000 1.0000
56.6000 723.0000 1.0000
56.6100 708.0000 1.0000
56.6200 693.0000 1.0000
56.6300 686.0000 1.0000
56.6400 724.0000 1.0000
56.6500 699.0000 1.0000
56.6600 690.0000 1.0000
56.6700 649.0000 1.0000
56.6800 716.0000 1.0000
56.6900 724.0000 1.0000
56.7000 707.0000 1.0000
56.7100 678.0000 1.0000
56.7200 721.0000 1.0000
56.7300 737.0000 1.0000
56.7400 689.0000 1.0000
56.7500 691.0000 1.0000
56.7600 660.0000 1.0000
56.7700 682.0000 1.0000
56.7800 664.0000 1.0000
56.7900 700.0000 1.0000
56.8000 666.0000 1.0000
56.8100 639.0000 1.0000
56.8200 669.0000 1.0000
56.8300 711.0000 1.0000
56.8400 700.0000 1.0000
56.8500 671.0000 1.0000
56.8600 682.0000 1.0000
56.8700 708.0000 1.0000
56.8800 732.0000 1.0000
56.8900 718.0000 1.0000
56.9000 739.0000 1.0000
56.9100 687.0000 1.0000
56.9200 710.0000 1.0000
56.9300 665.0000 1.0000
56.9400 684.0000 1.0000
56.9500 704.0000 1.0000
56.9600 714.0000 1.0000
56.9700 719.0000 1.0000
56.9800 688.0000 1.0000
56.9900 668.0000 1.0000
57.0000 716.0000 1.0000
57.0100 707.0000 1.0000
57.0200 724.0000 1.0000
57.0300 673.0000 1.0000
57.0400 721.0000 1.0000
57.0500 668.0000 1.0000
57.0600 704.0000 1.0000
57.0700 720.0000 1.0000
57.0800 709.0000 1.0000
57.0900 712.0000 1.0000
57.1000 687.0000 1.0000
57.1100 746.0000 1.0000
57.1200 766.0000 1.0000
57.1300 747.0000 1.0000
57.1400 677.0000 1.0000
57.1500 724.0000 1.0000
57.1600 667.0000 1.0000
57.1700 685.0000 1.0000
57.1800 695.0000 1.0000
57.1900 691.0000 1.0000
57.2000 681.0000 1.0000
57.2100 683.0000 1.0000
57.2200 716.0000 1.0000
57.2300 721.0000 1.0000
57.2400 714.0000 1.0000
57.2500 694.0000 1.0000
57.2600 679.0000 1.0000
57.2700 743.0000 1.0000
57.2800 716.0000 1.0000
57.2900 719.0000 1.0000
57.3000 717.0000 1.0000
57.3100 699.0000 1.0000
57.3200 748.0000 1.0000
57.3300 735.0000 1.0000
57.3400 684.0000 1.0000
57.3500 707.0000 1.0000
57.3600 703.0000 1.0000
57.3700 689.0000 1.0000
57.3800 707.0000 1.0000
57.3900 717.0000 1.0000
57.4000 716.0000 1.0000
57.4100 682.0000 1.0000
57.4200 708.0000 1.0000
57.4300 694.0000 1.0000
57.4400 729.0000 1.0000
57.4500 740.0000 1.0000
57.4600 693.0000 1.0000
57.4700 706.0000 1.0000
57.4800 730.0000 1.0000
57.4900 715.0000 1.0000
57.5000 719.0000 1.0000
57.5100 698.0000 1.0000
57.5200 670.0000 1.0000
57.5300 719.0000 1.0000
57.5400 691.0000 1.0000
57.5500 689.0000 1.0000
57.5600 716.0000 1.0000
57.5700 707.0000 1.0000
57.5800 722.0000 1.0000
57.5900 710.0000 1.0000
57.6000 719.0000 1.0000
57.6100 693.0000 1.0000
57.6200 707.0000 1.0000
57.6300 710.0000 1.0000
57.6400 704.0000 1.0000
57.6500 684.0000 1.0000
57.6600 694.0000 1.0000
57.6700 695.0000 1.0000
57.6800 735.0000 1.0000
57.6900 689.0000 1.0000
57.7000 726.0000 1.0000
57.7100 700.0000 1.0000
57.7200 676.0000 1.0000
57.7300 705.0000 1.0000
57.7400 713.0000 1.0000
57.7500 711.0000 1.0000
57.7600 712.0000 1.0000
57.7700 693.0000 1.0000
57.7800 746.0000 1.0000
57.7900 776.0000 1.0000
57.8000 718.0000 1.0000
57.8100 676.0000 1.0000
57.8200 694.0000 1.0000
57.8300 768.0000 1.0000
57.8400 719.0000 1.0000
57.8500 698.0000 1.0000
57.8600 685.0000 1.0000
57.8700 688.0000 1.0000
57.8800 706.0000 1.0000
57.8900 670.0000 1.0000
57.9000 702.0000 1.0000
57.9100 696.0000 1.0000
57.9200 713.0000 1.0000
57.9300 707.0000 1.0000
57.9400 715.0000 1.0000
57.9500 696.0000 1.0000
57.9600 730.0000 1.0000
57.9700 696.0000 1.0000
57.9800 672.0000 1.0000
57.9900 706.0000 1.0000
58.0000 689.0000 1.0000
58.0100 697.0000 1.0000
58.0200 701.0000 1.0000
58.0300 671.0000 1.0000
58.0400 727.0000 1.0000
58.0500 686.0000 1.0000
58.0600 723.0000 1.0000
58.0700 716.0000 1.0000
58.0800 726.0000 1.0000
58.0900 764.0000 1.0000
58.1000 729.0000 1.0000
58.1100 672.0000 1.0000
58.1200 729.0000 1.0000
58.1300 723.0000 1.0000
58.1400 746.0000 1.0000
58.1500 720.0000 1.0000
58.1600 716.0000 1.0000
58.1700 698.0000 1.0000
58.1800 698.0000 1.0000
58.1900 709.0000 1.0000
58.2000 724.0000 1.0000
58.2100 763.0000 1.0000
58.2200 743.0000 1.0000
58.2300 713.0000 1.0000
58.2400 727.0000 1.0000
58.2500 682.0000 1.0000
58.2600 698.0000 1.0000
58.2700 737.0000 1.0000
58.2800 734.0000 1.0000
58.2900 762.0000 1.0000
58.3000 719.0000 1.0000
58.3100 713.0000 1.0000
58.3200 752.0000 1.0000
58.3300 755.0000 1.0000
58.3400 759.0000 1.0000
58.3500 712.0000 1.0000
58.3600 714.0000 1.0000
58.3700 746.0000 1.0000
58.3800 685.0000 1.0000
58.3900 735.0000 1.0000
58.4000 704.0000 1.0000
58.4100 730.0000 1.0000
58.4200 753.0000 1.0000
58.4300 707.0000 1.0000
58.4400 697.0000 1.0000
58.4500 717.0000 1.0000
58.4600 685.0000 1.0000
58.4700 674.0000 1.0000
58.4800 704.0000 1.0000
58.4900 702.0000 1.0000
58.5000 717.0000 1.0000
58.5100 683.0000 1.0000
58.5200 746.0000 1.0000
58.5300 740.0000 1.0000
58.5400 683.0000 1.0000
58.5500 758.0000 1.0000
58.5600 709.0000 1.0000
58.5700 726.0000 1.0000
58.5800 686.0000 1.0000
58.5900 726.0000 1.0000
58.6000 685.0000 1.0000
58.6100 712.0000 1.0000
58.6200 670.0000 1.0000
58.6300 696.0000 1.0000
58.6400 718.0000 1.0000
58.6500 750.0000 1.0000
58.6600 723.0000 1.0000
58.6700 700.0000 1.0000
58.6800 683.0000 1.0000
58.6900 700.0000 1.0000
58.7000 718.0000 1.0000
58.7100 679.0000 1.0000
58.7200 703.0000 1.0000
58.7300 695.0000 1.0000
58.7400 717.0000 1.0000
58.7500 695.0000 1.0000
58.7600 742.0000 1.0000
58.7700 735.0000 1.0000
58.7800 688.0000 1.0000
58.7900 660.0000 1.0000
58.8000 665.0000 1.0000
58.8100 723.0000 1.0000
58.8200 721.0000 1.0000
58.8300 664.0000 1.0000
58.8400 667.0000 1.0000
58.8500 690.0000 1.0000
58.8600 706.0000 1.0000
58.8700 666.0000 1.0000
58.8800 704.0000 1.0000
58.8900 674.0000 1.0000
58.9000 677.0000 1.0000
58.9100 666.0000 1.0000
58.9200 645.0000 1.0000
58.9300 671.0000 1.0000
58.9400 685.0000 1.0000
58.9500 724.0000 1.0000
58.9600 728.0000 1.0000
58.9700 689.0000 1.0000
58.9800 721.0000 1.0000
58.9900 719.0000 1.0000
59.0000 742.0000 1.0000
59.0100 673.0000 1.0000
59.0200 669.0000 1.0000
59.0300 734.0000 1.0000
59.0400 754.0000 1.0000
59.0500 699.0000 1.0000
59.0600 707.0000 1.0000
59.0700 666.0000 1.0000
59.0800 698.0000 1.0000
59.0900 709.0000 1.0000
59.1000 692.0000 1.0000
59.1100 708.0000 1.0000
59.1200 674.0000 1.0000
59.1300 713.0000 1.0000
59.1400 701.0000 1.0000
59.1500 693.0000 1.0000
59.1600 715.0000 1.0000
59.1700 667.0000 1.0000
59.1800 671.0000 1.0000
59.1900 686.0000 1.0000
59.2000 730.0000 1.0000
59.2100 744.0000 1.0000
59.2200 692.0000 1.0000
59.2300 703.0000 1.0000
59.2400 690.0000 1.0000
59.2500 730.0000 1.0000
59.2600 712.0000 1.0000
59.2700 738.0000 1.0000
59.2800 703.0000 1.0000
59.2900 711.0000 1.0000
59.3000 698.0000 1.0000
59.3100 761.0000 1.0000
59.3200 736.0000 1.0000
59.3300 692.0000 1.0000
59.3400 739.0000 1.0000
59.3500 697.0000 1.0000
59.3600 762.0000 1.0000
59.3700 713.0000 1.0000
59.3800 691.0000 1.0000
59.3900 689.0000 1.0000
59.4000 692.0000 1.0000
59.4100 754.0000 1.0000
59.4200 705.0000 1.0000
59.4300 688.0000 1.0000
59.4400 719.0000 1.0000
59.4500 718.0000 1.0000
59.4600 757.0000 1.0000
59.4700 714.0000 1.0000
59.4800 707.0000 1.0000
59.4900 667.0000 1.0000
59.5000 695.0000 1.0000
59.5100 710.0000 1.0000
59.5200 734.0000 1.0000
59.5300 721.0000 1.0000
59.5400 706.0000 1.0000
59.5500 678.0000 1.0000
59.5600 697.0000 1.0000
59.5700 719.0000 1.0000
59.5800 720.0000 1.0000
59.5900 730.0000 1.0000
59.6000 702.0000 1.0000
59.6100 673.0000 1.0000
59.6200 696.0000 1.0000
59.6300 680.0000 1.0000
59.6400 676.0000 1.0000
59.6500 737.0000 1.0000
59.6600 694.0000 1.0000
59.6700 668.0000 1.0000
59.6800 704.0000 1.0000
59.6900 713.0000 1.0000
59.7000 700.0000 1.0000
59.7100 660.0000 1.0000
59.7200 684.0000 1.0000
59.7300 687.0000 1.0000
59.7400 703.0000 1.0000
59.7500 719.0000 1.0000
59.7600 661.0000 1.0000
59.7700 692.0000 1.0000
59.7800 631.0000 1.0000
59.7900 676.0000 1.0000
59.8000 642.0000 1.0000
59.8100 685.0000 1.0000
59.8200 732.0000 1.0000
59.8300 715.0000 1.0000
59.8400 663.0000 1.0000
59.8500 687.0000 1.0000
59.8600 680.0000 1.0000
59.8700 685.0000 1.0000
59.8800 653.0000 1.0000
59.8900 695.0000 1.0000
59.9000 678.0000 1.0000
59.9100 711.0000 1.0000
59.9200 716.0000 1.0000
59.9300 723.0000 1.0000
59.9400 675.0000 1.0000
59.9500 689.0000 1.0000
59.9600 666.0000 1.0000
59.9700 687.0000 1.0000
59.9800 697.0000 1.0000
59.9900 658.0000 1.0000
60.0000 743.0000 1.0000
60.0100 687.0000 1.0000
60.0200 682.0000 1.0000
60.0300 689.0000 1.0000
60.0400 657.0000 1.0000
60.0500 670.0000 1.0000
60.0600 712.0000 1.0000
60.0700 687.0000 1.0000
60.0800 702.0000 1.0000
60.0900 666.0000 1.0000
60.1000 707.0000 1.0000
60.1100 725.0000 1.0000
60.1200 696.0000 1.0000
60.1300 712.0000 1.0000
60.1400 664.0000 1.0000
60.1500 686.0000 1.0000
60.1600 687.0000 1.0000
60.1700 726.0000 1.0000
60.1800 703.0000 1.0000
60.1900 726.0000 1.0000
60.2000 694.0000 1.0000
60.2100 715.0000 1.0000
60.2200 691.0000 1.0000
60.2300 685.0000 1.0000
60.2400 655.0000 1.0000
60.2500 641.0000 1.0000
60.2600 690.0000 1.0000
60.2700 664.0000 1.0000
60.2800 667.0000 1.0000
60.2900 656.0000 1.0000
60.3000 682.0000 1.0000
60.3100 712.0000 1.0000
60.3200 734.0000 1.0000
60.3300 723.0000 1.0000
60.3400 701.0000 1.0000
60.3500 665.0000 1.0000
60.3600 717.0000 1.0000
60.3700 665.0000 1.0000
60.3800 701.0000 1.0000
60.3900 701.0000 1.0000
60.4000 691.0000 1.0000
60.4100 700.0000 1.0000
60.4200 707.0000 1.0000
60.4300 704.0000 1.0000
60.4400 705.0000 1.0000
60.4500 709.0000 1.0000
60.4600 716.0000 1.0000
60.4700 702.0000 1.0000
60.4800 719.0000 1.0000
60.4900 721.0000 1.0000
60.5000 697.0000 1.0000
60.5100 743.0000 1.0000
60.5200 705.0000 1.0000
60.5300 706.0000 1.0000
60.5400 709.0000 1.0000
60.5500 727.0000 1.0000
60.5600 729.0000 1.0000
60.5700 655.0000 1.0000
60.5800 657.0000 1.0000
60.5900 669.0000 1.0000
60.6000 706.0000 1.0000
60.6100 688.0000 1.0000
60.6200 680.0000 1.0000
60.6300 693.0000 1.0000
60.6400 734.0000 1.0000
60.6500 681.0000 1.0000
60.6600 717.0000 1.0000
60.6700 699.0000 1.0000
60.6800 744.0000 1.0000
60.6900 673.0000 1.0000
60.7000 682.0000 1.0000
60.7100 696.0000 1.0000
60.7200 681.0000 1.0000
60.7300 686.0000 1.0000
60.7400 701.0000 1.0000
60.7500 714.0000 1.0000
60.7600 692.0000 1.0000
60.7700 684.0000 1.0000
60.7800 719.0000 1.0000
60.7900 728.0000 1.0000
60.8000 704.0000 1.0000
60.8100 664.0000 1.0000
60.8200 719.0000 1.0000
60.8300 662.0000 1.0000
60.8400 668.0000 1.0000
60.8500 726.0000 1.0000
60.8600 680.0000 1.0000
60.8700 691.0000 1.0000
60.8800 702.0000 1.0000
60.8900 695.0000 1.0000
60.9000 695.0000 1.0000
60.9100 694.0000 1.0000
60.9200 724.0000 1.0000
60.9300 734.0000 1.0000
60.9400 678.0000 1.0000
60.9500 705.0000 1.0000
60.9600 725.0000 1.0000
60.9700 690.0000 1.0000
60.9800 680.0000 1.0000
60.9900 698.0000 1.0000
61.0000 707.0000 1.0000
61.0100 712.0000 1.0000
61.0200 718.0000 1.0000
61.0300 691.0000 1.0000
61.0400 695.0000 1.0000
61.0500 735.0000 1.0000
61.0600 700.0000 1.0000
61.0700 691.0000 1.0000
61.0800 693.0000 1.0000
61.0900 726.0000 1.0000
61.1000 673.0000 1.0000
61.1100 685.0000 1.0000
61.1200 708.0000 1.0000
61.1300 740.0000 1.0000
61.1400 707.0000 1.0000
61.1500 709.0000 1.0000
61.1600 688.0000 1.0000
61.1700 722.0000 1.0000
61.1800 706.0000 1.0000
61.1900 686.0000 1.0000
61.2000 687.0000 1.0000
61.2100 749.0000 1.0000
61.2200 664.0000 1.0000
61.2300 666.0000 1.0000
61.2400 723.0000 1.0000
61.2500 725.0000 1.0000
61.2600 718.0000 1.0000
61.2700 675.0000 1.0000
61.2800 689.0000 1.0000
61.2900 692.0000 1.0000
61.3000 663.0000 1.0000
61.3100 679.0000 1.0000
61.3200 697.0000 1.0000
61.3300 720.0000 1.0000
61.3400 751.0000 1.0000
61.3500 745.0000 1.0000
61.3600 685.0000 1.0000
61.3700 701.0000 1.0000
61.3800 696.0000 1.0000
61.3900 681.0000 1.0000
61.4000 722.0000 1.0000
61.4100 685.0000 1.0000
61.4200 727.0000 1.0000
61.4300 686.0000 1.0000
61.4400 689.0000 1.0000
61.4500 689.0000 1.0000
61.4600 693.0000 1.0000
61.4700 679.0000 1.0000
61.4800 734.0000 1.0000
61.4900 744.0000 1.0000
61.5000 721.0000 1.0000
61.5100 705.0000 1.0000
61.5200 720.0000 1.0000
61.5300 692.0000 1.0000
61.5400 737.0000 1.0000
61.5500 723.0000 1.0000
61.5600 719.0000 1.0000
61.5700 742.0000 1.0000
61.5800 754.0000 1.0000
61.5900 758.0000 1.0000
61.6000 724.0000 1.0000
61.6100 745.0000 1.0000
61.6200 761.0000 1.0000
61.6300 733.0000 1.0000
61.6400 733.0000 1.0000
61.6500 746.0000 1.0000
61.6600 719.0000 1.0000
61.6700 724.0000 1.0000
61.6800 743.0000 1.0000
61.6900 707.0000 1.0000
61.7000 750.0000 1.0000
61.7100 720.0000 1.0000
61.7200 698.0000 1.0000
61.7300 723.0000 1.0000
61.7400 673.0000 1.0000
61.7500 770.0000 1.0000
61.7600 764.0000 1.0000
61.7700 733.0000 1.0000
61.7800 776.0000 1.0000
61.7900 735.0000 1.0000
61.8000 732.0000 1.0000
61.8100 723.0000 1.0000
61.8200 772.0000 1.0000
61.8300 792.0000 1.0000
61.8400 752.0000 1.0000
61.8500 714.0000 1.0000
61.8600 744.0000 1.0000
61.8700 779.0000 1.0000
61.8800 749.0000 1.0000
61.8900 809.0000 1.0000
61.9000 749.0000 1.0000
61.9100 820.0000 1.0000
61.9200 806.0000 1.0000
61.9300 791.0000 1.0000
61.9400 801.0000 1.0000
61.9500 804.0000 1.0000
61.9600 820.0000 1.0000
61.9700 847.0000 1.0000
61.9800 859.0000 1.0000
61.9900 863.0000 1.0000
62.0000 842.0000 1.0000
62.0100 830.0000 1.0000
62.0200 839.0000 1.0000
62.0300 887.0000 1.0000
62.0400 873.0000 1.0000
62.0500 899.0000 1.0000
62.0600 954.0000 1.0000
62.0700 961.0000 1.0000
62.0800 950.0000 1.0000
62.0900 964.0000 1.0000
62.1000 1024.0000 1.0000
62.1100 1020.0000 1.0000
62.1200 1093.0000 1.0000
62.1300 1040.0000 1.0000
62.1400 1049.0000 1.0000
62.1500 1087.0000 1.0000
62.1600 1126.0000 1.0000
62.1700 1166.0000 1.0000
62.1800 1201.0000 1.0000
62.1900 1265.0000 1.0000
62.2000 1288.0000 1.0000
62.2100 1362.0000 1.0000
62.2200 1349.0000 1.0000
62.2300 1336.0000 1.0000
62.2400 1430.0000 1.0000
62.2500 1423.0000 1.0000
62.2600 1481.0000 1.0000
62.2700 1490.0000 1.0000
62.2800 1561.0000 1.0000
62.2900 1548.0000 1.0000
62.3000 1596.0000 1.0000
62.3100 1598.0000 1.0000
62.3200 1616.0000 1.0000
62.3300 1629.0000 1.0000
62.3400 1664.0000 1.0000
62.3500 1632.0000 1.0000
62.3600 1625.0000 1.0000
62.3700 1621.0000 1.0000
62.3800 1614.0000 1.0000
62.3900 1615.0000 1.0000
62.4000 1635.0000 1.0000
62.4100 1615.0000 1.0000
62.4200 1555.0000 1.0000
62.4300 1674.0000 1.0000
62.4400 1604.0000 1.0000
62.4500 1587.0000 1.0000
62.4600 1539.0000 1.0000
62.4700 1555.0000 1.0000
62.4800 1539.0000 1.0000
62.4900 1448.0000 1.0000
62.5000 1437.0000 1.0000
62.5100 1436.0000 1.0000
62.5200 1414.0000 1.0000
62.5300 1388.0000 1.0000
62.5400 1371.0000 1.0000
62.5500 1367.0000 1.0000
62.5600 1333.0000 1.0000
62.5700 1333.0000 1.0000
62.5800 1290.0000 1.0000
62.5900 1238.0000 1.0000
62.6000 1171.0000 1.0000
62.6100 1186.0000 1.0000
62.6200 1192.0000 1.0000
62.6300 1168.0000 1.0000
62.6400 1099.0000 1.0000
62.6500 1132.0000 1.0000
62.6600 1042.0000 1.0000
62.6700 1054.0000 1.0000
62.6800 1029.0000 1.0000
62.6900 997.0000 1.0000
62.7000 1024.0000 1.0000
62.7100 976.0000 1.0000
62.7200 948.0000 1.0000
62.7300 919.0000 1.0000
62.7400 927.0000 1.0000
62.7500 925.0000 1.0000
62.7600 900.0000 1.0000
62.7700 881.0000 1.0000
62.7800 908.0000 1.0000
62.7900 890.0000 1.0000
62.8000 885.0000 1.0000
62.8100 917.0000 1.0000
62.8200 877.0000 1.0000
62.8300 858.0000 1.0000
62.8400 878.0000 1.0000
62.8500 835.0000 1.0000
62.8600 870.0000 1.0000
62.8700 853.0000 1.0000
62.8800 825.0000 1.0000
62.8900 799.0000 1.0000
62.9000 797.0000 1.0000
62.9100 808.0000 1.0000
62.9200 801.0000 1.0000
62.9300 804.0000 1.0000
62.9400 836.0000 1.0000
62.9500 795.0000 1.0000
62.9600 808.0000 1.0000
62.9700 766.0000 1.0000
62.9800 735.0000 1.0000
62.9900 759.0000 1.0000
63.0000 737.0000 1.0000
63.0100 779.0000 1.0000
63.0200 792.0000 1.0000
63.0300 739.0000 1.0000
63.0400 777.0000 1.0000
63.0500 740.0000 1.0000
63.0600 796.0000 1.0000
63.0700 771.0000 1.0000
63.0800 725.0000 1.0000
63.0900 762.0000 1.0000
63.1000 741.0000 1.0000
63.1100 770.0000 1.0000
63.1200 744.0000 1.0000
63.1300 768.0000 1.0000
63.1400 798.0000 1.0000
63.1500 752.0000 1.0000
63.1600 770.0000 1.0000
63.1700 797.0000 1.0000
63.1800 787.0000 1.0000
63.1900 788.0000 1.0000
63.2000 737.0000 1.0000
63.2100 801.0000 1.0000
63.2200 785.0000 1.0000
63.2300 797.0000 1.0000
63.2400 790.0000 1.0000
63.2500 736.0000 1.0000
63.2600 748.0000 1.0000
63.2700 724.0000 1.0000
63.2800 749.0000 1.0000
63.2900 722.0000 1.0000
63.3000 727.0000 1.0000
63.3100 720.0000 1.0000
63.3200 735.0000 1.0000
63.3300 757.0000 1.0000
63.3400 755.0000 1.0000
63.3500 678.0000 1.0000
63.3600 702.0000 1.0000
63.3700 745.0000 1.0000
63.3800 748.0000 1.0000
63.3900 737.0000 1.0000
63.4000 721.0000 1.0000
63.4100 721.0000 1.0000
63.4200 731.0000 1.0000
63.4300 722.0000 1.0000
63.4400 728.0000 1.0000
63.4500 740.0000 1.0000
63.4600 726.0000 1.0000
63.4700 717.0000 1.0000
63.4800 729.0000 1.0000
63.4900 722.0000 1.0000
63.5000 711.0000 1.0000
63.5100 698.0000 1.0000
63.5200 669.0000 1.0000
63.5300 663.0000 1.0000
63.5400 672.0000 1.0000
63.5500 728.0000 1.0000
63.5600 710.0000 1.0000
63.5700 716.0000 1.0000
63.5800 743.0000 1.0000
63.5900 695.0000 1.0000
63.6000 716.0000 1.0000
63.6100 707.0000 1.0000
63.6200 713.0000 1.0000
63.6300 690.0000 1.0000
63.6400 699.0000 1.0000
63.6500 684.0000 1.0000
63.6600 688.0000 1.0000
63.6700 700.0000 1.0000
63.6800 702.0000 1.0000
63.6900 698.0000 1.0000
63.7000 701.0000 1.0000
63.7100 681.0000 1.0000
63.7200 722.0000 1.0000
63.7300 722.0000 1.0000
63.7400 712.0000 1.0000
63.7500 704.0000 1.0000
63.7600 692.0000 1.0000
63.7700 714.0000 1.0000
63.7800 712.0000 1.0000
63.7900 699.0000 1.0000
63.8000 681.0000 1.0000
63.8100 694.0000 1.0000
63.8200 741.0000 1.0000
63.8300 704.0000 1.0000
63.8400 704.0000 1.0000
63.8500 688.0000 1.0000
63.8600 706.0000 1.0000
63.8700 720.0000 1.0000
63.8800 750.0000 1.0000
63.8900 699.0000 1.0000
63.9000 719.0000 1.0000
63.9100 731.0000 1.0000
63.9200 730.0000 1.0000
63.9300 728.0000 1.0000
63.9400 670.0000 1.0000
63.9500 757.0000 1.0000
63.9600 725.0000 1.0000
63.9700 733.0000 1.0000
63.9800 718.0000 1.0000
63.9900 667.0000 1.0000
64.0000 674.0000 1.0000
64.0100 699.0000 1.0000
64.0200 721.0000 1.0000
64.0300 709.0000 1.0000
64.0400 664.0000 1.0000
64.0500 718.0000 1.0000
64.0600 700.0000 1.0000
64.0700 680.0000 1.0000
64.0800 700.0000 1.0000
64.0900 694.0000 1.0000
64.1000 697.0000 1.0000
64.1100 730.0000 1.0000
64.1200 699.0000 1.0000
64.1300 711.0000 1.0000
64.1400 693.0000 1.0000
64.1500 678.0000 1.0000
64.1600 732.0000 1.0000
64.1700 677.0000 1.0000
64.1800 705.0000 1.0000
64.1900 702.0000 1.0000
64.2000 712.0000 1.0000
64.2100 687.0000 1.0000
64.2200 733.0000 1.0000
64.2300 681.0000 1.0000
64.2400 683.0000 1.0000
64.2500 672.0000 1.0000
64.2600 711.0000 1.0000
64.2700 725.0000 1.0000
64.2800 690.0000 1.0000
64.2900 667.0000 1.0000
64.3000 723.0000 1.0000
64.3100 687.0000 1.0000
64.3200 694.0000 1.0000
64.3300 670.0000 1.0000
64.3400 738.0000 1.0000
64.3500 743.0000 1.0000
64.3600 725.0000 1.0000
64.3700 754.0000 1.0000
64.3800 710.0000 1.0000
64.3900 694.0000 1.0000
64.4000 683.0000 1.0000
64.4100 713.0000 1.0000
64.4200 720.0000 1.0000
64.4300 646.0000 1.0000
64.4400 741.0000 1.0000
64.4500 710.0000 1.0000
64.4600 765.0000 1.0000
64.4700 756.0000 1.0000
64.4800 746.0000 1.0000
64.4900 758.0000 1.0000
64.5000 727.0000 1.0000
64.5100 722.0000 1.0000
64.5200 732.0000 1.0000
64.5300 754.0000 1.0000
64.5400 748.0000 1.0000
64.5500 754.0000 1.0000
64.5600 792.0000 1.0000
64.5700 799.0000 1.0000
64.5800 785.0000 1.0000
64.5900 737.0000 1.0000
64.6000 763.0000 1.0000
64.6100 766.0000 1.0000
64.6200 778.0000 1.0000
64.6300 826.0000 1.0000
64.6400 843.0000 1.0000
64.6500 849.0000 1.0000
64.6600 833.0000 1.0000
64.6700 874.0000 1.0000
64.6800 831.0000 1.0000
64.6900 830.0000 1.0000
64.7000 857.0000 1.0000
64.7100 893.0000 1.0000
64.7200 853.0000 1.0000
64.7300 906.0000 1.0000
64.7400 884.0000 1.0000
64.7500 907.0000 1.0000
64.7600 911.0000 1.0000
64.7700 895.0000 1.0000
64.7800 882.0000 1.0000
64.7900 858.0000 1.0000
64.8000 891.0000 1.0000
64.8100 899.0000 1.0000
64.8200 879.0000 1.0000
64.8300 860.0000 1.0000
64.8400 844.0000 1.0000
64.8500 858.0000 1.0000
64.8600 898.0000 1.0000
64.8700 876.0000 1.0000
64.8800 860.0000 1.0000
64.8900 835.0000 1.0000
64.9000 827.0000 1.0000
64.9100 896.0000 1.0000
64.9200 847.0000 1.0000
64.9300 866.0000 1.0000
64.9400 790.0000 1.0000
64.9500 800.0000 1.0000
64.9600 817.0000 1.0000
64.9700 811.0000 1.0000
64.9800 791.0000 1.0000
64.9900 746.0000 1.0000
65.0000 798.0000 1.0000
65.0100 750.0000 1.0000
65.0200 733.0000 1.0000
65.0300 749.0000 1.0000
65.0400 711.0000 1.0000
65.0500 773.0000 1.0000
65.0600 736.0000 1.0000
65.0700 739.0000 1.0000
65.0800 760.0000 1.0000
65.0900 725.0000 1.0000
65.1000 788.0000 1.0000
65.1100 769.0000 1.0000
65.1200 780.0000 1.0000
65.1300 803.0000 1.0000
65.1400 742.0000 1.0000
65.1500 716.0000 1.0000
65.1600 785.0000 1.0000
65.1700 732.0000 1.0000
65.1800 779.0000 1.0000
65.1900 795.0000 1.0000
65.2000 740.0000 1.0000
65.2100 707.0000 1.0000
65.2200 704.0000 1.0000
65.2300 716.0000 1.0000
65.2400 740.0000 1.0000
65.2500 734.0000 1.0000
65.2600 729.0000 1.0000
65.2700 747.0000 1.0000
65.2800 751.0000 1.0000
65.2900 701.0000 1.0000
65.3000 766.0000 1.0000
65.3100 708.0000 1.0000
65.3200 716.0000 1.0000
65.3300 727.0000 1.0000
65.3400 739.0000 1.0000
65.3500 762.0000 1.0000
65.3600 735.0000 1.0000
65.3700 729.0000 1.0000
65.3800 691.0000 1.0000
65.3900 707.0000 1.0000
65.4000 764.0000 1.0000
65.4100 718.0000 1.0000
65.4200 690.0000 1.0000
65.4300 709.0000 1.0000
65.4400 714.0000 1.0000
65.4500 726.0000 1.0000
65.4600 728.0000 1.0000
65.4700 713.0000 1.0000
65.4800 744.0000 1.0000
65.4900 714.0000 1.0000
65.5000 678.0000 1.0000
65.5100 681.0000 1.0000
65.5200 728.0000 1.0000
65.5300 703.0000 1.0000
65.5400 747.0000 1.0000
65.5500 715.0000 1.0000
65.5600 721.0000 1.0000
65.5700 725.0000 1.0000
65.5800 759.0000 1.0000
65.5900 741.0000 1.0000
65.6000 752.0000 1.0000
65.6100 740.0000 1.0000
65.6200 763.0000 1.0000
65.6300 751.0000 1.0000
65.6400 758.0000 1.0000
65.6500 738.0000 1.0000
65.6600 768.0000 1.0000
65.6700 732.0000 1.0000
65.6800 763.0000 1.0000
65.6900 731.0000 1.0000
65.7000 735.0000 1.0000
65.7100 744.0000 1.0000
65.7200 774.0000 1.0000
65.7300 728.0000 1.0000
65.7400 742.0000 1.0000
65.7500 799.0000 1.0000
65.7600 758.0000 1.0000
65.7700 755.0000 1.0000
65.7800 729.0000 1.0000
65.7900 816.0000 1.0000
65.8000 810.0000 1.0000
65.8100 809.0000 1.0000
65.8200 776.0000 1.0000
65.8300 804.0000 1.0000
65.8400 793.0000 1.0000
65.8500 809.0000 1.0000
65.8600 770.0000 1.0000
65.8700 825.0000 1.0000
65.8800 785.0000 1.0000
65.8900 847.0000 1.0000
65.9000 832.0000 1.0000
65.9100 854.0000 1.0000
65.9200 876.0000 1.0000
65.9300 870.0000 1.0000
65.9400 884.0000 1.0000
65.9500 862.0000 1.0000
65.9600 882.0000 1.0000
65.9700 938.0000 1.0000
65.9800 955.0000 1.0000
65.9900 921.0000 1.0000
66.0000 930.0000 1.0000
66.0100 1006.0000 1.0000
66.0200 1031.0000 1.0000
66.0300 1029.0000 1.0000
66.0400 1023.0000 1.0000
66.0500 1073.0000 1.0000
66.0600 1109.0000 1.0000
66.0700 1142.0000 1.0000
66.0800 1194.0000 1.0000
66.0900 1201.0000 1.0000
66.1000 1231.0000 1.0000
66.1100 1279.0000 1.0000
66.1200 1331.0000 1.0000
66.1300 1434.0000 1.0000
66.1400 1432.0000 1.0000
66.1500 1466.0000 1.0000
66.1600 1587.0000 1.0000
66.1700 1711.0000 1.0000
66.1800 1733.0000 1.0000
66.1900 1787.0000 1.0000
66.2000 1860.0000 1.0000
66.2100 1968.0000 1.0000
66.2200 2058.0000 1.0000
66.2300 2244.0000 1.0000
66.2400 2329.0000 1.0000
66.2500 2394.0000 1.0000
66.2600 2516.0000 1.0000
66.2700 2658.0000 1.0000
66.2800 2784.0000 1.0000
66.2900 2795.0000 1.0000
66.3000 2703.0000 1.0000
66.3100 2881.0000 1.0000
66.3200 2806.0000 1.0000
66.3300 2758.0000 1.0000
66.3400 2823.0000 1.0000
66.3500 2768.0000 1.0000
66.3600 2660.0000 1.0000
66.3700 2657.0000 1.0000
66.3800 2598.0000 1.0000
66.3900 2592.0000 1.0000
66.4000 2577.0000 1.0000
66.4100 2533.0000 1.0000
66.4200 2434.0000 1.0000
66.4300 2358.0000 1.0000
66.4400 2354.0000 1.0000
66.4500 2260.0000 1.0000
66.4600 2436.0000 1.0000
66.4700 2313.0000 1.0000
66.4800 2261.0000 1.0000
66.4900 2201.0000 1.0000
66.5000 2194.0000 1.0000
66.5100 2138.0000 1.0000
66.5200 2113.0000 1.0000
66.5300 2026.0000 1.0000
66.5400 1933.0000 1.0000
66.5500 1823.0000 1.0000
66.5600 1756.0000 1.0000
66.5700 1721.0000 1.0000
66.5800 1625.0000 1.0000
66.5900 1564.0000 1.0000
66.6000 1491.0000 1.0000
66.6100 1479.0000 1.0000
66.6200 1400.0000 1.0000
66.6300 1343.0000 1.0000
66.6400 1291.0000 1.0000
66.6500 1241.0000 1.0000
66.6600 1219.0000 1.0000
66.6700 1153.0000 1.0000
66.6800 1194.0000 1.0000
66.6900 1010.0000 1.0000
66.7000 1086.0000 1.0000
66.7100 1077.0000 1.0000
66.7200 1041.0000 1.0000
66.7300 1019.0000 1.0000
66.7400 1013.0000 1.0000
66.7500 938.0000 1.0000
66.7600 960.0000 1.0000
66.7700 929.0000 1.0000
66.7800 936.0000 1.0000
66.7900 915.0000 1.0000
66.8000 894.0000 1.0000
66.8100 933.0000 1.0000
66.8200 879.0000 1.0000
66.8300 860.0000 1.0000
66.8400 874.0000 1.0000
66.8500 823.0000 1.0000
66.8600 793.0000 1.0000
66.8700 800.0000 1.0000
66.8800 832.0000 1.0000
66.8900 812.0000 1.0000
66.9000 797.0000 1.0000
66.9100 778.0000 1.0000
66.9200 751.0000 1.0000
66.9300 759.0000 1.0000
66.9400 786.0000 1.0000
66.9500 793.0000 1.0000
66.9600 761.0000 1.0000
66.9700 747.0000 1.0000
66.9800 762.0000 1.0000
66.9900 743.0000 1.0000
67.0000 744.0000 1.0000
67.0100 749.0000 1.0000
67.0200 744.0000 1.0000
67.0300 742.0000 1.0000
67.0400 735.0000 1.0000
67.0500 692.0000 1.0000
67.0600 724.0000 1.0000
67.0700 718.0000 1.0000
67.0800 690.0000 1.0000
67.0900 715.0000 1.0000
67.1000 669.0000 1.0000
67.1100 715.0000 1.0000
67.1200 679.0000 1.0000
67.1300 695.0000 1.0000
67.1400 700.0000 1.0000
67.1500 711.0000 1.0000
67.1600 696.0000 1.0000
67.1700 717.0000 1.0000
67.1800 726.0000 1.0000
67.1900 698.0000 1.0000
67.2000 695.0000 1.0000
67.2100 688.0000 1.0000
67.2200 655.0000 1.0000
67.2300 637.0000 1.0000
67.2400 731.0000 1.0000
67.2500 734.0000 1.0000
67.2600 709.0000 1.0000
67.2700 699.0000 1.0000
67.2800 680.0000 1.0000
67.2900 702.0000 1.0000
67.3000 702.0000 1.0000
67.3100 658.0000 1.0000
67.3200 679.0000 1.0000
67.3300 672.0000 1.0000
67.3400 666.0000 1.0000
67.3500 706.0000 1.0000
67.3600 708.0000 1.0000
67.3700 678.0000 1.0000
67.3800 642.0000 1.0000
67.3900 692.0000 1.0000
67.4000 720.0000 1.0000
67.4100 677.0000 1.0000
67.4200 643.0000 1.0000
67.4300 643.0000 1.0000
67.4400 682.0000 1.0000
67.4500 640.0000 1.0000
67.4600 666.0000 1.0000
67.4700 689.0000 1.0000
67.4800 630.0000 1.0000
67.4900 646.0000 1.0000
67.5000 658.0000 1.0000
67.5100 678.0000 1.0000
67.5200 681.0000 1.0000
67.5300 675.0000 1.0000
67.5400 691.0000 1.0000
67.5500 677.0000 1.0000
67.5600 671.0000 1.0000
67.5700 659.0000 1.0000
67.5800 687.0000 1.0000
67.5900 683.0000 1.0000
67.6000 644.0000 1.0000
67.6100 674.0000 1.0000
67.6200 695.0000 1.0000
67.6300 694.0000 1.0000
67.6400 661.0000 1.0000
67.6500 662.0000 1.0000
67.6600 658.0000 1.0000
67.6700 664.0000 1.0000
67.6800 673.0000 1.0000
67.6900 630.0000 1.0000
67.7000 657.0000 1.0000
67.7100 635.0000 1.0000
67.7200 666.0000 1.0000
67.7300 648.0000 1.0000
67.7400 663.0000 1.0000
67.7500 663.0000 1.0000
67.7600 601.0000 1.0000
67.7700 640.0000 1.0000
67.7800 657.0000 1.0000
67.7900 645.0000 1.0000
67.8000 619.0000 1.0000
67.8100 655.0000 1.0000
67.8200 629.0000 1.0000
67.8300 632.0000 1.0000
67.8400 671.0000 1.0000
67.8500 687.0000 1.0000
67.8600 650.0000 1.0000
67.8700 625.0000 1.0000
67.8800 623.0000 1.0000
67.8900 627.0000 1.0000
67.9000 639.0000 1.0000
67.9100 616.0000 1.0000
67.9200 657.0000 1.0000
67.9300 647.0000 1.0000
67.9400 663.0000 1.0000
67.9500 667.0000 1.0000
67.9600 651.0000 1.0000
67.9700 657.0000 1.0000
67.9800 634.0000 1.0000
67.9900 688.0000 1.0000
68.0000 636.0000 1.0000
68.0100 659.0000 1.0000
68.0200 655.0000 1.0000
68.0300 692.0000 1.0000
68.0400 639.0000 1.0000
68.0500 665.0000 1.0000
68.0600 667.0000 1.0000
68.0700 690.0000 1.0000
68.0800 653.0000 1.0000
68.0900 646.0000 1.0000
68.1000 646.0000 1.0000
68.1100 624.0000 1.0000
68.1200 691.0000 1.0000
68.1300 673.0000 1.0000
68.1400 639.0000 1.0000
68.1500 633.0000 1.0000
68.1600 632.0000 1.0000
68.1700 632.0000 1.0000
68.1800 640.0000 1.0000
68.1900 657.0000 1.0000
68.2000 645.0000 1.0000
68.2100 609.0000 1.0000
68.2200 606.0000 1.0000
68.2300 643.0000 1.0000
68.2400 634.0000 1.0000
68.2500 624.0000 1.0000
68.2600 682.0000 1.0000
68.2700 690.0000 1.0000
68.2800 624.0000 1.0000
68.2900 622.0000 1.0000
68.3000 595.0000 1.0000
68.3100 668.0000 1.0000
68.3200 640.0000 1.0000
68.3300 659.0000 1.0000
68.3400 649.0000 1.0000
68.3500 629.0000 1.0000
68.3600 617.0000 1.0000
68.3700 629.0000 1.0000
68.3800 640.0000 1.0000
68.3900 651.0000 1.0000
68.4000 654.0000 1.0000
68.4100 663.0000 1.0000
68.4200 646.0000 1.0000
68.4300 635.0000 1.0000
68.4400 660.0000 1.0000
68.4500 677.0000 1.0000
68.4600 664.0000 1.0000
68.4700 661.0000 1.0000
68.4800 603.0000 1.0000
68.4900 613.0000 1.0000
68.5000 624.0000 1.0000
68.5100 625.0000 1.0000
68.5200 679.0000 1.0000
68.5300 635.0000 1.0000
68.5400 665.0000 1.0000
68.5500 614.0000 1.0000
68.5600 649.0000 1.0000
68.5700 618.0000 1.0000
68.5800 631.0000 1.0000
68.5900 659.0000 1.0000
68.6000 615.0000 1.0000
68.6100 621.0000 1.0000
68.6200 615.0000 1.0000
68.6300 637.0000 1.0000
68.6400 632.0000 1.0000
68.6500 671.0000 1.0000
68.6600 606.0000 1.0000
68.6700 608.0000 1.0000
68.6800 635.0000 1.0000
68.6900 606.0000 1.0000
68.7000 607.0000 1.0000
68.7100 640.0000 1.0000
68.7200 644.0000 1.0000
68.7300 648.0000 1.0000
68.7400 599.0000 1.0000
68.7500 637.0000 1.0000
68.7600 608.0000 1.0000
68.7700 642.0000 1.0000
68.7800 604.0000 1.0000
68.7900 625.0000 1.0000
68.8000 622.0000 1.0000
68.8100 624.0000 1.0000
68.8200 644.0000 1.0000
68.8300 634.0000 1.0000
68.8400 636.0000 1.0000
68.8500 673.0000 1.0000
68.8600 627.0000 1.0000
68.8700 630.0000 1.0000
68.8800 642.0000 1.0000
68.8900 629.0000 1.0000
68.9000 634.0000 1.0000
68.9100 577.0000 1.0000
68.9200 635.0000 1.0000
68.9300 633.0000 1.0000
68.9400 622.0000 1.0000
68.9500 650.0000 1.0000
68.9600 619.0000 1.0000
68.9700 626.0000 1.0000
68.9800 619.0000 1.0000
68.9900 636.0000 1.0000
69.0000 615.0000 1.0000
69.0100 608.0000 1.0000
69.0200 613.0000 1.0000
69.0300 675.0000 1.0000
69.0400 631.0000 1.0000
69.0500 607.0000 1.0000
69.0600 585.0000 1.0000
69.0700 608.0000 1.0000
69.0800 639.0000 1.0000
69.0900 665.0000 1.0000
69.1000 643.0000 1.0000
69.1100 647.0000 1.0000
69.1200 592.0000 1.0000
69.1300 595.0000 1.0000
69.1400 642.0000 1.0000
69.1500 594.0000 1.0000
69.1600 607.0000 1.0000
69.1700 593.0000 1.0000
69.1800 613.0000 1.0000
69.1900 588.0000 1.0000
69.2000 598.0000 1.0000
69.2100 651.0000 1.0000
69.2200 653.0000 1.0000
69.2300 600.0000 1.0000
69.2400 598.0000 1.0000
69.2500 615.0000 1.0000
69.2600 625.0000 1.0000
69.2700 659.0000 1.0000
69.2800 634.0000 1.0000
69.2900 603.0000 1.0000
69.3000 612.0000 1.0000
69.3100 672.0000 1.0000
69.3200 633.0000 1.0000
69.3300 612.0000 1.0000
69.3400 631.0000 1.0000
69.3500 648.0000 1.0000
69.3600 611.0000 1.0000
69.3700 642.0000 1.0000
69.3800 670.0000 1.0000
69.3900 650.0000 1.0000
69.4000 629.0000 1.0000
69.4100 611.0000 1.0000
69.4200 610.0000 1.0000
69.4300 653.0000 1.0000
69.4400 619.0000 1.0000
69.4500 642.0000 1.0000
69.4600 630.0000 1.0000
69.4700 651.0000 1.0000
69.4800 632.0000 1.0000
69.4900 629.0000 1.0000
69.5000 657.0000 1.0000
69.5100 618.0000 1.0000
69.5200 620.0000 1.0000
69.5300 684.0000 1.0000
69.5400 662.0000 1.0000
69.5500 617.0000 1.0000
69.5600 613.0000 1.0000
69.5700 653.0000 1.0000
69.5800 673.0000 1.0000
69.5900 654.0000 1.0000
69.6000 636.0000 1.0000
69.6100 607.0000 1.0000
69.6200 647.0000 1.0000
69.6300 638.0000 1.0000
69.6400 611.0000 1.0000
69.6500 605.0000 1.0000
69.6600 654.0000 1.0000
69.6700 628.0000 1.0000
69.6800 612.0000 1.0000
69.6900 656.0000 1.0000
69.7000 616.0000 1.0000
69.7100 615.0000 1.0000
69.7200 613.0000 1.0000
69.7300 641.0000 1.0000
69.7400 603.0000 1.0000
69.7500 644.0000 1.0000
69.7600 636.0000 1.0000
69.7700 597.0000 1.0000
69.7800 635.0000 1.0000
69.7900 554.0000 1.0000
69.8000 597.0000 1.0000
69.8100 614.0000 1.0000
69.8200 598.0000 1.0000
69.8300 612.0000 1.0000
69.8400 571.0000 1.0000
69.8500 620.0000 1.0000
69.8600 615.0000 1.0000
69.8700 603.0000 1.0000
69.8800 613.0000 1.0000
69.8900 595.0000 1.0000
69.9000 657.0000 1.0000
69.9100 630.0000 1.0000
69.9200 623.0000 1.0000
69.9300 613.0000 1.0000
69.9400 644.0000 1.0000
69.9500 619.0000 1.0000
69.9600 587.0000 1.0000
69.9700 629.0000 1.0000
69.9800 608.0000 1.0000
69.9900 620.0000 1.0000
70.0000 611.0000 1.0000
*RAS_INT_END
*RAS_TEMPERATURE_START
*RAS_TEMPERATURE_END
*RAS_DATA_END
