*RAS_DATA_START
*RAS_HEADER_START
*DISP_FMT_X "%.2f"
*DISP_FMT_Y "%.0f"
*DISP_FULLSCALE "12530.0000000000"
*DISP_LINE_COLOR "255.0000000000"
*DISP_LINE_STYLE "0.0000000000"
*DISP_LINE_WIDTH "0.2500000000"
*DISP_NOTE "測定データ-3"
*DISP_OFFSET_Y "0.0000000000"
*DISP_PEAKSEARCH_UNIT_Y "cps"
*DISP_RANGE_BOTTOM "0.0000000000"
*DISP_RANGE_LEFT "20.0000000000"
*DISP_RANGE_LOGCUTOFF "0.0100000000"
*DISP_RANGE_RIGHT "70.0000000000"
*DISP_RANGE_TOP "12530.0000000000"
*DISP_SCALE_MODE_Y "0.0000000000"
*DISP_TAB_NAME "2θ/θ"
*DISP_TITLE_Y "強度"
*DISP_UNIT_Y "cps"
*DISP_WINDOW_NAME "MSG_MACROENGINE"
*FILE_COMMENT " "
*FILE_MD5 ""
*FILE_MEMO " "
*FILE_OPERATOR "Administrator"
*FILE_SAMPLE " "
*FILE_TYPE "RAS_RAW"
*FILE_USERGROUP "システムマネージャ"
*FILE_VERSION "1.0000000000"
*HW_ATTACHMENT_ID "ATT0025"
*HW_ATTACHMENT_NAME "標準|Standard"
*HW_COUNTER_ID-0 "CUT0025"
*HW_COUNTER_ID-1 "CUT0020"
*HW_COUNTER_ID-2 "CUT0020"
*HW_COUNTER_ID-3 "CSL0021"
*HW_COUNTER_ID-4 "CMC0021"
*HW_COUNTER_NAME-0 "D/teX Ultra|D/teX Ultra"
*HW_COUNTER_NAME-1 "None|None"
*HW_COUNTER_NAME-2 "None|None"
*HW_COUNTER_NAME-3 "BBM|BBM"
*HW_COUNTER_NAME-4 "検出器モノクロメータ|Detector monochromator"
*HW_COUNTER_SELECT_NAME "D/teX Ultra|D/teX Ultra"
*HW_GONIOMETER_ID "GON0023"
*HW_GONIOMETER_NAME "SmartLab|SmartLab"
*HW_GONIOMETER_RADIUS-0 "90.0"
*HW_GONIOMETER_RADIUS-1 "114.0"
*HW_GONIOMETER_RADIUS-2 "190.0"
*HW_GONIOMETER_RADIUS-3 "300.0"
*HW_GONIOMETER_RADIUS-4 "187.0"
*HW_GONIOMETER_RADIUS-5 "300.0"
*HW_GONIOMETER_RADIUS-6 "113.0"
*HW_GONIOMETER_RADIUS-7 "331.0"
*HW_I_OPT_ID-0 "CBO0021"
*HW_I_OPT_ID-1 "ICR0023"
*HW_I_OPT_ID-2 "ISL0021"
*HW_I_OPT_ID-3 "ISO0021"
*HW_I_OPT_ID-4 "IAD0021"
*HW_I_OPT_ID-5 "IPR0001"
*HW_I_OPT_NAME-0 "CBOユニット|CBO unit"
*HW_I_OPT_NAME-1 "標準入射光学ユニット|Standard incident optical unit"
*HW_I_OPT_NAME-2 "標準入射スリットボックス|Standard incident slit box"
*HW_I_OPT_NAME-3 "入射平行スリット|Incident parallel slit"
*HW_I_OPT_NAME-4 "長手制限スリット|Length limiting slit"
*HW_I_OPT_NAME-5 "None|None"
*HW_R_ATTENUATER_AUTOMODE "0"
*HW_R_OPT_ID-0 "RSS0021"
*HW_R_OPT_ID-1 "RCR0023"
*HW_R_OPT_ID-2 "RSO0021"
*HW_R_OPT_ID-3 "RRS0021"
*HW_R_OPT_ID-4 "ATN0021"
*HW_R_OPT_ID-5 "RFL0021"
*HW_R_OPT_ID-6 "RAD0021"
*HW_R_OPT_NAME-0 "標準受光スリットボックス1|Standard receiving slit box # 1"
*HW_R_OPT_NAME-1 "標準受光光学ユニット1|Standard receiving unit # 1"
*HW_R_OPT_NAME-2 "標準受光光学ユニット2|Standard receiving optical unit # 2"
*HW_R_OPT_NAME-3 "標準受光スリットボックス2|Standard receiving slit box # 2"
*HW_R_OPT_NAME-4 "標準アッテネータ|Standard Attenuator"
*HW_R_OPT_NAME-5 "Cu Kβ|Cu K-beta"
*HW_R_OPT_NAME-6 "調整用受光スリット|Alignment receiving slit"
*HW_SAMPLE_HOLDER_ID "SMP0023"
*HW_SAMPLE_HOLDER_NAME "標準Zステージ|Standard Z stage"
*HW_XG_CURRENT_MAX "50"
*HW_XG_CURRENT_MIN "2"
*HW_XG_CURRENT_RESOLUTION "1"
*HW_XG_CURRENT_UNIT "mA"
*HW_XG_FOCUS "1mm x 10mm"
*HW_XG_FOCUS_TYPE "Normal"
*HW_XG_ID ""
*HW_XG_NAME "3kW 封入管(ID:1200)|3kW Sealed tube(ID:1200)"
*HW_XG_TARGET_ATOMIC_NUMBER "29.0000000000"
*HW_XG_TARGET_NAME "Cu"
*HW_XG_TYPE "Hermetic"
*HW_XG_VOLTAGE_MAX "60"
*HW_XG_VOLTAGE_MIN "20"
*HW_XG_VOLTAGE_RESOLUTION "1"
*HW_XG_VOLTAGE_UNIT "kV"
*HW_XG_WATT_MAX "1.500"
*HW_XG_WATT_UNIT "kW"
*HW_XG_WAVE_LENGTH_ALPHA1 "1.540593"
*HW_XG_WAVE_LENGTH_ALPHA2 "1.544414"
*HW_XG_WAVE_LENGTH_BETA "1.392250"
*MEAS_COND_AXIS_NAME-0 "2θ/θ"
*MEAS_COND_AXIS_NAME-1 "2θ"
*MEAS_COND_AXIS_NAME-2 "ω"
*MEAS_COND_AXIS_NAME-3 "Z"
*MEAS_COND_AXIS_NAME-4 "2θ/ω"
*MEAS_COND_AXIS_NAME-5 "θs"
*MEAS_COND_AXIS_NAME-6 "θd"
*MEAS_COND_AXIS_NAME-7 "Ts"
*MEAS_COND_AXIS_NAME-8 "CBO選択スリット"
*MEAS_COND_AXIS_NAME-9 "M"
*MEAS_COND_AXIS_NAME-10 "入射平行スリット"
*MEAS_COND_AXIS_NAME-11 "入射スリット"
*MEAS_COND_AXIS_NAME-12 ""
*MEAS_COND_AXIS_NAME-13 "Zs"
*MEAS_COND_AXIS_NAME-14 "入射光学素子"
*MEAS_COND_AXIS_NAME-15 "長手制限スリット"
*MEAS_COND_AXIS_NAME-16 "センタースリット"
*MEAS_COND_AXIS_NAME-17 "フィルター"
*MEAS_COND_AXIS_NAME-18 "受光スリット1"
*MEAS_COND_AXIS_NAME-19 "受光スリット2"
*MEAS_COND_AXIS_NAME-20 "受光光学素子"
*MEAS_COND_AXIS_NAME-21 "受光平行スリット"
*MEAS_COND_AXIS_NAME-22 "調整用受光スリット"
*MEAS_COND_AXIS_NAME-23 ""
*MEAS_COND_AXIS_NAME-24 ""
*MEAS_COND_AXIS_NAME-25 "Zd"
*MEAS_COND_AXIS_NAME-26 "アッテネータ"
*MEAS_COND_AXIS_NAME-27 "検出器モノクロメータ"
*MEAS_COND_AXIS_NAME-28 "モノクロメータスリット"
*MEAS_COND_AXIS_NAME-29 "プライマリビーム"
*MEAS_COND_AXIS_NAME-30 "PHA"
*MEAS_COND_AXIS_NAME_INTERNAL-0 "TwoThetaTheta"
*MEAS_COND_AXIS_NAME_INTERNAL-1 "TwoTheta"
*MEAS_COND_AXIS_NAME_INTERNAL-2 "Omega"
*MEAS_COND_AXIS_NAME_INTERNAL-3 "Z"
*MEAS_COND_AXIS_NAME_INTERNAL-4 "TwoThetaOmega"
*MEAS_COND_AXIS_NAME_INTERNAL-5 "ThetaS"
*MEAS_COND_AXIS_NAME_INTERNAL-6 "ThetaD"
*MEAS_COND_AXIS_NAME_INTERNAL-7 "Ts"
*MEAS_COND_AXIS_NAME_INTERNAL-8 "CBO"
*MEAS_COND_AXIS_NAME_INTERNAL-9 "CBO-M"
*MEAS_COND_AXIS_NAME_INTERNAL-10 "IncidentSollerSlit"
*MEAS_COND_AXIS_NAME_INTERNAL-11 "IncidentSlitBox"
*MEAS_COND_AXIS_NAME_INTERNAL-12 "IncidentSlitBox-_Axis"
*MEAS_COND_AXIS_NAME_INTERNAL-13 "Zs"
*MEAS_COND_AXIS_NAME_INTERNAL-14 "IncidentMonochromator"
*MEAS_COND_AXIS_NAME_INTERNAL-15 "IncidentAxdSlit"
*MEAS_COND_AXIS_NAME_INTERNAL-16 "CenterSlit"
*MEAS_COND_AXIS_NAME_INTERNAL-17 "Filter"
*MEAS_COND_AXIS_NAME_INTERNAL-18 "ReceivingSlitBox1"
*MEAS_COND_AXIS_NAME_INTERNAL-19 "ReceivingSlitBox2"
*MEAS_COND_AXIS_NAME_INTERNAL-20 "ReceivingOptics"
*MEAS_COND_AXIS_NAME_INTERNAL-21 "ReceivingSollerSlit"
*MEAS_COND_AXIS_NAME_INTERNAL-22 "ReceivingAxdSlit"
*MEAS_COND_AXIS_NAME_INTERNAL-23 "ReceivingSlitBox1-_Axis"
*MEAS_COND_AXIS_NAME_INTERNAL-24 "ReceivingSlitBox2-_Axis"
*MEAS_COND_AXIS_NAME_INTERNAL-25 "ReceivingSlitBox2-Zd"
*MEAS_COND_AXIS_NAME_INTERNAL-26 "Attenuator"
*MEAS_COND_AXIS_NAME_INTERNAL-27 "CounterMonochromator"
*MEAS_COND_AXIS_NAME_INTERNAL-28 "CounterSlit"
*MEAS_COND_AXIS_NAME_INTERNAL-29 "IncidentPrimary"
*MEAS_COND_AXIS_NAME_INTERNAL-30 "PHA"
*MEAS_COND_AXIS_NAME_MAGICNO-0 "83951616.0000000000"
*MEAS_COND_AXIS_NAME_MAGICNO-1 "268632064.0000000000"
*MEAS_COND_AXIS_NAME_MAGICNO-2 "268500992.0000000000"
*MEAS_COND_AXIS_NAME_MAGICNO-3 "285278208.0000000000"
*MEAS_COND_AXIS_NAME_MAGICNO-4 "83951616.0000000000"
*MEAS_COND_AXIS_NAME_MAGICNO-5 "131072.0000000000"
*MEAS_COND_AXIS_NAME_MAGICNO-6 "131072.0000000000"
*MEAS_COND_AXIS_NAME_MAGICNO-7 "318898176.0000000000"
*MEAS_COND_AXIS_NAME_MAGICNO-8 "20971521.0000000000"
*MEAS_COND_AXIS_NAME_MAGICNO-9 "285343744.0000000000"
*MEAS_COND_AXIS_NAME_MAGICNO-10 "20971521.0000000000"
*MEAS_COND_AXIS_NAME_MAGICNO-11 "22020097.0000000000"
*MEAS_COND_AXIS_NAME_MAGICNO-12 "25165824.0000000000"
*MEAS_COND_AXIS_NAME_MAGICNO-13 "318898176.0000000000"
*MEAS_COND_AXIS_NAME_MAGICNO-14 "1.0000000000"
*MEAS_COND_AXIS_NAME_MAGICNO-15 "20971521.0000000000"
*MEAS_COND_AXIS_NAME_MAGICNO-16 "20971521.0000000000"
*MEAS_COND_AXIS_NAME_MAGICNO-17 "20971521.0000000000"
*MEAS_COND_AXIS_NAME_MAGICNO-18 "23068673.0000000000"
*MEAS_COND_AXIS_NAME_MAGICNO-19 "23068673.0000000000"
*MEAS_COND_AXIS_NAME_MAGICNO-20 "20971521.0000000000"
*MEAS_COND_AXIS_NAME_MAGICNO-21 "20971521.0000000000"
*MEAS_COND_AXIS_NAME_MAGICNO-22 "20971521.0000000000"
*MEAS_COND_AXIS_NAME_MAGICNO-23 "25165824.0000000000"
*MEAS_COND_AXIS_NAME_MAGICNO-24 "25165824.0000000000"
*MEAS_COND_AXIS_NAME_MAGICNO-25 "285343744.0000000000"
*MEAS_COND_AXIS_NAME_MAGICNO-26 "17301505.0000000000"
*MEAS_COND_AXIS_NAME_MAGICNO-27 "20971521.0000000000"
*MEAS_COND_AXIS_NAME_MAGICNO-28 "20971521.0000000000"
*MEAS_COND_AXIS_NAME_MAGICNO-29 "20971521.0000000000"
*MEAS_COND_AXIS_NAME_MAGICNO-30 "0.0000000000"
*MEAS_COND_AXIS_OFFSET-0 "-"
*MEAS_COND_AXIS_OFFSET-1 "-0.0310000000"
*MEAS_COND_AXIS_OFFSET-2 "0.5143000000"
*MEAS_COND_AXIS_OFFSET-3 "-"
*MEAS_COND_AXIS_OFFSET-4 "-"
*MEAS_COND_AXIS_OFFSET-5 "0.5143000000"
*MEAS_COND_AXIS_OFFSET-6 "-0.5453000000"
*MEAS_COND_AXIS_OFFSET-7 "-"
*MEAS_COND_AXIS_OFFSET-8 "-"
*MEAS_COND_AXIS_OFFSET-9 "-"
*MEAS_COND_AXIS_OFFSET-10 "-"
*MEAS_COND_AXIS_OFFSET-11 "-"
*MEAS_COND_AXIS_OFFSET-12 "-"
*MEAS_COND_AXIS_OFFSET-13 "-"
*MEAS_COND_AXIS_OFFSET-14 "-"
*MEAS_COND_AXIS_OFFSET-15 "-"
*MEAS_COND_AXIS_OFFSET-16 "-"
*MEAS_COND_AXIS_OFFSET-17 "-"
*MEAS_COND_AXIS_OFFSET-18 "-"
*MEAS_COND_AXIS_OFFSET-19 "-"
*MEAS_COND_AXIS_OFFSET-20 "-"
*MEAS_COND_AXIS_OFFSET-21 "-"
*MEAS_COND_AXIS_OFFSET-22 "-"
*MEAS_COND_AXIS_OFFSET-23 "-"
*MEAS_COND_AXIS_OFFSET-24 "-"
*MEAS_COND_AXIS_OFFSET-25 "-"
*MEAS_COND_AXIS_OFFSET-26 "-"
*MEAS_COND_AXIS_OFFSET-27 "-"
*MEAS_COND_AXIS_OFFSET-28 "-"
*MEAS_COND_AXIS_OFFSET-29 "-"
*MEAS_COND_AXIS_OFFSET-30 "-"
*MEAS_COND_AXIS_POSITION-0 "0.0000000000"
*MEAS_COND_AXIS_POSITION-1 "0.0000000000"
*MEAS_COND_AXIS_POSITION-2 "0.0000000000"
*MEAS_COND_AXIS_POSITION-3 "-2.9061800000"
*MEAS_COND_AXIS_POSITION-4 "0.0000000000"
*MEAS_COND_AXIS_POSITION-5 "0.0000000000"
*MEAS_COND_AXIS_POSITION-6 "0.0000000000"
*MEAS_COND_AXIS_POSITION-7 "-0.7498700000"
*MEAS_COND_AXIS_POSITION-8 "BB"
*MEAS_COND_AXIS_POSITION-9 "0.0000000000"
*MEAS_COND_AXIS_POSITION-10 "Soller_slit_5.0deg"
*MEAS_COND_AXIS_POSITION-11 "2/3deg"
*MEAS_COND_AXIS_POSITION-12 "2.2088000000"
*MEAS_COND_AXIS_POSITION-13 "-0.6412500000"
*MEAS_COND_AXIS_POSITION-14 "0.0000000000"
*MEAS_COND_AXIS_POSITION-15 "10.0mm"
*MEAS_COND_AXIS_POSITION-16 "None"
*MEAS_COND_AXIS_POSITION-17 "Cu_K-beta"
*MEAS_COND_AXIS_POSITION-18 "13.000mm"
*MEAS_COND_AXIS_POSITION-19 "13.000mm"
*MEAS_COND_AXIS_POSITION-20 "No_unit"
*MEAS_COND_AXIS_POSITION-21 "Soller_slit_5.0deg"
*MEAS_COND_AXIS_POSITION-22 "None"
*MEAS_COND_AXIS_POSITION-23 "13.0000000000"
*MEAS_COND_AXIS_POSITION-24 "13.0000000000"
*MEAS_COND_AXIS_POSITION-25 "0.0281300000"
*MEAS_COND_AXIS_POSITION-26 "Open"
*MEAS_COND_AXIS_POSITION-27 "None"
*MEAS_COND_AXIS_POSITION-28 "None"
*MEAS_COND_AXIS_POSITION-29 "None"
*MEAS_COND_AXIS_POSITION-30 "38.0000000000"
*MEAS_COND_AXIS_UNIT-0 "deg"
*MEAS_COND_AXIS_UNIT-1 "deg"
*MEAS_COND_AXIS_UNIT-2 "deg"
*MEAS_COND_AXIS_UNIT-3 "mm"
*MEAS_COND_AXIS_UNIT-4 "deg"
*MEAS_COND_AXIS_UNIT-5 "deg"
*MEAS_COND_AXIS_UNIT-6 "deg"
*MEAS_COND_AXIS_UNIT-7 "mm"
*MEAS_COND_AXIS_UNIT-8 ""
*MEAS_COND_AXIS_UNIT-9 "pulse"
*MEAS_COND_AXIS_UNIT-10 ""
*MEAS_COND_AXIS_UNIT-11 ""
*MEAS_COND_AXIS_UNIT-12 "mm"
*MEAS_COND_AXIS_UNIT-13 "mm"
*MEAS_COND_AXIS_UNIT-14 ""
*MEAS_COND_AXIS_UNIT-15 ""
*MEAS_COND_AXIS_UNIT-16 ""
*MEAS_COND_AXIS_UNIT-17 ""
*MEAS_COND_AXIS_UNIT-18 ""
*MEAS_COND_AXIS_UNIT-19 ""
*MEAS_COND_AXIS_UNIT-20 ""
*MEAS_COND_AXIS_UNIT-21 ""
*MEAS_COND_AXIS_UNIT-22 ""
*MEAS_COND_AXIS_UNIT-23 "mm"
*MEAS_COND_AXIS_UNIT-24 "mm"
*MEAS_COND_AXIS_UNIT-25 "mm"
*MEAS_COND_AXIS_UNIT-26 ""
*MEAS_COND_AXIS_UNIT-27 ""
*MEAS_COND_AXIS_UNIT-28 ""
*MEAS_COND_AXIS_UNIT-29 ""
*MEAS_COND_AXIS_UNIT-30 "div"
*MEAS_COND_COUNTER_CNTLOSS_CORR "0.0000000000"
*MEAS_COND_COUNTER_PHABASE "38.0000000000"
*MEAS_COND_COUNTER_PHAWINDOW "16.0000000000"
*MEAS_COND_COUNTER_PHA_UNIT "div"
*MEAS_COND_COUNTER_TAUDIFF "30.0000000000"
*MEAS_COND_COUNTER_TAUINT "0.0000000000"
*MEAS_COND_IRRADIATION_MODE "OFF"
*MEAS_COND_IRRADIATION_WIDTH ""
*MEAS_COND_OPT_ATTR "集中法"
*MEAS_COND_OPT_NAME "@集中法"
*MEAS_COND_UNSYMMETRIC_MODE "OFF"
*MEAS_COND_XG_CURRENT "30.0000000000"
*MEAS_COND_XG_VOLTAGE "40.0000000000"
*MEAS_COND_XG_WAVE_TYPE "Ka"
*MEAS_DATA_COUNT "5001.0000000000"
*MEAS_SCAN_AXIS_X "2θ/θ"
*MEAS_SCAN_AXIS_X_INTERNAL "TwoThetaTheta"
*MEAS_SCAN_END_TIME "12/20/22 19:01:39"
*MEAS_SCAN_MODE "CONTINUOUS"
*MEAS_SCAN_MONITOR "0"
*MEAS_SCAN_RESOLUTION_X "0.0002"
*MEAS_SCAN_SPEED "2.5"
*MEAS_SCAN_SPEED_UNIT "deg/min"
*MEAS_SCAN_START "20.0000000000"
*MEAS_SCAN_START_TIME "12/20/22 18:40:15"
*MEAS_SCAN_STEP "0.0100000000"
*MEAS_SCAN_STOP "70.0000000000"
*MEAS_SCAN_UNIT_X "deg"
*MEAS_SCAN_UNIT_Y "counts"
*RAS_HEADER_END
*RAS_INT_START
20.0000 891.0000 1.0000
20.0100 859.0000 1.0000
20.0200 816.0000 1.0000
20.0300 790.0000 1.0000
20.0400 782.0000 1.0000
20.0500 793.0000 1.0000
20.0600 827.0000 1.0000
20.0700 850.0000 1.0000
20.0800 864.0000 1.0000
20.0900 810.0000 1.0000
20.1000 848.0000 1.0000
20.1100 803.0000 1.0000
20.1200 825.0000 1.0000
20.1300 858.0000 1.0000
20.1400 846.0000 1.0000
20.1500 864.0000 1.0000
20.1600 837.0000 1.0000
20.1700 791.0000 1.0000
20.1800 857.0000 1.0000
20.1900 834.0000 1.0000
20.2000 802.0000 1.0000
20.2100 842.0000 1.0000
20.2200 825.0000 1.0000
20.2300 822.0000 1.0000
20.2400 855.0000 1.0000
20.2500 843.0000 1.0000
20.2600 819.0000 1.0000
20.2700 808.0000 1.0000
20.2800 916.0000 1.0000
20.2900 852.0000 1.0000
20.3000 816.0000 1.0000
20.3100 823.0000 1.0000
20.3200 815.0000 1.0000
20.3300 803.0000 1.0000
20.3400 782.0000 1.0000
20.3500 794.0000 1.0000
20.3600 833.0000 1.0000
20.3700 752.0000 1.0000
20.3800 809.0000 1.0000
20.3900 797.0000 1.0000
20.4000 802.0000 1.0000
20.4100 800.0000 1.0000
20.4200 804.0000 1.0000
20.4300 874.0000 1.0000
20.4400 805.0000 1.0000
20.4500 791.0000 1.0000
20.4600 784.0000 1.0000
20.4700 796.0000 1.0000
20.4800 842.0000 1.0000
20.4900 817.0000 1.0000
20.5000 795.0000 1.0000
20.5100 803.0000 1.0000
20.5200 834.0000 1.0000
20.5300 775.0000 1.0000
20.5400 833.0000 1.0000
20.5500 810.0000 1.0000
20.5600 847.0000 1.0000
20.5700 809.0000 1.0000
20.5800 799.0000 1.0000
20.5900 752.0000 1.0000
20.6000 776.0000 1.0000
20.6100 821.0000 1.0000
20.6200 844.0000 1.0000
20.6300 830.0000 1.0000
20.6400 801.0000 1.0000
20.6500 781.0000 1.0000
20.6600 838.0000 1.0000
20.6700 839.0000 1.0000
20.6800 842.0000 1.0000
20.6900 823.0000 1.0000
20.7000 818.0000 1.0000
20.7100 827.0000 1.0000
20.7200 870.0000 1.0000
20.7300 817.0000 1.0000
20.7400 819.0000 1.0000
20.7500 798.0000 1.0000
20.7600 813.0000 1.0000
20.7700 785.0000 1.0000
20.7800 785.0000 1.0000
20.7900 798.0000 1.0000
20.8000 814.0000 1.0000
20.8100 839.0000 1.0000
20.8200 816.0000 1.0000
20.8300 759.0000 1.0000
20.8400 795.0000 1.0000
20.8500 877.0000 1.0000
20.8600 837.0000 1.0000
20.8700 824.0000 1.0000
20.8800 812.0000 1.0000
20.8900 812.0000 1.0000
20.9000 837.0000 1.0000
20.9100 813.0000 1.0000
20.9200 762.0000 1.0000
20.9300 836.0000 1.0000
20.9400 775.0000 1.0000
20.9500 831.0000 1.0000
20.9600 794.0000 1.0000
20.9700 826.0000 1.0000
20.9800 815.0000 1.0000
20.9900 819.0000 1.0000
21.0000 828.0000 1.0000
21.0100 807.0000 1.0000
21.0200 819.0000 1.0000
21.0300 821.0000 1.0000
21.0400 766.0000 1.0000
21.0500 788.0000 1.0000
21.0600 805.0000 1.0000
21.0700 826.0000 1.0000
21.0800 837.0000 1.0000
21.0900 791.0000 1.0000
21.1000 850.0000 1.0000
21.1100 828.0000 1.0000
21.1200 821.0000 1.0000
21.1300 827.0000 1.0000
21.1400 819.0000 1.0000
21.1500 788.0000 1.0000
21.1600 800.0000 1.0000
21.1700 856.0000 1.0000
21.1800 814.0000 1.0000
21.1900 829.0000 1.0000
21.2000 803.0000 1.0000
21.2100 822.0000 1.0000
21.2200 802.0000 1.0000
21.2300 819.0000 1.0000
21.2400 816.0000 1.0000
21.2500 841.0000 1.0000
21.2600 874.0000 1.0000
21.2700 836.0000 1.0000
21.2800 791.0000 1.0000
21.2900 784.0000 1.0000
21.3000 795.0000 1.0000
21.3100 802.0000 1.0000
21.3200 791.0000 1.0000
21.3300 840.0000 1.0000
21.3400 775.0000 1.0000
21.3500 796.0000 1.0000
21.3600 784.0000 1.0000
21.3700 792.0000 1.0000
21.3800 766.0000 1.0000
21.3900 846.0000 1.0000
21.4000 827.0000 1.0000
21.4100 790.0000 1.0000
21.4200 813.0000 1.0000
21.4300 817.0000 1.0000
21.4400 805.0000 1.0000
21.4500 791.0000 1.0000
21.4600 791.0000 1.0000
21.4700 799.0000 1.0000
21.4800 803.0000 1.0000
21.4900 772.0000 1.0000
21.5000 798.0000 1.0000
21.5100 823.0000 1.0000
21.5200 819.0000 1.0000
21.5300 808.0000 1.0000
21.5400 784.0000 1.0000
21.5500 786.0000 1.0000
21.5600 786.0000 1.0000
21.5700 777.0000 1.0000
21.5800 799.0000 1.0000
21.5900 769.0000 1.0000
21.6000 820.0000 1.0000
21.6100 826.0000 1.0000
21.6200 782.0000 1.0000
21.6300 785.0000 1.0000
21.6400 793.0000 1.0000
21.6500 786.0000 1.0000
21.6600 866.0000 1.0000
21.6700 815.0000 1.0000
21.6800 808.0000 1.0000
21.6900 795.0000 1.0000
21.7000 768.0000 1.0000
21.7100 800.0000 1.0000
21.7200 765.0000 1.0000
21.7300 846.0000 1.0000
21.7400 815.0000 1.0000
21.7500 770.0000 1.0000
21.7600 785.0000 1.0000
21.7700 814.0000 1.0000
21.7800 801.0000 1.0000
21.7900 797.0000 1.0000
21.8000 801.0000 1.0000
21.8100 799.0000 1.0000
21.8200 788.0000 1.0000
21.8300 746.0000 1.0000
21.8400 817.0000 1.0000
21.8500 810.0000 1.0000
21.8600 814.0000 1.0000
21.8700 782.0000 1.0000
21.8800 830.0000 1.0000
21.8900 798.0000 1.0000
21.9000 829.0000 1.0000
21.9100 852.0000 1.0000
21.9200 803.0000 1.0000
21.9300 787.0000 1.0000
21.9400 771.0000 1.0000
21.9500 792.0000 1.0000
21.9600 832.0000 1.0000
21.9700 800.0000 1.0000
21.9800 806.0000 1.0000
21.9900 766.0000 1.0000
22.0000 826.0000 1.0000
22.0100 797.0000 1.0000
22.0200 804.0000 1.0000
22.0300 803.0000 1.0000
22.0400 792.0000 1.0000
22.0500 777.0000 1.0000
22.0600 799.0000 1.0000
22.0700 779.0000 1.0000
22.0800 777.0000 1.0000
22.0900 810.0000 1.0000
22.1000 793.0000 1.0000
22.1100 821.0000 1.0000
22.1200 789.0000 1.0000
22.1300 746.0000 1.0000
22.1400 788.0000 1.0000
22.1500 763.0000 1.0000
22.1600 843.0000 1.0000
22.1700 848.0000 1.0000
22.1800 816.0000 1.0000
22.1900 818.0000 1.0000
22.2000 895.0000 1.0000
22.2100 795.0000 1.0000
22.2200 771.0000 1.0000
22.2300 805.0000 1.0000
22.2400 814.0000 1.0000
22.2500 758.0000 1.0000
22.2600 818.0000 1.0000
22.2700 828.0000 1.0000
22.2800 762.0000 1.0000
22.2900 801.0000 1.0000
22.3000 805.0000 1.0000
22.3100 801.0000 1.0000
22.3200 797.0000 1.0000
22.3300 791.0000 1.0000
22.3400 837.0000 1.0000
22.3500 838.0000 1.0000
22.3600 779.0000 1.0000
22.3700 771.0000 1.0000
22.3800 764.0000 1.0000
22.3900 787.0000 1.0000
22.4000 792.0000 1.0000
22.4100 777.0000 1.0000
22.4200 761.0000 1.0000
22.4300 753.0000 1.0000
22.4400 821.0000 1.0000
22.4500 795.0000 1.0000
22.4600 814.0000 1.0000
22.4700 781.0000 1.0000
22.4800 823.0000 1.0000
22.4900 753.0000 1.0000
22.5000 789.0000 1.0000
22.5100 814.0000 1.0000
22.5200 824.0000 1.0000
22.5300 816.0000 1.0000
22.5400 784.0000 1.0000
22.5500 764.0000 1.0000
22.5600 782.0000 1.0000
22.5700 799.0000 1.0000
22.5800 787.0000 1.0000
22.5900 752.0000 1.0000
22.6000 792.0000 1.0000
22.6100 829.0000 1.0000
22.6200 762.0000 1.0000
22.6300 772.0000 1.0000
22.6400 783.0000 1.0000
22.6500 772.0000 1.0000
22.6600 787.0000 1.0000
22.6700 794.0000 1.0000
22.6800 780.0000 1.0000
22.6900 807.0000 1.0000
22.7000 813.0000 1.0000
22.7100 771.0000 1.0000
22.7200 756.0000 1.0000
22.7300 830.0000 1.0000
22.7400 778.0000 1.0000
22.7500 801.0000 1.0000
22.7600 796.0000 1.0000
22.7700 784.0000 1.0000
22.7800 786.0000 1.0000
22.7900 771.0000 1.0000
22.8000 790.0000 1.0000
22.8100 794.0000 1.0000
22.8200 757.0000 1.0000
22.8300 807.0000 1.0000
22.8400 760.0000 1.0000
22.8500 759.0000 1.0000
22.8600 804.0000 1.0000
22.8700 789.0000 1.0000
22.8800 786.0000 1.0000
22.8900 827.0000 1.0000
22.9000 798.0000 1.0000
22.9100 794.0000 1.0000
22.9200 790.0000 1.0000
22.9300 822.0000 1.0000
22.9400 825.0000 1.0000
22.9500 795.0000 1.0000
22.9600 784.0000 1.0000
22.9700 778.0000 1.0000
22.9800 787.0000 1.0000
22.9900 817.0000 1.0000
23.0000 782.0000 1.0000
23.0100 747.0000 1.0000
23.0200 749.0000 1.0000
23.0300 802.0000 1.0000
23.0400 802.0000 1.0000
23.0500 795.0000 1.0000
23.0600 775.0000 1.0000
23.0700 838.0000 1.0000
23.0800 850.0000 1.0000
23.0900 766.0000 1.0000
23.1000 763.0000 1.0000
23.1100 790.0000 1.0000
23.1200 759.0000 1.0000
23.1300 768.0000 1.0000
23.1400 750.0000 1.0000
23.1500 773.0000 1.0000
23.1600 819.0000 1.0000
23.1700 784.0000 1.0000
23.1800 810.0000 1.0000
23.1900 762.0000 1.0000
23.2000 758.0000 1.0000
23.2100 741.0000 1.0000
23.2200 783.0000 1.0000
23.2300 812.0000 1.0000
23.2400 816.0000 1.0000
23.2500 772.0000 1.0000
23.2600 752.0000 1.0000
23.2700 808.0000 1.0000
23.2800 798.0000 1.0000
23.2900 775.0000 1.0000
23.3000 793.0000 1.0000
23.3100 767.0000 1.0000
23.3200 783.0000 1.0000
23.3300 780.0000 1.0000
23.3400 788.0000 1.0000
23.3500 760.0000 1.0000
23.3600 738.0000 1.0000
23.3700 783.0000 1.0000
23.3800 788.0000 1.0000
23.3900 792.0000 1.0000
23.4000 779.0000 1.0000
23.4100 762.0000 1.0000
23.4200 790.0000 1.0000
23.4300 803.0000 1.0000
23.4400 754.0000 1.0000
23.4500 780.0000 1.0000
23.4600 764.0000 1.0000
23.4700 749.0000 1.0000
23.4800 808.0000 1.0000
23.4900 794.0000 1.0000
23.5000 772.0000 1.0000
23.5100 782.0000 1.0000
23.5200 783.0000 1.0000
23.5300 751.0000 1.0000
23.5400 791.0000 1.0000
23.5500 775.0000 1.0000
23.5600 766.0000 1.0000
23.5700 752.0000 1.0000
23.5800 768.0000 1.0000
23.5900 771.0000 1.0000
23.6000 768.0000 1.0000
23.6100 739.0000 1.0000
23.6200 808.0000 1.0000
23.6300 796.0000 1.0000
23.6400 759.0000 1.0000
23.6500 749.0000 1.0000
23.6600 813.0000 1.0000
23.6700 774.0000 1.0000
23.6800 769.0000 1.0000
23.6900 724.0000 1.0000
23.7000 762.0000 1.0000
23.7100 808.0000 1.0000
23.7200 762.0000 1.0000
23.7300 775.0000 1.0000
23.7400 735.0000 1.0000
23.7500 784.0000 1.0000
23.7600 790.0000 1.0000
23.7700 791.0000 1.0000
23.7800 772.0000 1.0000
23.7900 816.0000 1.0000
23.8000 774.0000 1.0000
23.8100 773.0000 1.0000
23.8200 773.0000 1.0000
23.8300 795.0000 1.0000
23.8400 794.0000 1.0000
23.8500 737.0000 1.0000
23.8600 778.0000 1.0000
23.8700 789.0000 1.0000
23.8800 823.0000 1.0000
23.8900 786.0000 1.0000
23.9000 844.0000 1.0000
23.9100 737.0000 1.0000
23.9200 774.0000 1.0000
23.9300 816.0000 1.0000
23.9400 770.0000 1.0000
23.9500 775.0000 1.0000
23.9600 776.0000 1.0000
23.9700 834.0000 1.0000
23.9800 815.0000 1.0000
23.9900 842.0000 1.0000
24.0000 798.0000 1.0000
24.0100 778.0000 1.0000
24.0200 801.0000 1.0000
24.0300 813.0000 1.0000
24.0400 808.0000 1.0000
24.0500 800.0000 1.0000
24.0600 831.0000 1.0000
24.0700 837.0000 1.0000
24.0800 857.0000 1.0000
24.0900 809.0000 1.0000
24.1000 777.0000 1.0000
24.1100 819.0000 1.0000
24.1200 797.0000 1.0000
24.1300 850.0000 1.0000
24.1400 803.0000 1.0000
24.1500 794.0000 1.0000
24.1600 774.0000 1.0000
24.1700 843.0000 1.0000
24.1800 820.0000 1.0000
24.1900 862.0000 1.0000
24.2000 808.0000 1.0000
24.2100 804.0000 1.0000
24.2200 796.0000 1.0000
24.2300 797.0000 1.0000
24.2400 769.0000 1.0000
24.2500 749.0000 1.0000
24.2600 740.0000 1.0000
24.2700 751.0000 1.0000
24.2800 814.0000 1.0000
24.2900 767.0000 1.0000
24.3000 804.0000 1.0000
24.3100 812.0000 1.0000
24.3200 766.0000 1.0000
24.3300 749.0000 1.0000
24.3400 751.0000 1.0000
24.3500 779.0000 1.0000
24.3600 767.0000 1.0000
24.3700 760.0000 1.0000
24.3800 767.0000 1.0000
24.3900 750.0000 1.0000
24.4000 718.0000 1.0000
24.4100 782.0000 1.0000
24.4200 776.0000 1.0000
24.4300 798.0000 1.0000
24.4400 733.0000 1.0000
24.4500 750.0000 1.0000
24.4600 828.0000 1.0000
24.4700 776.0000 1.0000
24.4800 802.0000 1.0000
24.4900 731.0000 1.0000
24.5000 746.0000 1.0000
24.5100 796.0000 1.0000
24.5200 760.0000 1.0000
24.5300 781.0000 1.0000
24.5400 740.0000 1.0000
24.5500 765.0000 1.0000
24.5600 770.0000 1.0000
24.5700 778.0000 1.0000
24.5800 818.0000 1.0000
24.5900 778.0000 1.0000
24.6000 747.0000 1.0000
24.6100 762.0000 1.0000
24.6200 775.0000 1.0000
24.6300 778.0000 1.0000
24.6400 757.0000 1.0000
24.6500 750.0000 1.0000
24.6600 757.0000 1.0000
24.6700 747.0000 1.0000
24.6800 742.0000 1.0000
24.6900 742.0000 1.0000
24.7000 772.0000 1.0000
24.7100 743.0000 1.0000
24.7200 757.0000 1.0000
24.7300 740.0000 1.0000
24.7400 756.0000 1.0000
24.7500 717.0000 1.0000
24.7600 719.0000 1.0000
24.7700 752.0000 1.0000
24.7800 774.0000 1.0000
24.7900 780.0000 1.0000
24.8000 739.0000 1.0000
24.8100 766.0000 1.0000
24.8200 768.0000 1.0000
24.8300 749.0000 1.0000
24.8400 701.0000 1.0000
24.8500 768.0000 1.0000
24.8600 720.0000 1.0000
24.8700 725.0000 1.0000
24.8800 708.0000 1.0000
24.8900 716.0000 1.0000
24.9000 781.0000 1.0000
24.9100 777.0000 1.0000
24.9200 775.0000 1.0000
24.9300 785.0000 1.0000
24.9400 798.0000 1.0000
24.9500 745.0000 1.0000
24.9600 733.0000 1.0000
24.9700 767.0000 1.0000
24.9800 733.0000 1.0000
24.9900 749.0000 1.0000
25.0000 777.0000 1.0000
25.0100 730.0000 1.0000
25.0200 763.0000 1.0000
25.0300 723.0000 1.0000
25.0400 771.0000 1.0000
25.0500 770.0000 1.0000
25.0600 755.0000 1.0000
25.0700 745.0000 1.0000
25.0800 758.0000 1.0000
25.0900 712.0000 1.0000
25.1000 704.0000 1.0000
25.1100 732.0000 1.0000
25.1200 761.0000 1.0000
25.1300 731.0000 1.0000
25.1400 716.0000 1.0000
25.1500 748.0000 1.0000
25.1600 744.0000 1.0000
25.1700 723.0000 1.0000
25.1800 744.0000 1.0000
25.1900 758.0000 1.0000
25.2000 730.0000 1.0000
25.2100 806.0000 1.0000
25.2200 728.0000 1.0000
25.2300 756.0000 1.0000
25.2400 765.0000 1.0000
25.2500 745.0000 1.0000
25.2600 743.0000 1.0000
25.2700 736.0000 1.0000
25.2800 758.0000 1.0000
25.2900 777.0000 1.0000
25.3000 759.0000 1.0000
25.3100 758.0000 1.0000
25.3200 747.0000 1.0000
25.3300 747.0000 1.0000
25.3400 762.0000 1.0000
25.3500 778.0000 1.0000
25.3600 730.0000 1.0000
25.3700 767.0000 1.0000
25.3800 721.0000 1.0000
25.3900 764.0000 1.0000
25.4000 728.0000 1.0000
25.4100 754.0000 1.0000
25.4200 748.0000 1.0000
25.4300 754.0000 1.0000
25.4400 722.0000 1.0000
25.4500 764.0000 1.0000
25.4600 711.0000 1.0000
25.4700 751.0000 1.0000
25.4800 749.0000 1.0000
25.4900 817.0000 1.0000
25.5000 746.0000 1.0000
25.5100 786.0000 1.0000
25.5200 744.0000 1.0000
25.5300 738.0000 1.0000
25.5400 800.0000 1.0000
25.5500 749.0000 1.0000
25.5600 774.0000 1.0000
25.5700 787.0000 1.0000
25.5800 760.0000 1.0000
25.5900 761.0000 1.0000
25.6000 743.0000 1.0000
25.6100 757.0000 1.0000
25.6200 719.0000 1.0000
25.6300 777.0000 1.0000
25.6400 749.0000 1.0000
25.6500 771.0000 1.0000
25.6600 776.0000 1.0000
25.6700 788.0000 1.0000
25.6800 792.0000 1.0000
25.6900 790.0000 1.0000
25.7000 781.0000 1.0000
25.7100 791.0000 1.0000
25.7200 721.0000 1.0000
25.7300 737.0000 1.0000
25.7400 756.0000 1.0000
25.7500 736.0000 1.0000
25.7600 734.0000 1.0000
25.7700 724.0000 1.0000
25.7800 723.0000 1.0000
25.7900 726.0000 1.0000
25.8000 799.0000 1.0000
25.8100 780.0000 1.0000
25.8200 795.0000 1.0000
25.8300 786.0000 1.0000
25.8400 771.0000 1.0000
25.8500 791.0000 1.0000
25.8600 783.0000 1.0000
25.8700 808.0000 1.0000
25.8800 820.0000 1.0000
25.8900 789.0000 1.0000
25.9000 817.0000 1.0000
25.9100 770.0000 1.0000
25.9200 815.0000 1.0000
25.9300 816.0000 1.0000
25.9400 792.0000 1.0000
25.9500 776.0000 1.0000
25.9600 797.0000 1.0000
25.9700 820.0000 1.0000
25.9800 837.0000 1.0000
25.9900 786.0000 1.0000
26.0000 783.0000 1.0000
26.0100 808.0000 1.0000
26.0200 855.0000 1.0000
26.0300 832.0000 1.0000
26.0400 845.0000 1.0000
26.0500 821.0000 1.0000
26.0600 829.0000 1.0000
26.0700 820.0000 1.0000
26.0800 857.0000 1.0000
26.0900 943.0000 1.0000
26.1000 916.0000 1.0000
26.1100 849.0000 1.0000
26.1200 864.0000 1.0000
26.1300 933.0000 1.0000
26.1400 931.0000 1.0000
26.1500 939.0000 1.0000
26.1600 1023.0000 1.0000
26.1700 998.0000 1.0000
26.1800 995.0000 1.0000
26.1900 992.0000 1.0000
26.2000 983.0000 1.0000
26.2100 1056.0000 1.0000
26.2200 1083.0000 1.0000
26.2300 1096.0000 1.0000
26.2400 1081.0000 1.0000
26.2500 1232.0000 1.0000
26.2600 1179.0000 1.0000
26.2700 1251.0000 1.0000
26.2800 1262.0000 1.0000
26.2900 1338.0000 1.0000
26.3000 1462.0000 1.0000
26.3100 1440.0000 1.0000
26.3200 1470.0000 1.0000
26.3300 1615.0000 1.0000
26.3400 1667.0000 1.0000
26.3500 1792.0000 1.0000
26.3600 1834.0000 1.0000
26.3700 1986.0000 1.0000
26.3800 2099.0000 1.0000
26.3900 2092.0000 1.0000
26.4000 2176.0000 1.0000
26.4100 2219.0000 1.0000
26.4200 2319.0000 1.0000
26.4300 2404.0000 1.0000
26.4400 2506.0000 1.0000
26.4500 2482.0000 1.0000
26.4600 2428.0000 1.0000
26.4700 2404.0000 1.0000
26.4800 2408.0000 1.0000
26.4900 2239.0000 1.0000
26.5000 2222.0000 1.0000
26.5100 2114.0000 1.0000
26.5200 2005.0000 1.0000
26.5300 1966.0000 1.0000
26.5400 1859.0000 1.0000
26.5500 1821.0000 1.0000
26.5600 1667.0000 1.0000
26.5700 1642.0000 1.0000
26.5800 1521.0000 1.0000
26.5900 1515.0000 1.0000
26.6000 1401.0000 1.0000
26.6100 1327.0000 1.0000
26.6200 1309.0000 1.0000
26.6300 1237.0000 1.0000
26.6400 1169.0000 1.0000
26.6500 1137.0000 1.0000
26.6600 1143.0000 1.0000
26.6700 1130.0000 1.0000
26.6800 1060.0000 1.0000
26.6900 1047.0000 1.0000
26.7000 1010.0000 1.0000
26.7100 976.0000 1.0000
26.7200 951.0000 1.0000
26.7300 956.0000 1.0000
26.7400 923.0000 1.0000
26.7500 935.0000 1.0000
26.7600 973.0000 1.0000
26.7700 881.0000 1.0000
26.7800 866.0000 1.0000
26.7900 844.0000 1.0000
26.8000 882.0000 1.0000
26.8100 857.0000 1.0000
26.8200 834.0000 1.0000
26.8300 856.0000 1.0000
26.8400 759.0000 1.0000
26.8500 828.0000 1.0000
26.8600 805.0000 1.0000
26.8700 824.0000 1.0000
26.8800 787.0000 1.0000
26.8900 806.0000 1.0000
26.9000 799.0000 1.0000
26.9100 791.0000 1.0000
26.9200 761.0000 1.0000
26.9300 768.0000 1.0000
26.9400 765.0000 1.0000
26.9500 754.0000 1.0000
26.9600 780.0000 1.0000
26.9700 746.0000 1.0000
26.9800 781.0000 1.0000
26.9900 716.0000 1.0000
27.0000 769.0000 1.0000
27.0100 709.0000 1.0000
27.0200 728.0000 1.0000
27.0300 786.0000 1.0000
27.0400 741.0000 1.0000
27.0500 729.0000 1.0000
27.0600 754.0000 1.0000
27.0700 790.0000 1.0000
27.0800 730.0000 1.0000
27.0900 732.0000 1.0000
27.1000 784.0000 1.0000
27.1100 746.0000 1.0000
27.1200 730.0000 1.0000
27.1300 735.0000 1.0000
27.1400 744.0000 1.0000
27.1500 731.0000 1.0000
27.1600 742.0000 1.0000
27.1700 749.0000 1.0000
27.1800 727.0000 1.0000
27.1900 717.0000 1.0000
27.2000 718.0000 1.0000
27.2100 701.0000 1.0000
27.2200 731.0000 1.0000
27.2300 673.0000 1.0000
27.2400 706.0000 1.0000
27.2500 694.0000 1.0000
27.2600 690.0000 1.0000
27.2700 737.0000 1.0000
27.2800 705.0000 1.0000
27.2900 675.0000 1.0000
27.3000 686.0000 1.0000
27.3100 697.0000 1.0000
27.3200 724.0000 1.0000
27.3300 700.0000 1.0000
27.3400 658.0000 1.0000
27.3500 704.0000 1.0000
27.3600 721.0000 1.0000
27.3700 711.0000 1.0000
27.3800 646.0000 1.0000
27.3900 673.0000 1.0000
27.4000 683.0000 1.0000
27.4100 693.0000 1.0000
27.4200 721.0000 1.0000
27.4300 706.0000 1.0000
27.4400 719.0000 1.0000
27.4500 705.0000 1.0000
27.4600 700.0000 1.0000
27.4700 695.0000 1.0000
27.4800 679.0000 1.0000
27.4900 649.0000 1.0000
27.5000 668.0000 1.0000
27.5100 676.0000 1.0000
27.5200 690.0000 1.0000
27.5300 669.0000 1.0000
27.5400 675.0000 1.0000
27.5500 698.0000 1.0000
27.5600 696.0000 1.0000
27.5700 696.0000 1.0000
27.5800 682.0000 1.0000
27.5900 692.0000 1.0000
27.6000 640.0000 1.0000
27.6100 655.0000 1.0000
27.6200 713.0000 1.0000
27.6300 722.0000 1.0000
27.6400 678.0000 1.0000
27.6500 704.0000 1.0000
27.6600 644.0000 1.0000
27.6700 625.0000 1.0000
27.6800 666.0000 1.0000
27.6900 699.0000 1.0000
27.7000 694.0000 1.0000
27.7100 650.0000 1.0000
27.7200 653.0000 1.0000
27.7300 660.0000 1.0000
27.7400 627.0000 1.0000
27.7500 659.0000 1.0000
27.7600 667.0000 1.0000
27.7700 679.0000 1.0000
27.7800 688.0000 1.0000
27.7900 664.0000 1.0000
27.8000 673.0000 1.0000
27.8100 648.0000 1.0000
27.8200 670.0000 1.0000
27.8300 662.0000 1.0000
27.8400 672.0000 1.0000
27.8500 646.0000 1.0000
27.8600 652.0000 1.0000
27.8700 700.0000 1.0000
27.8800 672.0000 1.0000
27.8900 688.0000 1.0000
27.9000 692.0000 1.0000
27.9100 669.0000 1.0000
27.9200 651.0000 1.0000
27.9300 642.0000 1.0000
27.9400 652.0000 1.0000
27.9500 654.0000 1.0000
27.9600 653.0000 1.0000
27.9700 652.0000 1.0000
27.9800 662.0000 1.0000
27.9900 672.0000 1.0000
28.0000 651.0000 1.0000
28.0100 678.0000 1.0000
28.0200 679.0000 1.0000
28.0300 628.0000 1.0000
28.0400 646.0000 1.0000
28.0500 658.0000 1.0000
28.0600 665.0000 1.0000
28.0700 654.0000 1.0000
28.0800 678.0000 1.0000
28.0900 655.0000 1.0000
28.1000 669.0000 1.0000
28.1100 594.0000 1.0000
28.1200 617.0000 1.0000
28.1300 658.0000 1.0000
28.1400 671.0000 1.0000
28.1500 680.0000 1.0000
28.1600 632.0000 1.0000
28.1700 615.0000 1.0000
28.1800 644.0000 1.0000
28.1900 663.0000 1.0000
28.2000 638.0000 1.0000
28.2100 672.0000 1.0000
28.2200 674.0000 1.0000
28.2300 649.0000 1.0000
28.2400 636.0000 1.0000
28.2500 612.0000 1.0000
28.2600 682.0000 1.0000
28.2700 644.0000 1.0000
28.2800 665.0000 1.0000
28.2900 645.0000 1.0000
28.3000 686.0000 1.0000
28.3100 658.0000 1.0000
28.3200 679.0000 1.0000
28.3300 689.0000 1.0000
28.3400 651.0000 1.0000
28.3500 669.0000 1.0000
28.3600 625.0000 1.0000
28.3700 661.0000 1.0000
28.3800 657.0000 1.0000
28.3900 710.0000 1.0000
28.4000 653.0000 1.0000
28.4100 671.0000 1.0000
28.4200 666.0000 1.0000
28.4300 680.0000 1.0000
28.4400 592.0000 1.0000
28.4500 676.0000 1.0000
28.4600 615.0000 1.0000
28.4700 647.0000 1.0000
28.4800 658.0000 1.0000
28.4900 617.0000 1.0000
28.5000 645.0000 1.0000
28.5100 640.0000 1.0000
28.5200 669.0000 1.0000
28.5300 628.0000 1.0000
28.5400 636.0000 1.0000
28.5500 611.0000 1.0000
28.5600 649.0000 1.0000
28.5700 660.0000 1.0000
28.5800 640.0000 1.0000
28.5900 663.0000 1.0000
28.6000 668.0000 1.0000
28.6100 647.0000 1.0000
28.6200 643.0000 1.0000
28.6300 633.0000 1.0000
28.6400 651.0000 1.0000
28.6500 651.0000 1.0000
28.6600 683.0000 1.0000
28.6700 668.0000 1.0000
28.6800 621.0000 1.0000
28.6900 620.0000 1.0000
28.7000 639.0000 1.0000
28.7100 635.0000 1.0000
28.7200 651.0000 1.0000
28.7300 626.0000 1.0000
28.7400 589.0000 1.0000
28.7500 600.0000 1.0000
28.7600 627.0000 1.0000
28.7700 656.0000 1.0000
28.7800 647.0000 1.0000
28.7900 662.0000 1.0000
28.8000 625.0000 1.0000
28.8100 658.0000 1.0000
28.8200 665.0000 1.0000
28.8300 629.0000 1.0000
28.8400 635.0000 1.0000
28.8500 650.0000 1.0000
28.8600 642.0000 1.0000
28.8700 611.0000 1.0000
28.8800 624.0000 1.0000
28.8900 640.0000 1.0000
28.9000 649.0000 1.0000
28.9100 630.0000 1.0000
28.9200 652.0000 1.0000
28.9300 614.0000 1.0000
28.9400 671.0000 1.0000
28.9500 629.0000 1.0000
28.9600 626.0000 1.0000
28.9700 618.0000 1.0000
28.9800 595.0000 1.0000
28.9900 626.0000 1.0000
29.0000 641.0000 1.0000
29.0100 587.0000 1.0000
29.0200 597.0000 1.0000
29.0300 583.0000 1.0000
29.0400 621.0000 1.0000
29.0500 590.0000 1.0000
29.0600 647.0000 1.0000
29.0700 614.0000 1.0000
29.0800 632.0000 1.0000
29.0900 637.0000 1.0000
29.1000 627.0000 1.0000
29.1100 604.0000 1.0000
29.1200 637.0000 1.0000
29.1300 638.0000 1.0000
29.1400 625.0000 1.0000
29.1500 636.0000 1.0000
29.1600 612.0000 1.0000
29.1700 655.0000 1.0000
29.1800 609.0000 1.0000
29.1900 641.0000 1.0000
29.2000 583.0000 1.0000
29.2100 629.0000 1.0000
29.2200 609.0000 1.0000
29.2300 605.0000 1.0000
29.2400 613.0000 1.0000
29.2500 617.0000 1.0000
29.2600 663.0000 1.0000
29.2700 630.0000 1.0000
29.2800 642.0000 1.0000
29.2900 630.0000 1.0000
29.3000 615.0000 1.0000
29.3100 585.0000 1.0000
29.3200 646.0000 1.0000
29.3300 599.0000 1.0000
29.3400 584.0000 1.0000
29.3500 637.0000 1.0000
29.3600 639.0000 1.0000
29.3700 609.0000 1.0000
29.3800 577.0000 1.0000
29.3900 587.0000 1.0000
29.4000 611.0000 1.0000
29.4100 611.0000 1.0000
29.4200 602.0000 1.0000
29.4300 623.0000 1.0000
29.4400 638.0000 1.0000
29.4500 609.0000 1.0000
29.4600 618.0000 1.0000
29.4700 651.0000 1.0000
29.4800 645.0000 1.0000
29.4900 619.0000 1.0000
29.5000 622.0000 1.0000
29.5100 617.0000 1.0000
29.5200 617.0000 1.0000
29.5300 626.0000 1.0000
29.5400 597.0000 1.0000
29.5500 583.0000 1.0000
29.5600 590.0000 1.0000
29.5700 623.0000 1.0000
29.5800 638.0000 1.0000
29.5900 661.0000 1.0000
29.6000 623.0000 1.0000
29.6100 632.0000 1.0000
29.6200 624.0000 1.0000
29.6300 605.0000 1.0000
29.6400 607.0000 1.0000
29.6500 611.0000 1.0000
29.6600 626.0000 1.0000
29.6700 648.0000 1.0000
29.6800 672.0000 1.0000
29.6900 643.0000 1.0000
29.7000 636.0000 1.0000
29.7100 596.0000 1.0000
29.7200 606.0000 1.0000
29.7300 601.0000 1.0000
29.7400 655.0000 1.0000
29.7500 593.0000 1.0000
29.7600 593.0000 1.0000
29.7700 596.0000 1.0000
29.7800 613.0000 1.0000
29.7900 597.0000 1.0000
29.8000 626.0000 1.0000
29.8100 600.0000 1.0000
29.8200 625.0000 1.0000
29.8300 597.0000 1.0000
29.8400 587.0000 1.0000
29.8500 589.0000 1.0000
29.8600 559.0000 1.0000
29.8700 598.0000 1.0000
29.8800 664.0000 1.0000
29.8900 631.0000 1.0000
29.9000 580.0000 1.0000
29.9100 556.0000 1.0000
29.9200 592.0000 1.0000
29.9300 635.0000 1.0000
29.9400 617.0000 1.0000
29.9500 588.0000 1.0000
29.9600 589.0000 1.0000
29.9700 607.0000 1.0000
29.9800 617.0000 1.0000
29.9900 570.0000 1.0000
30.0000 589.0000 1.0000
30.0100 600.0000 1.0000
30.0200 583.0000 1.0000
30.0300 591.0000 1.0000
30.0400 616.0000 1.0000
30.0500 597.0000 1.0000
30.0600 630.0000 1.0000
30.0700 586.0000 1.0000
30.0800 612.0000 1.0000
30.0900 607.0000 1.0000
30.1000 560.0000 1.0000
30.1100 626.0000 1.0000
30.1200 613.0000 1.0000
30.1300 644.0000 1.0000
30.1400 619.0000 1.0000
30.1500 628.0000 1.0000
30.1600 607.0000 1.0000
30.1700 594.0000 1.0000
30.1800 599.0000 1.0000
30.1900 606.0000 1.0000
30.2000 597.0000 1.0000
30.2100 591.0000 1.0000
30.2200 589.0000 1.0000
30.2300 583.0000 1.0000
30.2400 609.0000 1.0000
30.2500 592.0000 1.0000
30.2600 629.0000 1.0000
30.2700 630.0000 1.0000
30.2800 610.0000 1.0000
30.2900 609.0000 1.0000
30.3000 584.0000 1.0000
30.3100 589.0000 1.0000
30.3200 591.0000 1.0000
30.3300 601.0000 1.0000
30.3400 615.0000 1.0000
30.3500 605.0000 1.0000
30.3600 566.0000 1.0000
30.3700 582.0000 1.0000
30.3800 607.0000 1.0000
30.3900 605.0000 1.0000
30.4000 566.0000 1.0000
30.4100 602.0000 1.0000
30.4200 593.0000 1.0000
30.4300 604.0000 1.0000
30.4400 575.0000 1.0000
30.4500 566.0000 1.0000
30.4600 588.0000 1.0000
30.4700 598.0000 1.0000
30.4800 561.0000 1.0000
30.4900 570.0000 1.0000
30.5000 583.0000 1.0000
30.5100 605.0000 1.0000
30.5200 585.0000 1.0000
30.5300 560.0000 1.0000
30.5400 548.0000 1.0000
30.5500 568.0000 1.0000
30.5600 599.0000 1.0000
30.5700 616.0000 1.0000
30.5800 597.0000 1.0000
30.5900 533.0000 1.0000
30.6000 569.0000 1.0000
30.6100 569.0000 1.0000
30.6200 579.0000 1.0000
30.6300 579.0000 1.0000
30.6400 583.0000 1.0000
30.6500 589.0000 1.0000
30.6600 605.0000 1.0000
30.6700 566.0000 1.0000
30.6800 588.0000 1.0000
30.6900 579.0000 1.0000
30.7000 618.0000 1.0000
30.7100 603.0000 1.0000
30.7200 575.0000 1.0000
30.7300 529.0000 1.0000
30.7400 555.0000 1.0000
30.7500 562.0000 1.0000
30.7600 587.0000 1.0000
30.7700 605.0000 1.0000
30.7800 595.0000 1.0000
30.7900 573.0000 1.0000
30.8000 556.0000 1.0000
30.8100 574.0000 1.0000
30.8200 601.0000 1.0000
30.8300 565.0000 1.0000
30.8400 576.0000 1.0000
30.8500 564.0000 1.0000
30.8600 538.0000 1.0000
30.8700 571.0000 1.0000
30.8800 550.0000 1.0000
30.8900 559.0000 1.0000
30.9000 534.0000 1.0000
30.9100 589.0000 1.0000
30.9200 564.0000 1.0000
30.9300 567.0000 1.0000
30.9400 566.0000 1.0000
30.9500 591.0000 1.0000
30.9600 609.0000 1.0000
30.9700 567.0000 1.0000
30.9800 566.0000 1.0000
30.9900 556.0000 1.0000
31.0000 583.0000 1.0000
31.0100 558.0000 1.0000
31.0200 564.0000 1.0000
31.0300 625.0000 1.0000
31.0400 585.0000 1.0000
31.0500 583.0000 1.0000
31.0600 585.0000 1.0000
31.0700 598.0000 1.0000
31.0800 604.0000 1.0000
31.0900 612.0000 1.0000
31.1000 635.0000 1.0000
31.1100 591.0000 1.0000
31.1200 582.0000 1.0000
31.1300 571.0000 1.0000
31.1400 569.0000 1.0000
31.1500 644.0000 1.0000
31.1600 626.0000 1.0000
31.1700 574.0000 1.0000
31.1800 573.0000 1.0000
31.1900 571.0000 1.0000
31.2000 580.0000 1.0000
31.2100 589.0000 1.0000
31.2200 594.0000 1.0000
31.2300 575.0000 1.0000
31.2400 586.0000 1.0000
31.2500 564.0000 1.0000
31.2600 569.0000 1.0000
31.2700 593.0000 1.0000
31.2800 560.0000 1.0000
31.2900 586.0000 1.0000
31.3000 611.0000 1.0000
31.3100 558.0000 1.0000
31.3200 560.0000 1.0000
31.3300 567.0000 1.0000
31.3400 596.0000 1.0000
31.3500 561.0000 1.0000
31.3600 606.0000 1.0000
31.3700 559.0000 1.0000
31.3800 521.0000 1.0000
31.3900 576.0000 1.0000
31.4000 591.0000 1.0000
31.4100 556.0000 1.0000
31.4200 565.0000 1.0000
31.4300 579.0000 1.0000
31.4400 587.0000 1.0000
31.4500 520.0000 1.0000
31.4600 568.0000 1.0000
31.4700 545.0000 1.0000
31.4800 584.0000 1.0000
31.4900 538.0000 1.0000
31.5000 549.0000 1.0000
31.5100 558.0000 1.0000
31.5200 565.0000 1.0000
31.5300 563.0000 1.0000
31.5400 524.0000 1.0000
31.5500 526.0000 1.0000
31.5600 561.0000 1.0000
31.5700 560.0000 1.0000
31.5800 558.0000 1.0000
31.5900 563.0000 1.0000
31.6000 536.0000 1.0000
31.6100 550.0000 1.0000
31.6200 552.0000 1.0000
31.6300 554.0000 1.0000
31.6400 556.0000 1.0000
31.6500 563.0000 1.0000
31.6600 558.0000 1.0000
31.6700 549.0000 1.0000
31.6800 534.0000 1.0000
31.6900 556.0000 1.0000
31.7000 549.0000 1.0000
31.7100 538.0000 1.0000
31.7200 574.0000 1.0000
31.7300 584.0000 1.0000
31.7400 555.0000 1.0000
31.7500 527.0000 1.0000
31.7600 588.0000 1.0000
31.7700 562.0000 1.0000
31.7800 541.0000 1.0000
31.7900 553.0000 1.0000
31.8000 551.0000 1.0000
31.8100 538.0000 1.0000
31.8200 522.0000 1.0000
31.8300 568.0000 1.0000
31.8400 552.0000 1.0000
31.8500 578.0000 1.0000
31.8600 597.0000 1.0000
31.8700 545.0000 1.0000
31.8800 560.0000 1.0000
31.8900 544.0000 1.0000
31.9000 531.0000 1.0000
31.9100 548.0000 1.0000
31.9200 506.0000 1.0000
31.9300 530.0000 1.0000
31.9400 527.0000 1.0000
31.9500 539.0000 1.0000
31.9600 531.0000 1.0000
31.9700 551.0000 1.0000
31.9800 559.0000 1.0000
31.9900 568.0000 1.0000
32.0000 553.0000 1.0000
32.0100 596.0000 1.0000
32.0200 595.0000 1.0000
32.0300 576.0000 1.0000
32.0400 529.0000 1.0000
32.0500 502.0000 1.0000
32.0600 554.0000 1.0000
32.0700 527.0000 1.0000
32.0800 580.0000 1.0000
32.0900 508.0000 1.0000
32.1000 588.0000 1.0000
32.1100 523.0000 1.0000
32.1200 554.0000 1.0000
32.1300 572.0000 1.0000
32.1400 523.0000 1.0000
32.1500 577.0000 1.0000
32.1600 538.0000 1.0000
32.1700 545.0000 1.0000
32.1800 548.0000 1.0000
32.1900 527.0000 1.0000
32.2000 541.0000 1.0000
32.2100 558.0000 1.0000
32.2200 543.0000 1.0000
32.2300 509.0000 1.0000
32.2400 515.0000 1.0000
32.2500 521.0000 1.0000
32.2600 555.0000 1.0000
32.2700 536.0000 1.0000
32.2800 572.0000 1.0000
32.2900 546.0000 1.0000
32.3000 547.0000 1.0000
32.3100 538.0000 1.0000
32.3200 554.0000 1.0000
32.3300 546.0000 1.0000
32.3400 533.0000 1.0000
32.3500 544.0000 1.0000
32.3600 557.0000 1.0000
32.3700 542.0000 1.0000
32.3800 553.0000 1.0000
32.3900 505.0000 1.0000
32.4000 544.0000 1.0000
32.4100 505.0000 1.0000
32.4200 536.0000 1.0000
32.4300 532.0000 1.0000
32.4400 539.0000 1.0000
32.4500 544.0000 1.0000
32.4600 534.0000 1.0000
32.4700 511.0000 1.0000
32.4800 549.0000 1.0000
32.4900 561.0000 1.0000
32.5000 529.0000 1.0000
32.5100 571.0000 1.0000
32.5200 555.0000 1.0000
32.5300 550.0000 1.0000
32.5400 522.0000 1.0000
32.5500 556.0000 1.0000
32.5600 530.0000 1.0000
32.5700 537.0000 1.0000
32.5800 556.0000 1.0000
32.5900 573.0000 1.0000
32.6000 580.0000 1.0000
32.6100 507.0000 1.0000
32.6200 537.0000 1.0000
32.6300 547.0000 1.0000
32.6400 561.0000 1.0000
32.6500 561.0000 1.0000
32.6600 575.0000 1.0000
32.6700 551.0000 1.0000
32.6800 535.0000 1.0000
32.6900 531.0000 1.0000
32.7000 554.0000 1.0000
32.7100 543.0000 1.0000
32.7200 552.0000 1.0000
32.7300 552.0000 1.0000
32.7400 563.0000 1.0000
32.7500 507.0000 1.0000
32.7600 505.0000 1.0000
32.7700 527.0000 1.0000
32.7800 538.0000 1.0000
32.7900 530.0000 1.0000
32.8000 529.0000 1.0000
32.8100 548.0000 1.0000
32.8200 543.0000 1.0000
32.8300 530.0000 1.0000
32.8400 522.0000 1.0000
32.8500 529.0000 1.0000
32.8600 563.0000 1.0000
32.8700 558.0000 1.0000
32.8800 528.0000 1.0000
32.8900 594.0000 1.0000
32.9000 556.0000 1.0000
32.9100 565.0000 1.0000
32.9200 565.0000 1.0000
32.9300 552.0000 1.0000
32.9400 559.0000 1.0000
32.9500 563.0000 1.0000
32.9600 575.0000 1.0000
32.9700 556.0000 1.0000
32.9800 590.0000 1.0000
32.9900 593.0000 1.0000
33.0000 579.0000 1.0000
33.0100 613.0000 1.0000
33.0200 605.0000 1.0000
33.0300 617.0000 1.0000
33.0400 588.0000 1.0000
33.0500 623.0000 1.0000
33.0600 593.0000 1.0000
33.0700 612.0000 1.0000
33.0800 641.0000 1.0000
33.0900 647.0000 1.0000
33.1000 642.0000 1.0000
33.1100 622.0000 1.0000
33.1200 655.0000 1.0000
33.1300 626.0000 1.0000
33.1400 655.0000 1.0000
33.1500 670.0000 1.0000
33.1600 659.0000 1.0000
33.1700 577.0000 1.0000
33.1800 618.0000 1.0000
33.1900 651.0000 1.0000
33.2000 615.0000 1.0000
33.2100 602.0000 1.0000
33.2200 602.0000 1.0000
33.2300 630.0000 1.0000
33.2400 618.0000 1.0000
33.2500 631.0000 1.0000
33.2600 639.0000 1.0000
33.2700 619.0000 1.0000
33.2800 580.0000 1.0000
33.2900 601.0000 1.0000
33.3000 592.0000 1.0000
33.3100 629.0000 1.0000
33.3200 588.0000 1.0000
33.3300 644.0000 1.0000
33.3400 602.0000 1.0000
33.3500 613.0000 1.0000
33.3600 601.0000 1.0000
33.3700 606.0000 1.0000
33.3800 612.0000 1.0000
33.3900 633.0000 1.0000
33.4000 650.0000 1.0000
33.4100 637.0000 1.0000
33.4200 650.0000 1.0000
33.4300 682.0000 1.0000
33.4400 668.0000 1.0000
33.4500 677.0000 1.0000
33.4600 716.0000 1.0000
33.4700 706.0000 1.0000
33.4800 751.0000 1.0000
33.4900 777.0000 1.0000
33.5000 806.0000 1.0000
33.5100 756.0000 1.0000
33.5200 814.0000 1.0000
33.5300 900.0000 1.0000
33.5400 916.0000 1.0000
33.5500 925.0000 1.0000
33.5600 978.0000 1.0000
33.5700 1000.0000 1.0000
33.5800 1036.0000 1.0000
33.5900 1137.0000 1.0000
33.6000 1101.0000 1.0000
33.6100 1223.0000 1.0000
33.6200 1232.0000 1.0000
33.6300 1292.0000 1.0000
33.6400 1286.0000 1.0000
33.6500 1307.0000 1.0000
33.6600 1332.0000 1.0000
33.6700 1343.0000 1.0000
33.6800 1290.0000 1.0000
33.6900 1188.0000 1.0000
33.7000 1223.0000 1.0000
33.7100 1196.0000 1.0000
33.7200 1177.0000 1.0000
33.7300 1157.0000 1.0000
33.7400 1107.0000 1.0000
33.7500 1047.0000 1.0000
33.7600 1038.0000 1.0000
33.7700 969.0000 1.0000
33.7800 941.0000 1.0000
33.7900 927.0000 1.0000
33.8000 933.0000 1.0000
33.8100 851.0000 1.0000
33.8200 810.0000 1.0000
33.8300 823.0000 1.0000
33.8400 749.0000 1.0000
33.8500 742.0000 1.0000
33.8600 702.0000 1.0000
33.8700 689.0000 1.0000
33.8800 716.0000 1.0000
33.8900 706.0000 1.0000
33.9000 672.0000 1.0000
33.9100 654.0000 1.0000
33.9200 650.0000 1.0000
33.9300 596.0000 1.0000
33.9400 654.0000 1.0000
33.9500 605.0000 1.0000
33.9600 619.0000 1.0000
33.9700 609.0000 1.0000
33.9800 608.0000 1.0000
33.9900 583.0000 1.0000
34.0000 596.0000 1.0000
34.0100 581.0000 1.0000
34.0200 556.0000 1.0000
34.0300 569.0000 1.0000
34.0400 596.0000 1.0000
34.0500 557.0000 1.0000
34.0600 514.0000 1.0000
34.0700 545.0000 1.0000
34.0800 584.0000 1.0000
34.0900 537.0000 1.0000
34.1000 525.0000 1.0000
34.1100 538.0000 1.0000
34.1200 505.0000 1.0000
34.1300 503.0000 1.0000
34.1400 492.0000 1.0000
34.1500 507.0000 1.0000
34.1600 534.0000 1.0000
34.1700 518.0000 1.0000
34.1800 490.0000 1.0000
34.1900 497.0000 1.0000
34.2000 488.0000 1.0000
34.2100 540.0000 1.0000
34.2200 456.0000 1.0000
34.2300 489.0000 1.0000
34.2400 499.0000 1.0000
34.2500 500.0000 1.0000
34.2600 496.0000 1.0000
34.2700 519.0000 1.0000
34.2800 548.0000 1.0000
34.2900 525.0000 1.0000
34.3000 532.0000 1.0000
34.3100 482.0000 1.0000
34.3200 501.0000 1.0000
34.3300 498.0000 1.0000
34.3400 520.0000 1.0000
34.3500 512.0000 1.0000
34.3600 486.0000 1.0000
34.3700 445.0000 1.0000
34.3800 513.0000 1.0000
34.3900 541.0000 1.0000
34.4000 528.0000 1.0000
34.4100 500.0000 1.0000
34.4200 503.0000 1.0000
34.4300 494.0000 1.0000
34.4400 505.0000 1.0000
34.4500 474.0000 1.0000
34.4600 478.0000 1.0000
34.4700 471.0000 1.0000
34.4800 475.0000 1.0000
34.4900 520.0000 1.0000
34.5000 473.0000 1.0000
34.5100 472.0000 1.0000
34.5200 479.0000 1.0000
34.5300 499.0000 1.0000
34.5400 509.0000 1.0000
34.5500 517.0000 1.0000
34.5600 510.0000 1.0000
34.5700 504.0000 1.0000
34.5800 518.0000 1.0000
34.5900 467.0000 1.0000
34.6000 484.0000 1.0000
34.6100 480.0000 1.0000
34.6200 511.0000 1.0000
34.6300 481.0000 1.0000
34.6400 474.0000 1.0000
34.6500 478.0000 1.0000
34.6600 472.0000 1.0000
34.6700 450.0000 1.0000
34.6800 508.0000 1.0000
34.6900 474.0000 1.0000
34.7000 479.0000 1.0000
34.7100 484.0000 1.0000
34.7200 507.0000 1.0000
34.7300 508.0000 1.0000
34.7400 492.0000 1.0000
34.7500 452.0000 1.0000
34.7600 481.0000 1.0000
34.7700 468.0000 1.0000
34.7800 472.0000 1.0000
34.7900 445.0000 1.0000
34.8000 494.0000 1.0000
34.8100 493.0000 1.0000
34.8200 452.0000 1.0000
34.8300 494.0000 1.0000
34.8400 485.0000 1.0000
34.8500 442.0000 1.0000
34.8600 459.0000 1.0000
34.8700 456.0000 1.0000
34.8800 487.0000 1.0000
34.8900 508.0000 1.0000
34.9000 478.0000 1.0000
34.9100 447.0000 1.0000
34.9200 454.0000 1.0000
34.9300 496.0000 1.0000
34.9400 460.0000 1.0000
34.9500 449.0000 1.0000
34.9600 473.0000 1.0000
34.9700 455.0000 1.0000
34.9800 488.0000 1.0000
34.9900 457.0000 1.0000
35.0000 476.0000 1.0000
35.0100 474.0000 1.0000
35.0200 474.0000 1.0000
35.0300 454.0000 1.0000
35.0400 456.0000 1.0000
35.0500 471.0000 1.0000
35.0600 464.0000 1.0000
35.0700 471.0000 1.0000
35.0800 490.0000 1.0000
35.0900 470.0000 1.0000
35.1000 442.0000 1.0000
35.1100 467.0000 1.0000
35.1200 475.0000 1.0000
35.1300 502.0000 1.0000
35.1400 465.0000 1.0000
35.1500 461.0000 1.0000
35.1600 471.0000 1.0000
35.1700 471.0000 1.0000
35.1800 490.0000 1.0000
35.1900 486.0000 1.0000
35.2000 468.0000 1.0000
35.2100 495.0000 1.0000
35.2200 466.0000 1.0000
35.2300 439.0000 1.0000
35.2400 442.0000 1.0000
35.2500 449.0000 1.0000
35.2600 463.0000 1.0000
35.2700 516.0000 1.0000
35.2800 494.0000 1.0000
35.2900 485.0000 1.0000
35.3000 477.0000 1.0000
35.3100 480.0000 1.0000
35.3200 482.0000 1.0000
35.3300 492.0000 1.0000
35.3400 475.0000 1.0000
35.3500 515.0000 1.0000
35.3600 557.0000 1.0000
35.3700 534.0000 1.0000
35.3800 522.0000 1.0000
35.3900 523.0000 1.0000
35.4000 555.0000 1.0000
35.4100 537.0000 1.0000
35.4200 552.0000 1.0000
35.4300 587.0000 1.0000
35.4400 612.0000 1.0000
35.4500 623.0000 1.0000
35.4600 567.0000 1.0000
35.4700 637.0000 1.0000
35.4800 635.0000 1.0000
35.4900 714.0000 1.0000
35.5000 663.0000 1.0000
35.5100 739.0000 1.0000
35.5200 783.0000 1.0000
35.5300 834.0000 1.0000
35.5400 825.0000 1.0000
35.5500 883.0000 1.0000
35.5600 916.0000 1.0000
35.5700 912.0000 1.0000
35.5800 876.0000 1.0000
35.5900 877.0000 1.0000
35.6000 865.0000 1.0000
35.6100 890.0000 1.0000
35.6200 855.0000 1.0000
35.6300 840.0000 1.0000
35.6400 821.0000 1.0000
35.6500 803.0000 1.0000
35.6600 791.0000 1.0000
35.6700 752.0000 1.0000
35.6800 749.0000 1.0000
35.6900 708.0000 1.0000
35.7000 664.0000 1.0000
35.7100 615.0000 1.0000
35.7200 597.0000 1.0000
35.7300 611.0000 1.0000
35.7400 577.0000 1.0000
35.7500 580.0000 1.0000
35.7600 538.0000 1.0000
35.7700 539.0000 1.0000
35.7800 496.0000 1.0000
35.7900 527.0000 1.0000
35.8000 520.0000 1.0000
35.8100 496.0000 1.0000
35.8200 473.0000 1.0000
35.8300 483.0000 1.0000
35.8400 491.0000 1.0000
35.8500 452.0000 1.0000
35.8600 473.0000 1.0000
35.8700 441.0000 1.0000
35.8800 436.0000 1.0000
35.8900 484.0000 1.0000
35.9000 435.0000 1.0000
35.9100 463.0000 1.0000
35.9200 466.0000 1.0000
35.9300 445.0000 1.0000
35.9400 488.0000 1.0000
35.9500 422.0000 1.0000
35.9600 448.0000 1.0000
35.9700 439.0000 1.0000
35.9800 472.0000 1.0000
35.9900 431.0000 1.0000
36.0000 434.0000 1.0000
36.0100 450.0000 1.0000
36.0200 461.0000 1.0000
36.0300 463.0000 1.0000
36.0400 448.0000 1.0000
36.0500 440.0000 1.0000
36.0600 428.0000 1.0000
36.0700 450.0000 1.0000
36.0800 398.0000 1.0000
36.0900 444.0000 1.0000
36.1000 420.0000 1.0000
36.1100 426.0000 1.0000
36.1200 423.0000 1.0000
36.1300 444.0000 1.0000
36.1400 438.0000 1.0000
36.1500 417.0000 1.0000
36.1600 445.0000 1.0000
36.1700 410.0000 1.0000
36.1800 432.0000 1.0000
36.1900 424.0000 1.0000
36.2000 411.0000 1.0000
36.2100 433.0000 1.0000
36.2200 414.0000 1.0000
36.2300 424.0000 1.0000
36.2400 391.0000 1.0000
36.2500 430.0000 1.0000
36.2600 433.0000 1.0000
36.2700 434.0000 1.0000
36.2800 438.0000 1.0000
36.2900 440.0000 1.0000
36.3000 459.0000 1.0000
36.3100 421.0000 1.0000
36.3200 427.0000 1.0000
36.3300 419.0000 1.0000
36.3400 390.0000 1.0000
36.3500 414.0000 1.0000
36.3600 426.0000 1.0000
36.3700 411.0000 1.0000
36.3800 437.0000 1.0000
36.3900 394.0000 1.0000
36.4000 445.0000 1.0000
36.4100 411.0000 1.0000
36.4200 424.0000 1.0000
36.4300 403.0000 1.0000
36.4400 427.0000 1.0000
36.4500 449.0000 1.0000
36.4600 460.0000 1.0000
36.4700 418.0000 1.0000
36.4800 408.0000 1.0000
36.4900 407.0000 1.0000
36.5000 412.0000 1.0000
36.5100 403.0000 1.0000
36.5200 438.0000 1.0000
36.5300 428.0000 1.0000
36.5400 464.0000 1.0000
36.5500 486.0000 1.0000
36.5600 431.0000 1.0000
36.5700 417.0000 1.0000
36.5800 437.0000 1.0000
36.5900 429.0000 1.0000
36.6000 429.0000 1.0000
36.6100 437.0000 1.0000
36.6200 432.0000 1.0000
36.6300 436.0000 1.0000
36.6400 439.0000 1.0000
36.6500 418.0000 1.0000
36.6600 432.0000 1.0000
36.6700 409.0000 1.0000
36.6800 450.0000 1.0000
36.6900 371.0000 1.0000
36.7000 413.0000 1.0000
36.7100 429.0000 1.0000
36.7200 416.0000 1.0000
36.7300 425.0000 1.0000
36.7400 348.0000 1.0000
36.7500 428.0000 1.0000
36.7600 435.0000 1.0000
36.7700 430.0000 1.0000
36.7800 435.0000 1.0000
36.7900 458.0000 1.0000
36.8000 406.0000 1.0000
36.8100 448.0000 1.0000
36.8200 411.0000 1.0000
36.8300 425.0000 1.0000
36.8400 459.0000 1.0000
36.8500 399.0000 1.0000
36.8600 422.0000 1.0000
36.8700 407.0000 1.0000
36.8800 438.0000 1.0000
36.8900 402.0000 1.0000
36.9000 415.0000 1.0000
36.9100 446.0000 1.0000
36.9200 438.0000 1.0000
36.9300 398.0000 1.0000
36.9400 448.0000 1.0000
36.9500 422.0000 1.0000
36.9600 415.0000 1.0000
36.9700 398.0000 1.0000
36.9800 422.0000 1.0000
36.9900 428.0000 1.0000
37.0000 429.0000 1.0000
37.0100 462.0000 1.0000
37.0200 441.0000 1.0000
37.0300 462.0000 1.0000
37.0400 448.0000 1.0000
37.0500 465.0000 1.0000
37.0600 465.0000 1.0000
37.0700 430.0000 1.0000
37.0800 416.0000 1.0000
37.0900 422.0000 1.0000
37.1000 427.0000 1.0000
37.1100 418.0000 1.0000
37.1200 429.0000 1.0000
37.1300 444.0000 1.0000
37.1400 437.0000 1.0000
37.1500 440.0000 1.0000
37.1600 435.0000 1.0000
37.1700 428.0000 1.0000
37.1800 454.0000 1.0000
37.1900 460.0000 1.0000
37.2000 407.0000 1.0000
37.2100 419.0000 1.0000
37.2200 436.0000 1.0000
37.2300 465.0000 1.0000
37.2400 445.0000 1.0000
37.2500 450.0000 1.0000
37.2600 466.0000 1.0000
37.2700 439.0000 1.0000
37.2800 486.0000 1.0000
37.2900 461.0000 1.0000
37.3000 488.0000 1.0000
37.3100 514.0000 1.0000
37.3200 474.0000 1.0000
37.3300 490.0000 1.0000
37.3400 487.0000 1.0000
37.3500 533.0000 1.0000
37.3600 535.0000 1.0000
37.3700 532.0000 1.0000
37.3800 551.0000 1.0000
37.3900 557.0000 1.0000
37.4000 573.0000 1.0000
37.4100 581.0000 1.0000
37.4200 587.0000 1.0000
37.4300 637.0000 1.0000
37.4400 646.0000 1.0000
37.4500 621.0000 1.0000
37.4600 645.0000 1.0000
37.4700 698.0000 1.0000
37.4800 724.0000 1.0000
37.4900 774.0000 1.0000
37.5000 792.0000 1.0000
37.5100 818.0000 1.0000
37.5200 845.0000 1.0000
37.5300 942.0000 1.0000
37.5400 978.0000 1.0000
37.5500 987.0000 1.0000
37.5600 1057.0000 1.0000
37.5700 1140.0000 1.0000
37.5800 1218.0000 1.0000
37.5900 1286.0000 1.0000
37.6000 1329.0000 1.0000
37.6100 1436.0000 1.0000
37.6200 1489.0000 1.0000
37.6300 1574.0000 1.0000
37.6400 1650.0000 1.0000
37.6500 1838.0000 1.0000
37.6600 1847.0000 1.0000
37.6700 1914.0000 1.0000
37.6800 1958.0000 1.0000
37.6900 1932.0000 1.0000
37.7000 1995.0000 1.0000
37.7100 2083.0000 1.0000
37.7200 2046.0000 1.0000
37.7300 2059.0000 1.0000
37.7400 1981.0000 1.0000
37.7500 2016.0000 1.0000
37.7600 2037.0000 1.0000
37.7700 1925.0000 1.0000
37.7800 1912.0000 1.0000
37.7900 1836.0000 1.0000
37.8000 1745.0000 1.0000
37.8100 1695.0000 1.0000
37.8200 1575.0000 1.0000
37.8300 1434.0000 1.0000
37.8400 1365.0000 1.0000
37.8500 1360.0000 1.0000
37.8600 1305.0000 1.0000
37.8700 1234.0000 1.0000
37.8800 1166.0000 1.0000
37.8900 1071.0000 1.0000
37.9000 1037.0000 1.0000
37.9100 1009.0000 1.0000
37.9200 893.0000 1.0000
37.9300 839.0000 1.0000
37.9400 817.0000 1.0000
37.9500 798.0000 1.0000
37.9600 726.0000 1.0000
37.9700 683.0000 1.0000
37.9800 703.0000 1.0000
37.9900 640.0000 1.0000
38.0000 644.0000 1.0000
38.0100 623.0000 1.0000
38.0200 558.0000 1.0000
38.0300 571.0000 1.0000
38.0400 542.0000 1.0000
38.0500 534.0000 1.0000
38.0600 524.0000 1.0000
38.0700 491.0000 1.0000
38.0800 514.0000 1.0000
38.0900 518.0000 1.0000
38.1000 515.0000 1.0000
38.1100 471.0000 1.0000
38.1200 474.0000 1.0000
38.1300 492.0000 1.0000
38.1400 484.0000 1.0000
38.1500 469.0000 1.0000
38.1600 454.0000 1.0000
38.1700 422.0000 1.0000
38.1800 425.0000 1.0000
38.1900 464.0000 1.0000
38.2000 437.0000 1.0000
38.2100 405.0000 1.0000
38.2200 422.0000 1.0000
38.2300 434.0000 1.0000
38.2400 413.0000 1.0000
38.2500 403.0000 1.0000
38.2600 409.0000 1.0000
38.2700 419.0000 1.0000
38.2800 389.0000 1.0000
38.2900 425.0000 1.0000
38.3000 438.0000 1.0000
38.3100 380.0000 1.0000
38.3200 450.0000 1.0000
38.3300 407.0000 1.0000
38.3400 395.0000 1.0000
38.3500 409.0000 1.0000
38.3600 406.0000 1.0000
38.3700 426.0000 1.0000
38.3800 403.0000 1.0000
38.3900 408.0000 1.0000
38.4000 365.0000 1.0000
38.4100 383.0000 1.0000
38.4200 355.0000 1.0000
38.4300 381.0000 1.0000
38.4400 392.0000 1.0000
38.4500 422.0000 1.0000
38.4600 407.0000 1.0000
38.4700 413.0000 1.0000
38.4800 410.0000 1.0000
38.4900 429.0000 1.0000
38.5000 407.0000 1.0000
38.5100 375.0000 1.0000
38.5200 397.0000 1.0000
38.5300 378.0000 1.0000
38.5400 382.0000 1.0000
38.5500 391.0000 1.0000
38.5600 388.0000 1.0000
38.5700 368.0000 1.0000
38.5800 412.0000 1.0000
38.5900 419.0000 1.0000
38.6000 417.0000 1.0000
38.6100 400.0000 1.0000
38.6200 369.0000 1.0000
38.6300 360.0000 1.0000
38.6400 359.0000 1.0000
38.6500 350.0000 1.0000
38.6600 422.0000 1.0000
38.6700 400.0000 1.0000
38.6800 410.0000 1.0000
38.6900 427.0000 1.0000
38.7000 408.0000 1.0000
38.7100 372.0000 1.0000
38.7200 405.0000 1.0000
38.7300 370.0000 1.0000
38.7400 377.0000 1.0000
38.7500 426.0000 1.0000
38.7600 451.0000 1.0000
38.7700 403.0000 1.0000
38.7800 418.0000 1.0000
38.7900 388.0000 1.0000
38.8000 413.0000 1.0000
38.8100 376.0000 1.0000
38.8200 379.0000 1.0000
38.8300 385.0000 1.0000
38.8400 389.0000 1.0000
38.8500 408.0000 1.0000
38.8600 435.0000 1.0000
38.8700 420.0000 1.0000
38.8800 353.0000 1.0000
38.8900 374.0000 1.0000
38.9000 406.0000 1.0000
38.9100 392.0000 1.0000
38.9200 415.0000 1.0000
38.9300 401.0000 1.0000
38.9400 399.0000 1.0000
38.9500 397.0000 1.0000
38.9600 387.0000 1.0000
38.9700 399.0000 1.0000
38.9800 401.0000 1.0000
38.9900 407.0000 1.0000
39.0000 417.0000 1.0000
39.0100 394.0000 1.0000
39.0200 368.0000 1.0000
39.0300 370.0000 1.0000
39.0400 396.0000 1.0000
39.0500 367.0000 1.0000
39.0600 366.0000 1.0000
39.0700 343.0000 1.0000
39.0800 381.0000 1.0000
39.0900 364.0000 1.0000
39.1000 360.0000 1.0000
39.1100 356.0000 1.0000
39.1200 368.0000 1.0000
39.1300 397.0000 1.0000
39.1400 384.0000 1.0000
39.1500 386.0000 1.0000
39.1600 383.0000 1.0000
39.1700 356.0000 1.0000
39.1800 375.0000 1.0000
39.1900 364.0000 1.0000
39.2000 380.0000 1.0000
39.2100 353.0000 1.0000
39.2200 367.0000 1.0000
39.2300 390.0000 1.0000
39.2400 361.0000 1.0000
39.2500 355.0000 1.0000
39.2600 366.0000 1.0000
39.2700 389.0000 1.0000
39.2800 365.0000 1.0000
39.2900 362.0000 1.0000
39.3000 353.0000 1.0000
39.3100 386.0000 1.0000
39.3200 356.0000 1.0000
39.3300 349.0000 1.0000
39.3400 322.0000 1.0000
39.3500 371.0000 1.0000
39.3600 377.0000 1.0000
39.3700 365.0000 1.0000
39.3800 384.0000 1.0000
39.3900 337.0000 1.0000
39.4000 354.0000 1.0000
39.4100 342.0000 1.0000
39.4200 347.0000 1.0000
39.4300 361.0000 1.0000
39.4400 328.0000 1.0000
39.4500 355.0000 1.0000
39.4600 353.0000 1.0000
39.4700 337.0000 1.0000
39.4800 370.0000 1.0000
39.4900 358.0000 1.0000
39.5000 350.0000 1.0000
39.5100 361.0000 1.0000
39.5200 371.0000 1.0000
39.5300 360.0000 1.0000
39.5400 367.0000 1.0000
39.5500 347.0000 1.0000
39.5600 333.0000 1.0000
39.5700 345.0000 1.0000
39.5800 361.0000 1.0000
39.5900 329.0000 1.0000
39.6000 364.0000 1.0000
39.6100 337.0000 1.0000
39.6200 344.0000 1.0000
39.6300 354.0000 1.0000
39.6400 374.0000 1.0000
39.6500 383.0000 1.0000
39.6600 350.0000 1.0000
39.6700 353.0000 1.0000
39.6800 342.0000 1.0000
39.6900 379.0000 1.0000
39.7000 361.0000 1.0000
39.7100 370.0000 1.0000
39.7200 340.0000 1.0000
39.7300 360.0000 1.0000
39.7400 352.0000 1.0000
39.7500 349.0000 1.0000
39.7600 330.0000 1.0000
39.7700 353.0000 1.0000
39.7800 351.0000 1.0000
39.7900 381.0000 1.0000
39.8000 342.0000 1.0000
39.8100 354.0000 1.0000
39.8200 359.0000 1.0000
39.8300 360.0000 1.0000
39.8400 372.0000 1.0000
39.8500 350.0000 1.0000
39.8600 319.0000 1.0000
39.8700 374.0000 1.0000
39.8800 352.0000 1.0000
39.8900 348.0000 1.0000
39.9000 383.0000 1.0000
39.9100 353.0000 1.0000
39.9200 359.0000 1.0000
39.9300 354.0000 1.0000
39.9400 383.0000 1.0000
39.9500 382.0000 1.0000
39.9600 370.0000 1.0000
39.9700 324.0000 1.0000
39.9800 369.0000 1.0000
39.9900 351.0000 1.0000
40.0000 352.0000 1.0000
40.0100 353.0000 1.0000
40.0200 344.0000 1.0000
40.0300 342.0000 1.0000
40.0400 337.0000 1.0000
40.0500 346.0000 1.0000
40.0600 368.0000 1.0000
40.0700 337.0000 1.0000
40.0800 351.0000 1.0000
40.0900 339.0000 1.0000
40.1000 327.0000 1.0000
40.1100 316.0000 1.0000
40.1200 354.0000 1.0000
40.1300 367.0000 1.0000
40.1400 354.0000 1.0000
40.1500 338.0000 1.0000
40.1600 354.0000 1.0000
40.1700 343.0000 1.0000
40.1800 364.0000 1.0000
40.1900 392.0000 1.0000
40.2000 348.0000 1.0000
40.2100 342.0000 1.0000
40.2200 310.0000 1.0000
40.2300 335.0000 1.0000
40.2400 342.0000 1.0000
40.2500 374.0000 1.0000
40.2600 339.0000 1.0000
40.2700 348.0000 1.0000
40.2800 355.0000 1.0000
40.2900 353.0000 1.0000
40.3000 352.0000 1.0000
40.3100 336.0000 1.0000
40.3200 343.0000 1.0000
40.3300 352.0000 1.0000
40.3400 355.0000 1.0000
40.3500 333.0000 1.0000
40.3600 355.0000 1.0000
40.3700 349.0000 1.0000
40.3800 341.0000 1.0000
40.3900 380.0000 1.0000
40.4000 360.0000 1.0000
40.4100 328.0000 1.0000
40.4200 383.0000 1.0000
40.4300 396.0000 1.0000
40.4400 354.0000 1.0000
40.4500 393.0000 1.0000
40.4600 339.0000 1.0000
40.4700 357.0000 1.0000
40.4800 334.0000 1.0000
40.4900 375.0000 1.0000
40.5000 357.0000 1.0000
40.5100 380.0000 1.0000
40.5200 346.0000 1.0000
40.5300 334.0000 1.0000
40.5400 325.0000 1.0000
40.5500 331.0000 1.0000
40.5600 362.0000 1.0000
40.5700 344.0000 1.0000
40.5800 354.0000 1.0000
40.5900 377.0000 1.0000
40.6000 376.0000 1.0000
40.6100 317.0000 1.0000
40.6200 302.0000 1.0000
40.6300 323.0000 1.0000
40.6400 307.0000 1.0000
40.6500 352.0000 1.0000
40.6600 321.0000 1.0000
40.6700 354.0000 1.0000
40.6800 337.0000 1.0000
40.6900 354.0000 1.0000
40.7000 344.0000 1.0000
40.7100 343.0000 1.0000
40.7200 341.0000 1.0000
40.7300 366.0000 1.0000
40.7400 348.0000 1.0000
40.7500 349.0000 1.0000
40.7600 356.0000 1.0000
40.7700 385.0000 1.0000
40.7800 375.0000 1.0000
40.7900 394.0000 1.0000
40.8000 373.0000 1.0000
40.8100 387.0000 1.0000
40.8200 381.0000 1.0000
40.8300 372.0000 1.0000
40.8400 373.0000 1.0000
40.8500 352.0000 1.0000
40.8600 357.0000 1.0000
40.8700 359.0000 1.0000
40.8800 345.0000 1.0000
40.8900 374.0000 1.0000
40.9000 342.0000 1.0000
40.9100 367.0000 1.0000
40.9200 378.0000 1.0000
40.9300 326.0000 1.0000
40.9400 369.0000 1.0000
40.9500 372.0000 1.0000
40.9600 368.0000 1.0000
40.9700 346.0000 1.0000
40.9800 344.0000 1.0000
40.9900 339.0000 1.0000
41.0000 337.0000 1.0000
41.0100 363.0000 1.0000
41.0200 370.0000 1.0000
41.0300 352.0000 1.0000
41.0400 361.0000 1.0000
41.0500 347.0000 1.0000
41.0600 332.0000 1.0000
41.0700 369.0000 1.0000
41.0800 358.0000 1.0000
41.0900 360.0000 1.0000
41.1000 362.0000 1.0000
41.1100 347.0000 1.0000
41.1200 363.0000 1.0000
41.1300 361.0000 1.0000
41.1400 345.0000 1.0000
41.1500 322.0000 1.0000
41.1600 331.0000 1.0000
41.1700 352.0000 1.0000
41.1800 338.0000 1.0000
41.1900 328.0000 1.0000
41.2000 323.0000 1.0000
41.2100 342.0000 1.0000
41.2200 331.0000 1.0000
41.2300 322.0000 1.0000
41.2400 338.0000 1.0000
41.2500 345.0000 1.0000
41.2600 351.0000 1.0000
41.2700 331.0000 1.0000
41.2800 316.0000 1.0000
41.2900 338.0000 1.0000
41.3000 339.0000 1.0000
41.3100 351.0000 1.0000
41.3200 402.0000 1.0000
41.3300 341.0000 1.0000
41.3400 345.0000 1.0000
41.3500 352.0000 1.0000
41.3600 318.0000 1.0000
41.3700 327.0000 1.0000
41.3800 334.0000 1.0000
41.3900 319.0000 1.0000
41.4000 367.0000 1.0000
41.4100 343.0000 1.0000
41.4200 353.0000 1.0000
41.4300 349.0000 1.0000
41.4400 333.0000 1.0000
41.4500 336.0000 1.0000
41.4600 342.0000 1.0000
41.4700 343.0000 1.0000
41.4800 365.0000 1.0000
41.4900 363.0000 1.0000
41.5000 351.0000 1.0000
41.5100 348.0000 1.0000
41.5200 382.0000 1.0000
41.5300 361.0000 1.0000
41.5400 348.0000 1.0000
41.5500 329.0000 1.0000
41.5600 337.0000 1.0000
41.5700 336.0000 1.0000
41.5800 328.0000 1.0000
41.5900 335.0000 1.0000
41.6000 309.0000 1.0000
41.6100 346.0000 1.0000
41.6200 358.0000 1.0000
41.6300 337.0000 1.0000
41.6400 358.0000 1.0000
41.6500 334.0000 1.0000
41.6600 333.0000 1.0000
41.6700 358.0000 1.0000
41.6800 343.0000 1.0000
41.6900 329.0000 1.0000
41.7000 357.0000 1.0000
41.7100 338.0000 1.0000
41.7200 331.0000 1.0000
41.7300 330.0000 1.0000
41.7400 318.0000 1.0000
41.7500 347.0000 1.0000
41.7600 350.0000 1.0000
41.7700 338.0000 1.0000
41.7800 364.0000 1.0000
41.7900 331.0000 1.0000
41.8000 340.0000 1.0000
41.8100 320.0000 1.0000
41.8200 362.0000 1.0000
41.8300 333.0000 1.0000
41.8400 338.0000 1.0000
41.8500 321.0000 1.0000
41.8600 322.0000 1.0000
41.8700 347.0000 1.0000
41.8800 331.0000 1.0000
41.8900 316.0000 1.0000
41.9000 355.0000 1.0000
41.9100 347.0000 1.0000
41.9200 343.0000 1.0000
41.9300 352.0000 1.0000
41.9400 348.0000 1.0000
41.9500 344.0000 1.0000
41.9600 357.0000 1.0000
41.9700 331.0000 1.0000
41.9800 342.0000 1.0000
41.9900 339.0000 1.0000
42.0000 345.0000 1.0000
42.0100 353.0000 1.0000
42.0200 328.0000 1.0000
42.0300 374.0000 1.0000
42.0400 343.0000 1.0000
42.0500 337.0000 1.0000
42.0600 329.0000 1.0000
42.0700 319.0000 1.0000
42.0800 346.0000 1.0000
42.0900 314.0000 1.0000
42.1000 331.0000 1.0000
42.1100 327.0000 1.0000
42.1200 308.0000 1.0000
42.1300 327.0000 1.0000
42.1400 327.0000 1.0000
42.1500 350.0000 1.0000
42.1600 336.0000 1.0000
42.1700 332.0000 1.0000
42.1800 324.0000 1.0000
42.1900 348.0000 1.0000
42.2000 348.0000 1.0000
42.2100 329.0000 1.0000
42.2200 357.0000 1.0000
42.2300 366.0000 1.0000
42.2400 338.0000 1.0000
42.2500 347.0000 1.0000
42.2600 345.0000 1.0000
42.2700 360.0000 1.0000
42.2800 304.0000 1.0000
42.2900 334.0000 1.0000
42.3000 355.0000 1.0000
42.3100 385.0000 1.0000
42.3200 354.0000 1.0000
42.3300 334.0000 1.0000
42.3400 357.0000 1.0000
42.3500 341.0000 1.0000
42.3600 405.0000 1.0000
42.3700 351.0000 1.0000
42.3800 374.0000 1.0000
42.3900 334.0000 1.0000
42.4000 391.0000 1.0000
42.4100 376.0000 1.0000
42.4200 379.0000 1.0000
42.4300 375.0000 1.0000
42.4400 387.0000 1.0000
42.4500 379.0000 1.0000
42.4600 390.0000 1.0000
42.4700 371.0000 1.0000
42.4800 392.0000 1.0000
42.4900 386.0000 1.0000
42.5000 366.0000 1.0000
42.5100 380.0000 1.0000
42.5200 378.0000 1.0000
42.5300 384.0000 1.0000
42.5400 406.0000 1.0000
42.5500 368.0000 1.0000
42.5600 366.0000 1.0000
42.5700 338.0000 1.0000
42.5800 323.0000 1.0000
42.5900 383.0000 1.0000
42.6000 326.0000 1.0000
42.6100 351.0000 1.0000
42.6200 339.0000 1.0000
42.6300 322.0000 1.0000
42.6400 357.0000 1.0000
42.6500 364.0000 1.0000
42.6600 343.0000 1.0000
42.6700 335.0000 1.0000
42.6800 361.0000 1.0000
42.6900 362.0000 1.0000
42.7000 290.0000 1.0000
42.7100 335.0000 1.0000
42.7200 338.0000 1.0000
42.7300 341.0000 1.0000
42.7400 352.0000 1.0000
42.7500 355.0000 1.0000
42.7600 336.0000 1.0000
42.7700 345.0000 1.0000
42.7800 312.0000 1.0000
42.7900 340.0000 1.0000
42.8000 342.0000 1.0000
42.8100 312.0000 1.0000
42.8200 349.0000 1.0000
42.8300 356.0000 1.0000
42.8400 338.0000 1.0000
42.8500 333.0000 1.0000
42.8600 340.0000 1.0000
42.8700 367.0000 1.0000
42.8800 356.0000 1.0000
42.8900 340.0000 1.0000
42.9000 349.0000 1.0000
42.9100 325.0000 1.0000
42.9200 325.0000 1.0000
42.9300 323.0000 1.0000
42.9400 325.0000 1.0000
42.9500 331.0000 1.0000
42.9600 351.0000 1.0000
42.9700 345.0000 1.0000
42.9800 381.0000 1.0000
42.9900 346.0000 1.0000
43.0000 331.0000 1.0000
43.0100 346.0000 1.0000
43.0200 347.0000 1.0000
43.0300 345.0000 1.0000
43.0400 354.0000 1.0000
43.0500 347.0000 1.0000
43.0600 351.0000 1.0000
43.0700 341.0000 1.0000
43.0800 338.0000 1.0000
43.0900 345.0000 1.0000
43.1000 332.0000 1.0000
43.1100 318.0000 1.0000
43.1200 323.0000 1.0000
43.1300 333.0000 1.0000
43.1400 348.0000 1.0000
43.1500 344.0000 1.0000
43.1600 303.0000 1.0000
43.1700 308.0000 1.0000
43.1800 319.0000 1.0000
43.1900 315.0000 1.0000
43.2000 328.0000 1.0000
43.2100 336.0000 1.0000
43.2200 322.0000 1.0000
43.2300 315.0000 1.0000
43.2400 345.0000 1.0000
43.2500 337.0000 1.0000
43.2600 334.0000 1.0000
43.2700 330.0000 1.0000
43.2800 336.0000 1.0000
43.2900 314.0000 1.0000
43.3000 319.0000 1.0000
43.3100 354.0000 1.0000
43.3200 324.0000 1.0000
43.3300 351.0000 1.0000
43.3400 324.0000 1.0000
43.3500 343.0000 1.0000
43.3600 314.0000 1.0000
43.3700 336.0000 1.0000
43.3800 310.0000 1.0000
43.3900 328.0000 1.0000
43.4000 354.0000 1.0000
43.4100 337.0000 1.0000
43.4200 307.0000 1.0000
43.4300 300.0000 1.0000
43.4400 337.0000 1.0000
43.4500 359.0000 1.0000
43.4600 329.0000 1.0000
43.4700 299.0000 1.0000
43.4800 295.0000 1.0000
43.4900 312.0000 1.0000
43.5000 312.0000 1.0000
43.5100 331.0000 1.0000
43.5200 323.0000 1.0000
43.5300 317.0000 1.0000
43.5400 319.0000 1.0000
43.5500 347.0000 1.0000
43.5600 328.0000 1.0000
43.5700 342.0000 1.0000
43.5800 334.0000 1.0000
43.5900 315.0000 1.0000
43.6000 331.0000 1.0000
43.6100 319.0000 1.0000
43.6200 343.0000 1.0000
43.6300 340.0000 1.0000
43.6400 332.0000 1.0000
43.6500 325.0000 1.0000
43.6600 313.0000 1.0000
43.6700 331.0000 1.0000
43.6800 323.0000 1.0000
43.6900 338.0000 1.0000
43.7000 305.0000 1.0000
43.7100 309.0000 1.0000
43.7200 316.0000 1.0000
43.7300 323.0000 1.0000
43.7400 311.0000 1.0000
43.7500 353.0000 1.0000
43.7600 308.0000 1.0000
43.7700 333.0000 1.0000
43.7800 360.0000 1.0000
43.7900 320.0000 1.0000
43.8000 320.0000 1.0000
43.8100 319.0000 1.0000
43.8200 335.0000 1.0000
43.8300 300.0000 1.0000
43.8400 336.0000 1.0000
43.8500 321.0000 1.0000
43.8600 329.0000 1.0000
43.8700 336.0000 1.0000
43.8800 337.0000 1.0000
43.8900 372.0000 1.0000
43.9000 339.0000 1.0000
43.9100 323.0000 1.0000
43.9200 315.0000 1.0000
43.9300 323.0000 1.0000
43.9400 306.0000 1.0000
43.9500 331.0000 1.0000
43.9600 316.0000 1.0000
43.9700 311.0000 1.0000
43.9800 342.0000 1.0000
43.9900 323.0000 1.0000
44.0000 324.0000 1.0000
44.0100 342.0000 1.0000
44.0200 313.0000 1.0000
44.0300 342.0000 1.0000
44.0400 321.0000 1.0000
44.0500 338.0000 1.0000
44.0600 338.0000 1.0000
44.0700 332.0000 1.0000
44.0800 342.0000 1.0000
44.0900 357.0000 1.0000
44.1000 312.0000 1.0000
44.1100 332.0000 1.0000
44.1200 319.0000 1.0000
44.1300 326.0000 1.0000
44.1400 297.0000 1.0000
44.1500 290.0000 1.0000
44.1600 319.0000 1.0000
44.1700 319.0000 1.0000
44.1800 352.0000 1.0000
44.1900 343.0000 1.0000
44.2000 347.0000 1.0000
44.2100 298.0000 1.0000
44.2200 323.0000 1.0000
44.2300 309.0000 1.0000
44.2400 300.0000 1.0000
44.2500 333.0000 1.0000
44.2600 321.0000 1.0000
44.2700 311.0000 1.0000
44.2800 325.0000 1.0000
44.2900 329.0000 1.0000
44.3000 332.0000 1.0000
44.3100 321.0000 1.0000
44.3200 341.0000 1.0000
44.3300 315.0000 1.0000
44.3400 312.0000 1.0000
44.3500 308.0000 1.0000
44.3600 338.0000 1.0000
44.3700 368.0000 1.0000
44.3800 337.0000 1.0000
44.3900 311.0000 1.0000
44.4000 351.0000 1.0000
44.4100 296.0000 1.0000
44.4200 317.0000 1.0000
44.4300 342.0000 1.0000
44.4400 341.0000 1.0000
44.4500 354.0000 1.0000
44.4600 328.0000 1.0000
44.4700 308.0000 1.0000
44.4800 315.0000 1.0000
44.4900 301.0000 1.0000
44.5000 303.0000 1.0000
44.5100 316.0000 1.0000
44.5200 306.0000 1.0000
44.5300 298.0000 1.0000
44.5400 314.0000 1.0000
44.5500 343.0000 1.0000
44.5600 338.0000 1.0000
44.5700 328.0000 1.0000
44.5800 298.0000 1.0000
44.5900 312.0000 1.0000
44.6000 298.0000 1.0000
44.6100 332.0000 1.0000
44.6200 325.0000 1.0000
44.6300 307.0000 1.0000
44.6400 331.0000 1.0000
44.6500 329.0000 1.0000
44.6600 304.0000 1.0000
44.6700 301.0000 1.0000
44.6800 300.0000 1.0000
44.6900 331.0000 1.0000
44.7000 341.0000 1.0000
44.7100 302.0000 1.0000
44.7200 324.0000 1.0000
44.7300 325.0000 1.0000
44.7400 320.0000 1.0000
44.7500 306.0000 1.0000
44.7600 327.0000 1.0000
44.7700 317.0000 1.0000
44.7800 322.0000 1.0000
44.7900 328.0000 1.0000
44.8000 342.0000 1.0000
44.8100 315.0000 1.0000
44.8200 324.0000 1.0000
44.8300 346.0000 1.0000
44.8400 308.0000 1.0000
44.8500 315.0000 1.0000
44.8600 324.0000 1.0000
44.8700 297.0000 1.0000
44.8800 336.0000 1.0000
44.8900 329.0000 1.0000
44.9000 309.0000 1.0000
44.9100 315.0000 1.0000
44.9200 306.0000 1.0000
44.9300 312.0000 1.0000
44.9400 325.0000 1.0000
44.9500 326.0000 1.0000
44.9600 312.0000 1.0000
44.9700 332.0000 1.0000
44.9800 306.0000 1.0000
44.9900 303.0000 1.0000
45.0000 309.0000 1.0000
45.0100 314.0000 1.0000
45.0200 318.0000 1.0000
45.0300 314.0000 1.0000
45.0400 301.0000 1.0000
45.0500 292.0000 1.0000
45.0600 306.0000 1.0000
45.0700 299.0000 1.0000
45.0800 333.0000 1.0000
45.0900 303.0000 1.0000
45.1000 334.0000 1.0000
45.1100 323.0000 1.0000
45.1200 309.0000 1.0000
45.1300 336.0000 1.0000
45.1400 309.0000 1.0000
45.1500 284.0000 1.0000
45.1600 312.0000 1.0000
45.1700 348.0000 1.0000
45.1800 311.0000 1.0000
45.1900 326.0000 1.0000
45.2000 299.0000 1.0000
45.2100 296.0000 1.0000
45.2200 338.0000 1.0000
45.2300 336.0000 1.0000
45.2400 296.0000 1.0000
45.2500 283.0000 1.0000
45.2600 290.0000 1.0000
45.2700 320.0000 1.0000
45.2800 324.0000 1.0000
45.2900 322.0000 1.0000
45.3000 328.0000 1.0000
45.3100 287.0000 1.0000
45.3200 304.0000 1.0000
45.3300 300.0000 1.0000
45.3400 305.0000 1.0000
45.3500 324.0000 1.0000
45.3600 315.0000 1.0000
45.3700 322.0000 1.0000
45.3800 338.0000 1.0000
45.3900 348.0000 1.0000
45.4000 281.0000 1.0000
45.4100 339.0000 1.0000
45.4200 310.0000 1.0000
45.4300 321.0000 1.0000
45.4400 298.0000 1.0000
45.4500 319.0000 1.0000
45.4600 326.0000 1.0000
45.4700 323.0000 1.0000
45.4800 311.0000 1.0000
45.4900 321.0000 1.0000
45.5000 315.0000 1.0000
45.5100 328.0000 1.0000
45.5200 334.0000 1.0000
45.5300 337.0000 1.0000
45.5400 294.0000 1.0000
45.5500 281.0000 1.0000
45.5600 274.0000 1.0000
45.5700 291.0000 1.0000
45.5800 312.0000 1.0000
45.5900 288.0000 1.0000
45.6000 295.0000 1.0000
45.6100 322.0000 1.0000
45.6200 328.0000 1.0000
45.6300 299.0000 1.0000
45.6400 298.0000 1.0000
45.6500 299.0000 1.0000
45.6600 333.0000 1.0000
45.6700 309.0000 1.0000
45.6800 302.0000 1.0000
45.6900 277.0000 1.0000
45.7000 312.0000 1.0000
45.7100 312.0000 1.0000
45.7200 314.0000 1.0000
45.7300 323.0000 1.0000
45.7400 292.0000 1.0000
45.7500 291.0000 1.0000
45.7600 329.0000 1.0000
45.7700 312.0000 1.0000
45.7800 316.0000 1.0000
45.7900 330.0000 1.0000
45.8000 290.0000 1.0000
45.8100 296.0000 1.0000
45.8200 324.0000 1.0000
45.8300 285.0000 1.0000
45.8400 279.0000 1.0000
45.8500 283.0000 1.0000
45.8600 295.0000 1.0000
45.8700 300.0000 1.0000
45.8800 282.0000 1.0000
45.8900 314.0000 1.0000
45.9000 297.0000 1.0000
45.9100 322.0000 1.0000
45.9200 294.0000 1.0000
45.9300 305.0000 1.0000
45.9400 295.0000 1.0000
45.9500 320.0000 1.0000
45.9600 307.0000 1.0000
45.9700 281.0000 1.0000
45.9800 312.0000 1.0000
45.9900 288.0000 1.0000
46.0000 278.0000 1.0000
46.0100 310.0000 1.0000
46.0200 302.0000 1.0000
46.0300 318.0000 1.0000
46.0400 317.0000 1.0000
46.0500 312.0000 1.0000
46.0600 299.0000 1.0000
46.0700 299.0000 1.0000
46.0800 325.0000 1.0000
46.0900 298.0000 1.0000
46.1000 313.0000 1.0000
46.1100 293.0000 1.0000
46.1200 299.0000 1.0000
46.1300 308.0000 1.0000
46.1400 293.0000 1.0000
46.1500 307.0000 1.0000
46.1600 323.0000 1.0000
46.1700 287.0000 1.0000
46.1800 324.0000 1.0000
46.1900 304.0000 1.0000
46.2000 313.0000 1.0000
46.2100 330.0000 1.0000
46.2200 322.0000 1.0000
46.2300 305.0000 1.0000
46.2400 315.0000 1.0000
46.2500 288.0000 1.0000
46.2600 309.0000 1.0000
46.2700 316.0000 1.0000
46.2800 318.0000 1.0000
46.2900 349.0000 1.0000
46.3000 296.0000 1.0000
46.3100 291.0000 1.0000
46.3200 305.0000 1.0000
46.3300 293.0000 1.0000
46.3400 297.0000 1.0000
46.3500 305.0000 1.0000
46.3600 290.0000 1.0000
46.3700 307.0000 1.0000
46.3800 337.0000 1.0000
46.3900 322.0000 1.0000
46.4000 322.0000 1.0000
46.4100 321.0000 1.0000
46.4200 300.0000 1.0000
46.4300 310.0000 1.0000
46.4400 308.0000 1.0000
46.4500 313.0000 1.0000
46.4600 344.0000 1.0000
46.4700 295.0000 1.0000
46.4800 302.0000 1.0000
46.4900 289.0000 1.0000
46.5000 301.0000 1.0000
46.5100 296.0000 1.0000
46.5200 297.0000 1.0000
46.5300 312.0000 1.0000
46.5400 309.0000 1.0000
46.5500 304.0000 1.0000
46.5600 300.0000 1.0000
46.5700 319.0000 1.0000
46.5800 325.0000 1.0000
46.5900 304.0000 1.0000
46.6000 314.0000 1.0000
46.6100 334.0000 1.0000
46.6200 308.0000 1.0000
46.6300 308.0000 1.0000
46.6400 316.0000 1.0000
46.6500 282.0000 1.0000
46.6600 301.0000 1.0000
46.6700 283.0000 1.0000
46.6800 309.0000 1.0000
46.6900 298.0000 1.0000
46.7000 292.0000 1.0000
46.7100 309.0000 1.0000
46.7200 285.0000 1.0000
46.7300 298.0000 1.0000
46.7400 302.0000 1.0000
46.7500 283.0000 1.0000
46.7600 288.0000 1.0000
46.7700 286.0000 1.0000
46.7800 262.0000 1.0000
46.7900 269.0000 1.0000
46.8000 292.0000 1.0000
46.8100 309.0000 1.0000
46.8200 299.0000 1.0000
46.8300 297.0000 1.0000
46.8400 297.0000 1.0000
46.8500 340.0000 1.0000
46.8600 297.0000 1.0000
46.8700 288.0000 1.0000
46.8800 309.0000 1.0000
46.8900 285.0000 1.0000
46.9000 273.0000 1.0000
46.9100 301.0000 1.0000
46.9200 299.0000 1.0000
46.9300 311.0000 1.0000
46.9400 315.0000 1.0000
46.9500 275.0000 1.0000
46.9600 291.0000 1.0000
46.9700 306.0000 1.0000
46.9800 324.0000 1.0000
46.9900 313.0000 1.0000
47.0000 307.0000 1.0000
47.0100 292.0000 1.0000
47.0200 277.0000 1.0000
47.0300 279.0000 1.0000
47.0400 274.0000 1.0000
47.0500 288.0000 1.0000
47.0600 310.0000 1.0000
47.0700 288.0000 1.0000
47.0800 276.0000 1.0000
47.0900 291.0000 1.0000
47.1000 293.0000 1.0000
47.1100 316.0000 1.0000
47.1200 287.0000 1.0000
47.1300 286.0000 1.0000
47.1400 298.0000 1.0000
47.1500 292.0000 1.0000
47.1600 321.0000 1.0000
47.1700 290.0000 1.0000
47.1800 303.0000 1.0000
47.1900 314.0000 1.0000
47.2000 306.0000 1.0000
47.2100 291.0000 1.0000
47.2200 323.0000 1.0000
47.2300 305.0000 1.0000
47.2400 285.0000 1.0000
47.2500 268.0000 1.0000
47.2600 283.0000 1.0000
47.2700 303.0000 1.0000
47.2800 305.0000 1.0000
47.2900 291.0000 1.0000
47.3000 285.0000 1.0000
47.3100 295.0000 1.0000
47.3200 321.0000 1.0000
47.3300 326.0000 1.0000
47.3400 317.0000 1.0000
47.3500 306.0000 1.0000
47.3600 281.0000 1.0000
47.3700 282.0000 1.0000
47.3800 276.0000 1.0000
47.3900 300.0000 1.0000
47.4000 311.0000 1.0000
47.4100 291.0000 1.0000
47.4200 299.0000 1.0000
47.4300 281.0000 1.0000
47.4400 288.0000 1.0000
47.4500 290.0000 1.0000
47.4600 310.0000 1.0000
47.4700 312.0000 1.0000
47.4800 288.0000 1.0000
47.4900 313.0000 1.0000
47.5000 300.0000 1.0000
47.5100 313.0000 1.0000
47.5200 310.0000 1.0000
47.5300 305.0000 1.0000
47.5400 296.0000 1.0000
47.5500 295.0000 1.0000
47.5600 307.0000 1.0000
47.5700 298.0000 1.0000
47.5800 298.0000 1.0000
47.5900 271.0000 1.0000
47.6000 288.0000 1.0000
47.6100 275.0000 1.0000
47.6200 277.0000 1.0000
47.6300 288.0000 1.0000
47.6400 303.0000 1.0000
47.6500 303.0000 1.0000
47.6600 321.0000 1.0000
47.6700 312.0000 1.0000
47.6800 301.0000 1.0000
47.6900 296.0000 1.0000
47.7000 288.0000 1.0000
47.7100 299.0000 1.0000
47.7200 293.0000 1.0000
47.7300 283.0000 1.0000
47.7400 301.0000 1.0000
47.7500 287.0000 1.0000
47.7600 306.0000 1.0000
47.7700 289.0000 1.0000
47.7800 307.0000 1.0000
47.7900 291.0000 1.0000
47.8000 287.0000 1.0000
47.8100 299.0000 1.0000
47.8200 287.0000 1.0000
47.8300 295.0000 1.0000
47.8400 288.0000 1.0000
47.8500 302.0000 1.0000
47.8600 286.0000 1.0000
47.8700 283.0000 1.0000
47.8800 304.0000 1.0000
47.8900 305.0000 1.0000
47.9000 291.0000 1.0000
47.9100 283.0000 1.0000
47.9200 285.0000 1.0000
47.9300 304.0000 1.0000
47.9400 290.0000 1.0000
47.9500 285.0000 1.0000
47.9600 323.0000 1.0000
47.9700 295.0000 1.0000
47.9800 300.0000 1.0000
47.9900 275.0000 1.0000
48.0000 299.0000 1.0000
48.0100 287.0000 1.0000
48.0200 321.0000 1.0000
48.0300 325.0000 1.0000
48.0400 310.0000 1.0000
48.0500 286.0000 1.0000
48.0600 269.0000 1.0000
48.0700 274.0000 1.0000
48.0800 270.0000 1.0000
48.0900 294.0000 1.0000
48.1000 296.0000 1.0000
48.1100 288.0000 1.0000
48.1200 295.0000 1.0000
48.1300 307.0000 1.0000
48.1400 269.0000 1.0000
48.1500 297.0000 1.0000
48.1600 294.0000 1.0000
48.1700 300.0000 1.0000
48.1800 296.0000 1.0000
48.1900 299.0000 1.0000
48.2000 294.0000 1.0000
48.2100 288.0000 1.0000
48.2200 253.0000 1.0000
48.2300 264.0000 1.0000
48.2400 286.0000 1.0000
48.2500 284.0000 1.0000
48.2600 276.0000 1.0000
48.2700 331.0000 1.0000
48.2800 295.0000 1.0000
48.2900 263.0000 1.0000
48.3000 295.0000 1.0000
48.3100 293.0000 1.0000
48.3200 300.0000 1.0000
48.3300 289.0000 1.0000
48.3400 281.0000 1.0000
48.3500 308.0000 1.0000
48.3600 274.0000 1.0000
48.3700 283.0000 1.0000
48.3800 293.0000 1.0000
48.3900 297.0000 1.0000
48.4000 269.0000 1.0000
48.4100 304.0000 1.0000
48.4200 313.0000 1.0000
48.4300 288.0000 1.0000
48.4400 277.0000 1.0000
48.4500 286.0000 1.0000
48.4600 309.0000 1.0000
48.4700 282.0000 1.0000
48.4800 285.0000 1.0000
48.4900 257.0000 1.0000
48.5000 291.0000 1.0000
48.5100 288.0000 1.0000
48.5200 292.0000 1.0000
48.5300 269.0000 1.0000
48.5400 269.0000 1.0000
48.5500 283.0000 1.0000
48.5600 279.0000 1.0000
48.5700 285.0000 1.0000
48.5800 283.0000 1.0000
48.5900 288.0000 1.0000
48.6000 305.0000 1.0000
48.6100 277.0000 1.0000
48.6200 284.0000 1.0000
48.6300 291.0000 1.0000
48.6400 313.0000 1.0000
48.6500 299.0000 1.0000
48.6600 292.0000 1.0000
48.6700 317.0000 1.0000
48.6800 297.0000 1.0000
48.6900 280.0000 1.0000
48.7000 270.0000 1.0000
48.7100 296.0000 1.0000
48.7200 284.0000 1.0000
48.7300 302.0000 1.0000
48.7400 295.0000 1.0000
48.7500 297.0000 1.0000
48.7600 293.0000 1.0000
48.7700 284.0000 1.0000
48.7800 289.0000 1.0000
48.7900 283.0000 1.0000
48.8000 285.0000 1.0000
48.8100 263.0000 1.0000
48.8200 292.0000 1.0000
48.8300 274.0000 1.0000
48.8400 279.0000 1.0000
48.8500 307.0000 1.0000
48.8600 284.0000 1.0000
48.8700 299.0000 1.0000
48.8800 290.0000 1.0000
48.8900 287.0000 1.0000
48.9000 268.0000 1.0000
48.9100 278.0000 1.0000
48.9200 318.0000 1.0000
48.9300 292.0000 1.0000
48.9400 300.0000 1.0000
48.9500 310.0000 1.0000
48.9600 316.0000 1.0000
48.9700 302.0000 1.0000
48.9800 309.0000 1.0000
48.9900 288.0000 1.0000
49.0000 281.0000 1.0000
49.0100 292.0000 1.0000
49.0200 325.0000 1.0000
49.0300 278.0000 1.0000
49.0400 282.0000 1.0000
49.0500 280.0000 1.0000
49.0600 297.0000 1.0000
49.0700 282.0000 1.0000
49.0800 292.0000 1.0000
49.0900 295.0000 1.0000
49.1000 278.0000 1.0000
49.1100 294.0000 1.0000
49.1200 264.0000 1.0000
49.1300 301.0000 1.0000
49.1400 278.0000 1.0000
49.1500 266.0000 1.0000
49.1600 286.0000 1.0000
49.1700 244.0000 1.0000
49.1800 281.0000 1.0000
49.1900 287.0000 1.0000
49.2000 272.0000 1.0000
49.2100 311.0000 1.0000
49.2200 300.0000 1.0000
49.2300 291.0000 1.0000
49.2400 295.0000 1.0000
49.2500 289.0000 1.0000
49.2600 299.0000 1.0000
49.2700 292.0000 1.0000
49.2800 286.0000 1.0000
49.2900 284.0000 1.0000
49.3000 306.0000 1.0000
49.3100 281.0000 1.0000
49.3200 260.0000 1.0000
49.3300 322.0000 1.0000
49.3400 321.0000 1.0000
49.3500 309.0000 1.0000
49.3600 298.0000 1.0000
49.3700 309.0000 1.0000
49.3800 329.0000 1.0000
49.3900 315.0000 1.0000
49.4000 333.0000 1.0000
49.4100 313.0000 1.0000
49.4200 331.0000 1.0000
49.4300 305.0000 1.0000
49.4400 322.0000 1.0000
49.4500 329.0000 1.0000
49.4600 315.0000 1.0000
49.4700 297.0000 1.0000
49.4800 315.0000 1.0000
49.4900 295.0000 1.0000
49.5000 323.0000 1.0000
49.5100 302.0000 1.0000
49.5200 294.0000 1.0000
49.5300 329.0000 1.0000
49.5400 320.0000 1.0000
49.5500 310.0000 1.0000
49.5600 305.0000 1.0000
49.5700 311.0000 1.0000
49.5800 299.0000 1.0000
49.5900 302.0000 1.0000
49.6000 290.0000 1.0000
49.6100 300.0000 1.0000
49.6200 312.0000 1.0000
49.6300 295.0000 1.0000
49.6400 283.0000 1.0000
49.6500 293.0000 1.0000
49.6600 271.0000 1.0000
49.6700 295.0000 1.0000
49.6800 307.0000 1.0000
49.6900 283.0000 1.0000
49.7000 284.0000 1.0000
49.7100 303.0000 1.0000
49.7200 284.0000 1.0000
49.7300 279.0000 1.0000
49.7400 324.0000 1.0000
49.7500 297.0000 1.0000
49.7600 301.0000 1.0000
49.7700 331.0000 1.0000
49.7800 296.0000 1.0000
49.7900 281.0000 1.0000
49.8000 297.0000 1.0000
49.8100 277.0000 1.0000
49.8200 286.0000 1.0000
49.8300 291.0000 1.0000
49.8400 286.0000 1.0000
49.8500 299.0000 1.0000
49.8600 280.0000 1.0000
49.8700 284.0000 1.0000
49.8800 285.0000 1.0000
49.8900 293.0000 1.0000
49.9000 306.0000 1.0000
49.9100 299.0000 1.0000
49.9200 324.0000 1.0000
49.9300 306.0000 1.0000
49.9400 274.0000 1.0000
49.9500 295.0000 1.0000
49.9600 277.0000 1.0000
49.9700 287.0000 1.0000
49.9800 286.0000 1.0000
49.9900 291.0000 1.0000
50.0000 307.0000 1.0000
50.0100 306.0000 1.0000
50.0200 277.0000 1.0000
50.0300 290.0000 1.0000
50.0400 278.0000 1.0000
50.0500 312.0000 1.0000
50.0600 292.0000 1.0000
50.0700 284.0000 1.0000
50.0800 269.0000 1.0000
50.0900 285.0000 1.0000
50.1000 289.0000 1.0000
50.1100 288.0000 1.0000
50.1200 273.0000 1.0000
50.1300 282.0000 1.0000
50.1400 307.0000 1.0000
50.1500 300.0000 1.0000
50.1600 265.0000 1.0000
50.1700 287.0000 1.0000
50.1800 279.0000 1.0000
50.1900 290.0000 1.0000
50.2000 278.0000 1.0000
50.2100 289.0000 1.0000
50.2200 286.0000 1.0000
50.2300 302.0000 1.0000
50.2400 289.0000 1.0000
50.2500 288.0000 1.0000
50.2600 294.0000 1.0000
50.2700 307.0000 1.0000
50.2800 297.0000 1.0000
50.2900 289.0000 1.0000
50.3000 300.0000 1.0000
50.3100 302.0000 1.0000
50.3200 278.0000 1.0000
50.3300 268.0000 1.0000
50.3400 298.0000 1.0000
50.3500 299.0000 1.0000
50.3600 298.0000 1.0000
50.3700 295.0000 1.0000
50.3800 294.0000 1.0000
50.3900 273.0000 1.0000
50.4000 288.0000 1.0000
50.4100 280.0000 1.0000
50.4200 274.0000 1.0000
50.4300 297.0000 1.0000
50.4400 293.0000 1.0000
50.4500 295.0000 1.0000
50.4600 272.0000 1.0000
50.4700 287.0000 1.0000
50.4800 308.0000 1.0000
50.4900 297.0000 1.0000
50.5000 265.0000 1.0000
50.5100 286.0000 1.0000
50.5200 295.0000 1.0000
50.5300 305.0000 1.0000
50.5400 312.0000 1.0000
50.5500 281.0000 1.0000
50.5600 294.0000 1.0000
50.5700 312.0000 1.0000
50.5800 270.0000 1.0000
50.5900 296.0000 1.0000
50.6000 284.0000 1.0000
50.6100 271.0000 1.0000
50.6200 303.0000 1.0000
50.6300 271.0000 1.0000
50.6400 304.0000 1.0000
50.6500 294.0000 1.0000
50.6600 294.0000 1.0000
50.6700 316.0000 1.0000
50.6800 275.0000 1.0000
50.6900 302.0000 1.0000
50.7000 295.0000 1.0000
50.7100 272.0000 1.0000
50.7200 294.0000 1.0000
50.7300 268.0000 1.0000
50.7400 295.0000 1.0000
50.7500 300.0000 1.0000
50.7600 271.0000 1.0000
50.7700 292.0000 1.0000
50.7800 291.0000 1.0000
50.7900 306.0000 1.0000
50.8000 283.0000 1.0000
50.8100 282.0000 1.0000
50.8200 312.0000 1.0000
50.8300 277.0000 1.0000
50.8400 292.0000 1.0000
50.8500 311.0000 1.0000
50.8600 319.0000 1.0000
50.8700 308.0000 1.0000
50.8800 329.0000 1.0000
50.8900 270.0000 1.0000
50.9000 276.0000 1.0000
50.9100 293.0000 1.0000
50.9200 290.0000 1.0000
50.9300 288.0000 1.0000
50.9400 297.0000 1.0000
50.9500 325.0000 1.0000
50.9600 306.0000 1.0000
50.9700 299.0000 1.0000
50.9800 312.0000 1.0000
50.9900 325.0000 1.0000
51.0000 325.0000 1.0000
51.0100 340.0000 1.0000
51.0200 341.0000 1.0000
51.0300 295.0000 1.0000
51.0400 298.0000 1.0000
51.0500 325.0000 1.0000
51.0600 314.0000 1.0000
51.0700 354.0000 1.0000
51.0800 357.0000 1.0000
51.0900 353.0000 1.0000
51.1000 365.0000 1.0000
51.1100 361.0000 1.0000
51.1200 348.0000 1.0000
51.1300 372.0000 1.0000
51.1400 393.0000 1.0000
51.1500 410.0000 1.0000
51.1600 396.0000 1.0000
51.1700 385.0000 1.0000
51.1800 417.0000 1.0000
51.1900 425.0000 1.0000
51.2000 429.0000 1.0000
51.2100 469.0000 1.0000
51.2200 468.0000 1.0000
51.2300 479.0000 1.0000
51.2400 515.0000 1.0000
51.2500 517.0000 1.0000
51.2600 576.0000 1.0000
51.2700 548.0000 1.0000
51.2800 595.0000 1.0000
51.2900 654.0000 1.0000
51.3000 698.0000 1.0000
51.3100 700.0000 1.0000
51.3200 714.0000 1.0000
51.3300 743.0000 1.0000
51.3400 806.0000 1.0000
51.3500 909.0000 1.0000
51.3600 953.0000 1.0000
51.3700 1038.0000 1.0000
51.3800 1141.0000 1.0000
51.3900 1213.0000 1.0000
51.4000 1228.0000 1.0000
51.4100 1367.0000 1.0000
51.4200 1467.0000 1.0000
51.4300 1583.0000 1.0000
51.4400 1649.0000 1.0000
51.4500 1783.0000 1.0000
51.4600 1824.0000 1.0000
51.4700 1886.0000 1.0000
51.4800 1929.0000 1.0000
51.4900 1856.0000 1.0000
51.5000 1896.0000 1.0000
51.5100 1931.0000 1.0000
51.5200 1868.0000 1.0000
51.5300 1845.0000 1.0000
51.5400 1799.0000 1.0000
51.5500 1719.0000 1.0000
51.5600 1628.0000 1.0000
51.5700 1632.0000 1.0000
51.5800 1579.0000 1.0000
51.5900 1546.0000 1.0000
51.6000 1510.0000 1.0000
51.6100 1475.0000 1.0000
51.6200 1412.0000 1.0000
51.6300 1340.0000 1.0000
51.6400 1233.0000 1.0000
51.6500 1227.0000 1.0000
51.6600 1188.0000 1.0000
51.6700 1060.0000 1.0000
51.6800 1030.0000 1.0000
51.6900 978.0000 1.0000
51.7000 906.0000 1.0000
51.7100 780.0000 1.0000
51.7200 797.0000 1.0000
51.7300 689.0000 1.0000
51.7400 681.0000 1.0000
51.7500 652.0000 1.0000
51.7600 613.0000 1.0000
51.7700 617.0000 1.0000
51.7800 583.0000 1.0000
51.7900 568.0000 1.0000
51.8000 506.0000 1.0000
51.8100 473.0000 1.0000
51.8200 433.0000 1.0000
51.8300 470.0000 1.0000
51.8400 456.0000 1.0000
51.8500 409.0000 1.0000
51.8600 412.0000 1.0000
51.8700 444.0000 1.0000
51.8800 385.0000 1.0000
51.8900 397.0000 1.0000
51.9000 398.0000 1.0000
51.9100 356.0000 1.0000
51.9200 374.0000 1.0000
51.9300 386.0000 1.0000
51.9400 393.0000 1.0000
51.9500 383.0000 1.0000
51.9600 398.0000 1.0000
51.9700 356.0000 1.0000
51.9800 346.0000 1.0000
51.9900 336.0000 1.0000
52.0000 343.0000 1.0000
52.0100 360.0000 1.0000
52.0200 327.0000 1.0000
52.0300 332.0000 1.0000
52.0400 338.0000 1.0000
52.0500 326.0000 1.0000
52.0600 336.0000 1.0000
52.0700 332.0000 1.0000
52.0800 349.0000 1.0000
52.0900 300.0000 1.0000
52.1000 339.0000 1.0000
52.1100 320.0000 1.0000
52.1200 338.0000 1.0000
52.1300 328.0000 1.0000
52.1400 318.0000 1.0000
52.1500 309.0000 1.0000
52.1600 295.0000 1.0000
52.1700 332.0000 1.0000
52.1800 298.0000 1.0000
52.1900 302.0000 1.0000
52.2000 316.0000 1.0000
52.2100 298.0000 1.0000
52.2200 291.0000 1.0000
52.2300 329.0000 1.0000
52.2400 297.0000 1.0000
52.2500 309.0000 1.0000
52.2600 299.0000 1.0000
52.2700 307.0000 1.0000
52.2800 316.0000 1.0000
52.2900 305.0000 1.0000
52.3000 305.0000 1.0000
52.3100 275.0000 1.0000
52.3200 288.0000 1.0000
52.3300 300.0000 1.0000
52.3400 313.0000 1.0000
52.3500 307.0000 1.0000
52.3600 314.0000 1.0000
52.3700 272.0000 1.0000
52.3800 303.0000 1.0000
52.3900 293.0000 1.0000
52.4000 304.0000 1.0000
52.4100 304.0000 1.0000
52.4200 266.0000 1.0000
52.4300 296.0000 1.0000
52.4400 272.0000 1.0000
52.4500 279.0000 1.0000
52.4600 319.0000 1.0000
52.4700 292.0000 1.0000
52.4800 271.0000 1.0000
52.4900 254.0000 1.0000
52.5000 278.0000 1.0000
52.5100 288.0000 1.0000
52.5200 278.0000 1.0000
52.5300 278.0000 1.0000
52.5400 309.0000 1.0000
52.5500 332.0000 1.0000
52.5600 273.0000 1.0000
52.5700 274.0000 1.0000
52.5800 311.0000 1.0000
52.5900 277.0000 1.0000
52.6000 286.0000 1.0000
52.6100 268.0000 1.0000
52.6200 286.0000 1.0000
52.6300 284.0000 1.0000
52.6400 247.0000 1.0000
52.6500 271.0000 1.0000
52.6600 300.0000 1.0000
52.6700 291.0000 1.0000
52.6800 265.0000 1.0000
52.6900 298.0000 1.0000
52.7000 298.0000 1.0000
52.7100 302.0000 1.0000
52.7200 286.0000 1.0000
52.7300 279.0000 1.0000
52.7400 260.0000 1.0000
52.7500 267.0000 1.0000
52.7600 280.0000 1.0000
52.7700 273.0000 1.0000
52.7800 259.0000 1.0000
52.7900 313.0000 1.0000
52.8000 296.0000 1.0000
52.8100 292.0000 1.0000
52.8200 278.0000 1.0000
52.8300 272.0000 1.0000
52.8400 293.0000 1.0000
52.8500 280.0000 1.0000
52.8600 292.0000 1.0000
52.8700 283.0000 1.0000
52.8800 273.0000 1.0000
52.8900 270.0000 1.0000
52.9000 281.0000 1.0000
52.9100 286.0000 1.0000
52.9200 269.0000 1.0000
52.9300 285.0000 1.0000
52.9400 285.0000 1.0000
52.9500 273.0000 1.0000
52.9600 285.0000 1.0000
52.9700 309.0000 1.0000
52.9800 280.0000 1.0000
52.9900 266.0000 1.0000
53.0000 279.0000 1.0000
53.0100 296.0000 1.0000
53.0200 272.0000 1.0000
53.0300 270.0000 1.0000
53.0400 287.0000 1.0000
53.0500 286.0000 1.0000
53.0600 268.0000 1.0000
53.0700 277.0000 1.0000
53.0800 294.0000 1.0000
53.0900 281.0000 1.0000
53.1000 286.0000 1.0000
53.1100 265.0000 1.0000
53.1200 294.0000 1.0000
53.1300 275.0000 1.0000
53.1400 259.0000 1.0000
53.1500 286.0000 1.0000
53.1600 294.0000 1.0000
53.1700 258.0000 1.0000
53.1800 247.0000 1.0000
53.1900 226.0000 1.0000
53.2000 260.0000 1.0000
53.2100 285.0000 1.0000
53.2200 269.0000 1.0000
53.2300 283.0000 1.0000
53.2400 271.0000 1.0000
53.2500 257.0000 1.0000
53.2600 279.0000 1.0000
53.2700 246.0000 1.0000
53.2800 281.0000 1.0000
53.2900 278.0000 1.0000
53.3000 291.0000 1.0000
53.3100 263.0000 1.0000
53.3200 265.0000 1.0000
53.3300 299.0000 1.0000
53.3400 264.0000 1.0000
53.3500 268.0000 1.0000
53.3600 278.0000 1.0000
53.3700 286.0000 1.0000
53.3800 302.0000 1.0000
53.3900 273.0000 1.0000
53.4000 276.0000 1.0000
53.4100 300.0000 1.0000
53.4200 270.0000 1.0000
53.4300 265.0000 1.0000
53.4400 271.0000 1.0000
53.4500 280.0000 1.0000
53.4600 293.0000 1.0000
53.4700 266.0000 1.0000
53.4800 284.0000 1.0000
53.4900 277.0000 1.0000
53.5000 296.0000 1.0000
53.5100 305.0000 1.0000
53.5200 282.0000 1.0000
53.5300 276.0000 1.0000
53.5400 302.0000 1.0000
53.5500 253.0000 1.0000
53.5600 295.0000 1.0000
53.5700 289.0000 1.0000
53.5800 270.0000 1.0000
53.5900 282.0000 1.0000
53.6000 274.0000 1.0000
53.6100 280.0000 1.0000
53.6200 282.0000 1.0000
53.6300 275.0000 1.0000
53.6400 273.0000 1.0000
53.6500 263.0000 1.0000
53.6600 266.0000 1.0000
53.6700 264.0000 1.0000
53.6800 257.0000 1.0000
53.6900 270.0000 1.0000
53.7000 274.0000 1.0000
53.7100 274.0000 1.0000
53.7200 293.0000 1.0000
53.7300 288.0000 1.0000
53.7400 267.0000 1.0000
53.7500 257.0000 1.0000
53.7600 285.0000 1.0000
53.7700 279.0000 1.0000
53.7800 301.0000 1.0000
53.7900 296.0000 1.0000
53.8000 307.0000 1.0000
53.8100 270.0000 1.0000
53.8200 297.0000 1.0000
53.8300 258.0000 1.0000
53.8400 278.0000 1.0000
53.8500 295.0000 1.0000
53.8600 263.0000 1.0000
53.8700 286.0000 1.0000
53.8800 315.0000 1.0000
53.8900 310.0000 1.0000
53.9000 301.0000 1.0000
53.9100 265.0000 1.0000
53.9200 271.0000 1.0000
53.9300 292.0000 1.0000
53.9400 278.0000 1.0000
53.9500 272.0000 1.0000
53.9600 292.0000 1.0000
53.9700 287.0000 1.0000
53.9800 292.0000 1.0000
53.9900 309.0000 1.0000
54.0000 291.0000 1.0000
54.0100 296.0000 1.0000
54.0200 319.0000 1.0000
54.0300 323.0000 1.0000
54.0400 313.0000 1.0000
54.0500 299.0000 1.0000
54.0600 305.0000 1.0000
54.0700 331.0000 1.0000
54.0800 310.0000 1.0000
54.0900 295.0000 1.0000
54.1000 335.0000 1.0000
54.1100 312.0000 1.0000
54.1200 296.0000 1.0000
54.1300 296.0000 1.0000
54.1400 313.0000 1.0000
54.1500 299.0000 1.0000
54.1600 321.0000 1.0000
54.1700 308.0000 1.0000
54.1800 298.0000 1.0000
54.1900 295.0000 1.0000
54.2000 288.0000 1.0000
54.2100 328.0000 1.0000
54.2200 319.0000 1.0000
54.2300 305.0000 1.0000
54.2400 287.0000 1.0000
54.2500 294.0000 1.0000
54.2600 299.0000 1.0000
54.2700 323.0000 1.0000
54.2800 288.0000 1.0000
54.2900 316.0000 1.0000
54.3000 318.0000 1.0000
54.3100 307.0000 1.0000
54.3200 298.0000 1.0000
54.3300 328.0000 1.0000
54.3400 334.0000 1.0000
54.3500 330.0000 1.0000
54.3600 344.0000 1.0000
54.3700 349.0000 1.0000
54.3800 342.0000 1.0000
54.3900 356.0000 1.0000
54.4000 352.0000 1.0000
54.4100 342.0000 1.0000
54.4200 358.0000 1.0000
54.4300 396.0000 1.0000
54.4400 365.0000 1.0000
54.4500 387.0000 1.0000
54.4600 389.0000 1.0000
54.4700 400.0000 1.0000
54.4800 398.0000 1.0000
54.4900 409.0000 1.0000
54.5000 442.0000 1.0000
54.5100 394.0000 1.0000
54.5200 414.0000 1.0000
54.5300 396.0000 1.0000
54.5400 383.0000 1.0000
54.5500 410.0000 1.0000
54.5600 404.0000 1.0000
54.5700 392.0000 1.0000
54.5800 418.0000 1.0000
54.5900 418.0000 1.0000
54.6000 394.0000 1.0000
54.6100 395.0000 1.0000
54.6200 382.0000 1.0000
54.6300 369.0000 1.0000
54.6400 397.0000 1.0000
54.6500 382.0000 1.0000
54.6600 355.0000 1.0000
54.6700 397.0000 1.0000
54.6800 364.0000 1.0000
54.6900 369.0000 1.0000
54.7000 380.0000 1.0000
54.7100 348.0000 1.0000
54.7200 370.0000 1.0000
54.7300 348.0000 1.0000
54.7400 367.0000 1.0000
54.7500 342.0000 1.0000
54.7600 325.0000 1.0000
54.7700 306.0000 1.0000
54.7800 355.0000 1.0000
54.7900 340.0000 1.0000
54.8000 329.0000 1.0000
54.8100 305.0000 1.0000
54.8200 301.0000 1.0000
54.8300 287.0000 1.0000
54.8400 314.0000 1.0000
54.8500 339.0000 1.0000
54.8600 303.0000 1.0000
54.8700 304.0000 1.0000
54.8800 303.0000 1.0000
54.8900 303.0000 1.0000
54.9000 314.0000 1.0000
54.9100 306.0000 1.0000
54.9200 324.0000 1.0000
54.9300 296.0000 1.0000
54.9400 307.0000 1.0000
54.9500 309.0000 1.0000
54.9600 287.0000 1.0000
54.9700 305.0000 1.0000
54.9800 282.0000 1.0000
54.9900 289.0000 1.0000
55.0000 294.0000 1.0000
55.0100 277.0000 1.0000
55.0200 293.0000 1.0000
55.0300 261.0000 1.0000
55.0400 265.0000 1.0000
55.0500 282.0000 1.0000
55.0600 272.0000 1.0000
55.0700 281.0000 1.0000
55.0800 264.0000 1.0000
55.0900 292.0000 1.0000
55.1000 260.0000 1.0000
55.1100 258.0000 1.0000
55.1200 293.0000 1.0000
55.1300 297.0000 1.0000
55.1400 268.0000 1.0000
55.1500 256.0000 1.0000
55.1600 266.0000 1.0000
55.1700 248.0000 1.0000
55.1800 272.0000 1.0000
55.1900 275.0000 1.0000
55.2000 287.0000 1.0000
55.2100 301.0000 1.0000
55.2200 280.0000 1.0000
55.2300 287.0000 1.0000
55.2400 252.0000 1.0000
55.2500 267.0000 1.0000
55.2600 261.0000 1.0000
55.2700 273.0000 1.0000
55.2800 268.0000 1.0000
55.2900 269.0000 1.0000
55.3000 261.0000 1.0000
55.3100 279.0000 1.0000
55.3200 265.0000 1.0000
55.3300 285.0000 1.0000
55.3400 282.0000 1.0000
55.3500 278.0000 1.0000
55.3600 270.0000 1.0000
55.3700 269.0000 1.0000
55.3800 260.0000 1.0000
55.3900 257.0000 1.0000
55.4000 259.0000 1.0000
55.4100 248.0000 1.0000
55.4200 267.0000 1.0000
55.4300 288.0000 1.0000
55.4400 275.0000 1.0000
55.4500 282.0000 1.0000
55.4600 264.0000 1.0000
55.4700 263.0000 1.0000
55.4800 287.0000 1.0000
55.4900 281.0000 1.0000
55.5000 267.0000 1.0000
55.5100 291.0000 1.0000
55.5200 274.0000 1.0000
55.5300 279.0000 1.0000
55.5400 277.0000 1.0000
55.5500 263.0000 1.0000
55.5600 260.0000 1.0000
55.5700 273.0000 1.0000
55.5800 272.0000 1.0000
55.5900 271.0000 1.0000
55.6000 259.0000 1.0000
55.6100 241.0000 1.0000
55.6200 249.0000 1.0000
55.6300 261.0000 1.0000
55.6400 270.0000 1.0000
55.6500 274.0000 1.0000
55.6600 263.0000 1.0000
55.6700 266.0000 1.0000
55.6800 277.0000 1.0000
55.6900 261.0000 1.0000
55.7000 254.0000 1.0000
55.7100 265.0000 1.0000
55.7200 269.0000 1.0000
55.7300 272.0000 1.0000
55.7400 288.0000 1.0000
55.7500 257.0000 1.0000
55.7600 278.0000 1.0000
55.7700 264.0000 1.0000
55.7800 288.0000 1.0000
55.7900 271.0000 1.0000
55.8000 228.0000 1.0000
55.8100 245.0000 1.0000
55.8200 279.0000 1.0000
55.8300 254.0000 1.0000
55.8400 289.0000 1.0000
55.8500 297.0000 1.0000
55.8600 270.0000 1.0000
55.8700 257.0000 1.0000
55.8800 257.0000 1.0000
55.8900 291.0000 1.0000
55.9000 279.0000 1.0000
55.9100 267.0000 1.0000
55.9200 276.0000 1.0000
55.9300 304.0000 1.0000
55.9400 272.0000 1.0000
55.9500 288.0000 1.0000
55.9600 270.0000 1.0000
55.9700 251.0000 1.0000
55.9800 271.0000 1.0000
55.9900 293.0000 1.0000
56.0000 288.0000 1.0000
56.0100 273.0000 1.0000
56.0200 255.0000 1.0000
56.0300 268.0000 1.0000
56.0400 254.0000 1.0000
56.0500 279.0000 1.0000
56.0600 287.0000 1.0000
56.0700 277.0000 1.0000
56.0800 265.0000 1.0000
56.0900 274.0000 1.0000
56.1000 263.0000 1.0000
56.1100 265.0000 1.0000
56.1200 264.0000 1.0000
56.1300 267.0000 1.0000
56.1400 275.0000 1.0000
56.1500 275.0000 1.0000
56.1600 280.0000 1.0000
56.1700 283.0000 1.0000
56.1800 286.0000 1.0000
56.1900 251.0000 1.0000
56.2000 292.0000 1.0000
56.2100 295.0000 1.0000
56.2200 265.0000 1.0000
56.2300 276.0000 1.0000
56.2400 264.0000 1.0000
56.2500 282.0000 1.0000
56.2600 255.0000 1.0000
56.2700 274.0000 1.0000
56.2800 274.0000 1.0000
56.2900 277.0000 1.0000
56.3000 289.0000 1.0000
56.3100 267.0000 1.0000
56.3200 251.0000 1.0000
56.3300 255.0000 1.0000
56.3400 256.0000 1.0000
56.3500 250.0000 1.0000
56.3600 272.0000 1.0000
56.3700 270.0000 1.0000
56.3800 267.0000 1.0000
56.3900 281.0000 1.0000
56.4000 271.0000 1.0000
56.4100 264.0000 1.0000
56.4200 257.0000 1.0000
56.4300 266.0000 1.0000
56.4400 268.0000 1.0000
56.4500 276.0000 1.0000
56.4600 246.0000 1.0000
56.4700 236.0000 1.0000
56.4800 289.0000 1.0000
56.4900 271.0000 1.0000
56.5000 287.0000 1.0000
56.5100 234.0000 1.0000
56.5200 277.0000 1.0000
56.5300 281.0000 1.0000
56.5400 273.0000 1.0000
56.5500 246.0000 1.0000
56.5600 272.0000 1.0000
56.5700 268.0000 1.0000
56.5800 252.0000 1.0000
56.5900 309.0000 1.0000
56.6000 251.0000 1.0000
56.6100 264.0000 1.0000
56.6200 267.0000 1.0000
56.6300 281.0000 1.0000
56.6400 291.0000 1.0000
56.6500 273.0000 1.0000
56.6600 253.0000 1.0000
56.6700 245.0000 1.0000
56.6800 246.0000 1.0000
56.6900 248.0000 1.0000
56.7000 245.0000 1.0000
56.7100 247.0000 1.0000
56.7200 259.0000 1.0000
56.7300 250.0000 1.0000
56.7400 264.0000 1.0000
56.7500 267.0000 1.0000
56.7600 259.0000 1.0000
56.7700 258.0000 1.0000
56.7800 256.0000 1.0000
56.7900 249.0000 1.0000
56.8000 228.0000 1.0000
56.8100 280.0000 1.0000
56.8200 284.0000 1.0000
56.8300 253.0000 1.0000
56.8400 273.0000 1.0000
56.8500 274.0000 1.0000
56.8600 300.0000 1.0000
56.8700 245.0000 1.0000
56.8800 259.0000 1.0000
56.8900 290.0000 1.0000
56.9000 281.0000 1.0000
56.9100 266.0000 1.0000
56.9200 261.0000 1.0000
56.9300 269.0000 1.0000
56.9400 265.0000 1.0000
56.9500 266.0000 1.0000
56.9600 256.0000 1.0000
56.9700 289.0000 1.0000
56.9800 259.0000 1.0000
56.9900 274.0000 1.0000
57.0000 255.0000 1.0000
57.0100 264.0000 1.0000
57.0200 274.0000 1.0000
57.0300 277.0000 1.0000
57.0400 254.0000 1.0000
57.0500 252.0000 1.0000
57.0600 251.0000 1.0000
57.0700 251.0000 1.0000
57.0800 248.0000 1.0000
57.0900 244.0000 1.0000
57.1000 264.0000 1.0000
57.1100 293.0000 1.0000
57.1200 273.0000 1.0000
57.1300 259.0000 1.0000
57.1400 249.0000 1.0000
57.1500 242.0000 1.0000
57.1600 282.0000 1.0000
57.1700 296.0000 1.0000
57.1800 294.0000 1.0000
57.1900 252.0000 1.0000
57.2000 254.0000 1.0000
57.2100 276.0000 1.0000
57.2200 256.0000 1.0000
57.2300 259.0000 1.0000
57.2400 268.0000 1.0000
57.2500 274.0000 1.0000
57.2600 268.0000 1.0000
57.2700 298.0000 1.0000
57.2800 264.0000 1.0000
57.2900 274.0000 1.0000
57.3000 274.0000 1.0000
57.3100 260.0000 1.0000
57.3200 256.0000 1.0000
57.3300 263.0000 1.0000
57.3400 256.0000 1.0000
57.3500 253.0000 1.0000
57.3600 287.0000 1.0000
57.3700 247.0000 1.0000
57.3800 264.0000 1.0000
57.3900 258.0000 1.0000
57.4000 280.0000 1.0000
57.4100 263.0000 1.0000
57.4200 285.0000 1.0000
57.4300 290.0000 1.0000
57.4400 267.0000 1.0000
57.4500 268.0000 1.0000
57.4600 274.0000 1.0000
57.4700 279.0000 1.0000
57.4800 269.0000 1.0000
57.4900 279.0000 1.0000
57.5000 287.0000 1.0000
57.5100 288.0000 1.0000
57.5200 281.0000 1.0000
57.5300 275.0000 1.0000
57.5400 263.0000 1.0000
57.5500 259.0000 1.0000
57.5600 253.0000 1.0000
57.5700 249.0000 1.0000
57.5800 278.0000 1.0000
57.5900 277.0000 1.0000
57.6000 246.0000 1.0000
57.6100 257.0000 1.0000
57.6200 283.0000 1.0000
57.6300 266.0000 1.0000
57.6400 284.0000 1.0000
57.6500 292.0000 1.0000
57.6600 268.0000 1.0000
57.6700 265.0000 1.0000
57.6800 269.0000 1.0000
57.6900 269.0000 1.0000
57.7000 267.0000 1.0000
57.7100 270.0000 1.0000
57.7200 268.0000 1.0000
57.7300 277.0000 1.0000
57.7400 291.0000 1.0000
57.7500 283.0000 1.0000
57.7600 272.0000 1.0000
57.7700 268.0000 1.0000
57.7800 257.0000 1.0000
57.7900 249.0000 1.0000
57.8000 265.0000 1.0000
57.8100 281.0000 1.0000
57.8200 279.0000 1.0000
57.8300 271.0000 1.0000
57.8400 296.0000 1.0000
57.8500 257.0000 1.0000
57.8600 270.0000 1.0000
57.8700 272.0000 1.0000
57.8800 256.0000 1.0000
57.8900 284.0000 1.0000
57.9000 288.0000 1.0000
57.9100 274.0000 1.0000
57.9200 262.0000 1.0000
57.9300 259.0000 1.0000
57.9400 238.0000 1.0000
57.9500 266.0000 1.0000
57.9600 282.0000 1.0000
57.9700 255.0000 1.0000
57.9800 263.0000 1.0000
57.9900 292.0000 1.0000
58.0000 263.0000 1.0000
58.0100 270.0000 1.0000
58.0200 269.0000 1.0000
58.0300 261.0000 1.0000
58.0400 252.0000 1.0000
58.0500 252.0000 1.0000
58.0600 286.0000 1.0000
58.0700 260.0000 1.0000
58.0800 265.0000 1.0000
58.0900 275.0000 1.0000
58.1000 257.0000 1.0000
58.1100 254.0000 1.0000
58.1200 260.0000 1.0000
58.1300 268.0000 1.0000
58.1400 268.0000 1.0000
58.1500 242.0000 1.0000
58.1600 280.0000 1.0000
58.1700 296.0000 1.0000
58.1800 251.0000 1.0000
58.1900 267.0000 1.0000
58.2000 259.0000 1.0000
58.2100 291.0000 1.0000
58.2200 279.0000 1.0000
58.2300 265.0000 1.0000
58.2400 272.0000 1.0000
58.2500 286.0000 1.0000
58.2600 282.0000 1.0000
58.2700 269.0000 1.0000
58.2800 289.0000 1.0000
58.2900 275.0000 1.0000
58.3000 239.0000 1.0000
58.3100 268.0000 1.0000
58.3200 236.0000 1.0000
58.3300 258.0000 1.0000
58.3400 256.0000 1.0000
58.3500 270.0000 1.0000
58.3600 267.0000 1.0000
58.3700 254.0000 1.0000
58.3800 267.0000 1.0000
58.3900 248.0000 1.0000
58.4000 256.0000 1.0000
58.4100 276.0000 1.0000
58.4200 250.0000 1.0000
58.4300 257.0000 1.0000
58.4400 260.0000 1.0000
58.4500 268.0000 1.0000
58.4600 267.0000 1.0000
58.4700 244.0000 1.0000
58.4800 259.0000 1.0000
58.4900 290.0000 1.0000
58.5000 270.0000 1.0000
58.5100 255.0000 1.0000
58.5200 251.0000 1.0000
58.5300 295.0000 1.0000
58.5400 287.0000 1.0000
58.5500 281.0000 1.0000
58.5600 271.0000 1.0000
58.5700 279.0000 1.0000
58.5800 278.0000 1.0000
58.5900 268.0000 1.0000
58.6000 266.0000 1.0000
58.6100 275.0000 1.0000
58.6200 279.0000 1.0000
58.6300 257.0000 1.0000
58.6400 276.0000 1.0000
58.6500 278.0000 1.0000
58.6600 252.0000 1.0000
58.6700 254.0000 1.0000
58.6800 266.0000 1.0000
58.6900 250.0000 1.0000
58.7000 280.0000 1.0000
58.7100 278.0000 1.0000
58.7200 259.0000 1.0000
58.7300 253.0000 1.0000
58.7400 276.0000 1.0000
58.7500 259.0000 1.0000
58.7600 266.0000 1.0000
58.7700 259.0000 1.0000
58.7800 281.0000 1.0000
58.7900 269.0000 1.0000
58.8000 247.0000 1.0000
58.8100 248.0000 1.0000
58.8200 258.0000 1.0000
58.8300 274.0000 1.0000
58.8400 286.0000 1.0000
58.8500 263.0000 1.0000
58.8600 282.0000 1.0000
58.8700 264.0000 1.0000
58.8800 257.0000 1.0000
58.8900 272.0000 1.0000
58.9000 284.0000 1.0000
58.9100 244.0000 1.0000
58.9200 262.0000 1.0000
58.9300 243.0000 1.0000
58.9400 259.0000 1.0000
58.9500 251.0000 1.0000
58.9600 281.0000 1.0000
58.9700 261.0000 1.0000
58.9800 242.0000 1.0000
58.9900 249.0000 1.0000
59.0000 250.0000 1.0000
59.0100 249.0000 1.0000
59.0200 246.0000 1.0000
59.0300 263.0000 1.0000
59.0400 250.0000 1.0000
59.0500 256.0000 1.0000
59.0600 270.0000 1.0000
59.0700 248.0000 1.0000
59.0800 255.0000 1.0000
59.0900 273.0000 1.0000
59.1000 282.0000 1.0000
59.1100 264.0000 1.0000
59.1200 255.0000 1.0000
59.1300 261.0000 1.0000
59.1400 264.0000 1.0000
59.1500 262.0000 1.0000
59.1600 254.0000 1.0000
59.1700 238.0000 1.0000
59.1800 247.0000 1.0000
59.1900 252.0000 1.0000
59.2000 249.0000 1.0000
59.2100 259.0000 1.0000
59.2200 261.0000 1.0000
59.2300 232.0000 1.0000
59.2400 269.0000 1.0000
59.2500 274.0000 1.0000
59.2600 253.0000 1.0000
59.2700 240.0000 1.0000
59.2800 255.0000 1.0000
59.2900 246.0000 1.0000
59.3000 255.0000 1.0000
59.3100 264.0000 1.0000
59.3200 263.0000 1.0000
59.3300 275.0000 1.0000
59.3400 250.0000 1.0000
59.3500 227.0000 1.0000
59.3600 245.0000 1.0000
59.3700 257.0000 1.0000
59.3800 252.0000 1.0000
59.3900 245.0000 1.0000
59.4000 246.0000 1.0000
59.4100 268.0000 1.0000
59.4200 262.0000 1.0000
59.4300 251.0000 1.0000
59.4400 280.0000 1.0000
59.4500 277.0000 1.0000
59.4600 299.0000 1.0000
59.4700 270.0000 1.0000
59.4800 267.0000 1.0000
59.4900 281.0000 1.0000
59.5000 244.0000 1.0000
59.5100 243.0000 1.0000
59.5200 272.0000 1.0000
59.5300 247.0000 1.0000
59.5400 274.0000 1.0000
59.5500 273.0000 1.0000
59.5600 259.0000 1.0000
59.5700 241.0000 1.0000
59.5800 265.0000 1.0000
59.5900 259.0000 1.0000
59.6000 250.0000 1.0000
59.6100 273.0000 1.0000
59.6200 257.0000 1.0000
59.6300 240.0000 1.0000
59.6400 281.0000 1.0000
59.6500 278.0000 1.0000
59.6600 266.0000 1.0000
59.6700 267.0000 1.0000
59.6800 279.0000 1.0000
59.6900 273.0000 1.0000
59.7000 267.0000 1.0000
59.7100 263.0000 1.0000
59.7200 274.0000 1.0000
59.7300 262.0000 1.0000
59.7400 264.0000 1.0000
59.7500 282.0000 1.0000
59.7600 267.0000 1.0000
59.7700 276.0000 1.0000
59.7800 259.0000 1.0000
59.7900 286.0000 1.0000
59.8000 258.0000 1.0000
59.8100 265.0000 1.0000
59.8200 270.0000 1.0000
59.8300 246.0000 1.0000
59.8400 275.0000 1.0000
59.8500 259.0000 1.0000
59.8600 262.0000 1.0000
59.8700 265.0000 1.0000
59.8800 257.0000 1.0000
59.8900 271.0000 1.0000
59.9000 273.0000 1.0000
59.9100 306.0000 1.0000
59.9200 292.0000 1.0000
59.9300 275.0000 1.0000
59.9400 247.0000 1.0000
59.9500 257.0000 1.0000
59.9600 249.0000 1.0000
59.9700 270.0000 1.0000
59.9800 262.0000 1.0000
59.9900 271.0000 1.0000
60.0000 252.0000 1.0000
60.0100 246.0000 1.0000
60.0200 238.0000 1.0000
60.0300 271.0000 1.0000
60.0400 288.0000 1.0000
60.0500 271.0000 1.0000
60.0600 272.0000 1.0000
60.0700 256.0000 1.0000
60.0800 261.0000 1.0000
60.0900 262.0000 1.0000
60.1000 251.0000 1.0000
60.1100 260.0000 1.0000
60.1200 266.0000 1.0000
60.1300 247.0000 1.0000
60.1400 259.0000 1.0000
60.1500 245.0000 1.0000
60.1600 242.0000 1.0000
60.1700 275.0000 1.0000
60.1800 266.0000 1.0000
60.1900 259.0000 1.0000
60.2000 260.0000 1.0000
60.2100 246.0000 1.0000
60.2200 247.0000 1.0000
60.2300 269.0000 1.0000
60.2400 241.0000 1.0000
60.2500 241.0000 1.0000
60.2600 266.0000 1.0000
60.2700 253.0000 1.0000
60.2800 273.0000 1.0000
60.2900 265.0000 1.0000
60.3000 286.0000 1.0000
60.3100 258.0000 1.0000
60.3200 272.0000 1.0000
60.3300 247.0000 1.0000
60.3400 233.0000 1.0000
60.3500 227.0000 1.0000
60.3600 254.0000 1.0000
60.3700 287.0000 1.0000
60.3800 276.0000 1.0000
60.3900 251.0000 1.0000
60.4000 273.0000 1.0000
60.4100 278.0000 1.0000
60.4200 269.0000 1.0000
60.4300 273.0000 1.0000
60.4400 249.0000 1.0000
60.4500 264.0000 1.0000
60.4600 271.0000 1.0000
60.4700 257.0000 1.0000
60.4800 264.0000 1.0000
60.4900 237.0000 1.0000
60.5000 268.0000 1.0000
60.5100 264.0000 1.0000
60.5200 273.0000 1.0000
60.5300 224.0000 1.0000
60.5400 249.0000 1.0000
60.5500 250.0000 1.0000
60.5600 248.0000 1.0000
60.5700 269.0000 1.0000
60.5800 268.0000 1.0000
60.5900 259.0000 1.0000
60.6000 286.0000 1.0000
60.6100 276.0000 1.0000
60.6200 275.0000 1.0000
60.6300 244.0000 1.0000
60.6400 257.0000 1.0000
60.6500 235.0000 1.0000
60.6600 237.0000 1.0000
60.6700 284.0000 1.0000
60.6800 249.0000 1.0000
60.6900 270.0000 1.0000
60.7000 289.0000 1.0000
60.7100 273.0000 1.0000
60.7200 251.0000 1.0000
60.7300 298.0000 1.0000
60.7400 275.0000 1.0000
60.7500 246.0000 1.0000
60.7600 268.0000 1.0000
60.7700 252.0000 1.0000
60.7800 272.0000 1.0000
60.7900 259.0000 1.0000
60.8000 255.0000 1.0000
60.8100 257.0000 1.0000
60.8200 266.0000 1.0000
60.8300 238.0000 1.0000
60.8400 278.0000 1.0000
60.8500 283.0000 1.0000
60.8600 284.0000 1.0000
60.8700 264.0000 1.0000
60.8800 260.0000 1.0000
60.8900 245.0000 1.0000
60.9000 266.0000 1.0000
60.9100 303.0000 1.0000
60.9200 259.0000 1.0000
60.9300 282.0000 1.0000
60.9400 285.0000 1.0000
60.9500 327.0000 1.0000
60.9600 294.0000 1.0000
60.9700 300.0000 1.0000
60.9800 277.0000 1.0000
60.9900 290.0000 1.0000
61.0000 291.0000 1.0000
61.0100 279.0000 1.0000
61.0200 267.0000 1.0000
61.0300 290.0000 1.0000
61.0400 263.0000 1.0000
61.0500 290.0000 1.0000
61.0600 266.0000 1.0000
61.0700 280.0000 1.0000
61.0800 307.0000 1.0000
61.0900 272.0000 1.0000
61.1000 289.0000 1.0000
61.1100 296.0000 1.0000
61.1200 300.0000 1.0000
61.1300 326.0000 1.0000
61.1400 307.0000 1.0000
61.1500 299.0000 1.0000
61.1600 264.0000 1.0000
61.1700 292.0000 1.0000
61.1800 296.0000 1.0000
61.1900 308.0000 1.0000
61.2000 296.0000 1.0000
61.2100 297.0000 1.0000
61.2200 290.0000 1.0000
61.2300 309.0000 1.0000
61.2400 298.0000 1.0000
61.2500 316.0000 1.0000
61.2600 329.0000 1.0000
61.2700 322.0000 1.0000
61.2800 337.0000 1.0000
61.2900 357.0000 1.0000
61.3000 353.0000 1.0000
61.3100 338.0000 1.0000
61.3200 339.0000 1.0000
61.3300 390.0000 1.0000
61.3400 383.0000 1.0000
61.3500 378.0000 1.0000
61.3600 383.0000 1.0000
61.3700 420.0000 1.0000
61.3800 412.0000 1.0000
61.3900 421.0000 1.0000
61.4000 406.0000 1.0000
61.4100 426.0000 1.0000
61.4200 467.0000 1.0000
61.4300 474.0000 1.0000
61.4400 506.0000 1.0000
61.4500 472.0000 1.0000
61.4600 454.0000 1.0000
61.4700 493.0000 1.0000
61.4800 478.0000 1.0000
61.4900 507.0000 1.0000
61.5000 515.0000 1.0000
61.5100 520.0000 1.0000
61.5200 553.0000 1.0000
61.5300 521.0000 1.0000
61.5400 544.0000 1.0000
61.5500 537.0000 1.0000
61.5600 555.0000 1.0000
61.5700 532.0000 1.0000
61.5800 560.0000 1.0000
61.5900 551.0000 1.0000
61.6000 539.0000 1.0000
61.6100 545.0000 1.0000
61.6200 531.0000 1.0000
61.6300 539.0000 1.0000
61.6400 523.0000 1.0000
61.6500 537.0000 1.0000
61.6600 512.0000 1.0000
61.6700 505.0000 1.0000
61.6800 509.0000 1.0000
61.6900 499.0000 1.0000
61.7000 475.0000 1.0000
61.7100 502.0000 1.0000
61.7200 463.0000 1.0000
61.7300 449.0000 1.0000
61.7400 420.0000 1.0000
61.7500 458.0000 1.0000
61.7600 424.0000 1.0000
61.7700 400.0000 1.0000
61.7800 384.0000 1.0000
61.7900 441.0000 1.0000
61.8000 435.0000 1.0000
61.8100 392.0000 1.0000
61.8200 387.0000 1.0000
61.8300 375.0000 1.0000
61.8400 381.0000 1.0000
61.8500 373.0000 1.0000
61.8600 373.0000 1.0000
61.8700 354.0000 1.0000
61.8800 382.0000 1.0000
61.8900 370.0000 1.0000
61.9000 331.0000 1.0000
61.9100 319.0000 1.0000
61.9200 338.0000 1.0000
61.9300 317.0000 1.0000
61.9400 353.0000 1.0000
61.9500 337.0000 1.0000
61.9600 315.0000 1.0000
61.9700 332.0000 1.0000
61.9800 279.0000 1.0000
61.9900 308.0000 1.0000
62.0000 338.0000 1.0000
62.0100 299.0000 1.0000
62.0200 293.0000 1.0000
62.0300 295.0000 1.0000
62.0400 287.0000 1.0000
62.0500 304.0000 1.0000
62.0600 333.0000 1.0000
62.0700 309.0000 1.0000
62.0800 304.0000 1.0000
62.0900 280.0000 1.0000
62.1000 311.0000 1.0000
62.1100 282.0000 1.0000
62.1200 284.0000 1.0000
62.1300 285.0000 1.0000
62.1400 293.0000 1.0000
62.1500 283.0000 1.0000
62.1600 273.0000 1.0000
62.1700 275.0000 1.0000
62.1800 263.0000 1.0000
62.1900 274.0000 1.0000
62.2000 271.0000 1.0000
62.2100 274.0000 1.0000
62.2200 261.0000 1.0000
62.2300 273.0000 1.0000
62.2400 308.0000 1.0000
62.2500 281.0000 1.0000
62.2600 309.0000 1.0000
62.2700 322.0000 1.0000
62.2800 292.0000 1.0000
62.2900 283.0000 1.0000
62.3000 280.0000 1.0000
62.3100 288.0000 1.0000
62.3200 315.0000 1.0000
62.3300 289.0000 1.0000
62.3400 294.0000 1.0000
62.3500 275.0000 1.0000
62.3600 306.0000 1.0000
62.3700 285.0000 1.0000
62.3800 254.0000 1.0000
62.3900 275.0000 1.0000
62.4000 281.0000 1.0000
62.4100 278.0000 1.0000
62.4200 290.0000 1.0000
62.4300 271.0000 1.0000
62.4400 286.0000 1.0000
62.4500 252.0000 1.0000
62.4600 276.0000 1.0000
62.4700 276.0000 1.0000
62.4800 272.0000 1.0000
62.4900 277.0000 1.0000
62.5000 294.0000 1.0000
62.5100 275.0000 1.0000
62.5200 270.0000 1.0000
62.5300 268.0000 1.0000
62.5400 275.0000 1.0000
62.5500 290.0000 1.0000
62.5600 282.0000 1.0000
62.5700 260.0000 1.0000
62.5800 269.0000 1.0000
62.5900 254.0000 1.0000
62.6000 262.0000 1.0000
62.6100 273.0000 1.0000
62.6200 274.0000 1.0000
62.6300 261.0000 1.0000
62.6400 266.0000 1.0000
62.6500 275.0000 1.0000
62.6600 285.0000 1.0000
62.6700 238.0000 1.0000
62.6800 261.0000 1.0000
62.6900 247.0000 1.0000
62.7000 274.0000 1.0000
62.7100 271.0000 1.0000
62.7200 243.0000 1.0000
62.7300 269.0000 1.0000
62.7400 245.0000 1.0000
62.7500 273.0000 1.0000
62.7600 255.0000 1.0000
62.7700 265.0000 1.0000
62.7800 258.0000 1.0000
62.7900 261.0000 1.0000
62.8000 260.0000 1.0000
62.8100 255.0000 1.0000
62.8200 265.0000 1.0000
62.8300 274.0000 1.0000
62.8400 269.0000 1.0000
62.8500 254.0000 1.0000
62.8600 291.0000 1.0000
62.8700 280.0000 1.0000
62.8800 265.0000 1.0000
62.8900 225.0000 1.0000
62.9000 277.0000 1.0000
62.9100 237.0000 1.0000
62.9200 241.0000 1.0000
62.9300 274.0000 1.0000
62.9400 254.0000 1.0000
62.9500 281.0000 1.0000
62.9600 277.0000 1.0000
62.9700 277.0000 1.0000
62.9800 259.0000 1.0000
62.9900 253.0000 1.0000
63.0000 262.0000 1.0000
63.0100 269.0000 1.0000
63.0200 243.0000 1.0000
63.0300 276.0000 1.0000
63.0400 249.0000 1.0000
63.0500 245.0000 1.0000
63.0600 269.0000 1.0000
63.0700 244.0000 1.0000
63.0800 278.0000 1.0000
63.0900 275.0000 1.0000
63.1000 269.0000 1.0000
63.1100 287.0000 1.0000
63.1200 277.0000 1.0000
63.1300 272.0000 1.0000
63.1400 278.0000 1.0000
63.1500 257.0000 1.0000
63.1600 248.0000 1.0000
63.1700 270.0000 1.0000
63.1800 262.0000 1.0000
63.1900 278.0000 1.0000
63.2000 275.0000 1.0000
63.2100 275.0000 1.0000
63.2200 275.0000 1.0000
63.2300 240.0000 1.0000
63.2400 254.0000 1.0000
63.2500 285.0000 1.0000
63.2600 277.0000 1.0000
63.2700 252.0000 1.0000
63.2800 267.0000 1.0000
63.2900 271.0000 1.0000
63.3000 262.0000 1.0000
63.3100 269.0000 1.0000
63.3200 277.0000 1.0000
63.3300 267.0000 1.0000
63.3400 278.0000 1.0000
63.3500 254.0000 1.0000
63.3600 260.0000 1.0000
63.3700 262.0000 1.0000
63.3800 266.0000 1.0000
63.3900 245.0000 1.0000
63.4000 257.0000 1.0000
63.4100 247.0000 1.0000
63.4200 245.0000 1.0000
63.4300 259.0000 1.0000
63.4400 238.0000 1.0000
63.4500 263.0000 1.0000
63.4600 295.0000 1.0000
63.4700 280.0000 1.0000
63.4800 261.0000 1.0000
63.4900 258.0000 1.0000
63.5000 261.0000 1.0000
63.5100 280.0000 1.0000
63.5200 254.0000 1.0000
63.5300 258.0000 1.0000
63.5400 248.0000 1.0000
63.5500 275.0000 1.0000
63.5600 246.0000 1.0000
63.5700 249.0000 1.0000
63.5800 256.0000 1.0000
63.5900 263.0000 1.0000
63.6000 261.0000 1.0000
63.6100 280.0000 1.0000
63.6200 258.0000 1.0000
63.6300 267.0000 1.0000
63.6400 277.0000 1.0000
63.6500 271.0000 1.0000
63.6600 274.0000 1.0000
63.6700 270.0000 1.0000
63.6800 275.0000 1.0000
63.6900 271.0000 1.0000
63.7000 258.0000 1.0000
63.7100 259.0000 1.0000
63.7200 287.0000 1.0000
63.7300 296.0000 1.0000
63.7400 279.0000 1.0000
63.7500 286.0000 1.0000
63.7600 281.0000 1.0000
63.7700 271.0000 1.0000
63.7800 277.0000 1.0000
63.7900 291.0000 1.0000
63.8000 316.0000 1.0000
63.8100 316.0000 1.0000
63.8200 312.0000 1.0000
63.8300 289.0000 1.0000
63.8400 338.0000 1.0000
63.8500 343.0000 1.0000
63.8600 353.0000 1.0000
63.8700 360.0000 1.0000
63.8800 371.0000 1.0000
63.8900 346.0000 1.0000
63.9000 356.0000 1.0000
63.9100 348.0000 1.0000
63.9200 386.0000 1.0000
63.9300 402.0000 1.0000
63.9400 415.0000 1.0000
63.9500 424.0000 1.0000
63.9600 415.0000 1.0000
63.9700 389.0000 1.0000
63.9800 411.0000 1.0000
63.9900 397.0000 1.0000
64.0000 387.0000 1.0000
64.0100 430.0000 1.0000
64.0200 372.0000 1.0000
64.0300 364.0000 1.0000
64.0400 350.0000 1.0000
64.0500 360.0000 1.0000
64.0600 358.0000 1.0000
64.0700 345.0000 1.0000
64.0800 326.0000 1.0000
64.0900 355.0000 1.0000
64.1000 353.0000 1.0000
64.1100 361.0000 1.0000
64.1200 394.0000 1.0000
64.1300 360.0000 1.0000
64.1400 360.0000 1.0000
64.1500 353.0000 1.0000
64.1600 348.0000 1.0000
64.1700 360.0000 1.0000
64.1800 357.0000 1.0000
64.1900 330.0000 1.0000
64.2000 335.0000 1.0000
64.2100 308.0000 1.0000
64.2200 317.0000 1.0000
64.2300 312.0000 1.0000
64.2400 277.0000 1.0000
64.2500 298.0000 1.0000
64.2600 303.0000 1.0000
64.2700 276.0000 1.0000
64.2800 284.0000 1.0000
64.2900 279.0000 1.0000
64.3000 307.0000 1.0000
64.3100 319.0000 1.0000
64.3200 280.0000 1.0000
64.3300 278.0000 1.0000
64.3400 302.0000 1.0000
64.3500 293.0000 1.0000
64.3600 268.0000 1.0000
64.3700 292.0000 1.0000
64.3800 276.0000 1.0000
64.3900 320.0000 1.0000
64.4000 290.0000 1.0000
64.4100 276.0000 1.0000
64.4200 260.0000 1.0000
64.4300 275.0000 1.0000
64.4400 318.0000 1.0000
64.4500 301.0000 1.0000
64.4600 289.0000 1.0000
64.4700 278.0000 1.0000
64.4800 305.0000 1.0000
64.4900 275.0000 1.0000
64.5000 275.0000 1.0000
64.5100 289.0000 1.0000
64.5200 290.0000 1.0000
64.5300 268.0000 1.0000
64.5400 280.0000 1.0000
64.5500 273.0000 1.0000
64.5600 272.0000 1.0000
64.5700 282.0000 1.0000
64.5800 294.0000 1.0000
64.5900 273.0000 1.0000
64.6000 265.0000 1.0000
64.6100 246.0000 1.0000
64.6200 290.0000 1.0000
64.6300 267.0000 1.0000
64.6400 249.0000 1.0000
64.6500 250.0000 1.0000
64.6600 258.0000 1.0000
64.6700 241.0000 1.0000
64.6800 279.0000 1.0000
64.6900 267.0000 1.0000
64.7000 258.0000 1.0000
64.7100 271.0000 1.0000
64.7200 254.0000 1.0000
64.7300 272.0000 1.0000
64.7400 267.0000 1.0000
64.7500 249.0000 1.0000
64.7600 263.0000 1.0000
64.7700 285.0000 1.0000
64.7800 289.0000 1.0000
64.7900 266.0000 1.0000
64.8000 255.0000 1.0000
64.8100 245.0000 1.0000
64.8200 265.0000 1.0000
64.8300 255.0000 1.0000
64.8400 269.0000 1.0000
64.8500 281.0000 1.0000
64.8600 288.0000 1.0000
64.8700 276.0000 1.0000
64.8800 294.0000 1.0000
64.8900 291.0000 1.0000
64.9000 271.0000 1.0000
64.9100 301.0000 1.0000
64.9200 303.0000 1.0000
64.9300 269.0000 1.0000
64.9400 293.0000 1.0000
64.9500 274.0000 1.0000
64.9600 281.0000 1.0000
64.9700 267.0000 1.0000
64.9800 285.0000 1.0000
64.9900 269.0000 1.0000
65.0000 282.0000 1.0000
65.0100 284.0000 1.0000
65.0200 282.0000 1.0000
65.0300 292.0000 1.0000
65.0400 279.0000 1.0000
65.0500 295.0000 1.0000
65.0600 289.0000 1.0000
65.0700 291.0000 1.0000
65.0800 296.0000 1.0000
65.0900 300.0000 1.0000
65.1000 302.0000 1.0000
65.1100 298.0000 1.0000
65.1200 293.0000 1.0000
65.1300 329.0000 1.0000
65.1400 345.0000 1.0000
65.1500 300.0000 1.0000
65.1600 327.0000 1.0000
65.1700 324.0000 1.0000
65.1800 339.0000 1.0000
65.1900 324.0000 1.0000
65.2000 362.0000 1.0000
65.2100 341.0000 1.0000
65.2200 357.0000 1.0000
65.2300 360.0000 1.0000
65.2400 368.0000 1.0000
65.2500 378.0000 1.0000
65.2600 412.0000 1.0000
65.2700 390.0000 1.0000
65.2800 402.0000 1.0000
65.2900 407.0000 1.0000
65.3000 416.0000 1.0000
65.3100 445.0000 1.0000
65.3200 485.0000 1.0000
65.3300 456.0000 1.0000
65.3400 492.0000 1.0000
65.3500 504.0000 1.0000
65.3600 515.0000 1.0000
65.3700 550.0000 1.0000
65.3800 596.0000 1.0000
65.3900 575.0000 1.0000
65.4000 623.0000 1.0000
65.4100 631.0000 1.0000
65.4200 664.0000 1.0000
65.4300 688.0000 1.0000
65.4400 734.0000 1.0000
65.4500 722.0000 1.0000
65.4600 785.0000 1.0000
65.4700 809.0000 1.0000
65.4800 839.0000 1.0000
65.4900 826.0000 1.0000
65.5000 897.0000 1.0000
65.5100 929.0000 1.0000
65.5200 922.0000 1.0000
65.5300 974.0000 1.0000
65.5400 957.0000 1.0000
65.5500 1000.0000 1.0000
65.5600 950.0000 1.0000
65.5700 1037.0000 1.0000
65.5800 1001.0000 1.0000
65.5900 959.0000 1.0000
65.6000 1005.0000 1.0000
65.6100 974.0000 1.0000
65.6200 878.0000 1.0000
65.6300 890.0000 1.0000
65.6400 850.0000 1.0000
65.6500 851.0000 1.0000
65.6600 871.0000 1.0000
65.6700 822.0000 1.0000
65.6800 788.0000 1.0000
65.6900 816.0000 1.0000
65.7000 771.0000 1.0000
65.7100 751.0000 1.0000
65.7200 790.0000 1.0000
65.7300 733.0000 1.0000
65.7400 750.0000 1.0000
65.7500 730.0000 1.0000
65.7600 692.0000 1.0000
65.7700 690.0000 1.0000
65.7800 619.0000 1.0000
65.7900 581.0000 1.0000
65.8000 611.0000 1.0000
65.8100 607.0000 1.0000
65.8200 562.0000 1.0000
65.8300 564.0000 1.0000
65.8400 508.0000 1.0000
65.8500 470.0000 1.0000
65.8600 500.0000 1.0000
65.8700 428.0000 1.0000
65.8800 434.0000 1.0000
65.8900 461.0000 1.0000
65.9000 433.0000 1.0000
65.9100 384.0000 1.0000
65.9200 383.0000 1.0000
65.9300 409.0000 1.0000
65.9400 391.0000 1.0000
65.9500 355.0000 1.0000
65.9600 321.0000 1.0000
65.9700 349.0000 1.0000
65.9800 320.0000 1.0000
65.9900 305.0000 1.0000
66.0000 334.0000 1.0000
66.0100 318.0000 1.0000
66.0200 298.0000 1.0000
66.0300 330.0000 1.0000
66.0400 320.0000 1.0000
66.0500 337.0000 1.0000
66.0600 307.0000 1.0000
66.0700 290.0000 1.0000
66.0800 308.0000 1.0000
66.0900 332.0000 1.0000
66.1000 310.0000 1.0000
66.1100 269.0000 1.0000
66.1200 300.0000 1.0000
66.1300 272.0000 1.0000
66.1400 307.0000 1.0000
66.1500 288.0000 1.0000
66.1600 301.0000 1.0000
66.1700 277.0000 1.0000
66.1800 288.0000 1.0000
66.1900 272.0000 1.0000
66.2000 285.0000 1.0000
66.2100 287.0000 1.0000
66.2200 297.0000 1.0000
66.2300 287.0000 1.0000
66.2400 280.0000 1.0000
66.2500 275.0000 1.0000
66.2600 253.0000 1.0000
66.2700 262.0000 1.0000
66.2800 252.0000 1.0000
66.2900 262.0000 1.0000
66.3000 256.0000 1.0000
66.3100 255.0000 1.0000
66.3200 257.0000 1.0000
66.3300 255.0000 1.0000
66.3400 305.0000 1.0000
66.3500 281.0000 1.0000
66.3600 235.0000 1.0000
66.3700 252.0000 1.0000
66.3800 237.0000 1.0000
66.3900 246.0000 1.0000
66.4000 256.0000 1.0000
66.4100 265.0000 1.0000
66.4200 253.0000 1.0000
66.4300 257.0000 1.0000
66.4400 286.0000 1.0000
66.4500 251.0000 1.0000
66.4600 264.0000 1.0000
66.4700 259.0000 1.0000
66.4800 250.0000 1.0000
66.4900 273.0000 1.0000
66.5000 250.0000 1.0000
66.5100 248.0000 1.0000
66.5200 262.0000 1.0000
66.5300 227.0000 1.0000
66.5400 240.0000 1.0000
66.5500 249.0000 1.0000
66.5600 258.0000 1.0000
66.5700 235.0000 1.0000
66.5800 250.0000 1.0000
66.5900 230.0000 1.0000
66.6000 241.0000 1.0000
66.6100 270.0000 1.0000
66.6200 235.0000 1.0000
66.6300 232.0000 1.0000
66.6400 239.0000 1.0000
66.6500 246.0000 1.0000
66.6600 264.0000 1.0000
66.6700 256.0000 1.0000
66.6800 276.0000 1.0000
66.6900 257.0000 1.0000
66.7000 261.0000 1.0000
66.7100 244.0000 1.0000
66.7200 270.0000 1.0000
66.7300 252.0000 1.0000
66.7400 236.0000 1.0000
66.7500 229.0000 1.0000
66.7600 244.0000 1.0000
66.7700 272.0000 1.0000
66.7800 268.0000 1.0000
66.7900 258.0000 1.0000
66.8000 254.0000 1.0000
66.8100 246.0000 1.0000
66.8200 245.0000 1.0000
66.8300 258.0000 1.0000
66.8400 237.0000 1.0000
66.8500 234.0000 1.0000
66.8600 222.0000 1.0000
66.8700 223.0000 1.0000
66.8800 252.0000 1.0000
66.8900 251.0000 1.0000
66.9000 243.0000 1.0000
66.9100 270.0000 1.0000
66.9200 233.0000 1.0000
66.9300 264.0000 1.0000
66.9400 246.0000 1.0000
66.9500 238.0000 1.0000
66.9600 246.0000 1.0000
66.9700 266.0000 1.0000
66.9800 222.0000 1.0000
66.9900 235.0000 1.0000
67.0000 234.0000 1.0000
67.0100 237.0000 1.0000
67.0200 216.0000 1.0000
67.0300 252.0000 1.0000
67.0400 251.0000 1.0000
67.0500 252.0000 1.0000
67.0600 240.0000 1.0000
67.0700 240.0000 1.0000
67.0800 264.0000 1.0000
67.0900 246.0000 1.0000
67.1000 237.0000 1.0000
67.1100 246.0000 1.0000
67.1200 249.0000 1.0000
67.1300 265.0000 1.0000
67.1400 246.0000 1.0000
67.1500 241.0000 1.0000
67.1600 244.0000 1.0000
67.1700 249.0000 1.0000
67.1800 257.0000 1.0000
67.1900 243.0000 1.0000
67.2000 216.0000 1.0000
67.2100 262.0000 1.0000
67.2200 244.0000 1.0000
67.2300 251.0000 1.0000
67.2400 238.0000 1.0000
67.2500 238.0000 1.0000
67.2600 235.0000 1.0000
67.2700 231.0000 1.0000
67.2800 230.0000 1.0000
67.2900 281.0000 1.0000
67.3000 244.0000 1.0000
67.3100 240.0000 1.0000
67.3200 241.0000 1.0000
67.3300 221.0000 1.0000
67.3400 250.0000 1.0000
67.3500 237.0000 1.0000
67.3600 241.0000 1.0000
67.3700 232.0000 1.0000
67.3800 279.0000 1.0000
67.3900 266.0000 1.0000
67.4000 238.0000 1.0000
67.4100 254.0000 1.0000
67.4200 237.0000 1.0000
67.4300 228.0000 1.0000
67.4400 236.0000 1.0000
67.4500 233.0000 1.0000
67.4600 242.0000 1.0000
67.4700 244.0000 1.0000
67.4800 241.0000 1.0000
67.4900 228.0000 1.0000
67.5000 243.0000 1.0000
67.5100 230.0000 1.0000
67.5200 244.0000 1.0000
67.5300 214.0000 1.0000
67.5400 209.0000 1.0000
67.5500 217.0000 1.0000
67.5600 239.0000 1.0000
67.5700 248.0000 1.0000
67.5800 241.0000 1.0000
67.5900 248.0000 1.0000
67.6000 216.0000 1.0000
67.6100 259.0000 1.0000
67.6200 217.0000 1.0000
67.6300 241.0000 1.0000
67.6400 249.0000 1.0000
67.6500 230.0000 1.0000
67.6600 239.0000 1.0000
67.6700 248.0000 1.0000
67.6800 240.0000 1.0000
67.6900 238.0000 1.0000
67.7000 249.0000 1.0000
67.7100 222.0000 1.0000
67.7200 228.0000 1.0000
67.7300 221.0000 1.0000
67.7400 238.0000 1.0000
67.7500 224.0000 1.0000
67.7600 227.0000 1.0000
67.7700 245.0000 1.0000
67.7800 239.0000 1.0000
67.7900 244.0000 1.0000
67.8000 244.0000 1.0000
67.8100 230.0000 1.0000
67.8200 243.0000 1.0000
67.8300 234.0000 1.0000
67.8400 245.0000 1.0000
67.8500 194.0000 1.0000
67.8600 221.0000 1.0000
67.8700 253.0000 1.0000
67.8800 231.0000 1.0000
67.8900 217.0000 1.0000
67.9000 210.0000 1.0000
67.9100 247.0000 1.0000
67.9200 232.0000 1.0000
67.9300 241.0000 1.0000
67.9400 237.0000 1.0000
67.9500 237.0000 1.0000
67.9600 248.0000 1.0000
67.9700 246.0000 1.0000
67.9800 220.0000 1.0000
67.9900 231.0000 1.0000
68.0000 239.0000 1.0000
68.0100 217.0000 1.0000
68.0200 236.0000 1.0000
68.0300 220.0000 1.0000
68.0400 241.0000 1.0000
68.0500 223.0000 1.0000
68.0600 237.0000 1.0000
68.0700 242.0000 1.0000
68.0800 237.0000 1.0000
68.0900 232.0000 1.0000
68.1000 223.0000 1.0000
68.1100 272.0000 1.0000
68.1200 237.0000 1.0000
68.1300 226.0000 1.0000
68.1400 212.0000 1.0000
68.1500 229.0000 1.0000
68.1600 246.0000 1.0000
68.1700 245.0000 1.0000
68.1800 235.0000 1.0000
68.1900 240.0000 1.0000
68.2000 254.0000 1.0000
68.2100 219.0000 1.0000
68.2200 240.0000 1.0000
68.2300 259.0000 1.0000
68.2400 232.0000 1.0000
68.2500 224.0000 1.0000
68.2600 238.0000 1.0000
68.2700 233.0000 1.0000
68.2800 221.0000 1.0000
68.2900 214.0000 1.0000
68.3000 219.0000 1.0000
68.3100 228.0000 1.0000
68.3200 235.0000 1.0000
68.3300 241.0000 1.0000
68.3400 228.0000 1.0000
68.3500 235.0000 1.0000
68.3600 240.0000 1.0000
68.3700 237.0000 1.0000
68.3800 203.0000 1.0000
68.3900 228.0000 1.0000
68.4000 239.0000 1.0000
68.4100 225.0000 1.0000
68.4200 253.0000 1.0000
68.4300 249.0000 1.0000
68.4400 230.0000 1.0000
68.4500 250.0000 1.0000
68.4600 233.0000 1.0000
68.4700 224.0000 1.0000
68.4800 239.0000 1.0000
68.4900 199.0000 1.0000
68.5000 206.0000 1.0000
68.5100 232.0000 1.0000
68.5200 243.0000 1.0000
68.5300 234.0000 1.0000
68.5400 226.0000 1.0000
68.5500 205.0000 1.0000
68.5600 241.0000 1.0000
68.5700 257.0000 1.0000
68.5800 257.0000 1.0000
68.5900 233.0000 1.0000
68.6000 242.0000 1.0000
68.6100 251.0000 1.0000
68.6200 228.0000 1.0000
68.6300 240.0000 1.0000
68.6400 218.0000 1.0000
68.6500 246.0000 1.0000
68.6600 237.0000 1.0000
68.6700 223.0000 1.0000
68.6800 238.0000 1.0000
68.6900 218.0000 1.0000
68.7000 230.0000 1.0000
68.7100 263.0000 1.0000
68.7200 215.0000 1.0000
68.7300 224.0000 1.0000
68.7400 254.0000 1.0000
68.7500 240.0000 1.0000
68.7600 252.0000 1.0000
68.7700 255.0000 1.0000
68.7800 239.0000 1.0000
68.7900 237.0000 1.0000
68.8000 237.0000 1.0000
68.8100 231.0000 1.0000
68.8200 217.0000 1.0000
68.8300 224.0000 1.0000
68.8400 214.0000 1.0000
68.8500 230.0000 1.0000
68.8600 248.0000 1.0000
68.8700 243.0000 1.0000
68.8800 235.0000 1.0000
68.8900 244.0000 1.0000
68.9000 218.0000 1.0000
68.9100 229.0000 1.0000
68.9200 225.0000 1.0000
68.9300 251.0000 1.0000
68.9400 237.0000 1.0000
68.9500 226.0000 1.0000
68.9600 241.0000 1.0000
68.9700 233.0000 1.0000
68.9800 226.0000 1.0000
68.9900 205.0000 1.0000
69.0000 230.0000 1.0000
69.0100 240.0000 1.0000
69.0200 243.0000 1.0000
69.0300 250.0000 1.0000
69.0400 245.0000 1.0000
69.0500 236.0000 1.0000
69.0600 252.0000 1.0000
69.0700 241.0000 1.0000
69.0800 241.0000 1.0000
69.0900 216.0000 1.0000
69.1000 242.0000 1.0000
69.1100 237.0000 1.0000
69.1200 234.0000 1.0000
69.1300 211.0000 1.0000
69.1400 234.0000 1.0000
69.1500 274.0000 1.0000
69.1600 247.0000 1.0000
69.1700 228.0000 1.0000
69.1800 242.0000 1.0000
69.1900 216.0000 1.0000
69.2000 216.0000 1.0000
69.2100 208.0000 1.0000
69.2200 212.0000 1.0000
69.2300 210.0000 1.0000
69.2400 227.0000 1.0000
69.2500 226.0000 1.0000
69.2600 257.0000 1.0000
69.2700 237.0000 1.0000
69.2800 237.0000 1.0000
69.2900 234.0000 1.0000
69.3000 251.0000 1.0000
69.3100 223.0000 1.0000
69.3200 223.0000 1.0000
69.3300 216.0000 1.0000
69.3400 236.0000 1.0000
69.3500 229.0000 1.0000
69.3600 222.0000 1.0000
69.3700 232.0000 1.0000
69.3800 239.0000 1.0000
69.3900 246.0000 1.0000
69.4000 232.0000 1.0000
69.4100 237.0000 1.0000
69.4200 226.0000 1.0000
69.4300 218.0000 1.0000
69.4400 220.0000 1.0000
69.4500 225.0000 1.0000
69.4600 218.0000 1.0000
69.4700 220.0000 1.0000
69.4800 220.0000 1.0000
69.4900 226.0000 1.0000
69.5000 226.0000 1.0000
69.5100 231.0000 1.0000
69.5200 222.0000 1.0000
69.5300 203.0000 1.0000
69.5400 195.0000 1.0000
69.5500 207.0000 1.0000
69.5600 228.0000 1.0000
69.5700 239.0000 1.0000
69.5800 248.0000 1.0000
69.5900 239.0000 1.0000
69.6000 243.0000 1.0000
69.6100 221.0000 1.0000
69.6200 224.0000 1.0000
69.6300 218.0000 1.0000
69.6400 230.0000 1.0000
69.6500 235.0000 1.0000
69.6600 223.0000 1.0000
69.6700 222.0000 1.0000
69.6800 201.0000 1.0000
69.6900 238.0000 1.0000
69.7000 248.0000 1.0000
69.7100 237.0000 1.0000
69.7200 223.0000 1.0000
69.7300 235.0000 1.0000
69.7400 229.0000 1.0000
69.7500 226.0000 1.0000
69.7600 232.0000 1.0000
69.7700 246.0000 1.0000
69.7800 225.0000 1.0000
69.7900 209.0000 1.0000
69.8000 210.0000 1.0000
69.8100 229.0000 1.0000
69.8200 224.0000 1.0000
69.8300 234.0000 1.0000
69.8400 218.0000 1.0000
69.8500 202.0000 1.0000
69.8600 226.0000 1.0000
69.8700 214.0000 1.0000
69.8800 199.0000 1.0000
69.8900 203.0000 1.0000
69.9000 212.0000 1.0000
69.9100 209.0000 1.0000
69.9200 223.0000 1.0000
69.9300 207.0000 1.0000
69.9400 205.0000 1.0000
69.9500 219.0000 1.0000
69.9600 239.0000 1.0000
69.9700 223.0000 1.0000
69.9800 233.0000 1.0000
69.9900 212.0000 1.0000
70.0000 232.0000 1.0000
*RAS_INT_END
*RAS_TEMPERATURE_START
*RAS_TEMPERATURE_END
*RAS_DATA_END
