*RAS_DATA_START
*RAS_HEADER_START
*DISP_FMT_X "%.2f"
*DISP_FMT_Y "%.0f"
*DISP_FULLSCALE "20150.0000000000"
*DISP_LINE_COLOR "255.0000000000"
*DISP_LINE_STYLE "0.0000000000"
*DISP_LINE_WIDTH "0.2500000000"
*DISP_NOTE "測定データ-3"
*DISP_OFFSET_Y "0.0000000000"
*DISP_PEAKSEARCH_UNIT_Y "cps"
*DISP_RANGE_BOTTOM "0.0000000000"
*DISP_RANGE_LEFT "20.0000000000"
*DISP_RANGE_LOGCUTOFF "0.0100000000"
*DISP_RANGE_RIGHT "70.0000000000"
*DISP_RANGE_TOP "20150.0000000000"
*DISP_SCALE_MODE_Y "0.0000000000"
*DISP_TAB_NAME "2θ/θ"
*DISP_TITLE_Y "強度"
*DISP_UNIT_Y "cps"
*DISP_WINDOW_NAME "MSG_MACROENGINE"
*FILE_COMMENT " "
*FILE_MD5 ""
*FILE_MEMO " "
*FILE_OPERATOR "Administrator"
*FILE_SAMPLE " "
*FILE_TYPE "RAS_RAW"
*FILE_USERGROUP "システムマネージャ"
*FILE_VERSION "1.0000000000"
*HW_ATTACHMENT_ID "ATT0025"
*HW_ATTACHMENT_NAME "標準|Standard"
*HW_COUNTER_ID-0 "CUT0025"
*HW_COUNTER_ID-1 "CUT0020"
*HW_COUNTER_ID-2 "CUT0020"
*HW_COUNTER_ID-3 "CSL0021"
*HW_COUNTER_ID-4 "CMC0021"
*HW_COUNTER_NAME-0 "D/teX Ultra|D/teX Ultra"
*HW_COUNTER_NAME-1 "None|None"
*HW_COUNTER_NAME-2 "None|None"
*HW_COUNTER_NAME-3 "BBM|BBM"
*HW_COUNTER_NAME-4 "検出器モノクロメータ|Detector monochromator"
*HW_COUNTER_SELECT_NAME "D/teX Ultra|D/teX Ultra"
*HW_GONIOMETER_ID "GON0023"
*HW_GONIOMETER_NAME "SmartLab|SmartLab"
*HW_GONIOMETER_RADIUS-0 "90.0"
*HW_GONIOMETER_RADIUS-1 "114.0"
*HW_GONIOMETER_RADIUS-2 "190.0"
*HW_GONIOMETER_RADIUS-3 "300.0"
*HW_GONIOMETER_RADIUS-4 "187.0"
*HW_GONIOMETER_RADIUS-5 "300.0"
*HW_GONIOMETER_RADIUS-6 "113.0"
*HW_GONIOMETER_RADIUS-7 "331.0"
*HW_I_OPT_ID-0 "CBO0021"
*HW_I_OPT_ID-1 "ICR0023"
*HW_I_OPT_ID-2 "ISL0021"
*HW_I_OPT_ID-3 "ISO0021"
*HW_I_OPT_ID-4 "IAD0021"
*HW_I_OPT_ID-5 "IPR0001"
*HW_I_OPT_NAME-0 "CBOユニット|CBO unit"
*HW_I_OPT_NAME-1 "標準入射光学ユニット|Standard incident optical unit"
*HW_I_OPT_NAME-2 "標準入射スリットボックス|Standard incident slit box"
*HW_I_OPT_NAME-3 "入射平行スリット|Incident parallel slit"
*HW_I_OPT_NAME-4 "長手制限スリット|Length limiting slit"
*HW_I_OPT_NAME-5 "None|None"
*HW_R_ATTENUATER_AUTOMODE "0"
*HW_R_OPT_ID-0 "RSS0021"
*HW_R_OPT_ID-1 "RCR0023"
*HW_R_OPT_ID-2 "RSO0021"
*HW_R_OPT_ID-3 "RRS0021"
*HW_R_OPT_ID-4 "ATN0021"
*HW_R_OPT_ID-5 "RFL0021"
*HW_R_OPT_ID-6 "RAD0021"
*HW_R_OPT_NAME-0 "標準受光スリットボックス1|Standard receiving slit box # 1"
*HW_R_OPT_NAME-1 "標準受光光学ユニット1|Standard receiving unit # 1"
*HW_R_OPT_NAME-2 "標準受光光学ユニット2|Standard receiving optical unit # 2"
*HW_R_OPT_NAME-3 "標準受光スリットボックス2|Standard receiving slit box # 2"
*HW_R_OPT_NAME-4 "標準アッテネータ|Standard Attenuator"
*HW_R_OPT_NAME-5 "Cu Kβ|Cu K-beta"
*HW_R_OPT_NAME-6 "調整用受光スリット|Alignment receiving slit"
*HW_SAMPLE_HOLDER_ID "SMP0023"
*HW_SAMPLE_HOLDER_NAME "標準Zステージ|Standard Z stage"
*HW_XG_CURRENT_MAX "50"
*HW_XG_CURRENT_MIN "2"
*HW_XG_CURRENT_RESOLUTION "1"
*HW_XG_CURRENT_UNIT "mA"
*HW_XG_FOCUS "1mm x 10mm"
*HW_XG_FOCUS_TYPE "Normal"
*HW_XG_ID ""
*HW_XG_NAME "3kW 封入管(ID:1200)|3kW Sealed tube(ID:1200)"
*HW_XG_TARGET_ATOMIC_NUMBER "29.0000000000"
*HW_XG_TARGET_NAME "Cu"
*HW_XG_TYPE "Hermetic"
*HW_XG_VOLTAGE_MAX "60"
*HW_XG_VOLTAGE_MIN "20"
*HW_XG_VOLTAGE_RESOLUTION "1"
*HW_XG_VOLTAGE_UNIT "kV"
*HW_XG_WATT_MAX "1.500"
*HW_XG_WATT_UNIT "kW"
*HW_XG_WAVE_LENGTH_ALPHA1 "1.540593"
*HW_XG_WAVE_LENGTH_ALPHA2 "1.544414"
*HW_XG_WAVE_LENGTH_BETA "1.392250"
*MEAS_COND_AXIS_NAME-0 "2θ/θ"
*MEAS_COND_AXIS_NAME-1 "2θ"
*MEAS_COND_AXIS_NAME-2 "ω"
*MEAS_COND_AXIS_NAME-3 "Z"
*MEAS_COND_AXIS_NAME-4 "2θ/ω"
*MEAS_COND_AXIS_NAME-5 "θs"
*MEAS_COND_AXIS_NAME-6 "θd"
*MEAS_COND_AXIS_NAME-7 "Ts"
*MEAS_COND_AXIS_NAME-8 "CBO選択スリット"
*MEAS_COND_AXIS_NAME-9 "M"
*MEAS_COND_AXIS_NAME-10 "入射平行スリット"
*MEAS_COND_AXIS_NAME-11 "入射スリット"
*MEAS_COND_AXIS_NAME-12 ""
*MEAS_COND_AXIS_NAME-13 "Zs"
*MEAS_COND_AXIS_NAME-14 "入射光学素子"
*MEAS_COND_AXIS_NAME-15 "長手制限スリット"
*MEAS_COND_AXIS_NAME-16 "センタースリット"
*MEAS_COND_AXIS_NAME-17 "フィルター"
*MEAS_COND_AXIS_NAME-18 "受光スリット1"
*MEAS_COND_AXIS_NAME-19 "受光スリット2"
*MEAS_COND_AXIS_NAME-20 "受光光学素子"
*MEAS_COND_AXIS_NAME-21 "受光平行スリット"
*MEAS_COND_AXIS_NAME-22 "調整用受光スリット"
*MEAS_COND_AXIS_NAME-23 ""
*MEAS_COND_AXIS_NAME-24 ""
*MEAS_COND_AXIS_NAME-25 "Zd"
*MEAS_COND_AXIS_NAME-26 "アッテネータ"
*MEAS_COND_AXIS_NAME-27 "検出器モノクロメータ"
*MEAS_COND_AXIS_NAME-28 "モノクロメータスリット"
*MEAS_COND_AXIS_NAME-29 "プライマリビーム"
*MEAS_COND_AXIS_NAME-30 "PHA"
*MEAS_COND_AXIS_NAME_INTERNAL-0 "TwoThetaTheta"
*MEAS_COND_AXIS_NAME_INTERNAL-1 "TwoTheta"
*MEAS_COND_AXIS_NAME_INTERNAL-2 "Omega"
*MEAS_COND_AXIS_NAME_INTERNAL-3 "Z"
*MEAS_COND_AXIS_NAME_INTERNAL-4 "TwoThetaOmega"
*MEAS_COND_AXIS_NAME_INTERNAL-5 "ThetaS"
*MEAS_COND_AXIS_NAME_INTERNAL-6 "ThetaD"
*MEAS_COND_AXIS_NAME_INTERNAL-7 "Ts"
*MEAS_COND_AXIS_NAME_INTERNAL-8 "CBO"
*MEAS_COND_AXIS_NAME_INTERNAL-9 "CBO-M"
*MEAS_COND_AXIS_NAME_INTERNAL-10 "IncidentSollerSlit"
*MEAS_COND_AXIS_NAME_INTERNAL-11 "IncidentSlitBox"
*MEAS_COND_AXIS_NAME_INTERNAL-12 "IncidentSlitBox-_Axis"
*MEAS_COND_AXIS_NAME_INTERNAL-13 "Zs"
*MEAS_COND_AXIS_NAME_INTERNAL-14 "IncidentMonochromator"
*MEAS_COND_AXIS_NAME_INTERNAL-15 "IncidentAxdSlit"
*MEAS_COND_AXIS_NAME_INTERNAL-16 "CenterSlit"
*MEAS_COND_AXIS_NAME_INTERNAL-17 "Filter"
*MEAS_COND_AXIS_NAME_INTERNAL-18 "ReceivingSlitBox1"
*MEAS_COND_AXIS_NAME_INTERNAL-19 "ReceivingSlitBox2"
*MEAS_COND_AXIS_NAME_INTERNAL-20 "ReceivingOptics"
*MEAS_COND_AXIS_NAME_INTERNAL-21 "ReceivingSollerSlit"
*MEAS_COND_AXIS_NAME_INTERNAL-22 "ReceivingAxdSlit"
*MEAS_COND_AXIS_NAME_INTERNAL-23 "ReceivingSlitBox1-_Axis"
*MEAS_COND_AXIS_NAME_INTERNAL-24 "ReceivingSlitBox2-_Axis"
*MEAS_COND_AXIS_NAME_INTERNAL-25 "ReceivingSlitBox2-Zd"
*MEAS_COND_AXIS_NAME_INTERNAL-26 "Attenuator"
*MEAS_COND_AXIS_NAME_INTERNAL-27 "CounterMonochromator"
*MEAS_COND_AXIS_NAME_INTERNAL-28 "CounterSlit"
*MEAS_COND_AXIS_NAME_INTERNAL-29 "IncidentPrimary"
*MEAS_COND_AXIS_NAME_INTERNAL-30 "PHA"
*MEAS_COND_AXIS_NAME_MAGICNO-0 "83951616.0000000000"
*MEAS_COND_AXIS_NAME_MAGICNO-1 "268632064.0000000000"
*MEAS_COND_AXIS_NAME_MAGICNO-2 "268500992.0000000000"
*MEAS_COND_AXIS_NAME_MAGICNO-3 "285278208.0000000000"
*MEAS_COND_AXIS_NAME_MAGICNO-4 "83951616.0000000000"
*MEAS_COND_AXIS_NAME_MAGICNO-5 "131072.0000000000"
*MEAS_COND_AXIS_NAME_MAGICNO-6 "131072.0000000000"
*MEAS_COND_AXIS_NAME_MAGICNO-7 "318898176.0000000000"
*MEAS_COND_AXIS_NAME_MAGICNO-8 "20971521.0000000000"
*MEAS_COND_AXIS_NAME_MAGICNO-9 "285343744.0000000000"
*MEAS_COND_AXIS_NAME_MAGICNO-10 "20971521.0000000000"
*MEAS_COND_AXIS_NAME_MAGICNO-11 "22020097.0000000000"
*MEAS_COND_AXIS_NAME_MAGICNO-12 "25165824.0000000000"
*MEAS_COND_AXIS_NAME_MAGICNO-13 "318898176.0000000000"
*MEAS_COND_AXIS_NAME_MAGICNO-14 "1.0000000000"
*MEAS_COND_AXIS_NAME_MAGICNO-15 "20971521.0000000000"
*MEAS_COND_AXIS_NAME_MAGICNO-16 "20971521.0000000000"
*MEAS_COND_AXIS_NAME_MAGICNO-17 "20971521.0000000000"
*MEAS_COND_AXIS_NAME_MAGICNO-18 "23068673.0000000000"
*MEAS_COND_AXIS_NAME_MAGICNO-19 "23068673.0000000000"
*MEAS_COND_AXIS_NAME_MAGICNO-20 "20971521.0000000000"
*MEAS_COND_AXIS_NAME_MAGICNO-21 "20971521.0000000000"
*MEAS_COND_AXIS_NAME_MAGICNO-22 "20971521.0000000000"
*MEAS_COND_AXIS_NAME_MAGICNO-23 "25165824.0000000000"
*MEAS_COND_AXIS_NAME_MAGICNO-24 "25165824.0000000000"
*MEAS_COND_AXIS_NAME_MAGICNO-25 "285343744.0000000000"
*MEAS_COND_AXIS_NAME_MAGICNO-26 "17301505.0000000000"
*MEAS_COND_AXIS_NAME_MAGICNO-27 "20971521.0000000000"
*MEAS_COND_AXIS_NAME_MAGICNO-28 "20971521.0000000000"
*MEAS_COND_AXIS_NAME_MAGICNO-29 "20971521.0000000000"
*MEAS_COND_AXIS_NAME_MAGICNO-30 "0.0000000000"
*MEAS_COND_AXIS_OFFSET-0 "-"
*MEAS_COND_AXIS_OFFSET-1 "-0.0801000000"
*MEAS_COND_AXIS_OFFSET-2 "0.1283000000"
*MEAS_COND_AXIS_OFFSET-3 "-"
*MEAS_COND_AXIS_OFFSET-4 "-"
*MEAS_COND_AXIS_OFFSET-5 "0.1283000000"
*MEAS_COND_AXIS_OFFSET-6 "-0.2084000000"
*MEAS_COND_AXIS_OFFSET-7 "-"
*MEAS_COND_AXIS_OFFSET-8 "-"
*MEAS_COND_AXIS_OFFSET-9 "-"
*MEAS_COND_AXIS_OFFSET-10 "-"
*MEAS_COND_AXIS_OFFSET-11 "-"
*MEAS_COND_AXIS_OFFSET-12 "-"
*MEAS_COND_AXIS_OFFSET-13 "-"
*MEAS_COND_AXIS_OFFSET-14 "-"
*MEAS_COND_AXIS_OFFSET-15 "-"
*MEAS_COND_AXIS_OFFSET-16 "-"
*MEAS_COND_AXIS_OFFSET-17 "-"
*MEAS_COND_AXIS_OFFSET-18 "-"
*MEAS_COND_AXIS_OFFSET-19 "-"
*MEAS_COND_AXIS_OFFSET-20 "-"
*MEAS_COND_AXIS_OFFSET-21 "-"
*MEAS_COND_AXIS_OFFSET-22 "-"
*MEAS_COND_AXIS_OFFSET-23 "-"
*MEAS_COND_AXIS_OFFSET-24 "-"
*MEAS_COND_AXIS_OFFSET-25 "-"
*MEAS_COND_AXIS_OFFSET-26 "-"
*MEAS_COND_AXIS_OFFSET-27 "-"
*MEAS_COND_AXIS_OFFSET-28 "-"
*MEAS_COND_AXIS_OFFSET-29 "-"
*MEAS_COND_AXIS_OFFSET-30 "-"
*MEAS_COND_AXIS_POSITION-0 "0.0000000000"
*MEAS_COND_AXIS_POSITION-1 "0.0000000000"
*MEAS_COND_AXIS_POSITION-2 "0.0000000000"
*MEAS_COND_AXIS_POSITION-3 "-2.9935200000"
*MEAS_COND_AXIS_POSITION-4 "0.0000000000"
*MEAS_COND_AXIS_POSITION-5 "0.0000000000"
*MEAS_COND_AXIS_POSITION-6 "0.0000000000"
*MEAS_COND_AXIS_POSITION-7 "-0.4278800000"
*MEAS_COND_AXIS_POSITION-8 "BB"
*MEAS_COND_AXIS_POSITION-9 "0.0000000000"
*MEAS_COND_AXIS_POSITION-10 "Soller_slit_5.0deg"
*MEAS_COND_AXIS_POSITION-11 "2/3deg"
*MEAS_COND_AXIS_POSITION-12 "2.2088000000"
*MEAS_COND_AXIS_POSITION-13 "-1.0609400000"
*MEAS_COND_AXIS_POSITION-14 "0.0000000000"
*MEAS_COND_AXIS_POSITION-15 "10.0mm"
*MEAS_COND_AXIS_POSITION-16 "None"
*MEAS_COND_AXIS_POSITION-17 "Cu_K-beta"
*MEAS_COND_AXIS_POSITION-18 "13.000mm"
*MEAS_COND_AXIS_POSITION-19 "13.000mm"
*MEAS_COND_AXIS_POSITION-20 "No_unit"
*MEAS_COND_AXIS_POSITION-21 "Soller_slit_5.0deg"
*MEAS_COND_AXIS_POSITION-22 "None"
*MEAS_COND_AXIS_POSITION-23 "13.0000000000"
*MEAS_COND_AXIS_POSITION-24 "13.0000000000"
*MEAS_COND_AXIS_POSITION-25 "0.0081300000"
*MEAS_COND_AXIS_POSITION-26 "Open"
*MEAS_COND_AXIS_POSITION-27 "None"
*MEAS_COND_AXIS_POSITION-28 "None"
*MEAS_COND_AXIS_POSITION-29 "None"
*MEAS_COND_AXIS_POSITION-30 "38.0000000000"
*MEAS_COND_AXIS_UNIT-0 "deg"
*MEAS_COND_AXIS_UNIT-1 "deg"
*MEAS_COND_AXIS_UNIT-2 "deg"
*MEAS_COND_AXIS_UNIT-3 "mm"
*MEAS_COND_AXIS_UNIT-4 "deg"
*MEAS_COND_AXIS_UNIT-5 "deg"
*MEAS_COND_AXIS_UNIT-6 "deg"
*MEAS_COND_AXIS_UNIT-7 "mm"
*MEAS_COND_AXIS_UNIT-8 ""
*MEAS_COND_AXIS_UNIT-9 "pulse"
*MEAS_COND_AXIS_UNIT-10 ""
*MEAS_COND_AXIS_UNIT-11 ""
*MEAS_COND_AXIS_UNIT-12 "mm"
*MEAS_COND_AXIS_UNIT-13 "mm"
*MEAS_COND_AXIS_UNIT-14 ""
*MEAS_COND_AXIS_UNIT-15 ""
*MEAS_COND_AXIS_UNIT-16 ""
*MEAS_COND_AXIS_UNIT-17 ""
*MEAS_COND_AXIS_UNIT-18 ""
*MEAS_COND_AXIS_UNIT-19 ""
*MEAS_COND_AXIS_UNIT-20 ""
*MEAS_COND_AXIS_UNIT-21 ""
*MEAS_COND_AXIS_UNIT-22 ""
*MEAS_COND_AXIS_UNIT-23 "mm"
*MEAS_COND_AXIS_UNIT-24 "mm"
*MEAS_COND_AXIS_UNIT-25 "mm"
*MEAS_COND_AXIS_UNIT-26 ""
*MEAS_COND_AXIS_UNIT-27 ""
*MEAS_COND_AXIS_UNIT-28 ""
*MEAS_COND_AXIS_UNIT-29 ""
*MEAS_COND_AXIS_UNIT-30 "div"
*MEAS_COND_COUNTER_CNTLOSS_CORR "0.0000000000"
*MEAS_COND_COUNTER_PHABASE "38.0000000000"
*MEAS_COND_COUNTER_PHAWINDOW "16.0000000000"
*MEAS_COND_COUNTER_PHA_UNIT "div"
*MEAS_COND_COUNTER_TAUDIFF "30.0000000000"
*MEAS_COND_COUNTER_TAUINT "0.0000000000"
*MEAS_COND_IRRADIATION_MODE "OFF"
*MEAS_COND_IRRADIATION_WIDTH ""
*MEAS_COND_OPT_ATTR "集中法"
*MEAS_COND_OPT_NAME "@集中法"
*MEAS_COND_UNSYMMETRIC_MODE "OFF"
*MEAS_COND_XG_CURRENT "30.0000000000"
*MEAS_COND_XG_VOLTAGE "40.0000000000"
*MEAS_COND_XG_WAVE_TYPE "Ka"
*MEAS_DATA_COUNT "5001.0000000000"
*MEAS_SCAN_AXIS_X "2θ/θ"
*MEAS_SCAN_AXIS_X_INTERNAL "TwoThetaTheta"
*MEAS_SCAN_END_TIME "07/20/22 16:10:07"
*MEAS_SCAN_MODE "CONTINUOUS"
*MEAS_SCAN_MONITOR "0"
*MEAS_SCAN_RESOLUTION_X "0.0002"
*MEAS_SCAN_SPEED "2.5"
*MEAS_SCAN_SPEED_UNIT "deg/min"
*MEAS_SCAN_START "20.0000000000"
*MEAS_SCAN_START_TIME "07/20/22 15:48:43"
*MEAS_SCAN_STEP "0.0100000000"
*MEAS_SCAN_STOP "70.0000000000"
*MEAS_SCAN_UNIT_X "deg"
*MEAS_SCAN_UNIT_Y "counts"
*RAS_HEADER_END
*RAS_INT_START
20.0000 1055.0000 1.0000
20.0100 1052.0000 1.0000
20.0200 1025.0000 1.0000
20.0300 1001.0000 1.0000
20.0400 1087.0000 1.0000
20.0500 1066.0000 1.0000
20.0600 1067.0000 1.0000
20.0700 1052.0000 1.0000
20.0800 1056.0000 1.0000
20.0900 1072.0000 1.0000
20.1000 1056.0000 1.0000
20.1100 1060.0000 1.0000
20.1200 1051.0000 1.0000
20.1300 1032.0000 1.0000
20.1400 1096.0000 1.0000
20.1500 1009.0000 1.0000
20.1600 1033.0000 1.0000
20.1700 1053.0000 1.0000
20.1800 1023.0000 1.0000
20.1900 1019.0000 1.0000
20.2000 1081.0000 1.0000
20.2100 1058.0000 1.0000
20.2200 1039.0000 1.0000
20.2300 1012.0000 1.0000
20.2400 1034.0000 1.0000
20.2500 1095.0000 1.0000
20.2600 1048.0000 1.0000
20.2700 1041.0000 1.0000
20.2800 1068.0000 1.0000
20.2900 1069.0000 1.0000
20.3000 1040.0000 1.0000
20.3100 1055.0000 1.0000
20.3200 1078.0000 1.0000
20.3300 1050.0000 1.0000
20.3400 1032.0000 1.0000
20.3500 1060.0000 1.0000
20.3600 1042.0000 1.0000
20.3700 1085.0000 1.0000
20.3800 1041.0000 1.0000
20.3900 1044.0000 1.0000
20.4000 1038.0000 1.0000
20.4100 1069.0000 1.0000
20.4200 1033.0000 1.0000
20.4300 1088.0000 1.0000
20.4400 1056.0000 1.0000
20.4500 1065.0000 1.0000
20.4600 1113.0000 1.0000
20.4700 1069.0000 1.0000
20.4800 1048.0000 1.0000
20.4900 981.0000 1.0000
20.5000 1050.0000 1.0000
20.5100 1047.0000 1.0000
20.5200 1024.0000 1.0000
20.5300 1025.0000 1.0000
20.5400 1040.0000 1.0000
20.5500 1068.0000 1.0000
20.5600 1076.0000 1.0000
20.5700 992.0000 1.0000
20.5800 1071.0000 1.0000
20.5900 1035.0000 1.0000
20.6000 1036.0000 1.0000
20.6100 1055.0000 1.0000
20.6200 1008.0000 1.0000
20.6300 1061.0000 1.0000
20.6400 1072.0000 1.0000
20.6500 1020.0000 1.0000
20.6600 1049.0000 1.0000
20.6700 997.0000 1.0000
20.6800 984.0000 1.0000
20.6900 988.0000 1.0000
20.7000 1031.0000 1.0000
20.7100 1054.0000 1.0000
20.7200 1081.0000 1.0000
20.7300 1052.0000 1.0000
20.7400 1113.0000 1.0000
20.7500 1060.0000 1.0000
20.7600 979.0000 1.0000
20.7700 1032.0000 1.0000
20.7800 1105.0000 1.0000
20.7900 1084.0000 1.0000
20.8000 1034.0000 1.0000
20.8100 1074.0000 1.0000
20.8200 1035.0000 1.0000
20.8300 1031.0000 1.0000
20.8400 1035.0000 1.0000
20.8500 1096.0000 1.0000
20.8600 1041.0000 1.0000
20.8700 994.0000 1.0000
20.8800 1060.0000 1.0000
20.8900 1040.0000 1.0000
20.9000 1080.0000 1.0000
20.9100 1061.0000 1.0000
20.9200 1022.0000 1.0000
20.9300 1054.0000 1.0000
20.9400 1039.0000 1.0000
20.9500 1055.0000 1.0000
20.9600 1048.0000 1.0000
20.9700 1039.0000 1.0000
20.9800 1073.0000 1.0000
20.9900 1029.0000 1.0000
21.0000 1022.0000 1.0000
21.0100 1012.0000 1.0000
21.0200 1009.0000 1.0000
21.0300 1086.0000 1.0000
21.0400 1047.0000 1.0000
21.0500 1062.0000 1.0000
21.0600 1061.0000 1.0000
21.0700 1023.0000 1.0000
21.0800 1092.0000 1.0000
21.0900 1064.0000 1.0000
21.1000 1050.0000 1.0000
21.1100 1042.0000 1.0000
21.1200 1030.0000 1.0000
21.1300 984.0000 1.0000
21.1400 1044.0000 1.0000
21.1500 1021.0000 1.0000
21.1600 1047.0000 1.0000
21.1700 1079.0000 1.0000
21.1800 1032.0000 1.0000
21.1900 1041.0000 1.0000
21.2000 1057.0000 1.0000
21.2100 1056.0000 1.0000
21.2200 1059.0000 1.0000
21.2300 1082.0000 1.0000
21.2400 1048.0000 1.0000
21.2500 1059.0000 1.0000
21.2600 1022.0000 1.0000
21.2700 1049.0000 1.0000
21.2800 1069.0000 1.0000
21.2900 1029.0000 1.0000
21.3000 1044.0000 1.0000
21.3100 1030.0000 1.0000
21.3200 1033.0000 1.0000
21.3300 1087.0000 1.0000
21.3400 1040.0000 1.0000
21.3500 1015.0000 1.0000
21.3600 1084.0000 1.0000
21.3700 1062.0000 1.0000
21.3800 1006.0000 1.0000
21.3900 1036.0000 1.0000
21.4000 1075.0000 1.0000
21.4100 1068.0000 1.0000
21.4200 1044.0000 1.0000
21.4300 1047.0000 1.0000
21.4400 1022.0000 1.0000
21.4500 1031.0000 1.0000
21.4600 1035.0000 1.0000
21.4700 1064.0000 1.0000
21.4800 1042.0000 1.0000
21.4900 1059.0000 1.0000
21.5000 1023.0000 1.0000
21.5100 1038.0000 1.0000
21.5200 1038.0000 1.0000
21.5300 1051.0000 1.0000
21.5400 1013.0000 1.0000
21.5500 1058.0000 1.0000
21.5600 1043.0000 1.0000
21.5700 1008.0000 1.0000
21.5800 1028.0000 1.0000
21.5900 1081.0000 1.0000
21.6000 1004.0000 1.0000
21.6100 1054.0000 1.0000
21.6200 988.0000 1.0000
21.6300 1055.0000 1.0000
21.6400 1051.0000 1.0000
21.6500 1067.0000 1.0000
21.6600 1042.0000 1.0000
21.6700 1059.0000 1.0000
21.6800 1032.0000 1.0000
21.6900 1059.0000 1.0000
21.7000 1030.0000 1.0000
21.7100 1018.0000 1.0000
21.7200 1049.0000 1.0000
21.7300 1091.0000 1.0000
21.7400 1103.0000 1.0000
21.7500 1048.0000 1.0000
21.7600 1045.0000 1.0000
21.7700 1034.0000 1.0000
21.7800 1051.0000 1.0000
21.7900 1113.0000 1.0000
21.8000 1090.0000 1.0000
21.8100 1007.0000 1.0000
21.8200 1026.0000 1.0000
21.8300 1062.0000 1.0000
21.8400 1022.0000 1.0000
21.8500 1028.0000 1.0000
21.8600 1052.0000 1.0000
21.8700 1043.0000 1.0000
21.8800 1067.0000 1.0000
21.8900 1069.0000 1.0000
21.9000 1061.0000 1.0000
21.9100 1078.0000 1.0000
21.9200 1020.0000 1.0000
21.9300 993.0000 1.0000
21.9400 1044.0000 1.0000
21.9500 1069.0000 1.0000
21.9600 1036.0000 1.0000
21.9700 1034.0000 1.0000
21.9800 1037.0000 1.0000
21.9900 1020.0000 1.0000
22.0000 1006.0000 1.0000
22.0100 1016.0000 1.0000
22.0200 1084.0000 1.0000
22.0300 1081.0000 1.0000
22.0400 1048.0000 1.0000
22.0500 1022.0000 1.0000
22.0600 1010.0000 1.0000
22.0700 1029.0000 1.0000
22.0800 1054.0000 1.0000
22.0900 1017.0000 1.0000
22.1000 1011.0000 1.0000
22.1100 1020.0000 1.0000
22.1200 1049.0000 1.0000
22.1300 1054.0000 1.0000
22.1400 1010.0000 1.0000
22.1500 999.0000 1.0000
22.1600 1060.0000 1.0000
22.1700 1100.0000 1.0000
22.1800 1044.0000 1.0000
22.1900 1015.0000 1.0000
22.2000 1042.0000 1.0000
22.2100 1026.0000 1.0000
22.2200 1016.0000 1.0000
22.2300 1067.0000 1.0000
22.2400 1061.0000 1.0000
22.2500 1051.0000 1.0000
22.2600 1072.0000 1.0000
22.2700 1034.0000 1.0000
22.2800 1036.0000 1.0000
22.2900 1068.0000 1.0000
22.3000 1044.0000 1.0000
22.3100 1036.0000 1.0000
22.3200 992.0000 1.0000
22.3300 1077.0000 1.0000
22.3400 1064.0000 1.0000
22.3500 998.0000 1.0000
22.3600 1034.0000 1.0000
22.3700 1060.0000 1.0000
22.3800 1033.0000 1.0000
22.3900 1015.0000 1.0000
22.4000 1044.0000 1.0000
22.4100 1085.0000 1.0000
22.4200 1004.0000 1.0000
22.4300 1066.0000 1.0000
22.4400 1016.0000 1.0000
22.4500 1017.0000 1.0000
22.4600 1036.0000 1.0000
22.4700 1091.0000 1.0000
22.4800 1026.0000 1.0000
22.4900 1052.0000 1.0000
22.5000 1046.0000 1.0000
22.5100 1075.0000 1.0000
22.5200 1085.0000 1.0000
22.5300 1064.0000 1.0000
22.5400 1051.0000 1.0000
22.5500 989.0000 1.0000
22.5600 1017.0000 1.0000
22.5700 963.0000 1.0000
22.5800 1018.0000 1.0000
22.5900 1008.0000 1.0000
22.6000 1049.0000 1.0000
22.6100 1025.0000 1.0000
22.6200 1007.0000 1.0000
22.6300 1058.0000 1.0000
22.6400 1054.0000 1.0000
22.6500 999.0000 1.0000
22.6600 1026.0000 1.0000
22.6700 1008.0000 1.0000
22.6800 1050.0000 1.0000
22.6900 1005.0000 1.0000
22.7000 1038.0000 1.0000
22.7100 1008.0000 1.0000
22.7200 1016.0000 1.0000
22.7300 1049.0000 1.0000
22.7400 1066.0000 1.0000
22.7500 1024.0000 1.0000
22.7600 1015.0000 1.0000
22.7700 1011.0000 1.0000
22.7800 1045.0000 1.0000
22.7900 1078.0000 1.0000
22.8000 980.0000 1.0000
22.8100 1003.0000 1.0000
22.8200 990.0000 1.0000
22.8300 990.0000 1.0000
22.8400 989.0000 1.0000
22.8500 1025.0000 1.0000
22.8600 995.0000 1.0000
22.8700 1044.0000 1.0000
22.8800 1069.0000 1.0000
22.8900 1029.0000 1.0000
22.9000 996.0000 1.0000
22.9100 1030.0000 1.0000
22.9200 1015.0000 1.0000
22.9300 1080.0000 1.0000
22.9400 1037.0000 1.0000
22.9500 1063.0000 1.0000
22.9600 1030.0000 1.0000
22.9700 1020.0000 1.0000
22.9800 1084.0000 1.0000
22.9900 1048.0000 1.0000
23.0000 999.0000 1.0000
23.0100 1004.0000 1.0000
23.0200 1061.0000 1.0000
23.0300 1047.0000 1.0000
23.0400 1015.0000 1.0000
23.0500 1038.0000 1.0000
23.0600 959.0000 1.0000
23.0700 1058.0000 1.0000
23.0800 1074.0000 1.0000
23.0900 1039.0000 1.0000
23.1000 1002.0000 1.0000
23.1100 1010.0000 1.0000
23.1200 1031.0000 1.0000
23.1300 1011.0000 1.0000
23.1400 978.0000 1.0000
23.1500 1031.0000 1.0000
23.1600 1020.0000 1.0000
23.1700 1056.0000 1.0000
23.1800 993.0000 1.0000
23.1900 1026.0000 1.0000
23.2000 1039.0000 1.0000
23.2100 989.0000 1.0000
23.2200 998.0000 1.0000
23.2300 1045.0000 1.0000
23.2400 1088.0000 1.0000
23.2500 1074.0000 1.0000
23.2600 958.0000 1.0000
23.2700 1055.0000 1.0000
23.2800 1041.0000 1.0000
23.2900 1036.0000 1.0000
23.3000 1029.0000 1.0000
23.3100 1048.0000 1.0000
23.3200 1059.0000 1.0000
23.3300 1009.0000 1.0000
23.3400 1050.0000 1.0000
23.3500 1046.0000 1.0000
23.3600 1038.0000 1.0000
23.3700 977.0000 1.0000
23.3800 1009.0000 1.0000
23.3900 1000.0000 1.0000
23.4000 1011.0000 1.0000
23.4100 1058.0000 1.0000
23.4200 1033.0000 1.0000
23.4300 1027.0000 1.0000
23.4400 1050.0000 1.0000
23.4500 972.0000 1.0000
23.4600 1038.0000 1.0000
23.4700 979.0000 1.0000
23.4800 1024.0000 1.0000
23.4900 996.0000 1.0000
23.5000 1025.0000 1.0000
23.5100 1027.0000 1.0000
23.5200 991.0000 1.0000
23.5300 1015.0000 1.0000
23.5400 1060.0000 1.0000
23.5500 987.0000 1.0000
23.5600 1021.0000 1.0000
23.5700 1047.0000 1.0000
23.5800 1003.0000 1.0000
23.5900 996.0000 1.0000
23.6000 1052.0000 1.0000
23.6100 1012.0000 1.0000
23.6200 1029.0000 1.0000
23.6300 983.0000 1.0000
23.6400 983.0000 1.0000
23.6500 1024.0000 1.0000
23.6600 1049.0000 1.0000
23.6700 1015.0000 1.0000
23.6800 1033.0000 1.0000
23.6900 1035.0000 1.0000
23.7000 993.0000 1.0000
23.7100 1008.0000 1.0000
23.7200 1038.0000 1.0000
23.7300 1023.0000 1.0000
23.7400 1027.0000 1.0000
23.7500 1007.0000 1.0000
23.7600 1001.0000 1.0000
23.7700 1087.0000 1.0000
23.7800 1046.0000 1.0000
23.7900 1094.0000 1.0000
23.8000 1086.0000 1.0000
23.8100 1068.0000 1.0000
23.8200 1062.0000 1.0000
23.8300 1055.0000 1.0000
23.8400 1097.0000 1.0000
23.8500 1080.0000 1.0000
23.8600 1054.0000 1.0000
23.8700 1081.0000 1.0000
23.8800 1070.0000 1.0000
23.8900 1072.0000 1.0000
23.9000 1064.0000 1.0000
23.9100 1070.0000 1.0000
23.9200 1035.0000 1.0000
23.9300 1055.0000 1.0000
23.9400 1078.0000 1.0000
23.9500 1098.0000 1.0000
23.9600 1049.0000 1.0000
23.9700 1036.0000 1.0000
23.9800 1121.0000 1.0000
23.9900 1135.0000 1.0000
24.0000 1078.0000 1.0000
24.0100 1123.0000 1.0000
24.0200 1176.0000 1.0000
24.0300 1167.0000 1.0000
24.0400 1191.0000 1.0000
24.0500 1174.0000 1.0000
24.0600 1126.0000 1.0000
24.0700 1148.0000 1.0000
24.0800 1185.0000 1.0000
24.0900 1171.0000 1.0000
24.1000 1166.0000 1.0000
24.1100 1187.0000 1.0000
24.1200 1249.0000 1.0000
24.1300 1172.0000 1.0000
24.1400 1185.0000 1.0000
24.1500 1118.0000 1.0000
24.1600 1155.0000 1.0000
24.1700 1098.0000 1.0000
24.1800 1114.0000 1.0000
24.1900 1126.0000 1.0000
24.2000 1122.0000 1.0000
24.2100 1116.0000 1.0000
24.2200 1087.0000 1.0000
24.2300 1046.0000 1.0000
24.2400 1056.0000 1.0000
24.2500 1053.0000 1.0000
24.2600 1020.0000 1.0000
24.2700 1044.0000 1.0000
24.2800 1039.0000 1.0000
24.2900 1031.0000 1.0000
24.3000 1116.0000 1.0000
24.3100 1030.0000 1.0000
24.3200 1005.0000 1.0000
24.3300 1055.0000 1.0000
24.3400 1004.0000 1.0000
24.3500 1064.0000 1.0000
24.3600 1022.0000 1.0000
24.3700 1040.0000 1.0000
24.3800 1021.0000 1.0000
24.3900 1029.0000 1.0000
24.4000 1043.0000 1.0000
24.4100 1060.0000 1.0000
24.4200 1057.0000 1.0000
24.4300 1028.0000 1.0000
24.4400 1061.0000 1.0000
24.4500 1109.0000 1.0000
24.4600 1059.0000 1.0000
24.4700 1082.0000 1.0000
24.4800 1059.0000 1.0000
24.4900 1048.0000 1.0000
24.5000 996.0000 1.0000
24.5100 1009.0000 1.0000
24.5200 1042.0000 1.0000
24.5300 1003.0000 1.0000
24.5400 991.0000 1.0000
24.5500 1030.0000 1.0000
24.5600 1026.0000 1.0000
24.5700 1036.0000 1.0000
24.5800 1067.0000 1.0000
24.5900 1038.0000 1.0000
24.6000 1026.0000 1.0000
24.6100 981.0000 1.0000
24.6200 1037.0000 1.0000
24.6300 1022.0000 1.0000
24.6400 1002.0000 1.0000
24.6500 1037.0000 1.0000
24.6600 1021.0000 1.0000
24.6700 1031.0000 1.0000
24.6800 1025.0000 1.0000
24.6900 1041.0000 1.0000
24.7000 1018.0000 1.0000
24.7100 1032.0000 1.0000
24.7200 1057.0000 1.0000
24.7300 1030.0000 1.0000
24.7400 1027.0000 1.0000
24.7500 972.0000 1.0000
24.7600 993.0000 1.0000
24.7700 983.0000 1.0000
24.7800 956.0000 1.0000
24.7900 1000.0000 1.0000
24.8000 973.0000 1.0000
24.8100 1020.0000 1.0000
24.8200 1017.0000 1.0000
24.8300 1039.0000 1.0000
24.8400 1007.0000 1.0000
24.8500 1060.0000 1.0000
24.8600 965.0000 1.0000
24.8700 982.0000 1.0000
24.8800 1005.0000 1.0000
24.8900 977.0000 1.0000
24.9000 997.0000 1.0000
24.9100 1003.0000 1.0000
24.9200 1041.0000 1.0000
24.9300 1036.0000 1.0000
24.9400 1067.0000 1.0000
24.9500 1037.0000 1.0000
24.9600 1025.0000 1.0000
24.9700 1037.0000 1.0000
24.9800 991.0000 1.0000
24.9900 989.0000 1.0000
25.0000 1058.0000 1.0000
25.0100 1038.0000 1.0000
25.0200 995.0000 1.0000
25.0300 1048.0000 1.0000
25.0400 1020.0000 1.0000
25.0500 1006.0000 1.0000
25.0600 1085.0000 1.0000
25.0700 1040.0000 1.0000
25.0800 1037.0000 1.0000
25.0900 1027.0000 1.0000
25.1000 1074.0000 1.0000
25.1100 970.0000 1.0000
25.1200 1022.0000 1.0000
25.1300 1007.0000 1.0000
25.1400 1035.0000 1.0000
25.1500 1038.0000 1.0000
25.1600 1023.0000 1.0000
25.1700 959.0000 1.0000
25.1800 1022.0000 1.0000
25.1900 938.0000 1.0000
25.2000 962.0000 1.0000
25.2100 1011.0000 1.0000
25.2200 1070.0000 1.0000
25.2300 1028.0000 1.0000
25.2400 1005.0000 1.0000
25.2500 1030.0000 1.0000
25.2600 1021.0000 1.0000
25.2700 1005.0000 1.0000
25.2800 1019.0000 1.0000
25.2900 968.0000 1.0000
25.3000 1045.0000 1.0000
25.3100 1041.0000 1.0000
25.3200 1018.0000 1.0000
25.3300 1093.0000 1.0000
25.3400 996.0000 1.0000
25.3500 992.0000 1.0000
25.3600 1012.0000 1.0000
25.3700 984.0000 1.0000
25.3800 1036.0000 1.0000
25.3900 983.0000 1.0000
25.4000 1031.0000 1.0000
25.4100 1042.0000 1.0000
25.4200 1017.0000 1.0000
25.4300 995.0000 1.0000
25.4400 1021.0000 1.0000
25.4500 1036.0000 1.0000
25.4600 985.0000 1.0000
25.4700 1004.0000 1.0000
25.4800 994.0000 1.0000
25.4900 1069.0000 1.0000
25.5000 1082.0000 1.0000
25.5100 1120.0000 1.0000
25.5200 1029.0000 1.0000
25.5300 1071.0000 1.0000
25.5400 1031.0000 1.0000
25.5500 1033.0000 1.0000
25.5600 1011.0000 1.0000
25.5700 1050.0000 1.0000
25.5800 1055.0000 1.0000
25.5900 1057.0000 1.0000
25.6000 1032.0000 1.0000
25.6100 1051.0000 1.0000
25.6200 1016.0000 1.0000
25.6300 1003.0000 1.0000
25.6400 987.0000 1.0000
25.6500 1052.0000 1.0000
25.6600 1029.0000 1.0000
25.6700 991.0000 1.0000
25.6800 1017.0000 1.0000
25.6900 1033.0000 1.0000
25.7000 1034.0000 1.0000
25.7100 1029.0000 1.0000
25.7200 1103.0000 1.0000
25.7300 1049.0000 1.0000
25.7400 1074.0000 1.0000
25.7500 1118.0000 1.0000
25.7600 1075.0000 1.0000
25.7700 1113.0000 1.0000
25.7800 1007.0000 1.0000
25.7900 1032.0000 1.0000
25.8000 1048.0000 1.0000
25.8100 1061.0000 1.0000
25.8200 1057.0000 1.0000
25.8300 1078.0000 1.0000
25.8400 1083.0000 1.0000
25.8500 1072.0000 1.0000
25.8600 1090.0000 1.0000
25.8700 1052.0000 1.0000
25.8800 1090.0000 1.0000
25.8900 1099.0000 1.0000
25.9000 1088.0000 1.0000
25.9100 1078.0000 1.0000
25.9200 1063.0000 1.0000
25.9300 1084.0000 1.0000
25.9400 1057.0000 1.0000
25.9500 1101.0000 1.0000
25.9600 1096.0000 1.0000
25.9700 1143.0000 1.0000
25.9800 1164.0000 1.0000
25.9900 1125.0000 1.0000
26.0000 1154.0000 1.0000
26.0100 1118.0000 1.0000
26.0200 1168.0000 1.0000
26.0300 1176.0000 1.0000
26.0400 1177.0000 1.0000
26.0500 1194.0000 1.0000
26.0600 1249.0000 1.0000
26.0700 1186.0000 1.0000
26.0800 1216.0000 1.0000
26.0900 1260.0000 1.0000
26.1000 1237.0000 1.0000
26.1100 1276.0000 1.0000
26.1200 1362.0000 1.0000
26.1300 1230.0000 1.0000
26.1400 1344.0000 1.0000
26.1500 1338.0000 1.0000
26.1600 1375.0000 1.0000
26.1700 1366.0000 1.0000
26.1800 1501.0000 1.0000
26.1900 1411.0000 1.0000
26.2000 1500.0000 1.0000
26.2100 1528.0000 1.0000
26.2200 1618.0000 1.0000
26.2300 1684.0000 1.0000
26.2400 1746.0000 1.0000
26.2500 1794.0000 1.0000
26.2600 1823.0000 1.0000
26.2700 1893.0000 1.0000
26.2800 1935.0000 1.0000
26.2900 2017.0000 1.0000
26.3000 2201.0000 1.0000
26.3100 2195.0000 1.0000
26.3200 2344.0000 1.0000
26.3300 2379.0000 1.0000
26.3400 2662.0000 1.0000
26.3500 2776.0000 1.0000
26.3600 2896.0000 1.0000
26.3700 3114.0000 1.0000
26.3800 3247.0000 1.0000
26.3900 3488.0000 1.0000
26.4000 3563.0000 1.0000
26.4100 3627.0000 1.0000
26.4200 3781.0000 1.0000
26.4300 3882.0000 1.0000
26.4400 3992.0000 1.0000
26.4500 4030.0000 1.0000
26.4600 3985.0000 1.0000
26.4700 3782.0000 1.0000
26.4800 3762.0000 1.0000
26.4900 3681.0000 1.0000
26.5000 3465.0000 1.0000
26.5100 3453.0000 1.0000
26.5200 3204.0000 1.0000
26.5300 3015.0000 1.0000
26.5400 2885.0000 1.0000
26.5500 2715.0000 1.0000
26.5600 2507.0000 1.0000
26.5700 2405.0000 1.0000
26.5800 2369.0000 1.0000
26.5900 2214.0000 1.0000
26.6000 2094.0000 1.0000
26.6100 2023.0000 1.0000
26.6200 1910.0000 1.0000
26.6300 1838.0000 1.0000
26.6400 1683.0000 1.0000
26.6500 1676.0000 1.0000
26.6600 1573.0000 1.0000
26.6700 1551.0000 1.0000
26.6800 1532.0000 1.0000
26.6900 1520.0000 1.0000
26.7000 1436.0000 1.0000
26.7100 1447.0000 1.0000
26.7200 1364.0000 1.0000
26.7300 1309.0000 1.0000
26.7400 1322.0000 1.0000
26.7500 1284.0000 1.0000
26.7600 1240.0000 1.0000
26.7700 1230.0000 1.0000
26.7800 1206.0000 1.0000
26.7900 1228.0000 1.0000
26.8000 1201.0000 1.0000
26.8100 1194.0000 1.0000
26.8200 1209.0000 1.0000
26.8300 1159.0000 1.0000
26.8400 1212.0000 1.0000
26.8500 1164.0000 1.0000
26.8600 1073.0000 1.0000
26.8700 1132.0000 1.0000
26.8800 1105.0000 1.0000
26.8900 1125.0000 1.0000
26.9000 1117.0000 1.0000
26.9100 1141.0000 1.0000
26.9200 1149.0000 1.0000
26.9300 1130.0000 1.0000
26.9400 1117.0000 1.0000
26.9500 1067.0000 1.0000
26.9600 1043.0000 1.0000
26.9700 1057.0000 1.0000
26.9800 1052.0000 1.0000
26.9900 1029.0000 1.0000
27.0000 1023.0000 1.0000
27.0100 1057.0000 1.0000
27.0200 1028.0000 1.0000
27.0300 1063.0000 1.0000
27.0400 1050.0000 1.0000
27.0500 1020.0000 1.0000
27.0600 1039.0000 1.0000
27.0700 1027.0000 1.0000
27.0800 1044.0000 1.0000
27.0900 987.0000 1.0000
27.1000 994.0000 1.0000
27.1100 1060.0000 1.0000
27.1200 1028.0000 1.0000
27.1300 991.0000 1.0000
27.1400 1019.0000 1.0000
27.1500 1068.0000 1.0000
27.1600 1021.0000 1.0000
27.1700 969.0000 1.0000
27.1800 964.0000 1.0000
27.1900 976.0000 1.0000
27.2000 1008.0000 1.0000
27.2100 1019.0000 1.0000
27.2200 972.0000 1.0000
27.2300 1029.0000 1.0000
27.2400 1027.0000 1.0000
27.2500 986.0000 1.0000
27.2600 988.0000 1.0000
27.2700 983.0000 1.0000
27.2800 999.0000 1.0000
27.2900 984.0000 1.0000
27.3000 997.0000 1.0000
27.3100 1000.0000 1.0000
27.3200 985.0000 1.0000
27.3300 966.0000 1.0000
27.3400 1022.0000 1.0000
27.3500 982.0000 1.0000
27.3600 977.0000 1.0000
27.3700 1002.0000 1.0000
27.3800 986.0000 1.0000
27.3900 1003.0000 1.0000
27.4000 995.0000 1.0000
27.4100 986.0000 1.0000
27.4200 974.0000 1.0000
27.4300 979.0000 1.0000
27.4400 979.0000 1.0000
27.4500 990.0000 1.0000
27.4600 972.0000 1.0000
27.4700 1040.0000 1.0000
27.4800 990.0000 1.0000
27.4900 974.0000 1.0000
27.5000 986.0000 1.0000
27.5100 934.0000 1.0000
27.5200 993.0000 1.0000
27.5300 968.0000 1.0000
27.5400 933.0000 1.0000
27.5500 962.0000 1.0000
27.5600 965.0000 1.0000
27.5700 943.0000 1.0000
27.5800 955.0000 1.0000
27.5900 973.0000 1.0000
27.6000 939.0000 1.0000
27.6100 927.0000 1.0000
27.6200 983.0000 1.0000
27.6300 935.0000 1.0000
27.6400 953.0000 1.0000
27.6500 947.0000 1.0000
27.6600 933.0000 1.0000
27.6700 951.0000 1.0000
27.6800 965.0000 1.0000
27.6900 988.0000 1.0000
27.7000 961.0000 1.0000
27.7100 1003.0000 1.0000
27.7200 930.0000 1.0000
27.7300 936.0000 1.0000
27.7400 962.0000 1.0000
27.7500 945.0000 1.0000
27.7600 999.0000 1.0000
27.7700 927.0000 1.0000
27.7800 889.0000 1.0000
27.7900 938.0000 1.0000
27.8000 910.0000 1.0000
27.8100 924.0000 1.0000
27.8200 967.0000 1.0000
27.8300 962.0000 1.0000
27.8400 912.0000 1.0000
27.8500 922.0000 1.0000
27.8600 937.0000 1.0000
27.8700 935.0000 1.0000
27.8800 984.0000 1.0000
27.8900 957.0000 1.0000
27.9000 991.0000 1.0000
27.9100 910.0000 1.0000
27.9200 896.0000 1.0000
27.9300 942.0000 1.0000
27.9400 969.0000 1.0000
27.9500 983.0000 1.0000
27.9600 889.0000 1.0000
27.9700 990.0000 1.0000
27.9800 920.0000 1.0000
27.9900 952.0000 1.0000
28.0000 916.0000 1.0000
28.0100 921.0000 1.0000
28.0200 946.0000 1.0000
28.0300 938.0000 1.0000
28.0400 941.0000 1.0000
28.0500 943.0000 1.0000
28.0600 905.0000 1.0000
28.0700 912.0000 1.0000
28.0800 939.0000 1.0000
28.0900 927.0000 1.0000
28.1000 908.0000 1.0000
28.1100 931.0000 1.0000
28.1200 934.0000 1.0000
28.1300 941.0000 1.0000
28.1400 931.0000 1.0000
28.1500 967.0000 1.0000
28.1600 934.0000 1.0000
28.1700 941.0000 1.0000
28.1800 941.0000 1.0000
28.1900 978.0000 1.0000
28.2000 937.0000 1.0000
28.2100 913.0000 1.0000
28.2200 959.0000 1.0000
28.2300 962.0000 1.0000
28.2400 914.0000 1.0000
28.2500 888.0000 1.0000
28.2600 947.0000 1.0000
28.2700 948.0000 1.0000
28.2800 909.0000 1.0000
28.2900 918.0000 1.0000
28.3000 910.0000 1.0000
28.3100 926.0000 1.0000
28.3200 930.0000 1.0000
28.3300 860.0000 1.0000
28.3400 904.0000 1.0000
28.3500 988.0000 1.0000
28.3600 945.0000 1.0000
28.3700 890.0000 1.0000
28.3800 859.0000 1.0000
28.3900 888.0000 1.0000
28.4000 922.0000 1.0000
28.4100 935.0000 1.0000
28.4200 919.0000 1.0000
28.4300 959.0000 1.0000
28.4400 905.0000 1.0000
28.4500 959.0000 1.0000
28.4600 919.0000 1.0000
28.4700 943.0000 1.0000
28.4800 882.0000 1.0000
28.4900 902.0000 1.0000
28.5000 918.0000 1.0000
28.5100 906.0000 1.0000
28.5200 907.0000 1.0000
28.5300 916.0000 1.0000
28.5400 914.0000 1.0000
28.5500 868.0000 1.0000
28.5600 891.0000 1.0000
28.5700 899.0000 1.0000
28.5800 879.0000 1.0000
28.5900 894.0000 1.0000
28.6000 958.0000 1.0000
28.6100 907.0000 1.0000
28.6200 919.0000 1.0000
28.6300 890.0000 1.0000
28.6400 941.0000 1.0000
28.6500 885.0000 1.0000
28.6600 870.0000 1.0000
28.6700 936.0000 1.0000
28.6800 873.0000 1.0000
28.6900 922.0000 1.0000
28.7000 894.0000 1.0000
28.7100 881.0000 1.0000
28.7200 863.0000 1.0000
28.7300 862.0000 1.0000
28.7400 866.0000 1.0000
28.7500 923.0000 1.0000
28.7600 892.0000 1.0000
28.7700 920.0000 1.0000
28.7800 904.0000 1.0000
28.7900 854.0000 1.0000
28.8000 878.0000 1.0000
28.8100 891.0000 1.0000
28.8200 894.0000 1.0000
28.8300 894.0000 1.0000
28.8400 896.0000 1.0000
28.8500 937.0000 1.0000
28.8600 913.0000 1.0000
28.8700 900.0000 1.0000
28.8800 915.0000 1.0000
28.8900 928.0000 1.0000
28.9000 897.0000 1.0000
28.9100 874.0000 1.0000
28.9200 907.0000 1.0000
28.9300 892.0000 1.0000
28.9400 897.0000 1.0000
28.9500 888.0000 1.0000
28.9600 894.0000 1.0000
28.9700 903.0000 1.0000
28.9800 940.0000 1.0000
28.9900 940.0000 1.0000
29.0000 907.0000 1.0000
29.0100 875.0000 1.0000
29.0200 879.0000 1.0000
29.0300 906.0000 1.0000
29.0400 889.0000 1.0000
29.0500 848.0000 1.0000
29.0600 930.0000 1.0000
29.0700 909.0000 1.0000
29.0800 912.0000 1.0000
29.0900 857.0000 1.0000
29.1000 920.0000 1.0000
29.1100 896.0000 1.0000
29.1200 900.0000 1.0000
29.1300 869.0000 1.0000
29.1400 861.0000 1.0000
29.1500 891.0000 1.0000
29.1600 950.0000 1.0000
29.1700 893.0000 1.0000
29.1800 886.0000 1.0000
29.1900 884.0000 1.0000
29.2000 922.0000 1.0000
29.2100 825.0000 1.0000
29.2200 865.0000 1.0000
29.2300 824.0000 1.0000
29.2400 932.0000 1.0000
29.2500 888.0000 1.0000
29.2600 827.0000 1.0000
29.2700 880.0000 1.0000
29.2800 866.0000 1.0000
29.2900 849.0000 1.0000
29.3000 879.0000 1.0000
29.3100 888.0000 1.0000
29.3200 848.0000 1.0000
29.3300 863.0000 1.0000
29.3400 908.0000 1.0000
29.3500 865.0000 1.0000
29.3600 887.0000 1.0000
29.3700 866.0000 1.0000
29.3800 893.0000 1.0000
29.3900 888.0000 1.0000
29.4000 909.0000 1.0000
29.4100 851.0000 1.0000
29.4200 846.0000 1.0000
29.4300 846.0000 1.0000
29.4400 910.0000 1.0000
29.4500 866.0000 1.0000
29.4600 894.0000 1.0000
29.4700 825.0000 1.0000
29.4800 911.0000 1.0000
29.4900 891.0000 1.0000
29.5000 877.0000 1.0000
29.5100 866.0000 1.0000
29.5200 848.0000 1.0000
29.5300 854.0000 1.0000
29.5400 870.0000 1.0000
29.5500 840.0000 1.0000
29.5600 858.0000 1.0000
29.5700 902.0000 1.0000
29.5800 892.0000 1.0000
29.5900 865.0000 1.0000
29.6000 886.0000 1.0000
29.6100 897.0000 1.0000
29.6200 860.0000 1.0000
29.6300 870.0000 1.0000
29.6400 889.0000 1.0000
29.6500 873.0000 1.0000
29.6600 882.0000 1.0000
29.6700 878.0000 1.0000
29.6800 867.0000 1.0000
29.6900 917.0000 1.0000
29.7000 869.0000 1.0000
29.7100 890.0000 1.0000
29.7200 828.0000 1.0000
29.7300 839.0000 1.0000
29.7400 826.0000 1.0000
29.7500 839.0000 1.0000
29.7600 852.0000 1.0000
29.7700 861.0000 1.0000
29.7800 868.0000 1.0000
29.7900 848.0000 1.0000
29.8000 894.0000 1.0000
29.8100 853.0000 1.0000
29.8200 879.0000 1.0000
29.8300 905.0000 1.0000
29.8400 859.0000 1.0000
29.8500 853.0000 1.0000
29.8600 845.0000 1.0000
29.8700 835.0000 1.0000
29.8800 810.0000 1.0000
29.8900 819.0000 1.0000
29.9000 798.0000 1.0000
29.9100 875.0000 1.0000
29.9200 886.0000 1.0000
29.9300 888.0000 1.0000
29.9400 877.0000 1.0000
29.9500 860.0000 1.0000
29.9600 850.0000 1.0000
29.9700 865.0000 1.0000
29.9800 836.0000 1.0000
29.9900 852.0000 1.0000
30.0000 838.0000 1.0000
30.0100 845.0000 1.0000
30.0200 854.0000 1.0000
30.0300 886.0000 1.0000
30.0400 827.0000 1.0000
30.0500 867.0000 1.0000
30.0600 894.0000 1.0000
30.0700 853.0000 1.0000
30.0800 845.0000 1.0000
30.0900 873.0000 1.0000
30.1000 888.0000 1.0000
30.1100 826.0000 1.0000
30.1200 850.0000 1.0000
30.1300 860.0000 1.0000
30.1400 860.0000 1.0000
30.1500 786.0000 1.0000
30.1600 872.0000 1.0000
30.1700 894.0000 1.0000
30.1800 887.0000 1.0000
30.1900 898.0000 1.0000
30.2000 884.0000 1.0000
30.2100 907.0000 1.0000
30.2200 900.0000 1.0000
30.2300 892.0000 1.0000
30.2400 820.0000 1.0000
30.2500 865.0000 1.0000
30.2600 827.0000 1.0000
30.2700 868.0000 1.0000
30.2800 851.0000 1.0000
30.2900 825.0000 1.0000
30.3000 867.0000 1.0000
30.3100 889.0000 1.0000
30.3200 864.0000 1.0000
30.3300 865.0000 1.0000
30.3400 805.0000 1.0000
30.3500 809.0000 1.0000
30.3600 861.0000 1.0000
30.3700 802.0000 1.0000
30.3800 837.0000 1.0000
30.3900 859.0000 1.0000
30.4000 865.0000 1.0000
30.4100 876.0000 1.0000
30.4200 830.0000 1.0000
30.4300 831.0000 1.0000
30.4400 838.0000 1.0000
30.4500 855.0000 1.0000
30.4600 864.0000 1.0000
30.4700 846.0000 1.0000
30.4800 808.0000 1.0000
30.4900 852.0000 1.0000
30.5000 833.0000 1.0000
30.5100 848.0000 1.0000
30.5200 865.0000 1.0000
30.5300 823.0000 1.0000
30.5400 845.0000 1.0000
30.5500 815.0000 1.0000
30.5600 840.0000 1.0000
30.5700 829.0000 1.0000
30.5800 817.0000 1.0000
30.5900 781.0000 1.0000
30.6000 835.0000 1.0000
30.6100 849.0000 1.0000
30.6200 800.0000 1.0000
30.6300 819.0000 1.0000
30.6400 817.0000 1.0000
30.6500 818.0000 1.0000
30.6600 863.0000 1.0000
30.6700 875.0000 1.0000
30.6800 814.0000 1.0000
30.6900 860.0000 1.0000
30.7000 808.0000 1.0000
30.7100 850.0000 1.0000
30.7200 827.0000 1.0000
30.7300 885.0000 1.0000
30.7400 833.0000 1.0000
30.7500 808.0000 1.0000
30.7600 829.0000 1.0000
30.7700 862.0000 1.0000
30.7800 843.0000 1.0000
30.7900 854.0000 1.0000
30.8000 768.0000 1.0000
30.8100 844.0000 1.0000
30.8200 788.0000 1.0000
30.8300 770.0000 1.0000
30.8400 845.0000 1.0000
30.8500 827.0000 1.0000
30.8600 826.0000 1.0000
30.8700 826.0000 1.0000
30.8800 814.0000 1.0000
30.8900 805.0000 1.0000
30.9000 808.0000 1.0000
30.9100 821.0000 1.0000
30.9200 844.0000 1.0000
30.9300 798.0000 1.0000
30.9400 836.0000 1.0000
30.9500 775.0000 1.0000
30.9600 773.0000 1.0000
30.9700 837.0000 1.0000
30.9800 871.0000 1.0000
30.9900 807.0000 1.0000
31.0000 873.0000 1.0000
31.0100 866.0000 1.0000
31.0200 811.0000 1.0000
31.0300 800.0000 1.0000
31.0400 834.0000 1.0000
31.0500 830.0000 1.0000
31.0600 851.0000 1.0000
31.0700 879.0000 1.0000
31.0800 834.0000 1.0000
31.0900 846.0000 1.0000
31.1000 824.0000 1.0000
31.1100 806.0000 1.0000
31.1200 859.0000 1.0000
31.1300 875.0000 1.0000
31.1400 867.0000 1.0000
31.1500 803.0000 1.0000
31.1600 822.0000 1.0000
31.1700 843.0000 1.0000
31.1800 857.0000 1.0000
31.1900 841.0000 1.0000
31.2000 830.0000 1.0000
31.2100 850.0000 1.0000
31.2200 815.0000 1.0000
31.2300 878.0000 1.0000
31.2400 824.0000 1.0000
31.2500 778.0000 1.0000
31.2600 825.0000 1.0000
31.2700 782.0000 1.0000
31.2800 784.0000 1.0000
31.2900 810.0000 1.0000
31.3000 826.0000 1.0000
31.3100 836.0000 1.0000
31.3200 815.0000 1.0000
31.3300 836.0000 1.0000
31.3400 822.0000 1.0000
31.3500 813.0000 1.0000
31.3600 820.0000 1.0000
31.3700 825.0000 1.0000
31.3800 843.0000 1.0000
31.3900 799.0000 1.0000
31.4000 871.0000 1.0000
31.4100 834.0000 1.0000
31.4200 817.0000 1.0000
31.4300 795.0000 1.0000
31.4400 825.0000 1.0000
31.4500 794.0000 1.0000
31.4600 774.0000 1.0000
31.4700 774.0000 1.0000
31.4800 775.0000 1.0000
31.4900 796.0000 1.0000
31.5000 812.0000 1.0000
31.5100 803.0000 1.0000
31.5200 814.0000 1.0000
31.5300 824.0000 1.0000
31.5400 811.0000 1.0000
31.5500 779.0000 1.0000
31.5600 757.0000 1.0000
31.5700 786.0000 1.0000
31.5800 797.0000 1.0000
31.5900 750.0000 1.0000
31.6000 765.0000 1.0000
31.6100 799.0000 1.0000
31.6200 807.0000 1.0000
31.6300 786.0000 1.0000
31.6400 807.0000 1.0000
31.6500 807.0000 1.0000
31.6600 893.0000 1.0000
31.6700 840.0000 1.0000
31.6800 784.0000 1.0000
31.6900 784.0000 1.0000
31.7000 829.0000 1.0000
31.7100 778.0000 1.0000
31.7200 746.0000 1.0000
31.7300 774.0000 1.0000
31.7400 813.0000 1.0000
31.7500 832.0000 1.0000
31.7600 772.0000 1.0000
31.7700 794.0000 1.0000
31.7800 759.0000 1.0000
31.7900 826.0000 1.0000
31.8000 788.0000 1.0000
31.8100 774.0000 1.0000
31.8200 792.0000 1.0000
31.8300 849.0000 1.0000
31.8400 782.0000 1.0000
31.8500 773.0000 1.0000
31.8600 802.0000 1.0000
31.8700 817.0000 1.0000
31.8800 819.0000 1.0000
31.8900 788.0000 1.0000
31.9000 792.0000 1.0000
31.9100 757.0000 1.0000
31.9200 775.0000 1.0000
31.9300 803.0000 1.0000
31.9400 833.0000 1.0000
31.9500 806.0000 1.0000
31.9600 792.0000 1.0000
31.9700 812.0000 1.0000
31.9800 788.0000 1.0000
31.9900 827.0000 1.0000
32.0000 817.0000 1.0000
32.0100 838.0000 1.0000
32.0200 827.0000 1.0000
32.0300 768.0000 1.0000
32.0400 783.0000 1.0000
32.0500 785.0000 1.0000
32.0600 798.0000 1.0000
32.0700 752.0000 1.0000
32.0800 806.0000 1.0000
32.0900 780.0000 1.0000
32.1000 812.0000 1.0000
32.1100 770.0000 1.0000
32.1200 798.0000 1.0000
32.1300 833.0000 1.0000
32.1400 825.0000 1.0000
32.1500 798.0000 1.0000
32.1600 786.0000 1.0000
32.1700 745.0000 1.0000
32.1800 772.0000 1.0000
32.1900 778.0000 1.0000
32.2000 784.0000 1.0000
32.2100 749.0000 1.0000
32.2200 783.0000 1.0000
32.2300 796.0000 1.0000
32.2400 846.0000 1.0000
32.2500 808.0000 1.0000
32.2600 821.0000 1.0000
32.2700 781.0000 1.0000
32.2800 808.0000 1.0000
32.2900 803.0000 1.0000
32.3000 826.0000 1.0000
32.3100 810.0000 1.0000
32.3200 799.0000 1.0000
32.3300 837.0000 1.0000
32.3400 810.0000 1.0000
32.3500 763.0000 1.0000
32.3600 780.0000 1.0000
32.3700 799.0000 1.0000
32.3800 765.0000 1.0000
32.3900 787.0000 1.0000
32.4000 778.0000 1.0000
32.4100 808.0000 1.0000
32.4200 817.0000 1.0000
32.4300 817.0000 1.0000
32.4400 814.0000 1.0000
32.4500 775.0000 1.0000
32.4600 791.0000 1.0000
32.4700 795.0000 1.0000
32.4800 788.0000 1.0000
32.4900 751.0000 1.0000
32.5000 788.0000 1.0000
32.5100 812.0000 1.0000
32.5200 781.0000 1.0000
32.5300 791.0000 1.0000
32.5400 803.0000 1.0000
32.5500 780.0000 1.0000
32.5600 775.0000 1.0000
32.5700 827.0000 1.0000
32.5800 756.0000 1.0000
32.5900 776.0000 1.0000
32.6000 799.0000 1.0000
32.6100 822.0000 1.0000
32.6200 793.0000 1.0000
32.6300 800.0000 1.0000
32.6400 797.0000 1.0000
32.6500 797.0000 1.0000
32.6600 783.0000 1.0000
32.6700 816.0000 1.0000
32.6800 832.0000 1.0000
32.6900 782.0000 1.0000
32.7000 795.0000 1.0000
32.7100 816.0000 1.0000
32.7200 792.0000 1.0000
32.7300 818.0000 1.0000
32.7400 778.0000 1.0000
32.7500 747.0000 1.0000
32.7600 796.0000 1.0000
32.7700 823.0000 1.0000
32.7800 800.0000 1.0000
32.7900 833.0000 1.0000
32.8000 783.0000 1.0000
32.8100 761.0000 1.0000
32.8200 766.0000 1.0000
32.8300 814.0000 1.0000
32.8400 830.0000 1.0000
32.8500 879.0000 1.0000
32.8600 855.0000 1.0000
32.8700 824.0000 1.0000
32.8800 850.0000 1.0000
32.8900 846.0000 1.0000
32.9000 851.0000 1.0000
32.9100 870.0000 1.0000
32.9200 871.0000 1.0000
32.9300 919.0000 1.0000
32.9400 914.0000 1.0000
32.9500 894.0000 1.0000
32.9600 941.0000 1.0000
32.9700 945.0000 1.0000
32.9800 955.0000 1.0000
32.9900 970.0000 1.0000
33.0000 963.0000 1.0000
33.0100 990.0000 1.0000
33.0200 1060.0000 1.0000
33.0300 1078.0000 1.0000
33.0400 1120.0000 1.0000
33.0500 1148.0000 1.0000
33.0600 1156.0000 1.0000
33.0700 1173.0000 1.0000
33.0800 1231.0000 1.0000
33.0900 1196.0000 1.0000
33.1000 1184.0000 1.0000
33.1100 1215.0000 1.0000
33.1200 1232.0000 1.0000
33.1300 1242.0000 1.0000
33.1400 1222.0000 1.0000
33.1500 1181.0000 1.0000
33.1600 1170.0000 1.0000
33.1700 1147.0000 1.0000
33.1800 1148.0000 1.0000
33.1900 1065.0000 1.0000
33.2000 1082.0000 1.0000
33.2100 1033.0000 1.0000
33.2200 1021.0000 1.0000
33.2300 1054.0000 1.0000
33.2400 1003.0000 1.0000
33.2500 909.0000 1.0000
33.2600 947.0000 1.0000
33.2700 999.0000 1.0000
33.2800 946.0000 1.0000
33.2900 966.0000 1.0000
33.3000 893.0000 1.0000
33.3100 902.0000 1.0000
33.3200 905.0000 1.0000
33.3300 899.0000 1.0000
33.3400 881.0000 1.0000
33.3500 967.0000 1.0000
33.3600 944.0000 1.0000
33.3700 970.0000 1.0000
33.3800 970.0000 1.0000
33.3900 950.0000 1.0000
33.4000 1017.0000 1.0000
33.4100 985.0000 1.0000
33.4200 996.0000 1.0000
33.4300 1012.0000 1.0000
33.4400 1069.0000 1.0000
33.4500 1068.0000 1.0000
33.4600 1093.0000 1.0000
33.4700 1115.0000 1.0000
33.4800 1159.0000 1.0000
33.4900 1151.0000 1.0000
33.5000 1207.0000 1.0000
33.5100 1253.0000 1.0000
33.5200 1326.0000 1.0000
33.5300 1346.0000 1.0000
33.5400 1376.0000 1.0000
33.5500 1436.0000 1.0000
33.5600 1500.0000 1.0000
33.5700 1601.0000 1.0000
33.5800 1659.0000 1.0000
33.5900 1762.0000 1.0000
33.6000 1829.0000 1.0000
33.6100 1767.0000 1.0000
33.6200 1824.0000 1.0000
33.6300 1982.0000 1.0000
33.6400 1978.0000 1.0000
33.6500 2038.0000 1.0000
33.6600 1956.0000 1.0000
33.6700 1965.0000 1.0000
33.6800 2015.0000 1.0000
33.6900 1923.0000 1.0000
33.7000 1942.0000 1.0000
33.7100 1941.0000 1.0000
33.7200 1762.0000 1.0000
33.7300 1703.0000 1.0000
33.7400 1662.0000 1.0000
33.7500 1660.0000 1.0000
33.7600 1558.0000 1.0000
33.7700 1476.0000 1.0000
33.7800 1380.0000 1.0000
33.7900 1353.0000 1.0000
33.8000 1340.0000 1.0000
33.8100 1229.0000 1.0000
33.8200 1177.0000 1.0000
33.8300 1183.0000 1.0000
33.8400 1061.0000 1.0000
33.8500 1063.0000 1.0000
33.8600 1101.0000 1.0000
33.8700 1068.0000 1.0000
33.8800 1032.0000 1.0000
33.8900 985.0000 1.0000
33.9000 1012.0000 1.0000
33.9100 953.0000 1.0000
33.9200 941.0000 1.0000
33.9300 991.0000 1.0000
33.9400 920.0000 1.0000
33.9500 948.0000 1.0000
33.9600 929.0000 1.0000
33.9700 851.0000 1.0000
33.9800 882.0000 1.0000
33.9900 890.0000 1.0000
34.0000 910.0000 1.0000
34.0100 889.0000 1.0000
34.0200 901.0000 1.0000
34.0300 884.0000 1.0000
34.0400 867.0000 1.0000
34.0500 814.0000 1.0000
34.0600 792.0000 1.0000
34.0700 850.0000 1.0000
34.0800 857.0000 1.0000
34.0900 831.0000 1.0000
34.1000 793.0000 1.0000
34.1100 823.0000 1.0000
34.1200 868.0000 1.0000
34.1300 795.0000 1.0000
34.1400 780.0000 1.0000
34.1500 822.0000 1.0000
34.1600 762.0000 1.0000
34.1700 753.0000 1.0000
34.1800 778.0000 1.0000
34.1900 767.0000 1.0000
34.2000 740.0000 1.0000
34.2100 730.0000 1.0000
34.2200 806.0000 1.0000
34.2300 779.0000 1.0000
34.2400 806.0000 1.0000
34.2500 759.0000 1.0000
34.2600 729.0000 1.0000
34.2700 740.0000 1.0000
34.2800 782.0000 1.0000
34.2900 731.0000 1.0000
34.3000 800.0000 1.0000
34.3100 756.0000 1.0000
34.3200 725.0000 1.0000
34.3300 706.0000 1.0000
34.3400 715.0000 1.0000
34.3500 756.0000 1.0000
34.3600 702.0000 1.0000
34.3700 712.0000 1.0000
34.3800 732.0000 1.0000
34.3900 734.0000 1.0000
34.4000 752.0000 1.0000
34.4100 739.0000 1.0000
34.4200 691.0000 1.0000
34.4300 732.0000 1.0000
34.4400 733.0000 1.0000
34.4500 747.0000 1.0000
34.4600 736.0000 1.0000
34.4700 745.0000 1.0000
34.4800 749.0000 1.0000
34.4900 726.0000 1.0000
34.5000 718.0000 1.0000
34.5100 746.0000 1.0000
34.5200 750.0000 1.0000
34.5300 730.0000 1.0000
34.5400 759.0000 1.0000
34.5500 744.0000 1.0000
34.5600 733.0000 1.0000
34.5700 723.0000 1.0000
34.5800 755.0000 1.0000
34.5900 734.0000 1.0000
34.6000 711.0000 1.0000
34.6100 695.0000 1.0000
34.6200 737.0000 1.0000
34.6300 728.0000 1.0000
34.6400 741.0000 1.0000
34.6500 737.0000 1.0000
34.6600 708.0000 1.0000
34.6700 712.0000 1.0000
34.6800 692.0000 1.0000
34.6900 706.0000 1.0000
34.7000 733.0000 1.0000
34.7100 741.0000 1.0000
34.7200 743.0000 1.0000
34.7300 695.0000 1.0000
34.7400 694.0000 1.0000
34.7500 703.0000 1.0000
34.7600 712.0000 1.0000
34.7700 740.0000 1.0000
34.7800 679.0000 1.0000
34.7900 726.0000 1.0000
34.8000 675.0000 1.0000
34.8100 694.0000 1.0000
34.8200 723.0000 1.0000
34.8300 729.0000 1.0000
34.8400 728.0000 1.0000
34.8500 740.0000 1.0000
34.8600 713.0000 1.0000
34.8700 677.0000 1.0000
34.8800 680.0000 1.0000
34.8900 695.0000 1.0000
34.9000 679.0000 1.0000
34.9100 682.0000 1.0000
34.9200 677.0000 1.0000
34.9300 674.0000 1.0000
34.9400 689.0000 1.0000
34.9500 672.0000 1.0000
34.9600 678.0000 1.0000
34.9700 647.0000 1.0000
34.9800 667.0000 1.0000
34.9900 694.0000 1.0000
35.0000 687.0000 1.0000
35.0100 702.0000 1.0000
35.0200 720.0000 1.0000
35.0300 696.0000 1.0000
35.0400 746.0000 1.0000
35.0500 650.0000 1.0000
35.0600 664.0000 1.0000
35.0700 724.0000 1.0000
35.0800 684.0000 1.0000
35.0900 703.0000 1.0000
35.1000 663.0000 1.0000
35.1100 637.0000 1.0000
35.1200 662.0000 1.0000
35.1300 700.0000 1.0000
35.1400 703.0000 1.0000
35.1500 682.0000 1.0000
35.1600 679.0000 1.0000
35.1700 676.0000 1.0000
35.1800 680.0000 1.0000
35.1900 661.0000 1.0000
35.2000 687.0000 1.0000
35.2100 673.0000 1.0000
35.2200 758.0000 1.0000
35.2300 709.0000 1.0000
35.2400 684.0000 1.0000
35.2500 715.0000 1.0000
35.2600 658.0000 1.0000
35.2700 701.0000 1.0000
35.2800 704.0000 1.0000
35.2900 670.0000 1.0000
35.3000 703.0000 1.0000
35.3100 712.0000 1.0000
35.3200 694.0000 1.0000
35.3300 692.0000 1.0000
35.3400 720.0000 1.0000
35.3500 731.0000 1.0000
35.3600 757.0000 1.0000
35.3700 773.0000 1.0000
35.3800 736.0000 1.0000
35.3900 767.0000 1.0000
35.4000 766.0000 1.0000
35.4100 776.0000 1.0000
35.4200 835.0000 1.0000
35.4300 789.0000 1.0000
35.4400 839.0000 1.0000
35.4500 815.0000 1.0000
35.4600 901.0000 1.0000
35.4700 866.0000 1.0000
35.4800 903.0000 1.0000
35.4900 908.0000 1.0000
35.5000 1009.0000 1.0000
35.5100 1059.0000 1.0000
35.5200 1074.0000 1.0000
35.5300 1138.0000 1.0000
35.5400 1157.0000 1.0000
35.5500 1150.0000 1.0000
35.5600 1236.0000 1.0000
35.5700 1252.0000 1.0000
35.5800 1246.0000 1.0000
35.5900 1226.0000 1.0000
35.6000 1201.0000 1.0000
35.6100 1195.0000 1.0000
35.6200 1167.0000 1.0000
35.6300 1144.0000 1.0000
35.6400 1055.0000 1.0000
35.6500 1067.0000 1.0000
35.6600 1006.0000 1.0000
35.6700 1019.0000 1.0000
35.6800 1019.0000 1.0000
35.6900 935.0000 1.0000
35.7000 888.0000 1.0000
35.7100 826.0000 1.0000
35.7200 851.0000 1.0000
35.7300 784.0000 1.0000
35.7400 746.0000 1.0000
35.7500 802.0000 1.0000
35.7600 769.0000 1.0000
35.7700 721.0000 1.0000
35.7800 704.0000 1.0000
35.7900 706.0000 1.0000
35.8000 715.0000 1.0000
35.8100 701.0000 1.0000
35.8200 712.0000 1.0000
35.8300 654.0000 1.0000
35.8400 668.0000 1.0000
35.8500 659.0000 1.0000
35.8600 681.0000 1.0000
35.8700 684.0000 1.0000
35.8800 645.0000 1.0000
35.8900 655.0000 1.0000
35.9000 648.0000 1.0000
35.9100 642.0000 1.0000
35.9200 655.0000 1.0000
35.9300 660.0000 1.0000
35.9400 671.0000 1.0000
35.9500 639.0000 1.0000
35.9600 626.0000 1.0000
35.9700 632.0000 1.0000
35.9800 646.0000 1.0000
35.9900 642.0000 1.0000
36.0000 645.0000 1.0000
36.0100 640.0000 1.0000
36.0200 626.0000 1.0000
36.0300 683.0000 1.0000
36.0400 604.0000 1.0000
36.0500 663.0000 1.0000
36.0600 662.0000 1.0000
36.0700 627.0000 1.0000
36.0800 641.0000 1.0000
36.0900 602.0000 1.0000
36.1000 638.0000 1.0000
36.1100 645.0000 1.0000
36.1200 660.0000 1.0000
36.1300 654.0000 1.0000
36.1400 629.0000 1.0000
36.1500 626.0000 1.0000
36.1600 625.0000 1.0000
36.1700 630.0000 1.0000
36.1800 659.0000 1.0000
36.1900 655.0000 1.0000
36.2000 638.0000 1.0000
36.2100 675.0000 1.0000
36.2200 672.0000 1.0000
36.2300 667.0000 1.0000
36.2400 636.0000 1.0000
36.2500 630.0000 1.0000
36.2600 658.0000 1.0000
36.2700 659.0000 1.0000
36.2800 630.0000 1.0000
36.2900 672.0000 1.0000
36.3000 659.0000 1.0000
36.3100 643.0000 1.0000
36.3200 619.0000 1.0000
36.3300 638.0000 1.0000
36.3400 644.0000 1.0000
36.3500 640.0000 1.0000
36.3600 618.0000 1.0000
36.3700 626.0000 1.0000
36.3800 635.0000 1.0000
36.3900 660.0000 1.0000
36.4000 637.0000 1.0000
36.4100 659.0000 1.0000
36.4200 681.0000 1.0000
36.4300 674.0000 1.0000
36.4400 640.0000 1.0000
36.4500 655.0000 1.0000
36.4600 671.0000 1.0000
36.4700 662.0000 1.0000
36.4800 664.0000 1.0000
36.4900 657.0000 1.0000
36.5000 596.0000 1.0000
36.5100 628.0000 1.0000
36.5200 628.0000 1.0000
36.5300 588.0000 1.0000
36.5400 655.0000 1.0000
36.5500 610.0000 1.0000
36.5600 621.0000 1.0000
36.5700 658.0000 1.0000
36.5800 637.0000 1.0000
36.5900 641.0000 1.0000
36.6000 653.0000 1.0000
36.6100 653.0000 1.0000
36.6200 626.0000 1.0000
36.6300 569.0000 1.0000
36.6400 616.0000 1.0000
36.6500 623.0000 1.0000
36.6600 615.0000 1.0000
36.6700 616.0000 1.0000
36.6800 615.0000 1.0000
36.6900 608.0000 1.0000
36.7000 626.0000 1.0000
36.7100 636.0000 1.0000
36.7200 624.0000 1.0000
36.7300 600.0000 1.0000
36.7400 662.0000 1.0000
36.7500 663.0000 1.0000
36.7600 664.0000 1.0000
36.7700 631.0000 1.0000
36.7800 628.0000 1.0000
36.7900 589.0000 1.0000
36.8000 670.0000 1.0000
36.8100 601.0000 1.0000
36.8200 663.0000 1.0000
36.8300 673.0000 1.0000
36.8400 612.0000 1.0000
36.8500 612.0000 1.0000
36.8600 654.0000 1.0000
36.8700 669.0000 1.0000
36.8800 628.0000 1.0000
36.8900 642.0000 1.0000
36.9000 657.0000 1.0000
36.9100 640.0000 1.0000
36.9200 654.0000 1.0000
36.9300 626.0000 1.0000
36.9400 609.0000 1.0000
36.9500 711.0000 1.0000
36.9600 632.0000 1.0000
36.9700 651.0000 1.0000
36.9800 598.0000 1.0000
36.9900 643.0000 1.0000
37.0000 627.0000 1.0000
37.0100 608.0000 1.0000
37.0200 605.0000 1.0000
37.0300 611.0000 1.0000
37.0400 655.0000 1.0000
37.0500 612.0000 1.0000
37.0600 663.0000 1.0000
37.0700 643.0000 1.0000
37.0800 660.0000 1.0000
37.0900 658.0000 1.0000
37.1000 607.0000 1.0000
37.1100 623.0000 1.0000
37.1200 661.0000 1.0000
37.1300 655.0000 1.0000
37.1400 646.0000 1.0000
37.1500 715.0000 1.0000
37.1600 656.0000 1.0000
37.1700 688.0000 1.0000
37.1800 694.0000 1.0000
37.1900 660.0000 1.0000
37.2000 657.0000 1.0000
37.2100 673.0000 1.0000
37.2200 707.0000 1.0000
37.2300 699.0000 1.0000
37.2400 693.0000 1.0000
37.2500 734.0000 1.0000
37.2600 702.0000 1.0000
37.2700 756.0000 1.0000
37.2800 731.0000 1.0000
37.2900 743.0000 1.0000
37.3000 724.0000 1.0000
37.3100 738.0000 1.0000
37.3200 746.0000 1.0000
37.3300 768.0000 1.0000
37.3400 711.0000 1.0000
37.3500 776.0000 1.0000
37.3600 817.0000 1.0000
37.3700 846.0000 1.0000
37.3800 853.0000 1.0000
37.3900 858.0000 1.0000
37.4000 852.0000 1.0000
37.4100 870.0000 1.0000
37.4200 918.0000 1.0000
37.4300 929.0000 1.0000
37.4400 993.0000 1.0000
37.4500 992.0000 1.0000
37.4600 994.0000 1.0000
37.4700 1106.0000 1.0000
37.4800 1131.0000 1.0000
37.4900 1171.0000 1.0000
37.5000 1226.0000 1.0000
37.5100 1259.0000 1.0000
37.5200 1359.0000 1.0000
37.5300 1490.0000 1.0000
37.5400 1533.0000 1.0000
37.5500 1626.0000 1.0000
37.5600 1672.0000 1.0000
37.5700 1847.0000 1.0000
37.5800 1850.0000 1.0000
37.5900 2023.0000 1.0000
37.6000 2150.0000 1.0000
37.6100 2427.0000 1.0000
37.6200 2603.0000 1.0000
37.6300 2676.0000 1.0000
37.6400 2816.0000 1.0000
37.6500 2927.0000 1.0000
37.6600 2942.0000 1.0000
37.6700 3108.0000 1.0000
37.6800 3257.0000 1.0000
37.6900 3358.0000 1.0000
37.7000 3244.0000 1.0000
37.7100 3197.0000 1.0000
37.7200 3227.0000 1.0000
37.7300 3298.0000 1.0000
37.7400 3286.0000 1.0000
37.7500 3148.0000 1.0000
37.7600 3076.0000 1.0000
37.7700 2917.0000 1.0000
37.7800 2889.0000 1.0000
37.7900 2724.0000 1.0000
37.8000 2587.0000 1.0000
37.8100 2520.0000 1.0000
37.8200 2342.0000 1.0000
37.8300 2238.0000 1.0000
37.8400 2138.0000 1.0000
37.8500 1969.0000 1.0000
37.8600 1882.0000 1.0000
37.8700 1804.0000 1.0000
37.8800 1605.0000 1.0000
37.8900 1531.0000 1.0000
37.9000 1465.0000 1.0000
37.9100 1393.0000 1.0000
37.9200 1334.0000 1.0000
37.9300 1215.0000 1.0000
37.9400 1113.0000 1.0000
37.9500 1103.0000 1.0000
37.9600 1082.0000 1.0000
37.9700 1060.0000 1.0000
37.9800 982.0000 1.0000
37.9900 936.0000 1.0000
38.0000 894.0000 1.0000
38.0100 878.0000 1.0000
38.0200 882.0000 1.0000
38.0300 827.0000 1.0000
38.0400 862.0000 1.0000
38.0500 801.0000 1.0000
38.0600 742.0000 1.0000
38.0700 760.0000 1.0000
38.0800 742.0000 1.0000
38.0900 702.0000 1.0000
38.1000 699.0000 1.0000
38.1100 704.0000 1.0000
38.1200 700.0000 1.0000
38.1300 665.0000 1.0000
38.1400 682.0000 1.0000
38.1500 616.0000 1.0000
38.1600 641.0000 1.0000
38.1700 681.0000 1.0000
38.1800 691.0000 1.0000
38.1900 662.0000 1.0000
38.2000 637.0000 1.0000
38.2100 642.0000 1.0000
38.2200 657.0000 1.0000
38.2300 613.0000 1.0000
38.2400 611.0000 1.0000
38.2500 635.0000 1.0000
38.2600 656.0000 1.0000
38.2700 621.0000 1.0000
38.2800 642.0000 1.0000
38.2900 612.0000 1.0000
38.3000 632.0000 1.0000
38.3100 614.0000 1.0000
38.3200 608.0000 1.0000
38.3300 612.0000 1.0000
38.3400 600.0000 1.0000
38.3500 583.0000 1.0000
38.3600 566.0000 1.0000
38.3700 577.0000 1.0000
38.3800 604.0000 1.0000
38.3900 569.0000 1.0000
38.4000 611.0000 1.0000
38.4100 564.0000 1.0000
38.4200 577.0000 1.0000
38.4300 606.0000 1.0000
38.4400 586.0000 1.0000
38.4500 604.0000 1.0000
38.4600 584.0000 1.0000
38.4700 572.0000 1.0000
38.4800 642.0000 1.0000
38.4900 635.0000 1.0000
38.5000 565.0000 1.0000
38.5100 538.0000 1.0000
38.5200 569.0000 1.0000
38.5300 593.0000 1.0000
38.5400 610.0000 1.0000
38.5500 602.0000 1.0000
38.5600 591.0000 1.0000
38.5700 599.0000 1.0000
38.5800 571.0000 1.0000
38.5900 598.0000 1.0000
38.6000 595.0000 1.0000
38.6100 601.0000 1.0000
38.6200 606.0000 1.0000
38.6300 606.0000 1.0000
38.6400 604.0000 1.0000
38.6500 545.0000 1.0000
38.6600 608.0000 1.0000
38.6700 648.0000 1.0000
38.6800 591.0000 1.0000
38.6900 595.0000 1.0000
38.7000 638.0000 1.0000
38.7100 639.0000 1.0000
38.7200 644.0000 1.0000
38.7300 645.0000 1.0000
38.7400 605.0000 1.0000
38.7500 634.0000 1.0000
38.7600 637.0000 1.0000
38.7700 639.0000 1.0000
38.7800 578.0000 1.0000
38.7900 635.0000 1.0000
38.8000 602.0000 1.0000
38.8100 621.0000 1.0000
38.8200 629.0000 1.0000
38.8300 635.0000 1.0000
38.8400 612.0000 1.0000
38.8500 625.0000 1.0000
38.8600 604.0000 1.0000
38.8700 632.0000 1.0000
38.8800 589.0000 1.0000
38.8900 580.0000 1.0000
38.9000 563.0000 1.0000
38.9100 573.0000 1.0000
38.9200 579.0000 1.0000
38.9300 604.0000 1.0000
38.9400 580.0000 1.0000
38.9500 581.0000 1.0000
38.9600 561.0000 1.0000
38.9700 536.0000 1.0000
38.9800 613.0000 1.0000
38.9900 569.0000 1.0000
39.0000 564.0000 1.0000
39.0100 514.0000 1.0000
39.0200 557.0000 1.0000
39.0300 579.0000 1.0000
39.0400 580.0000 1.0000
39.0500 563.0000 1.0000
39.0600 555.0000 1.0000
39.0700 566.0000 1.0000
39.0800 566.0000 1.0000
39.0900 587.0000 1.0000
39.1000 548.0000 1.0000
39.1100 574.0000 1.0000
39.1200 568.0000 1.0000
39.1300 578.0000 1.0000
39.1400 561.0000 1.0000
39.1500 551.0000 1.0000
39.1600 543.0000 1.0000
39.1700 572.0000 1.0000
39.1800 553.0000 1.0000
39.1900 581.0000 1.0000
39.2000 601.0000 1.0000
39.2100 588.0000 1.0000
39.2200 552.0000 1.0000
39.2300 548.0000 1.0000
39.2400 597.0000 1.0000
39.2500 576.0000 1.0000
39.2600 531.0000 1.0000
39.2700 514.0000 1.0000
39.2800 571.0000 1.0000
39.2900 587.0000 1.0000
39.3000 546.0000 1.0000
39.3100 567.0000 1.0000
39.3200 558.0000 1.0000
39.3300 564.0000 1.0000
39.3400 509.0000 1.0000
39.3500 560.0000 1.0000
39.3600 552.0000 1.0000
39.3700 552.0000 1.0000
39.3800 573.0000 1.0000
39.3900 550.0000 1.0000
39.4000 543.0000 1.0000
39.4100 531.0000 1.0000
39.4200 587.0000 1.0000
39.4300 577.0000 1.0000
39.4400 568.0000 1.0000
39.4500 548.0000 1.0000
39.4600 555.0000 1.0000
39.4700 554.0000 1.0000
39.4800 586.0000 1.0000
39.4900 525.0000 1.0000
39.5000 572.0000 1.0000
39.5100 535.0000 1.0000
39.5200 587.0000 1.0000
39.5300 566.0000 1.0000
39.5400 546.0000 1.0000
39.5500 525.0000 1.0000
39.5600 553.0000 1.0000
39.5700 573.0000 1.0000
39.5800 578.0000 1.0000
39.5900 555.0000 1.0000
39.6000 558.0000 1.0000
39.6100 523.0000 1.0000
39.6200 551.0000 1.0000
39.6300 500.0000 1.0000
39.6400 525.0000 1.0000
39.6500 578.0000 1.0000
39.6600 553.0000 1.0000
39.6700 541.0000 1.0000
39.6800 530.0000 1.0000
39.6900 539.0000 1.0000
39.7000 560.0000 1.0000
39.7100 558.0000 1.0000
39.7200 555.0000 1.0000
39.7300 524.0000 1.0000
39.7400 544.0000 1.0000
39.7500 565.0000 1.0000
39.7600 568.0000 1.0000
39.7700 536.0000 1.0000
39.7800 554.0000 1.0000
39.7900 562.0000 1.0000
39.8000 539.0000 1.0000
39.8100 515.0000 1.0000
39.8200 490.0000 1.0000
39.8300 520.0000 1.0000
39.8400 532.0000 1.0000
39.8500 536.0000 1.0000
39.8600 568.0000 1.0000
39.8700 539.0000 1.0000
39.8800 548.0000 1.0000
39.8900 536.0000 1.0000
39.9000 514.0000 1.0000
39.9100 484.0000 1.0000
39.9200 557.0000 1.0000
39.9300 543.0000 1.0000
39.9400 510.0000 1.0000
39.9500 552.0000 1.0000
39.9600 545.0000 1.0000
39.9700 565.0000 1.0000
39.9800 526.0000 1.0000
39.9900 528.0000 1.0000
40.0000 553.0000 1.0000
40.0100 553.0000 1.0000
40.0200 541.0000 1.0000
40.0300 549.0000 1.0000
40.0400 526.0000 1.0000
40.0500 515.0000 1.0000
40.0600 517.0000 1.0000
40.0700 511.0000 1.0000
40.0800 540.0000 1.0000
40.0900 515.0000 1.0000
40.1000 534.0000 1.0000
40.1100 489.0000 1.0000
40.1200 552.0000 1.0000
40.1300 574.0000 1.0000
40.1400 550.0000 1.0000
40.1500 537.0000 1.0000
40.1600 539.0000 1.0000
40.1700 555.0000 1.0000
40.1800 536.0000 1.0000
40.1900 510.0000 1.0000
40.2000 544.0000 1.0000
40.2100 540.0000 1.0000
40.2200 532.0000 1.0000
40.2300 524.0000 1.0000
40.2400 558.0000 1.0000
40.2500 534.0000 1.0000
40.2600 551.0000 1.0000
40.2700 512.0000 1.0000
40.2800 515.0000 1.0000
40.2900 543.0000 1.0000
40.3000 514.0000 1.0000
40.3100 513.0000 1.0000
40.3200 536.0000 1.0000
40.3300 497.0000 1.0000
40.3400 548.0000 1.0000
40.3500 579.0000 1.0000
40.3600 557.0000 1.0000
40.3700 507.0000 1.0000
40.3800 525.0000 1.0000
40.3900 546.0000 1.0000
40.4000 546.0000 1.0000
40.4100 568.0000 1.0000
40.4200 533.0000 1.0000
40.4300 524.0000 1.0000
40.4400 547.0000 1.0000
40.4500 552.0000 1.0000
40.4600 556.0000 1.0000
40.4700 581.0000 1.0000
40.4800 529.0000 1.0000
40.4900 527.0000 1.0000
40.5000 560.0000 1.0000
40.5100 547.0000 1.0000
40.5200 518.0000 1.0000
40.5300 518.0000 1.0000
40.5400 565.0000 1.0000
40.5500 572.0000 1.0000
40.5600 555.0000 1.0000
40.5700 515.0000 1.0000
40.5800 559.0000 1.0000
40.5900 550.0000 1.0000
40.6000 549.0000 1.0000
40.6100 566.0000 1.0000
40.6200 517.0000 1.0000
40.6300 545.0000 1.0000
40.6400 523.0000 1.0000
40.6500 566.0000 1.0000
40.6600 573.0000 1.0000
40.6700 546.0000 1.0000
40.6800 564.0000 1.0000
40.6900 584.0000 1.0000
40.7000 571.0000 1.0000
40.7100 566.0000 1.0000
40.7200 598.0000 1.0000
40.7300 609.0000 1.0000
40.7400 618.0000 1.0000
40.7500 622.0000 1.0000
40.7600 649.0000 1.0000
40.7700 606.0000 1.0000
40.7800 590.0000 1.0000
40.7900 644.0000 1.0000
40.8000 625.0000 1.0000
40.8100 649.0000 1.0000
40.8200 636.0000 1.0000
40.8300 633.0000 1.0000
40.8400 630.0000 1.0000
40.8500 602.0000 1.0000
40.8600 600.0000 1.0000
40.8700 603.0000 1.0000
40.8800 613.0000 1.0000
40.8900 589.0000 1.0000
40.9000 554.0000 1.0000
40.9100 562.0000 1.0000
40.9200 622.0000 1.0000
40.9300 573.0000 1.0000
40.9400 563.0000 1.0000
40.9500 564.0000 1.0000
40.9600 578.0000 1.0000
40.9700 548.0000 1.0000
40.9800 554.0000 1.0000
40.9900 525.0000 1.0000
41.0000 580.0000 1.0000
41.0100 550.0000 1.0000
41.0200 527.0000 1.0000
41.0300 532.0000 1.0000
41.0400 519.0000 1.0000
41.0500 520.0000 1.0000
41.0600 502.0000 1.0000
41.0700 532.0000 1.0000
41.0800 536.0000 1.0000
41.0900 501.0000 1.0000
41.1000 551.0000 1.0000
41.1100 524.0000 1.0000
41.1200 533.0000 1.0000
41.1300 531.0000 1.0000
41.1400 509.0000 1.0000
41.1500 513.0000 1.0000
41.1600 505.0000 1.0000
41.1700 513.0000 1.0000
41.1800 537.0000 1.0000
41.1900 526.0000 1.0000
41.2000 549.0000 1.0000
41.2100 549.0000 1.0000
41.2200 524.0000 1.0000
41.2300 528.0000 1.0000
41.2400 516.0000 1.0000
41.2500 544.0000 1.0000
41.2600 539.0000 1.0000
41.2700 499.0000 1.0000
41.2800 501.0000 1.0000
41.2900 506.0000 1.0000
41.3000 522.0000 1.0000
41.3100 517.0000 1.0000
41.3200 524.0000 1.0000
41.3300 491.0000 1.0000
41.3400 492.0000 1.0000
41.3500 533.0000 1.0000
41.3600 501.0000 1.0000
41.3700 537.0000 1.0000
41.3800 538.0000 1.0000
41.3900 502.0000 1.0000
41.4000 532.0000 1.0000
41.4100 537.0000 1.0000
41.4200 524.0000 1.0000
41.4300 488.0000 1.0000
41.4400 523.0000 1.0000
41.4500 562.0000 1.0000
41.4600 530.0000 1.0000
41.4700 553.0000 1.0000
41.4800 513.0000 1.0000
41.4900 564.0000 1.0000
41.5000 553.0000 1.0000
41.5100 524.0000 1.0000
41.5200 545.0000 1.0000
41.5300 505.0000 1.0000
41.5400 512.0000 1.0000
41.5500 527.0000 1.0000
41.5600 530.0000 1.0000
41.5700 523.0000 1.0000
41.5800 530.0000 1.0000
41.5900 542.0000 1.0000
41.6000 519.0000 1.0000
41.6100 557.0000 1.0000
41.6200 492.0000 1.0000
41.6300 502.0000 1.0000
41.6400 529.0000 1.0000
41.6500 499.0000 1.0000
41.6600 520.0000 1.0000
41.6700 526.0000 1.0000
41.6800 518.0000 1.0000
41.6900 548.0000 1.0000
41.7000 512.0000 1.0000
41.7100 511.0000 1.0000
41.7200 526.0000 1.0000
41.7300 552.0000 1.0000
41.7400 486.0000 1.0000
41.7500 529.0000 1.0000
41.7600 527.0000 1.0000
41.7700 542.0000 1.0000
41.7800 540.0000 1.0000
41.7900 526.0000 1.0000
41.8000 522.0000 1.0000
41.8100 483.0000 1.0000
41.8200 486.0000 1.0000
41.8300 490.0000 1.0000
41.8400 526.0000 1.0000
41.8500 492.0000 1.0000
41.8600 501.0000 1.0000
41.8700 510.0000 1.0000
41.8800 499.0000 1.0000
41.8900 560.0000 1.0000
41.9000 539.0000 1.0000
41.9100 490.0000 1.0000
41.9200 502.0000 1.0000
41.9300 483.0000 1.0000
41.9400 519.0000 1.0000
41.9500 529.0000 1.0000
41.9600 510.0000 1.0000
41.9700 465.0000 1.0000
41.9800 514.0000 1.0000
41.9900 487.0000 1.0000
42.0000 491.0000 1.0000
42.0100 492.0000 1.0000
42.0200 504.0000 1.0000
42.0300 517.0000 1.0000
42.0400 526.0000 1.0000
42.0500 541.0000 1.0000
42.0600 500.0000 1.0000
42.0700 498.0000 1.0000
42.0800 558.0000 1.0000
42.0900 521.0000 1.0000
42.1000 517.0000 1.0000
42.1100 534.0000 1.0000
42.1200 524.0000 1.0000
42.1300 504.0000 1.0000
42.1400 490.0000 1.0000
42.1500 546.0000 1.0000
42.1600 548.0000 1.0000
42.1700 510.0000 1.0000
42.1800 529.0000 1.0000
42.1900 505.0000 1.0000
42.2000 511.0000 1.0000
42.2100 510.0000 1.0000
42.2200 525.0000 1.0000
42.2300 532.0000 1.0000
42.2400 533.0000 1.0000
42.2500 524.0000 1.0000
42.2600 554.0000 1.0000
42.2700 482.0000 1.0000
42.2800 527.0000 1.0000
42.2900 545.0000 1.0000
42.3000 517.0000 1.0000
42.3100 518.0000 1.0000
42.3200 564.0000 1.0000
42.3300 550.0000 1.0000
42.3400 555.0000 1.0000
42.3500 553.0000 1.0000
42.3600 584.0000 1.0000
42.3700 587.0000 1.0000
42.3800 579.0000 1.0000
42.3900 612.0000 1.0000
42.4000 626.0000 1.0000
42.4100 603.0000 1.0000
42.4200 573.0000 1.0000
42.4300 567.0000 1.0000
42.4400 561.0000 1.0000
42.4500 564.0000 1.0000
42.4600 572.0000 1.0000
42.4700 564.0000 1.0000
42.4800 547.0000 1.0000
42.4900 553.0000 1.0000
42.5000 562.0000 1.0000
42.5100 562.0000 1.0000
42.5200 525.0000 1.0000
42.5300 556.0000 1.0000
42.5400 540.0000 1.0000
42.5500 531.0000 1.0000
42.5600 559.0000 1.0000
42.5700 522.0000 1.0000
42.5800 552.0000 1.0000
42.5900 558.0000 1.0000
42.6000 538.0000 1.0000
42.6100 522.0000 1.0000
42.6200 460.0000 1.0000
42.6300 493.0000 1.0000
42.6400 535.0000 1.0000
42.6500 530.0000 1.0000
42.6600 509.0000 1.0000
42.6700 528.0000 1.0000
42.6800 549.0000 1.0000
42.6900 538.0000 1.0000
42.7000 521.0000 1.0000
42.7100 516.0000 1.0000
42.7200 532.0000 1.0000
42.7300 505.0000 1.0000
42.7400 535.0000 1.0000
42.7500 517.0000 1.0000
42.7600 482.0000 1.0000
42.7700 526.0000 1.0000
42.7800 481.0000 1.0000
42.7900 510.0000 1.0000
42.8000 478.0000 1.0000
42.8100 500.0000 1.0000
42.8200 519.0000 1.0000
42.8300 501.0000 1.0000
42.8400 502.0000 1.0000
42.8500 542.0000 1.0000
42.8600 512.0000 1.0000
42.8700 500.0000 1.0000
42.8800 478.0000 1.0000
42.8900 498.0000 1.0000
42.9000 481.0000 1.0000
42.9100 518.0000 1.0000
42.9200 554.0000 1.0000
42.9300 523.0000 1.0000
42.9400 494.0000 1.0000
42.9500 522.0000 1.0000
42.9600 498.0000 1.0000
42.9700 515.0000 1.0000
42.9800 495.0000 1.0000
42.9900 517.0000 1.0000
43.0000 511.0000 1.0000
43.0100 499.0000 1.0000
43.0200 509.0000 1.0000
43.0300 489.0000 1.0000
43.0400 542.0000 1.0000
43.0500 482.0000 1.0000
43.0600 534.0000 1.0000
43.0700 494.0000 1.0000
43.0800 502.0000 1.0000
43.0900 468.0000 1.0000
43.1000 506.0000 1.0000
43.1100 517.0000 1.0000
43.1200 533.0000 1.0000
43.1300 516.0000 1.0000
43.1400 526.0000 1.0000
43.1500 511.0000 1.0000
43.1600 507.0000 1.0000
43.1700 518.0000 1.0000
43.1800 491.0000 1.0000
43.1900 525.0000 1.0000
43.2000 493.0000 1.0000
43.2100 519.0000 1.0000
43.2200 503.0000 1.0000
43.2300 483.0000 1.0000
43.2400 506.0000 1.0000
43.2500 492.0000 1.0000
43.2600 451.0000 1.0000
43.2700 502.0000 1.0000
43.2800 488.0000 1.0000
43.2900 468.0000 1.0000
43.3000 517.0000 1.0000
43.3100 534.0000 1.0000
43.3200 514.0000 1.0000
43.3300 527.0000 1.0000
43.3400 510.0000 1.0000
43.3500 558.0000 1.0000
43.3600 521.0000 1.0000
43.3700 500.0000 1.0000
43.3800 494.0000 1.0000
43.3900 540.0000 1.0000
43.4000 531.0000 1.0000
43.4100 482.0000 1.0000
43.4200 517.0000 1.0000
43.4300 535.0000 1.0000
43.4400 498.0000 1.0000
43.4500 522.0000 1.0000
43.4600 508.0000 1.0000
43.4700 500.0000 1.0000
43.4800 501.0000 1.0000
43.4900 512.0000 1.0000
43.5000 505.0000 1.0000
43.5100 521.0000 1.0000
43.5200 509.0000 1.0000
43.5300 495.0000 1.0000
43.5400 498.0000 1.0000
43.5500 573.0000 1.0000
43.5600 540.0000 1.0000
43.5700 488.0000 1.0000
43.5800 494.0000 1.0000
43.5900 510.0000 1.0000
43.6000 499.0000 1.0000
43.6100 517.0000 1.0000
43.6200 517.0000 1.0000
43.6300 511.0000 1.0000
43.6400 518.0000 1.0000
43.6500 552.0000 1.0000
43.6600 517.0000 1.0000
43.6700 519.0000 1.0000
43.6800 519.0000 1.0000
43.6900 543.0000 1.0000
43.7000 493.0000 1.0000
43.7100 463.0000 1.0000
43.7200 477.0000 1.0000
43.7300 483.0000 1.0000
43.7400 492.0000 1.0000
43.7500 479.0000 1.0000
43.7600 537.0000 1.0000
43.7700 477.0000 1.0000
43.7800 486.0000 1.0000
43.7900 468.0000 1.0000
43.8000 535.0000 1.0000
43.8100 509.0000 1.0000
43.8200 521.0000 1.0000
43.8300 512.0000 1.0000
43.8400 459.0000 1.0000
43.8500 480.0000 1.0000
43.8600 505.0000 1.0000
43.8700 494.0000 1.0000
43.8800 449.0000 1.0000
43.8900 511.0000 1.0000
43.9000 499.0000 1.0000
43.9100 499.0000 1.0000
43.9200 489.0000 1.0000
43.9300 500.0000 1.0000
43.9400 480.0000 1.0000
43.9500 510.0000 1.0000
43.9600 497.0000 1.0000
43.9700 471.0000 1.0000
43.9800 476.0000 1.0000
43.9900 505.0000 1.0000
44.0000 482.0000 1.0000
44.0100 465.0000 1.0000
44.0200 482.0000 1.0000
44.0300 484.0000 1.0000
44.0400 451.0000 1.0000
44.0500 478.0000 1.0000
44.0600 476.0000 1.0000
44.0700 483.0000 1.0000
44.0800 465.0000 1.0000
44.0900 474.0000 1.0000
44.1000 485.0000 1.0000
44.1100 513.0000 1.0000
44.1200 495.0000 1.0000
44.1300 502.0000 1.0000
44.1400 485.0000 1.0000
44.1500 482.0000 1.0000
44.1600 465.0000 1.0000
44.1700 481.0000 1.0000
44.1800 471.0000 1.0000
44.1900 481.0000 1.0000
44.2000 504.0000 1.0000
44.2100 523.0000 1.0000
44.2200 500.0000 1.0000
44.2300 469.0000 1.0000
44.2400 489.0000 1.0000
44.2500 508.0000 1.0000
44.2600 495.0000 1.0000
44.2700 487.0000 1.0000
44.2800 473.0000 1.0000
44.2900 491.0000 1.0000
44.3000 485.0000 1.0000
44.3100 481.0000 1.0000
44.3200 476.0000 1.0000
44.3300 504.0000 1.0000
44.3400 495.0000 1.0000
44.3500 513.0000 1.0000
44.3600 504.0000 1.0000
44.3700 502.0000 1.0000
44.3800 481.0000 1.0000
44.3900 481.0000 1.0000
44.4000 502.0000 1.0000
44.4100 517.0000 1.0000
44.4200 489.0000 1.0000
44.4300 522.0000 1.0000
44.4400 444.0000 1.0000
44.4500 473.0000 1.0000
44.4600 490.0000 1.0000
44.4700 486.0000 1.0000
44.4800 472.0000 1.0000
44.4900 444.0000 1.0000
44.5000 496.0000 1.0000
44.5100 490.0000 1.0000
44.5200 460.0000 1.0000
44.5300 478.0000 1.0000
44.5400 463.0000 1.0000
44.5500 493.0000 1.0000
44.5600 473.0000 1.0000
44.5700 492.0000 1.0000
44.5800 499.0000 1.0000
44.5900 486.0000 1.0000
44.6000 485.0000 1.0000
44.6100 501.0000 1.0000
44.6200 494.0000 1.0000
44.6300 472.0000 1.0000
44.6400 498.0000 1.0000
44.6500 472.0000 1.0000
44.6600 498.0000 1.0000
44.6700 481.0000 1.0000
44.6800 467.0000 1.0000
44.6900 495.0000 1.0000
44.7000 461.0000 1.0000
44.7100 489.0000 1.0000
44.7200 465.0000 1.0000
44.7300 488.0000 1.0000
44.7400 493.0000 1.0000
44.7500 495.0000 1.0000
44.7600 473.0000 1.0000
44.7700 454.0000 1.0000
44.7800 488.0000 1.0000
44.7900 504.0000 1.0000
44.8000 453.0000 1.0000
44.8100 442.0000 1.0000
44.8200 424.0000 1.0000
44.8300 470.0000 1.0000
44.8400 497.0000 1.0000
44.8500 452.0000 1.0000
44.8600 472.0000 1.0000
44.8700 473.0000 1.0000
44.8800 463.0000 1.0000
44.8900 483.0000 1.0000
44.9000 477.0000 1.0000
44.9100 458.0000 1.0000
44.9200 476.0000 1.0000
44.9300 470.0000 1.0000
44.9400 496.0000 1.0000
44.9500 494.0000 1.0000
44.9600 464.0000 1.0000
44.9700 503.0000 1.0000
44.9800 439.0000 1.0000
44.9900 452.0000 1.0000
45.0000 477.0000 1.0000
45.0100 474.0000 1.0000
45.0200 455.0000 1.0000
45.0300 483.0000 1.0000
45.0400 514.0000 1.0000
45.0500 522.0000 1.0000
45.0600 497.0000 1.0000
45.0700 492.0000 1.0000
45.0800 492.0000 1.0000
45.0900 469.0000 1.0000
45.1000 489.0000 1.0000
45.1100 474.0000 1.0000
45.1200 443.0000 1.0000
45.1300 499.0000 1.0000
45.1400 454.0000 1.0000
45.1500 426.0000 1.0000
45.1600 458.0000 1.0000
45.1700 479.0000 1.0000
45.1800 470.0000 1.0000
45.1900 438.0000 1.0000
45.2000 446.0000 1.0000
45.2100 456.0000 1.0000
45.2200 466.0000 1.0000
45.2300 472.0000 1.0000
45.2400 457.0000 1.0000
45.2500 461.0000 1.0000
45.2600 456.0000 1.0000
45.2700 457.0000 1.0000
45.2800 452.0000 1.0000
45.2900 482.0000 1.0000
45.3000 494.0000 1.0000
45.3100 476.0000 1.0000
45.3200 506.0000 1.0000
45.3300 496.0000 1.0000
45.3400 484.0000 1.0000
45.3500 518.0000 1.0000
45.3600 469.0000 1.0000
45.3700 435.0000 1.0000
45.3800 447.0000 1.0000
45.3900 503.0000 1.0000
45.4000 476.0000 1.0000
45.4100 500.0000 1.0000
45.4200 462.0000 1.0000
45.4300 468.0000 1.0000
45.4400 458.0000 1.0000
45.4500 457.0000 1.0000
45.4600 484.0000 1.0000
45.4700 515.0000 1.0000
45.4800 496.0000 1.0000
45.4900 444.0000 1.0000
45.5000 487.0000 1.0000
45.5100 473.0000 1.0000
45.5200 484.0000 1.0000
45.5300 479.0000 1.0000
45.5400 449.0000 1.0000
45.5500 457.0000 1.0000
45.5600 462.0000 1.0000
45.5700 471.0000 1.0000
45.5800 497.0000 1.0000
45.5900 463.0000 1.0000
45.6000 463.0000 1.0000
45.6100 490.0000 1.0000
45.6200 476.0000 1.0000
45.6300 495.0000 1.0000
45.6400 456.0000 1.0000
45.6500 465.0000 1.0000
45.6600 476.0000 1.0000
45.6700 468.0000 1.0000
45.6800 445.0000 1.0000
45.6900 488.0000 1.0000
45.7000 462.0000 1.0000
45.7100 458.0000 1.0000
45.7200 469.0000 1.0000
45.7300 508.0000 1.0000
45.7400 440.0000 1.0000
45.7500 438.0000 1.0000
45.7600 483.0000 1.0000
45.7700 481.0000 1.0000
45.7800 448.0000 1.0000
45.7900 459.0000 1.0000
45.8000 487.0000 1.0000
45.8100 471.0000 1.0000
45.8200 461.0000 1.0000
45.8300 492.0000 1.0000
45.8400 495.0000 1.0000
45.8500 467.0000 1.0000
45.8600 450.0000 1.0000
45.8700 505.0000 1.0000
45.8800 460.0000 1.0000
45.8900 472.0000 1.0000
45.9000 476.0000 1.0000
45.9100 477.0000 1.0000
45.9200 445.0000 1.0000
45.9300 513.0000 1.0000
45.9400 447.0000 1.0000
45.9500 449.0000 1.0000
45.9600 471.0000 1.0000
45.9700 437.0000 1.0000
45.9800 425.0000 1.0000
45.9900 443.0000 1.0000
46.0000 474.0000 1.0000
46.0100 453.0000 1.0000
46.0200 478.0000 1.0000
46.0300 462.0000 1.0000
46.0400 469.0000 1.0000
46.0500 487.0000 1.0000
46.0600 504.0000 1.0000
46.0700 458.0000 1.0000
46.0800 493.0000 1.0000
46.0900 487.0000 1.0000
46.1000 466.0000 1.0000
46.1100 457.0000 1.0000
46.1200 443.0000 1.0000
46.1300 476.0000 1.0000
46.1400 486.0000 1.0000
46.1500 448.0000 1.0000
46.1600 493.0000 1.0000
46.1700 459.0000 1.0000
46.1800 505.0000 1.0000
46.1900 494.0000 1.0000
46.2000 473.0000 1.0000
46.2100 506.0000 1.0000
46.2200 494.0000 1.0000
46.2300 496.0000 1.0000
46.2400 479.0000 1.0000
46.2500 513.0000 1.0000
46.2600 461.0000 1.0000
46.2700 495.0000 1.0000
46.2800 497.0000 1.0000
46.2900 487.0000 1.0000
46.3000 498.0000 1.0000
46.3100 468.0000 1.0000
46.3200 455.0000 1.0000
46.3300 446.0000 1.0000
46.3400 471.0000 1.0000
46.3500 527.0000 1.0000
46.3600 501.0000 1.0000
46.3700 474.0000 1.0000
46.3800 496.0000 1.0000
46.3900 491.0000 1.0000
46.4000 469.0000 1.0000
46.4100 471.0000 1.0000
46.4200 443.0000 1.0000
46.4300 438.0000 1.0000
46.4400 467.0000 1.0000
46.4500 483.0000 1.0000
46.4600 464.0000 1.0000
46.4700 441.0000 1.0000
46.4800 466.0000 1.0000
46.4900 457.0000 1.0000
46.5000 470.0000 1.0000
46.5100 487.0000 1.0000
46.5200 479.0000 1.0000
46.5300 476.0000 1.0000
46.5400 422.0000 1.0000
46.5500 472.0000 1.0000
46.5600 481.0000 1.0000
46.5700 457.0000 1.0000
46.5800 443.0000 1.0000
46.5900 473.0000 1.0000
46.6000 467.0000 1.0000
46.6100 459.0000 1.0000
46.6200 430.0000 1.0000
46.6300 438.0000 1.0000
46.6400 450.0000 1.0000
46.6500 474.0000 1.0000
46.6600 424.0000 1.0000
46.6700 462.0000 1.0000
46.6800 473.0000 1.0000
46.6900 424.0000 1.0000
46.7000 465.0000 1.0000
46.7100 496.0000 1.0000
46.7200 424.0000 1.0000
46.7300 470.0000 1.0000
46.7400 440.0000 1.0000
46.7500 466.0000 1.0000
46.7600 478.0000 1.0000
46.7700 457.0000 1.0000
46.7800 460.0000 1.0000
46.7900 430.0000 1.0000
46.8000 461.0000 1.0000
46.8100 466.0000 1.0000
46.8200 466.0000 1.0000
46.8300 457.0000 1.0000
46.8400 450.0000 1.0000
46.8500 457.0000 1.0000
46.8600 473.0000 1.0000
46.8700 434.0000 1.0000
46.8800 437.0000 1.0000
46.8900 443.0000 1.0000
46.9000 455.0000 1.0000
46.9100 439.0000 1.0000
46.9200 464.0000 1.0000
46.9300 495.0000 1.0000
46.9400 499.0000 1.0000
46.9500 456.0000 1.0000
46.9600 481.0000 1.0000
46.9700 475.0000 1.0000
46.9800 447.0000 1.0000
46.9900 450.0000 1.0000
47.0000 479.0000 1.0000
47.0100 475.0000 1.0000
47.0200 450.0000 1.0000
47.0300 440.0000 1.0000
47.0400 463.0000 1.0000
47.0500 455.0000 1.0000
47.0600 452.0000 1.0000
47.0700 442.0000 1.0000
47.0800 422.0000 1.0000
47.0900 431.0000 1.0000
47.1000 444.0000 1.0000
47.1100 441.0000 1.0000
47.1200 435.0000 1.0000
47.1300 493.0000 1.0000
47.1400 441.0000 1.0000
47.1500 463.0000 1.0000
47.1600 468.0000 1.0000
47.1700 456.0000 1.0000
47.1800 465.0000 1.0000
47.1900 462.0000 1.0000
47.2000 459.0000 1.0000
47.2100 468.0000 1.0000
47.2200 460.0000 1.0000
47.2300 454.0000 1.0000
47.2400 437.0000 1.0000
47.2500 431.0000 1.0000
47.2600 453.0000 1.0000
47.2700 490.0000 1.0000
47.2800 469.0000 1.0000
47.2900 453.0000 1.0000
47.3000 441.0000 1.0000
47.3100 466.0000 1.0000
47.3200 438.0000 1.0000
47.3300 457.0000 1.0000
47.3400 440.0000 1.0000
47.3500 464.0000 1.0000
47.3600 439.0000 1.0000
47.3700 462.0000 1.0000
47.3800 464.0000 1.0000
47.3900 466.0000 1.0000
47.4000 424.0000 1.0000
47.4100 448.0000 1.0000
47.4200 437.0000 1.0000
47.4300 481.0000 1.0000
47.4400 446.0000 1.0000
47.4500 447.0000 1.0000
47.4600 444.0000 1.0000
47.4700 422.0000 1.0000
47.4800 426.0000 1.0000
47.4900 447.0000 1.0000
47.5000 457.0000 1.0000
47.5100 452.0000 1.0000
47.5200 430.0000 1.0000
47.5300 467.0000 1.0000
47.5400 473.0000 1.0000
47.5500 461.0000 1.0000
47.5600 446.0000 1.0000
47.5700 423.0000 1.0000
47.5800 428.0000 1.0000
47.5900 453.0000 1.0000
47.6000 451.0000 1.0000
47.6100 432.0000 1.0000
47.6200 421.0000 1.0000
47.6300 408.0000 1.0000
47.6400 429.0000 1.0000
47.6500 441.0000 1.0000
47.6600 456.0000 1.0000
47.6700 456.0000 1.0000
47.6800 492.0000 1.0000
47.6900 468.0000 1.0000
47.7000 437.0000 1.0000
47.7100 450.0000 1.0000
47.7200 417.0000 1.0000
47.7300 446.0000 1.0000
47.7400 437.0000 1.0000
47.7500 454.0000 1.0000
47.7600 419.0000 1.0000
47.7700 501.0000 1.0000
47.7800 453.0000 1.0000
47.7900 466.0000 1.0000
47.8000 442.0000 1.0000
47.8100 437.0000 1.0000
47.8200 471.0000 1.0000
47.8300 452.0000 1.0000
47.8400 465.0000 1.0000
47.8500 475.0000 1.0000
47.8600 431.0000 1.0000
47.8700 438.0000 1.0000
47.8800 467.0000 1.0000
47.8900 460.0000 1.0000
47.9000 452.0000 1.0000
47.9100 446.0000 1.0000
47.9200 443.0000 1.0000
47.9300 469.0000 1.0000
47.9400 452.0000 1.0000
47.9500 430.0000 1.0000
47.9600 421.0000 1.0000
47.9700 455.0000 1.0000
47.9800 481.0000 1.0000
47.9900 458.0000 1.0000
48.0000 439.0000 1.0000
48.0100 472.0000 1.0000
48.0200 450.0000 1.0000
48.0300 448.0000 1.0000
48.0400 434.0000 1.0000
48.0500 462.0000 1.0000
48.0600 431.0000 1.0000
48.0700 459.0000 1.0000
48.0800 447.0000 1.0000
48.0900 459.0000 1.0000
48.1000 461.0000 1.0000
48.1100 481.0000 1.0000
48.1200 442.0000 1.0000
48.1300 451.0000 1.0000
48.1400 465.0000 1.0000
48.1500 425.0000 1.0000
48.1600 453.0000 1.0000
48.1700 464.0000 1.0000
48.1800 446.0000 1.0000
48.1900 451.0000 1.0000
48.2000 456.0000 1.0000
48.2100 440.0000 1.0000
48.2200 434.0000 1.0000
48.2300 464.0000 1.0000
48.2400 444.0000 1.0000
48.2500 440.0000 1.0000
48.2600 457.0000 1.0000
48.2700 448.0000 1.0000
48.2800 415.0000 1.0000
48.2900 456.0000 1.0000
48.3000 458.0000 1.0000
48.3100 475.0000 1.0000
48.3200 481.0000 1.0000
48.3300 453.0000 1.0000
48.3400 436.0000 1.0000
48.3500 444.0000 1.0000
48.3600 444.0000 1.0000
48.3700 429.0000 1.0000
48.3800 458.0000 1.0000
48.3900 438.0000 1.0000
48.4000 460.0000 1.0000
48.4100 446.0000 1.0000
48.4200 430.0000 1.0000
48.4300 455.0000 1.0000
48.4400 439.0000 1.0000
48.4500 458.0000 1.0000
48.4600 445.0000 1.0000
48.4700 465.0000 1.0000
48.4800 441.0000 1.0000
48.4900 469.0000 1.0000
48.5000 415.0000 1.0000
48.5100 429.0000 1.0000
48.5200 441.0000 1.0000
48.5300 445.0000 1.0000
48.5400 459.0000 1.0000
48.5500 475.0000 1.0000
48.5600 442.0000 1.0000
48.5700 440.0000 1.0000
48.5800 428.0000 1.0000
48.5900 464.0000 1.0000
48.6000 433.0000 1.0000
48.6100 440.0000 1.0000
48.6200 409.0000 1.0000
48.6300 397.0000 1.0000
48.6400 434.0000 1.0000
48.6500 439.0000 1.0000
48.6600 446.0000 1.0000
48.6700 435.0000 1.0000
48.6800 408.0000 1.0000
48.6900 423.0000 1.0000
48.7000 450.0000 1.0000
48.7100 452.0000 1.0000
48.7200 447.0000 1.0000
48.7300 427.0000 1.0000
48.7400 453.0000 1.0000
48.7500 420.0000 1.0000
48.7600 442.0000 1.0000
48.7700 410.0000 1.0000
48.7800 429.0000 1.0000
48.7900 455.0000 1.0000
48.8000 408.0000 1.0000
48.8100 413.0000 1.0000
48.8200 444.0000 1.0000
48.8300 462.0000 1.0000
48.8400 459.0000 1.0000
48.8500 429.0000 1.0000
48.8600 442.0000 1.0000
48.8700 443.0000 1.0000
48.8800 426.0000 1.0000
48.8900 470.0000 1.0000
48.9000 420.0000 1.0000
48.9100 451.0000 1.0000
48.9200 434.0000 1.0000
48.9300 408.0000 1.0000
48.9400 416.0000 1.0000
48.9500 477.0000 1.0000
48.9600 450.0000 1.0000
48.9700 424.0000 1.0000
48.9800 428.0000 1.0000
48.9900 431.0000 1.0000
49.0000 445.0000 1.0000
49.0100 464.0000 1.0000
49.0200 461.0000 1.0000
49.0300 438.0000 1.0000
49.0400 433.0000 1.0000
49.0500 433.0000 1.0000
49.0600 448.0000 1.0000
49.0700 457.0000 1.0000
49.0800 450.0000 1.0000
49.0900 442.0000 1.0000
49.1000 439.0000 1.0000
49.1100 430.0000 1.0000
49.1200 451.0000 1.0000
49.1300 467.0000 1.0000
49.1400 438.0000 1.0000
49.1500 452.0000 1.0000
49.1600 435.0000 1.0000
49.1700 461.0000 1.0000
49.1800 464.0000 1.0000
49.1900 448.0000 1.0000
49.2000 466.0000 1.0000
49.2100 463.0000 1.0000
49.2200 468.0000 1.0000
49.2300 472.0000 1.0000
49.2400 457.0000 1.0000
49.2500 508.0000 1.0000
49.2600 510.0000 1.0000
49.2700 479.0000 1.0000
49.2800 480.0000 1.0000
49.2900 504.0000 1.0000
49.3000 520.0000 1.0000
49.3100 489.0000 1.0000
49.3200 482.0000 1.0000
49.3300 502.0000 1.0000
49.3400 523.0000 1.0000
49.3500 516.0000 1.0000
49.3600 551.0000 1.0000
49.3700 534.0000 1.0000
49.3800 542.0000 1.0000
49.3900 571.0000 1.0000
49.4000 560.0000 1.0000
49.4100 587.0000 1.0000
49.4200 584.0000 1.0000
49.4300 547.0000 1.0000
49.4400 546.0000 1.0000
49.4500 539.0000 1.0000
49.4600 539.0000 1.0000
49.4700 539.0000 1.0000
49.4800 537.0000 1.0000
49.4900 548.0000 1.0000
49.5000 512.0000 1.0000
49.5100 509.0000 1.0000
49.5200 468.0000 1.0000
49.5300 520.0000 1.0000
49.5400 537.0000 1.0000
49.5500 491.0000 1.0000
49.5600 489.0000 1.0000
49.5700 503.0000 1.0000
49.5800 503.0000 1.0000
49.5900 486.0000 1.0000
49.6000 496.0000 1.0000
49.6100 507.0000 1.0000
49.6200 525.0000 1.0000
49.6300 477.0000 1.0000
49.6400 455.0000 1.0000
49.6500 445.0000 1.0000
49.6600 430.0000 1.0000
49.6700 438.0000 1.0000
49.6800 451.0000 1.0000
49.6900 435.0000 1.0000
49.7000 422.0000 1.0000
49.7100 462.0000 1.0000
49.7200 491.0000 1.0000
49.7300 420.0000 1.0000
49.7400 415.0000 1.0000
49.7500 449.0000 1.0000
49.7600 479.0000 1.0000
49.7700 479.0000 1.0000
49.7800 409.0000 1.0000
49.7900 425.0000 1.0000
49.8000 463.0000 1.0000
49.8100 455.0000 1.0000
49.8200 477.0000 1.0000
49.8300 446.0000 1.0000
49.8400 466.0000 1.0000
49.8500 434.0000 1.0000
49.8600 433.0000 1.0000
49.8700 452.0000 1.0000
49.8800 425.0000 1.0000
49.8900 454.0000 1.0000
49.9000 468.0000 1.0000
49.9100 455.0000 1.0000
49.9200 450.0000 1.0000
49.9300 440.0000 1.0000
49.9400 436.0000 1.0000
49.9500 434.0000 1.0000
49.9600 451.0000 1.0000
49.9700 438.0000 1.0000
49.9800 449.0000 1.0000
49.9900 424.0000 1.0000
50.0000 402.0000 1.0000
50.0100 437.0000 1.0000
50.0200 444.0000 1.0000
50.0300 473.0000 1.0000
50.0400 453.0000 1.0000
50.0500 464.0000 1.0000
50.0600 447.0000 1.0000
50.0700 408.0000 1.0000
50.0800 444.0000 1.0000
50.0900 442.0000 1.0000
50.1000 472.0000 1.0000
50.1100 418.0000 1.0000
50.1200 432.0000 1.0000
50.1300 399.0000 1.0000
50.1400 470.0000 1.0000
50.1500 451.0000 1.0000
50.1600 413.0000 1.0000
50.1700 440.0000 1.0000
50.1800 432.0000 1.0000
50.1900 441.0000 1.0000
50.2000 453.0000 1.0000
50.2100 429.0000 1.0000
50.2200 437.0000 1.0000
50.2300 451.0000 1.0000
50.2400 433.0000 1.0000
50.2500 466.0000 1.0000
50.2600 434.0000 1.0000
50.2700 446.0000 1.0000
50.2800 437.0000 1.0000
50.2900 450.0000 1.0000
50.3000 455.0000 1.0000
50.3100 489.0000 1.0000
50.3200 437.0000 1.0000
50.3300 431.0000 1.0000
50.3400 424.0000 1.0000
50.3500 414.0000 1.0000
50.3600 448.0000 1.0000
50.3700 459.0000 1.0000
50.3800 415.0000 1.0000
50.3900 440.0000 1.0000
50.4000 478.0000 1.0000
50.4100 463.0000 1.0000
50.4200 430.0000 1.0000
50.4300 462.0000 1.0000
50.4400 446.0000 1.0000
50.4500 406.0000 1.0000
50.4600 465.0000 1.0000
50.4700 425.0000 1.0000
50.4800 472.0000 1.0000
50.4900 487.0000 1.0000
50.5000 442.0000 1.0000
50.5100 436.0000 1.0000
50.5200 415.0000 1.0000
50.5300 467.0000 1.0000
50.5400 466.0000 1.0000
50.5500 459.0000 1.0000
50.5600 442.0000 1.0000
50.5700 446.0000 1.0000
50.5800 437.0000 1.0000
50.5900 480.0000 1.0000
50.6000 452.0000 1.0000
50.6100 422.0000 1.0000
50.6200 466.0000 1.0000
50.6300 461.0000 1.0000
50.6400 485.0000 1.0000
50.6500 433.0000 1.0000
50.6600 431.0000 1.0000
50.6700 451.0000 1.0000
50.6800 457.0000 1.0000
50.6900 462.0000 1.0000
50.7000 471.0000 1.0000
50.7100 471.0000 1.0000
50.7200 490.0000 1.0000
50.7300 466.0000 1.0000
50.7400 462.0000 1.0000
50.7500 445.0000 1.0000
50.7600 463.0000 1.0000
50.7700 458.0000 1.0000
50.7800 436.0000 1.0000
50.7900 476.0000 1.0000
50.8000 457.0000 1.0000
50.8100 422.0000 1.0000
50.8200 506.0000 1.0000
50.8300 447.0000 1.0000
50.8400 474.0000 1.0000
50.8500 473.0000 1.0000
50.8600 453.0000 1.0000
50.8700 468.0000 1.0000
50.8800 450.0000 1.0000
50.8900 473.0000 1.0000
50.9000 443.0000 1.0000
50.9100 460.0000 1.0000
50.9200 485.0000 1.0000
50.9300 476.0000 1.0000
50.9400 475.0000 1.0000
50.9500 489.0000 1.0000
50.9600 476.0000 1.0000
50.9700 456.0000 1.0000
50.9800 447.0000 1.0000
50.9900 473.0000 1.0000
51.0000 464.0000 1.0000
51.0100 493.0000 1.0000
51.0200 525.0000 1.0000
51.0300 486.0000 1.0000
51.0400 504.0000 1.0000
51.0500 493.0000 1.0000
51.0600 565.0000 1.0000
51.0700 521.0000 1.0000
51.0800 532.0000 1.0000
51.0900 559.0000 1.0000
51.1000 529.0000 1.0000
51.1100 528.0000 1.0000
51.1200 522.0000 1.0000
51.1300 516.0000 1.0000
51.1400 537.0000 1.0000
51.1500 603.0000 1.0000
51.1600 615.0000 1.0000
51.1700 616.0000 1.0000
51.1800 672.0000 1.0000
51.1900 657.0000 1.0000
51.2000 703.0000 1.0000
51.2100 672.0000 1.0000
51.2200 709.0000 1.0000
51.2300 751.0000 1.0000
51.2400 784.0000 1.0000
51.2500 787.0000 1.0000
51.2600 883.0000 1.0000
51.2700 884.0000 1.0000
51.2800 924.0000 1.0000
51.2900 954.0000 1.0000
51.3000 1012.0000 1.0000
51.3100 1076.0000 1.0000
51.3200 1111.0000 1.0000
51.3300 1225.0000 1.0000
51.3400 1287.0000 1.0000
51.3500 1454.0000 1.0000
51.3600 1557.0000 1.0000
51.3700 1640.0000 1.0000
51.3800 1719.0000 1.0000
51.3900 1874.0000 1.0000
51.4000 1947.0000 1.0000
51.4100 2087.0000 1.0000
51.4200 2375.0000 1.0000
51.4300 2525.0000 1.0000
51.4400 2626.0000 1.0000
51.4500 2624.0000 1.0000
51.4600 2846.0000 1.0000
51.4700 2859.0000 1.0000
51.4800 2946.0000 1.0000
51.4900 2950.0000 1.0000
51.5000 3013.0000 1.0000
51.5100 2934.0000 1.0000
51.5200 2879.0000 1.0000
51.5300 2757.0000 1.0000
51.5400 2738.0000 1.0000
51.5500 2623.0000 1.0000
51.5600 2509.0000 1.0000
51.5700 2401.0000 1.0000
51.5800 2458.0000 1.0000
51.5900 2252.0000 1.0000
51.6000 2283.0000 1.0000
51.6100 2174.0000 1.0000
51.6200 2076.0000 1.0000
51.6300 1992.0000 1.0000
51.6400 1912.0000 1.0000
51.6500 1813.0000 1.0000
51.6600 1692.0000 1.0000
51.6700 1696.0000 1.0000
51.6800 1561.0000 1.0000
51.6900 1394.0000 1.0000
51.7000 1288.0000 1.0000
51.7100 1264.0000 1.0000
51.7200 1191.0000 1.0000
51.7300 1098.0000 1.0000
51.7400 1017.0000 1.0000
51.7500 936.0000 1.0000
51.7600 893.0000 1.0000
51.7700 847.0000 1.0000
51.7800 841.0000 1.0000
51.7900 765.0000 1.0000
51.8000 781.0000 1.0000
51.8100 736.0000 1.0000
51.8200 709.0000 1.0000
51.8300 699.0000 1.0000
51.8400 664.0000 1.0000
51.8500 685.0000 1.0000
51.8600 654.0000 1.0000
51.8700 649.0000 1.0000
51.8800 655.0000 1.0000
51.8900 605.0000 1.0000
51.9000 627.0000 1.0000
51.9100 586.0000 1.0000
51.9200 571.0000 1.0000
51.9300 563.0000 1.0000
51.9400 554.0000 1.0000
51.9500 533.0000 1.0000
51.9600 543.0000 1.0000
51.9700 504.0000 1.0000
51.9800 510.0000 1.0000
51.9900 505.0000 1.0000
52.0000 513.0000 1.0000
52.0100 495.0000 1.0000
52.0200 506.0000 1.0000
52.0300 508.0000 1.0000
52.0400 477.0000 1.0000
52.0500 475.0000 1.0000
52.0600 513.0000 1.0000
52.0700 521.0000 1.0000
52.0800 492.0000 1.0000
52.0900 519.0000 1.0000
52.1000 468.0000 1.0000
52.1100 499.0000 1.0000
52.1200 470.0000 1.0000
52.1300 482.0000 1.0000
52.1400 464.0000 1.0000
52.1500 414.0000 1.0000
52.1600 443.0000 1.0000
52.1700 465.0000 1.0000
52.1800 455.0000 1.0000
52.1900 464.0000 1.0000
52.2000 456.0000 1.0000
52.2100 479.0000 1.0000
52.2200 479.0000 1.0000
52.2300 438.0000 1.0000
52.2400 446.0000 1.0000
52.2500 463.0000 1.0000
52.2600 470.0000 1.0000
52.2700 467.0000 1.0000
52.2800 445.0000 1.0000
52.2900 425.0000 1.0000
52.3000 441.0000 1.0000
52.3100 475.0000 1.0000
52.3200 454.0000 1.0000
52.3300 455.0000 1.0000
52.3400 457.0000 1.0000
52.3500 420.0000 1.0000
52.3600 425.0000 1.0000
52.3700 433.0000 1.0000
52.3800 455.0000 1.0000
52.3900 426.0000 1.0000
52.4000 428.0000 1.0000
52.4100 443.0000 1.0000
52.4200 460.0000 1.0000
52.4300 484.0000 1.0000
52.4400 485.0000 1.0000
52.4500 449.0000 1.0000
52.4600 443.0000 1.0000
52.4700 468.0000 1.0000
52.4800 440.0000 1.0000
52.4900 460.0000 1.0000
52.5000 432.0000 1.0000
52.5100 445.0000 1.0000
52.5200 451.0000 1.0000
52.5300 456.0000 1.0000
52.5400 448.0000 1.0000
52.5500 435.0000 1.0000
52.5600 463.0000 1.0000
52.5700 448.0000 1.0000
52.5800 459.0000 1.0000
52.5900 445.0000 1.0000
52.6000 432.0000 1.0000
52.6100 437.0000 1.0000
52.6200 451.0000 1.0000
52.6300 470.0000 1.0000
52.6400 436.0000 1.0000
52.6500 428.0000 1.0000
52.6600 410.0000 1.0000
52.6700 446.0000 1.0000
52.6800 424.0000 1.0000
52.6900 453.0000 1.0000
52.7000 409.0000 1.0000
52.7100 439.0000 1.0000
52.7200 424.0000 1.0000
52.7300 454.0000 1.0000
52.7400 452.0000 1.0000
52.7500 411.0000 1.0000
52.7600 420.0000 1.0000
52.7700 436.0000 1.0000
52.7800 414.0000 1.0000
52.7900 425.0000 1.0000
52.8000 437.0000 1.0000
52.8100 434.0000 1.0000
52.8200 425.0000 1.0000
52.8300 404.0000 1.0000
52.8400 445.0000 1.0000
52.8500 412.0000 1.0000
52.8600 415.0000 1.0000
52.8700 396.0000 1.0000
52.8800 399.0000 1.0000
52.8900 425.0000 1.0000
52.9000 444.0000 1.0000
52.9100 460.0000 1.0000
52.9200 449.0000 1.0000
52.9300 433.0000 1.0000
52.9400 442.0000 1.0000
52.9500 426.0000 1.0000
52.9600 440.0000 1.0000
52.9700 417.0000 1.0000
52.9800 425.0000 1.0000
52.9900 455.0000 1.0000
53.0000 431.0000 1.0000
53.0100 441.0000 1.0000
53.0200 443.0000 1.0000
53.0300 440.0000 1.0000
53.0400 424.0000 1.0000
53.0500 427.0000 1.0000
53.0600 433.0000 1.0000
53.0700 426.0000 1.0000
53.0800 429.0000 1.0000
53.0900 468.0000 1.0000
53.1000 416.0000 1.0000
53.1100 415.0000 1.0000
53.1200 432.0000 1.0000
53.1300 421.0000 1.0000
53.1400 422.0000 1.0000
53.1500 428.0000 1.0000
53.1600 440.0000 1.0000
53.1700 425.0000 1.0000
53.1800 402.0000 1.0000
53.1900 425.0000 1.0000
53.2000 416.0000 1.0000
53.2100 439.0000 1.0000
53.2200 421.0000 1.0000
53.2300 407.0000 1.0000
53.2400 438.0000 1.0000
53.2500 447.0000 1.0000
53.2600 432.0000 1.0000
53.2700 430.0000 1.0000
53.2800 424.0000 1.0000
53.2900 464.0000 1.0000
53.3000 422.0000 1.0000
53.3100 420.0000 1.0000
53.3200 458.0000 1.0000
53.3300 431.0000 1.0000
53.3400 420.0000 1.0000
53.3500 431.0000 1.0000
53.3600 428.0000 1.0000
53.3700 455.0000 1.0000
53.3800 453.0000 1.0000
53.3900 417.0000 1.0000
53.4000 414.0000 1.0000
53.4100 442.0000 1.0000
53.4200 434.0000 1.0000
53.4300 422.0000 1.0000
53.4400 441.0000 1.0000
53.4500 458.0000 1.0000
53.4600 447.0000 1.0000
53.4700 460.0000 1.0000
53.4800 422.0000 1.0000
53.4900 410.0000 1.0000
53.5000 452.0000 1.0000
53.5100 461.0000 1.0000
53.5200 432.0000 1.0000
53.5300 392.0000 1.0000
53.5400 443.0000 1.0000
53.5500 452.0000 1.0000
53.5600 430.0000 1.0000
53.5700 461.0000 1.0000
53.5800 465.0000 1.0000
53.5900 435.0000 1.0000
53.6000 421.0000 1.0000
53.6100 474.0000 1.0000
53.6200 436.0000 1.0000
53.6300 435.0000 1.0000
53.6400 431.0000 1.0000
53.6500 432.0000 1.0000
53.6600 459.0000 1.0000
53.6700 409.0000 1.0000
53.6800 445.0000 1.0000
53.6900 462.0000 1.0000
53.7000 465.0000 1.0000
53.7100 428.0000 1.0000
53.7200 441.0000 1.0000
53.7300 415.0000 1.0000
53.7400 418.0000 1.0000
53.7500 461.0000 1.0000
53.7600 475.0000 1.0000
53.7700 470.0000 1.0000
53.7800 466.0000 1.0000
53.7900 426.0000 1.0000
53.8000 427.0000 1.0000
53.8100 468.0000 1.0000
53.8200 449.0000 1.0000
53.8300 462.0000 1.0000
53.8400 436.0000 1.0000
53.8500 464.0000 1.0000
53.8600 435.0000 1.0000
53.8700 467.0000 1.0000
53.8800 454.0000 1.0000
53.8900 472.0000 1.0000
53.9000 484.0000 1.0000
53.9100 496.0000 1.0000
53.9200 508.0000 1.0000
53.9300 519.0000 1.0000
53.9400 520.0000 1.0000
53.9500 526.0000 1.0000
53.9600 499.0000 1.0000
53.9700 521.0000 1.0000
53.9800 543.0000 1.0000
53.9900 591.0000 1.0000
54.0000 539.0000 1.0000
54.0100 534.0000 1.0000
54.0200 552.0000 1.0000
54.0300 592.0000 1.0000
54.0400 559.0000 1.0000
54.0500 564.0000 1.0000
54.0600 563.0000 1.0000
54.0700 539.0000 1.0000
54.0800 513.0000 1.0000
54.0900 541.0000 1.0000
54.1000 534.0000 1.0000
54.1100 528.0000 1.0000
54.1200 506.0000 1.0000
54.1300 544.0000 1.0000
54.1400 559.0000 1.0000
54.1500 520.0000 1.0000
54.1600 530.0000 1.0000
54.1700 504.0000 1.0000
54.1800 500.0000 1.0000
54.1900 496.0000 1.0000
54.2000 499.0000 1.0000
54.2100 508.0000 1.0000
54.2200 484.0000 1.0000
54.2300 514.0000 1.0000
54.2400 489.0000 1.0000
54.2500 497.0000 1.0000
54.2600 525.0000 1.0000
54.2700 488.0000 1.0000
54.2800 475.0000 1.0000
54.2900 523.0000 1.0000
54.3000 447.0000 1.0000
54.3100 481.0000 1.0000
54.3200 501.0000 1.0000
54.3300 506.0000 1.0000
54.3400 495.0000 1.0000
54.3500 541.0000 1.0000
54.3600 540.0000 1.0000
54.3700 518.0000 1.0000
54.3800 555.0000 1.0000
54.3900 556.0000 1.0000
54.4000 551.0000 1.0000
54.4100 562.0000 1.0000
54.4200 562.0000 1.0000
54.4300 578.0000 1.0000
54.4400 658.0000 1.0000
54.4500 585.0000 1.0000
54.4600 572.0000 1.0000
54.4700 589.0000 1.0000
54.4800 629.0000 1.0000
54.4900 654.0000 1.0000
54.5000 662.0000 1.0000
54.5100 660.0000 1.0000
54.5200 627.0000 1.0000
54.5300 660.0000 1.0000
54.5400 682.0000 1.0000
54.5500 621.0000 1.0000
54.5600 633.0000 1.0000
54.5700 671.0000 1.0000
54.5800 643.0000 1.0000
54.5900 619.0000 1.0000
54.6000 632.0000 1.0000
54.6100 647.0000 1.0000
54.6200 602.0000 1.0000
54.6300 589.0000 1.0000
54.6400 583.0000 1.0000
54.6500 595.0000 1.0000
54.6600 588.0000 1.0000
54.6700 610.0000 1.0000
54.6800 582.0000 1.0000
54.6900 571.0000 1.0000
54.7000 572.0000 1.0000
54.7100 561.0000 1.0000
54.7200 569.0000 1.0000
54.7300 529.0000 1.0000
54.7400 522.0000 1.0000
54.7500 503.0000 1.0000
54.7600 510.0000 1.0000
54.7700 516.0000 1.0000
54.7800 492.0000 1.0000
54.7900 465.0000 1.0000
54.8000 486.0000 1.0000
54.8100 449.0000 1.0000
54.8200 439.0000 1.0000
54.8300 519.0000 1.0000
54.8400 495.0000 1.0000
54.8500 457.0000 1.0000
54.8600 459.0000 1.0000
54.8700 429.0000 1.0000
54.8800 482.0000 1.0000
54.8900 483.0000 1.0000
54.9000 452.0000 1.0000
54.9100 438.0000 1.0000
54.9200 426.0000 1.0000
54.9300 452.0000 1.0000
54.9400 452.0000 1.0000
54.9500 423.0000 1.0000
54.9600 456.0000 1.0000
54.9700 453.0000 1.0000
54.9800 427.0000 1.0000
54.9900 420.0000 1.0000
55.0000 423.0000 1.0000
55.0100 404.0000 1.0000
55.0200 410.0000 1.0000
55.0300 439.0000 1.0000
55.0400 435.0000 1.0000
55.0500 474.0000 1.0000
55.0600 403.0000 1.0000
55.0700 475.0000 1.0000
55.0800 441.0000 1.0000
55.0900 399.0000 1.0000
55.1000 405.0000 1.0000
55.1100 423.0000 1.0000
55.1200 426.0000 1.0000
55.1300 413.0000 1.0000
55.1400 428.0000 1.0000
55.1500 418.0000 1.0000
55.1600 389.0000 1.0000
55.1700 391.0000 1.0000
55.1800 387.0000 1.0000
55.1900 432.0000 1.0000
55.2000 434.0000 1.0000
55.2100 419.0000 1.0000
55.2200 401.0000 1.0000
55.2300 436.0000 1.0000
55.2400 440.0000 1.0000
55.2500 437.0000 1.0000
55.2600 403.0000 1.0000
55.2700 441.0000 1.0000
55.2800 409.0000 1.0000
55.2900 392.0000 1.0000
55.3000 436.0000 1.0000
55.3100 452.0000 1.0000
55.3200 451.0000 1.0000
55.3300 431.0000 1.0000
55.3400 408.0000 1.0000
55.3500 412.0000 1.0000
55.3600 426.0000 1.0000
55.3700 416.0000 1.0000
55.3800 412.0000 1.0000
55.3900 407.0000 1.0000
55.4000 417.0000 1.0000
55.4100 434.0000 1.0000
55.4200 409.0000 1.0000
55.4300 437.0000 1.0000
55.4400 398.0000 1.0000
55.4500 393.0000 1.0000
55.4600 434.0000 1.0000
55.4700 415.0000 1.0000
55.4800 399.0000 1.0000
55.4900 388.0000 1.0000
55.5000 388.0000 1.0000
55.5100 412.0000 1.0000
55.5200 414.0000 1.0000
55.5300 414.0000 1.0000
55.5400 391.0000 1.0000
55.5500 376.0000 1.0000
55.5600 412.0000 1.0000
55.5700 450.0000 1.0000
55.5800 385.0000 1.0000
55.5900 418.0000 1.0000
55.6000 407.0000 1.0000
55.6100 419.0000 1.0000
55.6200 395.0000 1.0000
55.6300 425.0000 1.0000
55.6400 407.0000 1.0000
55.6500 422.0000 1.0000
55.6600 397.0000 1.0000
55.6700 441.0000 1.0000
55.6800 432.0000 1.0000
55.6900 392.0000 1.0000
55.7000 394.0000 1.0000
55.7100 429.0000 1.0000
55.7200 438.0000 1.0000
55.7300 422.0000 1.0000
55.7400 434.0000 1.0000
55.7500 447.0000 1.0000
55.7600 440.0000 1.0000
55.7700 425.0000 1.0000
55.7800 427.0000 1.0000
55.7900 415.0000 1.0000
55.8000 409.0000 1.0000
55.8100 394.0000 1.0000
55.8200 370.0000 1.0000
55.8300 405.0000 1.0000
55.8400 399.0000 1.0000
55.8500 398.0000 1.0000
55.8600 390.0000 1.0000
55.8700 433.0000 1.0000
55.8800 434.0000 1.0000
55.8900 422.0000 1.0000
55.9000 421.0000 1.0000
55.9100 414.0000 1.0000
55.9200 423.0000 1.0000
55.9300 401.0000 1.0000
55.9400 421.0000 1.0000
55.9500 423.0000 1.0000
55.9600 402.0000 1.0000
55.9700 409.0000 1.0000
55.9800 412.0000 1.0000
55.9900 424.0000 1.0000
56.0000 416.0000 1.0000
56.0100 411.0000 1.0000
56.0200 418.0000 1.0000
56.0300 409.0000 1.0000
56.0400 391.0000 1.0000
56.0500 380.0000 1.0000
56.0600 408.0000 1.0000
56.0700 417.0000 1.0000
56.0800 405.0000 1.0000
56.0900 414.0000 1.0000
56.1000 410.0000 1.0000
56.1100 443.0000 1.0000
56.1200 422.0000 1.0000
56.1300 394.0000 1.0000
56.1400 407.0000 1.0000
56.1500 389.0000 1.0000
56.1600 398.0000 1.0000
56.1700 393.0000 1.0000
56.1800 415.0000 1.0000
56.1900 427.0000 1.0000
56.2000 443.0000 1.0000
56.2100 398.0000 1.0000
56.2200 389.0000 1.0000
56.2300 405.0000 1.0000
56.2400 421.0000 1.0000
56.2500 400.0000 1.0000
56.2600 386.0000 1.0000
56.2700 406.0000 1.0000
56.2800 422.0000 1.0000
56.2900 391.0000 1.0000
56.3000 387.0000 1.0000
56.3100 392.0000 1.0000
56.3200 415.0000 1.0000
56.3300 418.0000 1.0000
56.3400 419.0000 1.0000
56.3500 383.0000 1.0000
56.3600 423.0000 1.0000
56.3700 408.0000 1.0000
56.3800 397.0000 1.0000
56.3900 414.0000 1.0000
56.4000 422.0000 1.0000
56.4100 423.0000 1.0000
56.4200 421.0000 1.0000
56.4300 384.0000 1.0000
56.4400 394.0000 1.0000
56.4500 402.0000 1.0000
56.4600 432.0000 1.0000
56.4700 402.0000 1.0000
56.4800 365.0000 1.0000
56.4900 407.0000 1.0000
56.5000 418.0000 1.0000
56.5100 401.0000 1.0000
56.5200 405.0000 1.0000
56.5300 407.0000 1.0000
56.5400 439.0000 1.0000
56.5500 419.0000 1.0000
56.5600 431.0000 1.0000
56.5700 415.0000 1.0000
56.5800 396.0000 1.0000
56.5900 418.0000 1.0000
56.6000 415.0000 1.0000
56.6100 410.0000 1.0000
56.6200 407.0000 1.0000
56.6300 434.0000 1.0000
56.6400 441.0000 1.0000
56.6500 390.0000 1.0000
56.6600 410.0000 1.0000
56.6700 411.0000 1.0000
56.6800 393.0000 1.0000
56.6900 433.0000 1.0000
56.7000 414.0000 1.0000
56.7100 387.0000 1.0000
56.7200 417.0000 1.0000
56.7300 403.0000 1.0000
56.7400 377.0000 1.0000
56.7500 434.0000 1.0000
56.7600 428.0000 1.0000
56.7700 404.0000 1.0000
56.7800 405.0000 1.0000
56.7900 405.0000 1.0000
56.8000 397.0000 1.0000
56.8100 419.0000 1.0000
56.8200 400.0000 1.0000
56.8300 385.0000 1.0000
56.8400 390.0000 1.0000
56.8500 400.0000 1.0000
56.8600 370.0000 1.0000
56.8700 445.0000 1.0000
56.8800 385.0000 1.0000
56.8900 426.0000 1.0000
56.9000 405.0000 1.0000
56.9100 423.0000 1.0000
56.9200 399.0000 1.0000
56.9300 400.0000 1.0000
56.9400 396.0000 1.0000
56.9500 398.0000 1.0000
56.9600 393.0000 1.0000
56.9700 402.0000 1.0000
56.9800 414.0000 1.0000
56.9900 401.0000 1.0000
57.0000 416.0000 1.0000
57.0100 435.0000 1.0000
57.0200 437.0000 1.0000
57.0300 416.0000 1.0000
57.0400 408.0000 1.0000
57.0500 419.0000 1.0000
57.0600 431.0000 1.0000
57.0700 416.0000 1.0000
57.0800 434.0000 1.0000
57.0900 444.0000 1.0000
57.1000 431.0000 1.0000
57.1100 410.0000 1.0000
57.1200 427.0000 1.0000
57.1300 394.0000 1.0000
57.1400 409.0000 1.0000
57.1500 395.0000 1.0000
57.1600 427.0000 1.0000
57.1700 386.0000 1.0000
57.1800 397.0000 1.0000
57.1900 412.0000 1.0000
57.2000 405.0000 1.0000
57.2100 407.0000 1.0000
57.2200 419.0000 1.0000
57.2300 439.0000 1.0000
57.2400 421.0000 1.0000
57.2500 427.0000 1.0000
57.2600 444.0000 1.0000
57.2700 440.0000 1.0000
57.2800 450.0000 1.0000
57.2900 428.0000 1.0000
57.3000 385.0000 1.0000
57.3100 424.0000 1.0000
57.3200 434.0000 1.0000
57.3300 396.0000 1.0000
57.3400 410.0000 1.0000
57.3500 436.0000 1.0000
57.3600 407.0000 1.0000
57.3700 410.0000 1.0000
57.3800 426.0000 1.0000
57.3900 425.0000 1.0000
57.4000 440.0000 1.0000
57.4100 430.0000 1.0000
57.4200 403.0000 1.0000
57.4300 412.0000 1.0000
57.4400 404.0000 1.0000
57.4500 421.0000 1.0000
57.4600 441.0000 1.0000
57.4700 426.0000 1.0000
57.4800 462.0000 1.0000
57.4900 412.0000 1.0000
57.5000 418.0000 1.0000
57.5100 398.0000 1.0000
57.5200 406.0000 1.0000
57.5300 421.0000 1.0000
57.5400 409.0000 1.0000
57.5500 431.0000 1.0000
57.5600 434.0000 1.0000
57.5700 444.0000 1.0000
57.5800 435.0000 1.0000
57.5900 458.0000 1.0000
57.6000 427.0000 1.0000
57.6100 430.0000 1.0000
57.6200 455.0000 1.0000
57.6300 437.0000 1.0000
57.6400 445.0000 1.0000
57.6500 432.0000 1.0000
57.6600 409.0000 1.0000
57.6700 407.0000 1.0000
57.6800 410.0000 1.0000
57.6900 400.0000 1.0000
57.7000 406.0000 1.0000
57.7100 399.0000 1.0000
57.7200 427.0000 1.0000
57.7300 435.0000 1.0000
57.7400 400.0000 1.0000
57.7500 401.0000 1.0000
57.7600 425.0000 1.0000
57.7700 408.0000 1.0000
57.7800 408.0000 1.0000
57.7900 405.0000 1.0000
57.8000 398.0000 1.0000
57.8100 394.0000 1.0000
57.8200 394.0000 1.0000
57.8300 401.0000 1.0000
57.8400 434.0000 1.0000
57.8500 364.0000 1.0000
57.8600 422.0000 1.0000
57.8700 426.0000 1.0000
57.8800 401.0000 1.0000
57.8900 414.0000 1.0000
57.9000 444.0000 1.0000
57.9100 424.0000 1.0000
57.9200 457.0000 1.0000
57.9300 420.0000 1.0000
57.9400 400.0000 1.0000
57.9500 415.0000 1.0000
57.9600 407.0000 1.0000
57.9700 410.0000 1.0000
57.9800 411.0000 1.0000
57.9900 388.0000 1.0000
58.0000 413.0000 1.0000
58.0100 400.0000 1.0000
58.0200 399.0000 1.0000
58.0300 393.0000 1.0000
58.0400 420.0000 1.0000
58.0500 384.0000 1.0000
58.0600 407.0000 1.0000
58.0700 394.0000 1.0000
58.0800 429.0000 1.0000
58.0900 438.0000 1.0000
58.1000 402.0000 1.0000
58.1100 422.0000 1.0000
58.1200 398.0000 1.0000
58.1300 408.0000 1.0000
58.1400 379.0000 1.0000
58.1500 419.0000 1.0000
58.1600 432.0000 1.0000
58.1700 445.0000 1.0000
58.1800 393.0000 1.0000
58.1900 368.0000 1.0000
58.2000 415.0000 1.0000
58.2100 413.0000 1.0000
58.2200 387.0000 1.0000
58.2300 427.0000 1.0000
58.2400 424.0000 1.0000
58.2500 440.0000 1.0000
58.2600 406.0000 1.0000
58.2700 446.0000 1.0000
58.2800 400.0000 1.0000
58.2900 418.0000 1.0000
58.3000 421.0000 1.0000
58.3100 420.0000 1.0000
58.3200 389.0000 1.0000
58.3300 417.0000 1.0000
58.3400 385.0000 1.0000
58.3500 416.0000 1.0000
58.3600 417.0000 1.0000
58.3700 414.0000 1.0000
58.3800 397.0000 1.0000
58.3900 390.0000 1.0000
58.4000 389.0000 1.0000
58.4100 388.0000 1.0000
58.4200 417.0000 1.0000
58.4300 431.0000 1.0000
58.4400 397.0000 1.0000
58.4500 375.0000 1.0000
58.4600 421.0000 1.0000
58.4700 406.0000 1.0000
58.4800 427.0000 1.0000
58.4900 396.0000 1.0000
58.5000 412.0000 1.0000
58.5100 428.0000 1.0000
58.5200 382.0000 1.0000
58.5300 392.0000 1.0000
58.5400 384.0000 1.0000
58.5500 369.0000 1.0000
58.5600 439.0000 1.0000
58.5700 433.0000 1.0000
58.5800 401.0000 1.0000
58.5900 391.0000 1.0000
58.6000 393.0000 1.0000
58.6100 415.0000 1.0000
58.6200 405.0000 1.0000
58.6300 385.0000 1.0000
58.6400 360.0000 1.0000
58.6500 408.0000 1.0000
58.6600 432.0000 1.0000
58.6700 391.0000 1.0000
58.6800 397.0000 1.0000
58.6900 402.0000 1.0000
58.7000 407.0000 1.0000
58.7100 447.0000 1.0000
58.7200 411.0000 1.0000
58.7300 408.0000 1.0000
58.7400 384.0000 1.0000
58.7500 374.0000 1.0000
58.7600 396.0000 1.0000
58.7700 444.0000 1.0000
58.7800 387.0000 1.0000
58.7900 406.0000 1.0000
58.8000 407.0000 1.0000
58.8100 378.0000 1.0000
58.8200 398.0000 1.0000
58.8300 408.0000 1.0000
58.8400 418.0000 1.0000
58.8500 407.0000 1.0000
58.8600 364.0000 1.0000
58.8700 378.0000 1.0000
58.8800 376.0000 1.0000
58.8900 401.0000 1.0000
58.9000 390.0000 1.0000
58.9100 419.0000 1.0000
58.9200 392.0000 1.0000
58.9300 374.0000 1.0000
58.9400 401.0000 1.0000
58.9500 424.0000 1.0000
58.9600 374.0000 1.0000
58.9700 395.0000 1.0000
58.9800 362.0000 1.0000
58.9900 364.0000 1.0000
59.0000 393.0000 1.0000
59.0100 422.0000 1.0000
59.0200 415.0000 1.0000
59.0300 377.0000 1.0000
59.0400 385.0000 1.0000
59.0500 410.0000 1.0000
59.0600 372.0000 1.0000
59.0700 395.0000 1.0000
59.0800 400.0000 1.0000
59.0900 393.0000 1.0000
59.1000 374.0000 1.0000
59.1100 412.0000 1.0000
59.1200 388.0000 1.0000
59.1300 435.0000 1.0000
59.1400 390.0000 1.0000
59.1500 381.0000 1.0000
59.1600 393.0000 1.0000
59.1700 393.0000 1.0000
59.1800 396.0000 1.0000
59.1900 383.0000 1.0000
59.2000 439.0000 1.0000
59.2100 367.0000 1.0000
59.2200 400.0000 1.0000
59.2300 401.0000 1.0000
59.2400 379.0000 1.0000
59.2500 388.0000 1.0000
59.2600 389.0000 1.0000
59.2700 407.0000 1.0000
59.2800 420.0000 1.0000
59.2900 418.0000 1.0000
59.3000 426.0000 1.0000
59.3100 427.0000 1.0000
59.3200 426.0000 1.0000
59.3300 387.0000 1.0000
59.3400 406.0000 1.0000
59.3500 393.0000 1.0000
59.3600 378.0000 1.0000
59.3700 404.0000 1.0000
59.3800 379.0000 1.0000
59.3900 399.0000 1.0000
59.4000 406.0000 1.0000
59.4100 363.0000 1.0000
59.4200 356.0000 1.0000
59.4300 354.0000 1.0000
59.4400 377.0000 1.0000
59.4500 401.0000 1.0000
59.4600 402.0000 1.0000
59.4700 410.0000 1.0000
59.4800 421.0000 1.0000
59.4900 395.0000 1.0000
59.5000 392.0000 1.0000
59.5100 403.0000 1.0000
59.5200 417.0000 1.0000
59.5300 439.0000 1.0000
59.5400 424.0000 1.0000
59.5500 403.0000 1.0000
59.5600 434.0000 1.0000
59.5700 383.0000 1.0000
59.5800 381.0000 1.0000
59.5900 396.0000 1.0000
59.6000 395.0000 1.0000
59.6100 403.0000 1.0000
59.6200 404.0000 1.0000
59.6300 378.0000 1.0000
59.6400 407.0000 1.0000
59.6500 386.0000 1.0000
59.6600 393.0000 1.0000
59.6700 383.0000 1.0000
59.6800 388.0000 1.0000
59.6900 405.0000 1.0000
59.7000 408.0000 1.0000
59.7100 380.0000 1.0000
59.7200 379.0000 1.0000
59.7300 431.0000 1.0000
59.7400 432.0000 1.0000
59.7500 414.0000 1.0000
59.7600 393.0000 1.0000
59.7700 383.0000 1.0000
59.7800 429.0000 1.0000
59.7900 421.0000 1.0000
59.8000 407.0000 1.0000
59.8100 379.0000 1.0000
59.8200 386.0000 1.0000
59.8300 379.0000 1.0000
59.8400 386.0000 1.0000
59.8500 409.0000 1.0000
59.8600 424.0000 1.0000
59.8700 411.0000 1.0000
59.8800 409.0000 1.0000
59.8900 388.0000 1.0000
59.9000 369.0000 1.0000
59.9100 443.0000 1.0000
59.9200 379.0000 1.0000
59.9300 390.0000 1.0000
59.9400 415.0000 1.0000
59.9500 398.0000 1.0000
59.9600 396.0000 1.0000
59.9700 375.0000 1.0000
59.9800 417.0000 1.0000
59.9900 406.0000 1.0000
60.0000 462.0000 1.0000
60.0100 404.0000 1.0000
60.0200 353.0000 1.0000
60.0300 368.0000 1.0000
60.0400 423.0000 1.0000
60.0500 414.0000 1.0000
60.0600 396.0000 1.0000
60.0700 398.0000 1.0000
60.0800 405.0000 1.0000
60.0900 390.0000 1.0000
60.1000 453.0000 1.0000
60.1100 427.0000 1.0000
60.1200 380.0000 1.0000
60.1300 402.0000 1.0000
60.1400 387.0000 1.0000
60.1500 399.0000 1.0000
60.1600 395.0000 1.0000
60.1700 398.0000 1.0000
60.1800 404.0000 1.0000
60.1900 371.0000 1.0000
60.2000 419.0000 1.0000
60.2100 397.0000 1.0000
60.2200 397.0000 1.0000
60.2300 402.0000 1.0000
60.2400 411.0000 1.0000
60.2500 404.0000 1.0000
60.2600 404.0000 1.0000
60.2700 441.0000 1.0000
60.2800 411.0000 1.0000
60.2900 409.0000 1.0000
60.3000 410.0000 1.0000
60.3100 443.0000 1.0000
60.3200 422.0000 1.0000
60.3300 407.0000 1.0000
60.3400 395.0000 1.0000
60.3500 408.0000 1.0000
60.3600 387.0000 1.0000
60.3700 388.0000 1.0000
60.3800 374.0000 1.0000
60.3900 403.0000 1.0000
60.4000 405.0000 1.0000
60.4100 374.0000 1.0000
60.4200 407.0000 1.0000
60.4300 403.0000 1.0000
60.4400 394.0000 1.0000
60.4500 431.0000 1.0000
60.4600 400.0000 1.0000
60.4700 379.0000 1.0000
60.4800 414.0000 1.0000
60.4900 395.0000 1.0000
60.5000 408.0000 1.0000
60.5100 373.0000 1.0000
60.5200 416.0000 1.0000
60.5300 407.0000 1.0000
60.5400 386.0000 1.0000
60.5500 399.0000 1.0000
60.5600 391.0000 1.0000
60.5700 407.0000 1.0000
60.5800 410.0000 1.0000
60.5900 395.0000 1.0000
60.6000 388.0000 1.0000
60.6100 406.0000 1.0000
60.6200 372.0000 1.0000
60.6300 419.0000 1.0000
60.6400 375.0000 1.0000
60.6500 390.0000 1.0000
60.6600 428.0000 1.0000
60.6700 395.0000 1.0000
60.6800 408.0000 1.0000
60.6900 428.0000 1.0000
60.7000 439.0000 1.0000
60.7100 430.0000 1.0000
60.7200 388.0000 1.0000
60.7300 374.0000 1.0000
60.7400 415.0000 1.0000
60.7500 419.0000 1.0000
60.7600 407.0000 1.0000
60.7700 410.0000 1.0000
60.7800 437.0000 1.0000
60.7900 393.0000 1.0000
60.8000 391.0000 1.0000
60.8100 403.0000 1.0000
60.8200 409.0000 1.0000
60.8300 388.0000 1.0000
60.8400 405.0000 1.0000
60.8500 423.0000 1.0000
60.8600 391.0000 1.0000
60.8700 400.0000 1.0000
60.8800 426.0000 1.0000
60.8900 430.0000 1.0000
60.9000 426.0000 1.0000
60.9100 400.0000 1.0000
60.9200 419.0000 1.0000
60.9300 416.0000 1.0000
60.9400 422.0000 1.0000
60.9500 416.0000 1.0000
60.9600 395.0000 1.0000
60.9700 424.0000 1.0000
60.9800 423.0000 1.0000
60.9900 398.0000 1.0000
61.0000 421.0000 1.0000
61.0100 439.0000 1.0000
61.0200 422.0000 1.0000
61.0300 402.0000 1.0000
61.0400 414.0000 1.0000
61.0500 438.0000 1.0000
61.0600 465.0000 1.0000
61.0700 425.0000 1.0000
61.0800 452.0000 1.0000
61.0900 466.0000 1.0000
61.1000 447.0000 1.0000
61.1100 406.0000 1.0000
61.1200 436.0000 1.0000
61.1300 416.0000 1.0000
61.1400 445.0000 1.0000
61.1500 456.0000 1.0000
61.1600 462.0000 1.0000
61.1700 488.0000 1.0000
61.1800 491.0000 1.0000
61.1900 453.0000 1.0000
61.2000 511.0000 1.0000
61.2100 488.0000 1.0000
61.2200 495.0000 1.0000
61.2300 497.0000 1.0000
61.2400 496.0000 1.0000
61.2500 491.0000 1.0000
61.2600 457.0000 1.0000
61.2700 488.0000 1.0000
61.2800 533.0000 1.0000
61.2900 512.0000 1.0000
61.3000 567.0000 1.0000
61.3100 542.0000 1.0000
61.3200 618.0000 1.0000
61.3300 566.0000 1.0000
61.3400 596.0000 1.0000
61.3500 609.0000 1.0000
61.3600 604.0000 1.0000
61.3700 659.0000 1.0000
61.3800 673.0000 1.0000
61.3900 684.0000 1.0000
61.4000 671.0000 1.0000
61.4100 727.0000 1.0000
61.4200 766.0000 1.0000
61.4300 761.0000 1.0000
61.4400 766.0000 1.0000
61.4500 720.0000 1.0000
61.4600 807.0000 1.0000
61.4700 817.0000 1.0000
61.4800 818.0000 1.0000
61.4900 812.0000 1.0000
61.5000 854.0000 1.0000
61.5100 807.0000 1.0000
61.5200 855.0000 1.0000
61.5300 860.0000 1.0000
61.5400 886.0000 1.0000
61.5500 872.0000 1.0000
61.5600 900.0000 1.0000
61.5700 869.0000 1.0000
61.5800 846.0000 1.0000
61.5900 823.0000 1.0000
61.6000 832.0000 1.0000
61.6100 815.0000 1.0000
61.6200 804.0000 1.0000
61.6300 825.0000 1.0000
61.6400 820.0000 1.0000
61.6500 767.0000 1.0000
61.6600 785.0000 1.0000
61.6700 790.0000 1.0000
61.6800 766.0000 1.0000
61.6900 785.0000 1.0000
61.7000 716.0000 1.0000
61.7100 698.0000 1.0000
61.7200 750.0000 1.0000
61.7300 696.0000 1.0000
61.7400 732.0000 1.0000
61.7500 667.0000 1.0000
61.7600 698.0000 1.0000
61.7700 634.0000 1.0000
61.7800 634.0000 1.0000
61.7900 610.0000 1.0000
61.8000 623.0000 1.0000
61.8100 601.0000 1.0000
61.8200 576.0000 1.0000
61.8300 586.0000 1.0000
61.8400 564.0000 1.0000
61.8500 581.0000 1.0000
61.8600 593.0000 1.0000
61.8700 528.0000 1.0000
61.8800 537.0000 1.0000
61.8900 511.0000 1.0000
61.9000 515.0000 1.0000
61.9100 520.0000 1.0000
61.9200 490.0000 1.0000
61.9300 453.0000 1.0000
61.9400 483.0000 1.0000
61.9500 540.0000 1.0000
61.9600 490.0000 1.0000
61.9700 473.0000 1.0000
61.9800 463.0000 1.0000
61.9900 483.0000 1.0000
62.0000 462.0000 1.0000
62.0100 484.0000 1.0000
62.0200 504.0000 1.0000
62.0300 468.0000 1.0000
62.0400 457.0000 1.0000
62.0500 435.0000 1.0000
62.0600 465.0000 1.0000
62.0700 458.0000 1.0000
62.0800 464.0000 1.0000
62.0900 499.0000 1.0000
62.1000 455.0000 1.0000
62.1100 450.0000 1.0000
62.1200 457.0000 1.0000
62.1300 427.0000 1.0000
62.1400 443.0000 1.0000
62.1500 447.0000 1.0000
62.1600 452.0000 1.0000
62.1700 472.0000 1.0000
62.1800 425.0000 1.0000
62.1900 443.0000 1.0000
62.2000 477.0000 1.0000
62.2100 456.0000 1.0000
62.2200 426.0000 1.0000
62.2300 440.0000 1.0000
62.2400 471.0000 1.0000
62.2500 446.0000 1.0000
62.2600 454.0000 1.0000
62.2700 454.0000 1.0000
62.2800 461.0000 1.0000
62.2900 443.0000 1.0000
62.3000 482.0000 1.0000
62.3100 477.0000 1.0000
62.3200 466.0000 1.0000
62.3300 513.0000 1.0000
62.3400 467.0000 1.0000
62.3500 492.0000 1.0000
62.3600 510.0000 1.0000
62.3700 512.0000 1.0000
62.3800 517.0000 1.0000
62.3900 496.0000 1.0000
62.4000 491.0000 1.0000
62.4100 468.0000 1.0000
62.4200 469.0000 1.0000
62.4300 477.0000 1.0000
62.4400 478.0000 1.0000
62.4500 477.0000 1.0000
62.4600 451.0000 1.0000
62.4700 459.0000 1.0000
62.4800 457.0000 1.0000
62.4900 491.0000 1.0000
62.5000 448.0000 1.0000
62.5100 475.0000 1.0000
62.5200 456.0000 1.0000
62.5300 459.0000 1.0000
62.5400 433.0000 1.0000
62.5500 456.0000 1.0000
62.5600 456.0000 1.0000
62.5700 432.0000 1.0000
62.5800 453.0000 1.0000
62.5900 448.0000 1.0000
62.6000 457.0000 1.0000
62.6100 432.0000 1.0000
62.6200 423.0000 1.0000
62.6300 406.0000 1.0000
62.6400 414.0000 1.0000
62.6500 441.0000 1.0000
62.6600 443.0000 1.0000
62.6700 405.0000 1.0000
62.6800 403.0000 1.0000
62.6900 416.0000 1.0000
62.7000 389.0000 1.0000
62.7100 408.0000 1.0000
62.7200 402.0000 1.0000
62.7300 413.0000 1.0000
62.7400 421.0000 1.0000
62.7500 388.0000 1.0000
62.7600 407.0000 1.0000
62.7700 405.0000 1.0000
62.7800 397.0000 1.0000
62.7900 369.0000 1.0000
62.8000 412.0000 1.0000
62.8100 398.0000 1.0000
62.8200 392.0000 1.0000
62.8300 416.0000 1.0000
62.8400 380.0000 1.0000
62.8500 388.0000 1.0000
62.8600 373.0000 1.0000
62.8700 403.0000 1.0000
62.8800 426.0000 1.0000
62.8900 414.0000 1.0000
62.9000 419.0000 1.0000
62.9100 399.0000 1.0000
62.9200 353.0000 1.0000
62.9300 401.0000 1.0000
62.9400 419.0000 1.0000
62.9500 421.0000 1.0000
62.9600 430.0000 1.0000
62.9700 410.0000 1.0000
62.9800 401.0000 1.0000
62.9900 401.0000 1.0000
63.0000 392.0000 1.0000
63.0100 404.0000 1.0000
63.0200 411.0000 1.0000
63.0300 429.0000 1.0000
63.0400 396.0000 1.0000
63.0500 391.0000 1.0000
63.0600 407.0000 1.0000
63.0700 408.0000 1.0000
63.0800 378.0000 1.0000
63.0900 408.0000 1.0000
63.1000 421.0000 1.0000
63.1100 396.0000 1.0000
63.1200 383.0000 1.0000
63.1300 407.0000 1.0000
63.1400 382.0000 1.0000
63.1500 393.0000 1.0000
63.1600 418.0000 1.0000
63.1700 408.0000 1.0000
63.1800 393.0000 1.0000
63.1900 426.0000 1.0000
63.2000 427.0000 1.0000
63.2100 369.0000 1.0000
63.2200 377.0000 1.0000
63.2300 382.0000 1.0000
63.2400 389.0000 1.0000
63.2500 426.0000 1.0000
63.2600 369.0000 1.0000
63.2700 400.0000 1.0000
63.2800 396.0000 1.0000
63.2900 402.0000 1.0000
63.3000 386.0000 1.0000
63.3100 357.0000 1.0000
63.3200 371.0000 1.0000
63.3300 402.0000 1.0000
63.3400 390.0000 1.0000
63.3500 387.0000 1.0000
63.3600 371.0000 1.0000
63.3700 381.0000 1.0000
63.3800 390.0000 1.0000
63.3900 410.0000 1.0000
63.4000 407.0000 1.0000
63.4100 396.0000 1.0000
63.4200 404.0000 1.0000
63.4300 382.0000 1.0000
63.4400 395.0000 1.0000
63.4500 427.0000 1.0000
63.4600 407.0000 1.0000
63.4700 423.0000 1.0000
63.4800 422.0000 1.0000
63.4900 403.0000 1.0000
63.5000 416.0000 1.0000
63.5100 397.0000 1.0000
63.5200 385.0000 1.0000
63.5300 372.0000 1.0000
63.5400 403.0000 1.0000
63.5500 397.0000 1.0000
63.5600 393.0000 1.0000
63.5700 459.0000 1.0000
63.5800 388.0000 1.0000
63.5900 417.0000 1.0000
63.6000 425.0000 1.0000
63.6100 394.0000 1.0000
63.6200 409.0000 1.0000
63.6300 417.0000 1.0000
63.6400 426.0000 1.0000
63.6500 382.0000 1.0000
63.6600 408.0000 1.0000
63.6700 419.0000 1.0000
63.6800 398.0000 1.0000
63.6900 423.0000 1.0000
63.7000 407.0000 1.0000
63.7100 398.0000 1.0000
63.7200 385.0000 1.0000
63.7300 406.0000 1.0000
63.7400 412.0000 1.0000
63.7500 426.0000 1.0000
63.7600 398.0000 1.0000
63.7700 430.0000 1.0000
63.7800 449.0000 1.0000
63.7900 425.0000 1.0000
63.8000 441.0000 1.0000
63.8100 437.0000 1.0000
63.8200 425.0000 1.0000
63.8300 449.0000 1.0000
63.8400 484.0000 1.0000
63.8500 465.0000 1.0000
63.8600 462.0000 1.0000
63.8700 493.0000 1.0000
63.8800 485.0000 1.0000
63.8900 449.0000 1.0000
63.9000 489.0000 1.0000
63.9100 538.0000 1.0000
63.9200 539.0000 1.0000
63.9300 522.0000 1.0000
63.9400 564.0000 1.0000
63.9500 549.0000 1.0000
63.9600 573.0000 1.0000
63.9700 564.0000 1.0000
63.9800 508.0000 1.0000
63.9900 540.0000 1.0000
64.0000 501.0000 1.0000
64.0100 510.0000 1.0000
64.0200 469.0000 1.0000
64.0300 481.0000 1.0000
64.0400 466.0000 1.0000
64.0500 459.0000 1.0000
64.0600 461.0000 1.0000
64.0700 498.0000 1.0000
64.0800 502.0000 1.0000
64.0900 439.0000 1.0000
64.1000 522.0000 1.0000
64.1100 484.0000 1.0000
64.1200 470.0000 1.0000
64.1300 489.0000 1.0000
64.1400 544.0000 1.0000
64.1500 501.0000 1.0000
64.1600 468.0000 1.0000
64.1700 429.0000 1.0000
64.1800 447.0000 1.0000
64.1900 431.0000 1.0000
64.2000 434.0000 1.0000
64.2100 442.0000 1.0000
64.2200 440.0000 1.0000
64.2300 404.0000 1.0000
64.2400 412.0000 1.0000
64.2500 416.0000 1.0000
64.2600 426.0000 1.0000
64.2700 441.0000 1.0000
64.2800 411.0000 1.0000
64.2900 437.0000 1.0000
64.3000 425.0000 1.0000
64.3100 436.0000 1.0000
64.3200 409.0000 1.0000
64.3300 404.0000 1.0000
64.3400 421.0000 1.0000
64.3500 426.0000 1.0000
64.3600 433.0000 1.0000
64.3700 455.0000 1.0000
64.3800 432.0000 1.0000
64.3900 402.0000 1.0000
64.4000 428.0000 1.0000
64.4100 413.0000 1.0000
64.4200 458.0000 1.0000
64.4300 394.0000 1.0000
64.4400 440.0000 1.0000
64.4500 414.0000 1.0000
64.4600 389.0000 1.0000
64.4700 424.0000 1.0000
64.4800 448.0000 1.0000
64.4900 418.0000 1.0000
64.5000 431.0000 1.0000
64.5100 421.0000 1.0000
64.5200 430.0000 1.0000
64.5300 431.0000 1.0000
64.5400 454.0000 1.0000
64.5500 398.0000 1.0000
64.5600 417.0000 1.0000
64.5700 433.0000 1.0000
64.5800 412.0000 1.0000
64.5900 426.0000 1.0000
64.6000 415.0000 1.0000
64.6100 412.0000 1.0000
64.6200 391.0000 1.0000
64.6300 439.0000 1.0000
64.6400 426.0000 1.0000
64.6500 394.0000 1.0000
64.6600 418.0000 1.0000
64.6700 416.0000 1.0000
64.6800 413.0000 1.0000
64.6900 395.0000 1.0000
64.7000 417.0000 1.0000
64.7100 386.0000 1.0000
64.7200 424.0000 1.0000
64.7300 415.0000 1.0000
64.7400 430.0000 1.0000
64.7500 390.0000 1.0000
64.7600 411.0000 1.0000
64.7700 419.0000 1.0000
64.7800 382.0000 1.0000
64.7900 404.0000 1.0000
64.8000 407.0000 1.0000
64.8100 439.0000 1.0000
64.8200 417.0000 1.0000
64.8300 411.0000 1.0000
64.8400 425.0000 1.0000
64.8500 408.0000 1.0000
64.8600 411.0000 1.0000
64.8700 413.0000 1.0000
64.8800 425.0000 1.0000
64.8900 449.0000 1.0000
64.9000 420.0000 1.0000
64.9100 389.0000 1.0000
64.9200 396.0000 1.0000
64.9300 417.0000 1.0000
64.9400 410.0000 1.0000
64.9500 439.0000 1.0000
64.9600 458.0000 1.0000
64.9700 434.0000 1.0000
64.9800 397.0000 1.0000
64.9900 405.0000 1.0000
65.0000 469.0000 1.0000
65.0100 440.0000 1.0000
65.0200 439.0000 1.0000
65.0300 439.0000 1.0000
65.0400 451.0000 1.0000
65.0500 435.0000 1.0000
65.0600 448.0000 1.0000
65.0700 451.0000 1.0000
65.0800 466.0000 1.0000
65.0900 468.0000 1.0000
65.1000 461.0000 1.0000
65.1100 465.0000 1.0000
65.1200 477.0000 1.0000
65.1300 453.0000 1.0000
65.1400 470.0000 1.0000
65.1500 504.0000 1.0000
65.1600 477.0000 1.0000
65.1700 498.0000 1.0000
65.1800 529.0000 1.0000
65.1900 523.0000 1.0000
65.2000 516.0000 1.0000
65.2100 522.0000 1.0000
65.2200 538.0000 1.0000
65.2300 548.0000 1.0000
65.2400 575.0000 1.0000
65.2500 573.0000 1.0000
65.2600 578.0000 1.0000
65.2700 588.0000 1.0000
65.2800 643.0000 1.0000
65.2900 631.0000 1.0000
65.3000 660.0000 1.0000
65.3100 667.0000 1.0000
65.3200 680.0000 1.0000
65.3300 743.0000 1.0000
65.3400 790.0000 1.0000
65.3500 790.0000 1.0000
65.3600 779.0000 1.0000
65.3700 850.0000 1.0000
65.3800 876.0000 1.0000
65.3900 899.0000 1.0000
65.4000 977.0000 1.0000
65.4100 970.0000 1.0000
65.4200 1099.0000 1.0000
65.4300 1115.0000 1.0000
65.4400 1161.0000 1.0000
65.4500 1246.0000 1.0000
65.4600 1261.0000 1.0000
65.4700 1273.0000 1.0000
65.4800 1310.0000 1.0000
65.4900 1291.0000 1.0000
65.5000 1377.0000 1.0000
65.5100 1475.0000 1.0000
65.5200 1492.0000 1.0000
65.5300 1496.0000 1.0000
65.5400 1453.0000 1.0000
65.5500 1389.0000 1.0000
65.5600 1414.0000 1.0000
65.5700 1392.0000 1.0000
65.5800 1388.0000 1.0000
65.5900 1332.0000 1.0000
65.6000 1343.0000 1.0000
65.6100 1342.0000 1.0000
65.6200 1299.0000 1.0000
65.6300 1235.0000 1.0000
65.6400 1289.0000 1.0000
65.6500 1219.0000 1.0000
65.6600 1200.0000 1.0000
65.6700 1200.0000 1.0000
65.6800 1164.0000 1.0000
65.6900 1160.0000 1.0000
65.7000 1164.0000 1.0000
65.7100 1123.0000 1.0000
65.7200 1079.0000 1.0000
65.7300 1062.0000 1.0000
65.7400 1087.0000 1.0000
65.7500 1024.0000 1.0000
65.7600 968.0000 1.0000
65.7700 947.0000 1.0000
65.7800 907.0000 1.0000
65.7900 832.0000 1.0000
65.8000 875.0000 1.0000
65.8100 803.0000 1.0000
65.8200 785.0000 1.0000
65.8300 763.0000 1.0000
65.8400 725.0000 1.0000
65.8500 708.0000 1.0000
65.8600 662.0000 1.0000
65.8700 647.0000 1.0000
65.8800 614.0000 1.0000
65.8900 609.0000 1.0000
65.9000 622.0000 1.0000
65.9100 571.0000 1.0000
65.9200 559.0000 1.0000
65.9300 514.0000 1.0000
65.9400 552.0000 1.0000
65.9500 513.0000 1.0000
65.9600 535.0000 1.0000
65.9700 517.0000 1.0000
65.9800 485.0000 1.0000
65.9900 507.0000 1.0000
66.0000 531.0000 1.0000
66.0100 507.0000 1.0000
66.0200 497.0000 1.0000
66.0300 488.0000 1.0000
66.0400 515.0000 1.0000
66.0500 468.0000 1.0000
66.0600 455.0000 1.0000
66.0700 449.0000 1.0000
66.0800 449.0000 1.0000
66.0900 445.0000 1.0000
66.1000 414.0000 1.0000
66.1100 452.0000 1.0000
66.1200 426.0000 1.0000
66.1300 430.0000 1.0000
66.1400 441.0000 1.0000
66.1500 432.0000 1.0000
66.1600 436.0000 1.0000
66.1700 411.0000 1.0000
66.1800 426.0000 1.0000
66.1900 439.0000 1.0000
66.2000 399.0000 1.0000
66.2100 429.0000 1.0000
66.2200 413.0000 1.0000
66.2300 394.0000 1.0000
66.2400 412.0000 1.0000
66.2500 391.0000 1.0000
66.2600 435.0000 1.0000
66.2700 421.0000 1.0000
66.2800 401.0000 1.0000
66.2900 409.0000 1.0000
66.3000 397.0000 1.0000
66.3100 390.0000 1.0000
66.3200 418.0000 1.0000
66.3300 392.0000 1.0000
66.3400 397.0000 1.0000
66.3500 391.0000 1.0000
66.3600 386.0000 1.0000
66.3700 384.0000 1.0000
66.3800 371.0000 1.0000
66.3900 424.0000 1.0000
66.4000 387.0000 1.0000
66.4100 431.0000 1.0000
66.4200 370.0000 1.0000
66.4300 365.0000 1.0000
66.4400 394.0000 1.0000
66.4500 417.0000 1.0000
66.4600 385.0000 1.0000
66.4700 382.0000 1.0000
66.4800 386.0000 1.0000
66.4900 376.0000 1.0000
66.5000 396.0000 1.0000
66.5100 371.0000 1.0000
66.5200 370.0000 1.0000
66.5300 434.0000 1.0000
66.5400 434.0000 1.0000
66.5500 375.0000 1.0000
66.5600 392.0000 1.0000
66.5700 407.0000 1.0000
66.5800 376.0000 1.0000
66.5900 396.0000 1.0000
66.6000 389.0000 1.0000
66.6100 400.0000 1.0000
66.6200 361.0000 1.0000
66.6300 399.0000 1.0000
66.6400 398.0000 1.0000
66.6500 375.0000 1.0000
66.6600 390.0000 1.0000
66.6700 371.0000 1.0000
66.6800 393.0000 1.0000
66.6900 387.0000 1.0000
66.7000 399.0000 1.0000
66.7100 323.0000 1.0000
66.7200 361.0000 1.0000
66.7300 376.0000 1.0000
66.7400 408.0000 1.0000
66.7500 398.0000 1.0000
66.7600 353.0000 1.0000
66.7700 360.0000 1.0000
66.7800 385.0000 1.0000
66.7900 404.0000 1.0000
66.8000 362.0000 1.0000
66.8100 337.0000 1.0000
66.8200 367.0000 1.0000
66.8300 387.0000 1.0000
66.8400 386.0000 1.0000
66.8500 385.0000 1.0000
66.8600 368.0000 1.0000
66.8700 403.0000 1.0000
66.8800 388.0000 1.0000
66.8900 405.0000 1.0000
66.9000 376.0000 1.0000
66.9100 398.0000 1.0000
66.9200 382.0000 1.0000
66.9300 390.0000 1.0000
66.9400 401.0000 1.0000
66.9500 376.0000 1.0000
66.9600 366.0000 1.0000
66.9700 377.0000 1.0000
66.9800 348.0000 1.0000
66.9900 355.0000 1.0000
67.0000 368.0000 1.0000
67.0100 398.0000 1.0000
67.0200 368.0000 1.0000
67.0300 368.0000 1.0000
67.0400 375.0000 1.0000
67.0500 349.0000 1.0000
67.0600 372.0000 1.0000
67.0700 397.0000 1.0000
67.0800 347.0000 1.0000
67.0900 367.0000 1.0000
67.1000 358.0000 1.0000
67.1100 411.0000 1.0000
67.1200 380.0000 1.0000
67.1300 366.0000 1.0000
67.1400 406.0000 1.0000
67.1500 375.0000 1.0000
67.1600 385.0000 1.0000
67.1700 368.0000 1.0000
67.1800 374.0000 1.0000
67.1900 377.0000 1.0000
67.2000 332.0000 1.0000
67.2100 386.0000 1.0000
67.2200 415.0000 1.0000
67.2300 371.0000 1.0000
67.2400 338.0000 1.0000
67.2500 345.0000 1.0000
67.2600 372.0000 1.0000
67.2700 380.0000 1.0000
67.2800 366.0000 1.0000
67.2900 372.0000 1.0000
67.3000 358.0000 1.0000
67.3100 354.0000 1.0000
67.3200 371.0000 1.0000
67.3300 403.0000 1.0000
67.3400 362.0000 1.0000
67.3500 363.0000 1.0000
67.3600 382.0000 1.0000
67.3700 377.0000 1.0000
67.3800 380.0000 1.0000
67.3900 379.0000 1.0000
67.4000 382.0000 1.0000
67.4100 372.0000 1.0000
67.4200 383.0000 1.0000
67.4300 373.0000 1.0000
67.4400 393.0000 1.0000
67.4500 370.0000 1.0000
67.4600 350.0000 1.0000
67.4700 363.0000 1.0000
67.4800 372.0000 1.0000
67.4900 358.0000 1.0000
67.5000 319.0000 1.0000
67.5100 381.0000 1.0000
67.5200 363.0000 1.0000
67.5300 350.0000 1.0000
67.5400 353.0000 1.0000
67.5500 394.0000 1.0000
67.5600 398.0000 1.0000
67.5700 411.0000 1.0000
67.5800 362.0000 1.0000
67.5900 355.0000 1.0000
67.6000 328.0000 1.0000
67.6100 358.0000 1.0000
67.6200 347.0000 1.0000
67.6300 360.0000 1.0000
67.6400 379.0000 1.0000
67.6500 366.0000 1.0000
67.6600 373.0000 1.0000
67.6700 377.0000 1.0000
67.6800 373.0000 1.0000
67.6900 371.0000 1.0000
67.7000 352.0000 1.0000
67.7100 405.0000 1.0000
67.7200 372.0000 1.0000
67.7300 384.0000 1.0000
67.7400 356.0000 1.0000
67.7500 359.0000 1.0000
67.7600 389.0000 1.0000
67.7700 377.0000 1.0000
67.7800 334.0000 1.0000
67.7900 346.0000 1.0000
67.8000 367.0000 1.0000
67.8100 377.0000 1.0000
67.8200 389.0000 1.0000
67.8300 387.0000 1.0000
67.8400 361.0000 1.0000
67.8500 368.0000 1.0000
67.8600 356.0000 1.0000
67.8700 338.0000 1.0000
67.8800 349.0000 1.0000
67.8900 356.0000 1.0000
67.9000 356.0000 1.0000
67.9100 344.0000 1.0000
67.9200 330.0000 1.0000
67.9300 355.0000 1.0000
67.9400 346.0000 1.0000
67.9500 355.0000 1.0000
67.9600 332.0000 1.0000
67.9700 365.0000 1.0000
67.9800 384.0000 1.0000
67.9900 377.0000 1.0000
68.0000 366.0000 1.0000
68.0100 360.0000 1.0000
68.0200 351.0000 1.0000
68.0300 356.0000 1.0000
68.0400 357.0000 1.0000
68.0500 368.0000 1.0000
68.0600 340.0000 1.0000
68.0700 408.0000 1.0000
68.0800 334.0000 1.0000
68.0900 347.0000 1.0000
68.1000 357.0000 1.0000
68.1100 368.0000 1.0000
68.1200 377.0000 1.0000
68.1300 336.0000 1.0000
68.1400 354.0000 1.0000
68.1500 381.0000 1.0000
68.1600 372.0000 1.0000
68.1700 333.0000 1.0000
68.1800 372.0000 1.0000
68.1900 369.0000 1.0000
68.2000 372.0000 1.0000
68.2100 384.0000 1.0000
68.2200 404.0000 1.0000
68.2300 346.0000 1.0000
68.2400 352.0000 1.0000
68.2500 362.0000 1.0000
68.2600 372.0000 1.0000
68.2700 363.0000 1.0000
68.2800 321.0000 1.0000
68.2900 353.0000 1.0000
68.3000 363.0000 1.0000
68.3100 389.0000 1.0000
68.3200 349.0000 1.0000
68.3300 358.0000 1.0000
68.3400 363.0000 1.0000
68.3500 362.0000 1.0000
68.3600 372.0000 1.0000
68.3700 341.0000 1.0000
68.3800 333.0000 1.0000
68.3900 352.0000 1.0000
68.4000 361.0000 1.0000
68.4100 370.0000 1.0000
68.4200 358.0000 1.0000
68.4300 367.0000 1.0000
68.4400 347.0000 1.0000
68.4500 365.0000 1.0000
68.4600 357.0000 1.0000
68.4700 394.0000 1.0000
68.4800 324.0000 1.0000
68.4900 355.0000 1.0000
68.5000 410.0000 1.0000
68.5100 353.0000 1.0000
68.5200 344.0000 1.0000
68.5300 338.0000 1.0000
68.5400 341.0000 1.0000
68.5500 345.0000 1.0000
68.5600 342.0000 1.0000
68.5700 363.0000 1.0000
68.5800 352.0000 1.0000
68.5900 340.0000 1.0000
68.6000 337.0000 1.0000
68.6100 350.0000 1.0000
68.6200 379.0000 1.0000
68.6300 401.0000 1.0000
68.6400 340.0000 1.0000
68.6500 353.0000 1.0000
68.6600 345.0000 1.0000
68.6700 388.0000 1.0000
68.6800 347.0000 1.0000
68.6900 355.0000 1.0000
68.7000 383.0000 1.0000
68.7100 332.0000 1.0000
68.7200 345.0000 1.0000
68.7300 351.0000 1.0000
68.7400 363.0000 1.0000
68.7500 368.0000 1.0000
68.7600 358.0000 1.0000
68.7700 356.0000 1.0000
68.7800 363.0000 1.0000
68.7900 391.0000 1.0000
68.8000 401.0000 1.0000
68.8100 365.0000 1.0000
68.8200 363.0000 1.0000
68.8300 341.0000 1.0000
68.8400 341.0000 1.0000
68.8500 353.0000 1.0000
68.8600 336.0000 1.0000
68.8700 344.0000 1.0000
68.8800 355.0000 1.0000
68.8900 381.0000 1.0000
68.9000 355.0000 1.0000
68.9100 373.0000 1.0000
68.9200 376.0000 1.0000
68.9300 339.0000 1.0000
68.9400 353.0000 1.0000
68.9500 393.0000 1.0000
68.9600 398.0000 1.0000
68.9700 374.0000 1.0000
68.9800 353.0000 1.0000
68.9900 347.0000 1.0000
69.0000 382.0000 1.0000
69.0100 356.0000 1.0000
69.0200 367.0000 1.0000
69.0300 338.0000 1.0000
69.0400 348.0000 1.0000
69.0500 337.0000 1.0000
69.0600 358.0000 1.0000
69.0700 362.0000 1.0000
69.0800 325.0000 1.0000
69.0900 338.0000 1.0000
69.1000 390.0000 1.0000
69.1100 386.0000 1.0000
69.1200 383.0000 1.0000
69.1300 367.0000 1.0000
69.1400 366.0000 1.0000
69.1500 375.0000 1.0000
69.1600 361.0000 1.0000
69.1700 336.0000 1.0000
69.1800 357.0000 1.0000
69.1900 361.0000 1.0000
69.2000 337.0000 1.0000
69.2100 361.0000 1.0000
69.2200 402.0000 1.0000
69.2300 342.0000 1.0000
69.2400 331.0000 1.0000
69.2500 370.0000 1.0000
69.2600 342.0000 1.0000
69.2700 343.0000 1.0000
69.2800 356.0000 1.0000
69.2900 348.0000 1.0000
69.3000 360.0000 1.0000
69.3100 342.0000 1.0000
69.3200 346.0000 1.0000
69.3300 358.0000 1.0000
69.3400 332.0000 1.0000
69.3500 319.0000 1.0000
69.3600 339.0000 1.0000
69.3700 361.0000 1.0000
69.3800 360.0000 1.0000
69.3900 307.0000 1.0000
69.4000 354.0000 1.0000
69.4100 351.0000 1.0000
69.4200 374.0000 1.0000
69.4300 353.0000 1.0000
69.4400 361.0000 1.0000
69.4500 385.0000 1.0000
69.4600 381.0000 1.0000
69.4700 364.0000 1.0000
69.4800 362.0000 1.0000
69.4900 360.0000 1.0000
69.5000 351.0000 1.0000
69.5100 362.0000 1.0000
69.5200 357.0000 1.0000
69.5300 363.0000 1.0000
69.5400 368.0000 1.0000
69.5500 380.0000 1.0000
69.5600 350.0000 1.0000
69.5700 327.0000 1.0000
69.5800 333.0000 1.0000
69.5900 372.0000 1.0000
69.6000 370.0000 1.0000
69.6100 340.0000 1.0000
69.6200 347.0000 1.0000
69.6300 354.0000 1.0000
69.6400 386.0000 1.0000
69.6500 370.0000 1.0000
69.6600 380.0000 1.0000
69.6700 369.0000 1.0000
69.6800 362.0000 1.0000
69.6900 359.0000 1.0000
69.7000 349.0000 1.0000
69.7100 406.0000 1.0000
69.7200 347.0000 1.0000
69.7300 351.0000 1.0000
69.7400 346.0000 1.0000
69.7500 346.0000 1.0000
69.7600 357.0000 1.0000
69.7700 331.0000 1.0000
69.7800 339.0000 1.0000
69.7900 337.0000 1.0000
69.8000 361.0000 1.0000
69.8100 381.0000 1.0000
69.8200 372.0000 1.0000
69.8300 355.0000 1.0000
69.8400 369.0000 1.0000
69.8500 328.0000 1.0000
69.8600 347.0000 1.0000
69.8700 337.0000 1.0000
69.8800 353.0000 1.0000
69.8900 337.0000 1.0000
69.9000 352.0000 1.0000
69.9100 321.0000 1.0000
69.9200 321.0000 1.0000
69.9300 346.0000 1.0000
69.9400 325.0000 1.0000
69.9500 342.0000 1.0000
69.9600 355.0000 1.0000
69.9700 353.0000 1.0000
69.9800 363.0000 1.0000
69.9900 355.0000 1.0000
70.0000 360.0000 1.0000
*RAS_INT_END
*RAS_TEMPERATURE_START
*RAS_TEMPERATURE_END
*RAS_DATA_END
