*RAS_DATA_START
*RAS_HEADER_START
*DISP_FMT_X "%.2f"
*DISP_FMT_Y "%.0f"
*DISP_FULLSCALE "14090.0000000000"
*DISP_LINE_COLOR "255.0000000000"
*DISP_LINE_STYLE "0.0000000000"
*DISP_LINE_WIDTH "0.2500000000"
*DISP_NOTE "測定データ-2"
*DISP_OFFSET_Y "0.0000000000"
*DISP_PEAKSEARCH_UNIT_Y "cps"
*DISP_RANGE_BOTTOM "0.0000000000"
*DISP_RANGE_LEFT "20.0000000000"
*DISP_RANGE_LOGCUTOFF "0.0100000000"
*DISP_RANGE_RIGHT "70.0000000000"
*DISP_RANGE_TOP "14090.0000000000"
*DISP_SCALE_MODE_Y "0.0000000000"
*DISP_TAB_NAME "2θ/θ"
*DISP_TITLE_Y "強度"
*DISP_UNIT_Y "cps"
*DISP_WINDOW_NAME "MSG_MACROENGINE"
*FILE_COMMENT " "
*FILE_MD5 ""
*FILE_MEMO " "
*FILE_OPERATOR "Administrator"
*FILE_SAMPLE " "
*FILE_TYPE "RAS_RAW"
*FILE_USERGROUP "システムマネージャ"
*FILE_VERSION "1.0000000000"
*HW_ATTACHMENT_ID "ATT0025"
*HW_ATTACHMENT_NAME "標準|Standard"
*HW_COUNTER_ID-0 "CUT0025"
*HW_COUNTER_ID-1 "CUT0020"
*HW_COUNTER_ID-2 "CUT0020"
*HW_COUNTER_ID-3 "CSL0021"
*HW_COUNTER_ID-4 "CMC0021"
*HW_COUNTER_NAME-0 "D/teX Ultra|D/teX Ultra"
*HW_COUNTER_NAME-1 "None|None"
*HW_COUNTER_NAME-2 "None|None"
*HW_COUNTER_NAME-3 "BBM|BBM"
*HW_COUNTER_NAME-4 "検出器モノクロメータ|Detector monochromator"
*HW_COUNTER_SELECT_NAME "D/teX Ultra|D/teX Ultra"
*HW_GONIOMETER_ID "GON0023"
*HW_GONIOMETER_NAME "SmartLab|SmartLab"
*HW_GONIOMETER_RADIUS-0 "90.0"
*HW_GONIOMETER_RADIUS-1 "114.0"
*HW_GONIOMETER_RADIUS-2 "190.0"
*HW_GONIOMETER_RADIUS-3 "300.0"
*HW_GONIOMETER_RADIUS-4 "187.0"
*HW_GONIOMETER_RADIUS-5 "300.0"
*HW_GONIOMETER_RADIUS-6 "113.0"
*HW_GONIOMETER_RADIUS-7 "331.0"
*HW_I_OPT_ID-0 "CBO0021"
*HW_I_OPT_ID-1 "ICR0023"
*HW_I_OPT_ID-2 "ISL0021"
*HW_I_OPT_ID-3 "ISO0021"
*HW_I_OPT_ID-4 "IAD0021"
*HW_I_OPT_ID-5 "IPR0001"
*HW_I_OPT_NAME-0 "CBOユニット|CBO unit"
*HW_I_OPT_NAME-1 "標準入射光学ユニット|Standard incident optical unit"
*HW_I_OPT_NAME-2 "標準入射スリットボックス|Standard incident slit box"
*HW_I_OPT_NAME-3 "入射平行スリット|Incident parallel slit"
*HW_I_OPT_NAME-4 "長手制限スリット|Length limiting slit"
*HW_I_OPT_NAME-5 "None|None"
*HW_R_ATTENUATER_AUTOMODE "0"
*HW_R_OPT_ID-0 "RSS0021"
*HW_R_OPT_ID-1 "RCR0023"
*HW_R_OPT_ID-2 "RSO0021"
*HW_R_OPT_ID-3 "RRS0021"
*HW_R_OPT_ID-4 "ATN0021"
*HW_R_OPT_ID-5 "RFL0021"
*HW_R_OPT_ID-6 "RAD0021"
*HW_R_OPT_NAME-0 "標準受光スリットボックス1|Standard receiving slit box # 1"
*HW_R_OPT_NAME-1 "標準受光光学ユニット1|Standard receiving unit # 1"
*HW_R_OPT_NAME-2 "標準受光光学ユニット2|Standard receiving optical unit # 2"
*HW_R_OPT_NAME-3 "標準受光スリットボックス2|Standard receiving slit box # 2"
*HW_R_OPT_NAME-4 "標準アッテネータ|Standard Attenuator"
*HW_R_OPT_NAME-5 "Cu Kβ|Cu K-beta"
*HW_R_OPT_NAME-6 "調整用受光スリット|Alignment receiving slit"
*HW_SAMPLE_HOLDER_ID "SMP0023"
*HW_SAMPLE_HOLDER_NAME "標準Zステージ|Standard Z stage"
*HW_XG_CURRENT_MAX "50"
*HW_XG_CURRENT_MIN "2"
*HW_XG_CURRENT_RESOLUTION "1"
*HW_XG_CURRENT_UNIT "mA"
*HW_XG_FOCUS "1mm x 10mm"
*HW_XG_FOCUS_TYPE "Normal"
*HW_XG_ID ""
*HW_XG_NAME "3kW 封入管(ID:1200)|3kW Sealed tube(ID:1200)"
*HW_XG_TARGET_ATOMIC_NUMBER "29.0000000000"
*HW_XG_TARGET_NAME "Cu"
*HW_XG_TYPE "Hermetic"
*HW_XG_VOLTAGE_MAX "60"
*HW_XG_VOLTAGE_MIN "20"
*HW_XG_VOLTAGE_RESOLUTION "1"
*HW_XG_VOLTAGE_UNIT "kV"
*HW_XG_WATT_MAX "1.500"
*HW_XG_WATT_UNIT "kW"
*HW_XG_WAVE_LENGTH_ALPHA1 "1.540593"
*HW_XG_WAVE_LENGTH_ALPHA2 "1.544414"
*HW_XG_WAVE_LENGTH_BETA "1.392250"
*MEAS_COND_AXIS_NAME-0 "2θ/θ"
*MEAS_COND_AXIS_NAME-1 "2θ"
*MEAS_COND_AXIS_NAME-2 "ω"
*MEAS_COND_AXIS_NAME-3 "Z"
*MEAS_COND_AXIS_NAME-4 "2θ/ω"
*MEAS_COND_AXIS_NAME-5 "θs"
*MEAS_COND_AXIS_NAME-6 "θd"
*MEAS_COND_AXIS_NAME-7 "Ts"
*MEAS_COND_AXIS_NAME-8 "CBO選択スリット"
*MEAS_COND_AXIS_NAME-9 "M"
*MEAS_COND_AXIS_NAME-10 "入射平行スリット"
*MEAS_COND_AXIS_NAME-11 "入射スリット"
*MEAS_COND_AXIS_NAME-12 ""
*MEAS_COND_AXIS_NAME-13 "Zs"
*MEAS_COND_AXIS_NAME-14 "入射光学素子"
*MEAS_COND_AXIS_NAME-15 "長手制限スリット"
*MEAS_COND_AXIS_NAME-16 "センタースリット"
*MEAS_COND_AXIS_NAME-17 "フィルター"
*MEAS_COND_AXIS_NAME-18 "受光スリット1"
*MEAS_COND_AXIS_NAME-19 "受光スリット2"
*MEAS_COND_AXIS_NAME-20 "受光光学素子"
*MEAS_COND_AXIS_NAME-21 "受光平行スリット"
*MEAS_COND_AXIS_NAME-22 "調整用受光スリット"
*MEAS_COND_AXIS_NAME-23 ""
*MEAS_COND_AXIS_NAME-24 ""
*MEAS_COND_AXIS_NAME-25 "Zd"
*MEAS_COND_AXIS_NAME-26 "アッテネータ"
*MEAS_COND_AXIS_NAME-27 "検出器モノクロメータ"
*MEAS_COND_AXIS_NAME-28 "モノクロメータスリット"
*MEAS_COND_AXIS_NAME-29 "プライマリビーム"
*MEAS_COND_AXIS_NAME-30 "PHA"
*MEAS_COND_AXIS_NAME_INTERNAL-0 "TwoThetaTheta"
*MEAS_COND_AXIS_NAME_INTERNAL-1 "TwoTheta"
*MEAS_COND_AXIS_NAME_INTERNAL-2 "Omega"
*MEAS_COND_AXIS_NAME_INTERNAL-3 "Z"
*MEAS_COND_AXIS_NAME_INTERNAL-4 "TwoThetaOmega"
*MEAS_COND_AXIS_NAME_INTERNAL-5 "ThetaS"
*MEAS_COND_AXIS_NAME_INTERNAL-6 "ThetaD"
*MEAS_COND_AXIS_NAME_INTERNAL-7 "Ts"
*MEAS_COND_AXIS_NAME_INTERNAL-8 "CBO"
*MEAS_COND_AXIS_NAME_INTERNAL-9 "CBO-M"
*MEAS_COND_AXIS_NAME_INTERNAL-10 "IncidentSollerSlit"
*MEAS_COND_AXIS_NAME_INTERNAL-11 "IncidentSlitBox"
*MEAS_COND_AXIS_NAME_INTERNAL-12 "IncidentSlitBox-_Axis"
*MEAS_COND_AXIS_NAME_INTERNAL-13 "Zs"
*MEAS_COND_AXIS_NAME_INTERNAL-14 "IncidentMonochromator"
*MEAS_COND_AXIS_NAME_INTERNAL-15 "IncidentAxdSlit"
*MEAS_COND_AXIS_NAME_INTERNAL-16 "CenterSlit"
*MEAS_COND_AXIS_NAME_INTERNAL-17 "Filter"
*MEAS_COND_AXIS_NAME_INTERNAL-18 "ReceivingSlitBox1"
*MEAS_COND_AXIS_NAME_INTERNAL-19 "ReceivingSlitBox2"
*MEAS_COND_AXIS_NAME_INTERNAL-20 "ReceivingOptics"
*MEAS_COND_AXIS_NAME_INTERNAL-21 "ReceivingSollerSlit"
*MEAS_COND_AXIS_NAME_INTERNAL-22 "ReceivingAxdSlit"
*MEAS_COND_AXIS_NAME_INTERNAL-23 "ReceivingSlitBox1-_Axis"
*MEAS_COND_AXIS_NAME_INTERNAL-24 "ReceivingSlitBox2-_Axis"
*MEAS_COND_AXIS_NAME_INTERNAL-25 "ReceivingSlitBox2-Zd"
*MEAS_COND_AXIS_NAME_INTERNAL-26 "Attenuator"
*MEAS_COND_AXIS_NAME_INTERNAL-27 "CounterMonochromator"
*MEAS_COND_AXIS_NAME_INTERNAL-28 "CounterSlit"
*MEAS_COND_AXIS_NAME_INTERNAL-29 "IncidentPrimary"
*MEAS_COND_AXIS_NAME_INTERNAL-30 "PHA"
*MEAS_COND_AXIS_NAME_MAGICNO-0 "83951616.0000000000"
*MEAS_COND_AXIS_NAME_MAGICNO-1 "268632064.0000000000"
*MEAS_COND_AXIS_NAME_MAGICNO-2 "268500992.0000000000"
*MEAS_COND_AXIS_NAME_MAGICNO-3 "285278208.0000000000"
*MEAS_COND_AXIS_NAME_MAGICNO-4 "83951616.0000000000"
*MEAS_COND_AXIS_NAME_MAGICNO-5 "131072.0000000000"
*MEAS_COND_AXIS_NAME_MAGICNO-6 "131072.0000000000"
*MEAS_COND_AXIS_NAME_MAGICNO-7 "318898176.0000000000"
*MEAS_COND_AXIS_NAME_MAGICNO-8 "20971521.0000000000"
*MEAS_COND_AXIS_NAME_MAGICNO-9 "285343744.0000000000"
*MEAS_COND_AXIS_NAME_MAGICNO-10 "20971521.0000000000"
*MEAS_COND_AXIS_NAME_MAGICNO-11 "22020097.0000000000"
*MEAS_COND_AXIS_NAME_MAGICNO-12 "25165824.0000000000"
*MEAS_COND_AXIS_NAME_MAGICNO-13 "318898176.0000000000"
*MEAS_COND_AXIS_NAME_MAGICNO-14 "1.0000000000"
*MEAS_COND_AXIS_NAME_MAGICNO-15 "20971521.0000000000"
*MEAS_COND_AXIS_NAME_MAGICNO-16 "20971521.0000000000"
*MEAS_COND_AXIS_NAME_MAGICNO-17 "20971521.0000000000"
*MEAS_COND_AXIS_NAME_MAGICNO-18 "23068673.0000000000"
*MEAS_COND_AXIS_NAME_MAGICNO-19 "23068673.0000000000"
*MEAS_COND_AXIS_NAME_MAGICNO-20 "20971521.0000000000"
*MEAS_COND_AXIS_NAME_MAGICNO-21 "20971521.0000000000"
*MEAS_COND_AXIS_NAME_MAGICNO-22 "20971521.0000000000"
*MEAS_COND_AXIS_NAME_MAGICNO-23 "25165824.0000000000"
*MEAS_COND_AXIS_NAME_MAGICNO-24 "25165824.0000000000"
*MEAS_COND_AXIS_NAME_MAGICNO-25 "285343744.0000000000"
*MEAS_COND_AXIS_NAME_MAGICNO-26 "17301505.0000000000"
*MEAS_COND_AXIS_NAME_MAGICNO-27 "20971521.0000000000"
*MEAS_COND_AXIS_NAME_MAGICNO-28 "20971521.0000000000"
*MEAS_COND_AXIS_NAME_MAGICNO-29 "20971521.0000000000"
*MEAS_COND_AXIS_NAME_MAGICNO-30 "0.0000000000"
*MEAS_COND_AXIS_OFFSET-0 "-"
*MEAS_COND_AXIS_OFFSET-1 "-0.1081000000"
*MEAS_COND_AXIS_OFFSET-2 "0.3758000000"
*MEAS_COND_AXIS_OFFSET-3 "-"
*MEAS_COND_AXIS_OFFSET-4 "-"
*MEAS_COND_AXIS_OFFSET-5 "0.3758000000"
*MEAS_COND_AXIS_OFFSET-6 "-0.4839000000"
*MEAS_COND_AXIS_OFFSET-7 "-"
*MEAS_COND_AXIS_OFFSET-8 "-"
*MEAS_COND_AXIS_OFFSET-9 "-"
*MEAS_COND_AXIS_OFFSET-10 "-"
*MEAS_COND_AXIS_OFFSET-11 "-"
*MEAS_COND_AXIS_OFFSET-12 "-"
*MEAS_COND_AXIS_OFFSET-13 "-"
*MEAS_COND_AXIS_OFFSET-14 "-"
*MEAS_COND_AXIS_OFFSET-15 "-"
*MEAS_COND_AXIS_OFFSET-16 "-"
*MEAS_COND_AXIS_OFFSET-17 "-"
*MEAS_COND_AXIS_OFFSET-18 "-"
*MEAS_COND_AXIS_OFFSET-19 "-"
*MEAS_COND_AXIS_OFFSET-20 "-"
*MEAS_COND_AXIS_OFFSET-21 "-"
*MEAS_COND_AXIS_OFFSET-22 "-"
*MEAS_COND_AXIS_OFFSET-23 "-"
*MEAS_COND_AXIS_OFFSET-24 "-"
*MEAS_COND_AXIS_OFFSET-25 "-"
*MEAS_COND_AXIS_OFFSET-26 "-"
*MEAS_COND_AXIS_OFFSET-27 "-"
*MEAS_COND_AXIS_OFFSET-28 "-"
*MEAS_COND_AXIS_OFFSET-29 "-"
*MEAS_COND_AXIS_OFFSET-30 "-"
*MEAS_COND_AXIS_POSITION-0 "0.0000000000"
*MEAS_COND_AXIS_POSITION-1 "0.0000000000"
*MEAS_COND_AXIS_POSITION-2 "0.0000000000"
*MEAS_COND_AXIS_POSITION-3 "-0.5500000000"
*MEAS_COND_AXIS_POSITION-4 "0.0000000000"
*MEAS_COND_AXIS_POSITION-5 "0.0000000000"
*MEAS_COND_AXIS_POSITION-6 "0.0000000000"
*MEAS_COND_AXIS_POSITION-7 "-0.4278800000"
*MEAS_COND_AXIS_POSITION-8 "BB"
*MEAS_COND_AXIS_POSITION-9 "0.0000000000"
*MEAS_COND_AXIS_POSITION-10 "Soller_slit_5.0deg"
*MEAS_COND_AXIS_POSITION-11 "2/3deg"
*MEAS_COND_AXIS_POSITION-12 "2.2088000000"
*MEAS_COND_AXIS_POSITION-13 "-0.4140600000"
*MEAS_COND_AXIS_POSITION-14 "0.0000000000"
*MEAS_COND_AXIS_POSITION-15 "10.0mm"
*MEAS_COND_AXIS_POSITION-16 "None"
*MEAS_COND_AXIS_POSITION-17 "Cu_K-beta"
*MEAS_COND_AXIS_POSITION-18 "13.000mm"
*MEAS_COND_AXIS_POSITION-19 "13.000mm"
*MEAS_COND_AXIS_POSITION-20 "No_unit"
*MEAS_COND_AXIS_POSITION-21 "Soller_slit_5.0deg"
*MEAS_COND_AXIS_POSITION-22 "None"
*MEAS_COND_AXIS_POSITION-23 "13.0000000000"
*MEAS_COND_AXIS_POSITION-24 "13.0000000000"
*MEAS_COND_AXIS_POSITION-25 "0.0109400000"
*MEAS_COND_AXIS_POSITION-26 "Open"
*MEAS_COND_AXIS_POSITION-27 "None"
*MEAS_COND_AXIS_POSITION-28 "None"
*MEAS_COND_AXIS_POSITION-29 "None"
*MEAS_COND_AXIS_POSITION-30 "38.0000000000"
*MEAS_COND_AXIS_UNIT-0 "deg"
*MEAS_COND_AXIS_UNIT-1 "deg"
*MEAS_COND_AXIS_UNIT-2 "deg"
*MEAS_COND_AXIS_UNIT-3 "mm"
*MEAS_COND_AXIS_UNIT-4 "deg"
*MEAS_COND_AXIS_UNIT-5 "deg"
*MEAS_COND_AXIS_UNIT-6 "deg"
*MEAS_COND_AXIS_UNIT-7 "mm"
*MEAS_COND_AXIS_UNIT-8 ""
*MEAS_COND_AXIS_UNIT-9 "pulse"
*MEAS_COND_AXIS_UNIT-10 ""
*MEAS_COND_AXIS_UNIT-11 ""
*MEAS_COND_AXIS_UNIT-12 "mm"
*MEAS_COND_AXIS_UNIT-13 "mm"
*MEAS_COND_AXIS_UNIT-14 ""
*MEAS_COND_AXIS_UNIT-15 ""
*MEAS_COND_AXIS_UNIT-16 ""
*MEAS_COND_AXIS_UNIT-17 ""
*MEAS_COND_AXIS_UNIT-18 ""
*MEAS_COND_AXIS_UNIT-19 ""
*MEAS_COND_AXIS_UNIT-20 ""
*MEAS_COND_AXIS_UNIT-21 ""
*MEAS_COND_AXIS_UNIT-22 ""
*MEAS_COND_AXIS_UNIT-23 "mm"
*MEAS_COND_AXIS_UNIT-24 "mm"
*MEAS_COND_AXIS_UNIT-25 "mm"
*MEAS_COND_AXIS_UNIT-26 ""
*MEAS_COND_AXIS_UNIT-27 ""
*MEAS_COND_AXIS_UNIT-28 ""
*MEAS_COND_AXIS_UNIT-29 ""
*MEAS_COND_AXIS_UNIT-30 "div"
*MEAS_COND_COUNTER_CNTLOSS_CORR "0.0000000000"
*MEAS_COND_COUNTER_PHABASE "38.0000000000"
*MEAS_COND_COUNTER_PHAWINDOW "16.0000000000"
*MEAS_COND_COUNTER_PHA_UNIT "div"
*MEAS_COND_COUNTER_TAUDIFF "30.0000000000"
*MEAS_COND_COUNTER_TAUINT "0.0000000000"
*MEAS_COND_IRRADIATION_MODE "OFF"
*MEAS_COND_IRRADIATION_WIDTH ""
*MEAS_COND_OPT_ATTR "集中法"
*MEAS_COND_OPT_NAME "@集中法"
*MEAS_COND_UNSYMMETRIC_MODE "OFF"
*MEAS_COND_XG_CURRENT "30.0000000000"
*MEAS_COND_XG_VOLTAGE "40.0000000000"
*MEAS_COND_XG_WAVE_TYPE "Ka"
*MEAS_DATA_COUNT "5001.0000000000"
*MEAS_SCAN_AXIS_X "2θ/θ"
*MEAS_SCAN_AXIS_X_INTERNAL "TwoThetaTheta"
*MEAS_SCAN_END_TIME "07/21/21 16:26:07"
*MEAS_SCAN_MODE "CONTINUOUS"
*MEAS_SCAN_MONITOR "0"
*MEAS_SCAN_RESOLUTION_X "0.0002"
*MEAS_SCAN_SPEED "2.5"
*MEAS_SCAN_SPEED_UNIT "deg/min"
*MEAS_SCAN_START "20.0000000000"
*MEAS_SCAN_START_TIME "07/21/21 16:04:43"
*MEAS_SCAN_STEP "0.0100000000"
*MEAS_SCAN_STOP "70.0000000000"
*MEAS_SCAN_UNIT_X "deg"
*MEAS_SCAN_UNIT_Y "counts"
*RAS_HEADER_END
*RAS_INT_START
20.0000 557.0000 1.0000
20.0100 568.0000 1.0000
20.0200 597.0000 1.0000
20.0300 640.0000 1.0000
20.0400 607.0000 1.0000
20.0500 572.0000 1.0000
20.0600 614.0000 1.0000
20.0700 590.0000 1.0000
20.0800 599.0000 1.0000
20.0900 594.0000 1.0000
20.1000 578.0000 1.0000
20.1100 597.0000 1.0000
20.1200 614.0000 1.0000
20.1300 618.0000 1.0000
20.1400 603.0000 1.0000
20.1500 599.0000 1.0000
20.1600 586.0000 1.0000
20.1700 629.0000 1.0000
20.1800 620.0000 1.0000
20.1900 612.0000 1.0000
20.2000 632.0000 1.0000
20.2100 670.0000 1.0000
20.2200 627.0000 1.0000
20.2300 623.0000 1.0000
20.2400 626.0000 1.0000
20.2500 612.0000 1.0000
20.2600 628.0000 1.0000
20.2700 616.0000 1.0000
20.2800 585.0000 1.0000
20.2900 578.0000 1.0000
20.3000 560.0000 1.0000
20.3100 575.0000 1.0000
20.3200 584.0000 1.0000
20.3300 574.0000 1.0000
20.3400 596.0000 1.0000
20.3500 586.0000 1.0000
20.3600 613.0000 1.0000
20.3700 640.0000 1.0000
20.3800 651.0000 1.0000
20.3900 631.0000 1.0000
20.4000 593.0000 1.0000
20.4100 600.0000 1.0000
20.4200 582.0000 1.0000
20.4300 585.0000 1.0000
20.4400 602.0000 1.0000
20.4500 631.0000 1.0000
20.4600 575.0000 1.0000
20.4700 594.0000 1.0000
20.4800 553.0000 1.0000
20.4900 591.0000 1.0000
20.5000 632.0000 1.0000
20.5100 620.0000 1.0000
20.5200 610.0000 1.0000
20.5300 630.0000 1.0000
20.5400 654.0000 1.0000
20.5500 622.0000 1.0000
20.5600 596.0000 1.0000
20.5700 563.0000 1.0000
20.5800 605.0000 1.0000
20.5900 615.0000 1.0000
20.6000 627.0000 1.0000
20.6100 609.0000 1.0000
20.6200 622.0000 1.0000
20.6300 616.0000 1.0000
20.6400 606.0000 1.0000
20.6500 608.0000 1.0000
20.6600 650.0000 1.0000
20.6700 621.0000 1.0000
20.6800 612.0000 1.0000
20.6900 611.0000 1.0000
20.7000 590.0000 1.0000
20.7100 604.0000 1.0000
20.7200 627.0000 1.0000
20.7300 600.0000 1.0000
20.7400 645.0000 1.0000
20.7500 653.0000 1.0000
20.7600 612.0000 1.0000
20.7700 608.0000 1.0000
20.7800 643.0000 1.0000
20.7900 633.0000 1.0000
20.8000 654.0000 1.0000
20.8100 631.0000 1.0000
20.8200 614.0000 1.0000
20.8300 603.0000 1.0000
20.8400 613.0000 1.0000
20.8500 601.0000 1.0000
20.8600 560.0000 1.0000
20.8700 595.0000 1.0000
20.8800 612.0000 1.0000
20.8900 582.0000 1.0000
20.9000 629.0000 1.0000
20.9100 616.0000 1.0000
20.9200 627.0000 1.0000
20.9300 605.0000 1.0000
20.9400 594.0000 1.0000
20.9500 568.0000 1.0000
20.9600 615.0000 1.0000
20.9700 626.0000 1.0000
20.9800 623.0000 1.0000
20.9900 609.0000 1.0000
21.0000 597.0000 1.0000
21.0100 596.0000 1.0000
21.0200 609.0000 1.0000
21.0300 613.0000 1.0000
21.0400 617.0000 1.0000
21.0500 609.0000 1.0000
21.0600 600.0000 1.0000
21.0700 599.0000 1.0000
21.0800 631.0000 1.0000
21.0900 615.0000 1.0000
21.1000 579.0000 1.0000
21.1100 608.0000 1.0000
21.1200 607.0000 1.0000
21.1300 623.0000 1.0000
21.1400 560.0000 1.0000
21.1500 592.0000 1.0000
21.1600 629.0000 1.0000
21.1700 593.0000 1.0000
21.1800 614.0000 1.0000
21.1900 587.0000 1.0000
21.2000 606.0000 1.0000
21.2100 612.0000 1.0000
21.2200 612.0000 1.0000
21.2300 638.0000 1.0000
21.2400 600.0000 1.0000
21.2500 627.0000 1.0000
21.2600 617.0000 1.0000
21.2700 619.0000 1.0000
21.2800 626.0000 1.0000
21.2900 626.0000 1.0000
21.3000 606.0000 1.0000
21.3100 637.0000 1.0000
21.3200 641.0000 1.0000
21.3300 609.0000 1.0000
21.3400 607.0000 1.0000
21.3500 612.0000 1.0000
21.3600 615.0000 1.0000
21.3700 575.0000 1.0000
21.3800 626.0000 1.0000
21.3900 615.0000 1.0000
21.4000 612.0000 1.0000
21.4100 583.0000 1.0000
21.4200 577.0000 1.0000
21.4300 602.0000 1.0000
21.4400 615.0000 1.0000
21.4500 636.0000 1.0000
21.4600 648.0000 1.0000
21.4700 648.0000 1.0000
21.4800 595.0000 1.0000
21.4900 619.0000 1.0000
21.5000 605.0000 1.0000
21.5100 621.0000 1.0000
21.5200 654.0000 1.0000
21.5300 651.0000 1.0000
21.5400 595.0000 1.0000
21.5500 615.0000 1.0000
21.5600 644.0000 1.0000
21.5700 600.0000 1.0000
21.5800 610.0000 1.0000
21.5900 655.0000 1.0000
21.6000 576.0000 1.0000
21.6100 588.0000 1.0000
21.6200 592.0000 1.0000
21.6300 621.0000 1.0000
21.6400 597.0000 1.0000
21.6500 578.0000 1.0000
21.6600 632.0000 1.0000
21.6700 631.0000 1.0000
21.6800 595.0000 1.0000
21.6900 648.0000 1.0000
21.7000 602.0000 1.0000
21.7100 654.0000 1.0000
21.7200 629.0000 1.0000
21.7300 615.0000 1.0000
21.7400 593.0000 1.0000
21.7500 586.0000 1.0000
21.7600 619.0000 1.0000
21.7700 616.0000 1.0000
21.7800 597.0000 1.0000
21.7900 609.0000 1.0000
21.8000 613.0000 1.0000
21.8100 633.0000 1.0000
21.8200 655.0000 1.0000
21.8300 633.0000 1.0000
21.8400 618.0000 1.0000
21.8500 601.0000 1.0000
21.8600 647.0000 1.0000
21.8700 631.0000 1.0000
21.8800 601.0000 1.0000
21.8900 640.0000 1.0000
21.9000 604.0000 1.0000
21.9100 639.0000 1.0000
21.9200 620.0000 1.0000
21.9300 611.0000 1.0000
21.9400 613.0000 1.0000
21.9500 633.0000 1.0000
21.9600 589.0000 1.0000
21.9700 593.0000 1.0000
21.9800 621.0000 1.0000
21.9900 599.0000 1.0000
22.0000 612.0000 1.0000
22.0100 627.0000 1.0000
22.0200 590.0000 1.0000
22.0300 620.0000 1.0000
22.0400 623.0000 1.0000
22.0500 635.0000 1.0000
22.0600 624.0000 1.0000
22.0700 590.0000 1.0000
22.0800 627.0000 1.0000
22.0900 641.0000 1.0000
22.1000 613.0000 1.0000
22.1100 630.0000 1.0000
22.1200 608.0000 1.0000
22.1300 612.0000 1.0000
22.1400 628.0000 1.0000
22.1500 594.0000 1.0000
22.1600 603.0000 1.0000
22.1700 647.0000 1.0000
22.1800 618.0000 1.0000
22.1900 621.0000 1.0000
22.2000 651.0000 1.0000
22.2100 620.0000 1.0000
22.2200 620.0000 1.0000
22.2300 639.0000 1.0000
22.2400 606.0000 1.0000
22.2500 651.0000 1.0000
22.2600 622.0000 1.0000
22.2700 622.0000 1.0000
22.2800 616.0000 1.0000
22.2900 638.0000 1.0000
22.3000 630.0000 1.0000
22.3100 651.0000 1.0000
22.3200 627.0000 1.0000
22.3300 616.0000 1.0000
22.3400 611.0000 1.0000
22.3500 659.0000 1.0000
22.3600 653.0000 1.0000
22.3700 598.0000 1.0000
22.3800 611.0000 1.0000
22.3900 650.0000 1.0000
22.4000 616.0000 1.0000
22.4100 660.0000 1.0000
22.4200 621.0000 1.0000
22.4300 658.0000 1.0000
22.4400 647.0000 1.0000
22.4500 636.0000 1.0000
22.4600 608.0000 1.0000
22.4700 606.0000 1.0000
22.4800 628.0000 1.0000
22.4900 605.0000 1.0000
22.5000 642.0000 1.0000
22.5100 642.0000 1.0000
22.5200 623.0000 1.0000
22.5300 626.0000 1.0000
22.5400 645.0000 1.0000
22.5500 627.0000 1.0000
22.5600 664.0000 1.0000
22.5700 631.0000 1.0000
22.5800 598.0000 1.0000
22.5900 596.0000 1.0000
22.6000 633.0000 1.0000
22.6100 594.0000 1.0000
22.6200 586.0000 1.0000
22.6300 610.0000 1.0000
22.6400 617.0000 1.0000
22.6500 608.0000 1.0000
22.6600 637.0000 1.0000
22.6700 603.0000 1.0000
22.6800 648.0000 1.0000
22.6900 636.0000 1.0000
22.7000 614.0000 1.0000
22.7100 642.0000 1.0000
22.7200 636.0000 1.0000
22.7300 650.0000 1.0000
22.7400 643.0000 1.0000
22.7500 659.0000 1.0000
22.7600 645.0000 1.0000
22.7700 593.0000 1.0000
22.7800 622.0000 1.0000
22.7900 612.0000 1.0000
22.8000 586.0000 1.0000
22.8100 603.0000 1.0000
22.8200 605.0000 1.0000
22.8300 616.0000 1.0000
22.8400 661.0000 1.0000
22.8500 612.0000 1.0000
22.8600 617.0000 1.0000
22.8700 587.0000 1.0000
22.8800 587.0000 1.0000
22.8900 629.0000 1.0000
22.9000 613.0000 1.0000
22.9100 626.0000 1.0000
22.9200 645.0000 1.0000
22.9300 637.0000 1.0000
22.9400 683.0000 1.0000
22.9500 644.0000 1.0000
22.9600 641.0000 1.0000
22.9700 633.0000 1.0000
22.9800 639.0000 1.0000
22.9900 629.0000 1.0000
23.0000 563.0000 1.0000
23.0100 617.0000 1.0000
23.0200 620.0000 1.0000
23.0300 589.0000 1.0000
23.0400 596.0000 1.0000
23.0500 631.0000 1.0000
23.0600 635.0000 1.0000
23.0700 607.0000 1.0000
23.0800 592.0000 1.0000
23.0900 635.0000 1.0000
23.1000 618.0000 1.0000
23.1100 592.0000 1.0000
23.1200 663.0000 1.0000
23.1300 649.0000 1.0000
23.1400 605.0000 1.0000
23.1500 618.0000 1.0000
23.1600 621.0000 1.0000
23.1700 603.0000 1.0000
23.1800 650.0000 1.0000
23.1900 621.0000 1.0000
23.2000 606.0000 1.0000
23.2100 647.0000 1.0000
23.2200 626.0000 1.0000
23.2300 629.0000 1.0000
23.2400 589.0000 1.0000
23.2500 625.0000 1.0000
23.2600 644.0000 1.0000
23.2700 641.0000 1.0000
23.2800 655.0000 1.0000
23.2900 645.0000 1.0000
23.3000 615.0000 1.0000
23.3100 632.0000 1.0000
23.3200 633.0000 1.0000
23.3300 621.0000 1.0000
23.3400 628.0000 1.0000
23.3500 654.0000 1.0000
23.3600 649.0000 1.0000
23.3700 618.0000 1.0000
23.3800 659.0000 1.0000
23.3900 638.0000 1.0000
23.4000 632.0000 1.0000
23.4100 594.0000 1.0000
23.4200 575.0000 1.0000
23.4300 582.0000 1.0000
23.4400 627.0000 1.0000
23.4500 638.0000 1.0000
23.4600 646.0000 1.0000
23.4700 658.0000 1.0000
23.4800 610.0000 1.0000
23.4900 633.0000 1.0000
23.5000 624.0000 1.0000
23.5100 640.0000 1.0000
23.5200 662.0000 1.0000
23.5300 629.0000 1.0000
23.5400 630.0000 1.0000
23.5500 617.0000 1.0000
23.5600 636.0000 1.0000
23.5700 645.0000 1.0000
23.5800 627.0000 1.0000
23.5900 655.0000 1.0000
23.6000 683.0000 1.0000
23.6100 658.0000 1.0000
23.6200 664.0000 1.0000
23.6300 629.0000 1.0000
23.6400 650.0000 1.0000
23.6500 614.0000 1.0000
23.6600 621.0000 1.0000
23.6700 612.0000 1.0000
23.6800 645.0000 1.0000
23.6900 634.0000 1.0000
23.7000 597.0000 1.0000
23.7100 617.0000 1.0000
23.7200 598.0000 1.0000
23.7300 644.0000 1.0000
23.7400 618.0000 1.0000
23.7500 646.0000 1.0000
23.7600 600.0000 1.0000
23.7700 628.0000 1.0000
23.7800 618.0000 1.0000
23.7900 617.0000 1.0000
23.8000 605.0000 1.0000
23.8100 610.0000 1.0000
23.8200 623.0000 1.0000
23.8300 651.0000 1.0000
23.8400 656.0000 1.0000
23.8500 618.0000 1.0000
23.8600 634.0000 1.0000
23.8700 630.0000 1.0000
23.8800 645.0000 1.0000
23.8900 657.0000 1.0000
23.9000 633.0000 1.0000
23.9100 629.0000 1.0000
23.9200 610.0000 1.0000
23.9300 657.0000 1.0000
23.9400 643.0000 1.0000
23.9500 614.0000 1.0000
23.9600 620.0000 1.0000
23.9700 676.0000 1.0000
23.9800 629.0000 1.0000
23.9900 661.0000 1.0000
24.0000 622.0000 1.0000
24.0100 644.0000 1.0000
24.0200 632.0000 1.0000
24.0300 689.0000 1.0000
24.0400 679.0000 1.0000
24.0500 638.0000 1.0000
24.0600 559.0000 1.0000
24.0700 603.0000 1.0000
24.0800 620.0000 1.0000
24.0900 638.0000 1.0000
24.1000 673.0000 1.0000
24.1100 634.0000 1.0000
24.1200 630.0000 1.0000
24.1300 641.0000 1.0000
24.1400 646.0000 1.0000
24.1500 635.0000 1.0000
24.1600 652.0000 1.0000
24.1700 630.0000 1.0000
24.1800 625.0000 1.0000
24.1900 595.0000 1.0000
24.2000 674.0000 1.0000
24.2100 656.0000 1.0000
24.2200 620.0000 1.0000
24.2300 656.0000 1.0000
24.2400 636.0000 1.0000
24.2500 632.0000 1.0000
24.2600 614.0000 1.0000
24.2700 634.0000 1.0000
24.2800 677.0000 1.0000
24.2900 608.0000 1.0000
24.3000 629.0000 1.0000
24.3100 625.0000 1.0000
24.3200 630.0000 1.0000
24.3300 647.0000 1.0000
24.3400 660.0000 1.0000
24.3500 648.0000 1.0000
24.3600 640.0000 1.0000
24.3700 648.0000 1.0000
24.3800 636.0000 1.0000
24.3900 624.0000 1.0000
24.4000 602.0000 1.0000
24.4100 614.0000 1.0000
24.4200 604.0000 1.0000
24.4300 648.0000 1.0000
24.4400 666.0000 1.0000
24.4500 650.0000 1.0000
24.4600 686.0000 1.0000
24.4700 687.0000 1.0000
24.4800 658.0000 1.0000
24.4900 618.0000 1.0000
24.5000 639.0000 1.0000
24.5100 628.0000 1.0000
24.5200 659.0000 1.0000
24.5300 655.0000 1.0000
24.5400 641.0000 1.0000
24.5500 678.0000 1.0000
24.5600 622.0000 1.0000
24.5700 644.0000 1.0000
24.5800 628.0000 1.0000
24.5900 640.0000 1.0000
24.6000 677.0000 1.0000
24.6100 664.0000 1.0000
24.6200 695.0000 1.0000
24.6300 638.0000 1.0000
24.6400 645.0000 1.0000
24.6500 628.0000 1.0000
24.6600 671.0000 1.0000
24.6700 667.0000 1.0000
24.6800 643.0000 1.0000
24.6900 626.0000 1.0000
24.7000 658.0000 1.0000
24.7100 648.0000 1.0000
24.7200 671.0000 1.0000
24.7300 682.0000 1.0000
24.7400 670.0000 1.0000
24.7500 663.0000 1.0000
24.7600 630.0000 1.0000
24.7700 678.0000 1.0000
24.7800 667.0000 1.0000
24.7900 666.0000 1.0000
24.8000 652.0000 1.0000
24.8100 649.0000 1.0000
24.8200 700.0000 1.0000
24.8300 665.0000 1.0000
24.8400 666.0000 1.0000
24.8500 637.0000 1.0000
24.8600 630.0000 1.0000
24.8700 628.0000 1.0000
24.8800 708.0000 1.0000
24.8900 595.0000 1.0000
24.9000 689.0000 1.0000
24.9100 679.0000 1.0000
24.9200 642.0000 1.0000
24.9300 620.0000 1.0000
24.9400 678.0000 1.0000
24.9500 654.0000 1.0000
24.9600 679.0000 1.0000
24.9700 667.0000 1.0000
24.9800 631.0000 1.0000
24.9900 686.0000 1.0000
25.0000 666.0000 1.0000
25.0100 691.0000 1.0000
25.0200 668.0000 1.0000
25.0300 671.0000 1.0000
25.0400 643.0000 1.0000
25.0500 682.0000 1.0000
25.0600 663.0000 1.0000
25.0700 667.0000 1.0000
25.0800 663.0000 1.0000
25.0900 703.0000 1.0000
25.1000 669.0000 1.0000
25.1100 668.0000 1.0000
25.1200 667.0000 1.0000
25.1300 644.0000 1.0000
25.1400 656.0000 1.0000
25.1500 676.0000 1.0000
25.1600 687.0000 1.0000
25.1700 694.0000 1.0000
25.1800 691.0000 1.0000
25.1900 679.0000 1.0000
25.2000 663.0000 1.0000
25.2100 682.0000 1.0000
25.2200 696.0000 1.0000
25.2300 655.0000 1.0000
25.2400 656.0000 1.0000
25.2500 707.0000 1.0000
25.2600 676.0000 1.0000
25.2700 673.0000 1.0000
25.2800 711.0000 1.0000
25.2900 697.0000 1.0000
25.3000 644.0000 1.0000
25.3100 668.0000 1.0000
25.3200 651.0000 1.0000
25.3300 677.0000 1.0000
25.3400 680.0000 1.0000
25.3500 681.0000 1.0000
25.3600 677.0000 1.0000
25.3700 686.0000 1.0000
25.3800 668.0000 1.0000
25.3900 665.0000 1.0000
25.4000 697.0000 1.0000
25.4100 654.0000 1.0000
25.4200 690.0000 1.0000
25.4300 650.0000 1.0000
25.4400 646.0000 1.0000
25.4500 682.0000 1.0000
25.4600 674.0000 1.0000
25.4700 661.0000 1.0000
25.4800 657.0000 1.0000
25.4900 664.0000 1.0000
25.5000 650.0000 1.0000
25.5100 659.0000 1.0000
25.5200 644.0000 1.0000
25.5300 655.0000 1.0000
25.5400 655.0000 1.0000
25.5500 611.0000 1.0000
25.5600 633.0000 1.0000
25.5700 635.0000 1.0000
25.5800 666.0000 1.0000
25.5900 702.0000 1.0000
25.6000 634.0000 1.0000
25.6100 678.0000 1.0000
25.6200 633.0000 1.0000
25.6300 640.0000 1.0000
25.6400 640.0000 1.0000
25.6500 617.0000 1.0000
25.6600 640.0000 1.0000
25.6700 666.0000 1.0000
25.6800 645.0000 1.0000
25.6900 635.0000 1.0000
25.7000 656.0000 1.0000
25.7100 660.0000 1.0000
25.7200 647.0000 1.0000
25.7300 678.0000 1.0000
25.7400 670.0000 1.0000
25.7500 644.0000 1.0000
25.7600 644.0000 1.0000
25.7700 677.0000 1.0000
25.7800 690.0000 1.0000
25.7900 603.0000 1.0000
25.8000 642.0000 1.0000
25.8100 688.0000 1.0000
25.8200 654.0000 1.0000
25.8300 652.0000 1.0000
25.8400 701.0000 1.0000
25.8500 688.0000 1.0000
25.8600 685.0000 1.0000
25.8700 651.0000 1.0000
25.8800 651.0000 1.0000
25.8900 648.0000 1.0000
25.9000 655.0000 1.0000
25.9100 672.0000 1.0000
25.9200 660.0000 1.0000
25.9300 642.0000 1.0000
25.9400 659.0000 1.0000
25.9500 639.0000 1.0000
25.9600 681.0000 1.0000
25.9700 702.0000 1.0000
25.9800 687.0000 1.0000
25.9900 663.0000 1.0000
26.0000 681.0000 1.0000
26.0100 648.0000 1.0000
26.0200 669.0000 1.0000
26.0300 672.0000 1.0000
26.0400 696.0000 1.0000
26.0500 651.0000 1.0000
26.0600 617.0000 1.0000
26.0700 672.0000 1.0000
26.0800 669.0000 1.0000
26.0900 660.0000 1.0000
26.1000 694.0000 1.0000
26.1100 709.0000 1.0000
26.1200 626.0000 1.0000
26.1300 673.0000 1.0000
26.1400 671.0000 1.0000
26.1500 645.0000 1.0000
26.1600 675.0000 1.0000
26.1700 679.0000 1.0000
26.1800 618.0000 1.0000
26.1900 636.0000 1.0000
26.2000 651.0000 1.0000
26.2100 662.0000 1.0000
26.2200 655.0000 1.0000
26.2300 650.0000 1.0000
26.2400 622.0000 1.0000
26.2500 616.0000 1.0000
26.2600 639.0000 1.0000
26.2700 683.0000 1.0000
26.2800 735.0000 1.0000
26.2900 684.0000 1.0000
26.3000 672.0000 1.0000
26.3100 678.0000 1.0000
26.3200 638.0000 1.0000
26.3300 673.0000 1.0000
26.3400 700.0000 1.0000
26.3500 670.0000 1.0000
26.3600 683.0000 1.0000
26.3700 679.0000 1.0000
26.3800 652.0000 1.0000
26.3900 698.0000 1.0000
26.4000 698.0000 1.0000
26.4100 707.0000 1.0000
26.4200 685.0000 1.0000
26.4300 684.0000 1.0000
26.4400 680.0000 1.0000
26.4500 731.0000 1.0000
26.4600 657.0000 1.0000
26.4700 661.0000 1.0000
26.4800 688.0000 1.0000
26.4900 642.0000 1.0000
26.5000 659.0000 1.0000
26.5100 710.0000 1.0000
26.5200 725.0000 1.0000
26.5300 679.0000 1.0000
26.5400 732.0000 1.0000
26.5500 723.0000 1.0000
26.5600 679.0000 1.0000
26.5700 711.0000 1.0000
26.5800 749.0000 1.0000
26.5900 719.0000 1.0000
26.6000 695.0000 1.0000
26.6100 702.0000 1.0000
26.6200 749.0000 1.0000
26.6300 687.0000 1.0000
26.6400 689.0000 1.0000
26.6500 669.0000 1.0000
26.6600 737.0000 1.0000
26.6700 710.0000 1.0000
26.6800 727.0000 1.0000
26.6900 707.0000 1.0000
26.7000 731.0000 1.0000
26.7100 717.0000 1.0000
26.7200 700.0000 1.0000
26.7300 680.0000 1.0000
26.7400 707.0000 1.0000
26.7500 699.0000 1.0000
26.7600 712.0000 1.0000
26.7700 716.0000 1.0000
26.7800 734.0000 1.0000
26.7900 725.0000 1.0000
26.8000 753.0000 1.0000
26.8100 755.0000 1.0000
26.8200 733.0000 1.0000
26.8300 724.0000 1.0000
26.8400 708.0000 1.0000
26.8500 714.0000 1.0000
26.8600 768.0000 1.0000
26.8700 777.0000 1.0000
26.8800 752.0000 1.0000
26.8900 812.0000 1.0000
26.9000 764.0000 1.0000
26.9100 751.0000 1.0000
26.9200 790.0000 1.0000
26.9300 800.0000 1.0000
26.9400 816.0000 1.0000
26.9500 882.0000 1.0000
26.9600 845.0000 1.0000
26.9700 849.0000 1.0000
26.9800 914.0000 1.0000
26.9900 895.0000 1.0000
27.0000 899.0000 1.0000
27.0100 951.0000 1.0000
27.0200 968.0000 1.0000
27.0300 967.0000 1.0000
27.0400 1026.0000 1.0000
27.0500 1013.0000 1.0000
27.0600 1027.0000 1.0000
27.0700 1110.0000 1.0000
27.0800 1100.0000 1.0000
27.0900 1206.0000 1.0000
27.1000 1181.0000 1.0000
27.1100 1302.0000 1.0000
27.1200 1289.0000 1.0000
27.1300 1304.0000 1.0000
27.1400 1335.0000 1.0000
27.1500 1443.0000 1.0000
27.1600 1568.0000 1.0000
27.1700 1537.0000 1.0000
27.1800 1683.0000 1.0000
27.1900 1803.0000 1.0000
27.2000 1935.0000 1.0000
27.2100 1994.0000 1.0000
27.2200 2097.0000 1.0000
27.2300 2236.0000 1.0000
27.2400 2421.0000 1.0000
27.2500 2506.0000 1.0000
27.2600 2520.0000 1.0000
27.2700 2633.0000 1.0000
27.2800 2673.0000 1.0000
27.2900 2789.0000 1.0000
27.3000 2789.0000 1.0000
27.3100 2818.0000 1.0000
27.3200 2657.0000 1.0000
27.3300 2682.0000 1.0000
27.3400 2573.0000 1.0000
27.3500 2439.0000 1.0000
27.3600 2386.0000 1.0000
27.3700 2250.0000 1.0000
27.3800 2138.0000 1.0000
27.3900 2024.0000 1.0000
27.4000 1937.0000 1.0000
27.4100 1839.0000 1.0000
27.4200 1649.0000 1.0000
27.4300 1604.0000 1.0000
27.4400 1543.0000 1.0000
27.4500 1470.0000 1.0000
27.4600 1401.0000 1.0000
27.4700 1286.0000 1.0000
27.4800 1211.0000 1.0000
27.4900 1191.0000 1.0000
27.5000 1134.0000 1.0000
27.5100 1132.0000 1.0000
27.5200 1091.0000 1.0000
27.5300 1053.0000 1.0000
27.5400 1063.0000 1.0000
27.5500 1052.0000 1.0000
27.5600 1023.0000 1.0000
27.5700 936.0000 1.0000
27.5800 962.0000 1.0000
27.5900 943.0000 1.0000
27.6000 911.0000 1.0000
27.6100 882.0000 1.0000
27.6200 855.0000 1.0000
27.6300 855.0000 1.0000
27.6400 852.0000 1.0000
27.6500 830.0000 1.0000
27.6600 783.0000 1.0000
27.6700 857.0000 1.0000
27.6800 808.0000 1.0000
27.6900 844.0000 1.0000
27.7000 827.0000 1.0000
27.7100 815.0000 1.0000
27.7200 749.0000 1.0000
27.7300 744.0000 1.0000
27.7400 780.0000 1.0000
27.7500 769.0000 1.0000
27.7600 732.0000 1.0000
27.7700 736.0000 1.0000
27.7800 728.0000 1.0000
27.7900 772.0000 1.0000
27.8000 705.0000 1.0000
27.8100 768.0000 1.0000
27.8200 719.0000 1.0000
27.8300 709.0000 1.0000
27.8400 755.0000 1.0000
27.8500 707.0000 1.0000
27.8600 695.0000 1.0000
27.8700 655.0000 1.0000
27.8800 717.0000 1.0000
27.8900 746.0000 1.0000
27.9000 709.0000 1.0000
27.9100 705.0000 1.0000
27.9200 692.0000 1.0000
27.9300 719.0000 1.0000
27.9400 744.0000 1.0000
27.9500 709.0000 1.0000
27.9600 691.0000 1.0000
27.9700 674.0000 1.0000
27.9800 676.0000 1.0000
27.9900 665.0000 1.0000
28.0000 662.0000 1.0000
28.0100 693.0000 1.0000
28.0200 727.0000 1.0000
28.0300 697.0000 1.0000
28.0400 668.0000 1.0000
28.0500 694.0000 1.0000
28.0600 678.0000 1.0000
28.0700 698.0000 1.0000
28.0800 697.0000 1.0000
28.0900 626.0000 1.0000
28.1000 673.0000 1.0000
28.1100 702.0000 1.0000
28.1200 662.0000 1.0000
28.1300 616.0000 1.0000
28.1400 690.0000 1.0000
28.1500 707.0000 1.0000
28.1600 664.0000 1.0000
28.1700 676.0000 1.0000
28.1800 686.0000 1.0000
28.1900 638.0000 1.0000
28.2000 644.0000 1.0000
28.2100 647.0000 1.0000
28.2200 637.0000 1.0000
28.2300 668.0000 1.0000
28.2400 643.0000 1.0000
28.2500 656.0000 1.0000
28.2600 648.0000 1.0000
28.2700 681.0000 1.0000
28.2800 683.0000 1.0000
28.2900 658.0000 1.0000
28.3000 678.0000 1.0000
28.3100 619.0000 1.0000
28.3200 651.0000 1.0000
28.3300 651.0000 1.0000
28.3400 654.0000 1.0000
28.3500 624.0000 1.0000
28.3600 643.0000 1.0000
28.3700 605.0000 1.0000
28.3800 660.0000 1.0000
28.3900 644.0000 1.0000
28.4000 618.0000 1.0000
28.4100 665.0000 1.0000
28.4200 644.0000 1.0000
28.4300 619.0000 1.0000
28.4400 644.0000 1.0000
28.4500 687.0000 1.0000
28.4600 652.0000 1.0000
28.4700 617.0000 1.0000
28.4800 627.0000 1.0000
28.4900 672.0000 1.0000
28.5000 652.0000 1.0000
28.5100 633.0000 1.0000
28.5200 642.0000 1.0000
28.5300 581.0000 1.0000
28.5400 629.0000 1.0000
28.5500 650.0000 1.0000
28.5600 664.0000 1.0000
28.5700 654.0000 1.0000
28.5800 629.0000 1.0000
28.5900 642.0000 1.0000
28.6000 628.0000 1.0000
28.6100 671.0000 1.0000
28.6200 617.0000 1.0000
28.6300 614.0000 1.0000
28.6400 635.0000 1.0000
28.6500 655.0000 1.0000
28.6600 671.0000 1.0000
28.6700 652.0000 1.0000
28.6800 608.0000 1.0000
28.6900 645.0000 1.0000
28.7000 660.0000 1.0000
28.7100 651.0000 1.0000
28.7200 650.0000 1.0000
28.7300 592.0000 1.0000
28.7400 646.0000 1.0000
28.7500 598.0000 1.0000
28.7600 655.0000 1.0000
28.7700 658.0000 1.0000
28.7800 667.0000 1.0000
28.7900 610.0000 1.0000
28.8000 616.0000 1.0000
28.8100 639.0000 1.0000
28.8200 582.0000 1.0000
28.8300 624.0000 1.0000
28.8400 635.0000 1.0000
28.8500 638.0000 1.0000
28.8600 624.0000 1.0000
28.8700 611.0000 1.0000
28.8800 627.0000 1.0000
28.8900 631.0000 1.0000
28.9000 615.0000 1.0000
28.9100 615.0000 1.0000
28.9200 612.0000 1.0000
28.9300 623.0000 1.0000
28.9400 569.0000 1.0000
28.9500 594.0000 1.0000
28.9600 583.0000 1.0000
28.9700 598.0000 1.0000
28.9800 627.0000 1.0000
28.9900 652.0000 1.0000
29.0000 568.0000 1.0000
29.0100 608.0000 1.0000
29.0200 621.0000 1.0000
29.0300 626.0000 1.0000
29.0400 599.0000 1.0000
29.0500 663.0000 1.0000
29.0600 601.0000 1.0000
29.0700 595.0000 1.0000
29.0800 593.0000 1.0000
29.0900 583.0000 1.0000
29.1000 585.0000 1.0000
29.1100 641.0000 1.0000
29.1200 627.0000 1.0000
29.1300 572.0000 1.0000
29.1400 612.0000 1.0000
29.1500 633.0000 1.0000
29.1600 653.0000 1.0000
29.1700 628.0000 1.0000
29.1800 605.0000 1.0000
29.1900 560.0000 1.0000
29.2000 589.0000 1.0000
29.2100 612.0000 1.0000
29.2200 599.0000 1.0000
29.2300 605.0000 1.0000
29.2400 578.0000 1.0000
29.2500 604.0000 1.0000
29.2600 645.0000 1.0000
29.2700 638.0000 1.0000
29.2800 602.0000 1.0000
29.2900 592.0000 1.0000
29.3000 606.0000 1.0000
29.3100 596.0000 1.0000
29.3200 606.0000 1.0000
29.3300 614.0000 1.0000
29.3400 592.0000 1.0000
29.3500 581.0000 1.0000
29.3600 587.0000 1.0000
29.3700 638.0000 1.0000
29.3800 624.0000 1.0000
29.3900 597.0000 1.0000
29.4000 621.0000 1.0000
29.4100 572.0000 1.0000
29.4200 626.0000 1.0000
29.4300 599.0000 1.0000
29.4400 558.0000 1.0000
29.4500 610.0000 1.0000
29.4600 602.0000 1.0000
29.4700 595.0000 1.0000
29.4800 599.0000 1.0000
29.4900 645.0000 1.0000
29.5000 616.0000 1.0000
29.5100 604.0000 1.0000
29.5200 563.0000 1.0000
29.5300 602.0000 1.0000
29.5400 604.0000 1.0000
29.5500 602.0000 1.0000
29.5600 589.0000 1.0000
29.5700 620.0000 1.0000
29.5800 583.0000 1.0000
29.5900 612.0000 1.0000
29.6000 622.0000 1.0000
29.6100 613.0000 1.0000
29.6200 611.0000 1.0000
29.6300 602.0000 1.0000
29.6400 558.0000 1.0000
29.6500 604.0000 1.0000
29.6600 604.0000 1.0000
29.6700 600.0000 1.0000
29.6800 579.0000 1.0000
29.6900 618.0000 1.0000
29.7000 610.0000 1.0000
29.7100 569.0000 1.0000
29.7200 597.0000 1.0000
29.7300 602.0000 1.0000
29.7400 612.0000 1.0000
29.7500 587.0000 1.0000
29.7600 584.0000 1.0000
29.7700 647.0000 1.0000
29.7800 620.0000 1.0000
29.7900 606.0000 1.0000
29.8000 594.0000 1.0000
29.8100 609.0000 1.0000
29.8200 661.0000 1.0000
29.8300 587.0000 1.0000
29.8400 581.0000 1.0000
29.8500 608.0000 1.0000
29.8600 601.0000 1.0000
29.8700 605.0000 1.0000
29.8800 606.0000 1.0000
29.8900 594.0000 1.0000
29.9000 570.0000 1.0000
29.9100 573.0000 1.0000
29.9200 591.0000 1.0000
29.9300 579.0000 1.0000
29.9400 634.0000 1.0000
29.9500 578.0000 1.0000
29.9600 570.0000 1.0000
29.9700 594.0000 1.0000
29.9800 580.0000 1.0000
29.9900 591.0000 1.0000
30.0000 588.0000 1.0000
30.0100 575.0000 1.0000
30.0200 599.0000 1.0000
30.0300 600.0000 1.0000
30.0400 621.0000 1.0000
30.0500 600.0000 1.0000
30.0600 599.0000 1.0000
30.0700 605.0000 1.0000
30.0800 578.0000 1.0000
30.0900 576.0000 1.0000
30.1000 601.0000 1.0000
30.1100 551.0000 1.0000
30.1200 530.0000 1.0000
30.1300 555.0000 1.0000
30.1400 586.0000 1.0000
30.1500 592.0000 1.0000
30.1600 590.0000 1.0000
30.1700 594.0000 1.0000
30.1800 576.0000 1.0000
30.1900 607.0000 1.0000
30.2000 576.0000 1.0000
30.2100 608.0000 1.0000
30.2200 535.0000 1.0000
30.2300 549.0000 1.0000
30.2400 590.0000 1.0000
30.2500 616.0000 1.0000
30.2600 604.0000 1.0000
30.2700 591.0000 1.0000
30.2800 599.0000 1.0000
30.2900 583.0000 1.0000
30.3000 577.0000 1.0000
30.3100 565.0000 1.0000
30.3200 586.0000 1.0000
30.3300 597.0000 1.0000
30.3400 612.0000 1.0000
30.3500 561.0000 1.0000
30.3600 574.0000 1.0000
30.3700 622.0000 1.0000
30.3800 620.0000 1.0000
30.3900 569.0000 1.0000
30.4000 575.0000 1.0000
30.4100 536.0000 1.0000
30.4200 616.0000 1.0000
30.4300 622.0000 1.0000
30.4400 596.0000 1.0000
30.4500 584.0000 1.0000
30.4600 572.0000 1.0000
30.4700 579.0000 1.0000
30.4800 585.0000 1.0000
30.4900 596.0000 1.0000
30.5000 579.0000 1.0000
30.5100 568.0000 1.0000
30.5200 618.0000 1.0000
30.5300 599.0000 1.0000
30.5400 600.0000 1.0000
30.5500 596.0000 1.0000
30.5600 568.0000 1.0000
30.5700 627.0000 1.0000
30.5800 600.0000 1.0000
30.5900 588.0000 1.0000
30.6000 588.0000 1.0000
30.6100 516.0000 1.0000
30.6200 598.0000 1.0000
30.6300 605.0000 1.0000
30.6400 540.0000 1.0000
30.6500 551.0000 1.0000
30.6600 550.0000 1.0000
30.6700 548.0000 1.0000
30.6800 576.0000 1.0000
30.6900 576.0000 1.0000
30.7000 569.0000 1.0000
30.7100 588.0000 1.0000
30.7200 570.0000 1.0000
30.7300 596.0000 1.0000
30.7400 606.0000 1.0000
30.7500 591.0000 1.0000
30.7600 561.0000 1.0000
30.7700 572.0000 1.0000
30.7800 599.0000 1.0000
30.7900 577.0000 1.0000
30.8000 581.0000 1.0000
30.8100 578.0000 1.0000
30.8200 573.0000 1.0000
30.8300 569.0000 1.0000
30.8400 575.0000 1.0000
30.8500 585.0000 1.0000
30.8600 605.0000 1.0000
30.8700 568.0000 1.0000
30.8800 546.0000 1.0000
30.8900 591.0000 1.0000
30.9000 573.0000 1.0000
30.9100 595.0000 1.0000
30.9200 534.0000 1.0000
30.9300 514.0000 1.0000
30.9400 501.0000 1.0000
30.9500 578.0000 1.0000
30.9600 577.0000 1.0000
30.9700 560.0000 1.0000
30.9800 544.0000 1.0000
30.9900 563.0000 1.0000
31.0000 578.0000 1.0000
31.0100 573.0000 1.0000
31.0200 572.0000 1.0000
31.0300 551.0000 1.0000
31.0400 562.0000 1.0000
31.0500 585.0000 1.0000
31.0600 563.0000 1.0000
31.0700 569.0000 1.0000
31.0800 563.0000 1.0000
31.0900 550.0000 1.0000
31.1000 533.0000 1.0000
31.1100 596.0000 1.0000
31.1200 601.0000 1.0000
31.1300 553.0000 1.0000
31.1400 567.0000 1.0000
31.1500 568.0000 1.0000
31.1600 562.0000 1.0000
31.1700 543.0000 1.0000
31.1800 533.0000 1.0000
31.1900 532.0000 1.0000
31.2000 562.0000 1.0000
31.2100 580.0000 1.0000
31.2200 543.0000 1.0000
31.2300 556.0000 1.0000
31.2400 568.0000 1.0000
31.2500 581.0000 1.0000
31.2600 561.0000 1.0000
31.2700 563.0000 1.0000
31.2800 544.0000 1.0000
31.2900 584.0000 1.0000
31.3000 550.0000 1.0000
31.3100 566.0000 1.0000
31.3200 530.0000 1.0000
31.3300 503.0000 1.0000
31.3400 578.0000 1.0000
31.3500 558.0000 1.0000
31.3600 572.0000 1.0000
31.3700 584.0000 1.0000
31.3800 557.0000 1.0000
31.3900 598.0000 1.0000
31.4000 562.0000 1.0000
31.4100 557.0000 1.0000
31.4200 522.0000 1.0000
31.4300 590.0000 1.0000
31.4400 542.0000 1.0000
31.4500 547.0000 1.0000
31.4600 561.0000 1.0000
31.4700 546.0000 1.0000
31.4800 587.0000 1.0000
31.4900 539.0000 1.0000
31.5000 558.0000 1.0000
31.5100 579.0000 1.0000
31.5200 585.0000 1.0000
31.5300 610.0000 1.0000
31.5400 562.0000 1.0000
31.5500 577.0000 1.0000
31.5600 557.0000 1.0000
31.5700 523.0000 1.0000
31.5800 560.0000 1.0000
31.5900 602.0000 1.0000
31.6000 547.0000 1.0000
31.6100 576.0000 1.0000
31.6200 571.0000 1.0000
31.6300 534.0000 1.0000
31.6400 557.0000 1.0000
31.6500 533.0000 1.0000
31.6600 534.0000 1.0000
31.6700 542.0000 1.0000
31.6800 538.0000 1.0000
31.6900 551.0000 1.0000
31.7000 522.0000 1.0000
31.7100 542.0000 1.0000
31.7200 548.0000 1.0000
31.7300 510.0000 1.0000
31.7400 489.0000 1.0000
31.7500 534.0000 1.0000
31.7600 599.0000 1.0000
31.7700 549.0000 1.0000
31.7800 545.0000 1.0000
31.7900 568.0000 1.0000
31.8000 564.0000 1.0000
31.8100 550.0000 1.0000
31.8200 561.0000 1.0000
31.8300 545.0000 1.0000
31.8400 525.0000 1.0000
31.8500 579.0000 1.0000
31.8600 579.0000 1.0000
31.8700 550.0000 1.0000
31.8800 554.0000 1.0000
31.8900 566.0000 1.0000
31.9000 541.0000 1.0000
31.9100 562.0000 1.0000
31.9200 562.0000 1.0000
31.9300 539.0000 1.0000
31.9400 570.0000 1.0000
31.9500 548.0000 1.0000
31.9600 544.0000 1.0000
31.9700 576.0000 1.0000
31.9800 544.0000 1.0000
31.9900 535.0000 1.0000
32.0000 544.0000 1.0000
32.0100 518.0000 1.0000
32.0200 552.0000 1.0000
32.0300 566.0000 1.0000
32.0400 551.0000 1.0000
32.0500 586.0000 1.0000
32.0600 549.0000 1.0000
32.0700 575.0000 1.0000
32.0800 554.0000 1.0000
32.0900 559.0000 1.0000
32.1000 529.0000 1.0000
32.1100 564.0000 1.0000
32.1200 566.0000 1.0000
32.1300 576.0000 1.0000
32.1400 561.0000 1.0000
32.1500 554.0000 1.0000
32.1600 544.0000 1.0000
32.1700 519.0000 1.0000
32.1800 524.0000 1.0000
32.1900 539.0000 1.0000
32.2000 522.0000 1.0000
32.2100 538.0000 1.0000
32.2200 558.0000 1.0000
32.2300 559.0000 1.0000
32.2400 542.0000 1.0000
32.2500 518.0000 1.0000
32.2600 567.0000 1.0000
32.2700 586.0000 1.0000
32.2800 548.0000 1.0000
32.2900 527.0000 1.0000
32.3000 518.0000 1.0000
32.3100 553.0000 1.0000
32.3200 548.0000 1.0000
32.3300 548.0000 1.0000
32.3400 555.0000 1.0000
32.3500 537.0000 1.0000
32.3600 552.0000 1.0000
32.3700 513.0000 1.0000
32.3800 540.0000 1.0000
32.3900 550.0000 1.0000
32.4000 547.0000 1.0000
32.4100 508.0000 1.0000
32.4200 525.0000 1.0000
32.4300 556.0000 1.0000
32.4400 527.0000 1.0000
32.4500 516.0000 1.0000
32.4600 559.0000 1.0000
32.4700 537.0000 1.0000
32.4800 518.0000 1.0000
32.4900 500.0000 1.0000
32.5000 554.0000 1.0000
32.5100 567.0000 1.0000
32.5200 553.0000 1.0000
32.5300 513.0000 1.0000
32.5400 522.0000 1.0000
32.5500 523.0000 1.0000
32.5600 526.0000 1.0000
32.5700 535.0000 1.0000
32.5800 545.0000 1.0000
32.5900 529.0000 1.0000
32.6000 536.0000 1.0000
32.6100 523.0000 1.0000
32.6200 508.0000 1.0000
32.6300 550.0000 1.0000
32.6400 521.0000 1.0000
32.6500 554.0000 1.0000
32.6600 543.0000 1.0000
32.6700 502.0000 1.0000
32.6800 541.0000 1.0000
32.6900 535.0000 1.0000
32.7000 546.0000 1.0000
32.7100 518.0000 1.0000
32.7200 520.0000 1.0000
32.7300 537.0000 1.0000
32.7400 557.0000 1.0000
32.7500 548.0000 1.0000
32.7600 528.0000 1.0000
32.7700 480.0000 1.0000
32.7800 539.0000 1.0000
32.7900 529.0000 1.0000
32.8000 508.0000 1.0000
32.8100 501.0000 1.0000
32.8200 523.0000 1.0000
32.8300 514.0000 1.0000
32.8400 500.0000 1.0000
32.8500 513.0000 1.0000
32.8600 540.0000 1.0000
32.8700 535.0000 1.0000
32.8800 532.0000 1.0000
32.8900 564.0000 1.0000
32.9000 493.0000 1.0000
32.9100 483.0000 1.0000
32.9200 494.0000 1.0000
32.9300 541.0000 1.0000
32.9400 528.0000 1.0000
32.9500 511.0000 1.0000
32.9600 522.0000 1.0000
32.9700 510.0000 1.0000
32.9800 518.0000 1.0000
32.9900 505.0000 1.0000
33.0000 503.0000 1.0000
33.0100 531.0000 1.0000
33.0200 543.0000 1.0000
33.0300 530.0000 1.0000
33.0400 510.0000 1.0000
33.0500 471.0000 1.0000
33.0600 534.0000 1.0000
33.0700 504.0000 1.0000
33.0800 503.0000 1.0000
33.0900 490.0000 1.0000
33.1000 493.0000 1.0000
33.1100 520.0000 1.0000
33.1200 519.0000 1.0000
33.1300 497.0000 1.0000
33.1400 512.0000 1.0000
33.1500 516.0000 1.0000
33.1600 513.0000 1.0000
33.1700 498.0000 1.0000
33.1800 496.0000 1.0000
33.1900 531.0000 1.0000
33.2000 534.0000 1.0000
33.2100 511.0000 1.0000
33.2200 490.0000 1.0000
33.2300 517.0000 1.0000
33.2400 553.0000 1.0000
33.2500 496.0000 1.0000
33.2600 514.0000 1.0000
33.2700 516.0000 1.0000
33.2800 511.0000 1.0000
33.2900 528.0000 1.0000
33.3000 526.0000 1.0000
33.3100 512.0000 1.0000
33.3200 511.0000 1.0000
33.3300 504.0000 1.0000
33.3400 508.0000 1.0000
33.3500 521.0000 1.0000
33.3600 501.0000 1.0000
33.3700 542.0000 1.0000
33.3800 540.0000 1.0000
33.3900 543.0000 1.0000
33.4000 507.0000 1.0000
33.4100 497.0000 1.0000
33.4200 525.0000 1.0000
33.4300 534.0000 1.0000
33.4400 514.0000 1.0000
33.4500 541.0000 1.0000
33.4600 515.0000 1.0000
33.4700 550.0000 1.0000
33.4800 510.0000 1.0000
33.4900 516.0000 1.0000
33.5000 531.0000 1.0000
33.5100 528.0000 1.0000
33.5200 515.0000 1.0000
33.5300 544.0000 1.0000
33.5400 520.0000 1.0000
33.5500 503.0000 1.0000
33.5600 488.0000 1.0000
33.5700 513.0000 1.0000
33.5800 528.0000 1.0000
33.5900 531.0000 1.0000
33.6000 550.0000 1.0000
33.6100 523.0000 1.0000
33.6200 506.0000 1.0000
33.6300 506.0000 1.0000
33.6400 534.0000 1.0000
33.6500 543.0000 1.0000
33.6600 540.0000 1.0000
33.6700 539.0000 1.0000
33.6800 571.0000 1.0000
33.6900 525.0000 1.0000
33.7000 572.0000 1.0000
33.7100 535.0000 1.0000
33.7200 521.0000 1.0000
33.7300 514.0000 1.0000
33.7400 515.0000 1.0000
33.7500 545.0000 1.0000
33.7600 573.0000 1.0000
33.7700 536.0000 1.0000
33.7800 568.0000 1.0000
33.7900 547.0000 1.0000
33.8000 551.0000 1.0000
33.8100 547.0000 1.0000
33.8200 581.0000 1.0000
33.8300 509.0000 1.0000
33.8400 564.0000 1.0000
33.8500 548.0000 1.0000
33.8600 572.0000 1.0000
33.8700 577.0000 1.0000
33.8800 580.0000 1.0000
33.8900 572.0000 1.0000
33.9000 585.0000 1.0000
33.9100 631.0000 1.0000
33.9200 617.0000 1.0000
33.9300 577.0000 1.0000
33.9400 625.0000 1.0000
33.9500 589.0000 1.0000
33.9600 610.0000 1.0000
33.9700 580.0000 1.0000
33.9800 592.0000 1.0000
33.9900 587.0000 1.0000
34.0000 584.0000 1.0000
34.0100 582.0000 1.0000
34.0200 572.0000 1.0000
34.0300 597.0000 1.0000
34.0400 561.0000 1.0000
34.0500 607.0000 1.0000
34.0600 601.0000 1.0000
34.0700 578.0000 1.0000
34.0800 568.0000 1.0000
34.0900 571.0000 1.0000
34.1000 556.0000 1.0000
34.1100 577.0000 1.0000
34.1200 622.0000 1.0000
34.1300 598.0000 1.0000
34.1400 627.0000 1.0000
34.1500 643.0000 1.0000
34.1600 617.0000 1.0000
34.1700 615.0000 1.0000
34.1800 597.0000 1.0000
34.1900 629.0000 1.0000
34.2000 620.0000 1.0000
34.2100 656.0000 1.0000
34.2200 699.0000 1.0000
34.2300 693.0000 1.0000
34.2400 682.0000 1.0000
34.2500 627.0000 1.0000
34.2600 714.0000 1.0000
34.2700 698.0000 1.0000
34.2800 734.0000 1.0000
34.2900 733.0000 1.0000
34.3000 768.0000 1.0000
34.3100 763.0000 1.0000
34.3200 782.0000 1.0000
34.3300 825.0000 1.0000
34.3400 864.0000 1.0000
34.3500 864.0000 1.0000
34.3600 973.0000 1.0000
34.3700 1012.0000 1.0000
34.3800 1031.0000 1.0000
34.3900 1099.0000 1.0000
34.4000 1107.0000 1.0000
34.4100 1186.0000 1.0000
34.4200 1208.0000 1.0000
34.4300 1273.0000 1.0000
34.4400 1330.0000 1.0000
34.4500 1396.0000 1.0000
34.4600 1426.0000 1.0000
34.4700 1387.0000 1.0000
34.4800 1397.0000 1.0000
34.4900 1452.0000 1.0000
34.5000 1416.0000 1.0000
34.5100 1386.0000 1.0000
34.5200 1370.0000 1.0000
34.5300 1343.0000 1.0000
34.5400 1269.0000 1.0000
34.5500 1289.0000 1.0000
34.5600 1213.0000 1.0000
34.5700 1198.0000 1.0000
34.5800 1107.0000 1.0000
34.5900 1053.0000 1.0000
34.6000 1062.0000 1.0000
34.6100 996.0000 1.0000
34.6200 887.0000 1.0000
34.6300 898.0000 1.0000
34.6400 834.0000 1.0000
34.6500 844.0000 1.0000
34.6600 807.0000 1.0000
34.6700 811.0000 1.0000
34.6800 718.0000 1.0000
34.6900 745.0000 1.0000
34.7000 730.0000 1.0000
34.7100 665.0000 1.0000
34.7200 694.0000 1.0000
34.7300 677.0000 1.0000
34.7400 647.0000 1.0000
34.7500 629.0000 1.0000
34.7600 662.0000 1.0000
34.7700 615.0000 1.0000
34.7800 623.0000 1.0000
34.7900 631.0000 1.0000
34.8000 574.0000 1.0000
34.8100 571.0000 1.0000
34.8200 577.0000 1.0000
34.8300 581.0000 1.0000
34.8400 545.0000 1.0000
34.8500 559.0000 1.0000
34.8600 561.0000 1.0000
34.8700 543.0000 1.0000
34.8800 543.0000 1.0000
34.8900 535.0000 1.0000
34.9000 542.0000 1.0000
34.9100 546.0000 1.0000
34.9200 513.0000 1.0000
34.9300 517.0000 1.0000
34.9400 534.0000 1.0000
34.9500 523.0000 1.0000
34.9600 521.0000 1.0000
34.9700 538.0000 1.0000
34.9800 517.0000 1.0000
34.9900 499.0000 1.0000
35.0000 479.0000 1.0000
35.0100 501.0000 1.0000
35.0200 473.0000 1.0000
35.0300 489.0000 1.0000
35.0400 482.0000 1.0000
35.0500 468.0000 1.0000
35.0600 494.0000 1.0000
35.0700 486.0000 1.0000
35.0800 466.0000 1.0000
35.0900 496.0000 1.0000
35.1000 504.0000 1.0000
35.1100 510.0000 1.0000
35.1200 495.0000 1.0000
35.1300 480.0000 1.0000
35.1400 481.0000 1.0000
35.1500 534.0000 1.0000
35.1600 484.0000 1.0000
35.1700 478.0000 1.0000
35.1800 451.0000 1.0000
35.1900 459.0000 1.0000
35.2000 414.0000 1.0000
35.2100 467.0000 1.0000
35.2200 451.0000 1.0000
35.2300 468.0000 1.0000
35.2400 464.0000 1.0000
35.2500 491.0000 1.0000
35.2600 514.0000 1.0000
35.2700 479.0000 1.0000
35.2800 453.0000 1.0000
35.2900 440.0000 1.0000
35.3000 458.0000 1.0000
35.3100 470.0000 1.0000
35.3200 460.0000 1.0000
35.3300 491.0000 1.0000
35.3400 460.0000 1.0000
35.3500 465.0000 1.0000
35.3600 450.0000 1.0000
35.3700 432.0000 1.0000
35.3800 447.0000 1.0000
35.3900 457.0000 1.0000
35.4000 482.0000 1.0000
35.4100 459.0000 1.0000
35.4200 440.0000 1.0000
35.4300 453.0000 1.0000
35.4400 481.0000 1.0000
35.4500 449.0000 1.0000
35.4600 474.0000 1.0000
35.4700 454.0000 1.0000
35.4800 431.0000 1.0000
35.4900 456.0000 1.0000
35.5000 435.0000 1.0000
35.5100 421.0000 1.0000
35.5200 456.0000 1.0000
35.5300 440.0000 1.0000
35.5400 456.0000 1.0000
35.5500 449.0000 1.0000
35.5600 454.0000 1.0000
35.5700 475.0000 1.0000
35.5800 470.0000 1.0000
35.5900 489.0000 1.0000
35.6000 440.0000 1.0000
35.6100 445.0000 1.0000
35.6200 422.0000 1.0000
35.6300 457.0000 1.0000
35.6400 469.0000 1.0000
35.6500 414.0000 1.0000
35.6600 431.0000 1.0000
35.6700 453.0000 1.0000
35.6800 403.0000 1.0000
35.6900 418.0000 1.0000
35.7000 448.0000 1.0000
35.7100 450.0000 1.0000
35.7200 447.0000 1.0000
35.7300 442.0000 1.0000
35.7400 446.0000 1.0000
35.7500 413.0000 1.0000
35.7600 444.0000 1.0000
35.7700 425.0000 1.0000
35.7800 448.0000 1.0000
35.7900 430.0000 1.0000
35.8000 423.0000 1.0000
35.8100 476.0000 1.0000
35.8200 473.0000 1.0000
35.8300 437.0000 1.0000
35.8400 438.0000 1.0000
35.8500 446.0000 1.0000
35.8600 451.0000 1.0000
35.8700 471.0000 1.0000
35.8800 449.0000 1.0000
35.8900 421.0000 1.0000
35.9000 424.0000 1.0000
35.9100 441.0000 1.0000
35.9200 459.0000 1.0000
35.9300 464.0000 1.0000
35.9400 438.0000 1.0000
35.9500 458.0000 1.0000
35.9600 442.0000 1.0000
35.9700 421.0000 1.0000
35.9800 423.0000 1.0000
35.9900 419.0000 1.0000
36.0000 445.0000 1.0000
36.0100 476.0000 1.0000
36.0200 444.0000 1.0000
36.0300 454.0000 1.0000
36.0400 428.0000 1.0000
36.0500 457.0000 1.0000
36.0600 469.0000 1.0000
36.0700 456.0000 1.0000
36.0800 433.0000 1.0000
36.0900 430.0000 1.0000
36.1000 475.0000 1.0000
36.1100 484.0000 1.0000
36.1200 469.0000 1.0000
36.1300 442.0000 1.0000
36.1400 459.0000 1.0000
36.1500 506.0000 1.0000
36.1600 478.0000 1.0000
36.1700 471.0000 1.0000
36.1800 459.0000 1.0000
36.1900 492.0000 1.0000
36.2000 511.0000 1.0000
36.2100 497.0000 1.0000
36.2200 479.0000 1.0000
36.2300 483.0000 1.0000
36.2400 537.0000 1.0000
36.2500 524.0000 1.0000
36.2600 501.0000 1.0000
36.2700 511.0000 1.0000
36.2800 513.0000 1.0000
36.2900 562.0000 1.0000
36.3000 519.0000 1.0000
36.3100 536.0000 1.0000
36.3200 589.0000 1.0000
36.3300 602.0000 1.0000
36.3400 558.0000 1.0000
36.3500 544.0000 1.0000
36.3600 520.0000 1.0000
36.3700 550.0000 1.0000
36.3800 545.0000 1.0000
36.3900 587.0000 1.0000
36.4000 587.0000 1.0000
36.4100 560.0000 1.0000
36.4200 562.0000 1.0000
36.4300 610.0000 1.0000
36.4400 568.0000 1.0000
36.4500 577.0000 1.0000
36.4600 526.0000 1.0000
36.4700 561.0000 1.0000
36.4800 551.0000 1.0000
36.4900 527.0000 1.0000
36.5000 547.0000 1.0000
36.5100 526.0000 1.0000
36.5200 529.0000 1.0000
36.5300 524.0000 1.0000
36.5400 489.0000 1.0000
36.5500 504.0000 1.0000
36.5600 479.0000 1.0000
36.5700 475.0000 1.0000
36.5800 492.0000 1.0000
36.5900 479.0000 1.0000
36.6000 454.0000 1.0000
36.6100 479.0000 1.0000
36.6200 486.0000 1.0000
36.6300 473.0000 1.0000
36.6400 457.0000 1.0000
36.6500 441.0000 1.0000
36.6600 459.0000 1.0000
36.6700 441.0000 1.0000
36.6800 447.0000 1.0000
36.6900 450.0000 1.0000
36.7000 469.0000 1.0000
36.7100 440.0000 1.0000
36.7200 430.0000 1.0000
36.7300 411.0000 1.0000
36.7400 403.0000 1.0000
36.7500 429.0000 1.0000
36.7600 396.0000 1.0000
36.7700 396.0000 1.0000
36.7800 399.0000 1.0000
36.7900 418.0000 1.0000
36.8000 404.0000 1.0000
36.8100 391.0000 1.0000
36.8200 420.0000 1.0000
36.8300 443.0000 1.0000
36.8400 418.0000 1.0000
36.8500 462.0000 1.0000
36.8600 422.0000 1.0000
36.8700 392.0000 1.0000
36.8800 421.0000 1.0000
36.8900 410.0000 1.0000
36.9000 414.0000 1.0000
36.9100 435.0000 1.0000
36.9200 422.0000 1.0000
36.9300 393.0000 1.0000
36.9400 414.0000 1.0000
36.9500 430.0000 1.0000
36.9600 401.0000 1.0000
36.9700 390.0000 1.0000
36.9800 417.0000 1.0000
36.9900 412.0000 1.0000
37.0000 403.0000 1.0000
37.0100 402.0000 1.0000
37.0200 404.0000 1.0000
37.0300 433.0000 1.0000
37.0400 419.0000 1.0000
37.0500 432.0000 1.0000
37.0600 423.0000 1.0000
37.0700 408.0000 1.0000
37.0800 374.0000 1.0000
37.0900 378.0000 1.0000
37.1000 417.0000 1.0000
37.1100 397.0000 1.0000
37.1200 421.0000 1.0000
37.1300 414.0000 1.0000
37.1400 455.0000 1.0000
37.1500 425.0000 1.0000
37.1600 396.0000 1.0000
37.1700 369.0000 1.0000
37.1800 386.0000 1.0000
37.1900 400.0000 1.0000
37.2000 405.0000 1.0000
37.2100 422.0000 1.0000
37.2200 417.0000 1.0000
37.2300 440.0000 1.0000
37.2400 420.0000 1.0000
37.2500 379.0000 1.0000
37.2600 423.0000 1.0000
37.2700 399.0000 1.0000
37.2800 403.0000 1.0000
37.2900 409.0000 1.0000
37.3000 371.0000 1.0000
37.3100 398.0000 1.0000
37.3200 431.0000 1.0000
37.3300 425.0000 1.0000
37.3400 408.0000 1.0000
37.3500 436.0000 1.0000
37.3600 393.0000 1.0000
37.3700 424.0000 1.0000
37.3800 418.0000 1.0000
37.3900 388.0000 1.0000
37.4000 409.0000 1.0000
37.4100 432.0000 1.0000
37.4200 429.0000 1.0000
37.4300 427.0000 1.0000
37.4400 392.0000 1.0000
37.4500 416.0000 1.0000
37.4600 419.0000 1.0000
37.4700 384.0000 1.0000
37.4800 428.0000 1.0000
37.4900 402.0000 1.0000
37.5000 375.0000 1.0000
37.5100 385.0000 1.0000
37.5200 383.0000 1.0000
37.5300 406.0000 1.0000
37.5400 395.0000 1.0000
37.5500 391.0000 1.0000
37.5600 416.0000 1.0000
37.5700 413.0000 1.0000
37.5800 383.0000 1.0000
37.5900 416.0000 1.0000
37.6000 415.0000 1.0000
37.6100 418.0000 1.0000
37.6200 394.0000 1.0000
37.6300 434.0000 1.0000
37.6400 418.0000 1.0000
37.6500 369.0000 1.0000
37.6600 387.0000 1.0000
37.6700 408.0000 1.0000
37.6800 368.0000 1.0000
37.6900 396.0000 1.0000
37.7000 423.0000 1.0000
37.7100 403.0000 1.0000
37.7200 394.0000 1.0000
37.7300 386.0000 1.0000
37.7400 390.0000 1.0000
37.7500 398.0000 1.0000
37.7600 391.0000 1.0000
37.7700 415.0000 1.0000
37.7800 424.0000 1.0000
37.7900 418.0000 1.0000
37.8000 401.0000 1.0000
37.8100 418.0000 1.0000
37.8200 379.0000 1.0000
37.8300 411.0000 1.0000
37.8400 416.0000 1.0000
37.8500 432.0000 1.0000
37.8600 401.0000 1.0000
37.8700 385.0000 1.0000
37.8800 418.0000 1.0000
37.8900 401.0000 1.0000
37.9000 412.0000 1.0000
37.9100 393.0000 1.0000
37.9200 408.0000 1.0000
37.9300 402.0000 1.0000
37.9400 408.0000 1.0000
37.9500 426.0000 1.0000
37.9600 397.0000 1.0000
37.9700 420.0000 1.0000
37.9800 416.0000 1.0000
37.9900 427.0000 1.0000
38.0000 440.0000 1.0000
38.0100 428.0000 1.0000
38.0200 421.0000 1.0000
38.0300 441.0000 1.0000
38.0400 430.0000 1.0000
38.0500 447.0000 1.0000
38.0600 426.0000 1.0000
38.0700 469.0000 1.0000
38.0800 396.0000 1.0000
38.0900 442.0000 1.0000
38.1000 444.0000 1.0000
38.1100 463.0000 1.0000
38.1200 463.0000 1.0000
38.1300 501.0000 1.0000
38.1400 506.0000 1.0000
38.1500 522.0000 1.0000
38.1600 484.0000 1.0000
38.1700 514.0000 1.0000
38.1800 503.0000 1.0000
38.1900 552.0000 1.0000
38.2000 581.0000 1.0000
38.2100 568.0000 1.0000
38.2200 555.0000 1.0000
38.2300 594.0000 1.0000
38.2400 637.0000 1.0000
38.2500 630.0000 1.0000
38.2600 657.0000 1.0000
38.2700 693.0000 1.0000
38.2800 742.0000 1.0000
38.2900 776.0000 1.0000
38.3000 803.0000 1.0000
38.3100 853.0000 1.0000
38.3200 922.0000 1.0000
38.3300 902.0000 1.0000
38.3400 950.0000 1.0000
38.3500 1001.0000 1.0000
38.3600 1091.0000 1.0000
38.3700 1159.0000 1.0000
38.3800 1227.0000 1.0000
38.3900 1366.0000 1.0000
38.4000 1457.0000 1.0000
38.4100 1503.0000 1.0000
38.4200 1649.0000 1.0000
38.4300 1782.0000 1.0000
38.4400 1907.0000 1.0000
38.4500 1983.0000 1.0000
38.4600 2149.0000 1.0000
38.4700 2268.0000 1.0000
38.4800 2331.0000 1.0000
38.4900 2347.0000 1.0000
38.5000 2443.0000 1.0000
38.5100 2499.0000 1.0000
38.5200 2382.0000 1.0000
38.5300 2453.0000 1.0000
38.5400 2399.0000 1.0000
38.5500 2370.0000 1.0000
38.5600 2370.0000 1.0000
38.5700 2331.0000 1.0000
38.5800 2154.0000 1.0000
38.5900 2097.0000 1.0000
38.6000 2029.0000 1.0000
38.6100 2023.0000 1.0000
38.6200 1810.0000 1.0000
38.6300 1811.0000 1.0000
38.6400 1603.0000 1.0000
38.6500 1561.0000 1.0000
38.6600 1484.0000 1.0000
38.6700 1348.0000 1.0000
38.6800 1241.0000 1.0000
38.6900 1242.0000 1.0000
38.7000 1152.0000 1.0000
38.7100 1067.0000 1.0000
38.7200 990.0000 1.0000
38.7300 897.0000 1.0000
38.7400 857.0000 1.0000
38.7500 794.0000 1.0000
38.7600 789.0000 1.0000
38.7700 783.0000 1.0000
38.7800 705.0000 1.0000
38.7900 666.0000 1.0000
38.8000 620.0000 1.0000
38.8100 627.0000 1.0000
38.8200 607.0000 1.0000
38.8300 571.0000 1.0000
38.8400 565.0000 1.0000
38.8500 538.0000 1.0000
38.8600 525.0000 1.0000
38.8700 539.0000 1.0000
38.8800 503.0000 1.0000
38.8900 487.0000 1.0000
38.9000 487.0000 1.0000
38.9100 464.0000 1.0000
38.9200 469.0000 1.0000
38.9300 465.0000 1.0000
38.9400 466.0000 1.0000
38.9500 432.0000 1.0000
38.9600 418.0000 1.0000
38.9700 448.0000 1.0000
38.9800 425.0000 1.0000
38.9900 391.0000 1.0000
39.0000 423.0000 1.0000
39.0100 389.0000 1.0000
39.0200 443.0000 1.0000
39.0300 392.0000 1.0000
39.0400 414.0000 1.0000
39.0500 411.0000 1.0000
39.0600 417.0000 1.0000
39.0700 389.0000 1.0000
39.0800 409.0000 1.0000
39.0900 416.0000 1.0000
39.1000 376.0000 1.0000
39.1100 397.0000 1.0000
39.1200 409.0000 1.0000
39.1300 361.0000 1.0000
39.1400 382.0000 1.0000
39.1500 388.0000 1.0000
39.1600 383.0000 1.0000
39.1700 364.0000 1.0000
39.1800 378.0000 1.0000
39.1900 362.0000 1.0000
39.2000 379.0000 1.0000
39.2100 380.0000 1.0000
39.2200 382.0000 1.0000
39.2300 353.0000 1.0000
39.2400 352.0000 1.0000
39.2500 358.0000 1.0000
39.2600 381.0000 1.0000
39.2700 345.0000 1.0000
39.2800 372.0000 1.0000
39.2900 363.0000 1.0000
39.3000 361.0000 1.0000
39.3100 348.0000 1.0000
39.3200 368.0000 1.0000
39.3300 409.0000 1.0000
39.3400 386.0000 1.0000
39.3500 350.0000 1.0000
39.3600 347.0000 1.0000
39.3700 366.0000 1.0000
39.3800 398.0000 1.0000
39.3900 382.0000 1.0000
39.4000 343.0000 1.0000
39.4100 353.0000 1.0000
39.4200 374.0000 1.0000
39.4300 404.0000 1.0000
39.4400 345.0000 1.0000
39.4500 387.0000 1.0000
39.4600 354.0000 1.0000
39.4700 384.0000 1.0000
39.4800 340.0000 1.0000
39.4900 370.0000 1.0000
39.5000 397.0000 1.0000
39.5100 389.0000 1.0000
39.5200 370.0000 1.0000
39.5300 352.0000 1.0000
39.5400 372.0000 1.0000
39.5500 401.0000 1.0000
39.5600 429.0000 1.0000
39.5700 359.0000 1.0000
39.5800 388.0000 1.0000
39.5900 389.0000 1.0000
39.6000 371.0000 1.0000
39.6100 374.0000 1.0000
39.6200 390.0000 1.0000
39.6300 373.0000 1.0000
39.6400 392.0000 1.0000
39.6500 373.0000 1.0000
39.6600 394.0000 1.0000
39.6700 389.0000 1.0000
39.6800 396.0000 1.0000
39.6900 394.0000 1.0000
39.7000 390.0000 1.0000
39.7100 369.0000 1.0000
39.7200 358.0000 1.0000
39.7300 354.0000 1.0000
39.7400 369.0000 1.0000
39.7500 336.0000 1.0000
39.7600 340.0000 1.0000
39.7700 344.0000 1.0000
39.7800 375.0000 1.0000
39.7900 365.0000 1.0000
39.8000 337.0000 1.0000
39.8100 361.0000 1.0000
39.8200 345.0000 1.0000
39.8300 341.0000 1.0000
39.8400 356.0000 1.0000
39.8500 353.0000 1.0000
39.8600 344.0000 1.0000
39.8700 356.0000 1.0000
39.8800 336.0000 1.0000
39.8900 341.0000 1.0000
39.9000 320.0000 1.0000
39.9100 331.0000 1.0000
39.9200 340.0000 1.0000
39.9300 345.0000 1.0000
39.9400 338.0000 1.0000
39.9500 332.0000 1.0000
39.9600 345.0000 1.0000
39.9700 334.0000 1.0000
39.9800 351.0000 1.0000
39.9900 337.0000 1.0000
40.0000 330.0000 1.0000
40.0100 331.0000 1.0000
40.0200 346.0000 1.0000
40.0300 331.0000 1.0000
40.0400 347.0000 1.0000
40.0500 362.0000 1.0000
40.0600 348.0000 1.0000
40.0700 333.0000 1.0000
40.0800 352.0000 1.0000
40.0900 365.0000 1.0000
40.1000 361.0000 1.0000
40.1100 348.0000 1.0000
40.1200 358.0000 1.0000
40.1300 331.0000 1.0000
40.1400 345.0000 1.0000
40.1500 375.0000 1.0000
40.1600 335.0000 1.0000
40.1700 335.0000 1.0000
40.1800 328.0000 1.0000
40.1900 343.0000 1.0000
40.2000 313.0000 1.0000
40.2100 355.0000 1.0000
40.2200 323.0000 1.0000
40.2300 350.0000 1.0000
40.2400 330.0000 1.0000
40.2500 347.0000 1.0000
40.2600 329.0000 1.0000
40.2700 375.0000 1.0000
40.2800 337.0000 1.0000
40.2900 338.0000 1.0000
40.3000 372.0000 1.0000
40.3100 352.0000 1.0000
40.3200 358.0000 1.0000
40.3300 337.0000 1.0000
40.3400 329.0000 1.0000
40.3500 342.0000 1.0000
40.3600 320.0000 1.0000
40.3700 362.0000 1.0000
40.3800 333.0000 1.0000
40.3900 327.0000 1.0000
40.4000 366.0000 1.0000
40.4100 319.0000 1.0000
40.4200 346.0000 1.0000
40.4300 322.0000 1.0000
40.4400 327.0000 1.0000
40.4500 334.0000 1.0000
40.4600 330.0000 1.0000
40.4700 312.0000 1.0000
40.4800 335.0000 1.0000
40.4900 343.0000 1.0000
40.5000 335.0000 1.0000
40.5100 298.0000 1.0000
40.5200 327.0000 1.0000
40.5300 313.0000 1.0000
40.5400 315.0000 1.0000
40.5500 323.0000 1.0000
40.5600 317.0000 1.0000
40.5700 355.0000 1.0000
40.5800 338.0000 1.0000
40.5900 348.0000 1.0000
40.6000 339.0000 1.0000
40.6100 313.0000 1.0000
40.6200 328.0000 1.0000
40.6300 324.0000 1.0000
40.6400 337.0000 1.0000
40.6500 341.0000 1.0000
40.6600 325.0000 1.0000
40.6700 328.0000 1.0000
40.6800 341.0000 1.0000
40.6900 312.0000 1.0000
40.7000 312.0000 1.0000
40.7100 312.0000 1.0000
40.7200 313.0000 1.0000
40.7300 327.0000 1.0000
40.7400 355.0000 1.0000
40.7500 338.0000 1.0000
40.7600 338.0000 1.0000
40.7700 334.0000 1.0000
40.7800 329.0000 1.0000
40.7900 337.0000 1.0000
40.8000 339.0000 1.0000
40.8100 335.0000 1.0000
40.8200 347.0000 1.0000
40.8300 301.0000 1.0000
40.8400 350.0000 1.0000
40.8500 313.0000 1.0000
40.8600 339.0000 1.0000
40.8700 313.0000 1.0000
40.8800 341.0000 1.0000
40.8900 346.0000 1.0000
40.9000 330.0000 1.0000
40.9100 328.0000 1.0000
40.9200 308.0000 1.0000
40.9300 340.0000 1.0000
40.9400 327.0000 1.0000
40.9500 313.0000 1.0000
40.9600 302.0000 1.0000
40.9700 331.0000 1.0000
40.9800 322.0000 1.0000
40.9900 316.0000 1.0000
41.0000 387.0000 1.0000
41.0100 325.0000 1.0000
41.0200 298.0000 1.0000
41.0300 305.0000 1.0000
41.0400 310.0000 1.0000
41.0500 351.0000 1.0000
41.0600 335.0000 1.0000
41.0700 323.0000 1.0000
41.0800 330.0000 1.0000
41.0900 333.0000 1.0000
41.1000 333.0000 1.0000
41.1100 338.0000 1.0000
41.1200 348.0000 1.0000
41.1300 328.0000 1.0000
41.1400 313.0000 1.0000
41.1500 318.0000 1.0000
41.1600 329.0000 1.0000
41.1700 350.0000 1.0000
41.1800 320.0000 1.0000
41.1900 322.0000 1.0000
41.2000 345.0000 1.0000
41.2100 326.0000 1.0000
41.2200 350.0000 1.0000
41.2300 333.0000 1.0000
41.2400 328.0000 1.0000
41.2500 318.0000 1.0000
41.2600 313.0000 1.0000
41.2700 329.0000 1.0000
41.2800 324.0000 1.0000
41.2900 315.0000 1.0000
41.3000 322.0000 1.0000
41.3100 335.0000 1.0000
41.3200 347.0000 1.0000
41.3300 333.0000 1.0000
41.3400 296.0000 1.0000
41.3500 351.0000 1.0000
41.3600 356.0000 1.0000
41.3700 327.0000 1.0000
41.3800 319.0000 1.0000
41.3900 300.0000 1.0000
41.4000 340.0000 1.0000
41.4100 325.0000 1.0000
41.4200 348.0000 1.0000
41.4300 325.0000 1.0000
41.4400 327.0000 1.0000
41.4500 330.0000 1.0000
41.4600 353.0000 1.0000
41.4700 353.0000 1.0000
41.4800 309.0000 1.0000
41.4900 348.0000 1.0000
41.5000 318.0000 1.0000
41.5100 322.0000 1.0000
41.5200 350.0000 1.0000
41.5300 345.0000 1.0000
41.5400 333.0000 1.0000
41.5500 334.0000 1.0000
41.5600 333.0000 1.0000
41.5700 330.0000 1.0000
41.5800 351.0000 1.0000
41.5900 355.0000 1.0000
41.6000 327.0000 1.0000
41.6100 343.0000 1.0000
41.6200 339.0000 1.0000
41.6300 319.0000 1.0000
41.6400 320.0000 1.0000
41.6500 346.0000 1.0000
41.6600 313.0000 1.0000
41.6700 289.0000 1.0000
41.6800 298.0000 1.0000
41.6900 337.0000 1.0000
41.7000 328.0000 1.0000
41.7100 334.0000 1.0000
41.7200 339.0000 1.0000
41.7300 343.0000 1.0000
41.7400 308.0000 1.0000
41.7500 341.0000 1.0000
41.7600 333.0000 1.0000
41.7700 325.0000 1.0000
41.7800 313.0000 1.0000
41.7900 327.0000 1.0000
41.8000 348.0000 1.0000
41.8100 332.0000 1.0000
41.8200 323.0000 1.0000
41.8300 310.0000 1.0000
41.8400 355.0000 1.0000
41.8500 326.0000 1.0000
41.8600 342.0000 1.0000
41.8700 351.0000 1.0000
41.8800 301.0000 1.0000
41.8900 328.0000 1.0000
41.9000 334.0000 1.0000
41.9100 332.0000 1.0000
41.9200 347.0000 1.0000
41.9300 318.0000 1.0000
41.9400 324.0000 1.0000
41.9500 332.0000 1.0000
41.9600 299.0000 1.0000
41.9700 327.0000 1.0000
41.9800 310.0000 1.0000
41.9900 334.0000 1.0000
42.0000 321.0000 1.0000
42.0100 339.0000 1.0000
42.0200 329.0000 1.0000
42.0300 329.0000 1.0000
42.0400 341.0000 1.0000
42.0500 323.0000 1.0000
42.0600 346.0000 1.0000
42.0700 334.0000 1.0000
42.0800 346.0000 1.0000
42.0900 322.0000 1.0000
42.1000 330.0000 1.0000
42.1100 338.0000 1.0000
42.1200 360.0000 1.0000
42.1300 314.0000 1.0000
42.1400 335.0000 1.0000
42.1500 315.0000 1.0000
42.1600 306.0000 1.0000
42.1700 343.0000 1.0000
42.1800 327.0000 1.0000
42.1900 306.0000 1.0000
42.2000 311.0000 1.0000
42.2100 329.0000 1.0000
42.2200 295.0000 1.0000
42.2300 299.0000 1.0000
42.2400 302.0000 1.0000
42.2500 328.0000 1.0000
42.2600 298.0000 1.0000
42.2700 311.0000 1.0000
42.2800 342.0000 1.0000
42.2900 317.0000 1.0000
42.3000 328.0000 1.0000
42.3100 331.0000 1.0000
42.3200 339.0000 1.0000
42.3300 318.0000 1.0000
42.3400 313.0000 1.0000
42.3500 330.0000 1.0000
42.3600 321.0000 1.0000
42.3700 305.0000 1.0000
42.3800 288.0000 1.0000
42.3900 319.0000 1.0000
42.4000 303.0000 1.0000
42.4100 335.0000 1.0000
42.4200 303.0000 1.0000
42.4300 300.0000 1.0000
42.4400 309.0000 1.0000
42.4500 335.0000 1.0000
42.4600 311.0000 1.0000
42.4700 314.0000 1.0000
42.4800 305.0000 1.0000
42.4900 310.0000 1.0000
42.5000 323.0000 1.0000
42.5100 309.0000 1.0000
42.5200 340.0000 1.0000
42.5300 316.0000 1.0000
42.5400 305.0000 1.0000
42.5500 314.0000 1.0000
42.5600 305.0000 1.0000
42.5700 318.0000 1.0000
42.5800 313.0000 1.0000
42.5900 298.0000 1.0000
42.6000 325.0000 1.0000
42.6100 290.0000 1.0000
42.6200 328.0000 1.0000
42.6300 351.0000 1.0000
42.6400 327.0000 1.0000
42.6500 317.0000 1.0000
42.6600 337.0000 1.0000
42.6700 330.0000 1.0000
42.6800 329.0000 1.0000
42.6900 344.0000 1.0000
42.7000 290.0000 1.0000
42.7100 316.0000 1.0000
42.7200 322.0000 1.0000
42.7300 314.0000 1.0000
42.7400 348.0000 1.0000
42.7500 312.0000 1.0000
42.7600 327.0000 1.0000
42.7700 286.0000 1.0000
42.7800 312.0000 1.0000
42.7900 322.0000 1.0000
42.8000 313.0000 1.0000
42.8100 298.0000 1.0000
42.8200 304.0000 1.0000
42.8300 327.0000 1.0000
42.8400 283.0000 1.0000
42.8500 307.0000 1.0000
42.8600 317.0000 1.0000
42.8700 334.0000 1.0000
42.8800 308.0000 1.0000
42.8900 300.0000 1.0000
42.9000 301.0000 1.0000
42.9100 306.0000 1.0000
42.9200 301.0000 1.0000
42.9300 308.0000 1.0000
42.9400 294.0000 1.0000
42.9500 312.0000 1.0000
42.9600 302.0000 1.0000
42.9700 300.0000 1.0000
42.9800 294.0000 1.0000
42.9900 319.0000 1.0000
43.0000 357.0000 1.0000
43.0100 356.0000 1.0000
43.0200 334.0000 1.0000
43.0300 319.0000 1.0000
43.0400 356.0000 1.0000
43.0500 330.0000 1.0000
43.0600 325.0000 1.0000
43.0700 326.0000 1.0000
43.0800 326.0000 1.0000
43.0900 329.0000 1.0000
43.1000 338.0000 1.0000
43.1100 330.0000 1.0000
43.1200 327.0000 1.0000
43.1300 338.0000 1.0000
43.1400 334.0000 1.0000
43.1500 318.0000 1.0000
43.1600 338.0000 1.0000
43.1700 345.0000 1.0000
43.1800 350.0000 1.0000
43.1900 305.0000 1.0000
43.2000 365.0000 1.0000
43.2100 339.0000 1.0000
43.2200 341.0000 1.0000
43.2300 347.0000 1.0000
43.2400 337.0000 1.0000
43.2500 357.0000 1.0000
43.2600 348.0000 1.0000
43.2700 357.0000 1.0000
43.2800 357.0000 1.0000
43.2900 351.0000 1.0000
43.3000 350.0000 1.0000
43.3100 339.0000 1.0000
43.3200 339.0000 1.0000
43.3300 343.0000 1.0000
43.3400 341.0000 1.0000
43.3500 333.0000 1.0000
43.3600 347.0000 1.0000
43.3700 317.0000 1.0000
43.3800 331.0000 1.0000
43.3900 322.0000 1.0000
43.4000 344.0000 1.0000
43.4100 311.0000 1.0000
43.4200 327.0000 1.0000
43.4300 324.0000 1.0000
43.4400 306.0000 1.0000
43.4500 282.0000 1.0000
43.4600 333.0000 1.0000
43.4700 340.0000 1.0000
43.4800 324.0000 1.0000
43.4900 329.0000 1.0000
43.5000 287.0000 1.0000
43.5100 332.0000 1.0000
43.5200 311.0000 1.0000
43.5300 321.0000 1.0000
43.5400 326.0000 1.0000
43.5500 335.0000 1.0000
43.5600 319.0000 1.0000
43.5700 354.0000 1.0000
43.5800 311.0000 1.0000
43.5900 336.0000 1.0000
43.6000 324.0000 1.0000
43.6100 306.0000 1.0000
43.6200 304.0000 1.0000
43.6300 298.0000 1.0000
43.6400 306.0000 1.0000
43.6500 322.0000 1.0000
43.6600 345.0000 1.0000
43.6700 335.0000 1.0000
43.6800 336.0000 1.0000
43.6900 319.0000 1.0000
43.7000 308.0000 1.0000
43.7100 323.0000 1.0000
43.7200 314.0000 1.0000
43.7300 294.0000 1.0000
43.7400 312.0000 1.0000
43.7500 318.0000 1.0000
43.7600 331.0000 1.0000
43.7700 316.0000 1.0000
43.7800 294.0000 1.0000
43.7900 308.0000 1.0000
43.8000 300.0000 1.0000
43.8100 290.0000 1.0000
43.8200 334.0000 1.0000
43.8300 346.0000 1.0000
43.8400 322.0000 1.0000
43.8500 313.0000 1.0000
43.8600 332.0000 1.0000
43.8700 286.0000 1.0000
43.8800 310.0000 1.0000
43.8900 315.0000 1.0000
43.9000 318.0000 1.0000
43.9100 320.0000 1.0000
43.9200 305.0000 1.0000
43.9300 298.0000 1.0000
43.9400 347.0000 1.0000
43.9500 305.0000 1.0000
43.9600 288.0000 1.0000
43.9700 315.0000 1.0000
43.9800 313.0000 1.0000
43.9900 317.0000 1.0000
44.0000 304.0000 1.0000
44.0100 306.0000 1.0000
44.0200 315.0000 1.0000
44.0300 295.0000 1.0000
44.0400 308.0000 1.0000
44.0500 296.0000 1.0000
44.0600 299.0000 1.0000
44.0700 293.0000 1.0000
44.0800 300.0000 1.0000
44.0900 306.0000 1.0000
44.1000 317.0000 1.0000
44.1100 297.0000 1.0000
44.1200 317.0000 1.0000
44.1300 329.0000 1.0000
44.1400 290.0000 1.0000
44.1500 327.0000 1.0000
44.1600 326.0000 1.0000
44.1700 305.0000 1.0000
44.1800 338.0000 1.0000
44.1900 318.0000 1.0000
44.2000 298.0000 1.0000
44.2100 309.0000 1.0000
44.2200 304.0000 1.0000
44.2300 298.0000 1.0000
44.2400 306.0000 1.0000
44.2500 298.0000 1.0000
44.2600 284.0000 1.0000
44.2700 282.0000 1.0000
44.2800 304.0000 1.0000
44.2900 291.0000 1.0000
44.3000 304.0000 1.0000
44.3100 323.0000 1.0000
44.3200 321.0000 1.0000
44.3300 288.0000 1.0000
44.3400 296.0000 1.0000
44.3500 319.0000 1.0000
44.3600 302.0000 1.0000
44.3700 308.0000 1.0000
44.3800 284.0000 1.0000
44.3900 306.0000 1.0000
44.4000 313.0000 1.0000
44.4100 311.0000 1.0000
44.4200 288.0000 1.0000
44.4300 286.0000 1.0000
44.4400 314.0000 1.0000
44.4500 316.0000 1.0000
44.4600 313.0000 1.0000
44.4700 312.0000 1.0000
44.4800 314.0000 1.0000
44.4900 328.0000 1.0000
44.5000 292.0000 1.0000
44.5100 318.0000 1.0000
44.5200 309.0000 1.0000
44.5300 318.0000 1.0000
44.5400 294.0000 1.0000
44.5500 303.0000 1.0000
44.5600 282.0000 1.0000
44.5700 283.0000 1.0000
44.5800 284.0000 1.0000
44.5900 326.0000 1.0000
44.6000 284.0000 1.0000
44.6100 297.0000 1.0000
44.6200 325.0000 1.0000
44.6300 320.0000 1.0000
44.6400 330.0000 1.0000
44.6500 317.0000 1.0000
44.6600 309.0000 1.0000
44.6700 299.0000 1.0000
44.6800 317.0000 1.0000
44.6900 346.0000 1.0000
44.7000 311.0000 1.0000
44.7100 283.0000 1.0000
44.7200 324.0000 1.0000
44.7300 308.0000 1.0000
44.7400 304.0000 1.0000
44.7500 304.0000 1.0000
44.7600 318.0000 1.0000
44.7700 306.0000 1.0000
44.7800 287.0000 1.0000
44.7900 320.0000 1.0000
44.8000 277.0000 1.0000
44.8100 301.0000 1.0000
44.8200 310.0000 1.0000
44.8300 316.0000 1.0000
44.8400 335.0000 1.0000
44.8500 289.0000 1.0000
44.8600 290.0000 1.0000
44.8700 313.0000 1.0000
44.8800 312.0000 1.0000
44.8900 266.0000 1.0000
44.9000 283.0000 1.0000
44.9100 293.0000 1.0000
44.9200 311.0000 1.0000
44.9300 306.0000 1.0000
44.9400 291.0000 1.0000
44.9500 311.0000 1.0000
44.9600 330.0000 1.0000
44.9700 289.0000 1.0000
44.9800 297.0000 1.0000
44.9900 319.0000 1.0000
45.0000 321.0000 1.0000
45.0100 308.0000 1.0000
45.0200 304.0000 1.0000
45.0300 306.0000 1.0000
45.0400 314.0000 1.0000
45.0500 299.0000 1.0000
45.0600 297.0000 1.0000
45.0700 299.0000 1.0000
45.0800 299.0000 1.0000
45.0900 306.0000 1.0000
45.1000 304.0000 1.0000
45.1100 312.0000 1.0000
45.1200 314.0000 1.0000
45.1300 317.0000 1.0000
45.1400 306.0000 1.0000
45.1500 315.0000 1.0000
45.1600 279.0000 1.0000
45.1700 297.0000 1.0000
45.1800 308.0000 1.0000
45.1900 308.0000 1.0000
45.2000 300.0000 1.0000
45.2100 274.0000 1.0000
45.2200 291.0000 1.0000
45.2300 323.0000 1.0000
45.2400 266.0000 1.0000
45.2500 276.0000 1.0000
45.2600 301.0000 1.0000
45.2700 305.0000 1.0000
45.2800 286.0000 1.0000
45.2900 301.0000 1.0000
45.3000 317.0000 1.0000
45.3100 271.0000 1.0000
45.3200 312.0000 1.0000
45.3300 302.0000 1.0000
45.3400 305.0000 1.0000
45.3500 326.0000 1.0000
45.3600 286.0000 1.0000
45.3700 338.0000 1.0000
45.3800 318.0000 1.0000
45.3900 318.0000 1.0000
45.4000 313.0000 1.0000
45.4100 314.0000 1.0000
45.4200 310.0000 1.0000
45.4300 299.0000 1.0000
45.4400 302.0000 1.0000
45.4500 289.0000 1.0000
45.4600 307.0000 1.0000
45.4700 299.0000 1.0000
45.4800 328.0000 1.0000
45.4900 297.0000 1.0000
45.5000 291.0000 1.0000
45.5100 287.0000 1.0000
45.5200 309.0000 1.0000
45.5300 317.0000 1.0000
45.5400 336.0000 1.0000
45.5500 307.0000 1.0000
45.5600 300.0000 1.0000
45.5700 316.0000 1.0000
45.5800 288.0000 1.0000
45.5900 288.0000 1.0000
45.6000 300.0000 1.0000
45.6100 297.0000 1.0000
45.6200 282.0000 1.0000
45.6300 298.0000 1.0000
45.6400 272.0000 1.0000
45.6500 308.0000 1.0000
45.6600 286.0000 1.0000
45.6700 306.0000 1.0000
45.6800 300.0000 1.0000
45.6900 304.0000 1.0000
45.7000 313.0000 1.0000
45.7100 282.0000 1.0000
45.7200 299.0000 1.0000
45.7300 313.0000 1.0000
45.7400 311.0000 1.0000
45.7500 284.0000 1.0000
45.7600 291.0000 1.0000
45.7700 292.0000 1.0000
45.7800 273.0000 1.0000
45.7900 279.0000 1.0000
45.8000 303.0000 1.0000
45.8100 277.0000 1.0000
45.8200 286.0000 1.0000
45.8300 305.0000 1.0000
45.8400 310.0000 1.0000
45.8500 310.0000 1.0000
45.8600 300.0000 1.0000
45.8700 303.0000 1.0000
45.8800 280.0000 1.0000
45.8900 297.0000 1.0000
45.9000 293.0000 1.0000
45.9100 316.0000 1.0000
45.9200 294.0000 1.0000
45.9300 265.0000 1.0000
45.9400 314.0000 1.0000
45.9500 301.0000 1.0000
45.9600 275.0000 1.0000
45.9700 269.0000 1.0000
45.9800 288.0000 1.0000
45.9900 285.0000 1.0000
46.0000 264.0000 1.0000
46.0100 271.0000 1.0000
46.0200 295.0000 1.0000
46.0300 275.0000 1.0000
46.0400 287.0000 1.0000
46.0500 288.0000 1.0000
46.0600 292.0000 1.0000
46.0700 315.0000 1.0000
46.0800 316.0000 1.0000
46.0900 296.0000 1.0000
46.1000 274.0000 1.0000
46.1100 320.0000 1.0000
46.1200 306.0000 1.0000
46.1300 276.0000 1.0000
46.1400 298.0000 1.0000
46.1500 272.0000 1.0000
46.1600 281.0000 1.0000
46.1700 278.0000 1.0000
46.1800 297.0000 1.0000
46.1900 278.0000 1.0000
46.2000 317.0000 1.0000
46.2100 287.0000 1.0000
46.2200 310.0000 1.0000
46.2300 309.0000 1.0000
46.2400 277.0000 1.0000
46.2500 297.0000 1.0000
46.2600 294.0000 1.0000
46.2700 281.0000 1.0000
46.2800 276.0000 1.0000
46.2900 289.0000 1.0000
46.3000 283.0000 1.0000
46.3100 306.0000 1.0000
46.3200 308.0000 1.0000
46.3300 287.0000 1.0000
46.3400 316.0000 1.0000
46.3500 306.0000 1.0000
46.3600 278.0000 1.0000
46.3700 309.0000 1.0000
46.3800 307.0000 1.0000
46.3900 328.0000 1.0000
46.4000 311.0000 1.0000
46.4100 316.0000 1.0000
46.4200 272.0000 1.0000
46.4300 282.0000 1.0000
46.4400 306.0000 1.0000
46.4500 297.0000 1.0000
46.4600 293.0000 1.0000
46.4700 290.0000 1.0000
46.4800 280.0000 1.0000
46.4900 321.0000 1.0000
46.5000 285.0000 1.0000
46.5100 284.0000 1.0000
46.5200 288.0000 1.0000
46.5300 274.0000 1.0000
46.5400 294.0000 1.0000
46.5500 290.0000 1.0000
46.5600 314.0000 1.0000
46.5700 302.0000 1.0000
46.5800 297.0000 1.0000
46.5900 308.0000 1.0000
46.6000 324.0000 1.0000
46.6100 294.0000 1.0000
46.6200 287.0000 1.0000
46.6300 305.0000 1.0000
46.6400 295.0000 1.0000
46.6500 312.0000 1.0000
46.6600 281.0000 1.0000
46.6700 274.0000 1.0000
46.6800 297.0000 1.0000
46.6900 300.0000 1.0000
46.7000 305.0000 1.0000
46.7100 317.0000 1.0000
46.7200 309.0000 1.0000
46.7300 282.0000 1.0000
46.7400 285.0000 1.0000
46.7500 282.0000 1.0000
46.7600 272.0000 1.0000
46.7700 289.0000 1.0000
46.7800 296.0000 1.0000
46.7900 307.0000 1.0000
46.8000 287.0000 1.0000
46.8100 305.0000 1.0000
46.8200 284.0000 1.0000
46.8300 286.0000 1.0000
46.8400 286.0000 1.0000
46.8500 285.0000 1.0000
46.8600 296.0000 1.0000
46.8700 307.0000 1.0000
46.8800 294.0000 1.0000
46.8900 320.0000 1.0000
46.9000 305.0000 1.0000
46.9100 294.0000 1.0000
46.9200 281.0000 1.0000
46.9300 310.0000 1.0000
46.9400 295.0000 1.0000
46.9500 301.0000 1.0000
46.9600 318.0000 1.0000
46.9700 301.0000 1.0000
46.9800 307.0000 1.0000
46.9900 298.0000 1.0000
47.0000 333.0000 1.0000
47.0100 286.0000 1.0000
47.0200 312.0000 1.0000
47.0300 320.0000 1.0000
47.0400 297.0000 1.0000
47.0500 284.0000 1.0000
47.0600 296.0000 1.0000
47.0700 288.0000 1.0000
47.0800 283.0000 1.0000
47.0900 301.0000 1.0000
47.1000 281.0000 1.0000
47.1100 298.0000 1.0000
47.1200 305.0000 1.0000
47.1300 288.0000 1.0000
47.1400 294.0000 1.0000
47.1500 297.0000 1.0000
47.1600 314.0000 1.0000
47.1700 312.0000 1.0000
47.1800 311.0000 1.0000
47.1900 307.0000 1.0000
47.2000 291.0000 1.0000
47.2100 301.0000 1.0000
47.2200 294.0000 1.0000
47.2300 282.0000 1.0000
47.2400 282.0000 1.0000
47.2500 275.0000 1.0000
47.2600 290.0000 1.0000
47.2700 281.0000 1.0000
47.2800 275.0000 1.0000
47.2900 308.0000 1.0000
47.3000 274.0000 1.0000
47.3100 302.0000 1.0000
47.3200 273.0000 1.0000
47.3300 297.0000 1.0000
47.3400 294.0000 1.0000
47.3500 273.0000 1.0000
47.3600 265.0000 1.0000
47.3700 274.0000 1.0000
47.3800 280.0000 1.0000
47.3900 311.0000 1.0000
47.4000 265.0000 1.0000
47.4100 298.0000 1.0000
47.4200 300.0000 1.0000
47.4300 287.0000 1.0000
47.4400 284.0000 1.0000
47.4500 277.0000 1.0000
47.4600 289.0000 1.0000
47.4700 308.0000 1.0000
47.4800 307.0000 1.0000
47.4900 256.0000 1.0000
47.5000 286.0000 1.0000
47.5100 290.0000 1.0000
47.5200 296.0000 1.0000
47.5300 296.0000 1.0000
47.5400 295.0000 1.0000
47.5500 305.0000 1.0000
47.5600 270.0000 1.0000
47.5700 251.0000 1.0000
47.5800 299.0000 1.0000
47.5900 281.0000 1.0000
47.6000 265.0000 1.0000
47.6100 262.0000 1.0000
47.6200 271.0000 1.0000
47.6300 266.0000 1.0000
47.6400 271.0000 1.0000
47.6500 275.0000 1.0000
47.6600 272.0000 1.0000
47.6700 280.0000 1.0000
47.6800 281.0000 1.0000
47.6900 270.0000 1.0000
47.7000 265.0000 1.0000
47.7100 288.0000 1.0000
47.7200 295.0000 1.0000
47.7300 289.0000 1.0000
47.7400 318.0000 1.0000
47.7500 278.0000 1.0000
47.7600 262.0000 1.0000
47.7700 269.0000 1.0000
47.7800 284.0000 1.0000
47.7900 274.0000 1.0000
47.8000 304.0000 1.0000
47.8100 280.0000 1.0000
47.8200 276.0000 1.0000
47.8300 281.0000 1.0000
47.8400 323.0000 1.0000
47.8500 309.0000 1.0000
47.8600 256.0000 1.0000
47.8700 274.0000 1.0000
47.8800 304.0000 1.0000
47.8900 271.0000 1.0000
47.9000 272.0000 1.0000
47.9100 265.0000 1.0000
47.9200 292.0000 1.0000
47.9300 297.0000 1.0000
47.9400 274.0000 1.0000
47.9500 278.0000 1.0000
47.9600 293.0000 1.0000
47.9700 269.0000 1.0000
47.9800 305.0000 1.0000
47.9900 293.0000 1.0000
48.0000 267.0000 1.0000
48.0100 278.0000 1.0000
48.0200 274.0000 1.0000
48.0300 257.0000 1.0000
48.0400 270.0000 1.0000
48.0500 274.0000 1.0000
48.0600 289.0000 1.0000
48.0700 265.0000 1.0000
48.0800 287.0000 1.0000
48.0900 273.0000 1.0000
48.1000 260.0000 1.0000
48.1100 273.0000 1.0000
48.1200 278.0000 1.0000
48.1300 302.0000 1.0000
48.1400 275.0000 1.0000
48.1500 291.0000 1.0000
48.1600 290.0000 1.0000
48.1700 259.0000 1.0000
48.1800 253.0000 1.0000
48.1900 268.0000 1.0000
48.2000 264.0000 1.0000
48.2100 261.0000 1.0000
48.2200 297.0000 1.0000
48.2300 287.0000 1.0000
48.2400 276.0000 1.0000
48.2500 282.0000 1.0000
48.2600 285.0000 1.0000
48.2700 270.0000 1.0000
48.2800 294.0000 1.0000
48.2900 285.0000 1.0000
48.3000 262.0000 1.0000
48.3100 265.0000 1.0000
48.3200 322.0000 1.0000
48.3300 293.0000 1.0000
48.3400 297.0000 1.0000
48.3500 267.0000 1.0000
48.3600 295.0000 1.0000
48.3700 289.0000 1.0000
48.3800 292.0000 1.0000
48.3900 278.0000 1.0000
48.4000 251.0000 1.0000
48.4100 281.0000 1.0000
48.4200 282.0000 1.0000
48.4300 263.0000 1.0000
48.4400 291.0000 1.0000
48.4500 286.0000 1.0000
48.4600 298.0000 1.0000
48.4700 272.0000 1.0000
48.4800 292.0000 1.0000
48.4900 274.0000 1.0000
48.5000 274.0000 1.0000
48.5100 241.0000 1.0000
48.5200 269.0000 1.0000
48.5300 269.0000 1.0000
48.5400 267.0000 1.0000
48.5500 305.0000 1.0000
48.5600 300.0000 1.0000
48.5700 265.0000 1.0000
48.5800 257.0000 1.0000
48.5900 263.0000 1.0000
48.6000 257.0000 1.0000
48.6100 271.0000 1.0000
48.6200 264.0000 1.0000
48.6300 260.0000 1.0000
48.6400 237.0000 1.0000
48.6500 262.0000 1.0000
48.6600 286.0000 1.0000
48.6700 287.0000 1.0000
48.6800 276.0000 1.0000
48.6900 285.0000 1.0000
48.7000 265.0000 1.0000
48.7100 272.0000 1.0000
48.7200 290.0000 1.0000
48.7300 296.0000 1.0000
48.7400 274.0000 1.0000
48.7500 268.0000 1.0000
48.7600 310.0000 1.0000
48.7700 298.0000 1.0000
48.7800 258.0000 1.0000
48.7900 273.0000 1.0000
48.8000 296.0000 1.0000
48.8100 282.0000 1.0000
48.8200 262.0000 1.0000
48.8300 270.0000 1.0000
48.8400 277.0000 1.0000
48.8500 291.0000 1.0000
48.8600 266.0000 1.0000
48.8700 274.0000 1.0000
48.8800 259.0000 1.0000
48.8900 289.0000 1.0000
48.9000 281.0000 1.0000
48.9100 257.0000 1.0000
48.9200 269.0000 1.0000
48.9300 279.0000 1.0000
48.9400 277.0000 1.0000
48.9500 280.0000 1.0000
48.9600 252.0000 1.0000
48.9700 279.0000 1.0000
48.9800 281.0000 1.0000
48.9900 295.0000 1.0000
49.0000 268.0000 1.0000
49.0100 290.0000 1.0000
49.0200 294.0000 1.0000
49.0300 266.0000 1.0000
49.0400 260.0000 1.0000
49.0500 287.0000 1.0000
49.0600 257.0000 1.0000
49.0700 279.0000 1.0000
49.0800 311.0000 1.0000
49.0900 292.0000 1.0000
49.1000 278.0000 1.0000
49.1100 295.0000 1.0000
49.1200 294.0000 1.0000
49.1300 272.0000 1.0000
49.1400 279.0000 1.0000
49.1500 267.0000 1.0000
49.1600 272.0000 1.0000
49.1700 272.0000 1.0000
49.1800 282.0000 1.0000
49.1900 283.0000 1.0000
49.2000 268.0000 1.0000
49.2100 279.0000 1.0000
49.2200 246.0000 1.0000
49.2300 285.0000 1.0000
49.2400 294.0000 1.0000
49.2500 268.0000 1.0000
49.2600 257.0000 1.0000
49.2700 277.0000 1.0000
49.2800 257.0000 1.0000
49.2900 275.0000 1.0000
49.3000 277.0000 1.0000
49.3100 271.0000 1.0000
49.3200 269.0000 1.0000
49.3300 291.0000 1.0000
49.3400 276.0000 1.0000
49.3500 270.0000 1.0000
49.3600 296.0000 1.0000
49.3700 289.0000 1.0000
49.3800 273.0000 1.0000
49.3900 263.0000 1.0000
49.4000 260.0000 1.0000
49.4100 266.0000 1.0000
49.4200 265.0000 1.0000
49.4300 263.0000 1.0000
49.4400 276.0000 1.0000
49.4500 277.0000 1.0000
49.4600 280.0000 1.0000
49.4700 280.0000 1.0000
49.4800 270.0000 1.0000
49.4900 264.0000 1.0000
49.5000 278.0000 1.0000
49.5100 271.0000 1.0000
49.5200 281.0000 1.0000
49.5300 290.0000 1.0000
49.5400 297.0000 1.0000
49.5500 275.0000 1.0000
49.5600 295.0000 1.0000
49.5700 269.0000 1.0000
49.5800 267.0000 1.0000
49.5900 268.0000 1.0000
49.6000 248.0000 1.0000
49.6100 280.0000 1.0000
49.6200 271.0000 1.0000
49.6300 257.0000 1.0000
49.6400 285.0000 1.0000
49.6500 254.0000 1.0000
49.6600 278.0000 1.0000
49.6700 288.0000 1.0000
49.6800 270.0000 1.0000
49.6900 281.0000 1.0000
49.7000 287.0000 1.0000
49.7100 271.0000 1.0000
49.7200 268.0000 1.0000
49.7300 279.0000 1.0000
49.7400 276.0000 1.0000
49.7500 272.0000 1.0000
49.7600 275.0000 1.0000
49.7700 255.0000 1.0000
49.7800 254.0000 1.0000
49.7900 259.0000 1.0000
49.8000 249.0000 1.0000
49.8100 289.0000 1.0000
49.8200 243.0000 1.0000
49.8300 274.0000 1.0000
49.8400 275.0000 1.0000
49.8500 263.0000 1.0000
49.8600 267.0000 1.0000
49.8700 269.0000 1.0000
49.8800 283.0000 1.0000
49.8900 282.0000 1.0000
49.9000 274.0000 1.0000
49.9100 290.0000 1.0000
49.9200 292.0000 1.0000
49.9300 263.0000 1.0000
49.9400 257.0000 1.0000
49.9500 285.0000 1.0000
49.9600 266.0000 1.0000
49.9700 269.0000 1.0000
49.9800 293.0000 1.0000
49.9900 285.0000 1.0000
50.0000 277.0000 1.0000
50.0100 275.0000 1.0000
50.0200 279.0000 1.0000
50.0300 293.0000 1.0000
50.0400 281.0000 1.0000
50.0500 266.0000 1.0000
50.0600 278.0000 1.0000
50.0700 282.0000 1.0000
50.0800 264.0000 1.0000
50.0900 278.0000 1.0000
50.1000 280.0000 1.0000
50.1100 269.0000 1.0000
50.1200 264.0000 1.0000
50.1300 271.0000 1.0000
50.1400 251.0000 1.0000
50.1500 268.0000 1.0000
50.1600 282.0000 1.0000
50.1700 262.0000 1.0000
50.1800 285.0000 1.0000
50.1900 264.0000 1.0000
50.2000 253.0000 1.0000
50.2100 258.0000 1.0000
50.2200 266.0000 1.0000
50.2300 267.0000 1.0000
50.2400 305.0000 1.0000
50.2500 298.0000 1.0000
50.2600 296.0000 1.0000
50.2700 278.0000 1.0000
50.2800 295.0000 1.0000
50.2900 304.0000 1.0000
50.3000 304.0000 1.0000
50.3100 286.0000 1.0000
50.3200 276.0000 1.0000
50.3300 248.0000 1.0000
50.3400 260.0000 1.0000
50.3500 269.0000 1.0000
50.3600 275.0000 1.0000
50.3700 278.0000 1.0000
50.3800 319.0000 1.0000
50.3900 291.0000 1.0000
50.4000 285.0000 1.0000
50.4100 255.0000 1.0000
50.4200 279.0000 1.0000
50.4300 298.0000 1.0000
50.4400 261.0000 1.0000
50.4500 265.0000 1.0000
50.4600 293.0000 1.0000
50.4700 290.0000 1.0000
50.4800 287.0000 1.0000
50.4900 261.0000 1.0000
50.5000 266.0000 1.0000
50.5100 315.0000 1.0000
50.5200 298.0000 1.0000
50.5300 272.0000 1.0000
50.5400 285.0000 1.0000
50.5500 290.0000 1.0000
50.5600 285.0000 1.0000
50.5700 273.0000 1.0000
50.5800 288.0000 1.0000
50.5900 270.0000 1.0000
50.6000 278.0000 1.0000
50.6100 302.0000 1.0000
50.6200 284.0000 1.0000
50.6300 290.0000 1.0000
50.6400 291.0000 1.0000
50.6500 286.0000 1.0000
50.6600 294.0000 1.0000
50.6700 303.0000 1.0000
50.6800 282.0000 1.0000
50.6900 281.0000 1.0000
50.7000 280.0000 1.0000
50.7100 281.0000 1.0000
50.7200 288.0000 1.0000
50.7300 295.0000 1.0000
50.7400 281.0000 1.0000
50.7500 280.0000 1.0000
50.7600 274.0000 1.0000
50.7700 263.0000 1.0000
50.7800 256.0000 1.0000
50.7900 281.0000 1.0000
50.8000 261.0000 1.0000
50.8100 267.0000 1.0000
50.8200 272.0000 1.0000
50.8300 272.0000 1.0000
50.8400 290.0000 1.0000
50.8500 298.0000 1.0000
50.8600 252.0000 1.0000
50.8700 301.0000 1.0000
50.8800 291.0000 1.0000
50.8900 269.0000 1.0000
50.9000 268.0000 1.0000
50.9100 287.0000 1.0000
50.9200 276.0000 1.0000
50.9300 260.0000 1.0000
50.9400 277.0000 1.0000
50.9500 298.0000 1.0000
50.9600 284.0000 1.0000
50.9700 300.0000 1.0000
50.9800 274.0000 1.0000
50.9900 278.0000 1.0000
51.0000 290.0000 1.0000
51.0100 291.0000 1.0000
51.0200 265.0000 1.0000
51.0300 294.0000 1.0000
51.0400 286.0000 1.0000
51.0500 275.0000 1.0000
51.0600 268.0000 1.0000
51.0700 282.0000 1.0000
51.0800 287.0000 1.0000
51.0900 261.0000 1.0000
51.1000 293.0000 1.0000
51.1100 302.0000 1.0000
51.1200 287.0000 1.0000
51.1300 281.0000 1.0000
51.1400 279.0000 1.0000
51.1500 282.0000 1.0000
51.1600 278.0000 1.0000
51.1700 289.0000 1.0000
51.1800 273.0000 1.0000
51.1900 252.0000 1.0000
51.2000 246.0000 1.0000
51.2100 279.0000 1.0000
51.2200 262.0000 1.0000
51.2300 272.0000 1.0000
51.2400 288.0000 1.0000
51.2500 276.0000 1.0000
51.2600 273.0000 1.0000
51.2700 292.0000 1.0000
51.2800 268.0000 1.0000
51.2900 275.0000 1.0000
51.3000 272.0000 1.0000
51.3100 275.0000 1.0000
51.3200 298.0000 1.0000
51.3300 270.0000 1.0000
51.3400 272.0000 1.0000
51.3500 293.0000 1.0000
51.3600 289.0000 1.0000
51.3700 270.0000 1.0000
51.3800 283.0000 1.0000
51.3900 263.0000 1.0000
51.4000 278.0000 1.0000
51.4100 269.0000 1.0000
51.4200 263.0000 1.0000
51.4300 273.0000 1.0000
51.4400 269.0000 1.0000
51.4500 286.0000 1.0000
51.4600 270.0000 1.0000
51.4700 283.0000 1.0000
51.4800 266.0000 1.0000
51.4900 258.0000 1.0000
51.5000 300.0000 1.0000
51.5100 341.0000 1.0000
51.5200 315.0000 1.0000
51.5300 277.0000 1.0000
51.5400 278.0000 1.0000
51.5500 289.0000 1.0000
51.5600 299.0000 1.0000
51.5700 265.0000 1.0000
51.5800 288.0000 1.0000
51.5900 274.0000 1.0000
51.6000 276.0000 1.0000
51.6100 283.0000 1.0000
51.6200 295.0000 1.0000
51.6300 292.0000 1.0000
51.6400 298.0000 1.0000
51.6500 310.0000 1.0000
51.6600 266.0000 1.0000
51.6700 280.0000 1.0000
51.6800 294.0000 1.0000
51.6900 288.0000 1.0000
51.7000 298.0000 1.0000
51.7100 304.0000 1.0000
51.7200 316.0000 1.0000
51.7300 297.0000 1.0000
51.7400 291.0000 1.0000
51.7500 307.0000 1.0000
51.7600 344.0000 1.0000
51.7700 282.0000 1.0000
51.7800 317.0000 1.0000
51.7900 328.0000 1.0000
51.8000 306.0000 1.0000
51.8100 315.0000 1.0000
51.8200 330.0000 1.0000
51.8300 315.0000 1.0000
51.8400 322.0000 1.0000
51.8500 327.0000 1.0000
51.8600 331.0000 1.0000
51.8700 335.0000 1.0000
51.8800 385.0000 1.0000
51.8900 365.0000 1.0000
51.9000 393.0000 1.0000
51.9100 384.0000 1.0000
51.9200 375.0000 1.0000
51.9300 427.0000 1.0000
51.9400 387.0000 1.0000
51.9500 413.0000 1.0000
51.9600 416.0000 1.0000
51.9700 453.0000 1.0000
51.9800 499.0000 1.0000
51.9900 501.0000 1.0000
52.0000 513.0000 1.0000
52.0100 525.0000 1.0000
52.0200 548.0000 1.0000
52.0300 561.0000 1.0000
52.0400 570.0000 1.0000
52.0500 611.0000 1.0000
52.0600 651.0000 1.0000
52.0700 641.0000 1.0000
52.0800 723.0000 1.0000
52.0900 739.0000 1.0000
52.1000 802.0000 1.0000
52.1100 872.0000 1.0000
52.1200 944.0000 1.0000
52.1300 1095.0000 1.0000
52.1400 1101.0000 1.0000
52.1500 1277.0000 1.0000
52.1600 1321.0000 1.0000
52.1700 1504.0000 1.0000
52.1800 1744.0000 1.0000
52.1900 1763.0000 1.0000
52.2000 1860.0000 1.0000
52.2100 2020.0000 1.0000
52.2200 2056.0000 1.0000
52.2300 2146.0000 1.0000
52.2400 2203.0000 1.0000
52.2500 2254.0000 1.0000
52.2600 2231.0000 1.0000
52.2700 2153.0000 1.0000
52.2800 2052.0000 1.0000
52.2900 2064.0000 1.0000
52.3000 1970.0000 1.0000
52.3100 1859.0000 1.0000
52.3200 1870.0000 1.0000
52.3300 1818.0000 1.0000
52.3400 1747.0000 1.0000
52.3500 1769.0000 1.0000
52.3600 1731.0000 1.0000
52.3700 1676.0000 1.0000
52.3800 1598.0000 1.0000
52.3900 1481.0000 1.0000
52.4000 1489.0000 1.0000
52.4100 1411.0000 1.0000
52.4200 1351.0000 1.0000
52.4300 1192.0000 1.0000
52.4400 1090.0000 1.0000
52.4500 1031.0000 1.0000
52.4600 924.0000 1.0000
52.4700 918.0000 1.0000
52.4800 874.0000 1.0000
52.4900 827.0000 1.0000
52.5000 750.0000 1.0000
52.5100 702.0000 1.0000
52.5200 668.0000 1.0000
52.5300 655.0000 1.0000
52.5400 608.0000 1.0000
52.5500 547.0000 1.0000
52.5600 538.0000 1.0000
52.5700 517.0000 1.0000
52.5800 495.0000 1.0000
52.5900 484.0000 1.0000
52.6000 480.0000 1.0000
52.6100 470.0000 1.0000
52.6200 434.0000 1.0000
52.6300 420.0000 1.0000
52.6400 397.0000 1.0000
52.6500 408.0000 1.0000
52.6600 398.0000 1.0000
52.6700 364.0000 1.0000
52.6800 362.0000 1.0000
52.6900 347.0000 1.0000
52.7000 353.0000 1.0000
52.7100 368.0000 1.0000
52.7200 353.0000 1.0000
52.7300 355.0000 1.0000
52.7400 366.0000 1.0000
52.7500 335.0000 1.0000
52.7600 310.0000 1.0000
52.7700 352.0000 1.0000
52.7800 335.0000 1.0000
52.7900 344.0000 1.0000
52.8000 325.0000 1.0000
52.8100 324.0000 1.0000
52.8200 310.0000 1.0000
52.8300 333.0000 1.0000
52.8400 323.0000 1.0000
52.8500 323.0000 1.0000
52.8600 337.0000 1.0000
52.8700 342.0000 1.0000
52.8800 325.0000 1.0000
52.8900 317.0000 1.0000
52.9000 314.0000 1.0000
52.9100 320.0000 1.0000
52.9200 321.0000 1.0000
52.9300 311.0000 1.0000
52.9400 301.0000 1.0000
52.9500 307.0000 1.0000
52.9600 291.0000 1.0000
52.9700 280.0000 1.0000
52.9800 291.0000 1.0000
52.9900 293.0000 1.0000
53.0000 304.0000 1.0000
53.0100 310.0000 1.0000
53.0200 286.0000 1.0000
53.0300 268.0000 1.0000
53.0400 285.0000 1.0000
53.0500 307.0000 1.0000
53.0600 257.0000 1.0000
53.0700 275.0000 1.0000
53.0800 284.0000 1.0000
53.0900 286.0000 1.0000
53.1000 283.0000 1.0000
53.1100 267.0000 1.0000
53.1200 277.0000 1.0000
53.1300 270.0000 1.0000
53.1400 298.0000 1.0000
53.1500 280.0000 1.0000
53.1600 294.0000 1.0000
53.1700 287.0000 1.0000
53.1800 290.0000 1.0000
53.1900 281.0000 1.0000
53.2000 260.0000 1.0000
53.2100 262.0000 1.0000
53.2200 277.0000 1.0000
53.2300 278.0000 1.0000
53.2400 256.0000 1.0000
53.2500 244.0000 1.0000
53.2600 269.0000 1.0000
53.2700 277.0000 1.0000
53.2800 279.0000 1.0000
53.2900 291.0000 1.0000
53.3000 276.0000 1.0000
53.3100 276.0000 1.0000
53.3200 275.0000 1.0000
53.3300 270.0000 1.0000
53.3400 272.0000 1.0000
53.3500 255.0000 1.0000
53.3600 284.0000 1.0000
53.3700 270.0000 1.0000
53.3800 287.0000 1.0000
53.3900 259.0000 1.0000
53.4000 274.0000 1.0000
53.4100 278.0000 1.0000
53.4200 292.0000 1.0000
53.4300 250.0000 1.0000
53.4400 281.0000 1.0000
53.4500 254.0000 1.0000
53.4600 284.0000 1.0000
53.4700 265.0000 1.0000
53.4800 309.0000 1.0000
53.4900 256.0000 1.0000
53.5000 276.0000 1.0000
53.5100 277.0000 1.0000
53.5200 238.0000 1.0000
53.5300 257.0000 1.0000
53.5400 296.0000 1.0000
53.5500 276.0000 1.0000
53.5600 280.0000 1.0000
53.5700 272.0000 1.0000
53.5800 292.0000 1.0000
53.5900 293.0000 1.0000
53.6000 258.0000 1.0000
53.6100 284.0000 1.0000
53.6200 271.0000 1.0000
53.6300 252.0000 1.0000
53.6400 273.0000 1.0000
53.6500 275.0000 1.0000
53.6600 304.0000 1.0000
53.6700 296.0000 1.0000
53.6800 228.0000 1.0000
53.6900 265.0000 1.0000
53.7000 234.0000 1.0000
53.7100 266.0000 1.0000
53.7200 259.0000 1.0000
53.7300 256.0000 1.0000
53.7400 265.0000 1.0000
53.7500 283.0000 1.0000
53.7600 284.0000 1.0000
53.7700 269.0000 1.0000
53.7800 270.0000 1.0000
53.7900 246.0000 1.0000
53.8000 256.0000 1.0000
53.8100 269.0000 1.0000
53.8200 263.0000 1.0000
53.8300 277.0000 1.0000
53.8400 290.0000 1.0000
53.8500 239.0000 1.0000
53.8600 247.0000 1.0000
53.8700 278.0000 1.0000
53.8800 280.0000 1.0000
53.8900 267.0000 1.0000
53.9000 257.0000 1.0000
53.9100 260.0000 1.0000
53.9200 266.0000 1.0000
53.9300 276.0000 1.0000
53.9400 245.0000 1.0000
53.9500 247.0000 1.0000
53.9600 271.0000 1.0000
53.9700 275.0000 1.0000
53.9800 244.0000 1.0000
53.9900 244.0000 1.0000
54.0000 252.0000 1.0000
54.0100 288.0000 1.0000
54.0200 272.0000 1.0000
54.0300 274.0000 1.0000
54.0400 253.0000 1.0000
54.0500 267.0000 1.0000
54.0600 298.0000 1.0000
54.0700 251.0000 1.0000
54.0800 251.0000 1.0000
54.0900 289.0000 1.0000
54.1000 279.0000 1.0000
54.1100 249.0000 1.0000
54.1200 235.0000 1.0000
54.1300 257.0000 1.0000
54.1400 260.0000 1.0000
54.1500 265.0000 1.0000
54.1600 272.0000 1.0000
54.1700 268.0000 1.0000
54.1800 274.0000 1.0000
54.1900 277.0000 1.0000
54.2000 301.0000 1.0000
54.2100 270.0000 1.0000
54.2200 259.0000 1.0000
54.2300 253.0000 1.0000
54.2400 264.0000 1.0000
54.2500 265.0000 1.0000
54.2600 276.0000 1.0000
54.2700 280.0000 1.0000
54.2800 283.0000 1.0000
54.2900 266.0000 1.0000
54.3000 250.0000 1.0000
54.3100 284.0000 1.0000
54.3200 257.0000 1.0000
54.3300 282.0000 1.0000
54.3400 260.0000 1.0000
54.3500 251.0000 1.0000
54.3600 277.0000 1.0000
54.3700 266.0000 1.0000
54.3800 270.0000 1.0000
54.3900 271.0000 1.0000
54.4000 238.0000 1.0000
54.4100 259.0000 1.0000
54.4200 266.0000 1.0000
54.4300 263.0000 1.0000
54.4400 279.0000 1.0000
54.4500 265.0000 1.0000
54.4600 281.0000 1.0000
54.4700 275.0000 1.0000
54.4800 280.0000 1.0000
54.4900 276.0000 1.0000
54.5000 274.0000 1.0000
54.5100 262.0000 1.0000
54.5200 278.0000 1.0000
54.5300 270.0000 1.0000
54.5400 255.0000 1.0000
54.5500 265.0000 1.0000
54.5600 275.0000 1.0000
54.5700 262.0000 1.0000
54.5800 268.0000 1.0000
54.5900 262.0000 1.0000
54.6000 291.0000 1.0000
54.6100 259.0000 1.0000
54.6200 259.0000 1.0000
54.6300 271.0000 1.0000
54.6400 295.0000 1.0000
54.6500 266.0000 1.0000
54.6600 268.0000 1.0000
54.6700 300.0000 1.0000
54.6800 265.0000 1.0000
54.6900 302.0000 1.0000
54.7000 279.0000 1.0000
54.7100 278.0000 1.0000
54.7200 281.0000 1.0000
54.7300 266.0000 1.0000
54.7400 264.0000 1.0000
54.7500 268.0000 1.0000
54.7600 266.0000 1.0000
54.7700 289.0000 1.0000
54.7800 283.0000 1.0000
54.7900 274.0000 1.0000
54.8000 284.0000 1.0000
54.8100 271.0000 1.0000
54.8200 290.0000 1.0000
54.8300 302.0000 1.0000
54.8400 298.0000 1.0000
54.8500 260.0000 1.0000
54.8600 261.0000 1.0000
54.8700 288.0000 1.0000
54.8800 298.0000 1.0000
54.8900 274.0000 1.0000
54.9000 263.0000 1.0000
54.9100 302.0000 1.0000
54.9200 279.0000 1.0000
54.9300 290.0000 1.0000
54.9400 281.0000 1.0000
54.9500 296.0000 1.0000
54.9600 281.0000 1.0000
54.9700 295.0000 1.0000
54.9800 256.0000 1.0000
54.9900 314.0000 1.0000
55.0000 283.0000 1.0000
55.0100 310.0000 1.0000
55.0200 295.0000 1.0000
55.0300 315.0000 1.0000
55.0400 323.0000 1.0000
55.0500 333.0000 1.0000
55.0600 321.0000 1.0000
55.0700 327.0000 1.0000
55.0800 307.0000 1.0000
55.0900 335.0000 1.0000
55.1000 329.0000 1.0000
55.1100 339.0000 1.0000
55.1200 324.0000 1.0000
55.1300 336.0000 1.0000
55.1400 342.0000 1.0000
55.1500 342.0000 1.0000
55.1600 371.0000 1.0000
55.1700 360.0000 1.0000
55.1800 386.0000 1.0000
55.1900 395.0000 1.0000
55.2000 429.0000 1.0000
55.2100 413.0000 1.0000
55.2200 427.0000 1.0000
55.2300 393.0000 1.0000
55.2400 416.0000 1.0000
55.2500 422.0000 1.0000
55.2600 417.0000 1.0000
55.2700 419.0000 1.0000
55.2800 405.0000 1.0000
55.2900 427.0000 1.0000
55.3000 429.0000 1.0000
55.3100 413.0000 1.0000
55.3200 440.0000 1.0000
55.3300 392.0000 1.0000
55.3400 385.0000 1.0000
55.3500 385.0000 1.0000
55.3600 390.0000 1.0000
55.3700 414.0000 1.0000
55.3800 403.0000 1.0000
55.3900 392.0000 1.0000
55.4000 363.0000 1.0000
55.4100 382.0000 1.0000
55.4200 391.0000 1.0000
55.4300 345.0000 1.0000
55.4400 348.0000 1.0000
55.4500 353.0000 1.0000
55.4600 349.0000 1.0000
55.4700 351.0000 1.0000
55.4800 334.0000 1.0000
55.4900 301.0000 1.0000
55.5000 332.0000 1.0000
55.5100 335.0000 1.0000
55.5200 299.0000 1.0000
55.5300 316.0000 1.0000
55.5400 300.0000 1.0000
55.5500 331.0000 1.0000
55.5600 306.0000 1.0000
55.5700 314.0000 1.0000
55.5800 306.0000 1.0000
55.5900 311.0000 1.0000
55.6000 327.0000 1.0000
55.6100 269.0000 1.0000
55.6200 290.0000 1.0000
55.6300 287.0000 1.0000
55.6400 277.0000 1.0000
55.6500 305.0000 1.0000
55.6600 300.0000 1.0000
55.6700 295.0000 1.0000
55.6800 266.0000 1.0000
55.6900 294.0000 1.0000
55.7000 310.0000 1.0000
55.7100 286.0000 1.0000
55.7200 284.0000 1.0000
55.7300 281.0000 1.0000
55.7400 274.0000 1.0000
55.7500 268.0000 1.0000
55.7600 290.0000 1.0000
55.7700 262.0000 1.0000
55.7800 295.0000 1.0000
55.7900 304.0000 1.0000
55.8000 264.0000 1.0000
55.8100 281.0000 1.0000
55.8200 281.0000 1.0000
55.8300 261.0000 1.0000
55.8400 276.0000 1.0000
55.8500 274.0000 1.0000
55.8600 271.0000 1.0000
55.8700 254.0000 1.0000
55.8800 271.0000 1.0000
55.8900 259.0000 1.0000
55.9000 241.0000 1.0000
55.9100 264.0000 1.0000
55.9200 251.0000 1.0000
55.9300 259.0000 1.0000
55.9400 250.0000 1.0000
55.9500 277.0000 1.0000
55.9600 273.0000 1.0000
55.9700 280.0000 1.0000
55.9800 255.0000 1.0000
55.9900 281.0000 1.0000
56.0000 257.0000 1.0000
56.0100 266.0000 1.0000
56.0200 257.0000 1.0000
56.0300 261.0000 1.0000
56.0400 278.0000 1.0000
56.0500 252.0000 1.0000
56.0600 265.0000 1.0000
56.0700 297.0000 1.0000
56.0800 275.0000 1.0000
56.0900 258.0000 1.0000
56.1000 253.0000 1.0000
56.1100 267.0000 1.0000
56.1200 286.0000 1.0000
56.1300 255.0000 1.0000
56.1400 232.0000 1.0000
56.1500 264.0000 1.0000
56.1600 250.0000 1.0000
56.1700 252.0000 1.0000
56.1800 261.0000 1.0000
56.1900 258.0000 1.0000
56.2000 255.0000 1.0000
56.2100 264.0000 1.0000
56.2200 293.0000 1.0000
56.2300 273.0000 1.0000
56.2400 270.0000 1.0000
56.2500 266.0000 1.0000
56.2600 254.0000 1.0000
56.2700 235.0000 1.0000
56.2800 269.0000 1.0000
56.2900 246.0000 1.0000
56.3000 259.0000 1.0000
56.3100 289.0000 1.0000
56.3200 261.0000 1.0000
56.3300 259.0000 1.0000
56.3400 251.0000 1.0000
56.3500 257.0000 1.0000
56.3600 269.0000 1.0000
56.3700 266.0000 1.0000
56.3800 255.0000 1.0000
56.3900 250.0000 1.0000
56.4000 258.0000 1.0000
56.4100 264.0000 1.0000
56.4200 256.0000 1.0000
56.4300 235.0000 1.0000
56.4400 252.0000 1.0000
56.4500 244.0000 1.0000
56.4600 277.0000 1.0000
56.4700 228.0000 1.0000
56.4800 253.0000 1.0000
56.4900 268.0000 1.0000
56.5000 253.0000 1.0000
56.5100 256.0000 1.0000
56.5200 287.0000 1.0000
56.5300 266.0000 1.0000
56.5400 246.0000 1.0000
56.5500 263.0000 1.0000
56.5600 251.0000 1.0000
56.5700 242.0000 1.0000
56.5800 250.0000 1.0000
56.5900 250.0000 1.0000
56.6000 276.0000 1.0000
56.6100 269.0000 1.0000
56.6200 249.0000 1.0000
56.6300 261.0000 1.0000
56.6400 267.0000 1.0000
56.6500 275.0000 1.0000
56.6600 274.0000 1.0000
56.6700 269.0000 1.0000
56.6800 248.0000 1.0000
56.6900 280.0000 1.0000
56.7000 255.0000 1.0000
56.7100 280.0000 1.0000
56.7200 265.0000 1.0000
56.7300 270.0000 1.0000
56.7400 241.0000 1.0000
56.7500 242.0000 1.0000
56.7600 269.0000 1.0000
56.7700 265.0000 1.0000
56.7800 259.0000 1.0000
56.7900 234.0000 1.0000
56.8000 258.0000 1.0000
56.8100 255.0000 1.0000
56.8200 282.0000 1.0000
56.8300 242.0000 1.0000
56.8400 253.0000 1.0000
56.8500 245.0000 1.0000
56.8600 264.0000 1.0000
56.8700 256.0000 1.0000
56.8800 256.0000 1.0000
56.8900 276.0000 1.0000
56.9000 240.0000 1.0000
56.9100 269.0000 1.0000
56.9200 266.0000 1.0000
56.9300 270.0000 1.0000
56.9400 268.0000 1.0000
56.9500 254.0000 1.0000
56.9600 284.0000 1.0000
56.9700 287.0000 1.0000
56.9800 237.0000 1.0000
56.9900 248.0000 1.0000
57.0000 250.0000 1.0000
57.0100 235.0000 1.0000
57.0200 243.0000 1.0000
57.0300 273.0000 1.0000
57.0400 249.0000 1.0000
57.0500 241.0000 1.0000
57.0600 266.0000 1.0000
57.0700 251.0000 1.0000
57.0800 259.0000 1.0000
57.0900 266.0000 1.0000
57.1000 251.0000 1.0000
57.1100 256.0000 1.0000
57.1200 245.0000 1.0000
57.1300 247.0000 1.0000
57.1400 250.0000 1.0000
57.1500 252.0000 1.0000
57.1600 238.0000 1.0000
57.1700 265.0000 1.0000
57.1800 252.0000 1.0000
57.1900 258.0000 1.0000
57.2000 243.0000 1.0000
57.2100 258.0000 1.0000
57.2200 256.0000 1.0000
57.2300 257.0000 1.0000
57.2400 217.0000 1.0000
57.2500 239.0000 1.0000
57.2600 252.0000 1.0000
57.2700 273.0000 1.0000
57.2800 258.0000 1.0000
57.2900 277.0000 1.0000
57.3000 250.0000 1.0000
57.3100 260.0000 1.0000
57.3200 249.0000 1.0000
57.3300 255.0000 1.0000
57.3400 265.0000 1.0000
57.3500 231.0000 1.0000
57.3600 249.0000 1.0000
57.3700 261.0000 1.0000
57.3800 243.0000 1.0000
57.3900 243.0000 1.0000
57.4000 237.0000 1.0000
57.4100 272.0000 1.0000
57.4200 260.0000 1.0000
57.4300 253.0000 1.0000
57.4400 255.0000 1.0000
57.4500 259.0000 1.0000
57.4600 263.0000 1.0000
57.4700 246.0000 1.0000
57.4800 233.0000 1.0000
57.4900 236.0000 1.0000
57.5000 253.0000 1.0000
57.5100 207.0000 1.0000
57.5200 243.0000 1.0000
57.5300 274.0000 1.0000
57.5400 279.0000 1.0000
57.5500 254.0000 1.0000
57.5600 236.0000 1.0000
57.5700 228.0000 1.0000
57.5800 257.0000 1.0000
57.5900 264.0000 1.0000
57.6000 253.0000 1.0000
57.6100 282.0000 1.0000
57.6200 272.0000 1.0000
57.6300 276.0000 1.0000
57.6400 256.0000 1.0000
57.6500 275.0000 1.0000
57.6600 273.0000 1.0000
57.6700 245.0000 1.0000
57.6800 246.0000 1.0000
57.6900 252.0000 1.0000
57.7000 245.0000 1.0000
57.7100 236.0000 1.0000
57.7200 264.0000 1.0000
57.7300 256.0000 1.0000
57.7400 236.0000 1.0000
57.7500 246.0000 1.0000
57.7600 274.0000 1.0000
57.7700 251.0000 1.0000
57.7800 251.0000 1.0000
57.7900 242.0000 1.0000
57.8000 268.0000 1.0000
57.8100 242.0000 1.0000
57.8200 262.0000 1.0000
57.8300 246.0000 1.0000
57.8400 249.0000 1.0000
57.8500 270.0000 1.0000
57.8600 249.0000 1.0000
57.8700 278.0000 1.0000
57.8800 259.0000 1.0000
57.8900 250.0000 1.0000
57.9000 268.0000 1.0000
57.9100 247.0000 1.0000
57.9200 279.0000 1.0000
57.9300 243.0000 1.0000
57.9400 267.0000 1.0000
57.9500 246.0000 1.0000
57.9600 238.0000 1.0000
57.9700 256.0000 1.0000
57.9800 250.0000 1.0000
57.9900 245.0000 1.0000
58.0000 264.0000 1.0000
58.0100 263.0000 1.0000
58.0200 258.0000 1.0000
58.0300 262.0000 1.0000
58.0400 258.0000 1.0000
58.0500 276.0000 1.0000
58.0600 272.0000 1.0000
58.0700 238.0000 1.0000
58.0800 262.0000 1.0000
58.0900 252.0000 1.0000
58.1000 251.0000 1.0000
58.1100 243.0000 1.0000
58.1200 230.0000 1.0000
58.1300 285.0000 1.0000
58.1400 264.0000 1.0000
58.1500 243.0000 1.0000
58.1600 258.0000 1.0000
58.1700 250.0000 1.0000
58.1800 247.0000 1.0000
58.1900 253.0000 1.0000
58.2000 279.0000 1.0000
58.2100 311.0000 1.0000
58.2200 277.0000 1.0000
58.2300 252.0000 1.0000
58.2400 270.0000 1.0000
58.2500 261.0000 1.0000
58.2600 260.0000 1.0000
58.2700 254.0000 1.0000
58.2800 245.0000 1.0000
58.2900 257.0000 1.0000
58.3000 281.0000 1.0000
58.3100 265.0000 1.0000
58.3200 264.0000 1.0000
58.3300 286.0000 1.0000
58.3400 273.0000 1.0000
58.3500 289.0000 1.0000
58.3600 267.0000 1.0000
58.3700 249.0000 1.0000
58.3800 253.0000 1.0000
58.3900 239.0000 1.0000
58.4000 263.0000 1.0000
58.4100 265.0000 1.0000
58.4200 248.0000 1.0000
58.4300 263.0000 1.0000
58.4400 267.0000 1.0000
58.4500 260.0000 1.0000
58.4600 252.0000 1.0000
58.4700 282.0000 1.0000
58.4800 267.0000 1.0000
58.4900 250.0000 1.0000
58.5000 245.0000 1.0000
58.5100 252.0000 1.0000
58.5200 286.0000 1.0000
58.5300 267.0000 1.0000
58.5400 266.0000 1.0000
58.5500 219.0000 1.0000
58.5600 275.0000 1.0000
58.5700 245.0000 1.0000
58.5800 257.0000 1.0000
58.5900 270.0000 1.0000
58.6000 276.0000 1.0000
58.6100 270.0000 1.0000
58.6200 254.0000 1.0000
58.6300 288.0000 1.0000
58.6400 268.0000 1.0000
58.6500 248.0000 1.0000
58.6600 261.0000 1.0000
58.6700 263.0000 1.0000
58.6800 225.0000 1.0000
58.6900 247.0000 1.0000
58.7000 255.0000 1.0000
58.7100 280.0000 1.0000
58.7200 249.0000 1.0000
58.7300 256.0000 1.0000
58.7400 233.0000 1.0000
58.7500 284.0000 1.0000
58.7600 240.0000 1.0000
58.7700 235.0000 1.0000
58.7800 241.0000 1.0000
58.7900 261.0000 1.0000
58.8000 256.0000 1.0000
58.8100 263.0000 1.0000
58.8200 263.0000 1.0000
58.8300 268.0000 1.0000
58.8400 246.0000 1.0000
58.8500 247.0000 1.0000
58.8600 247.0000 1.0000
58.8700 257.0000 1.0000
58.8800 286.0000 1.0000
58.8900 270.0000 1.0000
58.9000 252.0000 1.0000
58.9100 265.0000 1.0000
58.9200 253.0000 1.0000
58.9300 255.0000 1.0000
58.9400 259.0000 1.0000
58.9500 265.0000 1.0000
58.9600 245.0000 1.0000
58.9700 262.0000 1.0000
58.9800 240.0000 1.0000
58.9900 245.0000 1.0000
59.0000 278.0000 1.0000
59.0100 260.0000 1.0000
59.0200 256.0000 1.0000
59.0300 268.0000 1.0000
59.0400 253.0000 1.0000
59.0500 256.0000 1.0000
59.0600 261.0000 1.0000
59.0700 279.0000 1.0000
59.0800 254.0000 1.0000
59.0900 249.0000 1.0000
59.1000 278.0000 1.0000
59.1100 280.0000 1.0000
59.1200 245.0000 1.0000
59.1300 262.0000 1.0000
59.1400 260.0000 1.0000
59.1500 266.0000 1.0000
59.1600 271.0000 1.0000
59.1700 260.0000 1.0000
59.1800 288.0000 1.0000
59.1900 256.0000 1.0000
59.2000 271.0000 1.0000
59.2100 251.0000 1.0000
59.2200 277.0000 1.0000
59.2300 251.0000 1.0000
59.2400 250.0000 1.0000
59.2500 273.0000 1.0000
59.2600 234.0000 1.0000
59.2700 236.0000 1.0000
59.2800 252.0000 1.0000
59.2900 256.0000 1.0000
59.3000 260.0000 1.0000
59.3100 267.0000 1.0000
59.3200 244.0000 1.0000
59.3300 257.0000 1.0000
59.3400 247.0000 1.0000
59.3500 243.0000 1.0000
59.3600 258.0000 1.0000
59.3700 249.0000 1.0000
59.3800 243.0000 1.0000
59.3900 258.0000 1.0000
59.4000 294.0000 1.0000
59.4100 281.0000 1.0000
59.4200 278.0000 1.0000
59.4300 253.0000 1.0000
59.4400 273.0000 1.0000
59.4500 286.0000 1.0000
59.4600 240.0000 1.0000
59.4700 265.0000 1.0000
59.4800 261.0000 1.0000
59.4900 247.0000 1.0000
59.5000 251.0000 1.0000
59.5100 260.0000 1.0000
59.5200 269.0000 1.0000
59.5300 247.0000 1.0000
59.5400 254.0000 1.0000
59.5500 227.0000 1.0000
59.5600 265.0000 1.0000
59.5700 280.0000 1.0000
59.5800 258.0000 1.0000
59.5900 252.0000 1.0000
59.6000 252.0000 1.0000
59.6100 269.0000 1.0000
59.6200 273.0000 1.0000
59.6300 250.0000 1.0000
59.6400 236.0000 1.0000
59.6500 275.0000 1.0000
59.6600 235.0000 1.0000
59.6700 267.0000 1.0000
59.6800 229.0000 1.0000
59.6900 212.0000 1.0000
59.7000 240.0000 1.0000
59.7100 267.0000 1.0000
59.7200 240.0000 1.0000
59.7300 243.0000 1.0000
59.7400 246.0000 1.0000
59.7500 260.0000 1.0000
59.7600 249.0000 1.0000
59.7700 261.0000 1.0000
59.7800 271.0000 1.0000
59.7900 246.0000 1.0000
59.8000 242.0000 1.0000
59.8100 252.0000 1.0000
59.8200 256.0000 1.0000
59.8300 238.0000 1.0000
59.8400 286.0000 1.0000
59.8500 281.0000 1.0000
59.8600 251.0000 1.0000
59.8700 284.0000 1.0000
59.8800 281.0000 1.0000
59.8900 260.0000 1.0000
59.9000 261.0000 1.0000
59.9100 270.0000 1.0000
59.9200 229.0000 1.0000
59.9300 235.0000 1.0000
59.9400 269.0000 1.0000
59.9500 279.0000 1.0000
59.9600 251.0000 1.0000
59.9700 254.0000 1.0000
59.9800 272.0000 1.0000
59.9900 244.0000 1.0000
60.0000 282.0000 1.0000
60.0100 259.0000 1.0000
60.0200 263.0000 1.0000
60.0300 250.0000 1.0000
60.0400 245.0000 1.0000
60.0500 253.0000 1.0000
60.0600 235.0000 1.0000
60.0700 256.0000 1.0000
60.0800 249.0000 1.0000
60.0900 246.0000 1.0000
60.1000 259.0000 1.0000
60.1100 259.0000 1.0000
60.1200 254.0000 1.0000
60.1300 267.0000 1.0000
60.1400 238.0000 1.0000
60.1500 234.0000 1.0000
60.1600 221.0000 1.0000
60.1700 239.0000 1.0000
60.1800 228.0000 1.0000
60.1900 223.0000 1.0000
60.2000 235.0000 1.0000
60.2100 255.0000 1.0000
60.2200 260.0000 1.0000
60.2300 264.0000 1.0000
60.2400 274.0000 1.0000
60.2500 252.0000 1.0000
60.2600 237.0000 1.0000
60.2700 266.0000 1.0000
60.2800 260.0000 1.0000
60.2900 267.0000 1.0000
60.3000 267.0000 1.0000
60.3100 272.0000 1.0000
60.3200 256.0000 1.0000
60.3300 237.0000 1.0000
60.3400 247.0000 1.0000
60.3500 286.0000 1.0000
60.3600 229.0000 1.0000
60.3700 258.0000 1.0000
60.3800 249.0000 1.0000
60.3900 278.0000 1.0000
60.4000 282.0000 1.0000
60.4100 251.0000 1.0000
60.4200 247.0000 1.0000
60.4300 270.0000 1.0000
60.4400 265.0000 1.0000
60.4500 243.0000 1.0000
60.4600 259.0000 1.0000
60.4700 255.0000 1.0000
60.4800 265.0000 1.0000
60.4900 270.0000 1.0000
60.5000 273.0000 1.0000
60.5100 255.0000 1.0000
60.5200 264.0000 1.0000
60.5300 253.0000 1.0000
60.5400 261.0000 1.0000
60.5500 245.0000 1.0000
60.5600 241.0000 1.0000
60.5700 258.0000 1.0000
60.5800 258.0000 1.0000
60.5900 226.0000 1.0000
60.6000 262.0000 1.0000
60.6100 250.0000 1.0000
60.6200 241.0000 1.0000
60.6300 230.0000 1.0000
60.6400 243.0000 1.0000
60.6500 268.0000 1.0000
60.6600 291.0000 1.0000
60.6700 257.0000 1.0000
60.6800 242.0000 1.0000
60.6900 260.0000 1.0000
60.7000 265.0000 1.0000
60.7100 253.0000 1.0000
60.7200 245.0000 1.0000
60.7300 281.0000 1.0000
60.7400 266.0000 1.0000
60.7500 260.0000 1.0000
60.7600 248.0000 1.0000
60.7700 244.0000 1.0000
60.7800 247.0000 1.0000
60.7900 235.0000 1.0000
60.8000 255.0000 1.0000
60.8100 238.0000 1.0000
60.8200 238.0000 1.0000
60.8300 275.0000 1.0000
60.8400 256.0000 1.0000
60.8500 274.0000 1.0000
60.8600 262.0000 1.0000
60.8700 246.0000 1.0000
60.8800 235.0000 1.0000
60.8900 243.0000 1.0000
60.9000 235.0000 1.0000
60.9100 269.0000 1.0000
60.9200 255.0000 1.0000
60.9300 261.0000 1.0000
60.9400 256.0000 1.0000
60.9500 239.0000 1.0000
60.9600 275.0000 1.0000
60.9700 259.0000 1.0000
60.9800 259.0000 1.0000
60.9900 261.0000 1.0000
61.0000 240.0000 1.0000
61.0100 237.0000 1.0000
61.0200 235.0000 1.0000
61.0300 252.0000 1.0000
61.0400 262.0000 1.0000
61.0500 248.0000 1.0000
61.0600 283.0000 1.0000
61.0700 269.0000 1.0000
61.0800 223.0000 1.0000
61.0900 234.0000 1.0000
61.1000 265.0000 1.0000
61.1100 273.0000 1.0000
61.1200 280.0000 1.0000
61.1300 232.0000 1.0000
61.1400 242.0000 1.0000
61.1500 237.0000 1.0000
61.1600 270.0000 1.0000
61.1700 238.0000 1.0000
61.1800 235.0000 1.0000
61.1900 229.0000 1.0000
61.2000 249.0000 1.0000
61.2100 277.0000 1.0000
61.2200 252.0000 1.0000
61.2300 259.0000 1.0000
61.2400 258.0000 1.0000
61.2500 237.0000 1.0000
61.2600 262.0000 1.0000
61.2700 235.0000 1.0000
61.2800 258.0000 1.0000
61.2900 259.0000 1.0000
61.3000 255.0000 1.0000
61.3100 250.0000 1.0000
61.3200 258.0000 1.0000
61.3300 250.0000 1.0000
61.3400 244.0000 1.0000
61.3500 245.0000 1.0000
61.3600 281.0000 1.0000
61.3700 275.0000 1.0000
61.3800 245.0000 1.0000
61.3900 218.0000 1.0000
61.4000 282.0000 1.0000
61.4100 261.0000 1.0000
61.4200 278.0000 1.0000
61.4300 260.0000 1.0000
61.4400 265.0000 1.0000
61.4500 253.0000 1.0000
61.4600 265.0000 1.0000
61.4700 241.0000 1.0000
61.4800 267.0000 1.0000
61.4900 281.0000 1.0000
61.5000 250.0000 1.0000
61.5100 243.0000 1.0000
61.5200 252.0000 1.0000
61.5300 254.0000 1.0000
61.5400 265.0000 1.0000
61.5500 277.0000 1.0000
61.5600 251.0000 1.0000
61.5700 252.0000 1.0000
61.5800 287.0000 1.0000
61.5900 263.0000 1.0000
61.6000 259.0000 1.0000
61.6100 251.0000 1.0000
61.6200 246.0000 1.0000
61.6300 279.0000 1.0000
61.6400 288.0000 1.0000
61.6500 291.0000 1.0000
61.6600 261.0000 1.0000
61.6700 273.0000 1.0000
61.6800 276.0000 1.0000
61.6900 274.0000 1.0000
61.7000 276.0000 1.0000
61.7100 260.0000 1.0000
61.7200 271.0000 1.0000
61.7300 239.0000 1.0000
61.7400 270.0000 1.0000
61.7500 290.0000 1.0000
61.7600 292.0000 1.0000
61.7700 272.0000 1.0000
61.7800 286.0000 1.0000
61.7900 275.0000 1.0000
61.8000 301.0000 1.0000
61.8100 258.0000 1.0000
61.8200 281.0000 1.0000
61.8300 268.0000 1.0000
61.8400 292.0000 1.0000
61.8500 275.0000 1.0000
61.8600 283.0000 1.0000
61.8700 299.0000 1.0000
61.8800 295.0000 1.0000
61.8900 299.0000 1.0000
61.9000 308.0000 1.0000
61.9100 286.0000 1.0000
61.9200 315.0000 1.0000
61.9300 298.0000 1.0000
61.9400 298.0000 1.0000
61.9500 315.0000 1.0000
61.9600 331.0000 1.0000
61.9700 326.0000 1.0000
61.9800 294.0000 1.0000
61.9900 312.0000 1.0000
62.0000 331.0000 1.0000
62.0100 349.0000 1.0000
62.0200 360.0000 1.0000
62.0300 369.0000 1.0000
62.0400 354.0000 1.0000
62.0500 348.0000 1.0000
62.0600 365.0000 1.0000
62.0700 384.0000 1.0000
62.0800 406.0000 1.0000
62.0900 423.0000 1.0000
62.1000 454.0000 1.0000
62.1100 460.0000 1.0000
62.1200 468.0000 1.0000
62.1300 503.0000 1.0000
62.1400 476.0000 1.0000
62.1500 490.0000 1.0000
62.1600 529.0000 1.0000
62.1700 526.0000 1.0000
62.1800 560.0000 1.0000
62.1900 526.0000 1.0000
62.2000 529.0000 1.0000
62.2100 566.0000 1.0000
62.2200 564.0000 1.0000
62.2300 580.0000 1.0000
62.2400 580.0000 1.0000
62.2500 585.0000 1.0000
62.2600 551.0000 1.0000
62.2700 563.0000 1.0000
62.2800 586.0000 1.0000
62.2900 600.0000 1.0000
62.3000 599.0000 1.0000
62.3100 587.0000 1.0000
62.3200 586.0000 1.0000
62.3300 572.0000 1.0000
62.3400 592.0000 1.0000
62.3500 570.0000 1.0000
62.3600 585.0000 1.0000
62.3700 587.0000 1.0000
62.3800 532.0000 1.0000
62.3900 541.0000 1.0000
62.4000 508.0000 1.0000
62.4100 517.0000 1.0000
62.4200 536.0000 1.0000
62.4300 517.0000 1.0000
62.4400 530.0000 1.0000
62.4500 501.0000 1.0000
62.4600 497.0000 1.0000
62.4700 500.0000 1.0000
62.4800 472.0000 1.0000
62.4900 455.0000 1.0000
62.5000 444.0000 1.0000
62.5100 410.0000 1.0000
62.5200 424.0000 1.0000
62.5300 413.0000 1.0000
62.5400 409.0000 1.0000
62.5500 419.0000 1.0000
62.5600 370.0000 1.0000
62.5700 363.0000 1.0000
62.5800 333.0000 1.0000
62.5900 361.0000 1.0000
62.6000 367.0000 1.0000
62.6100 361.0000 1.0000
62.6200 379.0000 1.0000
62.6300 381.0000 1.0000
62.6400 324.0000 1.0000
62.6500 332.0000 1.0000
62.6600 300.0000 1.0000
62.6700 344.0000 1.0000
62.6800 332.0000 1.0000
62.6900 307.0000 1.0000
62.7000 297.0000 1.0000
62.7100 315.0000 1.0000
62.7200 308.0000 1.0000
62.7300 315.0000 1.0000
62.7400 314.0000 1.0000
62.7500 287.0000 1.0000
62.7600 292.0000 1.0000
62.7700 287.0000 1.0000
62.7800 285.0000 1.0000
62.7900 267.0000 1.0000
62.8000 326.0000 1.0000
62.8100 290.0000 1.0000
62.8200 278.0000 1.0000
62.8300 319.0000 1.0000
62.8400 289.0000 1.0000
62.8500 270.0000 1.0000
62.8600 284.0000 1.0000
62.8700 301.0000 1.0000
62.8800 258.0000 1.0000
62.8900 284.0000 1.0000
62.9000 265.0000 1.0000
62.9100 286.0000 1.0000
62.9200 284.0000 1.0000
62.9300 300.0000 1.0000
62.9400 282.0000 1.0000
62.9500 266.0000 1.0000
62.9600 283.0000 1.0000
62.9700 297.0000 1.0000
62.9800 290.0000 1.0000
62.9900 278.0000 1.0000
63.0000 275.0000 1.0000
63.0100 293.0000 1.0000
63.0200 292.0000 1.0000
63.0300 317.0000 1.0000
63.0400 286.0000 1.0000
63.0500 255.0000 1.0000
63.0600 272.0000 1.0000
63.0700 294.0000 1.0000
63.0800 249.0000 1.0000
63.0900 272.0000 1.0000
63.1000 281.0000 1.0000
63.1100 274.0000 1.0000
63.1200 255.0000 1.0000
63.1300 283.0000 1.0000
63.1400 271.0000 1.0000
63.1500 260.0000 1.0000
63.1600 238.0000 1.0000
63.1700 262.0000 1.0000
63.1800 267.0000 1.0000
63.1900 250.0000 1.0000
63.2000 245.0000 1.0000
63.2100 280.0000 1.0000
63.2200 275.0000 1.0000
63.2300 274.0000 1.0000
63.2400 235.0000 1.0000
63.2500 243.0000 1.0000
63.2600 272.0000 1.0000
63.2700 269.0000 1.0000
63.2800 266.0000 1.0000
63.2900 274.0000 1.0000
63.3000 263.0000 1.0000
63.3100 275.0000 1.0000
63.3200 270.0000 1.0000
63.3300 237.0000 1.0000
63.3400 268.0000 1.0000
63.3500 276.0000 1.0000
63.3600 289.0000 1.0000
63.3700 242.0000 1.0000
63.3800 234.0000 1.0000
63.3900 263.0000 1.0000
63.4000 232.0000 1.0000
63.4100 239.0000 1.0000
63.4200 251.0000 1.0000
63.4300 257.0000 1.0000
63.4400 255.0000 1.0000
63.4500 254.0000 1.0000
63.4600 252.0000 1.0000
63.4700 266.0000 1.0000
63.4800 265.0000 1.0000
63.4900 280.0000 1.0000
63.5000 259.0000 1.0000
63.5100 237.0000 1.0000
63.5200 248.0000 1.0000
63.5300 262.0000 1.0000
63.5400 264.0000 1.0000
63.5500 274.0000 1.0000
63.5600 286.0000 1.0000
63.5700 257.0000 1.0000
63.5800 252.0000 1.0000
63.5900 258.0000 1.0000
63.6000 232.0000 1.0000
63.6100 255.0000 1.0000
63.6200 240.0000 1.0000
63.6300 255.0000 1.0000
63.6400 270.0000 1.0000
63.6500 273.0000 1.0000
63.6600 259.0000 1.0000
63.6700 260.0000 1.0000
63.6800 250.0000 1.0000
63.6900 278.0000 1.0000
63.7000 248.0000 1.0000
63.7100 254.0000 1.0000
63.7200 239.0000 1.0000
63.7300 256.0000 1.0000
63.7400 281.0000 1.0000
63.7500 291.0000 1.0000
63.7600 262.0000 1.0000
63.7700 252.0000 1.0000
63.7800 255.0000 1.0000
63.7900 251.0000 1.0000
63.8000 254.0000 1.0000
63.8100 262.0000 1.0000
63.8200 292.0000 1.0000
63.8300 232.0000 1.0000
63.8400 257.0000 1.0000
63.8500 262.0000 1.0000
63.8600 267.0000 1.0000
63.8700 266.0000 1.0000
63.8800 263.0000 1.0000
63.8900 253.0000 1.0000
63.9000 269.0000 1.0000
63.9100 276.0000 1.0000
63.9200 259.0000 1.0000
63.9300 269.0000 1.0000
63.9400 251.0000 1.0000
63.9500 243.0000 1.0000
63.9600 267.0000 1.0000
63.9700 259.0000 1.0000
63.9800 234.0000 1.0000
63.9900 265.0000 1.0000
64.0000 260.0000 1.0000
64.0100 256.0000 1.0000
64.0200 248.0000 1.0000
64.0300 253.0000 1.0000
64.0400 246.0000 1.0000
64.0500 249.0000 1.0000
64.0600 268.0000 1.0000
64.0700 263.0000 1.0000
64.0800 257.0000 1.0000
64.0900 258.0000 1.0000
64.1000 269.0000 1.0000
64.1100 266.0000 1.0000
64.1200 258.0000 1.0000
64.1300 250.0000 1.0000
64.1400 247.0000 1.0000
64.1500 265.0000 1.0000
64.1600 251.0000 1.0000
64.1700 248.0000 1.0000
64.1800 257.0000 1.0000
64.1900 265.0000 1.0000
64.2000 287.0000 1.0000
64.2100 264.0000 1.0000
64.2200 272.0000 1.0000
64.2300 249.0000 1.0000
64.2400 266.0000 1.0000
64.2500 272.0000 1.0000
64.2600 287.0000 1.0000
64.2700 267.0000 1.0000
64.2800 277.0000 1.0000
64.2900 268.0000 1.0000
64.3000 288.0000 1.0000
64.3100 295.0000 1.0000
64.3200 259.0000 1.0000
64.3300 285.0000 1.0000
64.3400 292.0000 1.0000
64.3500 286.0000 1.0000
64.3600 293.0000 1.0000
64.3700 281.0000 1.0000
64.3800 272.0000 1.0000
64.3900 284.0000 1.0000
64.4000 280.0000 1.0000
64.4100 264.0000 1.0000
64.4200 270.0000 1.0000
64.4300 265.0000 1.0000
64.4400 255.0000 1.0000
64.4500 275.0000 1.0000
64.4600 256.0000 1.0000
64.4700 250.0000 1.0000
64.4800 285.0000 1.0000
64.4900 299.0000 1.0000
64.5000 268.0000 1.0000
64.5100 280.0000 1.0000
64.5200 259.0000 1.0000
64.5300 280.0000 1.0000
64.5400 272.0000 1.0000
64.5500 270.0000 1.0000
64.5600 294.0000 1.0000
64.5700 282.0000 1.0000
64.5800 290.0000 1.0000
64.5900 292.0000 1.0000
64.6000 285.0000 1.0000
64.6100 294.0000 1.0000
64.6200 299.0000 1.0000
64.6300 257.0000 1.0000
64.6400 285.0000 1.0000
64.6500 281.0000 1.0000
64.6600 310.0000 1.0000
64.6700 273.0000 1.0000
64.6800 311.0000 1.0000
64.6900 302.0000 1.0000
64.7000 285.0000 1.0000
64.7100 307.0000 1.0000
64.7200 289.0000 1.0000
64.7300 297.0000 1.0000
64.7400 275.0000 1.0000
64.7500 285.0000 1.0000
64.7600 260.0000 1.0000
64.7700 291.0000 1.0000
64.7800 291.0000 1.0000
64.7900 293.0000 1.0000
64.8000 285.0000 1.0000
64.8100 297.0000 1.0000
64.8200 297.0000 1.0000
64.8300 283.0000 1.0000
64.8400 278.0000 1.0000
64.8500 292.0000 1.0000
64.8600 286.0000 1.0000
64.8700 303.0000 1.0000
64.8800 267.0000 1.0000
64.8900 272.0000 1.0000
64.9000 292.0000 1.0000
64.9100 285.0000 1.0000
64.9200 283.0000 1.0000
64.9300 285.0000 1.0000
64.9400 287.0000 1.0000
64.9500 268.0000 1.0000
64.9600 283.0000 1.0000
64.9700 267.0000 1.0000
64.9800 278.0000 1.0000
64.9900 281.0000 1.0000
65.0000 285.0000 1.0000
65.0100 297.0000 1.0000
65.0200 280.0000 1.0000
65.0300 281.0000 1.0000
65.0400 260.0000 1.0000
65.0500 292.0000 1.0000
65.0600 295.0000 1.0000
65.0700 275.0000 1.0000
65.0800 266.0000 1.0000
65.0900 278.0000 1.0000
65.1000 269.0000 1.0000
65.1100 293.0000 1.0000
65.1200 262.0000 1.0000
65.1300 288.0000 1.0000
65.1400 271.0000 1.0000
65.1500 283.0000 1.0000
65.1600 273.0000 1.0000
65.1700 284.0000 1.0000
65.1800 258.0000 1.0000
65.1900 284.0000 1.0000
65.2000 251.0000 1.0000
65.2100 261.0000 1.0000
65.2200 256.0000 1.0000
65.2300 256.0000 1.0000
65.2400 291.0000 1.0000
65.2500 295.0000 1.0000
65.2600 282.0000 1.0000
65.2700 276.0000 1.0000
65.2800 274.0000 1.0000
65.2900 280.0000 1.0000
65.3000 286.0000 1.0000
65.3100 252.0000 1.0000
65.3200 281.0000 1.0000
65.3300 279.0000 1.0000
65.3400 264.0000 1.0000
65.3500 276.0000 1.0000
65.3600 283.0000 1.0000
65.3700 268.0000 1.0000
65.3800 259.0000 1.0000
65.3900 274.0000 1.0000
65.4000 268.0000 1.0000
65.4100 261.0000 1.0000
65.4200 261.0000 1.0000
65.4300 262.0000 1.0000
65.4400 258.0000 1.0000
65.4500 262.0000 1.0000
65.4600 251.0000 1.0000
65.4700 236.0000 1.0000
65.4800 255.0000 1.0000
65.4900 258.0000 1.0000
65.5000 222.0000 1.0000
65.5100 280.0000 1.0000
65.5200 280.0000 1.0000
65.5300 279.0000 1.0000
65.5400 272.0000 1.0000
65.5500 261.0000 1.0000
65.5600 280.0000 1.0000
65.5700 297.0000 1.0000
65.5800 271.0000 1.0000
65.5900 275.0000 1.0000
65.6000 270.0000 1.0000
65.6100 265.0000 1.0000
65.6200 279.0000 1.0000
65.6300 250.0000 1.0000
65.6400 266.0000 1.0000
65.6500 277.0000 1.0000
65.6600 262.0000 1.0000
65.6700 290.0000 1.0000
65.6800 290.0000 1.0000
65.6900 286.0000 1.0000
65.7000 303.0000 1.0000
65.7100 271.0000 1.0000
65.7200 308.0000 1.0000
65.7300 297.0000 1.0000
65.7400 282.0000 1.0000
65.7500 266.0000 1.0000
65.7600 296.0000 1.0000
65.7700 296.0000 1.0000
65.7800 281.0000 1.0000
65.7900 283.0000 1.0000
65.8000 295.0000 1.0000
65.8100 284.0000 1.0000
65.8200 278.0000 1.0000
65.8300 322.0000 1.0000
65.8400 329.0000 1.0000
65.8500 319.0000 1.0000
65.8600 318.0000 1.0000
65.8700 302.0000 1.0000
65.8800 323.0000 1.0000
65.8900 342.0000 1.0000
65.9000 367.0000 1.0000
65.9100 376.0000 1.0000
65.9200 354.0000 1.0000
65.9300 372.0000 1.0000
65.9400 379.0000 1.0000
65.9500 351.0000 1.0000
65.9600 359.0000 1.0000
65.9700 380.0000 1.0000
65.9800 405.0000 1.0000
65.9900 395.0000 1.0000
66.0000 404.0000 1.0000
66.0100 460.0000 1.0000
66.0200 475.0000 1.0000
66.0300 480.0000 1.0000
66.0400 487.0000 1.0000
66.0500 491.0000 1.0000
66.0600 551.0000 1.0000
66.0700 524.0000 1.0000
66.0800 574.0000 1.0000
66.0900 599.0000 1.0000
66.1000 647.0000 1.0000
66.1100 715.0000 1.0000
66.1200 742.0000 1.0000
66.1300 747.0000 1.0000
66.1400 806.0000 1.0000
66.1500 895.0000 1.0000
66.1600 886.0000 1.0000
66.1700 968.0000 1.0000
66.1800 944.0000 1.0000
66.1900 1004.0000 1.0000
66.2000 1120.0000 1.0000
66.2100 1062.0000 1.0000
66.2200 1073.0000 1.0000
66.2300 1117.0000 1.0000
66.2400 1088.0000 1.0000
66.2500 1048.0000 1.0000
66.2600 1005.0000 1.0000
66.2700 1001.0000 1.0000
66.2800 1058.0000 1.0000
66.2900 992.0000 1.0000
66.3000 999.0000 1.0000
66.3100 983.0000 1.0000
66.3200 973.0000 1.0000
66.3300 940.0000 1.0000
66.3400 972.0000 1.0000
66.3500 938.0000 1.0000
66.3600 964.0000 1.0000
66.3700 927.0000 1.0000
66.3800 935.0000 1.0000
66.3900 915.0000 1.0000
66.4000 844.0000 1.0000
66.4100 872.0000 1.0000
66.4200 817.0000 1.0000
66.4300 772.0000 1.0000
66.4400 760.0000 1.0000
66.4500 764.0000 1.0000
66.4600 714.0000 1.0000
66.4700 740.0000 1.0000
66.4800 677.0000 1.0000
66.4900 657.0000 1.0000
66.5000 583.0000 1.0000
66.5100 581.0000 1.0000
66.5200 552.0000 1.0000
66.5300 533.0000 1.0000
66.5400 535.0000 1.0000
66.5500 531.0000 1.0000
66.5600 473.0000 1.0000
66.5700 444.0000 1.0000
66.5800 447.0000 1.0000
66.5900 417.0000 1.0000
66.6000 397.0000 1.0000
66.6100 418.0000 1.0000
66.6200 397.0000 1.0000
66.6300 396.0000 1.0000
66.6400 379.0000 1.0000
66.6500 366.0000 1.0000
66.6600 371.0000 1.0000
66.6700 355.0000 1.0000
66.6800 366.0000 1.0000
66.6900 370.0000 1.0000
66.7000 329.0000 1.0000
66.7100 361.0000 1.0000
66.7200 347.0000 1.0000
66.7300 295.0000 1.0000
66.7400 303.0000 1.0000
66.7500 319.0000 1.0000
66.7600 311.0000 1.0000
66.7700 302.0000 1.0000
66.7800 316.0000 1.0000
66.7900 305.0000 1.0000
66.8000 281.0000 1.0000
66.8100 258.0000 1.0000
66.8200 280.0000 1.0000
66.8300 276.0000 1.0000
66.8400 283.0000 1.0000
66.8500 290.0000 1.0000
66.8600 291.0000 1.0000
66.8700 288.0000 1.0000
66.8800 287.0000 1.0000
66.8900 281.0000 1.0000
66.9000 285.0000 1.0000
66.9100 291.0000 1.0000
66.9200 265.0000 1.0000
66.9300 247.0000 1.0000
66.9400 257.0000 1.0000
66.9500 269.0000 1.0000
66.9600 266.0000 1.0000
66.9700 254.0000 1.0000
66.9800 272.0000 1.0000
66.9900 257.0000 1.0000
67.0000 290.0000 1.0000
67.0100 258.0000 1.0000
67.0200 245.0000 1.0000
67.0300 255.0000 1.0000
67.0400 258.0000 1.0000
67.0500 250.0000 1.0000
67.0600 257.0000 1.0000
67.0700 238.0000 1.0000
67.0800 269.0000 1.0000
67.0900 255.0000 1.0000
67.1000 275.0000 1.0000
67.1100 231.0000 1.0000
67.1200 277.0000 1.0000
67.1300 247.0000 1.0000
67.1400 255.0000 1.0000
67.1500 277.0000 1.0000
67.1600 262.0000 1.0000
67.1700 244.0000 1.0000
67.1800 249.0000 1.0000
67.1900 244.0000 1.0000
67.2000 259.0000 1.0000
67.2100 240.0000 1.0000
67.2200 232.0000 1.0000
67.2300 247.0000 1.0000
67.2400 245.0000 1.0000
67.2500 244.0000 1.0000
67.2600 235.0000 1.0000
67.2700 248.0000 1.0000
67.2800 248.0000 1.0000
67.2900 259.0000 1.0000
67.3000 240.0000 1.0000
67.3100 259.0000 1.0000
67.3200 235.0000 1.0000
67.3300 253.0000 1.0000
67.3400 282.0000 1.0000
67.3500 254.0000 1.0000
67.3600 261.0000 1.0000
67.3700 219.0000 1.0000
67.3800 225.0000 1.0000
67.3900 245.0000 1.0000
67.4000 239.0000 1.0000
67.4100 240.0000 1.0000
67.4200 240.0000 1.0000
67.4300 236.0000 1.0000
67.4400 219.0000 1.0000
67.4500 250.0000 1.0000
67.4600 249.0000 1.0000
67.4700 254.0000 1.0000
67.4800 234.0000 1.0000
67.4900 241.0000 1.0000
67.5000 264.0000 1.0000
67.5100 260.0000 1.0000
67.5200 250.0000 1.0000
67.5300 227.0000 1.0000
67.5400 257.0000 1.0000
67.5500 232.0000 1.0000
67.5600 238.0000 1.0000
67.5700 242.0000 1.0000
67.5800 245.0000 1.0000
67.5900 268.0000 1.0000
67.6000 259.0000 1.0000
67.6100 250.0000 1.0000
67.6200 225.0000 1.0000
67.6300 249.0000 1.0000
67.6400 263.0000 1.0000
67.6500 245.0000 1.0000
67.6600 270.0000 1.0000
67.6700 247.0000 1.0000
67.6800 239.0000 1.0000
67.6900 224.0000 1.0000
67.7000 234.0000 1.0000
67.7100 238.0000 1.0000
67.7200 244.0000 1.0000
67.7300 260.0000 1.0000
67.7400 229.0000 1.0000
67.7500 251.0000 1.0000
67.7600 228.0000 1.0000
67.7700 240.0000 1.0000
67.7800 225.0000 1.0000
67.7900 237.0000 1.0000
67.8000 210.0000 1.0000
67.8100 220.0000 1.0000
67.8200 245.0000 1.0000
67.8300 226.0000 1.0000
67.8400 226.0000 1.0000
67.8500 232.0000 1.0000
67.8600 240.0000 1.0000
67.8700 233.0000 1.0000
67.8800 229.0000 1.0000
67.8900 233.0000 1.0000
67.9000 237.0000 1.0000
67.9100 259.0000 1.0000
67.9200 238.0000 1.0000
67.9300 237.0000 1.0000
67.9400 246.0000 1.0000
67.9500 238.0000 1.0000
67.9600 221.0000 1.0000
67.9700 227.0000 1.0000
67.9800 255.0000 1.0000
67.9900 256.0000 1.0000
68.0000 245.0000 1.0000
68.0100 224.0000 1.0000
68.0200 245.0000 1.0000
68.0300 240.0000 1.0000
68.0400 256.0000 1.0000
68.0500 240.0000 1.0000
68.0600 236.0000 1.0000
68.0700 244.0000 1.0000
68.0800 243.0000 1.0000
68.0900 254.0000 1.0000
68.1000 239.0000 1.0000
68.1100 249.0000 1.0000
68.1200 222.0000 1.0000
68.1300 225.0000 1.0000
68.1400 224.0000 1.0000
68.1500 222.0000 1.0000
68.1600 230.0000 1.0000
68.1700 233.0000 1.0000
68.1800 246.0000 1.0000
68.1900 242.0000 1.0000
68.2000 239.0000 1.0000
68.2100 235.0000 1.0000
68.2200 229.0000 1.0000
68.2300 246.0000 1.0000
68.2400 229.0000 1.0000
68.2500 200.0000 1.0000
68.2600 236.0000 1.0000
68.2700 214.0000 1.0000
68.2800 203.0000 1.0000
68.2900 216.0000 1.0000
68.3000 234.0000 1.0000
68.3100 229.0000 1.0000
68.3200 245.0000 1.0000
68.3300 245.0000 1.0000
68.3400 228.0000 1.0000
68.3500 221.0000 1.0000
68.3600 232.0000 1.0000
68.3700 248.0000 1.0000
68.3800 225.0000 1.0000
68.3900 219.0000 1.0000
68.4000 222.0000 1.0000
68.4100 234.0000 1.0000
68.4200 219.0000 1.0000
68.4300 215.0000 1.0000
68.4400 205.0000 1.0000
68.4500 224.0000 1.0000
68.4600 223.0000 1.0000
68.4700 232.0000 1.0000
68.4800 259.0000 1.0000
68.4900 245.0000 1.0000
68.5000 231.0000 1.0000
68.5100 215.0000 1.0000
68.5200 217.0000 1.0000
68.5300 240.0000 1.0000
68.5400 224.0000 1.0000
68.5500 216.0000 1.0000
68.5600 227.0000 1.0000
68.5700 222.0000 1.0000
68.5800 226.0000 1.0000
68.5900 219.0000 1.0000
68.6000 213.0000 1.0000
68.6100 248.0000 1.0000
68.6200 216.0000 1.0000
68.6300 235.0000 1.0000
68.6400 227.0000 1.0000
68.6500 243.0000 1.0000
68.6600 229.0000 1.0000
68.6700 231.0000 1.0000
68.6800 227.0000 1.0000
68.6900 243.0000 1.0000
68.7000 230.0000 1.0000
68.7100 249.0000 1.0000
68.7200 229.0000 1.0000
68.7300 200.0000 1.0000
68.7400 213.0000 1.0000
68.7500 196.0000 1.0000
68.7600 216.0000 1.0000
68.7700 255.0000 1.0000
68.7800 234.0000 1.0000
68.7900 228.0000 1.0000
68.8000 226.0000 1.0000
68.8100 225.0000 1.0000
68.8200 209.0000 1.0000
68.8300 230.0000 1.0000
68.8400 218.0000 1.0000
68.8500 203.0000 1.0000
68.8600 235.0000 1.0000
68.8700 230.0000 1.0000
68.8800 237.0000 1.0000
68.8900 232.0000 1.0000
68.9000 239.0000 1.0000
68.9100 237.0000 1.0000
68.9200 232.0000 1.0000
68.9300 241.0000 1.0000
68.9400 231.0000 1.0000
68.9500 224.0000 1.0000
68.9600 200.0000 1.0000
68.9700 247.0000 1.0000
68.9800 235.0000 1.0000
68.9900 231.0000 1.0000
69.0000 232.0000 1.0000
69.0100 219.0000 1.0000
69.0200 234.0000 1.0000
69.0300 228.0000 1.0000
69.0400 242.0000 1.0000
69.0500 241.0000 1.0000
69.0600 233.0000 1.0000
69.0700 212.0000 1.0000
69.0800 230.0000 1.0000
69.0900 225.0000 1.0000
69.1000 235.0000 1.0000
69.1100 197.0000 1.0000
69.1200 208.0000 1.0000
69.1300 195.0000 1.0000
69.1400 255.0000 1.0000
69.1500 210.0000 1.0000
69.1600 205.0000 1.0000
69.1700 203.0000 1.0000
69.1800 225.0000 1.0000
69.1900 217.0000 1.0000
69.2000 228.0000 1.0000
69.2100 220.0000 1.0000
69.2200 225.0000 1.0000
69.2300 223.0000 1.0000
69.2400 217.0000 1.0000
69.2500 221.0000 1.0000
69.2600 230.0000 1.0000
69.2700 218.0000 1.0000
69.2800 239.0000 1.0000
69.2900 209.0000 1.0000
69.3000 220.0000 1.0000
69.3100 231.0000 1.0000
69.3200 205.0000 1.0000
69.3300 228.0000 1.0000
69.3400 230.0000 1.0000
69.3500 215.0000 1.0000
69.3600 240.0000 1.0000
69.3700 215.0000 1.0000
69.3800 231.0000 1.0000
69.3900 217.0000 1.0000
69.4000 225.0000 1.0000
69.4100 213.0000 1.0000
69.4200 232.0000 1.0000
69.4300 210.0000 1.0000
69.4400 232.0000 1.0000
69.4500 232.0000 1.0000
69.4600 238.0000 1.0000
69.4700 240.0000 1.0000
69.4800 234.0000 1.0000
69.4900 246.0000 1.0000
69.5000 229.0000 1.0000
69.5100 199.0000 1.0000
69.5200 230.0000 1.0000
69.5300 231.0000 1.0000
69.5400 225.0000 1.0000
69.5500 234.0000 1.0000
69.5600 238.0000 1.0000
69.5700 244.0000 1.0000
69.5800 215.0000 1.0000
69.5900 243.0000 1.0000
69.6000 211.0000 1.0000
69.6100 224.0000 1.0000
69.6200 250.0000 1.0000
69.6300 231.0000 1.0000
69.6400 205.0000 1.0000
69.6500 223.0000 1.0000
69.6600 234.0000 1.0000
69.6700 230.0000 1.0000
69.6800 224.0000 1.0000
69.6900 238.0000 1.0000
69.7000 243.0000 1.0000
69.7100 228.0000 1.0000
69.7200 225.0000 1.0000
69.7300 240.0000 1.0000
69.7400 236.0000 1.0000
69.7500 218.0000 1.0000
69.7600 219.0000 1.0000
69.7700 225.0000 1.0000
69.7800 229.0000 1.0000
69.7900 245.0000 1.0000
69.8000 228.0000 1.0000
69.8100 210.0000 1.0000
69.8200 242.0000 1.0000
69.8300 223.0000 1.0000
69.8400 218.0000 1.0000
69.8500 238.0000 1.0000
69.8600 221.0000 1.0000
69.8700 244.0000 1.0000
69.8800 217.0000 1.0000
69.8900 225.0000 1.0000
69.9000 227.0000 1.0000
69.9100 225.0000 1.0000
69.9200 208.0000 1.0000
69.9300 207.0000 1.0000
69.9400 217.0000 1.0000
69.9500 210.0000 1.0000
69.9600 228.0000 1.0000
69.9700 232.0000 1.0000
69.9800 212.0000 1.0000
69.9900 223.0000 1.0000
70.0000 238.0000 1.0000
*RAS_INT_END
*RAS_TEMPERATURE_START
*RAS_TEMPERATURE_END
*RAS_DATA_END
