*RAS_DATA_START
*RAS_HEADER_START
*DISP_FMT_X "%.2f"
*DISP_FMT_Y "%.0f"
*DISP_FULLSCALE "13405.0000000000"
*DISP_LINE_COLOR "255.0000000000"
*DISP_LINE_STYLE "0.0000000000"
*DISP_LINE_WIDTH "0.2500000000"
*DISP_NOTE "測定データ-5"
*DISP_OFFSET_Y "0.0000000000"
*DISP_PEAKSEARCH_UNIT_Y "cps"
*DISP_RANGE_BOTTOM "0.0000000000"
*DISP_RANGE_LEFT "20.0000000000"
*DISP_RANGE_LOGCUTOFF "0.0100000000"
*DISP_RANGE_RIGHT "70.0000000000"
*DISP_RANGE_TOP "13405.0000000000"
*DISP_SCALE_MODE_Y "0.0000000000"
*DISP_TAB_NAME "2θ/θ"
*DISP_TITLE_Y "強度"
*DISP_UNIT_Y "cps"
*DISP_WINDOW_NAME "MSG_MACROENGINE"
*FILE_COMMENT " "
*FILE_MD5 ""
*FILE_MEMO " "
*FILE_OPERATOR "Administrator"
*FILE_SAMPLE " "
*FILE_TYPE "RAS_RAW"
*FILE_USERGROUP "システムマネージャ"
*FILE_VERSION "1.0000000000"
*HW_ATTACHMENT_ID "ATT0025"
*HW_ATTACHMENT_NAME "標準|Standard"
*HW_COUNTER_ID-0 "CUT0025"
*HW_COUNTER_ID-1 "CUT0020"
*HW_COUNTER_ID-2 "CUT0020"
*HW_COUNTER_ID-3 "CSL0021"
*HW_COUNTER_ID-4 "CMC0021"
*HW_COUNTER_NAME-0 "D/teX Ultra|D/teX Ultra"
*HW_COUNTER_NAME-1 "None|None"
*HW_COUNTER_NAME-2 "None|None"
*HW_COUNTER_NAME-3 "BBM|BBM"
*HW_COUNTER_NAME-4 "検出器モノクロメータ|Detector monochromator"
*HW_COUNTER_SELECT_NAME "D/teX Ultra|D/teX Ultra"
*HW_GONIOMETER_ID "GON0023"
*HW_GONIOMETER_NAME "SmartLab|SmartLab"
*HW_GONIOMETER_RADIUS-0 "90.0"
*HW_GONIOMETER_RADIUS-1 "114.0"
*HW_GONIOMETER_RADIUS-2 "190.0"
*HW_GONIOMETER_RADIUS-3 "300.0"
*HW_GONIOMETER_RADIUS-4 "187.0"
*HW_GONIOMETER_RADIUS-5 "300.0"
*HW_GONIOMETER_RADIUS-6 "113.0"
*HW_GONIOMETER_RADIUS-7 "331.0"
*HW_I_OPT_ID-0 "CBO0021"
*HW_I_OPT_ID-1 "ICR0023"
*HW_I_OPT_ID-2 "ISL0021"
*HW_I_OPT_ID-3 "ISO0021"
*HW_I_OPT_ID-4 "IAD0021"
*HW_I_OPT_ID-5 "IPR0001"
*HW_I_OPT_NAME-0 "CBOユニット|CBO unit"
*HW_I_OPT_NAME-1 "標準入射光学ユニット|Standard incident optical unit"
*HW_I_OPT_NAME-2 "標準入射スリットボックス|Standard incident slit box"
*HW_I_OPT_NAME-3 "入射平行スリット|Incident parallel slit"
*HW_I_OPT_NAME-4 "長手制限スリット|Length limiting slit"
*HW_I_OPT_NAME-5 "None|None"
*HW_R_ATTENUATER_AUTOMODE "0"
*HW_R_OPT_ID-0 "RSS0021"
*HW_R_OPT_ID-1 "RCR0023"
*HW_R_OPT_ID-2 "RSO0021"
*HW_R_OPT_ID-3 "RRS0021"
*HW_R_OPT_ID-4 "ATN0021"
*HW_R_OPT_ID-5 "RFL0021"
*HW_R_OPT_ID-6 "RAD0021"
*HW_R_OPT_NAME-0 "標準受光スリットボックス1|Standard receiving slit box # 1"
*HW_R_OPT_NAME-1 "標準受光光学ユニット1|Standard receiving unit # 1"
*HW_R_OPT_NAME-2 "標準受光光学ユニット2|Standard receiving optical unit # 2"
*HW_R_OPT_NAME-3 "標準受光スリットボックス2|Standard receiving slit box # 2"
*HW_R_OPT_NAME-4 "標準アッテネータ|Standard Attenuator"
*HW_R_OPT_NAME-5 "Cu Kβ|Cu K-beta"
*HW_R_OPT_NAME-6 "調整用受光スリット|Alignment receiving slit"
*HW_SAMPLE_HOLDER_ID "SMP0023"
*HW_SAMPLE_HOLDER_NAME "標準Zステージ|Standard Z stage"
*HW_XG_CURRENT_MAX "50"
*HW_XG_CURRENT_MIN "2"
*HW_XG_CURRENT_RESOLUTION "1"
*HW_XG_CURRENT_UNIT "mA"
*HW_XG_FOCUS "1mm x 10mm"
*HW_XG_FOCUS_TYPE "Normal"
*HW_XG_ID ""
*HW_XG_NAME "3kW 封入管(ID:1200)|3kW Sealed tube(ID:1200)"
*HW_XG_TARGET_ATOMIC_NUMBER "29.0000000000"
*HW_XG_TARGET_NAME "Cu"
*HW_XG_TYPE "Hermetic"
*HW_XG_VOLTAGE_MAX "60"
*HW_XG_VOLTAGE_MIN "20"
*HW_XG_VOLTAGE_RESOLUTION "1"
*HW_XG_VOLTAGE_UNIT "kV"
*HW_XG_WATT_MAX "1.500"
*HW_XG_WATT_UNIT "kW"
*HW_XG_WAVE_LENGTH_ALPHA1 "1.540593"
*HW_XG_WAVE_LENGTH_ALPHA2 "1.544414"
*HW_XG_WAVE_LENGTH_BETA "1.392250"
*MEAS_COND_AXIS_NAME-0 "2θ/θ"
*MEAS_COND_AXIS_NAME-1 "2θ"
*MEAS_COND_AXIS_NAME-2 "ω"
*MEAS_COND_AXIS_NAME-3 "Z"
*MEAS_COND_AXIS_NAME-4 "2θ/ω"
*MEAS_COND_AXIS_NAME-5 "θs"
*MEAS_COND_AXIS_NAME-6 "θd"
*MEAS_COND_AXIS_NAME-7 "Ts"
*MEAS_COND_AXIS_NAME-8 "CBO選択スリット"
*MEAS_COND_AXIS_NAME-9 "M"
*MEAS_COND_AXIS_NAME-10 "入射平行スリット"
*MEAS_COND_AXIS_NAME-11 "入射スリット"
*MEAS_COND_AXIS_NAME-12 ""
*MEAS_COND_AXIS_NAME-13 "Zs"
*MEAS_COND_AXIS_NAME-14 "入射光学素子"
*MEAS_COND_AXIS_NAME-15 "長手制限スリット"
*MEAS_COND_AXIS_NAME-16 "センタースリット"
*MEAS_COND_AXIS_NAME-17 "フィルター"
*MEAS_COND_AXIS_NAME-18 "受光スリット1"
*MEAS_COND_AXIS_NAME-19 "受光スリット2"
*MEAS_COND_AXIS_NAME-20 "受光光学素子"
*MEAS_COND_AXIS_NAME-21 "受光平行スリット"
*MEAS_COND_AXIS_NAME-22 "調整用受光スリット"
*MEAS_COND_AXIS_NAME-23 ""
*MEAS_COND_AXIS_NAME-24 ""
*MEAS_COND_AXIS_NAME-25 "Zd"
*MEAS_COND_AXIS_NAME-26 "アッテネータ"
*MEAS_COND_AXIS_NAME-27 "検出器モノクロメータ"
*MEAS_COND_AXIS_NAME-28 "モノクロメータスリット"
*MEAS_COND_AXIS_NAME-29 "プライマリビーム"
*MEAS_COND_AXIS_NAME-30 "PHA"
*MEAS_COND_AXIS_NAME_INTERNAL-0 "TwoThetaTheta"
*MEAS_COND_AXIS_NAME_INTERNAL-1 "TwoTheta"
*MEAS_COND_AXIS_NAME_INTERNAL-2 "Omega"
*MEAS_COND_AXIS_NAME_INTERNAL-3 "Z"
*MEAS_COND_AXIS_NAME_INTERNAL-4 "TwoThetaOmega"
*MEAS_COND_AXIS_NAME_INTERNAL-5 "ThetaS"
*MEAS_COND_AXIS_NAME_INTERNAL-6 "ThetaD"
*MEAS_COND_AXIS_NAME_INTERNAL-7 "Ts"
*MEAS_COND_AXIS_NAME_INTERNAL-8 "CBO"
*MEAS_COND_AXIS_NAME_INTERNAL-9 "CBO-M"
*MEAS_COND_AXIS_NAME_INTERNAL-10 "IncidentSollerSlit"
*MEAS_COND_AXIS_NAME_INTERNAL-11 "IncidentSlitBox"
*MEAS_COND_AXIS_NAME_INTERNAL-12 "IncidentSlitBox-_Axis"
*MEAS_COND_AXIS_NAME_INTERNAL-13 "Zs"
*MEAS_COND_AXIS_NAME_INTERNAL-14 "IncidentMonochromator"
*MEAS_COND_AXIS_NAME_INTERNAL-15 "IncidentAxdSlit"
*MEAS_COND_AXIS_NAME_INTERNAL-16 "CenterSlit"
*MEAS_COND_AXIS_NAME_INTERNAL-17 "Filter"
*MEAS_COND_AXIS_NAME_INTERNAL-18 "ReceivingSlitBox1"
*MEAS_COND_AXIS_NAME_INTERNAL-19 "ReceivingSlitBox2"
*MEAS_COND_AXIS_NAME_INTERNAL-20 "ReceivingOptics"
*MEAS_COND_AXIS_NAME_INTERNAL-21 "ReceivingSollerSlit"
*MEAS_COND_AXIS_NAME_INTERNAL-22 "ReceivingAxdSlit"
*MEAS_COND_AXIS_NAME_INTERNAL-23 "ReceivingSlitBox1-_Axis"
*MEAS_COND_AXIS_NAME_INTERNAL-24 "ReceivingSlitBox2-_Axis"
*MEAS_COND_AXIS_NAME_INTERNAL-25 "ReceivingSlitBox2-Zd"
*MEAS_COND_AXIS_NAME_INTERNAL-26 "Attenuator"
*MEAS_COND_AXIS_NAME_INTERNAL-27 "CounterMonochromator"
*MEAS_COND_AXIS_NAME_INTERNAL-28 "CounterSlit"
*MEAS_COND_AXIS_NAME_INTERNAL-29 "IncidentPrimary"
*MEAS_COND_AXIS_NAME_INTERNAL-30 "PHA"
*MEAS_COND_AXIS_NAME_MAGICNO-0 "83951616.0000000000"
*MEAS_COND_AXIS_NAME_MAGICNO-1 "268632064.0000000000"
*MEAS_COND_AXIS_NAME_MAGICNO-2 "268500992.0000000000"
*MEAS_COND_AXIS_NAME_MAGICNO-3 "285278208.0000000000"
*MEAS_COND_AXIS_NAME_MAGICNO-4 "83951616.0000000000"
*MEAS_COND_AXIS_NAME_MAGICNO-5 "131072.0000000000"
*MEAS_COND_AXIS_NAME_MAGICNO-6 "131072.0000000000"
*MEAS_COND_AXIS_NAME_MAGICNO-7 "318898176.0000000000"
*MEAS_COND_AXIS_NAME_MAGICNO-8 "20971521.0000000000"
*MEAS_COND_AXIS_NAME_MAGICNO-9 "285343744.0000000000"
*MEAS_COND_AXIS_NAME_MAGICNO-10 "20971521.0000000000"
*MEAS_COND_AXIS_NAME_MAGICNO-11 "22020097.0000000000"
*MEAS_COND_AXIS_NAME_MAGICNO-12 "25165824.0000000000"
*MEAS_COND_AXIS_NAME_MAGICNO-13 "318898176.0000000000"
*MEAS_COND_AXIS_NAME_MAGICNO-14 "1.0000000000"
*MEAS_COND_AXIS_NAME_MAGICNO-15 "20971521.0000000000"
*MEAS_COND_AXIS_NAME_MAGICNO-16 "20971521.0000000000"
*MEAS_COND_AXIS_NAME_MAGICNO-17 "20971521.0000000000"
*MEAS_COND_AXIS_NAME_MAGICNO-18 "23068673.0000000000"
*MEAS_COND_AXIS_NAME_MAGICNO-19 "23068673.0000000000"
*MEAS_COND_AXIS_NAME_MAGICNO-20 "20971521.0000000000"
*MEAS_COND_AXIS_NAME_MAGICNO-21 "20971521.0000000000"
*MEAS_COND_AXIS_NAME_MAGICNO-22 "20971521.0000000000"
*MEAS_COND_AXIS_NAME_MAGICNO-23 "25165824.0000000000"
*MEAS_COND_AXIS_NAME_MAGICNO-24 "25165824.0000000000"
*MEAS_COND_AXIS_NAME_MAGICNO-25 "285343744.0000000000"
*MEAS_COND_AXIS_NAME_MAGICNO-26 "17301505.0000000000"
*MEAS_COND_AXIS_NAME_MAGICNO-27 "20971521.0000000000"
*MEAS_COND_AXIS_NAME_MAGICNO-28 "20971521.0000000000"
*MEAS_COND_AXIS_NAME_MAGICNO-29 "20971521.0000000000"
*MEAS_COND_AXIS_NAME_MAGICNO-30 "0.0000000000"
*MEAS_COND_AXIS_OFFSET-0 "-"
*MEAS_COND_AXIS_OFFSET-1 "-0.1081000000"
*MEAS_COND_AXIS_OFFSET-2 "0.3758000000"
*MEAS_COND_AXIS_OFFSET-3 "-"
*MEAS_COND_AXIS_OFFSET-4 "-"
*MEAS_COND_AXIS_OFFSET-5 "0.3758000000"
*MEAS_COND_AXIS_OFFSET-6 "-0.4839000000"
*MEAS_COND_AXIS_OFFSET-7 "-"
*MEAS_COND_AXIS_OFFSET-8 "-"
*MEAS_COND_AXIS_OFFSET-9 "-"
*MEAS_COND_AXIS_OFFSET-10 "-"
*MEAS_COND_AXIS_OFFSET-11 "-"
*MEAS_COND_AXIS_OFFSET-12 "-"
*MEAS_COND_AXIS_OFFSET-13 "-"
*MEAS_COND_AXIS_OFFSET-14 "-"
*MEAS_COND_AXIS_OFFSET-15 "-"
*MEAS_COND_AXIS_OFFSET-16 "-"
*MEAS_COND_AXIS_OFFSET-17 "-"
*MEAS_COND_AXIS_OFFSET-18 "-"
*MEAS_COND_AXIS_OFFSET-19 "-"
*MEAS_COND_AXIS_OFFSET-20 "-"
*MEAS_COND_AXIS_OFFSET-21 "-"
*MEAS_COND_AXIS_OFFSET-22 "-"
*MEAS_COND_AXIS_OFFSET-23 "-"
*MEAS_COND_AXIS_OFFSET-24 "-"
*MEAS_COND_AXIS_OFFSET-25 "-"
*MEAS_COND_AXIS_OFFSET-26 "-"
*MEAS_COND_AXIS_OFFSET-27 "-"
*MEAS_COND_AXIS_OFFSET-28 "-"
*MEAS_COND_AXIS_OFFSET-29 "-"
*MEAS_COND_AXIS_OFFSET-30 "-"
*MEAS_COND_AXIS_POSITION-0 "0.0000000000"
*MEAS_COND_AXIS_POSITION-1 "0.0000000000"
*MEAS_COND_AXIS_POSITION-2 "0.0000000000"
*MEAS_COND_AXIS_POSITION-3 "-0.5500000000"
*MEAS_COND_AXIS_POSITION-4 "0.0000000000"
*MEAS_COND_AXIS_POSITION-5 "0.0000000000"
*MEAS_COND_AXIS_POSITION-6 "0.0000000000"
*MEAS_COND_AXIS_POSITION-7 "-0.4278800000"
*MEAS_COND_AXIS_POSITION-8 "BB"
*MEAS_COND_AXIS_POSITION-9 "0.0000000000"
*MEAS_COND_AXIS_POSITION-10 "Soller_slit_5.0deg"
*MEAS_COND_AXIS_POSITION-11 "2/3deg"
*MEAS_COND_AXIS_POSITION-12 "2.2088000000"
*MEAS_COND_AXIS_POSITION-13 "-0.4140600000"
*MEAS_COND_AXIS_POSITION-14 "0.0000000000"
*MEAS_COND_AXIS_POSITION-15 "10.0mm"
*MEAS_COND_AXIS_POSITION-16 "None"
*MEAS_COND_AXIS_POSITION-17 "Cu_K-beta"
*MEAS_COND_AXIS_POSITION-18 "13.000mm"
*MEAS_COND_AXIS_POSITION-19 "13.000mm"
*MEAS_COND_AXIS_POSITION-20 "No_unit"
*MEAS_COND_AXIS_POSITION-21 "Soller_slit_5.0deg"
*MEAS_COND_AXIS_POSITION-22 "None"
*MEAS_COND_AXIS_POSITION-23 "13.0000000000"
*MEAS_COND_AXIS_POSITION-24 "13.0000000000"
*MEAS_COND_AXIS_POSITION-25 "0.0109400000"
*MEAS_COND_AXIS_POSITION-26 "Open"
*MEAS_COND_AXIS_POSITION-27 "None"
*MEAS_COND_AXIS_POSITION-28 "None"
*MEAS_COND_AXIS_POSITION-29 "None"
*MEAS_COND_AXIS_POSITION-30 "38.0000000000"
*MEAS_COND_AXIS_UNIT-0 "deg"
*MEAS_COND_AXIS_UNIT-1 "deg"
*MEAS_COND_AXIS_UNIT-2 "deg"
*MEAS_COND_AXIS_UNIT-3 "mm"
*MEAS_COND_AXIS_UNIT-4 "deg"
*MEAS_COND_AXIS_UNIT-5 "deg"
*MEAS_COND_AXIS_UNIT-6 "deg"
*MEAS_COND_AXIS_UNIT-7 "mm"
*MEAS_COND_AXIS_UNIT-8 ""
*MEAS_COND_AXIS_UNIT-9 "pulse"
*MEAS_COND_AXIS_UNIT-10 ""
*MEAS_COND_AXIS_UNIT-11 ""
*MEAS_COND_AXIS_UNIT-12 "mm"
*MEAS_COND_AXIS_UNIT-13 "mm"
*MEAS_COND_AXIS_UNIT-14 ""
*MEAS_COND_AXIS_UNIT-15 ""
*MEAS_COND_AXIS_UNIT-16 ""
*MEAS_COND_AXIS_UNIT-17 ""
*MEAS_COND_AXIS_UNIT-18 ""
*MEAS_COND_AXIS_UNIT-19 ""
*MEAS_COND_AXIS_UNIT-20 ""
*MEAS_COND_AXIS_UNIT-21 ""
*MEAS_COND_AXIS_UNIT-22 ""
*MEAS_COND_AXIS_UNIT-23 "mm"
*MEAS_COND_AXIS_UNIT-24 "mm"
*MEAS_COND_AXIS_UNIT-25 "mm"
*MEAS_COND_AXIS_UNIT-26 ""
*MEAS_COND_AXIS_UNIT-27 ""
*MEAS_COND_AXIS_UNIT-28 ""
*MEAS_COND_AXIS_UNIT-29 ""
*MEAS_COND_AXIS_UNIT-30 "div"
*MEAS_COND_COUNTER_CNTLOSS_CORR "0.0000000000"
*MEAS_COND_COUNTER_PHABASE "38.0000000000"
*MEAS_COND_COUNTER_PHAWINDOW "16.0000000000"
*MEAS_COND_COUNTER_PHA_UNIT "div"
*MEAS_COND_COUNTER_TAUDIFF "30.0000000000"
*MEAS_COND_COUNTER_TAUINT "0.0000000000"
*MEAS_COND_IRRADIATION_MODE "OFF"
*MEAS_COND_IRRADIATION_WIDTH ""
*MEAS_COND_OPT_ATTR "集中法"
*MEAS_COND_OPT_NAME "@集中法"
*MEAS_COND_UNSYMMETRIC_MODE "OFF"
*MEAS_COND_XG_CURRENT "30.0000000000"
*MEAS_COND_XG_VOLTAGE "40.0000000000"
*MEAS_COND_XG_WAVE_TYPE "Ka"
*MEAS_DATA_COUNT "5001.0000000000"
*MEAS_SCAN_AXIS_X "2θ/θ"
*MEAS_SCAN_AXIS_X_INTERNAL "TwoThetaTheta"
*MEAS_SCAN_END_TIME "07/29/21 18:02:51"
*MEAS_SCAN_MODE "CONTINUOUS"
*MEAS_SCAN_MONITOR "0"
*MEAS_SCAN_RESOLUTION_X "0.0002"
*MEAS_SCAN_SPEED "2.5"
*MEAS_SCAN_SPEED_UNIT "deg/min"
*MEAS_SCAN_START "20.0000000000"
*MEAS_SCAN_START_TIME "07/29/21 17:41:28"
*MEAS_SCAN_STEP "0.0100000000"
*MEAS_SCAN_STOP "70.0000000000"
*MEAS_SCAN_UNIT_X "deg"
*MEAS_SCAN_UNIT_Y "counts"
*RAS_HEADER_END
*RAS_INT_START
20.0000 686.0000 1.0000
20.0100 658.0000 1.0000
20.0200 658.0000 1.0000
20.0300 666.0000 1.0000
20.0400 647.0000 1.0000
20.0500 676.0000 1.0000
20.0600 705.0000 1.0000
20.0700 673.0000 1.0000
20.0800 680.0000 1.0000
20.0900 649.0000 1.0000
20.1000 673.0000 1.0000
20.1100 609.0000 1.0000
20.1200 632.0000 1.0000
20.1300 699.0000 1.0000
20.1400 658.0000 1.0000
20.1500 669.0000 1.0000
20.1600 666.0000 1.0000
20.1700 628.0000 1.0000
20.1800 644.0000 1.0000
20.1900 639.0000 1.0000
20.2000 695.0000 1.0000
20.2100 678.0000 1.0000
20.2200 640.0000 1.0000
20.2300 684.0000 1.0000
20.2400 689.0000 1.0000
20.2500 656.0000 1.0000
20.2600 667.0000 1.0000
20.2700 672.0000 1.0000
20.2800 670.0000 1.0000
20.2900 702.0000 1.0000
20.3000 677.0000 1.0000
20.3100 683.0000 1.0000
20.3200 639.0000 1.0000
20.3300 676.0000 1.0000
20.3400 662.0000 1.0000
20.3500 664.0000 1.0000
20.3600 669.0000 1.0000
20.3700 678.0000 1.0000
20.3800 660.0000 1.0000
20.3900 683.0000 1.0000
20.4000 709.0000 1.0000
20.4100 679.0000 1.0000
20.4200 656.0000 1.0000
20.4300 679.0000 1.0000
20.4400 677.0000 1.0000
20.4500 657.0000 1.0000
20.4600 665.0000 1.0000
20.4700 672.0000 1.0000
20.4800 629.0000 1.0000
20.4900 651.0000 1.0000
20.5000 660.0000 1.0000
20.5100 678.0000 1.0000
20.5200 647.0000 1.0000
20.5300 672.0000 1.0000
20.5400 657.0000 1.0000
20.5500 659.0000 1.0000
20.5600 682.0000 1.0000
20.5700 689.0000 1.0000
20.5800 682.0000 1.0000
20.5900 654.0000 1.0000
20.6000 649.0000 1.0000
20.6100 650.0000 1.0000
20.6200 655.0000 1.0000
20.6300 671.0000 1.0000
20.6400 677.0000 1.0000
20.6500 630.0000 1.0000
20.6600 651.0000 1.0000
20.6700 692.0000 1.0000
20.6800 673.0000 1.0000
20.6900 672.0000 1.0000
20.7000 652.0000 1.0000
20.7100 653.0000 1.0000
20.7200 687.0000 1.0000
20.7300 671.0000 1.0000
20.7400 669.0000 1.0000
20.7500 658.0000 1.0000
20.7600 634.0000 1.0000
20.7700 675.0000 1.0000
20.7800 672.0000 1.0000
20.7900 644.0000 1.0000
20.8000 649.0000 1.0000
20.8100 682.0000 1.0000
20.8200 672.0000 1.0000
20.8300 703.0000 1.0000
20.8400 654.0000 1.0000
20.8500 682.0000 1.0000
20.8600 637.0000 1.0000
20.8700 639.0000 1.0000
20.8800 656.0000 1.0000
20.8900 711.0000 1.0000
20.9000 686.0000 1.0000
20.9100 664.0000 1.0000
20.9200 671.0000 1.0000
20.9300 629.0000 1.0000
20.9400 679.0000 1.0000
20.9500 659.0000 1.0000
20.9600 713.0000 1.0000
20.9700 676.0000 1.0000
20.9800 635.0000 1.0000
20.9900 645.0000 1.0000
21.0000 695.0000 1.0000
21.0100 701.0000 1.0000
21.0200 634.0000 1.0000
21.0300 643.0000 1.0000
21.0400 676.0000 1.0000
21.0500 676.0000 1.0000
21.0600 689.0000 1.0000
21.0700 645.0000 1.0000
21.0800 665.0000 1.0000
21.0900 681.0000 1.0000
21.1000 695.0000 1.0000
21.1100 657.0000 1.0000
21.1200 651.0000 1.0000
21.1300 663.0000 1.0000
21.1400 662.0000 1.0000
21.1500 671.0000 1.0000
21.1600 678.0000 1.0000
21.1700 660.0000 1.0000
21.1800 666.0000 1.0000
21.1900 647.0000 1.0000
21.2000 636.0000 1.0000
21.2100 673.0000 1.0000
21.2200 650.0000 1.0000
21.2300 652.0000 1.0000
21.2400 659.0000 1.0000
21.2500 632.0000 1.0000
21.2600 682.0000 1.0000
21.2700 667.0000 1.0000
21.2800 637.0000 1.0000
21.2900 655.0000 1.0000
21.3000 649.0000 1.0000
21.3100 686.0000 1.0000
21.3200 702.0000 1.0000
21.3300 683.0000 1.0000
21.3400 611.0000 1.0000
21.3500 623.0000 1.0000
21.3600 672.0000 1.0000
21.3700 687.0000 1.0000
21.3800 628.0000 1.0000
21.3900 673.0000 1.0000
21.4000 651.0000 1.0000
21.4100 701.0000 1.0000
21.4200 697.0000 1.0000
21.4300 660.0000 1.0000
21.4400 706.0000 1.0000
21.4500 642.0000 1.0000
21.4600 683.0000 1.0000
21.4700 653.0000 1.0000
21.4800 698.0000 1.0000
21.4900 677.0000 1.0000
21.5000 694.0000 1.0000
21.5100 735.0000 1.0000
21.5200 678.0000 1.0000
21.5300 661.0000 1.0000
21.5400 627.0000 1.0000
21.5500 671.0000 1.0000
21.5600 715.0000 1.0000
21.5700 663.0000 1.0000
21.5800 682.0000 1.0000
21.5900 683.0000 1.0000
21.6000 688.0000 1.0000
21.6100 639.0000 1.0000
21.6200 650.0000 1.0000
21.6300 660.0000 1.0000
21.6400 652.0000 1.0000
21.6500 690.0000 1.0000
21.6600 681.0000 1.0000
21.6700 648.0000 1.0000
21.6800 672.0000 1.0000
21.6900 687.0000 1.0000
21.7000 685.0000 1.0000
21.7100 663.0000 1.0000
21.7200 658.0000 1.0000
21.7300 676.0000 1.0000
21.7400 665.0000 1.0000
21.7500 719.0000 1.0000
21.7600 697.0000 1.0000
21.7700 673.0000 1.0000
21.7800 661.0000 1.0000
21.7900 692.0000 1.0000
21.8000 649.0000 1.0000
21.8100 685.0000 1.0000
21.8200 651.0000 1.0000
21.8300 690.0000 1.0000
21.8400 694.0000 1.0000
21.8500 620.0000 1.0000
21.8600 679.0000 1.0000
21.8700 668.0000 1.0000
21.8800 656.0000 1.0000
21.8900 688.0000 1.0000
21.9000 712.0000 1.0000
21.9100 698.0000 1.0000
21.9200 676.0000 1.0000
21.9300 672.0000 1.0000
21.9400 672.0000 1.0000
21.9500 654.0000 1.0000
21.9600 680.0000 1.0000
21.9700 659.0000 1.0000
21.9800 626.0000 1.0000
21.9900 633.0000 1.0000
22.0000 649.0000 1.0000
22.0100 667.0000 1.0000
22.0200 633.0000 1.0000
22.0300 690.0000 1.0000
22.0400 667.0000 1.0000
22.0500 647.0000 1.0000
22.0600 693.0000 1.0000
22.0700 662.0000 1.0000
22.0800 638.0000 1.0000
22.0900 649.0000 1.0000
22.1000 660.0000 1.0000
22.1100 635.0000 1.0000
22.1200 658.0000 1.0000
22.1300 683.0000 1.0000
22.1400 657.0000 1.0000
22.1500 662.0000 1.0000
22.1600 690.0000 1.0000
22.1700 712.0000 1.0000
22.1800 695.0000 1.0000
22.1900 678.0000 1.0000
22.2000 666.0000 1.0000
22.2100 681.0000 1.0000
22.2200 648.0000 1.0000
22.2300 676.0000 1.0000
22.2400 696.0000 1.0000
22.2500 661.0000 1.0000
22.2600 687.0000 1.0000
22.2700 677.0000 1.0000
22.2800 658.0000 1.0000
22.2900 709.0000 1.0000
22.3000 678.0000 1.0000
22.3100 698.0000 1.0000
22.3200 682.0000 1.0000
22.3300 676.0000 1.0000
22.3400 667.0000 1.0000
22.3500 681.0000 1.0000
22.3600 651.0000 1.0000
22.3700 719.0000 1.0000
22.3800 654.0000 1.0000
22.3900 638.0000 1.0000
22.4000 677.0000 1.0000
22.4100 691.0000 1.0000
22.4200 678.0000 1.0000
22.4300 678.0000 1.0000
22.4400 694.0000 1.0000
22.4500 665.0000 1.0000
22.4600 670.0000 1.0000
22.4700 700.0000 1.0000
22.4800 668.0000 1.0000
22.4900 664.0000 1.0000
22.5000 652.0000 1.0000
22.5100 648.0000 1.0000
22.5200 690.0000 1.0000
22.5300 682.0000 1.0000
22.5400 681.0000 1.0000
22.5500 680.0000 1.0000
22.5600 703.0000 1.0000
22.5700 660.0000 1.0000
22.5800 643.0000 1.0000
22.5900 702.0000 1.0000
22.6000 689.0000 1.0000
22.6100 702.0000 1.0000
22.6200 707.0000 1.0000
22.6300 662.0000 1.0000
22.6400 659.0000 1.0000
22.6500 680.0000 1.0000
22.6600 704.0000 1.0000
22.6700 741.0000 1.0000
22.6800 711.0000 1.0000
22.6900 642.0000 1.0000
22.7000 666.0000 1.0000
22.7100 676.0000 1.0000
22.7200 699.0000 1.0000
22.7300 702.0000 1.0000
22.7400 673.0000 1.0000
22.7500 736.0000 1.0000
22.7600 707.0000 1.0000
22.7700 662.0000 1.0000
22.7800 659.0000 1.0000
22.7900 693.0000 1.0000
22.8000 717.0000 1.0000
22.8100 694.0000 1.0000
22.8200 652.0000 1.0000
22.8300 718.0000 1.0000
22.8400 672.0000 1.0000
22.8500 662.0000 1.0000
22.8600 658.0000 1.0000
22.8700 708.0000 1.0000
22.8800 692.0000 1.0000
22.8900 675.0000 1.0000
22.9000 691.0000 1.0000
22.9100 704.0000 1.0000
22.9200 702.0000 1.0000
22.9300 722.0000 1.0000
22.9400 735.0000 1.0000
22.9500 690.0000 1.0000
22.9600 676.0000 1.0000
22.9700 723.0000 1.0000
22.9800 689.0000 1.0000
22.9900 715.0000 1.0000
23.0000 740.0000 1.0000
23.0100 713.0000 1.0000
23.0200 714.0000 1.0000
23.0300 682.0000 1.0000
23.0400 714.0000 1.0000
23.0500 670.0000 1.0000
23.0600 642.0000 1.0000
23.0700 703.0000 1.0000
23.0800 689.0000 1.0000
23.0900 677.0000 1.0000
23.1000 678.0000 1.0000
23.1100 687.0000 1.0000
23.1200 700.0000 1.0000
23.1300 685.0000 1.0000
23.1400 691.0000 1.0000
23.1500 656.0000 1.0000
23.1600 711.0000 1.0000
23.1700 700.0000 1.0000
23.1800 687.0000 1.0000
23.1900 698.0000 1.0000
23.2000 710.0000 1.0000
23.2100 690.0000 1.0000
23.2200 684.0000 1.0000
23.2300 675.0000 1.0000
23.2400 660.0000 1.0000
23.2500 716.0000 1.0000
23.2600 694.0000 1.0000
23.2700 733.0000 1.0000
23.2800 678.0000 1.0000
23.2900 657.0000 1.0000
23.3000 690.0000 1.0000
23.3100 699.0000 1.0000
23.3200 673.0000 1.0000
23.3300 655.0000 1.0000
23.3400 651.0000 1.0000
23.3500 645.0000 1.0000
23.3600 685.0000 1.0000
23.3700 664.0000 1.0000
23.3800 717.0000 1.0000
23.3900 658.0000 1.0000
23.4000 648.0000 1.0000
23.4100 679.0000 1.0000
23.4200 688.0000 1.0000
23.4300 681.0000 1.0000
23.4400 676.0000 1.0000
23.4500 692.0000 1.0000
23.4600 720.0000 1.0000
23.4700 693.0000 1.0000
23.4800 667.0000 1.0000
23.4900 707.0000 1.0000
23.5000 697.0000 1.0000
23.5100 697.0000 1.0000
23.5200 682.0000 1.0000
23.5300 701.0000 1.0000
23.5400 686.0000 1.0000
23.5500 710.0000 1.0000
23.5600 689.0000 1.0000
23.5700 676.0000 1.0000
23.5800 702.0000 1.0000
23.5900 691.0000 1.0000
23.6000 684.0000 1.0000
23.6100 703.0000 1.0000
23.6200 707.0000 1.0000
23.6300 684.0000 1.0000
23.6400 712.0000 1.0000
23.6500 697.0000 1.0000
23.6600 701.0000 1.0000
23.6700 726.0000 1.0000
23.6800 675.0000 1.0000
23.6900 702.0000 1.0000
23.7000 676.0000 1.0000
23.7100 702.0000 1.0000
23.7200 676.0000 1.0000
23.7300 741.0000 1.0000
23.7400 676.0000 1.0000
23.7500 671.0000 1.0000
23.7600 672.0000 1.0000
23.7700 690.0000 1.0000
23.7800 681.0000 1.0000
23.7900 678.0000 1.0000
23.8000 681.0000 1.0000
23.8100 644.0000 1.0000
23.8200 663.0000 1.0000
23.8300 721.0000 1.0000
23.8400 669.0000 1.0000
23.8500 733.0000 1.0000
23.8600 719.0000 1.0000
23.8700 668.0000 1.0000
23.8800 664.0000 1.0000
23.8900 689.0000 1.0000
23.9000 705.0000 1.0000
23.9100 690.0000 1.0000
23.9200 683.0000 1.0000
23.9300 700.0000 1.0000
23.9400 682.0000 1.0000
23.9500 679.0000 1.0000
23.9600 704.0000 1.0000
23.9700 667.0000 1.0000
23.9800 676.0000 1.0000
23.9900 661.0000 1.0000
24.0000 664.0000 1.0000
24.0100 684.0000 1.0000
24.0200 702.0000 1.0000
24.0300 714.0000 1.0000
24.0400 689.0000 1.0000
24.0500 711.0000 1.0000
24.0600 676.0000 1.0000
24.0700 700.0000 1.0000
24.0800 720.0000 1.0000
24.0900 717.0000 1.0000
24.1000 727.0000 1.0000
24.1100 684.0000 1.0000
24.1200 669.0000 1.0000
24.1300 707.0000 1.0000
24.1400 694.0000 1.0000
24.1500 701.0000 1.0000
24.1600 715.0000 1.0000
24.1700 717.0000 1.0000
24.1800 686.0000 1.0000
24.1900 656.0000 1.0000
24.2000 681.0000 1.0000
24.2100 668.0000 1.0000
24.2200 668.0000 1.0000
24.2300 663.0000 1.0000
24.2400 648.0000 1.0000
24.2500 713.0000 1.0000
24.2600 673.0000 1.0000
24.2700 668.0000 1.0000
24.2800 715.0000 1.0000
24.2900 677.0000 1.0000
24.3000 698.0000 1.0000
24.3100 702.0000 1.0000
24.3200 665.0000 1.0000
24.3300 743.0000 1.0000
24.3400 711.0000 1.0000
24.3500 700.0000 1.0000
24.3600 725.0000 1.0000
24.3700 701.0000 1.0000
24.3800 702.0000 1.0000
24.3900 651.0000 1.0000
24.4000 710.0000 1.0000
24.4100 699.0000 1.0000
24.4200 693.0000 1.0000
24.4300 707.0000 1.0000
24.4400 722.0000 1.0000
24.4500 695.0000 1.0000
24.4600 712.0000 1.0000
24.4700 685.0000 1.0000
24.4800 708.0000 1.0000
24.4900 767.0000 1.0000
24.5000 684.0000 1.0000
24.5100 665.0000 1.0000
24.5200 720.0000 1.0000
24.5300 705.0000 1.0000
24.5400 705.0000 1.0000
24.5500 682.0000 1.0000
24.5600 715.0000 1.0000
24.5700 706.0000 1.0000
24.5800 720.0000 1.0000
24.5900 726.0000 1.0000
24.6000 730.0000 1.0000
24.6100 663.0000 1.0000
24.6200 694.0000 1.0000
24.6300 727.0000 1.0000
24.6400 709.0000 1.0000
24.6500 734.0000 1.0000
24.6600 744.0000 1.0000
24.6700 681.0000 1.0000
24.6800 731.0000 1.0000
24.6900 761.0000 1.0000
24.7000 741.0000 1.0000
24.7100 726.0000 1.0000
24.7200 729.0000 1.0000
24.7300 701.0000 1.0000
24.7400 718.0000 1.0000
24.7500 680.0000 1.0000
24.7600 710.0000 1.0000
24.7700 726.0000 1.0000
24.7800 745.0000 1.0000
24.7900 737.0000 1.0000
24.8000 713.0000 1.0000
24.8100 745.0000 1.0000
24.8200 712.0000 1.0000
24.8300 727.0000 1.0000
24.8400 733.0000 1.0000
24.8500 719.0000 1.0000
24.8600 708.0000 1.0000
24.8700 704.0000 1.0000
24.8800 731.0000 1.0000
24.8900 708.0000 1.0000
24.9000 736.0000 1.0000
24.9100 706.0000 1.0000
24.9200 745.0000 1.0000
24.9300 714.0000 1.0000
24.9400 723.0000 1.0000
24.9500 773.0000 1.0000
24.9600 747.0000 1.0000
24.9700 748.0000 1.0000
24.9800 750.0000 1.0000
24.9900 715.0000 1.0000
25.0000 746.0000 1.0000
25.0100 736.0000 1.0000
25.0200 712.0000 1.0000
25.0300 731.0000 1.0000
25.0400 737.0000 1.0000
25.0500 746.0000 1.0000
25.0600 732.0000 1.0000
25.0700 716.0000 1.0000
25.0800 739.0000 1.0000
25.0900 738.0000 1.0000
25.1000 755.0000 1.0000
25.1100 693.0000 1.0000
25.1200 716.0000 1.0000
25.1300 743.0000 1.0000
25.1400 715.0000 1.0000
25.1500 712.0000 1.0000
25.1600 707.0000 1.0000
25.1700 740.0000 1.0000
25.1800 726.0000 1.0000
25.1900 732.0000 1.0000
25.2000 745.0000 1.0000
25.2100 714.0000 1.0000
25.2200 701.0000 1.0000
25.2300 727.0000 1.0000
25.2400 725.0000 1.0000
25.2500 717.0000 1.0000
25.2600 726.0000 1.0000
25.2700 714.0000 1.0000
25.2800 723.0000 1.0000
25.2900 681.0000 1.0000
25.3000 670.0000 1.0000
25.3100 731.0000 1.0000
25.3200 712.0000 1.0000
25.3300 712.0000 1.0000
25.3400 699.0000 1.0000
25.3500 684.0000 1.0000
25.3600 719.0000 1.0000
25.3700 706.0000 1.0000
25.3800 685.0000 1.0000
25.3900 693.0000 1.0000
25.4000 725.0000 1.0000
25.4100 720.0000 1.0000
25.4200 704.0000 1.0000
25.4300 718.0000 1.0000
25.4400 743.0000 1.0000
25.4500 675.0000 1.0000
25.4600 714.0000 1.0000
25.4700 719.0000 1.0000
25.4800 674.0000 1.0000
25.4900 733.0000 1.0000
25.5000 722.0000 1.0000
25.5100 719.0000 1.0000
25.5200 725.0000 1.0000
25.5300 692.0000 1.0000
25.5400 701.0000 1.0000
25.5500 702.0000 1.0000
25.5600 722.0000 1.0000
25.5700 730.0000 1.0000
25.5800 696.0000 1.0000
25.5900 693.0000 1.0000
25.6000 721.0000 1.0000
25.6100 702.0000 1.0000
25.6200 698.0000 1.0000
25.6300 750.0000 1.0000
25.6400 732.0000 1.0000
25.6500 748.0000 1.0000
25.6600 701.0000 1.0000
25.6700 708.0000 1.0000
25.6800 744.0000 1.0000
25.6900 746.0000 1.0000
25.7000 728.0000 1.0000
25.7100 747.0000 1.0000
25.7200 731.0000 1.0000
25.7300 682.0000 1.0000
25.7400 697.0000 1.0000
25.7500 693.0000 1.0000
25.7600 703.0000 1.0000
25.7700 708.0000 1.0000
25.7800 736.0000 1.0000
25.7900 694.0000 1.0000
25.8000 696.0000 1.0000
25.8100 689.0000 1.0000
25.8200 687.0000 1.0000
25.8300 747.0000 1.0000
25.8400 730.0000 1.0000
25.8500 710.0000 1.0000
25.8600 695.0000 1.0000
25.8700 672.0000 1.0000
25.8800 746.0000 1.0000
25.8900 723.0000 1.0000
25.9000 782.0000 1.0000
25.9100 741.0000 1.0000
25.9200 712.0000 1.0000
25.9300 704.0000 1.0000
25.9400 737.0000 1.0000
25.9500 720.0000 1.0000
25.9600 731.0000 1.0000
25.9700 740.0000 1.0000
25.9800 719.0000 1.0000
25.9900 712.0000 1.0000
26.0000 707.0000 1.0000
26.0100 706.0000 1.0000
26.0200 752.0000 1.0000
26.0300 686.0000 1.0000
26.0400 748.0000 1.0000
26.0500 740.0000 1.0000
26.0600 727.0000 1.0000
26.0700 687.0000 1.0000
26.0800 741.0000 1.0000
26.0900 720.0000 1.0000
26.1000 660.0000 1.0000
26.1100 720.0000 1.0000
26.1200 723.0000 1.0000
26.1300 714.0000 1.0000
26.1400 719.0000 1.0000
26.1500 705.0000 1.0000
26.1600 705.0000 1.0000
26.1700 739.0000 1.0000
26.1800 736.0000 1.0000
26.1900 725.0000 1.0000
26.2000 695.0000 1.0000
26.2100 764.0000 1.0000
26.2200 706.0000 1.0000
26.2300 726.0000 1.0000
26.2400 754.0000 1.0000
26.2500 727.0000 1.0000
26.2600 695.0000 1.0000
26.2700 744.0000 1.0000
26.2800 731.0000 1.0000
26.2900 731.0000 1.0000
26.3000 695.0000 1.0000
26.3100 727.0000 1.0000
26.3200 761.0000 1.0000
26.3300 715.0000 1.0000
26.3400 723.0000 1.0000
26.3500 731.0000 1.0000
26.3600 713.0000 1.0000
26.3700 714.0000 1.0000
26.3800 715.0000 1.0000
26.3900 726.0000 1.0000
26.4000 749.0000 1.0000
26.4100 766.0000 1.0000
26.4200 733.0000 1.0000
26.4300 739.0000 1.0000
26.4400 769.0000 1.0000
26.4500 753.0000 1.0000
26.4600 726.0000 1.0000
26.4700 709.0000 1.0000
26.4800 729.0000 1.0000
26.4900 700.0000 1.0000
26.5000 692.0000 1.0000
26.5100 725.0000 1.0000
26.5200 767.0000 1.0000
26.5300 756.0000 1.0000
26.5400 760.0000 1.0000
26.5500 776.0000 1.0000
26.5600 748.0000 1.0000
26.5700 739.0000 1.0000
26.5800 725.0000 1.0000
26.5900 718.0000 1.0000
26.6000 745.0000 1.0000
26.6100 741.0000 1.0000
26.6200 719.0000 1.0000
26.6300 792.0000 1.0000
26.6400 775.0000 1.0000
26.6500 739.0000 1.0000
26.6600 739.0000 1.0000
26.6700 766.0000 1.0000
26.6800 782.0000 1.0000
26.6900 776.0000 1.0000
26.7000 749.0000 1.0000
26.7100 775.0000 1.0000
26.7200 751.0000 1.0000
26.7300 773.0000 1.0000
26.7400 798.0000 1.0000
26.7500 777.0000 1.0000
26.7600 788.0000 1.0000
26.7700 758.0000 1.0000
26.7800 777.0000 1.0000
26.7900 798.0000 1.0000
26.8000 814.0000 1.0000
26.8100 769.0000 1.0000
26.8200 749.0000 1.0000
26.8300 754.0000 1.0000
26.8400 804.0000 1.0000
26.8500 798.0000 1.0000
26.8600 868.0000 1.0000
26.8700 791.0000 1.0000
26.8800 838.0000 1.0000
26.8900 852.0000 1.0000
26.9000 821.0000 1.0000
26.9100 808.0000 1.0000
26.9200 865.0000 1.0000
26.9300 859.0000 1.0000
26.9400 863.0000 1.0000
26.9500 864.0000 1.0000
26.9600 853.0000 1.0000
26.9700 861.0000 1.0000
26.9800 868.0000 1.0000
26.9900 919.0000 1.0000
27.0000 934.0000 1.0000
27.0100 966.0000 1.0000
27.0200 947.0000 1.0000
27.0300 940.0000 1.0000
27.0400 1029.0000 1.0000
27.0500 1076.0000 1.0000
27.0600 1098.0000 1.0000
27.0700 1089.0000 1.0000
27.0800 1080.0000 1.0000
27.0900 1115.0000 1.0000
27.1000 1163.0000 1.0000
27.1100 1191.0000 1.0000
27.1200 1260.0000 1.0000
27.1300 1316.0000 1.0000
27.1400 1320.0000 1.0000
27.1500 1349.0000 1.0000
27.1600 1453.0000 1.0000
27.1700 1574.0000 1.0000
27.1800 1639.0000 1.0000
27.1900 1677.0000 1.0000
27.2000 1703.0000 1.0000
27.2100 1799.0000 1.0000
27.2200 1927.0000 1.0000
27.2300 1991.0000 1.0000
27.2400 2102.0000 1.0000
27.2500 2164.0000 1.0000
27.2600 2285.0000 1.0000
27.2700 2404.0000 1.0000
27.2800 2437.0000 1.0000
27.2900 2546.0000 1.0000
27.3000 2593.0000 1.0000
27.3100 2629.0000 1.0000
27.3200 2681.0000 1.0000
27.3300 2649.0000 1.0000
27.3400 2663.0000 1.0000
27.3500 2553.0000 1.0000
27.3600 2520.0000 1.0000
27.3700 2388.0000 1.0000
27.3800 2256.0000 1.0000
27.3900 2225.0000 1.0000
27.4000 2070.0000 1.0000
27.4100 2052.0000 1.0000
27.4200 1892.0000 1.0000
27.4300 1741.0000 1.0000
27.4400 1741.0000 1.0000
27.4500 1622.0000 1.0000
27.4600 1540.0000 1.0000
27.4700 1506.0000 1.0000
27.4800 1416.0000 1.0000
27.4900 1347.0000 1.0000
27.5000 1326.0000 1.0000
27.5100 1232.0000 1.0000
27.5200 1280.0000 1.0000
27.5300 1216.0000 1.0000
27.5400 1151.0000 1.0000
27.5500 1144.0000 1.0000
27.5600 1104.0000 1.0000
27.5700 1104.0000 1.0000
27.5800 1022.0000 1.0000
27.5900 993.0000 1.0000
27.6000 1004.0000 1.0000
27.6100 981.0000 1.0000
27.6200 940.0000 1.0000
27.6300 932.0000 1.0000
27.6400 885.0000 1.0000
27.6500 892.0000 1.0000
27.6600 914.0000 1.0000
27.6700 917.0000 1.0000
27.6800 877.0000 1.0000
27.6900 896.0000 1.0000
27.7000 856.0000 1.0000
27.7100 855.0000 1.0000
27.7200 846.0000 1.0000
27.7300 873.0000 1.0000
27.7400 851.0000 1.0000
27.7500 805.0000 1.0000
27.7600 767.0000 1.0000
27.7700 792.0000 1.0000
27.7800 822.0000 1.0000
27.7900 789.0000 1.0000
27.8000 768.0000 1.0000
27.8100 831.0000 1.0000
27.8200 801.0000 1.0000
27.8300 737.0000 1.0000
27.8400 754.0000 1.0000
27.8500 780.0000 1.0000
27.8600 745.0000 1.0000
27.8700 767.0000 1.0000
27.8800 797.0000 1.0000
27.8900 783.0000 1.0000
27.9000 804.0000 1.0000
27.9100 765.0000 1.0000
27.9200 759.0000 1.0000
27.9300 740.0000 1.0000
27.9400 757.0000 1.0000
27.9500 721.0000 1.0000
27.9600 765.0000 1.0000
27.9700 727.0000 1.0000
27.9800 723.0000 1.0000
27.9900 712.0000 1.0000
28.0000 760.0000 1.0000
28.0100 706.0000 1.0000
28.0200 741.0000 1.0000
28.0300 771.0000 1.0000
28.0400 711.0000 1.0000
28.0500 701.0000 1.0000
28.0600 769.0000 1.0000
28.0700 714.0000 1.0000
28.0800 728.0000 1.0000
28.0900 747.0000 1.0000
28.1000 713.0000 1.0000
28.1100 673.0000 1.0000
28.1200 715.0000 1.0000
28.1300 688.0000 1.0000
28.1400 711.0000 1.0000
28.1500 688.0000 1.0000
28.1600 704.0000 1.0000
28.1700 714.0000 1.0000
28.1800 655.0000 1.0000
28.1900 709.0000 1.0000
28.2000 716.0000 1.0000
28.2100 711.0000 1.0000
28.2200 720.0000 1.0000
28.2300 702.0000 1.0000
28.2400 721.0000 1.0000
28.2500 744.0000 1.0000
28.2600 709.0000 1.0000
28.2700 701.0000 1.0000
28.2800 670.0000 1.0000
28.2900 684.0000 1.0000
28.3000 710.0000 1.0000
28.3100 682.0000 1.0000
28.3200 694.0000 1.0000
28.3300 706.0000 1.0000
28.3400 693.0000 1.0000
28.3500 680.0000 1.0000
28.3600 667.0000 1.0000
28.3700 684.0000 1.0000
28.3800 701.0000 1.0000
28.3900 706.0000 1.0000
28.4000 694.0000 1.0000
28.4100 665.0000 1.0000
28.4200 701.0000 1.0000
28.4300 691.0000 1.0000
28.4400 697.0000 1.0000
28.4500 705.0000 1.0000
28.4600 679.0000 1.0000
28.4700 650.0000 1.0000
28.4800 715.0000 1.0000
28.4900 691.0000 1.0000
28.5000 695.0000 1.0000
28.5100 682.0000 1.0000
28.5200 667.0000 1.0000
28.5300 683.0000 1.0000
28.5400 673.0000 1.0000
28.5500 691.0000 1.0000
28.5600 688.0000 1.0000
28.5700 683.0000 1.0000
28.5800 666.0000 1.0000
28.5900 672.0000 1.0000
28.6000 696.0000 1.0000
28.6100 674.0000 1.0000
28.6200 658.0000 1.0000
28.6300 679.0000 1.0000
28.6400 680.0000 1.0000
28.6500 682.0000 1.0000
28.6600 655.0000 1.0000
28.6700 675.0000 1.0000
28.6800 656.0000 1.0000
28.6900 693.0000 1.0000
28.7000 693.0000 1.0000
28.7100 676.0000 1.0000
28.7200 698.0000 1.0000
28.7300 697.0000 1.0000
28.7400 716.0000 1.0000
28.7500 660.0000 1.0000
28.7600 686.0000 1.0000
28.7700 655.0000 1.0000
28.7800 670.0000 1.0000
28.7900 667.0000 1.0000
28.8000 651.0000 1.0000
28.8100 670.0000 1.0000
28.8200 659.0000 1.0000
28.8300 657.0000 1.0000
28.8400 629.0000 1.0000
28.8500 669.0000 1.0000
28.8600 674.0000 1.0000
28.8700 680.0000 1.0000
28.8800 664.0000 1.0000
28.8900 664.0000 1.0000
28.9000 692.0000 1.0000
28.9100 662.0000 1.0000
28.9200 683.0000 1.0000
28.9300 699.0000 1.0000
28.9400 648.0000 1.0000
28.9500 672.0000 1.0000
28.9600 696.0000 1.0000
28.9700 652.0000 1.0000
28.9800 637.0000 1.0000
28.9900 638.0000 1.0000
29.0000 680.0000 1.0000
29.0100 709.0000 1.0000
29.0200 694.0000 1.0000
29.0300 636.0000 1.0000
29.0400 664.0000 1.0000
29.0500 646.0000 1.0000
29.0600 666.0000 1.0000
29.0700 681.0000 1.0000
29.0800 679.0000 1.0000
29.0900 688.0000 1.0000
29.1000 650.0000 1.0000
29.1100 666.0000 1.0000
29.1200 659.0000 1.0000
29.1300 669.0000 1.0000
29.1400 662.0000 1.0000
29.1500 644.0000 1.0000
29.1600 705.0000 1.0000
29.1700 666.0000 1.0000
29.1800 702.0000 1.0000
29.1900 677.0000 1.0000
29.2000 686.0000 1.0000
29.2100 666.0000 1.0000
29.2200 664.0000 1.0000
29.2300 637.0000 1.0000
29.2400 652.0000 1.0000
29.2500 703.0000 1.0000
29.2600 653.0000 1.0000
29.2700 671.0000 1.0000
29.2800 660.0000 1.0000
29.2900 680.0000 1.0000
29.3000 646.0000 1.0000
29.3100 651.0000 1.0000
29.3200 699.0000 1.0000
29.3300 688.0000 1.0000
29.3400 665.0000 1.0000
29.3500 673.0000 1.0000
29.3600 654.0000 1.0000
29.3700 677.0000 1.0000
29.3800 674.0000 1.0000
29.3900 672.0000 1.0000
29.4000 668.0000 1.0000
29.4100 652.0000 1.0000
29.4200 670.0000 1.0000
29.4300 692.0000 1.0000
29.4400 665.0000 1.0000
29.4500 670.0000 1.0000
29.4600 648.0000 1.0000
29.4700 620.0000 1.0000
29.4800 653.0000 1.0000
29.4900 646.0000 1.0000
29.5000 613.0000 1.0000
29.5100 664.0000 1.0000
29.5200 657.0000 1.0000
29.5300 651.0000 1.0000
29.5400 626.0000 1.0000
29.5500 620.0000 1.0000
29.5600 639.0000 1.0000
29.5700 653.0000 1.0000
29.5800 646.0000 1.0000
29.5900 613.0000 1.0000
29.6000 635.0000 1.0000
29.6100 637.0000 1.0000
29.6200 647.0000 1.0000
29.6300 634.0000 1.0000
29.6400 617.0000 1.0000
29.6500 627.0000 1.0000
29.6600 631.0000 1.0000
29.6700 648.0000 1.0000
29.6800 626.0000 1.0000
29.6900 632.0000 1.0000
29.7000 633.0000 1.0000
29.7100 667.0000 1.0000
29.7200 650.0000 1.0000
29.7300 636.0000 1.0000
29.7400 639.0000 1.0000
29.7500 682.0000 1.0000
29.7600 653.0000 1.0000
29.7700 618.0000 1.0000
29.7800 641.0000 1.0000
29.7900 678.0000 1.0000
29.8000 663.0000 1.0000
29.8100 667.0000 1.0000
29.8200 645.0000 1.0000
29.8300 664.0000 1.0000
29.8400 646.0000 1.0000
29.8500 663.0000 1.0000
29.8600 599.0000 1.0000
29.8700 642.0000 1.0000
29.8800 647.0000 1.0000
29.8900 629.0000 1.0000
29.9000 619.0000 1.0000
29.9100 647.0000 1.0000
29.9200 630.0000 1.0000
29.9300 612.0000 1.0000
29.9400 610.0000 1.0000
29.9500 653.0000 1.0000
29.9600 643.0000 1.0000
29.9700 651.0000 1.0000
29.9800 631.0000 1.0000
29.9900 690.0000 1.0000
30.0000 640.0000 1.0000
30.0100 635.0000 1.0000
30.0200 663.0000 1.0000
30.0300 626.0000 1.0000
30.0400 624.0000 1.0000
30.0500 615.0000 1.0000
30.0600 662.0000 1.0000
30.0700 610.0000 1.0000
30.0800 601.0000 1.0000
30.0900 652.0000 1.0000
30.1000 623.0000 1.0000
30.1100 624.0000 1.0000
30.1200 634.0000 1.0000
30.1300 648.0000 1.0000
30.1400 643.0000 1.0000
30.1500 618.0000 1.0000
30.1600 641.0000 1.0000
30.1700 619.0000 1.0000
30.1800 616.0000 1.0000
30.1900 646.0000 1.0000
30.2000 631.0000 1.0000
30.2100 635.0000 1.0000
30.2200 635.0000 1.0000
30.2300 607.0000 1.0000
30.2400 684.0000 1.0000
30.2500 658.0000 1.0000
30.2600 639.0000 1.0000
30.2700 648.0000 1.0000
30.2800 640.0000 1.0000
30.2900 669.0000 1.0000
30.3000 617.0000 1.0000
30.3100 634.0000 1.0000
30.3200 661.0000 1.0000
30.3300 614.0000 1.0000
30.3400 627.0000 1.0000
30.3500 628.0000 1.0000
30.3600 636.0000 1.0000
30.3700 637.0000 1.0000
30.3800 645.0000 1.0000
30.3900 587.0000 1.0000
30.4000 591.0000 1.0000
30.4100 619.0000 1.0000
30.4200 615.0000 1.0000
30.4300 646.0000 1.0000
30.4400 599.0000 1.0000
30.4500 643.0000 1.0000
30.4600 634.0000 1.0000
30.4700 608.0000 1.0000
30.4800 611.0000 1.0000
30.4900 623.0000 1.0000
30.5000 641.0000 1.0000
30.5100 620.0000 1.0000
30.5200 605.0000 1.0000
30.5300 642.0000 1.0000
30.5400 645.0000 1.0000
30.5500 628.0000 1.0000
30.5600 601.0000 1.0000
30.5700 649.0000 1.0000
30.5800 622.0000 1.0000
30.5900 666.0000 1.0000
30.6000 621.0000 1.0000
30.6100 600.0000 1.0000
30.6200 642.0000 1.0000
30.6300 653.0000 1.0000
30.6400 657.0000 1.0000
30.6500 634.0000 1.0000
30.6600 626.0000 1.0000
30.6700 627.0000 1.0000
30.6800 648.0000 1.0000
30.6900 576.0000 1.0000
30.7000 634.0000 1.0000
30.7100 642.0000 1.0000
30.7200 619.0000 1.0000
30.7300 630.0000 1.0000
30.7400 617.0000 1.0000
30.7500 606.0000 1.0000
30.7600 628.0000 1.0000
30.7700 609.0000 1.0000
30.7800 593.0000 1.0000
30.7900 593.0000 1.0000
30.8000 609.0000 1.0000
30.8100 638.0000 1.0000
30.8200 625.0000 1.0000
30.8300 617.0000 1.0000
30.8400 622.0000 1.0000
30.8500 635.0000 1.0000
30.8600 613.0000 1.0000
30.8700 604.0000 1.0000
30.8800 627.0000 1.0000
30.8900 594.0000 1.0000
30.9000 628.0000 1.0000
30.9100 651.0000 1.0000
30.9200 620.0000 1.0000
30.9300 600.0000 1.0000
30.9400 616.0000 1.0000
30.9500 580.0000 1.0000
30.9600 637.0000 1.0000
30.9700 650.0000 1.0000
30.9800 606.0000 1.0000
30.9900 605.0000 1.0000
31.0000 606.0000 1.0000
31.0100 569.0000 1.0000
31.0200 585.0000 1.0000
31.0300 644.0000 1.0000
31.0400 656.0000 1.0000
31.0500 635.0000 1.0000
31.0600 612.0000 1.0000
31.0700 634.0000 1.0000
31.0800 607.0000 1.0000
31.0900 563.0000 1.0000
31.1000 608.0000 1.0000
31.1100 610.0000 1.0000
31.1200 602.0000 1.0000
31.1300 625.0000 1.0000
31.1400 610.0000 1.0000
31.1500 572.0000 1.0000
31.1600 622.0000 1.0000
31.1700 612.0000 1.0000
31.1800 600.0000 1.0000
31.1900 606.0000 1.0000
31.2000 621.0000 1.0000
31.2100 594.0000 1.0000
31.2200 610.0000 1.0000
31.2300 599.0000 1.0000
31.2400 598.0000 1.0000
31.2500 575.0000 1.0000
31.2600 596.0000 1.0000
31.2700 603.0000 1.0000
31.2800 628.0000 1.0000
31.2900 596.0000 1.0000
31.3000 620.0000 1.0000
31.3100 603.0000 1.0000
31.3200 608.0000 1.0000
31.3300 645.0000 1.0000
31.3400 580.0000 1.0000
31.3500 598.0000 1.0000
31.3600 607.0000 1.0000
31.3700 601.0000 1.0000
31.3800 615.0000 1.0000
31.3900 621.0000 1.0000
31.4000 621.0000 1.0000
31.4100 577.0000 1.0000
31.4200 618.0000 1.0000
31.4300 565.0000 1.0000
31.4400 649.0000 1.0000
31.4500 576.0000 1.0000
31.4600 593.0000 1.0000
31.4700 602.0000 1.0000
31.4800 623.0000 1.0000
31.4900 629.0000 1.0000
31.5000 630.0000 1.0000
31.5100 614.0000 1.0000
31.5200 575.0000 1.0000
31.5300 576.0000 1.0000
31.5400 608.0000 1.0000
31.5500 620.0000 1.0000
31.5600 564.0000 1.0000
31.5700 593.0000 1.0000
31.5800 576.0000 1.0000
31.5900 589.0000 1.0000
31.6000 621.0000 1.0000
31.6100 597.0000 1.0000
31.6200 561.0000 1.0000
31.6300 588.0000 1.0000
31.6400 634.0000 1.0000
31.6500 598.0000 1.0000
31.6600 615.0000 1.0000
31.6700 594.0000 1.0000
31.6800 588.0000 1.0000
31.6900 624.0000 1.0000
31.7000 602.0000 1.0000
31.7100 583.0000 1.0000
31.7200 615.0000 1.0000
31.7300 632.0000 1.0000
31.7400 591.0000 1.0000
31.7500 572.0000 1.0000
31.7600 586.0000 1.0000
31.7700 586.0000 1.0000
31.7800 606.0000 1.0000
31.7900 589.0000 1.0000
31.8000 583.0000 1.0000
31.8100 604.0000 1.0000
31.8200 625.0000 1.0000
31.8300 596.0000 1.0000
31.8400 621.0000 1.0000
31.8500 627.0000 1.0000
31.8600 604.0000 1.0000
31.8700 589.0000 1.0000
31.8800 600.0000 1.0000
31.8900 658.0000 1.0000
31.9000 613.0000 1.0000
31.9100 633.0000 1.0000
31.9200 636.0000 1.0000
31.9300 614.0000 1.0000
31.9400 594.0000 1.0000
31.9500 642.0000 1.0000
31.9600 596.0000 1.0000
31.9700 616.0000 1.0000
31.9800 610.0000 1.0000
31.9900 579.0000 1.0000
32.0000 594.0000 1.0000
32.0100 591.0000 1.0000
32.0200 587.0000 1.0000
32.0300 645.0000 1.0000
32.0400 641.0000 1.0000
32.0500 610.0000 1.0000
32.0600 598.0000 1.0000
32.0700 600.0000 1.0000
32.0800 588.0000 1.0000
32.0900 622.0000 1.0000
32.1000 607.0000 1.0000
32.1100 595.0000 1.0000
32.1200 583.0000 1.0000
32.1300 589.0000 1.0000
32.1400 584.0000 1.0000
32.1500 598.0000 1.0000
32.1600 627.0000 1.0000
32.1700 581.0000 1.0000
32.1800 594.0000 1.0000
32.1900 592.0000 1.0000
32.2000 595.0000 1.0000
32.2100 602.0000 1.0000
32.2200 586.0000 1.0000
32.2300 557.0000 1.0000
32.2400 626.0000 1.0000
32.2500 585.0000 1.0000
32.2600 601.0000 1.0000
32.2700 612.0000 1.0000
32.2800 588.0000 1.0000
32.2900 604.0000 1.0000
32.3000 607.0000 1.0000
32.3100 596.0000 1.0000
32.3200 617.0000 1.0000
32.3300 600.0000 1.0000
32.3400 586.0000 1.0000
32.3500 575.0000 1.0000
32.3600 600.0000 1.0000
32.3700 583.0000 1.0000
32.3800 618.0000 1.0000
32.3900 582.0000 1.0000
32.4000 604.0000 1.0000
32.4100 602.0000 1.0000
32.4200 613.0000 1.0000
32.4300 621.0000 1.0000
32.4400 624.0000 1.0000
32.4500 574.0000 1.0000
32.4600 570.0000 1.0000
32.4700 635.0000 1.0000
32.4800 569.0000 1.0000
32.4900 620.0000 1.0000
32.5000 586.0000 1.0000
32.5100 592.0000 1.0000
32.5200 580.0000 1.0000
32.5300 570.0000 1.0000
32.5400 593.0000 1.0000
32.5500 567.0000 1.0000
32.5600 608.0000 1.0000
32.5700 581.0000 1.0000
32.5800 580.0000 1.0000
32.5900 604.0000 1.0000
32.6000 580.0000 1.0000
32.6100 560.0000 1.0000
32.6200 571.0000 1.0000
32.6300 586.0000 1.0000
32.6400 616.0000 1.0000
32.6500 567.0000 1.0000
32.6600 603.0000 1.0000
32.6700 590.0000 1.0000
32.6800 564.0000 1.0000
32.6900 564.0000 1.0000
32.7000 592.0000 1.0000
32.7100 581.0000 1.0000
32.7200 570.0000 1.0000
32.7300 595.0000 1.0000
32.7400 583.0000 1.0000
32.7500 594.0000 1.0000
32.7600 567.0000 1.0000
32.7700 559.0000 1.0000
32.7800 572.0000 1.0000
32.7900 552.0000 1.0000
32.8000 543.0000 1.0000
32.8100 581.0000 1.0000
32.8200 586.0000 1.0000
32.8300 576.0000 1.0000
32.8400 562.0000 1.0000
32.8500 574.0000 1.0000
32.8600 587.0000 1.0000
32.8700 555.0000 1.0000
32.8800 586.0000 1.0000
32.8900 595.0000 1.0000
32.9000 528.0000 1.0000
32.9100 549.0000 1.0000
32.9200 587.0000 1.0000
32.9300 527.0000 1.0000
32.9400 559.0000 1.0000
32.9500 592.0000 1.0000
32.9600 556.0000 1.0000
32.9700 603.0000 1.0000
32.9800 581.0000 1.0000
32.9900 568.0000 1.0000
33.0000 579.0000 1.0000
33.0100 580.0000 1.0000
33.0200 577.0000 1.0000
33.0300 597.0000 1.0000
33.0400 568.0000 1.0000
33.0500 585.0000 1.0000
33.0600 562.0000 1.0000
33.0700 579.0000 1.0000
33.0800 573.0000 1.0000
33.0900 604.0000 1.0000
33.1000 558.0000 1.0000
33.1100 550.0000 1.0000
33.1200 567.0000 1.0000
33.1300 570.0000 1.0000
33.1400 608.0000 1.0000
33.1500 609.0000 1.0000
33.1600 564.0000 1.0000
33.1700 546.0000 1.0000
33.1800 539.0000 1.0000
33.1900 560.0000 1.0000
33.2000 567.0000 1.0000
33.2100 560.0000 1.0000
33.2200 575.0000 1.0000
33.2300 572.0000 1.0000
33.2400 546.0000 1.0000
33.2500 594.0000 1.0000
33.2600 600.0000 1.0000
33.2700 622.0000 1.0000
33.2800 565.0000 1.0000
33.2900 563.0000 1.0000
33.3000 570.0000 1.0000
33.3100 550.0000 1.0000
33.3200 562.0000 1.0000
33.3300 550.0000 1.0000
33.3400 577.0000 1.0000
33.3500 572.0000 1.0000
33.3600 589.0000 1.0000
33.3700 593.0000 1.0000
33.3800 587.0000 1.0000
33.3900 546.0000 1.0000
33.4000 537.0000 1.0000
33.4100 560.0000 1.0000
33.4200 575.0000 1.0000
33.4300 578.0000 1.0000
33.4400 542.0000 1.0000
33.4500 518.0000 1.0000
33.4600 546.0000 1.0000
33.4700 588.0000 1.0000
33.4800 581.0000 1.0000
33.4900 611.0000 1.0000
33.5000 619.0000 1.0000
33.5100 579.0000 1.0000
33.5200 587.0000 1.0000
33.5300 546.0000 1.0000
33.5400 558.0000 1.0000
33.5500 537.0000 1.0000
33.5600 570.0000 1.0000
33.5700 588.0000 1.0000
33.5800 552.0000 1.0000
33.5900 553.0000 1.0000
33.6000 560.0000 1.0000
33.6100 600.0000 1.0000
33.6200 586.0000 1.0000
33.6300 599.0000 1.0000
33.6400 605.0000 1.0000
33.6500 584.0000 1.0000
33.6600 597.0000 1.0000
33.6700 560.0000 1.0000
33.6800 575.0000 1.0000
33.6900 618.0000 1.0000
33.7000 575.0000 1.0000
33.7100 527.0000 1.0000
33.7200 560.0000 1.0000
33.7300 614.0000 1.0000
33.7400 587.0000 1.0000
33.7500 582.0000 1.0000
33.7600 616.0000 1.0000
33.7700 603.0000 1.0000
33.7800 584.0000 1.0000
33.7900 599.0000 1.0000
33.8000 623.0000 1.0000
33.8100 601.0000 1.0000
33.8200 609.0000 1.0000
33.8300 614.0000 1.0000
33.8400 604.0000 1.0000
33.8500 621.0000 1.0000
33.8600 620.0000 1.0000
33.8700 569.0000 1.0000
33.8800 623.0000 1.0000
33.8900 631.0000 1.0000
33.9000 628.0000 1.0000
33.9100 662.0000 1.0000
33.9200 614.0000 1.0000
33.9300 632.0000 1.0000
33.9400 662.0000 1.0000
33.9500 667.0000 1.0000
33.9600 596.0000 1.0000
33.9700 652.0000 1.0000
33.9800 670.0000 1.0000
33.9900 612.0000 1.0000
34.0000 663.0000 1.0000
34.0100 664.0000 1.0000
34.0200 653.0000 1.0000
34.0300 652.0000 1.0000
34.0400 650.0000 1.0000
34.0500 585.0000 1.0000
34.0600 665.0000 1.0000
34.0700 650.0000 1.0000
34.0800 646.0000 1.0000
34.0900 608.0000 1.0000
34.1000 598.0000 1.0000
34.1100 651.0000 1.0000
34.1200 666.0000 1.0000
34.1300 652.0000 1.0000
34.1400 668.0000 1.0000
34.1500 647.0000 1.0000
34.1600 657.0000 1.0000
34.1700 632.0000 1.0000
34.1800 658.0000 1.0000
34.1900 645.0000 1.0000
34.2000 695.0000 1.0000
34.2100 659.0000 1.0000
34.2200 653.0000 1.0000
34.2300 691.0000 1.0000
34.2400 683.0000 1.0000
34.2500 736.0000 1.0000
34.2600 728.0000 1.0000
34.2700 741.0000 1.0000
34.2800 696.0000 1.0000
34.2900 651.0000 1.0000
34.3000 770.0000 1.0000
34.3100 785.0000 1.0000
34.3200 751.0000 1.0000
34.3300 852.0000 1.0000
34.3400 780.0000 1.0000
34.3500 851.0000 1.0000
34.3600 896.0000 1.0000
34.3700 958.0000 1.0000
34.3800 950.0000 1.0000
34.3900 945.0000 1.0000
34.4000 964.0000 1.0000
34.4100 1082.0000 1.0000
34.4200 1076.0000 1.0000
34.4300 1121.0000 1.0000
34.4400 1210.0000 1.0000
34.4500 1198.0000 1.0000
34.4600 1255.0000 1.0000
34.4700 1364.0000 1.0000
34.4800 1355.0000 1.0000
34.4900 1410.0000 1.0000
34.5000 1447.0000 1.0000
34.5100 1456.0000 1.0000
34.5200 1436.0000 1.0000
34.5300 1445.0000 1.0000
34.5400 1482.0000 1.0000
34.5500 1434.0000 1.0000
34.5600 1420.0000 1.0000
34.5700 1384.0000 1.0000
34.5800 1350.0000 1.0000
34.5900 1319.0000 1.0000
34.6000 1207.0000 1.0000
34.6100 1213.0000 1.0000
34.6200 1179.0000 1.0000
34.6300 1127.0000 1.0000
34.6400 1088.0000 1.0000
34.6500 980.0000 1.0000
34.6600 954.0000 1.0000
34.6700 927.0000 1.0000
34.6800 876.0000 1.0000
34.6900 925.0000 1.0000
34.7000 829.0000 1.0000
34.7100 786.0000 1.0000
34.7200 777.0000 1.0000
34.7300 791.0000 1.0000
34.7400 718.0000 1.0000
34.7500 733.0000 1.0000
34.7600 723.0000 1.0000
34.7700 729.0000 1.0000
34.7800 728.0000 1.0000
34.7900 731.0000 1.0000
34.8000 713.0000 1.0000
34.8100 673.0000 1.0000
34.8200 662.0000 1.0000
34.8300 682.0000 1.0000
34.8400 704.0000 1.0000
34.8500 668.0000 1.0000
34.8600 620.0000 1.0000
34.8700 616.0000 1.0000
34.8800 604.0000 1.0000
34.8900 610.0000 1.0000
34.9000 591.0000 1.0000
34.9100 610.0000 1.0000
34.9200 589.0000 1.0000
34.9300 553.0000 1.0000
34.9400 615.0000 1.0000
34.9500 605.0000 1.0000
34.9600 605.0000 1.0000
34.9700 592.0000 1.0000
34.9800 610.0000 1.0000
34.9900 598.0000 1.0000
35.0000 572.0000 1.0000
35.0100 557.0000 1.0000
35.0200 547.0000 1.0000
35.0300 561.0000 1.0000
35.0400 579.0000 1.0000
35.0500 531.0000 1.0000
35.0600 548.0000 1.0000
35.0700 552.0000 1.0000
35.0800 578.0000 1.0000
35.0900 572.0000 1.0000
35.1000 538.0000 1.0000
35.1100 572.0000 1.0000
35.1200 524.0000 1.0000
35.1300 542.0000 1.0000
35.1400 536.0000 1.0000
35.1500 511.0000 1.0000
35.1600 534.0000 1.0000
35.1700 513.0000 1.0000
35.1800 500.0000 1.0000
35.1900 516.0000 1.0000
35.2000 552.0000 1.0000
35.2100 538.0000 1.0000
35.2200 505.0000 1.0000
35.2300 504.0000 1.0000
35.2400 523.0000 1.0000
35.2500 538.0000 1.0000
35.2600 534.0000 1.0000
35.2700 514.0000 1.0000
35.2800 519.0000 1.0000
35.2900 532.0000 1.0000
35.3000 528.0000 1.0000
35.3100 506.0000 1.0000
35.3200 502.0000 1.0000
35.3300 530.0000 1.0000
35.3400 503.0000 1.0000
35.3500 518.0000 1.0000
35.3600 491.0000 1.0000
35.3700 524.0000 1.0000
35.3800 553.0000 1.0000
35.3900 528.0000 1.0000
35.4000 526.0000 1.0000
35.4100 510.0000 1.0000
35.4200 497.0000 1.0000
35.4300 501.0000 1.0000
35.4400 504.0000 1.0000
35.4500 471.0000 1.0000
35.4600 512.0000 1.0000
35.4700 489.0000 1.0000
35.4800 504.0000 1.0000
35.4900 478.0000 1.0000
35.5000 514.0000 1.0000
35.5100 510.0000 1.0000
35.5200 482.0000 1.0000
35.5300 505.0000 1.0000
35.5400 505.0000 1.0000
35.5500 512.0000 1.0000
35.5600 498.0000 1.0000
35.5700 518.0000 1.0000
35.5800 482.0000 1.0000
35.5900 475.0000 1.0000
35.6000 466.0000 1.0000
35.6100 503.0000 1.0000
35.6200 460.0000 1.0000
35.6300 480.0000 1.0000
35.6400 499.0000 1.0000
35.6500 476.0000 1.0000
35.6600 492.0000 1.0000
35.6700 493.0000 1.0000
35.6800 516.0000 1.0000
35.6900 492.0000 1.0000
35.7000 484.0000 1.0000
35.7100 501.0000 1.0000
35.7200 492.0000 1.0000
35.7300 487.0000 1.0000
35.7400 501.0000 1.0000
35.7500 481.0000 1.0000
35.7600 481.0000 1.0000
35.7700 507.0000 1.0000
35.7800 471.0000 1.0000
35.7900 502.0000 1.0000
35.8000 513.0000 1.0000
35.8100 489.0000 1.0000
35.8200 469.0000 1.0000
35.8300 474.0000 1.0000
35.8400 503.0000 1.0000
35.8500 483.0000 1.0000
35.8600 457.0000 1.0000
35.8700 474.0000 1.0000
35.8800 513.0000 1.0000
35.8900 473.0000 1.0000
35.9000 501.0000 1.0000
35.9100 534.0000 1.0000
35.9200 497.0000 1.0000
35.9300 490.0000 1.0000
35.9400 497.0000 1.0000
35.9500 506.0000 1.0000
35.9600 500.0000 1.0000
35.9700 492.0000 1.0000
35.9800 476.0000 1.0000
35.9900 503.0000 1.0000
36.0000 477.0000 1.0000
36.0100 502.0000 1.0000
36.0200 493.0000 1.0000
36.0300 500.0000 1.0000
36.0400 522.0000 1.0000
36.0500 496.0000 1.0000
36.0600 512.0000 1.0000
36.0700 486.0000 1.0000
36.0800 530.0000 1.0000
36.0900 517.0000 1.0000
36.1000 521.0000 1.0000
36.1100 504.0000 1.0000
36.1200 510.0000 1.0000
36.1300 526.0000 1.0000
36.1400 493.0000 1.0000
36.1500 500.0000 1.0000
36.1600 537.0000 1.0000
36.1700 527.0000 1.0000
36.1800 522.0000 1.0000
36.1900 505.0000 1.0000
36.2000 536.0000 1.0000
36.2100 546.0000 1.0000
36.2200 603.0000 1.0000
36.2300 534.0000 1.0000
36.2400 565.0000 1.0000
36.2500 607.0000 1.0000
36.2600 613.0000 1.0000
36.2700 636.0000 1.0000
36.2800 600.0000 1.0000
36.2900 628.0000 1.0000
36.3000 643.0000 1.0000
36.3100 638.0000 1.0000
36.3200 628.0000 1.0000
36.3300 653.0000 1.0000
36.3400 709.0000 1.0000
36.3500 715.0000 1.0000
36.3600 739.0000 1.0000
36.3700 791.0000 1.0000
36.3800 811.0000 1.0000
36.3900 793.0000 1.0000
36.4000 795.0000 1.0000
36.4100 836.0000 1.0000
36.4200 869.0000 1.0000
36.4300 829.0000 1.0000
36.4400 841.0000 1.0000
36.4500 830.0000 1.0000
36.4600 802.0000 1.0000
36.4700 803.0000 1.0000
36.4800 815.0000 1.0000
36.4900 803.0000 1.0000
36.5000 776.0000 1.0000
36.5100 757.0000 1.0000
36.5200 746.0000 1.0000
36.5300 739.0000 1.0000
36.5400 705.0000 1.0000
36.5500 694.0000 1.0000
36.5600 646.0000 1.0000
36.5700 660.0000 1.0000
36.5800 629.0000 1.0000
36.5900 583.0000 1.0000
36.6000 617.0000 1.0000
36.6100 557.0000 1.0000
36.6200 539.0000 1.0000
36.6300 531.0000 1.0000
36.6400 531.0000 1.0000
36.6500 480.0000 1.0000
36.6600 493.0000 1.0000
36.6700 537.0000 1.0000
36.6800 507.0000 1.0000
36.6900 559.0000 1.0000
36.7000 492.0000 1.0000
36.7100 511.0000 1.0000
36.7200 475.0000 1.0000
36.7300 492.0000 1.0000
36.7400 498.0000 1.0000
36.7500 503.0000 1.0000
36.7600 485.0000 1.0000
36.7700 474.0000 1.0000
36.7800 459.0000 1.0000
36.7900 507.0000 1.0000
36.8000 467.0000 1.0000
36.8100 464.0000 1.0000
36.8200 441.0000 1.0000
36.8300 485.0000 1.0000
36.8400 457.0000 1.0000
36.8500 464.0000 1.0000
36.8600 490.0000 1.0000
36.8700 450.0000 1.0000
36.8800 452.0000 1.0000
36.8900 471.0000 1.0000
36.9000 448.0000 1.0000
36.9100 443.0000 1.0000
36.9200 432.0000 1.0000
36.9300 468.0000 1.0000
36.9400 476.0000 1.0000
36.9500 533.0000 1.0000
36.9600 468.0000 1.0000
36.9700 454.0000 1.0000
36.9800 453.0000 1.0000
36.9900 445.0000 1.0000
37.0000 462.0000 1.0000
37.0100 428.0000 1.0000
37.0200 430.0000 1.0000
37.0300 454.0000 1.0000
37.0400 435.0000 1.0000
37.0500 465.0000 1.0000
37.0600 474.0000 1.0000
37.0700 451.0000 1.0000
37.0800 466.0000 1.0000
37.0900 440.0000 1.0000
37.1000 447.0000 1.0000
37.1100 490.0000 1.0000
37.1200 492.0000 1.0000
37.1300 469.0000 1.0000
37.1400 443.0000 1.0000
37.1500 461.0000 1.0000
37.1600 414.0000 1.0000
37.1700 482.0000 1.0000
37.1800 478.0000 1.0000
37.1900 455.0000 1.0000
37.2000 439.0000 1.0000
37.2100 443.0000 1.0000
37.2200 455.0000 1.0000
37.2300 456.0000 1.0000
37.2400 452.0000 1.0000
37.2500 444.0000 1.0000
37.2600 442.0000 1.0000
37.2700 455.0000 1.0000
37.2800 483.0000 1.0000
37.2900 472.0000 1.0000
37.3000 478.0000 1.0000
37.3100 450.0000 1.0000
37.3200 451.0000 1.0000
37.3300 454.0000 1.0000
37.3400 428.0000 1.0000
37.3500 428.0000 1.0000
37.3600 435.0000 1.0000
37.3700 468.0000 1.0000
37.3800 448.0000 1.0000
37.3900 451.0000 1.0000
37.4000 446.0000 1.0000
37.4100 439.0000 1.0000
37.4200 443.0000 1.0000
37.4300 474.0000 1.0000
37.4400 436.0000 1.0000
37.4500 430.0000 1.0000
37.4600 447.0000 1.0000
37.4700 431.0000 1.0000
37.4800 420.0000 1.0000
37.4900 433.0000 1.0000
37.5000 438.0000 1.0000
37.5100 426.0000 1.0000
37.5200 439.0000 1.0000
37.5300 427.0000 1.0000
37.5400 447.0000 1.0000
37.5500 457.0000 1.0000
37.5600 482.0000 1.0000
37.5700 449.0000 1.0000
37.5800 469.0000 1.0000
37.5900 509.0000 1.0000
37.6000 436.0000 1.0000
37.6100 447.0000 1.0000
37.6200 447.0000 1.0000
37.6300 441.0000 1.0000
37.6400 451.0000 1.0000
37.6500 428.0000 1.0000
37.6600 450.0000 1.0000
37.6700 460.0000 1.0000
37.6800 425.0000 1.0000
37.6900 463.0000 1.0000
37.7000 472.0000 1.0000
37.7100 461.0000 1.0000
37.7200 489.0000 1.0000
37.7300 466.0000 1.0000
37.7400 448.0000 1.0000
37.7500 457.0000 1.0000
37.7600 436.0000 1.0000
37.7700 440.0000 1.0000
37.7800 413.0000 1.0000
37.7900 444.0000 1.0000
37.8000 474.0000 1.0000
37.8100 465.0000 1.0000
37.8200 469.0000 1.0000
37.8300 462.0000 1.0000
37.8400 423.0000 1.0000
37.8500 439.0000 1.0000
37.8600 472.0000 1.0000
37.8700 435.0000 1.0000
37.8800 467.0000 1.0000
37.8900 480.0000 1.0000
37.9000 502.0000 1.0000
37.9100 484.0000 1.0000
37.9200 457.0000 1.0000
37.9300 446.0000 1.0000
37.9400 444.0000 1.0000
37.9500 476.0000 1.0000
37.9600 474.0000 1.0000
37.9700 428.0000 1.0000
37.9800 500.0000 1.0000
37.9900 470.0000 1.0000
38.0000 485.0000 1.0000
38.0100 483.0000 1.0000
38.0200 471.0000 1.0000
38.0300 469.0000 1.0000
38.0400 455.0000 1.0000
38.0500 488.0000 1.0000
38.0600 494.0000 1.0000
38.0700 478.0000 1.0000
38.0800 455.0000 1.0000
38.0900 491.0000 1.0000
38.1000 521.0000 1.0000
38.1100 503.0000 1.0000
38.1200 536.0000 1.0000
38.1300 497.0000 1.0000
38.1400 531.0000 1.0000
38.1500 489.0000 1.0000
38.1600 564.0000 1.0000
38.1700 571.0000 1.0000
38.1800 574.0000 1.0000
38.1900 561.0000 1.0000
38.2000 603.0000 1.0000
38.2100 566.0000 1.0000
38.2200 565.0000 1.0000
38.2300 620.0000 1.0000
38.2400 603.0000 1.0000
38.2500 631.0000 1.0000
38.2600 645.0000 1.0000
38.2700 698.0000 1.0000
38.2800 696.0000 1.0000
38.2900 718.0000 1.0000
38.3000 739.0000 1.0000
38.3100 794.0000 1.0000
38.3200 824.0000 1.0000
38.3300 799.0000 1.0000
38.3400 887.0000 1.0000
38.3500 918.0000 1.0000
38.3600 925.0000 1.0000
38.3700 1026.0000 1.0000
38.3800 1073.0000 1.0000
38.3900 1120.0000 1.0000
38.4000 1168.0000 1.0000
38.4100 1244.0000 1.0000
38.4200 1286.0000 1.0000
38.4300 1335.0000 1.0000
38.4400 1430.0000 1.0000
38.4500 1612.0000 1.0000
38.4600 1664.0000 1.0000
38.4700 1804.0000 1.0000
38.4800 1997.0000 1.0000
38.4900 2038.0000 1.0000
38.5000 2260.0000 1.0000
38.5100 2226.0000 1.0000
38.5200 2407.0000 1.0000
38.5300 2458.0000 1.0000
38.5400 2582.0000 1.0000
38.5500 2528.0000 1.0000
38.5600 2506.0000 1.0000
38.5700 2615.0000 1.0000
38.5800 2538.0000 1.0000
38.5900 2493.0000 1.0000
38.6000 2473.0000 1.0000
38.6100 2436.0000 1.0000
38.6200 2387.0000 1.0000
38.6300 2242.0000 1.0000
38.6400 2152.0000 1.0000
38.6500 2004.0000 1.0000
38.6600 1949.0000 1.0000
38.6700 1821.0000 1.0000
38.6800 1749.0000 1.0000
38.6900 1594.0000 1.0000
38.7000 1538.0000 1.0000
38.7100 1508.0000 1.0000
38.7200 1351.0000 1.0000
38.7300 1245.0000 1.0000
38.7400 1149.0000 1.0000
38.7500 1149.0000 1.0000
38.7600 1049.0000 1.0000
38.7700 905.0000 1.0000
38.7800 919.0000 1.0000
38.7900 885.0000 1.0000
38.8000 879.0000 1.0000
38.8100 782.0000 1.0000
38.8200 747.0000 1.0000
38.8300 724.0000 1.0000
38.8400 711.0000 1.0000
38.8500 669.0000 1.0000
38.8600 661.0000 1.0000
38.8700 628.0000 1.0000
38.8800 662.0000 1.0000
38.8900 585.0000 1.0000
38.9000 577.0000 1.0000
38.9100 566.0000 1.0000
38.9200 547.0000 1.0000
38.9300 550.0000 1.0000
38.9400 549.0000 1.0000
38.9500 549.0000 1.0000
38.9600 565.0000 1.0000
38.9700 499.0000 1.0000
38.9800 464.0000 1.0000
38.9900 495.0000 1.0000
39.0000 500.0000 1.0000
39.0100 463.0000 1.0000
39.0200 487.0000 1.0000
39.0300 494.0000 1.0000
39.0400 474.0000 1.0000
39.0500 478.0000 1.0000
39.0600 483.0000 1.0000
39.0700 457.0000 1.0000
39.0800 464.0000 1.0000
39.0900 448.0000 1.0000
39.1000 465.0000 1.0000
39.1100 419.0000 1.0000
39.1200 460.0000 1.0000
39.1300 411.0000 1.0000
39.1400 404.0000 1.0000
39.1500 403.0000 1.0000
39.1600 432.0000 1.0000
39.1700 448.0000 1.0000
39.1800 449.0000 1.0000
39.1900 453.0000 1.0000
39.2000 457.0000 1.0000
39.2100 449.0000 1.0000
39.2200 452.0000 1.0000
39.2300 408.0000 1.0000
39.2400 403.0000 1.0000
39.2500 416.0000 1.0000
39.2600 401.0000 1.0000
39.2700 410.0000 1.0000
39.2800 434.0000 1.0000
39.2900 414.0000 1.0000
39.3000 412.0000 1.0000
39.3100 400.0000 1.0000
39.3200 425.0000 1.0000
39.3300 425.0000 1.0000
39.3400 403.0000 1.0000
39.3500 438.0000 1.0000
39.3600 452.0000 1.0000
39.3700 426.0000 1.0000
39.3800 431.0000 1.0000
39.3900 421.0000 1.0000
39.4000 403.0000 1.0000
39.4100 427.0000 1.0000
39.4200 401.0000 1.0000
39.4300 405.0000 1.0000
39.4400 449.0000 1.0000
39.4500 408.0000 1.0000
39.4600 420.0000 1.0000
39.4700 469.0000 1.0000
39.4800 414.0000 1.0000
39.4900 395.0000 1.0000
39.5000 433.0000 1.0000
39.5100 424.0000 1.0000
39.5200 428.0000 1.0000
39.5300 403.0000 1.0000
39.5400 425.0000 1.0000
39.5500 426.0000 1.0000
39.5600 417.0000 1.0000
39.5700 409.0000 1.0000
39.5800 439.0000 1.0000
39.5900 445.0000 1.0000
39.6000 412.0000 1.0000
39.6100 427.0000 1.0000
39.6200 448.0000 1.0000
39.6300 416.0000 1.0000
39.6400 434.0000 1.0000
39.6500 413.0000 1.0000
39.6600 402.0000 1.0000
39.6700 450.0000 1.0000
39.6800 447.0000 1.0000
39.6900 458.0000 1.0000
39.7000 446.0000 1.0000
39.7100 380.0000 1.0000
39.7200 432.0000 1.0000
39.7300 383.0000 1.0000
39.7400 419.0000 1.0000
39.7500 401.0000 1.0000
39.7600 374.0000 1.0000
39.7700 399.0000 1.0000
39.7800 390.0000 1.0000
39.7900 386.0000 1.0000
39.8000 408.0000 1.0000
39.8100 386.0000 1.0000
39.8200 426.0000 1.0000
39.8300 388.0000 1.0000
39.8400 376.0000 1.0000
39.8500 384.0000 1.0000
39.8600 424.0000 1.0000
39.8700 400.0000 1.0000
39.8800 398.0000 1.0000
39.8900 430.0000 1.0000
39.9000 405.0000 1.0000
39.9100 376.0000 1.0000
39.9200 397.0000 1.0000
39.9300 409.0000 1.0000
39.9400 410.0000 1.0000
39.9500 384.0000 1.0000
39.9600 391.0000 1.0000
39.9700 408.0000 1.0000
39.9800 386.0000 1.0000
39.9900 392.0000 1.0000
40.0000 386.0000 1.0000
40.0100 376.0000 1.0000
40.0200 382.0000 1.0000
40.0300 364.0000 1.0000
40.0400 367.0000 1.0000
40.0500 372.0000 1.0000
40.0600 359.0000 1.0000
40.0700 390.0000 1.0000
40.0800 392.0000 1.0000
40.0900 390.0000 1.0000
40.1000 393.0000 1.0000
40.1100 393.0000 1.0000
40.1200 408.0000 1.0000
40.1300 433.0000 1.0000
40.1400 429.0000 1.0000
40.1500 377.0000 1.0000
40.1600 388.0000 1.0000
40.1700 393.0000 1.0000
40.1800 396.0000 1.0000
40.1900 360.0000 1.0000
40.2000 359.0000 1.0000
40.2100 381.0000 1.0000
40.2200 365.0000 1.0000
40.2300 341.0000 1.0000
40.2400 384.0000 1.0000
40.2500 400.0000 1.0000
40.2600 377.0000 1.0000
40.2700 385.0000 1.0000
40.2800 387.0000 1.0000
40.2900 369.0000 1.0000
40.3000 358.0000 1.0000
40.3100 377.0000 1.0000
40.3200 374.0000 1.0000
40.3300 360.0000 1.0000
40.3400 354.0000 1.0000
40.3500 392.0000 1.0000
40.3600 397.0000 1.0000
40.3700 400.0000 1.0000
40.3800 387.0000 1.0000
40.3900 370.0000 1.0000
40.4000 402.0000 1.0000
40.4100 386.0000 1.0000
40.4200 393.0000 1.0000
40.4300 393.0000 1.0000
40.4400 409.0000 1.0000
40.4500 380.0000 1.0000
40.4600 405.0000 1.0000
40.4700 394.0000 1.0000
40.4800 366.0000 1.0000
40.4900 400.0000 1.0000
40.5000 367.0000 1.0000
40.5100 393.0000 1.0000
40.5200 375.0000 1.0000
40.5300 369.0000 1.0000
40.5400 376.0000 1.0000
40.5500 379.0000 1.0000
40.5600 406.0000 1.0000
40.5700 383.0000 1.0000
40.5800 370.0000 1.0000
40.5900 389.0000 1.0000
40.6000 380.0000 1.0000
40.6100 388.0000 1.0000
40.6200 384.0000 1.0000
40.6300 386.0000 1.0000
40.6400 370.0000 1.0000
40.6500 412.0000 1.0000
40.6600 375.0000 1.0000
40.6700 366.0000 1.0000
40.6800 394.0000 1.0000
40.6900 364.0000 1.0000
40.7000 372.0000 1.0000
40.7100 379.0000 1.0000
40.7200 377.0000 1.0000
40.7300 403.0000 1.0000
40.7400 388.0000 1.0000
40.7500 402.0000 1.0000
40.7600 415.0000 1.0000
40.7700 360.0000 1.0000
40.7800 364.0000 1.0000
40.7900 368.0000 1.0000
40.8000 367.0000 1.0000
40.8100 388.0000 1.0000
40.8200 377.0000 1.0000
40.8300 394.0000 1.0000
40.8400 366.0000 1.0000
40.8500 386.0000 1.0000
40.8600 385.0000 1.0000
40.8700 374.0000 1.0000
40.8800 382.0000 1.0000
40.8900 365.0000 1.0000
40.9000 409.0000 1.0000
40.9100 377.0000 1.0000
40.9200 394.0000 1.0000
40.9300 373.0000 1.0000
40.9400 372.0000 1.0000
40.9500 358.0000 1.0000
40.9600 341.0000 1.0000
40.9700 333.0000 1.0000
40.9800 335.0000 1.0000
40.9900 344.0000 1.0000
41.0000 374.0000 1.0000
41.0100 395.0000 1.0000
41.0200 406.0000 1.0000
41.0300 414.0000 1.0000
41.0400 373.0000 1.0000
41.0500 395.0000 1.0000
41.0600 343.0000 1.0000
41.0700 389.0000 1.0000
41.0800 383.0000 1.0000
41.0900 371.0000 1.0000
41.1000 370.0000 1.0000
41.1100 390.0000 1.0000
41.1200 399.0000 1.0000
41.1300 393.0000 1.0000
41.1400 382.0000 1.0000
41.1500 376.0000 1.0000
41.1600 358.0000 1.0000
41.1700 369.0000 1.0000
41.1800 355.0000 1.0000
41.1900 360.0000 1.0000
41.2000 378.0000 1.0000
41.2100 384.0000 1.0000
41.2200 406.0000 1.0000
41.2300 366.0000 1.0000
41.2400 367.0000 1.0000
41.2500 385.0000 1.0000
41.2600 390.0000 1.0000
41.2700 396.0000 1.0000
41.2800 362.0000 1.0000
41.2900 344.0000 1.0000
41.3000 389.0000 1.0000
41.3100 375.0000 1.0000
41.3200 381.0000 1.0000
41.3300 386.0000 1.0000
41.3400 353.0000 1.0000
41.3500 364.0000 1.0000
41.3600 365.0000 1.0000
41.3700 360.0000 1.0000
41.3800 395.0000 1.0000
41.3900 371.0000 1.0000
41.4000 350.0000 1.0000
41.4100 365.0000 1.0000
41.4200 344.0000 1.0000
41.4300 364.0000 1.0000
41.4400 397.0000 1.0000
41.4500 374.0000 1.0000
41.4600 384.0000 1.0000
41.4700 384.0000 1.0000
41.4800 353.0000 1.0000
41.4900 382.0000 1.0000
41.5000 340.0000 1.0000
41.5100 381.0000 1.0000
41.5200 382.0000 1.0000
41.5300 390.0000 1.0000
41.5400 367.0000 1.0000
41.5500 370.0000 1.0000
41.5600 390.0000 1.0000
41.5700 407.0000 1.0000
41.5800 371.0000 1.0000
41.5900 355.0000 1.0000
41.6000 365.0000 1.0000
41.6100 365.0000 1.0000
41.6200 406.0000 1.0000
41.6300 373.0000 1.0000
41.6400 377.0000 1.0000
41.6500 396.0000 1.0000
41.6600 343.0000 1.0000
41.6700 369.0000 1.0000
41.6800 407.0000 1.0000
41.6900 388.0000 1.0000
41.7000 377.0000 1.0000
41.7100 369.0000 1.0000
41.7200 382.0000 1.0000
41.7300 382.0000 1.0000
41.7400 404.0000 1.0000
41.7500 386.0000 1.0000
41.7600 383.0000 1.0000
41.7700 377.0000 1.0000
41.7800 370.0000 1.0000
41.7900 372.0000 1.0000
41.8000 363.0000 1.0000
41.8100 347.0000 1.0000
41.8200 364.0000 1.0000
41.8300 391.0000 1.0000
41.8400 379.0000 1.0000
41.8500 383.0000 1.0000
41.8600 368.0000 1.0000
41.8700 361.0000 1.0000
41.8800 378.0000 1.0000
41.8900 347.0000 1.0000
41.9000 398.0000 1.0000
41.9100 374.0000 1.0000
41.9200 366.0000 1.0000
41.9300 324.0000 1.0000
41.9400 366.0000 1.0000
41.9500 388.0000 1.0000
41.9600 375.0000 1.0000
41.9700 390.0000 1.0000
41.9800 342.0000 1.0000
41.9900 351.0000 1.0000
42.0000 362.0000 1.0000
42.0100 361.0000 1.0000
42.0200 352.0000 1.0000
42.0300 366.0000 1.0000
42.0400 357.0000 1.0000
42.0500 347.0000 1.0000
42.0600 365.0000 1.0000
42.0700 382.0000 1.0000
42.0800 355.0000 1.0000
42.0900 348.0000 1.0000
42.1000 347.0000 1.0000
42.1100 353.0000 1.0000
42.1200 353.0000 1.0000
42.1300 380.0000 1.0000
42.1400 361.0000 1.0000
42.1500 384.0000 1.0000
42.1600 363.0000 1.0000
42.1700 394.0000 1.0000
42.1800 378.0000 1.0000
42.1900 377.0000 1.0000
42.2000 371.0000 1.0000
42.2100 347.0000 1.0000
42.2200 364.0000 1.0000
42.2300 374.0000 1.0000
42.2400 368.0000 1.0000
42.2500 363.0000 1.0000
42.2600 339.0000 1.0000
42.2700 399.0000 1.0000
42.2800 366.0000 1.0000
42.2900 359.0000 1.0000
42.3000 368.0000 1.0000
42.3100 344.0000 1.0000
42.3200 355.0000 1.0000
42.3300 368.0000 1.0000
42.3400 396.0000 1.0000
42.3500 356.0000 1.0000
42.3600 364.0000 1.0000
42.3700 378.0000 1.0000
42.3800 355.0000 1.0000
42.3900 350.0000 1.0000
42.4000 384.0000 1.0000
42.4100 359.0000 1.0000
42.4200 362.0000 1.0000
42.4300 339.0000 1.0000
42.4400 341.0000 1.0000
42.4500 330.0000 1.0000
42.4600 358.0000 1.0000
42.4700 375.0000 1.0000
42.4800 365.0000 1.0000
42.4900 354.0000 1.0000
42.5000 359.0000 1.0000
42.5100 388.0000 1.0000
42.5200 359.0000 1.0000
42.5300 372.0000 1.0000
42.5400 372.0000 1.0000
42.5500 357.0000 1.0000
42.5600 377.0000 1.0000
42.5700 347.0000 1.0000
42.5800 355.0000 1.0000
42.5900 381.0000 1.0000
42.6000 353.0000 1.0000
42.6100 343.0000 1.0000
42.6200 364.0000 1.0000
42.6300 361.0000 1.0000
42.6400 378.0000 1.0000
42.6500 365.0000 1.0000
42.6600 341.0000 1.0000
42.6700 368.0000 1.0000
42.6800 361.0000 1.0000
42.6900 364.0000 1.0000
42.7000 386.0000 1.0000
42.7100 377.0000 1.0000
42.7200 362.0000 1.0000
42.7300 394.0000 1.0000
42.7400 356.0000 1.0000
42.7500 366.0000 1.0000
42.7600 385.0000 1.0000
42.7700 379.0000 1.0000
42.7800 387.0000 1.0000
42.7900 380.0000 1.0000
42.8000 365.0000 1.0000
42.8100 355.0000 1.0000
42.8200 370.0000 1.0000
42.8300 402.0000 1.0000
42.8400 399.0000 1.0000
42.8500 365.0000 1.0000
42.8600 363.0000 1.0000
42.8700 373.0000 1.0000
42.8800 351.0000 1.0000
42.8900 365.0000 1.0000
42.9000 385.0000 1.0000
42.9100 342.0000 1.0000
42.9200 381.0000 1.0000
42.9300 382.0000 1.0000
42.9400 379.0000 1.0000
42.9500 393.0000 1.0000
42.9600 360.0000 1.0000
42.9700 354.0000 1.0000
42.9800 369.0000 1.0000
42.9900 375.0000 1.0000
43.0000 370.0000 1.0000
43.0100 365.0000 1.0000
43.0200 357.0000 1.0000
43.0300 394.0000 1.0000
43.0400 382.0000 1.0000
43.0500 338.0000 1.0000
43.0600 381.0000 1.0000
43.0700 347.0000 1.0000
43.0800 382.0000 1.0000
43.0900 391.0000 1.0000
43.1000 349.0000 1.0000
43.1100 381.0000 1.0000
43.1200 356.0000 1.0000
43.1300 400.0000 1.0000
43.1400 398.0000 1.0000
43.1500 389.0000 1.0000
43.1600 394.0000 1.0000
43.1700 372.0000 1.0000
43.1800 353.0000 1.0000
43.1900 387.0000 1.0000
43.2000 364.0000 1.0000
43.2100 407.0000 1.0000
43.2200 425.0000 1.0000
43.2300 402.0000 1.0000
43.2400 386.0000 1.0000
43.2500 434.0000 1.0000
43.2600 379.0000 1.0000
43.2700 394.0000 1.0000
43.2800 392.0000 1.0000
43.2900 413.0000 1.0000
43.3000 399.0000 1.0000
43.3100 406.0000 1.0000
43.3200 385.0000 1.0000
43.3300 395.0000 1.0000
43.3400 403.0000 1.0000
43.3500 418.0000 1.0000
43.3600 392.0000 1.0000
43.3700 387.0000 1.0000
43.3800 379.0000 1.0000
43.3900 388.0000 1.0000
43.4000 378.0000 1.0000
43.4100 407.0000 1.0000
43.4200 371.0000 1.0000
43.4300 379.0000 1.0000
43.4400 374.0000 1.0000
43.4500 391.0000 1.0000
43.4600 357.0000 1.0000
43.4700 390.0000 1.0000
43.4800 364.0000 1.0000
43.4900 392.0000 1.0000
43.5000 355.0000 1.0000
43.5100 376.0000 1.0000
43.5200 355.0000 1.0000
43.5300 362.0000 1.0000
43.5400 334.0000 1.0000
43.5500 331.0000 1.0000
43.5600 381.0000 1.0000
43.5700 342.0000 1.0000
43.5800 362.0000 1.0000
43.5900 378.0000 1.0000
43.6000 366.0000 1.0000
43.6100 357.0000 1.0000
43.6200 370.0000 1.0000
43.6300 359.0000 1.0000
43.6400 371.0000 1.0000
43.6500 361.0000 1.0000
43.6600 368.0000 1.0000
43.6700 354.0000 1.0000
43.6800 382.0000 1.0000
43.6900 369.0000 1.0000
43.7000 335.0000 1.0000
43.7100 339.0000 1.0000
43.7200 373.0000 1.0000
43.7300 370.0000 1.0000
43.7400 363.0000 1.0000
43.7500 360.0000 1.0000
43.7600 372.0000 1.0000
43.7700 363.0000 1.0000
43.7800 346.0000 1.0000
43.7900 368.0000 1.0000
43.8000 372.0000 1.0000
43.8100 345.0000 1.0000
43.8200 356.0000 1.0000
43.8300 354.0000 1.0000
43.8400 359.0000 1.0000
43.8500 344.0000 1.0000
43.8600 367.0000 1.0000
43.8700 356.0000 1.0000
43.8800 371.0000 1.0000
43.8900 351.0000 1.0000
43.9000 323.0000 1.0000
43.9100 378.0000 1.0000
43.9200 382.0000 1.0000
43.9300 373.0000 1.0000
43.9400 399.0000 1.0000
43.9500 330.0000 1.0000
43.9600 369.0000 1.0000
43.9700 366.0000 1.0000
43.9800 352.0000 1.0000
43.9900 336.0000 1.0000
44.0000 359.0000 1.0000
44.0100 381.0000 1.0000
44.0200 372.0000 1.0000
44.0300 376.0000 1.0000
44.0400 356.0000 1.0000
44.0500 352.0000 1.0000
44.0600 361.0000 1.0000
44.0700 338.0000 1.0000
44.0800 382.0000 1.0000
44.0900 379.0000 1.0000
44.1000 334.0000 1.0000
44.1100 367.0000 1.0000
44.1200 336.0000 1.0000
44.1300 374.0000 1.0000
44.1400 349.0000 1.0000
44.1500 320.0000 1.0000
44.1600 356.0000 1.0000
44.1700 344.0000 1.0000
44.1800 375.0000 1.0000
44.1900 355.0000 1.0000
44.2000 355.0000 1.0000
44.2100 373.0000 1.0000
44.2200 373.0000 1.0000
44.2300 335.0000 1.0000
44.2400 366.0000 1.0000
44.2500 356.0000 1.0000
44.2600 385.0000 1.0000
44.2700 356.0000 1.0000
44.2800 358.0000 1.0000
44.2900 356.0000 1.0000
44.3000 386.0000 1.0000
44.3100 379.0000 1.0000
44.3200 360.0000 1.0000
44.3300 379.0000 1.0000
44.3400 351.0000 1.0000
44.3500 363.0000 1.0000
44.3600 347.0000 1.0000
44.3700 342.0000 1.0000
44.3800 354.0000 1.0000
44.3900 330.0000 1.0000
44.4000 377.0000 1.0000
44.4100 373.0000 1.0000
44.4200 425.0000 1.0000
44.4300 357.0000 1.0000
44.4400 351.0000 1.0000
44.4500 375.0000 1.0000
44.4600 363.0000 1.0000
44.4700 346.0000 1.0000
44.4800 327.0000 1.0000
44.4900 372.0000 1.0000
44.5000 369.0000 1.0000
44.5100 391.0000 1.0000
44.5200 361.0000 1.0000
44.5300 335.0000 1.0000
44.5400 338.0000 1.0000
44.5500 379.0000 1.0000
44.5600 360.0000 1.0000
44.5700 373.0000 1.0000
44.5800 356.0000 1.0000
44.5900 362.0000 1.0000
44.6000 336.0000 1.0000
44.6100 361.0000 1.0000
44.6200 350.0000 1.0000
44.6300 347.0000 1.0000
44.6400 360.0000 1.0000
44.6500 350.0000 1.0000
44.6600 350.0000 1.0000
44.6700 362.0000 1.0000
44.6800 341.0000 1.0000
44.6900 327.0000 1.0000
44.7000 365.0000 1.0000
44.7100 348.0000 1.0000
44.7200 330.0000 1.0000
44.7300 364.0000 1.0000
44.7400 361.0000 1.0000
44.7500 330.0000 1.0000
44.7600 370.0000 1.0000
44.7700 357.0000 1.0000
44.7800 338.0000 1.0000
44.7900 357.0000 1.0000
44.8000 325.0000 1.0000
44.8100 342.0000 1.0000
44.8200 344.0000 1.0000
44.8300 367.0000 1.0000
44.8400 347.0000 1.0000
44.8500 357.0000 1.0000
44.8600 385.0000 1.0000
44.8700 368.0000 1.0000
44.8800 332.0000 1.0000
44.8900 346.0000 1.0000
44.9000 341.0000 1.0000
44.9100 367.0000 1.0000
44.9200 330.0000 1.0000
44.9300 332.0000 1.0000
44.9400 370.0000 1.0000
44.9500 355.0000 1.0000
44.9600 359.0000 1.0000
44.9700 357.0000 1.0000
44.9800 329.0000 1.0000
44.9900 340.0000 1.0000
45.0000 331.0000 1.0000
45.0100 323.0000 1.0000
45.0200 310.0000 1.0000
45.0300 323.0000 1.0000
45.0400 328.0000 1.0000
45.0500 305.0000 1.0000
45.0600 331.0000 1.0000
45.0700 308.0000 1.0000
45.0800 322.0000 1.0000
45.0900 343.0000 1.0000
45.1000 350.0000 1.0000
45.1100 360.0000 1.0000
45.1200 334.0000 1.0000
45.1300 362.0000 1.0000
45.1400 341.0000 1.0000
45.1500 329.0000 1.0000
45.1600 366.0000 1.0000
45.1700 353.0000 1.0000
45.1800 370.0000 1.0000
45.1900 341.0000 1.0000
45.2000 361.0000 1.0000
45.2100 358.0000 1.0000
45.2200 342.0000 1.0000
45.2300 329.0000 1.0000
45.2400 337.0000 1.0000
45.2500 379.0000 1.0000
45.2600 340.0000 1.0000
45.2700 319.0000 1.0000
45.2800 344.0000 1.0000
45.2900 330.0000 1.0000
45.3000 355.0000 1.0000
45.3100 335.0000 1.0000
45.3200 356.0000 1.0000
45.3300 334.0000 1.0000
45.3400 350.0000 1.0000
45.3500 351.0000 1.0000
45.3600 353.0000 1.0000
45.3700 360.0000 1.0000
45.3800 355.0000 1.0000
45.3900 337.0000 1.0000
45.4000 356.0000 1.0000
45.4100 346.0000 1.0000
45.4200 325.0000 1.0000
45.4300 342.0000 1.0000
45.4400 320.0000 1.0000
45.4500 324.0000 1.0000
45.4600 343.0000 1.0000
45.4700 366.0000 1.0000
45.4800 372.0000 1.0000
45.4900 333.0000 1.0000
45.5000 352.0000 1.0000
45.5100 348.0000 1.0000
45.5200 303.0000 1.0000
45.5300 340.0000 1.0000
45.5400 330.0000 1.0000
45.5500 322.0000 1.0000
45.5600 286.0000 1.0000
45.5700 339.0000 1.0000
45.5800 339.0000 1.0000
45.5900 342.0000 1.0000
45.6000 326.0000 1.0000
45.6100 368.0000 1.0000
45.6200 329.0000 1.0000
45.6300 350.0000 1.0000
45.6400 321.0000 1.0000
45.6500 319.0000 1.0000
45.6600 374.0000 1.0000
45.6700 347.0000 1.0000
45.6800 347.0000 1.0000
45.6900 345.0000 1.0000
45.7000 354.0000 1.0000
45.7100 362.0000 1.0000
45.7200 362.0000 1.0000
45.7300 319.0000 1.0000
45.7400 313.0000 1.0000
45.7500 344.0000 1.0000
45.7600 356.0000 1.0000
45.7700 306.0000 1.0000
45.7800 343.0000 1.0000
45.7900 323.0000 1.0000
45.8000 351.0000 1.0000
45.8100 319.0000 1.0000
45.8200 342.0000 1.0000
45.8300 318.0000 1.0000
45.8400 307.0000 1.0000
45.8500 332.0000 1.0000
45.8600 341.0000 1.0000
45.8700 346.0000 1.0000
45.8800 376.0000 1.0000
45.8900 348.0000 1.0000
45.9000 351.0000 1.0000
45.9100 338.0000 1.0000
45.9200 345.0000 1.0000
45.9300 349.0000 1.0000
45.9400 360.0000 1.0000
45.9500 332.0000 1.0000
45.9600 330.0000 1.0000
45.9700 361.0000 1.0000
45.9800 346.0000 1.0000
45.9900 347.0000 1.0000
46.0000 368.0000 1.0000
46.0100 334.0000 1.0000
46.0200 345.0000 1.0000
46.0300 332.0000 1.0000
46.0400 322.0000 1.0000
46.0500 323.0000 1.0000
46.0600 306.0000 1.0000
46.0700 326.0000 1.0000
46.0800 353.0000 1.0000
46.0900 319.0000 1.0000
46.1000 325.0000 1.0000
46.1100 322.0000 1.0000
46.1200 317.0000 1.0000
46.1300 342.0000 1.0000
46.1400 303.0000 1.0000
46.1500 300.0000 1.0000
46.1600 309.0000 1.0000
46.1700 324.0000 1.0000
46.1800 307.0000 1.0000
46.1900 321.0000 1.0000
46.2000 326.0000 1.0000
46.2100 345.0000 1.0000
46.2200 307.0000 1.0000
46.2300 337.0000 1.0000
46.2400 363.0000 1.0000
46.2500 328.0000 1.0000
46.2600 332.0000 1.0000
46.2700 330.0000 1.0000
46.2800 342.0000 1.0000
46.2900 321.0000 1.0000
46.3000 325.0000 1.0000
46.3100 324.0000 1.0000
46.3200 336.0000 1.0000
46.3300 339.0000 1.0000
46.3400 351.0000 1.0000
46.3500 310.0000 1.0000
46.3600 360.0000 1.0000
46.3700 335.0000 1.0000
46.3800 325.0000 1.0000
46.3900 332.0000 1.0000
46.4000 342.0000 1.0000
46.4100 323.0000 1.0000
46.4200 322.0000 1.0000
46.4300 337.0000 1.0000
46.4400 335.0000 1.0000
46.4500 345.0000 1.0000
46.4600 346.0000 1.0000
46.4700 355.0000 1.0000
46.4800 337.0000 1.0000
46.4900 331.0000 1.0000
46.5000 314.0000 1.0000
46.5100 338.0000 1.0000
46.5200 341.0000 1.0000
46.5300 361.0000 1.0000
46.5400 331.0000 1.0000
46.5500 304.0000 1.0000
46.5600 300.0000 1.0000
46.5700 347.0000 1.0000
46.5800 355.0000 1.0000
46.5900 333.0000 1.0000
46.6000 350.0000 1.0000
46.6100 310.0000 1.0000
46.6200 345.0000 1.0000
46.6300 328.0000 1.0000
46.6400 323.0000 1.0000
46.6500 334.0000 1.0000
46.6600 358.0000 1.0000
46.6700 346.0000 1.0000
46.6800 325.0000 1.0000
46.6900 304.0000 1.0000
46.7000 337.0000 1.0000
46.7100 333.0000 1.0000
46.7200 361.0000 1.0000
46.7300 331.0000 1.0000
46.7400 309.0000 1.0000
46.7500 348.0000 1.0000
46.7600 337.0000 1.0000
46.7700 347.0000 1.0000
46.7800 327.0000 1.0000
46.7900 369.0000 1.0000
46.8000 340.0000 1.0000
46.8100 352.0000 1.0000
46.8200 313.0000 1.0000
46.8300 359.0000 1.0000
46.8400 329.0000 1.0000
46.8500 349.0000 1.0000
46.8600 318.0000 1.0000
46.8700 318.0000 1.0000
46.8800 306.0000 1.0000
46.8900 335.0000 1.0000
46.9000 352.0000 1.0000
46.9100 336.0000 1.0000
46.9200 357.0000 1.0000
46.9300 327.0000 1.0000
46.9400 352.0000 1.0000
46.9500 327.0000 1.0000
46.9600 353.0000 1.0000
46.9700 339.0000 1.0000
46.9800 342.0000 1.0000
46.9900 315.0000 1.0000
47.0000 329.0000 1.0000
47.0100 344.0000 1.0000
47.0200 316.0000 1.0000
47.0300 331.0000 1.0000
47.0400 332.0000 1.0000
47.0500 350.0000 1.0000
47.0600 357.0000 1.0000
47.0700 352.0000 1.0000
47.0800 336.0000 1.0000
47.0900 365.0000 1.0000
47.1000 337.0000 1.0000
47.1100 315.0000 1.0000
47.1200 335.0000 1.0000
47.1300 353.0000 1.0000
47.1400 357.0000 1.0000
47.1500 360.0000 1.0000
47.1600 317.0000 1.0000
47.1700 328.0000 1.0000
47.1800 310.0000 1.0000
47.1900 361.0000 1.0000
47.2000 349.0000 1.0000
47.2100 354.0000 1.0000
47.2200 326.0000 1.0000
47.2300 347.0000 1.0000
47.2400 323.0000 1.0000
47.2500 350.0000 1.0000
47.2600 329.0000 1.0000
47.2700 397.0000 1.0000
47.2800 342.0000 1.0000
47.2900 318.0000 1.0000
47.3000 328.0000 1.0000
47.3100 312.0000 1.0000
47.3200 349.0000 1.0000
47.3300 336.0000 1.0000
47.3400 331.0000 1.0000
47.3500 311.0000 1.0000
47.3600 333.0000 1.0000
47.3700 347.0000 1.0000
47.3800 306.0000 1.0000
47.3900 325.0000 1.0000
47.4000 346.0000 1.0000
47.4100 340.0000 1.0000
47.4200 331.0000 1.0000
47.4300 314.0000 1.0000
47.4400 297.0000 1.0000
47.4500 328.0000 1.0000
47.4600 299.0000 1.0000
47.4700 342.0000 1.0000
47.4800 315.0000 1.0000
47.4900 306.0000 1.0000
47.5000 336.0000 1.0000
47.5100 342.0000 1.0000
47.5200 317.0000 1.0000
47.5300 327.0000 1.0000
47.5400 348.0000 1.0000
47.5500 342.0000 1.0000
47.5600 320.0000 1.0000
47.5700 329.0000 1.0000
47.5800 323.0000 1.0000
47.5900 319.0000 1.0000
47.6000 328.0000 1.0000
47.6100 308.0000 1.0000
47.6200 292.0000 1.0000
47.6300 321.0000 1.0000
47.6400 348.0000 1.0000
47.6500 333.0000 1.0000
47.6600 333.0000 1.0000
47.6700 324.0000 1.0000
47.6800 337.0000 1.0000
47.6900 343.0000 1.0000
47.7000 330.0000 1.0000
47.7100 321.0000 1.0000
47.7200 325.0000 1.0000
47.7300 340.0000 1.0000
47.7400 295.0000 1.0000
47.7500 302.0000 1.0000
47.7600 334.0000 1.0000
47.7700 335.0000 1.0000
47.7800 334.0000 1.0000
47.7900 383.0000 1.0000
47.8000 336.0000 1.0000
47.8100 332.0000 1.0000
47.8200 332.0000 1.0000
47.8300 326.0000 1.0000
47.8400 322.0000 1.0000
47.8500 309.0000 1.0000
47.8600 321.0000 1.0000
47.8700 323.0000 1.0000
47.8800 328.0000 1.0000
47.8900 316.0000 1.0000
47.9000 342.0000 1.0000
47.9100 332.0000 1.0000
47.9200 303.0000 1.0000
47.9300 310.0000 1.0000
47.9400 337.0000 1.0000
47.9500 327.0000 1.0000
47.9600 318.0000 1.0000
47.9700 316.0000 1.0000
47.9800 309.0000 1.0000
47.9900 350.0000 1.0000
48.0000 321.0000 1.0000
48.0100 305.0000 1.0000
48.0200 308.0000 1.0000
48.0300 314.0000 1.0000
48.0400 326.0000 1.0000
48.0500 318.0000 1.0000
48.0600 330.0000 1.0000
48.0700 362.0000 1.0000
48.0800 314.0000 1.0000
48.0900 346.0000 1.0000
48.1000 312.0000 1.0000
48.1100 342.0000 1.0000
48.1200 348.0000 1.0000
48.1300 345.0000 1.0000
48.1400 327.0000 1.0000
48.1500 318.0000 1.0000
48.1600 332.0000 1.0000
48.1700 343.0000 1.0000
48.1800 332.0000 1.0000
48.1900 322.0000 1.0000
48.2000 319.0000 1.0000
48.2100 317.0000 1.0000
48.2200 327.0000 1.0000
48.2300 308.0000 1.0000
48.2400 314.0000 1.0000
48.2500 306.0000 1.0000
48.2600 323.0000 1.0000
48.2700 329.0000 1.0000
48.2800 305.0000 1.0000
48.2900 348.0000 1.0000
48.3000 330.0000 1.0000
48.3100 310.0000 1.0000
48.3200 311.0000 1.0000
48.3300 312.0000 1.0000
48.3400 309.0000 1.0000
48.3500 318.0000 1.0000
48.3600 316.0000 1.0000
48.3700 347.0000 1.0000
48.3800 308.0000 1.0000
48.3900 308.0000 1.0000
48.4000 309.0000 1.0000
48.4100 326.0000 1.0000
48.4200 331.0000 1.0000
48.4300 314.0000 1.0000
48.4400 319.0000 1.0000
48.4500 336.0000 1.0000
48.4600 310.0000 1.0000
48.4700 309.0000 1.0000
48.4800 318.0000 1.0000
48.4900 298.0000 1.0000
48.5000 307.0000 1.0000
48.5100 296.0000 1.0000
48.5200 324.0000 1.0000
48.5300 332.0000 1.0000
48.5400 314.0000 1.0000
48.5500 312.0000 1.0000
48.5600 324.0000 1.0000
48.5700 315.0000 1.0000
48.5800 307.0000 1.0000
48.5900 330.0000 1.0000
48.6000 321.0000 1.0000
48.6100 303.0000 1.0000
48.6200 312.0000 1.0000
48.6300 296.0000 1.0000
48.6400 309.0000 1.0000
48.6500 303.0000 1.0000
48.6600 319.0000 1.0000
48.6700 319.0000 1.0000
48.6800 321.0000 1.0000
48.6900 316.0000 1.0000
48.7000 280.0000 1.0000
48.7100 328.0000 1.0000
48.7200 313.0000 1.0000
48.7300 305.0000 1.0000
48.7400 328.0000 1.0000
48.7500 302.0000 1.0000
48.7600 315.0000 1.0000
48.7700 321.0000 1.0000
48.7800 340.0000 1.0000
48.7900 365.0000 1.0000
48.8000 306.0000 1.0000
48.8100 354.0000 1.0000
48.8200 324.0000 1.0000
48.8300 332.0000 1.0000
48.8400 310.0000 1.0000
48.8500 319.0000 1.0000
48.8600 313.0000 1.0000
48.8700 353.0000 1.0000
48.8800 303.0000 1.0000
48.8900 342.0000 1.0000
48.9000 331.0000 1.0000
48.9100 320.0000 1.0000
48.9200 318.0000 1.0000
48.9300 332.0000 1.0000
48.9400 328.0000 1.0000
48.9500 293.0000 1.0000
48.9600 305.0000 1.0000
48.9700 322.0000 1.0000
48.9800 296.0000 1.0000
48.9900 303.0000 1.0000
49.0000 311.0000 1.0000
49.0100 314.0000 1.0000
49.0200 294.0000 1.0000
49.0300 329.0000 1.0000
49.0400 330.0000 1.0000
49.0500 298.0000 1.0000
49.0600 322.0000 1.0000
49.0700 337.0000 1.0000
49.0800 301.0000 1.0000
49.0900 306.0000 1.0000
49.1000 320.0000 1.0000
49.1100 322.0000 1.0000
49.1200 311.0000 1.0000
49.1300 336.0000 1.0000
49.1400 310.0000 1.0000
49.1500 315.0000 1.0000
49.1600 317.0000 1.0000
49.1700 307.0000 1.0000
49.1800 310.0000 1.0000
49.1900 324.0000 1.0000
49.2000 345.0000 1.0000
49.2100 341.0000 1.0000
49.2200 319.0000 1.0000
49.2300 336.0000 1.0000
49.2400 298.0000 1.0000
49.2500 317.0000 1.0000
49.2600 325.0000 1.0000
49.2700 347.0000 1.0000
49.2800 297.0000 1.0000
49.2900 297.0000 1.0000
49.3000 316.0000 1.0000
49.3100 320.0000 1.0000
49.3200 312.0000 1.0000
49.3300 305.0000 1.0000
49.3400 304.0000 1.0000
49.3500 325.0000 1.0000
49.3600 333.0000 1.0000
49.3700 338.0000 1.0000
49.3800 317.0000 1.0000
49.3900 328.0000 1.0000
49.4000 325.0000 1.0000
49.4100 308.0000 1.0000
49.4200 330.0000 1.0000
49.4300 323.0000 1.0000
49.4400 323.0000 1.0000
49.4500 289.0000 1.0000
49.4600 274.0000 1.0000
49.4700 276.0000 1.0000
49.4800 309.0000 1.0000
49.4900 304.0000 1.0000
49.5000 292.0000 1.0000
49.5100 334.0000 1.0000
49.5200 302.0000 1.0000
49.5300 321.0000 1.0000
49.5400 342.0000 1.0000
49.5500 319.0000 1.0000
49.5600 309.0000 1.0000
49.5700 317.0000 1.0000
49.5800 310.0000 1.0000
49.5900 306.0000 1.0000
49.6000 291.0000 1.0000
49.6100 311.0000 1.0000
49.6200 295.0000 1.0000
49.6300 287.0000 1.0000
49.6400 298.0000 1.0000
49.6500 333.0000 1.0000
49.6600 336.0000 1.0000
49.6700 301.0000 1.0000
49.6800 308.0000 1.0000
49.6900 314.0000 1.0000
49.7000 338.0000 1.0000
49.7100 299.0000 1.0000
49.7200 331.0000 1.0000
49.7300 302.0000 1.0000
49.7400 304.0000 1.0000
49.7500 284.0000 1.0000
49.7600 314.0000 1.0000
49.7700 328.0000 1.0000
49.7800 334.0000 1.0000
49.7900 312.0000 1.0000
49.8000 319.0000 1.0000
49.8100 309.0000 1.0000
49.8200 300.0000 1.0000
49.8300 336.0000 1.0000
49.8400 303.0000 1.0000
49.8500 305.0000 1.0000
49.8600 312.0000 1.0000
49.8700 336.0000 1.0000
49.8800 308.0000 1.0000
49.8900 291.0000 1.0000
49.9000 287.0000 1.0000
49.9100 317.0000 1.0000
49.9200 292.0000 1.0000
49.9300 280.0000 1.0000
49.9400 305.0000 1.0000
49.9500 338.0000 1.0000
49.9600 329.0000 1.0000
49.9700 330.0000 1.0000
49.9800 296.0000 1.0000
49.9900 311.0000 1.0000
50.0000 318.0000 1.0000
50.0100 323.0000 1.0000
50.0200 336.0000 1.0000
50.0300 313.0000 1.0000
50.0400 327.0000 1.0000
50.0500 309.0000 1.0000
50.0600 326.0000 1.0000
50.0700 325.0000 1.0000
50.0800 332.0000 1.0000
50.0900 366.0000 1.0000
50.1000 315.0000 1.0000
50.1100 309.0000 1.0000
50.1200 304.0000 1.0000
50.1300 329.0000 1.0000
50.1400 336.0000 1.0000
50.1500 308.0000 1.0000
50.1600 300.0000 1.0000
50.1700 301.0000 1.0000
50.1800 327.0000 1.0000
50.1900 310.0000 1.0000
50.2000 312.0000 1.0000
50.2100 313.0000 1.0000
50.2200 329.0000 1.0000
50.2300 362.0000 1.0000
50.2400 342.0000 1.0000
50.2500 345.0000 1.0000
50.2600 341.0000 1.0000
50.2700 329.0000 1.0000
50.2800 342.0000 1.0000
50.2900 325.0000 1.0000
50.3000 348.0000 1.0000
50.3100 321.0000 1.0000
50.3200 322.0000 1.0000
50.3300 287.0000 1.0000
50.3400 317.0000 1.0000
50.3500 353.0000 1.0000
50.3600 325.0000 1.0000
50.3700 321.0000 1.0000
50.3800 296.0000 1.0000
50.3900 301.0000 1.0000
50.4000 310.0000 1.0000
50.4100 332.0000 1.0000
50.4200 303.0000 1.0000
50.4300 331.0000 1.0000
50.4400 308.0000 1.0000
50.4500 343.0000 1.0000
50.4600 316.0000 1.0000
50.4700 336.0000 1.0000
50.4800 331.0000 1.0000
50.4900 348.0000 1.0000
50.5000 301.0000 1.0000
50.5100 325.0000 1.0000
50.5200 335.0000 1.0000
50.5300 318.0000 1.0000
50.5400 347.0000 1.0000
50.5500 319.0000 1.0000
50.5600 329.0000 1.0000
50.5700 345.0000 1.0000
50.5800 322.0000 1.0000
50.5900 292.0000 1.0000
50.6000 312.0000 1.0000
50.6100 337.0000 1.0000
50.6200 316.0000 1.0000
50.6300 325.0000 1.0000
50.6400 332.0000 1.0000
50.6500 330.0000 1.0000
50.6600 312.0000 1.0000
50.6700 339.0000 1.0000
50.6800 307.0000 1.0000
50.6900 303.0000 1.0000
50.7000 344.0000 1.0000
50.7100 339.0000 1.0000
50.7200 325.0000 1.0000
50.7300 331.0000 1.0000
50.7400 319.0000 1.0000
50.7500 332.0000 1.0000
50.7600 323.0000 1.0000
50.7700 300.0000 1.0000
50.7800 297.0000 1.0000
50.7900 307.0000 1.0000
50.8000 321.0000 1.0000
50.8100 348.0000 1.0000
50.8200 345.0000 1.0000
50.8300 293.0000 1.0000
50.8400 316.0000 1.0000
50.8500 318.0000 1.0000
50.8600 311.0000 1.0000
50.8700 318.0000 1.0000
50.8800 333.0000 1.0000
50.8900 326.0000 1.0000
50.9000 327.0000 1.0000
50.9100 303.0000 1.0000
50.9200 333.0000 1.0000
50.9300 303.0000 1.0000
50.9400 312.0000 1.0000
50.9500 326.0000 1.0000
50.9600 324.0000 1.0000
50.9700 323.0000 1.0000
50.9800 323.0000 1.0000
50.9900 314.0000 1.0000
51.0000 329.0000 1.0000
51.0100 327.0000 1.0000
51.0200 323.0000 1.0000
51.0300 305.0000 1.0000
51.0400 299.0000 1.0000
51.0500 306.0000 1.0000
51.0600 310.0000 1.0000
51.0700 310.0000 1.0000
51.0800 294.0000 1.0000
51.0900 325.0000 1.0000
51.1000 317.0000 1.0000
51.1100 306.0000 1.0000
51.1200 287.0000 1.0000
51.1300 311.0000 1.0000
51.1400 298.0000 1.0000
51.1500 321.0000 1.0000
51.1600 337.0000 1.0000
51.1700 299.0000 1.0000
51.1800 301.0000 1.0000
51.1900 312.0000 1.0000
51.2000 304.0000 1.0000
51.2100 336.0000 1.0000
51.2200 345.0000 1.0000
51.2300 336.0000 1.0000
51.2400 318.0000 1.0000
51.2500 318.0000 1.0000
51.2600 319.0000 1.0000
51.2700 310.0000 1.0000
51.2800 319.0000 1.0000
51.2900 328.0000 1.0000
51.3000 321.0000 1.0000
51.3100 321.0000 1.0000
51.3200 308.0000 1.0000
51.3300 330.0000 1.0000
51.3400 340.0000 1.0000
51.3500 325.0000 1.0000
51.3600 348.0000 1.0000
51.3700 350.0000 1.0000
51.3800 323.0000 1.0000
51.3900 308.0000 1.0000
51.4000 312.0000 1.0000
51.4100 332.0000 1.0000
51.4200 315.0000 1.0000
51.4300 310.0000 1.0000
51.4400 353.0000 1.0000
51.4500 333.0000 1.0000
51.4600 338.0000 1.0000
51.4700 298.0000 1.0000
51.4800 300.0000 1.0000
51.4900 301.0000 1.0000
51.5000 335.0000 1.0000
51.5100 322.0000 1.0000
51.5200 291.0000 1.0000
51.5300 306.0000 1.0000
51.5400 317.0000 1.0000
51.5500 340.0000 1.0000
51.5600 320.0000 1.0000
51.5700 323.0000 1.0000
51.5800 342.0000 1.0000
51.5900 335.0000 1.0000
51.6000 314.0000 1.0000
51.6100 338.0000 1.0000
51.6200 327.0000 1.0000
51.6300 338.0000 1.0000
51.6400 309.0000 1.0000
51.6500 339.0000 1.0000
51.6600 327.0000 1.0000
51.6700 361.0000 1.0000
51.6800 311.0000 1.0000
51.6900 348.0000 1.0000
51.7000 310.0000 1.0000
51.7100 343.0000 1.0000
51.7200 316.0000 1.0000
51.7300 339.0000 1.0000
51.7400 328.0000 1.0000
51.7500 331.0000 1.0000
51.7600 344.0000 1.0000
51.7700 362.0000 1.0000
51.7800 369.0000 1.0000
51.7900 348.0000 1.0000
51.8000 360.0000 1.0000
51.8100 361.0000 1.0000
51.8200 357.0000 1.0000
51.8300 365.0000 1.0000
51.8400 349.0000 1.0000
51.8500 373.0000 1.0000
51.8600 371.0000 1.0000
51.8700 375.0000 1.0000
51.8800 350.0000 1.0000
51.8900 382.0000 1.0000
51.9000 401.0000 1.0000
51.9100 414.0000 1.0000
51.9200 420.0000 1.0000
51.9300 397.0000 1.0000
51.9400 391.0000 1.0000
51.9500 420.0000 1.0000
51.9600 448.0000 1.0000
51.9700 461.0000 1.0000
51.9800 432.0000 1.0000
51.9900 466.0000 1.0000
52.0000 477.0000 1.0000
52.0100 482.0000 1.0000
52.0200 551.0000 1.0000
52.0300 512.0000 1.0000
52.0400 521.0000 1.0000
52.0500 550.0000 1.0000
52.0600 588.0000 1.0000
52.0700 596.0000 1.0000
52.0800 639.0000 1.0000
52.0900 662.0000 1.0000
52.1000 685.0000 1.0000
52.1100 711.0000 1.0000
52.1200 748.0000 1.0000
52.1300 786.0000 1.0000
52.1400 893.0000 1.0000
52.1500 928.0000 1.0000
52.1600 1007.0000 1.0000
52.1700 1099.0000 1.0000
52.1800 1149.0000 1.0000
52.1900 1321.0000 1.0000
52.2000 1391.0000 1.0000
52.2100 1465.0000 1.0000
52.2200 1554.0000 1.0000
52.2300 1797.0000 1.0000
52.2400 1909.0000 1.0000
52.2500 2110.0000 1.0000
52.2600 2138.0000 1.0000
52.2700 2320.0000 1.0000
52.2800 2381.0000 1.0000
52.2900 2394.0000 1.0000
52.3000 2376.0000 1.0000
52.3100 2316.0000 1.0000
52.3200 2351.0000 1.0000
52.3300 2226.0000 1.0000
52.3400 2249.0000 1.0000
52.3500 2191.0000 1.0000
52.3600 2035.0000 1.0000
52.3700 1955.0000 1.0000
52.3800 1944.0000 1.0000
52.3900 1831.0000 1.0000
52.4000 1858.0000 1.0000
52.4100 1821.0000 1.0000
52.4200 1803.0000 1.0000
52.4300 1718.0000 1.0000
52.4400 1632.0000 1.0000
52.4500 1568.0000 1.0000
52.4600 1493.0000 1.0000
52.4700 1439.0000 1.0000
52.4800 1295.0000 1.0000
52.4900 1238.0000 1.0000
52.5000 1171.0000 1.0000
52.5100 986.0000 1.0000
52.5200 934.0000 1.0000
52.5300 893.0000 1.0000
52.5400 838.0000 1.0000
52.5500 786.0000 1.0000
52.5600 748.0000 1.0000
52.5700 734.0000 1.0000
52.5800 692.0000 1.0000
52.5900 640.0000 1.0000
52.6000 595.0000 1.0000
52.6100 548.0000 1.0000
52.6200 574.0000 1.0000
52.6300 544.0000 1.0000
52.6400 516.0000 1.0000
52.6500 493.0000 1.0000
52.6600 501.0000 1.0000
52.6700 471.0000 1.0000
52.6800 477.0000 1.0000
52.6900 451.0000 1.0000
52.7000 446.0000 1.0000
52.7100 460.0000 1.0000
52.7200 421.0000 1.0000
52.7300 435.0000 1.0000
52.7400 404.0000 1.0000
52.7500 381.0000 1.0000
52.7600 411.0000 1.0000
52.7700 398.0000 1.0000
52.7800 389.0000 1.0000
52.7900 394.0000 1.0000
52.8000 359.0000 1.0000
52.8100 381.0000 1.0000
52.8200 386.0000 1.0000
52.8300 407.0000 1.0000
52.8400 386.0000 1.0000
52.8500 345.0000 1.0000
52.8600 332.0000 1.0000
52.8700 339.0000 1.0000
52.8800 368.0000 1.0000
52.8900 344.0000 1.0000
52.9000 356.0000 1.0000
52.9100 361.0000 1.0000
52.9200 368.0000 1.0000
52.9300 372.0000 1.0000
52.9400 316.0000 1.0000
52.9500 352.0000 1.0000
52.9600 373.0000 1.0000
52.9700 348.0000 1.0000
52.9800 350.0000 1.0000
52.9900 374.0000 1.0000
53.0000 349.0000 1.0000
53.0100 340.0000 1.0000
53.0200 324.0000 1.0000
53.0300 342.0000 1.0000
53.0400 330.0000 1.0000
53.0500 339.0000 1.0000
53.0600 331.0000 1.0000
53.0700 378.0000 1.0000
53.0800 345.0000 1.0000
53.0900 367.0000 1.0000
53.1000 325.0000 1.0000
53.1100 364.0000 1.0000
53.1200 333.0000 1.0000
53.1300 332.0000 1.0000
53.1400 332.0000 1.0000
53.1500 298.0000 1.0000
53.1600 328.0000 1.0000
53.1700 324.0000 1.0000
53.1800 321.0000 1.0000
53.1900 334.0000 1.0000
53.2000 284.0000 1.0000
53.2100 322.0000 1.0000
53.2200 305.0000 1.0000
53.2300 313.0000 1.0000
53.2400 317.0000 1.0000
53.2500 327.0000 1.0000
53.2600 341.0000 1.0000
53.2700 321.0000 1.0000
53.2800 355.0000 1.0000
53.2900 331.0000 1.0000
53.3000 306.0000 1.0000
53.3100 335.0000 1.0000
53.3200 327.0000 1.0000
53.3300 312.0000 1.0000
53.3400 324.0000 1.0000
53.3500 313.0000 1.0000
53.3600 339.0000 1.0000
53.3700 288.0000 1.0000
53.3800 323.0000 1.0000
53.3900 311.0000 1.0000
53.4000 289.0000 1.0000
53.4100 316.0000 1.0000
53.4200 316.0000 1.0000
53.4300 323.0000 1.0000
53.4400 324.0000 1.0000
53.4500 317.0000 1.0000
53.4600 340.0000 1.0000
53.4700 331.0000 1.0000
53.4800 300.0000 1.0000
53.4900 300.0000 1.0000
53.5000 306.0000 1.0000
53.5100 317.0000 1.0000
53.5200 346.0000 1.0000
53.5300 306.0000 1.0000
53.5400 334.0000 1.0000
53.5500 308.0000 1.0000
53.5600 304.0000 1.0000
53.5700 325.0000 1.0000
53.5800 312.0000 1.0000
53.5900 307.0000 1.0000
53.6000 332.0000 1.0000
53.6100 302.0000 1.0000
53.6200 343.0000 1.0000
53.6300 302.0000 1.0000
53.6400 302.0000 1.0000
53.6500 332.0000 1.0000
53.6600 302.0000 1.0000
53.6700 305.0000 1.0000
53.6800 311.0000 1.0000
53.6900 309.0000 1.0000
53.7000 300.0000 1.0000
53.7100 317.0000 1.0000
53.7200 290.0000 1.0000
53.7300 300.0000 1.0000
53.7400 303.0000 1.0000
53.7500 302.0000 1.0000
53.7600 313.0000 1.0000
53.7700 300.0000 1.0000
53.7800 333.0000 1.0000
53.7900 301.0000 1.0000
53.8000 296.0000 1.0000
53.8100 293.0000 1.0000
53.8200 298.0000 1.0000
53.8300 291.0000 1.0000
53.8400 299.0000 1.0000
53.8500 306.0000 1.0000
53.8600 296.0000 1.0000
53.8700 294.0000 1.0000
53.8800 338.0000 1.0000
53.8900 325.0000 1.0000
53.9000 309.0000 1.0000
53.9100 327.0000 1.0000
53.9200 306.0000 1.0000
53.9300 282.0000 1.0000
53.9400 303.0000 1.0000
53.9500 305.0000 1.0000
53.9600 313.0000 1.0000
53.9700 330.0000 1.0000
53.9800 305.0000 1.0000
53.9900 309.0000 1.0000
54.0000 304.0000 1.0000
54.0100 285.0000 1.0000
54.0200 295.0000 1.0000
54.0300 309.0000 1.0000
54.0400 298.0000 1.0000
54.0500 305.0000 1.0000
54.0600 324.0000 1.0000
54.0700 313.0000 1.0000
54.0800 303.0000 1.0000
54.0900 281.0000 1.0000
54.1000 316.0000 1.0000
54.1100 307.0000 1.0000
54.1200 279.0000 1.0000
54.1300 283.0000 1.0000
54.1400 292.0000 1.0000
54.1500 300.0000 1.0000
54.1600 300.0000 1.0000
54.1700 315.0000 1.0000
54.1800 332.0000 1.0000
54.1900 309.0000 1.0000
54.2000 311.0000 1.0000
54.2100 315.0000 1.0000
54.2200 328.0000 1.0000
54.2300 318.0000 1.0000
54.2400 304.0000 1.0000
54.2500 311.0000 1.0000
54.2600 310.0000 1.0000
54.2700 309.0000 1.0000
54.2800 311.0000 1.0000
54.2900 290.0000 1.0000
54.3000 326.0000 1.0000
54.3100 339.0000 1.0000
54.3200 292.0000 1.0000
54.3300 297.0000 1.0000
54.3400 310.0000 1.0000
54.3500 278.0000 1.0000
54.3600 279.0000 1.0000
54.3700 317.0000 1.0000
54.3800 341.0000 1.0000
54.3900 318.0000 1.0000
54.4000 318.0000 1.0000
54.4100 298.0000 1.0000
54.4200 334.0000 1.0000
54.4300 280.0000 1.0000
54.4400 330.0000 1.0000
54.4500 326.0000 1.0000
54.4600 310.0000 1.0000
54.4700 298.0000 1.0000
54.4800 322.0000 1.0000
54.4900 281.0000 1.0000
54.5000 308.0000 1.0000
54.5100 319.0000 1.0000
54.5200 303.0000 1.0000
54.5300 295.0000 1.0000
54.5400 304.0000 1.0000
54.5500 337.0000 1.0000
54.5600 290.0000 1.0000
54.5700 295.0000 1.0000
54.5800 324.0000 1.0000
54.5900 314.0000 1.0000
54.6000 323.0000 1.0000
54.6100 320.0000 1.0000
54.6200 339.0000 1.0000
54.6300 323.0000 1.0000
54.6400 315.0000 1.0000
54.6500 307.0000 1.0000
54.6600 298.0000 1.0000
54.6700 327.0000 1.0000
54.6800 344.0000 1.0000
54.6900 320.0000 1.0000
54.7000 335.0000 1.0000
54.7100 327.0000 1.0000
54.7200 315.0000 1.0000
54.7300 316.0000 1.0000
54.7400 300.0000 1.0000
54.7500 311.0000 1.0000
54.7600 318.0000 1.0000
54.7700 294.0000 1.0000
54.7800 279.0000 1.0000
54.7900 331.0000 1.0000
54.8000 304.0000 1.0000
54.8100 336.0000 1.0000
54.8200 324.0000 1.0000
54.8300 320.0000 1.0000
54.8400 321.0000 1.0000
54.8500 321.0000 1.0000
54.8600 348.0000 1.0000
54.8700 363.0000 1.0000
54.8800 324.0000 1.0000
54.8900 309.0000 1.0000
54.9000 309.0000 1.0000
54.9100 314.0000 1.0000
54.9200 370.0000 1.0000
54.9300 357.0000 1.0000
54.9400 324.0000 1.0000
54.9500 331.0000 1.0000
54.9600 331.0000 1.0000
54.9700 319.0000 1.0000
54.9800 349.0000 1.0000
54.9900 329.0000 1.0000
55.0000 332.0000 1.0000
55.0100 314.0000 1.0000
55.0200 320.0000 1.0000
55.0300 342.0000 1.0000
55.0400 348.0000 1.0000
55.0500 333.0000 1.0000
55.0600 352.0000 1.0000
55.0700 357.0000 1.0000
55.0800 349.0000 1.0000
55.0900 326.0000 1.0000
55.1000 354.0000 1.0000
55.1100 365.0000 1.0000
55.1200 373.0000 1.0000
55.1300 385.0000 1.0000
55.1400 365.0000 1.0000
55.1500 363.0000 1.0000
55.1600 388.0000 1.0000
55.1700 384.0000 1.0000
55.1800 394.0000 1.0000
55.1900 383.0000 1.0000
55.2000 384.0000 1.0000
55.2100 379.0000 1.0000
55.2200 394.0000 1.0000
55.2300 420.0000 1.0000
55.2400 434.0000 1.0000
55.2500 418.0000 1.0000
55.2600 449.0000 1.0000
55.2700 454.0000 1.0000
55.2800 459.0000 1.0000
55.2900 453.0000 1.0000
55.3000 454.0000 1.0000
55.3100 464.0000 1.0000
55.3200 466.0000 1.0000
55.3300 461.0000 1.0000
55.3400 497.0000 1.0000
55.3500 465.0000 1.0000
55.3600 464.0000 1.0000
55.3700 433.0000 1.0000
55.3800 474.0000 1.0000
55.3900 437.0000 1.0000
55.4000 457.0000 1.0000
55.4100 446.0000 1.0000
55.4200 415.0000 1.0000
55.4300 430.0000 1.0000
55.4400 426.0000 1.0000
55.4500 434.0000 1.0000
55.4600 442.0000 1.0000
55.4700 413.0000 1.0000
55.4800 421.0000 1.0000
55.4900 394.0000 1.0000
55.5000 405.0000 1.0000
55.5100 386.0000 1.0000
55.5200 379.0000 1.0000
55.5300 373.0000 1.0000
55.5400 375.0000 1.0000
55.5500 373.0000 1.0000
55.5600 375.0000 1.0000
55.5700 357.0000 1.0000
55.5800 348.0000 1.0000
55.5900 385.0000 1.0000
55.6000 336.0000 1.0000
55.6100 348.0000 1.0000
55.6200 358.0000 1.0000
55.6300 347.0000 1.0000
55.6400 309.0000 1.0000
55.6500 319.0000 1.0000
55.6600 327.0000 1.0000
55.6700 320.0000 1.0000
55.6800 327.0000 1.0000
55.6900 331.0000 1.0000
55.7000 330.0000 1.0000
55.7100 307.0000 1.0000
55.7200 316.0000 1.0000
55.7300 335.0000 1.0000
55.7400 352.0000 1.0000
55.7500 318.0000 1.0000
55.7600 311.0000 1.0000
55.7700 335.0000 1.0000
55.7800 316.0000 1.0000
55.7900 313.0000 1.0000
55.8000 323.0000 1.0000
55.8100 315.0000 1.0000
55.8200 318.0000 1.0000
55.8300 327.0000 1.0000
55.8400 304.0000 1.0000
55.8500 317.0000 1.0000
55.8600 297.0000 1.0000
55.8700 313.0000 1.0000
55.8800 311.0000 1.0000
55.8900 318.0000 1.0000
55.9000 295.0000 1.0000
55.9100 315.0000 1.0000
55.9200 331.0000 1.0000
55.9300 301.0000 1.0000
55.9400 314.0000 1.0000
55.9500 298.0000 1.0000
55.9600 319.0000 1.0000
55.9700 319.0000 1.0000
55.9800 316.0000 1.0000
55.9900 280.0000 1.0000
56.0000 316.0000 1.0000
56.0100 308.0000 1.0000
56.0200 314.0000 1.0000
56.0300 295.0000 1.0000
56.0400 321.0000 1.0000
56.0500 307.0000 1.0000
56.0600 314.0000 1.0000
56.0700 309.0000 1.0000
56.0800 310.0000 1.0000
56.0900 313.0000 1.0000
56.1000 307.0000 1.0000
56.1100 298.0000 1.0000
56.1200 296.0000 1.0000
56.1300 315.0000 1.0000
56.1400 291.0000 1.0000
56.1500 287.0000 1.0000
56.1600 289.0000 1.0000
56.1700 295.0000 1.0000
56.1800 299.0000 1.0000
56.1900 311.0000 1.0000
56.2000 309.0000 1.0000
56.2100 269.0000 1.0000
56.2200 299.0000 1.0000
56.2300 291.0000 1.0000
56.2400 261.0000 1.0000
56.2500 304.0000 1.0000
56.2600 327.0000 1.0000
56.2700 301.0000 1.0000
56.2800 296.0000 1.0000
56.2900 295.0000 1.0000
56.3000 277.0000 1.0000
56.3100 314.0000 1.0000
56.3200 286.0000 1.0000
56.3300 275.0000 1.0000
56.3400 291.0000 1.0000
56.3500 295.0000 1.0000
56.3600 275.0000 1.0000
56.3700 295.0000 1.0000
56.3800 303.0000 1.0000
56.3900 291.0000 1.0000
56.4000 293.0000 1.0000
56.4100 316.0000 1.0000
56.4200 307.0000 1.0000
56.4300 298.0000 1.0000
56.4400 299.0000 1.0000
56.4500 315.0000 1.0000
56.4600 312.0000 1.0000
56.4700 314.0000 1.0000
56.4800 289.0000 1.0000
56.4900 288.0000 1.0000
56.5000 294.0000 1.0000
56.5100 330.0000 1.0000
56.5200 303.0000 1.0000
56.5300 293.0000 1.0000
56.5400 291.0000 1.0000
56.5500 282.0000 1.0000
56.5600 322.0000 1.0000
56.5700 296.0000 1.0000
56.5800 269.0000 1.0000
56.5900 283.0000 1.0000
56.6000 296.0000 1.0000
56.6100 323.0000 1.0000
56.6200 305.0000 1.0000
56.6300 283.0000 1.0000
56.6400 292.0000 1.0000
56.6500 307.0000 1.0000
56.6600 283.0000 1.0000
56.6700 276.0000 1.0000
56.6800 302.0000 1.0000
56.6900 295.0000 1.0000
56.7000 298.0000 1.0000
56.7100 305.0000 1.0000
56.7200 280.0000 1.0000
56.7300 285.0000 1.0000
56.7400 308.0000 1.0000
56.7500 267.0000 1.0000
56.7600 272.0000 1.0000
56.7700 261.0000 1.0000
56.7800 303.0000 1.0000
56.7900 312.0000 1.0000
56.8000 306.0000 1.0000
56.8100 287.0000 1.0000
56.8200 299.0000 1.0000
56.8300 279.0000 1.0000
56.8400 299.0000 1.0000
56.8500 313.0000 1.0000
56.8600 325.0000 1.0000
56.8700 312.0000 1.0000
56.8800 284.0000 1.0000
56.8900 283.0000 1.0000
56.9000 285.0000 1.0000
56.9100 290.0000 1.0000
56.9200 321.0000 1.0000
56.9300 295.0000 1.0000
56.9400 301.0000 1.0000
56.9500 272.0000 1.0000
56.9600 307.0000 1.0000
56.9700 290.0000 1.0000
56.9800 274.0000 1.0000
56.9900 308.0000 1.0000
57.0000 282.0000 1.0000
57.0100 273.0000 1.0000
57.0200 297.0000 1.0000
57.0300 317.0000 1.0000
57.0400 299.0000 1.0000
57.0500 314.0000 1.0000
57.0600 300.0000 1.0000
57.0700 289.0000 1.0000
57.0800 334.0000 1.0000
57.0900 291.0000 1.0000
57.1000 291.0000 1.0000
57.1100 294.0000 1.0000
57.1200 315.0000 1.0000
57.1300 315.0000 1.0000
57.1400 282.0000 1.0000
57.1500 287.0000 1.0000
57.1600 306.0000 1.0000
57.1700 296.0000 1.0000
57.1800 307.0000 1.0000
57.1900 274.0000 1.0000
57.2000 297.0000 1.0000
57.2100 283.0000 1.0000
57.2200 304.0000 1.0000
57.2300 288.0000 1.0000
57.2400 316.0000 1.0000
57.2500 300.0000 1.0000
57.2600 268.0000 1.0000
57.2700 259.0000 1.0000
57.2800 298.0000 1.0000
57.2900 295.0000 1.0000
57.3000 278.0000 1.0000
57.3100 298.0000 1.0000
57.3200 289.0000 1.0000
57.3300 301.0000 1.0000
57.3400 282.0000 1.0000
57.3500 272.0000 1.0000
57.3600 286.0000 1.0000
57.3700 260.0000 1.0000
57.3800 268.0000 1.0000
57.3900 294.0000 1.0000
57.4000 289.0000 1.0000
57.4100 304.0000 1.0000
57.4200 287.0000 1.0000
57.4300 292.0000 1.0000
57.4400 297.0000 1.0000
57.4500 296.0000 1.0000
57.4600 303.0000 1.0000
57.4700 330.0000 1.0000
57.4800 302.0000 1.0000
57.4900 276.0000 1.0000
57.5000 267.0000 1.0000
57.5100 290.0000 1.0000
57.5200 316.0000 1.0000
57.5300 317.0000 1.0000
57.5400 317.0000 1.0000
57.5500 297.0000 1.0000
57.5600 306.0000 1.0000
57.5700 295.0000 1.0000
57.5800 295.0000 1.0000
57.5900 320.0000 1.0000
57.6000 289.0000 1.0000
57.6100 301.0000 1.0000
57.6200 282.0000 1.0000
57.6300 284.0000 1.0000
57.6400 299.0000 1.0000
57.6500 321.0000 1.0000
57.6600 290.0000 1.0000
57.6700 280.0000 1.0000
57.6800 263.0000 1.0000
57.6900 302.0000 1.0000
57.7000 306.0000 1.0000
57.7100 298.0000 1.0000
57.7200 280.0000 1.0000
57.7300 286.0000 1.0000
57.7400 307.0000 1.0000
57.7500 308.0000 1.0000
57.7600 292.0000 1.0000
57.7700 286.0000 1.0000
57.7800 276.0000 1.0000
57.7900 301.0000 1.0000
57.8000 301.0000 1.0000
57.8100 289.0000 1.0000
57.8200 299.0000 1.0000
57.8300 284.0000 1.0000
57.8400 270.0000 1.0000
57.8500 289.0000 1.0000
57.8600 281.0000 1.0000
57.8700 283.0000 1.0000
57.8800 291.0000 1.0000
57.8900 301.0000 1.0000
57.9000 285.0000 1.0000
57.9100 289.0000 1.0000
57.9200 315.0000 1.0000
57.9300 285.0000 1.0000
57.9400 307.0000 1.0000
57.9500 292.0000 1.0000
57.9600 289.0000 1.0000
57.9700 303.0000 1.0000
57.9800 279.0000 1.0000
57.9900 308.0000 1.0000
58.0000 298.0000 1.0000
58.0100 284.0000 1.0000
58.0200 294.0000 1.0000
58.0300 316.0000 1.0000
58.0400 300.0000 1.0000
58.0500 316.0000 1.0000
58.0600 314.0000 1.0000
58.0700 302.0000 1.0000
58.0800 300.0000 1.0000
58.0900 286.0000 1.0000
58.1000 316.0000 1.0000
58.1100 299.0000 1.0000
58.1200 293.0000 1.0000
58.1300 307.0000 1.0000
58.1400 299.0000 1.0000
58.1500 331.0000 1.0000
58.1600 310.0000 1.0000
58.1700 275.0000 1.0000
58.1800 280.0000 1.0000
58.1900 296.0000 1.0000
58.2000 297.0000 1.0000
58.2100 308.0000 1.0000
58.2200 304.0000 1.0000
58.2300 303.0000 1.0000
58.2400 291.0000 1.0000
58.2500 296.0000 1.0000
58.2600 314.0000 1.0000
58.2700 309.0000 1.0000
58.2800 306.0000 1.0000
58.2900 316.0000 1.0000
58.3000 331.0000 1.0000
58.3100 292.0000 1.0000
58.3200 304.0000 1.0000
58.3300 301.0000 1.0000
58.3400 328.0000 1.0000
58.3500 298.0000 1.0000
58.3600 282.0000 1.0000
58.3700 284.0000 1.0000
58.3800 295.0000 1.0000
58.3900 293.0000 1.0000
58.4000 286.0000 1.0000
58.4100 335.0000 1.0000
58.4200 332.0000 1.0000
58.4300 300.0000 1.0000
58.4400 295.0000 1.0000
58.4500 294.0000 1.0000
58.4600 314.0000 1.0000
58.4700 318.0000 1.0000
58.4800 287.0000 1.0000
58.4900 283.0000 1.0000
58.5000 306.0000 1.0000
58.5100 292.0000 1.0000
58.5200 306.0000 1.0000
58.5300 323.0000 1.0000
58.5400 322.0000 1.0000
58.5500 308.0000 1.0000
58.5600 287.0000 1.0000
58.5700 298.0000 1.0000
58.5800 298.0000 1.0000
58.5900 299.0000 1.0000
58.6000 285.0000 1.0000
58.6100 287.0000 1.0000
58.6200 285.0000 1.0000
58.6300 302.0000 1.0000
58.6400 293.0000 1.0000
58.6500 290.0000 1.0000
58.6600 294.0000 1.0000
58.6700 317.0000 1.0000
58.6800 283.0000 1.0000
58.6900 303.0000 1.0000
58.7000 288.0000 1.0000
58.7100 324.0000 1.0000
58.7200 305.0000 1.0000
58.7300 281.0000 1.0000
58.7400 275.0000 1.0000
58.7500 278.0000 1.0000
58.7600 309.0000 1.0000
58.7700 310.0000 1.0000
58.7800 307.0000 1.0000
58.7900 296.0000 1.0000
58.8000 289.0000 1.0000
58.8100 307.0000 1.0000
58.8200 279.0000 1.0000
58.8300 264.0000 1.0000
58.8400 282.0000 1.0000
58.8500 289.0000 1.0000
58.8600 296.0000 1.0000
58.8700 289.0000 1.0000
58.8800 311.0000 1.0000
58.8900 269.0000 1.0000
58.9000 296.0000 1.0000
58.9100 285.0000 1.0000
58.9200 279.0000 1.0000
58.9300 304.0000 1.0000
58.9400 279.0000 1.0000
58.9500 264.0000 1.0000
58.9600 306.0000 1.0000
58.9700 297.0000 1.0000
58.9800 287.0000 1.0000
58.9900 299.0000 1.0000
59.0000 290.0000 1.0000
59.0100 310.0000 1.0000
59.0200 285.0000 1.0000
59.0300 294.0000 1.0000
59.0400 300.0000 1.0000
59.0500 274.0000 1.0000
59.0600 280.0000 1.0000
59.0700 258.0000 1.0000
59.0800 265.0000 1.0000
59.0900 270.0000 1.0000
59.1000 297.0000 1.0000
59.1100 305.0000 1.0000
59.1200 278.0000 1.0000
59.1300 289.0000 1.0000
59.1400 266.0000 1.0000
59.1500 279.0000 1.0000
59.1600 290.0000 1.0000
59.1700 294.0000 1.0000
59.1800 305.0000 1.0000
59.1900 287.0000 1.0000
59.2000 306.0000 1.0000
59.2100 332.0000 1.0000
59.2200 289.0000 1.0000
59.2300 327.0000 1.0000
59.2400 309.0000 1.0000
59.2500 302.0000 1.0000
59.2600 270.0000 1.0000
59.2700 259.0000 1.0000
59.2800 280.0000 1.0000
59.2900 270.0000 1.0000
59.3000 288.0000 1.0000
59.3100 294.0000 1.0000
59.3200 303.0000 1.0000
59.3300 299.0000 1.0000
59.3400 314.0000 1.0000
59.3500 309.0000 1.0000
59.3600 300.0000 1.0000
59.3700 314.0000 1.0000
59.3800 281.0000 1.0000
59.3900 283.0000 1.0000
59.4000 300.0000 1.0000
59.4100 274.0000 1.0000
59.4200 305.0000 1.0000
59.4300 302.0000 1.0000
59.4400 275.0000 1.0000
59.4500 283.0000 1.0000
59.4600 291.0000 1.0000
59.4700 298.0000 1.0000
59.4800 301.0000 1.0000
59.4900 287.0000 1.0000
59.5000 272.0000 1.0000
59.5100 285.0000 1.0000
59.5200 286.0000 1.0000
59.5300 298.0000 1.0000
59.5400 304.0000 1.0000
59.5500 303.0000 1.0000
59.5600 306.0000 1.0000
59.5700 297.0000 1.0000
59.5800 281.0000 1.0000
59.5900 292.0000 1.0000
59.6000 292.0000 1.0000
59.6100 305.0000 1.0000
59.6200 302.0000 1.0000
59.6300 291.0000 1.0000
59.6400 296.0000 1.0000
59.6500 288.0000 1.0000
59.6600 287.0000 1.0000
59.6700 293.0000 1.0000
59.6800 311.0000 1.0000
59.6900 317.0000 1.0000
59.7000 279.0000 1.0000
59.7100 268.0000 1.0000
59.7200 280.0000 1.0000
59.7300 281.0000 1.0000
59.7400 298.0000 1.0000
59.7500 274.0000 1.0000
59.7600 286.0000 1.0000
59.7700 282.0000 1.0000
59.7800 321.0000 1.0000
59.7900 296.0000 1.0000
59.8000 276.0000 1.0000
59.8100 284.0000 1.0000
59.8200 262.0000 1.0000
59.8300 289.0000 1.0000
59.8400 292.0000 1.0000
59.8500 296.0000 1.0000
59.8600 305.0000 1.0000
59.8700 271.0000 1.0000
59.8800 282.0000 1.0000
59.8900 285.0000 1.0000
59.9000 284.0000 1.0000
59.9100 298.0000 1.0000
59.9200 305.0000 1.0000
59.9300 281.0000 1.0000
59.9400 283.0000 1.0000
59.9500 287.0000 1.0000
59.9600 316.0000 1.0000
59.9700 284.0000 1.0000
59.9800 260.0000 1.0000
59.9900 292.0000 1.0000
60.0000 305.0000 1.0000
60.0100 292.0000 1.0000
60.0200 284.0000 1.0000
60.0300 280.0000 1.0000
60.0400 282.0000 1.0000
60.0500 275.0000 1.0000
60.0600 298.0000 1.0000
60.0700 310.0000 1.0000
60.0800 257.0000 1.0000
60.0900 305.0000 1.0000
60.1000 310.0000 1.0000
60.1100 297.0000 1.0000
60.1200 301.0000 1.0000
60.1300 315.0000 1.0000
60.1400 282.0000 1.0000
60.1500 311.0000 1.0000
60.1600 290.0000 1.0000
60.1700 288.0000 1.0000
60.1800 292.0000 1.0000
60.1900 269.0000 1.0000
60.2000 283.0000 1.0000
60.2100 283.0000 1.0000
60.2200 301.0000 1.0000
60.2300 316.0000 1.0000
60.2400 296.0000 1.0000
60.2500 284.0000 1.0000
60.2600 302.0000 1.0000
60.2700 294.0000 1.0000
60.2800 304.0000 1.0000
60.2900 286.0000 1.0000
60.3000 274.0000 1.0000
60.3100 277.0000 1.0000
60.3200 319.0000 1.0000
60.3300 297.0000 1.0000
60.3400 283.0000 1.0000
60.3500 283.0000 1.0000
60.3600 289.0000 1.0000
60.3700 285.0000 1.0000
60.3800 286.0000 1.0000
60.3900 249.0000 1.0000
60.4000 286.0000 1.0000
60.4100 316.0000 1.0000
60.4200 287.0000 1.0000
60.4300 309.0000 1.0000
60.4400 293.0000 1.0000
60.4500 290.0000 1.0000
60.4600 318.0000 1.0000
60.4700 308.0000 1.0000
60.4800 290.0000 1.0000
60.4900 298.0000 1.0000
60.5000 286.0000 1.0000
60.5100 315.0000 1.0000
60.5200 296.0000 1.0000
60.5300 263.0000 1.0000
60.5400 295.0000 1.0000
60.5500 277.0000 1.0000
60.5600 272.0000 1.0000
60.5700 267.0000 1.0000
60.5800 299.0000 1.0000
60.5900 302.0000 1.0000
60.6000 303.0000 1.0000
60.6100 259.0000 1.0000
60.6200 286.0000 1.0000
60.6300 316.0000 1.0000
60.6400 315.0000 1.0000
60.6500 283.0000 1.0000
60.6600 287.0000 1.0000
60.6700 293.0000 1.0000
60.6800 325.0000 1.0000
60.6900 267.0000 1.0000
60.7000 300.0000 1.0000
60.7100 287.0000 1.0000
60.7200 293.0000 1.0000
60.7300 280.0000 1.0000
60.7400 291.0000 1.0000
60.7500 305.0000 1.0000
60.7600 280.0000 1.0000
60.7700 261.0000 1.0000
60.7800 304.0000 1.0000
60.7900 292.0000 1.0000
60.8000 293.0000 1.0000
60.8100 281.0000 1.0000
60.8200 308.0000 1.0000
60.8300 285.0000 1.0000
60.8400 302.0000 1.0000
60.8500 291.0000 1.0000
60.8600 309.0000 1.0000
60.8700 305.0000 1.0000
60.8800 323.0000 1.0000
60.8900 295.0000 1.0000
60.9000 264.0000 1.0000
60.9100 294.0000 1.0000
60.9200 307.0000 1.0000
60.9300 301.0000 1.0000
60.9400 309.0000 1.0000
60.9500 303.0000 1.0000
60.9600 279.0000 1.0000
60.9700 278.0000 1.0000
60.9800 265.0000 1.0000
60.9900 265.0000 1.0000
61.0000 287.0000 1.0000
61.0100 279.0000 1.0000
61.0200 279.0000 1.0000
61.0300 294.0000 1.0000
61.0400 323.0000 1.0000
61.0500 313.0000 1.0000
61.0600 301.0000 1.0000
61.0700 311.0000 1.0000
61.0800 299.0000 1.0000
61.0900 304.0000 1.0000
61.1000 295.0000 1.0000
61.1100 306.0000 1.0000
61.1200 306.0000 1.0000
61.1300 288.0000 1.0000
61.1400 321.0000 1.0000
61.1500 291.0000 1.0000
61.1600 296.0000 1.0000
61.1700 306.0000 1.0000
61.1800 278.0000 1.0000
61.1900 255.0000 1.0000
61.2000 271.0000 1.0000
61.2100 274.0000 1.0000
61.2200 270.0000 1.0000
61.2300 276.0000 1.0000
61.2400 282.0000 1.0000
61.2500 293.0000 1.0000
61.2600 282.0000 1.0000
61.2700 294.0000 1.0000
61.2800 307.0000 1.0000
61.2900 296.0000 1.0000
61.3000 282.0000 1.0000
61.3100 272.0000 1.0000
61.3200 306.0000 1.0000
61.3300 279.0000 1.0000
61.3400 310.0000 1.0000
61.3500 288.0000 1.0000
61.3600 325.0000 1.0000
61.3700 305.0000 1.0000
61.3800 293.0000 1.0000
61.3900 288.0000 1.0000
61.4000 276.0000 1.0000
61.4100 281.0000 1.0000
61.4200 299.0000 1.0000
61.4300 276.0000 1.0000
61.4400 291.0000 1.0000
61.4500 286.0000 1.0000
61.4600 282.0000 1.0000
61.4700 312.0000 1.0000
61.4800 293.0000 1.0000
61.4900 294.0000 1.0000
61.5000 299.0000 1.0000
61.5100 271.0000 1.0000
61.5200 309.0000 1.0000
61.5300 296.0000 1.0000
61.5400 297.0000 1.0000
61.5500 296.0000 1.0000
61.5600 289.0000 1.0000
61.5700 304.0000 1.0000
61.5800 293.0000 1.0000
61.5900 316.0000 1.0000
61.6000 301.0000 1.0000
61.6100 257.0000 1.0000
61.6200 332.0000 1.0000
61.6300 293.0000 1.0000
61.6400 286.0000 1.0000
61.6500 297.0000 1.0000
61.6600 303.0000 1.0000
61.6700 331.0000 1.0000
61.6800 300.0000 1.0000
61.6900 312.0000 1.0000
61.7000 297.0000 1.0000
61.7100 308.0000 1.0000
61.7200 317.0000 1.0000
61.7300 288.0000 1.0000
61.7400 277.0000 1.0000
61.7500 320.0000 1.0000
61.7600 287.0000 1.0000
61.7700 320.0000 1.0000
61.7800 322.0000 1.0000
61.7900 303.0000 1.0000
61.8000 313.0000 1.0000
61.8100 297.0000 1.0000
61.8200 315.0000 1.0000
61.8300 308.0000 1.0000
61.8400 309.0000 1.0000
61.8500 312.0000 1.0000
61.8600 341.0000 1.0000
61.8700 324.0000 1.0000
61.8800 308.0000 1.0000
61.8900 304.0000 1.0000
61.9000 319.0000 1.0000
61.9100 309.0000 1.0000
61.9200 317.0000 1.0000
61.9300 323.0000 1.0000
61.9400 302.0000 1.0000
61.9500 347.0000 1.0000
61.9600 355.0000 1.0000
61.9700 354.0000 1.0000
61.9800 331.0000 1.0000
61.9900 349.0000 1.0000
62.0000 353.0000 1.0000
62.0100 351.0000 1.0000
62.0200 380.0000 1.0000
62.0300 373.0000 1.0000
62.0400 367.0000 1.0000
62.0500 405.0000 1.0000
62.0600 364.0000 1.0000
62.0700 382.0000 1.0000
62.0800 394.0000 1.0000
62.0900 371.0000 1.0000
62.1000 386.0000 1.0000
62.1100 418.0000 1.0000
62.1200 430.0000 1.0000
62.1300 445.0000 1.0000
62.1400 411.0000 1.0000
62.1500 474.0000 1.0000
62.1600 461.0000 1.0000
62.1700 485.0000 1.0000
62.1800 501.0000 1.0000
62.1900 498.0000 1.0000
62.2000 552.0000 1.0000
62.2100 554.0000 1.0000
62.2200 543.0000 1.0000
62.2300 580.0000 1.0000
62.2400 561.0000 1.0000
62.2500 605.0000 1.0000
62.2600 620.0000 1.0000
62.2700 618.0000 1.0000
62.2800 586.0000 1.0000
62.2900 635.0000 1.0000
62.3000 642.0000 1.0000
62.3100 659.0000 1.0000
62.3200 664.0000 1.0000
62.3300 639.0000 1.0000
62.3400 680.0000 1.0000
62.3500 637.0000 1.0000
62.3600 614.0000 1.0000
62.3700 625.0000 1.0000
62.3800 640.0000 1.0000
62.3900 593.0000 1.0000
62.4000 577.0000 1.0000
62.4100 613.0000 1.0000
62.4200 600.0000 1.0000
62.4300 615.0000 1.0000
62.4400 585.0000 1.0000
62.4500 555.0000 1.0000
62.4600 583.0000 1.0000
62.4700 528.0000 1.0000
62.4800 547.0000 1.0000
62.4900 549.0000 1.0000
62.5000 562.0000 1.0000
62.5100 542.0000 1.0000
62.5200 537.0000 1.0000
62.5300 507.0000 1.0000
62.5400 525.0000 1.0000
62.5500 480.0000 1.0000
62.5600 472.0000 1.0000
62.5700 488.0000 1.0000
62.5800 453.0000 1.0000
62.5900 444.0000 1.0000
62.6000 429.0000 1.0000
62.6100 384.0000 1.0000
62.6200 410.0000 1.0000
62.6300 412.0000 1.0000
62.6400 403.0000 1.0000
62.6500 390.0000 1.0000
62.6600 415.0000 1.0000
62.6700 383.0000 1.0000
62.6800 392.0000 1.0000
62.6900 401.0000 1.0000
62.7000 384.0000 1.0000
62.7100 412.0000 1.0000
62.7200 389.0000 1.0000
62.7300 401.0000 1.0000
62.7400 370.0000 1.0000
62.7500 365.0000 1.0000
62.7600 371.0000 1.0000
62.7700 357.0000 1.0000
62.7800 326.0000 1.0000
62.7900 336.0000 1.0000
62.8000 311.0000 1.0000
62.8100 322.0000 1.0000
62.8200 354.0000 1.0000
62.8300 327.0000 1.0000
62.8400 339.0000 1.0000
62.8500 333.0000 1.0000
62.8600 300.0000 1.0000
62.8700 318.0000 1.0000
62.8800 329.0000 1.0000
62.8900 336.0000 1.0000
62.9000 318.0000 1.0000
62.9100 324.0000 1.0000
62.9200 292.0000 1.0000
62.9300 332.0000 1.0000
62.9400 303.0000 1.0000
62.9500 308.0000 1.0000
62.9600 314.0000 1.0000
62.9700 306.0000 1.0000
62.9800 325.0000 1.0000
62.9900 324.0000 1.0000
63.0000 332.0000 1.0000
63.0100 308.0000 1.0000
63.0200 330.0000 1.0000
63.0300 332.0000 1.0000
63.0400 312.0000 1.0000
63.0500 328.0000 1.0000
63.0600 313.0000 1.0000
63.0700 310.0000 1.0000
63.0800 306.0000 1.0000
63.0900 303.0000 1.0000
63.1000 293.0000 1.0000
63.1100 298.0000 1.0000
63.1200 314.0000 1.0000
63.1300 313.0000 1.0000
63.1400 317.0000 1.0000
63.1500 316.0000 1.0000
63.1600 336.0000 1.0000
63.1700 305.0000 1.0000
63.1800 309.0000 1.0000
63.1900 308.0000 1.0000
63.2000 304.0000 1.0000
63.2100 325.0000 1.0000
63.2200 336.0000 1.0000
63.2300 327.0000 1.0000
63.2400 287.0000 1.0000
63.2500 295.0000 1.0000
63.2600 315.0000 1.0000
63.2700 309.0000 1.0000
63.2800 315.0000 1.0000
63.2900 297.0000 1.0000
63.3000 314.0000 1.0000
63.3100 310.0000 1.0000
63.3200 310.0000 1.0000
63.3300 298.0000 1.0000
63.3400 314.0000 1.0000
63.3500 324.0000 1.0000
63.3600 325.0000 1.0000
63.3700 299.0000 1.0000
63.3800 298.0000 1.0000
63.3900 316.0000 1.0000
63.4000 304.0000 1.0000
63.4100 312.0000 1.0000
63.4200 298.0000 1.0000
63.4300 286.0000 1.0000
63.4400 296.0000 1.0000
63.4500 287.0000 1.0000
63.4600 313.0000 1.0000
63.4700 303.0000 1.0000
63.4800 311.0000 1.0000
63.4900 312.0000 1.0000
63.5000 293.0000 1.0000
63.5100 312.0000 1.0000
63.5200 296.0000 1.0000
63.5300 302.0000 1.0000
63.5400 295.0000 1.0000
63.5500 301.0000 1.0000
63.5600 297.0000 1.0000
63.5700 308.0000 1.0000
63.5800 302.0000 1.0000
63.5900 283.0000 1.0000
63.6000 294.0000 1.0000
63.6100 275.0000 1.0000
63.6200 264.0000 1.0000
63.6300 287.0000 1.0000
63.6400 299.0000 1.0000
63.6500 294.0000 1.0000
63.6600 300.0000 1.0000
63.6700 317.0000 1.0000
63.6800 292.0000 1.0000
63.6900 272.0000 1.0000
63.7000 282.0000 1.0000
63.7100 299.0000 1.0000
63.7200 265.0000 1.0000
63.7300 300.0000 1.0000
63.7400 288.0000 1.0000
63.7500 277.0000 1.0000
63.7600 276.0000 1.0000
63.7700 279.0000 1.0000
63.7800 288.0000 1.0000
63.7900 298.0000 1.0000
63.8000 282.0000 1.0000
63.8100 269.0000 1.0000
63.8200 308.0000 1.0000
63.8300 304.0000 1.0000
63.8400 298.0000 1.0000
63.8500 281.0000 1.0000
63.8600 294.0000 1.0000
63.8700 296.0000 1.0000
63.8800 268.0000 1.0000
63.8900 277.0000 1.0000
63.9000 299.0000 1.0000
63.9100 290.0000 1.0000
63.9200 265.0000 1.0000
63.9300 281.0000 1.0000
63.9400 311.0000 1.0000
63.9500 310.0000 1.0000
63.9600 327.0000 1.0000
63.9700 310.0000 1.0000
63.9800 314.0000 1.0000
63.9900 287.0000 1.0000
64.0000 300.0000 1.0000
64.0100 301.0000 1.0000
64.0200 292.0000 1.0000
64.0300 304.0000 1.0000
64.0400 268.0000 1.0000
64.0500 296.0000 1.0000
64.0600 314.0000 1.0000
64.0700 299.0000 1.0000
64.0800 280.0000 1.0000
64.0900 275.0000 1.0000
64.1000 275.0000 1.0000
64.1100 307.0000 1.0000
64.1200 275.0000 1.0000
64.1300 280.0000 1.0000
64.1400 323.0000 1.0000
64.1500 281.0000 1.0000
64.1600 283.0000 1.0000
64.1700 296.0000 1.0000
64.1800 292.0000 1.0000
64.1900 308.0000 1.0000
64.2000 295.0000 1.0000
64.2100 298.0000 1.0000
64.2200 300.0000 1.0000
64.2300 301.0000 1.0000
64.2400 306.0000 1.0000
64.2500 274.0000 1.0000
64.2600 294.0000 1.0000
64.2700 313.0000 1.0000
64.2800 286.0000 1.0000
64.2900 298.0000 1.0000
64.3000 333.0000 1.0000
64.3100 290.0000 1.0000
64.3200 305.0000 1.0000
64.3300 307.0000 1.0000
64.3400 323.0000 1.0000
64.3500 332.0000 1.0000
64.3600 333.0000 1.0000
64.3700 285.0000 1.0000
64.3800 307.0000 1.0000
64.3900 287.0000 1.0000
64.4000 303.0000 1.0000
64.4100 307.0000 1.0000
64.4200 337.0000 1.0000
64.4300 286.0000 1.0000
64.4400 311.0000 1.0000
64.4500 325.0000 1.0000
64.4600 301.0000 1.0000
64.4700 312.0000 1.0000
64.4800 323.0000 1.0000
64.4900 340.0000 1.0000
64.5000 322.0000 1.0000
64.5100 299.0000 1.0000
64.5200 341.0000 1.0000
64.5300 352.0000 1.0000
64.5400 342.0000 1.0000
64.5500 331.0000 1.0000
64.5600 338.0000 1.0000
64.5700 329.0000 1.0000
64.5800 333.0000 1.0000
64.5900 367.0000 1.0000
64.6000 369.0000 1.0000
64.6100 346.0000 1.0000
64.6200 377.0000 1.0000
64.6300 362.0000 1.0000
64.6400 339.0000 1.0000
64.6500 377.0000 1.0000
64.6600 392.0000 1.0000
64.6700 378.0000 1.0000
64.6800 368.0000 1.0000
64.6900 394.0000 1.0000
64.7000 357.0000 1.0000
64.7100 370.0000 1.0000
64.7200 366.0000 1.0000
64.7300 387.0000 1.0000
64.7400 372.0000 1.0000
64.7500 381.0000 1.0000
64.7600 367.0000 1.0000
64.7700 373.0000 1.0000
64.7800 399.0000 1.0000
64.7900 391.0000 1.0000
64.8000 372.0000 1.0000
64.8100 372.0000 1.0000
64.8200 341.0000 1.0000
64.8300 366.0000 1.0000
64.8400 360.0000 1.0000
64.8500 332.0000 1.0000
64.8600 357.0000 1.0000
64.8700 375.0000 1.0000
64.8800 394.0000 1.0000
64.8900 369.0000 1.0000
64.9000 394.0000 1.0000
64.9100 324.0000 1.0000
64.9200 346.0000 1.0000
64.9300 391.0000 1.0000
64.9400 355.0000 1.0000
64.9500 357.0000 1.0000
64.9600 365.0000 1.0000
64.9700 377.0000 1.0000
64.9800 326.0000 1.0000
64.9900 343.0000 1.0000
65.0000 337.0000 1.0000
65.0100 343.0000 1.0000
65.0200 371.0000 1.0000
65.0300 326.0000 1.0000
65.0400 352.0000 1.0000
65.0500 346.0000 1.0000
65.0600 318.0000 1.0000
65.0700 313.0000 1.0000
65.0800 347.0000 1.0000
65.0900 327.0000 1.0000
65.1000 316.0000 1.0000
65.1100 312.0000 1.0000
65.1200 323.0000 1.0000
65.1300 331.0000 1.0000
65.1400 333.0000 1.0000
65.1500 325.0000 1.0000
65.1600 349.0000 1.0000
65.1700 299.0000 1.0000
65.1800 305.0000 1.0000
65.1900 329.0000 1.0000
65.2000 313.0000 1.0000
65.2100 339.0000 1.0000
65.2200 312.0000 1.0000
65.2300 315.0000 1.0000
65.2400 306.0000 1.0000
65.2500 316.0000 1.0000
65.2600 329.0000 1.0000
65.2700 335.0000 1.0000
65.2800 328.0000 1.0000
65.2900 310.0000 1.0000
65.3000 331.0000 1.0000
65.3100 319.0000 1.0000
65.3200 338.0000 1.0000
65.3300 299.0000 1.0000
65.3400 297.0000 1.0000
65.3500 289.0000 1.0000
65.3600 289.0000 1.0000
65.3700 308.0000 1.0000
65.3800 307.0000 1.0000
65.3900 325.0000 1.0000
65.4000 291.0000 1.0000
65.4100 296.0000 1.0000
65.4200 325.0000 1.0000
65.4300 272.0000 1.0000
65.4400 289.0000 1.0000
65.4500 307.0000 1.0000
65.4600 308.0000 1.0000
65.4700 296.0000 1.0000
65.4800 315.0000 1.0000
65.4900 332.0000 1.0000
65.5000 303.0000 1.0000
65.5100 338.0000 1.0000
65.5200 311.0000 1.0000
65.5300 299.0000 1.0000
65.5400 315.0000 1.0000
65.5500 308.0000 1.0000
65.5600 283.0000 1.0000
65.5700 300.0000 1.0000
65.5800 325.0000 1.0000
65.5900 312.0000 1.0000
65.6000 315.0000 1.0000
65.6100 328.0000 1.0000
65.6200 318.0000 1.0000
65.6300 306.0000 1.0000
65.6400 345.0000 1.0000
65.6500 314.0000 1.0000
65.6600 293.0000 1.0000
65.6700 292.0000 1.0000
65.6800 288.0000 1.0000
65.6900 324.0000 1.0000
65.7000 320.0000 1.0000
65.7100 316.0000 1.0000
65.7200 350.0000 1.0000
65.7300 378.0000 1.0000
65.7400 341.0000 1.0000
65.7500 352.0000 1.0000
65.7600 342.0000 1.0000
65.7700 338.0000 1.0000
65.7800 340.0000 1.0000
65.7900 331.0000 1.0000
65.8000 324.0000 1.0000
65.8100 351.0000 1.0000
65.8200 328.0000 1.0000
65.8300 316.0000 1.0000
65.8400 353.0000 1.0000
65.8500 335.0000 1.0000
65.8600 376.0000 1.0000
65.8700 330.0000 1.0000
65.8800 328.0000 1.0000
65.8900 341.0000 1.0000
65.9000 374.0000 1.0000
65.9100 355.0000 1.0000
65.9200 394.0000 1.0000
65.9300 388.0000 1.0000
65.9400 377.0000 1.0000
65.9500 394.0000 1.0000
65.9600 412.0000 1.0000
65.9700 397.0000 1.0000
65.9800 383.0000 1.0000
65.9900 385.0000 1.0000
66.0000 420.0000 1.0000
66.0100 439.0000 1.0000
66.0200 449.0000 1.0000
66.0300 440.0000 1.0000
66.0400 455.0000 1.0000
66.0500 460.0000 1.0000
66.0600 484.0000 1.0000
66.0700 489.0000 1.0000
66.0800 492.0000 1.0000
66.0900 520.0000 1.0000
66.1000 564.0000 1.0000
66.1100 552.0000 1.0000
66.1200 566.0000 1.0000
66.1300 636.0000 1.0000
66.1400 663.0000 1.0000
66.1500 726.0000 1.0000
66.1600 771.0000 1.0000
66.1700 766.0000 1.0000
66.1800 817.0000 1.0000
66.1900 867.0000 1.0000
66.2000 932.0000 1.0000
66.2100 976.0000 1.0000
66.2200 1018.0000 1.0000
66.2300 1050.0000 1.0000
66.2400 1082.0000 1.0000
66.2500 1154.0000 1.0000
66.2600 1197.0000 1.0000
66.2700 1253.0000 1.0000
66.2800 1249.0000 1.0000
66.2900 1237.0000 1.0000
66.3000 1184.0000 1.0000
66.3100 1231.0000 1.0000
66.3200 1173.0000 1.0000
66.3300 1109.0000 1.0000
66.3400 1117.0000 1.0000
66.3500 1052.0000 1.0000
66.3600 1083.0000 1.0000
66.3700 1081.0000 1.0000
66.3800 1026.0000 1.0000
66.3900 1049.0000 1.0000
66.4000 1057.0000 1.0000
66.4100 1011.0000 1.0000
66.4200 1004.0000 1.0000
66.4300 965.0000 1.0000
66.4400 1002.0000 1.0000
66.4500 983.0000 1.0000
66.4600 963.0000 1.0000
66.4700 905.0000 1.0000
66.4800 884.0000 1.0000
66.4900 867.0000 1.0000
66.5000 864.0000 1.0000
66.5100 862.0000 1.0000
66.5200 811.0000 1.0000
66.5300 756.0000 1.0000
66.5400 730.0000 1.0000
66.5500 706.0000 1.0000
66.5600 718.0000 1.0000
66.5700 640.0000 1.0000
66.5800 599.0000 1.0000
66.5900 587.0000 1.0000
66.6000 573.0000 1.0000
66.6100 551.0000 1.0000
66.6200 516.0000 1.0000
66.6300 510.0000 1.0000
66.6400 485.0000 1.0000
66.6500 474.0000 1.0000
66.6600 489.0000 1.0000
66.6700 485.0000 1.0000
66.6800 456.0000 1.0000
66.6900 427.0000 1.0000
66.7000 384.0000 1.0000
66.7100 409.0000 1.0000
66.7200 441.0000 1.0000
66.7300 397.0000 1.0000
66.7400 420.0000 1.0000
66.7500 371.0000 1.0000
66.7600 389.0000 1.0000
66.7700 378.0000 1.0000
66.7800 374.0000 1.0000
66.7900 353.0000 1.0000
66.8000 346.0000 1.0000
66.8100 360.0000 1.0000
66.8200 350.0000 1.0000
66.8300 345.0000 1.0000
66.8400 358.0000 1.0000
66.8500 376.0000 1.0000
66.8600 345.0000 1.0000
66.8700 352.0000 1.0000
66.8800 336.0000 1.0000
66.8900 329.0000 1.0000
66.9000 348.0000 1.0000
66.9100 314.0000 1.0000
66.9200 299.0000 1.0000
66.9300 338.0000 1.0000
66.9400 316.0000 1.0000
66.9500 306.0000 1.0000
66.9600 325.0000 1.0000
66.9700 294.0000 1.0000
66.9800 300.0000 1.0000
66.9900 312.0000 1.0000
67.0000 330.0000 1.0000
67.0100 292.0000 1.0000
67.0200 313.0000 1.0000
67.0300 314.0000 1.0000
67.0400 303.0000 1.0000
67.0500 301.0000 1.0000
67.0600 322.0000 1.0000
67.0700 295.0000 1.0000
67.0800 311.0000 1.0000
67.0900 321.0000 1.0000
67.1000 310.0000 1.0000
67.1100 304.0000 1.0000
67.1200 289.0000 1.0000
67.1300 287.0000 1.0000
67.1400 294.0000 1.0000
67.1500 312.0000 1.0000
67.1600 291.0000 1.0000
67.1700 281.0000 1.0000
67.1800 294.0000 1.0000
67.1900 288.0000 1.0000
67.2000 282.0000 1.0000
67.2100 283.0000 1.0000
67.2200 288.0000 1.0000
67.2300 284.0000 1.0000
67.2400 285.0000 1.0000
67.2500 288.0000 1.0000
67.2600 313.0000 1.0000
67.2700 323.0000 1.0000
67.2800 303.0000 1.0000
67.2900 282.0000 1.0000
67.3000 264.0000 1.0000
67.3100 281.0000 1.0000
67.3200 281.0000 1.0000
67.3300 265.0000 1.0000
67.3400 299.0000 1.0000
67.3500 297.0000 1.0000
67.3600 295.0000 1.0000
67.3700 277.0000 1.0000
67.3800 298.0000 1.0000
67.3900 271.0000 1.0000
67.4000 266.0000 1.0000
67.4100 277.0000 1.0000
67.4200 276.0000 1.0000
67.4300 273.0000 1.0000
67.4400 286.0000 1.0000
67.4500 287.0000 1.0000
67.4600 285.0000 1.0000
67.4700 297.0000 1.0000
67.4800 284.0000 1.0000
67.4900 264.0000 1.0000
67.5000 288.0000 1.0000
67.5100 273.0000 1.0000
67.5200 278.0000 1.0000
67.5300 265.0000 1.0000
67.5400 273.0000 1.0000
67.5500 276.0000 1.0000
67.5600 279.0000 1.0000
67.5700 269.0000 1.0000
67.5800 272.0000 1.0000
67.5900 297.0000 1.0000
67.6000 310.0000 1.0000
67.6100 298.0000 1.0000
67.6200 284.0000 1.0000
67.6300 253.0000 1.0000
67.6400 273.0000 1.0000
67.6500 273.0000 1.0000
67.6600 294.0000 1.0000
67.6700 282.0000 1.0000
67.6800 316.0000 1.0000
67.6900 271.0000 1.0000
67.7000 281.0000 1.0000
67.7100 276.0000 1.0000
67.7200 285.0000 1.0000
67.7300 281.0000 1.0000
67.7400 263.0000 1.0000
67.7500 284.0000 1.0000
67.7600 307.0000 1.0000
67.7700 281.0000 1.0000
67.7800 268.0000 1.0000
67.7900 291.0000 1.0000
67.8000 284.0000 1.0000
67.8100 278.0000 1.0000
67.8200 283.0000 1.0000
67.8300 291.0000 1.0000
67.8400 260.0000 1.0000
67.8500 263.0000 1.0000
67.8600 254.0000 1.0000
67.8700 275.0000 1.0000
67.8800 291.0000 1.0000
67.8900 262.0000 1.0000
67.9000 247.0000 1.0000
67.9100 281.0000 1.0000
67.9200 276.0000 1.0000
67.9300 282.0000 1.0000
67.9400 274.0000 1.0000
67.9500 270.0000 1.0000
67.9600 246.0000 1.0000
67.9700 274.0000 1.0000
67.9800 275.0000 1.0000
67.9900 281.0000 1.0000
68.0000 283.0000 1.0000
68.0100 251.0000 1.0000
68.0200 280.0000 1.0000
68.0300 275.0000 1.0000
68.0400 273.0000 1.0000
68.0500 288.0000 1.0000
68.0600 270.0000 1.0000
68.0700 265.0000 1.0000
68.0800 284.0000 1.0000
68.0900 300.0000 1.0000
68.1000 251.0000 1.0000
68.1100 260.0000 1.0000
68.1200 281.0000 1.0000
68.1300 272.0000 1.0000
68.1400 287.0000 1.0000
68.1500 243.0000 1.0000
68.1600 251.0000 1.0000
68.1700 274.0000 1.0000
68.1800 269.0000 1.0000
68.1900 218.0000 1.0000
68.2000 301.0000 1.0000
68.2100 296.0000 1.0000
68.2200 247.0000 1.0000
68.2300 248.0000 1.0000
68.2400 262.0000 1.0000
68.2500 267.0000 1.0000
68.2600 287.0000 1.0000
68.2700 250.0000 1.0000
68.2800 278.0000 1.0000
68.2900 279.0000 1.0000
68.3000 283.0000 1.0000
68.3100 291.0000 1.0000
68.3200 271.0000 1.0000
68.3300 291.0000 1.0000
68.3400 268.0000 1.0000
68.3500 259.0000 1.0000
68.3600 282.0000 1.0000
68.3700 284.0000 1.0000
68.3800 261.0000 1.0000
68.3900 272.0000 1.0000
68.4000 268.0000 1.0000
68.4100 266.0000 1.0000
68.4200 300.0000 1.0000
68.4300 279.0000 1.0000
68.4400 258.0000 1.0000
68.4500 260.0000 1.0000
68.4600 264.0000 1.0000
68.4700 284.0000 1.0000
68.4800 269.0000 1.0000
68.4900 249.0000 1.0000
68.5000 251.0000 1.0000
68.5100 243.0000 1.0000
68.5200 268.0000 1.0000
68.5300 258.0000 1.0000
68.5400 269.0000 1.0000
68.5500 279.0000 1.0000
68.5600 255.0000 1.0000
68.5700 277.0000 1.0000
68.5800 280.0000 1.0000
68.5900 271.0000 1.0000
68.6000 281.0000 1.0000
68.6100 266.0000 1.0000
68.6200 241.0000 1.0000
68.6300 259.0000 1.0000
68.6400 260.0000 1.0000
68.6500 246.0000 1.0000
68.6600 261.0000 1.0000
68.6700 267.0000 1.0000
68.6800 273.0000 1.0000
68.6900 271.0000 1.0000
68.7000 276.0000 1.0000
68.7100 260.0000 1.0000
68.7200 251.0000 1.0000
68.7300 307.0000 1.0000
68.7400 256.0000 1.0000
68.7500 259.0000 1.0000
68.7600 237.0000 1.0000
68.7700 269.0000 1.0000
68.7800 273.0000 1.0000
68.7900 243.0000 1.0000
68.8000 254.0000 1.0000
68.8100 261.0000 1.0000
68.8200 265.0000 1.0000
68.8300 275.0000 1.0000
68.8400 273.0000 1.0000
68.8500 286.0000 1.0000
68.8600 256.0000 1.0000
68.8700 260.0000 1.0000
68.8800 280.0000 1.0000
68.8900 280.0000 1.0000
68.9000 263.0000 1.0000
68.9100 256.0000 1.0000
68.9200 246.0000 1.0000
68.9300 246.0000 1.0000
68.9400 280.0000 1.0000
68.9500 259.0000 1.0000
68.9600 262.0000 1.0000
68.9700 293.0000 1.0000
68.9800 287.0000 1.0000
68.9900 265.0000 1.0000
69.0000 259.0000 1.0000
69.0100 258.0000 1.0000
69.0200 258.0000 1.0000
69.0300 240.0000 1.0000
69.0400 269.0000 1.0000
69.0500 258.0000 1.0000
69.0600 251.0000 1.0000
69.0700 248.0000 1.0000
69.0800 259.0000 1.0000
69.0900 242.0000 1.0000
69.1000 256.0000 1.0000
69.1100 256.0000 1.0000
69.1200 266.0000 1.0000
69.1300 269.0000 1.0000
69.1400 272.0000 1.0000
69.1500 270.0000 1.0000
69.1600 248.0000 1.0000
69.1700 257.0000 1.0000
69.1800 251.0000 1.0000
69.1900 234.0000 1.0000
69.2000 223.0000 1.0000
69.2100 263.0000 1.0000
69.2200 263.0000 1.0000
69.2300 246.0000 1.0000
69.2400 262.0000 1.0000
69.2500 245.0000 1.0000
69.2600 284.0000 1.0000
69.2700 264.0000 1.0000
69.2800 281.0000 1.0000
69.2900 256.0000 1.0000
69.3000 262.0000 1.0000
69.3100 268.0000 1.0000
69.3200 272.0000 1.0000
69.3300 268.0000 1.0000
69.3400 287.0000 1.0000
69.3500 278.0000 1.0000
69.3600 257.0000 1.0000
69.3700 265.0000 1.0000
69.3800 247.0000 1.0000
69.3900 270.0000 1.0000
69.4000 274.0000 1.0000
69.4100 273.0000 1.0000
69.4200 260.0000 1.0000
69.4300 274.0000 1.0000
69.4400 269.0000 1.0000
69.4500 270.0000 1.0000
69.4600 258.0000 1.0000
69.4700 246.0000 1.0000
69.4800 270.0000 1.0000
69.4900 262.0000 1.0000
69.5000 282.0000 1.0000
69.5100 254.0000 1.0000
69.5200 269.0000 1.0000
69.5300 271.0000 1.0000
69.5400 267.0000 1.0000
69.5500 256.0000 1.0000
69.5600 243.0000 1.0000
69.5700 268.0000 1.0000
69.5800 280.0000 1.0000
69.5900 291.0000 1.0000
69.6000 253.0000 1.0000
69.6100 233.0000 1.0000
69.6200 235.0000 1.0000
69.6300 285.0000 1.0000
69.6400 282.0000 1.0000
69.6500 256.0000 1.0000
69.6600 262.0000 1.0000
69.6700 255.0000 1.0000
69.6800 276.0000 1.0000
69.6900 277.0000 1.0000
69.7000 286.0000 1.0000
69.7100 247.0000 1.0000
69.7200 271.0000 1.0000
69.7300 256.0000 1.0000
69.7400 250.0000 1.0000
69.7500 254.0000 1.0000
69.7600 256.0000 1.0000
69.7700 243.0000 1.0000
69.7800 272.0000 1.0000
69.7900 273.0000 1.0000
69.8000 261.0000 1.0000
69.8100 255.0000 1.0000
69.8200 275.0000 1.0000
69.8300 261.0000 1.0000
69.8400 261.0000 1.0000
69.8500 284.0000 1.0000
69.8600 230.0000 1.0000
69.8700 252.0000 1.0000
69.8800 254.0000 1.0000
69.8900 247.0000 1.0000
69.9000 253.0000 1.0000
69.9100 272.0000 1.0000
69.9200 253.0000 1.0000
69.9300 220.0000 1.0000
69.9400 273.0000 1.0000
69.9500 298.0000 1.0000
69.9600 268.0000 1.0000
69.9700 244.0000 1.0000
69.9800 271.0000 1.0000
69.9900 255.0000 1.0000
70.0000 250.0000 1.0000
*RAS_INT_END
*RAS_TEMPERATURE_START
*RAS_TEMPERATURE_END
*RAS_DATA_END
