*RAS_DATA_START
*RAS_HEADER_START
*DISP_FMT_X "%.2f"
*DISP_FMT_Y "%.0f"
*DISP_FULLSCALE "15830.0000000000"
*DISP_LINE_COLOR "255.0000000000"
*DISP_LINE_STYLE "0.0000000000"
*DISP_LINE_WIDTH "0.2500000000"
*DISP_NOTE "測定データ-4"
*DISP_OFFSET_Y "0.0000000000"
*DISP_PEAKSEARCH_UNIT_Y "cps"
*DISP_RANGE_BOTTOM "0.0000000000"
*DISP_RANGE_LEFT "20.0000000000"
*DISP_RANGE_LOGCUTOFF "0.0100000000"
*DISP_RANGE_RIGHT "70.0000000000"
*DISP_RANGE_TOP "15830.0000000000"
*DISP_SCALE_MODE_Y "0.0000000000"
*DISP_TAB_NAME "2θ/θ"
*DISP_TITLE_Y "強度"
*DISP_UNIT_Y "cps"
*DISP_WINDOW_NAME "MSG_MACROENGINE"
*FILE_COMMENT " "
*FILE_MD5 ""
*FILE_MEMO " "
*FILE_OPERATOR "Administrator"
*FILE_SAMPLE " "
*FILE_TYPE "RAS_RAW"
*FILE_USERGROUP "システムマネージャ"
*FILE_VERSION "1.0000000000"
*HW_ATTACHMENT_ID "ATT0025"
*HW_ATTACHMENT_NAME "標準|Standard"
*HW_COUNTER_ID-0 "CUT0025"
*HW_COUNTER_ID-1 "CUT0020"
*HW_COUNTER_ID-2 "CUT0020"
*HW_COUNTER_ID-3 "CSL0021"
*HW_COUNTER_ID-4 "CMC0021"
*HW_COUNTER_NAME-0 "D/teX Ultra|D/teX Ultra"
*HW_COUNTER_NAME-1 "None|None"
*HW_COUNTER_NAME-2 "None|None"
*HW_COUNTER_NAME-3 "BBM|BBM"
*HW_COUNTER_NAME-4 "検出器モノクロメータ|Detector monochromator"
*HW_COUNTER_SELECT_NAME "D/teX Ultra|D/teX Ultra"
*HW_GONIOMETER_ID "GON0023"
*HW_GONIOMETER_NAME "SmartLab|SmartLab"
*HW_GONIOMETER_RADIUS-0 "90.0"
*HW_GONIOMETER_RADIUS-1 "114.0"
*HW_GONIOMETER_RADIUS-2 "190.0"
*HW_GONIOMETER_RADIUS-3 "300.0"
*HW_GONIOMETER_RADIUS-4 "187.0"
*HW_GONIOMETER_RADIUS-5 "300.0"
*HW_GONIOMETER_RADIUS-6 "113.0"
*HW_GONIOMETER_RADIUS-7 "331.0"
*HW_I_OPT_ID-0 "CBO0021"
*HW_I_OPT_ID-1 "ICR0023"
*HW_I_OPT_ID-2 "ISL0021"
*HW_I_OPT_ID-3 "ISO0021"
*HW_I_OPT_ID-4 "IAD0021"
*HW_I_OPT_ID-5 "IPR0001"
*HW_I_OPT_NAME-0 "CBOユニット|CBO unit"
*HW_I_OPT_NAME-1 "標準入射光学ユニット|Standard incident optical unit"
*HW_I_OPT_NAME-2 "標準入射スリットボックス|Standard incident slit box"
*HW_I_OPT_NAME-3 "入射平行スリット|Incident parallel slit"
*HW_I_OPT_NAME-4 "長手制限スリット|Length limiting slit"
*HW_I_OPT_NAME-5 "None|None"
*HW_R_ATTENUATER_AUTOMODE "0"
*HW_R_OPT_ID-0 "RSS0021"
*HW_R_OPT_ID-1 "RCR0023"
*HW_R_OPT_ID-2 "RSO0021"
*HW_R_OPT_ID-3 "RRS0021"
*HW_R_OPT_ID-4 "ATN0021"
*HW_R_OPT_ID-5 "RFL0021"
*HW_R_OPT_ID-6 "RAD0021"
*HW_R_OPT_NAME-0 "標準受光スリットボックス1|Standard receiving slit box # 1"
*HW_R_OPT_NAME-1 "標準受光光学ユニット1|Standard receiving unit # 1"
*HW_R_OPT_NAME-2 "標準受光光学ユニット2|Standard receiving optical unit # 2"
*HW_R_OPT_NAME-3 "標準受光スリットボックス2|Standard receiving slit box # 2"
*HW_R_OPT_NAME-4 "標準アッテネータ|Standard Attenuator"
*HW_R_OPT_NAME-5 "Cu Kβ|Cu K-beta"
*HW_R_OPT_NAME-6 "調整用受光スリット|Alignment receiving slit"
*HW_SAMPLE_HOLDER_ID "SMP0023"
*HW_SAMPLE_HOLDER_NAME "標準Zステージ|Standard Z stage"
*HW_XG_CURRENT_MAX "50"
*HW_XG_CURRENT_MIN "2"
*HW_XG_CURRENT_RESOLUTION "1"
*HW_XG_CURRENT_UNIT "mA"
*HW_XG_FOCUS "1mm x 10mm"
*HW_XG_FOCUS_TYPE "Normal"
*HW_XG_ID ""
*HW_XG_NAME "3kW 封入管(ID:1200)|3kW Sealed tube(ID:1200)"
*HW_XG_TARGET_ATOMIC_NUMBER "29.0000000000"
*HW_XG_TARGET_NAME "Cu"
*HW_XG_TYPE "Hermetic"
*HW_XG_VOLTAGE_MAX "60"
*HW_XG_VOLTAGE_MIN "20"
*HW_XG_VOLTAGE_RESOLUTION "1"
*HW_XG_VOLTAGE_UNIT "kV"
*HW_XG_WATT_MAX "1.500"
*HW_XG_WATT_UNIT "kW"
*HW_XG_WAVE_LENGTH_ALPHA1 "1.540593"
*HW_XG_WAVE_LENGTH_ALPHA2 "1.544414"
*HW_XG_WAVE_LENGTH_BETA "1.392250"
*MEAS_COND_AXIS_NAME-0 "2θ/θ"
*MEAS_COND_AXIS_NAME-1 "2θ"
*MEAS_COND_AXIS_NAME-2 "ω"
*MEAS_COND_AXIS_NAME-3 "Z"
*MEAS_COND_AXIS_NAME-4 "2θ/ω"
*MEAS_COND_AXIS_NAME-5 "θs"
*MEAS_COND_AXIS_NAME-6 "θd"
*MEAS_COND_AXIS_NAME-7 "Ts"
*MEAS_COND_AXIS_NAME-8 "CBO選択スリット"
*MEAS_COND_AXIS_NAME-9 "M"
*MEAS_COND_AXIS_NAME-10 "入射平行スリット"
*MEAS_COND_AXIS_NAME-11 "入射スリット"
*MEAS_COND_AXIS_NAME-12 ""
*MEAS_COND_AXIS_NAME-13 "Zs"
*MEAS_COND_AXIS_NAME-14 "入射光学素子"
*MEAS_COND_AXIS_NAME-15 "長手制限スリット"
*MEAS_COND_AXIS_NAME-16 "センタースリット"
*MEAS_COND_AXIS_NAME-17 "フィルター"
*MEAS_COND_AXIS_NAME-18 "受光スリット1"
*MEAS_COND_AXIS_NAME-19 "受光スリット2"
*MEAS_COND_AXIS_NAME-20 "受光光学素子"
*MEAS_COND_AXIS_NAME-21 "受光平行スリット"
*MEAS_COND_AXIS_NAME-22 "調整用受光スリット"
*MEAS_COND_AXIS_NAME-23 ""
*MEAS_COND_AXIS_NAME-24 ""
*MEAS_COND_AXIS_NAME-25 "Zd"
*MEAS_COND_AXIS_NAME-26 "アッテネータ"
*MEAS_COND_AXIS_NAME-27 "検出器モノクロメータ"
*MEAS_COND_AXIS_NAME-28 "モノクロメータスリット"
*MEAS_COND_AXIS_NAME-29 "プライマリビーム"
*MEAS_COND_AXIS_NAME-30 "PHA"
*MEAS_COND_AXIS_NAME_INTERNAL-0 "TwoThetaTheta"
*MEAS_COND_AXIS_NAME_INTERNAL-1 "TwoTheta"
*MEAS_COND_AXIS_NAME_INTERNAL-2 "Omega"
*MEAS_COND_AXIS_NAME_INTERNAL-3 "Z"
*MEAS_COND_AXIS_NAME_INTERNAL-4 "TwoThetaOmega"
*MEAS_COND_AXIS_NAME_INTERNAL-5 "ThetaS"
*MEAS_COND_AXIS_NAME_INTERNAL-6 "ThetaD"
*MEAS_COND_AXIS_NAME_INTERNAL-7 "Ts"
*MEAS_COND_AXIS_NAME_INTERNAL-8 "CBO"
*MEAS_COND_AXIS_NAME_INTERNAL-9 "CBO-M"
*MEAS_COND_AXIS_NAME_INTERNAL-10 "IncidentSollerSlit"
*MEAS_COND_AXIS_NAME_INTERNAL-11 "IncidentSlitBox"
*MEAS_COND_AXIS_NAME_INTERNAL-12 "IncidentSlitBox-_Axis"
*MEAS_COND_AXIS_NAME_INTERNAL-13 "Zs"
*MEAS_COND_AXIS_NAME_INTERNAL-14 "IncidentMonochromator"
*MEAS_COND_AXIS_NAME_INTERNAL-15 "IncidentAxdSlit"
*MEAS_COND_AXIS_NAME_INTERNAL-16 "CenterSlit"
*MEAS_COND_AXIS_NAME_INTERNAL-17 "Filter"
*MEAS_COND_AXIS_NAME_INTERNAL-18 "ReceivingSlitBox1"
*MEAS_COND_AXIS_NAME_INTERNAL-19 "ReceivingSlitBox2"
*MEAS_COND_AXIS_NAME_INTERNAL-20 "ReceivingOptics"
*MEAS_COND_AXIS_NAME_INTERNAL-21 "ReceivingSollerSlit"
*MEAS_COND_AXIS_NAME_INTERNAL-22 "ReceivingAxdSlit"
*MEAS_COND_AXIS_NAME_INTERNAL-23 "ReceivingSlitBox1-_Axis"
*MEAS_COND_AXIS_NAME_INTERNAL-24 "ReceivingSlitBox2-_Axis"
*MEAS_COND_AXIS_NAME_INTERNAL-25 "ReceivingSlitBox2-Zd"
*MEAS_COND_AXIS_NAME_INTERNAL-26 "Attenuator"
*MEAS_COND_AXIS_NAME_INTERNAL-27 "CounterMonochromator"
*MEAS_COND_AXIS_NAME_INTERNAL-28 "CounterSlit"
*MEAS_COND_AXIS_NAME_INTERNAL-29 "IncidentPrimary"
*MEAS_COND_AXIS_NAME_INTERNAL-30 "PHA"
*MEAS_COND_AXIS_NAME_MAGICNO-0 "83951616.0000000000"
*MEAS_COND_AXIS_NAME_MAGICNO-1 "268632064.0000000000"
*MEAS_COND_AXIS_NAME_MAGICNO-2 "268500992.0000000000"
*MEAS_COND_AXIS_NAME_MAGICNO-3 "285278208.0000000000"
*MEAS_COND_AXIS_NAME_MAGICNO-4 "83951616.0000000000"
*MEAS_COND_AXIS_NAME_MAGICNO-5 "131072.0000000000"
*MEAS_COND_AXIS_NAME_MAGICNO-6 "131072.0000000000"
*MEAS_COND_AXIS_NAME_MAGICNO-7 "318898176.0000000000"
*MEAS_COND_AXIS_NAME_MAGICNO-8 "20971521.0000000000"
*MEAS_COND_AXIS_NAME_MAGICNO-9 "285343744.0000000000"
*MEAS_COND_AXIS_NAME_MAGICNO-10 "20971521.0000000000"
*MEAS_COND_AXIS_NAME_MAGICNO-11 "22020097.0000000000"
*MEAS_COND_AXIS_NAME_MAGICNO-12 "25165824.0000000000"
*MEAS_COND_AXIS_NAME_MAGICNO-13 "318898176.0000000000"
*MEAS_COND_AXIS_NAME_MAGICNO-14 "1.0000000000"
*MEAS_COND_AXIS_NAME_MAGICNO-15 "20971521.0000000000"
*MEAS_COND_AXIS_NAME_MAGICNO-16 "20971521.0000000000"
*MEAS_COND_AXIS_NAME_MAGICNO-17 "20971521.0000000000"
*MEAS_COND_AXIS_NAME_MAGICNO-18 "23068673.0000000000"
*MEAS_COND_AXIS_NAME_MAGICNO-19 "23068673.0000000000"
*MEAS_COND_AXIS_NAME_MAGICNO-20 "20971521.0000000000"
*MEAS_COND_AXIS_NAME_MAGICNO-21 "20971521.0000000000"
*MEAS_COND_AXIS_NAME_MAGICNO-22 "20971521.0000000000"
*MEAS_COND_AXIS_NAME_MAGICNO-23 "25165824.0000000000"
*MEAS_COND_AXIS_NAME_MAGICNO-24 "25165824.0000000000"
*MEAS_COND_AXIS_NAME_MAGICNO-25 "285343744.0000000000"
*MEAS_COND_AXIS_NAME_MAGICNO-26 "17301505.0000000000"
*MEAS_COND_AXIS_NAME_MAGICNO-27 "20971521.0000000000"
*MEAS_COND_AXIS_NAME_MAGICNO-28 "20971521.0000000000"
*MEAS_COND_AXIS_NAME_MAGICNO-29 "20971521.0000000000"
*MEAS_COND_AXIS_NAME_MAGICNO-30 "0.0000000000"
*MEAS_COND_AXIS_OFFSET-0 "-"
*MEAS_COND_AXIS_OFFSET-1 "-0.1081000000"
*MEAS_COND_AXIS_OFFSET-2 "0.3758000000"
*MEAS_COND_AXIS_OFFSET-3 "-"
*MEAS_COND_AXIS_OFFSET-4 "-"
*MEAS_COND_AXIS_OFFSET-5 "0.3758000000"
*MEAS_COND_AXIS_OFFSET-6 "-0.4839000000"
*MEAS_COND_AXIS_OFFSET-7 "-"
*MEAS_COND_AXIS_OFFSET-8 "-"
*MEAS_COND_AXIS_OFFSET-9 "-"
*MEAS_COND_AXIS_OFFSET-10 "-"
*MEAS_COND_AXIS_OFFSET-11 "-"
*MEAS_COND_AXIS_OFFSET-12 "-"
*MEAS_COND_AXIS_OFFSET-13 "-"
*MEAS_COND_AXIS_OFFSET-14 "-"
*MEAS_COND_AXIS_OFFSET-15 "-"
*MEAS_COND_AXIS_OFFSET-16 "-"
*MEAS_COND_AXIS_OFFSET-17 "-"
*MEAS_COND_AXIS_OFFSET-18 "-"
*MEAS_COND_AXIS_OFFSET-19 "-"
*MEAS_COND_AXIS_OFFSET-20 "-"
*MEAS_COND_AXIS_OFFSET-21 "-"
*MEAS_COND_AXIS_OFFSET-22 "-"
*MEAS_COND_AXIS_OFFSET-23 "-"
*MEAS_COND_AXIS_OFFSET-24 "-"
*MEAS_COND_AXIS_OFFSET-25 "-"
*MEAS_COND_AXIS_OFFSET-26 "-"
*MEAS_COND_AXIS_OFFSET-27 "-"
*MEAS_COND_AXIS_OFFSET-28 "-"
*MEAS_COND_AXIS_OFFSET-29 "-"
*MEAS_COND_AXIS_OFFSET-30 "-"
*MEAS_COND_AXIS_POSITION-0 "0.0000000000"
*MEAS_COND_AXIS_POSITION-1 "0.0000000000"
*MEAS_COND_AXIS_POSITION-2 "0.0000000000"
*MEAS_COND_AXIS_POSITION-3 "-0.5500000000"
*MEAS_COND_AXIS_POSITION-4 "0.0000000000"
*MEAS_COND_AXIS_POSITION-5 "0.0000000000"
*MEAS_COND_AXIS_POSITION-6 "0.0000000000"
*MEAS_COND_AXIS_POSITION-7 "-0.4278800000"
*MEAS_COND_AXIS_POSITION-8 "BB"
*MEAS_COND_AXIS_POSITION-9 "0.0000000000"
*MEAS_COND_AXIS_POSITION-10 "Soller_slit_5.0deg"
*MEAS_COND_AXIS_POSITION-11 "2/3deg"
*MEAS_COND_AXIS_POSITION-12 "2.2088000000"
*MEAS_COND_AXIS_POSITION-13 "-0.4140600000"
*MEAS_COND_AXIS_POSITION-14 "0.0000000000"
*MEAS_COND_AXIS_POSITION-15 "10.0mm"
*MEAS_COND_AXIS_POSITION-16 "None"
*MEAS_COND_AXIS_POSITION-17 "Cu_K-beta"
*MEAS_COND_AXIS_POSITION-18 "13.000mm"
*MEAS_COND_AXIS_POSITION-19 "13.000mm"
*MEAS_COND_AXIS_POSITION-20 "No_unit"
*MEAS_COND_AXIS_POSITION-21 "Soller_slit_5.0deg"
*MEAS_COND_AXIS_POSITION-22 "None"
*MEAS_COND_AXIS_POSITION-23 "13.0000000000"
*MEAS_COND_AXIS_POSITION-24 "13.0000000000"
*MEAS_COND_AXIS_POSITION-25 "0.0109400000"
*MEAS_COND_AXIS_POSITION-26 "Open"
*MEAS_COND_AXIS_POSITION-27 "None"
*MEAS_COND_AXIS_POSITION-28 "None"
*MEAS_COND_AXIS_POSITION-29 "None"
*MEAS_COND_AXIS_POSITION-30 "38.0000000000"
*MEAS_COND_AXIS_UNIT-0 "deg"
*MEAS_COND_AXIS_UNIT-1 "deg"
*MEAS_COND_AXIS_UNIT-2 "deg"
*MEAS_COND_AXIS_UNIT-3 "mm"
*MEAS_COND_AXIS_UNIT-4 "deg"
*MEAS_COND_AXIS_UNIT-5 "deg"
*MEAS_COND_AXIS_UNIT-6 "deg"
*MEAS_COND_AXIS_UNIT-7 "mm"
*MEAS_COND_AXIS_UNIT-8 ""
*MEAS_COND_AXIS_UNIT-9 "pulse"
*MEAS_COND_AXIS_UNIT-10 ""
*MEAS_COND_AXIS_UNIT-11 ""
*MEAS_COND_AXIS_UNIT-12 "mm"
*MEAS_COND_AXIS_UNIT-13 "mm"
*MEAS_COND_AXIS_UNIT-14 ""
*MEAS_COND_AXIS_UNIT-15 ""
*MEAS_COND_AXIS_UNIT-16 ""
*MEAS_COND_AXIS_UNIT-17 ""
*MEAS_COND_AXIS_UNIT-18 ""
*MEAS_COND_AXIS_UNIT-19 ""
*MEAS_COND_AXIS_UNIT-20 ""
*MEAS_COND_AXIS_UNIT-21 ""
*MEAS_COND_AXIS_UNIT-22 ""
*MEAS_COND_AXIS_UNIT-23 "mm"
*MEAS_COND_AXIS_UNIT-24 "mm"
*MEAS_COND_AXIS_UNIT-25 "mm"
*MEAS_COND_AXIS_UNIT-26 ""
*MEAS_COND_AXIS_UNIT-27 ""
*MEAS_COND_AXIS_UNIT-28 ""
*MEAS_COND_AXIS_UNIT-29 ""
*MEAS_COND_AXIS_UNIT-30 "div"
*MEAS_COND_COUNTER_CNTLOSS_CORR "0.0000000000"
*MEAS_COND_COUNTER_PHABASE "38.0000000000"
*MEAS_COND_COUNTER_PHAWINDOW "16.0000000000"
*MEAS_COND_COUNTER_PHA_UNIT "div"
*MEAS_COND_COUNTER_TAUDIFF "30.0000000000"
*MEAS_COND_COUNTER_TAUINT "0.0000000000"
*MEAS_COND_IRRADIATION_MODE "OFF"
*MEAS_COND_IRRADIATION_WIDTH ""
*MEAS_COND_OPT_ATTR "集中法"
*MEAS_COND_OPT_NAME "@集中法"
*MEAS_COND_UNSYMMETRIC_MODE "OFF"
*MEAS_COND_XG_CURRENT "30.0000000000"
*MEAS_COND_XG_VOLTAGE "40.0000000000"
*MEAS_COND_XG_WAVE_TYPE "Ka"
*MEAS_DATA_COUNT "5001.0000000000"
*MEAS_SCAN_AXIS_X "2θ/θ"
*MEAS_SCAN_AXIS_X_INTERNAL "TwoThetaTheta"
*MEAS_SCAN_END_TIME "07/06/21 16:19:16"
*MEAS_SCAN_MODE "CONTINUOUS"
*MEAS_SCAN_MONITOR "0"
*MEAS_SCAN_RESOLUTION_X "0.0002"
*MEAS_SCAN_SPEED "1.0"
*MEAS_SCAN_SPEED_UNIT "deg/min"
*MEAS_SCAN_START "20.0000000000"
*MEAS_SCAN_START_TIME "07/06/21 15:26:24"
*MEAS_SCAN_STEP "0.0100000000"
*MEAS_SCAN_STOP "70.0000000000"
*MEAS_SCAN_UNIT_X "deg"
*MEAS_SCAN_UNIT_Y "counts"
*RAS_HEADER_END
*RAS_INT_START
20.0000 1709.0000 1.0000
20.0100 1644.0000 1.0000
20.0200 1646.0000 1.0000
20.0300 1695.0000 1.0000
20.0400 1654.0000 1.0000
20.0500 1663.0000 1.0000
20.0600 1656.0000 1.0000
20.0700 1669.0000 1.0000
20.0800 1679.0000 1.0000
20.0900 1677.0000 1.0000
20.1000 1702.0000 1.0000
20.1100 1683.0000 1.0000
20.1200 1602.0000 1.0000
20.1300 1629.0000 1.0000
20.1400 1625.0000 1.0000
20.1500 1672.0000 1.0000
20.1600 1663.0000 1.0000
20.1700 1675.0000 1.0000
20.1800 1649.0000 1.0000
20.1900 1674.0000 1.0000
20.2000 1625.0000 1.0000
20.2100 1656.0000 1.0000
20.2200 1688.0000 1.0000
20.2300 1729.0000 1.0000
20.2400 1652.0000 1.0000
20.2500 1643.0000 1.0000
20.2600 1594.0000 1.0000
20.2700 1735.0000 1.0000
20.2800 1680.0000 1.0000
20.2900 1703.0000 1.0000
20.3000 1652.0000 1.0000
20.3100 1658.0000 1.0000
20.3200 1727.0000 1.0000
20.3300 1616.0000 1.0000
20.3400 1601.0000 1.0000
20.3500 1632.0000 1.0000
20.3600 1686.0000 1.0000
20.3700 1680.0000 1.0000
20.3800 1661.0000 1.0000
20.3900 1683.0000 1.0000
20.4000 1651.0000 1.0000
20.4100 1696.0000 1.0000
20.4200 1769.0000 1.0000
20.4300 1712.0000 1.0000
20.4400 1653.0000 1.0000
20.4500 1699.0000 1.0000
20.4600 1676.0000 1.0000
20.4700 1629.0000 1.0000
20.4800 1634.0000 1.0000
20.4900 1691.0000 1.0000
20.5000 1667.0000 1.0000
20.5100 1673.0000 1.0000
20.5200 1689.0000 1.0000
20.5300 1660.0000 1.0000
20.5400 1636.0000 1.0000
20.5500 1649.0000 1.0000
20.5600 1698.0000 1.0000
20.5700 1593.0000 1.0000
20.5800 1639.0000 1.0000
20.5900 1667.0000 1.0000
20.6000 1673.0000 1.0000
20.6100 1685.0000 1.0000
20.6200 1678.0000 1.0000
20.6300 1661.0000 1.0000
20.6400 1685.0000 1.0000
20.6500 1700.0000 1.0000
20.6600 1693.0000 1.0000
20.6700 1685.0000 1.0000
20.6800 1692.0000 1.0000
20.6900 1675.0000 1.0000
20.7000 1694.0000 1.0000
20.7100 1634.0000 1.0000
20.7200 1685.0000 1.0000
20.7300 1660.0000 1.0000
20.7400 1672.0000 1.0000
20.7500 1583.0000 1.0000
20.7600 1663.0000 1.0000
20.7700 1634.0000 1.0000
20.7800 1662.0000 1.0000
20.7900 1674.0000 1.0000
20.8000 1730.0000 1.0000
20.8100 1689.0000 1.0000
20.8200 1698.0000 1.0000
20.8300 1681.0000 1.0000
20.8400 1646.0000 1.0000
20.8500 1665.0000 1.0000
20.8600 1647.0000 1.0000
20.8700 1620.0000 1.0000
20.8800 1653.0000 1.0000
20.8900 1686.0000 1.0000
20.9000 1683.0000 1.0000
20.9100 1630.0000 1.0000
20.9200 1637.0000 1.0000
20.9300 1615.0000 1.0000
20.9400 1622.0000 1.0000
20.9500 1666.0000 1.0000
20.9600 1660.0000 1.0000
20.9700 1685.0000 1.0000
20.9800 1744.0000 1.0000
20.9900 1684.0000 1.0000
21.0000 1617.0000 1.0000
21.0100 1698.0000 1.0000
21.0200 1700.0000 1.0000
21.0300 1649.0000 1.0000
21.0400 1627.0000 1.0000
21.0500 1638.0000 1.0000
21.0600 1655.0000 1.0000
21.0700 1637.0000 1.0000
21.0800 1708.0000 1.0000
21.0900 1660.0000 1.0000
21.1000 1665.0000 1.0000
21.1100 1650.0000 1.0000
21.1200 1599.0000 1.0000
21.1300 1648.0000 1.0000
21.1400 1751.0000 1.0000
21.1500 1656.0000 1.0000
21.1600 1688.0000 1.0000
21.1700 1655.0000 1.0000
21.1800 1664.0000 1.0000
21.1900 1707.0000 1.0000
21.2000 1717.0000 1.0000
21.2100 1698.0000 1.0000
21.2200 1694.0000 1.0000
21.2300 1711.0000 1.0000
21.2400 1773.0000 1.0000
21.2500 1689.0000 1.0000
21.2600 1626.0000 1.0000
21.2700 1619.0000 1.0000
21.2800 1694.0000 1.0000
21.2900 1662.0000 1.0000
21.3000 1680.0000 1.0000
21.3100 1679.0000 1.0000
21.3200 1669.0000 1.0000
21.3300 1664.0000 1.0000
21.3400 1639.0000 1.0000
21.3500 1631.0000 1.0000
21.3600 1675.0000 1.0000
21.3700 1683.0000 1.0000
21.3800 1678.0000 1.0000
21.3900 1742.0000 1.0000
21.4000 1651.0000 1.0000
21.4100 1687.0000 1.0000
21.4200 1677.0000 1.0000
21.4300 1697.0000 1.0000
21.4400 1661.0000 1.0000
21.4500 1674.0000 1.0000
21.4600 1698.0000 1.0000
21.4700 1661.0000 1.0000
21.4800 1694.0000 1.0000
21.4900 1730.0000 1.0000
21.5000 1646.0000 1.0000
21.5100 1649.0000 1.0000
21.5200 1639.0000 1.0000
21.5300 1613.0000 1.0000
21.5400 1667.0000 1.0000
21.5500 1746.0000 1.0000
21.5600 1681.0000 1.0000
21.5700 1629.0000 1.0000
21.5800 1675.0000 1.0000
21.5900 1647.0000 1.0000
21.6000 1704.0000 1.0000
21.6100 1774.0000 1.0000
21.6200 1685.0000 1.0000
21.6300 1682.0000 1.0000
21.6400 1619.0000 1.0000
21.6500 1681.0000 1.0000
21.6600 1706.0000 1.0000
21.6700 1716.0000 1.0000
21.6800 1658.0000 1.0000
21.6900 1633.0000 1.0000
21.7000 1731.0000 1.0000
21.7100 1661.0000 1.0000
21.7200 1733.0000 1.0000
21.7300 1716.0000 1.0000
21.7400 1673.0000 1.0000
21.7500 1640.0000 1.0000
21.7600 1677.0000 1.0000
21.7700 1666.0000 1.0000
21.7800 1678.0000 1.0000
21.7900 1626.0000 1.0000
21.8000 1667.0000 1.0000
21.8100 1696.0000 1.0000
21.8200 1671.0000 1.0000
21.8300 1610.0000 1.0000
21.8400 1660.0000 1.0000
21.8500 1704.0000 1.0000
21.8600 1743.0000 1.0000
21.8700 1649.0000 1.0000
21.8800 1664.0000 1.0000
21.8900 1672.0000 1.0000
21.9000 1735.0000 1.0000
21.9100 1686.0000 1.0000
21.9200 1679.0000 1.0000
21.9300 1727.0000 1.0000
21.9400 1670.0000 1.0000
21.9500 1718.0000 1.0000
21.9600 1730.0000 1.0000
21.9700 1691.0000 1.0000
21.9800 1743.0000 1.0000
21.9900 1713.0000 1.0000
22.0000 1764.0000 1.0000
22.0100 1647.0000 1.0000
22.0200 1680.0000 1.0000
22.0300 1687.0000 1.0000
22.0400 1699.0000 1.0000
22.0500 1654.0000 1.0000
22.0600 1685.0000 1.0000
22.0700 1632.0000 1.0000
22.0800 1585.0000 1.0000
22.0900 1691.0000 1.0000
22.1000 1735.0000 1.0000
22.1100 1693.0000 1.0000
22.1200 1694.0000 1.0000
22.1300 1673.0000 1.0000
22.1400 1683.0000 1.0000
22.1500 1723.0000 1.0000
22.1600 1678.0000 1.0000
22.1700 1672.0000 1.0000
22.1800 1602.0000 1.0000
22.1900 1633.0000 1.0000
22.2000 1651.0000 1.0000
22.2100 1646.0000 1.0000
22.2200 1600.0000 1.0000
22.2300 1740.0000 1.0000
22.2400 1712.0000 1.0000
22.2500 1725.0000 1.0000
22.2600 1725.0000 1.0000
22.2700 1663.0000 1.0000
22.2800 1686.0000 1.0000
22.2900 1647.0000 1.0000
22.3000 1689.0000 1.0000
22.3100 1660.0000 1.0000
22.3200 1706.0000 1.0000
22.3300 1663.0000 1.0000
22.3400 1673.0000 1.0000
22.3500 1623.0000 1.0000
22.3600 1720.0000 1.0000
22.3700 1706.0000 1.0000
22.3800 1737.0000 1.0000
22.3900 1690.0000 1.0000
22.4000 1658.0000 1.0000
22.4100 1669.0000 1.0000
22.4200 1717.0000 1.0000
22.4300 1611.0000 1.0000
22.4400 1675.0000 1.0000
22.4500 1750.0000 1.0000
22.4600 1748.0000 1.0000
22.4700 1762.0000 1.0000
22.4800 1728.0000 1.0000
22.4900 1693.0000 1.0000
22.5000 1679.0000 1.0000
22.5100 1736.0000 1.0000
22.5200 1671.0000 1.0000
22.5300 1617.0000 1.0000
22.5400 1682.0000 1.0000
22.5500 1652.0000 1.0000
22.5600 1647.0000 1.0000
22.5700 1704.0000 1.0000
22.5800 1742.0000 1.0000
22.5900 1742.0000 1.0000
22.6000 1757.0000 1.0000
22.6100 1715.0000 1.0000
22.6200 1688.0000 1.0000
22.6300 1677.0000 1.0000
22.6400 1663.0000 1.0000
22.6500 1726.0000 1.0000
22.6600 1718.0000 1.0000
22.6700 1713.0000 1.0000
22.6800 1748.0000 1.0000
22.6900 1731.0000 1.0000
22.7000 1702.0000 1.0000
22.7100 1696.0000 1.0000
22.7200 1736.0000 1.0000
22.7300 1669.0000 1.0000
22.7400 1783.0000 1.0000
22.7500 1722.0000 1.0000
22.7600 1682.0000 1.0000
22.7700 1660.0000 1.0000
22.7800 1679.0000 1.0000
22.7900 1659.0000 1.0000
22.8000 1746.0000 1.0000
22.8100 1710.0000 1.0000
22.8200 1768.0000 1.0000
22.8300 1702.0000 1.0000
22.8400 1773.0000 1.0000
22.8500 1699.0000 1.0000
22.8600 1706.0000 1.0000
22.8700 1695.0000 1.0000
22.8800 1705.0000 1.0000
22.8900 1766.0000 1.0000
22.9000 1725.0000 1.0000
22.9100 1726.0000 1.0000
22.9200 1704.0000 1.0000
22.9300 1709.0000 1.0000
22.9400 1748.0000 1.0000
22.9500 1707.0000 1.0000
22.9600 1754.0000 1.0000
22.9700 1642.0000 1.0000
22.9800 1707.0000 1.0000
22.9900 1731.0000 1.0000
23.0000 1713.0000 1.0000
23.0100 1706.0000 1.0000
23.0200 1681.0000 1.0000
23.0300 1680.0000 1.0000
23.0400 1730.0000 1.0000
23.0500 1787.0000 1.0000
23.0600 1732.0000 1.0000
23.0700 1655.0000 1.0000
23.0800 1718.0000 1.0000
23.0900 1744.0000 1.0000
23.1000 1746.0000 1.0000
23.1100 1765.0000 1.0000
23.1200 1730.0000 1.0000
23.1300 1759.0000 1.0000
23.1400 1701.0000 1.0000
23.1500 1710.0000 1.0000
23.1600 1704.0000 1.0000
23.1700 1751.0000 1.0000
23.1800 1678.0000 1.0000
23.1900 1705.0000 1.0000
23.2000 1688.0000 1.0000
23.2100 1750.0000 1.0000
23.2200 1699.0000 1.0000
23.2300 1747.0000 1.0000
23.2400 1730.0000 1.0000
23.2500 1697.0000 1.0000
23.2600 1699.0000 1.0000
23.2700 1662.0000 1.0000
23.2800 1745.0000 1.0000
23.2900 1672.0000 1.0000
23.3000 1715.0000 1.0000
23.3100 1744.0000 1.0000
23.3200 1752.0000 1.0000
23.3300 1669.0000 1.0000
23.3400 1721.0000 1.0000
23.3500 1692.0000 1.0000
23.3600 1730.0000 1.0000
23.3700 1738.0000 1.0000
23.3800 1780.0000 1.0000
23.3900 1717.0000 1.0000
23.4000 1716.0000 1.0000
23.4100 1764.0000 1.0000
23.4200 1709.0000 1.0000
23.4300 1718.0000 1.0000
23.4400 1778.0000 1.0000
23.4500 1727.0000 1.0000
23.4600 1721.0000 1.0000
23.4700 1689.0000 1.0000
23.4800 1695.0000 1.0000
23.4900 1745.0000 1.0000
23.5000 1770.0000 1.0000
23.5100 1747.0000 1.0000
23.5200 1750.0000 1.0000
23.5300 1708.0000 1.0000
23.5400 1681.0000 1.0000
23.5500 1726.0000 1.0000
23.5600 1680.0000 1.0000
23.5700 1738.0000 1.0000
23.5800 1764.0000 1.0000
23.5900 1725.0000 1.0000
23.6000 1681.0000 1.0000
23.6100 1761.0000 1.0000
23.6200 1665.0000 1.0000
23.6300 1737.0000 1.0000
23.6400 1713.0000 1.0000
23.6500 1735.0000 1.0000
23.6600 1752.0000 1.0000
23.6700 1781.0000 1.0000
23.6800 1706.0000 1.0000
23.6900 1686.0000 1.0000
23.7000 1749.0000 1.0000
23.7100 1726.0000 1.0000
23.7200 1815.0000 1.0000
23.7300 1692.0000 1.0000
23.7400 1760.0000 1.0000
23.7500 1716.0000 1.0000
23.7600 1693.0000 1.0000
23.7700 1752.0000 1.0000
23.7800 1724.0000 1.0000
23.7900 1699.0000 1.0000
23.8000 1711.0000 1.0000
23.8100 1763.0000 1.0000
23.8200 1730.0000 1.0000
23.8300 1772.0000 1.0000
23.8400 1662.0000 1.0000
23.8500 1743.0000 1.0000
23.8600 1752.0000 1.0000
23.8700 1815.0000 1.0000
23.8800 1749.0000 1.0000
23.8900 1717.0000 1.0000
23.9000 1723.0000 1.0000
23.9100 1709.0000 1.0000
23.9200 1769.0000 1.0000
23.9300 1760.0000 1.0000
23.9400 1708.0000 1.0000
23.9500 1746.0000 1.0000
23.9600 1709.0000 1.0000
23.9700 1698.0000 1.0000
23.9800 1712.0000 1.0000
23.9900 1721.0000 1.0000
24.0000 1701.0000 1.0000
24.0100 1706.0000 1.0000
24.0200 1668.0000 1.0000
24.0300 1742.0000 1.0000
24.0400 1732.0000 1.0000
24.0500 1770.0000 1.0000
24.0600 1684.0000 1.0000
24.0700 1729.0000 1.0000
24.0800 1747.0000 1.0000
24.0900 1771.0000 1.0000
24.1000 1757.0000 1.0000
24.1100 1789.0000 1.0000
24.1200 1763.0000 1.0000
24.1300 1749.0000 1.0000
24.1400 1737.0000 1.0000
24.1500 1799.0000 1.0000
24.1600 1793.0000 1.0000
24.1700 1735.0000 1.0000
24.1800 1768.0000 1.0000
24.1900 1668.0000 1.0000
24.2000 1782.0000 1.0000
24.2100 1764.0000 1.0000
24.2200 1780.0000 1.0000
24.2300 1737.0000 1.0000
24.2400 1674.0000 1.0000
24.2500 1705.0000 1.0000
24.2600 1787.0000 1.0000
24.2700 1673.0000 1.0000
24.2800 1715.0000 1.0000
24.2900 1724.0000 1.0000
24.3000 1765.0000 1.0000
24.3100 1802.0000 1.0000
24.3200 1675.0000 1.0000
24.3300 1836.0000 1.0000
24.3400 1793.0000 1.0000
24.3500 1709.0000 1.0000
24.3600 1692.0000 1.0000
24.3700 1731.0000 1.0000
24.3800 1802.0000 1.0000
24.3900 1749.0000 1.0000
24.4000 1770.0000 1.0000
24.4100 1802.0000 1.0000
24.4200 1755.0000 1.0000
24.4300 1709.0000 1.0000
24.4400 1695.0000 1.0000
24.4500 1774.0000 1.0000
24.4600 1760.0000 1.0000
24.4700 1708.0000 1.0000
24.4800 1757.0000 1.0000
24.4900 1738.0000 1.0000
24.5000 1837.0000 1.0000
24.5100 1770.0000 1.0000
24.5200 1780.0000 1.0000
24.5300 1727.0000 1.0000
24.5400 1760.0000 1.0000
24.5500 1825.0000 1.0000
24.5600 1737.0000 1.0000
24.5700 1744.0000 1.0000
24.5800 1827.0000 1.0000
24.5900 1839.0000 1.0000
24.6000 1826.0000 1.0000
24.6100 1774.0000 1.0000
24.6200 1777.0000 1.0000
24.6300 1840.0000 1.0000
24.6400 1788.0000 1.0000
24.6500 1726.0000 1.0000
24.6600 1788.0000 1.0000
24.6700 1769.0000 1.0000
24.6800 1790.0000 1.0000
24.6900 1744.0000 1.0000
24.7000 1839.0000 1.0000
24.7100 1790.0000 1.0000
24.7200 1811.0000 1.0000
24.7300 1734.0000 1.0000
24.7400 1788.0000 1.0000
24.7500 1843.0000 1.0000
24.7600 1842.0000 1.0000
24.7700 1852.0000 1.0000
24.7800 1727.0000 1.0000
24.7900 1798.0000 1.0000
24.8000 1762.0000 1.0000
24.8100 1821.0000 1.0000
24.8200 1787.0000 1.0000
24.8300 1856.0000 1.0000
24.8400 1860.0000 1.0000
24.8500 1775.0000 1.0000
24.8600 1751.0000 1.0000
24.8700 1815.0000 1.0000
24.8800 1785.0000 1.0000
24.8900 1766.0000 1.0000
24.9000 1829.0000 1.0000
24.9100 1793.0000 1.0000
24.9200 1916.0000 1.0000
24.9300 1820.0000 1.0000
24.9400 1821.0000 1.0000
24.9500 1766.0000 1.0000
24.9600 1828.0000 1.0000
24.9700 1791.0000 1.0000
24.9800 1825.0000 1.0000
24.9900 1816.0000 1.0000
25.0000 1856.0000 1.0000
25.0100 1774.0000 1.0000
25.0200 1773.0000 1.0000
25.0300 1830.0000 1.0000
25.0400 1779.0000 1.0000
25.0500 1848.0000 1.0000
25.0600 1817.0000 1.0000
25.0700 1835.0000 1.0000
25.0800 1739.0000 1.0000
25.0900 1753.0000 1.0000
25.1000 1835.0000 1.0000
25.1100 1817.0000 1.0000
25.1200 1786.0000 1.0000
25.1300 1796.0000 1.0000
25.1400 1822.0000 1.0000
25.1500 1864.0000 1.0000
25.1600 1841.0000 1.0000
25.1700 1794.0000 1.0000
25.1800 1765.0000 1.0000
25.1900 1767.0000 1.0000
25.2000 1853.0000 1.0000
25.2100 1784.0000 1.0000
25.2200 1845.0000 1.0000
25.2300 1848.0000 1.0000
25.2400 1769.0000 1.0000
25.2500 1827.0000 1.0000
25.2600 1850.0000 1.0000
25.2700 1761.0000 1.0000
25.2800 1814.0000 1.0000
25.2900 1769.0000 1.0000
25.3000 1763.0000 1.0000
25.3100 1752.0000 1.0000
25.3200 1754.0000 1.0000
25.3300 1867.0000 1.0000
25.3400 1818.0000 1.0000
25.3500 1761.0000 1.0000
25.3600 1719.0000 1.0000
25.3700 1752.0000 1.0000
25.3800 1773.0000 1.0000
25.3900 1761.0000 1.0000
25.4000 1837.0000 1.0000
25.4100 1797.0000 1.0000
25.4200 1822.0000 1.0000
25.4300 1787.0000 1.0000
25.4400 1797.0000 1.0000
25.4500 1794.0000 1.0000
25.4600 1741.0000 1.0000
25.4700 1764.0000 1.0000
25.4800 1759.0000 1.0000
25.4900 1667.0000 1.0000
25.5000 1734.0000 1.0000
25.5100 1800.0000 1.0000
25.5200 1747.0000 1.0000
25.5300 1804.0000 1.0000
25.5400 1787.0000 1.0000
25.5500 1769.0000 1.0000
25.5600 1777.0000 1.0000
25.5700 1683.0000 1.0000
25.5800 1770.0000 1.0000
25.5900 1814.0000 1.0000
25.6000 1760.0000 1.0000
25.6100 1780.0000 1.0000
25.6200 1778.0000 1.0000
25.6300 1782.0000 1.0000
25.6400 1721.0000 1.0000
25.6500 1748.0000 1.0000
25.6600 1843.0000 1.0000
25.6700 1796.0000 1.0000
25.6800 1739.0000 1.0000
25.6900 1803.0000 1.0000
25.7000 1689.0000 1.0000
25.7100 1740.0000 1.0000
25.7200 1804.0000 1.0000
25.7300 1776.0000 1.0000
25.7400 1839.0000 1.0000
25.7500 1828.0000 1.0000
25.7600 1852.0000 1.0000
25.7700 1811.0000 1.0000
25.7800 1804.0000 1.0000
25.7900 1803.0000 1.0000
25.8000 1845.0000 1.0000
25.8100 1776.0000 1.0000
25.8200 1782.0000 1.0000
25.8300 1792.0000 1.0000
25.8400 1778.0000 1.0000
25.8500 1761.0000 1.0000
25.8600 1792.0000 1.0000
25.8700 1839.0000 1.0000
25.8800 1788.0000 1.0000
25.8900 1767.0000 1.0000
25.9000 1817.0000 1.0000
25.9100 1822.0000 1.0000
25.9200 1745.0000 1.0000
25.9300 1828.0000 1.0000
25.9400 1794.0000 1.0000
25.9500 1798.0000 1.0000
25.9600 1810.0000 1.0000
25.9700 1844.0000 1.0000
25.9800 1778.0000 1.0000
25.9900 1845.0000 1.0000
26.0000 1781.0000 1.0000
26.0100 1843.0000 1.0000
26.0200 1751.0000 1.0000
26.0300 1768.0000 1.0000
26.0400 1804.0000 1.0000
26.0500 1863.0000 1.0000
26.0600 1833.0000 1.0000
26.0700 1773.0000 1.0000
26.0800 1746.0000 1.0000
26.0900 1842.0000 1.0000
26.1000 1804.0000 1.0000
26.1100 1760.0000 1.0000
26.1200 1773.0000 1.0000
26.1300 1807.0000 1.0000
26.1400 1741.0000 1.0000
26.1500 1789.0000 1.0000
26.1600 1722.0000 1.0000
26.1700 1749.0000 1.0000
26.1800 1773.0000 1.0000
26.1900 1807.0000 1.0000
26.2000 1745.0000 1.0000
26.2100 1796.0000 1.0000
26.2200 1776.0000 1.0000
26.2300 1793.0000 1.0000
26.2400 1771.0000 1.0000
26.2500 1776.0000 1.0000
26.2600 1751.0000 1.0000
26.2700 1779.0000 1.0000
26.2800 1823.0000 1.0000
26.2900 1814.0000 1.0000
26.3000 1807.0000 1.0000
26.3100 1753.0000 1.0000
26.3200 1878.0000 1.0000
26.3300 1793.0000 1.0000
26.3400 1859.0000 1.0000
26.3500 1792.0000 1.0000
26.3600 1826.0000 1.0000
26.3700 1804.0000 1.0000
26.3800 1818.0000 1.0000
26.3900 1843.0000 1.0000
26.4000 1879.0000 1.0000
26.4100 1793.0000 1.0000
26.4200 1826.0000 1.0000
26.4300 1873.0000 1.0000
26.4400 1871.0000 1.0000
26.4500 1812.0000 1.0000
26.4600 1843.0000 1.0000
26.4700 1786.0000 1.0000
26.4800 1819.0000 1.0000
26.4900 1912.0000 1.0000
26.5000 1848.0000 1.0000
26.5100 1912.0000 1.0000
26.5200 1887.0000 1.0000
26.5300 1881.0000 1.0000
26.5400 1906.0000 1.0000
26.5500 1852.0000 1.0000
26.5600 1926.0000 1.0000
26.5700 1970.0000 1.0000
26.5800 1824.0000 1.0000
26.5900 1941.0000 1.0000
26.6000 1858.0000 1.0000
26.6100 1883.0000 1.0000
26.6200 1865.0000 1.0000
26.6300 1871.0000 1.0000
26.6400 1802.0000 1.0000
26.6500 1934.0000 1.0000
26.6600 1907.0000 1.0000
26.6700 1878.0000 1.0000
26.6800 1942.0000 1.0000
26.6900 1932.0000 1.0000
26.7000 1902.0000 1.0000
26.7100 1905.0000 1.0000
26.7200 1906.0000 1.0000
26.7300 1969.0000 1.0000
26.7400 1966.0000 1.0000
26.7500 1914.0000 1.0000
26.7600 1997.0000 1.0000
26.7700 2024.0000 1.0000
26.7800 1959.0000 1.0000
26.7900 2057.0000 1.0000
26.8000 2021.0000 1.0000
26.8100 2015.0000 1.0000
26.8200 2017.0000 1.0000
26.8300 2067.0000 1.0000
26.8400 2130.0000 1.0000
26.8500 2050.0000 1.0000
26.8600 2066.0000 1.0000
26.8700 2065.0000 1.0000
26.8800 2141.0000 1.0000
26.8900 2136.0000 1.0000
26.9000 2173.0000 1.0000
26.9100 2105.0000 1.0000
26.9200 2204.0000 1.0000
26.9300 2172.0000 1.0000
26.9400 2238.0000 1.0000
26.9500 2343.0000 1.0000
26.9600 2351.0000 1.0000
26.9700 2327.0000 1.0000
26.9800 2385.0000 1.0000
26.9900 2449.0000 1.0000
27.0000 2456.0000 1.0000
27.0100 2566.0000 1.0000
27.0200 2496.0000 1.0000
27.0300 2608.0000 1.0000
27.0400 2708.0000 1.0000
27.0500 2697.0000 1.0000
27.0600 2826.0000 1.0000
27.0700 2856.0000 1.0000
27.0800 2954.0000 1.0000
27.0900 2992.0000 1.0000
27.1000 3104.0000 1.0000
27.1100 3302.0000 1.0000
27.1200 3364.0000 1.0000
27.1300 3472.0000 1.0000
27.1400 3685.0000 1.0000
27.1500 3795.0000 1.0000
27.1600 4002.0000 1.0000
27.1700 4147.0000 1.0000
27.1800 4360.0000 1.0000
27.1900 4724.0000 1.0000
27.2000 4827.0000 1.0000
27.2100 5136.0000 1.0000
27.2200 5303.0000 1.0000
27.2300 5623.0000 1.0000
27.2400 5864.0000 1.0000
27.2500 6190.0000 1.0000
27.2600 6463.0000 1.0000
27.2700 6640.0000 1.0000
27.2800 6707.0000 1.0000
27.2900 6688.0000 1.0000
27.3000 6795.0000 1.0000
27.3100 6759.0000 1.0000
27.3200 6644.0000 1.0000
27.3300 6449.0000 1.0000
27.3400 6446.0000 1.0000
27.3500 6185.0000 1.0000
27.3600 5953.0000 1.0000
27.3700 5674.0000 1.0000
27.3800 5326.0000 1.0000
27.3900 5125.0000 1.0000
27.4000 4750.0000 1.0000
27.4100 4553.0000 1.0000
27.4200 4353.0000 1.0000
27.4300 4268.0000 1.0000
27.4400 3921.0000 1.0000
27.4500 3736.0000 1.0000
27.4600 3703.0000 1.0000
27.4700 3508.0000 1.0000
27.4800 3320.0000 1.0000
27.4900 3225.0000 1.0000
27.5000 3145.0000 1.0000
27.5100 2994.0000 1.0000
27.5200 2968.0000 1.0000
27.5300 2768.0000 1.0000
27.5400 2711.0000 1.0000
27.5500 2680.0000 1.0000
27.5600 2695.0000 1.0000
27.5700 2636.0000 1.0000
27.5800 2529.0000 1.0000
27.5900 2463.0000 1.0000
27.6000 2440.0000 1.0000
27.6100 2396.0000 1.0000
27.6200 2397.0000 1.0000
27.6300 2404.0000 1.0000
27.6400 2341.0000 1.0000
27.6500 2267.0000 1.0000
27.6600 2227.0000 1.0000
27.6700 2176.0000 1.0000
27.6800 2054.0000 1.0000
27.6900 2082.0000 1.0000
27.7000 2092.0000 1.0000
27.7100 2170.0000 1.0000
27.7200 2030.0000 1.0000
27.7300 2096.0000 1.0000
27.7400 2084.0000 1.0000
27.7500 1991.0000 1.0000
27.7600 2094.0000 1.0000
27.7700 2063.0000 1.0000
27.7800 2004.0000 1.0000
27.7900 1970.0000 1.0000
27.8000 1955.0000 1.0000
27.8100 1923.0000 1.0000
27.8200 2039.0000 1.0000
27.8300 1927.0000 1.0000
27.8400 1941.0000 1.0000
27.8500 1934.0000 1.0000
27.8600 1970.0000 1.0000
27.8700 1944.0000 1.0000
27.8800 1908.0000 1.0000
27.8900 1939.0000 1.0000
27.9000 1798.0000 1.0000
27.9100 1907.0000 1.0000
27.9200 1853.0000 1.0000
27.9300 1857.0000 1.0000
27.9400 1810.0000 1.0000
27.9500 1826.0000 1.0000
27.9600 1904.0000 1.0000
27.9700 1884.0000 1.0000
27.9800 1888.0000 1.0000
27.9900 1898.0000 1.0000
28.0000 1872.0000 1.0000
28.0100 1871.0000 1.0000
28.0200 1802.0000 1.0000
28.0300 1824.0000 1.0000
28.0400 1815.0000 1.0000
28.0500 1794.0000 1.0000
28.0600 1803.0000 1.0000
28.0700 1859.0000 1.0000
28.0800 1802.0000 1.0000
28.0900 1863.0000 1.0000
28.1000 1849.0000 1.0000
28.1100 1857.0000 1.0000
28.1200 1834.0000 1.0000
28.1300 1769.0000 1.0000
28.1400 1840.0000 1.0000
28.1500 1816.0000 1.0000
28.1600 1828.0000 1.0000
28.1700 1795.0000 1.0000
28.1800 1787.0000 1.0000
28.1900 1775.0000 1.0000
28.2000 1648.0000 1.0000
28.2100 1796.0000 1.0000
28.2200 1776.0000 1.0000
28.2300 1854.0000 1.0000
28.2400 1791.0000 1.0000
28.2500 1816.0000 1.0000
28.2600 1682.0000 1.0000
28.2700 1819.0000 1.0000
28.2800 1773.0000 1.0000
28.2900 1776.0000 1.0000
28.3000 1772.0000 1.0000
28.3100 1784.0000 1.0000
28.3200 1815.0000 1.0000
28.3300 1780.0000 1.0000
28.3400 1781.0000 1.0000
28.3500 1782.0000 1.0000
28.3600 1736.0000 1.0000
28.3700 1727.0000 1.0000
28.3800 1792.0000 1.0000
28.3900 1761.0000 1.0000
28.4000 1659.0000 1.0000
28.4100 1699.0000 1.0000
28.4200 1788.0000 1.0000
28.4300 1743.0000 1.0000
28.4400 1778.0000 1.0000
28.4500 1675.0000 1.0000
28.4600 1703.0000 1.0000
28.4700 1736.0000 1.0000
28.4800 1830.0000 1.0000
28.4900 1758.0000 1.0000
28.5000 1719.0000 1.0000
28.5100 1710.0000 1.0000
28.5200 1700.0000 1.0000
28.5300 1752.0000 1.0000
28.5400 1713.0000 1.0000
28.5500 1744.0000 1.0000
28.5600 1732.0000 1.0000
28.5700 1705.0000 1.0000
28.5800 1728.0000 1.0000
28.5900 1731.0000 1.0000
28.6000 1703.0000 1.0000
28.6100 1720.0000 1.0000
28.6200 1637.0000 1.0000
28.6300 1693.0000 1.0000
28.6400 1710.0000 1.0000
28.6500 1688.0000 1.0000
28.6600 1766.0000 1.0000
28.6700 1677.0000 1.0000
28.6800 1720.0000 1.0000
28.6900 1698.0000 1.0000
28.7000 1644.0000 1.0000
28.7100 1719.0000 1.0000
28.7200 1709.0000 1.0000
28.7300 1717.0000 1.0000
28.7400 1722.0000 1.0000
28.7500 1652.0000 1.0000
28.7600 1662.0000 1.0000
28.7700 1709.0000 1.0000
28.7800 1685.0000 1.0000
28.7900 1684.0000 1.0000
28.8000 1706.0000 1.0000
28.8100 1678.0000 1.0000
28.8200 1643.0000 1.0000
28.8300 1709.0000 1.0000
28.8400 1718.0000 1.0000
28.8500 1678.0000 1.0000
28.8600 1697.0000 1.0000
28.8700 1685.0000 1.0000
28.8800 1644.0000 1.0000
28.8900 1581.0000 1.0000
28.9000 1613.0000 1.0000
28.9100 1631.0000 1.0000
28.9200 1645.0000 1.0000
28.9300 1765.0000 1.0000
28.9400 1664.0000 1.0000
28.9500 1638.0000 1.0000
28.9600 1650.0000 1.0000
28.9700 1617.0000 1.0000
28.9800 1652.0000 1.0000
28.9900 1691.0000 1.0000
29.0000 1707.0000 1.0000
29.0100 1728.0000 1.0000
29.0200 1718.0000 1.0000
29.0300 1641.0000 1.0000
29.0400 1647.0000 1.0000
29.0500 1639.0000 1.0000
29.0600 1637.0000 1.0000
29.0700 1710.0000 1.0000
29.0800 1655.0000 1.0000
29.0900 1689.0000 1.0000
29.1000 1760.0000 1.0000
29.1100 1676.0000 1.0000
29.1200 1784.0000 1.0000
29.1300 1656.0000 1.0000
29.1400 1635.0000 1.0000
29.1500 1669.0000 1.0000
29.1600 1672.0000 1.0000
29.1700 1695.0000 1.0000
29.1800 1679.0000 1.0000
29.1900 1633.0000 1.0000
29.2000 1627.0000 1.0000
29.2100 1667.0000 1.0000
29.2200 1644.0000 1.0000
29.2300 1658.0000 1.0000
29.2400 1679.0000 1.0000
29.2500 1656.0000 1.0000
29.2600 1662.0000 1.0000
29.2700 1632.0000 1.0000
29.2800 1629.0000 1.0000
29.2900 1637.0000 1.0000
29.3000 1668.0000 1.0000
29.3100 1608.0000 1.0000
29.3200 1610.0000 1.0000
29.3300 1610.0000 1.0000
29.3400 1666.0000 1.0000
29.3500 1653.0000 1.0000
29.3600 1682.0000 1.0000
29.3700 1692.0000 1.0000
29.3800 1651.0000 1.0000
29.3900 1627.0000 1.0000
29.4000 1614.0000 1.0000
29.4100 1613.0000 1.0000
29.4200 1639.0000 1.0000
29.4300 1605.0000 1.0000
29.4400 1661.0000 1.0000
29.4500 1628.0000 1.0000
29.4600 1610.0000 1.0000
29.4700 1651.0000 1.0000
29.4800 1619.0000 1.0000
29.4900 1698.0000 1.0000
29.5000 1663.0000 1.0000
29.5100 1654.0000 1.0000
29.5200 1649.0000 1.0000
29.5300 1576.0000 1.0000
29.5400 1576.0000 1.0000
29.5500 1607.0000 1.0000
29.5600 1681.0000 1.0000
29.5700 1631.0000 1.0000
29.5800 1599.0000 1.0000
29.5900 1645.0000 1.0000
29.6000 1626.0000 1.0000
29.6100 1669.0000 1.0000
29.6200 1554.0000 1.0000
29.6300 1588.0000 1.0000
29.6400 1629.0000 1.0000
29.6500 1685.0000 1.0000
29.6600 1666.0000 1.0000
29.6700 1689.0000 1.0000
29.6800 1551.0000 1.0000
29.6900 1538.0000 1.0000
29.7000 1620.0000 1.0000
29.7100 1591.0000 1.0000
29.7200 1598.0000 1.0000
29.7300 1619.0000 1.0000
29.7400 1695.0000 1.0000
29.7500 1629.0000 1.0000
29.7600 1626.0000 1.0000
29.7700 1606.0000 1.0000
29.7800 1599.0000 1.0000
29.7900 1648.0000 1.0000
29.8000 1607.0000 1.0000
29.8100 1630.0000 1.0000
29.8200 1626.0000 1.0000
29.8300 1647.0000 1.0000
29.8400 1609.0000 1.0000
29.8500 1604.0000 1.0000
29.8600 1583.0000 1.0000
29.8700 1550.0000 1.0000
29.8800 1591.0000 1.0000
29.8900 1611.0000 1.0000
29.9000 1604.0000 1.0000
29.9100 1616.0000 1.0000
29.9200 1578.0000 1.0000
29.9300 1576.0000 1.0000
29.9400 1647.0000 1.0000
29.9500 1573.0000 1.0000
29.9600 1641.0000 1.0000
29.9700 1620.0000 1.0000
29.9800 1616.0000 1.0000
29.9900 1590.0000 1.0000
30.0000 1607.0000 1.0000
30.0100 1585.0000 1.0000
30.0200 1597.0000 1.0000
30.0300 1592.0000 1.0000
30.0400 1640.0000 1.0000
30.0500 1614.0000 1.0000
30.0600 1574.0000 1.0000
30.0700 1647.0000 1.0000
30.0800 1619.0000 1.0000
30.0900 1562.0000 1.0000
30.1000 1571.0000 1.0000
30.1100 1661.0000 1.0000
30.1200 1596.0000 1.0000
30.1300 1619.0000 1.0000
30.1400 1621.0000 1.0000
30.1500 1654.0000 1.0000
30.1600 1593.0000 1.0000
30.1700 1604.0000 1.0000
30.1800 1521.0000 1.0000
30.1900 1548.0000 1.0000
30.2000 1611.0000 1.0000
30.2100 1657.0000 1.0000
30.2200 1629.0000 1.0000
30.2300 1661.0000 1.0000
30.2400 1575.0000 1.0000
30.2500 1545.0000 1.0000
30.2600 1621.0000 1.0000
30.2700 1630.0000 1.0000
30.2800 1561.0000 1.0000
30.2900 1571.0000 1.0000
30.3000 1591.0000 1.0000
30.3100 1576.0000 1.0000
30.3200 1589.0000 1.0000
30.3300 1605.0000 1.0000
30.3400 1607.0000 1.0000
30.3500 1582.0000 1.0000
30.3600 1653.0000 1.0000
30.3700 1614.0000 1.0000
30.3800 1636.0000 1.0000
30.3900 1556.0000 1.0000
30.4000 1546.0000 1.0000
30.4100 1610.0000 1.0000
30.4200 1599.0000 1.0000
30.4300 1587.0000 1.0000
30.4400 1581.0000 1.0000
30.4500 1600.0000 1.0000
30.4600 1614.0000 1.0000
30.4700 1562.0000 1.0000
30.4800 1532.0000 1.0000
30.4900 1610.0000 1.0000
30.5000 1546.0000 1.0000
30.5100 1546.0000 1.0000
30.5200 1576.0000 1.0000
30.5300 1574.0000 1.0000
30.5400 1553.0000 1.0000
30.5500 1628.0000 1.0000
30.5600 1518.0000 1.0000
30.5700 1584.0000 1.0000
30.5800 1584.0000 1.0000
30.5900 1503.0000 1.0000
30.6000 1497.0000 1.0000
30.6100 1544.0000 1.0000
30.6200 1598.0000 1.0000
30.6300 1571.0000 1.0000
30.6400 1603.0000 1.0000
30.6500 1607.0000 1.0000
30.6600 1533.0000 1.0000
30.6700 1552.0000 1.0000
30.6800 1585.0000 1.0000
30.6900 1599.0000 1.0000
30.7000 1572.0000 1.0000
30.7100 1514.0000 1.0000
30.7200 1533.0000 1.0000
30.7300 1578.0000 1.0000
30.7400 1570.0000 1.0000
30.7500 1540.0000 1.0000
30.7600 1532.0000 1.0000
30.7700 1589.0000 1.0000
30.7800 1543.0000 1.0000
30.7900 1595.0000 1.0000
30.8000 1615.0000 1.0000
30.8100 1569.0000 1.0000
30.8200 1538.0000 1.0000
30.8300 1561.0000 1.0000
30.8400 1584.0000 1.0000
30.8500 1556.0000 1.0000
30.8600 1492.0000 1.0000
30.8700 1534.0000 1.0000
30.8800 1494.0000 1.0000
30.8900 1476.0000 1.0000
30.9000 1510.0000 1.0000
30.9100 1559.0000 1.0000
30.9200 1551.0000 1.0000
30.9300 1526.0000 1.0000
30.9400 1538.0000 1.0000
30.9500 1574.0000 1.0000
30.9600 1579.0000 1.0000
30.9700 1540.0000 1.0000
30.9800 1564.0000 1.0000
30.9900 1462.0000 1.0000
31.0000 1532.0000 1.0000
31.0100 1549.0000 1.0000
31.0200 1529.0000 1.0000
31.0300 1522.0000 1.0000
31.0400 1461.0000 1.0000
31.0500 1523.0000 1.0000
31.0600 1561.0000 1.0000
31.0700 1507.0000 1.0000
31.0800 1575.0000 1.0000
31.0900 1542.0000 1.0000
31.1000 1567.0000 1.0000
31.1100 1580.0000 1.0000
31.1200 1549.0000 1.0000
31.1300 1581.0000 1.0000
31.1400 1524.0000 1.0000
31.1500 1626.0000 1.0000
31.1600 1538.0000 1.0000
31.1700 1480.0000 1.0000
31.1800 1588.0000 1.0000
31.1900 1536.0000 1.0000
31.2000 1531.0000 1.0000
31.2100 1552.0000 1.0000
31.2200 1554.0000 1.0000
31.2300 1515.0000 1.0000
31.2400 1532.0000 1.0000
31.2500 1476.0000 1.0000
31.2600 1470.0000 1.0000
31.2700 1511.0000 1.0000
31.2800 1496.0000 1.0000
31.2900 1525.0000 1.0000
31.3000 1567.0000 1.0000
31.3100 1467.0000 1.0000
31.3200 1494.0000 1.0000
31.3300 1539.0000 1.0000
31.3400 1529.0000 1.0000
31.3500 1548.0000 1.0000
31.3600 1505.0000 1.0000
31.3700 1485.0000 1.0000
31.3800 1509.0000 1.0000
31.3900 1477.0000 1.0000
31.4000 1514.0000 1.0000
31.4100 1523.0000 1.0000
31.4200 1492.0000 1.0000
31.4300 1533.0000 1.0000
31.4400 1473.0000 1.0000
31.4500 1508.0000 1.0000
31.4600 1469.0000 1.0000
31.4700 1475.0000 1.0000
31.4800 1512.0000 1.0000
31.4900 1522.0000 1.0000
31.5000 1568.0000 1.0000
31.5100 1521.0000 1.0000
31.5200 1494.0000 1.0000
31.5300 1535.0000 1.0000
31.5400 1460.0000 1.0000
31.5500 1452.0000 1.0000
31.5600 1478.0000 1.0000
31.5700 1460.0000 1.0000
31.5800 1488.0000 1.0000
31.5900 1457.0000 1.0000
31.6000 1521.0000 1.0000
31.6100 1534.0000 1.0000
31.6200 1501.0000 1.0000
31.6300 1442.0000 1.0000
31.6400 1509.0000 1.0000
31.6500 1565.0000 1.0000
31.6600 1491.0000 1.0000
31.6700 1484.0000 1.0000
31.6800 1499.0000 1.0000
31.6900 1490.0000 1.0000
31.7000 1524.0000 1.0000
31.7100 1515.0000 1.0000
31.7200 1501.0000 1.0000
31.7300 1490.0000 1.0000
31.7400 1526.0000 1.0000
31.7500 1481.0000 1.0000
31.7600 1517.0000 1.0000
31.7700 1530.0000 1.0000
31.7800 1484.0000 1.0000
31.7900 1487.0000 1.0000
31.8000 1479.0000 1.0000
31.8100 1538.0000 1.0000
31.8200 1488.0000 1.0000
31.8300 1533.0000 1.0000
31.8400 1515.0000 1.0000
31.8500 1528.0000 1.0000
31.8600 1473.0000 1.0000
31.8700 1516.0000 1.0000
31.8800 1523.0000 1.0000
31.8900 1533.0000 1.0000
31.9000 1535.0000 1.0000
31.9100 1530.0000 1.0000
31.9200 1597.0000 1.0000
31.9300 1531.0000 1.0000
31.9400 1526.0000 1.0000
31.9500 1494.0000 1.0000
31.9600 1570.0000 1.0000
31.9700 1558.0000 1.0000
31.9800 1542.0000 1.0000
31.9900 1528.0000 1.0000
32.0000 1502.0000 1.0000
32.0100 1549.0000 1.0000
32.0200 1524.0000 1.0000
32.0300 1465.0000 1.0000
32.0400 1481.0000 1.0000
32.0500 1579.0000 1.0000
32.0600 1548.0000 1.0000
32.0700 1545.0000 1.0000
32.0800 1540.0000 1.0000
32.0900 1513.0000 1.0000
32.1000 1493.0000 1.0000
32.1100 1518.0000 1.0000
32.1200 1522.0000 1.0000
32.1300 1541.0000 1.0000
32.1400 1465.0000 1.0000
32.1500 1521.0000 1.0000
32.1600 1481.0000 1.0000
32.1700 1491.0000 1.0000
32.1800 1492.0000 1.0000
32.1900 1459.0000 1.0000
32.2000 1515.0000 1.0000
32.2100 1422.0000 1.0000
32.2200 1440.0000 1.0000
32.2300 1451.0000 1.0000
32.2400 1496.0000 1.0000
32.2500 1500.0000 1.0000
32.2600 1521.0000 1.0000
32.2700 1481.0000 1.0000
32.2800 1469.0000 1.0000
32.2900 1512.0000 1.0000
32.3000 1522.0000 1.0000
32.3100 1424.0000 1.0000
32.3200 1486.0000 1.0000
32.3300 1477.0000 1.0000
32.3400 1528.0000 1.0000
32.3500 1485.0000 1.0000
32.3600 1521.0000 1.0000
32.3700 1497.0000 1.0000
32.3800 1502.0000 1.0000
32.3900 1520.0000 1.0000
32.4000 1425.0000 1.0000
32.4100 1473.0000 1.0000
32.4200 1509.0000 1.0000
32.4300 1503.0000 1.0000
32.4400 1520.0000 1.0000
32.4500 1457.0000 1.0000
32.4600 1464.0000 1.0000
32.4700 1435.0000 1.0000
32.4800 1444.0000 1.0000
32.4900 1401.0000 1.0000
32.5000 1482.0000 1.0000
32.5100 1448.0000 1.0000
32.5200 1422.0000 1.0000
32.5300 1517.0000 1.0000
32.5400 1490.0000 1.0000
32.5500 1467.0000 1.0000
32.5600 1495.0000 1.0000
32.5700 1456.0000 1.0000
32.5800 1450.0000 1.0000
32.5900 1468.0000 1.0000
32.6000 1431.0000 1.0000
32.6100 1422.0000 1.0000
32.6200 1456.0000 1.0000
32.6300 1494.0000 1.0000
32.6400 1428.0000 1.0000
32.6500 1467.0000 1.0000
32.6600 1450.0000 1.0000
32.6700 1426.0000 1.0000
32.6800 1421.0000 1.0000
32.6900 1428.0000 1.0000
32.7000 1425.0000 1.0000
32.7100 1456.0000 1.0000
32.7200 1447.0000 1.0000
32.7300 1391.0000 1.0000
32.7400 1404.0000 1.0000
32.7500 1369.0000 1.0000
32.7600 1392.0000 1.0000
32.7700 1478.0000 1.0000
32.7800 1451.0000 1.0000
32.7900 1423.0000 1.0000
32.8000 1408.0000 1.0000
32.8100 1429.0000 1.0000
32.8200 1440.0000 1.0000
32.8300 1441.0000 1.0000
32.8400 1419.0000 1.0000
32.8500 1440.0000 1.0000
32.8600 1472.0000 1.0000
32.8700 1393.0000 1.0000
32.8800 1407.0000 1.0000
32.8900 1380.0000 1.0000
32.9000 1418.0000 1.0000
32.9100 1413.0000 1.0000
32.9200 1461.0000 1.0000
32.9300 1438.0000 1.0000
32.9400 1441.0000 1.0000
32.9500 1452.0000 1.0000
32.9600 1455.0000 1.0000
32.9700 1416.0000 1.0000
32.9800 1410.0000 1.0000
32.9900 1422.0000 1.0000
33.0000 1441.0000 1.0000
33.0100 1379.0000 1.0000
33.0200 1417.0000 1.0000
33.0300 1415.0000 1.0000
33.0400 1435.0000 1.0000
33.0500 1417.0000 1.0000
33.0600 1424.0000 1.0000
33.0700 1407.0000 1.0000
33.0800 1433.0000 1.0000
33.0900 1449.0000 1.0000
33.1000 1352.0000 1.0000
33.1100 1383.0000 1.0000
33.1200 1368.0000 1.0000
33.1300 1402.0000 1.0000
33.1400 1461.0000 1.0000
33.1500 1381.0000 1.0000
33.1600 1384.0000 1.0000
33.1700 1346.0000 1.0000
33.1800 1423.0000 1.0000
33.1900 1402.0000 1.0000
33.2000 1464.0000 1.0000
33.2100 1370.0000 1.0000
33.2200 1463.0000 1.0000
33.2300 1385.0000 1.0000
33.2400 1412.0000 1.0000
33.2500 1417.0000 1.0000
33.2600 1340.0000 1.0000
33.2700 1410.0000 1.0000
33.2800 1469.0000 1.0000
33.2900 1403.0000 1.0000
33.3000 1400.0000 1.0000
33.3100 1467.0000 1.0000
33.3200 1439.0000 1.0000
33.3300 1403.0000 1.0000
33.3400 1380.0000 1.0000
33.3500 1376.0000 1.0000
33.3600 1380.0000 1.0000
33.3700 1389.0000 1.0000
33.3800 1408.0000 1.0000
33.3900 1409.0000 1.0000
33.4000 1448.0000 1.0000
33.4100 1445.0000 1.0000
33.4200 1401.0000 1.0000
33.4300 1401.0000 1.0000
33.4400 1432.0000 1.0000
33.4500 1378.0000 1.0000
33.4600 1427.0000 1.0000
33.4700 1443.0000 1.0000
33.4800 1377.0000 1.0000
33.4900 1364.0000 1.0000
33.5000 1394.0000 1.0000
33.5100 1387.0000 1.0000
33.5200 1412.0000 1.0000
33.5300 1402.0000 1.0000
33.5400 1355.0000 1.0000
33.5500 1370.0000 1.0000
33.5600 1421.0000 1.0000
33.5700 1382.0000 1.0000
33.5800 1452.0000 1.0000
33.5900 1446.0000 1.0000
33.6000 1425.0000 1.0000
33.6100 1418.0000 1.0000
33.6200 1436.0000 1.0000
33.6300 1403.0000 1.0000
33.6400 1412.0000 1.0000
33.6500 1460.0000 1.0000
33.6600 1383.0000 1.0000
33.6700 1430.0000 1.0000
33.6800 1395.0000 1.0000
33.6900 1436.0000 1.0000
33.7000 1440.0000 1.0000
33.7100 1404.0000 1.0000
33.7200 1384.0000 1.0000
33.7300 1457.0000 1.0000
33.7400 1396.0000 1.0000
33.7500 1435.0000 1.0000
33.7600 1450.0000 1.0000
33.7700 1519.0000 1.0000
33.7800 1524.0000 1.0000
33.7900 1528.0000 1.0000
33.8000 1475.0000 1.0000
33.8100 1488.0000 1.0000
33.8200 1486.0000 1.0000
33.8300 1509.0000 1.0000
33.8400 1528.0000 1.0000
33.8500 1567.0000 1.0000
33.8600 1570.0000 1.0000
33.8700 1522.0000 1.0000
33.8800 1597.0000 1.0000
33.8900 1560.0000 1.0000
33.9000 1661.0000 1.0000
33.9100 1623.0000 1.0000
33.9200 1699.0000 1.0000
33.9300 1650.0000 1.0000
33.9400 1619.0000 1.0000
33.9500 1671.0000 1.0000
33.9600 1633.0000 1.0000
33.9700 1642.0000 1.0000
33.9800 1668.0000 1.0000
33.9900 1580.0000 1.0000
34.0000 1621.0000 1.0000
34.0100 1644.0000 1.0000
34.0200 1591.0000 1.0000
34.0300 1563.0000 1.0000
34.0400 1568.0000 1.0000
34.0500 1585.0000 1.0000
34.0600 1578.0000 1.0000
34.0700 1553.0000 1.0000
34.0800 1552.0000 1.0000
34.0900 1511.0000 1.0000
34.1000 1530.0000 1.0000
34.1100 1582.0000 1.0000
34.1200 1549.0000 1.0000
34.1300 1561.0000 1.0000
34.1400 1613.0000 1.0000
34.1500 1599.0000 1.0000
34.1600 1545.0000 1.0000
34.1700 1612.0000 1.0000
34.1800 1649.0000 1.0000
34.1900 1589.0000 1.0000
34.2000 1639.0000 1.0000
34.2100 1694.0000 1.0000
34.2200 1670.0000 1.0000
34.2300 1705.0000 1.0000
34.2400 1688.0000 1.0000
34.2500 1728.0000 1.0000
34.2600 1783.0000 1.0000
34.2700 1717.0000 1.0000
34.2800 1789.0000 1.0000
34.2900 1843.0000 1.0000
34.3000 1886.0000 1.0000
34.3100 1891.0000 1.0000
34.3200 1929.0000 1.0000
34.3300 1998.0000 1.0000
34.3400 2104.0000 1.0000
34.3500 2168.0000 1.0000
34.3600 2210.0000 1.0000
34.3700 2225.0000 1.0000
34.3800 2400.0000 1.0000
34.3900 2456.0000 1.0000
34.4000 2500.0000 1.0000
34.4100 2622.0000 1.0000
34.4200 2761.0000 1.0000
34.4300 2809.0000 1.0000
34.4400 2875.0000 1.0000
34.4500 2952.0000 1.0000
34.4600 3072.0000 1.0000
34.4700 3137.0000 1.0000
34.4800 3201.0000 1.0000
34.4900 3098.0000 1.0000
34.5000 3132.0000 1.0000
34.5100 3081.0000 1.0000
34.5200 3162.0000 1.0000
34.5300 3072.0000 1.0000
34.5400 3001.0000 1.0000
34.5500 2963.0000 1.0000
34.5600 2827.0000 1.0000
34.5700 2691.0000 1.0000
34.5800 2655.0000 1.0000
34.5900 2592.0000 1.0000
34.6000 2524.0000 1.0000
34.6100 2389.0000 1.0000
34.6200 2365.0000 1.0000
34.6300 2228.0000 1.0000
34.6400 2235.0000 1.0000
34.6500 2224.0000 1.0000
34.6600 2190.0000 1.0000
34.6700 2044.0000 1.0000
34.6800 2002.0000 1.0000
34.6900 1956.0000 1.0000
34.7000 1949.0000 1.0000
34.7100 1914.0000 1.0000
34.7200 1829.0000 1.0000
34.7300 1794.0000 1.0000
34.7400 1721.0000 1.0000
34.7500 1703.0000 1.0000
34.7600 1788.0000 1.0000
34.7700 1656.0000 1.0000
34.7800 1676.0000 1.0000
34.7900 1557.0000 1.0000
34.8000 1643.0000 1.0000
34.8100 1638.0000 1.0000
34.8200 1583.0000 1.0000
34.8300 1600.0000 1.0000
34.8400 1566.0000 1.0000
34.8500 1523.0000 1.0000
34.8600 1515.0000 1.0000
34.8700 1534.0000 1.0000
34.8800 1510.0000 1.0000
34.8900 1479.0000 1.0000
34.9000 1464.0000 1.0000
34.9100 1415.0000 1.0000
34.9200 1450.0000 1.0000
34.9300 1442.0000 1.0000
34.9400 1459.0000 1.0000
34.9500 1402.0000 1.0000
34.9600 1450.0000 1.0000
34.9700 1392.0000 1.0000
34.9800 1365.0000 1.0000
34.9900 1339.0000 1.0000
35.0000 1390.0000 1.0000
35.0100 1391.0000 1.0000
35.0200 1336.0000 1.0000
35.0300 1368.0000 1.0000
35.0400 1396.0000 1.0000
35.0500 1356.0000 1.0000
35.0600 1310.0000 1.0000
35.0700 1387.0000 1.0000
35.0800 1384.0000 1.0000
35.0900 1372.0000 1.0000
35.1000 1323.0000 1.0000
35.1100 1337.0000 1.0000
35.1200 1396.0000 1.0000
35.1300 1377.0000 1.0000
35.1400 1315.0000 1.0000
35.1500 1307.0000 1.0000
35.1600 1308.0000 1.0000
35.1700 1306.0000 1.0000
35.1800 1291.0000 1.0000
35.1900 1321.0000 1.0000
35.2000 1291.0000 1.0000
35.2100 1350.0000 1.0000
35.2200 1257.0000 1.0000
35.2300 1308.0000 1.0000
35.2400 1329.0000 1.0000
35.2500 1273.0000 1.0000
35.2600 1287.0000 1.0000
35.2700 1298.0000 1.0000
35.2800 1234.0000 1.0000
35.2900 1239.0000 1.0000
35.3000 1247.0000 1.0000
35.3100 1334.0000 1.0000
35.3200 1213.0000 1.0000
35.3300 1248.0000 1.0000
35.3400 1258.0000 1.0000
35.3500 1229.0000 1.0000
35.3600 1261.0000 1.0000
35.3700 1287.0000 1.0000
35.3800 1304.0000 1.0000
35.3900 1206.0000 1.0000
35.4000 1269.0000 1.0000
35.4100 1228.0000 1.0000
35.4200 1284.0000 1.0000
35.4300 1227.0000 1.0000
35.4400 1241.0000 1.0000
35.4500 1226.0000 1.0000
35.4600 1229.0000 1.0000
35.4700 1251.0000 1.0000
35.4800 1253.0000 1.0000
35.4900 1248.0000 1.0000
35.5000 1235.0000 1.0000
35.5100 1264.0000 1.0000
35.5200 1291.0000 1.0000
35.5300 1243.0000 1.0000
35.5400 1256.0000 1.0000
35.5500 1242.0000 1.0000
35.5600 1260.0000 1.0000
35.5700 1204.0000 1.0000
35.5800 1194.0000 1.0000
35.5900 1269.0000 1.0000
35.6000 1294.0000 1.0000
35.6100 1222.0000 1.0000
35.6200 1213.0000 1.0000
35.6300 1246.0000 1.0000
35.6400 1247.0000 1.0000
35.6500 1229.0000 1.0000
35.6600 1229.0000 1.0000
35.6700 1221.0000 1.0000
35.6800 1252.0000 1.0000
35.6900 1213.0000 1.0000
35.7000 1218.0000 1.0000
35.7100 1233.0000 1.0000
35.7200 1268.0000 1.0000
35.7300 1207.0000 1.0000
35.7400 1222.0000 1.0000
35.7500 1225.0000 1.0000
35.7600 1233.0000 1.0000
35.7700 1225.0000 1.0000
35.7800 1251.0000 1.0000
35.7900 1214.0000 1.0000
35.8000 1212.0000 1.0000
35.8100 1207.0000 1.0000
35.8200 1231.0000 1.0000
35.8300 1200.0000 1.0000
35.8400 1207.0000 1.0000
35.8500 1238.0000 1.0000
35.8600 1179.0000 1.0000
35.8700 1136.0000 1.0000
35.8800 1198.0000 1.0000
35.8900 1212.0000 1.0000
35.9000 1182.0000 1.0000
35.9100 1214.0000 1.0000
35.9200 1190.0000 1.0000
35.9300 1194.0000 1.0000
35.9400 1254.0000 1.0000
35.9500 1183.0000 1.0000
35.9600 1249.0000 1.0000
35.9700 1237.0000 1.0000
35.9800 1239.0000 1.0000
35.9900 1150.0000 1.0000
36.0000 1124.0000 1.0000
36.0100 1167.0000 1.0000
36.0200 1244.0000 1.0000
36.0300 1212.0000 1.0000
36.0400 1168.0000 1.0000
36.0500 1243.0000 1.0000
36.0600 1260.0000 1.0000
36.0700 1241.0000 1.0000
36.0800 1208.0000 1.0000
36.0900 1224.0000 1.0000
36.1000 1234.0000 1.0000
36.1100 1237.0000 1.0000
36.1200 1225.0000 1.0000
36.1300 1277.0000 1.0000
36.1400 1272.0000 1.0000
36.1500 1259.0000 1.0000
36.1600 1307.0000 1.0000
36.1700 1294.0000 1.0000
36.1800 1338.0000 1.0000
36.1900 1286.0000 1.0000
36.2000 1386.0000 1.0000
36.2100 1390.0000 1.0000
36.2200 1435.0000 1.0000
36.2300 1455.0000 1.0000
36.2400 1459.0000 1.0000
36.2500 1430.0000 1.0000
36.2600 1575.0000 1.0000
36.2700 1535.0000 1.0000
36.2800 1595.0000 1.0000
36.2900 1620.0000 1.0000
36.3000 1655.0000 1.0000
36.3100 1762.0000 1.0000
36.3200 1934.0000 1.0000
36.3300 1996.0000 1.0000
36.3400 2170.0000 1.0000
36.3500 2246.0000 1.0000
36.3600 2351.0000 1.0000
36.3700 2356.0000 1.0000
36.3800 2527.0000 1.0000
36.3900 2584.0000 1.0000
36.4000 2572.0000 1.0000
36.4100 2545.0000 1.0000
36.4200 2546.0000 1.0000
36.4300 2438.0000 1.0000
36.4400 2424.0000 1.0000
36.4500 2344.0000 1.0000
36.4600 2248.0000 1.0000
36.4700 2180.0000 1.0000
36.4800 2175.0000 1.0000
36.4900 2115.0000 1.0000
36.5000 1946.0000 1.0000
36.5100 1876.0000 1.0000
36.5200 1840.0000 1.0000
36.5300 1764.0000 1.0000
36.5400 1709.0000 1.0000
36.5500 1654.0000 1.0000
36.5600 1498.0000 1.0000
36.5700 1451.0000 1.0000
36.5800 1487.0000 1.0000
36.5900 1408.0000 1.0000
36.6000 1351.0000 1.0000
36.6100 1337.0000 1.0000
36.6200 1320.0000 1.0000
36.6300 1240.0000 1.0000
36.6400 1240.0000 1.0000
36.6500 1212.0000 1.0000
36.6600 1223.0000 1.0000
36.6700 1236.0000 1.0000
36.6800 1209.0000 1.0000
36.6900 1196.0000 1.0000
36.7000 1211.0000 1.0000
36.7100 1199.0000 1.0000
36.7200 1147.0000 1.0000
36.7300 1124.0000 1.0000
36.7400 1135.0000 1.0000
36.7500 1169.0000 1.0000
36.7600 1135.0000 1.0000
36.7700 1159.0000 1.0000
36.7800 1128.0000 1.0000
36.7900 1152.0000 1.0000
36.8000 1190.0000 1.0000
36.8100 1134.0000 1.0000
36.8200 1127.0000 1.0000
36.8300 1111.0000 1.0000
36.8400 1155.0000 1.0000
36.8500 1115.0000 1.0000
36.8600 1071.0000 1.0000
36.8700 1110.0000 1.0000
36.8800 1128.0000 1.0000
36.8900 1126.0000 1.0000
36.9000 1206.0000 1.0000
36.9100 1096.0000 1.0000
36.9200 1102.0000 1.0000
36.9300 1181.0000 1.0000
36.9400 1152.0000 1.0000
36.9500 1170.0000 1.0000
36.9600 1111.0000 1.0000
36.9700 1096.0000 1.0000
36.9800 1131.0000 1.0000
36.9900 1099.0000 1.0000
37.0000 1151.0000 1.0000
37.0100 1093.0000 1.0000
37.0200 1154.0000 1.0000
37.0300 1113.0000 1.0000
37.0400 1103.0000 1.0000
37.0500 1144.0000 1.0000
37.0600 1100.0000 1.0000
37.0700 1154.0000 1.0000
37.0800 1157.0000 1.0000
37.0900 1166.0000 1.0000
37.1000 1156.0000 1.0000
37.1100 1169.0000 1.0000
37.1200 1105.0000 1.0000
37.1300 1136.0000 1.0000
37.1400 1126.0000 1.0000
37.1500 1060.0000 1.0000
37.1600 1125.0000 1.0000
37.1700 1102.0000 1.0000
37.1800 1078.0000 1.0000
37.1900 1135.0000 1.0000
37.2000 1146.0000 1.0000
37.2100 1146.0000 1.0000
37.2200 1140.0000 1.0000
37.2300 1123.0000 1.0000
37.2400 1137.0000 1.0000
37.2500 1111.0000 1.0000
37.2600 1131.0000 1.0000
37.2700 1124.0000 1.0000
37.2800 1112.0000 1.0000
37.2900 1135.0000 1.0000
37.3000 1120.0000 1.0000
37.3100 1127.0000 1.0000
37.3200 1132.0000 1.0000
37.3300 1151.0000 1.0000
37.3400 1116.0000 1.0000
37.3500 1112.0000 1.0000
37.3600 1108.0000 1.0000
37.3700 1167.0000 1.0000
37.3800 1130.0000 1.0000
37.3900 1128.0000 1.0000
37.4000 1140.0000 1.0000
37.4100 1128.0000 1.0000
37.4200 1117.0000 1.0000
37.4300 1075.0000 1.0000
37.4400 1105.0000 1.0000
37.4500 1182.0000 1.0000
37.4600 1114.0000 1.0000
37.4700 1140.0000 1.0000
37.4800 1170.0000 1.0000
37.4900 1148.0000 1.0000
37.5000 1106.0000 1.0000
37.5100 1077.0000 1.0000
37.5200 1143.0000 1.0000
37.5300 1113.0000 1.0000
37.5400 1165.0000 1.0000
37.5500 1114.0000 1.0000
37.5600 1099.0000 1.0000
37.5700 1135.0000 1.0000
37.5800 1125.0000 1.0000
37.5900 1126.0000 1.0000
37.6000 1142.0000 1.0000
37.6100 1177.0000 1.0000
37.6200 1165.0000 1.0000
37.6300 1091.0000 1.0000
37.6400 1154.0000 1.0000
37.6500 1157.0000 1.0000
37.6600 1135.0000 1.0000
37.6700 1126.0000 1.0000
37.6800 1116.0000 1.0000
37.6900 1066.0000 1.0000
37.7000 1133.0000 1.0000
37.7100 1124.0000 1.0000
37.7200 1168.0000 1.0000
37.7300 1154.0000 1.0000
37.7400 1106.0000 1.0000
37.7500 1067.0000 1.0000
37.7600 1132.0000 1.0000
37.7700 1117.0000 1.0000
37.7800 1182.0000 1.0000
37.7900 1105.0000 1.0000
37.8000 1195.0000 1.0000
37.8100 1134.0000 1.0000
37.8200 1116.0000 1.0000
37.8300 1118.0000 1.0000
37.8400 1149.0000 1.0000
37.8500 1145.0000 1.0000
37.8600 1191.0000 1.0000
37.8700 1165.0000 1.0000
37.8800 1215.0000 1.0000
37.8900 1147.0000 1.0000
37.9000 1175.0000 1.0000
37.9100 1159.0000 1.0000
37.9200 1139.0000 1.0000
37.9300 1151.0000 1.0000
37.9400 1214.0000 1.0000
37.9500 1205.0000 1.0000
37.9600 1190.0000 1.0000
37.9700 1205.0000 1.0000
37.9800 1230.0000 1.0000
37.9900 1131.0000 1.0000
38.0000 1167.0000 1.0000
38.0100 1188.0000 1.0000
38.0200 1264.0000 1.0000
38.0300 1237.0000 1.0000
38.0400 1270.0000 1.0000
38.0500 1232.0000 1.0000
38.0600 1250.0000 1.0000
38.0700 1268.0000 1.0000
38.0800 1270.0000 1.0000
38.0900 1262.0000 1.0000
38.1000 1292.0000 1.0000
38.1100 1334.0000 1.0000
38.1200 1281.0000 1.0000
38.1300 1292.0000 1.0000
38.1400 1337.0000 1.0000
38.1500 1406.0000 1.0000
38.1600 1392.0000 1.0000
38.1700 1507.0000 1.0000
38.1800 1497.0000 1.0000
38.1900 1503.0000 1.0000
38.2000 1525.0000 1.0000
38.2100 1578.0000 1.0000
38.2200 1602.0000 1.0000
38.2300 1708.0000 1.0000
38.2400 1739.0000 1.0000
38.2500 1771.0000 1.0000
38.2600 1880.0000 1.0000
38.2700 1924.0000 1.0000
38.2800 1996.0000 1.0000
38.2900 2125.0000 1.0000
38.3000 2077.0000 1.0000
38.3100 2239.0000 1.0000
38.3200 2349.0000 1.0000
38.3300 2395.0000 1.0000
38.3400 2703.0000 1.0000
38.3500 2787.0000 1.0000
38.3600 2950.0000 1.0000
38.3700 3087.0000 1.0000
38.3800 3308.0000 1.0000
38.3900 3522.0000 1.0000
38.4000 3733.0000 1.0000
38.4100 4062.0000 1.0000
38.4200 4328.0000 1.0000
38.4300 4631.0000 1.0000
38.4400 5032.0000 1.0000
38.4500 5370.0000 1.0000
38.4600 5728.0000 1.0000
38.4700 6014.0000 1.0000
38.4800 6452.0000 1.0000
38.4900 6689.0000 1.0000
38.5000 6860.0000 1.0000
38.5100 7419.0000 1.0000
38.5200 7525.0000 1.0000
38.5300 7621.0000 1.0000
38.5400 7774.0000 1.0000
38.5500 7870.0000 1.0000
38.5600 7915.0000 1.0000
38.5700 7757.0000 1.0000
38.5800 7504.0000 1.0000
38.5900 7405.0000 1.0000
38.6000 7250.0000 1.0000
38.6100 6886.0000 1.0000
38.6200 6721.0000 1.0000
38.6300 6439.0000 1.0000
38.6400 6139.0000 1.0000
38.6500 5798.0000 1.0000
38.6600 5551.0000 1.0000
38.6700 5122.0000 1.0000
38.6800 4760.0000 1.0000
38.6900 4537.0000 1.0000
38.7000 4175.0000 1.0000
38.7100 4066.0000 1.0000
38.7200 3655.0000 1.0000
38.7300 3480.0000 1.0000
38.7400 3241.0000 1.0000
38.7500 2992.0000 1.0000
38.7600 2833.0000 1.0000
38.7700 2737.0000 1.0000
38.7800 2479.0000 1.0000
38.7900 2298.0000 1.0000
38.8000 2184.0000 1.0000
38.8100 2089.0000 1.0000
38.8200 2043.0000 1.0000
38.8300 1910.0000 1.0000
38.8400 1811.0000 1.0000
38.8500 1762.0000 1.0000
38.8600 1732.0000 1.0000
38.8700 1674.0000 1.0000
38.8800 1557.0000 1.0000
38.8900 1644.0000 1.0000
38.9000 1549.0000 1.0000
38.9100 1478.0000 1.0000
38.9200 1351.0000 1.0000
38.9300 1400.0000 1.0000
38.9400 1385.0000 1.0000
38.9500 1396.0000 1.0000
38.9600 1336.0000 1.0000
38.9700 1317.0000 1.0000
38.9800 1292.0000 1.0000
38.9900 1229.0000 1.0000
39.0000 1244.0000 1.0000
39.0100 1284.0000 1.0000
39.0200 1233.0000 1.0000
39.0300 1222.0000 1.0000
39.0400 1155.0000 1.0000
39.0500 1162.0000 1.0000
39.0600 1158.0000 1.0000
39.0700 1191.0000 1.0000
39.0800 1161.0000 1.0000
39.0900 1082.0000 1.0000
39.1000 1135.0000 1.0000
39.1100 1192.0000 1.0000
39.1200 1135.0000 1.0000
39.1300 1130.0000 1.0000
39.1400 1097.0000 1.0000
39.1500 1053.0000 1.0000
39.1600 1073.0000 1.0000
39.1700 1056.0000 1.0000
39.1800 1021.0000 1.0000
39.1900 1057.0000 1.0000
39.2000 1058.0000 1.0000
39.2100 1066.0000 1.0000
39.2200 1081.0000 1.0000
39.2300 993.0000 1.0000
39.2400 1006.0000 1.0000
39.2500 1052.0000 1.0000
39.2600 1021.0000 1.0000
39.2700 1076.0000 1.0000
39.2800 1051.0000 1.0000
39.2900 1026.0000 1.0000
39.3000 1094.0000 1.0000
39.3100 1083.0000 1.0000
39.3200 1078.0000 1.0000
39.3300 1060.0000 1.0000
39.3400 1111.0000 1.0000
39.3500 973.0000 1.0000
39.3600 1042.0000 1.0000
39.3700 1052.0000 1.0000
39.3800 1008.0000 1.0000
39.3900 1019.0000 1.0000
39.4000 1033.0000 1.0000
39.4100 1017.0000 1.0000
39.4200 1085.0000 1.0000
39.4300 1070.0000 1.0000
39.4400 997.0000 1.0000
39.4500 1055.0000 1.0000
39.4600 1083.0000 1.0000
39.4700 1026.0000 1.0000
39.4800 1077.0000 1.0000
39.4900 1040.0000 1.0000
39.5000 1056.0000 1.0000
39.5100 1078.0000 1.0000
39.5200 1093.0000 1.0000
39.5300 1129.0000 1.0000
39.5400 1043.0000 1.0000
39.5500 1062.0000 1.0000
39.5600 1038.0000 1.0000
39.5700 1064.0000 1.0000
39.5800 1091.0000 1.0000
39.5900 1021.0000 1.0000
39.6000 1045.0000 1.0000
39.6100 1087.0000 1.0000
39.6200 1061.0000 1.0000
39.6300 1047.0000 1.0000
39.6400 1088.0000 1.0000
39.6500 1028.0000 1.0000
39.6600 1015.0000 1.0000
39.6700 1016.0000 1.0000
39.6800 1039.0000 1.0000
39.6900 1028.0000 1.0000
39.7000 1025.0000 1.0000
39.7100 1001.0000 1.0000
39.7200 1002.0000 1.0000
39.7300 1054.0000 1.0000
39.7400 1014.0000 1.0000
39.7500 1014.0000 1.0000
39.7600 1001.0000 1.0000
39.7700 997.0000 1.0000
39.7800 968.0000 1.0000
39.7900 1024.0000 1.0000
39.8000 1027.0000 1.0000
39.8100 1013.0000 1.0000
39.8200 1006.0000 1.0000
39.8300 1002.0000 1.0000
39.8400 985.0000 1.0000
39.8500 979.0000 1.0000
39.8600 1005.0000 1.0000
39.8700 1004.0000 1.0000
39.8800 1007.0000 1.0000
39.8900 1013.0000 1.0000
39.9000 957.0000 1.0000
39.9100 971.0000 1.0000
39.9200 987.0000 1.0000
39.9300 947.0000 1.0000
39.9400 994.0000 1.0000
39.9500 973.0000 1.0000
39.9600 954.0000 1.0000
39.9700 936.0000 1.0000
39.9800 1009.0000 1.0000
39.9900 949.0000 1.0000
40.0000 921.0000 1.0000
40.0100 1042.0000 1.0000
40.0200 989.0000 1.0000
40.0300 983.0000 1.0000
40.0400 920.0000 1.0000
40.0500 985.0000 1.0000
40.0600 984.0000 1.0000
40.0700 966.0000 1.0000
40.0800 948.0000 1.0000
40.0900 994.0000 1.0000
40.1000 917.0000 1.0000
40.1100 943.0000 1.0000
40.1200 908.0000 1.0000
40.1300 947.0000 1.0000
40.1400 930.0000 1.0000
40.1500 979.0000 1.0000
40.1600 984.0000 1.0000
40.1700 949.0000 1.0000
40.1800 964.0000 1.0000
40.1900 924.0000 1.0000
40.2000 976.0000 1.0000
40.2100 933.0000 1.0000
40.2200 940.0000 1.0000
40.2300 922.0000 1.0000
40.2400 953.0000 1.0000
40.2500 962.0000 1.0000
40.2600 935.0000 1.0000
40.2700 972.0000 1.0000
40.2800 976.0000 1.0000
40.2900 944.0000 1.0000
40.3000 979.0000 1.0000
40.3100 927.0000 1.0000
40.3200 940.0000 1.0000
40.3300 918.0000 1.0000
40.3400 954.0000 1.0000
40.3500 978.0000 1.0000
40.3600 935.0000 1.0000
40.3700 937.0000 1.0000
40.3800 924.0000 1.0000
40.3900 919.0000 1.0000
40.4000 930.0000 1.0000
40.4100 924.0000 1.0000
40.4200 935.0000 1.0000
40.4300 942.0000 1.0000
40.4400 914.0000 1.0000
40.4500 915.0000 1.0000
40.4600 970.0000 1.0000
40.4700 923.0000 1.0000
40.4800 914.0000 1.0000
40.4900 895.0000 1.0000
40.5000 960.0000 1.0000
40.5100 940.0000 1.0000
40.5200 969.0000 1.0000
40.5300 910.0000 1.0000
40.5400 907.0000 1.0000
40.5500 959.0000 1.0000
40.5600 932.0000 1.0000
40.5700 963.0000 1.0000
40.5800 956.0000 1.0000
40.5900 888.0000 1.0000
40.6000 953.0000 1.0000
40.6100 930.0000 1.0000
40.6200 898.0000 1.0000
40.6300 945.0000 1.0000
40.6400 948.0000 1.0000
40.6500 894.0000 1.0000
40.6600 920.0000 1.0000
40.6700 895.0000 1.0000
40.6800 965.0000 1.0000
40.6900 929.0000 1.0000
40.7000 920.0000 1.0000
40.7100 910.0000 1.0000
40.7200 919.0000 1.0000
40.7300 927.0000 1.0000
40.7400 920.0000 1.0000
40.7500 957.0000 1.0000
40.7600 918.0000 1.0000
40.7700 907.0000 1.0000
40.7800 938.0000 1.0000
40.7900 905.0000 1.0000
40.8000 926.0000 1.0000
40.8100 863.0000 1.0000
40.8200 956.0000 1.0000
40.8300 893.0000 1.0000
40.8400 897.0000 1.0000
40.8500 938.0000 1.0000
40.8600 910.0000 1.0000
40.8700 905.0000 1.0000
40.8800 909.0000 1.0000
40.8900 949.0000 1.0000
40.9000 934.0000 1.0000
40.9100 983.0000 1.0000
40.9200 904.0000 1.0000
40.9300 928.0000 1.0000
40.9400 945.0000 1.0000
40.9500 903.0000 1.0000
40.9600 917.0000 1.0000
40.9700 954.0000 1.0000
40.9800 903.0000 1.0000
40.9900 898.0000 1.0000
41.0000 943.0000 1.0000
41.0100 934.0000 1.0000
41.0200 949.0000 1.0000
41.0300 876.0000 1.0000
41.0400 929.0000 1.0000
41.0500 927.0000 1.0000
41.0600 896.0000 1.0000
41.0700 935.0000 1.0000
41.0800 885.0000 1.0000
41.0900 930.0000 1.0000
41.1000 904.0000 1.0000
41.1100 912.0000 1.0000
41.1200 892.0000 1.0000
41.1300 914.0000 1.0000
41.1400 938.0000 1.0000
41.1500 937.0000 1.0000
41.1600 910.0000 1.0000
41.1700 913.0000 1.0000
41.1800 926.0000 1.0000
41.1900 894.0000 1.0000
41.2000 894.0000 1.0000
41.2100 928.0000 1.0000
41.2200 951.0000 1.0000
41.2300 902.0000 1.0000
41.2400 924.0000 1.0000
41.2500 924.0000 1.0000
41.2600 892.0000 1.0000
41.2700 902.0000 1.0000
41.2800 953.0000 1.0000
41.2900 906.0000 1.0000
41.3000 894.0000 1.0000
41.3100 912.0000 1.0000
41.3200 909.0000 1.0000
41.3300 872.0000 1.0000
41.3400 951.0000 1.0000
41.3500 911.0000 1.0000
41.3600 900.0000 1.0000
41.3700 929.0000 1.0000
41.3800 954.0000 1.0000
41.3900 941.0000 1.0000
41.4000 853.0000 1.0000
41.4100 872.0000 1.0000
41.4200 878.0000 1.0000
41.4300 899.0000 1.0000
41.4400 900.0000 1.0000
41.4500 909.0000 1.0000
41.4600 885.0000 1.0000
41.4700 901.0000 1.0000
41.4800 934.0000 1.0000
41.4900 926.0000 1.0000
41.5000 910.0000 1.0000
41.5100 949.0000 1.0000
41.5200 910.0000 1.0000
41.5300 944.0000 1.0000
41.5400 896.0000 1.0000
41.5500 890.0000 1.0000
41.5600 883.0000 1.0000
41.5700 911.0000 1.0000
41.5800 918.0000 1.0000
41.5900 967.0000 1.0000
41.6000 912.0000 1.0000
41.6100 960.0000 1.0000
41.6200 943.0000 1.0000
41.6300 928.0000 1.0000
41.6400 959.0000 1.0000
41.6500 933.0000 1.0000
41.6600 949.0000 1.0000
41.6700 985.0000 1.0000
41.6800 1009.0000 1.0000
41.6900 949.0000 1.0000
41.7000 964.0000 1.0000
41.7100 938.0000 1.0000
41.7200 936.0000 1.0000
41.7300 921.0000 1.0000
41.7400 913.0000 1.0000
41.7500 852.0000 1.0000
41.7600 905.0000 1.0000
41.7700 919.0000 1.0000
41.7800 955.0000 1.0000
41.7900 965.0000 1.0000
41.8000 874.0000 1.0000
41.8100 911.0000 1.0000
41.8200 871.0000 1.0000
41.8300 905.0000 1.0000
41.8400 879.0000 1.0000
41.8500 910.0000 1.0000
41.8600 928.0000 1.0000
41.8700 872.0000 1.0000
41.8800 911.0000 1.0000
41.8900 947.0000 1.0000
41.9000 904.0000 1.0000
41.9100 890.0000 1.0000
41.9200 890.0000 1.0000
41.9300 920.0000 1.0000
41.9400 953.0000 1.0000
41.9500 876.0000 1.0000
41.9600 893.0000 1.0000
41.9700 962.0000 1.0000
41.9800 891.0000 1.0000
41.9900 888.0000 1.0000
42.0000 947.0000 1.0000
42.0100 923.0000 1.0000
42.0200 955.0000 1.0000
42.0300 936.0000 1.0000
42.0400 947.0000 1.0000
42.0500 881.0000 1.0000
42.0600 894.0000 1.0000
42.0700 877.0000 1.0000
42.0800 912.0000 1.0000
42.0900 873.0000 1.0000
42.1000 885.0000 1.0000
42.1100 914.0000 1.0000
42.1200 898.0000 1.0000
42.1300 903.0000 1.0000
42.1400 911.0000 1.0000
42.1500 924.0000 1.0000
42.1600 967.0000 1.0000
42.1700 885.0000 1.0000
42.1800 895.0000 1.0000
42.1900 928.0000 1.0000
42.2000 888.0000 1.0000
42.2100 906.0000 1.0000
42.2200 969.0000 1.0000
42.2300 875.0000 1.0000
42.2400 883.0000 1.0000
42.2500 914.0000 1.0000
42.2600 944.0000 1.0000
42.2700 882.0000 1.0000
42.2800 875.0000 1.0000
42.2900 902.0000 1.0000
42.3000 975.0000 1.0000
42.3100 921.0000 1.0000
42.3200 855.0000 1.0000
42.3300 885.0000 1.0000
42.3400 879.0000 1.0000
42.3500 914.0000 1.0000
42.3600 899.0000 1.0000
42.3700 880.0000 1.0000
42.3800 928.0000 1.0000
42.3900 884.0000 1.0000
42.4000 901.0000 1.0000
42.4100 888.0000 1.0000
42.4200 858.0000 1.0000
42.4300 898.0000 1.0000
42.4400 896.0000 1.0000
42.4500 856.0000 1.0000
42.4600 866.0000 1.0000
42.4700 904.0000 1.0000
42.4800 909.0000 1.0000
42.4900 928.0000 1.0000
42.5000 939.0000 1.0000
42.5100 920.0000 1.0000
42.5200 870.0000 1.0000
42.5300 923.0000 1.0000
42.5400 832.0000 1.0000
42.5500 847.0000 1.0000
42.5600 831.0000 1.0000
42.5700 911.0000 1.0000
42.5800 905.0000 1.0000
42.5900 910.0000 1.0000
42.6000 871.0000 1.0000
42.6100 887.0000 1.0000
42.6200 923.0000 1.0000
42.6300 912.0000 1.0000
42.6400 923.0000 1.0000
42.6500 915.0000 1.0000
42.6600 905.0000 1.0000
42.6700 862.0000 1.0000
42.6800 916.0000 1.0000
42.6900 934.0000 1.0000
42.7000 899.0000 1.0000
42.7100 913.0000 1.0000
42.7200 924.0000 1.0000
42.7300 876.0000 1.0000
42.7400 856.0000 1.0000
42.7500 903.0000 1.0000
42.7600 947.0000 1.0000
42.7700 905.0000 1.0000
42.7800 906.0000 1.0000
42.7900 880.0000 1.0000
42.8000 904.0000 1.0000
42.8100 890.0000 1.0000
42.8200 935.0000 1.0000
42.8300 892.0000 1.0000
42.8400 887.0000 1.0000
42.8500 895.0000 1.0000
42.8600 887.0000 1.0000
42.8700 875.0000 1.0000
42.8800 899.0000 1.0000
42.8900 899.0000 1.0000
42.9000 951.0000 1.0000
42.9100 920.0000 1.0000
42.9200 942.0000 1.0000
42.9300 923.0000 1.0000
42.9400 893.0000 1.0000
42.9500 866.0000 1.0000
42.9600 838.0000 1.0000
42.9700 952.0000 1.0000
42.9800 937.0000 1.0000
42.9900 889.0000 1.0000
43.0000 910.0000 1.0000
43.0100 894.0000 1.0000
43.0200 857.0000 1.0000
43.0300 911.0000 1.0000
43.0400 911.0000 1.0000
43.0500 902.0000 1.0000
43.0600 947.0000 1.0000
43.0700 929.0000 1.0000
43.0800 905.0000 1.0000
43.0900 935.0000 1.0000
43.1000 928.0000 1.0000
43.1100 934.0000 1.0000
43.1200 905.0000 1.0000
43.1300 934.0000 1.0000
43.1400 965.0000 1.0000
43.1500 979.0000 1.0000
43.1600 985.0000 1.0000
43.1700 999.0000 1.0000
43.1800 956.0000 1.0000
43.1900 988.0000 1.0000
43.2000 934.0000 1.0000
43.2100 977.0000 1.0000
43.2200 1045.0000 1.0000
43.2300 1042.0000 1.0000
43.2400 1016.0000 1.0000
43.2500 1035.0000 1.0000
43.2600 975.0000 1.0000
43.2700 1008.0000 1.0000
43.2800 989.0000 1.0000
43.2900 1020.0000 1.0000
43.3000 993.0000 1.0000
43.3100 983.0000 1.0000
43.3200 974.0000 1.0000
43.3300 966.0000 1.0000
43.3400 969.0000 1.0000
43.3500 954.0000 1.0000
43.3600 931.0000 1.0000
43.3700 1001.0000 1.0000
43.3800 921.0000 1.0000
43.3900 958.0000 1.0000
43.4000 934.0000 1.0000
43.4100 953.0000 1.0000
43.4200 904.0000 1.0000
43.4300 1009.0000 1.0000
43.4400 923.0000 1.0000
43.4500 907.0000 1.0000
43.4600 900.0000 1.0000
43.4700 934.0000 1.0000
43.4800 954.0000 1.0000
43.4900 941.0000 1.0000
43.5000 884.0000 1.0000
43.5100 873.0000 1.0000
43.5200 936.0000 1.0000
43.5300 927.0000 1.0000
43.5400 929.0000 1.0000
43.5500 875.0000 1.0000
43.5600 881.0000 1.0000
43.5700 941.0000 1.0000
43.5800 892.0000 1.0000
43.5900 884.0000 1.0000
43.6000 901.0000 1.0000
43.6100 870.0000 1.0000
43.6200 853.0000 1.0000
43.6300 938.0000 1.0000
43.6400 871.0000 1.0000
43.6500 863.0000 1.0000
43.6600 897.0000 1.0000
43.6700 905.0000 1.0000
43.6800 903.0000 1.0000
43.6900 853.0000 1.0000
43.7000 842.0000 1.0000
43.7100 894.0000 1.0000
43.7200 864.0000 1.0000
43.7300 935.0000 1.0000
43.7400 903.0000 1.0000
43.7500 886.0000 1.0000
43.7600 876.0000 1.0000
43.7700 893.0000 1.0000
43.7800 917.0000 1.0000
43.7900 912.0000 1.0000
43.8000 916.0000 1.0000
43.8100 886.0000 1.0000
43.8200 905.0000 1.0000
43.8300 893.0000 1.0000
43.8400 858.0000 1.0000
43.8500 909.0000 1.0000
43.8600 868.0000 1.0000
43.8700 841.0000 1.0000
43.8800 871.0000 1.0000
43.8900 854.0000 1.0000
43.9000 842.0000 1.0000
43.9100 856.0000 1.0000
43.9200 869.0000 1.0000
43.9300 904.0000 1.0000
43.9400 890.0000 1.0000
43.9500 873.0000 1.0000
43.9600 816.0000 1.0000
43.9700 887.0000 1.0000
43.9800 862.0000 1.0000
43.9900 896.0000 1.0000
44.0000 869.0000 1.0000
44.0100 888.0000 1.0000
44.0200 867.0000 1.0000
44.0300 860.0000 1.0000
44.0400 899.0000 1.0000
44.0500 877.0000 1.0000
44.0600 885.0000 1.0000
44.0700 877.0000 1.0000
44.0800 878.0000 1.0000
44.0900 883.0000 1.0000
44.1000 849.0000 1.0000
44.1100 874.0000 1.0000
44.1200 861.0000 1.0000
44.1300 862.0000 1.0000
44.1400 893.0000 1.0000
44.1500 901.0000 1.0000
44.1600 849.0000 1.0000
44.1700 869.0000 1.0000
44.1800 855.0000 1.0000
44.1900 868.0000 1.0000
44.2000 832.0000 1.0000
44.2100 900.0000 1.0000
44.2200 879.0000 1.0000
44.2300 861.0000 1.0000
44.2400 885.0000 1.0000
44.2500 852.0000 1.0000
44.2600 876.0000 1.0000
44.2700 876.0000 1.0000
44.2800 902.0000 1.0000
44.2900 880.0000 1.0000
44.3000 870.0000 1.0000
44.3100 879.0000 1.0000
44.3200 881.0000 1.0000
44.3300 886.0000 1.0000
44.3400 828.0000 1.0000
44.3500 902.0000 1.0000
44.3600 869.0000 1.0000
44.3700 882.0000 1.0000
44.3800 869.0000 1.0000
44.3900 859.0000 1.0000
44.4000 903.0000 1.0000
44.4100 837.0000 1.0000
44.4200 890.0000 1.0000
44.4300 849.0000 1.0000
44.4400 825.0000 1.0000
44.4500 882.0000 1.0000
44.4600 899.0000 1.0000
44.4700 871.0000 1.0000
44.4800 847.0000 1.0000
44.4900 890.0000 1.0000
44.5000 834.0000 1.0000
44.5100 858.0000 1.0000
44.5200 842.0000 1.0000
44.5300 877.0000 1.0000
44.5400 877.0000 1.0000
44.5500 885.0000 1.0000
44.5600 895.0000 1.0000
44.5700 896.0000 1.0000
44.5800 881.0000 1.0000
44.5900 853.0000 1.0000
44.6000 848.0000 1.0000
44.6100 864.0000 1.0000
44.6200 900.0000 1.0000
44.6300 864.0000 1.0000
44.6400 834.0000 1.0000
44.6500 862.0000 1.0000
44.6600 851.0000 1.0000
44.6700 885.0000 1.0000
44.6800 880.0000 1.0000
44.6900 857.0000 1.0000
44.7000 829.0000 1.0000
44.7100 828.0000 1.0000
44.7200 845.0000 1.0000
44.7300 864.0000 1.0000
44.7400 859.0000 1.0000
44.7500 862.0000 1.0000
44.7600 879.0000 1.0000
44.7700 825.0000 1.0000
44.7800 866.0000 1.0000
44.7900 897.0000 1.0000
44.8000 903.0000 1.0000
44.8100 926.0000 1.0000
44.8200 867.0000 1.0000
44.8300 880.0000 1.0000
44.8400 820.0000 1.0000
44.8500 816.0000 1.0000
44.8600 871.0000 1.0000
44.8700 895.0000 1.0000
44.8800 900.0000 1.0000
44.8900 849.0000 1.0000
44.9000 851.0000 1.0000
44.9100 843.0000 1.0000
44.9200 841.0000 1.0000
44.9300 814.0000 1.0000
44.9400 837.0000 1.0000
44.9500 858.0000 1.0000
44.9600 834.0000 1.0000
44.9700 837.0000 1.0000
44.9800 861.0000 1.0000
44.9900 855.0000 1.0000
45.0000 906.0000 1.0000
45.0100 805.0000 1.0000
45.0200 874.0000 1.0000
45.0300 848.0000 1.0000
45.0400 868.0000 1.0000
45.0500 839.0000 1.0000
45.0600 830.0000 1.0000
45.0700 836.0000 1.0000
45.0800 820.0000 1.0000
45.0900 876.0000 1.0000
45.1000 824.0000 1.0000
45.1100 790.0000 1.0000
45.1200 852.0000 1.0000
45.1300 886.0000 1.0000
45.1400 849.0000 1.0000
45.1500 812.0000 1.0000
45.1600 806.0000 1.0000
45.1700 770.0000 1.0000
45.1800 865.0000 1.0000
45.1900 880.0000 1.0000
45.2000 832.0000 1.0000
45.2100 853.0000 1.0000
45.2200 826.0000 1.0000
45.2300 826.0000 1.0000
45.2400 841.0000 1.0000
45.2500 841.0000 1.0000
45.2600 884.0000 1.0000
45.2700 883.0000 1.0000
45.2800 909.0000 1.0000
45.2900 876.0000 1.0000
45.3000 819.0000 1.0000
45.3100 868.0000 1.0000
45.3200 893.0000 1.0000
45.3300 870.0000 1.0000
45.3400 821.0000 1.0000
45.3500 802.0000 1.0000
45.3600 835.0000 1.0000
45.3700 867.0000 1.0000
45.3800 830.0000 1.0000
45.3900 848.0000 1.0000
45.4000 832.0000 1.0000
45.4100 836.0000 1.0000
45.4200 807.0000 1.0000
45.4300 813.0000 1.0000
45.4400 833.0000 1.0000
45.4500 831.0000 1.0000
45.4600 849.0000 1.0000
45.4700 837.0000 1.0000
45.4800 824.0000 1.0000
45.4900 845.0000 1.0000
45.5000 881.0000 1.0000
45.5100 855.0000 1.0000
45.5200 853.0000 1.0000
45.5300 808.0000 1.0000
45.5400 829.0000 1.0000
45.5500 854.0000 1.0000
45.5600 882.0000 1.0000
45.5700 841.0000 1.0000
45.5800 845.0000 1.0000
45.5900 864.0000 1.0000
45.6000 834.0000 1.0000
45.6100 834.0000 1.0000
45.6200 830.0000 1.0000
45.6300 845.0000 1.0000
45.6400 862.0000 1.0000
45.6500 854.0000 1.0000
45.6600 825.0000 1.0000
45.6700 835.0000 1.0000
45.6800 831.0000 1.0000
45.6900 807.0000 1.0000
45.7000 803.0000 1.0000
45.7100 822.0000 1.0000
45.7200 918.0000 1.0000
45.7300 876.0000 1.0000
45.7400 857.0000 1.0000
45.7500 809.0000 1.0000
45.7600 855.0000 1.0000
45.7700 850.0000 1.0000
45.7800 853.0000 1.0000
45.7900 802.0000 1.0000
45.8000 812.0000 1.0000
45.8100 796.0000 1.0000
45.8200 834.0000 1.0000
45.8300 786.0000 1.0000
45.8400 811.0000 1.0000
45.8500 872.0000 1.0000
45.8600 847.0000 1.0000
45.8700 844.0000 1.0000
45.8800 819.0000 1.0000
45.8900 792.0000 1.0000
45.9000 843.0000 1.0000
45.9100 809.0000 1.0000
45.9200 789.0000 1.0000
45.9300 790.0000 1.0000
45.9400 839.0000 1.0000
45.9500 862.0000 1.0000
45.9600 807.0000 1.0000
45.9700 825.0000 1.0000
45.9800 827.0000 1.0000
45.9900 795.0000 1.0000
46.0000 863.0000 1.0000
46.0100 842.0000 1.0000
46.0200 857.0000 1.0000
46.0300 867.0000 1.0000
46.0400 790.0000 1.0000
46.0500 847.0000 1.0000
46.0600 769.0000 1.0000
46.0700 792.0000 1.0000
46.0800 804.0000 1.0000
46.0900 818.0000 1.0000
46.1000 856.0000 1.0000
46.1100 858.0000 1.0000
46.1200 857.0000 1.0000
46.1300 808.0000 1.0000
46.1400 835.0000 1.0000
46.1500 848.0000 1.0000
46.1600 833.0000 1.0000
46.1700 798.0000 1.0000
46.1800 772.0000 1.0000
46.1900 804.0000 1.0000
46.2000 833.0000 1.0000
46.2100 839.0000 1.0000
46.2200 806.0000 1.0000
46.2300 861.0000 1.0000
46.2400 865.0000 1.0000
46.2500 802.0000 1.0000
46.2600 795.0000 1.0000
46.2700 790.0000 1.0000
46.2800 806.0000 1.0000
46.2900 837.0000 1.0000
46.3000 797.0000 1.0000
46.3100 842.0000 1.0000
46.3200 898.0000 1.0000
46.3300 820.0000 1.0000
46.3400 805.0000 1.0000
46.3500 807.0000 1.0000
46.3600 809.0000 1.0000
46.3700 821.0000 1.0000
46.3800 822.0000 1.0000
46.3900 823.0000 1.0000
46.4000 782.0000 1.0000
46.4100 799.0000 1.0000
46.4200 801.0000 1.0000
46.4300 815.0000 1.0000
46.4400 793.0000 1.0000
46.4500 861.0000 1.0000
46.4600 814.0000 1.0000
46.4700 796.0000 1.0000
46.4800 836.0000 1.0000
46.4900 822.0000 1.0000
46.5000 791.0000 1.0000
46.5100 803.0000 1.0000
46.5200 790.0000 1.0000
46.5300 819.0000 1.0000
46.5400 831.0000 1.0000
46.5500 803.0000 1.0000
46.5600 845.0000 1.0000
46.5700 805.0000 1.0000
46.5800 827.0000 1.0000
46.5900 813.0000 1.0000
46.6000 804.0000 1.0000
46.6100 836.0000 1.0000
46.6200 766.0000 1.0000
46.6300 848.0000 1.0000
46.6400 791.0000 1.0000
46.6500 809.0000 1.0000
46.6600 868.0000 1.0000
46.6700 794.0000 1.0000
46.6800 828.0000 1.0000
46.6900 797.0000 1.0000
46.7000 871.0000 1.0000
46.7100 818.0000 1.0000
46.7200 786.0000 1.0000
46.7300 800.0000 1.0000
46.7400 819.0000 1.0000
46.7500 833.0000 1.0000
46.7600 869.0000 1.0000
46.7700 837.0000 1.0000
46.7800 846.0000 1.0000
46.7900 841.0000 1.0000
46.8000 806.0000 1.0000
46.8100 805.0000 1.0000
46.8200 838.0000 1.0000
46.8300 826.0000 1.0000
46.8400 816.0000 1.0000
46.8500 839.0000 1.0000
46.8600 804.0000 1.0000
46.8700 818.0000 1.0000
46.8800 815.0000 1.0000
46.8900 843.0000 1.0000
46.9000 838.0000 1.0000
46.9100 824.0000 1.0000
46.9200 843.0000 1.0000
46.9300 833.0000 1.0000
46.9400 771.0000 1.0000
46.9500 839.0000 1.0000
46.9600 876.0000 1.0000
46.9700 807.0000 1.0000
46.9800 875.0000 1.0000
46.9900 854.0000 1.0000
47.0000 894.0000 1.0000
47.0100 870.0000 1.0000
47.0200 856.0000 1.0000
47.0300 817.0000 1.0000
47.0400 829.0000 1.0000
47.0500 828.0000 1.0000
47.0600 817.0000 1.0000
47.0700 811.0000 1.0000
47.0800 842.0000 1.0000
47.0900 811.0000 1.0000
47.1000 820.0000 1.0000
47.1100 833.0000 1.0000
47.1200 849.0000 1.0000
47.1300 827.0000 1.0000
47.1400 818.0000 1.0000
47.1500 808.0000 1.0000
47.1600 806.0000 1.0000
47.1700 840.0000 1.0000
47.1800 845.0000 1.0000
47.1900 824.0000 1.0000
47.2000 762.0000 1.0000
47.2100 795.0000 1.0000
47.2200 812.0000 1.0000
47.2300 828.0000 1.0000
47.2400 788.0000 1.0000
47.2500 818.0000 1.0000
47.2600 783.0000 1.0000
47.2700 823.0000 1.0000
47.2800 809.0000 1.0000
47.2900 805.0000 1.0000
47.3000 765.0000 1.0000
47.3100 776.0000 1.0000
47.3200 767.0000 1.0000
47.3300 828.0000 1.0000
47.3400 825.0000 1.0000
47.3500 801.0000 1.0000
47.3600 795.0000 1.0000
47.3700 830.0000 1.0000
47.3800 815.0000 1.0000
47.3900 770.0000 1.0000
47.4000 842.0000 1.0000
47.4100 838.0000 1.0000
47.4200 793.0000 1.0000
47.4300 806.0000 1.0000
47.4400 811.0000 1.0000
47.4500 760.0000 1.0000
47.4600 782.0000 1.0000
47.4700 779.0000 1.0000
47.4800 792.0000 1.0000
47.4900 812.0000 1.0000
47.5000 811.0000 1.0000
47.5100 816.0000 1.0000
47.5200 789.0000 1.0000
47.5300 824.0000 1.0000
47.5400 775.0000 1.0000
47.5500 775.0000 1.0000
47.5600 808.0000 1.0000
47.5700 798.0000 1.0000
47.5800 796.0000 1.0000
47.5900 792.0000 1.0000
47.6000 799.0000 1.0000
47.6100 780.0000 1.0000
47.6200 787.0000 1.0000
47.6300 821.0000 1.0000
47.6400 801.0000 1.0000
47.6500 805.0000 1.0000
47.6600 810.0000 1.0000
47.6700 795.0000 1.0000
47.6800 809.0000 1.0000
47.6900 824.0000 1.0000
47.7000 831.0000 1.0000
47.7100 790.0000 1.0000
47.7200 769.0000 1.0000
47.7300 758.0000 1.0000
47.7400 807.0000 1.0000
47.7500 835.0000 1.0000
47.7600 800.0000 1.0000
47.7700 794.0000 1.0000
47.7800 772.0000 1.0000
47.7900 808.0000 1.0000
47.8000 833.0000 1.0000
47.8100 872.0000 1.0000
47.8200 812.0000 1.0000
47.8300 752.0000 1.0000
47.8400 783.0000 1.0000
47.8500 838.0000 1.0000
47.8600 825.0000 1.0000
47.8700 795.0000 1.0000
47.8800 804.0000 1.0000
47.8900 787.0000 1.0000
47.9000 772.0000 1.0000
47.9100 774.0000 1.0000
47.9200 783.0000 1.0000
47.9300 800.0000 1.0000
47.9400 822.0000 1.0000
47.9500 805.0000 1.0000
47.9600 825.0000 1.0000
47.9700 767.0000 1.0000
47.9800 808.0000 1.0000
47.9900 787.0000 1.0000
48.0000 778.0000 1.0000
48.0100 752.0000 1.0000
48.0200 779.0000 1.0000
48.0300 813.0000 1.0000
48.0400 778.0000 1.0000
48.0500 763.0000 1.0000
48.0600 771.0000 1.0000
48.0700 783.0000 1.0000
48.0800 796.0000 1.0000
48.0900 771.0000 1.0000
48.1000 795.0000 1.0000
48.1100 765.0000 1.0000
48.1200 801.0000 1.0000
48.1300 776.0000 1.0000
48.1400 764.0000 1.0000
48.1500 772.0000 1.0000
48.1600 741.0000 1.0000
48.1700 831.0000 1.0000
48.1800 772.0000 1.0000
48.1900 793.0000 1.0000
48.2000 759.0000 1.0000
48.2100 746.0000 1.0000
48.2200 766.0000 1.0000
48.2300 802.0000 1.0000
48.2400 794.0000 1.0000
48.2500 789.0000 1.0000
48.2600 797.0000 1.0000
48.2700 817.0000 1.0000
48.2800 790.0000 1.0000
48.2900 753.0000 1.0000
48.3000 744.0000 1.0000
48.3100 750.0000 1.0000
48.3200 827.0000 1.0000
48.3300 804.0000 1.0000
48.3400 779.0000 1.0000
48.3500 731.0000 1.0000
48.3600 797.0000 1.0000
48.3700 792.0000 1.0000
48.3800 789.0000 1.0000
48.3900 780.0000 1.0000
48.4000 786.0000 1.0000
48.4100 798.0000 1.0000
48.4200 769.0000 1.0000
48.4300 731.0000 1.0000
48.4400 821.0000 1.0000
48.4500 769.0000 1.0000
48.4600 771.0000 1.0000
48.4700 728.0000 1.0000
48.4800 779.0000 1.0000
48.4900 799.0000 1.0000
48.5000 811.0000 1.0000
48.5100 753.0000 1.0000
48.5200 753.0000 1.0000
48.5300 754.0000 1.0000
48.5400 758.0000 1.0000
48.5500 746.0000 1.0000
48.5600 765.0000 1.0000
48.5700 771.0000 1.0000
48.5800 754.0000 1.0000
48.5900 772.0000 1.0000
48.6000 769.0000 1.0000
48.6100 782.0000 1.0000
48.6200 768.0000 1.0000
48.6300 765.0000 1.0000
48.6400 773.0000 1.0000
48.6500 737.0000 1.0000
48.6600 733.0000 1.0000
48.6700 746.0000 1.0000
48.6800 751.0000 1.0000
48.6900 771.0000 1.0000
48.7000 764.0000 1.0000
48.7100 789.0000 1.0000
48.7200 776.0000 1.0000
48.7300 779.0000 1.0000
48.7400 785.0000 1.0000
48.7500 788.0000 1.0000
48.7600 788.0000 1.0000
48.7700 747.0000 1.0000
48.7800 772.0000 1.0000
48.7900 777.0000 1.0000
48.8000 816.0000 1.0000
48.8100 773.0000 1.0000
48.8200 716.0000 1.0000
48.8300 810.0000 1.0000
48.8400 767.0000 1.0000
48.8500 722.0000 1.0000
48.8600 779.0000 1.0000
48.8700 766.0000 1.0000
48.8800 796.0000 1.0000
48.8900 811.0000 1.0000
48.9000 788.0000 1.0000
48.9100 790.0000 1.0000
48.9200 754.0000 1.0000
48.9300 801.0000 1.0000
48.9400 751.0000 1.0000
48.9500 730.0000 1.0000
48.9600 745.0000 1.0000
48.9700 802.0000 1.0000
48.9800 735.0000 1.0000
48.9900 786.0000 1.0000
49.0000 746.0000 1.0000
49.0100 750.0000 1.0000
49.0200 766.0000 1.0000
49.0300 775.0000 1.0000
49.0400 761.0000 1.0000
49.0500 727.0000 1.0000
49.0600 767.0000 1.0000
49.0700 771.0000 1.0000
49.0800 735.0000 1.0000
49.0900 735.0000 1.0000
49.1000 772.0000 1.0000
49.1100 730.0000 1.0000
49.1200 736.0000 1.0000
49.1300 745.0000 1.0000
49.1400 735.0000 1.0000
49.1500 772.0000 1.0000
49.1600 778.0000 1.0000
49.1700 767.0000 1.0000
49.1800 753.0000 1.0000
49.1900 764.0000 1.0000
49.2000 751.0000 1.0000
49.2100 774.0000 1.0000
49.2200 784.0000 1.0000
49.2300 735.0000 1.0000
49.2400 782.0000 1.0000
49.2500 748.0000 1.0000
49.2600 754.0000 1.0000
49.2700 766.0000 1.0000
49.2800 737.0000 1.0000
49.2900 759.0000 1.0000
49.3000 726.0000 1.0000
49.3100 803.0000 1.0000
49.3200 757.0000 1.0000
49.3300 782.0000 1.0000
49.3400 741.0000 1.0000
49.3500 776.0000 1.0000
49.3600 774.0000 1.0000
49.3700 786.0000 1.0000
49.3800 776.0000 1.0000
49.3900 817.0000 1.0000
49.4000 729.0000 1.0000
49.4100 743.0000 1.0000
49.4200 784.0000 1.0000
49.4300 736.0000 1.0000
49.4400 775.0000 1.0000
49.4500 805.0000 1.0000
49.4600 716.0000 1.0000
49.4700 754.0000 1.0000
49.4800 799.0000 1.0000
49.4900 777.0000 1.0000
49.5000 784.0000 1.0000
49.5100 781.0000 1.0000
49.5200 757.0000 1.0000
49.5300 717.0000 1.0000
49.5400 800.0000 1.0000
49.5500 767.0000 1.0000
49.5600 726.0000 1.0000
49.5700 763.0000 1.0000
49.5800 773.0000 1.0000
49.5900 752.0000 1.0000
49.6000 748.0000 1.0000
49.6100 732.0000 1.0000
49.6200 746.0000 1.0000
49.6300 736.0000 1.0000
49.6400 730.0000 1.0000
49.6500 764.0000 1.0000
49.6600 794.0000 1.0000
49.6700 757.0000 1.0000
49.6800 768.0000 1.0000
49.6900 777.0000 1.0000
49.7000 783.0000 1.0000
49.7100 798.0000 1.0000
49.7200 735.0000 1.0000
49.7300 742.0000 1.0000
49.7400 773.0000 1.0000
49.7500 721.0000 1.0000
49.7600 718.0000 1.0000
49.7700 724.0000 1.0000
49.7800 706.0000 1.0000
49.7900 690.0000 1.0000
49.8000 757.0000 1.0000
49.8100 775.0000 1.0000
49.8200 793.0000 1.0000
49.8300 759.0000 1.0000
49.8400 742.0000 1.0000
49.8500 749.0000 1.0000
49.8600 792.0000 1.0000
49.8700 767.0000 1.0000
49.8800 784.0000 1.0000
49.8900 742.0000 1.0000
49.9000 762.0000 1.0000
49.9100 728.0000 1.0000
49.9200 752.0000 1.0000
49.9300 735.0000 1.0000
49.9400 749.0000 1.0000
49.9500 766.0000 1.0000
49.9600 747.0000 1.0000
49.9700 797.0000 1.0000
49.9800 771.0000 1.0000
49.9900 750.0000 1.0000
50.0000 768.0000 1.0000
50.0100 785.0000 1.0000
50.0200 744.0000 1.0000
50.0300 764.0000 1.0000
50.0400 768.0000 1.0000
50.0500 777.0000 1.0000
50.0600 748.0000 1.0000
50.0700 760.0000 1.0000
50.0800 812.0000 1.0000
50.0900 804.0000 1.0000
50.1000 759.0000 1.0000
50.1100 785.0000 1.0000
50.1200 773.0000 1.0000
50.1300 804.0000 1.0000
50.1400 756.0000 1.0000
50.1500 833.0000 1.0000
50.1600 777.0000 1.0000
50.1700 785.0000 1.0000
50.1800 794.0000 1.0000
50.1900 806.0000 1.0000
50.2000 816.0000 1.0000
50.2100 830.0000 1.0000
50.2200 800.0000 1.0000
50.2300 782.0000 1.0000
50.2400 747.0000 1.0000
50.2500 773.0000 1.0000
50.2600 728.0000 1.0000
50.2700 768.0000 1.0000
50.2800 785.0000 1.0000
50.2900 775.0000 1.0000
50.3000 786.0000 1.0000
50.3100 749.0000 1.0000
50.3200 772.0000 1.0000
50.3300 790.0000 1.0000
50.3400 800.0000 1.0000
50.3500 754.0000 1.0000
50.3600 795.0000 1.0000
50.3700 774.0000 1.0000
50.3800 792.0000 1.0000
50.3900 777.0000 1.0000
50.4000 782.0000 1.0000
50.4100 758.0000 1.0000
50.4200 794.0000 1.0000
50.4300 794.0000 1.0000
50.4400 785.0000 1.0000
50.4500 785.0000 1.0000
50.4600 790.0000 1.0000
50.4700 787.0000 1.0000
50.4800 793.0000 1.0000
50.4900 777.0000 1.0000
50.5000 794.0000 1.0000
50.5100 796.0000 1.0000
50.5200 759.0000 1.0000
50.5300 763.0000 1.0000
50.5400 787.0000 1.0000
50.5500 771.0000 1.0000
50.5600 766.0000 1.0000
50.5700 793.0000 1.0000
50.5800 778.0000 1.0000
50.5900 779.0000 1.0000
50.6000 790.0000 1.0000
50.6100 838.0000 1.0000
50.6200 759.0000 1.0000
50.6300 774.0000 1.0000
50.6400 777.0000 1.0000
50.6500 763.0000 1.0000
50.6600 734.0000 1.0000
50.6700 744.0000 1.0000
50.6800 765.0000 1.0000
50.6900 770.0000 1.0000
50.7000 742.0000 1.0000
50.7100 760.0000 1.0000
50.7200 829.0000 1.0000
50.7300 786.0000 1.0000
50.7400 762.0000 1.0000
50.7500 787.0000 1.0000
50.7600 800.0000 1.0000
50.7700 743.0000 1.0000
50.7800 790.0000 1.0000
50.7900 755.0000 1.0000
50.8000 797.0000 1.0000
50.8100 775.0000 1.0000
50.8200 815.0000 1.0000
50.8300 755.0000 1.0000
50.8400 735.0000 1.0000
50.8500 733.0000 1.0000
50.8600 734.0000 1.0000
50.8700 806.0000 1.0000
50.8800 781.0000 1.0000
50.8900 777.0000 1.0000
50.9000 778.0000 1.0000
50.9100 760.0000 1.0000
50.9200 753.0000 1.0000
50.9300 763.0000 1.0000
50.9400 736.0000 1.0000
50.9500 751.0000 1.0000
50.9600 804.0000 1.0000
50.9700 723.0000 1.0000
50.9800 765.0000 1.0000
50.9900 807.0000 1.0000
51.0000 748.0000 1.0000
51.0100 778.0000 1.0000
51.0200 764.0000 1.0000
51.0300 788.0000 1.0000
51.0400 752.0000 1.0000
51.0500 748.0000 1.0000
51.0600 746.0000 1.0000
51.0700 737.0000 1.0000
51.0800 720.0000 1.0000
51.0900 768.0000 1.0000
51.1000 780.0000 1.0000
51.1100 735.0000 1.0000
51.1200 781.0000 1.0000
51.1300 792.0000 1.0000
51.1400 777.0000 1.0000
51.1500 810.0000 1.0000
51.1600 793.0000 1.0000
51.1700 773.0000 1.0000
51.1800 770.0000 1.0000
51.1900 764.0000 1.0000
51.2000 784.0000 1.0000
51.2100 801.0000 1.0000
51.2200 779.0000 1.0000
51.2300 749.0000 1.0000
51.2400 785.0000 1.0000
51.2500 804.0000 1.0000
51.2600 779.0000 1.0000
51.2700 796.0000 1.0000
51.2800 785.0000 1.0000
51.2900 791.0000 1.0000
51.3000 807.0000 1.0000
51.3100 787.0000 1.0000
51.3200 772.0000 1.0000
51.3300 843.0000 1.0000
51.3400 789.0000 1.0000
51.3500 802.0000 1.0000
51.3600 761.0000 1.0000
51.3700 783.0000 1.0000
51.3800 808.0000 1.0000
51.3900 795.0000 1.0000
51.4000 787.0000 1.0000
51.4100 756.0000 1.0000
51.4200 808.0000 1.0000
51.4300 770.0000 1.0000
51.4400 787.0000 1.0000
51.4500 781.0000 1.0000
51.4600 769.0000 1.0000
51.4700 793.0000 1.0000
51.4800 799.0000 1.0000
51.4900 807.0000 1.0000
51.5000 806.0000 1.0000
51.5100 802.0000 1.0000
51.5200 822.0000 1.0000
51.5300 838.0000 1.0000
51.5400 781.0000 1.0000
51.5500 815.0000 1.0000
51.5600 759.0000 1.0000
51.5700 752.0000 1.0000
51.5800 787.0000 1.0000
51.5900 814.0000 1.0000
51.6000 830.0000 1.0000
51.6100 809.0000 1.0000
51.6200 803.0000 1.0000
51.6300 810.0000 1.0000
51.6400 795.0000 1.0000
51.6500 825.0000 1.0000
51.6600 800.0000 1.0000
51.6700 786.0000 1.0000
51.6800 799.0000 1.0000
51.6900 806.0000 1.0000
51.7000 869.0000 1.0000
51.7100 869.0000 1.0000
51.7200 771.0000 1.0000
51.7300 783.0000 1.0000
51.7400 820.0000 1.0000
51.7500 863.0000 1.0000
51.7600 829.0000 1.0000
51.7700 839.0000 1.0000
51.7800 893.0000 1.0000
51.7900 879.0000 1.0000
51.8000 843.0000 1.0000
51.8100 898.0000 1.0000
51.8200 882.0000 1.0000
51.8300 877.0000 1.0000
51.8400 857.0000 1.0000
51.8500 845.0000 1.0000
51.8600 917.0000 1.0000
51.8700 908.0000 1.0000
51.8800 918.0000 1.0000
51.8900 919.0000 1.0000
51.9000 946.0000 1.0000
51.9100 972.0000 1.0000
51.9200 972.0000 1.0000
51.9300 992.0000 1.0000
51.9400 964.0000 1.0000
51.9500 1053.0000 1.0000
51.9600 1139.0000 1.0000
51.9700 1069.0000 1.0000
51.9800 1122.0000 1.0000
51.9900 1204.0000 1.0000
52.0000 1213.0000 1.0000
52.0100 1300.0000 1.0000
52.0200 1340.0000 1.0000
52.0300 1363.0000 1.0000
52.0400 1396.0000 1.0000
52.0500 1428.0000 1.0000
52.0600 1519.0000 1.0000
52.0700 1605.0000 1.0000
52.0800 1616.0000 1.0000
52.0900 1711.0000 1.0000
52.1000 1756.0000 1.0000
52.1100 1825.0000 1.0000
52.1200 2112.0000 1.0000
52.1300 2224.0000 1.0000
52.1400 2325.0000 1.0000
52.1500 2483.0000 1.0000
52.1600 2741.0000 1.0000
52.1700 3054.0000 1.0000
52.1800 3201.0000 1.0000
52.1900 3577.0000 1.0000
52.2000 3673.0000 1.0000
52.2100 4020.0000 1.0000
52.2200 4362.0000 1.0000
52.2300 4604.0000 1.0000
52.2400 4813.0000 1.0000
52.2500 4866.0000 1.0000
52.2600 4980.0000 1.0000
52.2700 5049.0000 1.0000
52.2800 5161.0000 1.0000
52.2900 5066.0000 1.0000
52.3000 5025.0000 1.0000
52.3100 4827.0000 1.0000
52.3200 4636.0000 1.0000
52.3300 4466.0000 1.0000
52.3400 4457.0000 1.0000
52.3500 4239.0000 1.0000
52.3600 4106.0000 1.0000
52.3700 4117.0000 1.0000
52.3800 3959.0000 1.0000
52.3900 3904.0000 1.0000
52.4000 3792.0000 1.0000
52.4100 3664.0000 1.0000
52.4200 3571.0000 1.0000
52.4300 3367.0000 1.0000
52.4400 3144.0000 1.0000
52.4500 2989.0000 1.0000
52.4600 2676.0000 1.0000
52.4700 2586.0000 1.0000
52.4800 2474.0000 1.0000
52.4900 2269.0000 1.0000
52.5000 2176.0000 1.0000
52.5100 2046.0000 1.0000
52.5200 1912.0000 1.0000
52.5300 1776.0000 1.0000
52.5400 1703.0000 1.0000
52.5500 1607.0000 1.0000
52.5600 1563.0000 1.0000
52.5700 1505.0000 1.0000
52.5800 1425.0000 1.0000
52.5900 1315.0000 1.0000
52.6000 1338.0000 1.0000
52.6100 1280.0000 1.0000
52.6200 1230.0000 1.0000
52.6300 1226.0000 1.0000
52.6400 1143.0000 1.0000
52.6500 1129.0000 1.0000
52.6600 1106.0000 1.0000
52.6700 1076.0000 1.0000
52.6800 1049.0000 1.0000
52.6900 1041.0000 1.0000
52.7000 1045.0000 1.0000
52.7100 972.0000 1.0000
52.7200 1003.0000 1.0000
52.7300 971.0000 1.0000
52.7400 936.0000 1.0000
52.7500 945.0000 1.0000
52.7600 962.0000 1.0000
52.7700 950.0000 1.0000
52.7800 927.0000 1.0000
52.7900 902.0000 1.0000
52.8000 859.0000 1.0000
52.8100 881.0000 1.0000
52.8200 859.0000 1.0000
52.8300 873.0000 1.0000
52.8400 855.0000 1.0000
52.8500 848.0000 1.0000
52.8600 857.0000 1.0000
52.8700 891.0000 1.0000
52.8800 872.0000 1.0000
52.8900 891.0000 1.0000
52.9000 849.0000 1.0000
52.9100 862.0000 1.0000
52.9200 840.0000 1.0000
52.9300 866.0000 1.0000
52.9400 808.0000 1.0000
52.9500 803.0000 1.0000
52.9600 816.0000 1.0000
52.9700 849.0000 1.0000
52.9800 805.0000 1.0000
52.9900 763.0000 1.0000
53.0000 841.0000 1.0000
53.0100 803.0000 1.0000
53.0200 806.0000 1.0000
53.0300 782.0000 1.0000
53.0400 783.0000 1.0000
53.0500 863.0000 1.0000
53.0600 776.0000 1.0000
53.0700 743.0000 1.0000
53.0800 778.0000 1.0000
53.0900 828.0000 1.0000
53.1000 816.0000 1.0000
53.1100 808.0000 1.0000
53.1200 805.0000 1.0000
53.1300 795.0000 1.0000
53.1400 823.0000 1.0000
53.1500 791.0000 1.0000
53.1600 790.0000 1.0000
53.1700 791.0000 1.0000
53.1800 806.0000 1.0000
53.1900 798.0000 1.0000
53.2000 811.0000 1.0000
53.2100 779.0000 1.0000
53.2200 761.0000 1.0000
53.2300 791.0000 1.0000
53.2400 780.0000 1.0000
53.2500 762.0000 1.0000
53.2600 776.0000 1.0000
53.2700 781.0000 1.0000
53.2800 801.0000 1.0000
53.2900 761.0000 1.0000
53.3000 759.0000 1.0000
53.3100 758.0000 1.0000
53.3200 747.0000 1.0000
53.3300 772.0000 1.0000
53.3400 781.0000 1.0000
53.3500 758.0000 1.0000
53.3600 787.0000 1.0000
53.3700 752.0000 1.0000
53.3800 791.0000 1.0000
53.3900 759.0000 1.0000
53.4000 770.0000 1.0000
53.4100 748.0000 1.0000
53.4200 745.0000 1.0000
53.4300 805.0000 1.0000
53.4400 733.0000 1.0000
53.4500 715.0000 1.0000
53.4600 728.0000 1.0000
53.4700 742.0000 1.0000
53.4800 771.0000 1.0000
53.4900 751.0000 1.0000
53.5000 757.0000 1.0000
53.5100 712.0000 1.0000
53.5200 783.0000 1.0000
53.5300 768.0000 1.0000
53.5400 784.0000 1.0000
53.5500 754.0000 1.0000
53.5600 759.0000 1.0000
53.5700 746.0000 1.0000
53.5800 733.0000 1.0000
53.5900 746.0000 1.0000
53.6000 732.0000 1.0000
53.6100 729.0000 1.0000
53.6200 767.0000 1.0000
53.6300 796.0000 1.0000
53.6400 774.0000 1.0000
53.6500 767.0000 1.0000
53.6600 735.0000 1.0000
53.6700 742.0000 1.0000
53.6800 769.0000 1.0000
53.6900 763.0000 1.0000
53.7000 789.0000 1.0000
53.7100 747.0000 1.0000
53.7200 754.0000 1.0000
53.7300 755.0000 1.0000
53.7400 774.0000 1.0000
53.7500 727.0000 1.0000
53.7600 685.0000 1.0000
53.7700 762.0000 1.0000
53.7800 710.0000 1.0000
53.7900 724.0000 1.0000
53.8000 773.0000 1.0000
53.8100 782.0000 1.0000
53.8200 757.0000 1.0000
53.8300 725.0000 1.0000
53.8400 776.0000 1.0000
53.8500 770.0000 1.0000
53.8600 748.0000 1.0000
53.8700 727.0000 1.0000
53.8800 736.0000 1.0000
53.8900 740.0000 1.0000
53.9000 735.0000 1.0000
53.9100 756.0000 1.0000
53.9200 739.0000 1.0000
53.9300 743.0000 1.0000
53.9400 768.0000 1.0000
53.9500 747.0000 1.0000
53.9600 756.0000 1.0000
53.9700 766.0000 1.0000
53.9800 724.0000 1.0000
53.9900 705.0000 1.0000
54.0000 722.0000 1.0000
54.0100 715.0000 1.0000
54.0200 763.0000 1.0000
54.0300 764.0000 1.0000
54.0400 695.0000 1.0000
54.0500 717.0000 1.0000
54.0600 746.0000 1.0000
54.0700 751.0000 1.0000
54.0800 728.0000 1.0000
54.0900 755.0000 1.0000
54.1000 725.0000 1.0000
54.1100 748.0000 1.0000
54.1200 714.0000 1.0000
54.1300 747.0000 1.0000
54.1400 743.0000 1.0000
54.1500 711.0000 1.0000
54.1600 742.0000 1.0000
54.1700 734.0000 1.0000
54.1800 729.0000 1.0000
54.1900 749.0000 1.0000
54.2000 730.0000 1.0000
54.2100 731.0000 1.0000
54.2200 771.0000 1.0000
54.2300 719.0000 1.0000
54.2400 780.0000 1.0000
54.2500 731.0000 1.0000
54.2600 770.0000 1.0000
54.2700 747.0000 1.0000
54.2800 756.0000 1.0000
54.2900 718.0000 1.0000
54.3000 746.0000 1.0000
54.3100 788.0000 1.0000
54.3200 792.0000 1.0000
54.3300 797.0000 1.0000
54.3400 769.0000 1.0000
54.3500 750.0000 1.0000
54.3600 720.0000 1.0000
54.3700 737.0000 1.0000
54.3800 679.0000 1.0000
54.3900 726.0000 1.0000
54.4000 748.0000 1.0000
54.4100 746.0000 1.0000
54.4200 748.0000 1.0000
54.4300 764.0000 1.0000
54.4400 734.0000 1.0000
54.4500 756.0000 1.0000
54.4600 750.0000 1.0000
54.4700 775.0000 1.0000
54.4800 755.0000 1.0000
54.4900 680.0000 1.0000
54.5000 766.0000 1.0000
54.5100 767.0000 1.0000
54.5200 770.0000 1.0000
54.5300 774.0000 1.0000
54.5400 750.0000 1.0000
54.5500 740.0000 1.0000
54.5600 742.0000 1.0000
54.5700 775.0000 1.0000
54.5800 735.0000 1.0000
54.5900 783.0000 1.0000
54.6000 755.0000 1.0000
54.6100 767.0000 1.0000
54.6200 773.0000 1.0000
54.6300 773.0000 1.0000
54.6400 790.0000 1.0000
54.6500 766.0000 1.0000
54.6600 767.0000 1.0000
54.6700 780.0000 1.0000
54.6800 765.0000 1.0000
54.6900 758.0000 1.0000
54.7000 807.0000 1.0000
54.7100 754.0000 1.0000
54.7200 782.0000 1.0000
54.7300 781.0000 1.0000
54.7400 786.0000 1.0000
54.7500 761.0000 1.0000
54.7600 769.0000 1.0000
54.7700 796.0000 1.0000
54.7800 755.0000 1.0000
54.7900 788.0000 1.0000
54.8000 822.0000 1.0000
54.8100 850.0000 1.0000
54.8200 799.0000 1.0000
54.8300 806.0000 1.0000
54.8400 818.0000 1.0000
54.8500 849.0000 1.0000
54.8600 810.0000 1.0000
54.8700 802.0000 1.0000
54.8800 793.0000 1.0000
54.8900 809.0000 1.0000
54.9000 773.0000 1.0000
54.9100 807.0000 1.0000
54.9200 825.0000 1.0000
54.9300 859.0000 1.0000
54.9400 786.0000 1.0000
54.9500 798.0000 1.0000
54.9600 818.0000 1.0000
54.9700 821.0000 1.0000
54.9800 866.0000 1.0000
54.9900 794.0000 1.0000
55.0000 805.0000 1.0000
55.0100 821.0000 1.0000
55.0200 821.0000 1.0000
55.0300 801.0000 1.0000
55.0400 802.0000 1.0000
55.0500 793.0000 1.0000
55.0600 890.0000 1.0000
55.0700 835.0000 1.0000
55.0800 847.0000 1.0000
55.0900 849.0000 1.0000
55.1000 859.0000 1.0000
55.1100 887.0000 1.0000
55.1200 860.0000 1.0000
55.1300 928.0000 1.0000
55.1400 976.0000 1.0000
55.1500 961.0000 1.0000
55.1600 976.0000 1.0000
55.1700 969.0000 1.0000
55.1800 980.0000 1.0000
55.1900 992.0000 1.0000
55.2000 968.0000 1.0000
55.2100 998.0000 1.0000
55.2200 1057.0000 1.0000
55.2300 1050.0000 1.0000
55.2400 1086.0000 1.0000
55.2500 1140.0000 1.0000
55.2600 1158.0000 1.0000
55.2700 1103.0000 1.0000
55.2800 1131.0000 1.0000
55.2900 1127.0000 1.0000
55.3000 1188.0000 1.0000
55.3100 1115.0000 1.0000
55.3200 1121.0000 1.0000
55.3300 1072.0000 1.0000
55.3400 1105.0000 1.0000
55.3500 1095.0000 1.0000
55.3600 1104.0000 1.0000
55.3700 1086.0000 1.0000
55.3800 1087.0000 1.0000
55.3900 1092.0000 1.0000
55.4000 1067.0000 1.0000
55.4100 1026.0000 1.0000
55.4200 1043.0000 1.0000
55.4300 1021.0000 1.0000
55.4400 981.0000 1.0000
55.4500 997.0000 1.0000
55.4600 1013.0000 1.0000
55.4700 956.0000 1.0000
55.4800 999.0000 1.0000
55.4900 956.0000 1.0000
55.5000 945.0000 1.0000
55.5100 931.0000 1.0000
55.5200 864.0000 1.0000
55.5300 883.0000 1.0000
55.5400 872.0000 1.0000
55.5500 865.0000 1.0000
55.5600 847.0000 1.0000
55.5700 857.0000 1.0000
55.5800 912.0000 1.0000
55.5900 856.0000 1.0000
55.6000 843.0000 1.0000
55.6100 864.0000 1.0000
55.6200 849.0000 1.0000
55.6300 792.0000 1.0000
55.6400 767.0000 1.0000
55.6500 797.0000 1.0000
55.6600 807.0000 1.0000
55.6700 769.0000 1.0000
55.6800 819.0000 1.0000
55.6900 796.0000 1.0000
55.7000 759.0000 1.0000
55.7100 768.0000 1.0000
55.7200 771.0000 1.0000
55.7300 766.0000 1.0000
55.7400 749.0000 1.0000
55.7500 785.0000 1.0000
55.7600 748.0000 1.0000
55.7700 773.0000 1.0000
55.7800 769.0000 1.0000
55.7900 729.0000 1.0000
55.8000 776.0000 1.0000
55.8100 780.0000 1.0000
55.8200 743.0000 1.0000
55.8300 760.0000 1.0000
55.8400 777.0000 1.0000
55.8500 770.0000 1.0000
55.8600 746.0000 1.0000
55.8700 720.0000 1.0000
55.8800 746.0000 1.0000
55.8900 762.0000 1.0000
55.9000 750.0000 1.0000
55.9100 715.0000 1.0000
55.9200 752.0000 1.0000
55.9300 753.0000 1.0000
55.9400 755.0000 1.0000
55.9500 753.0000 1.0000
55.9600 690.0000 1.0000
55.9700 716.0000 1.0000
55.9800 745.0000 1.0000
55.9900 704.0000 1.0000
56.0000 761.0000 1.0000
56.0100 714.0000 1.0000
56.0200 727.0000 1.0000
56.0300 730.0000 1.0000
56.0400 758.0000 1.0000
56.0500 748.0000 1.0000
56.0600 724.0000 1.0000
56.0700 746.0000 1.0000
56.0800 752.0000 1.0000
56.0900 729.0000 1.0000
56.1000 733.0000 1.0000
56.1100 731.0000 1.0000
56.1200 738.0000 1.0000
56.1300 701.0000 1.0000
56.1400 733.0000 1.0000
56.1500 716.0000 1.0000
56.1600 711.0000 1.0000
56.1700 693.0000 1.0000
56.1800 758.0000 1.0000
56.1900 710.0000 1.0000
56.2000 719.0000 1.0000
56.2100 749.0000 1.0000
56.2200 715.0000 1.0000
56.2300 714.0000 1.0000
56.2400 736.0000 1.0000
56.2500 725.0000 1.0000
56.2600 744.0000 1.0000
56.2700 762.0000 1.0000
56.2800 734.0000 1.0000
56.2900 728.0000 1.0000
56.3000 711.0000 1.0000
56.3100 679.0000 1.0000
56.3200 754.0000 1.0000
56.3300 706.0000 1.0000
56.3400 713.0000 1.0000
56.3500 737.0000 1.0000
56.3600 699.0000 1.0000
56.3700 713.0000 1.0000
56.3800 735.0000 1.0000
56.3900 747.0000 1.0000
56.4000 710.0000 1.0000
56.4100 724.0000 1.0000
56.4200 680.0000 1.0000
56.4300 711.0000 1.0000
56.4400 705.0000 1.0000
56.4500 747.0000 1.0000
56.4600 717.0000 1.0000
56.4700 730.0000 1.0000
56.4800 713.0000 1.0000
56.4900 718.0000 1.0000
56.5000 725.0000 1.0000
56.5100 680.0000 1.0000
56.5200 692.0000 1.0000
56.5300 715.0000 1.0000
56.5400 747.0000 1.0000
56.5500 711.0000 1.0000
56.5600 710.0000 1.0000
56.5700 715.0000 1.0000
56.5800 715.0000 1.0000
56.5900 733.0000 1.0000
56.6000 746.0000 1.0000
56.6100 692.0000 1.0000
56.6200 733.0000 1.0000
56.6300 742.0000 1.0000
56.6400 748.0000 1.0000
56.6500 717.0000 1.0000
56.6600 733.0000 1.0000
56.6700 732.0000 1.0000
56.6800 710.0000 1.0000
56.6900 708.0000 1.0000
56.7000 712.0000 1.0000
56.7100 708.0000 1.0000
56.7200 729.0000 1.0000
56.7300 717.0000 1.0000
56.7400 712.0000 1.0000
56.7500 674.0000 1.0000
56.7600 719.0000 1.0000
56.7700 764.0000 1.0000
56.7800 708.0000 1.0000
56.7900 711.0000 1.0000
56.8000 734.0000 1.0000
56.8100 727.0000 1.0000
56.8200 687.0000 1.0000
56.8300 732.0000 1.0000
56.8400 757.0000 1.0000
56.8500 751.0000 1.0000
56.8600 726.0000 1.0000
56.8700 699.0000 1.0000
56.8800 683.0000 1.0000
56.8900 693.0000 1.0000
56.9000 708.0000 1.0000
56.9100 749.0000 1.0000
56.9200 737.0000 1.0000
56.9300 752.0000 1.0000
56.9400 661.0000 1.0000
56.9500 740.0000 1.0000
56.9600 735.0000 1.0000
56.9700 739.0000 1.0000
56.9800 742.0000 1.0000
56.9900 714.0000 1.0000
57.0000 710.0000 1.0000
57.0100 676.0000 1.0000
57.0200 722.0000 1.0000
57.0300 735.0000 1.0000
57.0400 749.0000 1.0000
57.0500 713.0000 1.0000
57.0600 737.0000 1.0000
57.0700 763.0000 1.0000
57.0800 672.0000 1.0000
57.0900 752.0000 1.0000
57.1000 706.0000 1.0000
57.1100 691.0000 1.0000
57.1200 714.0000 1.0000
57.1300 710.0000 1.0000
57.1400 734.0000 1.0000
57.1500 708.0000 1.0000
57.1600 761.0000 1.0000
57.1700 729.0000 1.0000
57.1800 722.0000 1.0000
57.1900 723.0000 1.0000
57.2000 722.0000 1.0000
57.2100 697.0000 1.0000
57.2200 689.0000 1.0000
57.2300 734.0000 1.0000
57.2400 726.0000 1.0000
57.2500 733.0000 1.0000
57.2600 704.0000 1.0000
57.2700 749.0000 1.0000
57.2800 697.0000 1.0000
57.2900 691.0000 1.0000
57.3000 749.0000 1.0000
57.3100 719.0000 1.0000
57.3200 748.0000 1.0000
57.3300 683.0000 1.0000
57.3400 707.0000 1.0000
57.3500 700.0000 1.0000
57.3600 742.0000 1.0000
57.3700 711.0000 1.0000
57.3800 727.0000 1.0000
57.3900 698.0000 1.0000
57.4000 714.0000 1.0000
57.4100 686.0000 1.0000
57.4200 736.0000 1.0000
57.4300 701.0000 1.0000
57.4400 746.0000 1.0000
57.4500 736.0000 1.0000
57.4600 707.0000 1.0000
57.4700 716.0000 1.0000
57.4800 687.0000 1.0000
57.4900 680.0000 1.0000
57.5000 677.0000 1.0000
57.5100 705.0000 1.0000
57.5200 661.0000 1.0000
57.5300 674.0000 1.0000
57.5400 656.0000 1.0000
57.5500 687.0000 1.0000
57.5600 705.0000 1.0000
57.5700 715.0000 1.0000
57.5800 737.0000 1.0000
57.5900 714.0000 1.0000
57.6000 717.0000 1.0000
57.6100 718.0000 1.0000
57.6200 722.0000 1.0000
57.6300 683.0000 1.0000
57.6400 730.0000 1.0000
57.6500 725.0000 1.0000
57.6600 689.0000 1.0000
57.6700 683.0000 1.0000
57.6800 714.0000 1.0000
57.6900 708.0000 1.0000
57.7000 708.0000 1.0000
57.7100 708.0000 1.0000
57.7200 708.0000 1.0000
57.7300 702.0000 1.0000
57.7400 694.0000 1.0000
57.7500 663.0000 1.0000
57.7600 791.0000 1.0000
57.7700 751.0000 1.0000
57.7800 719.0000 1.0000
57.7900 677.0000 1.0000
57.8000 706.0000 1.0000
57.8100 699.0000 1.0000
57.8200 739.0000 1.0000
57.8300 716.0000 1.0000
57.8400 726.0000 1.0000
57.8500 676.0000 1.0000
57.8600 742.0000 1.0000
57.8700 748.0000 1.0000
57.8800 707.0000 1.0000
57.8900 681.0000 1.0000
57.9000 711.0000 1.0000
57.9100 789.0000 1.0000
57.9200 721.0000 1.0000
57.9300 742.0000 1.0000
57.9400 709.0000 1.0000
57.9500 756.0000 1.0000
57.9600 700.0000 1.0000
57.9700 700.0000 1.0000
57.9800 709.0000 1.0000
57.9900 736.0000 1.0000
58.0000 734.0000 1.0000
58.0100 680.0000 1.0000
58.0200 731.0000 1.0000
58.0300 693.0000 1.0000
58.0400 739.0000 1.0000
58.0500 702.0000 1.0000
58.0600 741.0000 1.0000
58.0700 748.0000 1.0000
58.0800 711.0000 1.0000
58.0900 731.0000 1.0000
58.1000 744.0000 1.0000
58.1100 742.0000 1.0000
58.1200 786.0000 1.0000
58.1300 750.0000 1.0000
58.1400 736.0000 1.0000
58.1500 732.0000 1.0000
58.1600 756.0000 1.0000
58.1700 795.0000 1.0000
58.1800 696.0000 1.0000
58.1900 713.0000 1.0000
58.2000 713.0000 1.0000
58.2100 764.0000 1.0000
58.2200 724.0000 1.0000
58.2300 736.0000 1.0000
58.2400 734.0000 1.0000
58.2500 730.0000 1.0000
58.2600 790.0000 1.0000
58.2700 753.0000 1.0000
58.2800 758.0000 1.0000
58.2900 721.0000 1.0000
58.3000 734.0000 1.0000
58.3100 746.0000 1.0000
58.3200 736.0000 1.0000
58.3300 728.0000 1.0000
58.3400 706.0000 1.0000
58.3500 720.0000 1.0000
58.3600 714.0000 1.0000
58.3700 699.0000 1.0000
58.3800 699.0000 1.0000
58.3900 719.0000 1.0000
58.4000 736.0000 1.0000
58.4100 718.0000 1.0000
58.4200 706.0000 1.0000
58.4300 726.0000 1.0000
58.4400 761.0000 1.0000
58.4500 699.0000 1.0000
58.4600 696.0000 1.0000
58.4700 722.0000 1.0000
58.4800 703.0000 1.0000
58.4900 759.0000 1.0000
58.5000 712.0000 1.0000
58.5100 728.0000 1.0000
58.5200 745.0000 1.0000
58.5300 740.0000 1.0000
58.5400 678.0000 1.0000
58.5500 720.0000 1.0000
58.5600 677.0000 1.0000
58.5700 707.0000 1.0000
58.5800 689.0000 1.0000
58.5900 696.0000 1.0000
58.6000 711.0000 1.0000
58.6100 724.0000 1.0000
58.6200 717.0000 1.0000
58.6300 696.0000 1.0000
58.6400 697.0000 1.0000
58.6500 670.0000 1.0000
58.6600 733.0000 1.0000
58.6700 717.0000 1.0000
58.6800 689.0000 1.0000
58.6900 732.0000 1.0000
58.7000 737.0000 1.0000
58.7100 698.0000 1.0000
58.7200 740.0000 1.0000
58.7300 716.0000 1.0000
58.7400 691.0000 1.0000
58.7500 706.0000 1.0000
58.7600 732.0000 1.0000
58.7700 729.0000 1.0000
58.7800 695.0000 1.0000
58.7900 700.0000 1.0000
58.8000 702.0000 1.0000
58.8100 743.0000 1.0000
58.8200 704.0000 1.0000
58.8300 686.0000 1.0000
58.8400 681.0000 1.0000
58.8500 727.0000 1.0000
58.8600 678.0000 1.0000
58.8700 709.0000 1.0000
58.8800 717.0000 1.0000
58.8900 720.0000 1.0000
58.9000 705.0000 1.0000
58.9100 727.0000 1.0000
58.9200 714.0000 1.0000
58.9300 708.0000 1.0000
58.9400 718.0000 1.0000
58.9500 721.0000 1.0000
58.9600 706.0000 1.0000
58.9700 724.0000 1.0000
58.9800 749.0000 1.0000
58.9900 687.0000 1.0000
59.0000 712.0000 1.0000
59.0100 700.0000 1.0000
59.0200 686.0000 1.0000
59.0300 763.0000 1.0000
59.0400 669.0000 1.0000
59.0500 702.0000 1.0000
59.0600 722.0000 1.0000
59.0700 721.0000 1.0000
59.0800 714.0000 1.0000
59.0900 717.0000 1.0000
59.1000 718.0000 1.0000
59.1100 742.0000 1.0000
59.1200 709.0000 1.0000
59.1300 697.0000 1.0000
59.1400 716.0000 1.0000
59.1500 715.0000 1.0000
59.1600 712.0000 1.0000
59.1700 688.0000 1.0000
59.1800 754.0000 1.0000
59.1900 725.0000 1.0000
59.2000 685.0000 1.0000
59.2100 755.0000 1.0000
59.2200 729.0000 1.0000
59.2300 705.0000 1.0000
59.2400 732.0000 1.0000
59.2500 716.0000 1.0000
59.2600 686.0000 1.0000
59.2700 684.0000 1.0000
59.2800 754.0000 1.0000
59.2900 743.0000 1.0000
59.3000 728.0000 1.0000
59.3100 719.0000 1.0000
59.3200 755.0000 1.0000
59.3300 713.0000 1.0000
59.3400 746.0000 1.0000
59.3500 729.0000 1.0000
59.3600 695.0000 1.0000
59.3700 700.0000 1.0000
59.3800 750.0000 1.0000
59.3900 684.0000 1.0000
59.4000 683.0000 1.0000
59.4100 773.0000 1.0000
59.4200 699.0000 1.0000
59.4300 752.0000 1.0000
59.4400 690.0000 1.0000
59.4500 733.0000 1.0000
59.4600 709.0000 1.0000
59.4700 685.0000 1.0000
59.4800 732.0000 1.0000
59.4900 759.0000 1.0000
59.5000 739.0000 1.0000
59.5100 694.0000 1.0000
59.5200 688.0000 1.0000
59.5300 696.0000 1.0000
59.5400 695.0000 1.0000
59.5500 654.0000 1.0000
59.5600 714.0000 1.0000
59.5700 711.0000 1.0000
59.5800 722.0000 1.0000
59.5900 715.0000 1.0000
59.6000 698.0000 1.0000
59.6100 740.0000 1.0000
59.6200 723.0000 1.0000
59.6300 703.0000 1.0000
59.6400 685.0000 1.0000
59.6500 719.0000 1.0000
59.6600 710.0000 1.0000
59.6700 754.0000 1.0000
59.6800 735.0000 1.0000
59.6900 716.0000 1.0000
59.7000 672.0000 1.0000
59.7100 705.0000 1.0000
59.7200 715.0000 1.0000
59.7300 685.0000 1.0000
59.7400 716.0000 1.0000
59.7500 702.0000 1.0000
59.7600 740.0000 1.0000
59.7700 700.0000 1.0000
59.7800 698.0000 1.0000
59.7900 765.0000 1.0000
59.8000 730.0000 1.0000
59.8100 710.0000 1.0000
59.8200 670.0000 1.0000
59.8300 711.0000 1.0000
59.8400 715.0000 1.0000
59.8500 723.0000 1.0000
59.8600 704.0000 1.0000
59.8700 731.0000 1.0000
59.8800 698.0000 1.0000
59.8900 681.0000 1.0000
59.9000 693.0000 1.0000
59.9100 709.0000 1.0000
59.9200 707.0000 1.0000
59.9300 709.0000 1.0000
59.9400 713.0000 1.0000
59.9500 692.0000 1.0000
59.9600 690.0000 1.0000
59.9700 716.0000 1.0000
59.9800 709.0000 1.0000
59.9900 710.0000 1.0000
60.0000 718.0000 1.0000
60.0100 729.0000 1.0000
60.0200 698.0000 1.0000
60.0300 697.0000 1.0000
60.0400 720.0000 1.0000
60.0500 700.0000 1.0000
60.0600 705.0000 1.0000
60.0700 740.0000 1.0000
60.0800 713.0000 1.0000
60.0900 704.0000 1.0000
60.1000 720.0000 1.0000
60.1100 726.0000 1.0000
60.1200 673.0000 1.0000
60.1300 664.0000 1.0000
60.1400 720.0000 1.0000
60.1500 709.0000 1.0000
60.1600 715.0000 1.0000
60.1700 735.0000 1.0000
60.1800 746.0000 1.0000
60.1900 703.0000 1.0000
60.2000 719.0000 1.0000
60.2100 736.0000 1.0000
60.2200 717.0000 1.0000
60.2300 708.0000 1.0000
60.2400 747.0000 1.0000
60.2500 717.0000 1.0000
60.2600 714.0000 1.0000
60.2700 719.0000 1.0000
60.2800 707.0000 1.0000
60.2900 699.0000 1.0000
60.3000 713.0000 1.0000
60.3100 738.0000 1.0000
60.3200 692.0000 1.0000
60.3300 658.0000 1.0000
60.3400 719.0000 1.0000
60.3500 692.0000 1.0000
60.3600 721.0000 1.0000
60.3700 685.0000 1.0000
60.3800 707.0000 1.0000
60.3900 702.0000 1.0000
60.4000 722.0000 1.0000
60.4100 684.0000 1.0000
60.4200 691.0000 1.0000
60.4300 717.0000 1.0000
60.4400 724.0000 1.0000
60.4500 655.0000 1.0000
60.4600 691.0000 1.0000
60.4700 685.0000 1.0000
60.4800 686.0000 1.0000
60.4900 679.0000 1.0000
60.5000 704.0000 1.0000
60.5100 709.0000 1.0000
60.5200 711.0000 1.0000
60.5300 713.0000 1.0000
60.5400 677.0000 1.0000
60.5500 732.0000 1.0000
60.5600 745.0000 1.0000
60.5700 747.0000 1.0000
60.5800 702.0000 1.0000
60.5900 737.0000 1.0000
60.6000 706.0000 1.0000
60.6100 730.0000 1.0000
60.6200 714.0000 1.0000
60.6300 715.0000 1.0000
60.6400 684.0000 1.0000
60.6500 772.0000 1.0000
60.6600 725.0000 1.0000
60.6700 699.0000 1.0000
60.6800 696.0000 1.0000
60.6900 676.0000 1.0000
60.7000 693.0000 1.0000
60.7100 693.0000 1.0000
60.7200 708.0000 1.0000
60.7300 694.0000 1.0000
60.7400 694.0000 1.0000
60.7500 696.0000 1.0000
60.7600 713.0000 1.0000
60.7700 756.0000 1.0000
60.7800 742.0000 1.0000
60.7900 698.0000 1.0000
60.8000 666.0000 1.0000
60.8100 726.0000 1.0000
60.8200 741.0000 1.0000
60.8300 707.0000 1.0000
60.8400 685.0000 1.0000
60.8500 718.0000 1.0000
60.8600 671.0000 1.0000
60.8700 729.0000 1.0000
60.8800 731.0000 1.0000
60.8900 740.0000 1.0000
60.9000 702.0000 1.0000
60.9100 732.0000 1.0000
60.9200 707.0000 1.0000
60.9300 737.0000 1.0000
60.9400 671.0000 1.0000
60.9500 715.0000 1.0000
60.9600 711.0000 1.0000
60.9700 738.0000 1.0000
60.9800 730.0000 1.0000
60.9900 676.0000 1.0000
61.0000 701.0000 1.0000
61.0100 698.0000 1.0000
61.0200 729.0000 1.0000
61.0300 718.0000 1.0000
61.0400 747.0000 1.0000
61.0500 772.0000 1.0000
61.0600 733.0000 1.0000
61.0700 731.0000 1.0000
61.0800 723.0000 1.0000
61.0900 652.0000 1.0000
61.1000 694.0000 1.0000
61.1100 666.0000 1.0000
61.1200 712.0000 1.0000
61.1300 687.0000 1.0000
61.1400 689.0000 1.0000
61.1500 703.0000 1.0000
61.1600 719.0000 1.0000
61.1700 719.0000 1.0000
61.1800 731.0000 1.0000
61.1900 689.0000 1.0000
61.2000 681.0000 1.0000
61.2100 722.0000 1.0000
61.2200 710.0000 1.0000
61.2300 751.0000 1.0000
61.2400 696.0000 1.0000
61.2500 686.0000 1.0000
61.2600 722.0000 1.0000
61.2700 752.0000 1.0000
61.2800 742.0000 1.0000
61.2900 737.0000 1.0000
61.3000 703.0000 1.0000
61.3100 718.0000 1.0000
61.3200 724.0000 1.0000
61.3300 716.0000 1.0000
61.3400 761.0000 1.0000
61.3500 745.0000 1.0000
61.3600 671.0000 1.0000
61.3700 749.0000 1.0000
61.3800 725.0000 1.0000
61.3900 717.0000 1.0000
61.4000 727.0000 1.0000
61.4100 743.0000 1.0000
61.4200 736.0000 1.0000
61.4300 691.0000 1.0000
61.4400 660.0000 1.0000
61.4500 701.0000 1.0000
61.4600 732.0000 1.0000
61.4700 723.0000 1.0000
61.4800 702.0000 1.0000
61.4900 779.0000 1.0000
61.5000 773.0000 1.0000
61.5100 744.0000 1.0000
61.5200 711.0000 1.0000
61.5300 733.0000 1.0000
61.5400 719.0000 1.0000
61.5500 715.0000 1.0000
61.5600 731.0000 1.0000
61.5700 687.0000 1.0000
61.5800 753.0000 1.0000
61.5900 735.0000 1.0000
61.6000 707.0000 1.0000
61.6100 712.0000 1.0000
61.6200 746.0000 1.0000
61.6300 742.0000 1.0000
61.6400 732.0000 1.0000
61.6500 744.0000 1.0000
61.6600 730.0000 1.0000
61.6700 742.0000 1.0000
61.6800 767.0000 1.0000
61.6900 764.0000 1.0000
61.7000 719.0000 1.0000
61.7100 766.0000 1.0000
61.7200 788.0000 1.0000
61.7300 796.0000 1.0000
61.7400 721.0000 1.0000
61.7500 781.0000 1.0000
61.7600 768.0000 1.0000
61.7700 774.0000 1.0000
61.7800 825.0000 1.0000
61.7900 791.0000 1.0000
61.8000 800.0000 1.0000
61.8100 826.0000 1.0000
61.8200 775.0000 1.0000
61.8300 788.0000 1.0000
61.8400 776.0000 1.0000
61.8500 834.0000 1.0000
61.8600 827.0000 1.0000
61.8700 815.0000 1.0000
61.8800 824.0000 1.0000
61.8900 815.0000 1.0000
61.9000 851.0000 1.0000
61.9100 835.0000 1.0000
61.9200 870.0000 1.0000
61.9300 843.0000 1.0000
61.9400 827.0000 1.0000
61.9500 852.0000 1.0000
61.9600 871.0000 1.0000
61.9700 907.0000 1.0000
61.9800 909.0000 1.0000
61.9900 943.0000 1.0000
62.0000 932.0000 1.0000
62.0100 941.0000 1.0000
62.0200 908.0000 1.0000
62.0300 988.0000 1.0000
62.0400 980.0000 1.0000
62.0500 1025.0000 1.0000
62.0600 1013.0000 1.0000
62.0700 1083.0000 1.0000
62.0800 1093.0000 1.0000
62.0900 1112.0000 1.0000
62.1000 1109.0000 1.0000
62.1100 1172.0000 1.0000
62.1200 1207.0000 1.0000
62.1300 1236.0000 1.0000
62.1400 1282.0000 1.0000
62.1500 1258.0000 1.0000
62.1600 1359.0000 1.0000
62.1700 1361.0000 1.0000
62.1800 1418.0000 1.0000
62.1900 1488.0000 1.0000
62.2000 1434.0000 1.0000
62.2100 1501.0000 1.0000
62.2200 1564.0000 1.0000
62.2300 1558.0000 1.0000
62.2400 1561.0000 1.0000
62.2500 1610.0000 1.0000
62.2600 1696.0000 1.0000
62.2700 1698.0000 1.0000
62.2800 1699.0000 1.0000
62.2900 1708.0000 1.0000
62.3000 1689.0000 1.0000
62.3100 1703.0000 1.0000
62.3200 1731.0000 1.0000
62.3300 1744.0000 1.0000
62.3400 1727.0000 1.0000
62.3500 1634.0000 1.0000
62.3600 1728.0000 1.0000
62.3700 1673.0000 1.0000
62.3800 1703.0000 1.0000
62.3900 1609.0000 1.0000
62.4000 1650.0000 1.0000
62.4100 1560.0000 1.0000
62.4200 1552.0000 1.0000
62.4300 1542.0000 1.0000
62.4400 1571.0000 1.0000
62.4500 1497.0000 1.0000
62.4600 1555.0000 1.0000
62.4700 1478.0000 1.0000
62.4800 1476.0000 1.0000
62.4900 1403.0000 1.0000
62.5000 1411.0000 1.0000
62.5100 1337.0000 1.0000
62.5200 1334.0000 1.0000
62.5300 1343.0000 1.0000
62.5400 1205.0000 1.0000
62.5500 1232.0000 1.0000
62.5600 1262.0000 1.0000
62.5700 1206.0000 1.0000
62.5800 1173.0000 1.0000
62.5900 1144.0000 1.0000
62.6000 1109.0000 1.0000
62.6100 1146.0000 1.0000
62.6200 1102.0000 1.0000
62.6300 1074.0000 1.0000
62.6400 1066.0000 1.0000
62.6500 1010.0000 1.0000
62.6600 1004.0000 1.0000
62.6700 1060.0000 1.0000
62.6800 1006.0000 1.0000
62.6900 985.0000 1.0000
62.7000 997.0000 1.0000
62.7100 997.0000 1.0000
62.7200 915.0000 1.0000
62.7300 907.0000 1.0000
62.7400 900.0000 1.0000
62.7500 843.0000 1.0000
62.7600 888.0000 1.0000
62.7700 858.0000 1.0000
62.7800 875.0000 1.0000
62.7900 831.0000 1.0000
62.8000 811.0000 1.0000
62.8100 896.0000 1.0000
62.8200 823.0000 1.0000
62.8300 829.0000 1.0000
62.8400 790.0000 1.0000
62.8500 826.0000 1.0000
62.8600 810.0000 1.0000
62.8700 840.0000 1.0000
62.8800 823.0000 1.0000
62.8900 769.0000 1.0000
62.9000 792.0000 1.0000
62.9100 845.0000 1.0000
62.9200 833.0000 1.0000
62.9300 769.0000 1.0000
62.9400 768.0000 1.0000
62.9500 805.0000 1.0000
62.9600 800.0000 1.0000
62.9700 799.0000 1.0000
62.9800 833.0000 1.0000
62.9900 807.0000 1.0000
63.0000 817.0000 1.0000
63.0100 811.0000 1.0000
63.0200 813.0000 1.0000
63.0300 801.0000 1.0000
63.0400 789.0000 1.0000
63.0500 800.0000 1.0000
63.0600 800.0000 1.0000
63.0700 823.0000 1.0000
63.0800 773.0000 1.0000
63.0900 818.0000 1.0000
63.1000 846.0000 1.0000
63.1100 808.0000 1.0000
63.1200 801.0000 1.0000
63.1300 775.0000 1.0000
63.1400 802.0000 1.0000
63.1500 800.0000 1.0000
63.1600 805.0000 1.0000
63.1700 813.0000 1.0000
63.1800 741.0000 1.0000
63.1900 721.0000 1.0000
63.2000 775.0000 1.0000
63.2100 768.0000 1.0000
63.2200 740.0000 1.0000
63.2300 732.0000 1.0000
63.2400 757.0000 1.0000
63.2500 747.0000 1.0000
63.2600 752.0000 1.0000
63.2700 774.0000 1.0000
63.2800 761.0000 1.0000
63.2900 766.0000 1.0000
63.3000 741.0000 1.0000
63.3100 775.0000 1.0000
63.3200 756.0000 1.0000
63.3300 759.0000 1.0000
63.3400 778.0000 1.0000
63.3500 735.0000 1.0000
63.3600 737.0000 1.0000
63.3700 742.0000 1.0000
63.3800 715.0000 1.0000
63.3900 717.0000 1.0000
63.4000 715.0000 1.0000
63.4100 689.0000 1.0000
63.4200 727.0000 1.0000
63.4300 695.0000 1.0000
63.4400 725.0000 1.0000
63.4500 752.0000 1.0000
63.4600 704.0000 1.0000
63.4700 694.0000 1.0000
63.4800 662.0000 1.0000
63.4900 712.0000 1.0000
63.5000 724.0000 1.0000
63.5100 723.0000 1.0000
63.5200 686.0000 1.0000
63.5300 716.0000 1.0000
63.5400 701.0000 1.0000
63.5500 696.0000 1.0000
63.5600 721.0000 1.0000
63.5700 710.0000 1.0000
63.5800 750.0000 1.0000
63.5900 671.0000 1.0000
63.6000 691.0000 1.0000
63.6100 700.0000 1.0000
63.6200 699.0000 1.0000
63.6300 750.0000 1.0000
63.6400 738.0000 1.0000
63.6500 691.0000 1.0000
63.6600 695.0000 1.0000
63.6700 702.0000 1.0000
63.6800 754.0000 1.0000
63.6900 744.0000 1.0000
63.7000 699.0000 1.0000
63.7100 700.0000 1.0000
63.7200 702.0000 1.0000
63.7300 721.0000 1.0000
63.7400 702.0000 1.0000
63.7500 725.0000 1.0000
63.7600 735.0000 1.0000
63.7700 733.0000 1.0000
63.7800 694.0000 1.0000
63.7900 721.0000 1.0000
63.8000 707.0000 1.0000
63.8100 726.0000 1.0000
63.8200 721.0000 1.0000
63.8300 717.0000 1.0000
63.8400 712.0000 1.0000
63.8500 721.0000 1.0000
63.8600 757.0000 1.0000
63.8700 731.0000 1.0000
63.8800 715.0000 1.0000
63.8900 718.0000 1.0000
63.9000 697.0000 1.0000
63.9100 684.0000 1.0000
63.9200 695.0000 1.0000
63.9300 721.0000 1.0000
63.9400 721.0000 1.0000
63.9500 733.0000 1.0000
63.9600 711.0000 1.0000
63.9700 709.0000 1.0000
63.9800 741.0000 1.0000
63.9900 670.0000 1.0000
64.0000 687.0000 1.0000
64.0100 695.0000 1.0000
64.0200 708.0000 1.0000
64.0300 733.0000 1.0000
64.0400 726.0000 1.0000
64.0500 722.0000 1.0000
64.0600 689.0000 1.0000
64.0700 702.0000 1.0000
64.0800 721.0000 1.0000
64.0900 686.0000 1.0000
64.1000 707.0000 1.0000
64.1100 708.0000 1.0000
64.1200 731.0000 1.0000
64.1300 705.0000 1.0000
64.1400 762.0000 1.0000
64.1500 709.0000 1.0000
64.1600 717.0000 1.0000
64.1700 725.0000 1.0000
64.1800 729.0000 1.0000
64.1900 717.0000 1.0000
64.2000 745.0000 1.0000
64.2100 693.0000 1.0000
64.2200 729.0000 1.0000
64.2300 738.0000 1.0000
64.2400 721.0000 1.0000
64.2500 716.0000 1.0000
64.2600 715.0000 1.0000
64.2700 708.0000 1.0000
64.2800 760.0000 1.0000
64.2900 751.0000 1.0000
64.3000 746.0000 1.0000
64.3100 721.0000 1.0000
64.3200 720.0000 1.0000
64.3300 714.0000 1.0000
64.3400 722.0000 1.0000
64.3500 754.0000 1.0000
64.3600 753.0000 1.0000
64.3700 708.0000 1.0000
64.3800 762.0000 1.0000
64.3900 718.0000 1.0000
64.4000 736.0000 1.0000
64.4100 778.0000 1.0000
64.4200 750.0000 1.0000
64.4300 702.0000 1.0000
64.4400 759.0000 1.0000
64.4500 761.0000 1.0000
64.4600 738.0000 1.0000
64.4700 741.0000 1.0000
64.4800 746.0000 1.0000
64.4900 776.0000 1.0000
64.5000 808.0000 1.0000
64.5100 780.0000 1.0000
64.5200 802.0000 1.0000
64.5300 802.0000 1.0000
64.5400 787.0000 1.0000
64.5500 823.0000 1.0000
64.5600 791.0000 1.0000
64.5700 805.0000 1.0000
64.5800 856.0000 1.0000
64.5900 842.0000 1.0000
64.6000 877.0000 1.0000
64.6100 874.0000 1.0000
64.6200 927.0000 1.0000
64.6300 922.0000 1.0000
64.6400 954.0000 1.0000
64.6500 980.0000 1.0000
64.6600 950.0000 1.0000
64.6700 1012.0000 1.0000
64.6800 972.0000 1.0000
64.6900 968.0000 1.0000
64.7000 1002.0000 1.0000
64.7100 957.0000 1.0000
64.7200 903.0000 1.0000
64.7300 955.0000 1.0000
64.7400 942.0000 1.0000
64.7500 1023.0000 1.0000
64.7600 907.0000 1.0000
64.7700 923.0000 1.0000
64.7800 935.0000 1.0000
64.7900 887.0000 1.0000
64.8000 922.0000 1.0000
64.8100 880.0000 1.0000
64.8200 910.0000 1.0000
64.8300 876.0000 1.0000
64.8400 952.0000 1.0000
64.8500 890.0000 1.0000
64.8600 888.0000 1.0000
64.8700 917.0000 1.0000
64.8800 902.0000 1.0000
64.8900 851.0000 1.0000
64.9000 874.0000 1.0000
64.9100 851.0000 1.0000
64.9200 810.0000 1.0000
64.9300 815.0000 1.0000
64.9400 887.0000 1.0000
64.9500 794.0000 1.0000
64.9600 769.0000 1.0000
64.9700 813.0000 1.0000
64.9800 763.0000 1.0000
64.9900 761.0000 1.0000
65.0000 759.0000 1.0000
65.0100 728.0000 1.0000
65.0200 750.0000 1.0000
65.0300 749.0000 1.0000
65.0400 757.0000 1.0000
65.0500 748.0000 1.0000
65.0600 782.0000 1.0000
65.0700 789.0000 1.0000
65.0800 782.0000 1.0000
65.0900 756.0000 1.0000
65.1000 796.0000 1.0000
65.1100 736.0000 1.0000
65.1200 707.0000 1.0000
65.1300 714.0000 1.0000
65.1400 757.0000 1.0000
65.1500 750.0000 1.0000
65.1600 725.0000 1.0000
65.1700 708.0000 1.0000
65.1800 757.0000 1.0000
65.1900 774.0000 1.0000
65.2000 770.0000 1.0000
65.2100 718.0000 1.0000
65.2200 766.0000 1.0000
65.2300 703.0000 1.0000
65.2400 679.0000 1.0000
65.2500 772.0000 1.0000
65.2600 749.0000 1.0000
65.2700 774.0000 1.0000
65.2800 747.0000 1.0000
65.2900 776.0000 1.0000
65.3000 786.0000 1.0000
65.3100 784.0000 1.0000
65.3200 793.0000 1.0000
65.3300 773.0000 1.0000
65.3400 732.0000 1.0000
65.3500 704.0000 1.0000
65.3600 752.0000 1.0000
65.3700 765.0000 1.0000
65.3800 751.0000 1.0000
65.3900 715.0000 1.0000
65.4000 706.0000 1.0000
65.4100 699.0000 1.0000
65.4200 692.0000 1.0000
65.4300 733.0000 1.0000
65.4400 700.0000 1.0000
65.4500 712.0000 1.0000
65.4600 765.0000 1.0000
65.4700 689.0000 1.0000
65.4800 729.0000 1.0000
65.4900 745.0000 1.0000
65.5000 779.0000 1.0000
65.5100 748.0000 1.0000
65.5200 719.0000 1.0000
65.5300 724.0000 1.0000
65.5400 700.0000 1.0000
65.5500 764.0000 1.0000
65.5600 738.0000 1.0000
65.5700 756.0000 1.0000
65.5800 768.0000 1.0000
65.5900 736.0000 1.0000
65.6000 707.0000 1.0000
65.6100 765.0000 1.0000
65.6200 771.0000 1.0000
65.6300 769.0000 1.0000
65.6400 758.0000 1.0000
65.6500 778.0000 1.0000
65.6600 750.0000 1.0000
65.6700 773.0000 1.0000
65.6800 780.0000 1.0000
65.6900 788.0000 1.0000
65.7000 783.0000 1.0000
65.7100 803.0000 1.0000
65.7200 772.0000 1.0000
65.7300 809.0000 1.0000
65.7400 800.0000 1.0000
65.7500 834.0000 1.0000
65.7600 817.0000 1.0000
65.7700 814.0000 1.0000
65.7800 788.0000 1.0000
65.7900 780.0000 1.0000
65.8000 829.0000 1.0000
65.8100 817.0000 1.0000
65.8200 870.0000 1.0000
65.8300 865.0000 1.0000
65.8400 860.0000 1.0000
65.8500 869.0000 1.0000
65.8600 872.0000 1.0000
65.8700 868.0000 1.0000
65.8800 889.0000 1.0000
65.8900 906.0000 1.0000
65.9000 911.0000 1.0000
65.9100 921.0000 1.0000
65.9200 929.0000 1.0000
65.9300 936.0000 1.0000
65.9400 924.0000 1.0000
65.9500 954.0000 1.0000
65.9600 954.0000 1.0000
65.9700 1030.0000 1.0000
65.9800 1052.0000 1.0000
65.9900 1059.0000 1.0000
66.0000 1040.0000 1.0000
66.0100 1117.0000 1.0000
66.0200 1133.0000 1.0000
66.0300 1199.0000 1.0000
66.0400 1207.0000 1.0000
66.0500 1231.0000 1.0000
66.0600 1305.0000 1.0000
66.0700 1310.0000 1.0000
66.0800 1394.0000 1.0000
66.0900 1489.0000 1.0000
66.1000 1519.0000 1.0000
66.1100 1624.0000 1.0000
66.1200 1586.0000 1.0000
66.1300 1688.0000 1.0000
66.1400 1837.0000 1.0000
66.1500 1931.0000 1.0000
66.1600 2004.0000 1.0000
66.1700 2129.0000 1.0000
66.1800 2133.0000 1.0000
66.1900 2371.0000 1.0000
66.2000 2384.0000 1.0000
66.2100 2545.0000 1.0000
66.2200 2644.0000 1.0000
66.2300 2688.0000 1.0000
66.2400 2748.0000 1.0000
66.2500 2783.0000 1.0000
66.2600 2872.0000 1.0000
66.2700 2788.0000 1.0000
66.2800 2864.0000 1.0000
66.2900 2813.0000 1.0000
66.3000 2796.0000 1.0000
66.3100 2671.0000 1.0000
66.3200 2711.0000 1.0000
66.3300 2673.0000 1.0000
66.3400 2582.0000 1.0000
66.3500 2457.0000 1.0000
66.3600 2518.0000 1.0000
66.3700 2519.0000 1.0000
66.3800 2408.0000 1.0000
66.3900 2327.0000 1.0000
66.4000 2302.0000 1.0000
66.4100 2397.0000 1.0000
66.4200 2241.0000 1.0000
66.4300 2245.0000 1.0000
66.4400 2264.0000 1.0000
66.4500 2052.0000 1.0000
66.4600 2161.0000 1.0000
66.4700 2084.0000 1.0000
66.4800 1975.0000 1.0000
66.4900 1863.0000 1.0000
66.5000 1934.0000 1.0000
66.5100 1787.0000 1.0000
66.5200 1689.0000 1.0000
66.5300 1690.0000 1.0000
66.5400 1639.0000 1.0000
66.5500 1547.0000 1.0000
66.5600 1452.0000 1.0000
66.5700 1377.0000 1.0000
66.5800 1356.0000 1.0000
66.5900 1349.0000 1.0000
66.6000 1279.0000 1.0000
66.6100 1295.0000 1.0000
66.6200 1234.0000 1.0000
66.6300 1149.0000 1.0000
66.6400 1096.0000 1.0000
66.6500 1099.0000 1.0000
66.6600 1074.0000 1.0000
66.6700 1065.0000 1.0000
66.6800 1040.0000 1.0000
66.6900 1033.0000 1.0000
66.7000 938.0000 1.0000
66.7100 923.0000 1.0000
66.7200 959.0000 1.0000
66.7300 913.0000 1.0000
66.7400 918.0000 1.0000
66.7500 846.0000 1.0000
66.7600 902.0000 1.0000
66.7700 878.0000 1.0000
66.7800 872.0000 1.0000
66.7900 879.0000 1.0000
66.8000 847.0000 1.0000
66.8100 859.0000 1.0000
66.8200 817.0000 1.0000
66.8300 838.0000 1.0000
66.8400 813.0000 1.0000
66.8500 804.0000 1.0000
66.8600 793.0000 1.0000
66.8700 816.0000 1.0000
66.8800 806.0000 1.0000
66.8900 815.0000 1.0000
66.9000 818.0000 1.0000
66.9100 796.0000 1.0000
66.9200 740.0000 1.0000
66.9300 757.0000 1.0000
66.9400 723.0000 1.0000
66.9500 723.0000 1.0000
66.9600 726.0000 1.0000
66.9700 748.0000 1.0000
66.9800 739.0000 1.0000
66.9900 731.0000 1.0000
67.0000 750.0000 1.0000
67.0100 740.0000 1.0000
67.0200 687.0000 1.0000
67.0300 702.0000 1.0000
67.0400 706.0000 1.0000
67.0500 731.0000 1.0000
67.0600 745.0000 1.0000
67.0700 700.0000 1.0000
67.0800 736.0000 1.0000
67.0900 685.0000 1.0000
67.1000 685.0000 1.0000
67.1100 702.0000 1.0000
67.1200 709.0000 1.0000
67.1300 676.0000 1.0000
67.1400 706.0000 1.0000
67.1500 674.0000 1.0000
67.1600 698.0000 1.0000
67.1700 687.0000 1.0000
67.1800 675.0000 1.0000
67.1900 712.0000 1.0000
67.2000 732.0000 1.0000
67.2100 684.0000 1.0000
67.2200 712.0000 1.0000
67.2300 734.0000 1.0000
67.2400 681.0000 1.0000
67.2500 681.0000 1.0000
67.2600 718.0000 1.0000
67.2700 697.0000 1.0000
67.2800 677.0000 1.0000
67.2900 663.0000 1.0000
67.3000 696.0000 1.0000
67.3100 676.0000 1.0000
67.3200 704.0000 1.0000
67.3300 701.0000 1.0000
67.3400 712.0000 1.0000
67.3500 676.0000 1.0000
67.3600 695.0000 1.0000
67.3700 678.0000 1.0000
67.3800 653.0000 1.0000
67.3900 685.0000 1.0000
67.4000 704.0000 1.0000
67.4100 723.0000 1.0000
67.4200 680.0000 1.0000
67.4300 694.0000 1.0000
67.4400 680.0000 1.0000
67.4500 693.0000 1.0000
67.4600 696.0000 1.0000
67.4700 675.0000 1.0000
67.4800 692.0000 1.0000
67.4900 665.0000 1.0000
67.5000 708.0000 1.0000
67.5100 682.0000 1.0000
67.5200 665.0000 1.0000
67.5300 645.0000 1.0000
67.5400 667.0000 1.0000
67.5500 698.0000 1.0000
67.5600 684.0000 1.0000
67.5700 704.0000 1.0000
67.5800 660.0000 1.0000
67.5900 689.0000 1.0000
67.6000 657.0000 1.0000
67.6100 670.0000 1.0000
67.6200 667.0000 1.0000
67.6300 686.0000 1.0000
67.6400 665.0000 1.0000
67.6500 657.0000 1.0000
67.6600 653.0000 1.0000
67.6700 643.0000 1.0000
67.6800 636.0000 1.0000
67.6900 655.0000 1.0000
67.7000 660.0000 1.0000
67.7100 708.0000 1.0000
67.7200 703.0000 1.0000
67.7300 679.0000 1.0000
67.7400 681.0000 1.0000
67.7500 669.0000 1.0000
67.7600 639.0000 1.0000
67.7700 645.0000 1.0000
67.7800 663.0000 1.0000
67.7900 645.0000 1.0000
67.8000 651.0000 1.0000
67.8100 656.0000 1.0000
67.8200 634.0000 1.0000
67.8300 631.0000 1.0000
67.8400 677.0000 1.0000
67.8500 700.0000 1.0000
67.8600 697.0000 1.0000
67.8700 651.0000 1.0000
67.8800 663.0000 1.0000
67.8900 626.0000 1.0000
67.9000 656.0000 1.0000
67.9100 629.0000 1.0000
67.9200 657.0000 1.0000
67.9300 684.0000 1.0000
67.9400 659.0000 1.0000
67.9500 659.0000 1.0000
67.9600 688.0000 1.0000
67.9700 665.0000 1.0000
67.9800 688.0000 1.0000
67.9900 663.0000 1.0000
68.0000 692.0000 1.0000
68.0100 663.0000 1.0000
68.0200 668.0000 1.0000
68.0300 692.0000 1.0000
68.0400 671.0000 1.0000
68.0500 685.0000 1.0000
68.0600 686.0000 1.0000
68.0700 679.0000 1.0000
68.0800 633.0000 1.0000
68.0900 662.0000 1.0000
68.1000 683.0000 1.0000
68.1100 640.0000 1.0000
68.1200 635.0000 1.0000
68.1300 679.0000 1.0000
68.1400 643.0000 1.0000
68.1500 616.0000 1.0000
68.1600 648.0000 1.0000
68.1700 648.0000 1.0000
68.1800 673.0000 1.0000
68.1900 690.0000 1.0000
68.2000 683.0000 1.0000
68.2100 669.0000 1.0000
68.2200 646.0000 1.0000
68.2300 640.0000 1.0000
68.2400 611.0000 1.0000
68.2500 643.0000 1.0000
68.2600 613.0000 1.0000
68.2700 631.0000 1.0000
68.2800 636.0000 1.0000
68.2900 663.0000 1.0000
68.3000 652.0000 1.0000
68.3100 637.0000 1.0000
68.3200 677.0000 1.0000
68.3300 612.0000 1.0000
68.3400 662.0000 1.0000
68.3500 695.0000 1.0000
68.3600 623.0000 1.0000
68.3700 657.0000 1.0000
68.3800 617.0000 1.0000
68.3900 642.0000 1.0000
68.4000 616.0000 1.0000
68.4100 654.0000 1.0000
68.4200 615.0000 1.0000
68.4300 656.0000 1.0000
68.4400 644.0000 1.0000
68.4500 645.0000 1.0000
68.4600 644.0000 1.0000
68.4700 669.0000 1.0000
68.4800 632.0000 1.0000
68.4900 658.0000 1.0000
68.5000 629.0000 1.0000
68.5100 657.0000 1.0000
68.5200 620.0000 1.0000
68.5300 627.0000 1.0000
68.5400 647.0000 1.0000
68.5500 647.0000 1.0000
68.5600 623.0000 1.0000
68.5700 642.0000 1.0000
68.5800 629.0000 1.0000
68.5900 652.0000 1.0000
68.6000 641.0000 1.0000
68.6100 621.0000 1.0000
68.6200 674.0000 1.0000
68.6300 623.0000 1.0000
68.6400 615.0000 1.0000
68.6500 615.0000 1.0000
68.6600 656.0000 1.0000
68.6700 655.0000 1.0000
68.6800 662.0000 1.0000
68.6900 655.0000 1.0000
68.7000 640.0000 1.0000
68.7100 622.0000 1.0000
68.7200 595.0000 1.0000
68.7300 658.0000 1.0000
68.7400 647.0000 1.0000
68.7500 606.0000 1.0000
68.7600 632.0000 1.0000
68.7700 614.0000 1.0000
68.7800 633.0000 1.0000
68.7900 605.0000 1.0000
68.8000 664.0000 1.0000
68.8100 604.0000 1.0000
68.8200 654.0000 1.0000
68.8300 647.0000 1.0000
68.8400 632.0000 1.0000
68.8500 630.0000 1.0000
68.8600 607.0000 1.0000
68.8700 648.0000 1.0000
68.8800 619.0000 1.0000
68.8900 631.0000 1.0000
68.9000 602.0000 1.0000
68.9100 625.0000 1.0000
68.9200 634.0000 1.0000
68.9300 681.0000 1.0000
68.9400 684.0000 1.0000
68.9500 675.0000 1.0000
68.9600 645.0000 1.0000
68.9700 632.0000 1.0000
68.9800 627.0000 1.0000
68.9900 621.0000 1.0000
69.0000 626.0000 1.0000
69.0100 644.0000 1.0000
69.0200 650.0000 1.0000
69.0300 612.0000 1.0000
69.0400 656.0000 1.0000
69.0500 612.0000 1.0000
69.0600 649.0000 1.0000
69.0700 633.0000 1.0000
69.0800 628.0000 1.0000
69.0900 674.0000 1.0000
69.1000 619.0000 1.0000
69.1100 578.0000 1.0000
69.1200 628.0000 1.0000
69.1300 651.0000 1.0000
69.1400 642.0000 1.0000
69.1500 637.0000 1.0000
69.1600 659.0000 1.0000
69.1700 630.0000 1.0000
69.1800 604.0000 1.0000
69.1900 572.0000 1.0000
69.2000 615.0000 1.0000
69.2100 627.0000 1.0000
69.2200 578.0000 1.0000
69.2300 649.0000 1.0000
69.2400 613.0000 1.0000
69.2500 633.0000 1.0000
69.2600 651.0000 1.0000
69.2700 658.0000 1.0000
69.2800 641.0000 1.0000
69.2900 613.0000 1.0000
69.3000 620.0000 1.0000
69.3100 669.0000 1.0000
69.3200 632.0000 1.0000
69.3300 635.0000 1.0000
69.3400 578.0000 1.0000
69.3500 581.0000 1.0000
69.3600 595.0000 1.0000
69.3700 622.0000 1.0000
69.3800 670.0000 1.0000
69.3900 621.0000 1.0000
69.4000 626.0000 1.0000
69.4100 609.0000 1.0000
69.4200 621.0000 1.0000
69.4300 630.0000 1.0000
69.4400 659.0000 1.0000
69.4500 656.0000 1.0000
69.4600 662.0000 1.0000
69.4700 667.0000 1.0000
69.4800 588.0000 1.0000
69.4900 645.0000 1.0000
69.5000 635.0000 1.0000
69.5100 621.0000 1.0000
69.5200 626.0000 1.0000
69.5300 653.0000 1.0000
69.5400 661.0000 1.0000
69.5500 607.0000 1.0000
69.5600 615.0000 1.0000
69.5700 621.0000 1.0000
69.5800 656.0000 1.0000
69.5900 611.0000 1.0000
69.6000 633.0000 1.0000
69.6100 644.0000 1.0000
69.6200 593.0000 1.0000
69.6300 593.0000 1.0000
69.6400 612.0000 1.0000
69.6500 643.0000 1.0000
69.6600 651.0000 1.0000
69.6700 662.0000 1.0000
69.6800 615.0000 1.0000
69.6900 638.0000 1.0000
69.7000 580.0000 1.0000
69.7100 653.0000 1.0000
69.7200 619.0000 1.0000
69.7300 624.0000 1.0000
69.7400 630.0000 1.0000
69.7500 617.0000 1.0000
69.7600 632.0000 1.0000
69.7700 645.0000 1.0000
69.7800 665.0000 1.0000
69.7900 641.0000 1.0000
69.8000 632.0000 1.0000
69.8100 607.0000 1.0000
69.8200 603.0000 1.0000
69.8300 653.0000 1.0000
69.8400 608.0000 1.0000
69.8500 600.0000 1.0000
69.8600 597.0000 1.0000
69.8700 634.0000 1.0000
69.8800 620.0000 1.0000
69.8900 643.0000 1.0000
69.9000 607.0000 1.0000
69.9100 628.0000 1.0000
69.9200 651.0000 1.0000
69.9300 597.0000 1.0000
69.9400 594.0000 1.0000
69.9500 634.0000 1.0000
69.9600 608.0000 1.0000
69.9700 647.0000 1.0000
69.9800 609.0000 1.0000
69.9900 609.0000 1.0000
70.0000 626.0000 1.0000
*RAS_INT_END
*RAS_TEMPERATURE_START
*RAS_TEMPERATURE_END
*RAS_DATA_END
