*RAS_DATA_START
*RAS_HEADER_START
*DISP_FMT_X "%.2f"
*DISP_FMT_Y "%.0f"
*DISP_FULLSCALE "18450.0000000000"
*DISP_LINE_COLOR "255.0000000000"
*DISP_LINE_STYLE "0.0000000000"
*DISP_LINE_WIDTH "0.2500000000"
*DISP_NOTE "測定データ-7"
*DISP_OFFSET_Y "0.0000000000"
*DISP_PEAKSEARCH_UNIT_Y "cps"
*DISP_RANGE_BOTTOM "0.0000000000"
*DISP_RANGE_LEFT "20.0000000000"
*DISP_RANGE_LOGCUTOFF "0.0100000000"
*DISP_RANGE_RIGHT "70.0000000000"
*DISP_RANGE_TOP "18450.0000000000"
*DISP_SCALE_MODE_Y "0.0000000000"
*DISP_TAB_NAME "2θ/θ"
*DISP_TITLE_Y "強度"
*DISP_UNIT_Y "cps"
*DISP_WINDOW_NAME "MSG_MACROENGINE"
*FILE_COMMENT " "
*FILE_MD5 ""
*FILE_MEMO " "
*FILE_OPERATOR "Administrator"
*FILE_SAMPLE " "
*FILE_TYPE "RAS_RAW"
*FILE_USERGROUP "システムマネージャ"
*FILE_VERSION "1.0000000000"
*HW_ATTACHMENT_ID "ATT0025"
*HW_ATTACHMENT_NAME "標準|Standard"
*HW_COUNTER_ID-0 "CUT0025"
*HW_COUNTER_ID-1 "CUT0020"
*HW_COUNTER_ID-2 "CUT0020"
*HW_COUNTER_ID-3 "CSL0021"
*HW_COUNTER_ID-4 "CMC0021"
*HW_COUNTER_NAME-0 "D/teX Ultra|D/teX Ultra"
*HW_COUNTER_NAME-1 "None|None"
*HW_COUNTER_NAME-2 "None|None"
*HW_COUNTER_NAME-3 "BBM|BBM"
*HW_COUNTER_NAME-4 "検出器モノクロメータ|Detector monochromator"
*HW_COUNTER_SELECT_NAME "D/teX Ultra|D/teX Ultra"
*HW_GONIOMETER_ID "GON0023"
*HW_GONIOMETER_NAME "SmartLab|SmartLab"
*HW_GONIOMETER_RADIUS-0 "90.0"
*HW_GONIOMETER_RADIUS-1 "114.0"
*HW_GONIOMETER_RADIUS-2 "190.0"
*HW_GONIOMETER_RADIUS-3 "300.0"
*HW_GONIOMETER_RADIUS-4 "187.0"
*HW_GONIOMETER_RADIUS-5 "300.0"
*HW_GONIOMETER_RADIUS-6 "113.0"
*HW_GONIOMETER_RADIUS-7 "331.0"
*HW_I_OPT_ID-0 "CBO0021"
*HW_I_OPT_ID-1 "ICR0023"
*HW_I_OPT_ID-2 "ISL0021"
*HW_I_OPT_ID-3 "ISO0021"
*HW_I_OPT_ID-4 "IAD0021"
*HW_I_OPT_ID-5 "IPR0001"
*HW_I_OPT_NAME-0 "CBOユニット|CBO unit"
*HW_I_OPT_NAME-1 "標準入射光学ユニット|Standard incident optical unit"
*HW_I_OPT_NAME-2 "標準入射スリットボックス|Standard incident slit box"
*HW_I_OPT_NAME-3 "入射平行スリット|Incident parallel slit"
*HW_I_OPT_NAME-4 "長手制限スリット|Length limiting slit"
*HW_I_OPT_NAME-5 "None|None"
*HW_R_ATTENUATER_AUTOMODE "0"
*HW_R_OPT_ID-0 "RSS0021"
*HW_R_OPT_ID-1 "RCR0023"
*HW_R_OPT_ID-2 "RSO0021"
*HW_R_OPT_ID-3 "RRS0021"
*HW_R_OPT_ID-4 "ATN0021"
*HW_R_OPT_ID-5 "RFL0021"
*HW_R_OPT_ID-6 "RAD0021"
*HW_R_OPT_NAME-0 "標準受光スリットボックス1|Standard receiving slit box # 1"
*HW_R_OPT_NAME-1 "標準受光光学ユニット1|Standard receiving unit # 1"
*HW_R_OPT_NAME-2 "標準受光光学ユニット2|Standard receiving optical unit # 2"
*HW_R_OPT_NAME-3 "標準受光スリットボックス2|Standard receiving slit box # 2"
*HW_R_OPT_NAME-4 "標準アッテネータ|Standard Attenuator"
*HW_R_OPT_NAME-5 "Cu Kβ|Cu K-beta"
*HW_R_OPT_NAME-6 "調整用受光スリット|Alignment receiving slit"
*HW_SAMPLE_HOLDER_ID "SMP0023"
*HW_SAMPLE_HOLDER_NAME "標準Zステージ|Standard Z stage"
*HW_XG_CURRENT_MAX "50"
*HW_XG_CURRENT_MIN "2"
*HW_XG_CURRENT_RESOLUTION "1"
*HW_XG_CURRENT_UNIT "mA"
*HW_XG_FOCUS "1mm x 10mm"
*HW_XG_FOCUS_TYPE "Normal"
*HW_XG_ID ""
*HW_XG_NAME "3kW 封入管(ID:1200)|3kW Sealed tube(ID:1200)"
*HW_XG_TARGET_ATOMIC_NUMBER "29.0000000000"
*HW_XG_TARGET_NAME "Cu"
*HW_XG_TYPE "Hermetic"
*HW_XG_VOLTAGE_MAX "60"
*HW_XG_VOLTAGE_MIN "20"
*HW_XG_VOLTAGE_RESOLUTION "1"
*HW_XG_VOLTAGE_UNIT "kV"
*HW_XG_WATT_MAX "1.500"
*HW_XG_WATT_UNIT "kW"
*HW_XG_WAVE_LENGTH_ALPHA1 "1.540593"
*HW_XG_WAVE_LENGTH_ALPHA2 "1.544414"
*HW_XG_WAVE_LENGTH_BETA "1.392250"
*MEAS_COND_AXIS_NAME-0 "2θ/θ"
*MEAS_COND_AXIS_NAME-1 "2θ"
*MEAS_COND_AXIS_NAME-2 "ω"
*MEAS_COND_AXIS_NAME-3 "Z"
*MEAS_COND_AXIS_NAME-4 "2θ/ω"
*MEAS_COND_AXIS_NAME-5 "θs"
*MEAS_COND_AXIS_NAME-6 "θd"
*MEAS_COND_AXIS_NAME-7 "Ts"
*MEAS_COND_AXIS_NAME-8 "CBO選択スリット"
*MEAS_COND_AXIS_NAME-9 "M"
*MEAS_COND_AXIS_NAME-10 "入射平行スリット"
*MEAS_COND_AXIS_NAME-11 "入射スリット"
*MEAS_COND_AXIS_NAME-12 ""
*MEAS_COND_AXIS_NAME-13 "Zs"
*MEAS_COND_AXIS_NAME-14 "入射光学素子"
*MEAS_COND_AXIS_NAME-15 "長手制限スリット"
*MEAS_COND_AXIS_NAME-16 "センタースリット"
*MEAS_COND_AXIS_NAME-17 "フィルター"
*MEAS_COND_AXIS_NAME-18 "受光スリット1"
*MEAS_COND_AXIS_NAME-19 "受光スリット2"
*MEAS_COND_AXIS_NAME-20 "受光光学素子"
*MEAS_COND_AXIS_NAME-21 "受光平行スリット"
*MEAS_COND_AXIS_NAME-22 "調整用受光スリット"
*MEAS_COND_AXIS_NAME-23 ""
*MEAS_COND_AXIS_NAME-24 ""
*MEAS_COND_AXIS_NAME-25 "Zd"
*MEAS_COND_AXIS_NAME-26 "アッテネータ"
*MEAS_COND_AXIS_NAME-27 "検出器モノクロメータ"
*MEAS_COND_AXIS_NAME-28 "モノクロメータスリット"
*MEAS_COND_AXIS_NAME-29 "プライマリビーム"
*MEAS_COND_AXIS_NAME-30 "PHA"
*MEAS_COND_AXIS_NAME_INTERNAL-0 "TwoThetaTheta"
*MEAS_COND_AXIS_NAME_INTERNAL-1 "TwoTheta"
*MEAS_COND_AXIS_NAME_INTERNAL-2 "Omega"
*MEAS_COND_AXIS_NAME_INTERNAL-3 "Z"
*MEAS_COND_AXIS_NAME_INTERNAL-4 "TwoThetaOmega"
*MEAS_COND_AXIS_NAME_INTERNAL-5 "ThetaS"
*MEAS_COND_AXIS_NAME_INTERNAL-6 "ThetaD"
*MEAS_COND_AXIS_NAME_INTERNAL-7 "Ts"
*MEAS_COND_AXIS_NAME_INTERNAL-8 "CBO"
*MEAS_COND_AXIS_NAME_INTERNAL-9 "CBO-M"
*MEAS_COND_AXIS_NAME_INTERNAL-10 "IncidentSollerSlit"
*MEAS_COND_AXIS_NAME_INTERNAL-11 "IncidentSlitBox"
*MEAS_COND_AXIS_NAME_INTERNAL-12 "IncidentSlitBox-_Axis"
*MEAS_COND_AXIS_NAME_INTERNAL-13 "Zs"
*MEAS_COND_AXIS_NAME_INTERNAL-14 "IncidentMonochromator"
*MEAS_COND_AXIS_NAME_INTERNAL-15 "IncidentAxdSlit"
*MEAS_COND_AXIS_NAME_INTERNAL-16 "CenterSlit"
*MEAS_COND_AXIS_NAME_INTERNAL-17 "Filter"
*MEAS_COND_AXIS_NAME_INTERNAL-18 "ReceivingSlitBox1"
*MEAS_COND_AXIS_NAME_INTERNAL-19 "ReceivingSlitBox2"
*MEAS_COND_AXIS_NAME_INTERNAL-20 "ReceivingOptics"
*MEAS_COND_AXIS_NAME_INTERNAL-21 "ReceivingSollerSlit"
*MEAS_COND_AXIS_NAME_INTERNAL-22 "ReceivingAxdSlit"
*MEAS_COND_AXIS_NAME_INTERNAL-23 "ReceivingSlitBox1-_Axis"
*MEAS_COND_AXIS_NAME_INTERNAL-24 "ReceivingSlitBox2-_Axis"
*MEAS_COND_AXIS_NAME_INTERNAL-25 "ReceivingSlitBox2-Zd"
*MEAS_COND_AXIS_NAME_INTERNAL-26 "Attenuator"
*MEAS_COND_AXIS_NAME_INTERNAL-27 "CounterMonochromator"
*MEAS_COND_AXIS_NAME_INTERNAL-28 "CounterSlit"
*MEAS_COND_AXIS_NAME_INTERNAL-29 "IncidentPrimary"
*MEAS_COND_AXIS_NAME_INTERNAL-30 "PHA"
*MEAS_COND_AXIS_NAME_MAGICNO-0 "83951616.0000000000"
*MEAS_COND_AXIS_NAME_MAGICNO-1 "268632064.0000000000"
*MEAS_COND_AXIS_NAME_MAGICNO-2 "268500992.0000000000"
*MEAS_COND_AXIS_NAME_MAGICNO-3 "285278208.0000000000"
*MEAS_COND_AXIS_NAME_MAGICNO-4 "83951616.0000000000"
*MEAS_COND_AXIS_NAME_MAGICNO-5 "131072.0000000000"
*MEAS_COND_AXIS_NAME_MAGICNO-6 "131072.0000000000"
*MEAS_COND_AXIS_NAME_MAGICNO-7 "318898176.0000000000"
*MEAS_COND_AXIS_NAME_MAGICNO-8 "20971521.0000000000"
*MEAS_COND_AXIS_NAME_MAGICNO-9 "285343744.0000000000"
*MEAS_COND_AXIS_NAME_MAGICNO-10 "20971521.0000000000"
*MEAS_COND_AXIS_NAME_MAGICNO-11 "22020097.0000000000"
*MEAS_COND_AXIS_NAME_MAGICNO-12 "25165824.0000000000"
*MEAS_COND_AXIS_NAME_MAGICNO-13 "318898176.0000000000"
*MEAS_COND_AXIS_NAME_MAGICNO-14 "1.0000000000"
*MEAS_COND_AXIS_NAME_MAGICNO-15 "20971521.0000000000"
*MEAS_COND_AXIS_NAME_MAGICNO-16 "20971521.0000000000"
*MEAS_COND_AXIS_NAME_MAGICNO-17 "20971521.0000000000"
*MEAS_COND_AXIS_NAME_MAGICNO-18 "23068673.0000000000"
*MEAS_COND_AXIS_NAME_MAGICNO-19 "23068673.0000000000"
*MEAS_COND_AXIS_NAME_MAGICNO-20 "20971521.0000000000"
*MEAS_COND_AXIS_NAME_MAGICNO-21 "20971521.0000000000"
*MEAS_COND_AXIS_NAME_MAGICNO-22 "20971521.0000000000"
*MEAS_COND_AXIS_NAME_MAGICNO-23 "25165824.0000000000"
*MEAS_COND_AXIS_NAME_MAGICNO-24 "25165824.0000000000"
*MEAS_COND_AXIS_NAME_MAGICNO-25 "285343744.0000000000"
*MEAS_COND_AXIS_NAME_MAGICNO-26 "17301505.0000000000"
*MEAS_COND_AXIS_NAME_MAGICNO-27 "20971521.0000000000"
*MEAS_COND_AXIS_NAME_MAGICNO-28 "20971521.0000000000"
*MEAS_COND_AXIS_NAME_MAGICNO-29 "20971521.0000000000"
*MEAS_COND_AXIS_NAME_MAGICNO-30 "0.0000000000"
*MEAS_COND_AXIS_OFFSET-0 "-"
*MEAS_COND_AXIS_OFFSET-1 "-0.0801000000"
*MEAS_COND_AXIS_OFFSET-2 "0.1646000000"
*MEAS_COND_AXIS_OFFSET-3 "-"
*MEAS_COND_AXIS_OFFSET-4 "-"
*MEAS_COND_AXIS_OFFSET-5 "0.1646000000"
*MEAS_COND_AXIS_OFFSET-6 "-0.2447000000"
*MEAS_COND_AXIS_OFFSET-7 "-"
*MEAS_COND_AXIS_OFFSET-8 "-"
*MEAS_COND_AXIS_OFFSET-9 "-"
*MEAS_COND_AXIS_OFFSET-10 "-"
*MEAS_COND_AXIS_OFFSET-11 "-"
*MEAS_COND_AXIS_OFFSET-12 "-"
*MEAS_COND_AXIS_OFFSET-13 "-"
*MEAS_COND_AXIS_OFFSET-14 "-"
*MEAS_COND_AXIS_OFFSET-15 "-"
*MEAS_COND_AXIS_OFFSET-16 "-"
*MEAS_COND_AXIS_OFFSET-17 "-"
*MEAS_COND_AXIS_OFFSET-18 "-"
*MEAS_COND_AXIS_OFFSET-19 "-"
*MEAS_COND_AXIS_OFFSET-20 "-"
*MEAS_COND_AXIS_OFFSET-21 "-"
*MEAS_COND_AXIS_OFFSET-22 "-"
*MEAS_COND_AXIS_OFFSET-23 "-"
*MEAS_COND_AXIS_OFFSET-24 "-"
*MEAS_COND_AXIS_OFFSET-25 "-"
*MEAS_COND_AXIS_OFFSET-26 "-"
*MEAS_COND_AXIS_OFFSET-27 "-"
*MEAS_COND_AXIS_OFFSET-28 "-"
*MEAS_COND_AXIS_OFFSET-29 "-"
*MEAS_COND_AXIS_OFFSET-30 "-"
*MEAS_COND_AXIS_POSITION-0 "0.0000000000"
*MEAS_COND_AXIS_POSITION-1 "0.0000000000"
*MEAS_COND_AXIS_POSITION-2 "0.0000000000"
*MEAS_COND_AXIS_POSITION-3 "-2.9256400000"
*MEAS_COND_AXIS_POSITION-4 "0.0000000000"
*MEAS_COND_AXIS_POSITION-5 "0.0000000000"
*MEAS_COND_AXIS_POSITION-6 "0.0000000000"
*MEAS_COND_AXIS_POSITION-7 "-0.4278800000"
*MEAS_COND_AXIS_POSITION-8 "BB"
*MEAS_COND_AXIS_POSITION-9 "0.0000000000"
*MEAS_COND_AXIS_POSITION-10 "Soller_slit_5.0deg"
*MEAS_COND_AXIS_POSITION-11 "2/3deg"
*MEAS_COND_AXIS_POSITION-12 "2.2088000000"
*MEAS_COND_AXIS_POSITION-13 "-1.0609400000"
*MEAS_COND_AXIS_POSITION-14 "0.0000000000"
*MEAS_COND_AXIS_POSITION-15 "10.0mm"
*MEAS_COND_AXIS_POSITION-16 "None"
*MEAS_COND_AXIS_POSITION-17 "Cu_K-beta"
*MEAS_COND_AXIS_POSITION-18 "13.000mm"
*MEAS_COND_AXIS_POSITION-19 "13.000mm"
*MEAS_COND_AXIS_POSITION-20 "No_unit"
*MEAS_COND_AXIS_POSITION-21 "Soller_slit_5.0deg"
*MEAS_COND_AXIS_POSITION-22 "None"
*MEAS_COND_AXIS_POSITION-23 "13.0000000000"
*MEAS_COND_AXIS_POSITION-24 "13.0000000000"
*MEAS_COND_AXIS_POSITION-25 "0.0081300000"
*MEAS_COND_AXIS_POSITION-26 "Open"
*MEAS_COND_AXIS_POSITION-27 "None"
*MEAS_COND_AXIS_POSITION-28 "None"
*MEAS_COND_AXIS_POSITION-29 "None"
*MEAS_COND_AXIS_POSITION-30 "38.0000000000"
*MEAS_COND_AXIS_UNIT-0 "deg"
*MEAS_COND_AXIS_UNIT-1 "deg"
*MEAS_COND_AXIS_UNIT-2 "deg"
*MEAS_COND_AXIS_UNIT-3 "mm"
*MEAS_COND_AXIS_UNIT-4 "deg"
*MEAS_COND_AXIS_UNIT-5 "deg"
*MEAS_COND_AXIS_UNIT-6 "deg"
*MEAS_COND_AXIS_UNIT-7 "mm"
*MEAS_COND_AXIS_UNIT-8 ""
*MEAS_COND_AXIS_UNIT-9 "pulse"
*MEAS_COND_AXIS_UNIT-10 ""
*MEAS_COND_AXIS_UNIT-11 ""
*MEAS_COND_AXIS_UNIT-12 "mm"
*MEAS_COND_AXIS_UNIT-13 "mm"
*MEAS_COND_AXIS_UNIT-14 ""
*MEAS_COND_AXIS_UNIT-15 ""
*MEAS_COND_AXIS_UNIT-16 ""
*MEAS_COND_AXIS_UNIT-17 ""
*MEAS_COND_AXIS_UNIT-18 ""
*MEAS_COND_AXIS_UNIT-19 ""
*MEAS_COND_AXIS_UNIT-20 ""
*MEAS_COND_AXIS_UNIT-21 ""
*MEAS_COND_AXIS_UNIT-22 ""
*MEAS_COND_AXIS_UNIT-23 "mm"
*MEAS_COND_AXIS_UNIT-24 "mm"
*MEAS_COND_AXIS_UNIT-25 "mm"
*MEAS_COND_AXIS_UNIT-26 ""
*MEAS_COND_AXIS_UNIT-27 ""
*MEAS_COND_AXIS_UNIT-28 ""
*MEAS_COND_AXIS_UNIT-29 ""
*MEAS_COND_AXIS_UNIT-30 "div"
*MEAS_COND_COUNTER_CNTLOSS_CORR "0.0000000000"
*MEAS_COND_COUNTER_PHABASE "38.0000000000"
*MEAS_COND_COUNTER_PHAWINDOW "16.0000000000"
*MEAS_COND_COUNTER_PHA_UNIT "div"
*MEAS_COND_COUNTER_TAUDIFF "30.0000000000"
*MEAS_COND_COUNTER_TAUINT "0.0000000000"
*MEAS_COND_IRRADIATION_MODE "OFF"
*MEAS_COND_IRRADIATION_WIDTH ""
*MEAS_COND_OPT_ATTR "集中法"
*MEAS_COND_OPT_NAME "@集中法"
*MEAS_COND_UNSYMMETRIC_MODE "OFF"
*MEAS_COND_XG_CURRENT "30.0000000000"
*MEAS_COND_XG_VOLTAGE "40.0000000000"
*MEAS_COND_XG_WAVE_TYPE "Ka"
*MEAS_DATA_COUNT "5001.0000000000"
*MEAS_SCAN_AXIS_X "2θ/θ"
*MEAS_SCAN_AXIS_X_INTERNAL "TwoThetaTheta"
*MEAS_SCAN_END_TIME "07/09/22 15:24:58"
*MEAS_SCAN_MODE "CONTINUOUS"
*MEAS_SCAN_MONITOR "0"
*MEAS_SCAN_RESOLUTION_X "0.0002"
*MEAS_SCAN_SPEED "2.5"
*MEAS_SCAN_SPEED_UNIT "deg/min"
*MEAS_SCAN_START "20.0000000000"
*MEAS_SCAN_START_TIME "07/09/22 15:03:36"
*MEAS_SCAN_STEP "0.0100000000"
*MEAS_SCAN_STOP "70.0000000000"
*MEAS_SCAN_UNIT_X "deg"
*MEAS_SCAN_UNIT_Y "counts"
*RAS_HEADER_END
*RAS_INT_START
20.0000 1023.0000 1.0000
20.0100 1058.0000 1.0000
20.0200 1069.0000 1.0000
20.0300 1040.0000 1.0000
20.0400 996.0000 1.0000
20.0500 1096.0000 1.0000
20.0600 1067.0000 1.0000
20.0700 1034.0000 1.0000
20.0800 1033.0000 1.0000
20.0900 992.0000 1.0000
20.1000 998.0000 1.0000
20.1100 979.0000 1.0000
20.1200 1006.0000 1.0000
20.1300 995.0000 1.0000
20.1400 1051.0000 1.0000
20.1500 1039.0000 1.0000
20.1600 1048.0000 1.0000
20.1700 1053.0000 1.0000
20.1800 1037.0000 1.0000
20.1900 1043.0000 1.0000
20.2000 1023.0000 1.0000
20.2100 1072.0000 1.0000
20.2200 1043.0000 1.0000
20.2300 1035.0000 1.0000
20.2400 1015.0000 1.0000
20.2500 1022.0000 1.0000
20.2600 1020.0000 1.0000
20.2700 1043.0000 1.0000
20.2800 1062.0000 1.0000
20.2900 1095.0000 1.0000
20.3000 1049.0000 1.0000
20.3100 1065.0000 1.0000
20.3200 1069.0000 1.0000
20.3300 1045.0000 1.0000
20.3400 1052.0000 1.0000
20.3500 1101.0000 1.0000
20.3600 1053.0000 1.0000
20.3700 1063.0000 1.0000
20.3800 1080.0000 1.0000
20.3900 1072.0000 1.0000
20.4000 1045.0000 1.0000
20.4100 1077.0000 1.0000
20.4200 1005.0000 1.0000
20.4300 1072.0000 1.0000
20.4400 1061.0000 1.0000
20.4500 1046.0000 1.0000
20.4600 1042.0000 1.0000
20.4700 1028.0000 1.0000
20.4800 1056.0000 1.0000
20.4900 1048.0000 1.0000
20.5000 1027.0000 1.0000
20.5100 1033.0000 1.0000
20.5200 1083.0000 1.0000
20.5300 1001.0000 1.0000
20.5400 1035.0000 1.0000
20.5500 1074.0000 1.0000
20.5600 1014.0000 1.0000
20.5700 1005.0000 1.0000
20.5800 1009.0000 1.0000
20.5900 986.0000 1.0000
20.6000 958.0000 1.0000
20.6100 1051.0000 1.0000
20.6200 1009.0000 1.0000
20.6300 983.0000 1.0000
20.6400 984.0000 1.0000
20.6500 1043.0000 1.0000
20.6600 1026.0000 1.0000
20.6700 1002.0000 1.0000
20.6800 1090.0000 1.0000
20.6900 1047.0000 1.0000
20.7000 1063.0000 1.0000
20.7100 1039.0000 1.0000
20.7200 969.0000 1.0000
20.7300 1058.0000 1.0000
20.7400 1052.0000 1.0000
20.7500 1048.0000 1.0000
20.7600 1087.0000 1.0000
20.7700 1017.0000 1.0000
20.7800 995.0000 1.0000
20.7900 1020.0000 1.0000
20.8000 1029.0000 1.0000
20.8100 1006.0000 1.0000
20.8200 1046.0000 1.0000
20.8300 1018.0000 1.0000
20.8400 1072.0000 1.0000
20.8500 1057.0000 1.0000
20.8600 1044.0000 1.0000
20.8700 1017.0000 1.0000
20.8800 954.0000 1.0000
20.8900 1016.0000 1.0000
20.9000 1042.0000 1.0000
20.9100 1035.0000 1.0000
20.9200 1018.0000 1.0000
20.9300 1038.0000 1.0000
20.9400 1012.0000 1.0000
20.9500 1002.0000 1.0000
20.9600 1027.0000 1.0000
20.9700 1035.0000 1.0000
20.9800 1040.0000 1.0000
20.9900 996.0000 1.0000
21.0000 993.0000 1.0000
21.0100 1049.0000 1.0000
21.0200 1038.0000 1.0000
21.0300 1008.0000 1.0000
21.0400 1007.0000 1.0000
21.0500 1047.0000 1.0000
21.0600 961.0000 1.0000
21.0700 1049.0000 1.0000
21.0800 1060.0000 1.0000
21.0900 1055.0000 1.0000
21.1000 1075.0000 1.0000
21.1100 1088.0000 1.0000
21.1200 1032.0000 1.0000
21.1300 997.0000 1.0000
21.1400 1038.0000 1.0000
21.1500 1068.0000 1.0000
21.1600 1069.0000 1.0000
21.1700 1010.0000 1.0000
21.1800 1042.0000 1.0000
21.1900 1091.0000 1.0000
21.2000 1044.0000 1.0000
21.2100 1041.0000 1.0000
21.2200 1056.0000 1.0000
21.2300 1020.0000 1.0000
21.2400 1001.0000 1.0000
21.2500 1019.0000 1.0000
21.2600 1021.0000 1.0000
21.2700 1018.0000 1.0000
21.2800 980.0000 1.0000
21.2900 1008.0000 1.0000
21.3000 1043.0000 1.0000
21.3100 1070.0000 1.0000
21.3200 1020.0000 1.0000
21.3300 977.0000 1.0000
21.3400 1058.0000 1.0000
21.3500 976.0000 1.0000
21.3600 1078.0000 1.0000
21.3700 1023.0000 1.0000
21.3800 1065.0000 1.0000
21.3900 1005.0000 1.0000
21.4000 1009.0000 1.0000
21.4100 1061.0000 1.0000
21.4200 1102.0000 1.0000
21.4300 1070.0000 1.0000
21.4400 1062.0000 1.0000
21.4500 1080.0000 1.0000
21.4600 1059.0000 1.0000
21.4700 1013.0000 1.0000
21.4800 1047.0000 1.0000
21.4900 1029.0000 1.0000
21.5000 1083.0000 1.0000
21.5100 1037.0000 1.0000
21.5200 1038.0000 1.0000
21.5300 1036.0000 1.0000
21.5400 1044.0000 1.0000
21.5500 1068.0000 1.0000
21.5600 1002.0000 1.0000
21.5700 1004.0000 1.0000
21.5800 1022.0000 1.0000
21.5900 1020.0000 1.0000
21.6000 1043.0000 1.0000
21.6100 1028.0000 1.0000
21.6200 1043.0000 1.0000
21.6300 1069.0000 1.0000
21.6400 1065.0000 1.0000
21.6500 1059.0000 1.0000
21.6600 971.0000 1.0000
21.6700 1044.0000 1.0000
21.6800 1010.0000 1.0000
21.6900 1059.0000 1.0000
21.7000 1030.0000 1.0000
21.7100 1031.0000 1.0000
21.7200 1076.0000 1.0000
21.7300 1065.0000 1.0000
21.7400 1011.0000 1.0000
21.7500 995.0000 1.0000
21.7600 1071.0000 1.0000
21.7700 1040.0000 1.0000
21.7800 1037.0000 1.0000
21.7900 1002.0000 1.0000
21.8000 1002.0000 1.0000
21.8100 990.0000 1.0000
21.8200 1021.0000 1.0000
21.8300 1042.0000 1.0000
21.8400 976.0000 1.0000
21.8500 1001.0000 1.0000
21.8600 1052.0000 1.0000
21.8700 1088.0000 1.0000
21.8800 994.0000 1.0000
21.8900 1061.0000 1.0000
21.9000 1002.0000 1.0000
21.9100 1047.0000 1.0000
21.9200 971.0000 1.0000
21.9300 1027.0000 1.0000
21.9400 997.0000 1.0000
21.9500 1023.0000 1.0000
21.9600 983.0000 1.0000
21.9700 1020.0000 1.0000
21.9800 1093.0000 1.0000
21.9900 1084.0000 1.0000
22.0000 999.0000 1.0000
22.0100 1068.0000 1.0000
22.0200 1075.0000 1.0000
22.0300 1007.0000 1.0000
22.0400 1034.0000 1.0000
22.0500 1006.0000 1.0000
22.0600 998.0000 1.0000
22.0700 1033.0000 1.0000
22.0800 1017.0000 1.0000
22.0900 1022.0000 1.0000
22.1000 1016.0000 1.0000
22.1100 1034.0000 1.0000
22.1200 1058.0000 1.0000
22.1300 991.0000 1.0000
22.1400 1060.0000 1.0000
22.1500 1049.0000 1.0000
22.1600 1015.0000 1.0000
22.1700 1022.0000 1.0000
22.1800 1047.0000 1.0000
22.1900 1075.0000 1.0000
22.2000 1052.0000 1.0000
22.2100 1066.0000 1.0000
22.2200 1058.0000 1.0000
22.2300 1005.0000 1.0000
22.2400 1029.0000 1.0000
22.2500 1038.0000 1.0000
22.2600 998.0000 1.0000
22.2700 1003.0000 1.0000
22.2800 1050.0000 1.0000
22.2900 1002.0000 1.0000
22.3000 1046.0000 1.0000
22.3100 1019.0000 1.0000
22.3200 1016.0000 1.0000
22.3300 1027.0000 1.0000
22.3400 1039.0000 1.0000
22.3500 1065.0000 1.0000
22.3600 1031.0000 1.0000
22.3700 1014.0000 1.0000
22.3800 1023.0000 1.0000
22.3900 1024.0000 1.0000
22.4000 1012.0000 1.0000
22.4100 1004.0000 1.0000
22.4200 979.0000 1.0000
22.4300 1035.0000 1.0000
22.4400 1040.0000 1.0000
22.4500 1025.0000 1.0000
22.4600 1000.0000 1.0000
22.4700 1046.0000 1.0000
22.4800 1006.0000 1.0000
22.4900 1054.0000 1.0000
22.5000 988.0000 1.0000
22.5100 1081.0000 1.0000
22.5200 975.0000 1.0000
22.5300 1027.0000 1.0000
22.5400 963.0000 1.0000
22.5500 966.0000 1.0000
22.5600 1006.0000 1.0000
22.5700 1031.0000 1.0000
22.5800 1073.0000 1.0000
22.5900 1024.0000 1.0000
22.6000 1058.0000 1.0000
22.6100 1028.0000 1.0000
22.6200 1040.0000 1.0000
22.6300 1006.0000 1.0000
22.6400 995.0000 1.0000
22.6500 1033.0000 1.0000
22.6600 1016.0000 1.0000
22.6700 1019.0000 1.0000
22.6800 1016.0000 1.0000
22.6900 1038.0000 1.0000
22.7000 1056.0000 1.0000
22.7100 972.0000 1.0000
22.7200 984.0000 1.0000
22.7300 1050.0000 1.0000
22.7400 994.0000 1.0000
22.7500 1068.0000 1.0000
22.7600 1026.0000 1.0000
22.7700 1029.0000 1.0000
22.7800 1019.0000 1.0000
22.7900 1047.0000 1.0000
22.8000 1052.0000 1.0000
22.8100 1018.0000 1.0000
22.8200 1075.0000 1.0000
22.8300 981.0000 1.0000
22.8400 1052.0000 1.0000
22.8500 1050.0000 1.0000
22.8600 1055.0000 1.0000
22.8700 1025.0000 1.0000
22.8800 1030.0000 1.0000
22.8900 1003.0000 1.0000
22.9000 1050.0000 1.0000
22.9100 1026.0000 1.0000
22.9200 1059.0000 1.0000
22.9300 1010.0000 1.0000
22.9400 991.0000 1.0000
22.9500 1003.0000 1.0000
22.9600 1013.0000 1.0000
22.9700 1030.0000 1.0000
22.9800 983.0000 1.0000
22.9900 1024.0000 1.0000
23.0000 1042.0000 1.0000
23.0100 1011.0000 1.0000
23.0200 1003.0000 1.0000
23.0300 1039.0000 1.0000
23.0400 1028.0000 1.0000
23.0500 987.0000 1.0000
23.0600 1047.0000 1.0000
23.0700 1015.0000 1.0000
23.0800 1060.0000 1.0000
23.0900 1006.0000 1.0000
23.1000 1048.0000 1.0000
23.1100 1010.0000 1.0000
23.1200 1048.0000 1.0000
23.1300 1015.0000 1.0000
23.1400 1020.0000 1.0000
23.1500 1025.0000 1.0000
23.1600 1015.0000 1.0000
23.1700 960.0000 1.0000
23.1800 1036.0000 1.0000
23.1900 1071.0000 1.0000
23.2000 968.0000 1.0000
23.2100 1062.0000 1.0000
23.2200 1062.0000 1.0000
23.2300 994.0000 1.0000
23.2400 1014.0000 1.0000
23.2500 1048.0000 1.0000
23.2600 992.0000 1.0000
23.2700 936.0000 1.0000
23.2800 1014.0000 1.0000
23.2900 1039.0000 1.0000
23.3000 1041.0000 1.0000
23.3100 1017.0000 1.0000
23.3200 993.0000 1.0000
23.3300 988.0000 1.0000
23.3400 1016.0000 1.0000
23.3500 1015.0000 1.0000
23.3600 997.0000 1.0000
23.3700 968.0000 1.0000
23.3800 1027.0000 1.0000
23.3900 1018.0000 1.0000
23.4000 1020.0000 1.0000
23.4100 1027.0000 1.0000
23.4200 1029.0000 1.0000
23.4300 1021.0000 1.0000
23.4400 1058.0000 1.0000
23.4500 1012.0000 1.0000
23.4600 1015.0000 1.0000
23.4700 1018.0000 1.0000
23.4800 1007.0000 1.0000
23.4900 1041.0000 1.0000
23.5000 1018.0000 1.0000
23.5100 1025.0000 1.0000
23.5200 1040.0000 1.0000
23.5300 1001.0000 1.0000
23.5400 1003.0000 1.0000
23.5500 987.0000 1.0000
23.5600 1002.0000 1.0000
23.5700 1060.0000 1.0000
23.5800 1089.0000 1.0000
23.5900 1054.0000 1.0000
23.6000 967.0000 1.0000
23.6100 1021.0000 1.0000
23.6200 1023.0000 1.0000
23.6300 1075.0000 1.0000
23.6400 1023.0000 1.0000
23.6500 1062.0000 1.0000
23.6600 1002.0000 1.0000
23.6700 1028.0000 1.0000
23.6800 1017.0000 1.0000
23.6900 1010.0000 1.0000
23.7000 1060.0000 1.0000
23.7100 969.0000 1.0000
23.7200 1043.0000 1.0000
23.7300 1040.0000 1.0000
23.7400 1032.0000 1.0000
23.7500 1046.0000 1.0000
23.7600 1047.0000 1.0000
23.7700 1017.0000 1.0000
23.7800 1061.0000 1.0000
23.7900 1058.0000 1.0000
23.8000 1056.0000 1.0000
23.8100 1045.0000 1.0000
23.8200 1043.0000 1.0000
23.8300 1037.0000 1.0000
23.8400 1076.0000 1.0000
23.8500 1022.0000 1.0000
23.8600 1084.0000 1.0000
23.8700 1071.0000 1.0000
23.8800 1049.0000 1.0000
23.8900 1031.0000 1.0000
23.9000 1026.0000 1.0000
23.9100 1014.0000 1.0000
23.9200 1063.0000 1.0000
23.9300 1083.0000 1.0000
23.9400 1029.0000 1.0000
23.9500 1047.0000 1.0000
23.9600 1004.0000 1.0000
23.9700 1040.0000 1.0000
23.9800 1059.0000 1.0000
23.9900 1071.0000 1.0000
24.0000 1088.0000 1.0000
24.0100 1087.0000 1.0000
24.0200 1118.0000 1.0000
24.0300 1106.0000 1.0000
24.0400 1059.0000 1.0000
24.0500 1063.0000 1.0000
24.0600 1038.0000 1.0000
24.0700 1095.0000 1.0000
24.0800 1124.0000 1.0000
24.0900 1111.0000 1.0000
24.1000 1053.0000 1.0000
24.1100 1092.0000 1.0000
24.1200 1061.0000 1.0000
24.1300 1099.0000 1.0000
24.1400 1090.0000 1.0000
24.1500 1123.0000 1.0000
24.1600 1055.0000 1.0000
24.1700 1054.0000 1.0000
24.1800 1082.0000 1.0000
24.1900 1080.0000 1.0000
24.2000 1076.0000 1.0000
24.2100 1057.0000 1.0000
24.2200 1046.0000 1.0000
24.2300 1058.0000 1.0000
24.2400 1032.0000 1.0000
24.2500 1017.0000 1.0000
24.2600 1051.0000 1.0000
24.2700 1029.0000 1.0000
24.2800 1042.0000 1.0000
24.2900 992.0000 1.0000
24.3000 1028.0000 1.0000
24.3100 1040.0000 1.0000
24.3200 1061.0000 1.0000
24.3300 1068.0000 1.0000
24.3400 1019.0000 1.0000
24.3500 1062.0000 1.0000
24.3600 993.0000 1.0000
24.3700 1035.0000 1.0000
24.3800 976.0000 1.0000
24.3900 1038.0000 1.0000
24.4000 968.0000 1.0000
24.4100 969.0000 1.0000
24.4200 974.0000 1.0000
24.4300 1008.0000 1.0000
24.4400 986.0000 1.0000
24.4500 1027.0000 1.0000
24.4600 1008.0000 1.0000
24.4700 984.0000 1.0000
24.4800 1021.0000 1.0000
24.4900 995.0000 1.0000
24.5000 1029.0000 1.0000
24.5100 983.0000 1.0000
24.5200 986.0000 1.0000
24.5300 1079.0000 1.0000
24.5400 1032.0000 1.0000
24.5500 1054.0000 1.0000
24.5600 1045.0000 1.0000
24.5700 1013.0000 1.0000
24.5800 1038.0000 1.0000
24.5900 1020.0000 1.0000
24.6000 978.0000 1.0000
24.6100 1017.0000 1.0000
24.6200 1011.0000 1.0000
24.6300 995.0000 1.0000
24.6400 1024.0000 1.0000
24.6500 1035.0000 1.0000
24.6600 997.0000 1.0000
24.6700 1025.0000 1.0000
24.6800 1062.0000 1.0000
24.6900 1028.0000 1.0000
24.7000 1061.0000 1.0000
24.7100 1015.0000 1.0000
24.7200 1027.0000 1.0000
24.7300 986.0000 1.0000
24.7400 994.0000 1.0000
24.7500 999.0000 1.0000
24.7600 1003.0000 1.0000
24.7700 949.0000 1.0000
24.7800 1007.0000 1.0000
24.7900 1002.0000 1.0000
24.8000 986.0000 1.0000
24.8100 1004.0000 1.0000
24.8200 1007.0000 1.0000
24.8300 982.0000 1.0000
24.8400 1015.0000 1.0000
24.8500 1027.0000 1.0000
24.8600 1005.0000 1.0000
24.8700 1005.0000 1.0000
24.8800 1020.0000 1.0000
24.8900 1025.0000 1.0000
24.9000 1051.0000 1.0000
24.9100 1024.0000 1.0000
24.9200 1001.0000 1.0000
24.9300 1032.0000 1.0000
24.9400 988.0000 1.0000
24.9500 990.0000 1.0000
24.9600 1026.0000 1.0000
24.9700 995.0000 1.0000
24.9800 1049.0000 1.0000
24.9900 990.0000 1.0000
25.0000 991.0000 1.0000
25.0100 975.0000 1.0000
25.0200 991.0000 1.0000
25.0300 1028.0000 1.0000
25.0400 983.0000 1.0000
25.0500 1051.0000 1.0000
25.0600 1013.0000 1.0000
25.0700 994.0000 1.0000
25.0800 1013.0000 1.0000
25.0900 988.0000 1.0000
25.1000 973.0000 1.0000
25.1100 1002.0000 1.0000
25.1200 1030.0000 1.0000
25.1300 1036.0000 1.0000
25.1400 971.0000 1.0000
25.1500 994.0000 1.0000
25.1600 969.0000 1.0000
25.1700 962.0000 1.0000
25.1800 990.0000 1.0000
25.1900 980.0000 1.0000
25.2000 980.0000 1.0000
25.2100 967.0000 1.0000
25.2200 978.0000 1.0000
25.2300 989.0000 1.0000
25.2400 950.0000 1.0000
25.2500 1041.0000 1.0000
25.2600 997.0000 1.0000
25.2700 1013.0000 1.0000
25.2800 1023.0000 1.0000
25.2900 1008.0000 1.0000
25.3000 979.0000 1.0000
25.3100 1026.0000 1.0000
25.3200 1014.0000 1.0000
25.3300 939.0000 1.0000
25.3400 1005.0000 1.0000
25.3500 1006.0000 1.0000
25.3600 1006.0000 1.0000
25.3700 1002.0000 1.0000
25.3800 966.0000 1.0000
25.3900 984.0000 1.0000
25.4000 1039.0000 1.0000
25.4100 983.0000 1.0000
25.4200 986.0000 1.0000
25.4300 1003.0000 1.0000
25.4400 1021.0000 1.0000
25.4500 1013.0000 1.0000
25.4600 1046.0000 1.0000
25.4700 1007.0000 1.0000
25.4800 980.0000 1.0000
25.4900 1007.0000 1.0000
25.5000 1008.0000 1.0000
25.5100 1044.0000 1.0000
25.5200 1027.0000 1.0000
25.5300 1029.0000 1.0000
25.5400 1001.0000 1.0000
25.5500 998.0000 1.0000
25.5600 976.0000 1.0000
25.5700 1045.0000 1.0000
25.5800 1021.0000 1.0000
25.5900 1063.0000 1.0000
25.6000 976.0000 1.0000
25.6100 947.0000 1.0000
25.6200 958.0000 1.0000
25.6300 1019.0000 1.0000
25.6400 1008.0000 1.0000
25.6500 958.0000 1.0000
25.6600 1047.0000 1.0000
25.6700 1052.0000 1.0000
25.6800 1056.0000 1.0000
25.6900 1031.0000 1.0000
25.7000 1031.0000 1.0000
25.7100 1002.0000 1.0000
25.7200 992.0000 1.0000
25.7300 1027.0000 1.0000
25.7400 1033.0000 1.0000
25.7500 1089.0000 1.0000
25.7600 992.0000 1.0000
25.7700 1036.0000 1.0000
25.7800 1034.0000 1.0000
25.7900 1067.0000 1.0000
25.8000 1019.0000 1.0000
25.8100 990.0000 1.0000
25.8200 1025.0000 1.0000
25.8300 1098.0000 1.0000
25.8400 1061.0000 1.0000
25.8500 1072.0000 1.0000
25.8600 1022.0000 1.0000
25.8700 1016.0000 1.0000
25.8800 1059.0000 1.0000
25.8900 1059.0000 1.0000
25.9000 1083.0000 1.0000
25.9100 1038.0000 1.0000
25.9200 1068.0000 1.0000
25.9300 1064.0000 1.0000
25.9400 1100.0000 1.0000
25.9500 1115.0000 1.0000
25.9600 1136.0000 1.0000
25.9700 1087.0000 1.0000
25.9800 1094.0000 1.0000
25.9900 1126.0000 1.0000
26.0000 1196.0000 1.0000
26.0100 1125.0000 1.0000
26.0200 1097.0000 1.0000
26.0300 1085.0000 1.0000
26.0400 1148.0000 1.0000
26.0500 1195.0000 1.0000
26.0600 1163.0000 1.0000
26.0700 1169.0000 1.0000
26.0800 1202.0000 1.0000
26.0900 1213.0000 1.0000
26.1000 1256.0000 1.0000
26.1100 1222.0000 1.0000
26.1200 1280.0000 1.0000
26.1300 1253.0000 1.0000
26.1400 1310.0000 1.0000
26.1500 1334.0000 1.0000
26.1600 1358.0000 1.0000
26.1700 1339.0000 1.0000
26.1800 1412.0000 1.0000
26.1900 1425.0000 1.0000
26.2000 1456.0000 1.0000
26.2100 1539.0000 1.0000
26.2200 1505.0000 1.0000
26.2300 1621.0000 1.0000
26.2400 1680.0000 1.0000
26.2500 1695.0000 1.0000
26.2600 1750.0000 1.0000
26.2700 1840.0000 1.0000
26.2800 1916.0000 1.0000
26.2900 2035.0000 1.0000
26.3000 2124.0000 1.0000
26.3100 2187.0000 1.0000
26.3200 2314.0000 1.0000
26.3300 2431.0000 1.0000
26.3400 2689.0000 1.0000
26.3500 2830.0000 1.0000
26.3600 2863.0000 1.0000
26.3700 3064.0000 1.0000
26.3800 3226.0000 1.0000
26.3900 3412.0000 1.0000
26.4000 3482.0000 1.0000
26.4100 3461.0000 1.0000
26.4200 3690.0000 1.0000
26.4300 3601.0000 1.0000
26.4400 3683.0000 1.0000
26.4500 3611.0000 1.0000
26.4600 3513.0000 1.0000
26.4700 3425.0000 1.0000
26.4800 3339.0000 1.0000
26.4900 3290.0000 1.0000
26.5000 2993.0000 1.0000
26.5100 2786.0000 1.0000
26.5200 2696.0000 1.0000
26.5300 2602.0000 1.0000
26.5400 2396.0000 1.0000
26.5500 2267.0000 1.0000
26.5600 2134.0000 1.0000
26.5700 2108.0000 1.0000
26.5800 1966.0000 1.0000
26.5900 1853.0000 1.0000
26.6000 1800.0000 1.0000
26.6100 1728.0000 1.0000
26.6200 1668.0000 1.0000
26.6300 1582.0000 1.0000
26.6400 1559.0000 1.0000
26.6500 1514.0000 1.0000
26.6600 1483.0000 1.0000
26.6700 1412.0000 1.0000
26.6800 1436.0000 1.0000
26.6900 1352.0000 1.0000
26.7000 1320.0000 1.0000
26.7100 1354.0000 1.0000
26.7200 1249.0000 1.0000
26.7300 1214.0000 1.0000
26.7400 1273.0000 1.0000
26.7500 1251.0000 1.0000
26.7600 1220.0000 1.0000
26.7700 1170.0000 1.0000
26.7800 1183.0000 1.0000
26.7900 1187.0000 1.0000
26.8000 1171.0000 1.0000
26.8100 1061.0000 1.0000
26.8200 1107.0000 1.0000
26.8300 1043.0000 1.0000
26.8400 1079.0000 1.0000
26.8500 1104.0000 1.0000
26.8600 1087.0000 1.0000
26.8700 1076.0000 1.0000
26.8800 1124.0000 1.0000
26.8900 1000.0000 1.0000
26.9000 1023.0000 1.0000
26.9100 1040.0000 1.0000
26.9200 1073.0000 1.0000
26.9300 1072.0000 1.0000
26.9400 1033.0000 1.0000
26.9500 1022.0000 1.0000
26.9600 1006.0000 1.0000
26.9700 1084.0000 1.0000
26.9800 1041.0000 1.0000
26.9900 1036.0000 1.0000
27.0000 994.0000 1.0000
27.0100 1002.0000 1.0000
27.0200 1034.0000 1.0000
27.0300 1024.0000 1.0000
27.0400 993.0000 1.0000
27.0500 990.0000 1.0000
27.0600 986.0000 1.0000
27.0700 1025.0000 1.0000
27.0800 927.0000 1.0000
27.0900 990.0000 1.0000
27.1000 999.0000 1.0000
27.1100 989.0000 1.0000
27.1200 1044.0000 1.0000
27.1300 1000.0000 1.0000
27.1400 1001.0000 1.0000
27.1500 1018.0000 1.0000
27.1600 1009.0000 1.0000
27.1700 962.0000 1.0000
27.1800 933.0000 1.0000
27.1900 924.0000 1.0000
27.2000 962.0000 1.0000
27.2100 956.0000 1.0000
27.2200 966.0000 1.0000
27.2300 964.0000 1.0000
27.2400 946.0000 1.0000
27.2500 955.0000 1.0000
27.2600 909.0000 1.0000
27.2700 981.0000 1.0000
27.2800 948.0000 1.0000
27.2900 956.0000 1.0000
27.3000 947.0000 1.0000
27.3100 952.0000 1.0000
27.3200 977.0000 1.0000
27.3300 948.0000 1.0000
27.3400 889.0000 1.0000
27.3500 961.0000 1.0000
27.3600 947.0000 1.0000
27.3700 911.0000 1.0000
27.3800 977.0000 1.0000
27.3900 978.0000 1.0000
27.4000 960.0000 1.0000
27.4100 1004.0000 1.0000
27.4200 973.0000 1.0000
27.4300 951.0000 1.0000
27.4400 930.0000 1.0000
27.4500 939.0000 1.0000
27.4600 887.0000 1.0000
27.4700 899.0000 1.0000
27.4800 911.0000 1.0000
27.4900 863.0000 1.0000
27.5000 911.0000 1.0000
27.5100 880.0000 1.0000
27.5200 930.0000 1.0000
27.5300 943.0000 1.0000
27.5400 912.0000 1.0000
27.5500 933.0000 1.0000
27.5600 904.0000 1.0000
27.5700 954.0000 1.0000
27.5800 940.0000 1.0000
27.5900 910.0000 1.0000
27.6000 895.0000 1.0000
27.6100 923.0000 1.0000
27.6200 932.0000 1.0000
27.6300 923.0000 1.0000
27.6400 937.0000 1.0000
27.6500 945.0000 1.0000
27.6600 908.0000 1.0000
27.6700 927.0000 1.0000
27.6800 959.0000 1.0000
27.6900 885.0000 1.0000
27.7000 915.0000 1.0000
27.7100 927.0000 1.0000
27.7200 930.0000 1.0000
27.7300 887.0000 1.0000
27.7400 872.0000 1.0000
27.7500 883.0000 1.0000
27.7600 896.0000 1.0000
27.7700 867.0000 1.0000
27.7800 880.0000 1.0000
27.7900 916.0000 1.0000
27.8000 878.0000 1.0000
27.8100 845.0000 1.0000
27.8200 939.0000 1.0000
27.8300 932.0000 1.0000
27.8400 911.0000 1.0000
27.8500 950.0000 1.0000
27.8600 959.0000 1.0000
27.8700 941.0000 1.0000
27.8800 941.0000 1.0000
27.8900 924.0000 1.0000
27.9000 911.0000 1.0000
27.9100 934.0000 1.0000
27.9200 896.0000 1.0000
27.9300 887.0000 1.0000
27.9400 884.0000 1.0000
27.9500 872.0000 1.0000
27.9600 874.0000 1.0000
27.9700 875.0000 1.0000
27.9800 883.0000 1.0000
27.9900 948.0000 1.0000
28.0000 982.0000 1.0000
28.0100 878.0000 1.0000
28.0200 874.0000 1.0000
28.0300 880.0000 1.0000
28.0400 909.0000 1.0000
28.0500 845.0000 1.0000
28.0600 873.0000 1.0000
28.0700 852.0000 1.0000
28.0800 900.0000 1.0000
28.0900 891.0000 1.0000
28.1000 867.0000 1.0000
28.1100 903.0000 1.0000
28.1200 878.0000 1.0000
28.1300 897.0000 1.0000
28.1400 859.0000 1.0000
28.1500 861.0000 1.0000
28.1600 936.0000 1.0000
28.1700 927.0000 1.0000
28.1800 875.0000 1.0000
28.1900 843.0000 1.0000
28.2000 901.0000 1.0000
28.2100 837.0000 1.0000
28.2200 891.0000 1.0000
28.2300 847.0000 1.0000
28.2400 855.0000 1.0000
28.2500 844.0000 1.0000
28.2600 889.0000 1.0000
28.2700 876.0000 1.0000
28.2800 901.0000 1.0000
28.2900 858.0000 1.0000
28.3000 908.0000 1.0000
28.3100 902.0000 1.0000
28.3200 902.0000 1.0000
28.3300 839.0000 1.0000
28.3400 905.0000 1.0000
28.3500 878.0000 1.0000
28.3600 872.0000 1.0000
28.3700 867.0000 1.0000
28.3800 888.0000 1.0000
28.3900 915.0000 1.0000
28.4000 876.0000 1.0000
28.4100 897.0000 1.0000
28.4200 864.0000 1.0000
28.4300 875.0000 1.0000
28.4400 902.0000 1.0000
28.4500 856.0000 1.0000
28.4600 846.0000 1.0000
28.4700 849.0000 1.0000
28.4800 858.0000 1.0000
28.4900 866.0000 1.0000
28.5000 840.0000 1.0000
28.5100 882.0000 1.0000
28.5200 881.0000 1.0000
28.5300 893.0000 1.0000
28.5400 914.0000 1.0000
28.5500 880.0000 1.0000
28.5600 866.0000 1.0000
28.5700 864.0000 1.0000
28.5800 875.0000 1.0000
28.5900 866.0000 1.0000
28.6000 892.0000 1.0000
28.6100 888.0000 1.0000
28.6200 865.0000 1.0000
28.6300 864.0000 1.0000
28.6400 839.0000 1.0000
28.6500 810.0000 1.0000
28.6600 876.0000 1.0000
28.6700 859.0000 1.0000
28.6800 895.0000 1.0000
28.6900 865.0000 1.0000
28.7000 857.0000 1.0000
28.7100 839.0000 1.0000
28.7200 826.0000 1.0000
28.7300 841.0000 1.0000
28.7400 817.0000 1.0000
28.7500 853.0000 1.0000
28.7600 843.0000 1.0000
28.7700 847.0000 1.0000
28.7800 832.0000 1.0000
28.7900 863.0000 1.0000
28.8000 889.0000 1.0000
28.8100 856.0000 1.0000
28.8200 856.0000 1.0000
28.8300 845.0000 1.0000
28.8400 834.0000 1.0000
28.8500 889.0000 1.0000
28.8600 878.0000 1.0000
28.8700 910.0000 1.0000
28.8800 807.0000 1.0000
28.8900 800.0000 1.0000
28.9000 884.0000 1.0000
28.9100 882.0000 1.0000
28.9200 878.0000 1.0000
28.9300 865.0000 1.0000
28.9400 887.0000 1.0000
28.9500 876.0000 1.0000
28.9600 852.0000 1.0000
28.9700 839.0000 1.0000
28.9800 831.0000 1.0000
28.9900 840.0000 1.0000
29.0000 862.0000 1.0000
29.0100 832.0000 1.0000
29.0200 864.0000 1.0000
29.0300 858.0000 1.0000
29.0400 816.0000 1.0000
29.0500 868.0000 1.0000
29.0600 835.0000 1.0000
29.0700 834.0000 1.0000
29.0800 860.0000 1.0000
29.0900 837.0000 1.0000
29.1000 820.0000 1.0000
29.1100 883.0000 1.0000
29.1200 865.0000 1.0000
29.1300 855.0000 1.0000
29.1400 841.0000 1.0000
29.1500 836.0000 1.0000
29.1600 794.0000 1.0000
29.1700 840.0000 1.0000
29.1800 857.0000 1.0000
29.1900 880.0000 1.0000
29.2000 861.0000 1.0000
29.2100 847.0000 1.0000
29.2200 831.0000 1.0000
29.2300 824.0000 1.0000
29.2400 816.0000 1.0000
29.2500 821.0000 1.0000
29.2600 867.0000 1.0000
29.2700 858.0000 1.0000
29.2800 807.0000 1.0000
29.2900 858.0000 1.0000
29.3000 863.0000 1.0000
29.3100 822.0000 1.0000
29.3200 867.0000 1.0000
29.3300 785.0000 1.0000
29.3400 833.0000 1.0000
29.3500 856.0000 1.0000
29.3600 845.0000 1.0000
29.3700 870.0000 1.0000
29.3800 794.0000 1.0000
29.3900 852.0000 1.0000
29.4000 908.0000 1.0000
29.4100 847.0000 1.0000
29.4200 881.0000 1.0000
29.4300 850.0000 1.0000
29.4400 838.0000 1.0000
29.4500 814.0000 1.0000
29.4600 837.0000 1.0000
29.4700 843.0000 1.0000
29.4800 843.0000 1.0000
29.4900 819.0000 1.0000
29.5000 837.0000 1.0000
29.5100 853.0000 1.0000
29.5200 848.0000 1.0000
29.5300 848.0000 1.0000
29.5400 832.0000 1.0000
29.5500 847.0000 1.0000
29.5600 798.0000 1.0000
29.5700 841.0000 1.0000
29.5800 847.0000 1.0000
29.5900 821.0000 1.0000
29.6000 818.0000 1.0000
29.6100 810.0000 1.0000
29.6200 813.0000 1.0000
29.6300 845.0000 1.0000
29.6400 819.0000 1.0000
29.6500 835.0000 1.0000
29.6600 806.0000 1.0000
29.6700 830.0000 1.0000
29.6800 816.0000 1.0000
29.6900 803.0000 1.0000
29.7000 819.0000 1.0000
29.7100 851.0000 1.0000
29.7200 796.0000 1.0000
29.7300 854.0000 1.0000
29.7400 824.0000 1.0000
29.7500 849.0000 1.0000
29.7600 865.0000 1.0000
29.7700 802.0000 1.0000
29.7800 849.0000 1.0000
29.7900 813.0000 1.0000
29.8000 841.0000 1.0000
29.8100 858.0000 1.0000
29.8200 793.0000 1.0000
29.8300 815.0000 1.0000
29.8400 825.0000 1.0000
29.8500 822.0000 1.0000
29.8600 874.0000 1.0000
29.8700 845.0000 1.0000
29.8800 780.0000 1.0000
29.8900 815.0000 1.0000
29.9000 842.0000 1.0000
29.9100 848.0000 1.0000
29.9200 825.0000 1.0000
29.9300 830.0000 1.0000
29.9400 838.0000 1.0000
29.9500 837.0000 1.0000
29.9600 799.0000 1.0000
29.9700 845.0000 1.0000
29.9800 846.0000 1.0000
29.9900 834.0000 1.0000
30.0000 792.0000 1.0000
30.0100 841.0000 1.0000
30.0200 774.0000 1.0000
30.0300 841.0000 1.0000
30.0400 779.0000 1.0000
30.0500 846.0000 1.0000
30.0600 815.0000 1.0000
30.0700 815.0000 1.0000
30.0800 825.0000 1.0000
30.0900 824.0000 1.0000
30.1000 858.0000 1.0000
30.1100 832.0000 1.0000
30.1200 792.0000 1.0000
30.1300 795.0000 1.0000
30.1400 848.0000 1.0000
30.1500 815.0000 1.0000
30.1600 794.0000 1.0000
30.1700 786.0000 1.0000
30.1800 794.0000 1.0000
30.1900 819.0000 1.0000
30.2000 824.0000 1.0000
30.2100 795.0000 1.0000
30.2200 796.0000 1.0000
30.2300 833.0000 1.0000
30.2400 843.0000 1.0000
30.2500 787.0000 1.0000
30.2600 826.0000 1.0000
30.2700 825.0000 1.0000
30.2800 802.0000 1.0000
30.2900 825.0000 1.0000
30.3000 812.0000 1.0000
30.3100 822.0000 1.0000
30.3200 849.0000 1.0000
30.3300 833.0000 1.0000
30.3400 826.0000 1.0000
30.3500 777.0000 1.0000
30.3600 779.0000 1.0000
30.3700 805.0000 1.0000
30.3800 816.0000 1.0000
30.3900 790.0000 1.0000
30.4000 862.0000 1.0000
30.4100 797.0000 1.0000
30.4200 829.0000 1.0000
30.4300 788.0000 1.0000
30.4400 792.0000 1.0000
30.4500 776.0000 1.0000
30.4600 820.0000 1.0000
30.4700 814.0000 1.0000
30.4800 837.0000 1.0000
30.4900 780.0000 1.0000
30.5000 768.0000 1.0000
30.5100 797.0000 1.0000
30.5200 790.0000 1.0000
30.5300 813.0000 1.0000
30.5400 792.0000 1.0000
30.5500 769.0000 1.0000
30.5600 743.0000 1.0000
30.5700 767.0000 1.0000
30.5800 756.0000 1.0000
30.5900 818.0000 1.0000
30.6000 767.0000 1.0000
30.6100 764.0000 1.0000
30.6200 786.0000 1.0000
30.6300 786.0000 1.0000
30.6400 850.0000 1.0000
30.6500 768.0000 1.0000
30.6600 775.0000 1.0000
30.6700 820.0000 1.0000
30.6800 760.0000 1.0000
30.6900 771.0000 1.0000
30.7000 773.0000 1.0000
30.7100 813.0000 1.0000
30.7200 772.0000 1.0000
30.7300 744.0000 1.0000
30.7400 791.0000 1.0000
30.7500 816.0000 1.0000
30.7600 832.0000 1.0000
30.7700 808.0000 1.0000
30.7800 784.0000 1.0000
30.7900 800.0000 1.0000
30.8000 774.0000 1.0000
30.8100 785.0000 1.0000
30.8200 789.0000 1.0000
30.8300 785.0000 1.0000
30.8400 740.0000 1.0000
30.8500 801.0000 1.0000
30.8600 769.0000 1.0000
30.8700 795.0000 1.0000
30.8800 837.0000 1.0000
30.8900 824.0000 1.0000
30.9000 798.0000 1.0000
30.9100 770.0000 1.0000
30.9200 781.0000 1.0000
30.9300 826.0000 1.0000
30.9400 798.0000 1.0000
30.9500 818.0000 1.0000
30.9600 783.0000 1.0000
30.9700 808.0000 1.0000
30.9800 810.0000 1.0000
30.9900 770.0000 1.0000
31.0000 766.0000 1.0000
31.0100 750.0000 1.0000
31.0200 765.0000 1.0000
31.0300 744.0000 1.0000
31.0400 782.0000 1.0000
31.0500 753.0000 1.0000
31.0600 797.0000 1.0000
31.0700 793.0000 1.0000
31.0800 770.0000 1.0000
31.0900 801.0000 1.0000
31.1000 831.0000 1.0000
31.1100 795.0000 1.0000
31.1200 818.0000 1.0000
31.1300 799.0000 1.0000
31.1400 792.0000 1.0000
31.1500 789.0000 1.0000
31.1600 814.0000 1.0000
31.1700 822.0000 1.0000
31.1800 768.0000 1.0000
31.1900 789.0000 1.0000
31.2000 832.0000 1.0000
31.2100 827.0000 1.0000
31.2200 786.0000 1.0000
31.2300 803.0000 1.0000
31.2400 813.0000 1.0000
31.2500 816.0000 1.0000
31.2600 754.0000 1.0000
31.2700 809.0000 1.0000
31.2800 756.0000 1.0000
31.2900 773.0000 1.0000
31.3000 769.0000 1.0000
31.3100 746.0000 1.0000
31.3200 759.0000 1.0000
31.3300 783.0000 1.0000
31.3400 767.0000 1.0000
31.3500 822.0000 1.0000
31.3600 771.0000 1.0000
31.3700 752.0000 1.0000
31.3800 765.0000 1.0000
31.3900 790.0000 1.0000
31.4000 791.0000 1.0000
31.4100 774.0000 1.0000
31.4200 772.0000 1.0000
31.4300 768.0000 1.0000
31.4400 766.0000 1.0000
31.4500 774.0000 1.0000
31.4600 764.0000 1.0000
31.4700 756.0000 1.0000
31.4800 778.0000 1.0000
31.4900 731.0000 1.0000
31.5000 755.0000 1.0000
31.5100 744.0000 1.0000
31.5200 750.0000 1.0000
31.5300 785.0000 1.0000
31.5400 780.0000 1.0000
31.5500 749.0000 1.0000
31.5600 757.0000 1.0000
31.5700 732.0000 1.0000
31.5800 753.0000 1.0000
31.5900 766.0000 1.0000
31.6000 766.0000 1.0000
31.6100 773.0000 1.0000
31.6200 756.0000 1.0000
31.6300 772.0000 1.0000
31.6400 750.0000 1.0000
31.6500 730.0000 1.0000
31.6600 722.0000 1.0000
31.6700 728.0000 1.0000
31.6800 726.0000 1.0000
31.6900 749.0000 1.0000
31.7000 758.0000 1.0000
31.7100 749.0000 1.0000
31.7200 735.0000 1.0000
31.7300 757.0000 1.0000
31.7400 805.0000 1.0000
31.7500 783.0000 1.0000
31.7600 764.0000 1.0000
31.7700 762.0000 1.0000
31.7800 743.0000 1.0000
31.7900 765.0000 1.0000
31.8000 787.0000 1.0000
31.8100 798.0000 1.0000
31.8200 717.0000 1.0000
31.8300 784.0000 1.0000
31.8400 754.0000 1.0000
31.8500 705.0000 1.0000
31.8600 727.0000 1.0000
31.8700 764.0000 1.0000
31.8800 766.0000 1.0000
31.8900 742.0000 1.0000
31.9000 785.0000 1.0000
31.9100 798.0000 1.0000
31.9200 765.0000 1.0000
31.9300 777.0000 1.0000
31.9400 716.0000 1.0000
31.9500 783.0000 1.0000
31.9600 780.0000 1.0000
31.9700 797.0000 1.0000
31.9800 712.0000 1.0000
31.9900 738.0000 1.0000
32.0000 760.0000 1.0000
32.0100 737.0000 1.0000
32.0200 758.0000 1.0000
32.0300 743.0000 1.0000
32.0400 731.0000 1.0000
32.0500 733.0000 1.0000
32.0600 754.0000 1.0000
32.0700 747.0000 1.0000
32.0800 779.0000 1.0000
32.0900 825.0000 1.0000
32.1000 735.0000 1.0000
32.1100 736.0000 1.0000
32.1200 759.0000 1.0000
32.1300 740.0000 1.0000
32.1400 784.0000 1.0000
32.1500 723.0000 1.0000
32.1600 769.0000 1.0000
32.1700 723.0000 1.0000
32.1800 736.0000 1.0000
32.1900 745.0000 1.0000
32.2000 771.0000 1.0000
32.2100 752.0000 1.0000
32.2200 771.0000 1.0000
32.2300 776.0000 1.0000
32.2400 751.0000 1.0000
32.2500 738.0000 1.0000
32.2600 765.0000 1.0000
32.2700 762.0000 1.0000
32.2800 761.0000 1.0000
32.2900 792.0000 1.0000
32.3000 749.0000 1.0000
32.3100 695.0000 1.0000
32.3200 717.0000 1.0000
32.3300 744.0000 1.0000
32.3400 756.0000 1.0000
32.3500 788.0000 1.0000
32.3600 720.0000 1.0000
32.3700 727.0000 1.0000
32.3800 747.0000 1.0000
32.3900 725.0000 1.0000
32.4000 772.0000 1.0000
32.4100 767.0000 1.0000
32.4200 738.0000 1.0000
32.4300 749.0000 1.0000
32.4400 681.0000 1.0000
32.4500 695.0000 1.0000
32.4600 741.0000 1.0000
32.4700 772.0000 1.0000
32.4800 768.0000 1.0000
32.4900 750.0000 1.0000
32.5000 719.0000 1.0000
32.5100 776.0000 1.0000
32.5200 756.0000 1.0000
32.5300 752.0000 1.0000
32.5400 745.0000 1.0000
32.5500 715.0000 1.0000
32.5600 719.0000 1.0000
32.5700 744.0000 1.0000
32.5800 768.0000 1.0000
32.5900 747.0000 1.0000
32.6000 726.0000 1.0000
32.6100 795.0000 1.0000
32.6200 705.0000 1.0000
32.6300 746.0000 1.0000
32.6400 741.0000 1.0000
32.6500 744.0000 1.0000
32.6600 729.0000 1.0000
32.6700 717.0000 1.0000
32.6800 730.0000 1.0000
32.6900 757.0000 1.0000
32.7000 760.0000 1.0000
32.7100 751.0000 1.0000
32.7200 777.0000 1.0000
32.7300 754.0000 1.0000
32.7400 738.0000 1.0000
32.7500 747.0000 1.0000
32.7600 762.0000 1.0000
32.7700 765.0000 1.0000
32.7800 765.0000 1.0000
32.7900 803.0000 1.0000
32.8000 744.0000 1.0000
32.8100 728.0000 1.0000
32.8200 765.0000 1.0000
32.8300 751.0000 1.0000
32.8400 781.0000 1.0000
32.8500 772.0000 1.0000
32.8600 725.0000 1.0000
32.8700 786.0000 1.0000
32.8800 753.0000 1.0000
32.8900 739.0000 1.0000
32.9000 776.0000 1.0000
32.9100 735.0000 1.0000
32.9200 816.0000 1.0000
32.9300 777.0000 1.0000
32.9400 803.0000 1.0000
32.9500 804.0000 1.0000
32.9600 838.0000 1.0000
32.9700 807.0000 1.0000
32.9800 838.0000 1.0000
32.9900 822.0000 1.0000
33.0000 845.0000 1.0000
33.0100 841.0000 1.0000
33.0200 857.0000 1.0000
33.0300 875.0000 1.0000
33.0400 891.0000 1.0000
33.0500 957.0000 1.0000
33.0600 914.0000 1.0000
33.0700 943.0000 1.0000
33.0800 936.0000 1.0000
33.0900 900.0000 1.0000
33.1000 877.0000 1.0000
33.1100 876.0000 1.0000
33.1200 917.0000 1.0000
33.1300 886.0000 1.0000
33.1400 900.0000 1.0000
33.1500 895.0000 1.0000
33.1600 907.0000 1.0000
33.1700 836.0000 1.0000
33.1800 856.0000 1.0000
33.1900 830.0000 1.0000
33.2000 839.0000 1.0000
33.2100 824.0000 1.0000
33.2200 810.0000 1.0000
33.2300 809.0000 1.0000
33.2400 835.0000 1.0000
33.2500 795.0000 1.0000
33.2600 818.0000 1.0000
33.2700 818.0000 1.0000
33.2800 811.0000 1.0000
33.2900 817.0000 1.0000
33.3000 848.0000 1.0000
33.3100 851.0000 1.0000
33.3200 872.0000 1.0000
33.3300 818.0000 1.0000
33.3400 847.0000 1.0000
33.3500 848.0000 1.0000
33.3600 885.0000 1.0000
33.3700 913.0000 1.0000
33.3800 864.0000 1.0000
33.3900 897.0000 1.0000
33.4000 908.0000 1.0000
33.4100 930.0000 1.0000
33.4200 962.0000 1.0000
33.4300 952.0000 1.0000
33.4400 954.0000 1.0000
33.4500 1045.0000 1.0000
33.4600 1027.0000 1.0000
33.4700 1007.0000 1.0000
33.4800 1049.0000 1.0000
33.4900 1085.0000 1.0000
33.5000 1159.0000 1.0000
33.5100 1174.0000 1.0000
33.5200 1272.0000 1.0000
33.5300 1292.0000 1.0000
33.5400 1403.0000 1.0000
33.5500 1391.0000 1.0000
33.5600 1491.0000 1.0000
33.5700 1622.0000 1.0000
33.5800 1721.0000 1.0000
33.5900 1808.0000 1.0000
33.6000 1768.0000 1.0000
33.6100 1816.0000 1.0000
33.6200 1903.0000 1.0000
33.6300 1906.0000 1.0000
33.6400 1887.0000 1.0000
33.6500 1937.0000 1.0000
33.6600 1901.0000 1.0000
33.6700 1879.0000 1.0000
33.6800 1806.0000 1.0000
33.6900 1695.0000 1.0000
33.7000 1653.0000 1.0000
33.7100 1671.0000 1.0000
33.7200 1543.0000 1.0000
33.7300 1562.0000 1.0000
33.7400 1464.0000 1.0000
33.7500 1424.0000 1.0000
33.7600 1356.0000 1.0000
33.7700 1316.0000 1.0000
33.7800 1252.0000 1.0000
33.7900 1212.0000 1.0000
33.8000 1192.0000 1.0000
33.8100 1093.0000 1.0000
33.8200 1085.0000 1.0000
33.8300 1068.0000 1.0000
33.8400 1029.0000 1.0000
33.8500 939.0000 1.0000
33.8600 945.0000 1.0000
33.8700 900.0000 1.0000
33.8800 891.0000 1.0000
33.8900 882.0000 1.0000
33.9000 918.0000 1.0000
33.9100 881.0000 1.0000
33.9200 922.0000 1.0000
33.9300 872.0000 1.0000
33.9400 855.0000 1.0000
33.9500 839.0000 1.0000
33.9600 853.0000 1.0000
33.9700 822.0000 1.0000
33.9800 758.0000 1.0000
33.9900 816.0000 1.0000
34.0000 780.0000 1.0000
34.0100 784.0000 1.0000
34.0200 799.0000 1.0000
34.0300 791.0000 1.0000
34.0400 804.0000 1.0000
34.0500 783.0000 1.0000
34.0600 777.0000 1.0000
34.0700 741.0000 1.0000
34.0800 744.0000 1.0000
34.0900 772.0000 1.0000
34.1000 709.0000 1.0000
34.1100 770.0000 1.0000
34.1200 733.0000 1.0000
34.1300 710.0000 1.0000
34.1400 699.0000 1.0000
34.1500 675.0000 1.0000
34.1600 682.0000 1.0000
34.1700 717.0000 1.0000
34.1800 727.0000 1.0000
34.1900 720.0000 1.0000
34.2000 717.0000 1.0000
34.2100 718.0000 1.0000
34.2200 711.0000 1.0000
34.2300 708.0000 1.0000
34.2400 689.0000 1.0000
34.2500 705.0000 1.0000
34.2600 713.0000 1.0000
34.2700 668.0000 1.0000
34.2800 716.0000 1.0000
34.2900 674.0000 1.0000
34.3000 711.0000 1.0000
34.3100 692.0000 1.0000
34.3200 664.0000 1.0000
34.3300 705.0000 1.0000
34.3400 685.0000 1.0000
34.3500 680.0000 1.0000
34.3600 663.0000 1.0000
34.3700 667.0000 1.0000
34.3800 701.0000 1.0000
34.3900 705.0000 1.0000
34.4000 699.0000 1.0000
34.4100 678.0000 1.0000
34.4200 673.0000 1.0000
34.4300 681.0000 1.0000
34.4400 657.0000 1.0000
34.4500 676.0000 1.0000
34.4600 702.0000 1.0000
34.4700 674.0000 1.0000
34.4800 685.0000 1.0000
34.4900 659.0000 1.0000
34.5000 699.0000 1.0000
34.5100 687.0000 1.0000
34.5200 653.0000 1.0000
34.5300 665.0000 1.0000
34.5400 658.0000 1.0000
34.5500 645.0000 1.0000
34.5600 643.0000 1.0000
34.5700 660.0000 1.0000
34.5800 658.0000 1.0000
34.5900 695.0000 1.0000
34.6000 668.0000 1.0000
34.6100 678.0000 1.0000
34.6200 700.0000 1.0000
34.6300 640.0000 1.0000
34.6400 693.0000 1.0000
34.6500 684.0000 1.0000
34.6600 649.0000 1.0000
34.6700 612.0000 1.0000
34.6800 667.0000 1.0000
34.6900 680.0000 1.0000
34.7000 627.0000 1.0000
34.7100 675.0000 1.0000
34.7200 677.0000 1.0000
34.7300 665.0000 1.0000
34.7400 670.0000 1.0000
34.7500 656.0000 1.0000
34.7600 670.0000 1.0000
34.7700 662.0000 1.0000
34.7800 637.0000 1.0000
34.7900 662.0000 1.0000
34.8000 642.0000 1.0000
34.8100 590.0000 1.0000
34.8200 658.0000 1.0000
34.8300 642.0000 1.0000
34.8400 642.0000 1.0000
34.8500 647.0000 1.0000
34.8600 643.0000 1.0000
34.8700 669.0000 1.0000
34.8800 648.0000 1.0000
34.8900 626.0000 1.0000
34.9000 636.0000 1.0000
34.9100 650.0000 1.0000
34.9200 690.0000 1.0000
34.9300 653.0000 1.0000
34.9400 654.0000 1.0000
34.9500 641.0000 1.0000
34.9600 623.0000 1.0000
34.9700 589.0000 1.0000
34.9800 628.0000 1.0000
34.9900 596.0000 1.0000
35.0000 647.0000 1.0000
35.0100 615.0000 1.0000
35.0200 611.0000 1.0000
35.0300 677.0000 1.0000
35.0400 627.0000 1.0000
35.0500 632.0000 1.0000
35.0600 639.0000 1.0000
35.0700 611.0000 1.0000
35.0800 599.0000 1.0000
35.0900 640.0000 1.0000
35.1000 631.0000 1.0000
35.1100 650.0000 1.0000
35.1200 659.0000 1.0000
35.1300 683.0000 1.0000
35.1400 661.0000 1.0000
35.1500 628.0000 1.0000
35.1600 633.0000 1.0000
35.1700 675.0000 1.0000
35.1800 660.0000 1.0000
35.1900 631.0000 1.0000
35.2000 591.0000 1.0000
35.2100 646.0000 1.0000
35.2200 633.0000 1.0000
35.2300 665.0000 1.0000
35.2400 665.0000 1.0000
35.2500 652.0000 1.0000
35.2600 712.0000 1.0000
35.2700 668.0000 1.0000
35.2800 652.0000 1.0000
35.2900 671.0000 1.0000
35.3000 669.0000 1.0000
35.3100 696.0000 1.0000
35.3200 661.0000 1.0000
35.3300 743.0000 1.0000
35.3400 725.0000 1.0000
35.3500 731.0000 1.0000
35.3600 710.0000 1.0000
35.3700 703.0000 1.0000
35.3800 742.0000 1.0000
35.3900 768.0000 1.0000
35.4000 735.0000 1.0000
35.4100 771.0000 1.0000
35.4200 803.0000 1.0000
35.4300 856.0000 1.0000
35.4400 822.0000 1.0000
35.4500 848.0000 1.0000
35.4600 920.0000 1.0000
35.4700 981.0000 1.0000
35.4800 997.0000 1.0000
35.4900 1060.0000 1.0000
35.5000 1077.0000 1.0000
35.5100 1141.0000 1.0000
35.5200 1179.0000 1.0000
35.5300 1158.0000 1.0000
35.5400 1257.0000 1.0000
35.5500 1232.0000 1.0000
35.5600 1268.0000 1.0000
35.5700 1217.0000 1.0000
35.5800 1252.0000 1.0000
35.5900 1269.0000 1.0000
35.6000 1101.0000 1.0000
35.6100 1132.0000 1.0000
35.6200 1111.0000 1.0000
35.6300 1078.0000 1.0000
35.6400 1047.0000 1.0000
35.6500 984.0000 1.0000
35.6600 992.0000 1.0000
35.6700 976.0000 1.0000
35.6800 947.0000 1.0000
35.6900 907.0000 1.0000
35.7000 839.0000 1.0000
35.7100 812.0000 1.0000
35.7200 796.0000 1.0000
35.7300 747.0000 1.0000
35.7400 765.0000 1.0000
35.7500 680.0000 1.0000
35.7600 715.0000 1.0000
35.7700 654.0000 1.0000
35.7800 645.0000 1.0000
35.7900 661.0000 1.0000
35.8000 630.0000 1.0000
35.8100 650.0000 1.0000
35.8200 643.0000 1.0000
35.8300 633.0000 1.0000
35.8400 611.0000 1.0000
35.8500 647.0000 1.0000
35.8600 649.0000 1.0000
35.8700 666.0000 1.0000
35.8800 635.0000 1.0000
35.8900 609.0000 1.0000
35.9000 639.0000 1.0000
35.9100 639.0000 1.0000
35.9200 613.0000 1.0000
35.9300 620.0000 1.0000
35.9400 603.0000 1.0000
35.9500 626.0000 1.0000
35.9600 616.0000 1.0000
35.9700 612.0000 1.0000
35.9800 626.0000 1.0000
35.9900 664.0000 1.0000
36.0000 641.0000 1.0000
36.0100 626.0000 1.0000
36.0200 592.0000 1.0000
36.0300 576.0000 1.0000
36.0400 589.0000 1.0000
36.0500 610.0000 1.0000
36.0600 614.0000 1.0000
36.0700 644.0000 1.0000
36.0800 636.0000 1.0000
36.0900 600.0000 1.0000
36.1000 574.0000 1.0000
36.1100 613.0000 1.0000
36.1200 608.0000 1.0000
36.1300 620.0000 1.0000
36.1400 600.0000 1.0000
36.1500 622.0000 1.0000
36.1600 613.0000 1.0000
36.1700 595.0000 1.0000
36.1800 604.0000 1.0000
36.1900 609.0000 1.0000
36.2000 579.0000 1.0000
36.2100 606.0000 1.0000
36.2200 623.0000 1.0000
36.2300 632.0000 1.0000
36.2400 597.0000 1.0000
36.2500 595.0000 1.0000
36.2600 636.0000 1.0000
36.2700 578.0000 1.0000
36.2800 602.0000 1.0000
36.2900 586.0000 1.0000
36.3000 604.0000 1.0000
36.3100 576.0000 1.0000
36.3200 591.0000 1.0000
36.3300 641.0000 1.0000
36.3400 624.0000 1.0000
36.3500 616.0000 1.0000
36.3600 593.0000 1.0000
36.3700 587.0000 1.0000
36.3800 627.0000 1.0000
36.3900 593.0000 1.0000
36.4000 572.0000 1.0000
36.4100 609.0000 1.0000
36.4200 575.0000 1.0000
36.4300 615.0000 1.0000
36.4400 566.0000 1.0000
36.4500 608.0000 1.0000
36.4600 565.0000 1.0000
36.4700 585.0000 1.0000
36.4800 635.0000 1.0000
36.4900 585.0000 1.0000
36.5000 579.0000 1.0000
36.5100 582.0000 1.0000
36.5200 596.0000 1.0000
36.5300 554.0000 1.0000
36.5400 589.0000 1.0000
36.5500 592.0000 1.0000
36.5600 598.0000 1.0000
36.5700 636.0000 1.0000
36.5800 639.0000 1.0000
36.5900 607.0000 1.0000
36.6000 572.0000 1.0000
36.6100 540.0000 1.0000
36.6200 583.0000 1.0000
36.6300 571.0000 1.0000
36.6400 583.0000 1.0000
36.6500 568.0000 1.0000
36.6600 575.0000 1.0000
36.6700 550.0000 1.0000
36.6800 572.0000 1.0000
36.6900 562.0000 1.0000
36.7000 570.0000 1.0000
36.7100 566.0000 1.0000
36.7200 596.0000 1.0000
36.7300 569.0000 1.0000
36.7400 601.0000 1.0000
36.7500 576.0000 1.0000
36.7600 594.0000 1.0000
36.7700 604.0000 1.0000
36.7800 599.0000 1.0000
36.7900 620.0000 1.0000
36.8000 581.0000 1.0000
36.8100 586.0000 1.0000
36.8200 583.0000 1.0000
36.8300 575.0000 1.0000
36.8400 596.0000 1.0000
36.8500 593.0000 1.0000
36.8600 583.0000 1.0000
36.8700 629.0000 1.0000
36.8800 582.0000 1.0000
36.8900 581.0000 1.0000
36.9000 612.0000 1.0000
36.9100 621.0000 1.0000
36.9200 584.0000 1.0000
36.9300 590.0000 1.0000
36.9400 593.0000 1.0000
36.9500 550.0000 1.0000
36.9600 584.0000 1.0000
36.9700 575.0000 1.0000
36.9800 558.0000 1.0000
36.9900 580.0000 1.0000
37.0000 570.0000 1.0000
37.0100 570.0000 1.0000
37.0200 576.0000 1.0000
37.0300 601.0000 1.0000
37.0400 611.0000 1.0000
37.0500 628.0000 1.0000
37.0600 545.0000 1.0000
37.0700 598.0000 1.0000
37.0800 593.0000 1.0000
37.0900 594.0000 1.0000
37.1000 581.0000 1.0000
37.1100 568.0000 1.0000
37.1200 587.0000 1.0000
37.1300 681.0000 1.0000
37.1400 622.0000 1.0000
37.1500 590.0000 1.0000
37.1600 590.0000 1.0000
37.1700 583.0000 1.0000
37.1800 628.0000 1.0000
37.1900 627.0000 1.0000
37.2000 637.0000 1.0000
37.2100 626.0000 1.0000
37.2200 613.0000 1.0000
37.2300 630.0000 1.0000
37.2400 670.0000 1.0000
37.2500 659.0000 1.0000
37.2600 688.0000 1.0000
37.2700 651.0000 1.0000
37.2800 665.0000 1.0000
37.2900 683.0000 1.0000
37.3000 688.0000 1.0000
37.3100 686.0000 1.0000
37.3200 690.0000 1.0000
37.3300 695.0000 1.0000
37.3400 726.0000 1.0000
37.3500 724.0000 1.0000
37.3600 743.0000 1.0000
37.3700 738.0000 1.0000
37.3800 769.0000 1.0000
37.3900 765.0000 1.0000
37.4000 787.0000 1.0000
37.4100 842.0000 1.0000
37.4200 865.0000 1.0000
37.4300 842.0000 1.0000
37.4400 925.0000 1.0000
37.4500 952.0000 1.0000
37.4600 975.0000 1.0000
37.4700 1036.0000 1.0000
37.4800 1068.0000 1.0000
37.4900 1133.0000 1.0000
37.5000 1144.0000 1.0000
37.5100 1204.0000 1.0000
37.5200 1232.0000 1.0000
37.5300 1380.0000 1.0000
37.5400 1424.0000 1.0000
37.5500 1463.0000 1.0000
37.5600 1577.0000 1.0000
37.5700 1738.0000 1.0000
37.5800 1809.0000 1.0000
37.5900 1918.0000 1.0000
37.6000 2084.0000 1.0000
37.6100 2165.0000 1.0000
37.6200 2357.0000 1.0000
37.6300 2373.0000 1.0000
37.6400 2509.0000 1.0000
37.6500 2561.0000 1.0000
37.6600 2605.0000 1.0000
37.6700 2788.0000 1.0000
37.6800 2828.0000 1.0000
37.6900 2780.0000 1.0000
37.7000 2827.0000 1.0000
37.7100 2838.0000 1.0000
37.7200 2795.0000 1.0000
37.7300 2724.0000 1.0000
37.7400 2649.0000 1.0000
37.7500 2644.0000 1.0000
37.7600 2488.0000 1.0000
37.7700 2400.0000 1.0000
37.7800 2338.0000 1.0000
37.7900 2270.0000 1.0000
37.8000 2114.0000 1.0000
37.8100 2103.0000 1.0000
37.8200 1864.0000 1.0000
37.8300 1840.0000 1.0000
37.8400 1683.0000 1.0000
37.8500 1648.0000 1.0000
37.8600 1569.0000 1.0000
37.8700 1437.0000 1.0000
37.8800 1360.0000 1.0000
37.8900 1214.0000 1.0000
37.9000 1178.0000 1.0000
37.9100 1108.0000 1.0000
37.9200 1090.0000 1.0000
37.9300 1057.0000 1.0000
37.9400 999.0000 1.0000
37.9500 908.0000 1.0000
37.9600 944.0000 1.0000
37.9700 906.0000 1.0000
37.9800 815.0000 1.0000
37.9900 823.0000 1.0000
38.0000 777.0000 1.0000
38.0100 774.0000 1.0000
38.0200 784.0000 1.0000
38.0300 738.0000 1.0000
38.0400 721.0000 1.0000
38.0500 686.0000 1.0000
38.0600 665.0000 1.0000
38.0700 669.0000 1.0000
38.0800 661.0000 1.0000
38.0900 644.0000 1.0000
38.1000 646.0000 1.0000
38.1100 633.0000 1.0000
38.1200 649.0000 1.0000
38.1300 670.0000 1.0000
38.1400 643.0000 1.0000
38.1500 582.0000 1.0000
38.1600 579.0000 1.0000
38.1700 651.0000 1.0000
38.1800 610.0000 1.0000
38.1900 607.0000 1.0000
38.2000 567.0000 1.0000
38.2100 606.0000 1.0000
38.2200 565.0000 1.0000
38.2300 589.0000 1.0000
38.2400 553.0000 1.0000
38.2500 512.0000 1.0000
38.2600 594.0000 1.0000
38.2700 584.0000 1.0000
38.2800 531.0000 1.0000
38.2900 582.0000 1.0000
38.3000 569.0000 1.0000
38.3100 549.0000 1.0000
38.3200 568.0000 1.0000
38.3300 574.0000 1.0000
38.3400 575.0000 1.0000
38.3500 558.0000 1.0000
38.3600 540.0000 1.0000
38.3700 582.0000 1.0000
38.3800 583.0000 1.0000
38.3900 573.0000 1.0000
38.4000 555.0000 1.0000
38.4100 541.0000 1.0000
38.4200 555.0000 1.0000
38.4300 576.0000 1.0000
38.4400 558.0000 1.0000
38.4500 530.0000 1.0000
38.4600 565.0000 1.0000
38.4700 558.0000 1.0000
38.4800 570.0000 1.0000
38.4900 540.0000 1.0000
38.5000 554.0000 1.0000
38.5100 592.0000 1.0000
38.5200 531.0000 1.0000
38.5300 508.0000 1.0000
38.5400 529.0000 1.0000
38.5500 549.0000 1.0000
38.5600 548.0000 1.0000
38.5700 566.0000 1.0000
38.5800 558.0000 1.0000
38.5900 554.0000 1.0000
38.6000 542.0000 1.0000
38.6100 527.0000 1.0000
38.6200 503.0000 1.0000
38.6300 574.0000 1.0000
38.6400 577.0000 1.0000
38.6500 572.0000 1.0000
38.6600 520.0000 1.0000
38.6700 544.0000 1.0000
38.6800 552.0000 1.0000
38.6900 556.0000 1.0000
38.7000 582.0000 1.0000
38.7100 530.0000 1.0000
38.7200 586.0000 1.0000
38.7300 556.0000 1.0000
38.7400 551.0000 1.0000
38.7500 597.0000 1.0000
38.7600 563.0000 1.0000
38.7700 589.0000 1.0000
38.7800 552.0000 1.0000
38.7900 537.0000 1.0000
38.8000 560.0000 1.0000
38.8100 589.0000 1.0000
38.8200 576.0000 1.0000
38.8300 540.0000 1.0000
38.8400 548.0000 1.0000
38.8500 541.0000 1.0000
38.8600 535.0000 1.0000
38.8700 552.0000 1.0000
38.8800 544.0000 1.0000
38.8900 556.0000 1.0000
38.9000 532.0000 1.0000
38.9100 529.0000 1.0000
38.9200 526.0000 1.0000
38.9300 522.0000 1.0000
38.9400 528.0000 1.0000
38.9500 497.0000 1.0000
38.9600 540.0000 1.0000
38.9700 540.0000 1.0000
38.9800 535.0000 1.0000
38.9900 554.0000 1.0000
39.0000 529.0000 1.0000
39.0100 508.0000 1.0000
39.0200 515.0000 1.0000
39.0300 493.0000 1.0000
39.0400 521.0000 1.0000
39.0500 509.0000 1.0000
39.0600 501.0000 1.0000
39.0700 531.0000 1.0000
39.0800 531.0000 1.0000
39.0900 548.0000 1.0000
39.1000 555.0000 1.0000
39.1100 536.0000 1.0000
39.1200 518.0000 1.0000
39.1300 510.0000 1.0000
39.1400 511.0000 1.0000
39.1500 508.0000 1.0000
39.1600 522.0000 1.0000
39.1700 530.0000 1.0000
39.1800 489.0000 1.0000
39.1900 537.0000 1.0000
39.2000 524.0000 1.0000
39.2100 517.0000 1.0000
39.2200 532.0000 1.0000
39.2300 535.0000 1.0000
39.2400 534.0000 1.0000
39.2500 499.0000 1.0000
39.2600 502.0000 1.0000
39.2700 543.0000 1.0000
39.2800 505.0000 1.0000
39.2900 487.0000 1.0000
39.3000 488.0000 1.0000
39.3100 508.0000 1.0000
39.3200 516.0000 1.0000
39.3300 544.0000 1.0000
39.3400 548.0000 1.0000
39.3500 544.0000 1.0000
39.3600 503.0000 1.0000
39.3700 496.0000 1.0000
39.3800 531.0000 1.0000
39.3900 478.0000 1.0000
39.4000 501.0000 1.0000
39.4100 512.0000 1.0000
39.4200 522.0000 1.0000
39.4300 526.0000 1.0000
39.4400 495.0000 1.0000
39.4500 500.0000 1.0000
39.4600 510.0000 1.0000
39.4700 505.0000 1.0000
39.4800 488.0000 1.0000
39.4900 483.0000 1.0000
39.5000 527.0000 1.0000
39.5100 491.0000 1.0000
39.5200 531.0000 1.0000
39.5300 512.0000 1.0000
39.5400 525.0000 1.0000
39.5500 514.0000 1.0000
39.5600 476.0000 1.0000
39.5700 483.0000 1.0000
39.5800 476.0000 1.0000
39.5900 484.0000 1.0000
39.6000 493.0000 1.0000
39.6100 522.0000 1.0000
39.6200 490.0000 1.0000
39.6300 509.0000 1.0000
39.6400 479.0000 1.0000
39.6500 479.0000 1.0000
39.6600 509.0000 1.0000
39.6700 478.0000 1.0000
39.6800 483.0000 1.0000
39.6900 544.0000 1.0000
39.7000 508.0000 1.0000
39.7100 512.0000 1.0000
39.7200 510.0000 1.0000
39.7300 476.0000 1.0000
39.7400 484.0000 1.0000
39.7500 481.0000 1.0000
39.7600 472.0000 1.0000
39.7700 489.0000 1.0000
39.7800 510.0000 1.0000
39.7900 491.0000 1.0000
39.8000 527.0000 1.0000
39.8100 503.0000 1.0000
39.8200 468.0000 1.0000
39.8300 475.0000 1.0000
39.8400 494.0000 1.0000
39.8500 516.0000 1.0000
39.8600 499.0000 1.0000
39.8700 486.0000 1.0000
39.8800 469.0000 1.0000
39.8900 483.0000 1.0000
39.9000 498.0000 1.0000
39.9100 499.0000 1.0000
39.9200 513.0000 1.0000
39.9300 491.0000 1.0000
39.9400 464.0000 1.0000
39.9500 490.0000 1.0000
39.9600 492.0000 1.0000
39.9700 518.0000 1.0000
39.9800 495.0000 1.0000
39.9900 485.0000 1.0000
40.0000 500.0000 1.0000
40.0100 512.0000 1.0000
40.0200 483.0000 1.0000
40.0300 475.0000 1.0000
40.0400 471.0000 1.0000
40.0500 484.0000 1.0000
40.0600 504.0000 1.0000
40.0700 497.0000 1.0000
40.0800 484.0000 1.0000
40.0900 509.0000 1.0000
40.1000 475.0000 1.0000
40.1100 508.0000 1.0000
40.1200 524.0000 1.0000
40.1300 487.0000 1.0000
40.1400 512.0000 1.0000
40.1500 499.0000 1.0000
40.1600 488.0000 1.0000
40.1700 483.0000 1.0000
40.1800 490.0000 1.0000
40.1900 482.0000 1.0000
40.2000 441.0000 1.0000
40.2100 482.0000 1.0000
40.2200 469.0000 1.0000
40.2300 473.0000 1.0000
40.2400 451.0000 1.0000
40.2500 477.0000 1.0000
40.2600 496.0000 1.0000
40.2700 490.0000 1.0000
40.2800 518.0000 1.0000
40.2900 529.0000 1.0000
40.3000 480.0000 1.0000
40.3100 482.0000 1.0000
40.3200 469.0000 1.0000
40.3300 498.0000 1.0000
40.3400 503.0000 1.0000
40.3500 475.0000 1.0000
40.3600 529.0000 1.0000
40.3700 486.0000 1.0000
40.3800 498.0000 1.0000
40.3900 516.0000 1.0000
40.4000 484.0000 1.0000
40.4100 455.0000 1.0000
40.4200 459.0000 1.0000
40.4300 488.0000 1.0000
40.4400 518.0000 1.0000
40.4500 502.0000 1.0000
40.4600 497.0000 1.0000
40.4700 485.0000 1.0000
40.4800 491.0000 1.0000
40.4900 500.0000 1.0000
40.5000 461.0000 1.0000
40.5100 429.0000 1.0000
40.5200 449.0000 1.0000
40.5300 477.0000 1.0000
40.5400 482.0000 1.0000
40.5500 513.0000 1.0000
40.5600 514.0000 1.0000
40.5700 512.0000 1.0000
40.5800 462.0000 1.0000
40.5900 468.0000 1.0000
40.6000 491.0000 1.0000
40.6100 481.0000 1.0000
40.6200 490.0000 1.0000
40.6300 505.0000 1.0000
40.6400 477.0000 1.0000
40.6500 496.0000 1.0000
40.6600 500.0000 1.0000
40.6700 513.0000 1.0000
40.6800 498.0000 1.0000
40.6900 504.0000 1.0000
40.7000 509.0000 1.0000
40.7100 543.0000 1.0000
40.7200 537.0000 1.0000
40.7300 529.0000 1.0000
40.7400 510.0000 1.0000
40.7500 522.0000 1.0000
40.7600 514.0000 1.0000
40.7700 516.0000 1.0000
40.7800 499.0000 1.0000
40.7900 519.0000 1.0000
40.8000 481.0000 1.0000
40.8100 484.0000 1.0000
40.8200 508.0000 1.0000
40.8300 493.0000 1.0000
40.8400 486.0000 1.0000
40.8500 490.0000 1.0000
40.8600 488.0000 1.0000
40.8700 483.0000 1.0000
40.8800 506.0000 1.0000
40.8900 542.0000 1.0000
40.9000 496.0000 1.0000
40.9100 485.0000 1.0000
40.9200 482.0000 1.0000
40.9300 485.0000 1.0000
40.9400 512.0000 1.0000
40.9500 524.0000 1.0000
40.9600 525.0000 1.0000
40.9700 484.0000 1.0000
40.9800 491.0000 1.0000
40.9900 487.0000 1.0000
41.0000 482.0000 1.0000
41.0100 476.0000 1.0000
41.0200 492.0000 1.0000
41.0300 463.0000 1.0000
41.0400 462.0000 1.0000
41.0500 487.0000 1.0000
41.0600 506.0000 1.0000
41.0700 491.0000 1.0000
41.0800 490.0000 1.0000
41.0900 500.0000 1.0000
41.1000 529.0000 1.0000
41.1100 503.0000 1.0000
41.1200 479.0000 1.0000
41.1300 466.0000 1.0000
41.1400 454.0000 1.0000
41.1500 479.0000 1.0000
41.1600 471.0000 1.0000
41.1700 455.0000 1.0000
41.1800 459.0000 1.0000
41.1900 463.0000 1.0000
41.2000 502.0000 1.0000
41.2100 504.0000 1.0000
41.2200 466.0000 1.0000
41.2300 492.0000 1.0000
41.2400 481.0000 1.0000
41.2500 472.0000 1.0000
41.2600 477.0000 1.0000
41.2700 486.0000 1.0000
41.2800 458.0000 1.0000
41.2900 487.0000 1.0000
41.3000 481.0000 1.0000
41.3100 473.0000 1.0000
41.3200 524.0000 1.0000
41.3300 474.0000 1.0000
41.3400 518.0000 1.0000
41.3500 487.0000 1.0000
41.3600 435.0000 1.0000
41.3700 462.0000 1.0000
41.3800 497.0000 1.0000
41.3900 462.0000 1.0000
41.4000 523.0000 1.0000
41.4100 487.0000 1.0000
41.4200 496.0000 1.0000
41.4300 451.0000 1.0000
41.4400 492.0000 1.0000
41.4500 488.0000 1.0000
41.4600 465.0000 1.0000
41.4700 450.0000 1.0000
41.4800 449.0000 1.0000
41.4900 481.0000 1.0000
41.5000 464.0000 1.0000
41.5100 499.0000 1.0000
41.5200 448.0000 1.0000
41.5300 470.0000 1.0000
41.5400 456.0000 1.0000
41.5500 482.0000 1.0000
41.5600 485.0000 1.0000
41.5700 468.0000 1.0000
41.5800 470.0000 1.0000
41.5900 451.0000 1.0000
41.6000 471.0000 1.0000
41.6100 506.0000 1.0000
41.6200 479.0000 1.0000
41.6300 479.0000 1.0000
41.6400 453.0000 1.0000
41.6500 480.0000 1.0000
41.6600 480.0000 1.0000
41.6700 485.0000 1.0000
41.6800 507.0000 1.0000
41.6900 503.0000 1.0000
41.7000 463.0000 1.0000
41.7100 450.0000 1.0000
41.7200 445.0000 1.0000
41.7300 477.0000 1.0000
41.7400 473.0000 1.0000
41.7500 467.0000 1.0000
41.7600 489.0000 1.0000
41.7700 492.0000 1.0000
41.7800 477.0000 1.0000
41.7900 499.0000 1.0000
41.8000 479.0000 1.0000
41.8100 450.0000 1.0000
41.8200 493.0000 1.0000
41.8300 476.0000 1.0000
41.8400 489.0000 1.0000
41.8500 451.0000 1.0000
41.8600 472.0000 1.0000
41.8700 471.0000 1.0000
41.8800 464.0000 1.0000
41.8900 457.0000 1.0000
41.9000 441.0000 1.0000
41.9100 436.0000 1.0000
41.9200 457.0000 1.0000
41.9300 479.0000 1.0000
41.9400 476.0000 1.0000
41.9500 463.0000 1.0000
41.9600 462.0000 1.0000
41.9700 489.0000 1.0000
41.9800 448.0000 1.0000
41.9900 477.0000 1.0000
42.0000 484.0000 1.0000
42.0100 479.0000 1.0000
42.0200 488.0000 1.0000
42.0300 480.0000 1.0000
42.0400 496.0000 1.0000
42.0500 449.0000 1.0000
42.0600 483.0000 1.0000
42.0700 508.0000 1.0000
42.0800 463.0000 1.0000
42.0900 458.0000 1.0000
42.1000 472.0000 1.0000
42.1100 503.0000 1.0000
42.1200 513.0000 1.0000
42.1300 492.0000 1.0000
42.1400 472.0000 1.0000
42.1500 485.0000 1.0000
42.1600 464.0000 1.0000
42.1700 493.0000 1.0000
42.1800 494.0000 1.0000
42.1900 496.0000 1.0000
42.2000 505.0000 1.0000
42.2100 480.0000 1.0000
42.2200 472.0000 1.0000
42.2300 474.0000 1.0000
42.2400 494.0000 1.0000
42.2500 492.0000 1.0000
42.2600 463.0000 1.0000
42.2700 516.0000 1.0000
42.2800 508.0000 1.0000
42.2900 494.0000 1.0000
42.3000 519.0000 1.0000
42.3100 507.0000 1.0000
42.3200 488.0000 1.0000
42.3300 493.0000 1.0000
42.3400 501.0000 1.0000
42.3500 530.0000 1.0000
42.3600 522.0000 1.0000
42.3700 501.0000 1.0000
42.3800 480.0000 1.0000
42.3900 501.0000 1.0000
42.4000 546.0000 1.0000
42.4100 499.0000 1.0000
42.4200 538.0000 1.0000
42.4300 553.0000 1.0000
42.4400 500.0000 1.0000
42.4500 530.0000 1.0000
42.4600 542.0000 1.0000
42.4700 529.0000 1.0000
42.4800 566.0000 1.0000
42.4900 521.0000 1.0000
42.5000 508.0000 1.0000
42.5100 500.0000 1.0000
42.5200 507.0000 1.0000
42.5300 495.0000 1.0000
42.5400 468.0000 1.0000
42.5500 473.0000 1.0000
42.5600 465.0000 1.0000
42.5700 500.0000 1.0000
42.5800 512.0000 1.0000
42.5900 493.0000 1.0000
42.6000 481.0000 1.0000
42.6100 485.0000 1.0000
42.6200 470.0000 1.0000
42.6300 501.0000 1.0000
42.6400 501.0000 1.0000
42.6500 490.0000 1.0000
42.6600 504.0000 1.0000
42.6700 474.0000 1.0000
42.6800 444.0000 1.0000
42.6900 460.0000 1.0000
42.7000 463.0000 1.0000
42.7100 465.0000 1.0000
42.7200 474.0000 1.0000
42.7300 458.0000 1.0000
42.7400 451.0000 1.0000
42.7500 460.0000 1.0000
42.7600 456.0000 1.0000
42.7700 428.0000 1.0000
42.7800 437.0000 1.0000
42.7900 486.0000 1.0000
42.8000 517.0000 1.0000
42.8100 466.0000 1.0000
42.8200 475.0000 1.0000
42.8300 466.0000 1.0000
42.8400 472.0000 1.0000
42.8500 487.0000 1.0000
42.8600 470.0000 1.0000
42.8700 492.0000 1.0000
42.8800 459.0000 1.0000
42.8900 453.0000 1.0000
42.9000 467.0000 1.0000
42.9100 475.0000 1.0000
42.9200 494.0000 1.0000
42.9300 474.0000 1.0000
42.9400 475.0000 1.0000
42.9500 459.0000 1.0000
42.9600 484.0000 1.0000
42.9700 473.0000 1.0000
42.9800 460.0000 1.0000
42.9900 485.0000 1.0000
43.0000 456.0000 1.0000
43.0100 460.0000 1.0000
43.0200 410.0000 1.0000
43.0300 450.0000 1.0000
43.0400 443.0000 1.0000
43.0500 462.0000 1.0000
43.0600 465.0000 1.0000
43.0700 477.0000 1.0000
43.0800 494.0000 1.0000
43.0900 466.0000 1.0000
43.1000 433.0000 1.0000
43.1100 458.0000 1.0000
43.1200 459.0000 1.0000
43.1300 458.0000 1.0000
43.1400 451.0000 1.0000
43.1500 489.0000 1.0000
43.1600 460.0000 1.0000
43.1700 431.0000 1.0000
43.1800 452.0000 1.0000
43.1900 461.0000 1.0000
43.2000 469.0000 1.0000
43.2100 471.0000 1.0000
43.2200 425.0000 1.0000
43.2300 449.0000 1.0000
43.2400 457.0000 1.0000
43.2500 482.0000 1.0000
43.2600 481.0000 1.0000
43.2700 446.0000 1.0000
43.2800 450.0000 1.0000
43.2900 438.0000 1.0000
43.3000 445.0000 1.0000
43.3100 449.0000 1.0000
43.3200 439.0000 1.0000
43.3300 446.0000 1.0000
43.3400 492.0000 1.0000
43.3500 455.0000 1.0000
43.3600 439.0000 1.0000
43.3700 458.0000 1.0000
43.3800 489.0000 1.0000
43.3900 455.0000 1.0000
43.4000 483.0000 1.0000
43.4100 500.0000 1.0000
43.4200 474.0000 1.0000
43.4300 479.0000 1.0000
43.4400 470.0000 1.0000
43.4500 479.0000 1.0000
43.4600 460.0000 1.0000
43.4700 447.0000 1.0000
43.4800 441.0000 1.0000
43.4900 449.0000 1.0000
43.5000 463.0000 1.0000
43.5100 458.0000 1.0000
43.5200 472.0000 1.0000
43.5300 506.0000 1.0000
43.5400 458.0000 1.0000
43.5500 473.0000 1.0000
43.5600 460.0000 1.0000
43.5700 461.0000 1.0000
43.5800 505.0000 1.0000
43.5900 470.0000 1.0000
43.6000 459.0000 1.0000
43.6100 437.0000 1.0000
43.6200 473.0000 1.0000
43.6300 453.0000 1.0000
43.6400 479.0000 1.0000
43.6500 462.0000 1.0000
43.6600 475.0000 1.0000
43.6700 490.0000 1.0000
43.6800 438.0000 1.0000
43.6900 433.0000 1.0000
43.7000 442.0000 1.0000
43.7100 456.0000 1.0000
43.7200 439.0000 1.0000
43.7300 443.0000 1.0000
43.7400 464.0000 1.0000
43.7500 458.0000 1.0000
43.7600 422.0000 1.0000
43.7700 450.0000 1.0000
43.7800 448.0000 1.0000
43.7900 452.0000 1.0000
43.8000 452.0000 1.0000
43.8100 460.0000 1.0000
43.8200 477.0000 1.0000
43.8300 467.0000 1.0000
43.8400 458.0000 1.0000
43.8500 495.0000 1.0000
43.8600 488.0000 1.0000
43.8700 471.0000 1.0000
43.8800 446.0000 1.0000
43.8900 418.0000 1.0000
43.9000 423.0000 1.0000
43.9100 452.0000 1.0000
43.9200 460.0000 1.0000
43.9300 459.0000 1.0000
43.9400 448.0000 1.0000
43.9500 456.0000 1.0000
43.9600 415.0000 1.0000
43.9700 444.0000 1.0000
43.9800 427.0000 1.0000
43.9900 460.0000 1.0000
44.0000 487.0000 1.0000
44.0100 457.0000 1.0000
44.0200 441.0000 1.0000
44.0300 475.0000 1.0000
44.0400 441.0000 1.0000
44.0500 483.0000 1.0000
44.0600 437.0000 1.0000
44.0700 428.0000 1.0000
44.0800 444.0000 1.0000
44.0900 461.0000 1.0000
44.1000 458.0000 1.0000
44.1100 445.0000 1.0000
44.1200 451.0000 1.0000
44.1300 457.0000 1.0000
44.1400 477.0000 1.0000
44.1500 509.0000 1.0000
44.1600 413.0000 1.0000
44.1700 468.0000 1.0000
44.1800 428.0000 1.0000
44.1900 427.0000 1.0000
44.2000 450.0000 1.0000
44.2100 452.0000 1.0000
44.2200 474.0000 1.0000
44.2300 483.0000 1.0000
44.2400 457.0000 1.0000
44.2500 446.0000 1.0000
44.2600 437.0000 1.0000
44.2700 415.0000 1.0000
44.2800 445.0000 1.0000
44.2900 460.0000 1.0000
44.3000 440.0000 1.0000
44.3100 425.0000 1.0000
44.3200 450.0000 1.0000
44.3300 440.0000 1.0000
44.3400 462.0000 1.0000
44.3500 435.0000 1.0000
44.3600 419.0000 1.0000
44.3700 445.0000 1.0000
44.3800 445.0000 1.0000
44.3900 430.0000 1.0000
44.4000 486.0000 1.0000
44.4100 463.0000 1.0000
44.4200 464.0000 1.0000
44.4300 458.0000 1.0000
44.4400 448.0000 1.0000
44.4500 460.0000 1.0000
44.4600 408.0000 1.0000
44.4700 457.0000 1.0000
44.4800 472.0000 1.0000
44.4900 434.0000 1.0000
44.5000 455.0000 1.0000
44.5100 448.0000 1.0000
44.5200 427.0000 1.0000
44.5300 454.0000 1.0000
44.5400 454.0000 1.0000
44.5500 447.0000 1.0000
44.5600 448.0000 1.0000
44.5700 442.0000 1.0000
44.5800 451.0000 1.0000
44.5900 399.0000 1.0000
44.6000 451.0000 1.0000
44.6100 426.0000 1.0000
44.6200 456.0000 1.0000
44.6300 461.0000 1.0000
44.6400 457.0000 1.0000
44.6500 471.0000 1.0000
44.6600 455.0000 1.0000
44.6700 468.0000 1.0000
44.6800 470.0000 1.0000
44.6900 449.0000 1.0000
44.7000 417.0000 1.0000
44.7100 461.0000 1.0000
44.7200 455.0000 1.0000
44.7300 413.0000 1.0000
44.7400 458.0000 1.0000
44.7500 431.0000 1.0000
44.7600 406.0000 1.0000
44.7700 443.0000 1.0000
44.7800 431.0000 1.0000
44.7900 428.0000 1.0000
44.8000 441.0000 1.0000
44.8100 398.0000 1.0000
44.8200 384.0000 1.0000
44.8300 435.0000 1.0000
44.8400 446.0000 1.0000
44.8500 440.0000 1.0000
44.8600 457.0000 1.0000
44.8700 445.0000 1.0000
44.8800 458.0000 1.0000
44.8900 442.0000 1.0000
44.9000 446.0000 1.0000
44.9100 440.0000 1.0000
44.9200 414.0000 1.0000
44.9300 434.0000 1.0000
44.9400 418.0000 1.0000
44.9500 432.0000 1.0000
44.9600 425.0000 1.0000
44.9700 442.0000 1.0000
44.9800 432.0000 1.0000
44.9900 448.0000 1.0000
45.0000 423.0000 1.0000
45.0100 432.0000 1.0000
45.0200 421.0000 1.0000
45.0300 418.0000 1.0000
45.0400 445.0000 1.0000
45.0500 454.0000 1.0000
45.0600 434.0000 1.0000
45.0700 464.0000 1.0000
45.0800 476.0000 1.0000
45.0900 456.0000 1.0000
45.1000 430.0000 1.0000
45.1100 464.0000 1.0000
45.1200 469.0000 1.0000
45.1300 459.0000 1.0000
45.1400 418.0000 1.0000
45.1500 429.0000 1.0000
45.1600 483.0000 1.0000
45.1700 439.0000 1.0000
45.1800 440.0000 1.0000
45.1900 434.0000 1.0000
45.2000 423.0000 1.0000
45.2100 442.0000 1.0000
45.2200 410.0000 1.0000
45.2300 417.0000 1.0000
45.2400 435.0000 1.0000
45.2500 420.0000 1.0000
45.2600 437.0000 1.0000
45.2700 454.0000 1.0000
45.2800 427.0000 1.0000
45.2900 404.0000 1.0000
45.3000 432.0000 1.0000
45.3100 438.0000 1.0000
45.3200 424.0000 1.0000
45.3300 421.0000 1.0000
45.3400 420.0000 1.0000
45.3500 401.0000 1.0000
45.3600 414.0000 1.0000
45.3700 444.0000 1.0000
45.3800 439.0000 1.0000
45.3900 441.0000 1.0000
45.4000 420.0000 1.0000
45.4100 443.0000 1.0000
45.4200 455.0000 1.0000
45.4300 439.0000 1.0000
45.4400 445.0000 1.0000
45.4500 441.0000 1.0000
45.4600 425.0000 1.0000
45.4700 431.0000 1.0000
45.4800 449.0000 1.0000
45.4900 415.0000 1.0000
45.5000 445.0000 1.0000
45.5100 483.0000 1.0000
45.5200 448.0000 1.0000
45.5300 401.0000 1.0000
45.5400 407.0000 1.0000
45.5500 401.0000 1.0000
45.5600 437.0000 1.0000
45.5700 442.0000 1.0000
45.5800 439.0000 1.0000
45.5900 432.0000 1.0000
45.6000 402.0000 1.0000
45.6100 433.0000 1.0000
45.6200 431.0000 1.0000
45.6300 418.0000 1.0000
45.6400 432.0000 1.0000
45.6500 433.0000 1.0000
45.6600 445.0000 1.0000
45.6700 435.0000 1.0000
45.6800 440.0000 1.0000
45.6900 432.0000 1.0000
45.7000 413.0000 1.0000
45.7100 418.0000 1.0000
45.7200 413.0000 1.0000
45.7300 446.0000 1.0000
45.7400 424.0000 1.0000
45.7500 395.0000 1.0000
45.7600 409.0000 1.0000
45.7700 425.0000 1.0000
45.7800 417.0000 1.0000
45.7900 432.0000 1.0000
45.8000 447.0000 1.0000
45.8100 394.0000 1.0000
45.8200 403.0000 1.0000
45.8300 430.0000 1.0000
45.8400 418.0000 1.0000
45.8500 413.0000 1.0000
45.8600 449.0000 1.0000
45.8700 467.0000 1.0000
45.8800 435.0000 1.0000
45.8900 431.0000 1.0000
45.9000 429.0000 1.0000
45.9100 450.0000 1.0000
45.9200 438.0000 1.0000
45.9300 476.0000 1.0000
45.9400 455.0000 1.0000
45.9500 440.0000 1.0000
45.9600 410.0000 1.0000
45.9700 439.0000 1.0000
45.9800 462.0000 1.0000
45.9900 420.0000 1.0000
46.0000 391.0000 1.0000
46.0100 401.0000 1.0000
46.0200 418.0000 1.0000
46.0300 426.0000 1.0000
46.0400 456.0000 1.0000
46.0500 461.0000 1.0000
46.0600 418.0000 1.0000
46.0700 414.0000 1.0000
46.0800 411.0000 1.0000
46.0900 450.0000 1.0000
46.1000 430.0000 1.0000
46.1100 430.0000 1.0000
46.1200 425.0000 1.0000
46.1300 444.0000 1.0000
46.1400 428.0000 1.0000
46.1500 432.0000 1.0000
46.1600 447.0000 1.0000
46.1700 420.0000 1.0000
46.1800 445.0000 1.0000
46.1900 482.0000 1.0000
46.2000 427.0000 1.0000
46.2100 454.0000 1.0000
46.2200 446.0000 1.0000
46.2300 459.0000 1.0000
46.2400 458.0000 1.0000
46.2500 419.0000 1.0000
46.2600 456.0000 1.0000
46.2700 416.0000 1.0000
46.2800 468.0000 1.0000
46.2900 445.0000 1.0000
46.3000 444.0000 1.0000
46.3100 447.0000 1.0000
46.3200 452.0000 1.0000
46.3300 438.0000 1.0000
46.3400 435.0000 1.0000
46.3500 433.0000 1.0000
46.3600 428.0000 1.0000
46.3700 438.0000 1.0000
46.3800 409.0000 1.0000
46.3900 408.0000 1.0000
46.4000 418.0000 1.0000
46.4100 382.0000 1.0000
46.4200 428.0000 1.0000
46.4300 423.0000 1.0000
46.4400 426.0000 1.0000
46.4500 456.0000 1.0000
46.4600 455.0000 1.0000
46.4700 436.0000 1.0000
46.4800 407.0000 1.0000
46.4900 406.0000 1.0000
46.5000 438.0000 1.0000
46.5100 462.0000 1.0000
46.5200 406.0000 1.0000
46.5300 429.0000 1.0000
46.5400 430.0000 1.0000
46.5500 430.0000 1.0000
46.5600 428.0000 1.0000
46.5700 423.0000 1.0000
46.5800 453.0000 1.0000
46.5900 428.0000 1.0000
46.6000 401.0000 1.0000
46.6100 449.0000 1.0000
46.6200 452.0000 1.0000
46.6300 406.0000 1.0000
46.6400 425.0000 1.0000
46.6500 436.0000 1.0000
46.6600 430.0000 1.0000
46.6700 407.0000 1.0000
46.6800 424.0000 1.0000
46.6900 367.0000 1.0000
46.7000 399.0000 1.0000
46.7100 395.0000 1.0000
46.7200 414.0000 1.0000
46.7300 435.0000 1.0000
46.7400 444.0000 1.0000
46.7500 415.0000 1.0000
46.7600 402.0000 1.0000
46.7700 406.0000 1.0000
46.7800 427.0000 1.0000
46.7900 427.0000 1.0000
46.8000 443.0000 1.0000
46.8100 412.0000 1.0000
46.8200 439.0000 1.0000
46.8300 423.0000 1.0000
46.8400 434.0000 1.0000
46.8500 407.0000 1.0000
46.8600 425.0000 1.0000
46.8700 424.0000 1.0000
46.8800 435.0000 1.0000
46.8900 421.0000 1.0000
46.9000 435.0000 1.0000
46.9100 395.0000 1.0000
46.9200 408.0000 1.0000
46.9300 409.0000 1.0000
46.9400 403.0000 1.0000
46.9500 395.0000 1.0000
46.9600 428.0000 1.0000
46.9700 405.0000 1.0000
46.9800 421.0000 1.0000
46.9900 437.0000 1.0000
47.0000 424.0000 1.0000
47.0100 415.0000 1.0000
47.0200 419.0000 1.0000
47.0300 402.0000 1.0000
47.0400 414.0000 1.0000
47.0500 416.0000 1.0000
47.0600 426.0000 1.0000
47.0700 410.0000 1.0000
47.0800 417.0000 1.0000
47.0900 427.0000 1.0000
47.1000 401.0000 1.0000
47.1100 395.0000 1.0000
47.1200 412.0000 1.0000
47.1300 405.0000 1.0000
47.1400 382.0000 1.0000
47.1500 392.0000 1.0000
47.1600 460.0000 1.0000
47.1700 411.0000 1.0000
47.1800 395.0000 1.0000
47.1900 439.0000 1.0000
47.2000 374.0000 1.0000
47.2100 398.0000 1.0000
47.2200 428.0000 1.0000
47.2300 452.0000 1.0000
47.2400 434.0000 1.0000
47.2500 384.0000 1.0000
47.2600 397.0000 1.0000
47.2700 437.0000 1.0000
47.2800 397.0000 1.0000
47.2900 400.0000 1.0000
47.3000 431.0000 1.0000
47.3100 422.0000 1.0000
47.3200 430.0000 1.0000
47.3300 417.0000 1.0000
47.3400 394.0000 1.0000
47.3500 399.0000 1.0000
47.3600 395.0000 1.0000
47.3700 435.0000 1.0000
47.3800 362.0000 1.0000
47.3900 425.0000 1.0000
47.4000 436.0000 1.0000
47.4100 442.0000 1.0000
47.4200 436.0000 1.0000
47.4300 419.0000 1.0000
47.4400 423.0000 1.0000
47.4500 408.0000 1.0000
47.4600 446.0000 1.0000
47.4700 411.0000 1.0000
47.4800 403.0000 1.0000
47.4900 372.0000 1.0000
47.5000 401.0000 1.0000
47.5100 391.0000 1.0000
47.5200 410.0000 1.0000
47.5300 401.0000 1.0000
47.5400 375.0000 1.0000
47.5500 413.0000 1.0000
47.5600 392.0000 1.0000
47.5700 410.0000 1.0000
47.5800 402.0000 1.0000
47.5900 430.0000 1.0000
47.6000 414.0000 1.0000
47.6100 400.0000 1.0000
47.6200 438.0000 1.0000
47.6300 427.0000 1.0000
47.6400 398.0000 1.0000
47.6500 404.0000 1.0000
47.6600 400.0000 1.0000
47.6700 424.0000 1.0000
47.6800 408.0000 1.0000
47.6900 396.0000 1.0000
47.7000 438.0000 1.0000
47.7100 421.0000 1.0000
47.7200 435.0000 1.0000
47.7300 398.0000 1.0000
47.7400 412.0000 1.0000
47.7500 409.0000 1.0000
47.7600 399.0000 1.0000
47.7700 386.0000 1.0000
47.7800 399.0000 1.0000
47.7900 389.0000 1.0000
47.8000 397.0000 1.0000
47.8100 399.0000 1.0000
47.8200 370.0000 1.0000
47.8300 412.0000 1.0000
47.8400 423.0000 1.0000
47.8500 435.0000 1.0000
47.8600 400.0000 1.0000
47.8700 401.0000 1.0000
47.8800 446.0000 1.0000
47.8900 429.0000 1.0000
47.9000 420.0000 1.0000
47.9100 409.0000 1.0000
47.9200 403.0000 1.0000
47.9300 415.0000 1.0000
47.9400 386.0000 1.0000
47.9500 425.0000 1.0000
47.9600 403.0000 1.0000
47.9700 408.0000 1.0000
47.9800 428.0000 1.0000
47.9900 419.0000 1.0000
48.0000 398.0000 1.0000
48.0100 424.0000 1.0000
48.0200 416.0000 1.0000
48.0300 433.0000 1.0000
48.0400 415.0000 1.0000
48.0500 407.0000 1.0000
48.0600 396.0000 1.0000
48.0700 386.0000 1.0000
48.0800 381.0000 1.0000
48.0900 370.0000 1.0000
48.1000 437.0000 1.0000
48.1100 384.0000 1.0000
48.1200 384.0000 1.0000
48.1300 415.0000 1.0000
48.1400 380.0000 1.0000
48.1500 407.0000 1.0000
48.1600 410.0000 1.0000
48.1700 418.0000 1.0000
48.1800 405.0000 1.0000
48.1900 398.0000 1.0000
48.2000 417.0000 1.0000
48.2100 395.0000 1.0000
48.2200 402.0000 1.0000
48.2300 379.0000 1.0000
48.2400 387.0000 1.0000
48.2500 449.0000 1.0000
48.2600 432.0000 1.0000
48.2700 424.0000 1.0000
48.2800 386.0000 1.0000
48.2900 409.0000 1.0000
48.3000 406.0000 1.0000
48.3100 405.0000 1.0000
48.3200 429.0000 1.0000
48.3300 407.0000 1.0000
48.3400 394.0000 1.0000
48.3500 401.0000 1.0000
48.3600 394.0000 1.0000
48.3700 421.0000 1.0000
48.3800 385.0000 1.0000
48.3900 368.0000 1.0000
48.4000 387.0000 1.0000
48.4100 403.0000 1.0000
48.4200 396.0000 1.0000
48.4300 407.0000 1.0000
48.4400 404.0000 1.0000
48.4500 413.0000 1.0000
48.4600 391.0000 1.0000
48.4700 365.0000 1.0000
48.4800 398.0000 1.0000
48.4900 381.0000 1.0000
48.5000 395.0000 1.0000
48.5100 422.0000 1.0000
48.5200 409.0000 1.0000
48.5300 386.0000 1.0000
48.5400 454.0000 1.0000
48.5500 408.0000 1.0000
48.5600 407.0000 1.0000
48.5700 417.0000 1.0000
48.5800 390.0000 1.0000
48.5900 395.0000 1.0000
48.6000 433.0000 1.0000
48.6100 427.0000 1.0000
48.6200 397.0000 1.0000
48.6300 398.0000 1.0000
48.6400 411.0000 1.0000
48.6500 407.0000 1.0000
48.6600 441.0000 1.0000
48.6700 410.0000 1.0000
48.6800 411.0000 1.0000
48.6900 401.0000 1.0000
48.7000 393.0000 1.0000
48.7100 405.0000 1.0000
48.7200 393.0000 1.0000
48.7300 417.0000 1.0000
48.7400 382.0000 1.0000
48.7500 407.0000 1.0000
48.7600 413.0000 1.0000
48.7700 411.0000 1.0000
48.7800 409.0000 1.0000
48.7900 415.0000 1.0000
48.8000 414.0000 1.0000
48.8100 411.0000 1.0000
48.8200 391.0000 1.0000
48.8300 405.0000 1.0000
48.8400 406.0000 1.0000
48.8500 464.0000 1.0000
48.8600 427.0000 1.0000
48.8700 382.0000 1.0000
48.8800 398.0000 1.0000
48.8900 397.0000 1.0000
48.9000 418.0000 1.0000
48.9100 419.0000 1.0000
48.9200 405.0000 1.0000
48.9300 397.0000 1.0000
48.9400 416.0000 1.0000
48.9500 435.0000 1.0000
48.9600 423.0000 1.0000
48.9700 381.0000 1.0000
48.9800 372.0000 1.0000
48.9900 383.0000 1.0000
49.0000 397.0000 1.0000
49.0100 412.0000 1.0000
49.0200 392.0000 1.0000
49.0300 390.0000 1.0000
49.0400 422.0000 1.0000
49.0500 409.0000 1.0000
49.0600 410.0000 1.0000
49.0700 405.0000 1.0000
49.0800 403.0000 1.0000
49.0900 420.0000 1.0000
49.1000 406.0000 1.0000
49.1100 402.0000 1.0000
49.1200 435.0000 1.0000
49.1300 428.0000 1.0000
49.1400 404.0000 1.0000
49.1500 422.0000 1.0000
49.1600 410.0000 1.0000
49.1700 400.0000 1.0000
49.1800 409.0000 1.0000
49.1900 434.0000 1.0000
49.2000 413.0000 1.0000
49.2100 394.0000 1.0000
49.2200 388.0000 1.0000
49.2300 407.0000 1.0000
49.2400 427.0000 1.0000
49.2500 413.0000 1.0000
49.2600 424.0000 1.0000
49.2700 411.0000 1.0000
49.2800 427.0000 1.0000
49.2900 408.0000 1.0000
49.3000 409.0000 1.0000
49.3100 430.0000 1.0000
49.3200 440.0000 1.0000
49.3300 419.0000 1.0000
49.3400 450.0000 1.0000
49.3500 430.0000 1.0000
49.3600 411.0000 1.0000
49.3700 424.0000 1.0000
49.3800 463.0000 1.0000
49.3900 441.0000 1.0000
49.4000 430.0000 1.0000
49.4100 443.0000 1.0000
49.4200 449.0000 1.0000
49.4300 424.0000 1.0000
49.4400 463.0000 1.0000
49.4500 444.0000 1.0000
49.4600 426.0000 1.0000
49.4700 459.0000 1.0000
49.4800 502.0000 1.0000
49.4900 410.0000 1.0000
49.5000 442.0000 1.0000
49.5100 443.0000 1.0000
49.5200 493.0000 1.0000
49.5300 431.0000 1.0000
49.5400 427.0000 1.0000
49.5500 460.0000 1.0000
49.5600 449.0000 1.0000
49.5700 434.0000 1.0000
49.5800 446.0000 1.0000
49.5900 400.0000 1.0000
49.6000 409.0000 1.0000
49.6100 443.0000 1.0000
49.6200 394.0000 1.0000
49.6300 414.0000 1.0000
49.6400 425.0000 1.0000
49.6500 438.0000 1.0000
49.6600 436.0000 1.0000
49.6700 426.0000 1.0000
49.6800 413.0000 1.0000
49.6900 402.0000 1.0000
49.7000 400.0000 1.0000
49.7100 426.0000 1.0000
49.7200 409.0000 1.0000
49.7300 438.0000 1.0000
49.7400 397.0000 1.0000
49.7500 397.0000 1.0000
49.7600 416.0000 1.0000
49.7700 392.0000 1.0000
49.7800 412.0000 1.0000
49.7900 410.0000 1.0000
49.8000 446.0000 1.0000
49.8100 418.0000 1.0000
49.8200 399.0000 1.0000
49.8300 408.0000 1.0000
49.8400 436.0000 1.0000
49.8500 426.0000 1.0000
49.8600 398.0000 1.0000
49.8700 421.0000 1.0000
49.8800 398.0000 1.0000
49.8900 424.0000 1.0000
49.9000 398.0000 1.0000
49.9100 388.0000 1.0000
49.9200 399.0000 1.0000
49.9300 420.0000 1.0000
49.9400 409.0000 1.0000
49.9500 413.0000 1.0000
49.9600 390.0000 1.0000
49.9700 394.0000 1.0000
49.9800 397.0000 1.0000
49.9900 426.0000 1.0000
50.0000 417.0000 1.0000
50.0100 394.0000 1.0000
50.0200 383.0000 1.0000
50.0300 413.0000 1.0000
50.0400 403.0000 1.0000
50.0500 409.0000 1.0000
50.0600 372.0000 1.0000
50.0700 387.0000 1.0000
50.0800 384.0000 1.0000
50.0900 395.0000 1.0000
50.1000 446.0000 1.0000
50.1100 439.0000 1.0000
50.1200 419.0000 1.0000
50.1300 440.0000 1.0000
50.1400 433.0000 1.0000
50.1500 456.0000 1.0000
50.1600 415.0000 1.0000
50.1700 409.0000 1.0000
50.1800 407.0000 1.0000
50.1900 414.0000 1.0000
50.2000 411.0000 1.0000
50.2100 412.0000 1.0000
50.2200 404.0000 1.0000
50.2300 428.0000 1.0000
50.2400 393.0000 1.0000
50.2500 431.0000 1.0000
50.2600 443.0000 1.0000
50.2700 412.0000 1.0000
50.2800 409.0000 1.0000
50.2900 432.0000 1.0000
50.3000 419.0000 1.0000
50.3100 420.0000 1.0000
50.3200 404.0000 1.0000
50.3300 401.0000 1.0000
50.3400 419.0000 1.0000
50.3500 391.0000 1.0000
50.3600 400.0000 1.0000
50.3700 444.0000 1.0000
50.3800 391.0000 1.0000
50.3900 394.0000 1.0000
50.4000 417.0000 1.0000
50.4100 429.0000 1.0000
50.4200 406.0000 1.0000
50.4300 386.0000 1.0000
50.4400 381.0000 1.0000
50.4500 392.0000 1.0000
50.4600 412.0000 1.0000
50.4700 394.0000 1.0000
50.4800 413.0000 1.0000
50.4900 393.0000 1.0000
50.5000 411.0000 1.0000
50.5100 399.0000 1.0000
50.5200 392.0000 1.0000
50.5300 404.0000 1.0000
50.5400 409.0000 1.0000
50.5500 414.0000 1.0000
50.5600 396.0000 1.0000
50.5700 384.0000 1.0000
50.5800 423.0000 1.0000
50.5900 397.0000 1.0000
50.6000 409.0000 1.0000
50.6100 433.0000 1.0000
50.6200 435.0000 1.0000
50.6300 416.0000 1.0000
50.6400 393.0000 1.0000
50.6500 414.0000 1.0000
50.6600 416.0000 1.0000
50.6700 450.0000 1.0000
50.6800 434.0000 1.0000
50.6900 456.0000 1.0000
50.7000 428.0000 1.0000
50.7100 419.0000 1.0000
50.7200 433.0000 1.0000
50.7300 402.0000 1.0000
50.7400 406.0000 1.0000
50.7500 404.0000 1.0000
50.7600 426.0000 1.0000
50.7700 420.0000 1.0000
50.7800 429.0000 1.0000
50.7900 435.0000 1.0000
50.8000 423.0000 1.0000
50.8100 409.0000 1.0000
50.8200 423.0000 1.0000
50.8300 442.0000 1.0000
50.8400 399.0000 1.0000
50.8500 431.0000 1.0000
50.8600 445.0000 1.0000
50.8700 449.0000 1.0000
50.8800 434.0000 1.0000
50.8900 438.0000 1.0000
50.9000 418.0000 1.0000
50.9100 440.0000 1.0000
50.9200 456.0000 1.0000
50.9300 434.0000 1.0000
50.9400 439.0000 1.0000
50.9500 490.0000 1.0000
50.9600 480.0000 1.0000
50.9700 483.0000 1.0000
50.9800 455.0000 1.0000
50.9900 424.0000 1.0000
51.0000 448.0000 1.0000
51.0100 428.0000 1.0000
51.0200 439.0000 1.0000
51.0300 478.0000 1.0000
51.0400 449.0000 1.0000
51.0500 482.0000 1.0000
51.0600 471.0000 1.0000
51.0700 479.0000 1.0000
51.0800 476.0000 1.0000
51.0900 463.0000 1.0000
51.1000 495.0000 1.0000
51.1100 524.0000 1.0000
51.1200 545.0000 1.0000
51.1300 526.0000 1.0000
51.1400 571.0000 1.0000
51.1500 549.0000 1.0000
51.1600 594.0000 1.0000
51.1700 590.0000 1.0000
51.1800 595.0000 1.0000
51.1900 630.0000 1.0000
51.2000 702.0000 1.0000
51.2100 698.0000 1.0000
51.2200 699.0000 1.0000
51.2300 715.0000 1.0000
51.2400 708.0000 1.0000
51.2500 730.0000 1.0000
51.2600 817.0000 1.0000
51.2700 838.0000 1.0000
51.2800 938.0000 1.0000
51.2900 944.0000 1.0000
51.3000 1048.0000 1.0000
51.3100 1094.0000 1.0000
51.3200 1182.0000 1.0000
51.3300 1241.0000 1.0000
51.3400 1333.0000 1.0000
51.3500 1451.0000 1.0000
51.3600 1530.0000 1.0000
51.3700 1720.0000 1.0000
51.3800 1796.0000 1.0000
51.3900 1863.0000 1.0000
51.4000 2045.0000 1.0000
51.4100 2202.0000 1.0000
51.4200 2406.0000 1.0000
51.4300 2524.0000 1.0000
51.4400 2588.0000 1.0000
51.4500 2643.0000 1.0000
51.4600 2801.0000 1.0000
51.4700 2823.0000 1.0000
51.4800 2741.0000 1.0000
51.4900 2697.0000 1.0000
51.5000 2728.0000 1.0000
51.5100 2725.0000 1.0000
51.5200 2642.0000 1.0000
51.5300 2489.0000 1.0000
51.5400 2407.0000 1.0000
51.5500 2303.0000 1.0000
51.5600 2302.0000 1.0000
51.5700 2193.0000 1.0000
51.5800 2132.0000 1.0000
51.5900 2048.0000 1.0000
51.6000 2075.0000 1.0000
51.6100 1967.0000 1.0000
51.6200 1862.0000 1.0000
51.6300 1863.0000 1.0000
51.6400 1757.0000 1.0000
51.6500 1623.0000 1.0000
51.6600 1551.0000 1.0000
51.6700 1409.0000 1.0000
51.6800 1315.0000 1.0000
51.6900 1260.0000 1.0000
51.7000 1154.0000 1.0000
51.7100 1112.0000 1.0000
51.7200 984.0000 1.0000
51.7300 964.0000 1.0000
51.7400 838.0000 1.0000
51.7500 858.0000 1.0000
51.7600 808.0000 1.0000
51.7700 758.0000 1.0000
51.7800 728.0000 1.0000
51.7900 694.0000 1.0000
51.8000 680.0000 1.0000
51.8100 682.0000 1.0000
51.8200 624.0000 1.0000
51.8300 619.0000 1.0000
51.8400 656.0000 1.0000
51.8500 626.0000 1.0000
51.8600 561.0000 1.0000
51.8700 561.0000 1.0000
51.8800 545.0000 1.0000
51.8900 536.0000 1.0000
51.9000 570.0000 1.0000
51.9100 528.0000 1.0000
51.9200 492.0000 1.0000
51.9300 510.0000 1.0000
51.9400 467.0000 1.0000
51.9500 482.0000 1.0000
51.9600 493.0000 1.0000
51.9700 525.0000 1.0000
51.9800 500.0000 1.0000
51.9900 516.0000 1.0000
52.0000 469.0000 1.0000
52.0100 470.0000 1.0000
52.0200 475.0000 1.0000
52.0300 471.0000 1.0000
52.0400 483.0000 1.0000
52.0500 449.0000 1.0000
52.0600 440.0000 1.0000
52.0700 471.0000 1.0000
52.0800 457.0000 1.0000
52.0900 447.0000 1.0000
52.1000 402.0000 1.0000
52.1100 470.0000 1.0000
52.1200 429.0000 1.0000
52.1300 459.0000 1.0000
52.1400 460.0000 1.0000
52.1500 458.0000 1.0000
52.1600 445.0000 1.0000
52.1700 462.0000 1.0000
52.1800 447.0000 1.0000
52.1900 415.0000 1.0000
52.2000 436.0000 1.0000
52.2100 413.0000 1.0000
52.2200 434.0000 1.0000
52.2300 455.0000 1.0000
52.2400 436.0000 1.0000
52.2500 413.0000 1.0000
52.2600 409.0000 1.0000
52.2700 430.0000 1.0000
52.2800 421.0000 1.0000
52.2900 427.0000 1.0000
52.3000 424.0000 1.0000
52.3100 405.0000 1.0000
52.3200 411.0000 1.0000
52.3300 449.0000 1.0000
52.3400 432.0000 1.0000
52.3500 426.0000 1.0000
52.3600 436.0000 1.0000
52.3700 408.0000 1.0000
52.3800 389.0000 1.0000
52.3900 405.0000 1.0000
52.4000 401.0000 1.0000
52.4100 381.0000 1.0000
52.4200 407.0000 1.0000
52.4300 415.0000 1.0000
52.4400 440.0000 1.0000
52.4500 428.0000 1.0000
52.4600 435.0000 1.0000
52.4700 389.0000 1.0000
52.4800 437.0000 1.0000
52.4900 458.0000 1.0000
52.5000 427.0000 1.0000
52.5100 389.0000 1.0000
52.5200 415.0000 1.0000
52.5300 400.0000 1.0000
52.5400 381.0000 1.0000
52.5500 393.0000 1.0000
52.5600 377.0000 1.0000
52.5700 418.0000 1.0000
52.5800 417.0000 1.0000
52.5900 438.0000 1.0000
52.6000 434.0000 1.0000
52.6100 412.0000 1.0000
52.6200 414.0000 1.0000
52.6300 401.0000 1.0000
52.6400 355.0000 1.0000
52.6500 404.0000 1.0000
52.6600 393.0000 1.0000
52.6700 406.0000 1.0000
52.6800 396.0000 1.0000
52.6900 418.0000 1.0000
52.7000 396.0000 1.0000
52.7100 413.0000 1.0000
52.7200 400.0000 1.0000
52.7300 413.0000 1.0000
52.7400 363.0000 1.0000
52.7500 367.0000 1.0000
52.7600 398.0000 1.0000
52.7700 389.0000 1.0000
52.7800 384.0000 1.0000
52.7900 421.0000 1.0000
52.8000 387.0000 1.0000
52.8100 411.0000 1.0000
52.8200 402.0000 1.0000
52.8300 392.0000 1.0000
52.8400 380.0000 1.0000
52.8500 385.0000 1.0000
52.8600 394.0000 1.0000
52.8700 388.0000 1.0000
52.8800 409.0000 1.0000
52.8900 391.0000 1.0000
52.9000 399.0000 1.0000
52.9100 408.0000 1.0000
52.9200 399.0000 1.0000
52.9300 407.0000 1.0000
52.9400 389.0000 1.0000
52.9500 371.0000 1.0000
52.9600 408.0000 1.0000
52.9700 384.0000 1.0000
52.9800 399.0000 1.0000
52.9900 396.0000 1.0000
53.0000 413.0000 1.0000
53.0100 403.0000 1.0000
53.0200 404.0000 1.0000
53.0300 383.0000 1.0000
53.0400 381.0000 1.0000
53.0500 399.0000 1.0000
53.0600 395.0000 1.0000
53.0700 381.0000 1.0000
53.0800 403.0000 1.0000
53.0900 392.0000 1.0000
53.1000 433.0000 1.0000
53.1100 441.0000 1.0000
53.1200 387.0000 1.0000
53.1300 360.0000 1.0000
53.1400 391.0000 1.0000
53.1500 400.0000 1.0000
53.1600 391.0000 1.0000
53.1700 409.0000 1.0000
53.1800 398.0000 1.0000
53.1900 397.0000 1.0000
53.2000 385.0000 1.0000
53.2100 397.0000 1.0000
53.2200 395.0000 1.0000
53.2300 369.0000 1.0000
53.2400 367.0000 1.0000
53.2500 386.0000 1.0000
53.2600 404.0000 1.0000
53.2700 380.0000 1.0000
53.2800 378.0000 1.0000
53.2900 380.0000 1.0000
53.3000 398.0000 1.0000
53.3100 374.0000 1.0000
53.3200 402.0000 1.0000
53.3300 413.0000 1.0000
53.3400 392.0000 1.0000
53.3500 395.0000 1.0000
53.3600 398.0000 1.0000
53.3700 388.0000 1.0000
53.3800 383.0000 1.0000
53.3900 425.0000 1.0000
53.4000 354.0000 1.0000
53.4100 396.0000 1.0000
53.4200 409.0000 1.0000
53.4300 419.0000 1.0000
53.4400 423.0000 1.0000
53.4500 390.0000 1.0000
53.4600 390.0000 1.0000
53.4700 393.0000 1.0000
53.4800 381.0000 1.0000
53.4900 406.0000 1.0000
53.5000 368.0000 1.0000
53.5100 378.0000 1.0000
53.5200 387.0000 1.0000
53.5300 402.0000 1.0000
53.5400 411.0000 1.0000
53.5500 427.0000 1.0000
53.5600 410.0000 1.0000
53.5700 380.0000 1.0000
53.5800 418.0000 1.0000
53.5900 386.0000 1.0000
53.6000 387.0000 1.0000
53.6100 402.0000 1.0000
53.6200 406.0000 1.0000
53.6300 417.0000 1.0000
53.6400 416.0000 1.0000
53.6500 405.0000 1.0000
53.6600 396.0000 1.0000
53.6700 423.0000 1.0000
53.6800 411.0000 1.0000
53.6900 387.0000 1.0000
53.7000 400.0000 1.0000
53.7100 417.0000 1.0000
53.7200 440.0000 1.0000
53.7300 420.0000 1.0000
53.7400 378.0000 1.0000
53.7500 385.0000 1.0000
53.7600 407.0000 1.0000
53.7700 404.0000 1.0000
53.7800 425.0000 1.0000
53.7900 418.0000 1.0000
53.8000 421.0000 1.0000
53.8100 419.0000 1.0000
53.8200 423.0000 1.0000
53.8300 397.0000 1.0000
53.8400 369.0000 1.0000
53.8500 367.0000 1.0000
53.8600 435.0000 1.0000
53.8700 411.0000 1.0000
53.8800 380.0000 1.0000
53.8900 392.0000 1.0000
53.9000 428.0000 1.0000
53.9100 409.0000 1.0000
53.9200 372.0000 1.0000
53.9300 437.0000 1.0000
53.9400 416.0000 1.0000
53.9500 425.0000 1.0000
53.9600 426.0000 1.0000
53.9700 438.0000 1.0000
53.9800 414.0000 1.0000
53.9900 428.0000 1.0000
54.0000 392.0000 1.0000
54.0100 452.0000 1.0000
54.0200 414.0000 1.0000
54.0300 419.0000 1.0000
54.0400 436.0000 1.0000
54.0500 447.0000 1.0000
54.0600 410.0000 1.0000
54.0700 433.0000 1.0000
54.0800 456.0000 1.0000
54.0900 443.0000 1.0000
54.1000 445.0000 1.0000
54.1100 426.0000 1.0000
54.1200 420.0000 1.0000
54.1300 426.0000 1.0000
54.1400 435.0000 1.0000
54.1500 471.0000 1.0000
54.1600 412.0000 1.0000
54.1700 432.0000 1.0000
54.1800 424.0000 1.0000
54.1900 444.0000 1.0000
54.2000 451.0000 1.0000
54.2100 428.0000 1.0000
54.2200 420.0000 1.0000
54.2300 433.0000 1.0000
54.2400 458.0000 1.0000
54.2500 445.0000 1.0000
54.2600 467.0000 1.0000
54.2700 437.0000 1.0000
54.2800 441.0000 1.0000
54.2900 481.0000 1.0000
54.3000 434.0000 1.0000
54.3100 435.0000 1.0000
54.3200 467.0000 1.0000
54.3300 475.0000 1.0000
54.3400 502.0000 1.0000
54.3500 477.0000 1.0000
54.3600 489.0000 1.0000
54.3700 514.0000 1.0000
54.3800 492.0000 1.0000
54.3900 504.0000 1.0000
54.4000 510.0000 1.0000
54.4100 535.0000 1.0000
54.4200 543.0000 1.0000
54.4300 567.0000 1.0000
54.4400 569.0000 1.0000
54.4500 570.0000 1.0000
54.4600 585.0000 1.0000
54.4700 582.0000 1.0000
54.4800 595.0000 1.0000
54.4900 596.0000 1.0000
54.5000 598.0000 1.0000
54.5100 597.0000 1.0000
54.5200 612.0000 1.0000
54.5300 571.0000 1.0000
54.5400 563.0000 1.0000
54.5500 551.0000 1.0000
54.5600 586.0000 1.0000
54.5700 543.0000 1.0000
54.5800 592.0000 1.0000
54.5900 566.0000 1.0000
54.6000 564.0000 1.0000
54.6100 507.0000 1.0000
54.6200 561.0000 1.0000
54.6300 516.0000 1.0000
54.6400 496.0000 1.0000
54.6500 541.0000 1.0000
54.6600 523.0000 1.0000
54.6700 511.0000 1.0000
54.6800 498.0000 1.0000
54.6900 509.0000 1.0000
54.7000 534.0000 1.0000
54.7100 465.0000 1.0000
54.7200 472.0000 1.0000
54.7300 486.0000 1.0000
54.7400 485.0000 1.0000
54.7500 446.0000 1.0000
54.7600 468.0000 1.0000
54.7700 450.0000 1.0000
54.7800 428.0000 1.0000
54.7900 443.0000 1.0000
54.8000 409.0000 1.0000
54.8100 427.0000 1.0000
54.8200 434.0000 1.0000
54.8300 405.0000 1.0000
54.8400 400.0000 1.0000
54.8500 435.0000 1.0000
54.8600 453.0000 1.0000
54.8700 416.0000 1.0000
54.8800 396.0000 1.0000
54.8900 404.0000 1.0000
54.9000 418.0000 1.0000
54.9100 419.0000 1.0000
54.9200 380.0000 1.0000
54.9300 413.0000 1.0000
54.9400 380.0000 1.0000
54.9500 409.0000 1.0000
54.9600 383.0000 1.0000
54.9700 413.0000 1.0000
54.9800 412.0000 1.0000
54.9900 379.0000 1.0000
55.0000 409.0000 1.0000
55.0100 409.0000 1.0000
55.0200 388.0000 1.0000
55.0300 395.0000 1.0000
55.0400 401.0000 1.0000
55.0500 394.0000 1.0000
55.0600 384.0000 1.0000
55.0700 428.0000 1.0000
55.0800 388.0000 1.0000
55.0900 394.0000 1.0000
55.1000 387.0000 1.0000
55.1100 414.0000 1.0000
55.1200 393.0000 1.0000
55.1300 379.0000 1.0000
55.1400 393.0000 1.0000
55.1500 379.0000 1.0000
55.1600 401.0000 1.0000
55.1700 440.0000 1.0000
55.1800 407.0000 1.0000
55.1900 403.0000 1.0000
55.2000 412.0000 1.0000
55.2100 402.0000 1.0000
55.2200 374.0000 1.0000
55.2300 354.0000 1.0000
55.2400 372.0000 1.0000
55.2500 373.0000 1.0000
55.2600 399.0000 1.0000
55.2700 344.0000 1.0000
55.2800 382.0000 1.0000
55.2900 349.0000 1.0000
55.3000 364.0000 1.0000
55.3100 393.0000 1.0000
55.3200 435.0000 1.0000
55.3300 419.0000 1.0000
55.3400 392.0000 1.0000
55.3500 383.0000 1.0000
55.3600 385.0000 1.0000
55.3700 394.0000 1.0000
55.3800 358.0000 1.0000
55.3900 393.0000 1.0000
55.4000 406.0000 1.0000
55.4100 322.0000 1.0000
55.4200 361.0000 1.0000
55.4300 389.0000 1.0000
55.4400 391.0000 1.0000
55.4500 347.0000 1.0000
55.4600 370.0000 1.0000
55.4700 374.0000 1.0000
55.4800 362.0000 1.0000
55.4900 371.0000 1.0000
55.5000 355.0000 1.0000
55.5100 369.0000 1.0000
55.5200 367.0000 1.0000
55.5300 357.0000 1.0000
55.5400 405.0000 1.0000
55.5500 346.0000 1.0000
55.5600 417.0000 1.0000
55.5700 380.0000 1.0000
55.5800 368.0000 1.0000
55.5900 394.0000 1.0000
55.6000 374.0000 1.0000
55.6100 351.0000 1.0000
55.6200 365.0000 1.0000
55.6300 380.0000 1.0000
55.6400 375.0000 1.0000
55.6500 381.0000 1.0000
55.6600 357.0000 1.0000
55.6700 415.0000 1.0000
55.6800 380.0000 1.0000
55.6900 380.0000 1.0000
55.7000 381.0000 1.0000
55.7100 347.0000 1.0000
55.7200 340.0000 1.0000
55.7300 387.0000 1.0000
55.7400 394.0000 1.0000
55.7500 391.0000 1.0000
55.7600 380.0000 1.0000
55.7700 374.0000 1.0000
55.7800 381.0000 1.0000
55.7900 376.0000 1.0000
55.8000 367.0000 1.0000
55.8100 387.0000 1.0000
55.8200 383.0000 1.0000
55.8300 356.0000 1.0000
55.8400 372.0000 1.0000
55.8500 403.0000 1.0000
55.8600 368.0000 1.0000
55.8700 382.0000 1.0000
55.8800 374.0000 1.0000
55.8900 380.0000 1.0000
55.9000 374.0000 1.0000
55.9100 360.0000 1.0000
55.9200 382.0000 1.0000
55.9300 390.0000 1.0000
55.9400 414.0000 1.0000
55.9500 361.0000 1.0000
55.9600 360.0000 1.0000
55.9700 393.0000 1.0000
55.9800 365.0000 1.0000
55.9900 398.0000 1.0000
56.0000 393.0000 1.0000
56.0100 392.0000 1.0000
56.0200 416.0000 1.0000
56.0300 372.0000 1.0000
56.0400 368.0000 1.0000
56.0500 394.0000 1.0000
56.0600 366.0000 1.0000
56.0700 367.0000 1.0000
56.0800 404.0000 1.0000
56.0900 411.0000 1.0000
56.1000 375.0000 1.0000
56.1100 370.0000 1.0000
56.1200 364.0000 1.0000
56.1300 370.0000 1.0000
56.1400 361.0000 1.0000
56.1500 388.0000 1.0000
56.1600 370.0000 1.0000
56.1700 399.0000 1.0000
56.1800 380.0000 1.0000
56.1900 373.0000 1.0000
56.2000 374.0000 1.0000
56.2100 368.0000 1.0000
56.2200 373.0000 1.0000
56.2300 376.0000 1.0000
56.2400 365.0000 1.0000
56.2500 360.0000 1.0000
56.2600 363.0000 1.0000
56.2700 346.0000 1.0000
56.2800 362.0000 1.0000
56.2900 362.0000 1.0000
56.3000 378.0000 1.0000
56.3100 391.0000 1.0000
56.3200 377.0000 1.0000
56.3300 365.0000 1.0000
56.3400 373.0000 1.0000
56.3500 402.0000 1.0000
56.3600 356.0000 1.0000
56.3700 366.0000 1.0000
56.3800 388.0000 1.0000
56.3900 384.0000 1.0000
56.4000 370.0000 1.0000
56.4100 336.0000 1.0000
56.4200 361.0000 1.0000
56.4300 349.0000 1.0000
56.4400 388.0000 1.0000
56.4500 380.0000 1.0000
56.4600 380.0000 1.0000
56.4700 372.0000 1.0000
56.4800 357.0000 1.0000
56.4900 396.0000 1.0000
56.5000 368.0000 1.0000
56.5100 382.0000 1.0000
56.5200 349.0000 1.0000
56.5300 376.0000 1.0000
56.5400 379.0000 1.0000
56.5500 358.0000 1.0000
56.5600 386.0000 1.0000
56.5700 369.0000 1.0000
56.5800 373.0000 1.0000
56.5900 381.0000 1.0000
56.6000 389.0000 1.0000
56.6100 373.0000 1.0000
56.6200 339.0000 1.0000
56.6300 378.0000 1.0000
56.6400 369.0000 1.0000
56.6500 372.0000 1.0000
56.6600 361.0000 1.0000
56.6700 359.0000 1.0000
56.6800 346.0000 1.0000
56.6900 391.0000 1.0000
56.7000 370.0000 1.0000
56.7100 347.0000 1.0000
56.7200 381.0000 1.0000
56.7300 366.0000 1.0000
56.7400 374.0000 1.0000
56.7500 352.0000 1.0000
56.7600 366.0000 1.0000
56.7700 382.0000 1.0000
56.7800 360.0000 1.0000
56.7900 391.0000 1.0000
56.8000 369.0000 1.0000
56.8100 352.0000 1.0000
56.8200 369.0000 1.0000
56.8300 368.0000 1.0000
56.8400 374.0000 1.0000
56.8500 358.0000 1.0000
56.8600 369.0000 1.0000
56.8700 369.0000 1.0000
56.8800 369.0000 1.0000
56.8900 376.0000 1.0000
56.9000 377.0000 1.0000
56.9100 377.0000 1.0000
56.9200 383.0000 1.0000
56.9300 363.0000 1.0000
56.9400 357.0000 1.0000
56.9500 366.0000 1.0000
56.9600 392.0000 1.0000
56.9700 369.0000 1.0000
56.9800 403.0000 1.0000
56.9900 369.0000 1.0000
57.0000 374.0000 1.0000
57.0100 377.0000 1.0000
57.0200 369.0000 1.0000
57.0300 363.0000 1.0000
57.0400 379.0000 1.0000
57.0500 385.0000 1.0000
57.0600 387.0000 1.0000
57.0700 400.0000 1.0000
57.0800 395.0000 1.0000
57.0900 362.0000 1.0000
57.1000 359.0000 1.0000
57.1100 371.0000 1.0000
57.1200 374.0000 1.0000
57.1300 369.0000 1.0000
57.1400 372.0000 1.0000
57.1500 379.0000 1.0000
57.1600 374.0000 1.0000
57.1700 361.0000 1.0000
57.1800 339.0000 1.0000
57.1900 395.0000 1.0000
57.2000 363.0000 1.0000
57.2100 363.0000 1.0000
57.2200 378.0000 1.0000
57.2300 374.0000 1.0000
57.2400 373.0000 1.0000
57.2500 363.0000 1.0000
57.2600 382.0000 1.0000
57.2700 394.0000 1.0000
57.2800 368.0000 1.0000
57.2900 374.0000 1.0000
57.3000 374.0000 1.0000
57.3100 369.0000 1.0000
57.3200 371.0000 1.0000
57.3300 351.0000 1.0000
57.3400 380.0000 1.0000
57.3500 340.0000 1.0000
57.3600 380.0000 1.0000
57.3700 357.0000 1.0000
57.3800 397.0000 1.0000
57.3900 407.0000 1.0000
57.4000 370.0000 1.0000
57.4100 391.0000 1.0000
57.4200 382.0000 1.0000
57.4300 367.0000 1.0000
57.4400 402.0000 1.0000
57.4500 395.0000 1.0000
57.4600 378.0000 1.0000
57.4700 386.0000 1.0000
57.4800 377.0000 1.0000
57.4900 392.0000 1.0000
57.5000 386.0000 1.0000
57.5100 384.0000 1.0000
57.5200 400.0000 1.0000
57.5300 407.0000 1.0000
57.5400 364.0000 1.0000
57.5500 406.0000 1.0000
57.5600 394.0000 1.0000
57.5700 428.0000 1.0000
57.5800 396.0000 1.0000
57.5900 405.0000 1.0000
57.6000 370.0000 1.0000
57.6100 378.0000 1.0000
57.6200 390.0000 1.0000
57.6300 380.0000 1.0000
57.6400 376.0000 1.0000
57.6500 353.0000 1.0000
57.6600 361.0000 1.0000
57.6700 376.0000 1.0000
57.6800 354.0000 1.0000
57.6900 386.0000 1.0000
57.7000 367.0000 1.0000
57.7100 377.0000 1.0000
57.7200 407.0000 1.0000
57.7300 396.0000 1.0000
57.7400 386.0000 1.0000
57.7500 383.0000 1.0000
57.7600 356.0000 1.0000
57.7700 359.0000 1.0000
57.7800 377.0000 1.0000
57.7900 371.0000 1.0000
57.8000 361.0000 1.0000
57.8100 376.0000 1.0000
57.8200 343.0000 1.0000
57.8300 407.0000 1.0000
57.8400 368.0000 1.0000
57.8500 345.0000 1.0000
57.8600 382.0000 1.0000
57.8700 337.0000 1.0000
57.8800 347.0000 1.0000
57.8900 373.0000 1.0000
57.9000 383.0000 1.0000
57.9100 388.0000 1.0000
57.9200 391.0000 1.0000
57.9300 360.0000 1.0000
57.9400 346.0000 1.0000
57.9500 392.0000 1.0000
57.9600 396.0000 1.0000
57.9700 370.0000 1.0000
57.9800 360.0000 1.0000
57.9900 380.0000 1.0000
58.0000 388.0000 1.0000
58.0100 384.0000 1.0000
58.0200 361.0000 1.0000
58.0300 359.0000 1.0000
58.0400 373.0000 1.0000
58.0500 379.0000 1.0000
58.0600 370.0000 1.0000
58.0700 331.0000 1.0000
58.0800 332.0000 1.0000
58.0900 346.0000 1.0000
58.1000 404.0000 1.0000
58.1100 395.0000 1.0000
58.1200 370.0000 1.0000
58.1300 374.0000 1.0000
58.1400 373.0000 1.0000
58.1500 358.0000 1.0000
58.1600 403.0000 1.0000
58.1700 403.0000 1.0000
58.1800 379.0000 1.0000
58.1900 396.0000 1.0000
58.2000 358.0000 1.0000
58.2100 357.0000 1.0000
58.2200 365.0000 1.0000
58.2300 355.0000 1.0000
58.2400 358.0000 1.0000
58.2500 385.0000 1.0000
58.2600 377.0000 1.0000
58.2700 379.0000 1.0000
58.2800 379.0000 1.0000
58.2900 343.0000 1.0000
58.3000 333.0000 1.0000
58.3100 379.0000 1.0000
58.3200 369.0000 1.0000
58.3300 385.0000 1.0000
58.3400 390.0000 1.0000
58.3500 397.0000 1.0000
58.3600 361.0000 1.0000
58.3700 379.0000 1.0000
58.3800 378.0000 1.0000
58.3900 378.0000 1.0000
58.4000 374.0000 1.0000
58.4100 389.0000 1.0000
58.4200 364.0000 1.0000
58.4300 362.0000 1.0000
58.4400 361.0000 1.0000
58.4500 377.0000 1.0000
58.4600 361.0000 1.0000
58.4700 380.0000 1.0000
58.4800 392.0000 1.0000
58.4900 399.0000 1.0000
58.5000 370.0000 1.0000
58.5100 376.0000 1.0000
58.5200 367.0000 1.0000
58.5300 373.0000 1.0000
58.5400 368.0000 1.0000
58.5500 393.0000 1.0000
58.5600 366.0000 1.0000
58.5700 376.0000 1.0000
58.5800 371.0000 1.0000
58.5900 381.0000 1.0000
58.6000 382.0000 1.0000
58.6100 361.0000 1.0000
58.6200 387.0000 1.0000
58.6300 380.0000 1.0000
58.6400 371.0000 1.0000
58.6500 341.0000 1.0000
58.6600 350.0000 1.0000
58.6700 353.0000 1.0000
58.6800 380.0000 1.0000
58.6900 363.0000 1.0000
58.7000 387.0000 1.0000
58.7100 382.0000 1.0000
58.7200 372.0000 1.0000
58.7300 366.0000 1.0000
58.7400 362.0000 1.0000
58.7500 340.0000 1.0000
58.7600 352.0000 1.0000
58.7700 382.0000 1.0000
58.7800 362.0000 1.0000
58.7900 395.0000 1.0000
58.8000 380.0000 1.0000
58.8100 352.0000 1.0000
58.8200 362.0000 1.0000
58.8300 375.0000 1.0000
58.8400 377.0000 1.0000
58.8500 351.0000 1.0000
58.8600 375.0000 1.0000
58.8700 374.0000 1.0000
58.8800 364.0000 1.0000
58.8900 371.0000 1.0000
58.9000 381.0000 1.0000
58.9100 374.0000 1.0000
58.9200 376.0000 1.0000
58.9300 370.0000 1.0000
58.9400 386.0000 1.0000
58.9500 387.0000 1.0000
58.9600 356.0000 1.0000
58.9700 382.0000 1.0000
58.9800 374.0000 1.0000
58.9900 359.0000 1.0000
59.0000 380.0000 1.0000
59.0100 343.0000 1.0000
59.0200 350.0000 1.0000
59.0300 400.0000 1.0000
59.0400 378.0000 1.0000
59.0500 387.0000 1.0000
59.0600 358.0000 1.0000
59.0700 364.0000 1.0000
59.0800 349.0000 1.0000
59.0900 362.0000 1.0000
59.1000 388.0000 1.0000
59.1100 387.0000 1.0000
59.1200 365.0000 1.0000
59.1300 374.0000 1.0000
59.1400 347.0000 1.0000
59.1500 356.0000 1.0000
59.1600 356.0000 1.0000
59.1700 353.0000 1.0000
59.1800 377.0000 1.0000
59.1900 362.0000 1.0000
59.2000 387.0000 1.0000
59.2100 376.0000 1.0000
59.2200 388.0000 1.0000
59.2300 366.0000 1.0000
59.2400 393.0000 1.0000
59.2500 418.0000 1.0000
59.2600 367.0000 1.0000
59.2700 361.0000 1.0000
59.2800 339.0000 1.0000
59.2900 346.0000 1.0000
59.3000 343.0000 1.0000
59.3100 362.0000 1.0000
59.3200 402.0000 1.0000
59.3300 406.0000 1.0000
59.3400 365.0000 1.0000
59.3500 365.0000 1.0000
59.3600 364.0000 1.0000
59.3700 349.0000 1.0000
59.3800 361.0000 1.0000
59.3900 378.0000 1.0000
59.4000 389.0000 1.0000
59.4100 393.0000 1.0000
59.4200 411.0000 1.0000
59.4300 404.0000 1.0000
59.4400 398.0000 1.0000
59.4500 400.0000 1.0000
59.4600 358.0000 1.0000
59.4700 375.0000 1.0000
59.4800 348.0000 1.0000
59.4900 350.0000 1.0000
59.5000 382.0000 1.0000
59.5100 362.0000 1.0000
59.5200 377.0000 1.0000
59.5300 370.0000 1.0000
59.5400 388.0000 1.0000
59.5500 371.0000 1.0000
59.5600 359.0000 1.0000
59.5700 378.0000 1.0000
59.5800 371.0000 1.0000
59.5900 402.0000 1.0000
59.6000 381.0000 1.0000
59.6100 371.0000 1.0000
59.6200 350.0000 1.0000
59.6300 349.0000 1.0000
59.6400 366.0000 1.0000
59.6500 371.0000 1.0000
59.6600 351.0000 1.0000
59.6700 342.0000 1.0000
59.6800 335.0000 1.0000
59.6900 364.0000 1.0000
59.7000 362.0000 1.0000
59.7100 367.0000 1.0000
59.7200 398.0000 1.0000
59.7300 346.0000 1.0000
59.7400 369.0000 1.0000
59.7500 359.0000 1.0000
59.7600 346.0000 1.0000
59.7700 337.0000 1.0000
59.7800 349.0000 1.0000
59.7900 360.0000 1.0000
59.8000 389.0000 1.0000
59.8100 381.0000 1.0000
59.8200 396.0000 1.0000
59.8300 366.0000 1.0000
59.8400 371.0000 1.0000
59.8500 375.0000 1.0000
59.8600 388.0000 1.0000
59.8700 336.0000 1.0000
59.8800 331.0000 1.0000
59.8900 372.0000 1.0000
59.9000 363.0000 1.0000
59.9100 377.0000 1.0000
59.9200 376.0000 1.0000
59.9300 371.0000 1.0000
59.9400 360.0000 1.0000
59.9500 368.0000 1.0000
59.9600 354.0000 1.0000
59.9700 355.0000 1.0000
59.9800 391.0000 1.0000
59.9900 389.0000 1.0000
60.0000 392.0000 1.0000
60.0100 337.0000 1.0000
60.0200 364.0000 1.0000
60.0300 363.0000 1.0000
60.0400 346.0000 1.0000
60.0500 382.0000 1.0000
60.0600 379.0000 1.0000
60.0700 376.0000 1.0000
60.0800 359.0000 1.0000
60.0900 348.0000 1.0000
60.1000 348.0000 1.0000
60.1100 359.0000 1.0000
60.1200 383.0000 1.0000
60.1300 353.0000 1.0000
60.1400 352.0000 1.0000
60.1500 387.0000 1.0000
60.1600 364.0000 1.0000
60.1700 375.0000 1.0000
60.1800 396.0000 1.0000
60.1900 363.0000 1.0000
60.2000 349.0000 1.0000
60.2100 366.0000 1.0000
60.2200 396.0000 1.0000
60.2300 382.0000 1.0000
60.2400 372.0000 1.0000
60.2500 341.0000 1.0000
60.2600 378.0000 1.0000
60.2700 407.0000 1.0000
60.2800 371.0000 1.0000
60.2900 344.0000 1.0000
60.3000 344.0000 1.0000
60.3100 359.0000 1.0000
60.3200 371.0000 1.0000
60.3300 357.0000 1.0000
60.3400 371.0000 1.0000
60.3500 375.0000 1.0000
60.3600 366.0000 1.0000
60.3700 380.0000 1.0000
60.3800 357.0000 1.0000
60.3900 355.0000 1.0000
60.4000 364.0000 1.0000
60.4100 377.0000 1.0000
60.4200 380.0000 1.0000
60.4300 365.0000 1.0000
60.4400 371.0000 1.0000
60.4500 368.0000 1.0000
60.4600 374.0000 1.0000
60.4700 404.0000 1.0000
60.4800 365.0000 1.0000
60.4900 355.0000 1.0000
60.5000 371.0000 1.0000
60.5100 347.0000 1.0000
60.5200 360.0000 1.0000
60.5300 377.0000 1.0000
60.5400 353.0000 1.0000
60.5500 364.0000 1.0000
60.5600 345.0000 1.0000
60.5700 362.0000 1.0000
60.5800 345.0000 1.0000
60.5900 366.0000 1.0000
60.6000 361.0000 1.0000
60.6100 375.0000 1.0000
60.6200 365.0000 1.0000
60.6300 384.0000 1.0000
60.6400 363.0000 1.0000
60.6500 374.0000 1.0000
60.6600 367.0000 1.0000
60.6700 397.0000 1.0000
60.6800 400.0000 1.0000
60.6900 389.0000 1.0000
60.7000 366.0000 1.0000
60.7100 380.0000 1.0000
60.7200 369.0000 1.0000
60.7300 386.0000 1.0000
60.7400 380.0000 1.0000
60.7500 373.0000 1.0000
60.7600 373.0000 1.0000
60.7700 367.0000 1.0000
60.7800 384.0000 1.0000
60.7900 368.0000 1.0000
60.8000 367.0000 1.0000
60.8100 355.0000 1.0000
60.8200 390.0000 1.0000
60.8300 391.0000 1.0000
60.8400 350.0000 1.0000
60.8500 367.0000 1.0000
60.8600 371.0000 1.0000
60.8700 358.0000 1.0000
60.8800 345.0000 1.0000
60.8900 387.0000 1.0000
60.9000 382.0000 1.0000
60.9100 370.0000 1.0000
60.9200 355.0000 1.0000
60.9300 383.0000 1.0000
60.9400 355.0000 1.0000
60.9500 368.0000 1.0000
60.9600 371.0000 1.0000
60.9700 351.0000 1.0000
60.9800 388.0000 1.0000
60.9900 371.0000 1.0000
61.0000 384.0000 1.0000
61.0100 385.0000 1.0000
61.0200 383.0000 1.0000
61.0300 388.0000 1.0000
61.0400 414.0000 1.0000
61.0500 406.0000 1.0000
61.0600 405.0000 1.0000
61.0700 355.0000 1.0000
61.0800 403.0000 1.0000
61.0900 419.0000 1.0000
61.1000 406.0000 1.0000
61.1100 385.0000 1.0000
61.1200 416.0000 1.0000
61.1300 407.0000 1.0000
61.1400 397.0000 1.0000
61.1500 409.0000 1.0000
61.1600 427.0000 1.0000
61.1700 442.0000 1.0000
61.1800 406.0000 1.0000
61.1900 414.0000 1.0000
61.2000 437.0000 1.0000
61.2100 459.0000 1.0000
61.2200 471.0000 1.0000
61.2300 504.0000 1.0000
61.2400 496.0000 1.0000
61.2500 459.0000 1.0000
61.2600 484.0000 1.0000
61.2700 477.0000 1.0000
61.2800 474.0000 1.0000
61.2900 509.0000 1.0000
61.3000 505.0000 1.0000
61.3100 521.0000 1.0000
61.3200 520.0000 1.0000
61.3300 537.0000 1.0000
61.3400 583.0000 1.0000
61.3500 524.0000 1.0000
61.3600 552.0000 1.0000
61.3700 571.0000 1.0000
61.3800 582.0000 1.0000
61.3900 632.0000 1.0000
61.4000 631.0000 1.0000
61.4100 652.0000 1.0000
61.4200 656.0000 1.0000
61.4300 654.0000 1.0000
61.4400 697.0000 1.0000
61.4500 704.0000 1.0000
61.4600 729.0000 1.0000
61.4700 720.0000 1.0000
61.4800 730.0000 1.0000
61.4900 703.0000 1.0000
61.5000 731.0000 1.0000
61.5100 698.0000 1.0000
61.5200 722.0000 1.0000
61.5300 737.0000 1.0000
61.5400 774.0000 1.0000
61.5500 782.0000 1.0000
61.5600 757.0000 1.0000
61.5700 784.0000 1.0000
61.5800 728.0000 1.0000
61.5900 721.0000 1.0000
61.6000 723.0000 1.0000
61.6100 735.0000 1.0000
61.6200 708.0000 1.0000
61.6300 721.0000 1.0000
61.6400 721.0000 1.0000
61.6500 708.0000 1.0000
61.6600 694.0000 1.0000
61.6700 722.0000 1.0000
61.6800 717.0000 1.0000
61.6900 656.0000 1.0000
61.7000 631.0000 1.0000
61.7100 675.0000 1.0000
61.7200 621.0000 1.0000
61.7300 656.0000 1.0000
61.7400 594.0000 1.0000
61.7500 584.0000 1.0000
61.7600 578.0000 1.0000
61.7700 577.0000 1.0000
61.7800 571.0000 1.0000
61.7900 542.0000 1.0000
61.8000 561.0000 1.0000
61.8100 496.0000 1.0000
61.8200 524.0000 1.0000
61.8300 528.0000 1.0000
61.8400 515.0000 1.0000
61.8500 524.0000 1.0000
61.8600 482.0000 1.0000
61.8700 445.0000 1.0000
61.8800 470.0000 1.0000
61.8900 458.0000 1.0000
61.9000 471.0000 1.0000
61.9100 495.0000 1.0000
61.9200 492.0000 1.0000
61.9300 495.0000 1.0000
61.9400 441.0000 1.0000
61.9500 455.0000 1.0000
61.9600 412.0000 1.0000
61.9700 435.0000 1.0000
61.9800 419.0000 1.0000
61.9900 409.0000 1.0000
62.0000 422.0000 1.0000
62.0100 383.0000 1.0000
62.0200 437.0000 1.0000
62.0300 439.0000 1.0000
62.0400 422.0000 1.0000
62.0500 424.0000 1.0000
62.0600 429.0000 1.0000
62.0700 467.0000 1.0000
62.0800 415.0000 1.0000
62.0900 384.0000 1.0000
62.1000 411.0000 1.0000
62.1100 393.0000 1.0000
62.1200 402.0000 1.0000
62.1300 406.0000 1.0000
62.1400 443.0000 1.0000
62.1500 400.0000 1.0000
62.1600 429.0000 1.0000
62.1700 406.0000 1.0000
62.1800 415.0000 1.0000
62.1900 403.0000 1.0000
62.2000 416.0000 1.0000
62.2100 416.0000 1.0000
62.2200 417.0000 1.0000
62.2300 412.0000 1.0000
62.2400 442.0000 1.0000
62.2500 413.0000 1.0000
62.2600 412.0000 1.0000
62.2700 432.0000 1.0000
62.2800 422.0000 1.0000
62.2900 399.0000 1.0000
62.3000 385.0000 1.0000
62.3100 428.0000 1.0000
62.3200 404.0000 1.0000
62.3300 408.0000 1.0000
62.3400 405.0000 1.0000
62.3500 397.0000 1.0000
62.3600 440.0000 1.0000
62.3700 421.0000 1.0000
62.3800 424.0000 1.0000
62.3900 408.0000 1.0000
62.4000 405.0000 1.0000
62.4100 388.0000 1.0000
62.4200 386.0000 1.0000
62.4300 428.0000 1.0000
62.4400 412.0000 1.0000
62.4500 428.0000 1.0000
62.4600 408.0000 1.0000
62.4700 408.0000 1.0000
62.4800 452.0000 1.0000
62.4900 430.0000 1.0000
62.5000 388.0000 1.0000
62.5100 383.0000 1.0000
62.5200 391.0000 1.0000
62.5300 392.0000 1.0000
62.5400 376.0000 1.0000
62.5500 403.0000 1.0000
62.5600 365.0000 1.0000
62.5700 426.0000 1.0000
62.5800 391.0000 1.0000
62.5900 348.0000 1.0000
62.6000 390.0000 1.0000
62.6100 359.0000 1.0000
62.6200 355.0000 1.0000
62.6300 340.0000 1.0000
62.6400 371.0000 1.0000
62.6500 367.0000 1.0000
62.6600 355.0000 1.0000
62.6700 385.0000 1.0000
62.6800 385.0000 1.0000
62.6900 356.0000 1.0000
62.7000 415.0000 1.0000
62.7100 354.0000 1.0000
62.7200 352.0000 1.0000
62.7300 376.0000 1.0000
62.7400 358.0000 1.0000
62.7500 360.0000 1.0000
62.7600 362.0000 1.0000
62.7700 373.0000 1.0000
62.7800 368.0000 1.0000
62.7900 353.0000 1.0000
62.8000 397.0000 1.0000
62.8100 412.0000 1.0000
62.8200 344.0000 1.0000
62.8300 366.0000 1.0000
62.8400 363.0000 1.0000
62.8500 350.0000 1.0000
62.8600 349.0000 1.0000
62.8700 376.0000 1.0000
62.8800 352.0000 1.0000
62.8900 355.0000 1.0000
62.9000 368.0000 1.0000
62.9100 378.0000 1.0000
62.9200 331.0000 1.0000
62.9300 377.0000 1.0000
62.9400 373.0000 1.0000
62.9500 369.0000 1.0000
62.9600 366.0000 1.0000
62.9700 384.0000 1.0000
62.9800 332.0000 1.0000
62.9900 381.0000 1.0000
63.0000 363.0000 1.0000
63.0100 369.0000 1.0000
63.0200 396.0000 1.0000
63.0300 372.0000 1.0000
63.0400 398.0000 1.0000
63.0500 400.0000 1.0000
63.0600 349.0000 1.0000
63.0700 354.0000 1.0000
63.0800 360.0000 1.0000
63.0900 381.0000 1.0000
63.1000 390.0000 1.0000
63.1100 372.0000 1.0000
63.1200 359.0000 1.0000
63.1300 382.0000 1.0000
63.1400 393.0000 1.0000
63.1500 365.0000 1.0000
63.1600 391.0000 1.0000
63.1700 383.0000 1.0000
63.1800 390.0000 1.0000
63.1900 372.0000 1.0000
63.2000 390.0000 1.0000
63.2100 385.0000 1.0000
63.2200 394.0000 1.0000
63.2300 383.0000 1.0000
63.2400 391.0000 1.0000
63.2500 368.0000 1.0000
63.2600 372.0000 1.0000
63.2700 341.0000 1.0000
63.2800 352.0000 1.0000
63.2900 357.0000 1.0000
63.3000 345.0000 1.0000
63.3100 383.0000 1.0000
63.3200 364.0000 1.0000
63.3300 393.0000 1.0000
63.3400 382.0000 1.0000
63.3500 368.0000 1.0000
63.3600 368.0000 1.0000
63.3700 418.0000 1.0000
63.3800 369.0000 1.0000
63.3900 352.0000 1.0000
63.4000 341.0000 1.0000
63.4100 373.0000 1.0000
63.4200 380.0000 1.0000
63.4300 343.0000 1.0000
63.4400 384.0000 1.0000
63.4500 363.0000 1.0000
63.4600 390.0000 1.0000
63.4700 365.0000 1.0000
63.4800 350.0000 1.0000
63.4900 403.0000 1.0000
63.5000 377.0000 1.0000
63.5100 393.0000 1.0000
63.5200 381.0000 1.0000
63.5300 396.0000 1.0000
63.5400 412.0000 1.0000
63.5500 398.0000 1.0000
63.5600 373.0000 1.0000
63.5700 384.0000 1.0000
63.5800 392.0000 1.0000
63.5900 385.0000 1.0000
63.6000 384.0000 1.0000
63.6100 390.0000 1.0000
63.6200 374.0000 1.0000
63.6300 399.0000 1.0000
63.6400 409.0000 1.0000
63.6500 373.0000 1.0000
63.6600 377.0000 1.0000
63.6700 397.0000 1.0000
63.6800 391.0000 1.0000
63.6900 372.0000 1.0000
63.7000 404.0000 1.0000
63.7100 422.0000 1.0000
63.7200 410.0000 1.0000
63.7300 414.0000 1.0000
63.7400 400.0000 1.0000
63.7500 422.0000 1.0000
63.7600 416.0000 1.0000
63.7700 424.0000 1.0000
63.7800 465.0000 1.0000
63.7900 431.0000 1.0000
63.8000 428.0000 1.0000
63.8100 425.0000 1.0000
63.8200 454.0000 1.0000
63.8300 487.0000 1.0000
63.8400 454.0000 1.0000
63.8500 485.0000 1.0000
63.8600 510.0000 1.0000
63.8700 527.0000 1.0000
63.8800 559.0000 1.0000
63.8900 590.0000 1.0000
63.9000 582.0000 1.0000
63.9100 584.0000 1.0000
63.9200 601.0000 1.0000
63.9300 616.0000 1.0000
63.9400 595.0000 1.0000
63.9500 615.0000 1.0000
63.9600 599.0000 1.0000
63.9700 579.0000 1.0000
63.9800 560.0000 1.0000
63.9900 540.0000 1.0000
64.0000 541.0000 1.0000
64.0100 558.0000 1.0000
64.0200 539.0000 1.0000
64.0300 510.0000 1.0000
64.0400 501.0000 1.0000
64.0500 534.0000 1.0000
64.0600 506.0000 1.0000
64.0700 529.0000 1.0000
64.0800 534.0000 1.0000
64.0900 526.0000 1.0000
64.1000 509.0000 1.0000
64.1100 506.0000 1.0000
64.1200 480.0000 1.0000
64.1300 482.0000 1.0000
64.1400 467.0000 1.0000
64.1500 463.0000 1.0000
64.1600 482.0000 1.0000
64.1700 456.0000 1.0000
64.1800 451.0000 1.0000
64.1900 461.0000 1.0000
64.2000 439.0000 1.0000
64.2100 445.0000 1.0000
64.2200 434.0000 1.0000
64.2300 408.0000 1.0000
64.2400 405.0000 1.0000
64.2500 409.0000 1.0000
64.2600 402.0000 1.0000
64.2700 403.0000 1.0000
64.2800 435.0000 1.0000
64.2900 389.0000 1.0000
64.3000 380.0000 1.0000
64.3100 390.0000 1.0000
64.3200 370.0000 1.0000
64.3300 406.0000 1.0000
64.3400 390.0000 1.0000
64.3500 371.0000 1.0000
64.3600 431.0000 1.0000
64.3700 382.0000 1.0000
64.3800 363.0000 1.0000
64.3900 403.0000 1.0000
64.4000 400.0000 1.0000
64.4100 385.0000 1.0000
64.4200 394.0000 1.0000
64.4300 380.0000 1.0000
64.4400 376.0000 1.0000
64.4500 390.0000 1.0000
64.4600 393.0000 1.0000
64.4700 379.0000 1.0000
64.4800 401.0000 1.0000
64.4900 405.0000 1.0000
64.5000 390.0000 1.0000
64.5100 378.0000 1.0000
64.5200 385.0000 1.0000
64.5300 395.0000 1.0000
64.5400 403.0000 1.0000
64.5500 372.0000 1.0000
64.5600 379.0000 1.0000
64.5700 378.0000 1.0000
64.5800 376.0000 1.0000
64.5900 405.0000 1.0000
64.6000 381.0000 1.0000
64.6100 390.0000 1.0000
64.6200 372.0000 1.0000
64.6300 377.0000 1.0000
64.6400 396.0000 1.0000
64.6500 365.0000 1.0000
64.6600 360.0000 1.0000
64.6700 394.0000 1.0000
64.6800 371.0000 1.0000
64.6900 408.0000 1.0000
64.7000 390.0000 1.0000
64.7100 359.0000 1.0000
64.7200 388.0000 1.0000
64.7300 413.0000 1.0000
64.7400 396.0000 1.0000
64.7500 363.0000 1.0000
64.7600 368.0000 1.0000
64.7700 357.0000 1.0000
64.7800 377.0000 1.0000
64.7900 377.0000 1.0000
64.8000 389.0000 1.0000
64.8100 404.0000 1.0000
64.8200 390.0000 1.0000
64.8300 376.0000 1.0000
64.8400 383.0000 1.0000
64.8500 364.0000 1.0000
64.8600 391.0000 1.0000
64.8700 398.0000 1.0000
64.8800 417.0000 1.0000
64.8900 433.0000 1.0000
64.9000 400.0000 1.0000
64.9100 383.0000 1.0000
64.9200 374.0000 1.0000
64.9300 376.0000 1.0000
64.9400 395.0000 1.0000
64.9500 410.0000 1.0000
64.9600 411.0000 1.0000
64.9700 375.0000 1.0000
64.9800 385.0000 1.0000
64.9900 379.0000 1.0000
65.0000 372.0000 1.0000
65.0100 422.0000 1.0000
65.0200 408.0000 1.0000
65.0300 394.0000 1.0000
65.0400 390.0000 1.0000
65.0500 406.0000 1.0000
65.0600 404.0000 1.0000
65.0700 428.0000 1.0000
65.0800 415.0000 1.0000
65.0900 455.0000 1.0000
65.1000 425.0000 1.0000
65.1100 427.0000 1.0000
65.1200 507.0000 1.0000
65.1300 449.0000 1.0000
65.1400 465.0000 1.0000
65.1500 467.0000 1.0000
65.1600 433.0000 1.0000
65.1700 438.0000 1.0000
65.1800 458.0000 1.0000
65.1900 496.0000 1.0000
65.2000 523.0000 1.0000
65.2100 478.0000 1.0000
65.2200 508.0000 1.0000
65.2300 541.0000 1.0000
65.2400 513.0000 1.0000
65.2500 561.0000 1.0000
65.2600 566.0000 1.0000
65.2700 556.0000 1.0000
65.2800 581.0000 1.0000
65.2900 574.0000 1.0000
65.3000 648.0000 1.0000
65.3100 683.0000 1.0000
65.3200 664.0000 1.0000
65.3300 671.0000 1.0000
65.3400 709.0000 1.0000
65.3500 767.0000 1.0000
65.3600 730.0000 1.0000
65.3700 756.0000 1.0000
65.3800 895.0000 1.0000
65.3900 882.0000 1.0000
65.4000 906.0000 1.0000
65.4100 964.0000 1.0000
65.4200 1038.0000 1.0000
65.4300 1051.0000 1.0000
65.4400 1082.0000 1.0000
65.4500 1108.0000 1.0000
65.4600 1209.0000 1.0000
65.4700 1198.0000 1.0000
65.4800 1249.0000 1.0000
65.4900 1279.0000 1.0000
65.5000 1393.0000 1.0000
65.5100 1396.0000 1.0000
65.5200 1363.0000 1.0000
65.5300 1349.0000 1.0000
65.5400 1416.0000 1.0000
65.5500 1320.0000 1.0000
65.5600 1317.0000 1.0000
65.5700 1328.0000 1.0000
65.5800 1348.0000 1.0000
65.5900 1308.0000 1.0000
65.6000 1298.0000 1.0000
65.6100 1303.0000 1.0000
65.6200 1214.0000 1.0000
65.6300 1234.0000 1.0000
65.6400 1214.0000 1.0000
65.6500 1192.0000 1.0000
65.6600 1186.0000 1.0000
65.6700 1173.0000 1.0000
65.6800 1133.0000 1.0000
65.6900 1110.0000 1.0000
65.7000 1104.0000 1.0000
65.7100 1061.0000 1.0000
65.7200 1043.0000 1.0000
65.7300 1021.0000 1.0000
65.7400 1010.0000 1.0000
65.7500 913.0000 1.0000
65.7600 927.0000 1.0000
65.7700 880.0000 1.0000
65.7800 877.0000 1.0000
65.7900 816.0000 1.0000
65.8000 756.0000 1.0000
65.8100 699.0000 1.0000
65.8200 687.0000 1.0000
65.8300 708.0000 1.0000
65.8400 685.0000 1.0000
65.8500 667.0000 1.0000
65.8600 687.0000 1.0000
65.8700 599.0000 1.0000
65.8800 594.0000 1.0000
65.8900 580.0000 1.0000
65.9000 563.0000 1.0000
65.9100 558.0000 1.0000
65.9200 581.0000 1.0000
65.9300 527.0000 1.0000
65.9400 511.0000 1.0000
65.9500 503.0000 1.0000
65.9600 448.0000 1.0000
65.9700 470.0000 1.0000
65.9800 506.0000 1.0000
65.9900 466.0000 1.0000
66.0000 429.0000 1.0000
66.0100 467.0000 1.0000
66.0200 450.0000 1.0000
66.0300 424.0000 1.0000
66.0400 430.0000 1.0000
66.0500 424.0000 1.0000
66.0600 439.0000 1.0000
66.0700 441.0000 1.0000
66.0800 419.0000 1.0000
66.0900 386.0000 1.0000
66.1000 389.0000 1.0000
66.1100 399.0000 1.0000
66.1200 421.0000 1.0000
66.1300 363.0000 1.0000
66.1400 395.0000 1.0000
66.1500 399.0000 1.0000
66.1600 407.0000 1.0000
66.1700 398.0000 1.0000
66.1800 412.0000 1.0000
66.1900 376.0000 1.0000
66.2000 380.0000 1.0000
66.2100 367.0000 1.0000
66.2200 364.0000 1.0000
66.2300 354.0000 1.0000
66.2400 361.0000 1.0000
66.2500 332.0000 1.0000
66.2600 337.0000 1.0000
66.2700 383.0000 1.0000
66.2800 394.0000 1.0000
66.2900 358.0000 1.0000
66.3000 381.0000 1.0000
66.3100 352.0000 1.0000
66.3200 351.0000 1.0000
66.3300 349.0000 1.0000
66.3400 352.0000 1.0000
66.3500 358.0000 1.0000
66.3600 368.0000 1.0000
66.3700 380.0000 1.0000
66.3800 361.0000 1.0000
66.3900 367.0000 1.0000
66.4000 354.0000 1.0000
66.4100 381.0000 1.0000
66.4200 375.0000 1.0000
66.4300 383.0000 1.0000
66.4400 342.0000 1.0000
66.4500 348.0000 1.0000
66.4600 370.0000 1.0000
66.4700 356.0000 1.0000
66.4800 365.0000 1.0000
66.4900 379.0000 1.0000
66.5000 363.0000 1.0000
66.5100 382.0000 1.0000
66.5200 342.0000 1.0000
66.5300 365.0000 1.0000
66.5400 335.0000 1.0000
66.5500 325.0000 1.0000
66.5600 348.0000 1.0000
66.5700 350.0000 1.0000
66.5800 361.0000 1.0000
66.5900 333.0000 1.0000
66.6000 320.0000 1.0000
66.6100 345.0000 1.0000
66.6200 361.0000 1.0000
66.6300 350.0000 1.0000
66.6400 348.0000 1.0000
66.6500 360.0000 1.0000
66.6600 341.0000 1.0000
66.6700 348.0000 1.0000
66.6800 353.0000 1.0000
66.6900 346.0000 1.0000
66.7000 349.0000 1.0000
66.7100 343.0000 1.0000
66.7200 352.0000 1.0000
66.7300 359.0000 1.0000
66.7400 331.0000 1.0000
66.7500 377.0000 1.0000
66.7600 345.0000 1.0000
66.7700 371.0000 1.0000
66.7800 386.0000 1.0000
66.7900 333.0000 1.0000
66.8000 337.0000 1.0000
66.8100 331.0000 1.0000
66.8200 312.0000 1.0000
66.8300 358.0000 1.0000
66.8400 363.0000 1.0000
66.8500 343.0000 1.0000
66.8600 337.0000 1.0000
66.8700 333.0000 1.0000
66.8800 328.0000 1.0000
66.8900 353.0000 1.0000
66.9000 333.0000 1.0000
66.9100 333.0000 1.0000
66.9200 345.0000 1.0000
66.9300 349.0000 1.0000
66.9400 350.0000 1.0000
66.9500 341.0000 1.0000
66.9600 355.0000 1.0000
66.9700 359.0000 1.0000
66.9800 339.0000 1.0000
66.9900 349.0000 1.0000
67.0000 347.0000 1.0000
67.0100 324.0000 1.0000
67.0200 340.0000 1.0000
67.0300 339.0000 1.0000
67.0400 333.0000 1.0000
67.0500 342.0000 1.0000
67.0600 372.0000 1.0000
67.0700 362.0000 1.0000
67.0800 338.0000 1.0000
67.0900 343.0000 1.0000
67.1000 350.0000 1.0000
67.1100 362.0000 1.0000
67.1200 333.0000 1.0000
67.1300 329.0000 1.0000
67.1400 343.0000 1.0000
67.1500 335.0000 1.0000
67.1600 349.0000 1.0000
67.1700 344.0000 1.0000
67.1800 312.0000 1.0000
67.1900 322.0000 1.0000
67.2000 332.0000 1.0000
67.2100 324.0000 1.0000
67.2200 345.0000 1.0000
67.2300 354.0000 1.0000
67.2400 315.0000 1.0000
67.2500 373.0000 1.0000
67.2600 359.0000 1.0000
67.2700 345.0000 1.0000
67.2800 357.0000 1.0000
67.2900 335.0000 1.0000
67.3000 327.0000 1.0000
67.3100 344.0000 1.0000
67.3200 351.0000 1.0000
67.3300 317.0000 1.0000
67.3400 336.0000 1.0000
67.3500 334.0000 1.0000
67.3600 335.0000 1.0000
67.3700 343.0000 1.0000
67.3800 343.0000 1.0000
67.3900 344.0000 1.0000
67.4000 320.0000 1.0000
67.4100 337.0000 1.0000
67.4200 320.0000 1.0000
67.4300 317.0000 1.0000
67.4400 321.0000 1.0000
67.4500 321.0000 1.0000
67.4600 346.0000 1.0000
67.4700 324.0000 1.0000
67.4800 322.0000 1.0000
67.4900 384.0000 1.0000
67.5000 343.0000 1.0000
67.5100 326.0000 1.0000
67.5200 345.0000 1.0000
67.5300 365.0000 1.0000
67.5400 320.0000 1.0000
67.5500 322.0000 1.0000
67.5600 356.0000 1.0000
67.5700 356.0000 1.0000
67.5800 360.0000 1.0000
67.5900 343.0000 1.0000
67.6000 325.0000 1.0000
67.6100 345.0000 1.0000
67.6200 329.0000 1.0000
67.6300 342.0000 1.0000
67.6400 353.0000 1.0000
67.6500 329.0000 1.0000
67.6600 314.0000 1.0000
67.6700 330.0000 1.0000
67.6800 335.0000 1.0000
67.6900 327.0000 1.0000
67.7000 303.0000 1.0000
67.7100 319.0000 1.0000
67.7200 369.0000 1.0000
67.7300 359.0000 1.0000
67.7400 365.0000 1.0000
67.7500 373.0000 1.0000
67.7600 335.0000 1.0000
67.7700 359.0000 1.0000
67.7800 353.0000 1.0000
67.7900 350.0000 1.0000
67.8000 348.0000 1.0000
67.8100 353.0000 1.0000
67.8200 330.0000 1.0000
67.8300 349.0000 1.0000
67.8400 330.0000 1.0000
67.8500 352.0000 1.0000
67.8600 344.0000 1.0000
67.8700 359.0000 1.0000
67.8800 354.0000 1.0000
67.8900 360.0000 1.0000
67.9000 341.0000 1.0000
67.9100 341.0000 1.0000
67.9200 319.0000 1.0000
67.9300 350.0000 1.0000
67.9400 333.0000 1.0000
67.9500 323.0000 1.0000
67.9600 285.0000 1.0000
67.9700 303.0000 1.0000
67.9800 360.0000 1.0000
67.9900 324.0000 1.0000
68.0000 311.0000 1.0000
68.0100 311.0000 1.0000
68.0200 312.0000 1.0000
68.0300 357.0000 1.0000
68.0400 304.0000 1.0000
68.0500 320.0000 1.0000
68.0600 327.0000 1.0000
68.0700 333.0000 1.0000
68.0800 329.0000 1.0000
68.0900 324.0000 1.0000
68.1000 334.0000 1.0000
68.1100 329.0000 1.0000
68.1200 356.0000 1.0000
68.1300 341.0000 1.0000
68.1400 338.0000 1.0000
68.1500 319.0000 1.0000
68.1600 351.0000 1.0000
68.1700 315.0000 1.0000
68.1800 329.0000 1.0000
68.1900 347.0000 1.0000
68.2000 318.0000 1.0000
68.2100 316.0000 1.0000
68.2200 347.0000 1.0000
68.2300 332.0000 1.0000
68.2400 328.0000 1.0000
68.2500 311.0000 1.0000
68.2600 325.0000 1.0000
68.2700 344.0000 1.0000
68.2800 335.0000 1.0000
68.2900 359.0000 1.0000
68.3000 337.0000 1.0000
68.3100 326.0000 1.0000
68.3200 338.0000 1.0000
68.3300 343.0000 1.0000
68.3400 337.0000 1.0000
68.3500 317.0000 1.0000
68.3600 327.0000 1.0000
68.3700 329.0000 1.0000
68.3800 332.0000 1.0000
68.3900 337.0000 1.0000
68.4000 323.0000 1.0000
68.4100 337.0000 1.0000
68.4200 319.0000 1.0000
68.4300 310.0000 1.0000
68.4400 311.0000 1.0000
68.4500 301.0000 1.0000
68.4600 300.0000 1.0000
68.4700 331.0000 1.0000
68.4800 315.0000 1.0000
68.4900 358.0000 1.0000
68.5000 318.0000 1.0000
68.5100 348.0000 1.0000
68.5200 307.0000 1.0000
68.5300 302.0000 1.0000
68.5400 310.0000 1.0000
68.5500 319.0000 1.0000
68.5600 336.0000 1.0000
68.5700 319.0000 1.0000
68.5800 330.0000 1.0000
68.5900 326.0000 1.0000
68.6000 334.0000 1.0000
68.6100 317.0000 1.0000
68.6200 315.0000 1.0000
68.6300 293.0000 1.0000
68.6400 341.0000 1.0000
68.6500 342.0000 1.0000
68.6600 355.0000 1.0000
68.6700 338.0000 1.0000
68.6800 327.0000 1.0000
68.6900 325.0000 1.0000
68.7000 311.0000 1.0000
68.7100 348.0000 1.0000
68.7200 335.0000 1.0000
68.7300 367.0000 1.0000
68.7400 344.0000 1.0000
68.7500 368.0000 1.0000
68.7600 335.0000 1.0000
68.7700 332.0000 1.0000
68.7800 312.0000 1.0000
68.7900 362.0000 1.0000
68.8000 303.0000 1.0000
68.8100 334.0000 1.0000
68.8200 338.0000 1.0000
68.8300 344.0000 1.0000
68.8400 336.0000 1.0000
68.8500 327.0000 1.0000
68.8600 315.0000 1.0000
68.8700 321.0000 1.0000
68.8800 313.0000 1.0000
68.8900 299.0000 1.0000
68.9000 322.0000 1.0000
68.9100 351.0000 1.0000
68.9200 372.0000 1.0000
68.9300 344.0000 1.0000
68.9400 345.0000 1.0000
68.9500 300.0000 1.0000
68.9600 298.0000 1.0000
68.9700 324.0000 1.0000
68.9800 298.0000 1.0000
68.9900 320.0000 1.0000
69.0000 316.0000 1.0000
69.0100 328.0000 1.0000
69.0200 346.0000 1.0000
69.0300 320.0000 1.0000
69.0400 303.0000 1.0000
69.0500 353.0000 1.0000
69.0600 321.0000 1.0000
69.0700 325.0000 1.0000
69.0800 310.0000 1.0000
69.0900 341.0000 1.0000
69.1000 336.0000 1.0000
69.1100 325.0000 1.0000
69.1200 321.0000 1.0000
69.1300 340.0000 1.0000
69.1400 285.0000 1.0000
69.1500 346.0000 1.0000
69.1600 330.0000 1.0000
69.1700 321.0000 1.0000
69.1800 308.0000 1.0000
69.1900 330.0000 1.0000
69.2000 288.0000 1.0000
69.2100 316.0000 1.0000
69.2200 319.0000 1.0000
69.2300 339.0000 1.0000
69.2400 300.0000 1.0000
69.2500 299.0000 1.0000
69.2600 332.0000 1.0000
69.2700 321.0000 1.0000
69.2800 335.0000 1.0000
69.2900 330.0000 1.0000
69.3000 331.0000 1.0000
69.3100 313.0000 1.0000
69.3200 303.0000 1.0000
69.3300 338.0000 1.0000
69.3400 324.0000 1.0000
69.3500 318.0000 1.0000
69.3600 327.0000 1.0000
69.3700 321.0000 1.0000
69.3800 305.0000 1.0000
69.3900 337.0000 1.0000
69.4000 315.0000 1.0000
69.4100 305.0000 1.0000
69.4200 345.0000 1.0000
69.4300 314.0000 1.0000
69.4400 337.0000 1.0000
69.4500 316.0000 1.0000
69.4600 349.0000 1.0000
69.4700 367.0000 1.0000
69.4800 344.0000 1.0000
69.4900 344.0000 1.0000
69.5000 319.0000 1.0000
69.5100 325.0000 1.0000
69.5200 335.0000 1.0000
69.5300 316.0000 1.0000
69.5400 350.0000 1.0000
69.5500 300.0000 1.0000
69.5600 343.0000 1.0000
69.5700 311.0000 1.0000
69.5800 328.0000 1.0000
69.5900 322.0000 1.0000
69.6000 317.0000 1.0000
69.6100 315.0000 1.0000
69.6200 320.0000 1.0000
69.6300 341.0000 1.0000
69.6400 331.0000 1.0000
69.6500 311.0000 1.0000
69.6600 288.0000 1.0000
69.6700 336.0000 1.0000
69.6800 324.0000 1.0000
69.6900 318.0000 1.0000
69.7000 317.0000 1.0000
69.7100 294.0000 1.0000
69.7200 299.0000 1.0000
69.7300 314.0000 1.0000
69.7400 320.0000 1.0000
69.7500 309.0000 1.0000
69.7600 324.0000 1.0000
69.7700 323.0000 1.0000
69.7800 314.0000 1.0000
69.7900 325.0000 1.0000
69.8000 341.0000 1.0000
69.8100 333.0000 1.0000
69.8200 283.0000 1.0000
69.8300 325.0000 1.0000
69.8400 332.0000 1.0000
69.8500 330.0000 1.0000
69.8600 315.0000 1.0000
69.8700 315.0000 1.0000
69.8800 315.0000 1.0000
69.8900 313.0000 1.0000
69.9000 305.0000 1.0000
69.9100 322.0000 1.0000
69.9200 291.0000 1.0000
69.9300 326.0000 1.0000
69.9400 325.0000 1.0000
69.9500 341.0000 1.0000
69.9600 324.0000 1.0000
69.9700 299.0000 1.0000
69.9800 303.0000 1.0000
69.9900 321.0000 1.0000
70.0000 317.0000 1.0000
*RAS_INT_END
*RAS_TEMPERATURE_START
*RAS_TEMPERATURE_END
*RAS_DATA_END
