*RAS_DATA_START
*RAS_HEADER_START
*DISP_FMT_X "%.2f"
*DISP_FMT_Y "%.0f"
*DISP_FULLSCALE "13450.0000000000"
*DISP_LINE_COLOR "255.0000000000"
*DISP_LINE_STYLE "0.0000000000"
*DISP_LINE_WIDTH "0.2500000000"
*DISP_NOTE "測定データ-8"
*DISP_OFFSET_Y "0.0000000000"
*DISP_PEAKSEARCH_UNIT_Y "cps"
*DISP_RANGE_BOTTOM "0.0000000000"
*DISP_RANGE_LEFT "20.0000000000"
*DISP_RANGE_LOGCUTOFF "0.0100000000"
*DISP_RANGE_RIGHT "70.0000000000"
*DISP_RANGE_TOP "13450.0000000000"
*DISP_SCALE_MODE_Y "0.0000000000"
*DISP_TAB_NAME "2θ/θ"
*DISP_TITLE_Y "強度"
*DISP_UNIT_Y "cps"
*DISP_WINDOW_NAME "MSG_MACROENGINE"
*FILE_COMMENT " "
*FILE_MD5 ""
*FILE_MEMO " "
*FILE_OPERATOR "Administrator"
*FILE_SAMPLE " "
*FILE_TYPE "RAS_RAW"
*FILE_USERGROUP "システムマネージャ"
*FILE_VERSION "1.0000000000"
*HW_ATTACHMENT_ID "ATT0025"
*HW_ATTACHMENT_NAME "標準|Standard"
*HW_COUNTER_ID-0 "CUT0025"
*HW_COUNTER_ID-1 "CUT0020"
*HW_COUNTER_ID-2 "CUT0020"
*HW_COUNTER_ID-3 "CSL0021"
*HW_COUNTER_ID-4 "CMC0021"
*HW_COUNTER_NAME-0 "D/teX Ultra|D/teX Ultra"
*HW_COUNTER_NAME-1 "None|None"
*HW_COUNTER_NAME-2 "None|None"
*HW_COUNTER_NAME-3 "BBM|BBM"
*HW_COUNTER_NAME-4 "検出器モノクロメータ|Detector monochromator"
*HW_COUNTER_SELECT_NAME "D/teX Ultra|D/teX Ultra"
*HW_GONIOMETER_ID "GON0023"
*HW_GONIOMETER_NAME "SmartLab|SmartLab"
*HW_GONIOMETER_RADIUS-0 "90.0"
*HW_GONIOMETER_RADIUS-1 "114.0"
*HW_GONIOMETER_RADIUS-2 "190.0"
*HW_GONIOMETER_RADIUS-3 "300.0"
*HW_GONIOMETER_RADIUS-4 "187.0"
*HW_GONIOMETER_RADIUS-5 "300.0"
*HW_GONIOMETER_RADIUS-6 "113.0"
*HW_GONIOMETER_RADIUS-7 "331.0"
*HW_I_OPT_ID-0 "CBO0021"
*HW_I_OPT_ID-1 "ICR0023"
*HW_I_OPT_ID-2 "ISL0021"
*HW_I_OPT_ID-3 "ISO0021"
*HW_I_OPT_ID-4 "IAD0021"
*HW_I_OPT_ID-5 "IPR0001"
*HW_I_OPT_NAME-0 "CBOユニット|CBO unit"
*HW_I_OPT_NAME-1 "標準入射光学ユニット|Standard incident optical unit"
*HW_I_OPT_NAME-2 "標準入射スリットボックス|Standard incident slit box"
*HW_I_OPT_NAME-3 "入射平行スリット|Incident parallel slit"
*HW_I_OPT_NAME-4 "長手制限スリット|Length limiting slit"
*HW_I_OPT_NAME-5 "None|None"
*HW_R_ATTENUATER_AUTOMODE "0"
*HW_R_OPT_ID-0 "RSS0021"
*HW_R_OPT_ID-1 "RCR0023"
*HW_R_OPT_ID-2 "RSO0021"
*HW_R_OPT_ID-3 "RRS0021"
*HW_R_OPT_ID-4 "ATN0021"
*HW_R_OPT_ID-5 "RFL0021"
*HW_R_OPT_ID-6 "RAD0021"
*HW_R_OPT_NAME-0 "標準受光スリットボックス1|Standard receiving slit box # 1"
*HW_R_OPT_NAME-1 "標準受光光学ユニット1|Standard receiving unit # 1"
*HW_R_OPT_NAME-2 "標準受光光学ユニット2|Standard receiving optical unit # 2"
*HW_R_OPT_NAME-3 "標準受光スリットボックス2|Standard receiving slit box # 2"
*HW_R_OPT_NAME-4 "標準アッテネータ|Standard Attenuator"
*HW_R_OPT_NAME-5 "Cu Kβ|Cu K-beta"
*HW_R_OPT_NAME-6 "調整用受光スリット|Alignment receiving slit"
*HW_SAMPLE_HOLDER_ID "SMP0023"
*HW_SAMPLE_HOLDER_NAME "標準Zステージ|Standard Z stage"
*HW_XG_CURRENT_MAX "50"
*HW_XG_CURRENT_MIN "2"
*HW_XG_CURRENT_RESOLUTION "1"
*HW_XG_CURRENT_UNIT "mA"
*HW_XG_FOCUS "1mm x 10mm"
*HW_XG_FOCUS_TYPE "Normal"
*HW_XG_ID ""
*HW_XG_NAME "3kW 封入管(ID:1200)|3kW Sealed tube(ID:1200)"
*HW_XG_TARGET_ATOMIC_NUMBER "29.0000000000"
*HW_XG_TARGET_NAME "Cu"
*HW_XG_TYPE "Hermetic"
*HW_XG_VOLTAGE_MAX "60"
*HW_XG_VOLTAGE_MIN "20"
*HW_XG_VOLTAGE_RESOLUTION "1"
*HW_XG_VOLTAGE_UNIT "kV"
*HW_XG_WATT_MAX "1.500"
*HW_XG_WATT_UNIT "kW"
*HW_XG_WAVE_LENGTH_ALPHA1 "1.540593"
*HW_XG_WAVE_LENGTH_ALPHA2 "1.544414"
*HW_XG_WAVE_LENGTH_BETA "1.392250"
*MEAS_COND_AXIS_NAME-0 "2θ/θ"
*MEAS_COND_AXIS_NAME-1 "2θ"
*MEAS_COND_AXIS_NAME-2 "ω"
*MEAS_COND_AXIS_NAME-3 "Z"
*MEAS_COND_AXIS_NAME-4 "2θ/ω"
*MEAS_COND_AXIS_NAME-5 "θs"
*MEAS_COND_AXIS_NAME-6 "θd"
*MEAS_COND_AXIS_NAME-7 "Ts"
*MEAS_COND_AXIS_NAME-8 "CBO選択スリット"
*MEAS_COND_AXIS_NAME-9 "M"
*MEAS_COND_AXIS_NAME-10 "入射平行スリット"
*MEAS_COND_AXIS_NAME-11 "入射スリット"
*MEAS_COND_AXIS_NAME-12 ""
*MEAS_COND_AXIS_NAME-13 "Zs"
*MEAS_COND_AXIS_NAME-14 "入射光学素子"
*MEAS_COND_AXIS_NAME-15 "長手制限スリット"
*MEAS_COND_AXIS_NAME-16 "センタースリット"
*MEAS_COND_AXIS_NAME-17 "フィルター"
*MEAS_COND_AXIS_NAME-18 "受光スリット1"
*MEAS_COND_AXIS_NAME-19 "受光スリット2"
*MEAS_COND_AXIS_NAME-20 "受光光学素子"
*MEAS_COND_AXIS_NAME-21 "受光平行スリット"
*MEAS_COND_AXIS_NAME-22 "調整用受光スリット"
*MEAS_COND_AXIS_NAME-23 ""
*MEAS_COND_AXIS_NAME-24 ""
*MEAS_COND_AXIS_NAME-25 "Zd"
*MEAS_COND_AXIS_NAME-26 "アッテネータ"
*MEAS_COND_AXIS_NAME-27 "検出器モノクロメータ"
*MEAS_COND_AXIS_NAME-28 "モノクロメータスリット"
*MEAS_COND_AXIS_NAME-29 "プライマリビーム"
*MEAS_COND_AXIS_NAME-30 "PHA"
*MEAS_COND_AXIS_NAME_INTERNAL-0 "TwoThetaTheta"
*MEAS_COND_AXIS_NAME_INTERNAL-1 "TwoTheta"
*MEAS_COND_AXIS_NAME_INTERNAL-2 "Omega"
*MEAS_COND_AXIS_NAME_INTERNAL-3 "Z"
*MEAS_COND_AXIS_NAME_INTERNAL-4 "TwoThetaOmega"
*MEAS_COND_AXIS_NAME_INTERNAL-5 "ThetaS"
*MEAS_COND_AXIS_NAME_INTERNAL-6 "ThetaD"
*MEAS_COND_AXIS_NAME_INTERNAL-7 "Ts"
*MEAS_COND_AXIS_NAME_INTERNAL-8 "CBO"
*MEAS_COND_AXIS_NAME_INTERNAL-9 "CBO-M"
*MEAS_COND_AXIS_NAME_INTERNAL-10 "IncidentSollerSlit"
*MEAS_COND_AXIS_NAME_INTERNAL-11 "IncidentSlitBox"
*MEAS_COND_AXIS_NAME_INTERNAL-12 "IncidentSlitBox-_Axis"
*MEAS_COND_AXIS_NAME_INTERNAL-13 "Zs"
*MEAS_COND_AXIS_NAME_INTERNAL-14 "IncidentMonochromator"
*MEAS_COND_AXIS_NAME_INTERNAL-15 "IncidentAxdSlit"
*MEAS_COND_AXIS_NAME_INTERNAL-16 "CenterSlit"
*MEAS_COND_AXIS_NAME_INTERNAL-17 "Filter"
*MEAS_COND_AXIS_NAME_INTERNAL-18 "ReceivingSlitBox1"
*MEAS_COND_AXIS_NAME_INTERNAL-19 "ReceivingSlitBox2"
*MEAS_COND_AXIS_NAME_INTERNAL-20 "ReceivingOptics"
*MEAS_COND_AXIS_NAME_INTERNAL-21 "ReceivingSollerSlit"
*MEAS_COND_AXIS_NAME_INTERNAL-22 "ReceivingAxdSlit"
*MEAS_COND_AXIS_NAME_INTERNAL-23 "ReceivingSlitBox1-_Axis"
*MEAS_COND_AXIS_NAME_INTERNAL-24 "ReceivingSlitBox2-_Axis"
*MEAS_COND_AXIS_NAME_INTERNAL-25 "ReceivingSlitBox2-Zd"
*MEAS_COND_AXIS_NAME_INTERNAL-26 "Attenuator"
*MEAS_COND_AXIS_NAME_INTERNAL-27 "CounterMonochromator"
*MEAS_COND_AXIS_NAME_INTERNAL-28 "CounterSlit"
*MEAS_COND_AXIS_NAME_INTERNAL-29 "IncidentPrimary"
*MEAS_COND_AXIS_NAME_INTERNAL-30 "PHA"
*MEAS_COND_AXIS_NAME_MAGICNO-0 "83951616.0000000000"
*MEAS_COND_AXIS_NAME_MAGICNO-1 "268632064.0000000000"
*MEAS_COND_AXIS_NAME_MAGICNO-2 "268500992.0000000000"
*MEAS_COND_AXIS_NAME_MAGICNO-3 "285278208.0000000000"
*MEAS_COND_AXIS_NAME_MAGICNO-4 "83951616.0000000000"
*MEAS_COND_AXIS_NAME_MAGICNO-5 "131072.0000000000"
*MEAS_COND_AXIS_NAME_MAGICNO-6 "131072.0000000000"
*MEAS_COND_AXIS_NAME_MAGICNO-7 "318898176.0000000000"
*MEAS_COND_AXIS_NAME_MAGICNO-8 "20971521.0000000000"
*MEAS_COND_AXIS_NAME_MAGICNO-9 "285343744.0000000000"
*MEAS_COND_AXIS_NAME_MAGICNO-10 "20971521.0000000000"
*MEAS_COND_AXIS_NAME_MAGICNO-11 "22020097.0000000000"
*MEAS_COND_AXIS_NAME_MAGICNO-12 "25165824.0000000000"
*MEAS_COND_AXIS_NAME_MAGICNO-13 "318898176.0000000000"
*MEAS_COND_AXIS_NAME_MAGICNO-14 "1.0000000000"
*MEAS_COND_AXIS_NAME_MAGICNO-15 "20971521.0000000000"
*MEAS_COND_AXIS_NAME_MAGICNO-16 "20971521.0000000000"
*MEAS_COND_AXIS_NAME_MAGICNO-17 "20971521.0000000000"
*MEAS_COND_AXIS_NAME_MAGICNO-18 "23068673.0000000000"
*MEAS_COND_AXIS_NAME_MAGICNO-19 "23068673.0000000000"
*MEAS_COND_AXIS_NAME_MAGICNO-20 "20971521.0000000000"
*MEAS_COND_AXIS_NAME_MAGICNO-21 "20971521.0000000000"
*MEAS_COND_AXIS_NAME_MAGICNO-22 "20971521.0000000000"
*MEAS_COND_AXIS_NAME_MAGICNO-23 "25165824.0000000000"
*MEAS_COND_AXIS_NAME_MAGICNO-24 "25165824.0000000000"
*MEAS_COND_AXIS_NAME_MAGICNO-25 "285343744.0000000000"
*MEAS_COND_AXIS_NAME_MAGICNO-26 "17301505.0000000000"
*MEAS_COND_AXIS_NAME_MAGICNO-27 "20971521.0000000000"
*MEAS_COND_AXIS_NAME_MAGICNO-28 "20971521.0000000000"
*MEAS_COND_AXIS_NAME_MAGICNO-29 "20971521.0000000000"
*MEAS_COND_AXIS_NAME_MAGICNO-30 "0.0000000000"
*MEAS_COND_AXIS_OFFSET-0 "-"
*MEAS_COND_AXIS_OFFSET-1 "-0.0310000000"
*MEAS_COND_AXIS_OFFSET-2 "0.5143000000"
*MEAS_COND_AXIS_OFFSET-3 "-"
*MEAS_COND_AXIS_OFFSET-4 "-"
*MEAS_COND_AXIS_OFFSET-5 "0.5143000000"
*MEAS_COND_AXIS_OFFSET-6 "-0.5453000000"
*MEAS_COND_AXIS_OFFSET-7 "-"
*MEAS_COND_AXIS_OFFSET-8 "-"
*MEAS_COND_AXIS_OFFSET-9 "-"
*MEAS_COND_AXIS_OFFSET-10 "-"
*MEAS_COND_AXIS_OFFSET-11 "-"
*MEAS_COND_AXIS_OFFSET-12 "-"
*MEAS_COND_AXIS_OFFSET-13 "-"
*MEAS_COND_AXIS_OFFSET-14 "-"
*MEAS_COND_AXIS_OFFSET-15 "-"
*MEAS_COND_AXIS_OFFSET-16 "-"
*MEAS_COND_AXIS_OFFSET-17 "-"
*MEAS_COND_AXIS_OFFSET-18 "-"
*MEAS_COND_AXIS_OFFSET-19 "-"
*MEAS_COND_AXIS_OFFSET-20 "-"
*MEAS_COND_AXIS_OFFSET-21 "-"
*MEAS_COND_AXIS_OFFSET-22 "-"
*MEAS_COND_AXIS_OFFSET-23 "-"
*MEAS_COND_AXIS_OFFSET-24 "-"
*MEAS_COND_AXIS_OFFSET-25 "-"
*MEAS_COND_AXIS_OFFSET-26 "-"
*MEAS_COND_AXIS_OFFSET-27 "-"
*MEAS_COND_AXIS_OFFSET-28 "-"
*MEAS_COND_AXIS_OFFSET-29 "-"
*MEAS_COND_AXIS_OFFSET-30 "-"
*MEAS_COND_AXIS_POSITION-0 "0.0000000000"
*MEAS_COND_AXIS_POSITION-1 "0.0000000000"
*MEAS_COND_AXIS_POSITION-2 "0.0000000000"
*MEAS_COND_AXIS_POSITION-3 "-2.9061800000"
*MEAS_COND_AXIS_POSITION-4 "0.0000000000"
*MEAS_COND_AXIS_POSITION-5 "0.0000000000"
*MEAS_COND_AXIS_POSITION-6 "0.0000000000"
*MEAS_COND_AXIS_POSITION-7 "-0.7498700000"
*MEAS_COND_AXIS_POSITION-8 "BB"
*MEAS_COND_AXIS_POSITION-9 "0.0000000000"
*MEAS_COND_AXIS_POSITION-10 "Soller_slit_5.0deg"
*MEAS_COND_AXIS_POSITION-11 "2/3deg"
*MEAS_COND_AXIS_POSITION-12 "2.2088000000"
*MEAS_COND_AXIS_POSITION-13 "-0.6412500000"
*MEAS_COND_AXIS_POSITION-14 "0.0000000000"
*MEAS_COND_AXIS_POSITION-15 "10.0mm"
*MEAS_COND_AXIS_POSITION-16 "None"
*MEAS_COND_AXIS_POSITION-17 "Cu_K-beta"
*MEAS_COND_AXIS_POSITION-18 "13.000mm"
*MEAS_COND_AXIS_POSITION-19 "13.000mm"
*MEAS_COND_AXIS_POSITION-20 "No_unit"
*MEAS_COND_AXIS_POSITION-21 "Soller_slit_5.0deg"
*MEAS_COND_AXIS_POSITION-22 "None"
*MEAS_COND_AXIS_POSITION-23 "13.0000000000"
*MEAS_COND_AXIS_POSITION-24 "13.0000000000"
*MEAS_COND_AXIS_POSITION-25 "0.0281300000"
*MEAS_COND_AXIS_POSITION-26 "Open"
*MEAS_COND_AXIS_POSITION-27 "None"
*MEAS_COND_AXIS_POSITION-28 "None"
*MEAS_COND_AXIS_POSITION-29 "None"
*MEAS_COND_AXIS_POSITION-30 "38.0000000000"
*MEAS_COND_AXIS_UNIT-0 "deg"
*MEAS_COND_AXIS_UNIT-1 "deg"
*MEAS_COND_AXIS_UNIT-2 "deg"
*MEAS_COND_AXIS_UNIT-3 "mm"
*MEAS_COND_AXIS_UNIT-4 "deg"
*MEAS_COND_AXIS_UNIT-5 "deg"
*MEAS_COND_AXIS_UNIT-6 "deg"
*MEAS_COND_AXIS_UNIT-7 "mm"
*MEAS_COND_AXIS_UNIT-8 ""
*MEAS_COND_AXIS_UNIT-9 "pulse"
*MEAS_COND_AXIS_UNIT-10 ""
*MEAS_COND_AXIS_UNIT-11 ""
*MEAS_COND_AXIS_UNIT-12 "mm"
*MEAS_COND_AXIS_UNIT-13 "mm"
*MEAS_COND_AXIS_UNIT-14 ""
*MEAS_COND_AXIS_UNIT-15 ""
*MEAS_COND_AXIS_UNIT-16 ""
*MEAS_COND_AXIS_UNIT-17 ""
*MEAS_COND_AXIS_UNIT-18 ""
*MEAS_COND_AXIS_UNIT-19 ""
*MEAS_COND_AXIS_UNIT-20 ""
*MEAS_COND_AXIS_UNIT-21 ""
*MEAS_COND_AXIS_UNIT-22 ""
*MEAS_COND_AXIS_UNIT-23 "mm"
*MEAS_COND_AXIS_UNIT-24 "mm"
*MEAS_COND_AXIS_UNIT-25 "mm"
*MEAS_COND_AXIS_UNIT-26 ""
*MEAS_COND_AXIS_UNIT-27 ""
*MEAS_COND_AXIS_UNIT-28 ""
*MEAS_COND_AXIS_UNIT-29 ""
*MEAS_COND_AXIS_UNIT-30 "div"
*MEAS_COND_COUNTER_CNTLOSS_CORR "0.0000000000"
*MEAS_COND_COUNTER_PHABASE "38.0000000000"
*MEAS_COND_COUNTER_PHAWINDOW "16.0000000000"
*MEAS_COND_COUNTER_PHA_UNIT "div"
*MEAS_COND_COUNTER_TAUDIFF "30.0000000000"
*MEAS_COND_COUNTER_TAUINT "0.0000000000"
*MEAS_COND_IRRADIATION_MODE "OFF"
*MEAS_COND_IRRADIATION_WIDTH ""
*MEAS_COND_OPT_ATTR "集中法"
*MEAS_COND_OPT_NAME "@集中法"
*MEAS_COND_UNSYMMETRIC_MODE "OFF"
*MEAS_COND_XG_CURRENT "30.0000000000"
*MEAS_COND_XG_VOLTAGE "40.0000000000"
*MEAS_COND_XG_WAVE_TYPE "Ka"
*MEAS_DATA_COUNT "5001.0000000000"
*MEAS_SCAN_AXIS_X "2θ/θ"
*MEAS_SCAN_AXIS_X_INTERNAL "TwoThetaTheta"
*MEAS_SCAN_END_TIME "12/20/22 20:55:31"
*MEAS_SCAN_MODE "CONTINUOUS"
*MEAS_SCAN_MONITOR "0"
*MEAS_SCAN_RESOLUTION_X "0.0002"
*MEAS_SCAN_SPEED "2.5"
*MEAS_SCAN_SPEED_UNIT "deg/min"
*MEAS_SCAN_START "20.0000000000"
*MEAS_SCAN_START_TIME "12/20/22 20:34:07"
*MEAS_SCAN_STEP "0.0100000000"
*MEAS_SCAN_STOP "70.0000000000"
*MEAS_SCAN_UNIT_X "deg"
*MEAS_SCAN_UNIT_Y "counts"
*RAS_HEADER_END
*RAS_INT_START
20.0000 762.0000 1.0000
20.0100 803.0000 1.0000
20.0200 767.0000 1.0000
20.0300 844.0000 1.0000
20.0400 813.0000 1.0000
20.0500 806.0000 1.0000
20.0600 795.0000 1.0000
20.0700 812.0000 1.0000
20.0800 836.0000 1.0000
20.0900 838.0000 1.0000
20.1000 815.0000 1.0000
20.1100 823.0000 1.0000
20.1200 809.0000 1.0000
20.1300 801.0000 1.0000
20.1400 780.0000 1.0000
20.1500 828.0000 1.0000
20.1600 799.0000 1.0000
20.1700 795.0000 1.0000
20.1800 773.0000 1.0000
20.1900 766.0000 1.0000
20.2000 763.0000 1.0000
20.2100 814.0000 1.0000
20.2200 810.0000 1.0000
20.2300 818.0000 1.0000
20.2400 810.0000 1.0000
20.2500 821.0000 1.0000
20.2600 796.0000 1.0000
20.2700 821.0000 1.0000
20.2800 833.0000 1.0000
20.2900 826.0000 1.0000
20.3000 824.0000 1.0000
20.3100 812.0000 1.0000
20.3200 758.0000 1.0000
20.3300 786.0000 1.0000
20.3400 803.0000 1.0000
20.3500 784.0000 1.0000
20.3600 810.0000 1.0000
20.3700 781.0000 1.0000
20.3800 791.0000 1.0000
20.3900 865.0000 1.0000
20.4000 811.0000 1.0000
20.4100 821.0000 1.0000
20.4200 798.0000 1.0000
20.4300 787.0000 1.0000
20.4400 818.0000 1.0000
20.4500 790.0000 1.0000
20.4600 773.0000 1.0000
20.4700 808.0000 1.0000
20.4800 769.0000 1.0000
20.4900 764.0000 1.0000
20.5000 788.0000 1.0000
20.5100 790.0000 1.0000
20.5200 831.0000 1.0000
20.5300 778.0000 1.0000
20.5400 819.0000 1.0000
20.5500 795.0000 1.0000
20.5600 798.0000 1.0000
20.5700 781.0000 1.0000
20.5800 806.0000 1.0000
20.5900 858.0000 1.0000
20.6000 821.0000 1.0000
20.6100 790.0000 1.0000
20.6200 752.0000 1.0000
20.6300 749.0000 1.0000
20.6400 821.0000 1.0000
20.6500 788.0000 1.0000
20.6600 811.0000 1.0000
20.6700 799.0000 1.0000
20.6800 764.0000 1.0000
20.6900 780.0000 1.0000
20.7000 833.0000 1.0000
20.7100 812.0000 1.0000
20.7200 791.0000 1.0000
20.7300 799.0000 1.0000
20.7400 790.0000 1.0000
20.7500 774.0000 1.0000
20.7600 803.0000 1.0000
20.7700 782.0000 1.0000
20.7800 848.0000 1.0000
20.7900 831.0000 1.0000
20.8000 845.0000 1.0000
20.8100 849.0000 1.0000
20.8200 787.0000 1.0000
20.8300 793.0000 1.0000
20.8400 816.0000 1.0000
20.8500 821.0000 1.0000
20.8600 865.0000 1.0000
20.8700 836.0000 1.0000
20.8800 835.0000 1.0000
20.8900 832.0000 1.0000
20.9000 820.0000 1.0000
20.9100 820.0000 1.0000
20.9200 775.0000 1.0000
20.9300 820.0000 1.0000
20.9400 809.0000 1.0000
20.9500 826.0000 1.0000
20.9600 771.0000 1.0000
20.9700 761.0000 1.0000
20.9800 788.0000 1.0000
20.9900 821.0000 1.0000
21.0000 769.0000 1.0000
21.0100 800.0000 1.0000
21.0200 780.0000 1.0000
21.0300 772.0000 1.0000
21.0400 828.0000 1.0000
21.0500 753.0000 1.0000
21.0600 844.0000 1.0000
21.0700 813.0000 1.0000
21.0800 794.0000 1.0000
21.0900 767.0000 1.0000
21.1000 825.0000 1.0000
21.1100 825.0000 1.0000
21.1200 756.0000 1.0000
21.1300 761.0000 1.0000
21.1400 798.0000 1.0000
21.1500 821.0000 1.0000
21.1600 811.0000 1.0000
21.1700 835.0000 1.0000
21.1800 816.0000 1.0000
21.1900 801.0000 1.0000
21.2000 824.0000 1.0000
21.2100 849.0000 1.0000
21.2200 778.0000 1.0000
21.2300 771.0000 1.0000
21.2400 792.0000 1.0000
21.2500 790.0000 1.0000
21.2600 807.0000 1.0000
21.2700 822.0000 1.0000
21.2800 792.0000 1.0000
21.2900 820.0000 1.0000
21.3000 802.0000 1.0000
21.3100 800.0000 1.0000
21.3200 818.0000 1.0000
21.3300 822.0000 1.0000
21.3400 792.0000 1.0000
21.3500 836.0000 1.0000
21.3600 818.0000 1.0000
21.3700 783.0000 1.0000
21.3800 814.0000 1.0000
21.3900 771.0000 1.0000
21.4000 821.0000 1.0000
21.4100 822.0000 1.0000
21.4200 813.0000 1.0000
21.4300 806.0000 1.0000
21.4400 820.0000 1.0000
21.4500 808.0000 1.0000
21.4600 845.0000 1.0000
21.4700 785.0000 1.0000
21.4800 798.0000 1.0000
21.4900 772.0000 1.0000
21.5000 812.0000 1.0000
21.5100 770.0000 1.0000
21.5200 792.0000 1.0000
21.5300 831.0000 1.0000
21.5400 810.0000 1.0000
21.5500 833.0000 1.0000
21.5600 786.0000 1.0000
21.5700 812.0000 1.0000
21.5800 802.0000 1.0000
21.5900 853.0000 1.0000
21.6000 801.0000 1.0000
21.6100 784.0000 1.0000
21.6200 811.0000 1.0000
21.6300 774.0000 1.0000
21.6400 803.0000 1.0000
21.6500 791.0000 1.0000
21.6600 796.0000 1.0000
21.6700 772.0000 1.0000
21.6800 770.0000 1.0000
21.6900 823.0000 1.0000
21.7000 815.0000 1.0000
21.7100 827.0000 1.0000
21.7200 767.0000 1.0000
21.7300 778.0000 1.0000
21.7400 769.0000 1.0000
21.7500 734.0000 1.0000
21.7600 788.0000 1.0000
21.7700 855.0000 1.0000
21.7800 807.0000 1.0000
21.7900 793.0000 1.0000
21.8000 787.0000 1.0000
21.8100 722.0000 1.0000
21.8200 780.0000 1.0000
21.8300 761.0000 1.0000
21.8400 771.0000 1.0000
21.8500 835.0000 1.0000
21.8600 786.0000 1.0000
21.8700 783.0000 1.0000
21.8800 818.0000 1.0000
21.8900 783.0000 1.0000
21.9000 754.0000 1.0000
21.9100 779.0000 1.0000
21.9200 817.0000 1.0000
21.9300 787.0000 1.0000
21.9400 820.0000 1.0000
21.9500 826.0000 1.0000
21.9600 805.0000 1.0000
21.9700 794.0000 1.0000
21.9800 769.0000 1.0000
21.9900 789.0000 1.0000
22.0000 788.0000 1.0000
22.0100 781.0000 1.0000
22.0200 776.0000 1.0000
22.0300 791.0000 1.0000
22.0400 794.0000 1.0000
22.0500 794.0000 1.0000
22.0600 797.0000 1.0000
22.0700 794.0000 1.0000
22.0800 771.0000 1.0000
22.0900 770.0000 1.0000
22.1000 764.0000 1.0000
22.1100 801.0000 1.0000
22.1200 754.0000 1.0000
22.1300 818.0000 1.0000
22.1400 764.0000 1.0000
22.1500 801.0000 1.0000
22.1600 794.0000 1.0000
22.1700 782.0000 1.0000
22.1800 822.0000 1.0000
22.1900 816.0000 1.0000
22.2000 758.0000 1.0000
22.2100 732.0000 1.0000
22.2200 781.0000 1.0000
22.2300 780.0000 1.0000
22.2400 759.0000 1.0000
22.2500 739.0000 1.0000
22.2600 730.0000 1.0000
22.2700 787.0000 1.0000
22.2800 794.0000 1.0000
22.2900 793.0000 1.0000
22.3000 747.0000 1.0000
22.3100 770.0000 1.0000
22.3200 803.0000 1.0000
22.3300 778.0000 1.0000
22.3400 803.0000 1.0000
22.3500 814.0000 1.0000
22.3600 803.0000 1.0000
22.3700 830.0000 1.0000
22.3800 821.0000 1.0000
22.3900 738.0000 1.0000
22.4000 794.0000 1.0000
22.4100 747.0000 1.0000
22.4200 745.0000 1.0000
22.4300 803.0000 1.0000
22.4400 793.0000 1.0000
22.4500 744.0000 1.0000
22.4600 746.0000 1.0000
22.4700 760.0000 1.0000
22.4800 778.0000 1.0000
22.4900 798.0000 1.0000
22.5000 777.0000 1.0000
22.5100 772.0000 1.0000
22.5200 765.0000 1.0000
22.5300 788.0000 1.0000
22.5400 753.0000 1.0000
22.5500 740.0000 1.0000
22.5600 756.0000 1.0000
22.5700 788.0000 1.0000
22.5800 777.0000 1.0000
22.5900 795.0000 1.0000
22.6000 777.0000 1.0000
22.6100 776.0000 1.0000
22.6200 779.0000 1.0000
22.6300 747.0000 1.0000
22.6400 774.0000 1.0000
22.6500 730.0000 1.0000
22.6600 752.0000 1.0000
22.6700 787.0000 1.0000
22.6800 774.0000 1.0000
22.6900 789.0000 1.0000
22.7000 795.0000 1.0000
22.7100 785.0000 1.0000
22.7200 768.0000 1.0000
22.7300 773.0000 1.0000
22.7400 754.0000 1.0000
22.7500 767.0000 1.0000
22.7600 801.0000 1.0000
22.7700 813.0000 1.0000
22.7800 740.0000 1.0000
22.7900 795.0000 1.0000
22.8000 759.0000 1.0000
22.8100 780.0000 1.0000
22.8200 776.0000 1.0000
22.8300 792.0000 1.0000
22.8400 736.0000 1.0000
22.8500 781.0000 1.0000
22.8600 757.0000 1.0000
22.8700 753.0000 1.0000
22.8800 784.0000 1.0000
22.8900 761.0000 1.0000
22.9000 798.0000 1.0000
22.9100 776.0000 1.0000
22.9200 764.0000 1.0000
22.9300 780.0000 1.0000
22.9400 791.0000 1.0000
22.9500 761.0000 1.0000
22.9600 760.0000 1.0000
22.9700 748.0000 1.0000
22.9800 740.0000 1.0000
22.9900 760.0000 1.0000
23.0000 781.0000 1.0000
23.0100 738.0000 1.0000
23.0200 753.0000 1.0000
23.0300 765.0000 1.0000
23.0400 779.0000 1.0000
23.0500 823.0000 1.0000
23.0600 775.0000 1.0000
23.0700 737.0000 1.0000
23.0800 745.0000 1.0000
23.0900 766.0000 1.0000
23.1000 781.0000 1.0000
23.1100 806.0000 1.0000
23.1200 777.0000 1.0000
23.1300 770.0000 1.0000
23.1400 783.0000 1.0000
23.1500 743.0000 1.0000
23.1600 778.0000 1.0000
23.1700 754.0000 1.0000
23.1800 753.0000 1.0000
23.1900 765.0000 1.0000
23.2000 801.0000 1.0000
23.2100 804.0000 1.0000
23.2200 762.0000 1.0000
23.2300 749.0000 1.0000
23.2400 804.0000 1.0000
23.2500 774.0000 1.0000
23.2600 796.0000 1.0000
23.2700 798.0000 1.0000
23.2800 767.0000 1.0000
23.2900 761.0000 1.0000
23.3000 740.0000 1.0000
23.3100 763.0000 1.0000
23.3200 821.0000 1.0000
23.3300 788.0000 1.0000
23.3400 756.0000 1.0000
23.3500 749.0000 1.0000
23.3600 783.0000 1.0000
23.3700 768.0000 1.0000
23.3800 780.0000 1.0000
23.3900 754.0000 1.0000
23.4000 747.0000 1.0000
23.4100 722.0000 1.0000
23.4200 789.0000 1.0000
23.4300 772.0000 1.0000
23.4400 790.0000 1.0000
23.4500 785.0000 1.0000
23.4600 763.0000 1.0000
23.4700 808.0000 1.0000
23.4800 776.0000 1.0000
23.4900 752.0000 1.0000
23.5000 759.0000 1.0000
23.5100 768.0000 1.0000
23.5200 772.0000 1.0000
23.5300 754.0000 1.0000
23.5400 752.0000 1.0000
23.5500 804.0000 1.0000
23.5600 790.0000 1.0000
23.5700 751.0000 1.0000
23.5800 788.0000 1.0000
23.5900 762.0000 1.0000
23.6000 784.0000 1.0000
23.6100 805.0000 1.0000
23.6200 790.0000 1.0000
23.6300 756.0000 1.0000
23.6400 765.0000 1.0000
23.6500 766.0000 1.0000
23.6600 794.0000 1.0000
23.6700 772.0000 1.0000
23.6800 790.0000 1.0000
23.6900 833.0000 1.0000
23.7000 754.0000 1.0000
23.7100 766.0000 1.0000
23.7200 792.0000 1.0000
23.7300 768.0000 1.0000
23.7400 749.0000 1.0000
23.7500 758.0000 1.0000
23.7600 762.0000 1.0000
23.7700 791.0000 1.0000
23.7800 781.0000 1.0000
23.7900 803.0000 1.0000
23.8000 824.0000 1.0000
23.8100 817.0000 1.0000
23.8200 801.0000 1.0000
23.8300 805.0000 1.0000
23.8400 806.0000 1.0000
23.8500 809.0000 1.0000
23.8600 824.0000 1.0000
23.8700 766.0000 1.0000
23.8800 772.0000 1.0000
23.8900 787.0000 1.0000
23.9000 797.0000 1.0000
23.9100 778.0000 1.0000
23.9200 759.0000 1.0000
23.9300 749.0000 1.0000
23.9400 759.0000 1.0000
23.9500 775.0000 1.0000
23.9600 755.0000 1.0000
23.9700 767.0000 1.0000
23.9800 836.0000 1.0000
23.9900 793.0000 1.0000
24.0000 806.0000 1.0000
24.0100 830.0000 1.0000
24.0200 795.0000 1.0000
24.0300 797.0000 1.0000
24.0400 767.0000 1.0000
24.0500 783.0000 1.0000
24.0600 808.0000 1.0000
24.0700 778.0000 1.0000
24.0800 787.0000 1.0000
24.0900 796.0000 1.0000
24.1000 786.0000 1.0000
24.1100 783.0000 1.0000
24.1200 811.0000 1.0000
24.1300 794.0000 1.0000
24.1400 805.0000 1.0000
24.1500 776.0000 1.0000
24.1600 760.0000 1.0000
24.1700 763.0000 1.0000
24.1800 764.0000 1.0000
24.1900 744.0000 1.0000
24.2000 789.0000 1.0000
24.2100 815.0000 1.0000
24.2200 775.0000 1.0000
24.2300 830.0000 1.0000
24.2400 796.0000 1.0000
24.2500 823.0000 1.0000
24.2600 788.0000 1.0000
24.2700 807.0000 1.0000
24.2800 756.0000 1.0000
24.2900 784.0000 1.0000
24.3000 758.0000 1.0000
24.3100 750.0000 1.0000
24.3200 728.0000 1.0000
24.3300 747.0000 1.0000
24.3400 752.0000 1.0000
24.3500 760.0000 1.0000
24.3600 796.0000 1.0000
24.3700 807.0000 1.0000
24.3800 770.0000 1.0000
24.3900 789.0000 1.0000
24.4000 790.0000 1.0000
24.4100 758.0000 1.0000
24.4200 719.0000 1.0000
24.4300 784.0000 1.0000
24.4400 763.0000 1.0000
24.4500 784.0000 1.0000
24.4600 731.0000 1.0000
24.4700 762.0000 1.0000
24.4800 721.0000 1.0000
24.4900 767.0000 1.0000
24.5000 747.0000 1.0000
24.5100 782.0000 1.0000
24.5200 763.0000 1.0000
24.5300 756.0000 1.0000
24.5400 748.0000 1.0000
24.5500 773.0000 1.0000
24.5600 742.0000 1.0000
24.5700 734.0000 1.0000
24.5800 728.0000 1.0000
24.5900 773.0000 1.0000
24.6000 771.0000 1.0000
24.6100 771.0000 1.0000
24.6200 784.0000 1.0000
24.6300 740.0000 1.0000
24.6400 742.0000 1.0000
24.6500 716.0000 1.0000
24.6600 740.0000 1.0000
24.6700 785.0000 1.0000
24.6800 726.0000 1.0000
24.6900 735.0000 1.0000
24.7000 807.0000 1.0000
24.7100 787.0000 1.0000
24.7200 751.0000 1.0000
24.7300 724.0000 1.0000
24.7400 759.0000 1.0000
24.7500 765.0000 1.0000
24.7600 772.0000 1.0000
24.7700 781.0000 1.0000
24.7800 755.0000 1.0000
24.7900 779.0000 1.0000
24.8000 755.0000 1.0000
24.8100 761.0000 1.0000
24.8200 729.0000 1.0000
24.8300 741.0000 1.0000
24.8400 755.0000 1.0000
24.8500 755.0000 1.0000
24.8600 693.0000 1.0000
24.8700 740.0000 1.0000
24.8800 754.0000 1.0000
24.8900 748.0000 1.0000
24.9000 737.0000 1.0000
24.9100 718.0000 1.0000
24.9200 746.0000 1.0000
24.9300 739.0000 1.0000
24.9400 714.0000 1.0000
24.9500 719.0000 1.0000
24.9600 768.0000 1.0000
24.9700 707.0000 1.0000
24.9800 764.0000 1.0000
24.9900 766.0000 1.0000
25.0000 731.0000 1.0000
25.0100 770.0000 1.0000
25.0200 742.0000 1.0000
25.0300 721.0000 1.0000
25.0400 736.0000 1.0000
25.0500 743.0000 1.0000
25.0600 766.0000 1.0000
25.0700 714.0000 1.0000
25.0800 722.0000 1.0000
25.0900 741.0000 1.0000
25.1000 741.0000 1.0000
25.1100 769.0000 1.0000
25.1200 727.0000 1.0000
25.1300 747.0000 1.0000
25.1400 712.0000 1.0000
25.1500 761.0000 1.0000
25.1600 749.0000 1.0000
25.1700 735.0000 1.0000
25.1800 775.0000 1.0000
25.1900 712.0000 1.0000
25.2000 711.0000 1.0000
25.2100 778.0000 1.0000
25.2200 764.0000 1.0000
25.2300 746.0000 1.0000
25.2400 797.0000 1.0000
25.2500 775.0000 1.0000
25.2600 707.0000 1.0000
25.2700 727.0000 1.0000
25.2800 787.0000 1.0000
25.2900 743.0000 1.0000
25.3000 790.0000 1.0000
25.3100 767.0000 1.0000
25.3200 758.0000 1.0000
25.3300 763.0000 1.0000
25.3400 755.0000 1.0000
25.3500 752.0000 1.0000
25.3600 773.0000 1.0000
25.3700 716.0000 1.0000
25.3800 765.0000 1.0000
25.3900 765.0000 1.0000
25.4000 748.0000 1.0000
25.4100 721.0000 1.0000
25.4200 732.0000 1.0000
25.4300 766.0000 1.0000
25.4400 709.0000 1.0000
25.4500 727.0000 1.0000
25.4600 778.0000 1.0000
25.4700 765.0000 1.0000
25.4800 757.0000 1.0000
25.4900 758.0000 1.0000
25.5000 779.0000 1.0000
25.5100 777.0000 1.0000
25.5200 741.0000 1.0000
25.5300 754.0000 1.0000
25.5400 768.0000 1.0000
25.5500 778.0000 1.0000
25.5600 784.0000 1.0000
25.5700 801.0000 1.0000
25.5800 774.0000 1.0000
25.5900 818.0000 1.0000
25.6000 821.0000 1.0000
25.6100 794.0000 1.0000
25.6200 813.0000 1.0000
25.6300 798.0000 1.0000
25.6400 796.0000 1.0000
25.6500 818.0000 1.0000
25.6600 787.0000 1.0000
25.6700 844.0000 1.0000
25.6800 845.0000 1.0000
25.6900 787.0000 1.0000
25.7000 806.0000 1.0000
25.7100 816.0000 1.0000
25.7200 836.0000 1.0000
25.7300 820.0000 1.0000
25.7400 770.0000 1.0000
25.7500 819.0000 1.0000
25.7600 793.0000 1.0000
25.7700 842.0000 1.0000
25.7800 779.0000 1.0000
25.7900 805.0000 1.0000
25.8000 838.0000 1.0000
25.8100 854.0000 1.0000
25.8200 805.0000 1.0000
25.8300 838.0000 1.0000
25.8400 802.0000 1.0000
25.8500 765.0000 1.0000
25.8600 782.0000 1.0000
25.8700 782.0000 1.0000
25.8800 854.0000 1.0000
25.8900 779.0000 1.0000
25.9000 811.0000 1.0000
25.9100 808.0000 1.0000
25.9200 797.0000 1.0000
25.9300 829.0000 1.0000
25.9400 846.0000 1.0000
25.9500 853.0000 1.0000
25.9600 797.0000 1.0000
25.9700 830.0000 1.0000
25.9800 773.0000 1.0000
25.9900 823.0000 1.0000
26.0000 849.0000 1.0000
26.0100 795.0000 1.0000
26.0200 804.0000 1.0000
26.0300 862.0000 1.0000
26.0400 812.0000 1.0000
26.0500 846.0000 1.0000
26.0600 842.0000 1.0000
26.0700 896.0000 1.0000
26.0800 851.0000 1.0000
26.0900 894.0000 1.0000
26.1000 908.0000 1.0000
26.1100 972.0000 1.0000
26.1200 946.0000 1.0000
26.1300 900.0000 1.0000
26.1400 938.0000 1.0000
26.1500 985.0000 1.0000
26.1600 994.0000 1.0000
26.1700 967.0000 1.0000
26.1800 1032.0000 1.0000
26.1900 1065.0000 1.0000
26.2000 1068.0000 1.0000
26.2100 1065.0000 1.0000
26.2200 1095.0000 1.0000
26.2300 1182.0000 1.0000
26.2400 1187.0000 1.0000
26.2500 1197.0000 1.0000
26.2600 1278.0000 1.0000
26.2700 1308.0000 1.0000
26.2800 1401.0000 1.0000
26.2900 1408.0000 1.0000
26.3000 1415.0000 1.0000
26.3100 1496.0000 1.0000
26.3200 1667.0000 1.0000
26.3300 1737.0000 1.0000
26.3400 1844.0000 1.0000
26.3500 1927.0000 1.0000
26.3600 1950.0000 1.0000
26.3700 2058.0000 1.0000
26.3800 2225.0000 1.0000
26.3900 2324.0000 1.0000
26.4000 2431.0000 1.0000
26.4100 2495.0000 1.0000
26.4200 2626.0000 1.0000
26.4300 2689.0000 1.0000
26.4400 2600.0000 1.0000
26.4500 2690.0000 1.0000
26.4600 2568.0000 1.0000
26.4700 2547.0000 1.0000
26.4800 2478.0000 1.0000
26.4900 2392.0000 1.0000
26.5000 2350.0000 1.0000
26.5100 2190.0000 1.0000
26.5200 2089.0000 1.0000
26.5300 1966.0000 1.0000
26.5400 1948.0000 1.0000
26.5500 1675.0000 1.0000
26.5600 1700.0000 1.0000
26.5700 1602.0000 1.0000
26.5800 1524.0000 1.0000
26.5900 1459.0000 1.0000
26.6000 1320.0000 1.0000
26.6100 1388.0000 1.0000
26.6200 1269.0000 1.0000
26.6300 1240.0000 1.0000
26.6400 1245.0000 1.0000
26.6500 1150.0000 1.0000
26.6600 1092.0000 1.0000
26.6700 1073.0000 1.0000
26.6800 1112.0000 1.0000
26.6900 1052.0000 1.0000
26.7000 1034.0000 1.0000
26.7100 962.0000 1.0000
26.7200 928.0000 1.0000
26.7300 945.0000 1.0000
26.7400 926.0000 1.0000
26.7500 912.0000 1.0000
26.7600 894.0000 1.0000
26.7700 956.0000 1.0000
26.7800 851.0000 1.0000
26.7900 860.0000 1.0000
26.8000 821.0000 1.0000
26.8100 774.0000 1.0000
26.8200 830.0000 1.0000
26.8300 828.0000 1.0000
26.8400 804.0000 1.0000
26.8500 844.0000 1.0000
26.8600 810.0000 1.0000
26.8700 794.0000 1.0000
26.8800 801.0000 1.0000
26.8900 806.0000 1.0000
26.9000 772.0000 1.0000
26.9100 814.0000 1.0000
26.9200 793.0000 1.0000
26.9300 756.0000 1.0000
26.9400 760.0000 1.0000
26.9500 761.0000 1.0000
26.9600 752.0000 1.0000
26.9700 764.0000 1.0000
26.9800 775.0000 1.0000
26.9900 740.0000 1.0000
27.0000 761.0000 1.0000
27.0100 724.0000 1.0000
27.0200 730.0000 1.0000
27.0300 786.0000 1.0000
27.0400 706.0000 1.0000
27.0500 710.0000 1.0000
27.0600 774.0000 1.0000
27.0700 767.0000 1.0000
27.0800 713.0000 1.0000
27.0900 728.0000 1.0000
27.1000 703.0000 1.0000
27.1100 681.0000 1.0000
27.1200 749.0000 1.0000
27.1300 684.0000 1.0000
27.1400 717.0000 1.0000
27.1500 734.0000 1.0000
27.1600 688.0000 1.0000
27.1700 719.0000 1.0000
27.1800 721.0000 1.0000
27.1900 697.0000 1.0000
27.2000 705.0000 1.0000
27.2100 741.0000 1.0000
27.2200 702.0000 1.0000
27.2300 711.0000 1.0000
27.2400 730.0000 1.0000
27.2500 706.0000 1.0000
27.2600 700.0000 1.0000
27.2700 696.0000 1.0000
27.2800 689.0000 1.0000
27.2900 660.0000 1.0000
27.3000 717.0000 1.0000
27.3100 715.0000 1.0000
27.3200 658.0000 1.0000
27.3300 659.0000 1.0000
27.3400 684.0000 1.0000
27.3500 697.0000 1.0000
27.3600 712.0000 1.0000
27.3700 703.0000 1.0000
27.3800 668.0000 1.0000
27.3900 683.0000 1.0000
27.4000 677.0000 1.0000
27.4100 668.0000 1.0000
27.4200 614.0000 1.0000
27.4300 678.0000 1.0000
27.4400 638.0000 1.0000
27.4500 661.0000 1.0000
27.4600 681.0000 1.0000
27.4700 734.0000 1.0000
27.4800 758.0000 1.0000
27.4900 712.0000 1.0000
27.5000 686.0000 1.0000
27.5100 684.0000 1.0000
27.5200 678.0000 1.0000
27.5300 679.0000 1.0000
27.5400 683.0000 1.0000
27.5500 664.0000 1.0000
27.5600 656.0000 1.0000
27.5700 649.0000 1.0000
27.5800 648.0000 1.0000
27.5900 674.0000 1.0000
27.6000 656.0000 1.0000
27.6100 693.0000 1.0000
27.6200 689.0000 1.0000
27.6300 678.0000 1.0000
27.6400 666.0000 1.0000
27.6500 644.0000 1.0000
27.6600 663.0000 1.0000
27.6700 691.0000 1.0000
27.6800 680.0000 1.0000
27.6900 661.0000 1.0000
27.7000 637.0000 1.0000
27.7100 697.0000 1.0000
27.7200 655.0000 1.0000
27.7300 646.0000 1.0000
27.7400 675.0000 1.0000
27.7500 658.0000 1.0000
27.7600 653.0000 1.0000
27.7700 625.0000 1.0000
27.7800 668.0000 1.0000
27.7900 683.0000 1.0000
27.8000 637.0000 1.0000
27.8100 647.0000 1.0000
27.8200 672.0000 1.0000
27.8300 656.0000 1.0000
27.8400 656.0000 1.0000
27.8500 648.0000 1.0000
27.8600 657.0000 1.0000
27.8700 654.0000 1.0000
27.8800 686.0000 1.0000
27.8900 707.0000 1.0000
27.9000 697.0000 1.0000
27.9100 627.0000 1.0000
27.9200 652.0000 1.0000
27.9300 679.0000 1.0000
27.9400 675.0000 1.0000
27.9500 629.0000 1.0000
27.9600 676.0000 1.0000
27.9700 667.0000 1.0000
27.9800 662.0000 1.0000
27.9900 654.0000 1.0000
28.0000 655.0000 1.0000
28.0100 618.0000 1.0000
28.0200 617.0000 1.0000
28.0300 669.0000 1.0000
28.0400 632.0000 1.0000
28.0500 629.0000 1.0000
28.0600 680.0000 1.0000
28.0700 670.0000 1.0000
28.0800 682.0000 1.0000
28.0900 681.0000 1.0000
28.1000 670.0000 1.0000
28.1100 640.0000 1.0000
28.1200 632.0000 1.0000
28.1300 667.0000 1.0000
28.1400 660.0000 1.0000
28.1500 683.0000 1.0000
28.1600 658.0000 1.0000
28.1700 648.0000 1.0000
28.1800 646.0000 1.0000
28.1900 681.0000 1.0000
28.2000 645.0000 1.0000
28.2100 670.0000 1.0000
28.2200 665.0000 1.0000
28.2300 629.0000 1.0000
28.2400 618.0000 1.0000
28.2500 656.0000 1.0000
28.2600 656.0000 1.0000
28.2700 666.0000 1.0000
28.2800 669.0000 1.0000
28.2900 644.0000 1.0000
28.3000 625.0000 1.0000
28.3100 635.0000 1.0000
28.3200 638.0000 1.0000
28.3300 677.0000 1.0000
28.3400 621.0000 1.0000
28.3500 636.0000 1.0000
28.3600 652.0000 1.0000
28.3700 684.0000 1.0000
28.3800 668.0000 1.0000
28.3900 630.0000 1.0000
28.4000 655.0000 1.0000
28.4100 633.0000 1.0000
28.4200 612.0000 1.0000
28.4300 661.0000 1.0000
28.4400 656.0000 1.0000
28.4500 666.0000 1.0000
28.4600 635.0000 1.0000
28.4700 646.0000 1.0000
28.4800 632.0000 1.0000
28.4900 643.0000 1.0000
28.5000 658.0000 1.0000
28.5100 646.0000 1.0000
28.5200 649.0000 1.0000
28.5300 641.0000 1.0000
28.5400 644.0000 1.0000
28.5500 627.0000 1.0000
28.5600 625.0000 1.0000
28.5700 649.0000 1.0000
28.5800 670.0000 1.0000
28.5900 603.0000 1.0000
28.6000 650.0000 1.0000
28.6100 605.0000 1.0000
28.6200 657.0000 1.0000
28.6300 638.0000 1.0000
28.6400 621.0000 1.0000
28.6500 650.0000 1.0000
28.6600 653.0000 1.0000
28.6700 617.0000 1.0000
28.6800 662.0000 1.0000
28.6900 638.0000 1.0000
28.7000 661.0000 1.0000
28.7100 640.0000 1.0000
28.7200 618.0000 1.0000
28.7300 682.0000 1.0000
28.7400 671.0000 1.0000
28.7500 650.0000 1.0000
28.7600 616.0000 1.0000
28.7700 633.0000 1.0000
28.7800 628.0000 1.0000
28.7900 615.0000 1.0000
28.8000 663.0000 1.0000
28.8100 644.0000 1.0000
28.8200 615.0000 1.0000
28.8300 616.0000 1.0000
28.8400 651.0000 1.0000
28.8500 602.0000 1.0000
28.8600 597.0000 1.0000
28.8700 620.0000 1.0000
28.8800 641.0000 1.0000
28.8900 645.0000 1.0000
28.9000 624.0000 1.0000
28.9100 624.0000 1.0000
28.9200 665.0000 1.0000
28.9300 648.0000 1.0000
28.9400 684.0000 1.0000
28.9500 635.0000 1.0000
28.9600 623.0000 1.0000
28.9700 647.0000 1.0000
28.9800 611.0000 1.0000
28.9900 635.0000 1.0000
29.0000 655.0000 1.0000
29.0100 664.0000 1.0000
29.0200 648.0000 1.0000
29.0300 623.0000 1.0000
29.0400 600.0000 1.0000
29.0500 654.0000 1.0000
29.0600 633.0000 1.0000
29.0700 615.0000 1.0000
29.0800 631.0000 1.0000
29.0900 613.0000 1.0000
29.1000 596.0000 1.0000
29.1100 644.0000 1.0000
29.1200 624.0000 1.0000
29.1300 598.0000 1.0000
29.1400 610.0000 1.0000
29.1500 622.0000 1.0000
29.1600 605.0000 1.0000
29.1700 625.0000 1.0000
29.1800 634.0000 1.0000
29.1900 644.0000 1.0000
29.2000 620.0000 1.0000
29.2100 571.0000 1.0000
29.2200 630.0000 1.0000
29.2300 613.0000 1.0000
29.2400 648.0000 1.0000
29.2500 653.0000 1.0000
29.2600 593.0000 1.0000
29.2700 624.0000 1.0000
29.2800 615.0000 1.0000
29.2900 643.0000 1.0000
29.3000 606.0000 1.0000
29.3100 590.0000 1.0000
29.3200 645.0000 1.0000
29.3300 602.0000 1.0000
29.3400 613.0000 1.0000
29.3500 599.0000 1.0000
29.3600 615.0000 1.0000
29.3700 662.0000 1.0000
29.3800 648.0000 1.0000
29.3900 651.0000 1.0000
29.4000 615.0000 1.0000
29.4100 609.0000 1.0000
29.4200 604.0000 1.0000
29.4300 619.0000 1.0000
29.4400 605.0000 1.0000
29.4500 604.0000 1.0000
29.4600 623.0000 1.0000
29.4700 613.0000 1.0000
29.4800 592.0000 1.0000
29.4900 583.0000 1.0000
29.5000 649.0000 1.0000
29.5100 642.0000 1.0000
29.5200 607.0000 1.0000
29.5300 648.0000 1.0000
29.5400 578.0000 1.0000
29.5500 598.0000 1.0000
29.5600 611.0000 1.0000
29.5700 621.0000 1.0000
29.5800 616.0000 1.0000
29.5900 623.0000 1.0000
29.6000 571.0000 1.0000
29.6100 594.0000 1.0000
29.6200 604.0000 1.0000
29.6300 635.0000 1.0000
29.6400 631.0000 1.0000
29.6500 607.0000 1.0000
29.6600 652.0000 1.0000
29.6700 607.0000 1.0000
29.6800 661.0000 1.0000
29.6900 613.0000 1.0000
29.7000 596.0000 1.0000
29.7100 609.0000 1.0000
29.7200 609.0000 1.0000
29.7300 652.0000 1.0000
29.7400 595.0000 1.0000
29.7500 626.0000 1.0000
29.7600 596.0000 1.0000
29.7700 615.0000 1.0000
29.7800 602.0000 1.0000
29.7900 570.0000 1.0000
29.8000 647.0000 1.0000
29.8100 580.0000 1.0000
29.8200 567.0000 1.0000
29.8300 608.0000 1.0000
29.8400 617.0000 1.0000
29.8500 597.0000 1.0000
29.8600 601.0000 1.0000
29.8700 608.0000 1.0000
29.8800 627.0000 1.0000
29.8900 591.0000 1.0000
29.9000 578.0000 1.0000
29.9100 594.0000 1.0000
29.9200 613.0000 1.0000
29.9300 623.0000 1.0000
29.9400 625.0000 1.0000
29.9500 614.0000 1.0000
29.9600 598.0000 1.0000
29.9700 626.0000 1.0000
29.9800 642.0000 1.0000
29.9900 622.0000 1.0000
30.0000 588.0000 1.0000
30.0100 586.0000 1.0000
30.0200 602.0000 1.0000
30.0300 599.0000 1.0000
30.0400 593.0000 1.0000
30.0500 596.0000 1.0000
30.0600 601.0000 1.0000
30.0700 586.0000 1.0000
30.0800 594.0000 1.0000
30.0900 592.0000 1.0000
30.1000 574.0000 1.0000
30.1100 603.0000 1.0000
30.1200 583.0000 1.0000
30.1300 599.0000 1.0000
30.1400 601.0000 1.0000
30.1500 594.0000 1.0000
30.1600 565.0000 1.0000
30.1700 546.0000 1.0000
30.1800 588.0000 1.0000
30.1900 616.0000 1.0000
30.2000 553.0000 1.0000
30.2100 590.0000 1.0000
30.2200 639.0000 1.0000
30.2300 642.0000 1.0000
30.2400 627.0000 1.0000
30.2500 627.0000 1.0000
30.2600 607.0000 1.0000
30.2700 611.0000 1.0000
30.2800 609.0000 1.0000
30.2900 599.0000 1.0000
30.3000 562.0000 1.0000
30.3100 581.0000 1.0000
30.3200 627.0000 1.0000
30.3300 590.0000 1.0000
30.3400 615.0000 1.0000
30.3500 609.0000 1.0000
30.3600 594.0000 1.0000
30.3700 610.0000 1.0000
30.3800 590.0000 1.0000
30.3900 612.0000 1.0000
30.4000 633.0000 1.0000
30.4100 595.0000 1.0000
30.4200 567.0000 1.0000
30.4300 593.0000 1.0000
30.4400 630.0000 1.0000
30.4500 563.0000 1.0000
30.4600 559.0000 1.0000
30.4700 575.0000 1.0000
30.4800 593.0000 1.0000
30.4900 612.0000 1.0000
30.5000 559.0000 1.0000
30.5100 594.0000 1.0000
30.5200 539.0000 1.0000
30.5300 556.0000 1.0000
30.5400 578.0000 1.0000
30.5500 574.0000 1.0000
30.5600 555.0000 1.0000
30.5700 601.0000 1.0000
30.5800 601.0000 1.0000
30.5900 591.0000 1.0000
30.6000 534.0000 1.0000
30.6100 564.0000 1.0000
30.6200 613.0000 1.0000
30.6300 568.0000 1.0000
30.6400 526.0000 1.0000
30.6500 597.0000 1.0000
30.6600 584.0000 1.0000
30.6700 531.0000 1.0000
30.6800 531.0000 1.0000
30.6900 593.0000 1.0000
30.7000 597.0000 1.0000
30.7100 561.0000 1.0000
30.7200 569.0000 1.0000
30.7300 583.0000 1.0000
30.7400 580.0000 1.0000
30.7500 579.0000 1.0000
30.7600 554.0000 1.0000
30.7700 566.0000 1.0000
30.7800 590.0000 1.0000
30.7900 524.0000 1.0000
30.8000 544.0000 1.0000
30.8100 552.0000 1.0000
30.8200 572.0000 1.0000
30.8300 552.0000 1.0000
30.8400 571.0000 1.0000
30.8500 553.0000 1.0000
30.8600 586.0000 1.0000
30.8700 586.0000 1.0000
30.8800 562.0000 1.0000
30.8900 565.0000 1.0000
30.9000 557.0000 1.0000
30.9100 589.0000 1.0000
30.9200 540.0000 1.0000
30.9300 594.0000 1.0000
30.9400 620.0000 1.0000
30.9500 534.0000 1.0000
30.9600 587.0000 1.0000
30.9700 561.0000 1.0000
30.9800 594.0000 1.0000
30.9900 581.0000 1.0000
31.0000 562.0000 1.0000
31.0100 587.0000 1.0000
31.0200 560.0000 1.0000
31.0300 555.0000 1.0000
31.0400 582.0000 1.0000
31.0500 580.0000 1.0000
31.0600 593.0000 1.0000
31.0700 570.0000 1.0000
31.0800 591.0000 1.0000
31.0900 595.0000 1.0000
31.1000 609.0000 1.0000
31.1100 552.0000 1.0000
31.1200 601.0000 1.0000
31.1300 604.0000 1.0000
31.1400 590.0000 1.0000
31.1500 532.0000 1.0000
31.1600 581.0000 1.0000
31.1700 602.0000 1.0000
31.1800 579.0000 1.0000
31.1900 593.0000 1.0000
31.2000 592.0000 1.0000
31.2100 607.0000 1.0000
31.2200 588.0000 1.0000
31.2300 592.0000 1.0000
31.2400 570.0000 1.0000
31.2500 590.0000 1.0000
31.2600 604.0000 1.0000
31.2700 585.0000 1.0000
31.2800 591.0000 1.0000
31.2900 626.0000 1.0000
31.3000 598.0000 1.0000
31.3100 598.0000 1.0000
31.3200 613.0000 1.0000
31.3300 614.0000 1.0000
31.3400 575.0000 1.0000
31.3500 550.0000 1.0000
31.3600 553.0000 1.0000
31.3700 558.0000 1.0000
31.3800 597.0000 1.0000
31.3900 602.0000 1.0000
31.4000 608.0000 1.0000
31.4100 597.0000 1.0000
31.4200 557.0000 1.0000
31.4300 559.0000 1.0000
31.4400 592.0000 1.0000
31.4500 587.0000 1.0000
31.4600 608.0000 1.0000
31.4700 581.0000 1.0000
31.4800 565.0000 1.0000
31.4900 577.0000 1.0000
31.5000 646.0000 1.0000
31.5100 596.0000 1.0000
31.5200 498.0000 1.0000
31.5300 578.0000 1.0000
31.5400 572.0000 1.0000
31.5500 551.0000 1.0000
31.5600 577.0000 1.0000
31.5700 601.0000 1.0000
31.5800 594.0000 1.0000
31.5900 572.0000 1.0000
31.6000 579.0000 1.0000
31.6100 578.0000 1.0000
31.6200 592.0000 1.0000
31.6300 588.0000 1.0000
31.6400 568.0000 1.0000
31.6500 556.0000 1.0000
31.6600 572.0000 1.0000
31.6700 558.0000 1.0000
31.6800 555.0000 1.0000
31.6900 542.0000 1.0000
31.7000 579.0000 1.0000
31.7100 574.0000 1.0000
31.7200 565.0000 1.0000
31.7300 580.0000 1.0000
31.7400 557.0000 1.0000
31.7500 564.0000 1.0000
31.7600 551.0000 1.0000
31.7700 542.0000 1.0000
31.7800 555.0000 1.0000
31.7900 549.0000 1.0000
31.8000 550.0000 1.0000
31.8100 519.0000 1.0000
31.8200 552.0000 1.0000
31.8300 533.0000 1.0000
31.8400 551.0000 1.0000
31.8500 557.0000 1.0000
31.8600 545.0000 1.0000
31.8700 570.0000 1.0000
31.8800 562.0000 1.0000
31.8900 544.0000 1.0000
31.9000 546.0000 1.0000
31.9100 561.0000 1.0000
31.9200 566.0000 1.0000
31.9300 543.0000 1.0000
31.9400 546.0000 1.0000
31.9500 570.0000 1.0000
31.9600 528.0000 1.0000
31.9700 531.0000 1.0000
31.9800 589.0000 1.0000
31.9900 541.0000 1.0000
32.0000 584.0000 1.0000
32.0100 555.0000 1.0000
32.0200 556.0000 1.0000
32.0300 577.0000 1.0000
32.0400 558.0000 1.0000
32.0500 548.0000 1.0000
32.0600 542.0000 1.0000
32.0700 559.0000 1.0000
32.0800 545.0000 1.0000
32.0900 563.0000 1.0000
32.1000 573.0000 1.0000
32.1100 566.0000 1.0000
32.1200 540.0000 1.0000
32.1300 541.0000 1.0000
32.1400 561.0000 1.0000
32.1500 577.0000 1.0000
32.1600 520.0000 1.0000
32.1700 505.0000 1.0000
32.1800 529.0000 1.0000
32.1900 560.0000 1.0000
32.2000 569.0000 1.0000
32.2100 513.0000 1.0000
32.2200 554.0000 1.0000
32.2300 556.0000 1.0000
32.2400 546.0000 1.0000
32.2500 545.0000 1.0000
32.2600 526.0000 1.0000
32.2700 534.0000 1.0000
32.2800 560.0000 1.0000
32.2900 510.0000 1.0000
32.3000 527.0000 1.0000
32.3100 527.0000 1.0000
32.3200 550.0000 1.0000
32.3300 530.0000 1.0000
32.3400 524.0000 1.0000
32.3500 543.0000 1.0000
32.3600 535.0000 1.0000
32.3700 538.0000 1.0000
32.3800 535.0000 1.0000
32.3900 516.0000 1.0000
32.4000 523.0000 1.0000
32.4100 522.0000 1.0000
32.4200 549.0000 1.0000
32.4300 521.0000 1.0000
32.4400 493.0000 1.0000
32.4500 540.0000 1.0000
32.4600 536.0000 1.0000
32.4700 511.0000 1.0000
32.4800 528.0000 1.0000
32.4900 508.0000 1.0000
32.5000 550.0000 1.0000
32.5100 541.0000 1.0000
32.5200 538.0000 1.0000
32.5300 556.0000 1.0000
32.5400 574.0000 1.0000
32.5500 554.0000 1.0000
32.5600 529.0000 1.0000
32.5700 547.0000 1.0000
32.5800 525.0000 1.0000
32.5900 541.0000 1.0000
32.6000 533.0000 1.0000
32.6100 527.0000 1.0000
32.6200 536.0000 1.0000
32.6300 525.0000 1.0000
32.6400 534.0000 1.0000
32.6500 522.0000 1.0000
32.6600 536.0000 1.0000
32.6700 525.0000 1.0000
32.6800 561.0000 1.0000
32.6900 541.0000 1.0000
32.7000 560.0000 1.0000
32.7100 563.0000 1.0000
32.7200 544.0000 1.0000
32.7300 586.0000 1.0000
32.7400 559.0000 1.0000
32.7500 550.0000 1.0000
32.7600 571.0000 1.0000
32.7700 568.0000 1.0000
32.7800 514.0000 1.0000
32.7900 546.0000 1.0000
32.8000 581.0000 1.0000
32.8100 520.0000 1.0000
32.8200 550.0000 1.0000
32.8300 550.0000 1.0000
32.8400 531.0000 1.0000
32.8500 538.0000 1.0000
32.8600 549.0000 1.0000
32.8700 565.0000 1.0000
32.8800 571.0000 1.0000
32.8900 542.0000 1.0000
32.9000 602.0000 1.0000
32.9100 578.0000 1.0000
32.9200 558.0000 1.0000
32.9300 554.0000 1.0000
32.9400 589.0000 1.0000
32.9500 583.0000 1.0000
32.9600 563.0000 1.0000
32.9700 595.0000 1.0000
32.9800 537.0000 1.0000
32.9900 566.0000 1.0000
33.0000 620.0000 1.0000
33.0100 648.0000 1.0000
33.0200 580.0000 1.0000
33.0300 583.0000 1.0000
33.0400 619.0000 1.0000
33.0500 656.0000 1.0000
33.0600 621.0000 1.0000
33.0700 635.0000 1.0000
33.0800 632.0000 1.0000
33.0900 641.0000 1.0000
33.1000 673.0000 1.0000
33.1100 653.0000 1.0000
33.1200 655.0000 1.0000
33.1300 681.0000 1.0000
33.1400 660.0000 1.0000
33.1500 656.0000 1.0000
33.1600 686.0000 1.0000
33.1700 645.0000 1.0000
33.1800 678.0000 1.0000
33.1900 673.0000 1.0000
33.2000 678.0000 1.0000
33.2100 621.0000 1.0000
33.2200 592.0000 1.0000
33.2300 633.0000 1.0000
33.2400 613.0000 1.0000
33.2500 622.0000 1.0000
33.2600 581.0000 1.0000
33.2700 624.0000 1.0000
33.2800 639.0000 1.0000
33.2900 609.0000 1.0000
33.3000 603.0000 1.0000
33.3100 637.0000 1.0000
33.3200 615.0000 1.0000
33.3300 604.0000 1.0000
33.3400 601.0000 1.0000
33.3500 634.0000 1.0000
33.3600 623.0000 1.0000
33.3700 630.0000 1.0000
33.3800 634.0000 1.0000
33.3900 653.0000 1.0000
33.4000 663.0000 1.0000
33.4100 654.0000 1.0000
33.4200 689.0000 1.0000
33.4300 760.0000 1.0000
33.4400 723.0000 1.0000
33.4500 726.0000 1.0000
33.4600 757.0000 1.0000
33.4700 755.0000 1.0000
33.4800 784.0000 1.0000
33.4900 737.0000 1.0000
33.5000 806.0000 1.0000
33.5100 881.0000 1.0000
33.5200 869.0000 1.0000
33.5300 919.0000 1.0000
33.5400 930.0000 1.0000
33.5500 989.0000 1.0000
33.5600 1038.0000 1.0000
33.5700 1052.0000 1.0000
33.5800 1178.0000 1.0000
33.5900 1205.0000 1.0000
33.6000 1218.0000 1.0000
33.6100 1231.0000 1.0000
33.6200 1310.0000 1.0000
33.6300 1353.0000 1.0000
33.6400 1363.0000 1.0000
33.6500 1382.0000 1.0000
33.6600 1367.0000 1.0000
33.6700 1367.0000 1.0000
33.6800 1366.0000 1.0000
33.6900 1294.0000 1.0000
33.7000 1303.0000 1.0000
33.7100 1228.0000 1.0000
33.7200 1176.0000 1.0000
33.7300 1151.0000 1.0000
33.7400 1161.0000 1.0000
33.7500 1071.0000 1.0000
33.7600 1046.0000 1.0000
33.7700 1014.0000 1.0000
33.7800 1000.0000 1.0000
33.7900 889.0000 1.0000
33.8000 844.0000 1.0000
33.8100 809.0000 1.0000
33.8200 827.0000 1.0000
33.8300 773.0000 1.0000
33.8400 748.0000 1.0000
33.8500 726.0000 1.0000
33.8600 755.0000 1.0000
33.8700 718.0000 1.0000
33.8800 696.0000 1.0000
33.8900 677.0000 1.0000
33.9000 642.0000 1.0000
33.9100 648.0000 1.0000
33.9200 662.0000 1.0000
33.9300 669.0000 1.0000
33.9400 630.0000 1.0000
33.9500 649.0000 1.0000
33.9600 639.0000 1.0000
33.9700 588.0000 1.0000
33.9800 622.0000 1.0000
33.9900 584.0000 1.0000
34.0000 564.0000 1.0000
34.0100 548.0000 1.0000
34.0200 572.0000 1.0000
34.0300 593.0000 1.0000
34.0400 593.0000 1.0000
34.0500 579.0000 1.0000
34.0600 516.0000 1.0000
34.0700 562.0000 1.0000
34.0800 581.0000 1.0000
34.0900 592.0000 1.0000
34.1000 566.0000 1.0000
34.1100 545.0000 1.0000
34.1200 552.0000 1.0000
34.1300 500.0000 1.0000
34.1400 521.0000 1.0000
34.1500 501.0000 1.0000
34.1600 499.0000 1.0000
34.1700 521.0000 1.0000
34.1800 521.0000 1.0000
34.1900 493.0000 1.0000
34.2000 533.0000 1.0000
34.2100 505.0000 1.0000
34.2200 516.0000 1.0000
34.2300 516.0000 1.0000
34.2400 527.0000 1.0000
34.2500 508.0000 1.0000
34.2600 548.0000 1.0000
34.2700 533.0000 1.0000
34.2800 509.0000 1.0000
34.2900 491.0000 1.0000
34.3000 501.0000 1.0000
34.3100 511.0000 1.0000
34.3200 543.0000 1.0000
34.3300 545.0000 1.0000
34.3400 555.0000 1.0000
34.3500 467.0000 1.0000
34.3600 488.0000 1.0000
34.3700 476.0000 1.0000
34.3800 516.0000 1.0000
34.3900 495.0000 1.0000
34.4000 497.0000 1.0000
34.4100 499.0000 1.0000
34.4200 478.0000 1.0000
34.4300 467.0000 1.0000
34.4400 473.0000 1.0000
34.4500 460.0000 1.0000
34.4600 469.0000 1.0000
34.4700 469.0000 1.0000
34.4800 491.0000 1.0000
34.4900 468.0000 1.0000
34.5000 441.0000 1.0000
34.5100 462.0000 1.0000
34.5200 479.0000 1.0000
34.5300 450.0000 1.0000
34.5400 476.0000 1.0000
34.5500 488.0000 1.0000
34.5600 481.0000 1.0000
34.5700 494.0000 1.0000
34.5800 476.0000 1.0000
34.5900 479.0000 1.0000
34.6000 509.0000 1.0000
34.6100 468.0000 1.0000
34.6200 475.0000 1.0000
34.6300 469.0000 1.0000
34.6400 456.0000 1.0000
34.6500 463.0000 1.0000
34.6600 434.0000 1.0000
34.6700 477.0000 1.0000
34.6800 423.0000 1.0000
34.6900 448.0000 1.0000
34.7000 469.0000 1.0000
34.7100 471.0000 1.0000
34.7200 475.0000 1.0000
34.7300 469.0000 1.0000
34.7400 479.0000 1.0000
34.7500 492.0000 1.0000
34.7600 462.0000 1.0000
34.7700 469.0000 1.0000
34.7800 511.0000 1.0000
34.7900 464.0000 1.0000
34.8000 452.0000 1.0000
34.8100 462.0000 1.0000
34.8200 487.0000 1.0000
34.8300 465.0000 1.0000
34.8400 463.0000 1.0000
34.8500 428.0000 1.0000
34.8600 463.0000 1.0000
34.8700 433.0000 1.0000
34.8800 455.0000 1.0000
34.8900 487.0000 1.0000
34.9000 477.0000 1.0000
34.9100 464.0000 1.0000
34.9200 454.0000 1.0000
34.9300 435.0000 1.0000
34.9400 425.0000 1.0000
34.9500 456.0000 1.0000
34.9600 450.0000 1.0000
34.9700 454.0000 1.0000
34.9800 428.0000 1.0000
34.9900 447.0000 1.0000
35.0000 482.0000 1.0000
35.0100 486.0000 1.0000
35.0200 474.0000 1.0000
35.0300 478.0000 1.0000
35.0400 420.0000 1.0000
35.0500 442.0000 1.0000
35.0600 451.0000 1.0000
35.0700 484.0000 1.0000
35.0800 468.0000 1.0000
35.0900 431.0000 1.0000
35.1000 485.0000 1.0000
35.1100 462.0000 1.0000
35.1200 460.0000 1.0000
35.1300 441.0000 1.0000
35.1400 455.0000 1.0000
35.1500 474.0000 1.0000
35.1600 446.0000 1.0000
35.1700 451.0000 1.0000
35.1800 455.0000 1.0000
35.1900 487.0000 1.0000
35.2000 492.0000 1.0000
35.2100 462.0000 1.0000
35.2200 505.0000 1.0000
35.2300 439.0000 1.0000
35.2400 447.0000 1.0000
35.2500 469.0000 1.0000
35.2600 492.0000 1.0000
35.2700 496.0000 1.0000
35.2800 503.0000 1.0000
35.2900 491.0000 1.0000
35.3000 493.0000 1.0000
35.3100 485.0000 1.0000
35.3200 505.0000 1.0000
35.3300 493.0000 1.0000
35.3400 508.0000 1.0000
35.3500 481.0000 1.0000
35.3600 521.0000 1.0000
35.3700 511.0000 1.0000
35.3800 483.0000 1.0000
35.3900 513.0000 1.0000
35.4000 526.0000 1.0000
35.4100 531.0000 1.0000
35.4200 552.0000 1.0000
35.4300 539.0000 1.0000
35.4400 606.0000 1.0000
35.4500 592.0000 1.0000
35.4600 598.0000 1.0000
35.4700 589.0000 1.0000
35.4800 652.0000 1.0000
35.4900 671.0000 1.0000
35.5000 694.0000 1.0000
35.5100 649.0000 1.0000
35.5200 705.0000 1.0000
35.5300 754.0000 1.0000
35.5400 732.0000 1.0000
35.5500 810.0000 1.0000
35.5600 803.0000 1.0000
35.5700 774.0000 1.0000
35.5800 795.0000 1.0000
35.5900 761.0000 1.0000
35.6000 705.0000 1.0000
35.6100 697.0000 1.0000
35.6200 684.0000 1.0000
35.6300 713.0000 1.0000
35.6400 688.0000 1.0000
35.6500 665.0000 1.0000
35.6600 664.0000 1.0000
35.6700 644.0000 1.0000
35.6800 643.0000 1.0000
35.6900 619.0000 1.0000
35.7000 600.0000 1.0000
35.7100 589.0000 1.0000
35.7200 620.0000 1.0000
35.7300 545.0000 1.0000
35.7400 541.0000 1.0000
35.7500 494.0000 1.0000
35.7600 521.0000 1.0000
35.7700 495.0000 1.0000
35.7800 528.0000 1.0000
35.7900 503.0000 1.0000
35.8000 453.0000 1.0000
35.8100 469.0000 1.0000
35.8200 487.0000 1.0000
35.8300 461.0000 1.0000
35.8400 465.0000 1.0000
35.8500 447.0000 1.0000
35.8600 476.0000 1.0000
35.8700 439.0000 1.0000
35.8800 444.0000 1.0000
35.8900 425.0000 1.0000
35.9000 427.0000 1.0000
35.9100 421.0000 1.0000
35.9200 438.0000 1.0000
35.9300 425.0000 1.0000
35.9400 437.0000 1.0000
35.9500 433.0000 1.0000
35.9600 461.0000 1.0000
35.9700 426.0000 1.0000
35.9800 393.0000 1.0000
35.9900 415.0000 1.0000
36.0000 448.0000 1.0000
36.0100 454.0000 1.0000
36.0200 432.0000 1.0000
36.0300 413.0000 1.0000
36.0400 462.0000 1.0000
36.0500 443.0000 1.0000
36.0600 425.0000 1.0000
36.0700 442.0000 1.0000
36.0800 430.0000 1.0000
36.0900 442.0000 1.0000
36.1000 424.0000 1.0000
36.1100 439.0000 1.0000
36.1200 428.0000 1.0000
36.1300 404.0000 1.0000
36.1400 428.0000 1.0000
36.1500 388.0000 1.0000
36.1600 409.0000 1.0000
36.1700 428.0000 1.0000
36.1800 454.0000 1.0000
36.1900 436.0000 1.0000
36.2000 403.0000 1.0000
36.2100 421.0000 1.0000
36.2200 388.0000 1.0000
36.2300 427.0000 1.0000
36.2400 402.0000 1.0000
36.2500 407.0000 1.0000
36.2600 447.0000 1.0000
36.2700 435.0000 1.0000
36.2800 424.0000 1.0000
36.2900 395.0000 1.0000
36.3000 426.0000 1.0000
36.3100 450.0000 1.0000
36.3200 456.0000 1.0000
36.3300 454.0000 1.0000
36.3400 410.0000 1.0000
36.3500 414.0000 1.0000
36.3600 427.0000 1.0000
36.3700 431.0000 1.0000
36.3800 433.0000 1.0000
36.3900 417.0000 1.0000
36.4000 417.0000 1.0000
36.4100 383.0000 1.0000
36.4200 450.0000 1.0000
36.4300 449.0000 1.0000
36.4400 436.0000 1.0000
36.4500 434.0000 1.0000
36.4600 448.0000 1.0000
36.4700 421.0000 1.0000
36.4800 423.0000 1.0000
36.4900 438.0000 1.0000
36.5000 410.0000 1.0000
36.5100 413.0000 1.0000
36.5200 444.0000 1.0000
36.5300 412.0000 1.0000
36.5400 395.0000 1.0000
36.5500 376.0000 1.0000
36.5600 430.0000 1.0000
36.5700 413.0000 1.0000
36.5800 437.0000 1.0000
36.5900 441.0000 1.0000
36.6000 440.0000 1.0000
36.6100 436.0000 1.0000
36.6200 422.0000 1.0000
36.6300 406.0000 1.0000
36.6400 433.0000 1.0000
36.6500 427.0000 1.0000
36.6600 431.0000 1.0000
36.6700 413.0000 1.0000
36.6800 430.0000 1.0000
36.6900 441.0000 1.0000
36.7000 430.0000 1.0000
36.7100 421.0000 1.0000
36.7200 426.0000 1.0000
36.7300 406.0000 1.0000
36.7400 406.0000 1.0000
36.7500 421.0000 1.0000
36.7600 443.0000 1.0000
36.7700 423.0000 1.0000
36.7800 389.0000 1.0000
36.7900 380.0000 1.0000
36.8000 448.0000 1.0000
36.8100 416.0000 1.0000
36.8200 450.0000 1.0000
36.8300 406.0000 1.0000
36.8400 406.0000 1.0000
36.8500 413.0000 1.0000
36.8600 435.0000 1.0000
36.8700 421.0000 1.0000
36.8800 413.0000 1.0000
36.8900 408.0000 1.0000
36.9000 398.0000 1.0000
36.9100 425.0000 1.0000
36.9200 449.0000 1.0000
36.9300 421.0000 1.0000
36.9400 426.0000 1.0000
36.9500 414.0000 1.0000
36.9600 433.0000 1.0000
36.9700 412.0000 1.0000
36.9800 416.0000 1.0000
36.9900 470.0000 1.0000
37.0000 415.0000 1.0000
37.0100 409.0000 1.0000
37.0200 416.0000 1.0000
37.0300 380.0000 1.0000
37.0400 419.0000 1.0000
37.0500 414.0000 1.0000
37.0600 399.0000 1.0000
37.0700 396.0000 1.0000
37.0800 434.0000 1.0000
37.0900 409.0000 1.0000
37.1000 416.0000 1.0000
37.1100 436.0000 1.0000
37.1200 458.0000 1.0000
37.1300 467.0000 1.0000
37.1400 442.0000 1.0000
37.1500 457.0000 1.0000
37.1600 460.0000 1.0000
37.1700 435.0000 1.0000
37.1800 445.0000 1.0000
37.1900 444.0000 1.0000
37.2000 440.0000 1.0000
37.2100 430.0000 1.0000
37.2200 452.0000 1.0000
37.2300 455.0000 1.0000
37.2400 454.0000 1.0000
37.2500 471.0000 1.0000
37.2600 447.0000 1.0000
37.2700 474.0000 1.0000
37.2800 496.0000 1.0000
37.2900 479.0000 1.0000
37.3000 446.0000 1.0000
37.3100 462.0000 1.0000
37.3200 465.0000 1.0000
37.3300 466.0000 1.0000
37.3400 488.0000 1.0000
37.3500 547.0000 1.0000
37.3600 537.0000 1.0000
37.3700 514.0000 1.0000
37.3800 532.0000 1.0000
37.3900 573.0000 1.0000
37.4000 586.0000 1.0000
37.4100 605.0000 1.0000
37.4200 614.0000 1.0000
37.4300 598.0000 1.0000
37.4400 649.0000 1.0000
37.4500 671.0000 1.0000
37.4600 708.0000 1.0000
37.4700 717.0000 1.0000
37.4800 764.0000 1.0000
37.4900 796.0000 1.0000
37.5000 792.0000 1.0000
37.5100 808.0000 1.0000
37.5200 879.0000 1.0000
37.5300 966.0000 1.0000
37.5400 1006.0000 1.0000
37.5500 1026.0000 1.0000
37.5600 1108.0000 1.0000
37.5700 1160.0000 1.0000
37.5800 1207.0000 1.0000
37.5900 1321.0000 1.0000
37.6000 1420.0000 1.0000
37.6100 1542.0000 1.0000
37.6200 1658.0000 1.0000
37.6300 1740.0000 1.0000
37.6400 1814.0000 1.0000
37.6500 1842.0000 1.0000
37.6600 1928.0000 1.0000
37.6700 2031.0000 1.0000
37.6800 2061.0000 1.0000
37.6900 2012.0000 1.0000
37.7000 2086.0000 1.0000
37.7100 2158.0000 1.0000
37.7200 2110.0000 1.0000
37.7300 2088.0000 1.0000
37.7400 2012.0000 1.0000
37.7500 1965.0000 1.0000
37.7600 1974.0000 1.0000
37.7700 1875.0000 1.0000
37.7800 1784.0000 1.0000
37.7900 1718.0000 1.0000
37.8000 1621.0000 1.0000
37.8100 1611.0000 1.0000
37.8200 1460.0000 1.0000
37.8300 1409.0000 1.0000
37.8400 1362.0000 1.0000
37.8500 1291.0000 1.0000
37.8600 1171.0000 1.0000
37.8700 1073.0000 1.0000
37.8800 1049.0000 1.0000
37.8900 974.0000 1.0000
37.9000 953.0000 1.0000
37.9100 914.0000 1.0000
37.9200 825.0000 1.0000
37.9300 765.0000 1.0000
37.9400 766.0000 1.0000
37.9500 727.0000 1.0000
37.9600 718.0000 1.0000
37.9700 696.0000 1.0000
37.9800 693.0000 1.0000
37.9900 606.0000 1.0000
38.0000 633.0000 1.0000
38.0100 596.0000 1.0000
38.0200 546.0000 1.0000
38.0300 568.0000 1.0000
38.0400 513.0000 1.0000
38.0500 532.0000 1.0000
38.0600 495.0000 1.0000
38.0700 501.0000 1.0000
38.0800 486.0000 1.0000
38.0900 473.0000 1.0000
38.1000 460.0000 1.0000
38.1100 467.0000 1.0000
38.1200 444.0000 1.0000
38.1300 434.0000 1.0000
38.1400 436.0000 1.0000
38.1500 437.0000 1.0000
38.1600 420.0000 1.0000
38.1700 422.0000 1.0000
38.1800 434.0000 1.0000
38.1900 417.0000 1.0000
38.2000 422.0000 1.0000
38.2100 435.0000 1.0000
38.2200 425.0000 1.0000
38.2300 403.0000 1.0000
38.2400 392.0000 1.0000
38.2500 417.0000 1.0000
38.2600 415.0000 1.0000
38.2700 420.0000 1.0000
38.2800 442.0000 1.0000
38.2900 421.0000 1.0000
38.3000 406.0000 1.0000
38.3100 403.0000 1.0000
38.3200 390.0000 1.0000
38.3300 422.0000 1.0000
38.3400 428.0000 1.0000
38.3500 404.0000 1.0000
38.3600 409.0000 1.0000
38.3700 381.0000 1.0000
38.3800 443.0000 1.0000
38.3900 376.0000 1.0000
38.4000 378.0000 1.0000
38.4100 370.0000 1.0000
38.4200 404.0000 1.0000
38.4300 397.0000 1.0000
38.4400 385.0000 1.0000
38.4500 417.0000 1.0000
38.4600 384.0000 1.0000
38.4700 368.0000 1.0000
38.4800 372.0000 1.0000
38.4900 382.0000 1.0000
38.5000 409.0000 1.0000
38.5100 392.0000 1.0000
38.5200 352.0000 1.0000
38.5300 357.0000 1.0000
38.5400 389.0000 1.0000
38.5500 393.0000 1.0000
38.5600 408.0000 1.0000
38.5700 383.0000 1.0000
38.5800 382.0000 1.0000
38.5900 389.0000 1.0000
38.6000 365.0000 1.0000
38.6100 401.0000 1.0000
38.6200 403.0000 1.0000
38.6300 403.0000 1.0000
38.6400 375.0000 1.0000
38.6500 414.0000 1.0000
38.6600 441.0000 1.0000
38.6700 382.0000 1.0000
38.6800 359.0000 1.0000
38.6900 389.0000 1.0000
38.7000 416.0000 1.0000
38.7100 390.0000 1.0000
38.7200 388.0000 1.0000
38.7300 419.0000 1.0000
38.7400 424.0000 1.0000
38.7500 426.0000 1.0000
38.7600 425.0000 1.0000
38.7700 415.0000 1.0000
38.7800 422.0000 1.0000
38.7900 439.0000 1.0000
38.8000 403.0000 1.0000
38.8100 435.0000 1.0000
38.8200 417.0000 1.0000
38.8300 416.0000 1.0000
38.8400 396.0000 1.0000
38.8500 390.0000 1.0000
38.8600 386.0000 1.0000
38.8700 455.0000 1.0000
38.8800 460.0000 1.0000
38.8900 422.0000 1.0000
38.9000 412.0000 1.0000
38.9100 432.0000 1.0000
38.9200 379.0000 1.0000
38.9300 403.0000 1.0000
38.9400 424.0000 1.0000
38.9500 444.0000 1.0000
38.9600 402.0000 1.0000
38.9700 428.0000 1.0000
38.9800 402.0000 1.0000
38.9900 432.0000 1.0000
39.0000 452.0000 1.0000
39.0100 429.0000 1.0000
39.0200 390.0000 1.0000
39.0300 409.0000 1.0000
39.0400 424.0000 1.0000
39.0500 381.0000 1.0000
39.0600 390.0000 1.0000
39.0700 408.0000 1.0000
39.0800 424.0000 1.0000
39.0900 422.0000 1.0000
39.1000 404.0000 1.0000
39.1100 394.0000 1.0000
39.1200 400.0000 1.0000
39.1300 389.0000 1.0000
39.1400 387.0000 1.0000
39.1500 399.0000 1.0000
39.1600 401.0000 1.0000
39.1700 372.0000 1.0000
39.1800 391.0000 1.0000
39.1900 388.0000 1.0000
39.2000 386.0000 1.0000
39.2100 373.0000 1.0000
39.2200 358.0000 1.0000
39.2300 369.0000 1.0000
39.2400 342.0000 1.0000
39.2500 378.0000 1.0000
39.2600 374.0000 1.0000
39.2700 381.0000 1.0000
39.2800 386.0000 1.0000
39.2900 350.0000 1.0000
39.3000 353.0000 1.0000
39.3100 375.0000 1.0000
39.3200 360.0000 1.0000
39.3300 334.0000 1.0000
39.3400 364.0000 1.0000
39.3500 362.0000 1.0000
39.3600 376.0000 1.0000
39.3700 349.0000 1.0000
39.3800 376.0000 1.0000
39.3900 385.0000 1.0000
39.4000 380.0000 1.0000
39.4100 333.0000 1.0000
39.4200 359.0000 1.0000
39.4300 382.0000 1.0000
39.4400 384.0000 1.0000
39.4500 368.0000 1.0000
39.4600 354.0000 1.0000
39.4700 363.0000 1.0000
39.4800 356.0000 1.0000
39.4900 364.0000 1.0000
39.5000 367.0000 1.0000
39.5100 351.0000 1.0000
39.5200 383.0000 1.0000
39.5300 375.0000 1.0000
39.5400 345.0000 1.0000
39.5500 348.0000 1.0000
39.5600 361.0000 1.0000
39.5700 350.0000 1.0000
39.5800 345.0000 1.0000
39.5900 350.0000 1.0000
39.6000 382.0000 1.0000
39.6100 343.0000 1.0000
39.6200 362.0000 1.0000
39.6300 365.0000 1.0000
39.6400 348.0000 1.0000
39.6500 386.0000 1.0000
39.6600 380.0000 1.0000
39.6700 353.0000 1.0000
39.6800 348.0000 1.0000
39.6900 374.0000 1.0000
39.7000 340.0000 1.0000
39.7100 338.0000 1.0000
39.7200 342.0000 1.0000
39.7300 348.0000 1.0000
39.7400 378.0000 1.0000
39.7500 341.0000 1.0000
39.7600 376.0000 1.0000
39.7700 319.0000 1.0000
39.7800 343.0000 1.0000
39.7900 367.0000 1.0000
39.8000 355.0000 1.0000
39.8100 353.0000 1.0000
39.8200 311.0000 1.0000
39.8300 345.0000 1.0000
39.8400 355.0000 1.0000
39.8500 344.0000 1.0000
39.8600 335.0000 1.0000
39.8700 337.0000 1.0000
39.8800 336.0000 1.0000
39.8900 336.0000 1.0000
39.9000 337.0000 1.0000
39.9100 381.0000 1.0000
39.9200 354.0000 1.0000
39.9300 329.0000 1.0000
39.9400 378.0000 1.0000
39.9500 358.0000 1.0000
39.9600 329.0000 1.0000
39.9700 349.0000 1.0000
39.9800 339.0000 1.0000
39.9900 318.0000 1.0000
40.0000 350.0000 1.0000
40.0100 338.0000 1.0000
40.0200 343.0000 1.0000
40.0300 346.0000 1.0000
40.0400 349.0000 1.0000
40.0500 316.0000 1.0000
40.0600 327.0000 1.0000
40.0700 342.0000 1.0000
40.0800 357.0000 1.0000
40.0900 353.0000 1.0000
40.1000 373.0000 1.0000
40.1100 342.0000 1.0000
40.1200 367.0000 1.0000
40.1300 353.0000 1.0000
40.1400 360.0000 1.0000
40.1500 358.0000 1.0000
40.1600 345.0000 1.0000
40.1700 351.0000 1.0000
40.1800 356.0000 1.0000
40.1900 342.0000 1.0000
40.2000 350.0000 1.0000
40.2100 358.0000 1.0000
40.2200 347.0000 1.0000
40.2300 351.0000 1.0000
40.2400 351.0000 1.0000
40.2500 376.0000 1.0000
40.2600 356.0000 1.0000
40.2700 362.0000 1.0000
40.2800 370.0000 1.0000
40.2900 361.0000 1.0000
40.3000 345.0000 1.0000
40.3100 366.0000 1.0000
40.3200 367.0000 1.0000
40.3300 321.0000 1.0000
40.3400 341.0000 1.0000
40.3500 326.0000 1.0000
40.3600 328.0000 1.0000
40.3700 308.0000 1.0000
40.3800 353.0000 1.0000
40.3900 346.0000 1.0000
40.4000 371.0000 1.0000
40.4100 365.0000 1.0000
40.4200 356.0000 1.0000
40.4300 361.0000 1.0000
40.4400 333.0000 1.0000
40.4500 343.0000 1.0000
40.4600 308.0000 1.0000
40.4700 331.0000 1.0000
40.4800 361.0000 1.0000
40.4900 379.0000 1.0000
40.5000 395.0000 1.0000
40.5100 352.0000 1.0000
40.5200 338.0000 1.0000
40.5300 378.0000 1.0000
40.5400 378.0000 1.0000
40.5500 339.0000 1.0000
40.5600 349.0000 1.0000
40.5700 370.0000 1.0000
40.5800 336.0000 1.0000
40.5900 348.0000 1.0000
40.6000 341.0000 1.0000
40.6100 349.0000 1.0000
40.6200 329.0000 1.0000
40.6300 366.0000 1.0000
40.6400 338.0000 1.0000
40.6500 317.0000 1.0000
40.6600 339.0000 1.0000
40.6700 343.0000 1.0000
40.6800 365.0000 1.0000
40.6900 376.0000 1.0000
40.7000 380.0000 1.0000
40.7100 341.0000 1.0000
40.7200 368.0000 1.0000
40.7300 371.0000 1.0000
40.7400 372.0000 1.0000
40.7500 370.0000 1.0000
40.7600 383.0000 1.0000
40.7700 363.0000 1.0000
40.7800 379.0000 1.0000
40.7900 351.0000 1.0000
40.8000 361.0000 1.0000
40.8100 342.0000 1.0000
40.8200 335.0000 1.0000
40.8300 350.0000 1.0000
40.8400 347.0000 1.0000
40.8500 357.0000 1.0000
40.8600 333.0000 1.0000
40.8700 387.0000 1.0000
40.8800 366.0000 1.0000
40.8900 391.0000 1.0000
40.9000 354.0000 1.0000
40.9100 390.0000 1.0000
40.9200 351.0000 1.0000
40.9300 337.0000 1.0000
40.9400 359.0000 1.0000
40.9500 360.0000 1.0000
40.9600 362.0000 1.0000
40.9700 361.0000 1.0000
40.9800 347.0000 1.0000
40.9900 338.0000 1.0000
41.0000 347.0000 1.0000
41.0100 351.0000 1.0000
41.0200 351.0000 1.0000
41.0300 348.0000 1.0000
41.0400 341.0000 1.0000
41.0500 347.0000 1.0000
41.0600 365.0000 1.0000
41.0700 329.0000 1.0000
41.0800 322.0000 1.0000
41.0900 388.0000 1.0000
41.1000 359.0000 1.0000
41.1100 341.0000 1.0000
41.1200 338.0000 1.0000
41.1300 318.0000 1.0000
41.1400 323.0000 1.0000
41.1500 343.0000 1.0000
41.1600 339.0000 1.0000
41.1700 364.0000 1.0000
41.1800 316.0000 1.0000
41.1900 345.0000 1.0000
41.2000 327.0000 1.0000
41.2100 352.0000 1.0000
41.2200 369.0000 1.0000
41.2300 338.0000 1.0000
41.2400 348.0000 1.0000
41.2500 342.0000 1.0000
41.2600 311.0000 1.0000
41.2700 383.0000 1.0000
41.2800 362.0000 1.0000
41.2900 338.0000 1.0000
41.3000 339.0000 1.0000
41.3100 324.0000 1.0000
41.3200 369.0000 1.0000
41.3300 341.0000 1.0000
41.3400 348.0000 1.0000
41.3500 347.0000 1.0000
41.3600 332.0000 1.0000
41.3700 310.0000 1.0000
41.3800 321.0000 1.0000
41.3900 346.0000 1.0000
41.4000 356.0000 1.0000
41.4100 370.0000 1.0000
41.4200 343.0000 1.0000
41.4300 335.0000 1.0000
41.4400 320.0000 1.0000
41.4500 315.0000 1.0000
41.4600 327.0000 1.0000
41.4700 329.0000 1.0000
41.4800 320.0000 1.0000
41.4900 358.0000 1.0000
41.5000 331.0000 1.0000
41.5100 335.0000 1.0000
41.5200 307.0000 1.0000
41.5300 327.0000 1.0000
41.5400 348.0000 1.0000
41.5500 328.0000 1.0000
41.5600 332.0000 1.0000
41.5700 312.0000 1.0000
41.5800 349.0000 1.0000
41.5900 343.0000 1.0000
41.6000 359.0000 1.0000
41.6100 319.0000 1.0000
41.6200 356.0000 1.0000
41.6300 356.0000 1.0000
41.6400 353.0000 1.0000
41.6500 346.0000 1.0000
41.6600 346.0000 1.0000
41.6700 351.0000 1.0000
41.6800 350.0000 1.0000
41.6900 315.0000 1.0000
41.7000 336.0000 1.0000
41.7100 301.0000 1.0000
41.7200 299.0000 1.0000
41.7300 339.0000 1.0000
41.7400 373.0000 1.0000
41.7500 345.0000 1.0000
41.7600 345.0000 1.0000
41.7700 323.0000 1.0000
41.7800 306.0000 1.0000
41.7900 327.0000 1.0000
41.8000 330.0000 1.0000
41.8100 351.0000 1.0000
41.8200 334.0000 1.0000
41.8300 320.0000 1.0000
41.8400 342.0000 1.0000
41.8500 324.0000 1.0000
41.8600 310.0000 1.0000
41.8700 373.0000 1.0000
41.8800 339.0000 1.0000
41.8900 329.0000 1.0000
41.9000 344.0000 1.0000
41.9100 339.0000 1.0000
41.9200 351.0000 1.0000
41.9300 358.0000 1.0000
41.9400 336.0000 1.0000
41.9500 354.0000 1.0000
41.9600 333.0000 1.0000
41.9700 335.0000 1.0000
41.9800 337.0000 1.0000
41.9900 325.0000 1.0000
42.0000 324.0000 1.0000
42.0100 364.0000 1.0000
42.0200 339.0000 1.0000
42.0300 324.0000 1.0000
42.0400 326.0000 1.0000
42.0500 339.0000 1.0000
42.0600 319.0000 1.0000
42.0700 329.0000 1.0000
42.0800 329.0000 1.0000
42.0900 336.0000 1.0000
42.1000 352.0000 1.0000
42.1100 320.0000 1.0000
42.1200 338.0000 1.0000
42.1300 346.0000 1.0000
42.1400 328.0000 1.0000
42.1500 350.0000 1.0000
42.1600 359.0000 1.0000
42.1700 346.0000 1.0000
42.1800 367.0000 1.0000
42.1900 357.0000 1.0000
42.2000 326.0000 1.0000
42.2100 330.0000 1.0000
42.2200 374.0000 1.0000
42.2300 340.0000 1.0000
42.2400 332.0000 1.0000
42.2500 337.0000 1.0000
42.2600 336.0000 1.0000
42.2700 356.0000 1.0000
42.2800 325.0000 1.0000
42.2900 311.0000 1.0000
42.3000 370.0000 1.0000
42.3100 348.0000 1.0000
42.3200 347.0000 1.0000
42.3300 367.0000 1.0000
42.3400 348.0000 1.0000
42.3500 385.0000 1.0000
42.3600 351.0000 1.0000
42.3700 353.0000 1.0000
42.3800 371.0000 1.0000
42.3900 359.0000 1.0000
42.4000 381.0000 1.0000
42.4100 389.0000 1.0000
42.4200 341.0000 1.0000
42.4300 335.0000 1.0000
42.4400 347.0000 1.0000
42.4500 372.0000 1.0000
42.4600 389.0000 1.0000
42.4700 368.0000 1.0000
42.4800 338.0000 1.0000
42.4900 347.0000 1.0000
42.5000 350.0000 1.0000
42.5100 337.0000 1.0000
42.5200 365.0000 1.0000
42.5300 342.0000 1.0000
42.5400 310.0000 1.0000
42.5500 367.0000 1.0000
42.5600 336.0000 1.0000
42.5700 331.0000 1.0000
42.5800 360.0000 1.0000
42.5900 369.0000 1.0000
42.6000 366.0000 1.0000
42.6100 349.0000 1.0000
42.6200 359.0000 1.0000
42.6300 366.0000 1.0000
42.6400 320.0000 1.0000
42.6500 304.0000 1.0000
42.6600 359.0000 1.0000
42.6700 340.0000 1.0000
42.6800 340.0000 1.0000
42.6900 333.0000 1.0000
42.7000 332.0000 1.0000
42.7100 335.0000 1.0000
42.7200 340.0000 1.0000
42.7300 324.0000 1.0000
42.7400 295.0000 1.0000
42.7500 335.0000 1.0000
42.7600 347.0000 1.0000
42.7700 324.0000 1.0000
42.7800 343.0000 1.0000
42.7900 318.0000 1.0000
42.8000 335.0000 1.0000
42.8100 332.0000 1.0000
42.8200 340.0000 1.0000
42.8300 319.0000 1.0000
42.8400 315.0000 1.0000
42.8500 322.0000 1.0000
42.8600 321.0000 1.0000
42.8700 347.0000 1.0000
42.8800 371.0000 1.0000
42.8900 359.0000 1.0000
42.9000 341.0000 1.0000
42.9100 329.0000 1.0000
42.9200 336.0000 1.0000
42.9300 353.0000 1.0000
42.9400 342.0000 1.0000
42.9500 329.0000 1.0000
42.9600 347.0000 1.0000
42.9700 322.0000 1.0000
42.9800 336.0000 1.0000
42.9900 356.0000 1.0000
43.0000 328.0000 1.0000
43.0100 332.0000 1.0000
43.0200 323.0000 1.0000
43.0300 334.0000 1.0000
43.0400 298.0000 1.0000
43.0500 321.0000 1.0000
43.0600 293.0000 1.0000
43.0700 286.0000 1.0000
43.0800 346.0000 1.0000
43.0900 304.0000 1.0000
43.1000 320.0000 1.0000
43.1100 332.0000 1.0000
43.1200 332.0000 1.0000
43.1300 335.0000 1.0000
43.1400 327.0000 1.0000
43.1500 301.0000 1.0000
43.1600 331.0000 1.0000
43.1700 336.0000 1.0000
43.1800 319.0000 1.0000
43.1900 350.0000 1.0000
43.2000 361.0000 1.0000
43.2100 299.0000 1.0000
43.2200 317.0000 1.0000
43.2300 312.0000 1.0000
43.2400 320.0000 1.0000
43.2500 317.0000 1.0000
43.2600 308.0000 1.0000
43.2700 333.0000 1.0000
43.2800 329.0000 1.0000
43.2900 336.0000 1.0000
43.3000 318.0000 1.0000
43.3100 314.0000 1.0000
43.3200 308.0000 1.0000
43.3300 321.0000 1.0000
43.3400 342.0000 1.0000
43.3500 363.0000 1.0000
43.3600 321.0000 1.0000
43.3700 335.0000 1.0000
43.3800 291.0000 1.0000
43.3900 320.0000 1.0000
43.4000 292.0000 1.0000
43.4100 339.0000 1.0000
43.4200 350.0000 1.0000
43.4300 340.0000 1.0000
43.4400 338.0000 1.0000
43.4500 335.0000 1.0000
43.4600 342.0000 1.0000
43.4700 329.0000 1.0000
43.4800 334.0000 1.0000
43.4900 325.0000 1.0000
43.5000 355.0000 1.0000
43.5100 328.0000 1.0000
43.5200 322.0000 1.0000
43.5300 347.0000 1.0000
43.5400 355.0000 1.0000
43.5500 308.0000 1.0000
43.5600 310.0000 1.0000
43.5700 353.0000 1.0000
43.5800 332.0000 1.0000
43.5900 302.0000 1.0000
43.6000 318.0000 1.0000
43.6100 312.0000 1.0000
43.6200 336.0000 1.0000
43.6300 315.0000 1.0000
43.6400 318.0000 1.0000
43.6500 324.0000 1.0000
43.6600 327.0000 1.0000
43.6700 356.0000 1.0000
43.6800 322.0000 1.0000
43.6900 332.0000 1.0000
43.7000 333.0000 1.0000
43.7100 319.0000 1.0000
43.7200 348.0000 1.0000
43.7300 313.0000 1.0000
43.7400 287.0000 1.0000
43.7500 327.0000 1.0000
43.7600 327.0000 1.0000
43.7700 325.0000 1.0000
43.7800 348.0000 1.0000
43.7900 332.0000 1.0000
43.8000 315.0000 1.0000
43.8100 340.0000 1.0000
43.8200 296.0000 1.0000
43.8300 343.0000 1.0000
43.8400 332.0000 1.0000
43.8500 315.0000 1.0000
43.8600 298.0000 1.0000
43.8700 331.0000 1.0000
43.8800 312.0000 1.0000
43.8900 349.0000 1.0000
43.9000 308.0000 1.0000
43.9100 310.0000 1.0000
43.9200 315.0000 1.0000
43.9300 338.0000 1.0000
43.9400 355.0000 1.0000
43.9500 320.0000 1.0000
43.9600 313.0000 1.0000
43.9700 340.0000 1.0000
43.9800 336.0000 1.0000
43.9900 300.0000 1.0000
44.0000 312.0000 1.0000
44.0100 311.0000 1.0000
44.0200 303.0000 1.0000
44.0300 320.0000 1.0000
44.0400 318.0000 1.0000
44.0500 343.0000 1.0000
44.0600 329.0000 1.0000
44.0700 336.0000 1.0000
44.0800 339.0000 1.0000
44.0900 311.0000 1.0000
44.1000 313.0000 1.0000
44.1100 300.0000 1.0000
44.1200 317.0000 1.0000
44.1300 317.0000 1.0000
44.1400 324.0000 1.0000
44.1500 345.0000 1.0000
44.1600 313.0000 1.0000
44.1700 329.0000 1.0000
44.1800 310.0000 1.0000
44.1900 324.0000 1.0000
44.2000 311.0000 1.0000
44.2100 307.0000 1.0000
44.2200 318.0000 1.0000
44.2300 354.0000 1.0000
44.2400 313.0000 1.0000
44.2500 333.0000 1.0000
44.2600 312.0000 1.0000
44.2700 330.0000 1.0000
44.2800 320.0000 1.0000
44.2900 327.0000 1.0000
44.3000 322.0000 1.0000
44.3100 319.0000 1.0000
44.3200 292.0000 1.0000
44.3300 369.0000 1.0000
44.3400 353.0000 1.0000
44.3500 323.0000 1.0000
44.3600 333.0000 1.0000
44.3700 320.0000 1.0000
44.3800 299.0000 1.0000
44.3900 340.0000 1.0000
44.4000 343.0000 1.0000
44.4100 311.0000 1.0000
44.4200 324.0000 1.0000
44.4300 309.0000 1.0000
44.4400 310.0000 1.0000
44.4500 289.0000 1.0000
44.4600 337.0000 1.0000
44.4700 330.0000 1.0000
44.4800 291.0000 1.0000
44.4900 287.0000 1.0000
44.5000 314.0000 1.0000
44.5100 327.0000 1.0000
44.5200 291.0000 1.0000
44.5300 307.0000 1.0000
44.5400 323.0000 1.0000
44.5500 291.0000 1.0000
44.5600 298.0000 1.0000
44.5700 314.0000 1.0000
44.5800 300.0000 1.0000
44.5900 303.0000 1.0000
44.6000 327.0000 1.0000
44.6100 338.0000 1.0000
44.6200 331.0000 1.0000
44.6300 323.0000 1.0000
44.6400 290.0000 1.0000
44.6500 297.0000 1.0000
44.6600 316.0000 1.0000
44.6700 332.0000 1.0000
44.6800 311.0000 1.0000
44.6900 329.0000 1.0000
44.7000 325.0000 1.0000
44.7100 297.0000 1.0000
44.7200 300.0000 1.0000
44.7300 324.0000 1.0000
44.7400 322.0000 1.0000
44.7500 312.0000 1.0000
44.7600 278.0000 1.0000
44.7700 304.0000 1.0000
44.7800 315.0000 1.0000
44.7900 325.0000 1.0000
44.8000 322.0000 1.0000
44.8100 329.0000 1.0000
44.8200 306.0000 1.0000
44.8300 300.0000 1.0000
44.8400 323.0000 1.0000
44.8500 297.0000 1.0000
44.8600 316.0000 1.0000
44.8700 312.0000 1.0000
44.8800 304.0000 1.0000
44.8900 324.0000 1.0000
44.9000 319.0000 1.0000
44.9100 344.0000 1.0000
44.9200 304.0000 1.0000
44.9300 296.0000 1.0000
44.9400 305.0000 1.0000
44.9500 307.0000 1.0000
44.9600 292.0000 1.0000
44.9700 299.0000 1.0000
44.9800 302.0000 1.0000
44.9900 313.0000 1.0000
45.0000 317.0000 1.0000
45.0100 299.0000 1.0000
45.0200 329.0000 1.0000
45.0300 324.0000 1.0000
45.0400 300.0000 1.0000
45.0500 294.0000 1.0000
45.0600 308.0000 1.0000
45.0700 326.0000 1.0000
45.0800 290.0000 1.0000
45.0900 299.0000 1.0000
45.1000 336.0000 1.0000
45.1100 328.0000 1.0000
45.1200 337.0000 1.0000
45.1300 313.0000 1.0000
45.1400 317.0000 1.0000
45.1500 276.0000 1.0000
45.1600 312.0000 1.0000
45.1700 303.0000 1.0000
45.1800 295.0000 1.0000
45.1900 298.0000 1.0000
45.2000 295.0000 1.0000
45.2100 291.0000 1.0000
45.2200 310.0000 1.0000
45.2300 333.0000 1.0000
45.2400 326.0000 1.0000
45.2500 295.0000 1.0000
45.2600 276.0000 1.0000
45.2700 311.0000 1.0000
45.2800 303.0000 1.0000
45.2900 284.0000 1.0000
45.3000 297.0000 1.0000
45.3100 300.0000 1.0000
45.3200 293.0000 1.0000
45.3300 313.0000 1.0000
45.3400 290.0000 1.0000
45.3500 273.0000 1.0000
45.3600 326.0000 1.0000
45.3700 283.0000 1.0000
45.3800 310.0000 1.0000
45.3900 295.0000 1.0000
45.4000 292.0000 1.0000
45.4100 328.0000 1.0000
45.4200 318.0000 1.0000
45.4300 320.0000 1.0000
45.4400 293.0000 1.0000
45.4500 288.0000 1.0000
45.4600 305.0000 1.0000
45.4700 309.0000 1.0000
45.4800 290.0000 1.0000
45.4900 314.0000 1.0000
45.5000 285.0000 1.0000
45.5100 311.0000 1.0000
45.5200 297.0000 1.0000
45.5300 299.0000 1.0000
45.5400 314.0000 1.0000
45.5500 346.0000 1.0000
45.5600 339.0000 1.0000
45.5700 304.0000 1.0000
45.5800 304.0000 1.0000
45.5900 295.0000 1.0000
45.6000 293.0000 1.0000
45.6100 323.0000 1.0000
45.6200 313.0000 1.0000
45.6300 341.0000 1.0000
45.6400 304.0000 1.0000
45.6500 303.0000 1.0000
45.6600 291.0000 1.0000
45.6700 303.0000 1.0000
45.6800 262.0000 1.0000
45.6900 316.0000 1.0000
45.7000 307.0000 1.0000
45.7100 300.0000 1.0000
45.7200 302.0000 1.0000
45.7300 308.0000 1.0000
45.7400 296.0000 1.0000
45.7500 335.0000 1.0000
45.7600 311.0000 1.0000
45.7700 293.0000 1.0000
45.7800 309.0000 1.0000
45.7900 298.0000 1.0000
45.8000 308.0000 1.0000
45.8100 302.0000 1.0000
45.8200 304.0000 1.0000
45.8300 302.0000 1.0000
45.8400 300.0000 1.0000
45.8500 300.0000 1.0000
45.8600 342.0000 1.0000
45.8700 313.0000 1.0000
45.8800 308.0000 1.0000
45.8900 342.0000 1.0000
45.9000 307.0000 1.0000
45.9100 307.0000 1.0000
45.9200 318.0000 1.0000
45.9300 327.0000 1.0000
45.9400 293.0000 1.0000
45.9500 324.0000 1.0000
45.9600 333.0000 1.0000
45.9700 312.0000 1.0000
45.9800 303.0000 1.0000
45.9900 314.0000 1.0000
46.0000 331.0000 1.0000
46.0100 307.0000 1.0000
46.0200 290.0000 1.0000
46.0300 303.0000 1.0000
46.0400 295.0000 1.0000
46.0500 305.0000 1.0000
46.0600 311.0000 1.0000
46.0700 302.0000 1.0000
46.0800 325.0000 1.0000
46.0900 342.0000 1.0000
46.1000 314.0000 1.0000
46.1100 319.0000 1.0000
46.1200 321.0000 1.0000
46.1300 318.0000 1.0000
46.1400 327.0000 1.0000
46.1500 320.0000 1.0000
46.1600 320.0000 1.0000
46.1700 326.0000 1.0000
46.1800 286.0000 1.0000
46.1900 309.0000 1.0000
46.2000 273.0000 1.0000
46.2100 319.0000 1.0000
46.2200 281.0000 1.0000
46.2300 285.0000 1.0000
46.2400 294.0000 1.0000
46.2500 283.0000 1.0000
46.2600 316.0000 1.0000
46.2700 315.0000 1.0000
46.2800 314.0000 1.0000
46.2900 295.0000 1.0000
46.3000 290.0000 1.0000
46.3100 305.0000 1.0000
46.3200 298.0000 1.0000
46.3300 292.0000 1.0000
46.3400 318.0000 1.0000
46.3500 299.0000 1.0000
46.3600 310.0000 1.0000
46.3700 298.0000 1.0000
46.3800 291.0000 1.0000
46.3900 299.0000 1.0000
46.4000 311.0000 1.0000
46.4100 306.0000 1.0000
46.4200 292.0000 1.0000
46.4300 307.0000 1.0000
46.4400 310.0000 1.0000
46.4500 319.0000 1.0000
46.4600 273.0000 1.0000
46.4700 292.0000 1.0000
46.4800 310.0000 1.0000
46.4900 328.0000 1.0000
46.5000 302.0000 1.0000
46.5100 296.0000 1.0000
46.5200 307.0000 1.0000
46.5300 285.0000 1.0000
46.5400 301.0000 1.0000
46.5500 316.0000 1.0000
46.5600 307.0000 1.0000
46.5700 303.0000 1.0000
46.5800 304.0000 1.0000
46.5900 289.0000 1.0000
46.6000 272.0000 1.0000
46.6100 293.0000 1.0000
46.6200 271.0000 1.0000
46.6300 312.0000 1.0000
46.6400 276.0000 1.0000
46.6500 312.0000 1.0000
46.6600 282.0000 1.0000
46.6700 301.0000 1.0000
46.6800 285.0000 1.0000
46.6900 301.0000 1.0000
46.7000 323.0000 1.0000
46.7100 332.0000 1.0000
46.7200 298.0000 1.0000
46.7300 320.0000 1.0000
46.7400 299.0000 1.0000
46.7500 337.0000 1.0000
46.7600 308.0000 1.0000
46.7700 283.0000 1.0000
46.7800 303.0000 1.0000
46.7900 301.0000 1.0000
46.8000 304.0000 1.0000
46.8100 302.0000 1.0000
46.8200 291.0000 1.0000
46.8300 315.0000 1.0000
46.8400 304.0000 1.0000
46.8500 290.0000 1.0000
46.8600 308.0000 1.0000
46.8700 268.0000 1.0000
46.8800 304.0000 1.0000
46.8900 299.0000 1.0000
46.9000 292.0000 1.0000
46.9100 297.0000 1.0000
46.9200 296.0000 1.0000
46.9300 281.0000 1.0000
46.9400 315.0000 1.0000
46.9500 299.0000 1.0000
46.9600 287.0000 1.0000
46.9700 310.0000 1.0000
46.9800 260.0000 1.0000
46.9900 288.0000 1.0000
47.0000 295.0000 1.0000
47.0100 283.0000 1.0000
47.0200 295.0000 1.0000
47.0300 265.0000 1.0000
47.0400 294.0000 1.0000
47.0500 283.0000 1.0000
47.0600 282.0000 1.0000
47.0700 298.0000 1.0000
47.0800 287.0000 1.0000
47.0900 299.0000 1.0000
47.1000 301.0000 1.0000
47.1100 292.0000 1.0000
47.1200 279.0000 1.0000
47.1300 286.0000 1.0000
47.1400 316.0000 1.0000
47.1500 295.0000 1.0000
47.1600 277.0000 1.0000
47.1700 282.0000 1.0000
47.1800 282.0000 1.0000
47.1900 285.0000 1.0000
47.2000 313.0000 1.0000
47.2100 313.0000 1.0000
47.2200 286.0000 1.0000
47.2300 295.0000 1.0000
47.2400 296.0000 1.0000
47.2500 280.0000 1.0000
47.2600 308.0000 1.0000
47.2700 317.0000 1.0000
47.2800 265.0000 1.0000
47.2900 280.0000 1.0000
47.3000 279.0000 1.0000
47.3100 272.0000 1.0000
47.3200 331.0000 1.0000
47.3300 281.0000 1.0000
47.3400 289.0000 1.0000
47.3500 309.0000 1.0000
47.3600 302.0000 1.0000
47.3700 277.0000 1.0000
47.3800 280.0000 1.0000
47.3900 264.0000 1.0000
47.4000 283.0000 1.0000
47.4100 300.0000 1.0000
47.4200 288.0000 1.0000
47.4300 278.0000 1.0000
47.4400 271.0000 1.0000
47.4500 302.0000 1.0000
47.4600 309.0000 1.0000
47.4700 296.0000 1.0000
47.4800 296.0000 1.0000
47.4900 295.0000 1.0000
47.5000 307.0000 1.0000
47.5100 294.0000 1.0000
47.5200 286.0000 1.0000
47.5300 284.0000 1.0000
47.5400 307.0000 1.0000
47.5500 284.0000 1.0000
47.5600 319.0000 1.0000
47.5700 290.0000 1.0000
47.5800 295.0000 1.0000
47.5900 284.0000 1.0000
47.6000 272.0000 1.0000
47.6100 305.0000 1.0000
47.6200 302.0000 1.0000
47.6300 299.0000 1.0000
47.6400 270.0000 1.0000
47.6500 286.0000 1.0000
47.6600 303.0000 1.0000
47.6700 310.0000 1.0000
47.6800 298.0000 1.0000
47.6900 273.0000 1.0000
47.7000 273.0000 1.0000
47.7100 294.0000 1.0000
47.7200 301.0000 1.0000
47.7300 303.0000 1.0000
47.7400 314.0000 1.0000
47.7500 300.0000 1.0000
47.7600 299.0000 1.0000
47.7700 294.0000 1.0000
47.7800 294.0000 1.0000
47.7900 282.0000 1.0000
47.8000 294.0000 1.0000
47.8100 263.0000 1.0000
47.8200 298.0000 1.0000
47.8300 289.0000 1.0000
47.8400 298.0000 1.0000
47.8500 304.0000 1.0000
47.8600 262.0000 1.0000
47.8700 286.0000 1.0000
47.8800 307.0000 1.0000
47.8900 291.0000 1.0000
47.9000 266.0000 1.0000
47.9100 275.0000 1.0000
47.9200 276.0000 1.0000
47.9300 272.0000 1.0000
47.9400 271.0000 1.0000
47.9500 295.0000 1.0000
47.9600 307.0000 1.0000
47.9700 297.0000 1.0000
47.9800 278.0000 1.0000
47.9900 278.0000 1.0000
48.0000 286.0000 1.0000
48.0100 256.0000 1.0000
48.0200 266.0000 1.0000
48.0300 294.0000 1.0000
48.0400 307.0000 1.0000
48.0500 278.0000 1.0000
48.0600 270.0000 1.0000
48.0700 307.0000 1.0000
48.0800 293.0000 1.0000
48.0900 314.0000 1.0000
48.1000 291.0000 1.0000
48.1100 311.0000 1.0000
48.1200 274.0000 1.0000
48.1300 286.0000 1.0000
48.1400 293.0000 1.0000
48.1500 271.0000 1.0000
48.1600 286.0000 1.0000
48.1700 281.0000 1.0000
48.1800 282.0000 1.0000
48.1900 309.0000 1.0000
48.2000 297.0000 1.0000
48.2100 259.0000 1.0000
48.2200 288.0000 1.0000
48.2300 323.0000 1.0000
48.2400 299.0000 1.0000
48.2500 281.0000 1.0000
48.2600 273.0000 1.0000
48.2700 282.0000 1.0000
48.2800 306.0000 1.0000
48.2900 284.0000 1.0000
48.3000 273.0000 1.0000
48.3100 282.0000 1.0000
48.3200 277.0000 1.0000
48.3300 284.0000 1.0000
48.3400 269.0000 1.0000
48.3500 252.0000 1.0000
48.3600 287.0000 1.0000
48.3700 267.0000 1.0000
48.3800 285.0000 1.0000
48.3900 271.0000 1.0000
48.4000 288.0000 1.0000
48.4100 302.0000 1.0000
48.4200 278.0000 1.0000
48.4300 287.0000 1.0000
48.4400 297.0000 1.0000
48.4500 289.0000 1.0000
48.4600 291.0000 1.0000
48.4700 281.0000 1.0000
48.4800 305.0000 1.0000
48.4900 280.0000 1.0000
48.5000 267.0000 1.0000
48.5100 304.0000 1.0000
48.5200 264.0000 1.0000
48.5300 283.0000 1.0000
48.5400 296.0000 1.0000
48.5500 313.0000 1.0000
48.5600 284.0000 1.0000
48.5700 284.0000 1.0000
48.5800 315.0000 1.0000
48.5900 288.0000 1.0000
48.6000 285.0000 1.0000
48.6100 291.0000 1.0000
48.6200 239.0000 1.0000
48.6300 299.0000 1.0000
48.6400 296.0000 1.0000
48.6500 262.0000 1.0000
48.6600 296.0000 1.0000
48.6700 270.0000 1.0000
48.6800 273.0000 1.0000
48.6900 288.0000 1.0000
48.7000 295.0000 1.0000
48.7100 273.0000 1.0000
48.7200 278.0000 1.0000
48.7300 274.0000 1.0000
48.7400 298.0000 1.0000
48.7500 267.0000 1.0000
48.7600 250.0000 1.0000
48.7700 285.0000 1.0000
48.7800 274.0000 1.0000
48.7900 257.0000 1.0000
48.8000 291.0000 1.0000
48.8100 285.0000 1.0000
48.8200 269.0000 1.0000
48.8300 276.0000 1.0000
48.8400 269.0000 1.0000
48.8500 286.0000 1.0000
48.8600 297.0000 1.0000
48.8700 284.0000 1.0000
48.8800 314.0000 1.0000
48.8900 290.0000 1.0000
48.9000 277.0000 1.0000
48.9100 254.0000 1.0000
48.9200 272.0000 1.0000
48.9300 264.0000 1.0000
48.9400 279.0000 1.0000
48.9500 299.0000 1.0000
48.9600 284.0000 1.0000
48.9700 258.0000 1.0000
48.9800 319.0000 1.0000
48.9900 296.0000 1.0000
49.0000 272.0000 1.0000
49.0100 265.0000 1.0000
49.0200 275.0000 1.0000
49.0300 277.0000 1.0000
49.0400 267.0000 1.0000
49.0500 284.0000 1.0000
49.0600 270.0000 1.0000
49.0700 246.0000 1.0000
49.0800 277.0000 1.0000
49.0900 261.0000 1.0000
49.1000 301.0000 1.0000
49.1100 288.0000 1.0000
49.1200 283.0000 1.0000
49.1300 297.0000 1.0000
49.1400 274.0000 1.0000
49.1500 290.0000 1.0000
49.1600 300.0000 1.0000
49.1700 299.0000 1.0000
49.1800 272.0000 1.0000
49.1900 268.0000 1.0000
49.2000 287.0000 1.0000
49.2100 309.0000 1.0000
49.2200 280.0000 1.0000
49.2300 292.0000 1.0000
49.2400 291.0000 1.0000
49.2500 265.0000 1.0000
49.2600 250.0000 1.0000
49.2700 302.0000 1.0000
49.2800 319.0000 1.0000
49.2900 263.0000 1.0000
49.3000 296.0000 1.0000
49.3100 302.0000 1.0000
49.3200 312.0000 1.0000
49.3300 289.0000 1.0000
49.3400 302.0000 1.0000
49.3500 289.0000 1.0000
49.3600 302.0000 1.0000
49.3700 282.0000 1.0000
49.3800 312.0000 1.0000
49.3900 282.0000 1.0000
49.4000 310.0000 1.0000
49.4100 298.0000 1.0000
49.4200 284.0000 1.0000
49.4300 295.0000 1.0000
49.4400 324.0000 1.0000
49.4500 312.0000 1.0000
49.4600 296.0000 1.0000
49.4700 304.0000 1.0000
49.4800 302.0000 1.0000
49.4900 309.0000 1.0000
49.5000 305.0000 1.0000
49.5100 311.0000 1.0000
49.5200 304.0000 1.0000
49.5300 283.0000 1.0000
49.5400 295.0000 1.0000
49.5500 290.0000 1.0000
49.5600 297.0000 1.0000
49.5700 307.0000 1.0000
49.5800 305.0000 1.0000
49.5900 295.0000 1.0000
49.6000 313.0000 1.0000
49.6100 325.0000 1.0000
49.6200 281.0000 1.0000
49.6300 292.0000 1.0000
49.6400 302.0000 1.0000
49.6500 297.0000 1.0000
49.6600 298.0000 1.0000
49.6700 297.0000 1.0000
49.6800 295.0000 1.0000
49.6900 274.0000 1.0000
49.7000 271.0000 1.0000
49.7100 324.0000 1.0000
49.7200 294.0000 1.0000
49.7300 285.0000 1.0000
49.7400 281.0000 1.0000
49.7500 289.0000 1.0000
49.7600 302.0000 1.0000
49.7700 278.0000 1.0000
49.7800 269.0000 1.0000
49.7900 278.0000 1.0000
49.8000 284.0000 1.0000
49.8100 299.0000 1.0000
49.8200 283.0000 1.0000
49.8300 276.0000 1.0000
49.8400 304.0000 1.0000
49.8500 277.0000 1.0000
49.8600 281.0000 1.0000
49.8700 266.0000 1.0000
49.8800 291.0000 1.0000
49.8900 278.0000 1.0000
49.9000 283.0000 1.0000
49.9100 283.0000 1.0000
49.9200 290.0000 1.0000
49.9300 298.0000 1.0000
49.9400 303.0000 1.0000
49.9500 310.0000 1.0000
49.9600 304.0000 1.0000
49.9700 291.0000 1.0000
49.9800 232.0000 1.0000
49.9900 258.0000 1.0000
50.0000 278.0000 1.0000
50.0100 281.0000 1.0000
50.0200 288.0000 1.0000
50.0300 275.0000 1.0000
50.0400 297.0000 1.0000
50.0500 307.0000 1.0000
50.0600 300.0000 1.0000
50.0700 298.0000 1.0000
50.0800 293.0000 1.0000
50.0900 295.0000 1.0000
50.1000 296.0000 1.0000
50.1100 287.0000 1.0000
50.1200 300.0000 1.0000
50.1300 288.0000 1.0000
50.1400 268.0000 1.0000
50.1500 281.0000 1.0000
50.1600 324.0000 1.0000
50.1700 313.0000 1.0000
50.1800 289.0000 1.0000
50.1900 279.0000 1.0000
50.2000 302.0000 1.0000
50.2100 299.0000 1.0000
50.2200 313.0000 1.0000
50.2300 303.0000 1.0000
50.2400 287.0000 1.0000
50.2500 296.0000 1.0000
50.2600 277.0000 1.0000
50.2700 289.0000 1.0000
50.2800 280.0000 1.0000
50.2900 286.0000 1.0000
50.3000 285.0000 1.0000
50.3100 260.0000 1.0000
50.3200 267.0000 1.0000
50.3300 270.0000 1.0000
50.3400 300.0000 1.0000
50.3500 300.0000 1.0000
50.3600 301.0000 1.0000
50.3700 272.0000 1.0000
50.3800 297.0000 1.0000
50.3900 274.0000 1.0000
50.4000 300.0000 1.0000
50.4100 286.0000 1.0000
50.4200 291.0000 1.0000
50.4300 284.0000 1.0000
50.4400 301.0000 1.0000
50.4500 275.0000 1.0000
50.4600 262.0000 1.0000
50.4700 267.0000 1.0000
50.4800 276.0000 1.0000
50.4900 271.0000 1.0000
50.5000 299.0000 1.0000
50.5100 294.0000 1.0000
50.5200 275.0000 1.0000
50.5300 266.0000 1.0000
50.5400 289.0000 1.0000
50.5500 281.0000 1.0000
50.5600 255.0000 1.0000
50.5700 278.0000 1.0000
50.5800 280.0000 1.0000
50.5900 284.0000 1.0000
50.6000 288.0000 1.0000
50.6100 291.0000 1.0000
50.6200 292.0000 1.0000
50.6300 285.0000 1.0000
50.6400 286.0000 1.0000
50.6500 286.0000 1.0000
50.6600 286.0000 1.0000
50.6700 321.0000 1.0000
50.6800 312.0000 1.0000
50.6900 282.0000 1.0000
50.7000 293.0000 1.0000
50.7100 291.0000 1.0000
50.7200 280.0000 1.0000
50.7300 292.0000 1.0000
50.7400 314.0000 1.0000
50.7500 284.0000 1.0000
50.7600 288.0000 1.0000
50.7700 287.0000 1.0000
50.7800 301.0000 1.0000
50.7900 284.0000 1.0000
50.8000 321.0000 1.0000
50.8100 290.0000 1.0000
50.8200 304.0000 1.0000
50.8300 301.0000 1.0000
50.8400 315.0000 1.0000
50.8500 307.0000 1.0000
50.8600 305.0000 1.0000
50.8700 284.0000 1.0000
50.8800 305.0000 1.0000
50.8900 326.0000 1.0000
50.9000 282.0000 1.0000
50.9100 295.0000 1.0000
50.9200 317.0000 1.0000
50.9300 325.0000 1.0000
50.9400 327.0000 1.0000
50.9500 328.0000 1.0000
50.9600 288.0000 1.0000
50.9700 316.0000 1.0000
50.9800 337.0000 1.0000
50.9900 346.0000 1.0000
51.0000 350.0000 1.0000
51.0100 315.0000 1.0000
51.0200 335.0000 1.0000
51.0300 343.0000 1.0000
51.0400 347.0000 1.0000
51.0500 302.0000 1.0000
51.0600 311.0000 1.0000
51.0700 325.0000 1.0000
51.0800 333.0000 1.0000
51.0900 325.0000 1.0000
51.1000 369.0000 1.0000
51.1100 356.0000 1.0000
51.1200 386.0000 1.0000
51.1300 368.0000 1.0000
51.1400 422.0000 1.0000
51.1500 386.0000 1.0000
51.1600 401.0000 1.0000
51.1700 397.0000 1.0000
51.1800 447.0000 1.0000
51.1900 418.0000 1.0000
51.2000 440.0000 1.0000
51.2100 468.0000 1.0000
51.2200 485.0000 1.0000
51.2300 496.0000 1.0000
51.2400 475.0000 1.0000
51.2500 522.0000 1.0000
51.2600 536.0000 1.0000
51.2700 625.0000 1.0000
51.2800 638.0000 1.0000
51.2900 654.0000 1.0000
51.3000 684.0000 1.0000
51.3100 757.0000 1.0000
51.3200 734.0000 1.0000
51.3300 836.0000 1.0000
51.3400 889.0000 1.0000
51.3500 920.0000 1.0000
51.3600 1037.0000 1.0000
51.3700 1137.0000 1.0000
51.3800 1215.0000 1.0000
51.3900 1265.0000 1.0000
51.4000 1433.0000 1.0000
51.4100 1517.0000 1.0000
51.4200 1593.0000 1.0000
51.4300 1690.0000 1.0000
51.4400 1844.0000 1.0000
51.4500 1902.0000 1.0000
51.4600 1971.0000 1.0000
51.4700 2019.0000 1.0000
51.4800 2094.0000 1.0000
51.4900 2050.0000 1.0000
51.5000 2003.0000 1.0000
51.5100 1923.0000 1.0000
51.5200 1865.0000 1.0000
51.5300 1844.0000 1.0000
51.5400 1819.0000 1.0000
51.5500 1712.0000 1.0000
51.5600 1636.0000 1.0000
51.5700 1560.0000 1.0000
51.5800 1556.0000 1.0000
51.5900 1540.0000 1.0000
51.6000 1536.0000 1.0000
51.6100 1529.0000 1.0000
51.6200 1436.0000 1.0000
51.6300 1405.0000 1.0000
51.6400 1262.0000 1.0000
51.6500 1222.0000 1.0000
51.6600 1141.0000 1.0000
51.6700 1058.0000 1.0000
51.6800 1049.0000 1.0000
51.6900 956.0000 1.0000
51.7000 851.0000 1.0000
51.7100 744.0000 1.0000
51.7200 722.0000 1.0000
51.7300 719.0000 1.0000
51.7400 667.0000 1.0000
51.7500 629.0000 1.0000
51.7600 612.0000 1.0000
51.7700 559.0000 1.0000
51.7800 526.0000 1.0000
51.7900 520.0000 1.0000
51.8000 511.0000 1.0000
51.8100 483.0000 1.0000
51.8200 482.0000 1.0000
51.8300 452.0000 1.0000
51.8400 464.0000 1.0000
51.8500 446.0000 1.0000
51.8600 434.0000 1.0000
51.8700 420.0000 1.0000
51.8800 423.0000 1.0000
51.8900 407.0000 1.0000
51.9000 388.0000 1.0000
51.9100 401.0000 1.0000
51.9200 384.0000 1.0000
51.9300 362.0000 1.0000
51.9400 357.0000 1.0000
51.9500 335.0000 1.0000
51.9600 338.0000 1.0000
51.9700 360.0000 1.0000
51.9800 354.0000 1.0000
51.9900 338.0000 1.0000
52.0000 332.0000 1.0000
52.0100 354.0000 1.0000
52.0200 345.0000 1.0000
52.0300 330.0000 1.0000
52.0400 335.0000 1.0000
52.0500 306.0000 1.0000
52.0600 335.0000 1.0000
52.0700 308.0000 1.0000
52.0800 312.0000 1.0000
52.0900 304.0000 1.0000
52.1000 310.0000 1.0000
52.1100 314.0000 1.0000
52.1200 286.0000 1.0000
52.1300 295.0000 1.0000
52.1400 271.0000 1.0000
52.1500 283.0000 1.0000
52.1600 332.0000 1.0000
52.1700 316.0000 1.0000
52.1800 318.0000 1.0000
52.1900 289.0000 1.0000
52.2000 313.0000 1.0000
52.2100 307.0000 1.0000
52.2200 325.0000 1.0000
52.2300 300.0000 1.0000
52.2400 277.0000 1.0000
52.2500 299.0000 1.0000
52.2600 343.0000 1.0000
52.2700 292.0000 1.0000
52.2800 307.0000 1.0000
52.2900 303.0000 1.0000
52.3000 300.0000 1.0000
52.3100 306.0000 1.0000
52.3200 285.0000 1.0000
52.3300 315.0000 1.0000
52.3400 296.0000 1.0000
52.3500 304.0000 1.0000
52.3600 282.0000 1.0000
52.3700 320.0000 1.0000
52.3800 311.0000 1.0000
52.3900 306.0000 1.0000
52.4000 291.0000 1.0000
52.4100 275.0000 1.0000
52.4200 305.0000 1.0000
52.4300 305.0000 1.0000
52.4400 274.0000 1.0000
52.4500 288.0000 1.0000
52.4600 322.0000 1.0000
52.4700 288.0000 1.0000
52.4800 285.0000 1.0000
52.4900 276.0000 1.0000
52.5000 277.0000 1.0000
52.5100 282.0000 1.0000
52.5200 265.0000 1.0000
52.5300 295.0000 1.0000
52.5400 283.0000 1.0000
52.5500 303.0000 1.0000
52.5600 288.0000 1.0000
52.5700 294.0000 1.0000
52.5800 269.0000 1.0000
52.5900 285.0000 1.0000
52.6000 299.0000 1.0000
52.6100 276.0000 1.0000
52.6200 285.0000 1.0000
52.6300 280.0000 1.0000
52.6400 319.0000 1.0000
52.6500 302.0000 1.0000
52.6600 279.0000 1.0000
52.6700 311.0000 1.0000
52.6800 284.0000 1.0000
52.6900 286.0000 1.0000
52.7000 273.0000 1.0000
52.7100 283.0000 1.0000
52.7200 293.0000 1.0000
52.7300 310.0000 1.0000
52.7400 309.0000 1.0000
52.7500 305.0000 1.0000
52.7600 274.0000 1.0000
52.7700 273.0000 1.0000
52.7800 267.0000 1.0000
52.7900 288.0000 1.0000
52.8000 271.0000 1.0000
52.8100 278.0000 1.0000
52.8200 269.0000 1.0000
52.8300 293.0000 1.0000
52.8400 286.0000 1.0000
52.8500 280.0000 1.0000
52.8600 280.0000 1.0000
52.8700 261.0000 1.0000
52.8800 295.0000 1.0000
52.8900 291.0000 1.0000
52.9000 280.0000 1.0000
52.9100 279.0000 1.0000
52.9200 293.0000 1.0000
52.9300 300.0000 1.0000
52.9400 305.0000 1.0000
52.9500 310.0000 1.0000
52.9600 304.0000 1.0000
52.9700 286.0000 1.0000
52.9800 280.0000 1.0000
52.9900 274.0000 1.0000
53.0000 283.0000 1.0000
53.0100 288.0000 1.0000
53.0200 278.0000 1.0000
53.0300 265.0000 1.0000
53.0400 270.0000 1.0000
53.0500 265.0000 1.0000
53.0600 281.0000 1.0000
53.0700 287.0000 1.0000
53.0800 273.0000 1.0000
53.0900 293.0000 1.0000
53.1000 269.0000 1.0000
53.1100 267.0000 1.0000
53.1200 289.0000 1.0000
53.1300 253.0000 1.0000
53.1400 261.0000 1.0000
53.1500 265.0000 1.0000
53.1600 263.0000 1.0000
53.1700 286.0000 1.0000
53.1800 286.0000 1.0000
53.1900 304.0000 1.0000
53.2000 283.0000 1.0000
53.2100 268.0000 1.0000
53.2200 279.0000 1.0000
53.2300 291.0000 1.0000
53.2400 313.0000 1.0000
53.2500 282.0000 1.0000
53.2600 278.0000 1.0000
53.2700 257.0000 1.0000
53.2800 279.0000 1.0000
53.2900 298.0000 1.0000
53.3000 280.0000 1.0000
53.3100 264.0000 1.0000
53.3200 273.0000 1.0000
53.3300 277.0000 1.0000
53.3400 268.0000 1.0000
53.3500 269.0000 1.0000
53.3600 258.0000 1.0000
53.3700 256.0000 1.0000
53.3800 298.0000 1.0000
53.3900 253.0000 1.0000
53.4000 281.0000 1.0000
53.4100 270.0000 1.0000
53.4200 283.0000 1.0000
53.4300 266.0000 1.0000
53.4400 270.0000 1.0000
53.4500 264.0000 1.0000
53.4600 266.0000 1.0000
53.4700 287.0000 1.0000
53.4800 256.0000 1.0000
53.4900 304.0000 1.0000
53.5000 293.0000 1.0000
53.5100 268.0000 1.0000
53.5200 277.0000 1.0000
53.5300 260.0000 1.0000
53.5400 275.0000 1.0000
53.5500 254.0000 1.0000
53.5600 272.0000 1.0000
53.5700 286.0000 1.0000
53.5800 251.0000 1.0000
53.5900 277.0000 1.0000
53.6000 279.0000 1.0000
53.6100 259.0000 1.0000
53.6200 292.0000 1.0000
53.6300 267.0000 1.0000
53.6400 270.0000 1.0000
53.6500 248.0000 1.0000
53.6600 271.0000 1.0000
53.6700 289.0000 1.0000
53.6800 260.0000 1.0000
53.6900 253.0000 1.0000
53.7000 282.0000 1.0000
53.7100 287.0000 1.0000
53.7200 286.0000 1.0000
53.7300 264.0000 1.0000
53.7400 279.0000 1.0000
53.7500 274.0000 1.0000
53.7600 269.0000 1.0000
53.7700 289.0000 1.0000
53.7800 294.0000 1.0000
53.7900 297.0000 1.0000
53.8000 302.0000 1.0000
53.8100 287.0000 1.0000
53.8200 281.0000 1.0000
53.8300 294.0000 1.0000
53.8400 275.0000 1.0000
53.8500 278.0000 1.0000
53.8600 271.0000 1.0000
53.8700 266.0000 1.0000
53.8800 283.0000 1.0000
53.8900 292.0000 1.0000
53.9000 291.0000 1.0000
53.9100 268.0000 1.0000
53.9200 285.0000 1.0000
53.9300 277.0000 1.0000
53.9400 322.0000 1.0000
53.9500 321.0000 1.0000
53.9600 311.0000 1.0000
53.9700 314.0000 1.0000
53.9800 286.0000 1.0000
53.9900 315.0000 1.0000
54.0000 293.0000 1.0000
54.0100 300.0000 1.0000
54.0200 268.0000 1.0000
54.0300 304.0000 1.0000
54.0400 308.0000 1.0000
54.0500 328.0000 1.0000
54.0600 312.0000 1.0000
54.0700 298.0000 1.0000
54.0800 296.0000 1.0000
54.0900 291.0000 1.0000
54.1000 288.0000 1.0000
54.1100 307.0000 1.0000
54.1200 281.0000 1.0000
54.1300 316.0000 1.0000
54.1400 292.0000 1.0000
54.1500 301.0000 1.0000
54.1600 301.0000 1.0000
54.1700 305.0000 1.0000
54.1800 311.0000 1.0000
54.1900 290.0000 1.0000
54.2000 302.0000 1.0000
54.2100 280.0000 1.0000
54.2200 298.0000 1.0000
54.2300 318.0000 1.0000
54.2400 302.0000 1.0000
54.2500 301.0000 1.0000
54.2600 332.0000 1.0000
54.2700 298.0000 1.0000
54.2800 291.0000 1.0000
54.2900 330.0000 1.0000
54.3000 350.0000 1.0000
54.3100 294.0000 1.0000
54.3200 317.0000 1.0000
54.3300 321.0000 1.0000
54.3400 327.0000 1.0000
54.3500 310.0000 1.0000
54.3600 334.0000 1.0000
54.3700 338.0000 1.0000
54.3800 338.0000 1.0000
54.3900 344.0000 1.0000
54.4000 371.0000 1.0000
54.4100 347.0000 1.0000
54.4200 373.0000 1.0000
54.4300 376.0000 1.0000
54.4400 393.0000 1.0000
54.4500 417.0000 1.0000
54.4600 390.0000 1.0000
54.4700 384.0000 1.0000
54.4800 397.0000 1.0000
54.4900 405.0000 1.0000
54.5000 405.0000 1.0000
54.5100 428.0000 1.0000
54.5200 417.0000 1.0000
54.5300 439.0000 1.0000
54.5400 421.0000 1.0000
54.5500 401.0000 1.0000
54.5600 377.0000 1.0000
54.5700 421.0000 1.0000
54.5800 406.0000 1.0000
54.5900 424.0000 1.0000
54.6000 400.0000 1.0000
54.6100 418.0000 1.0000
54.6200 361.0000 1.0000
54.6300 423.0000 1.0000
54.6400 388.0000 1.0000
54.6500 393.0000 1.0000
54.6600 359.0000 1.0000
54.6700 359.0000 1.0000
54.6800 382.0000 1.0000
54.6900 370.0000 1.0000
54.7000 377.0000 1.0000
54.7100 327.0000 1.0000
54.7200 335.0000 1.0000
54.7300 352.0000 1.0000
54.7400 345.0000 1.0000
54.7500 312.0000 1.0000
54.7600 286.0000 1.0000
54.7700 281.0000 1.0000
54.7800 329.0000 1.0000
54.7900 347.0000 1.0000
54.8000 332.0000 1.0000
54.8100 296.0000 1.0000
54.8200 296.0000 1.0000
54.8300 302.0000 1.0000
54.8400 303.0000 1.0000
54.8500 304.0000 1.0000
54.8600 292.0000 1.0000
54.8700 307.0000 1.0000
54.8800 289.0000 1.0000
54.8900 290.0000 1.0000
54.9000 280.0000 1.0000
54.9100 302.0000 1.0000
54.9200 318.0000 1.0000
54.9300 298.0000 1.0000
54.9400 316.0000 1.0000
54.9500 272.0000 1.0000
54.9600 284.0000 1.0000
54.9700 284.0000 1.0000
54.9800 285.0000 1.0000
54.9900 268.0000 1.0000
55.0000 249.0000 1.0000
55.0100 271.0000 1.0000
55.0200 269.0000 1.0000
55.0300 253.0000 1.0000
55.0400 258.0000 1.0000
55.0500 275.0000 1.0000
55.0600 289.0000 1.0000
55.0700 259.0000 1.0000
55.0800 276.0000 1.0000
55.0900 314.0000 1.0000
55.1000 265.0000 1.0000
55.1100 284.0000 1.0000
55.1200 299.0000 1.0000
55.1300 256.0000 1.0000
55.1400 269.0000 1.0000
55.1500 301.0000 1.0000
55.1600 307.0000 1.0000
55.1700 276.0000 1.0000
55.1800 263.0000 1.0000
55.1900 240.0000 1.0000
55.2000 277.0000 1.0000
55.2100 278.0000 1.0000
55.2200 269.0000 1.0000
55.2300 272.0000 1.0000
55.2400 278.0000 1.0000
55.2500 284.0000 1.0000
55.2600 284.0000 1.0000
55.2700 248.0000 1.0000
55.2800 262.0000 1.0000
55.2900 276.0000 1.0000
55.3000 298.0000 1.0000
55.3100 276.0000 1.0000
55.3200 240.0000 1.0000
55.3300 267.0000 1.0000
55.3400 287.0000 1.0000
55.3500 265.0000 1.0000
55.3600 261.0000 1.0000
55.3700 289.0000 1.0000
55.3800 257.0000 1.0000
55.3900 272.0000 1.0000
55.4000 272.0000 1.0000
55.4100 290.0000 1.0000
55.4200 249.0000 1.0000
55.4300 235.0000 1.0000
55.4400 240.0000 1.0000
55.4500 253.0000 1.0000
55.4600 284.0000 1.0000
55.4700 271.0000 1.0000
55.4800 262.0000 1.0000
55.4900 272.0000 1.0000
55.5000 263.0000 1.0000
55.5100 272.0000 1.0000
55.5200 290.0000 1.0000
55.5300 255.0000 1.0000
55.5400 263.0000 1.0000
55.5500 252.0000 1.0000
55.5600 265.0000 1.0000
55.5700 267.0000 1.0000
55.5800 283.0000 1.0000
55.5900 288.0000 1.0000
55.6000 279.0000 1.0000
55.6100 264.0000 1.0000
55.6200 268.0000 1.0000
55.6300 245.0000 1.0000
55.6400 288.0000 1.0000
55.6500 300.0000 1.0000
55.6600 270.0000 1.0000
55.6700 282.0000 1.0000
55.6800 259.0000 1.0000
55.6900 263.0000 1.0000
55.7000 243.0000 1.0000
55.7100 280.0000 1.0000
55.7200 269.0000 1.0000
55.7300 253.0000 1.0000
55.7400 257.0000 1.0000
55.7500 259.0000 1.0000
55.7600 261.0000 1.0000
55.7700 259.0000 1.0000
55.7800 269.0000 1.0000
55.7900 256.0000 1.0000
55.8000 279.0000 1.0000
55.8100 265.0000 1.0000
55.8200 258.0000 1.0000
55.8300 268.0000 1.0000
55.8400 259.0000 1.0000
55.8500 251.0000 1.0000
55.8600 253.0000 1.0000
55.8700 251.0000 1.0000
55.8800 259.0000 1.0000
55.8900 270.0000 1.0000
55.9000 253.0000 1.0000
55.9100 280.0000 1.0000
55.9200 266.0000 1.0000
55.9300 262.0000 1.0000
55.9400 262.0000 1.0000
55.9500 275.0000 1.0000
55.9600 251.0000 1.0000
55.9700 243.0000 1.0000
55.9800 258.0000 1.0000
55.9900 275.0000 1.0000
56.0000 278.0000 1.0000
56.0100 250.0000 1.0000
56.0200 260.0000 1.0000
56.0300 270.0000 1.0000
56.0400 268.0000 1.0000
56.0500 237.0000 1.0000
56.0600 252.0000 1.0000
56.0700 263.0000 1.0000
56.0800 250.0000 1.0000
56.0900 255.0000 1.0000
56.1000 262.0000 1.0000
56.1100 265.0000 1.0000
56.1200 278.0000 1.0000
56.1300 258.0000 1.0000
56.1400 277.0000 1.0000
56.1500 286.0000 1.0000
56.1600 266.0000 1.0000
56.1700 268.0000 1.0000
56.1800 260.0000 1.0000
56.1900 256.0000 1.0000
56.2000 249.0000 1.0000
56.2100 274.0000 1.0000
56.2200 283.0000 1.0000
56.2300 270.0000 1.0000
56.2400 278.0000 1.0000
56.2500 257.0000 1.0000
56.2600 269.0000 1.0000
56.2700 236.0000 1.0000
56.2800 268.0000 1.0000
56.2900 252.0000 1.0000
56.3000 271.0000 1.0000
56.3100 258.0000 1.0000
56.3200 236.0000 1.0000
56.3300 263.0000 1.0000
56.3400 254.0000 1.0000
56.3500 262.0000 1.0000
56.3600 274.0000 1.0000
56.3700 267.0000 1.0000
56.3800 274.0000 1.0000
56.3900 257.0000 1.0000
56.4000 267.0000 1.0000
56.4100 271.0000 1.0000
56.4200 256.0000 1.0000
56.4300 263.0000 1.0000
56.4400 265.0000 1.0000
56.4500 273.0000 1.0000
56.4600 250.0000 1.0000
56.4700 248.0000 1.0000
56.4800 290.0000 1.0000
56.4900 263.0000 1.0000
56.5000 269.0000 1.0000
56.5100 266.0000 1.0000
56.5200 260.0000 1.0000
56.5300 278.0000 1.0000
56.5400 275.0000 1.0000
56.5500 259.0000 1.0000
56.5600 256.0000 1.0000
56.5700 246.0000 1.0000
56.5800 264.0000 1.0000
56.5900 267.0000 1.0000
56.6000 251.0000 1.0000
56.6100 273.0000 1.0000
56.6200 277.0000 1.0000
56.6300 269.0000 1.0000
56.6400 270.0000 1.0000
56.6500 249.0000 1.0000
56.6600 266.0000 1.0000
56.6700 269.0000 1.0000
56.6800 248.0000 1.0000
56.6900 263.0000 1.0000
56.7000 236.0000 1.0000
56.7100 259.0000 1.0000
56.7200 262.0000 1.0000
56.7300 272.0000 1.0000
56.7400 256.0000 1.0000
56.7500 246.0000 1.0000
56.7600 272.0000 1.0000
56.7700 243.0000 1.0000
56.7800 243.0000 1.0000
56.7900 249.0000 1.0000
56.8000 280.0000 1.0000
56.8100 244.0000 1.0000
56.8200 269.0000 1.0000
56.8300 271.0000 1.0000
56.8400 262.0000 1.0000
56.8500 274.0000 1.0000
56.8600 264.0000 1.0000
56.8700 255.0000 1.0000
56.8800 247.0000 1.0000
56.8900 262.0000 1.0000
56.9000 240.0000 1.0000
56.9100 260.0000 1.0000
56.9200 260.0000 1.0000
56.9300 264.0000 1.0000
56.9400 255.0000 1.0000
56.9500 258.0000 1.0000
56.9600 250.0000 1.0000
56.9700 250.0000 1.0000
56.9800 258.0000 1.0000
56.9900 228.0000 1.0000
57.0000 267.0000 1.0000
57.0100 277.0000 1.0000
57.0200 266.0000 1.0000
57.0300 227.0000 1.0000
57.0400 245.0000 1.0000
57.0500 265.0000 1.0000
57.0600 239.0000 1.0000
57.0700 247.0000 1.0000
57.0800 263.0000 1.0000
57.0900 283.0000 1.0000
57.1000 274.0000 1.0000
57.1100 271.0000 1.0000
57.1200 266.0000 1.0000
57.1300 275.0000 1.0000
57.1400 274.0000 1.0000
57.1500 268.0000 1.0000
57.1600 254.0000 1.0000
57.1700 270.0000 1.0000
57.1800 245.0000 1.0000
57.1900 272.0000 1.0000
57.2000 275.0000 1.0000
57.2100 273.0000 1.0000
57.2200 260.0000 1.0000
57.2300 254.0000 1.0000
57.2400 263.0000 1.0000
57.2500 280.0000 1.0000
57.2600 280.0000 1.0000
57.2700 256.0000 1.0000
57.2800 275.0000 1.0000
57.2900 271.0000 1.0000
57.3000 254.0000 1.0000
57.3100 287.0000 1.0000
57.3200 266.0000 1.0000
57.3300 252.0000 1.0000
57.3400 266.0000 1.0000
57.3500 284.0000 1.0000
57.3600 307.0000 1.0000
57.3700 269.0000 1.0000
57.3800 271.0000 1.0000
57.3900 271.0000 1.0000
57.4000 281.0000 1.0000
57.4100 260.0000 1.0000
57.4200 251.0000 1.0000
57.4300 257.0000 1.0000
57.4400 278.0000 1.0000
57.4500 250.0000 1.0000
57.4600 284.0000 1.0000
57.4700 292.0000 1.0000
57.4800 275.0000 1.0000
57.4900 265.0000 1.0000
57.5000 279.0000 1.0000
57.5100 273.0000 1.0000
57.5200 268.0000 1.0000
57.5300 258.0000 1.0000
57.5400 289.0000 1.0000
57.5500 271.0000 1.0000
57.5600 295.0000 1.0000
57.5700 274.0000 1.0000
57.5800 262.0000 1.0000
57.5900 259.0000 1.0000
57.6000 255.0000 1.0000
57.6100 263.0000 1.0000
57.6200 248.0000 1.0000
57.6300 256.0000 1.0000
57.6400 278.0000 1.0000
57.6500 283.0000 1.0000
57.6600 234.0000 1.0000
57.6700 226.0000 1.0000
57.6800 244.0000 1.0000
57.6900 282.0000 1.0000
57.7000 240.0000 1.0000
57.7100 268.0000 1.0000
57.7200 271.0000 1.0000
57.7300 270.0000 1.0000
57.7400 283.0000 1.0000
57.7500 264.0000 1.0000
57.7600 238.0000 1.0000
57.7700 254.0000 1.0000
57.7800 264.0000 1.0000
57.7900 262.0000 1.0000
57.8000 263.0000 1.0000
57.8100 265.0000 1.0000
57.8200 257.0000 1.0000
57.8300 269.0000 1.0000
57.8400 291.0000 1.0000
57.8500 238.0000 1.0000
57.8600 272.0000 1.0000
57.8700 264.0000 1.0000
57.8800 267.0000 1.0000
57.8900 228.0000 1.0000
57.9000 241.0000 1.0000
57.9100 291.0000 1.0000
57.9200 256.0000 1.0000
57.9300 264.0000 1.0000
57.9400 252.0000 1.0000
57.9500 245.0000 1.0000
57.9600 266.0000 1.0000
57.9700 256.0000 1.0000
57.9800 253.0000 1.0000
57.9900 256.0000 1.0000
58.0000 268.0000 1.0000
58.0100 250.0000 1.0000
58.0200 235.0000 1.0000
58.0300 269.0000 1.0000
58.0400 262.0000 1.0000
58.0500 296.0000 1.0000
58.0600 277.0000 1.0000
58.0700 256.0000 1.0000
58.0800 237.0000 1.0000
58.0900 259.0000 1.0000
58.1000 256.0000 1.0000
58.1100 266.0000 1.0000
58.1200 261.0000 1.0000
58.1300 285.0000 1.0000
58.1400 269.0000 1.0000
58.1500 254.0000 1.0000
58.1600 246.0000 1.0000
58.1700 253.0000 1.0000
58.1800 262.0000 1.0000
58.1900 274.0000 1.0000
58.2000 270.0000 1.0000
58.2100 242.0000 1.0000
58.2200 271.0000 1.0000
58.2300 276.0000 1.0000
58.2400 257.0000 1.0000
58.2500 253.0000 1.0000
58.2600 275.0000 1.0000
58.2700 251.0000 1.0000
58.2800 267.0000 1.0000
58.2900 267.0000 1.0000
58.3000 246.0000 1.0000
58.3100 240.0000 1.0000
58.3200 263.0000 1.0000
58.3300 282.0000 1.0000
58.3400 252.0000 1.0000
58.3500 241.0000 1.0000
58.3600 228.0000 1.0000
58.3700 282.0000 1.0000
58.3800 264.0000 1.0000
58.3900 259.0000 1.0000
58.4000 248.0000 1.0000
58.4100 238.0000 1.0000
58.4200 249.0000 1.0000
58.4300 244.0000 1.0000
58.4400 281.0000 1.0000
58.4500 263.0000 1.0000
58.4600 249.0000 1.0000
58.4700 258.0000 1.0000
58.4800 254.0000 1.0000
58.4900 271.0000 1.0000
58.5000 264.0000 1.0000
58.5100 263.0000 1.0000
58.5200 260.0000 1.0000
58.5300 293.0000 1.0000
58.5400 271.0000 1.0000
58.5500 266.0000 1.0000
58.5600 238.0000 1.0000
58.5700 265.0000 1.0000
58.5800 279.0000 1.0000
58.5900 265.0000 1.0000
58.6000 276.0000 1.0000
58.6100 251.0000 1.0000
58.6200 280.0000 1.0000
58.6300 274.0000 1.0000
58.6400 275.0000 1.0000
58.6500 267.0000 1.0000
58.6600 251.0000 1.0000
58.6700 244.0000 1.0000
58.6800 273.0000 1.0000
58.6900 252.0000 1.0000
58.7000 256.0000 1.0000
58.7100 236.0000 1.0000
58.7200 266.0000 1.0000
58.7300 280.0000 1.0000
58.7400 270.0000 1.0000
58.7500 254.0000 1.0000
58.7600 264.0000 1.0000
58.7700 260.0000 1.0000
58.7800 245.0000 1.0000
58.7900 238.0000 1.0000
58.8000 260.0000 1.0000
58.8100 252.0000 1.0000
58.8200 263.0000 1.0000
58.8300 250.0000 1.0000
58.8400 268.0000 1.0000
58.8500 251.0000 1.0000
58.8600 252.0000 1.0000
58.8700 239.0000 1.0000
58.8800 266.0000 1.0000
58.8900 246.0000 1.0000
58.9000 280.0000 1.0000
58.9100 267.0000 1.0000
58.9200 292.0000 1.0000
58.9300 278.0000 1.0000
58.9400 260.0000 1.0000
58.9500 263.0000 1.0000
58.9600 287.0000 1.0000
58.9700 274.0000 1.0000
58.9800 255.0000 1.0000
58.9900 240.0000 1.0000
59.0000 266.0000 1.0000
59.0100 246.0000 1.0000
59.0200 246.0000 1.0000
59.0300 261.0000 1.0000
59.0400 270.0000 1.0000
59.0500 257.0000 1.0000
59.0600 255.0000 1.0000
59.0700 277.0000 1.0000
59.0800 248.0000 1.0000
59.0900 265.0000 1.0000
59.1000 265.0000 1.0000
59.1100 273.0000 1.0000
59.1200 270.0000 1.0000
59.1300 276.0000 1.0000
59.1400 241.0000 1.0000
59.1500 261.0000 1.0000
59.1600 238.0000 1.0000
59.1700 253.0000 1.0000
59.1800 245.0000 1.0000
59.1900 262.0000 1.0000
59.2000 247.0000 1.0000
59.2100 272.0000 1.0000
59.2200 253.0000 1.0000
59.2300 240.0000 1.0000
59.2400 247.0000 1.0000
59.2500 245.0000 1.0000
59.2600 250.0000 1.0000
59.2700 231.0000 1.0000
59.2800 274.0000 1.0000
59.2900 267.0000 1.0000
59.3000 281.0000 1.0000
59.3100 275.0000 1.0000
59.3200 274.0000 1.0000
59.3300 246.0000 1.0000
59.3400 222.0000 1.0000
59.3500 248.0000 1.0000
59.3600 259.0000 1.0000
59.3700 255.0000 1.0000
59.3800 263.0000 1.0000
59.3900 263.0000 1.0000
59.4000 263.0000 1.0000
59.4100 263.0000 1.0000
59.4200 273.0000 1.0000
59.4300 260.0000 1.0000
59.4400 254.0000 1.0000
59.4500 250.0000 1.0000
59.4600 264.0000 1.0000
59.4700 250.0000 1.0000
59.4800 268.0000 1.0000
59.4900 245.0000 1.0000
59.5000 256.0000 1.0000
59.5100 227.0000 1.0000
59.5200 259.0000 1.0000
59.5300 270.0000 1.0000
59.5400 239.0000 1.0000
59.5500 278.0000 1.0000
59.5600 265.0000 1.0000
59.5700 263.0000 1.0000
59.5800 267.0000 1.0000
59.5900 239.0000 1.0000
59.6000 256.0000 1.0000
59.6100 262.0000 1.0000
59.6200 257.0000 1.0000
59.6300 281.0000 1.0000
59.6400 227.0000 1.0000
59.6500 236.0000 1.0000
59.6600 260.0000 1.0000
59.6700 279.0000 1.0000
59.6800 281.0000 1.0000
59.6900 279.0000 1.0000
59.7000 252.0000 1.0000
59.7100 268.0000 1.0000
59.7200 275.0000 1.0000
59.7300 265.0000 1.0000
59.7400 284.0000 1.0000
59.7500 270.0000 1.0000
59.7600 247.0000 1.0000
59.7700 258.0000 1.0000
59.7800 262.0000 1.0000
59.7900 261.0000 1.0000
59.8000 247.0000 1.0000
59.8100 231.0000 1.0000
59.8200 258.0000 1.0000
59.8300 271.0000 1.0000
59.8400 252.0000 1.0000
59.8500 260.0000 1.0000
59.8600 258.0000 1.0000
59.8700 243.0000 1.0000
59.8800 230.0000 1.0000
59.8900 230.0000 1.0000
59.9000 249.0000 1.0000
59.9100 278.0000 1.0000
59.9200 246.0000 1.0000
59.9300 269.0000 1.0000
59.9400 262.0000 1.0000
59.9500 274.0000 1.0000
59.9600 278.0000 1.0000
59.9700 285.0000 1.0000
59.9800 274.0000 1.0000
59.9900 259.0000 1.0000
60.0000 243.0000 1.0000
60.0100 253.0000 1.0000
60.0200 274.0000 1.0000
60.0300 249.0000 1.0000
60.0400 251.0000 1.0000
60.0500 250.0000 1.0000
60.0600 277.0000 1.0000
60.0700 259.0000 1.0000
60.0800 257.0000 1.0000
60.0900 281.0000 1.0000
60.1000 280.0000 1.0000
60.1100 255.0000 1.0000
60.1200 244.0000 1.0000
60.1300 247.0000 1.0000
60.1400 246.0000 1.0000
60.1500 251.0000 1.0000
60.1600 259.0000 1.0000
60.1700 262.0000 1.0000
60.1800 260.0000 1.0000
60.1900 270.0000 1.0000
60.2000 240.0000 1.0000
60.2100 266.0000 1.0000
60.2200 263.0000 1.0000
60.2300 255.0000 1.0000
60.2400 281.0000 1.0000
60.2500 238.0000 1.0000
60.2600 269.0000 1.0000
60.2700 238.0000 1.0000
60.2800 251.0000 1.0000
60.2900 260.0000 1.0000
60.3000 268.0000 1.0000
60.3100 254.0000 1.0000
60.3200 273.0000 1.0000
60.3300 262.0000 1.0000
60.3400 274.0000 1.0000
60.3500 270.0000 1.0000
60.3600 265.0000 1.0000
60.3700 259.0000 1.0000
60.3800 273.0000 1.0000
60.3900 271.0000 1.0000
60.4000 250.0000 1.0000
60.4100 274.0000 1.0000
60.4200 265.0000 1.0000
60.4300 257.0000 1.0000
60.4400 264.0000 1.0000
60.4500 259.0000 1.0000
60.4600 255.0000 1.0000
60.4700 269.0000 1.0000
60.4800 272.0000 1.0000
60.4900 260.0000 1.0000
60.5000 253.0000 1.0000
60.5100 241.0000 1.0000
60.5200 237.0000 1.0000
60.5300 251.0000 1.0000
60.5400 263.0000 1.0000
60.5500 262.0000 1.0000
60.5600 273.0000 1.0000
60.5700 264.0000 1.0000
60.5800 261.0000 1.0000
60.5900 277.0000 1.0000
60.6000 263.0000 1.0000
60.6100 239.0000 1.0000
60.6200 263.0000 1.0000
60.6300 277.0000 1.0000
60.6400 262.0000 1.0000
60.6500 265.0000 1.0000
60.6600 253.0000 1.0000
60.6700 238.0000 1.0000
60.6800 253.0000 1.0000
60.6900 289.0000 1.0000
60.7000 278.0000 1.0000
60.7100 287.0000 1.0000
60.7200 269.0000 1.0000
60.7300 234.0000 1.0000
60.7400 273.0000 1.0000
60.7500 251.0000 1.0000
60.7600 248.0000 1.0000
60.7700 274.0000 1.0000
60.7800 254.0000 1.0000
60.7900 245.0000 1.0000
60.8000 239.0000 1.0000
60.8100 257.0000 1.0000
60.8200 255.0000 1.0000
60.8300 259.0000 1.0000
60.8400 266.0000 1.0000
60.8500 255.0000 1.0000
60.8600 263.0000 1.0000
60.8700 292.0000 1.0000
60.8800 258.0000 1.0000
60.8900 281.0000 1.0000
60.9000 277.0000 1.0000
60.9100 267.0000 1.0000
60.9200 302.0000 1.0000
60.9300 283.0000 1.0000
60.9400 282.0000 1.0000
60.9500 278.0000 1.0000
60.9600 282.0000 1.0000
60.9700 270.0000 1.0000
60.9800 289.0000 1.0000
60.9900 297.0000 1.0000
61.0000 277.0000 1.0000
61.0100 272.0000 1.0000
61.0200 256.0000 1.0000
61.0300 266.0000 1.0000
61.0400 278.0000 1.0000
61.0500 276.0000 1.0000
61.0600 288.0000 1.0000
61.0700 253.0000 1.0000
61.0800 272.0000 1.0000
61.0900 290.0000 1.0000
61.1000 274.0000 1.0000
61.1100 273.0000 1.0000
61.1200 297.0000 1.0000
61.1300 292.0000 1.0000
61.1400 294.0000 1.0000
61.1500 308.0000 1.0000
61.1600 311.0000 1.0000
61.1700 302.0000 1.0000
61.1800 309.0000 1.0000
61.1900 307.0000 1.0000
61.2000 323.0000 1.0000
61.2100 348.0000 1.0000
61.2200 318.0000 1.0000
61.2300 318.0000 1.0000
61.2400 301.0000 1.0000
61.2500 309.0000 1.0000
61.2600 342.0000 1.0000
61.2700 335.0000 1.0000
61.2800 340.0000 1.0000
61.2900 332.0000 1.0000
61.3000 353.0000 1.0000
61.3100 362.0000 1.0000
61.3200 352.0000 1.0000
61.3300 377.0000 1.0000
61.3400 401.0000 1.0000
61.3500 404.0000 1.0000
61.3600 413.0000 1.0000
61.3700 390.0000 1.0000
61.3800 407.0000 1.0000
61.3900 423.0000 1.0000
61.4000 431.0000 1.0000
61.4100 434.0000 1.0000
61.4200 470.0000 1.0000
61.4300 479.0000 1.0000
61.4400 501.0000 1.0000
61.4500 521.0000 1.0000
61.4600 533.0000 1.0000
61.4700 524.0000 1.0000
61.4800 540.0000 1.0000
61.4900 522.0000 1.0000
61.5000 541.0000 1.0000
61.5100 518.0000 1.0000
61.5200 523.0000 1.0000
61.5300 529.0000 1.0000
61.5400 559.0000 1.0000
61.5500 552.0000 1.0000
61.5600 517.0000 1.0000
61.5700 547.0000 1.0000
61.5800 525.0000 1.0000
61.5900 505.0000 1.0000
61.6000 566.0000 1.0000
61.6100 549.0000 1.0000
61.6200 547.0000 1.0000
61.6300 542.0000 1.0000
61.6400 510.0000 1.0000
61.6500 490.0000 1.0000
61.6600 498.0000 1.0000
61.6700 486.0000 1.0000
61.6800 490.0000 1.0000
61.6900 463.0000 1.0000
61.7000 476.0000 1.0000
61.7100 480.0000 1.0000
61.7200 458.0000 1.0000
61.7300 443.0000 1.0000
61.7400 433.0000 1.0000
61.7500 428.0000 1.0000
61.7600 407.0000 1.0000
61.7700 431.0000 1.0000
61.7800 393.0000 1.0000
61.7900 395.0000 1.0000
61.8000 417.0000 1.0000
61.8100 408.0000 1.0000
61.8200 387.0000 1.0000
61.8300 393.0000 1.0000
61.8400 368.0000 1.0000
61.8500 362.0000 1.0000
61.8600 334.0000 1.0000
61.8700 344.0000 1.0000
61.8800 322.0000 1.0000
61.8900 350.0000 1.0000
61.9000 325.0000 1.0000
61.9100 324.0000 1.0000
61.9200 313.0000 1.0000
61.9300 311.0000 1.0000
61.9400 292.0000 1.0000
61.9500 327.0000 1.0000
61.9600 319.0000 1.0000
61.9700 320.0000 1.0000
61.9800 308.0000 1.0000
61.9900 299.0000 1.0000
62.0000 305.0000 1.0000
62.0100 325.0000 1.0000
62.0200 300.0000 1.0000
62.0300 316.0000 1.0000
62.0400 287.0000 1.0000
62.0500 300.0000 1.0000
62.0600 290.0000 1.0000
62.0700 312.0000 1.0000
62.0800 276.0000 1.0000
62.0900 297.0000 1.0000
62.1000 293.0000 1.0000
62.1100 286.0000 1.0000
62.1200 253.0000 1.0000
62.1300 290.0000 1.0000
62.1400 266.0000 1.0000
62.1500 295.0000 1.0000
62.1600 266.0000 1.0000
62.1700 286.0000 1.0000
62.1800 322.0000 1.0000
62.1900 299.0000 1.0000
62.2000 273.0000 1.0000
62.2100 281.0000 1.0000
62.2200 300.0000 1.0000
62.2300 267.0000 1.0000
62.2400 271.0000 1.0000
62.2500 282.0000 1.0000
62.2600 301.0000 1.0000
62.2700 302.0000 1.0000
62.2800 302.0000 1.0000
62.2900 284.0000 1.0000
62.3000 288.0000 1.0000
62.3100 308.0000 1.0000
62.3200 276.0000 1.0000
62.3300 295.0000 1.0000
62.3400 294.0000 1.0000
62.3500 282.0000 1.0000
62.3600 269.0000 1.0000
62.3700 304.0000 1.0000
62.3800 295.0000 1.0000
62.3900 288.0000 1.0000
62.4000 298.0000 1.0000
62.4100 285.0000 1.0000
62.4200 302.0000 1.0000
62.4300 299.0000 1.0000
62.4400 304.0000 1.0000
62.4500 279.0000 1.0000
62.4600 302.0000 1.0000
62.4700 285.0000 1.0000
62.4800 275.0000 1.0000
62.4900 268.0000 1.0000
62.5000 278.0000 1.0000
62.5100 263.0000 1.0000
62.5200 283.0000 1.0000
62.5300 288.0000 1.0000
62.5400 266.0000 1.0000
62.5500 260.0000 1.0000
62.5600 274.0000 1.0000
62.5700 287.0000 1.0000
62.5800 269.0000 1.0000
62.5900 272.0000 1.0000
62.6000 290.0000 1.0000
62.6100 268.0000 1.0000
62.6200 264.0000 1.0000
62.6300 259.0000 1.0000
62.6400 261.0000 1.0000
62.6500 249.0000 1.0000
62.6600 252.0000 1.0000
62.6700 298.0000 1.0000
62.6800 267.0000 1.0000
62.6900 281.0000 1.0000
62.7000 265.0000 1.0000
62.7100 238.0000 1.0000
62.7200 262.0000 1.0000
62.7300 238.0000 1.0000
62.7400 271.0000 1.0000
62.7500 254.0000 1.0000
62.7600 256.0000 1.0000
62.7700 291.0000 1.0000
62.7800 277.0000 1.0000
62.7900 257.0000 1.0000
62.8000 249.0000 1.0000
62.8100 231.0000 1.0000
62.8200 266.0000 1.0000
62.8300 253.0000 1.0000
62.8400 258.0000 1.0000
62.8500 265.0000 1.0000
62.8600 258.0000 1.0000
62.8700 248.0000 1.0000
62.8800 242.0000 1.0000
62.8900 259.0000 1.0000
62.9000 266.0000 1.0000
62.9100 248.0000 1.0000
62.9200 289.0000 1.0000
62.9300 237.0000 1.0000
62.9400 235.0000 1.0000
62.9500 270.0000 1.0000
62.9600 270.0000 1.0000
62.9700 288.0000 1.0000
62.9800 294.0000 1.0000
62.9900 262.0000 1.0000
63.0000 237.0000 1.0000
63.0100 253.0000 1.0000
63.0200 227.0000 1.0000
63.0300 270.0000 1.0000
63.0400 258.0000 1.0000
63.0500 261.0000 1.0000
63.0600 251.0000 1.0000
63.0700 262.0000 1.0000
63.0800 268.0000 1.0000
63.0900 256.0000 1.0000
63.1000 247.0000 1.0000
63.1100 280.0000 1.0000
63.1200 262.0000 1.0000
63.1300 275.0000 1.0000
63.1400 265.0000 1.0000
63.1500 264.0000 1.0000
63.1600 255.0000 1.0000
63.1700 292.0000 1.0000
63.1800 247.0000 1.0000
63.1900 244.0000 1.0000
63.2000 264.0000 1.0000
63.2100 261.0000 1.0000
63.2200 233.0000 1.0000
63.2300 260.0000 1.0000
63.2400 287.0000 1.0000
63.2500 281.0000 1.0000
63.2600 258.0000 1.0000
63.2700 239.0000 1.0000
63.2800 259.0000 1.0000
63.2900 237.0000 1.0000
63.3000 244.0000 1.0000
63.3100 250.0000 1.0000
63.3200 259.0000 1.0000
63.3300 270.0000 1.0000
63.3400 276.0000 1.0000
63.3500 258.0000 1.0000
63.3600 265.0000 1.0000
63.3700 246.0000 1.0000
63.3800 255.0000 1.0000
63.3900 257.0000 1.0000
63.4000 279.0000 1.0000
63.4100 261.0000 1.0000
63.4200 241.0000 1.0000
63.4300 284.0000 1.0000
63.4400 267.0000 1.0000
63.4500 256.0000 1.0000
63.4600 257.0000 1.0000
63.4700 257.0000 1.0000
63.4800 253.0000 1.0000
63.4900 270.0000 1.0000
63.5000 263.0000 1.0000
63.5100 280.0000 1.0000
63.5200 280.0000 1.0000
63.5300 287.0000 1.0000
63.5400 269.0000 1.0000
63.5500 252.0000 1.0000
63.5600 275.0000 1.0000
63.5700 267.0000 1.0000
63.5800 256.0000 1.0000
63.5900 249.0000 1.0000
63.6000 267.0000 1.0000
63.6100 263.0000 1.0000
63.6200 274.0000 1.0000
63.6300 274.0000 1.0000
63.6400 299.0000 1.0000
63.6500 274.0000 1.0000
63.6600 285.0000 1.0000
63.6700 262.0000 1.0000
63.6800 281.0000 1.0000
63.6900 303.0000 1.0000
63.7000 279.0000 1.0000
63.7100 295.0000 1.0000
63.7200 288.0000 1.0000
63.7300 282.0000 1.0000
63.7400 290.0000 1.0000
63.7500 271.0000 1.0000
63.7600 293.0000 1.0000
63.7700 280.0000 1.0000
63.7800 294.0000 1.0000
63.7900 305.0000 1.0000
63.8000 314.0000 1.0000
63.8100 318.0000 1.0000
63.8200 301.0000 1.0000
63.8300 321.0000 1.0000
63.8400 332.0000 1.0000
63.8500 320.0000 1.0000
63.8600 330.0000 1.0000
63.8700 338.0000 1.0000
63.8800 345.0000 1.0000
63.8900 350.0000 1.0000
63.9000 361.0000 1.0000
63.9100 344.0000 1.0000
63.9200 342.0000 1.0000
63.9300 366.0000 1.0000
63.9400 369.0000 1.0000
63.9500 371.0000 1.0000
63.9600 357.0000 1.0000
63.9700 350.0000 1.0000
63.9800 367.0000 1.0000
63.9900 356.0000 1.0000
64.0000 367.0000 1.0000
64.0100 351.0000 1.0000
64.0200 348.0000 1.0000
64.0300 348.0000 1.0000
64.0400 334.0000 1.0000
64.0500 350.0000 1.0000
64.0600 374.0000 1.0000
64.0700 343.0000 1.0000
64.0800 309.0000 1.0000
64.0900 334.0000 1.0000
64.1000 332.0000 1.0000
64.1100 316.0000 1.0000
64.1200 345.0000 1.0000
64.1300 338.0000 1.0000
64.1400 345.0000 1.0000
64.1500 304.0000 1.0000
64.1600 327.0000 1.0000
64.1700 295.0000 1.0000
64.1800 296.0000 1.0000
64.1900 328.0000 1.0000
64.2000 338.0000 1.0000
64.2100 295.0000 1.0000
64.2200 286.0000 1.0000
64.2300 276.0000 1.0000
64.2400 300.0000 1.0000
64.2500 272.0000 1.0000
64.2600 287.0000 1.0000
64.2700 278.0000 1.0000
64.2800 264.0000 1.0000
64.2900 262.0000 1.0000
64.3000 267.0000 1.0000
64.3100 269.0000 1.0000
64.3200 292.0000 1.0000
64.3300 291.0000 1.0000
64.3400 302.0000 1.0000
64.3500 289.0000 1.0000
64.3600 266.0000 1.0000
64.3700 264.0000 1.0000
64.3800 278.0000 1.0000
64.3900 281.0000 1.0000
64.4000 275.0000 1.0000
64.4100 281.0000 1.0000
64.4200 274.0000 1.0000
64.4300 261.0000 1.0000
64.4400 285.0000 1.0000
64.4500 273.0000 1.0000
64.4600 263.0000 1.0000
64.4700 257.0000 1.0000
64.4800 279.0000 1.0000
64.4900 305.0000 1.0000
64.5000 268.0000 1.0000
64.5100 264.0000 1.0000
64.5200 290.0000 1.0000
64.5300 262.0000 1.0000
64.5400 282.0000 1.0000
64.5500 284.0000 1.0000
64.5600 292.0000 1.0000
64.5700 285.0000 1.0000
64.5800 282.0000 1.0000
64.5900 283.0000 1.0000
64.6000 266.0000 1.0000
64.6100 252.0000 1.0000
64.6200 280.0000 1.0000
64.6300 288.0000 1.0000
64.6400 284.0000 1.0000
64.6500 250.0000 1.0000
64.6600 259.0000 1.0000
64.6700 275.0000 1.0000
64.6800 263.0000 1.0000
64.6900 283.0000 1.0000
64.7000 254.0000 1.0000
64.7100 288.0000 1.0000
64.7200 271.0000 1.0000
64.7300 257.0000 1.0000
64.7400 248.0000 1.0000
64.7500 265.0000 1.0000
64.7600 270.0000 1.0000
64.7700 265.0000 1.0000
64.7800 258.0000 1.0000
64.7900 266.0000 1.0000
64.8000 268.0000 1.0000
64.8100 271.0000 1.0000
64.8200 273.0000 1.0000
64.8300 271.0000 1.0000
64.8400 247.0000 1.0000
64.8500 287.0000 1.0000
64.8600 281.0000 1.0000
64.8700 276.0000 1.0000
64.8800 285.0000 1.0000
64.8900 266.0000 1.0000
64.9000 260.0000 1.0000
64.9100 255.0000 1.0000
64.9200 229.0000 1.0000
64.9300 282.0000 1.0000
64.9400 298.0000 1.0000
64.9500 278.0000 1.0000
64.9600 295.0000 1.0000
64.9700 264.0000 1.0000
64.9800 290.0000 1.0000
64.9900 286.0000 1.0000
65.0000 281.0000 1.0000
65.0100 286.0000 1.0000
65.0200 294.0000 1.0000
65.0300 277.0000 1.0000
65.0400 293.0000 1.0000
65.0500 309.0000 1.0000
65.0600 270.0000 1.0000
65.0700 294.0000 1.0000
65.0800 269.0000 1.0000
65.0900 296.0000 1.0000
65.1000 304.0000 1.0000
65.1100 290.0000 1.0000
65.1200 307.0000 1.0000
65.1300 295.0000 1.0000
65.1400 299.0000 1.0000
65.1500 324.0000 1.0000
65.1600 340.0000 1.0000
65.1700 322.0000 1.0000
65.1800 344.0000 1.0000
65.1900 341.0000 1.0000
65.2000 336.0000 1.0000
65.2100 331.0000 1.0000
65.2200 332.0000 1.0000
65.2300 381.0000 1.0000
65.2400 355.0000 1.0000
65.2500 415.0000 1.0000
65.2600 397.0000 1.0000
65.2700 407.0000 1.0000
65.2800 416.0000 1.0000
65.2900 430.0000 1.0000
65.3000 433.0000 1.0000
65.3100 444.0000 1.0000
65.3200 464.0000 1.0000
65.3300 478.0000 1.0000
65.3400 502.0000 1.0000
65.3500 504.0000 1.0000
65.3600 583.0000 1.0000
65.3700 584.0000 1.0000
65.3800 630.0000 1.0000
65.3900 634.0000 1.0000
65.4000 642.0000 1.0000
65.4100 675.0000 1.0000
65.4200 740.0000 1.0000
65.4300 721.0000 1.0000
65.4400 781.0000 1.0000
65.4500 758.0000 1.0000
65.4600 843.0000 1.0000
65.4700 917.0000 1.0000
65.4800 879.0000 1.0000
65.4900 941.0000 1.0000
65.5000 1021.0000 1.0000
65.5100 1010.0000 1.0000
65.5200 1018.0000 1.0000
65.5300 979.0000 1.0000
65.5400 994.0000 1.0000
65.5500 960.0000 1.0000
65.5600 999.0000 1.0000
65.5700 994.0000 1.0000
65.5800 983.0000 1.0000
65.5900 933.0000 1.0000
65.6000 890.0000 1.0000
65.6100 937.0000 1.0000
65.6200 905.0000 1.0000
65.6300 874.0000 1.0000
65.6400 863.0000 1.0000
65.6500 827.0000 1.0000
65.6600 851.0000 1.0000
65.6700 849.0000 1.0000
65.6800 854.0000 1.0000
65.6900 822.0000 1.0000
65.7000 785.0000 1.0000
65.7100 722.0000 1.0000
65.7200 776.0000 1.0000
65.7300 721.0000 1.0000
65.7400 723.0000 1.0000
65.7500 707.0000 1.0000
65.7600 676.0000 1.0000
65.7700 633.0000 1.0000
65.7800 593.0000 1.0000
65.7900 613.0000 1.0000
65.8000 612.0000 1.0000
65.8100 537.0000 1.0000
65.8200 528.0000 1.0000
65.8300 451.0000 1.0000
65.8400 464.0000 1.0000
65.8500 456.0000 1.0000
65.8600 463.0000 1.0000
65.8700 438.0000 1.0000
65.8800 411.0000 1.0000
65.8900 407.0000 1.0000
65.9000 387.0000 1.0000
65.9100 357.0000 1.0000
65.9200 365.0000 1.0000
65.9300 375.0000 1.0000
65.9400 346.0000 1.0000
65.9500 379.0000 1.0000
65.9600 364.0000 1.0000
65.9700 343.0000 1.0000
65.9800 344.0000 1.0000
65.9900 325.0000 1.0000
66.0000 309.0000 1.0000
66.0100 316.0000 1.0000
66.0200 331.0000 1.0000
66.0300 308.0000 1.0000
66.0400 306.0000 1.0000
66.0500 312.0000 1.0000
66.0600 305.0000 1.0000
66.0700 271.0000 1.0000
66.0800 327.0000 1.0000
66.0900 262.0000 1.0000
66.1000 261.0000 1.0000
66.1100 264.0000 1.0000
66.1200 260.0000 1.0000
66.1300 271.0000 1.0000
66.1400 293.0000 1.0000
66.1500 288.0000 1.0000
66.1600 273.0000 1.0000
66.1700 270.0000 1.0000
66.1800 268.0000 1.0000
66.1900 288.0000 1.0000
66.2000 273.0000 1.0000
66.2100 272.0000 1.0000
66.2200 275.0000 1.0000
66.2300 259.0000 1.0000
66.2400 275.0000 1.0000
66.2500 278.0000 1.0000
66.2600 245.0000 1.0000
66.2700 255.0000 1.0000
66.2800 243.0000 1.0000
66.2900 273.0000 1.0000
66.3000 272.0000 1.0000
66.3100 266.0000 1.0000
66.3200 240.0000 1.0000
66.3300 265.0000 1.0000
66.3400 242.0000 1.0000
66.3500 244.0000 1.0000
66.3600 225.0000 1.0000
66.3700 256.0000 1.0000
66.3800 265.0000 1.0000
66.3900 266.0000 1.0000
66.4000 233.0000 1.0000
66.4100 255.0000 1.0000
66.4200 260.0000 1.0000
66.4300 257.0000 1.0000
66.4400 231.0000 1.0000
66.4500 248.0000 1.0000
66.4600 250.0000 1.0000
66.4700 235.0000 1.0000
66.4800 241.0000 1.0000
66.4900 250.0000 1.0000
66.5000 221.0000 1.0000
66.5100 251.0000 1.0000
66.5200 235.0000 1.0000
66.5300 256.0000 1.0000
66.5400 244.0000 1.0000
66.5500 225.0000 1.0000
66.5600 238.0000 1.0000
66.5700 265.0000 1.0000
66.5800 236.0000 1.0000
66.5900 260.0000 1.0000
66.6000 246.0000 1.0000
66.6100 241.0000 1.0000
66.6200 220.0000 1.0000
66.6300 251.0000 1.0000
66.6400 252.0000 1.0000
66.6500 228.0000 1.0000
66.6600 247.0000 1.0000
66.6700 249.0000 1.0000
66.6800 240.0000 1.0000
66.6900 251.0000 1.0000
66.7000 228.0000 1.0000
66.7100 226.0000 1.0000
66.7200 238.0000 1.0000
66.7300 235.0000 1.0000
66.7400 254.0000 1.0000
66.7500 253.0000 1.0000
66.7600 251.0000 1.0000
66.7700 258.0000 1.0000
66.7800 237.0000 1.0000
66.7900 259.0000 1.0000
66.8000 236.0000 1.0000
66.8100 212.0000 1.0000
66.8200 258.0000 1.0000
66.8300 269.0000 1.0000
66.8400 282.0000 1.0000
66.8500 240.0000 1.0000
66.8600 236.0000 1.0000
66.8700 225.0000 1.0000
66.8800 227.0000 1.0000
66.8900 233.0000 1.0000
66.9000 226.0000 1.0000
66.9100 242.0000 1.0000
66.9200 231.0000 1.0000
66.9300 253.0000 1.0000
66.9400 260.0000 1.0000
66.9500 232.0000 1.0000
66.9600 254.0000 1.0000
66.9700 235.0000 1.0000
66.9800 251.0000 1.0000
66.9900 233.0000 1.0000
67.0000 246.0000 1.0000
67.0100 236.0000 1.0000
67.0200 241.0000 1.0000
67.0300 257.0000 1.0000
67.0400 244.0000 1.0000
67.0500 265.0000 1.0000
67.0600 238.0000 1.0000
67.0700 238.0000 1.0000
67.0800 241.0000 1.0000
67.0900 245.0000 1.0000
67.1000 251.0000 1.0000
67.1100 236.0000 1.0000
67.1200 237.0000 1.0000
67.1300 232.0000 1.0000
67.1400 244.0000 1.0000
67.1500 244.0000 1.0000
67.1600 230.0000 1.0000
67.1700 261.0000 1.0000
67.1800 247.0000 1.0000
67.1900 222.0000 1.0000
67.2000 229.0000 1.0000
67.2100 228.0000 1.0000
67.2200 243.0000 1.0000
67.2300 251.0000 1.0000
67.2400 207.0000 1.0000
67.2500 233.0000 1.0000
67.2600 240.0000 1.0000
67.2700 228.0000 1.0000
67.2800 208.0000 1.0000
67.2900 231.0000 1.0000
67.3000 258.0000 1.0000
67.3100 241.0000 1.0000
67.3200 219.0000 1.0000
67.3300 245.0000 1.0000
67.3400 229.0000 1.0000
67.3500 251.0000 1.0000
67.3600 254.0000 1.0000
67.3700 233.0000 1.0000
67.3800 228.0000 1.0000
67.3900 240.0000 1.0000
67.4000 253.0000 1.0000
67.4100 240.0000 1.0000
67.4200 224.0000 1.0000
67.4300 244.0000 1.0000
67.4400 240.0000 1.0000
67.4500 237.0000 1.0000
67.4600 231.0000 1.0000
67.4700 266.0000 1.0000
67.4800 241.0000 1.0000
67.4900 248.0000 1.0000
67.5000 260.0000 1.0000
67.5100 251.0000 1.0000
67.5200 207.0000 1.0000
67.5300 234.0000 1.0000
67.5400 247.0000 1.0000
67.5500 227.0000 1.0000
67.5600 232.0000 1.0000
67.5700 224.0000 1.0000
67.5800 247.0000 1.0000
67.5900 234.0000 1.0000
67.6000 231.0000 1.0000
67.6100 205.0000 1.0000
67.6200 227.0000 1.0000
67.6300 216.0000 1.0000
67.6400 242.0000 1.0000
67.6500 257.0000 1.0000
67.6600 237.0000 1.0000
67.6700 215.0000 1.0000
67.6800 244.0000 1.0000
67.6900 235.0000 1.0000
67.7000 213.0000 1.0000
67.7100 222.0000 1.0000
67.7200 233.0000 1.0000
67.7300 241.0000 1.0000
67.7400 228.0000 1.0000
67.7500 228.0000 1.0000
67.7600 238.0000 1.0000
67.7700 256.0000 1.0000
67.7800 222.0000 1.0000
67.7900 239.0000 1.0000
67.8000 247.0000 1.0000
67.8100 223.0000 1.0000
67.8200 217.0000 1.0000
67.8300 236.0000 1.0000
67.8400 242.0000 1.0000
67.8500 244.0000 1.0000
67.8600 236.0000 1.0000
67.8700 230.0000 1.0000
67.8800 200.0000 1.0000
67.8900 218.0000 1.0000
67.9000 239.0000 1.0000
67.9100 230.0000 1.0000
67.9200 218.0000 1.0000
67.9300 237.0000 1.0000
67.9400 260.0000 1.0000
67.9500 236.0000 1.0000
67.9600 249.0000 1.0000
67.9700 226.0000 1.0000
67.9800 224.0000 1.0000
67.9900 262.0000 1.0000
68.0000 216.0000 1.0000
68.0100 238.0000 1.0000
68.0200 242.0000 1.0000
68.0300 255.0000 1.0000
68.0400 250.0000 1.0000
68.0500 256.0000 1.0000
68.0600 255.0000 1.0000
68.0700 224.0000 1.0000
68.0800 250.0000 1.0000
68.0900 222.0000 1.0000
68.1000 235.0000 1.0000
68.1100 270.0000 1.0000
68.1200 219.0000 1.0000
68.1300 239.0000 1.0000
68.1400 259.0000 1.0000
68.1500 251.0000 1.0000
68.1600 250.0000 1.0000
68.1700 261.0000 1.0000
68.1800 241.0000 1.0000
68.1900 245.0000 1.0000
68.2000 222.0000 1.0000
68.2100 219.0000 1.0000
68.2200 225.0000 1.0000
68.2300 244.0000 1.0000
68.2400 249.0000 1.0000
68.2500 219.0000 1.0000
68.2600 244.0000 1.0000
68.2700 239.0000 1.0000
68.2800 220.0000 1.0000
68.2900 225.0000 1.0000
68.3000 211.0000 1.0000
68.3100 208.0000 1.0000
68.3200 222.0000 1.0000
68.3300 218.0000 1.0000
68.3400 223.0000 1.0000
68.3500 223.0000 1.0000
68.3600 221.0000 1.0000
68.3700 198.0000 1.0000
68.3800 243.0000 1.0000
68.3900 209.0000 1.0000
68.4000 238.0000 1.0000
68.4100 241.0000 1.0000
68.4200 222.0000 1.0000
68.4300 216.0000 1.0000
68.4400 227.0000 1.0000
68.4500 221.0000 1.0000
68.4600 206.0000 1.0000
68.4700 232.0000 1.0000
68.4800 225.0000 1.0000
68.4900 216.0000 1.0000
68.5000 244.0000 1.0000
68.5100 249.0000 1.0000
68.5200 239.0000 1.0000
68.5300 239.0000 1.0000
68.5400 230.0000 1.0000
68.5500 222.0000 1.0000
68.5600 227.0000 1.0000
68.5700 244.0000 1.0000
68.5800 216.0000 1.0000
68.5900 225.0000 1.0000
68.6000 230.0000 1.0000
68.6100 216.0000 1.0000
68.6200 214.0000 1.0000
68.6300 238.0000 1.0000
68.6400 231.0000 1.0000
68.6500 221.0000 1.0000
68.6600 209.0000 1.0000
68.6700 212.0000 1.0000
68.6800 233.0000 1.0000
68.6900 256.0000 1.0000
68.7000 236.0000 1.0000
68.7100 218.0000 1.0000
68.7200 222.0000 1.0000
68.7300 255.0000 1.0000
68.7400 253.0000 1.0000
68.7500 243.0000 1.0000
68.7600 234.0000 1.0000
68.7700 244.0000 1.0000
68.7800 236.0000 1.0000
68.7900 250.0000 1.0000
68.8000 224.0000 1.0000
68.8100 242.0000 1.0000
68.8200 210.0000 1.0000
68.8300 233.0000 1.0000
68.8400 231.0000 1.0000
68.8500 244.0000 1.0000
68.8600 237.0000 1.0000
68.8700 254.0000 1.0000
68.8800 236.0000 1.0000
68.8900 222.0000 1.0000
68.9000 251.0000 1.0000
68.9100 244.0000 1.0000
68.9200 249.0000 1.0000
68.9300 229.0000 1.0000
68.9400 241.0000 1.0000
68.9500 206.0000 1.0000
68.9600 239.0000 1.0000
68.9700 232.0000 1.0000
68.9800 227.0000 1.0000
68.9900 248.0000 1.0000
69.0000 245.0000 1.0000
69.0100 244.0000 1.0000
69.0200 234.0000 1.0000
69.0300 219.0000 1.0000
69.0400 219.0000 1.0000
69.0500 235.0000 1.0000
69.0600 228.0000 1.0000
69.0700 238.0000 1.0000
69.0800 245.0000 1.0000
69.0900 250.0000 1.0000
69.1000 233.0000 1.0000
69.1100 229.0000 1.0000
69.1200 213.0000 1.0000
69.1300 212.0000 1.0000
69.1400 243.0000 1.0000
69.1500 218.0000 1.0000
69.1600 223.0000 1.0000
69.1700 211.0000 1.0000
69.1800 219.0000 1.0000
69.1900 239.0000 1.0000
69.2000 224.0000 1.0000
69.2100 231.0000 1.0000
69.2200 211.0000 1.0000
69.2300 239.0000 1.0000
69.2400 221.0000 1.0000
69.2500 231.0000 1.0000
69.2600 249.0000 1.0000
69.2700 233.0000 1.0000
69.2800 221.0000 1.0000
69.2900 242.0000 1.0000
69.3000 229.0000 1.0000
69.3100 226.0000 1.0000
69.3200 225.0000 1.0000
69.3300 206.0000 1.0000
69.3400 206.0000 1.0000
69.3500 203.0000 1.0000
69.3600 213.0000 1.0000
69.3700 236.0000 1.0000
69.3800 217.0000 1.0000
69.3900 231.0000 1.0000
69.4000 230.0000 1.0000
69.4100 230.0000 1.0000
69.4200 224.0000 1.0000
69.4300 211.0000 1.0000
69.4400 218.0000 1.0000
69.4500 214.0000 1.0000
69.4600 233.0000 1.0000
69.4700 245.0000 1.0000
69.4800 231.0000 1.0000
69.4900 230.0000 1.0000
69.5000 215.0000 1.0000
69.5100 223.0000 1.0000
69.5200 235.0000 1.0000
69.5300 215.0000 1.0000
69.5400 221.0000 1.0000
69.5500 222.0000 1.0000
69.5600 214.0000 1.0000
69.5700 222.0000 1.0000
69.5800 218.0000 1.0000
69.5900 231.0000 1.0000
69.6000 224.0000 1.0000
69.6100 194.0000 1.0000
69.6200 213.0000 1.0000
69.6300 226.0000 1.0000
69.6400 224.0000 1.0000
69.6500 228.0000 1.0000
69.6600 233.0000 1.0000
69.6700 215.0000 1.0000
69.6800 227.0000 1.0000
69.6900 234.0000 1.0000
69.7000 241.0000 1.0000
69.7100 214.0000 1.0000
69.7200 229.0000 1.0000
69.7300 207.0000 1.0000
69.7400 250.0000 1.0000
69.7500 256.0000 1.0000
69.7600 242.0000 1.0000
69.7700 208.0000 1.0000
69.7800 224.0000 1.0000
69.7900 221.0000 1.0000
69.8000 219.0000 1.0000
69.8100 236.0000 1.0000
69.8200 236.0000 1.0000
69.8300 228.0000 1.0000
69.8400 215.0000 1.0000
69.8500 226.0000 1.0000
69.8600 211.0000 1.0000
69.8700 203.0000 1.0000
69.8800 225.0000 1.0000
69.8900 211.0000 1.0000
69.9000 241.0000 1.0000
69.9100 203.0000 1.0000
69.9200 208.0000 1.0000
69.9300 205.0000 1.0000
69.9400 238.0000 1.0000
69.9500 244.0000 1.0000
69.9600 198.0000 1.0000
69.9700 206.0000 1.0000
69.9800 204.0000 1.0000
69.9900 220.0000 1.0000
70.0000 214.0000 1.0000
*RAS_INT_END
*RAS_TEMPERATURE_START
*RAS_TEMPERATURE_END
*RAS_DATA_END
