*RAS_DATA_START
*RAS_HEADER_START
*DISP_FMT_X "%.2f"
*DISP_FMT_Y "%.0f"
*DISP_FULLSCALE "16892.0000000000"
*DISP_LINE_COLOR "255.0000000000"
*DISP_LINE_STYLE "0.0000000000"
*DISP_LINE_WIDTH "0.2500000000"
*DISP_NOTE "測定データ-4"
*DISP_OFFSET_Y "0.0000000000"
*DISP_PEAKSEARCH_UNIT_Y "cps"
*DISP_RANGE_BOTTOM "0.0000000000"
*DISP_RANGE_LEFT "20.0000000000"
*DISP_RANGE_LOGCUTOFF "0.0100000000"
*DISP_RANGE_RIGHT "70.0000000000"
*DISP_RANGE_TOP "16892.0000000000"
*DISP_SCALE_MODE_Y "0.0000000000"
*DISP_TAB_NAME "2θ/θ"
*DISP_TITLE_Y "強度"
*DISP_UNIT_Y "cps"
*DISP_WINDOW_NAME "MSG_MACROENGINE"
*FILE_COMMENT " "
*FILE_MD5 ""
*FILE_MEMO " "
*FILE_OPERATOR "Administrator"
*FILE_SAMPLE " "
*FILE_TYPE "RAS_RAW"
*FILE_USERGROUP "システムマネージャ"
*FILE_VERSION "1.0000000000"
*HW_ATTACHMENT_ID "ATT0025"
*HW_ATTACHMENT_NAME "標準|Standard"
*HW_COUNTER_ID-0 "CUT0025"
*HW_COUNTER_ID-1 "CUT0020"
*HW_COUNTER_ID-2 "CUT0020"
*HW_COUNTER_ID-3 "CSL0021"
*HW_COUNTER_ID-4 "CMC0021"
*HW_COUNTER_NAME-0 "D/teX Ultra|D/teX Ultra"
*HW_COUNTER_NAME-1 "None|None"
*HW_COUNTER_NAME-2 "None|None"
*HW_COUNTER_NAME-3 "BBM|BBM"
*HW_COUNTER_NAME-4 "検出器モノクロメータ|Detector monochromator"
*HW_COUNTER_SELECT_NAME "D/teX Ultra|D/teX Ultra"
*HW_GONIOMETER_ID "GON0023"
*HW_GONIOMETER_NAME "SmartLab|SmartLab"
*HW_GONIOMETER_RADIUS-0 "90.0"
*HW_GONIOMETER_RADIUS-1 "114.0"
*HW_GONIOMETER_RADIUS-2 "190.0"
*HW_GONIOMETER_RADIUS-3 "300.0"
*HW_GONIOMETER_RADIUS-4 "187.0"
*HW_GONIOMETER_RADIUS-5 "300.0"
*HW_GONIOMETER_RADIUS-6 "113.0"
*HW_GONIOMETER_RADIUS-7 "331.0"
*HW_I_OPT_ID-0 "CBO0021"
*HW_I_OPT_ID-1 "ICR0023"
*HW_I_OPT_ID-2 "ISL0021"
*HW_I_OPT_ID-3 "ISO0021"
*HW_I_OPT_ID-4 "IAD0021"
*HW_I_OPT_ID-5 "IPR0001"
*HW_I_OPT_NAME-0 "CBOユニット|CBO unit"
*HW_I_OPT_NAME-1 "標準入射光学ユニット|Standard incident optical unit"
*HW_I_OPT_NAME-2 "標準入射スリットボックス|Standard incident slit box"
*HW_I_OPT_NAME-3 "入射平行スリット|Incident parallel slit"
*HW_I_OPT_NAME-4 "長手制限スリット|Length limiting slit"
*HW_I_OPT_NAME-5 "None|None"
*HW_R_ATTENUATER_AUTOMODE "0"
*HW_R_OPT_ID-0 "RSS0021"
*HW_R_OPT_ID-1 "RCR0023"
*HW_R_OPT_ID-2 "RSO0021"
*HW_R_OPT_ID-3 "RRS0021"
*HW_R_OPT_ID-4 "ATN0021"
*HW_R_OPT_ID-5 "RFL0021"
*HW_R_OPT_ID-6 "RAD0021"
*HW_R_OPT_NAME-0 "標準受光スリットボックス1|Standard receiving slit box # 1"
*HW_R_OPT_NAME-1 "標準受光光学ユニット1|Standard receiving unit # 1"
*HW_R_OPT_NAME-2 "標準受光光学ユニット2|Standard receiving optical unit # 2"
*HW_R_OPT_NAME-3 "標準受光スリットボックス2|Standard receiving slit box # 2"
*HW_R_OPT_NAME-4 "標準アッテネータ|Standard Attenuator"
*HW_R_OPT_NAME-5 "Cu Kβ|Cu K-beta"
*HW_R_OPT_NAME-6 "調整用受光スリット|Alignment receiving slit"
*HW_SAMPLE_HOLDER_ID "SMP0023"
*HW_SAMPLE_HOLDER_NAME "標準Zステージ|Standard Z stage"
*HW_XG_CURRENT_MAX "50"
*HW_XG_CURRENT_MIN "2"
*HW_XG_CURRENT_RESOLUTION "1"
*HW_XG_CURRENT_UNIT "mA"
*HW_XG_FOCUS "1mm x 10mm"
*HW_XG_FOCUS_TYPE "Normal"
*HW_XG_ID ""
*HW_XG_NAME "3kW 封入管(ID:1200)|3kW Sealed tube(ID:1200)"
*HW_XG_TARGET_ATOMIC_NUMBER "29.0000000000"
*HW_XG_TARGET_NAME "Cu"
*HW_XG_TYPE "Hermetic"
*HW_XG_VOLTAGE_MAX "60"
*HW_XG_VOLTAGE_MIN "20"
*HW_XG_VOLTAGE_RESOLUTION "1"
*HW_XG_VOLTAGE_UNIT "kV"
*HW_XG_WATT_MAX "1.500"
*HW_XG_WATT_UNIT "kW"
*HW_XG_WAVE_LENGTH_ALPHA1 "1.540593"
*HW_XG_WAVE_LENGTH_ALPHA2 "1.544414"
*HW_XG_WAVE_LENGTH_BETA "1.392250"
*MEAS_COND_AXIS_NAME-0 "2θ/θ"
*MEAS_COND_AXIS_NAME-1 "2θ"
*MEAS_COND_AXIS_NAME-2 "ω"
*MEAS_COND_AXIS_NAME-3 "Z"
*MEAS_COND_AXIS_NAME-4 "2θ/ω"
*MEAS_COND_AXIS_NAME-5 "θs"
*MEAS_COND_AXIS_NAME-6 "θd"
*MEAS_COND_AXIS_NAME-7 "Ts"
*MEAS_COND_AXIS_NAME-8 "CBO選択スリット"
*MEAS_COND_AXIS_NAME-9 "M"
*MEAS_COND_AXIS_NAME-10 "入射平行スリット"
*MEAS_COND_AXIS_NAME-11 "入射スリット"
*MEAS_COND_AXIS_NAME-12 ""
*MEAS_COND_AXIS_NAME-13 "Zs"
*MEAS_COND_AXIS_NAME-14 "入射光学素子"
*MEAS_COND_AXIS_NAME-15 "長手制限スリット"
*MEAS_COND_AXIS_NAME-16 "センタースリット"
*MEAS_COND_AXIS_NAME-17 "フィルター"
*MEAS_COND_AXIS_NAME-18 "受光スリット1"
*MEAS_COND_AXIS_NAME-19 "受光スリット2"
*MEAS_COND_AXIS_NAME-20 "受光光学素子"
*MEAS_COND_AXIS_NAME-21 "受光平行スリット"
*MEAS_COND_AXIS_NAME-22 "調整用受光スリット"
*MEAS_COND_AXIS_NAME-23 ""
*MEAS_COND_AXIS_NAME-24 ""
*MEAS_COND_AXIS_NAME-25 "Zd"
*MEAS_COND_AXIS_NAME-26 "アッテネータ"
*MEAS_COND_AXIS_NAME-27 "検出器モノクロメータ"
*MEAS_COND_AXIS_NAME-28 "モノクロメータスリット"
*MEAS_COND_AXIS_NAME-29 "プライマリビーム"
*MEAS_COND_AXIS_NAME-30 "PHA"
*MEAS_COND_AXIS_NAME_INTERNAL-0 "TwoThetaTheta"
*MEAS_COND_AXIS_NAME_INTERNAL-1 "TwoTheta"
*MEAS_COND_AXIS_NAME_INTERNAL-2 "Omega"
*MEAS_COND_AXIS_NAME_INTERNAL-3 "Z"
*MEAS_COND_AXIS_NAME_INTERNAL-4 "TwoThetaOmega"
*MEAS_COND_AXIS_NAME_INTERNAL-5 "ThetaS"
*MEAS_COND_AXIS_NAME_INTERNAL-6 "ThetaD"
*MEAS_COND_AXIS_NAME_INTERNAL-7 "Ts"
*MEAS_COND_AXIS_NAME_INTERNAL-8 "CBO"
*MEAS_COND_AXIS_NAME_INTERNAL-9 "CBO-M"
*MEAS_COND_AXIS_NAME_INTERNAL-10 "IncidentSollerSlit"
*MEAS_COND_AXIS_NAME_INTERNAL-11 "IncidentSlitBox"
*MEAS_COND_AXIS_NAME_INTERNAL-12 "IncidentSlitBox-_Axis"
*MEAS_COND_AXIS_NAME_INTERNAL-13 "Zs"
*MEAS_COND_AXIS_NAME_INTERNAL-14 "IncidentMonochromator"
*MEAS_COND_AXIS_NAME_INTERNAL-15 "IncidentAxdSlit"
*MEAS_COND_AXIS_NAME_INTERNAL-16 "CenterSlit"
*MEAS_COND_AXIS_NAME_INTERNAL-17 "Filter"
*MEAS_COND_AXIS_NAME_INTERNAL-18 "ReceivingSlitBox1"
*MEAS_COND_AXIS_NAME_INTERNAL-19 "ReceivingSlitBox2"
*MEAS_COND_AXIS_NAME_INTERNAL-20 "ReceivingOptics"
*MEAS_COND_AXIS_NAME_INTERNAL-21 "ReceivingSollerSlit"
*MEAS_COND_AXIS_NAME_INTERNAL-22 "ReceivingAxdSlit"
*MEAS_COND_AXIS_NAME_INTERNAL-23 "ReceivingSlitBox1-_Axis"
*MEAS_COND_AXIS_NAME_INTERNAL-24 "ReceivingSlitBox2-_Axis"
*MEAS_COND_AXIS_NAME_INTERNAL-25 "ReceivingSlitBox2-Zd"
*MEAS_COND_AXIS_NAME_INTERNAL-26 "Attenuator"
*MEAS_COND_AXIS_NAME_INTERNAL-27 "CounterMonochromator"
*MEAS_COND_AXIS_NAME_INTERNAL-28 "CounterSlit"
*MEAS_COND_AXIS_NAME_INTERNAL-29 "IncidentPrimary"
*MEAS_COND_AXIS_NAME_INTERNAL-30 "PHA"
*MEAS_COND_AXIS_NAME_MAGICNO-0 "83951616.0000000000"
*MEAS_COND_AXIS_NAME_MAGICNO-1 "268632064.0000000000"
*MEAS_COND_AXIS_NAME_MAGICNO-2 "268500992.0000000000"
*MEAS_COND_AXIS_NAME_MAGICNO-3 "285278208.0000000000"
*MEAS_COND_AXIS_NAME_MAGICNO-4 "83951616.0000000000"
*MEAS_COND_AXIS_NAME_MAGICNO-5 "131072.0000000000"
*MEAS_COND_AXIS_NAME_MAGICNO-6 "131072.0000000000"
*MEAS_COND_AXIS_NAME_MAGICNO-7 "318898176.0000000000"
*MEAS_COND_AXIS_NAME_MAGICNO-8 "20971521.0000000000"
*MEAS_COND_AXIS_NAME_MAGICNO-9 "285343744.0000000000"
*MEAS_COND_AXIS_NAME_MAGICNO-10 "20971521.0000000000"
*MEAS_COND_AXIS_NAME_MAGICNO-11 "22020097.0000000000"
*MEAS_COND_AXIS_NAME_MAGICNO-12 "25165824.0000000000"
*MEAS_COND_AXIS_NAME_MAGICNO-13 "318898176.0000000000"
*MEAS_COND_AXIS_NAME_MAGICNO-14 "1.0000000000"
*MEAS_COND_AXIS_NAME_MAGICNO-15 "20971521.0000000000"
*MEAS_COND_AXIS_NAME_MAGICNO-16 "20971521.0000000000"
*MEAS_COND_AXIS_NAME_MAGICNO-17 "20971521.0000000000"
*MEAS_COND_AXIS_NAME_MAGICNO-18 "23068673.0000000000"
*MEAS_COND_AXIS_NAME_MAGICNO-19 "23068673.0000000000"
*MEAS_COND_AXIS_NAME_MAGICNO-20 "20971521.0000000000"
*MEAS_COND_AXIS_NAME_MAGICNO-21 "20971521.0000000000"
*MEAS_COND_AXIS_NAME_MAGICNO-22 "20971521.0000000000"
*MEAS_COND_AXIS_NAME_MAGICNO-23 "25165824.0000000000"
*MEAS_COND_AXIS_NAME_MAGICNO-24 "25165824.0000000000"
*MEAS_COND_AXIS_NAME_MAGICNO-25 "285343744.0000000000"
*MEAS_COND_AXIS_NAME_MAGICNO-26 "17301505.0000000000"
*MEAS_COND_AXIS_NAME_MAGICNO-27 "20971521.0000000000"
*MEAS_COND_AXIS_NAME_MAGICNO-28 "20971521.0000000000"
*MEAS_COND_AXIS_NAME_MAGICNO-29 "20971521.0000000000"
*MEAS_COND_AXIS_NAME_MAGICNO-30 "0.0000000000"
*MEAS_COND_AXIS_OFFSET-0 "-"
*MEAS_COND_AXIS_OFFSET-1 "-0.1081000000"
*MEAS_COND_AXIS_OFFSET-2 "0.3758000000"
*MEAS_COND_AXIS_OFFSET-3 "-"
*MEAS_COND_AXIS_OFFSET-4 "-"
*MEAS_COND_AXIS_OFFSET-5 "0.3758000000"
*MEAS_COND_AXIS_OFFSET-6 "-0.4839000000"
*MEAS_COND_AXIS_OFFSET-7 "-"
*MEAS_COND_AXIS_OFFSET-8 "-"
*MEAS_COND_AXIS_OFFSET-9 "-"
*MEAS_COND_AXIS_OFFSET-10 "-"
*MEAS_COND_AXIS_OFFSET-11 "-"
*MEAS_COND_AXIS_OFFSET-12 "-"
*MEAS_COND_AXIS_OFFSET-13 "-"
*MEAS_COND_AXIS_OFFSET-14 "-"
*MEAS_COND_AXIS_OFFSET-15 "-"
*MEAS_COND_AXIS_OFFSET-16 "-"
*MEAS_COND_AXIS_OFFSET-17 "-"
*MEAS_COND_AXIS_OFFSET-18 "-"
*MEAS_COND_AXIS_OFFSET-19 "-"
*MEAS_COND_AXIS_OFFSET-20 "-"
*MEAS_COND_AXIS_OFFSET-21 "-"
*MEAS_COND_AXIS_OFFSET-22 "-"
*MEAS_COND_AXIS_OFFSET-23 "-"
*MEAS_COND_AXIS_OFFSET-24 "-"
*MEAS_COND_AXIS_OFFSET-25 "-"
*MEAS_COND_AXIS_OFFSET-26 "-"
*MEAS_COND_AXIS_OFFSET-27 "-"
*MEAS_COND_AXIS_OFFSET-28 "-"
*MEAS_COND_AXIS_OFFSET-29 "-"
*MEAS_COND_AXIS_OFFSET-30 "-"
*MEAS_COND_AXIS_POSITION-0 "0.0000000000"
*MEAS_COND_AXIS_POSITION-1 "0.0000000000"
*MEAS_COND_AXIS_POSITION-2 "0.0000000000"
*MEAS_COND_AXIS_POSITION-3 "-0.5500000000"
*MEAS_COND_AXIS_POSITION-4 "0.0000000000"
*MEAS_COND_AXIS_POSITION-5 "0.0000000000"
*MEAS_COND_AXIS_POSITION-6 "0.0000000000"
*MEAS_COND_AXIS_POSITION-7 "-0.4278800000"
*MEAS_COND_AXIS_POSITION-8 "BB"
*MEAS_COND_AXIS_POSITION-9 "0.0000000000"
*MEAS_COND_AXIS_POSITION-10 "Soller_slit_5.0deg"
*MEAS_COND_AXIS_POSITION-11 "2/3deg"
*MEAS_COND_AXIS_POSITION-12 "2.2088000000"
*MEAS_COND_AXIS_POSITION-13 "-0.4140600000"
*MEAS_COND_AXIS_POSITION-14 "0.0000000000"
*MEAS_COND_AXIS_POSITION-15 "10.0mm"
*MEAS_COND_AXIS_POSITION-16 "None"
*MEAS_COND_AXIS_POSITION-17 "Cu_K-beta"
*MEAS_COND_AXIS_POSITION-18 "13.000mm"
*MEAS_COND_AXIS_POSITION-19 "13.000mm"
*MEAS_COND_AXIS_POSITION-20 "No_unit"
*MEAS_COND_AXIS_POSITION-21 "Soller_slit_5.0deg"
*MEAS_COND_AXIS_POSITION-22 "None"
*MEAS_COND_AXIS_POSITION-23 "13.0000000000"
*MEAS_COND_AXIS_POSITION-24 "13.0000000000"
*MEAS_COND_AXIS_POSITION-25 "0.0109400000"
*MEAS_COND_AXIS_POSITION-26 "Open"
*MEAS_COND_AXIS_POSITION-27 "None"
*MEAS_COND_AXIS_POSITION-28 "None"
*MEAS_COND_AXIS_POSITION-29 "None"
*MEAS_COND_AXIS_POSITION-30 "38.0000000000"
*MEAS_COND_AXIS_UNIT-0 "deg"
*MEAS_COND_AXIS_UNIT-1 "deg"
*MEAS_COND_AXIS_UNIT-2 "deg"
*MEAS_COND_AXIS_UNIT-3 "mm"
*MEAS_COND_AXIS_UNIT-4 "deg"
*MEAS_COND_AXIS_UNIT-5 "deg"
*MEAS_COND_AXIS_UNIT-6 "deg"
*MEAS_COND_AXIS_UNIT-7 "mm"
*MEAS_COND_AXIS_UNIT-8 ""
*MEAS_COND_AXIS_UNIT-9 "pulse"
*MEAS_COND_AXIS_UNIT-10 ""
*MEAS_COND_AXIS_UNIT-11 ""
*MEAS_COND_AXIS_UNIT-12 "mm"
*MEAS_COND_AXIS_UNIT-13 "mm"
*MEAS_COND_AXIS_UNIT-14 ""
*MEAS_COND_AXIS_UNIT-15 ""
*MEAS_COND_AXIS_UNIT-16 ""
*MEAS_COND_AXIS_UNIT-17 ""
*MEAS_COND_AXIS_UNIT-18 ""
*MEAS_COND_AXIS_UNIT-19 ""
*MEAS_COND_AXIS_UNIT-20 ""
*MEAS_COND_AXIS_UNIT-21 ""
*MEAS_COND_AXIS_UNIT-22 ""
*MEAS_COND_AXIS_UNIT-23 "mm"
*MEAS_COND_AXIS_UNIT-24 "mm"
*MEAS_COND_AXIS_UNIT-25 "mm"
*MEAS_COND_AXIS_UNIT-26 ""
*MEAS_COND_AXIS_UNIT-27 ""
*MEAS_COND_AXIS_UNIT-28 ""
*MEAS_COND_AXIS_UNIT-29 ""
*MEAS_COND_AXIS_UNIT-30 "div"
*MEAS_COND_COUNTER_CNTLOSS_CORR "0.0000000000"
*MEAS_COND_COUNTER_PHABASE "38.0000000000"
*MEAS_COND_COUNTER_PHAWINDOW "16.0000000000"
*MEAS_COND_COUNTER_PHA_UNIT "div"
*MEAS_COND_COUNTER_TAUDIFF "30.0000000000"
*MEAS_COND_COUNTER_TAUINT "0.0000000000"
*MEAS_COND_IRRADIATION_MODE "OFF"
*MEAS_COND_IRRADIATION_WIDTH ""
*MEAS_COND_OPT_ATTR "集中法"
*MEAS_COND_OPT_NAME "@集中法"
*MEAS_COND_UNSYMMETRIC_MODE "OFF"
*MEAS_COND_XG_CURRENT "30.0000000000"
*MEAS_COND_XG_VOLTAGE "40.0000000000"
*MEAS_COND_XG_WAVE_TYPE "Ka"
*MEAS_DATA_COUNT "5001.0000000000"
*MEAS_SCAN_AXIS_X "2θ/θ"
*MEAS_SCAN_AXIS_X_INTERNAL "TwoThetaTheta"
*MEAS_SCAN_END_TIME "07/20/21 14:03:53"
*MEAS_SCAN_MODE "CONTINUOUS"
*MEAS_SCAN_MONITOR "0"
*MEAS_SCAN_RESOLUTION_X "0.0002"
*MEAS_SCAN_SPEED "1.0"
*MEAS_SCAN_SPEED_UNIT "deg/min"
*MEAS_SCAN_START "20.0000000000"
*MEAS_SCAN_START_TIME "07/20/21 13:11:00"
*MEAS_SCAN_STEP "0.0100000000"
*MEAS_SCAN_STOP "70.0000000000"
*MEAS_SCAN_UNIT_X "deg"
*MEAS_SCAN_UNIT_Y "counts"
*RAS_HEADER_END
*RAS_INT_START
20.0000 1713.0000 1.0000
20.0100 1632.0000 1.0000
20.0200 1659.0000 1.0000
20.0300 1668.0000 1.0000
20.0400 1659.0000 1.0000
20.0500 1609.0000 1.0000
20.0600 1693.0000 1.0000
20.0700 1725.0000 1.0000
20.0800 1693.0000 1.0000
20.0900 1671.0000 1.0000
20.1000 1665.0000 1.0000
20.1100 1650.0000 1.0000
20.1200 1700.0000 1.0000
20.1300 1628.0000 1.0000
20.1400 1646.0000 1.0000
20.1500 1731.0000 1.0000
20.1600 1637.0000 1.0000
20.1700 1657.0000 1.0000
20.1800 1696.0000 1.0000
20.1900 1713.0000 1.0000
20.2000 1668.0000 1.0000
20.2100 1676.0000 1.0000
20.2200 1646.0000 1.0000
20.2300 1662.0000 1.0000
20.2400 1749.0000 1.0000
20.2500 1741.0000 1.0000
20.2600 1634.0000 1.0000
20.2700 1671.0000 1.0000
20.2800 1673.0000 1.0000
20.2900 1719.0000 1.0000
20.3000 1737.0000 1.0000
20.3100 1694.0000 1.0000
20.3200 1676.0000 1.0000
20.3300 1651.0000 1.0000
20.3400 1616.0000 1.0000
20.3500 1620.0000 1.0000
20.3600 1601.0000 1.0000
20.3700 1680.0000 1.0000
20.3800 1651.0000 1.0000
20.3900 1613.0000 1.0000
20.4000 1595.0000 1.0000
20.4100 1716.0000 1.0000
20.4200 1712.0000 1.0000
20.4300 1610.0000 1.0000
20.4400 1672.0000 1.0000
20.4500 1637.0000 1.0000
20.4600 1693.0000 1.0000
20.4700 1621.0000 1.0000
20.4800 1681.0000 1.0000
20.4900 1653.0000 1.0000
20.5000 1569.0000 1.0000
20.5100 1675.0000 1.0000
20.5200 1645.0000 1.0000
20.5300 1602.0000 1.0000
20.5400 1654.0000 1.0000
20.5500 1705.0000 1.0000
20.5600 1747.0000 1.0000
20.5700 1664.0000 1.0000
20.5800 1672.0000 1.0000
20.5900 1654.0000 1.0000
20.6000 1592.0000 1.0000
20.6100 1682.0000 1.0000
20.6200 1648.0000 1.0000
20.6300 1695.0000 1.0000
20.6400 1678.0000 1.0000
20.6500 1637.0000 1.0000
20.6600 1650.0000 1.0000
20.6700 1668.0000 1.0000
20.6800 1634.0000 1.0000
20.6900 1646.0000 1.0000
20.7000 1678.0000 1.0000
20.7100 1679.0000 1.0000
20.7200 1697.0000 1.0000
20.7300 1677.0000 1.0000
20.7400 1664.0000 1.0000
20.7500 1637.0000 1.0000
20.7600 1650.0000 1.0000
20.7700 1707.0000 1.0000
20.7800 1694.0000 1.0000
20.7900 1581.0000 1.0000
20.8000 1696.0000 1.0000
20.8100 1649.0000 1.0000
20.8200 1693.0000 1.0000
20.8300 1682.0000 1.0000
20.8400 1678.0000 1.0000
20.8500 1693.0000 1.0000
20.8600 1750.0000 1.0000
20.8700 1598.0000 1.0000
20.8800 1653.0000 1.0000
20.8900 1662.0000 1.0000
20.9000 1675.0000 1.0000
20.9100 1668.0000 1.0000
20.9200 1705.0000 1.0000
20.9300 1731.0000 1.0000
20.9400 1700.0000 1.0000
20.9500 1635.0000 1.0000
20.9600 1663.0000 1.0000
20.9700 1709.0000 1.0000
20.9800 1736.0000 1.0000
20.9900 1683.0000 1.0000
21.0000 1667.0000 1.0000
21.0100 1756.0000 1.0000
21.0200 1693.0000 1.0000
21.0300 1676.0000 1.0000
21.0400 1637.0000 1.0000
21.0500 1759.0000 1.0000
21.0600 1728.0000 1.0000
21.0700 1700.0000 1.0000
21.0800 1728.0000 1.0000
21.0900 1675.0000 1.0000
21.1000 1683.0000 1.0000
21.1100 1763.0000 1.0000
21.1200 1665.0000 1.0000
21.1300 1684.0000 1.0000
21.1400 1680.0000 1.0000
21.1500 1576.0000 1.0000
21.1600 1650.0000 1.0000
21.1700 1688.0000 1.0000
21.1800 1695.0000 1.0000
21.1900 1701.0000 1.0000
21.2000 1677.0000 1.0000
21.2100 1704.0000 1.0000
21.2200 1733.0000 1.0000
21.2300 1647.0000 1.0000
21.2400 1673.0000 1.0000
21.2500 1706.0000 1.0000
21.2600 1740.0000 1.0000
21.2700 1598.0000 1.0000
21.2800 1624.0000 1.0000
21.2900 1632.0000 1.0000
21.3000 1647.0000 1.0000
21.3100 1751.0000 1.0000
21.3200 1684.0000 1.0000
21.3300 1695.0000 1.0000
21.3400 1664.0000 1.0000
21.3500 1688.0000 1.0000
21.3600 1700.0000 1.0000
21.3700 1666.0000 1.0000
21.3800 1732.0000 1.0000
21.3900 1644.0000 1.0000
21.4000 1709.0000 1.0000
21.4100 1671.0000 1.0000
21.4200 1698.0000 1.0000
21.4300 1670.0000 1.0000
21.4400 1710.0000 1.0000
21.4500 1753.0000 1.0000
21.4600 1683.0000 1.0000
21.4700 1679.0000 1.0000
21.4800 1711.0000 1.0000
21.4900 1701.0000 1.0000
21.5000 1676.0000 1.0000
21.5100 1666.0000 1.0000
21.5200 1645.0000 1.0000
21.5300 1615.0000 1.0000
21.5400 1665.0000 1.0000
21.5500 1717.0000 1.0000
21.5600 1691.0000 1.0000
21.5700 1671.0000 1.0000
21.5800 1720.0000 1.0000
21.5900 1677.0000 1.0000
21.6000 1698.0000 1.0000
21.6100 1703.0000 1.0000
21.6200 1737.0000 1.0000
21.6300 1717.0000 1.0000
21.6400 1683.0000 1.0000
21.6500 1669.0000 1.0000
21.6600 1690.0000 1.0000
21.6700 1689.0000 1.0000
21.6800 1659.0000 1.0000
21.6900 1746.0000 1.0000
21.7000 1721.0000 1.0000
21.7100 1726.0000 1.0000
21.7200 1762.0000 1.0000
21.7300 1759.0000 1.0000
21.7400 1660.0000 1.0000
21.7500 1763.0000 1.0000
21.7600 1721.0000 1.0000
21.7700 1696.0000 1.0000
21.7800 1700.0000 1.0000
21.7900 1711.0000 1.0000
21.8000 1670.0000 1.0000
21.8100 1678.0000 1.0000
21.8200 1694.0000 1.0000
21.8300 1692.0000 1.0000
21.8400 1724.0000 1.0000
21.8500 1724.0000 1.0000
21.8600 1692.0000 1.0000
21.8700 1742.0000 1.0000
21.8800 1688.0000 1.0000
21.8900 1730.0000 1.0000
21.9000 1693.0000 1.0000
21.9100 1715.0000 1.0000
21.9200 1653.0000 1.0000
21.9300 1737.0000 1.0000
21.9400 1596.0000 1.0000
21.9500 1757.0000 1.0000
21.9600 1678.0000 1.0000
21.9700 1748.0000 1.0000
21.9800 1676.0000 1.0000
21.9900 1649.0000 1.0000
22.0000 1683.0000 1.0000
22.0100 1735.0000 1.0000
22.0200 1759.0000 1.0000
22.0300 1676.0000 1.0000
22.0400 1723.0000 1.0000
22.0500 1724.0000 1.0000
22.0600 1828.0000 1.0000
22.0700 1707.0000 1.0000
22.0800 1715.0000 1.0000
22.0900 1730.0000 1.0000
22.1000 1766.0000 1.0000
22.1100 1713.0000 1.0000
22.1200 1655.0000 1.0000
22.1300 1705.0000 1.0000
22.1400 1723.0000 1.0000
22.1500 1737.0000 1.0000
22.1600 1677.0000 1.0000
22.1700 1708.0000 1.0000
22.1800 1675.0000 1.0000
22.1900 1697.0000 1.0000
22.2000 1714.0000 1.0000
22.2100 1732.0000 1.0000
22.2200 1729.0000 1.0000
22.2300 1703.0000 1.0000
22.2400 1691.0000 1.0000
22.2500 1722.0000 1.0000
22.2600 1726.0000 1.0000
22.2700 1703.0000 1.0000
22.2800 1725.0000 1.0000
22.2900 1597.0000 1.0000
22.3000 1675.0000 1.0000
22.3100 1752.0000 1.0000
22.3200 1770.0000 1.0000
22.3300 1699.0000 1.0000
22.3400 1687.0000 1.0000
22.3500 1675.0000 1.0000
22.3600 1628.0000 1.0000
22.3700 1732.0000 1.0000
22.3800 1682.0000 1.0000
22.3900 1756.0000 1.0000
22.4000 1741.0000 1.0000
22.4100 1747.0000 1.0000
22.4200 1656.0000 1.0000
22.4300 1680.0000 1.0000
22.4400 1676.0000 1.0000
22.4500 1712.0000 1.0000
22.4600 1727.0000 1.0000
22.4700 1737.0000 1.0000
22.4800 1660.0000 1.0000
22.4900 1742.0000 1.0000
22.5000 1742.0000 1.0000
22.5100 1745.0000 1.0000
22.5200 1714.0000 1.0000
22.5300 1756.0000 1.0000
22.5400 1712.0000 1.0000
22.5500 1710.0000 1.0000
22.5600 1722.0000 1.0000
22.5700 1684.0000 1.0000
22.5800 1708.0000 1.0000
22.5900 1690.0000 1.0000
22.6000 1735.0000 1.0000
22.6100 1743.0000 1.0000
22.6200 1701.0000 1.0000
22.6300 1755.0000 1.0000
22.6400 1755.0000 1.0000
22.6500 1726.0000 1.0000
22.6600 1721.0000 1.0000
22.6700 1724.0000 1.0000
22.6800 1804.0000 1.0000
22.6900 1744.0000 1.0000
22.7000 1698.0000 1.0000
22.7100 1764.0000 1.0000
22.7200 1747.0000 1.0000
22.7300 1678.0000 1.0000
22.7400 1685.0000 1.0000
22.7500 1738.0000 1.0000
22.7600 1673.0000 1.0000
22.7700 1710.0000 1.0000
22.7800 1742.0000 1.0000
22.7900 1744.0000 1.0000
22.8000 1800.0000 1.0000
22.8100 1738.0000 1.0000
22.8200 1641.0000 1.0000
22.8300 1723.0000 1.0000
22.8400 1724.0000 1.0000
22.8500 1699.0000 1.0000
22.8600 1685.0000 1.0000
22.8700 1708.0000 1.0000
22.8800 1749.0000 1.0000
22.8900 1743.0000 1.0000
22.9000 1746.0000 1.0000
22.9100 1691.0000 1.0000
22.9200 1728.0000 1.0000
22.9300 1729.0000 1.0000
22.9400 1756.0000 1.0000
22.9500 1669.0000 1.0000
22.9600 1725.0000 1.0000
22.9700 1767.0000 1.0000
22.9800 1765.0000 1.0000
22.9900 1745.0000 1.0000
23.0000 1715.0000 1.0000
23.0100 1787.0000 1.0000
23.0200 1742.0000 1.0000
23.0300 1742.0000 1.0000
23.0400 1793.0000 1.0000
23.0500 1739.0000 1.0000
23.0600 1668.0000 1.0000
23.0700 1806.0000 1.0000
23.0800 1762.0000 1.0000
23.0900 1751.0000 1.0000
23.1000 1727.0000 1.0000
23.1100 1770.0000 1.0000
23.1200 1753.0000 1.0000
23.1300 1849.0000 1.0000
23.1400 1744.0000 1.0000
23.1500 1758.0000 1.0000
23.1600 1728.0000 1.0000
23.1700 1759.0000 1.0000
23.1800 1727.0000 1.0000
23.1900 1755.0000 1.0000
23.2000 1788.0000 1.0000
23.2100 1745.0000 1.0000
23.2200 1717.0000 1.0000
23.2300 1740.0000 1.0000
23.2400 1739.0000 1.0000
23.2500 1767.0000 1.0000
23.2600 1766.0000 1.0000
23.2700 1733.0000 1.0000
23.2800 1755.0000 1.0000
23.2900 1735.0000 1.0000
23.3000 1721.0000 1.0000
23.3100 1741.0000 1.0000
23.3200 1731.0000 1.0000
23.3300 1724.0000 1.0000
23.3400 1725.0000 1.0000
23.3500 1799.0000 1.0000
23.3600 1698.0000 1.0000
23.3700 1791.0000 1.0000
23.3800 1787.0000 1.0000
23.3900 1682.0000 1.0000
23.4000 1720.0000 1.0000
23.4100 1732.0000 1.0000
23.4200 1687.0000 1.0000
23.4300 1742.0000 1.0000
23.4400 1705.0000 1.0000
23.4500 1759.0000 1.0000
23.4600 1750.0000 1.0000
23.4700 1775.0000 1.0000
23.4800 1832.0000 1.0000
23.4900 1717.0000 1.0000
23.5000 1756.0000 1.0000
23.5100 1776.0000 1.0000
23.5200 1752.0000 1.0000
23.5300 1713.0000 1.0000
23.5400 1767.0000 1.0000
23.5500 1767.0000 1.0000
23.5600 1802.0000 1.0000
23.5700 1765.0000 1.0000
23.5800 1715.0000 1.0000
23.5900 1760.0000 1.0000
23.6000 1702.0000 1.0000
23.6100 1733.0000 1.0000
23.6200 1755.0000 1.0000
23.6300 1781.0000 1.0000
23.6400 1760.0000 1.0000
23.6500 1718.0000 1.0000
23.6600 1731.0000 1.0000
23.6700 1745.0000 1.0000
23.6800 1746.0000 1.0000
23.6900 1718.0000 1.0000
23.7000 1735.0000 1.0000
23.7100 1652.0000 1.0000
23.7200 1808.0000 1.0000
23.7300 1753.0000 1.0000
23.7400 1762.0000 1.0000
23.7500 1752.0000 1.0000
23.7600 1808.0000 1.0000
23.7700 1785.0000 1.0000
23.7800 1772.0000 1.0000
23.7900 1794.0000 1.0000
23.8000 1751.0000 1.0000
23.8100 1811.0000 1.0000
23.8200 1811.0000 1.0000
23.8300 1711.0000 1.0000
23.8400 1784.0000 1.0000
23.8500 1780.0000 1.0000
23.8600 1755.0000 1.0000
23.8700 1818.0000 1.0000
23.8800 1825.0000 1.0000
23.8900 1812.0000 1.0000
23.9000 1818.0000 1.0000
23.9100 1801.0000 1.0000
23.9200 1812.0000 1.0000
23.9300 1797.0000 1.0000
23.9400 1715.0000 1.0000
23.9500 1750.0000 1.0000
23.9600 1770.0000 1.0000
23.9700 1753.0000 1.0000
23.9800 1756.0000 1.0000
23.9900 1739.0000 1.0000
24.0000 1671.0000 1.0000
24.0100 1732.0000 1.0000
24.0200 1765.0000 1.0000
24.0300 1749.0000 1.0000
24.0400 1770.0000 1.0000
24.0500 1755.0000 1.0000
24.0600 1858.0000 1.0000
24.0700 1736.0000 1.0000
24.0800 1787.0000 1.0000
24.0900 1755.0000 1.0000
24.1000 1748.0000 1.0000
24.1100 1772.0000 1.0000
24.1200 1748.0000 1.0000
24.1300 1787.0000 1.0000
24.1400 1765.0000 1.0000
24.1500 1778.0000 1.0000
24.1600 1730.0000 1.0000
24.1700 1783.0000 1.0000
24.1800 1781.0000 1.0000
24.1900 1769.0000 1.0000
24.2000 1767.0000 1.0000
24.2100 1779.0000 1.0000
24.2200 1751.0000 1.0000
24.2300 1794.0000 1.0000
24.2400 1755.0000 1.0000
24.2500 1723.0000 1.0000
24.2600 1771.0000 1.0000
24.2700 1844.0000 1.0000
24.2800 1790.0000 1.0000
24.2900 1750.0000 1.0000
24.3000 1758.0000 1.0000
24.3100 1756.0000 1.0000
24.3200 1770.0000 1.0000
24.3300 1743.0000 1.0000
24.3400 1767.0000 1.0000
24.3500 1818.0000 1.0000
24.3600 1845.0000 1.0000
24.3700 1763.0000 1.0000
24.3800 1748.0000 1.0000
24.3900 1791.0000 1.0000
24.4000 1766.0000 1.0000
24.4100 1759.0000 1.0000
24.4200 1774.0000 1.0000
24.4300 1804.0000 1.0000
24.4400 1788.0000 1.0000
24.4500 1738.0000 1.0000
24.4600 1784.0000 1.0000
24.4700 1764.0000 1.0000
24.4800 1783.0000 1.0000
24.4900 1810.0000 1.0000
24.5000 1775.0000 1.0000
24.5100 1805.0000 1.0000
24.5200 1779.0000 1.0000
24.5300 1842.0000 1.0000
24.5400 1767.0000 1.0000
24.5500 1848.0000 1.0000
24.5600 1828.0000 1.0000
24.5700 1811.0000 1.0000
24.5800 1792.0000 1.0000
24.5900 1794.0000 1.0000
24.6000 1786.0000 1.0000
24.6100 1786.0000 1.0000
24.6200 1813.0000 1.0000
24.6300 1778.0000 1.0000
24.6400 1780.0000 1.0000
24.6500 1807.0000 1.0000
24.6600 1810.0000 1.0000
24.6700 1807.0000 1.0000
24.6800 1853.0000 1.0000
24.6900 1827.0000 1.0000
24.7000 1797.0000 1.0000
24.7100 1873.0000 1.0000
24.7200 1876.0000 1.0000
24.7300 1813.0000 1.0000
24.7400 1866.0000 1.0000
24.7500 1883.0000 1.0000
24.7600 1846.0000 1.0000
24.7700 1852.0000 1.0000
24.7800 1844.0000 1.0000
24.7900 1782.0000 1.0000
24.8000 1760.0000 1.0000
24.8100 1783.0000 1.0000
24.8200 1831.0000 1.0000
24.8300 1892.0000 1.0000
24.8400 1845.0000 1.0000
24.8500 1847.0000 1.0000
24.8600 1763.0000 1.0000
24.8700 1784.0000 1.0000
24.8800 1767.0000 1.0000
24.8900 1858.0000 1.0000
24.9000 1841.0000 1.0000
24.9100 1810.0000 1.0000
24.9200 1794.0000 1.0000
24.9300 1790.0000 1.0000
24.9400 1824.0000 1.0000
24.9500 1842.0000 1.0000
24.9600 1832.0000 1.0000
24.9700 1813.0000 1.0000
24.9800 1795.0000 1.0000
24.9900 1815.0000 1.0000
25.0000 1808.0000 1.0000
25.0100 1773.0000 1.0000
25.0200 1822.0000 1.0000
25.0300 1848.0000 1.0000
25.0400 1787.0000 1.0000
25.0500 1838.0000 1.0000
25.0600 1803.0000 1.0000
25.0700 1820.0000 1.0000
25.0800 1814.0000 1.0000
25.0900 1843.0000 1.0000
25.1000 1864.0000 1.0000
25.1100 1834.0000 1.0000
25.1200 1810.0000 1.0000
25.1300 1962.0000 1.0000
25.1400 1826.0000 1.0000
25.1500 1879.0000 1.0000
25.1600 1844.0000 1.0000
25.1700 1825.0000 1.0000
25.1800 1877.0000 1.0000
25.1900 1840.0000 1.0000
25.2000 1897.0000 1.0000
25.2100 1816.0000 1.0000
25.2200 1862.0000 1.0000
25.2300 1783.0000 1.0000
25.2400 1808.0000 1.0000
25.2500 1788.0000 1.0000
25.2600 1820.0000 1.0000
25.2700 1813.0000 1.0000
25.2800 1822.0000 1.0000
25.2900 1870.0000 1.0000
25.3000 1853.0000 1.0000
25.3100 1799.0000 1.0000
25.3200 1809.0000 1.0000
25.3300 1803.0000 1.0000
25.3400 1810.0000 1.0000
25.3500 1860.0000 1.0000
25.3600 1913.0000 1.0000
25.3700 1838.0000 1.0000
25.3800 1870.0000 1.0000
25.3900 1803.0000 1.0000
25.4000 1898.0000 1.0000
25.4100 1810.0000 1.0000
25.4200 1821.0000 1.0000
25.4300 1818.0000 1.0000
25.4400 1836.0000 1.0000
25.4500 1882.0000 1.0000
25.4600 1829.0000 1.0000
25.4700 1806.0000 1.0000
25.4800 1840.0000 1.0000
25.4900 1778.0000 1.0000
25.5000 1803.0000 1.0000
25.5100 1807.0000 1.0000
25.5200 1796.0000 1.0000
25.5300 1826.0000 1.0000
25.5400 1847.0000 1.0000
25.5500 1820.0000 1.0000
25.5600 1752.0000 1.0000
25.5700 1824.0000 1.0000
25.5800 1791.0000 1.0000
25.5900 1866.0000 1.0000
25.6000 1737.0000 1.0000
25.6100 1851.0000 1.0000
25.6200 1796.0000 1.0000
25.6300 1803.0000 1.0000
25.6400 1855.0000 1.0000
25.6500 1784.0000 1.0000
25.6600 1826.0000 1.0000
25.6700 1768.0000 1.0000
25.6800 1809.0000 1.0000
25.6900 1740.0000 1.0000
25.7000 1831.0000 1.0000
25.7100 1790.0000 1.0000
25.7200 1772.0000 1.0000
25.7300 1814.0000 1.0000
25.7400 1832.0000 1.0000
25.7500 1834.0000 1.0000
25.7600 1820.0000 1.0000
25.7700 1809.0000 1.0000
25.7800 1825.0000 1.0000
25.7900 1814.0000 1.0000
25.8000 1816.0000 1.0000
25.8100 1753.0000 1.0000
25.8200 1852.0000 1.0000
25.8300 1832.0000 1.0000
25.8400 1807.0000 1.0000
25.8500 1785.0000 1.0000
25.8600 1752.0000 1.0000
25.8700 1799.0000 1.0000
25.8800 1807.0000 1.0000
25.8900 1831.0000 1.0000
25.9000 1850.0000 1.0000
25.9100 1855.0000 1.0000
25.9200 1837.0000 1.0000
25.9300 1823.0000 1.0000
25.9400 1865.0000 1.0000
25.9500 1830.0000 1.0000
25.9600 1823.0000 1.0000
25.9700 1777.0000 1.0000
25.9800 1821.0000 1.0000
25.9900 1841.0000 1.0000
26.0000 1842.0000 1.0000
26.0100 1890.0000 1.0000
26.0200 1813.0000 1.0000
26.0300 1852.0000 1.0000
26.0400 1803.0000 1.0000
26.0500 1812.0000 1.0000
26.0600 1831.0000 1.0000
26.0700 1812.0000 1.0000
26.0800 1875.0000 1.0000
26.0900 1797.0000 1.0000
26.1000 1735.0000 1.0000
26.1100 1852.0000 1.0000
26.1200 1847.0000 1.0000
26.1300 1870.0000 1.0000
26.1400 1739.0000 1.0000
26.1500 1821.0000 1.0000
26.1600 1756.0000 1.0000
26.1700 1833.0000 1.0000
26.1800 1838.0000 1.0000
26.1900 1914.0000 1.0000
26.2000 1838.0000 1.0000
26.2100 1925.0000 1.0000
26.2200 1892.0000 1.0000
26.2300 1870.0000 1.0000
26.2400 1882.0000 1.0000
26.2500 1830.0000 1.0000
26.2600 1893.0000 1.0000
26.2700 1863.0000 1.0000
26.2800 1842.0000 1.0000
26.2900 1871.0000 1.0000
26.3000 1861.0000 1.0000
26.3100 1827.0000 1.0000
26.3200 1868.0000 1.0000
26.3300 1983.0000 1.0000
26.3400 1870.0000 1.0000
26.3500 1840.0000 1.0000
26.3600 1815.0000 1.0000
26.3700 1916.0000 1.0000
26.3800 1848.0000 1.0000
26.3900 1871.0000 1.0000
26.4000 1919.0000 1.0000
26.4100 1895.0000 1.0000
26.4200 1939.0000 1.0000
26.4300 1917.0000 1.0000
26.4400 1907.0000 1.0000
26.4500 1838.0000 1.0000
26.4600 1872.0000 1.0000
26.4700 1921.0000 1.0000
26.4800 1890.0000 1.0000
26.4900 1994.0000 1.0000
26.5000 1963.0000 1.0000
26.5100 1907.0000 1.0000
26.5200 1879.0000 1.0000
26.5300 1968.0000 1.0000
26.5400 1982.0000 1.0000
26.5500 1922.0000 1.0000
26.5600 1865.0000 1.0000
26.5700 1900.0000 1.0000
26.5800 1872.0000 1.0000
26.5900 1864.0000 1.0000
26.6000 1840.0000 1.0000
26.6100 2014.0000 1.0000
26.6200 1982.0000 1.0000
26.6300 1920.0000 1.0000
26.6400 1984.0000 1.0000
26.6500 2030.0000 1.0000
26.6600 1958.0000 1.0000
26.6700 1971.0000 1.0000
26.6800 1990.0000 1.0000
26.6900 1997.0000 1.0000
26.7000 2044.0000 1.0000
26.7100 1992.0000 1.0000
26.7200 2100.0000 1.0000
26.7300 2098.0000 1.0000
26.7400 2049.0000 1.0000
26.7500 1981.0000 1.0000
26.7600 2052.0000 1.0000
26.7700 2050.0000 1.0000
26.7800 2004.0000 1.0000
26.7900 2077.0000 1.0000
26.8000 2019.0000 1.0000
26.8100 2071.0000 1.0000
26.8200 2077.0000 1.0000
26.8300 2168.0000 1.0000
26.8400 2073.0000 1.0000
26.8500 2139.0000 1.0000
26.8600 2140.0000 1.0000
26.8700 2202.0000 1.0000
26.8800 2246.0000 1.0000
26.8900 2296.0000 1.0000
26.9000 2239.0000 1.0000
26.9100 2260.0000 1.0000
26.9200 2246.0000 1.0000
26.9300 2357.0000 1.0000
26.9400 2367.0000 1.0000
26.9500 2419.0000 1.0000
26.9600 2522.0000 1.0000
26.9700 2597.0000 1.0000
26.9800 2526.0000 1.0000
26.9900 2646.0000 1.0000
27.0000 2641.0000 1.0000
27.0100 2700.0000 1.0000
27.0200 2817.0000 1.0000
27.0300 2922.0000 1.0000
27.0400 2993.0000 1.0000
27.0500 3043.0000 1.0000
27.0600 3122.0000 1.0000
27.0700 3256.0000 1.0000
27.0800 3289.0000 1.0000
27.0900 3514.0000 1.0000
27.1000 3650.0000 1.0000
27.1100 3789.0000 1.0000
27.1200 3986.0000 1.0000
27.1300 4043.0000 1.0000
27.1400 4281.0000 1.0000
27.1500 4509.0000 1.0000
27.1600 4866.0000 1.0000
27.1700 5196.0000 1.0000
27.1800 5307.0000 1.0000
27.1900 5656.0000 1.0000
27.2000 5924.0000 1.0000
27.2100 6115.0000 1.0000
27.2200 6430.0000 1.0000
27.2300 6895.0000 1.0000
27.2400 7155.0000 1.0000
27.2500 7457.0000 1.0000
27.2600 7503.0000 1.0000
27.2700 7477.0000 1.0000
27.2800 7728.0000 1.0000
27.2900 7605.0000 1.0000
27.3000 7529.0000 1.0000
27.3100 7224.0000 1.0000
27.3200 7125.0000 1.0000
27.3300 6962.0000 1.0000
27.3400 6611.0000 1.0000
27.3500 6207.0000 1.0000
27.3600 5920.0000 1.0000
27.3700 5640.0000 1.0000
27.3800 5290.0000 1.0000
27.3900 5062.0000 1.0000
27.4000 4783.0000 1.0000
27.4100 4537.0000 1.0000
27.4200 4266.0000 1.0000
27.4300 4093.0000 1.0000
27.4400 3835.0000 1.0000
27.4500 3657.0000 1.0000
27.4600 3490.0000 1.0000
27.4700 3351.0000 1.0000
27.4800 3236.0000 1.0000
27.4900 3140.0000 1.0000
27.5000 3026.0000 1.0000
27.5100 2980.0000 1.0000
27.5200 2887.0000 1.0000
27.5300 2886.0000 1.0000
27.5400 2724.0000 1.0000
27.5500 2701.0000 1.0000
27.5600 2621.0000 1.0000
27.5700 2553.0000 1.0000
27.5800 2471.0000 1.0000
27.5900 2445.0000 1.0000
27.6000 2417.0000 1.0000
27.6100 2448.0000 1.0000
27.6200 2295.0000 1.0000
27.6300 2302.0000 1.0000
27.6400 2223.0000 1.0000
27.6500 2156.0000 1.0000
27.6600 2246.0000 1.0000
27.6700 2212.0000 1.0000
27.6800 2155.0000 1.0000
27.6900 2078.0000 1.0000
27.7000 2130.0000 1.0000
27.7100 2132.0000 1.0000
27.7200 2078.0000 1.0000
27.7300 2086.0000 1.0000
27.7400 2072.0000 1.0000
27.7500 2071.0000 1.0000
27.7600 1992.0000 1.0000
27.7700 2002.0000 1.0000
27.7800 2070.0000 1.0000
27.7900 2022.0000 1.0000
27.8000 1971.0000 1.0000
27.8100 2010.0000 1.0000
27.8200 1915.0000 1.0000
27.8300 1866.0000 1.0000
27.8400 2001.0000 1.0000
27.8500 1861.0000 1.0000
27.8600 1981.0000 1.0000
27.8700 1977.0000 1.0000
27.8800 1948.0000 1.0000
27.8900 1924.0000 1.0000
27.9000 1905.0000 1.0000
27.9100 1956.0000 1.0000
27.9200 1841.0000 1.0000
27.9300 1914.0000 1.0000
27.9400 1842.0000 1.0000
27.9500 1890.0000 1.0000
27.9600 1852.0000 1.0000
27.9700 1775.0000 1.0000
27.9800 1901.0000 1.0000
27.9900 1888.0000 1.0000
28.0000 1803.0000 1.0000
28.0100 1851.0000 1.0000
28.0200 1866.0000 1.0000
28.0300 1862.0000 1.0000
28.0400 1745.0000 1.0000
28.0500 1813.0000 1.0000
28.0600 1853.0000 1.0000
28.0700 1849.0000 1.0000
28.0800 1848.0000 1.0000
28.0900 1800.0000 1.0000
28.1000 1861.0000 1.0000
28.1100 1780.0000 1.0000
28.1200 1787.0000 1.0000
28.1300 1798.0000 1.0000
28.1400 1790.0000 1.0000
28.1500 1802.0000 1.0000
28.1600 1813.0000 1.0000
28.1700 1794.0000 1.0000
28.1800 1763.0000 1.0000
28.1900 1726.0000 1.0000
28.2000 1829.0000 1.0000
28.2100 1797.0000 1.0000
28.2200 1695.0000 1.0000
28.2300 1770.0000 1.0000
28.2400 1739.0000 1.0000
28.2500 1768.0000 1.0000
28.2600 1822.0000 1.0000
28.2700 1802.0000 1.0000
28.2800 1802.0000 1.0000
28.2900 1799.0000 1.0000
28.3000 1796.0000 1.0000
28.3100 1752.0000 1.0000
28.3200 1783.0000 1.0000
28.3300 1763.0000 1.0000
28.3400 1713.0000 1.0000
28.3500 1762.0000 1.0000
28.3600 1748.0000 1.0000
28.3700 1788.0000 1.0000
28.3800 1743.0000 1.0000
28.3900 1686.0000 1.0000
28.4000 1744.0000 1.0000
28.4100 1668.0000 1.0000
28.4200 1602.0000 1.0000
28.4300 1695.0000 1.0000
28.4400 1676.0000 1.0000
28.4500 1664.0000 1.0000
28.4600 1764.0000 1.0000
28.4700 1677.0000 1.0000
28.4800 1708.0000 1.0000
28.4900 1737.0000 1.0000
28.5000 1777.0000 1.0000
28.5100 1707.0000 1.0000
28.5200 1683.0000 1.0000
28.5300 1695.0000 1.0000
28.5400 1709.0000 1.0000
28.5500 1743.0000 1.0000
28.5600 1685.0000 1.0000
28.5700 1684.0000 1.0000
28.5800 1753.0000 1.0000
28.5900 1760.0000 1.0000
28.6000 1690.0000 1.0000
28.6100 1724.0000 1.0000
28.6200 1706.0000 1.0000
28.6300 1687.0000 1.0000
28.6400 1698.0000 1.0000
28.6500 1692.0000 1.0000
28.6600 1655.0000 1.0000
28.6700 1675.0000 1.0000
28.6800 1674.0000 1.0000
28.6900 1721.0000 1.0000
28.7000 1669.0000 1.0000
28.7100 1659.0000 1.0000
28.7200 1629.0000 1.0000
28.7300 1698.0000 1.0000
28.7400 1615.0000 1.0000
28.7500 1659.0000 1.0000
28.7600 1769.0000 1.0000
28.7700 1772.0000 1.0000
28.7800 1719.0000 1.0000
28.7900 1684.0000 1.0000
28.8000 1666.0000 1.0000
28.8100 1672.0000 1.0000
28.8200 1705.0000 1.0000
28.8300 1679.0000 1.0000
28.8400 1664.0000 1.0000
28.8500 1644.0000 1.0000
28.8600 1674.0000 1.0000
28.8700 1636.0000 1.0000
28.8800 1676.0000 1.0000
28.8900 1674.0000 1.0000
28.9000 1663.0000 1.0000
28.9100 1684.0000 1.0000
28.9200 1717.0000 1.0000
28.9300 1660.0000 1.0000
28.9400 1667.0000 1.0000
28.9500 1622.0000 1.0000
28.9600 1667.0000 1.0000
28.9700 1677.0000 1.0000
28.9800 1671.0000 1.0000
28.9900 1574.0000 1.0000
29.0000 1635.0000 1.0000
29.0100 1633.0000 1.0000
29.0200 1711.0000 1.0000
29.0300 1589.0000 1.0000
29.0400 1753.0000 1.0000
29.0500 1633.0000 1.0000
29.0600 1566.0000 1.0000
29.0700 1637.0000 1.0000
29.0800 1686.0000 1.0000
29.0900 1655.0000 1.0000
29.1000 1694.0000 1.0000
29.1100 1652.0000 1.0000
29.1200 1631.0000 1.0000
29.1300 1739.0000 1.0000
29.1400 1690.0000 1.0000
29.1500 1644.0000 1.0000
29.1600 1660.0000 1.0000
29.1700 1689.0000 1.0000
29.1800 1628.0000 1.0000
29.1900 1653.0000 1.0000
29.2000 1625.0000 1.0000
29.2100 1672.0000 1.0000
29.2200 1640.0000 1.0000
29.2300 1603.0000 1.0000
29.2400 1674.0000 1.0000
29.2500 1614.0000 1.0000
29.2600 1664.0000 1.0000
29.2700 1639.0000 1.0000
29.2800 1651.0000 1.0000
29.2900 1591.0000 1.0000
29.3000 1644.0000 1.0000
29.3100 1631.0000 1.0000
29.3200 1691.0000 1.0000
29.3300 1642.0000 1.0000
29.3400 1611.0000 1.0000
29.3500 1646.0000 1.0000
29.3600 1593.0000 1.0000
29.3700 1611.0000 1.0000
29.3800 1608.0000 1.0000
29.3900 1660.0000 1.0000
29.4000 1640.0000 1.0000
29.4100 1592.0000 1.0000
29.4200 1567.0000 1.0000
29.4300 1619.0000 1.0000
29.4400 1665.0000 1.0000
29.4500 1652.0000 1.0000
29.4600 1549.0000 1.0000
29.4700 1572.0000 1.0000
29.4800 1599.0000 1.0000
29.4900 1608.0000 1.0000
29.5000 1624.0000 1.0000
29.5100 1635.0000 1.0000
29.5200 1573.0000 1.0000
29.5300 1616.0000 1.0000
29.5400 1570.0000 1.0000
29.5500 1513.0000 1.0000
29.5600 1568.0000 1.0000
29.5700 1640.0000 1.0000
29.5800 1655.0000 1.0000
29.5900 1643.0000 1.0000
29.6000 1552.0000 1.0000
29.6100 1564.0000 1.0000
29.6200 1634.0000 1.0000
29.6300 1646.0000 1.0000
29.6400 1596.0000 1.0000
29.6500 1626.0000 1.0000
29.6600 1630.0000 1.0000
29.6700 1596.0000 1.0000
29.6800 1574.0000 1.0000
29.6900 1623.0000 1.0000
29.7000 1585.0000 1.0000
29.7100 1612.0000 1.0000
29.7200 1620.0000 1.0000
29.7300 1656.0000 1.0000
29.7400 1637.0000 1.0000
29.7500 1586.0000 1.0000
29.7600 1629.0000 1.0000
29.7700 1554.0000 1.0000
29.7800 1654.0000 1.0000
29.7900 1617.0000 1.0000
29.8000 1591.0000 1.0000
29.8100 1534.0000 1.0000
29.8200 1654.0000 1.0000
29.8300 1522.0000 1.0000
29.8400 1603.0000 1.0000
29.8500 1599.0000 1.0000
29.8600 1571.0000 1.0000
29.8700 1653.0000 1.0000
29.8800 1602.0000 1.0000
29.8900 1610.0000 1.0000
29.9000 1596.0000 1.0000
29.9100 1592.0000 1.0000
29.9200 1541.0000 1.0000
29.9300 1553.0000 1.0000
29.9400 1507.0000 1.0000
29.9500 1517.0000 1.0000
29.9600 1488.0000 1.0000
29.9700 1572.0000 1.0000
29.9800 1581.0000 1.0000
29.9900 1603.0000 1.0000
30.0000 1595.0000 1.0000
30.0100 1535.0000 1.0000
30.0200 1599.0000 1.0000
30.0300 1606.0000 1.0000
30.0400 1528.0000 1.0000
30.0500 1523.0000 1.0000
30.0600 1590.0000 1.0000
30.0700 1588.0000 1.0000
30.0800 1583.0000 1.0000
30.0900 1575.0000 1.0000
30.1000 1625.0000 1.0000
30.1100 1575.0000 1.0000
30.1200 1568.0000 1.0000
30.1300 1579.0000 1.0000
30.1400 1537.0000 1.0000
30.1500 1575.0000 1.0000
30.1600 1599.0000 1.0000
30.1700 1594.0000 1.0000
30.1800 1609.0000 1.0000
30.1900 1487.0000 1.0000
30.2000 1569.0000 1.0000
30.2100 1640.0000 1.0000
30.2200 1568.0000 1.0000
30.2300 1599.0000 1.0000
30.2400 1589.0000 1.0000
30.2500 1538.0000 1.0000
30.2600 1569.0000 1.0000
30.2700 1586.0000 1.0000
30.2800 1611.0000 1.0000
30.2900 1536.0000 1.0000
30.3000 1557.0000 1.0000
30.3100 1488.0000 1.0000
30.3200 1556.0000 1.0000
30.3300 1611.0000 1.0000
30.3400 1578.0000 1.0000
30.3500 1556.0000 1.0000
30.3600 1547.0000 1.0000
30.3700 1535.0000 1.0000
30.3800 1530.0000 1.0000
30.3900 1564.0000 1.0000
30.4000 1562.0000 1.0000
30.4100 1529.0000 1.0000
30.4200 1533.0000 1.0000
30.4300 1521.0000 1.0000
30.4400 1573.0000 1.0000
30.4500 1542.0000 1.0000
30.4600 1543.0000 1.0000
30.4700 1515.0000 1.0000
30.4800 1523.0000 1.0000
30.4900 1545.0000 1.0000
30.5000 1495.0000 1.0000
30.5100 1581.0000 1.0000
30.5200 1580.0000 1.0000
30.5300 1490.0000 1.0000
30.5400 1538.0000 1.0000
30.5500 1523.0000 1.0000
30.5600 1548.0000 1.0000
30.5700 1542.0000 1.0000
30.5800 1554.0000 1.0000
30.5900 1529.0000 1.0000
30.6000 1550.0000 1.0000
30.6100 1531.0000 1.0000
30.6200 1589.0000 1.0000
30.6300 1598.0000 1.0000
30.6400 1529.0000 1.0000
30.6500 1586.0000 1.0000
30.6600 1560.0000 1.0000
30.6700 1549.0000 1.0000
30.6800 1533.0000 1.0000
30.6900 1541.0000 1.0000
30.7000 1542.0000 1.0000
30.7100 1530.0000 1.0000
30.7200 1540.0000 1.0000
30.7300 1481.0000 1.0000
30.7400 1552.0000 1.0000
30.7500 1545.0000 1.0000
30.7600 1558.0000 1.0000
30.7700 1546.0000 1.0000
30.7800 1475.0000 1.0000
30.7900 1468.0000 1.0000
30.8000 1511.0000 1.0000
30.8100 1511.0000 1.0000
30.8200 1571.0000 1.0000
30.8300 1522.0000 1.0000
30.8400 1522.0000 1.0000
30.8500 1560.0000 1.0000
30.8600 1549.0000 1.0000
30.8700 1573.0000 1.0000
30.8800 1524.0000 1.0000
30.8900 1566.0000 1.0000
30.9000 1526.0000 1.0000
30.9100 1487.0000 1.0000
30.9200 1593.0000 1.0000
30.9300 1571.0000 1.0000
30.9400 1516.0000 1.0000
30.9500 1504.0000 1.0000
30.9600 1527.0000 1.0000
30.9700 1508.0000 1.0000
30.9800 1513.0000 1.0000
30.9900 1514.0000 1.0000
31.0000 1499.0000 1.0000
31.0100 1473.0000 1.0000
31.0200 1469.0000 1.0000
31.0300 1526.0000 1.0000
31.0400 1483.0000 1.0000
31.0500 1572.0000 1.0000
31.0600 1498.0000 1.0000
31.0700 1456.0000 1.0000
31.0800 1464.0000 1.0000
31.0900 1407.0000 1.0000
31.1000 1478.0000 1.0000
31.1100 1523.0000 1.0000
31.1200 1518.0000 1.0000
31.1300 1540.0000 1.0000
31.1400 1538.0000 1.0000
31.1500 1502.0000 1.0000
31.1600 1542.0000 1.0000
31.1700 1491.0000 1.0000
31.1800 1512.0000 1.0000
31.1900 1460.0000 1.0000
31.2000 1514.0000 1.0000
31.2100 1465.0000 1.0000
31.2200 1489.0000 1.0000
31.2300 1499.0000 1.0000
31.2400 1509.0000 1.0000
31.2500 1443.0000 1.0000
31.2600 1567.0000 1.0000
31.2700 1497.0000 1.0000
31.2800 1505.0000 1.0000
31.2900 1485.0000 1.0000
31.3000 1501.0000 1.0000
31.3100 1487.0000 1.0000
31.3200 1508.0000 1.0000
31.3300 1450.0000 1.0000
31.3400 1493.0000 1.0000
31.3500 1455.0000 1.0000
31.3600 1479.0000 1.0000
31.3700 1495.0000 1.0000
31.3800 1478.0000 1.0000
31.3900 1539.0000 1.0000
31.4000 1479.0000 1.0000
31.4100 1453.0000 1.0000
31.4200 1423.0000 1.0000
31.4300 1516.0000 1.0000
31.4400 1593.0000 1.0000
31.4500 1440.0000 1.0000
31.4600 1446.0000 1.0000
31.4700 1463.0000 1.0000
31.4800 1441.0000 1.0000
31.4900 1477.0000 1.0000
31.5000 1451.0000 1.0000
31.5100 1422.0000 1.0000
31.5200 1434.0000 1.0000
31.5300 1508.0000 1.0000
31.5400 1473.0000 1.0000
31.5500 1504.0000 1.0000
31.5600 1496.0000 1.0000
31.5700 1471.0000 1.0000
31.5800 1461.0000 1.0000
31.5900 1531.0000 1.0000
31.6000 1497.0000 1.0000
31.6100 1514.0000 1.0000
31.6200 1470.0000 1.0000
31.6300 1534.0000 1.0000
31.6400 1501.0000 1.0000
31.6500 1465.0000 1.0000
31.6600 1522.0000 1.0000
31.6700 1484.0000 1.0000
31.6800 1453.0000 1.0000
31.6900 1515.0000 1.0000
31.7000 1450.0000 1.0000
31.7100 1441.0000 1.0000
31.7200 1514.0000 1.0000
31.7300 1464.0000 1.0000
31.7400 1484.0000 1.0000
31.7500 1431.0000 1.0000
31.7600 1469.0000 1.0000
31.7700 1443.0000 1.0000
31.7800 1474.0000 1.0000
31.7900 1470.0000 1.0000
31.8000 1494.0000 1.0000
31.8100 1507.0000 1.0000
31.8200 1455.0000 1.0000
31.8300 1550.0000 1.0000
31.8400 1476.0000 1.0000
31.8500 1485.0000 1.0000
31.8600 1519.0000 1.0000
31.8700 1539.0000 1.0000
31.8800 1510.0000 1.0000
31.8900 1486.0000 1.0000
31.9000 1505.0000 1.0000
31.9100 1500.0000 1.0000
31.9200 1518.0000 1.0000
31.9300 1490.0000 1.0000
31.9400 1508.0000 1.0000
31.9500 1529.0000 1.0000
31.9600 1526.0000 1.0000
31.9700 1535.0000 1.0000
31.9800 1510.0000 1.0000
31.9900 1462.0000 1.0000
32.0000 1526.0000 1.0000
32.0100 1519.0000 1.0000
32.0200 1552.0000 1.0000
32.0300 1461.0000 1.0000
32.0400 1530.0000 1.0000
32.0500 1478.0000 1.0000
32.0600 1541.0000 1.0000
32.0700 1495.0000 1.0000
32.0800 1464.0000 1.0000
32.0900 1480.0000 1.0000
32.1000 1461.0000 1.0000
32.1100 1482.0000 1.0000
32.1200 1535.0000 1.0000
32.1300 1539.0000 1.0000
32.1400 1422.0000 1.0000
32.1500 1427.0000 1.0000
32.1600 1453.0000 1.0000
32.1700 1442.0000 1.0000
32.1800 1455.0000 1.0000
32.1900 1430.0000 1.0000
32.2000 1524.0000 1.0000
32.2100 1459.0000 1.0000
32.2200 1475.0000 1.0000
32.2300 1473.0000 1.0000
32.2400 1442.0000 1.0000
32.2500 1386.0000 1.0000
32.2600 1428.0000 1.0000
32.2700 1432.0000 1.0000
32.2800 1490.0000 1.0000
32.2900 1500.0000 1.0000
32.3000 1458.0000 1.0000
32.3100 1472.0000 1.0000
32.3200 1456.0000 1.0000
32.3300 1476.0000 1.0000
32.3400 1451.0000 1.0000
32.3500 1462.0000 1.0000
32.3600 1438.0000 1.0000
32.3700 1516.0000 1.0000
32.3800 1463.0000 1.0000
32.3900 1432.0000 1.0000
32.4000 1472.0000 1.0000
32.4100 1378.0000 1.0000
32.4200 1415.0000 1.0000
32.4300 1412.0000 1.0000
32.4400 1457.0000 1.0000
32.4500 1391.0000 1.0000
32.4600 1427.0000 1.0000
32.4700 1399.0000 1.0000
32.4800 1427.0000 1.0000
32.4900 1381.0000 1.0000
32.5000 1423.0000 1.0000
32.5100 1421.0000 1.0000
32.5200 1414.0000 1.0000
32.5300 1437.0000 1.0000
32.5400 1446.0000 1.0000
32.5500 1479.0000 1.0000
32.5600 1472.0000 1.0000
32.5700 1413.0000 1.0000
32.5800 1366.0000 1.0000
32.5900 1394.0000 1.0000
32.6000 1429.0000 1.0000
32.6100 1461.0000 1.0000
32.6200 1432.0000 1.0000
32.6300 1440.0000 1.0000
32.6400 1401.0000 1.0000
32.6500 1430.0000 1.0000
32.6600 1434.0000 1.0000
32.6700 1399.0000 1.0000
32.6800 1352.0000 1.0000
32.6900 1419.0000 1.0000
32.7000 1412.0000 1.0000
32.7100 1373.0000 1.0000
32.7200 1482.0000 1.0000
32.7300 1411.0000 1.0000
32.7400 1404.0000 1.0000
32.7500 1409.0000 1.0000
32.7600 1360.0000 1.0000
32.7700 1378.0000 1.0000
32.7800 1432.0000 1.0000
32.7900 1409.0000 1.0000
32.8000 1336.0000 1.0000
32.8100 1414.0000 1.0000
32.8200 1403.0000 1.0000
32.8300 1391.0000 1.0000
32.8400 1447.0000 1.0000
32.8500 1408.0000 1.0000
32.8600 1463.0000 1.0000
32.8700 1388.0000 1.0000
32.8800 1361.0000 1.0000
32.8900 1394.0000 1.0000
32.9000 1433.0000 1.0000
32.9100 1356.0000 1.0000
32.9200 1387.0000 1.0000
32.9300 1399.0000 1.0000
32.9400 1373.0000 1.0000
32.9500 1399.0000 1.0000
32.9600 1374.0000 1.0000
32.9700 1356.0000 1.0000
32.9800 1383.0000 1.0000
32.9900 1383.0000 1.0000
33.0000 1417.0000 1.0000
33.0100 1409.0000 1.0000
33.0200 1374.0000 1.0000
33.0300 1383.0000 1.0000
33.0400 1346.0000 1.0000
33.0500 1411.0000 1.0000
33.0600 1355.0000 1.0000
33.0700 1423.0000 1.0000
33.0800 1384.0000 1.0000
33.0900 1374.0000 1.0000
33.1000 1369.0000 1.0000
33.1100 1381.0000 1.0000
33.1200 1390.0000 1.0000
33.1300 1355.0000 1.0000
33.1400 1340.0000 1.0000
33.1500 1399.0000 1.0000
33.1600 1408.0000 1.0000
33.1700 1346.0000 1.0000
33.1800 1362.0000 1.0000
33.1900 1415.0000 1.0000
33.2000 1400.0000 1.0000
33.2100 1348.0000 1.0000
33.2200 1360.0000 1.0000
33.2300 1392.0000 1.0000
33.2400 1418.0000 1.0000
33.2500 1405.0000 1.0000
33.2600 1437.0000 1.0000
33.2700 1391.0000 1.0000
33.2800 1333.0000 1.0000
33.2900 1390.0000 1.0000
33.3000 1395.0000 1.0000
33.3100 1387.0000 1.0000
33.3200 1386.0000 1.0000
33.3300 1318.0000 1.0000
33.3400 1394.0000 1.0000
33.3500 1359.0000 1.0000
33.3600 1310.0000 1.0000
33.3700 1367.0000 1.0000
33.3800 1392.0000 1.0000
33.3900 1359.0000 1.0000
33.4000 1391.0000 1.0000
33.4100 1334.0000 1.0000
33.4200 1391.0000 1.0000
33.4300 1326.0000 1.0000
33.4400 1339.0000 1.0000
33.4500 1377.0000 1.0000
33.4600 1355.0000 1.0000
33.4700 1419.0000 1.0000
33.4800 1364.0000 1.0000
33.4900 1418.0000 1.0000
33.5000 1426.0000 1.0000
33.5100 1412.0000 1.0000
33.5200 1359.0000 1.0000
33.5300 1453.0000 1.0000
33.5400 1388.0000 1.0000
33.5500 1358.0000 1.0000
33.5600 1431.0000 1.0000
33.5700 1376.0000 1.0000
33.5800 1419.0000 1.0000
33.5900 1431.0000 1.0000
33.6000 1360.0000 1.0000
33.6100 1378.0000 1.0000
33.6200 1342.0000 1.0000
33.6300 1387.0000 1.0000
33.6400 1430.0000 1.0000
33.6500 1475.0000 1.0000
33.6600 1370.0000 1.0000
33.6700 1374.0000 1.0000
33.6800 1384.0000 1.0000
33.6900 1382.0000 1.0000
33.7000 1427.0000 1.0000
33.7100 1381.0000 1.0000
33.7200 1403.0000 1.0000
33.7300 1448.0000 1.0000
33.7400 1433.0000 1.0000
33.7500 1440.0000 1.0000
33.7600 1490.0000 1.0000
33.7700 1503.0000 1.0000
33.7800 1461.0000 1.0000
33.7900 1444.0000 1.0000
33.8000 1439.0000 1.0000
33.8100 1477.0000 1.0000
33.8200 1448.0000 1.0000
33.8300 1501.0000 1.0000
33.8400 1492.0000 1.0000
33.8500 1543.0000 1.0000
33.8600 1563.0000 1.0000
33.8700 1485.0000 1.0000
33.8800 1506.0000 1.0000
33.8900 1548.0000 1.0000
33.9000 1433.0000 1.0000
33.9100 1501.0000 1.0000
33.9200 1564.0000 1.0000
33.9300 1550.0000 1.0000
33.9400 1490.0000 1.0000
33.9500 1483.0000 1.0000
33.9600 1518.0000 1.0000
33.9700 1557.0000 1.0000
33.9800 1544.0000 1.0000
33.9900 1531.0000 1.0000
34.0000 1560.0000 1.0000
34.0100 1512.0000 1.0000
34.0200 1522.0000 1.0000
34.0300 1489.0000 1.0000
34.0400 1518.0000 1.0000
34.0500 1535.0000 1.0000
34.0600 1501.0000 1.0000
34.0700 1502.0000 1.0000
34.0800 1576.0000 1.0000
34.0900 1539.0000 1.0000
34.1000 1523.0000 1.0000
34.1100 1527.0000 1.0000
34.1200 1553.0000 1.0000
34.1300 1610.0000 1.0000
34.1400 1570.0000 1.0000
34.1500 1622.0000 1.0000
34.1600 1601.0000 1.0000
34.1700 1619.0000 1.0000
34.1800 1721.0000 1.0000
34.1900 1693.0000 1.0000
34.2000 1739.0000 1.0000
34.2100 1696.0000 1.0000
34.2200 1595.0000 1.0000
34.2300 1784.0000 1.0000
34.2400 1719.0000 1.0000
34.2500 1647.0000 1.0000
34.2600 1799.0000 1.0000
34.2700 1810.0000 1.0000
34.2800 1896.0000 1.0000
34.2900 1919.0000 1.0000
34.3000 2001.0000 1.0000
34.3100 2030.0000 1.0000
34.3200 2090.0000 1.0000
34.3300 2182.0000 1.0000
34.3400 2254.0000 1.0000
34.3500 2277.0000 1.0000
34.3600 2417.0000 1.0000
34.3700 2590.0000 1.0000
34.3800 2593.0000 1.0000
34.3900 2619.0000 1.0000
34.4000 2817.0000 1.0000
34.4100 2853.0000 1.0000
34.4200 2931.0000 1.0000
34.4300 3063.0000 1.0000
34.4400 3214.0000 1.0000
34.4500 3120.0000 1.0000
34.4600 3100.0000 1.0000
34.4700 3177.0000 1.0000
34.4800 3115.0000 1.0000
34.4900 3107.0000 1.0000
34.5000 3066.0000 1.0000
34.5100 3045.0000 1.0000
34.5200 2956.0000 1.0000
34.5300 2885.0000 1.0000
34.5400 2818.0000 1.0000
34.5500 2726.0000 1.0000
34.5600 2690.0000 1.0000
34.5700 2635.0000 1.0000
34.5800 2484.0000 1.0000
34.5900 2433.0000 1.0000
34.6000 2298.0000 1.0000
34.6100 2229.0000 1.0000
34.6200 2214.0000 1.0000
34.6300 2091.0000 1.0000
34.6400 2071.0000 1.0000
34.6500 2059.0000 1.0000
34.6600 1912.0000 1.0000
34.6700 1910.0000 1.0000
34.6800 1881.0000 1.0000
34.6900 1816.0000 1.0000
34.7000 1817.0000 1.0000
34.7100 1787.0000 1.0000
34.7200 1777.0000 1.0000
34.7300 1707.0000 1.0000
34.7400 1693.0000 1.0000
34.7500 1632.0000 1.0000
34.7600 1628.0000 1.0000
34.7700 1582.0000 1.0000
34.7800 1652.0000 1.0000
34.7900 1609.0000 1.0000
34.8000 1581.0000 1.0000
34.8100 1534.0000 1.0000
34.8200 1533.0000 1.0000
34.8300 1527.0000 1.0000
34.8400 1479.0000 1.0000
34.8500 1450.0000 1.0000
34.8600 1476.0000 1.0000
34.8700 1425.0000 1.0000
34.8800 1437.0000 1.0000
34.8900 1415.0000 1.0000
34.9000 1418.0000 1.0000
34.9100 1364.0000 1.0000
34.9200 1310.0000 1.0000
34.9300 1415.0000 1.0000
34.9400 1345.0000 1.0000
34.9500 1339.0000 1.0000
34.9600 1411.0000 1.0000
34.9700 1356.0000 1.0000
34.9800 1353.0000 1.0000
34.9900 1355.0000 1.0000
35.0000 1330.0000 1.0000
35.0100 1298.0000 1.0000
35.0200 1325.0000 1.0000
35.0300 1373.0000 1.0000
35.0400 1319.0000 1.0000
35.0500 1258.0000 1.0000
35.0600 1275.0000 1.0000
35.0700 1283.0000 1.0000
35.0800 1299.0000 1.0000
35.0900 1281.0000 1.0000
35.1000 1273.0000 1.0000
35.1100 1195.0000 1.0000
35.1200 1249.0000 1.0000
35.1300 1328.0000 1.0000
35.1400 1308.0000 1.0000
35.1500 1304.0000 1.0000
35.1600 1285.0000 1.0000
35.1700 1272.0000 1.0000
35.1800 1289.0000 1.0000
35.1900 1270.0000 1.0000
35.2000 1306.0000 1.0000
35.2100 1283.0000 1.0000
35.2200 1229.0000 1.0000
35.2300 1248.0000 1.0000
35.2400 1195.0000 1.0000
35.2500 1192.0000 1.0000
35.2600 1232.0000 1.0000
35.2700 1286.0000 1.0000
35.2800 1283.0000 1.0000
35.2900 1252.0000 1.0000
35.3000 1249.0000 1.0000
35.3100 1214.0000 1.0000
35.3200 1254.0000 1.0000
35.3300 1266.0000 1.0000
35.3400 1242.0000 1.0000
35.3500 1218.0000 1.0000
35.3600 1234.0000 1.0000
35.3700 1239.0000 1.0000
35.3800 1191.0000 1.0000
35.3900 1214.0000 1.0000
35.4000 1250.0000 1.0000
35.4100 1289.0000 1.0000
35.4200 1222.0000 1.0000
35.4300 1174.0000 1.0000
35.4400 1223.0000 1.0000
35.4500 1206.0000 1.0000
35.4600 1181.0000 1.0000
35.4700 1228.0000 1.0000
35.4800 1178.0000 1.0000
35.4900 1242.0000 1.0000
35.5000 1197.0000 1.0000
35.5100 1183.0000 1.0000
35.5200 1161.0000 1.0000
35.5300 1195.0000 1.0000
35.5400 1219.0000 1.0000
35.5500 1195.0000 1.0000
35.5600 1172.0000 1.0000
35.5700 1177.0000 1.0000
35.5800 1177.0000 1.0000
35.5900 1181.0000 1.0000
35.6000 1163.0000 1.0000
35.6100 1198.0000 1.0000
35.6200 1157.0000 1.0000
35.6300 1181.0000 1.0000
35.6400 1185.0000 1.0000
35.6500 1233.0000 1.0000
35.6600 1168.0000 1.0000
35.6700 1247.0000 1.0000
35.6800 1196.0000 1.0000
35.6900 1199.0000 1.0000
35.7000 1207.0000 1.0000
35.7100 1201.0000 1.0000
35.7200 1152.0000 1.0000
35.7300 1209.0000 1.0000
35.7400 1192.0000 1.0000
35.7500 1141.0000 1.0000
35.7600 1182.0000 1.0000
35.7700 1222.0000 1.0000
35.7800 1207.0000 1.0000
35.7900 1209.0000 1.0000
35.8000 1213.0000 1.0000
35.8100 1184.0000 1.0000
35.8200 1144.0000 1.0000
35.8300 1173.0000 1.0000
35.8400 1171.0000 1.0000
35.8500 1204.0000 1.0000
35.8600 1199.0000 1.0000
35.8700 1157.0000 1.0000
35.8800 1170.0000 1.0000
35.8900 1167.0000 1.0000
35.9000 1235.0000 1.0000
35.9100 1175.0000 1.0000
35.9200 1133.0000 1.0000
35.9300 1176.0000 1.0000
35.9400 1150.0000 1.0000
35.9500 1183.0000 1.0000
35.9600 1195.0000 1.0000
35.9700 1142.0000 1.0000
35.9800 1207.0000 1.0000
35.9900 1173.0000 1.0000
36.0000 1140.0000 1.0000
36.0100 1165.0000 1.0000
36.0200 1146.0000 1.0000
36.0300 1167.0000 1.0000
36.0400 1199.0000 1.0000
36.0500 1253.0000 1.0000
36.0600 1254.0000 1.0000
36.0700 1239.0000 1.0000
36.0800 1215.0000 1.0000
36.0900 1224.0000 1.0000
36.1000 1170.0000 1.0000
36.1100 1176.0000 1.0000
36.1200 1254.0000 1.0000
36.1300 1285.0000 1.0000
36.1400 1214.0000 1.0000
36.1500 1315.0000 1.0000
36.1600 1276.0000 1.0000
36.1700 1324.0000 1.0000
36.1800 1337.0000 1.0000
36.1900 1349.0000 1.0000
36.2000 1278.0000 1.0000
36.2100 1338.0000 1.0000
36.2200 1358.0000 1.0000
36.2300 1331.0000 1.0000
36.2400 1360.0000 1.0000
36.2500 1390.0000 1.0000
36.2600 1437.0000 1.0000
36.2700 1381.0000 1.0000
36.2800 1421.0000 1.0000
36.2900 1505.0000 1.0000
36.3000 1511.0000 1.0000
36.3100 1520.0000 1.0000
36.3200 1564.0000 1.0000
36.3300 1556.0000 1.0000
36.3400 1478.0000 1.0000
36.3500 1558.0000 1.0000
36.3600 1570.0000 1.0000
36.3700 1621.0000 1.0000
36.3800 1582.0000 1.0000
36.3900 1629.0000 1.0000
36.4000 1583.0000 1.0000
36.4100 1594.0000 1.0000
36.4200 1580.0000 1.0000
36.4300 1566.0000 1.0000
36.4400 1578.0000 1.0000
36.4500 1540.0000 1.0000
36.4600 1568.0000 1.0000
36.4700 1590.0000 1.0000
36.4800 1461.0000 1.0000
36.4900 1488.0000 1.0000
36.5000 1475.0000 1.0000
36.5100 1419.0000 1.0000
36.5200 1353.0000 1.0000
36.5300 1331.0000 1.0000
36.5400 1348.0000 1.0000
36.5500 1340.0000 1.0000
36.5600 1318.0000 1.0000
36.5700 1276.0000 1.0000
36.5800 1289.0000 1.0000
36.5900 1264.0000 1.0000
36.6000 1246.0000 1.0000
36.6100 1215.0000 1.0000
36.6200 1177.0000 1.0000
36.6300 1248.0000 1.0000
36.6400 1243.0000 1.0000
36.6500 1233.0000 1.0000
36.6600 1203.0000 1.0000
36.6700 1166.0000 1.0000
36.6800 1149.0000 1.0000
36.6900 1123.0000 1.0000
36.7000 1127.0000 1.0000
36.7100 1182.0000 1.0000
36.7200 1188.0000 1.0000
36.7300 1214.0000 1.0000
36.7400 1144.0000 1.0000
36.7500 1111.0000 1.0000
36.7600 1133.0000 1.0000
36.7700 1117.0000 1.0000
36.7800 1091.0000 1.0000
36.7900 1120.0000 1.0000
36.8000 1146.0000 1.0000
36.8100 1082.0000 1.0000
36.8200 1125.0000 1.0000
36.8300 1094.0000 1.0000
36.8400 1082.0000 1.0000
36.8500 1126.0000 1.0000
36.8600 1143.0000 1.0000
36.8700 1089.0000 1.0000
36.8800 1137.0000 1.0000
36.8900 1140.0000 1.0000
36.9000 1079.0000 1.0000
36.9100 1069.0000 1.0000
36.9200 1152.0000 1.0000
36.9300 1132.0000 1.0000
36.9400 1056.0000 1.0000
36.9500 1092.0000 1.0000
36.9600 1127.0000 1.0000
36.9700 1127.0000 1.0000
36.9800 1085.0000 1.0000
36.9900 1024.0000 1.0000
37.0000 1070.0000 1.0000
37.0100 1037.0000 1.0000
37.0200 1055.0000 1.0000
37.0300 1078.0000 1.0000
37.0400 1091.0000 1.0000
37.0500 1056.0000 1.0000
37.0600 1092.0000 1.0000
37.0700 1079.0000 1.0000
37.0800 1066.0000 1.0000
37.0900 1059.0000 1.0000
37.1000 1127.0000 1.0000
37.1100 1089.0000 1.0000
37.1200 1077.0000 1.0000
37.1300 1093.0000 1.0000
37.1400 1086.0000 1.0000
37.1500 1062.0000 1.0000
37.1600 1049.0000 1.0000
37.1700 1058.0000 1.0000
37.1800 1105.0000 1.0000
37.1900 1087.0000 1.0000
37.2000 1130.0000 1.0000
37.2100 1092.0000 1.0000
37.2200 1119.0000 1.0000
37.2300 1129.0000 1.0000
37.2400 1141.0000 1.0000
37.2500 1124.0000 1.0000
37.2600 1102.0000 1.0000
37.2700 1107.0000 1.0000
37.2800 1073.0000 1.0000
37.2900 1086.0000 1.0000
37.3000 1092.0000 1.0000
37.3100 1083.0000 1.0000
37.3200 1113.0000 1.0000
37.3300 1046.0000 1.0000
37.3400 1093.0000 1.0000
37.3500 1070.0000 1.0000
37.3600 1050.0000 1.0000
37.3700 1070.0000 1.0000
37.3800 1091.0000 1.0000
37.3900 1082.0000 1.0000
37.4000 1161.0000 1.0000
37.4100 1117.0000 1.0000
37.4200 1089.0000 1.0000
37.4300 1049.0000 1.0000
37.4400 1090.0000 1.0000
37.4500 1093.0000 1.0000
37.4600 1115.0000 1.0000
37.4700 1033.0000 1.0000
37.4800 1048.0000 1.0000
37.4900 1069.0000 1.0000
37.5000 1105.0000 1.0000
37.5100 1070.0000 1.0000
37.5200 1070.0000 1.0000
37.5300 1076.0000 1.0000
37.5400 1103.0000 1.0000
37.5500 1120.0000 1.0000
37.5600 1087.0000 1.0000
37.5700 1066.0000 1.0000
37.5800 1084.0000 1.0000
37.5900 1027.0000 1.0000
37.6000 1066.0000 1.0000
37.6100 1113.0000 1.0000
37.6200 1111.0000 1.0000
37.6300 1080.0000 1.0000
37.6400 1046.0000 1.0000
37.6500 1053.0000 1.0000
37.6600 1112.0000 1.0000
37.6700 1058.0000 1.0000
37.6800 1108.0000 1.0000
37.6900 1117.0000 1.0000
37.7000 1082.0000 1.0000
37.7100 1111.0000 1.0000
37.7200 1106.0000 1.0000
37.7300 1077.0000 1.0000
37.7400 1167.0000 1.0000
37.7500 1084.0000 1.0000
37.7600 1088.0000 1.0000
37.7700 1100.0000 1.0000
37.7800 1077.0000 1.0000
37.7900 1113.0000 1.0000
37.8000 1112.0000 1.0000
37.8100 1115.0000 1.0000
37.8200 1126.0000 1.0000
37.8300 1096.0000 1.0000
37.8400 1127.0000 1.0000
37.8500 1157.0000 1.0000
37.8600 1124.0000 1.0000
37.8700 1143.0000 1.0000
37.8800 1186.0000 1.0000
37.8900 1174.0000 1.0000
37.9000 1149.0000 1.0000
37.9100 1140.0000 1.0000
37.9200 1109.0000 1.0000
37.9300 1068.0000 1.0000
37.9400 1190.0000 1.0000
37.9500 1155.0000 1.0000
37.9600 1189.0000 1.0000
37.9700 1158.0000 1.0000
37.9800 1216.0000 1.0000
37.9900 1209.0000 1.0000
38.0000 1217.0000 1.0000
38.0100 1196.0000 1.0000
38.0200 1182.0000 1.0000
38.0300 1165.0000 1.0000
38.0400 1222.0000 1.0000
38.0500 1262.0000 1.0000
38.0600 1248.0000 1.0000
38.0700 1283.0000 1.0000
38.0800 1333.0000 1.0000
38.0900 1389.0000 1.0000
38.1000 1358.0000 1.0000
38.1100 1350.0000 1.0000
38.1200 1417.0000 1.0000
38.1300 1488.0000 1.0000
38.1400 1525.0000 1.0000
38.1500 1524.0000 1.0000
38.1600 1521.0000 1.0000
38.1700 1555.0000 1.0000
38.1800 1564.0000 1.0000
38.1900 1675.0000 1.0000
38.2000 1687.0000 1.0000
38.2100 1755.0000 1.0000
38.2200 1827.0000 1.0000
38.2300 1847.0000 1.0000
38.2400 1930.0000 1.0000
38.2500 2018.0000 1.0000
38.2600 2202.0000 1.0000
38.2700 2203.0000 1.0000
38.2800 2361.0000 1.0000
38.2900 2361.0000 1.0000
38.3000 2622.0000 1.0000
38.3100 2717.0000 1.0000
38.3200 2872.0000 1.0000
38.3300 3099.0000 1.0000
38.3400 3291.0000 1.0000
38.3500 3475.0000 1.0000
38.3600 3683.0000 1.0000
38.3700 4025.0000 1.0000
38.3800 4214.0000 1.0000
38.3900 4656.0000 1.0000
38.4000 5097.0000 1.0000
38.4100 5318.0000 1.0000
38.4200 5750.0000 1.0000
38.4300 6289.0000 1.0000
38.4400 6568.0000 1.0000
38.4500 6976.0000 1.0000
38.4600 7517.0000 1.0000
38.4700 7682.0000 1.0000
38.4800 7980.0000 1.0000
38.4900 8273.0000 1.0000
38.5000 8235.0000 1.0000
38.5100 8289.0000 1.0000
38.5200 8446.0000 1.0000
38.5300 8107.0000 1.0000
38.5400 8255.0000 1.0000
38.5500 7751.0000 1.0000
38.5600 7649.0000 1.0000
38.5700 7636.0000 1.0000
38.5800 7241.0000 1.0000
38.5900 6928.0000 1.0000
38.6000 6566.0000 1.0000
38.6100 6158.0000 1.0000
38.6200 5908.0000 1.0000
38.6300 5618.0000 1.0000
38.6400 5184.0000 1.0000
38.6500 4867.0000 1.0000
38.6600 4463.0000 1.0000
38.6700 4301.0000 1.0000
38.6800 4000.0000 1.0000
38.6900 3587.0000 1.0000
38.7000 3501.0000 1.0000
38.7100 3171.0000 1.0000
38.7200 2949.0000 1.0000
38.7300 2832.0000 1.0000
38.7400 2686.0000 1.0000
38.7500 2389.0000 1.0000
38.7600 2326.0000 1.0000
38.7700 2203.0000 1.0000
38.7800 2061.0000 1.0000
38.7900 2008.0000 1.0000
38.8000 1896.0000 1.0000
38.8100 1819.0000 1.0000
38.8200 1758.0000 1.0000
38.8300 1652.0000 1.0000
38.8400 1631.0000 1.0000
38.8500 1626.0000 1.0000
38.8600 1520.0000 1.0000
38.8700 1452.0000 1.0000
38.8800 1459.0000 1.0000
38.8900 1352.0000 1.0000
38.9000 1381.0000 1.0000
38.9100 1348.0000 1.0000
38.9200 1313.0000 1.0000
38.9300 1252.0000 1.0000
38.9400 1266.0000 1.0000
38.9500 1269.0000 1.0000
38.9600 1232.0000 1.0000
38.9700 1252.0000 1.0000
38.9800 1219.0000 1.0000
38.9900 1192.0000 1.0000
39.0000 1130.0000 1.0000
39.0100 1175.0000 1.0000
39.0200 1166.0000 1.0000
39.0300 1131.0000 1.0000
39.0400 1129.0000 1.0000
39.0500 1135.0000 1.0000
39.0600 1120.0000 1.0000
39.0700 1116.0000 1.0000
39.0800 1086.0000 1.0000
39.0900 1067.0000 1.0000
39.1000 1041.0000 1.0000
39.1100 1102.0000 1.0000
39.1200 1063.0000 1.0000
39.1300 1092.0000 1.0000
39.1400 1067.0000 1.0000
39.1500 1051.0000 1.0000
39.1600 1028.0000 1.0000
39.1700 1011.0000 1.0000
39.1800 1012.0000 1.0000
39.1900 988.0000 1.0000
39.2000 999.0000 1.0000
39.2100 1034.0000 1.0000
39.2200 1014.0000 1.0000
39.2300 1017.0000 1.0000
39.2400 1007.0000 1.0000
39.2500 1032.0000 1.0000
39.2600 1006.0000 1.0000
39.2700 1021.0000 1.0000
39.2800 1039.0000 1.0000
39.2900 1032.0000 1.0000
39.3000 1030.0000 1.0000
39.3100 1011.0000 1.0000
39.3200 991.0000 1.0000
39.3300 1062.0000 1.0000
39.3400 972.0000 1.0000
39.3500 945.0000 1.0000
39.3600 1006.0000 1.0000
39.3700 965.0000 1.0000
39.3800 980.0000 1.0000
39.3900 985.0000 1.0000
39.4000 993.0000 1.0000
39.4100 1015.0000 1.0000
39.4200 990.0000 1.0000
39.4300 1018.0000 1.0000
39.4400 1008.0000 1.0000
39.4500 1012.0000 1.0000
39.4600 989.0000 1.0000
39.4700 1044.0000 1.0000
39.4800 1042.0000 1.0000
39.4900 1020.0000 1.0000
39.5000 991.0000 1.0000
39.5100 946.0000 1.0000
39.5200 1005.0000 1.0000
39.5300 989.0000 1.0000
39.5400 1061.0000 1.0000
39.5500 1039.0000 1.0000
39.5600 1052.0000 1.0000
39.5700 1028.0000 1.0000
39.5800 1024.0000 1.0000
39.5900 1048.0000 1.0000
39.6000 1024.0000 1.0000
39.6100 1048.0000 1.0000
39.6200 1015.0000 1.0000
39.6300 1024.0000 1.0000
39.6400 994.0000 1.0000
39.6500 961.0000 1.0000
39.6600 985.0000 1.0000
39.6700 1006.0000 1.0000
39.6800 1008.0000 1.0000
39.6900 993.0000 1.0000
39.7000 991.0000 1.0000
39.7100 976.0000 1.0000
39.7200 1031.0000 1.0000
39.7300 911.0000 1.0000
39.7400 961.0000 1.0000
39.7500 930.0000 1.0000
39.7600 945.0000 1.0000
39.7700 925.0000 1.0000
39.7800 959.0000 1.0000
39.7900 950.0000 1.0000
39.8000 931.0000 1.0000
39.8100 919.0000 1.0000
39.8200 961.0000 1.0000
39.8300 963.0000 1.0000
39.8400 927.0000 1.0000
39.8500 924.0000 1.0000
39.8600 935.0000 1.0000
39.8700 872.0000 1.0000
39.8800 921.0000 1.0000
39.8900 914.0000 1.0000
39.9000 934.0000 1.0000
39.9100 883.0000 1.0000
39.9200 916.0000 1.0000
39.9300 944.0000 1.0000
39.9400 947.0000 1.0000
39.9500 950.0000 1.0000
39.9600 905.0000 1.0000
39.9700 890.0000 1.0000
39.9800 881.0000 1.0000
39.9900 955.0000 1.0000
40.0000 935.0000 1.0000
40.0100 941.0000 1.0000
40.0200 984.0000 1.0000
40.0300 949.0000 1.0000
40.0400 915.0000 1.0000
40.0500 901.0000 1.0000
40.0600 941.0000 1.0000
40.0700 911.0000 1.0000
40.0800 916.0000 1.0000
40.0900 906.0000 1.0000
40.1000 923.0000 1.0000
40.1100 902.0000 1.0000
40.1200 922.0000 1.0000
40.1300 945.0000 1.0000
40.1400 948.0000 1.0000
40.1500 913.0000 1.0000
40.1600 914.0000 1.0000
40.1700 935.0000 1.0000
40.1800 877.0000 1.0000
40.1900 875.0000 1.0000
40.2000 951.0000 1.0000
40.2100 913.0000 1.0000
40.2200 883.0000 1.0000
40.2300 891.0000 1.0000
40.2400 881.0000 1.0000
40.2500 906.0000 1.0000
40.2600 864.0000 1.0000
40.2700 867.0000 1.0000
40.2800 879.0000 1.0000
40.2900 860.0000 1.0000
40.3000 905.0000 1.0000
40.3100 929.0000 1.0000
40.3200 903.0000 1.0000
40.3300 885.0000 1.0000
40.3400 867.0000 1.0000
40.3500 865.0000 1.0000
40.3600 893.0000 1.0000
40.3700 876.0000 1.0000
40.3800 886.0000 1.0000
40.3900 894.0000 1.0000
40.4000 860.0000 1.0000
40.4100 841.0000 1.0000
40.4200 916.0000 1.0000
40.4300 918.0000 1.0000
40.4400 868.0000 1.0000
40.4500 854.0000 1.0000
40.4600 887.0000 1.0000
40.4700 941.0000 1.0000
40.4800 904.0000 1.0000
40.4900 935.0000 1.0000
40.5000 881.0000 1.0000
40.5100 857.0000 1.0000
40.5200 825.0000 1.0000
40.5300 875.0000 1.0000
40.5400 833.0000 1.0000
40.5500 872.0000 1.0000
40.5600 902.0000 1.0000
40.5700 891.0000 1.0000
40.5800 887.0000 1.0000
40.5900 871.0000 1.0000
40.6000 855.0000 1.0000
40.6100 873.0000 1.0000
40.6200 947.0000 1.0000
40.6300 867.0000 1.0000
40.6400 876.0000 1.0000
40.6500 877.0000 1.0000
40.6600 821.0000 1.0000
40.6700 915.0000 1.0000
40.6800 913.0000 1.0000
40.6900 863.0000 1.0000
40.7000 856.0000 1.0000
40.7100 868.0000 1.0000
40.7200 891.0000 1.0000
40.7300 882.0000 1.0000
40.7400 852.0000 1.0000
40.7500 886.0000 1.0000
40.7600 855.0000 1.0000
40.7700 877.0000 1.0000
40.7800 866.0000 1.0000
40.7900 882.0000 1.0000
40.8000 894.0000 1.0000
40.8100 896.0000 1.0000
40.8200 909.0000 1.0000
40.8300 884.0000 1.0000
40.8400 910.0000 1.0000
40.8500 879.0000 1.0000
40.8600 939.0000 1.0000
40.8700 884.0000 1.0000
40.8800 890.0000 1.0000
40.8900 852.0000 1.0000
40.9000 865.0000 1.0000
40.9100 882.0000 1.0000
40.9200 896.0000 1.0000
40.9300 918.0000 1.0000
40.9400 853.0000 1.0000
40.9500 873.0000 1.0000
40.9600 858.0000 1.0000
40.9700 834.0000 1.0000
40.9800 822.0000 1.0000
40.9900 854.0000 1.0000
41.0000 885.0000 1.0000
41.0100 861.0000 1.0000
41.0200 846.0000 1.0000
41.0300 874.0000 1.0000
41.0400 873.0000 1.0000
41.0500 890.0000 1.0000
41.0600 891.0000 1.0000
41.0700 870.0000 1.0000
41.0800 845.0000 1.0000
41.0900 861.0000 1.0000
41.1000 842.0000 1.0000
41.1100 870.0000 1.0000
41.1200 944.0000 1.0000
41.1300 884.0000 1.0000
41.1400 877.0000 1.0000
41.1500 874.0000 1.0000
41.1600 851.0000 1.0000
41.1700 888.0000 1.0000
41.1800 866.0000 1.0000
41.1900 865.0000 1.0000
41.2000 883.0000 1.0000
41.2100 885.0000 1.0000
41.2200 870.0000 1.0000
41.2300 841.0000 1.0000
41.2400 858.0000 1.0000
41.2500 841.0000 1.0000
41.2600 884.0000 1.0000
41.2700 834.0000 1.0000
41.2800 855.0000 1.0000
41.2900 890.0000 1.0000
41.3000 858.0000 1.0000
41.3100 857.0000 1.0000
41.3200 878.0000 1.0000
41.3300 828.0000 1.0000
41.3400 893.0000 1.0000
41.3500 902.0000 1.0000
41.3600 911.0000 1.0000
41.3700 909.0000 1.0000
41.3800 909.0000 1.0000
41.3900 879.0000 1.0000
41.4000 897.0000 1.0000
41.4100 957.0000 1.0000
41.4200 867.0000 1.0000
41.4300 840.0000 1.0000
41.4400 876.0000 1.0000
41.4500 880.0000 1.0000
41.4600 877.0000 1.0000
41.4700 881.0000 1.0000
41.4800 888.0000 1.0000
41.4900 852.0000 1.0000
41.5000 810.0000 1.0000
41.5100 925.0000 1.0000
41.5200 867.0000 1.0000
41.5300 860.0000 1.0000
41.5400 890.0000 1.0000
41.5500 936.0000 1.0000
41.5600 872.0000 1.0000
41.5700 841.0000 1.0000
41.5800 891.0000 1.0000
41.5900 881.0000 1.0000
41.6000 870.0000 1.0000
41.6100 895.0000 1.0000
41.6200 849.0000 1.0000
41.6300 831.0000 1.0000
41.6400 893.0000 1.0000
41.6500 847.0000 1.0000
41.6600 897.0000 1.0000
41.6700 837.0000 1.0000
41.6800 875.0000 1.0000
41.6900 857.0000 1.0000
41.7000 865.0000 1.0000
41.7100 880.0000 1.0000
41.7200 922.0000 1.0000
41.7300 905.0000 1.0000
41.7400 917.0000 1.0000
41.7500 857.0000 1.0000
41.7600 885.0000 1.0000
41.7700 851.0000 1.0000
41.7800 882.0000 1.0000
41.7900 858.0000 1.0000
41.8000 905.0000 1.0000
41.8100 843.0000 1.0000
41.8200 874.0000 1.0000
41.8300 834.0000 1.0000
41.8400 841.0000 1.0000
41.8500 809.0000 1.0000
41.8600 894.0000 1.0000
41.8700 924.0000 1.0000
41.8800 826.0000 1.0000
41.8900 800.0000 1.0000
41.9000 848.0000 1.0000
41.9100 842.0000 1.0000
41.9200 858.0000 1.0000
41.9300 873.0000 1.0000
41.9400 832.0000 1.0000
41.9500 826.0000 1.0000
41.9600 885.0000 1.0000
41.9700 814.0000 1.0000
41.9800 855.0000 1.0000
41.9900 856.0000 1.0000
42.0000 859.0000 1.0000
42.0100 886.0000 1.0000
42.0200 908.0000 1.0000
42.0300 857.0000 1.0000
42.0400 864.0000 1.0000
42.0500 850.0000 1.0000
42.0600 905.0000 1.0000
42.0700 879.0000 1.0000
42.0800 836.0000 1.0000
42.0900 871.0000 1.0000
42.1000 847.0000 1.0000
42.1100 818.0000 1.0000
42.1200 847.0000 1.0000
42.1300 858.0000 1.0000
42.1400 879.0000 1.0000
42.1500 875.0000 1.0000
42.1600 839.0000 1.0000
42.1700 873.0000 1.0000
42.1800 845.0000 1.0000
42.1900 889.0000 1.0000
42.2000 870.0000 1.0000
42.2100 827.0000 1.0000
42.2200 847.0000 1.0000
42.2300 860.0000 1.0000
42.2400 826.0000 1.0000
42.2500 849.0000 1.0000
42.2600 830.0000 1.0000
42.2700 862.0000 1.0000
42.2800 897.0000 1.0000
42.2900 888.0000 1.0000
42.3000 856.0000 1.0000
42.3100 866.0000 1.0000
42.3200 844.0000 1.0000
42.3300 887.0000 1.0000
42.3400 889.0000 1.0000
42.3500 855.0000 1.0000
42.3600 908.0000 1.0000
42.3700 871.0000 1.0000
42.3800 869.0000 1.0000
42.3900 855.0000 1.0000
42.4000 849.0000 1.0000
42.4100 856.0000 1.0000
42.4200 842.0000 1.0000
42.4300 829.0000 1.0000
42.4400 869.0000 1.0000
42.4500 855.0000 1.0000
42.4600 777.0000 1.0000
42.4700 859.0000 1.0000
42.4800 849.0000 1.0000
42.4900 856.0000 1.0000
42.5000 851.0000 1.0000
42.5100 829.0000 1.0000
42.5200 832.0000 1.0000
42.5300 855.0000 1.0000
42.5400 792.0000 1.0000
42.5500 870.0000 1.0000
42.5600 882.0000 1.0000
42.5700 860.0000 1.0000
42.5800 887.0000 1.0000
42.5900 833.0000 1.0000
42.6000 865.0000 1.0000
42.6100 859.0000 1.0000
42.6200 818.0000 1.0000
42.6300 876.0000 1.0000
42.6400 866.0000 1.0000
42.6500 913.0000 1.0000
42.6600 840.0000 1.0000
42.6700 847.0000 1.0000
42.6800 851.0000 1.0000
42.6900 860.0000 1.0000
42.7000 897.0000 1.0000
42.7100 872.0000 1.0000
42.7200 869.0000 1.0000
42.7300 862.0000 1.0000
42.7400 858.0000 1.0000
42.7500 914.0000 1.0000
42.7600 869.0000 1.0000
42.7700 880.0000 1.0000
42.7800 847.0000 1.0000
42.7900 837.0000 1.0000
42.8000 829.0000 1.0000
42.8100 844.0000 1.0000
42.8200 879.0000 1.0000
42.8300 876.0000 1.0000
42.8400 829.0000 1.0000
42.8500 852.0000 1.0000
42.8600 817.0000 1.0000
42.8700 873.0000 1.0000
42.8800 852.0000 1.0000
42.8900 837.0000 1.0000
42.9000 835.0000 1.0000
42.9100 846.0000 1.0000
42.9200 840.0000 1.0000
42.9300 793.0000 1.0000
42.9400 841.0000 1.0000
42.9500 880.0000 1.0000
42.9600 890.0000 1.0000
42.9700 875.0000 1.0000
42.9800 880.0000 1.0000
42.9900 941.0000 1.0000
43.0000 909.0000 1.0000
43.0100 859.0000 1.0000
43.0200 881.0000 1.0000
43.0300 912.0000 1.0000
43.0400 885.0000 1.0000
43.0500 855.0000 1.0000
43.0600 890.0000 1.0000
43.0700 918.0000 1.0000
43.0800 851.0000 1.0000
43.0900 904.0000 1.0000
43.1000 946.0000 1.0000
43.1100 942.0000 1.0000
43.1200 958.0000 1.0000
43.1300 942.0000 1.0000
43.1400 903.0000 1.0000
43.1500 907.0000 1.0000
43.1600 934.0000 1.0000
43.1700 949.0000 1.0000
43.1800 929.0000 1.0000
43.1900 917.0000 1.0000
43.2000 980.0000 1.0000
43.2100 933.0000 1.0000
43.2200 962.0000 1.0000
43.2300 937.0000 1.0000
43.2400 946.0000 1.0000
43.2500 905.0000 1.0000
43.2600 915.0000 1.0000
43.2700 927.0000 1.0000
43.2800 975.0000 1.0000
43.2900 919.0000 1.0000
43.3000 947.0000 1.0000
43.3100 912.0000 1.0000
43.3200 915.0000 1.0000
43.3300 910.0000 1.0000
43.3400 898.0000 1.0000
43.3500 861.0000 1.0000
43.3600 890.0000 1.0000
43.3700 928.0000 1.0000
43.3800 921.0000 1.0000
43.3900 877.0000 1.0000
43.4000 870.0000 1.0000
43.4100 874.0000 1.0000
43.4200 879.0000 1.0000
43.4300 885.0000 1.0000
43.4400 841.0000 1.0000
43.4500 851.0000 1.0000
43.4600 869.0000 1.0000
43.4700 887.0000 1.0000
43.4800 869.0000 1.0000
43.4900 899.0000 1.0000
43.5000 876.0000 1.0000
43.5100 860.0000 1.0000
43.5200 834.0000 1.0000
43.5300 868.0000 1.0000
43.5400 813.0000 1.0000
43.5500 817.0000 1.0000
43.5600 779.0000 1.0000
43.5700 802.0000 1.0000
43.5800 884.0000 1.0000
43.5900 901.0000 1.0000
43.6000 856.0000 1.0000
43.6100 836.0000 1.0000
43.6200 831.0000 1.0000
43.6300 867.0000 1.0000
43.6400 873.0000 1.0000
43.6500 845.0000 1.0000
43.6600 835.0000 1.0000
43.6700 860.0000 1.0000
43.6800 819.0000 1.0000
43.6900 861.0000 1.0000
43.7000 885.0000 1.0000
43.7100 850.0000 1.0000
43.7200 797.0000 1.0000
43.7300 844.0000 1.0000
43.7400 862.0000 1.0000
43.7500 842.0000 1.0000
43.7600 809.0000 1.0000
43.7700 810.0000 1.0000
43.7800 838.0000 1.0000
43.7900 871.0000 1.0000
43.8000 824.0000 1.0000
43.8100 848.0000 1.0000
43.8200 840.0000 1.0000
43.8300 811.0000 1.0000
43.8400 863.0000 1.0000
43.8500 839.0000 1.0000
43.8600 848.0000 1.0000
43.8700 804.0000 1.0000
43.8800 783.0000 1.0000
43.8900 816.0000 1.0000
43.9000 820.0000 1.0000
43.9100 802.0000 1.0000
43.9200 859.0000 1.0000
43.9300 806.0000 1.0000
43.9400 823.0000 1.0000
43.9500 819.0000 1.0000
43.9600 861.0000 1.0000
43.9700 850.0000 1.0000
43.9800 873.0000 1.0000
43.9900 829.0000 1.0000
44.0000 829.0000 1.0000
44.0100 824.0000 1.0000
44.0200 775.0000 1.0000
44.0300 807.0000 1.0000
44.0400 831.0000 1.0000
44.0500 799.0000 1.0000
44.0600 833.0000 1.0000
44.0700 818.0000 1.0000
44.0800 844.0000 1.0000
44.0900 846.0000 1.0000
44.1000 821.0000 1.0000
44.1100 832.0000 1.0000
44.1200 834.0000 1.0000
44.1300 786.0000 1.0000
44.1400 822.0000 1.0000
44.1500 830.0000 1.0000
44.1600 791.0000 1.0000
44.1700 842.0000 1.0000
44.1800 841.0000 1.0000
44.1900 783.0000 1.0000
44.2000 816.0000 1.0000
44.2100 821.0000 1.0000
44.2200 836.0000 1.0000
44.2300 852.0000 1.0000
44.2400 822.0000 1.0000
44.2500 835.0000 1.0000
44.2600 889.0000 1.0000
44.2700 860.0000 1.0000
44.2800 842.0000 1.0000
44.2900 850.0000 1.0000
44.3000 811.0000 1.0000
44.3100 813.0000 1.0000
44.3200 823.0000 1.0000
44.3300 834.0000 1.0000
44.3400 812.0000 1.0000
44.3500 816.0000 1.0000
44.3600 806.0000 1.0000
44.3700 840.0000 1.0000
44.3800 825.0000 1.0000
44.3900 869.0000 1.0000
44.4000 852.0000 1.0000
44.4100 801.0000 1.0000
44.4200 809.0000 1.0000
44.4300 833.0000 1.0000
44.4400 840.0000 1.0000
44.4500 818.0000 1.0000
44.4600 806.0000 1.0000
44.4700 807.0000 1.0000
44.4800 804.0000 1.0000
44.4900 856.0000 1.0000
44.5000 800.0000 1.0000
44.5100 775.0000 1.0000
44.5200 793.0000 1.0000
44.5300 802.0000 1.0000
44.5400 816.0000 1.0000
44.5500 820.0000 1.0000
44.5600 763.0000 1.0000
44.5700 837.0000 1.0000
44.5800 815.0000 1.0000
44.5900 841.0000 1.0000
44.6000 782.0000 1.0000
44.6100 799.0000 1.0000
44.6200 816.0000 1.0000
44.6300 779.0000 1.0000
44.6400 811.0000 1.0000
44.6500 841.0000 1.0000
44.6600 776.0000 1.0000
44.6700 814.0000 1.0000
44.6800 781.0000 1.0000
44.6900 818.0000 1.0000
44.7000 796.0000 1.0000
44.7100 830.0000 1.0000
44.7200 772.0000 1.0000
44.7300 834.0000 1.0000
44.7400 879.0000 1.0000
44.7500 825.0000 1.0000
44.7600 798.0000 1.0000
44.7700 850.0000 1.0000
44.7800 804.0000 1.0000
44.7900 841.0000 1.0000
44.8000 803.0000 1.0000
44.8100 814.0000 1.0000
44.8200 798.0000 1.0000
44.8300 818.0000 1.0000
44.8400 809.0000 1.0000
44.8500 842.0000 1.0000
44.8600 826.0000 1.0000
44.8700 862.0000 1.0000
44.8800 790.0000 1.0000
44.8900 793.0000 1.0000
44.9000 778.0000 1.0000
44.9100 863.0000 1.0000
44.9200 806.0000 1.0000
44.9300 811.0000 1.0000
44.9400 848.0000 1.0000
44.9500 819.0000 1.0000
44.9600 795.0000 1.0000
44.9700 805.0000 1.0000
44.9800 792.0000 1.0000
44.9900 815.0000 1.0000
45.0000 803.0000 1.0000
45.0100 815.0000 1.0000
45.0200 830.0000 1.0000
45.0300 799.0000 1.0000
45.0400 824.0000 1.0000
45.0500 796.0000 1.0000
45.0600 800.0000 1.0000
45.0700 833.0000 1.0000
45.0800 804.0000 1.0000
45.0900 824.0000 1.0000
45.1000 821.0000 1.0000
45.1100 830.0000 1.0000
45.1200 811.0000 1.0000
45.1300 798.0000 1.0000
45.1400 839.0000 1.0000
45.1500 769.0000 1.0000
45.1600 775.0000 1.0000
45.1700 803.0000 1.0000
45.1800 799.0000 1.0000
45.1900 858.0000 1.0000
45.2000 806.0000 1.0000
45.2100 820.0000 1.0000
45.2200 796.0000 1.0000
45.2300 812.0000 1.0000
45.2400 757.0000 1.0000
45.2500 780.0000 1.0000
45.2600 782.0000 1.0000
45.2700 806.0000 1.0000
45.2800 785.0000 1.0000
45.2900 777.0000 1.0000
45.3000 794.0000 1.0000
45.3100 769.0000 1.0000
45.3200 794.0000 1.0000
45.3300 803.0000 1.0000
45.3400 787.0000 1.0000
45.3500 825.0000 1.0000
45.3600 813.0000 1.0000
45.3700 826.0000 1.0000
45.3800 798.0000 1.0000
45.3900 794.0000 1.0000
45.4000 798.0000 1.0000
45.4100 774.0000 1.0000
45.4200 779.0000 1.0000
45.4300 816.0000 1.0000
45.4400 754.0000 1.0000
45.4500 787.0000 1.0000
45.4600 783.0000 1.0000
45.4700 767.0000 1.0000
45.4800 789.0000 1.0000
45.4900 784.0000 1.0000
45.5000 816.0000 1.0000
45.5100 826.0000 1.0000
45.5200 772.0000 1.0000
45.5300 768.0000 1.0000
45.5400 806.0000 1.0000
45.5500 769.0000 1.0000
45.5600 769.0000 1.0000
45.5700 784.0000 1.0000
45.5800 804.0000 1.0000
45.5900 810.0000 1.0000
45.6000 822.0000 1.0000
45.6100 780.0000 1.0000
45.6200 824.0000 1.0000
45.6300 793.0000 1.0000
45.6400 810.0000 1.0000
45.6500 819.0000 1.0000
45.6600 821.0000 1.0000
45.6700 791.0000 1.0000
45.6800 770.0000 1.0000
45.6900 767.0000 1.0000
45.7000 781.0000 1.0000
45.7100 766.0000 1.0000
45.7200 769.0000 1.0000
45.7300 867.0000 1.0000
45.7400 808.0000 1.0000
45.7500 808.0000 1.0000
45.7600 798.0000 1.0000
45.7700 816.0000 1.0000
45.7800 812.0000 1.0000
45.7900 752.0000 1.0000
45.8000 795.0000 1.0000
45.8100 753.0000 1.0000
45.8200 756.0000 1.0000
45.8300 806.0000 1.0000
45.8400 785.0000 1.0000
45.8500 754.0000 1.0000
45.8600 760.0000 1.0000
45.8700 819.0000 1.0000
45.8800 803.0000 1.0000
45.8900 788.0000 1.0000
45.9000 759.0000 1.0000
45.9100 792.0000 1.0000
45.9200 855.0000 1.0000
45.9300 801.0000 1.0000
45.9400 742.0000 1.0000
45.9500 770.0000 1.0000
45.9600 781.0000 1.0000
45.9700 805.0000 1.0000
45.9800 760.0000 1.0000
45.9900 773.0000 1.0000
46.0000 777.0000 1.0000
46.0100 792.0000 1.0000
46.0200 777.0000 1.0000
46.0300 766.0000 1.0000
46.0400 803.0000 1.0000
46.0500 783.0000 1.0000
46.0600 802.0000 1.0000
46.0700 804.0000 1.0000
46.0800 812.0000 1.0000
46.0900 796.0000 1.0000
46.1000 773.0000 1.0000
46.1100 796.0000 1.0000
46.1200 765.0000 1.0000
46.1300 812.0000 1.0000
46.1400 726.0000 1.0000
46.1500 749.0000 1.0000
46.1600 775.0000 1.0000
46.1700 751.0000 1.0000
46.1800 789.0000 1.0000
46.1900 790.0000 1.0000
46.2000 759.0000 1.0000
46.2100 766.0000 1.0000
46.2200 794.0000 1.0000
46.2300 756.0000 1.0000
46.2400 772.0000 1.0000
46.2500 786.0000 1.0000
46.2600 735.0000 1.0000
46.2700 742.0000 1.0000
46.2800 747.0000 1.0000
46.2900 728.0000 1.0000
46.3000 796.0000 1.0000
46.3100 782.0000 1.0000
46.3200 821.0000 1.0000
46.3300 809.0000 1.0000
46.3400 824.0000 1.0000
46.3500 772.0000 1.0000
46.3600 817.0000 1.0000
46.3700 756.0000 1.0000
46.3800 787.0000 1.0000
46.3900 822.0000 1.0000
46.4000 796.0000 1.0000
46.4100 768.0000 1.0000
46.4200 749.0000 1.0000
46.4300 817.0000 1.0000
46.4400 802.0000 1.0000
46.4500 793.0000 1.0000
46.4600 764.0000 1.0000
46.4700 782.0000 1.0000
46.4800 790.0000 1.0000
46.4900 786.0000 1.0000
46.5000 756.0000 1.0000
46.5100 819.0000 1.0000
46.5200 779.0000 1.0000
46.5300 764.0000 1.0000
46.5400 780.0000 1.0000
46.5500 748.0000 1.0000
46.5600 785.0000 1.0000
46.5700 749.0000 1.0000
46.5800 757.0000 1.0000
46.5900 799.0000 1.0000
46.6000 841.0000 1.0000
46.6100 738.0000 1.0000
46.6200 766.0000 1.0000
46.6300 794.0000 1.0000
46.6400 789.0000 1.0000
46.6500 810.0000 1.0000
46.6600 798.0000 1.0000
46.6700 793.0000 1.0000
46.6800 744.0000 1.0000
46.6900 774.0000 1.0000
46.7000 768.0000 1.0000
46.7100 737.0000 1.0000
46.7200 765.0000 1.0000
46.7300 765.0000 1.0000
46.7400 749.0000 1.0000
46.7500 796.0000 1.0000
46.7600 781.0000 1.0000
46.7700 767.0000 1.0000
46.7800 783.0000 1.0000
46.7900 746.0000 1.0000
46.8000 808.0000 1.0000
46.8100 794.0000 1.0000
46.8200 804.0000 1.0000
46.8300 782.0000 1.0000
46.8400 776.0000 1.0000
46.8500 811.0000 1.0000
46.8600 778.0000 1.0000
46.8700 753.0000 1.0000
46.8800 780.0000 1.0000
46.8900 793.0000 1.0000
46.9000 815.0000 1.0000
46.9100 775.0000 1.0000
46.9200 824.0000 1.0000
46.9300 768.0000 1.0000
46.9400 784.0000 1.0000
46.9500 805.0000 1.0000
46.9600 791.0000 1.0000
46.9700 760.0000 1.0000
46.9800 790.0000 1.0000
46.9900 822.0000 1.0000
47.0000 793.0000 1.0000
47.0100 789.0000 1.0000
47.0200 839.0000 1.0000
47.0300 817.0000 1.0000
47.0400 846.0000 1.0000
47.0500 762.0000 1.0000
47.0600 761.0000 1.0000
47.0700 808.0000 1.0000
47.0800 735.0000 1.0000
47.0900 788.0000 1.0000
47.1000 758.0000 1.0000
47.1100 781.0000 1.0000
47.1200 765.0000 1.0000
47.1300 763.0000 1.0000
47.1400 785.0000 1.0000
47.1500 781.0000 1.0000
47.1600 765.0000 1.0000
47.1700 715.0000 1.0000
47.1800 795.0000 1.0000
47.1900 790.0000 1.0000
47.2000 729.0000 1.0000
47.2100 748.0000 1.0000
47.2200 767.0000 1.0000
47.2300 781.0000 1.0000
47.2400 780.0000 1.0000
47.2500 770.0000 1.0000
47.2600 784.0000 1.0000
47.2700 800.0000 1.0000
47.2800 803.0000 1.0000
47.2900 813.0000 1.0000
47.3000 783.0000 1.0000
47.3100 798.0000 1.0000
47.3200 776.0000 1.0000
47.3300 790.0000 1.0000
47.3400 805.0000 1.0000
47.3500 814.0000 1.0000
47.3600 763.0000 1.0000
47.3700 730.0000 1.0000
47.3800 784.0000 1.0000
47.3900 760.0000 1.0000
47.4000 767.0000 1.0000
47.4100 760.0000 1.0000
47.4200 744.0000 1.0000
47.4300 732.0000 1.0000
47.4400 778.0000 1.0000
47.4500 747.0000 1.0000
47.4600 766.0000 1.0000
47.4700 782.0000 1.0000
47.4800 724.0000 1.0000
47.4900 749.0000 1.0000
47.5000 775.0000 1.0000
47.5100 750.0000 1.0000
47.5200 753.0000 1.0000
47.5300 806.0000 1.0000
47.5400 725.0000 1.0000
47.5500 805.0000 1.0000
47.5600 815.0000 1.0000
47.5700 777.0000 1.0000
47.5800 726.0000 1.0000
47.5900 734.0000 1.0000
47.6000 747.0000 1.0000
47.6100 750.0000 1.0000
47.6200 755.0000 1.0000
47.6300 715.0000 1.0000
47.6400 755.0000 1.0000
47.6500 738.0000 1.0000
47.6600 763.0000 1.0000
47.6700 739.0000 1.0000
47.6800 761.0000 1.0000
47.6900 742.0000 1.0000
47.7000 765.0000 1.0000
47.7100 754.0000 1.0000
47.7200 735.0000 1.0000
47.7300 728.0000 1.0000
47.7400 729.0000 1.0000
47.7500 730.0000 1.0000
47.7600 718.0000 1.0000
47.7700 755.0000 1.0000
47.7800 753.0000 1.0000
47.7900 752.0000 1.0000
47.8000 749.0000 1.0000
47.8100 729.0000 1.0000
47.8200 742.0000 1.0000
47.8300 746.0000 1.0000
47.8400 720.0000 1.0000
47.8500 727.0000 1.0000
47.8600 770.0000 1.0000
47.8700 718.0000 1.0000
47.8800 745.0000 1.0000
47.8900 816.0000 1.0000
47.9000 757.0000 1.0000
47.9100 757.0000 1.0000
47.9200 770.0000 1.0000
47.9300 750.0000 1.0000
47.9400 717.0000 1.0000
47.9500 771.0000 1.0000
47.9600 804.0000 1.0000
47.9700 779.0000 1.0000
47.9800 729.0000 1.0000
47.9900 712.0000 1.0000
48.0000 716.0000 1.0000
48.0100 691.0000 1.0000
48.0200 721.0000 1.0000
48.0300 756.0000 1.0000
48.0400 721.0000 1.0000
48.0500 719.0000 1.0000
48.0600 740.0000 1.0000
48.0700 731.0000 1.0000
48.0800 720.0000 1.0000
48.0900 721.0000 1.0000
48.1000 740.0000 1.0000
48.1100 687.0000 1.0000
48.1200 761.0000 1.0000
48.1300 724.0000 1.0000
48.1400 723.0000 1.0000
48.1500 740.0000 1.0000
48.1600 757.0000 1.0000
48.1700 745.0000 1.0000
48.1800 729.0000 1.0000
48.1900 749.0000 1.0000
48.2000 793.0000 1.0000
48.2100 800.0000 1.0000
48.2200 736.0000 1.0000
48.2300 766.0000 1.0000
48.2400 716.0000 1.0000
48.2500 737.0000 1.0000
48.2600 724.0000 1.0000
48.2700 726.0000 1.0000
48.2800 733.0000 1.0000
48.2900 735.0000 1.0000
48.3000 755.0000 1.0000
48.3100 748.0000 1.0000
48.3200 736.0000 1.0000
48.3300 724.0000 1.0000
48.3400 774.0000 1.0000
48.3500 752.0000 1.0000
48.3600 742.0000 1.0000
48.3700 739.0000 1.0000
48.3800 746.0000 1.0000
48.3900 714.0000 1.0000
48.4000 741.0000 1.0000
48.4100 735.0000 1.0000
48.4200 747.0000 1.0000
48.4300 750.0000 1.0000
48.4400 722.0000 1.0000
48.4500 698.0000 1.0000
48.4600 780.0000 1.0000
48.4700 724.0000 1.0000
48.4800 700.0000 1.0000
48.4900 722.0000 1.0000
48.5000 729.0000 1.0000
48.5100 737.0000 1.0000
48.5200 746.0000 1.0000
48.5300 760.0000 1.0000
48.5400 727.0000 1.0000
48.5500 756.0000 1.0000
48.5600 731.0000 1.0000
48.5700 727.0000 1.0000
48.5800 741.0000 1.0000
48.5900 736.0000 1.0000
48.6000 752.0000 1.0000
48.6100 747.0000 1.0000
48.6200 751.0000 1.0000
48.6300 755.0000 1.0000
48.6400 712.0000 1.0000
48.6500 713.0000 1.0000
48.6600 730.0000 1.0000
48.6700 726.0000 1.0000
48.6800 763.0000 1.0000
48.6900 714.0000 1.0000
48.7000 724.0000 1.0000
48.7100 700.0000 1.0000
48.7200 721.0000 1.0000
48.7300 721.0000 1.0000
48.7400 718.0000 1.0000
48.7500 714.0000 1.0000
48.7600 705.0000 1.0000
48.7700 707.0000 1.0000
48.7800 706.0000 1.0000
48.7900 751.0000 1.0000
48.8000 725.0000 1.0000
48.8100 713.0000 1.0000
48.8200 754.0000 1.0000
48.8300 773.0000 1.0000
48.8400 715.0000 1.0000
48.8500 706.0000 1.0000
48.8600 691.0000 1.0000
48.8700 690.0000 1.0000
48.8800 691.0000 1.0000
48.8900 723.0000 1.0000
48.9000 736.0000 1.0000
48.9100 748.0000 1.0000
48.9200 746.0000 1.0000
48.9300 745.0000 1.0000
48.9400 684.0000 1.0000
48.9500 693.0000 1.0000
48.9600 738.0000 1.0000
48.9700 754.0000 1.0000
48.9800 771.0000 1.0000
48.9900 756.0000 1.0000
49.0000 703.0000 1.0000
49.0100 739.0000 1.0000
49.0200 792.0000 1.0000
49.0300 751.0000 1.0000
49.0400 684.0000 1.0000
49.0500 694.0000 1.0000
49.0600 700.0000 1.0000
49.0700 727.0000 1.0000
49.0800 770.0000 1.0000
49.0900 716.0000 1.0000
49.1000 728.0000 1.0000
49.1100 717.0000 1.0000
49.1200 716.0000 1.0000
49.1300 742.0000 1.0000
49.1400 720.0000 1.0000
49.1500 733.0000 1.0000
49.1600 737.0000 1.0000
49.1700 696.0000 1.0000
49.1800 706.0000 1.0000
49.1900 725.0000 1.0000
49.2000 740.0000 1.0000
49.2100 715.0000 1.0000
49.2200 731.0000 1.0000
49.2300 710.0000 1.0000
49.2400 715.0000 1.0000
49.2500 706.0000 1.0000
49.2600 717.0000 1.0000
49.2700 731.0000 1.0000
49.2800 696.0000 1.0000
49.2900 698.0000 1.0000
49.3000 764.0000 1.0000
49.3100 758.0000 1.0000
49.3200 724.0000 1.0000
49.3300 721.0000 1.0000
49.3400 702.0000 1.0000
49.3500 680.0000 1.0000
49.3600 671.0000 1.0000
49.3700 708.0000 1.0000
49.3800 704.0000 1.0000
49.3900 755.0000 1.0000
49.4000 733.0000 1.0000
49.4100 763.0000 1.0000
49.4200 743.0000 1.0000
49.4300 727.0000 1.0000
49.4400 710.0000 1.0000
49.4500 735.0000 1.0000
49.4600 736.0000 1.0000
49.4700 700.0000 1.0000
49.4800 729.0000 1.0000
49.4900 750.0000 1.0000
49.5000 732.0000 1.0000
49.5100 729.0000 1.0000
49.5200 704.0000 1.0000
49.5300 721.0000 1.0000
49.5400 678.0000 1.0000
49.5500 706.0000 1.0000
49.5600 743.0000 1.0000
49.5700 772.0000 1.0000
49.5800 742.0000 1.0000
49.5900 747.0000 1.0000
49.6000 709.0000 1.0000
49.6100 718.0000 1.0000
49.6200 731.0000 1.0000
49.6300 727.0000 1.0000
49.6400 705.0000 1.0000
49.6500 714.0000 1.0000
49.6600 717.0000 1.0000
49.6700 745.0000 1.0000
49.6800 741.0000 1.0000
49.6900 725.0000 1.0000
49.7000 740.0000 1.0000
49.7100 712.0000 1.0000
49.7200 703.0000 1.0000
49.7300 721.0000 1.0000
49.7400 732.0000 1.0000
49.7500 739.0000 1.0000
49.7600 723.0000 1.0000
49.7700 715.0000 1.0000
49.7800 723.0000 1.0000
49.7900 715.0000 1.0000
49.8000 670.0000 1.0000
49.8100 710.0000 1.0000
49.8200 707.0000 1.0000
49.8300 716.0000 1.0000
49.8400 721.0000 1.0000
49.8500 725.0000 1.0000
49.8600 740.0000 1.0000
49.8700 711.0000 1.0000
49.8800 712.0000 1.0000
49.8900 733.0000 1.0000
49.9000 776.0000 1.0000
49.9100 759.0000 1.0000
49.9200 727.0000 1.0000
49.9300 674.0000 1.0000
49.9400 725.0000 1.0000
49.9500 749.0000 1.0000
49.9600 746.0000 1.0000
49.9700 710.0000 1.0000
49.9800 771.0000 1.0000
49.9900 796.0000 1.0000
50.0000 726.0000 1.0000
50.0100 731.0000 1.0000
50.0200 712.0000 1.0000
50.0300 725.0000 1.0000
50.0400 716.0000 1.0000
50.0500 715.0000 1.0000
50.0600 686.0000 1.0000
50.0700 741.0000 1.0000
50.0800 693.0000 1.0000
50.0900 724.0000 1.0000
50.1000 708.0000 1.0000
50.1100 759.0000 1.0000
50.1200 747.0000 1.0000
50.1300 692.0000 1.0000
50.1400 710.0000 1.0000
50.1500 715.0000 1.0000
50.1600 720.0000 1.0000
50.1700 725.0000 1.0000
50.1800 750.0000 1.0000
50.1900 714.0000 1.0000
50.2000 722.0000 1.0000
50.2100 729.0000 1.0000
50.2200 772.0000 1.0000
50.2300 737.0000 1.0000
50.2400 737.0000 1.0000
50.2500 783.0000 1.0000
50.2600 781.0000 1.0000
50.2700 762.0000 1.0000
50.2800 736.0000 1.0000
50.2900 753.0000 1.0000
50.3000 713.0000 1.0000
50.3100 786.0000 1.0000
50.3200 722.0000 1.0000
50.3300 754.0000 1.0000
50.3400 757.0000 1.0000
50.3500 752.0000 1.0000
50.3600 738.0000 1.0000
50.3700 745.0000 1.0000
50.3800 756.0000 1.0000
50.3900 752.0000 1.0000
50.4000 750.0000 1.0000
50.4100 726.0000 1.0000
50.4200 796.0000 1.0000
50.4300 714.0000 1.0000
50.4400 767.0000 1.0000
50.4500 734.0000 1.0000
50.4600 705.0000 1.0000
50.4700 767.0000 1.0000
50.4800 757.0000 1.0000
50.4900 718.0000 1.0000
50.5000 720.0000 1.0000
50.5100 749.0000 1.0000
50.5200 743.0000 1.0000
50.5300 725.0000 1.0000
50.5400 732.0000 1.0000
50.5500 750.0000 1.0000
50.5600 749.0000 1.0000
50.5700 750.0000 1.0000
50.5800 772.0000 1.0000
50.5900 729.0000 1.0000
50.6000 714.0000 1.0000
50.6100 744.0000 1.0000
50.6200 751.0000 1.0000
50.6300 724.0000 1.0000
50.6400 724.0000 1.0000
50.6500 749.0000 1.0000
50.6600 745.0000 1.0000
50.6700 743.0000 1.0000
50.6800 744.0000 1.0000
50.6900 769.0000 1.0000
50.7000 712.0000 1.0000
50.7100 671.0000 1.0000
50.7200 748.0000 1.0000
50.7300 724.0000 1.0000
50.7400 731.0000 1.0000
50.7500 771.0000 1.0000
50.7600 745.0000 1.0000
50.7700 726.0000 1.0000
50.7800 734.0000 1.0000
50.7900 732.0000 1.0000
50.8000 676.0000 1.0000
50.8100 716.0000 1.0000
50.8200 727.0000 1.0000
50.8300 733.0000 1.0000
50.8400 718.0000 1.0000
50.8500 722.0000 1.0000
50.8600 765.0000 1.0000
50.8700 739.0000 1.0000
50.8800 711.0000 1.0000
50.8900 736.0000 1.0000
50.9000 735.0000 1.0000
50.9100 735.0000 1.0000
50.9200 759.0000 1.0000
50.9300 690.0000 1.0000
50.9400 720.0000 1.0000
50.9500 736.0000 1.0000
50.9600 783.0000 1.0000
50.9700 714.0000 1.0000
50.9800 729.0000 1.0000
50.9900 724.0000 1.0000
51.0000 709.0000 1.0000
51.0100 738.0000 1.0000
51.0200 724.0000 1.0000
51.0300 762.0000 1.0000
51.0400 746.0000 1.0000
51.0500 663.0000 1.0000
51.0600 795.0000 1.0000
51.0700 752.0000 1.0000
51.0800 768.0000 1.0000
51.0900 751.0000 1.0000
51.1000 726.0000 1.0000
51.1100 736.0000 1.0000
51.1200 734.0000 1.0000
51.1300 746.0000 1.0000
51.1400 747.0000 1.0000
51.1500 700.0000 1.0000
51.1600 720.0000 1.0000
51.1700 702.0000 1.0000
51.1800 738.0000 1.0000
51.1900 728.0000 1.0000
51.2000 695.0000 1.0000
51.2100 748.0000 1.0000
51.2200 815.0000 1.0000
51.2300 759.0000 1.0000
51.2400 723.0000 1.0000
51.2500 752.0000 1.0000
51.2600 720.0000 1.0000
51.2700 771.0000 1.0000
51.2800 751.0000 1.0000
51.2900 737.0000 1.0000
51.3000 732.0000 1.0000
51.3100 730.0000 1.0000
51.3200 725.0000 1.0000
51.3300 731.0000 1.0000
51.3400 736.0000 1.0000
51.3500 748.0000 1.0000
51.3600 758.0000 1.0000
51.3700 762.0000 1.0000
51.3800 733.0000 1.0000
51.3900 783.0000 1.0000
51.4000 728.0000 1.0000
51.4100 723.0000 1.0000
51.4200 780.0000 1.0000
51.4300 770.0000 1.0000
51.4400 746.0000 1.0000
51.4500 730.0000 1.0000
51.4600 781.0000 1.0000
51.4700 728.0000 1.0000
51.4800 721.0000 1.0000
51.4900 764.0000 1.0000
51.5000 786.0000 1.0000
51.5100 739.0000 1.0000
51.5200 796.0000 1.0000
51.5300 767.0000 1.0000
51.5400 733.0000 1.0000
51.5500 759.0000 1.0000
51.5600 754.0000 1.0000
51.5700 798.0000 1.0000
51.5800 795.0000 1.0000
51.5900 738.0000 1.0000
51.6000 786.0000 1.0000
51.6100 806.0000 1.0000
51.6200 775.0000 1.0000
51.6300 724.0000 1.0000
51.6400 763.0000 1.0000
51.6500 799.0000 1.0000
51.6600 768.0000 1.0000
51.6700 776.0000 1.0000
51.6800 792.0000 1.0000
51.6900 810.0000 1.0000
51.7000 798.0000 1.0000
51.7100 810.0000 1.0000
51.7200 828.0000 1.0000
51.7300 779.0000 1.0000
51.7400 820.0000 1.0000
51.7500 860.0000 1.0000
51.7600 848.0000 1.0000
51.7700 848.0000 1.0000
51.7800 858.0000 1.0000
51.7900 856.0000 1.0000
51.8000 828.0000 1.0000
51.8100 886.0000 1.0000
51.8200 847.0000 1.0000
51.8300 851.0000 1.0000
51.8400 883.0000 1.0000
51.8500 908.0000 1.0000
51.8600 926.0000 1.0000
51.8700 944.0000 1.0000
51.8800 945.0000 1.0000
51.8900 971.0000 1.0000
51.9000 1061.0000 1.0000
51.9100 1042.0000 1.0000
51.9200 1064.0000 1.0000
51.9300 1074.0000 1.0000
51.9400 1105.0000 1.0000
51.9500 1119.0000 1.0000
51.9600 1147.0000 1.0000
51.9700 1274.0000 1.0000
51.9800 1254.0000 1.0000
51.9900 1320.0000 1.0000
52.0000 1354.0000 1.0000
52.0100 1405.0000 1.0000
52.0200 1431.0000 1.0000
52.0300 1500.0000 1.0000
52.0400 1646.0000 1.0000
52.0500 1630.0000 1.0000
52.0600 1825.0000 1.0000
52.0700 1851.0000 1.0000
52.0800 1897.0000 1.0000
52.0900 2144.0000 1.0000
52.1000 2272.0000 1.0000
52.1100 2430.0000 1.0000
52.1200 2699.0000 1.0000
52.1300 2892.0000 1.0000
52.1400 3067.0000 1.0000
52.1500 3386.0000 1.0000
52.1600 3728.0000 1.0000
52.1700 3932.0000 1.0000
52.1800 4185.0000 1.0000
52.1900 4602.0000 1.0000
52.2000 4836.0000 1.0000
52.2100 5016.0000 1.0000
52.2200 5298.0000 1.0000
52.2300 5284.0000 1.0000
52.2400 5267.0000 1.0000
52.2500 5231.0000 1.0000
52.2600 5187.0000 1.0000
52.2700 4978.0000 1.0000
52.2800 4715.0000 1.0000
52.2900 4676.0000 1.0000
52.3000 4497.0000 1.0000
52.3100 4455.0000 1.0000
52.3200 4409.0000 1.0000
52.3300 4202.0000 1.0000
52.3400 4112.0000 1.0000
52.3500 4115.0000 1.0000
52.3600 3994.0000 1.0000
52.3700 3857.0000 1.0000
52.3800 3757.0000 1.0000
52.3900 3560.0000 1.0000
52.4000 3349.0000 1.0000
52.4100 3155.0000 1.0000
52.4200 2976.0000 1.0000
52.4300 2706.0000 1.0000
52.4400 2565.0000 1.0000
52.4500 2411.0000 1.0000
52.4600 2202.0000 1.0000
52.4700 2102.0000 1.0000
52.4800 1993.0000 1.0000
52.4900 1882.0000 1.0000
52.5000 1717.0000 1.0000
52.5100 1645.0000 1.0000
52.5200 1584.0000 1.0000
52.5300 1451.0000 1.0000
52.5400 1429.0000 1.0000
52.5500 1398.0000 1.0000
52.5600 1330.0000 1.0000
52.5700 1253.0000 1.0000
52.5800 1223.0000 1.0000
52.5900 1172.0000 1.0000
52.6000 1191.0000 1.0000
52.6100 1096.0000 1.0000
52.6200 1072.0000 1.0000
52.6300 1070.0000 1.0000
52.6400 1022.0000 1.0000
52.6500 1057.0000 1.0000
52.6600 976.0000 1.0000
52.6700 974.0000 1.0000
52.6800 949.0000 1.0000
52.6900 996.0000 1.0000
52.7000 919.0000 1.0000
52.7100 939.0000 1.0000
52.7200 943.0000 1.0000
52.7300 878.0000 1.0000
52.7400 892.0000 1.0000
52.7500 906.0000 1.0000
52.7600 842.0000 1.0000
52.7700 836.0000 1.0000
52.7800 842.0000 1.0000
52.7900 852.0000 1.0000
52.8000 869.0000 1.0000
52.8100 875.0000 1.0000
52.8200 883.0000 1.0000
52.8300 809.0000 1.0000
52.8400 821.0000 1.0000
52.8500 810.0000 1.0000
52.8600 843.0000 1.0000
52.8700 876.0000 1.0000
52.8800 843.0000 1.0000
52.8900 797.0000 1.0000
52.9000 791.0000 1.0000
52.9100 788.0000 1.0000
52.9200 721.0000 1.0000
52.9300 800.0000 1.0000
52.9400 794.0000 1.0000
52.9500 765.0000 1.0000
52.9600 781.0000 1.0000
52.9700 771.0000 1.0000
52.9800 828.0000 1.0000
52.9900 783.0000 1.0000
53.0000 824.0000 1.0000
53.0100 780.0000 1.0000
53.0200 787.0000 1.0000
53.0300 752.0000 1.0000
53.0400 789.0000 1.0000
53.0500 773.0000 1.0000
53.0600 745.0000 1.0000
53.0700 762.0000 1.0000
53.0800 747.0000 1.0000
53.0900 800.0000 1.0000
53.1000 743.0000 1.0000
53.1100 782.0000 1.0000
53.1200 779.0000 1.0000
53.1300 738.0000 1.0000
53.1400 723.0000 1.0000
53.1500 681.0000 1.0000
53.1600 731.0000 1.0000
53.1700 721.0000 1.0000
53.1800 783.0000 1.0000
53.1900 733.0000 1.0000
53.2000 734.0000 1.0000
53.2100 767.0000 1.0000
53.2200 772.0000 1.0000
53.2300 743.0000 1.0000
53.2400 756.0000 1.0000
53.2500 775.0000 1.0000
53.2600 737.0000 1.0000
53.2700 713.0000 1.0000
53.2800 789.0000 1.0000
53.2900 758.0000 1.0000
53.3000 724.0000 1.0000
53.3100 737.0000 1.0000
53.3200 745.0000 1.0000
53.3300 774.0000 1.0000
53.3400 762.0000 1.0000
53.3500 712.0000 1.0000
53.3600 682.0000 1.0000
53.3700 729.0000 1.0000
53.3800 749.0000 1.0000
53.3900 724.0000 1.0000
53.4000 694.0000 1.0000
53.4100 731.0000 1.0000
53.4200 721.0000 1.0000
53.4300 735.0000 1.0000
53.4400 730.0000 1.0000
53.4500 732.0000 1.0000
53.4600 728.0000 1.0000
53.4700 724.0000 1.0000
53.4800 743.0000 1.0000
53.4900 748.0000 1.0000
53.5000 739.0000 1.0000
53.5100 720.0000 1.0000
53.5200 754.0000 1.0000
53.5300 726.0000 1.0000
53.5400 728.0000 1.0000
53.5500 703.0000 1.0000
53.5600 682.0000 1.0000
53.5700 695.0000 1.0000
53.5800 686.0000 1.0000
53.5900 739.0000 1.0000
53.6000 707.0000 1.0000
53.6100 738.0000 1.0000
53.6200 699.0000 1.0000
53.6300 708.0000 1.0000
53.6400 742.0000 1.0000
53.6500 729.0000 1.0000
53.6600 705.0000 1.0000
53.6700 715.0000 1.0000
53.6800 730.0000 1.0000
53.6900 735.0000 1.0000
53.7000 705.0000 1.0000
53.7100 687.0000 1.0000
53.7200 727.0000 1.0000
53.7300 683.0000 1.0000
53.7400 740.0000 1.0000
53.7500 711.0000 1.0000
53.7600 729.0000 1.0000
53.7700 679.0000 1.0000
53.7800 720.0000 1.0000
53.7900 715.0000 1.0000
53.8000 702.0000 1.0000
53.8100 710.0000 1.0000
53.8200 707.0000 1.0000
53.8300 727.0000 1.0000
53.8400 718.0000 1.0000
53.8500 723.0000 1.0000
53.8600 709.0000 1.0000
53.8700 689.0000 1.0000
53.8800 744.0000 1.0000
53.8900 692.0000 1.0000
53.9000 727.0000 1.0000
53.9100 753.0000 1.0000
53.9200 721.0000 1.0000
53.9300 670.0000 1.0000
53.9400 723.0000 1.0000
53.9500 719.0000 1.0000
53.9600 684.0000 1.0000
53.9700 745.0000 1.0000
53.9800 717.0000 1.0000
53.9900 704.0000 1.0000
54.0000 726.0000 1.0000
54.0100 728.0000 1.0000
54.0200 700.0000 1.0000
54.0300 667.0000 1.0000
54.0400 703.0000 1.0000
54.0500 706.0000 1.0000
54.0600 685.0000 1.0000
54.0700 722.0000 1.0000
54.0800 674.0000 1.0000
54.0900 736.0000 1.0000
54.1000 722.0000 1.0000
54.1100 706.0000 1.0000
54.1200 672.0000 1.0000
54.1300 719.0000 1.0000
54.1400 745.0000 1.0000
54.1500 703.0000 1.0000
54.1600 754.0000 1.0000
54.1700 688.0000 1.0000
54.1800 719.0000 1.0000
54.1900 725.0000 1.0000
54.2000 706.0000 1.0000
54.2100 732.0000 1.0000
54.2200 704.0000 1.0000
54.2300 730.0000 1.0000
54.2400 738.0000 1.0000
54.2500 724.0000 1.0000
54.2600 679.0000 1.0000
54.2700 735.0000 1.0000
54.2800 696.0000 1.0000
54.2900 759.0000 1.0000
54.3000 741.0000 1.0000
54.3100 749.0000 1.0000
54.3200 748.0000 1.0000
54.3300 681.0000 1.0000
54.3400 697.0000 1.0000
54.3500 698.0000 1.0000
54.3600 729.0000 1.0000
54.3700 693.0000 1.0000
54.3800 703.0000 1.0000
54.3900 688.0000 1.0000
54.4000 709.0000 1.0000
54.4100 707.0000 1.0000
54.4200 790.0000 1.0000
54.4300 772.0000 1.0000
54.4400 678.0000 1.0000
54.4500 734.0000 1.0000
54.4600 708.0000 1.0000
54.4700 717.0000 1.0000
54.4800 745.0000 1.0000
54.4900 726.0000 1.0000
54.5000 718.0000 1.0000
54.5100 769.0000 1.0000
54.5200 704.0000 1.0000
54.5300 724.0000 1.0000
54.5400 734.0000 1.0000
54.5500 698.0000 1.0000
54.5600 705.0000 1.0000
54.5700 703.0000 1.0000
54.5800 731.0000 1.0000
54.5900 729.0000 1.0000
54.6000 764.0000 1.0000
54.6100 747.0000 1.0000
54.6200 745.0000 1.0000
54.6300 722.0000 1.0000
54.6400 749.0000 1.0000
54.6500 744.0000 1.0000
54.6600 713.0000 1.0000
54.6700 719.0000 1.0000
54.6800 751.0000 1.0000
54.6900 756.0000 1.0000
54.7000 712.0000 1.0000
54.7100 733.0000 1.0000
54.7200 784.0000 1.0000
54.7300 729.0000 1.0000
54.7400 742.0000 1.0000
54.7500 771.0000 1.0000
54.7600 719.0000 1.0000
54.7700 746.0000 1.0000
54.7800 750.0000 1.0000
54.7900 732.0000 1.0000
54.8000 760.0000 1.0000
54.8100 773.0000 1.0000
54.8200 771.0000 1.0000
54.8300 758.0000 1.0000
54.8400 791.0000 1.0000
54.8500 786.0000 1.0000
54.8600 725.0000 1.0000
54.8700 755.0000 1.0000
54.8800 725.0000 1.0000
54.8900 787.0000 1.0000
54.9000 737.0000 1.0000
54.9100 791.0000 1.0000
54.9200 793.0000 1.0000
54.9300 783.0000 1.0000
54.9400 808.0000 1.0000
54.9500 797.0000 1.0000
54.9600 794.0000 1.0000
54.9700 789.0000 1.0000
54.9800 767.0000 1.0000
54.9900 791.0000 1.0000
55.0000 832.0000 1.0000
55.0100 804.0000 1.0000
55.0200 832.0000 1.0000
55.0300 844.0000 1.0000
55.0400 867.0000 1.0000
55.0500 811.0000 1.0000
55.0600 872.0000 1.0000
55.0700 854.0000 1.0000
55.0800 868.0000 1.0000
55.0900 852.0000 1.0000
55.1000 911.0000 1.0000
55.1100 888.0000 1.0000
55.1200 892.0000 1.0000
55.1300 978.0000 1.0000
55.1400 965.0000 1.0000
55.1500 1009.0000 1.0000
55.1600 1012.0000 1.0000
55.1700 983.0000 1.0000
55.1800 991.0000 1.0000
55.1900 1056.0000 1.0000
55.2000 1030.0000 1.0000
55.2100 1058.0000 1.0000
55.2200 1145.0000 1.0000
55.2300 1124.0000 1.0000
55.2400 1175.0000 1.0000
55.2500 1111.0000 1.0000
55.2600 1128.0000 1.0000
55.2700 1139.0000 1.0000
55.2800 1155.0000 1.0000
55.2900 1101.0000 1.0000
55.3000 1155.0000 1.0000
55.3100 1190.0000 1.0000
55.3200 1075.0000 1.0000
55.3300 1099.0000 1.0000
55.3400 1126.0000 1.0000
55.3500 1040.0000 1.0000
55.3600 1051.0000 1.0000
55.3700 1065.0000 1.0000
55.3800 1063.0000 1.0000
55.3900 1009.0000 1.0000
55.4000 1064.0000 1.0000
55.4100 1024.0000 1.0000
55.4200 981.0000 1.0000
55.4300 987.0000 1.0000
55.4400 981.0000 1.0000
55.4500 935.0000 1.0000
55.4600 932.0000 1.0000
55.4700 916.0000 1.0000
55.4800 906.0000 1.0000
55.4900 907.0000 1.0000
55.5000 807.0000 1.0000
55.5100 863.0000 1.0000
55.5200 835.0000 1.0000
55.5300 806.0000 1.0000
55.5400 762.0000 1.0000
55.5500 814.0000 1.0000
55.5600 799.0000 1.0000
55.5700 826.0000 1.0000
55.5800 786.0000 1.0000
55.5900 757.0000 1.0000
55.6000 743.0000 1.0000
55.6100 797.0000 1.0000
55.6200 804.0000 1.0000
55.6300 797.0000 1.0000
55.6400 773.0000 1.0000
55.6500 780.0000 1.0000
55.6600 743.0000 1.0000
55.6700 759.0000 1.0000
55.6800 727.0000 1.0000
55.6900 730.0000 1.0000
55.7000 724.0000 1.0000
55.7100 756.0000 1.0000
55.7200 752.0000 1.0000
55.7300 770.0000 1.0000
55.7400 702.0000 1.0000
55.7500 730.0000 1.0000
55.7600 722.0000 1.0000
55.7700 727.0000 1.0000
55.7800 697.0000 1.0000
55.7900 686.0000 1.0000
55.8000 724.0000 1.0000
55.8100 733.0000 1.0000
55.8200 695.0000 1.0000
55.8300 769.0000 1.0000
55.8400 756.0000 1.0000
55.8500 736.0000 1.0000
55.8600 690.0000 1.0000
55.8700 692.0000 1.0000
55.8800 701.0000 1.0000
55.8900 733.0000 1.0000
55.9000 746.0000 1.0000
55.9100 727.0000 1.0000
55.9200 720.0000 1.0000
55.9300 728.0000 1.0000
55.9400 706.0000 1.0000
55.9500 702.0000 1.0000
55.9600 700.0000 1.0000
55.9700 698.0000 1.0000
55.9800 695.0000 1.0000
55.9900 667.0000 1.0000
56.0000 688.0000 1.0000
56.0100 701.0000 1.0000
56.0200 687.0000 1.0000
56.0300 675.0000 1.0000
56.0400 707.0000 1.0000
56.0500 714.0000 1.0000
56.0600 677.0000 1.0000
56.0700 642.0000 1.0000
56.0800 691.0000 1.0000
56.0900 715.0000 1.0000
56.1000 695.0000 1.0000
56.1100 712.0000 1.0000
56.1200 729.0000 1.0000
56.1300 678.0000 1.0000
56.1400 704.0000 1.0000
56.1500 688.0000 1.0000
56.1600 747.0000 1.0000
56.1700 709.0000 1.0000
56.1800 707.0000 1.0000
56.1900 683.0000 1.0000
56.2000 670.0000 1.0000
56.2100 686.0000 1.0000
56.2200 705.0000 1.0000
56.2300 690.0000 1.0000
56.2400 704.0000 1.0000
56.2500 703.0000 1.0000
56.2600 678.0000 1.0000
56.2700 687.0000 1.0000
56.2800 670.0000 1.0000
56.2900 649.0000 1.0000
56.3000 633.0000 1.0000
56.3100 702.0000 1.0000
56.3200 653.0000 1.0000
56.3300 674.0000 1.0000
56.3400 689.0000 1.0000
56.3500 643.0000 1.0000
56.3600 658.0000 1.0000
56.3700 718.0000 1.0000
56.3800 717.0000 1.0000
56.3900 704.0000 1.0000
56.4000 691.0000 1.0000
56.4100 694.0000 1.0000
56.4200 656.0000 1.0000
56.4300 658.0000 1.0000
56.4400 691.0000 1.0000
56.4500 681.0000 1.0000
56.4600 670.0000 1.0000
56.4700 690.0000 1.0000
56.4800 709.0000 1.0000
56.4900 699.0000 1.0000
56.5000 668.0000 1.0000
56.5100 691.0000 1.0000
56.5200 706.0000 1.0000
56.5300 687.0000 1.0000
56.5400 668.0000 1.0000
56.5500 677.0000 1.0000
56.5600 673.0000 1.0000
56.5700 670.0000 1.0000
56.5800 665.0000 1.0000
56.5900 679.0000 1.0000
56.6000 631.0000 1.0000
56.6100 692.0000 1.0000
56.6200 654.0000 1.0000
56.6300 692.0000 1.0000
56.6400 674.0000 1.0000
56.6500 686.0000 1.0000
56.6600 707.0000 1.0000
56.6700 690.0000 1.0000
56.6800 681.0000 1.0000
56.6900 676.0000 1.0000
56.7000 701.0000 1.0000
56.7100 680.0000 1.0000
56.7200 679.0000 1.0000
56.7300 679.0000 1.0000
56.7400 712.0000 1.0000
56.7500 666.0000 1.0000
56.7600 689.0000 1.0000
56.7700 664.0000 1.0000
56.7800 664.0000 1.0000
56.7900 698.0000 1.0000
56.8000 678.0000 1.0000
56.8100 669.0000 1.0000
56.8200 685.0000 1.0000
56.8300 682.0000 1.0000
56.8400 693.0000 1.0000
56.8500 648.0000 1.0000
56.8600 653.0000 1.0000
56.8700 677.0000 1.0000
56.8800 685.0000 1.0000
56.8900 718.0000 1.0000
56.9000 673.0000 1.0000
56.9100 644.0000 1.0000
56.9200 636.0000 1.0000
56.9300 676.0000 1.0000
56.9400 689.0000 1.0000
56.9500 702.0000 1.0000
56.9600 653.0000 1.0000
56.9700 690.0000 1.0000
56.9800 675.0000 1.0000
56.9900 647.0000 1.0000
57.0000 653.0000 1.0000
57.0100 659.0000 1.0000
57.0200 636.0000 1.0000
57.0300 652.0000 1.0000
57.0400 663.0000 1.0000
57.0500 684.0000 1.0000
57.0600 693.0000 1.0000
57.0700 687.0000 1.0000
57.0800 675.0000 1.0000
57.0900 681.0000 1.0000
57.1000 679.0000 1.0000
57.1100 616.0000 1.0000
57.1200 640.0000 1.0000
57.1300 673.0000 1.0000
57.1400 721.0000 1.0000
57.1500 671.0000 1.0000
57.1600 656.0000 1.0000
57.1700 680.0000 1.0000
57.1800 642.0000 1.0000
57.1900 687.0000 1.0000
57.2000 682.0000 1.0000
57.2100 690.0000 1.0000
57.2200 742.0000 1.0000
57.2300 684.0000 1.0000
57.2400 667.0000 1.0000
57.2500 658.0000 1.0000
57.2600 687.0000 1.0000
57.2700 692.0000 1.0000
57.2800 684.0000 1.0000
57.2900 681.0000 1.0000
57.3000 667.0000 1.0000
57.3100 655.0000 1.0000
57.3200 640.0000 1.0000
57.3300 677.0000 1.0000
57.3400 676.0000 1.0000
57.3500 675.0000 1.0000
57.3600 659.0000 1.0000
57.3700 625.0000 1.0000
57.3800 707.0000 1.0000
57.3900 651.0000 1.0000
57.4000 647.0000 1.0000
57.4100 630.0000 1.0000
57.4200 701.0000 1.0000
57.4300 662.0000 1.0000
57.4400 694.0000 1.0000
57.4500 679.0000 1.0000
57.4600 700.0000 1.0000
57.4700 676.0000 1.0000
57.4800 677.0000 1.0000
57.4900 645.0000 1.0000
57.5000 735.0000 1.0000
57.5100 697.0000 1.0000
57.5200 698.0000 1.0000
57.5300 702.0000 1.0000
57.5400 644.0000 1.0000
57.5500 668.0000 1.0000
57.5600 648.0000 1.0000
57.5700 670.0000 1.0000
57.5800 649.0000 1.0000
57.5900 658.0000 1.0000
57.6000 631.0000 1.0000
57.6100 676.0000 1.0000
57.6200 689.0000 1.0000
57.6300 655.0000 1.0000
57.6400 660.0000 1.0000
57.6500 731.0000 1.0000
57.6600 686.0000 1.0000
57.6700 670.0000 1.0000
57.6800 689.0000 1.0000
57.6900 657.0000 1.0000
57.7000 645.0000 1.0000
57.7100 668.0000 1.0000
57.7200 674.0000 1.0000
57.7300 671.0000 1.0000
57.7400 679.0000 1.0000
57.7500 689.0000 1.0000
57.7600 659.0000 1.0000
57.7700 698.0000 1.0000
57.7800 709.0000 1.0000
57.7900 681.0000 1.0000
57.8000 659.0000 1.0000
57.8100 701.0000 1.0000
57.8200 699.0000 1.0000
57.8300 696.0000 1.0000
57.8400 662.0000 1.0000
57.8500 672.0000 1.0000
57.8600 702.0000 1.0000
57.8700 649.0000 1.0000
57.8800 655.0000 1.0000
57.8900 659.0000 1.0000
57.9000 730.0000 1.0000
57.9100 705.0000 1.0000
57.9200 707.0000 1.0000
57.9300 712.0000 1.0000
57.9400 689.0000 1.0000
57.9500 678.0000 1.0000
57.9600 694.0000 1.0000
57.9700 663.0000 1.0000
57.9800 687.0000 1.0000
57.9900 674.0000 1.0000
58.0000 715.0000 1.0000
58.0100 684.0000 1.0000
58.0200 700.0000 1.0000
58.0300 733.0000 1.0000
58.0400 675.0000 1.0000
58.0500 682.0000 1.0000
58.0600 730.0000 1.0000
58.0700 728.0000 1.0000
58.0800 679.0000 1.0000
58.0900 732.0000 1.0000
58.1000 748.0000 1.0000
58.1100 701.0000 1.0000
58.1200 690.0000 1.0000
58.1300 686.0000 1.0000
58.1400 689.0000 1.0000
58.1500 731.0000 1.0000
58.1600 703.0000 1.0000
58.1700 661.0000 1.0000
58.1800 692.0000 1.0000
58.1900 735.0000 1.0000
58.2000 710.0000 1.0000
58.2100 669.0000 1.0000
58.2200 736.0000 1.0000
58.2300 709.0000 1.0000
58.2400 702.0000 1.0000
58.2500 687.0000 1.0000
58.2600 683.0000 1.0000
58.2700 680.0000 1.0000
58.2800 731.0000 1.0000
58.2900 718.0000 1.0000
58.3000 684.0000 1.0000
58.3100 682.0000 1.0000
58.3200 672.0000 1.0000
58.3300 689.0000 1.0000
58.3400 664.0000 1.0000
58.3500 665.0000 1.0000
58.3600 692.0000 1.0000
58.3700 698.0000 1.0000
58.3800 682.0000 1.0000
58.3900 683.0000 1.0000
58.4000 676.0000 1.0000
58.4100 707.0000 1.0000
58.4200 693.0000 1.0000
58.4300 736.0000 1.0000
58.4400 693.0000 1.0000
58.4500 659.0000 1.0000
58.4600 669.0000 1.0000
58.4700 695.0000 1.0000
58.4800 663.0000 1.0000
58.4900 687.0000 1.0000
58.5000 683.0000 1.0000
58.5100 695.0000 1.0000
58.5200 701.0000 1.0000
58.5300 669.0000 1.0000
58.5400 710.0000 1.0000
58.5500 682.0000 1.0000
58.5600 700.0000 1.0000
58.5700 689.0000 1.0000
58.5800 676.0000 1.0000
58.5900 699.0000 1.0000
58.6000 652.0000 1.0000
58.6100 643.0000 1.0000
58.6200 652.0000 1.0000
58.6300 690.0000 1.0000
58.6400 688.0000 1.0000
58.6500 646.0000 1.0000
58.6600 625.0000 1.0000
58.6700 661.0000 1.0000
58.6800 666.0000 1.0000
58.6900 658.0000 1.0000
58.7000 670.0000 1.0000
58.7100 645.0000 1.0000
58.7200 691.0000 1.0000
58.7300 660.0000 1.0000
58.7400 651.0000 1.0000
58.7500 689.0000 1.0000
58.7600 659.0000 1.0000
58.7700 667.0000 1.0000
58.7800 711.0000 1.0000
58.7900 682.0000 1.0000
58.8000 679.0000 1.0000
58.8100 675.0000 1.0000
58.8200 662.0000 1.0000
58.8300 695.0000 1.0000
58.8400 662.0000 1.0000
58.8500 671.0000 1.0000
58.8600 681.0000 1.0000
58.8700 669.0000 1.0000
58.8800 675.0000 1.0000
58.8900 639.0000 1.0000
58.9000 707.0000 1.0000
58.9100 698.0000 1.0000
58.9200 688.0000 1.0000
58.9300 677.0000 1.0000
58.9400 682.0000 1.0000
58.9500 678.0000 1.0000
58.9600 684.0000 1.0000
58.9700 626.0000 1.0000
58.9800 670.0000 1.0000
58.9900 680.0000 1.0000
59.0000 667.0000 1.0000
59.0100 658.0000 1.0000
59.0200 644.0000 1.0000
59.0300 655.0000 1.0000
59.0400 711.0000 1.0000
59.0500 693.0000 1.0000
59.0600 684.0000 1.0000
59.0700 667.0000 1.0000
59.0800 706.0000 1.0000
59.0900 699.0000 1.0000
59.1000 696.0000 1.0000
59.1100 715.0000 1.0000
59.1200 660.0000 1.0000
59.1300 683.0000 1.0000
59.1400 694.0000 1.0000
59.1500 672.0000 1.0000
59.1600 671.0000 1.0000
59.1700 657.0000 1.0000
59.1800 664.0000 1.0000
59.1900 691.0000 1.0000
59.2000 674.0000 1.0000
59.2100 617.0000 1.0000
59.2200 660.0000 1.0000
59.2300 681.0000 1.0000
59.2400 702.0000 1.0000
59.2500 665.0000 1.0000
59.2600 693.0000 1.0000
59.2700 672.0000 1.0000
59.2800 718.0000 1.0000
59.2900 695.0000 1.0000
59.3000 720.0000 1.0000
59.3100 659.0000 1.0000
59.3200 738.0000 1.0000
59.3300 717.0000 1.0000
59.3400 683.0000 1.0000
59.3500 652.0000 1.0000
59.3600 614.0000 1.0000
59.3700 689.0000 1.0000
59.3800 693.0000 1.0000
59.3900 726.0000 1.0000
59.4000 678.0000 1.0000
59.4100 641.0000 1.0000
59.4200 692.0000 1.0000
59.4300 653.0000 1.0000
59.4400 690.0000 1.0000
59.4500 666.0000 1.0000
59.4600 700.0000 1.0000
59.4700 664.0000 1.0000
59.4800 662.0000 1.0000
59.4900 695.0000 1.0000
59.5000 711.0000 1.0000
59.5100 696.0000 1.0000
59.5200 695.0000 1.0000
59.5300 633.0000 1.0000
59.5400 680.0000 1.0000
59.5500 678.0000 1.0000
59.5600 628.0000 1.0000
59.5700 672.0000 1.0000
59.5800 674.0000 1.0000
59.5900 625.0000 1.0000
59.6000 674.0000 1.0000
59.6100 665.0000 1.0000
59.6200 674.0000 1.0000
59.6300 683.0000 1.0000
59.6400 674.0000 1.0000
59.6500 660.0000 1.0000
59.6600 671.0000 1.0000
59.6700 691.0000 1.0000
59.6800 640.0000 1.0000
59.6900 683.0000 1.0000
59.7000 680.0000 1.0000
59.7100 657.0000 1.0000
59.7200 659.0000 1.0000
59.7300 673.0000 1.0000
59.7400 655.0000 1.0000
59.7500 638.0000 1.0000
59.7600 719.0000 1.0000
59.7700 695.0000 1.0000
59.7800 682.0000 1.0000
59.7900 667.0000 1.0000
59.8000 651.0000 1.0000
59.8100 675.0000 1.0000
59.8200 668.0000 1.0000
59.8300 690.0000 1.0000
59.8400 680.0000 1.0000
59.8500 666.0000 1.0000
59.8600 685.0000 1.0000
59.8700 642.0000 1.0000
59.8800 658.0000 1.0000
59.8900 664.0000 1.0000
59.9000 646.0000 1.0000
59.9100 690.0000 1.0000
59.9200 625.0000 1.0000
59.9300 667.0000 1.0000
59.9400 673.0000 1.0000
59.9500 691.0000 1.0000
59.9600 684.0000 1.0000
59.9700 679.0000 1.0000
59.9800 667.0000 1.0000
59.9900 670.0000 1.0000
60.0000 683.0000 1.0000
60.0100 713.0000 1.0000
60.0200 643.0000 1.0000
60.0300 636.0000 1.0000
60.0400 660.0000 1.0000
60.0500 672.0000 1.0000
60.0600 679.0000 1.0000
60.0700 690.0000 1.0000
60.0800 677.0000 1.0000
60.0900 641.0000 1.0000
60.1000 696.0000 1.0000
60.1100 701.0000 1.0000
60.1200 726.0000 1.0000
60.1300 709.0000 1.0000
60.1400 682.0000 1.0000
60.1500 680.0000 1.0000
60.1600 677.0000 1.0000
60.1700 688.0000 1.0000
60.1800 688.0000 1.0000
60.1900 667.0000 1.0000
60.2000 665.0000 1.0000
60.2100 685.0000 1.0000
60.2200 660.0000 1.0000
60.2300 678.0000 1.0000
60.2400 712.0000 1.0000
60.2500 688.0000 1.0000
60.2600 688.0000 1.0000
60.2700 688.0000 1.0000
60.2800 661.0000 1.0000
60.2900 686.0000 1.0000
60.3000 668.0000 1.0000
60.3100 621.0000 1.0000
60.3200 661.0000 1.0000
60.3300 676.0000 1.0000
60.3400 646.0000 1.0000
60.3500 685.0000 1.0000
60.3600 676.0000 1.0000
60.3700 686.0000 1.0000
60.3800 654.0000 1.0000
60.3900 660.0000 1.0000
60.4000 658.0000 1.0000
60.4100 662.0000 1.0000
60.4200 669.0000 1.0000
60.4300 692.0000 1.0000
60.4400 664.0000 1.0000
60.4500 677.0000 1.0000
60.4600 695.0000 1.0000
60.4700 650.0000 1.0000
60.4800 711.0000 1.0000
60.4900 636.0000 1.0000
60.5000 675.0000 1.0000
60.5100 669.0000 1.0000
60.5200 684.0000 1.0000
60.5300 690.0000 1.0000
60.5400 653.0000 1.0000
60.5500 704.0000 1.0000
60.5600 652.0000 1.0000
60.5700 634.0000 1.0000
60.5800 696.0000 1.0000
60.5900 678.0000 1.0000
60.6000 643.0000 1.0000
60.6100 654.0000 1.0000
60.6200 689.0000 1.0000
60.6300 658.0000 1.0000
60.6400 653.0000 1.0000
60.6500 668.0000 1.0000
60.6600 671.0000 1.0000
60.6700 679.0000 1.0000
60.6800 670.0000 1.0000
60.6900 676.0000 1.0000
60.7000 648.0000 1.0000
60.7100 671.0000 1.0000
60.7200 638.0000 1.0000
60.7300 692.0000 1.0000
60.7400 691.0000 1.0000
60.7500 676.0000 1.0000
60.7600 680.0000 1.0000
60.7700 707.0000 1.0000
60.7800 662.0000 1.0000
60.7900 704.0000 1.0000
60.8000 717.0000 1.0000
60.8100 683.0000 1.0000
60.8200 680.0000 1.0000
60.8300 688.0000 1.0000
60.8400 727.0000 1.0000
60.8500 625.0000 1.0000
60.8600 669.0000 1.0000
60.8700 696.0000 1.0000
60.8800 678.0000 1.0000
60.8900 697.0000 1.0000
60.9000 642.0000 1.0000
60.9100 688.0000 1.0000
60.9200 683.0000 1.0000
60.9300 661.0000 1.0000
60.9400 665.0000 1.0000
60.9500 654.0000 1.0000
60.9600 655.0000 1.0000
60.9700 667.0000 1.0000
60.9800 668.0000 1.0000
60.9900 679.0000 1.0000
61.0000 664.0000 1.0000
61.0100 681.0000 1.0000
61.0200 615.0000 1.0000
61.0300 668.0000 1.0000
61.0400 661.0000 1.0000
61.0500 641.0000 1.0000
61.0600 677.0000 1.0000
61.0700 676.0000 1.0000
61.0800 674.0000 1.0000
61.0900 651.0000 1.0000
61.1000 670.0000 1.0000
61.1100 676.0000 1.0000
61.1200 706.0000 1.0000
61.1300 700.0000 1.0000
61.1400 677.0000 1.0000
61.1500 685.0000 1.0000
61.1600 628.0000 1.0000
61.1700 686.0000 1.0000
61.1800 678.0000 1.0000
61.1900 683.0000 1.0000
61.2000 634.0000 1.0000
61.2100 686.0000 1.0000
61.2200 690.0000 1.0000
61.2300 679.0000 1.0000
61.2400 655.0000 1.0000
61.2500 685.0000 1.0000
61.2600 707.0000 1.0000
61.2700 642.0000 1.0000
61.2800 679.0000 1.0000
61.2900 680.0000 1.0000
61.3000 674.0000 1.0000
61.3100 699.0000 1.0000
61.3200 737.0000 1.0000
61.3300 690.0000 1.0000
61.3400 659.0000 1.0000
61.3500 711.0000 1.0000
61.3600 723.0000 1.0000
61.3700 703.0000 1.0000
61.3800 713.0000 1.0000
61.3900 691.0000 1.0000
61.4000 718.0000 1.0000
61.4100 682.0000 1.0000
61.4200 695.0000 1.0000
61.4300 724.0000 1.0000
61.4400 727.0000 1.0000
61.4500 690.0000 1.0000
61.4600 701.0000 1.0000
61.4700 687.0000 1.0000
61.4800 671.0000 1.0000
61.4900 711.0000 1.0000
61.5000 700.0000 1.0000
61.5100 690.0000 1.0000
61.5200 751.0000 1.0000
61.5300 698.0000 1.0000
61.5400 675.0000 1.0000
61.5500 669.0000 1.0000
61.5600 684.0000 1.0000
61.5700 700.0000 1.0000
61.5800 669.0000 1.0000
61.5900 716.0000 1.0000
61.6000 714.0000 1.0000
61.6100 711.0000 1.0000
61.6200 700.0000 1.0000
61.6300 679.0000 1.0000
61.6400 670.0000 1.0000
61.6500 691.0000 1.0000
61.6600 707.0000 1.0000
61.6700 725.0000 1.0000
61.6800 755.0000 1.0000
61.6900 753.0000 1.0000
61.7000 732.0000 1.0000
61.7100 744.0000 1.0000
61.7200 766.0000 1.0000
61.7300 744.0000 1.0000
61.7400 732.0000 1.0000
61.7500 769.0000 1.0000
61.7600 733.0000 1.0000
61.7700 729.0000 1.0000
61.7800 743.0000 1.0000
61.7900 742.0000 1.0000
61.8000 768.0000 1.0000
61.8100 842.0000 1.0000
61.8200 781.0000 1.0000
61.8300 788.0000 1.0000
61.8400 722.0000 1.0000
61.8500 819.0000 1.0000
61.8600 783.0000 1.0000
61.8700 769.0000 1.0000
61.8800 803.0000 1.0000
61.8900 849.0000 1.0000
61.9000 857.0000 1.0000
61.9100 823.0000 1.0000
61.9200 855.0000 1.0000
61.9300 879.0000 1.0000
61.9400 888.0000 1.0000
61.9500 875.0000 1.0000
61.9600 902.0000 1.0000
61.9700 905.0000 1.0000
61.9800 881.0000 1.0000
61.9900 898.0000 1.0000
62.0000 911.0000 1.0000
62.0100 950.0000 1.0000
62.0200 976.0000 1.0000
62.0300 1056.0000 1.0000
62.0400 1056.0000 1.0000
62.0500 1028.0000 1.0000
62.0600 1067.0000 1.0000
62.0700 1144.0000 1.0000
62.0800 1196.0000 1.0000
62.0900 1193.0000 1.0000
62.1000 1283.0000 1.0000
62.1100 1282.0000 1.0000
62.1200 1303.0000 1.0000
62.1300 1339.0000 1.0000
62.1400 1373.0000 1.0000
62.1500 1431.0000 1.0000
62.1600 1489.0000 1.0000
62.1700 1451.0000 1.0000
62.1800 1546.0000 1.0000
62.1900 1592.0000 1.0000
62.2000 1676.0000 1.0000
62.2100 1665.0000 1.0000
62.2200 1650.0000 1.0000
62.2300 1717.0000 1.0000
62.2400 1795.0000 1.0000
62.2500 1787.0000 1.0000
62.2600 1788.0000 1.0000
62.2700 1767.0000 1.0000
62.2800 1715.0000 1.0000
62.2900 1784.0000 1.0000
62.3000 1724.0000 1.0000
62.3100 1764.0000 1.0000
62.3200 1772.0000 1.0000
62.3300 1609.0000 1.0000
62.3400 1624.0000 1.0000
62.3500 1689.0000 1.0000
62.3600 1660.0000 1.0000
62.3700 1720.0000 1.0000
62.3800 1649.0000 1.0000
62.3900 1592.0000 1.0000
62.4000 1652.0000 1.0000
62.4100 1651.0000 1.0000
62.4200 1539.0000 1.0000
62.4300 1514.0000 1.0000
62.4400 1522.0000 1.0000
62.4500 1484.0000 1.0000
62.4600 1356.0000 1.0000
62.4700 1403.0000 1.0000
62.4800 1318.0000 1.0000
62.4900 1311.0000 1.0000
62.5000 1285.0000 1.0000
62.5100 1208.0000 1.0000
62.5200 1280.0000 1.0000
62.5300 1198.0000 1.0000
62.5400 1169.0000 1.0000
62.5500 1076.0000 1.0000
62.5600 1111.0000 1.0000
62.5700 1092.0000 1.0000
62.5800 1068.0000 1.0000
62.5900 1078.0000 1.0000
62.6000 1038.0000 1.0000
62.6100 1031.0000 1.0000
62.6200 1034.0000 1.0000
62.6300 969.0000 1.0000
62.6400 931.0000 1.0000
62.6500 942.0000 1.0000
62.6600 926.0000 1.0000
62.6700 920.0000 1.0000
62.6800 893.0000 1.0000
62.6900 880.0000 1.0000
62.7000 844.0000 1.0000
62.7100 873.0000 1.0000
62.7200 880.0000 1.0000
62.7300 864.0000 1.0000
62.7400 836.0000 1.0000
62.7500 812.0000 1.0000
62.7600 841.0000 1.0000
62.7700 820.0000 1.0000
62.7800 861.0000 1.0000
62.7900 815.0000 1.0000
62.8000 798.0000 1.0000
62.8100 818.0000 1.0000
62.8200 804.0000 1.0000
62.8300 808.0000 1.0000
62.8400 786.0000 1.0000
62.8500 786.0000 1.0000
62.8600 816.0000 1.0000
62.8700 760.0000 1.0000
62.8800 764.0000 1.0000
62.8900 764.0000 1.0000
62.9000 765.0000 1.0000
62.9100 792.0000 1.0000
62.9200 776.0000 1.0000
62.9300 722.0000 1.0000
62.9400 715.0000 1.0000
62.9500 773.0000 1.0000
62.9600 772.0000 1.0000
62.9700 749.0000 1.0000
62.9800 769.0000 1.0000
62.9900 746.0000 1.0000
63.0000 741.0000 1.0000
63.0100 764.0000 1.0000
63.0200 734.0000 1.0000
63.0300 697.0000 1.0000
63.0400 721.0000 1.0000
63.0500 726.0000 1.0000
63.0600 764.0000 1.0000
63.0700 704.0000 1.0000
63.0800 758.0000 1.0000
63.0900 738.0000 1.0000
63.1000 761.0000 1.0000
63.1100 719.0000 1.0000
63.1200 731.0000 1.0000
63.1300 714.0000 1.0000
63.1400 738.0000 1.0000
63.1500 707.0000 1.0000
63.1600 709.0000 1.0000
63.1700 759.0000 1.0000
63.1800 692.0000 1.0000
63.1900 753.0000 1.0000
63.2000 723.0000 1.0000
63.2100 725.0000 1.0000
63.2200 717.0000 1.0000
63.2300 718.0000 1.0000
63.2400 701.0000 1.0000
63.2500 696.0000 1.0000
63.2600 701.0000 1.0000
63.2700 742.0000 1.0000
63.2800 698.0000 1.0000
63.2900 702.0000 1.0000
63.3000 705.0000 1.0000
63.3100 660.0000 1.0000
63.3200 678.0000 1.0000
63.3300 684.0000 1.0000
63.3400 713.0000 1.0000
63.3500 723.0000 1.0000
63.3600 660.0000 1.0000
63.3700 713.0000 1.0000
63.3800 731.0000 1.0000
63.3900 662.0000 1.0000
63.4000 699.0000 1.0000
63.4100 706.0000 1.0000
63.4200 691.0000 1.0000
63.4300 693.0000 1.0000
63.4400 677.0000 1.0000
63.4500 717.0000 1.0000
63.4600 691.0000 1.0000
63.4700 714.0000 1.0000
63.4800 683.0000 1.0000
63.4900 678.0000 1.0000
63.5000 693.0000 1.0000
63.5100 682.0000 1.0000
63.5200 695.0000 1.0000
63.5300 630.0000 1.0000
63.5400 637.0000 1.0000
63.5500 679.0000 1.0000
63.5600 725.0000 1.0000
63.5700 691.0000 1.0000
63.5800 734.0000 1.0000
63.5900 678.0000 1.0000
63.6000 672.0000 1.0000
63.6100 721.0000 1.0000
63.6200 741.0000 1.0000
63.6300 700.0000 1.0000
63.6400 734.0000 1.0000
63.6500 746.0000 1.0000
63.6600 682.0000 1.0000
63.6700 684.0000 1.0000
63.6800 639.0000 1.0000
63.6900 685.0000 1.0000
63.7000 679.0000 1.0000
63.7100 659.0000 1.0000
63.7200 699.0000 1.0000
63.7300 675.0000 1.0000
63.7400 648.0000 1.0000
63.7500 672.0000 1.0000
63.7600 718.0000 1.0000
63.7700 685.0000 1.0000
63.7800 662.0000 1.0000
63.7900 676.0000 1.0000
63.8000 682.0000 1.0000
63.8100 669.0000 1.0000
63.8200 705.0000 1.0000
63.8300 658.0000 1.0000
63.8400 664.0000 1.0000
63.8500 669.0000 1.0000
63.8600 694.0000 1.0000
63.8700 675.0000 1.0000
63.8800 653.0000 1.0000
63.8900 661.0000 1.0000
63.9000 690.0000 1.0000
63.9100 674.0000 1.0000
63.9200 672.0000 1.0000
63.9300 665.0000 1.0000
63.9400 695.0000 1.0000
63.9500 660.0000 1.0000
63.9600 643.0000 1.0000
63.9700 669.0000 1.0000
63.9800 649.0000 1.0000
63.9900 661.0000 1.0000
64.0000 706.0000 1.0000
64.0100 684.0000 1.0000
64.0200 651.0000 1.0000
64.0300 674.0000 1.0000
64.0400 688.0000 1.0000
64.0500 723.0000 1.0000
64.0600 668.0000 1.0000
64.0700 665.0000 1.0000
64.0800 688.0000 1.0000
64.0900 713.0000 1.0000
64.1000 717.0000 1.0000
64.1100 684.0000 1.0000
64.1200 653.0000 1.0000
64.1300 684.0000 1.0000
64.1400 663.0000 1.0000
64.1500 690.0000 1.0000
64.1600 678.0000 1.0000
64.1700 647.0000 1.0000
64.1800 699.0000 1.0000
64.1900 692.0000 1.0000
64.2000 723.0000 1.0000
64.2100 739.0000 1.0000
64.2200 694.0000 1.0000
64.2300 694.0000 1.0000
64.2400 712.0000 1.0000
64.2500 690.0000 1.0000
64.2600 709.0000 1.0000
64.2700 698.0000 1.0000
64.2800 681.0000 1.0000
64.2900 688.0000 1.0000
64.3000 699.0000 1.0000
64.3100 702.0000 1.0000
64.3200 726.0000 1.0000
64.3300 677.0000 1.0000
64.3400 722.0000 1.0000
64.3500 718.0000 1.0000
64.3600 690.0000 1.0000
64.3700 687.0000 1.0000
64.3800 701.0000 1.0000
64.3900 717.0000 1.0000
64.4000 695.0000 1.0000
64.4100 708.0000 1.0000
64.4200 662.0000 1.0000
64.4300 681.0000 1.0000
64.4400 689.0000 1.0000
64.4500 709.0000 1.0000
64.4600 751.0000 1.0000
64.4700 735.0000 1.0000
64.4800 711.0000 1.0000
64.4900 709.0000 1.0000
64.5000 716.0000 1.0000
64.5100 715.0000 1.0000
64.5200 731.0000 1.0000
64.5300 716.0000 1.0000
64.5400 714.0000 1.0000
64.5500 768.0000 1.0000
64.5600 750.0000 1.0000
64.5700 760.0000 1.0000
64.5800 747.0000 1.0000
64.5900 754.0000 1.0000
64.6000 734.0000 1.0000
64.6100 746.0000 1.0000
64.6200 807.0000 1.0000
64.6300 730.0000 1.0000
64.6400 760.0000 1.0000
64.6500 768.0000 1.0000
64.6600 790.0000 1.0000
64.6700 773.0000 1.0000
64.6800 778.0000 1.0000
64.6900 763.0000 1.0000
64.7000 779.0000 1.0000
64.7100 812.0000 1.0000
64.7200 775.0000 1.0000
64.7300 791.0000 1.0000
64.7400 768.0000 1.0000
64.7500 768.0000 1.0000
64.7600 780.0000 1.0000
64.7700 790.0000 1.0000
64.7800 764.0000 1.0000
64.7900 725.0000 1.0000
64.8000 715.0000 1.0000
64.8100 754.0000 1.0000
64.8200 734.0000 1.0000
64.8300 751.0000 1.0000
64.8400 740.0000 1.0000
64.8500 748.0000 1.0000
64.8600 763.0000 1.0000
64.8700 755.0000 1.0000
64.8800 749.0000 1.0000
64.8900 747.0000 1.0000
64.9000 765.0000 1.0000
64.9100 746.0000 1.0000
64.9200 784.0000 1.0000
64.9300 749.0000 1.0000
64.9400 770.0000 1.0000
64.9500 739.0000 1.0000
64.9600 733.0000 1.0000
64.9700 725.0000 1.0000
64.9800 711.0000 1.0000
64.9900 750.0000 1.0000
65.0000 752.0000 1.0000
65.0100 731.0000 1.0000
65.0200 765.0000 1.0000
65.0300 756.0000 1.0000
65.0400 712.0000 1.0000
65.0500 709.0000 1.0000
65.0600 731.0000 1.0000
65.0700 732.0000 1.0000
65.0800 738.0000 1.0000
65.0900 721.0000 1.0000
65.1000 745.0000 1.0000
65.1100 760.0000 1.0000
65.1200 714.0000 1.0000
65.1300 710.0000 1.0000
65.1400 683.0000 1.0000
65.1500 716.0000 1.0000
65.1600 725.0000 1.0000
65.1700 731.0000 1.0000
65.1800 742.0000 1.0000
65.1900 718.0000 1.0000
65.2000 729.0000 1.0000
65.2100 701.0000 1.0000
65.2200 697.0000 1.0000
65.2300 747.0000 1.0000
65.2400 692.0000 1.0000
65.2500 703.0000 1.0000
65.2600 715.0000 1.0000
65.2700 728.0000 1.0000
65.2800 725.0000 1.0000
65.2900 737.0000 1.0000
65.3000 713.0000 1.0000
65.3100 772.0000 1.0000
65.3200 676.0000 1.0000
65.3300 691.0000 1.0000
65.3400 700.0000 1.0000
65.3500 703.0000 1.0000
65.3600 733.0000 1.0000
65.3700 710.0000 1.0000
65.3800 709.0000 1.0000
65.3900 692.0000 1.0000
65.4000 693.0000 1.0000
65.4100 706.0000 1.0000
65.4200 723.0000 1.0000
65.4300 693.0000 1.0000
65.4400 718.0000 1.0000
65.4500 733.0000 1.0000
65.4600 682.0000 1.0000
65.4700 694.0000 1.0000
65.4800 714.0000 1.0000
65.4900 736.0000 1.0000
65.5000 709.0000 1.0000
65.5100 756.0000 1.0000
65.5200 740.0000 1.0000
65.5300 718.0000 1.0000
65.5400 721.0000 1.0000
65.5500 736.0000 1.0000
65.5600 738.0000 1.0000
65.5700 751.0000 1.0000
65.5800 764.0000 1.0000
65.5900 720.0000 1.0000
65.6000 714.0000 1.0000
65.6100 742.0000 1.0000
65.6200 756.0000 1.0000
65.6300 776.0000 1.0000
65.6400 753.0000 1.0000
65.6500 786.0000 1.0000
65.6600 741.0000 1.0000
65.6700 778.0000 1.0000
65.6800 783.0000 1.0000
65.6900 738.0000 1.0000
65.7000 791.0000 1.0000
65.7100 769.0000 1.0000
65.7200 769.0000 1.0000
65.7300 788.0000 1.0000
65.7400 767.0000 1.0000
65.7500 782.0000 1.0000
65.7600 795.0000 1.0000
65.7700 816.0000 1.0000
65.7800 785.0000 1.0000
65.7900 836.0000 1.0000
65.8000 840.0000 1.0000
65.8100 807.0000 1.0000
65.8200 811.0000 1.0000
65.8300 833.0000 1.0000
65.8400 883.0000 1.0000
65.8500 889.0000 1.0000
65.8600 865.0000 1.0000
65.8700 884.0000 1.0000
65.8800 917.0000 1.0000
65.8900 961.0000 1.0000
65.9000 928.0000 1.0000
65.9100 959.0000 1.0000
65.9200 989.0000 1.0000
65.9300 995.0000 1.0000
65.9400 1011.0000 1.0000
65.9500 1051.0000 1.0000
65.9600 1053.0000 1.0000
65.9700 1045.0000 1.0000
65.9800 1095.0000 1.0000
65.9900 1202.0000 1.0000
66.0000 1188.0000 1.0000
66.0100 1191.0000 1.0000
66.0200 1177.0000 1.0000
66.0300 1310.0000 1.0000
66.0400 1398.0000 1.0000
66.0500 1463.0000 1.0000
66.0600 1511.0000 1.0000
66.0700 1548.0000 1.0000
66.0800 1651.0000 1.0000
66.0900 1749.0000 1.0000
66.1000 1857.0000 1.0000
66.1100 1942.0000 1.0000
66.1200 2048.0000 1.0000
66.1300 2191.0000 1.0000
66.1400 2328.0000 1.0000
66.1500 2428.0000 1.0000
66.1600 2594.0000 1.0000
66.1700 2644.0000 1.0000
66.1800 2752.0000 1.0000
66.1900 2791.0000 1.0000
66.2000 2775.0000 1.0000
66.2100 2807.0000 1.0000
66.2200 2780.0000 1.0000
66.2300 2824.0000 1.0000
66.2400 2775.0000 1.0000
66.2500 2849.0000 1.0000
66.2600 2779.0000 1.0000
66.2700 2701.0000 1.0000
66.2800 2642.0000 1.0000
66.2900 2526.0000 1.0000
66.3000 2546.0000 1.0000
66.3100 2578.0000 1.0000
66.3200 2496.0000 1.0000
66.3300 2464.0000 1.0000
66.3400 2401.0000 1.0000
66.3500 2393.0000 1.0000
66.3600 2313.0000 1.0000
66.3700 2326.0000 1.0000
66.3800 2269.0000 1.0000
66.3900 2293.0000 1.0000
66.4000 2173.0000 1.0000
66.4100 2170.0000 1.0000
66.4200 2078.0000 1.0000
66.4300 1996.0000 1.0000
66.4400 1953.0000 1.0000
66.4500 1838.0000 1.0000
66.4600 1803.0000 1.0000
66.4700 1736.0000 1.0000
66.4800 1648.0000 1.0000
66.4900 1508.0000 1.0000
66.5000 1526.0000 1.0000
66.5100 1491.0000 1.0000
66.5200 1435.0000 1.0000
66.5300 1319.0000 1.0000
66.5400 1281.0000 1.0000
66.5500 1247.0000 1.0000
66.5600 1215.0000 1.0000
66.5700 1197.0000 1.0000
66.5800 1179.0000 1.0000
66.5900 1154.0000 1.0000
66.6000 1109.0000 1.0000
66.6100 1010.0000 1.0000
66.6200 1017.0000 1.0000
66.6300 1054.0000 1.0000
66.6400 1003.0000 1.0000
66.6500 965.0000 1.0000
66.6600 888.0000 1.0000
66.6700 923.0000 1.0000
66.6800 880.0000 1.0000
66.6900 902.0000 1.0000
66.7000 870.0000 1.0000
66.7100 840.0000 1.0000
66.7200 816.0000 1.0000
66.7300 848.0000 1.0000
66.7400 838.0000 1.0000
66.7500 824.0000 1.0000
66.7600 842.0000 1.0000
66.7700 811.0000 1.0000
66.7800 799.0000 1.0000
66.7900 810.0000 1.0000
66.8000 768.0000 1.0000
66.8100 739.0000 1.0000
66.8200 744.0000 1.0000
66.8300 790.0000 1.0000
66.8400 756.0000 1.0000
66.8500 835.0000 1.0000
66.8600 752.0000 1.0000
66.8700 724.0000 1.0000
66.8800 739.0000 1.0000
66.8900 730.0000 1.0000
66.9000 740.0000 1.0000
66.9100 709.0000 1.0000
66.9200 681.0000 1.0000
66.9300 735.0000 1.0000
66.9400 770.0000 1.0000
66.9500 693.0000 1.0000
66.9600 695.0000 1.0000
66.9700 698.0000 1.0000
66.9800 674.0000 1.0000
66.9900 695.0000 1.0000
67.0000 688.0000 1.0000
67.0100 696.0000 1.0000
67.0200 732.0000 1.0000
67.0300 706.0000 1.0000
67.0400 682.0000 1.0000
67.0500 681.0000 1.0000
67.0600 674.0000 1.0000
67.0700 686.0000 1.0000
67.0800 633.0000 1.0000
67.0900 680.0000 1.0000
67.1000 688.0000 1.0000
67.1100 684.0000 1.0000
67.1200 712.0000 1.0000
67.1300 671.0000 1.0000
67.1400 674.0000 1.0000
67.1500 687.0000 1.0000
67.1600 645.0000 1.0000
67.1700 612.0000 1.0000
67.1800 656.0000 1.0000
67.1900 694.0000 1.0000
67.2000 689.0000 1.0000
67.2100 684.0000 1.0000
67.2200 664.0000 1.0000
67.2300 665.0000 1.0000
67.2400 671.0000 1.0000
67.2500 669.0000 1.0000
67.2600 647.0000 1.0000
67.2700 627.0000 1.0000
67.2800 650.0000 1.0000
67.2900 661.0000 1.0000
67.3000 638.0000 1.0000
67.3100 653.0000 1.0000
67.3200 669.0000 1.0000
67.3300 643.0000 1.0000
67.3400 624.0000 1.0000
67.3500 640.0000 1.0000
67.3600 623.0000 1.0000
67.3700 679.0000 1.0000
67.3800 660.0000 1.0000
67.3900 659.0000 1.0000
67.4000 656.0000 1.0000
67.4100 660.0000 1.0000
67.4200 623.0000 1.0000
67.4300 614.0000 1.0000
67.4400 681.0000 1.0000
67.4500 688.0000 1.0000
67.4600 635.0000 1.0000
67.4700 625.0000 1.0000
67.4800 621.0000 1.0000
67.4900 639.0000 1.0000
67.5000 624.0000 1.0000
67.5100 657.0000 1.0000
67.5200 663.0000 1.0000
67.5300 594.0000 1.0000
67.5400 622.0000 1.0000
67.5500 626.0000 1.0000
67.5600 604.0000 1.0000
67.5700 599.0000 1.0000
67.5800 622.0000 1.0000
67.5900 637.0000 1.0000
67.6000 620.0000 1.0000
67.6100 642.0000 1.0000
67.6200 625.0000 1.0000
67.6300 661.0000 1.0000
67.6400 637.0000 1.0000
67.6500 636.0000 1.0000
67.6600 603.0000 1.0000
67.6700 637.0000 1.0000
67.6800 652.0000 1.0000
67.6900 668.0000 1.0000
67.7000 618.0000 1.0000
67.7100 627.0000 1.0000
67.7200 601.0000 1.0000
67.7300 613.0000 1.0000
67.7400 609.0000 1.0000
67.7500 611.0000 1.0000
67.7600 611.0000 1.0000
67.7700 596.0000 1.0000
67.7800 611.0000 1.0000
67.7900 598.0000 1.0000
67.8000 654.0000 1.0000
67.8100 601.0000 1.0000
67.8200 595.0000 1.0000
67.8300 568.0000 1.0000
67.8400 643.0000 1.0000
67.8500 631.0000 1.0000
67.8600 568.0000 1.0000
67.8700 621.0000 1.0000
67.8800 628.0000 1.0000
67.8900 617.0000 1.0000
67.9000 615.0000 1.0000
67.9100 650.0000 1.0000
67.9200 649.0000 1.0000
67.9300 589.0000 1.0000
67.9400 567.0000 1.0000
67.9500 603.0000 1.0000
67.9600 598.0000 1.0000
67.9700 656.0000 1.0000
67.9800 666.0000 1.0000
67.9900 606.0000 1.0000
68.0000 622.0000 1.0000
68.0100 591.0000 1.0000
68.0200 632.0000 1.0000
68.0300 555.0000 1.0000
68.0400 621.0000 1.0000
68.0500 627.0000 1.0000
68.0600 628.0000 1.0000
68.0700 613.0000 1.0000
68.0800 614.0000 1.0000
68.0900 602.0000 1.0000
68.1000 623.0000 1.0000
68.1100 621.0000 1.0000
68.1200 612.0000 1.0000
68.1300 649.0000 1.0000
68.1400 642.0000 1.0000
68.1500 663.0000 1.0000
68.1600 641.0000 1.0000
68.1700 611.0000 1.0000
68.1800 588.0000 1.0000
68.1900 607.0000 1.0000
68.2000 556.0000 1.0000
68.2100 595.0000 1.0000
68.2200 626.0000 1.0000
68.2300 636.0000 1.0000
68.2400 620.0000 1.0000
68.2500 616.0000 1.0000
68.2600 626.0000 1.0000
68.2700 556.0000 1.0000
68.2800 582.0000 1.0000
68.2900 642.0000 1.0000
68.3000 621.0000 1.0000
68.3100 618.0000 1.0000
68.3200 627.0000 1.0000
68.3300 610.0000 1.0000
68.3400 574.0000 1.0000
68.3500 610.0000 1.0000
68.3600 626.0000 1.0000
68.3700 593.0000 1.0000
68.3800 611.0000 1.0000
68.3900 626.0000 1.0000
68.4000 618.0000 1.0000
68.4100 593.0000 1.0000
68.4200 609.0000 1.0000
68.4300 576.0000 1.0000
68.4400 609.0000 1.0000
68.4500 640.0000 1.0000
68.4600 593.0000 1.0000
68.4700 618.0000 1.0000
68.4800 623.0000 1.0000
68.4900 596.0000 1.0000
68.5000 614.0000 1.0000
68.5100 608.0000 1.0000
68.5200 615.0000 1.0000
68.5300 640.0000 1.0000
68.5400 620.0000 1.0000
68.5500 566.0000 1.0000
68.5600 597.0000 1.0000
68.5700 603.0000 1.0000
68.5800 572.0000 1.0000
68.5900 608.0000 1.0000
68.6000 593.0000 1.0000
68.6100 592.0000 1.0000
68.6200 605.0000 1.0000
68.6300 585.0000 1.0000
68.6400 603.0000 1.0000
68.6500 605.0000 1.0000
68.6600 596.0000 1.0000
68.6700 611.0000 1.0000
68.6800 615.0000 1.0000
68.6900 590.0000 1.0000
68.7000 575.0000 1.0000
68.7100 637.0000 1.0000
68.7200 618.0000 1.0000
68.7300 607.0000 1.0000
68.7400 618.0000 1.0000
68.7500 637.0000 1.0000
68.7600 623.0000 1.0000
68.7700 603.0000 1.0000
68.7800 591.0000 1.0000
68.7900 596.0000 1.0000
68.8000 576.0000 1.0000
68.8100 611.0000 1.0000
68.8200 607.0000 1.0000
68.8300 592.0000 1.0000
68.8400 611.0000 1.0000
68.8500 572.0000 1.0000
68.8600 620.0000 1.0000
68.8700 622.0000 1.0000
68.8800 571.0000 1.0000
68.8900 637.0000 1.0000
68.9000 623.0000 1.0000
68.9100 578.0000 1.0000
68.9200 601.0000 1.0000
68.9300 607.0000 1.0000
68.9400 567.0000 1.0000
68.9500 607.0000 1.0000
68.9600 591.0000 1.0000
68.9700 602.0000 1.0000
68.9800 591.0000 1.0000
68.9900 574.0000 1.0000
69.0000 585.0000 1.0000
69.0100 570.0000 1.0000
69.0200 584.0000 1.0000
69.0300 602.0000 1.0000
69.0400 572.0000 1.0000
69.0500 590.0000 1.0000
69.0600 619.0000 1.0000
69.0700 589.0000 1.0000
69.0800 568.0000 1.0000
69.0900 589.0000 1.0000
69.1000 590.0000 1.0000
69.1100 613.0000 1.0000
69.1200 584.0000 1.0000
69.1300 567.0000 1.0000
69.1400 640.0000 1.0000
69.1500 581.0000 1.0000
69.1600 565.0000 1.0000
69.1700 562.0000 1.0000
69.1800 612.0000 1.0000
69.1900 603.0000 1.0000
69.2000 610.0000 1.0000
69.2100 578.0000 1.0000
69.2200 548.0000 1.0000
69.2300 584.0000 1.0000
69.2400 588.0000 1.0000
69.2500 601.0000 1.0000
69.2600 561.0000 1.0000
69.2700 563.0000 1.0000
69.2800 541.0000 1.0000
69.2900 613.0000 1.0000
69.3000 622.0000 1.0000
69.3100 610.0000 1.0000
69.3200 593.0000 1.0000
69.3300 609.0000 1.0000
69.3400 632.0000 1.0000
69.3500 604.0000 1.0000
69.3600 564.0000 1.0000
69.3700 595.0000 1.0000
69.3800 621.0000 1.0000
69.3900 598.0000 1.0000
69.4000 591.0000 1.0000
69.4100 599.0000 1.0000
69.4200 588.0000 1.0000
69.4300 583.0000 1.0000
69.4400 623.0000 1.0000
69.4500 605.0000 1.0000
69.4600 650.0000 1.0000
69.4700 580.0000 1.0000
69.4800 588.0000 1.0000
69.4900 587.0000 1.0000
69.5000 592.0000 1.0000
69.5100 603.0000 1.0000
69.5200 599.0000 1.0000
69.5300 594.0000 1.0000
69.5400 596.0000 1.0000
69.5500 592.0000 1.0000
69.5600 632.0000 1.0000
69.5700 586.0000 1.0000
69.5800 599.0000 1.0000
69.5900 570.0000 1.0000
69.6000 606.0000 1.0000
69.6100 605.0000 1.0000
69.6200 597.0000 1.0000
69.6300 584.0000 1.0000
69.6400 602.0000 1.0000
69.6500 598.0000 1.0000
69.6600 607.0000 1.0000
69.6700 567.0000 1.0000
69.6800 570.0000 1.0000
69.6900 599.0000 1.0000
69.7000 601.0000 1.0000
69.7100 573.0000 1.0000
69.7200 574.0000 1.0000
69.7300 590.0000 1.0000
69.7400 606.0000 1.0000
69.7500 596.0000 1.0000
69.7600 588.0000 1.0000
69.7700 551.0000 1.0000
69.7800 587.0000 1.0000
69.7900 606.0000 1.0000
69.8000 583.0000 1.0000
69.8100 620.0000 1.0000
69.8200 603.0000 1.0000
69.8300 611.0000 1.0000
69.8400 574.0000 1.0000
69.8500 611.0000 1.0000
69.8600 572.0000 1.0000
69.8700 581.0000 1.0000
69.8800 588.0000 1.0000
69.8900 578.0000 1.0000
69.9000 581.0000 1.0000
69.9100 577.0000 1.0000
69.9200 578.0000 1.0000
69.9300 569.0000 1.0000
69.9400 538.0000 1.0000
69.9500 578.0000 1.0000
69.9600 589.0000 1.0000
69.9700 587.0000 1.0000
69.9800 577.0000 1.0000
69.9900 617.0000 1.0000
70.0000 602.0000 1.0000
*RAS_INT_END
*RAS_TEMPERATURE_START
*RAS_TEMPERATURE_END
*RAS_DATA_END
