*RAS_DATA_START
*RAS_HEADER_START
*DISP_FMT_X "%.2f"
*DISP_FMT_Y "%.0f"
*DISP_FULLSCALE "12970.0000000000"
*DISP_LINE_COLOR "255.0000000000"
*DISP_LINE_STYLE "0.0000000000"
*DISP_LINE_WIDTH "0.2500000000"
*DISP_NOTE "測定データ-2"
*DISP_OFFSET_Y "0.0000000000"
*DISP_PEAKSEARCH_UNIT_Y "cps"
*DISP_RANGE_BOTTOM "0.0000000000"
*DISP_RANGE_LEFT "20.0000000000"
*DISP_RANGE_LOGCUTOFF "0.0100000000"
*DISP_RANGE_RIGHT "70.0000000000"
*DISP_RANGE_TOP "12970.0000000000"
*DISP_SCALE_MODE_Y "0.0000000000"
*DISP_TAB_NAME "2θ/θ"
*DISP_TITLE_Y "強度"
*DISP_UNIT_Y "cps"
*DISP_WINDOW_NAME "MSG_MACROENGINE"
*FILE_COMMENT " "
*FILE_MD5 ""
*FILE_MEMO " "
*FILE_OPERATOR "Administrator"
*FILE_SAMPLE " "
*FILE_TYPE "RAS_RAW"
*FILE_USERGROUP "システムマネージャ"
*FILE_VERSION "1.0000000000"
*HW_ATTACHMENT_ID "ATT0025"
*HW_ATTACHMENT_NAME "標準|Standard"
*HW_COUNTER_ID-0 "CUT0025"
*HW_COUNTER_ID-1 "CUT0020"
*HW_COUNTER_ID-2 "CUT0020"
*HW_COUNTER_ID-3 "CSL0021"
*HW_COUNTER_ID-4 "CMC0021"
*HW_COUNTER_NAME-0 "D/teX Ultra|D/teX Ultra"
*HW_COUNTER_NAME-1 "None|None"
*HW_COUNTER_NAME-2 "None|None"
*HW_COUNTER_NAME-3 "BBM|BBM"
*HW_COUNTER_NAME-4 "検出器モノクロメータ|Detector monochromator"
*HW_COUNTER_SELECT_NAME "D/teX Ultra|D/teX Ultra"
*HW_GONIOMETER_ID "GON0023"
*HW_GONIOMETER_NAME "SmartLab|SmartLab"
*HW_GONIOMETER_RADIUS-0 "90.0"
*HW_GONIOMETER_RADIUS-1 "114.0"
*HW_GONIOMETER_RADIUS-2 "190.0"
*HW_GONIOMETER_RADIUS-3 "300.0"
*HW_GONIOMETER_RADIUS-4 "187.0"
*HW_GONIOMETER_RADIUS-5 "300.0"
*HW_GONIOMETER_RADIUS-6 "113.0"
*HW_GONIOMETER_RADIUS-7 "331.0"
*HW_I_OPT_ID-0 "CBO0021"
*HW_I_OPT_ID-1 "ICR0023"
*HW_I_OPT_ID-2 "ISL0021"
*HW_I_OPT_ID-3 "ISO0021"
*HW_I_OPT_ID-4 "IAD0021"
*HW_I_OPT_ID-5 "IPR0001"
*HW_I_OPT_NAME-0 "CBOユニット|CBO unit"
*HW_I_OPT_NAME-1 "標準入射光学ユニット|Standard incident optical unit"
*HW_I_OPT_NAME-2 "標準入射スリットボックス|Standard incident slit box"
*HW_I_OPT_NAME-3 "入射平行スリット|Incident parallel slit"
*HW_I_OPT_NAME-4 "長手制限スリット|Length limiting slit"
*HW_I_OPT_NAME-5 "None|None"
*HW_R_ATTENUATER_AUTOMODE "0"
*HW_R_OPT_ID-0 "RSS0021"
*HW_R_OPT_ID-1 "RCR0023"
*HW_R_OPT_ID-2 "RSO0021"
*HW_R_OPT_ID-3 "RRS0021"
*HW_R_OPT_ID-4 "ATN0021"
*HW_R_OPT_ID-5 "RFL0021"
*HW_R_OPT_ID-6 "RAD0021"
*HW_R_OPT_NAME-0 "標準受光スリットボックス1|Standard receiving slit box # 1"
*HW_R_OPT_NAME-1 "標準受光光学ユニット1|Standard receiving unit # 1"
*HW_R_OPT_NAME-2 "標準受光光学ユニット2|Standard receiving optical unit # 2"
*HW_R_OPT_NAME-3 "標準受光スリットボックス2|Standard receiving slit box # 2"
*HW_R_OPT_NAME-4 "標準アッテネータ|Standard Attenuator"
*HW_R_OPT_NAME-5 "Cu Kβ|Cu K-beta"
*HW_R_OPT_NAME-6 "調整用受光スリット|Alignment receiving slit"
*HW_SAMPLE_HOLDER_ID "SMP0023"
*HW_SAMPLE_HOLDER_NAME "標準Zステージ|Standard Z stage"
*HW_XG_CURRENT_MAX "50"
*HW_XG_CURRENT_MIN "2"
*HW_XG_CURRENT_RESOLUTION "1"
*HW_XG_CURRENT_UNIT "mA"
*HW_XG_FOCUS "1mm x 10mm"
*HW_XG_FOCUS_TYPE "Normal"
*HW_XG_ID ""
*HW_XG_NAME "3kW 封入管(ID:1200)|3kW Sealed tube(ID:1200)"
*HW_XG_TARGET_ATOMIC_NUMBER "29.0000000000"
*HW_XG_TARGET_NAME "Cu"
*HW_XG_TYPE "Hermetic"
*HW_XG_VOLTAGE_MAX "60"
*HW_XG_VOLTAGE_MIN "20"
*HW_XG_VOLTAGE_RESOLUTION "1"
*HW_XG_VOLTAGE_UNIT "kV"
*HW_XG_WATT_MAX "1.500"
*HW_XG_WATT_UNIT "kW"
*HW_XG_WAVE_LENGTH_ALPHA1 "1.540593"
*HW_XG_WAVE_LENGTH_ALPHA2 "1.544414"
*HW_XG_WAVE_LENGTH_BETA "1.392250"
*MEAS_COND_AXIS_NAME-0 "2θ/θ"
*MEAS_COND_AXIS_NAME-1 "2θ"
*MEAS_COND_AXIS_NAME-2 "ω"
*MEAS_COND_AXIS_NAME-3 "Z"
*MEAS_COND_AXIS_NAME-4 "2θ/ω"
*MEAS_COND_AXIS_NAME-5 "θs"
*MEAS_COND_AXIS_NAME-6 "θd"
*MEAS_COND_AXIS_NAME-7 "Ts"
*MEAS_COND_AXIS_NAME-8 "CBO選択スリット"
*MEAS_COND_AXIS_NAME-9 "M"
*MEAS_COND_AXIS_NAME-10 "入射平行スリット"
*MEAS_COND_AXIS_NAME-11 "入射スリット"
*MEAS_COND_AXIS_NAME-12 ""
*MEAS_COND_AXIS_NAME-13 "Zs"
*MEAS_COND_AXIS_NAME-14 "入射光学素子"
*MEAS_COND_AXIS_NAME-15 "長手制限スリット"
*MEAS_COND_AXIS_NAME-16 "センタースリット"
*MEAS_COND_AXIS_NAME-17 "フィルター"
*MEAS_COND_AXIS_NAME-18 "受光スリット1"
*MEAS_COND_AXIS_NAME-19 "受光スリット2"
*MEAS_COND_AXIS_NAME-20 "受光光学素子"
*MEAS_COND_AXIS_NAME-21 "受光平行スリット"
*MEAS_COND_AXIS_NAME-22 "調整用受光スリット"
*MEAS_COND_AXIS_NAME-23 ""
*MEAS_COND_AXIS_NAME-24 ""
*MEAS_COND_AXIS_NAME-25 "Zd"
*MEAS_COND_AXIS_NAME-26 "アッテネータ"
*MEAS_COND_AXIS_NAME-27 "検出器モノクロメータ"
*MEAS_COND_AXIS_NAME-28 "モノクロメータスリット"
*MEAS_COND_AXIS_NAME-29 "プライマリビーム"
*MEAS_COND_AXIS_NAME-30 "PHA"
*MEAS_COND_AXIS_NAME_INTERNAL-0 "TwoThetaTheta"
*MEAS_COND_AXIS_NAME_INTERNAL-1 "TwoTheta"
*MEAS_COND_AXIS_NAME_INTERNAL-2 "Omega"
*MEAS_COND_AXIS_NAME_INTERNAL-3 "Z"
*MEAS_COND_AXIS_NAME_INTERNAL-4 "TwoThetaOmega"
*MEAS_COND_AXIS_NAME_INTERNAL-5 "ThetaS"
*MEAS_COND_AXIS_NAME_INTERNAL-6 "ThetaD"
*MEAS_COND_AXIS_NAME_INTERNAL-7 "Ts"
*MEAS_COND_AXIS_NAME_INTERNAL-8 "CBO"
*MEAS_COND_AXIS_NAME_INTERNAL-9 "CBO-M"
*MEAS_COND_AXIS_NAME_INTERNAL-10 "IncidentSollerSlit"
*MEAS_COND_AXIS_NAME_INTERNAL-11 "IncidentSlitBox"
*MEAS_COND_AXIS_NAME_INTERNAL-12 "IncidentSlitBox-_Axis"
*MEAS_COND_AXIS_NAME_INTERNAL-13 "Zs"
*MEAS_COND_AXIS_NAME_INTERNAL-14 "IncidentMonochromator"
*MEAS_COND_AXIS_NAME_INTERNAL-15 "IncidentAxdSlit"
*MEAS_COND_AXIS_NAME_INTERNAL-16 "CenterSlit"
*MEAS_COND_AXIS_NAME_INTERNAL-17 "Filter"
*MEAS_COND_AXIS_NAME_INTERNAL-18 "ReceivingSlitBox1"
*MEAS_COND_AXIS_NAME_INTERNAL-19 "ReceivingSlitBox2"
*MEAS_COND_AXIS_NAME_INTERNAL-20 "ReceivingOptics"
*MEAS_COND_AXIS_NAME_INTERNAL-21 "ReceivingSollerSlit"
*MEAS_COND_AXIS_NAME_INTERNAL-22 "ReceivingAxdSlit"
*MEAS_COND_AXIS_NAME_INTERNAL-23 "ReceivingSlitBox1-_Axis"
*MEAS_COND_AXIS_NAME_INTERNAL-24 "ReceivingSlitBox2-_Axis"
*MEAS_COND_AXIS_NAME_INTERNAL-25 "ReceivingSlitBox2-Zd"
*MEAS_COND_AXIS_NAME_INTERNAL-26 "Attenuator"
*MEAS_COND_AXIS_NAME_INTERNAL-27 "CounterMonochromator"
*MEAS_COND_AXIS_NAME_INTERNAL-28 "CounterSlit"
*MEAS_COND_AXIS_NAME_INTERNAL-29 "IncidentPrimary"
*MEAS_COND_AXIS_NAME_INTERNAL-30 "PHA"
*MEAS_COND_AXIS_NAME_MAGICNO-0 "83951616.0000000000"
*MEAS_COND_AXIS_NAME_MAGICNO-1 "268632064.0000000000"
*MEAS_COND_AXIS_NAME_MAGICNO-2 "268500992.0000000000"
*MEAS_COND_AXIS_NAME_MAGICNO-3 "285278208.0000000000"
*MEAS_COND_AXIS_NAME_MAGICNO-4 "83951616.0000000000"
*MEAS_COND_AXIS_NAME_MAGICNO-5 "131072.0000000000"
*MEAS_COND_AXIS_NAME_MAGICNO-6 "131072.0000000000"
*MEAS_COND_AXIS_NAME_MAGICNO-7 "318898176.0000000000"
*MEAS_COND_AXIS_NAME_MAGICNO-8 "20971521.0000000000"
*MEAS_COND_AXIS_NAME_MAGICNO-9 "285343744.0000000000"
*MEAS_COND_AXIS_NAME_MAGICNO-10 "20971521.0000000000"
*MEAS_COND_AXIS_NAME_MAGICNO-11 "22020097.0000000000"
*MEAS_COND_AXIS_NAME_MAGICNO-12 "25165824.0000000000"
*MEAS_COND_AXIS_NAME_MAGICNO-13 "318898176.0000000000"
*MEAS_COND_AXIS_NAME_MAGICNO-14 "1.0000000000"
*MEAS_COND_AXIS_NAME_MAGICNO-15 "20971521.0000000000"
*MEAS_COND_AXIS_NAME_MAGICNO-16 "20971521.0000000000"
*MEAS_COND_AXIS_NAME_MAGICNO-17 "20971521.0000000000"
*MEAS_COND_AXIS_NAME_MAGICNO-18 "23068673.0000000000"
*MEAS_COND_AXIS_NAME_MAGICNO-19 "23068673.0000000000"
*MEAS_COND_AXIS_NAME_MAGICNO-20 "20971521.0000000000"
*MEAS_COND_AXIS_NAME_MAGICNO-21 "20971521.0000000000"
*MEAS_COND_AXIS_NAME_MAGICNO-22 "20971521.0000000000"
*MEAS_COND_AXIS_NAME_MAGICNO-23 "25165824.0000000000"
*MEAS_COND_AXIS_NAME_MAGICNO-24 "25165824.0000000000"
*MEAS_COND_AXIS_NAME_MAGICNO-25 "285343744.0000000000"
*MEAS_COND_AXIS_NAME_MAGICNO-26 "17301505.0000000000"
*MEAS_COND_AXIS_NAME_MAGICNO-27 "20971521.0000000000"
*MEAS_COND_AXIS_NAME_MAGICNO-28 "20971521.0000000000"
*MEAS_COND_AXIS_NAME_MAGICNO-29 "20971521.0000000000"
*MEAS_COND_AXIS_NAME_MAGICNO-30 "0.0000000000"
*MEAS_COND_AXIS_OFFSET-0 "-"
*MEAS_COND_AXIS_OFFSET-1 "-0.1081000000"
*MEAS_COND_AXIS_OFFSET-2 "0.3758000000"
*MEAS_COND_AXIS_OFFSET-3 "-"
*MEAS_COND_AXIS_OFFSET-4 "-"
*MEAS_COND_AXIS_OFFSET-5 "0.3758000000"
*MEAS_COND_AXIS_OFFSET-6 "-0.4839000000"
*MEAS_COND_AXIS_OFFSET-7 "-"
*MEAS_COND_AXIS_OFFSET-8 "-"
*MEAS_COND_AXIS_OFFSET-9 "-"
*MEAS_COND_AXIS_OFFSET-10 "-"
*MEAS_COND_AXIS_OFFSET-11 "-"
*MEAS_COND_AXIS_OFFSET-12 "-"
*MEAS_COND_AXIS_OFFSET-13 "-"
*MEAS_COND_AXIS_OFFSET-14 "-"
*MEAS_COND_AXIS_OFFSET-15 "-"
*MEAS_COND_AXIS_OFFSET-16 "-"
*MEAS_COND_AXIS_OFFSET-17 "-"
*MEAS_COND_AXIS_OFFSET-18 "-"
*MEAS_COND_AXIS_OFFSET-19 "-"
*MEAS_COND_AXIS_OFFSET-20 "-"
*MEAS_COND_AXIS_OFFSET-21 "-"
*MEAS_COND_AXIS_OFFSET-22 "-"
*MEAS_COND_AXIS_OFFSET-23 "-"
*MEAS_COND_AXIS_OFFSET-24 "-"
*MEAS_COND_AXIS_OFFSET-25 "-"
*MEAS_COND_AXIS_OFFSET-26 "-"
*MEAS_COND_AXIS_OFFSET-27 "-"
*MEAS_COND_AXIS_OFFSET-28 "-"
*MEAS_COND_AXIS_OFFSET-29 "-"
*MEAS_COND_AXIS_OFFSET-30 "-"
*MEAS_COND_AXIS_POSITION-0 "0.0000000000"
*MEAS_COND_AXIS_POSITION-1 "0.0000000000"
*MEAS_COND_AXIS_POSITION-2 "0.0000000000"
*MEAS_COND_AXIS_POSITION-3 "-0.5500000000"
*MEAS_COND_AXIS_POSITION-4 "0.0000000000"
*MEAS_COND_AXIS_POSITION-5 "0.0000000000"
*MEAS_COND_AXIS_POSITION-6 "0.0000000000"
*MEAS_COND_AXIS_POSITION-7 "-0.4278800000"
*MEAS_COND_AXIS_POSITION-8 "BB"
*MEAS_COND_AXIS_POSITION-9 "0.0000000000"
*MEAS_COND_AXIS_POSITION-10 "Soller_slit_5.0deg"
*MEAS_COND_AXIS_POSITION-11 "2/3deg"
*MEAS_COND_AXIS_POSITION-12 "2.2088000000"
*MEAS_COND_AXIS_POSITION-13 "-0.4140600000"
*MEAS_COND_AXIS_POSITION-14 "0.0000000000"
*MEAS_COND_AXIS_POSITION-15 "10.0mm"
*MEAS_COND_AXIS_POSITION-16 "None"
*MEAS_COND_AXIS_POSITION-17 "Cu_K-beta"
*MEAS_COND_AXIS_POSITION-18 "13.000mm"
*MEAS_COND_AXIS_POSITION-19 "13.000mm"
*MEAS_COND_AXIS_POSITION-20 "No_unit"
*MEAS_COND_AXIS_POSITION-21 "Soller_slit_5.0deg"
*MEAS_COND_AXIS_POSITION-22 "None"
*MEAS_COND_AXIS_POSITION-23 "13.0000000000"
*MEAS_COND_AXIS_POSITION-24 "13.0000000000"
*MEAS_COND_AXIS_POSITION-25 "0.0109400000"
*MEAS_COND_AXIS_POSITION-26 "Open"
*MEAS_COND_AXIS_POSITION-27 "None"
*MEAS_COND_AXIS_POSITION-28 "None"
*MEAS_COND_AXIS_POSITION-29 "None"
*MEAS_COND_AXIS_POSITION-30 "38.0000000000"
*MEAS_COND_AXIS_UNIT-0 "deg"
*MEAS_COND_AXIS_UNIT-1 "deg"
*MEAS_COND_AXIS_UNIT-2 "deg"
*MEAS_COND_AXIS_UNIT-3 "mm"
*MEAS_COND_AXIS_UNIT-4 "deg"
*MEAS_COND_AXIS_UNIT-5 "deg"
*MEAS_COND_AXIS_UNIT-6 "deg"
*MEAS_COND_AXIS_UNIT-7 "mm"
*MEAS_COND_AXIS_UNIT-8 ""
*MEAS_COND_AXIS_UNIT-9 "pulse"
*MEAS_COND_AXIS_UNIT-10 ""
*MEAS_COND_AXIS_UNIT-11 ""
*MEAS_COND_AXIS_UNIT-12 "mm"
*MEAS_COND_AXIS_UNIT-13 "mm"
*MEAS_COND_AXIS_UNIT-14 ""
*MEAS_COND_AXIS_UNIT-15 ""
*MEAS_COND_AXIS_UNIT-16 ""
*MEAS_COND_AXIS_UNIT-17 ""
*MEAS_COND_AXIS_UNIT-18 ""
*MEAS_COND_AXIS_UNIT-19 ""
*MEAS_COND_AXIS_UNIT-20 ""
*MEAS_COND_AXIS_UNIT-21 ""
*MEAS_COND_AXIS_UNIT-22 ""
*MEAS_COND_AXIS_UNIT-23 "mm"
*MEAS_COND_AXIS_UNIT-24 "mm"
*MEAS_COND_AXIS_UNIT-25 "mm"
*MEAS_COND_AXIS_UNIT-26 ""
*MEAS_COND_AXIS_UNIT-27 ""
*MEAS_COND_AXIS_UNIT-28 ""
*MEAS_COND_AXIS_UNIT-29 ""
*MEAS_COND_AXIS_UNIT-30 "div"
*MEAS_COND_COUNTER_CNTLOSS_CORR "0.0000000000"
*MEAS_COND_COUNTER_PHABASE "38.0000000000"
*MEAS_COND_COUNTER_PHAWINDOW "16.0000000000"
*MEAS_COND_COUNTER_PHA_UNIT "div"
*MEAS_COND_COUNTER_TAUDIFF "30.0000000000"
*MEAS_COND_COUNTER_TAUINT "0.0000000000"
*MEAS_COND_IRRADIATION_MODE "OFF"
*MEAS_COND_IRRADIATION_WIDTH ""
*MEAS_COND_OPT_ATTR "集中法"
*MEAS_COND_OPT_NAME "@集中法"
*MEAS_COND_UNSYMMETRIC_MODE "OFF"
*MEAS_COND_XG_CURRENT "30.0000000000"
*MEAS_COND_XG_VOLTAGE "40.0000000000"
*MEAS_COND_XG_WAVE_TYPE "Ka"
*MEAS_DATA_COUNT "5001.0000000000"
*MEAS_SCAN_AXIS_X "2θ/θ"
*MEAS_SCAN_AXIS_X_INTERNAL "TwoThetaTheta"
*MEAS_SCAN_END_TIME "07/29/21 15:06:00"
*MEAS_SCAN_MODE "CONTINUOUS"
*MEAS_SCAN_MONITOR "0"
*MEAS_SCAN_RESOLUTION_X "0.0002"
*MEAS_SCAN_SPEED "2.5"
*MEAS_SCAN_SPEED_UNIT "deg/min"
*MEAS_SCAN_START "20.0000000000"
*MEAS_SCAN_START_TIME "07/29/21 14:44:37"
*MEAS_SCAN_STEP "0.0100000000"
*MEAS_SCAN_STOP "70.0000000000"
*MEAS_SCAN_UNIT_X "deg"
*MEAS_SCAN_UNIT_Y "counts"
*RAS_HEADER_END
*RAS_INT_START
20.0000 626.0000 1.0000
20.0100 680.0000 1.0000
20.0200 646.0000 1.0000
20.0300 647.0000 1.0000
20.0400 669.0000 1.0000
20.0500 654.0000 1.0000
20.0600 688.0000 1.0000
20.0700 665.0000 1.0000
20.0800 611.0000 1.0000
20.0900 619.0000 1.0000
20.1000 623.0000 1.0000
20.1100 650.0000 1.0000
20.1200 636.0000 1.0000
20.1300 627.0000 1.0000
20.1400 650.0000 1.0000
20.1500 618.0000 1.0000
20.1600 644.0000 1.0000
20.1700 626.0000 1.0000
20.1800 659.0000 1.0000
20.1900 645.0000 1.0000
20.2000 671.0000 1.0000
20.2100 665.0000 1.0000
20.2200 642.0000 1.0000
20.2300 646.0000 1.0000
20.2400 624.0000 1.0000
20.2500 641.0000 1.0000
20.2600 615.0000 1.0000
20.2700 610.0000 1.0000
20.2800 636.0000 1.0000
20.2900 635.0000 1.0000
20.3000 615.0000 1.0000
20.3100 661.0000 1.0000
20.3200 660.0000 1.0000
20.3300 667.0000 1.0000
20.3400 629.0000 1.0000
20.3500 631.0000 1.0000
20.3600 628.0000 1.0000
20.3700 605.0000 1.0000
20.3800 620.0000 1.0000
20.3900 613.0000 1.0000
20.4000 669.0000 1.0000
20.4100 682.0000 1.0000
20.4200 679.0000 1.0000
20.4300 606.0000 1.0000
20.4400 681.0000 1.0000
20.4500 660.0000 1.0000
20.4600 611.0000 1.0000
20.4700 614.0000 1.0000
20.4800 623.0000 1.0000
20.4900 646.0000 1.0000
20.5000 636.0000 1.0000
20.5100 627.0000 1.0000
20.5200 645.0000 1.0000
20.5300 608.0000 1.0000
20.5400 636.0000 1.0000
20.5500 620.0000 1.0000
20.5600 630.0000 1.0000
20.5700 647.0000 1.0000
20.5800 638.0000 1.0000
20.5900 637.0000 1.0000
20.6000 600.0000 1.0000
20.6100 601.0000 1.0000
20.6200 621.0000 1.0000
20.6300 600.0000 1.0000
20.6400 659.0000 1.0000
20.6500 628.0000 1.0000
20.6600 605.0000 1.0000
20.6700 623.0000 1.0000
20.6800 606.0000 1.0000
20.6900 636.0000 1.0000
20.7000 661.0000 1.0000
20.7100 630.0000 1.0000
20.7200 615.0000 1.0000
20.7300 681.0000 1.0000
20.7400 664.0000 1.0000
20.7500 648.0000 1.0000
20.7600 589.0000 1.0000
20.7700 603.0000 1.0000
20.7800 600.0000 1.0000
20.7900 611.0000 1.0000
20.8000 666.0000 1.0000
20.8100 656.0000 1.0000
20.8200 618.0000 1.0000
20.8300 636.0000 1.0000
20.8400 647.0000 1.0000
20.8500 636.0000 1.0000
20.8600 657.0000 1.0000
20.8700 641.0000 1.0000
20.8800 611.0000 1.0000
20.8900 637.0000 1.0000
20.9000 644.0000 1.0000
20.9100 622.0000 1.0000
20.9200 659.0000 1.0000
20.9300 675.0000 1.0000
20.9400 608.0000 1.0000
20.9500 668.0000 1.0000
20.9600 638.0000 1.0000
20.9700 638.0000 1.0000
20.9800 665.0000 1.0000
20.9900 649.0000 1.0000
21.0000 617.0000 1.0000
21.0100 631.0000 1.0000
21.0200 647.0000 1.0000
21.0300 662.0000 1.0000
21.0400 664.0000 1.0000
21.0500 655.0000 1.0000
21.0600 677.0000 1.0000
21.0700 660.0000 1.0000
21.0800 644.0000 1.0000
21.0900 668.0000 1.0000
21.1000 645.0000 1.0000
21.1100 656.0000 1.0000
21.1200 612.0000 1.0000
21.1300 656.0000 1.0000
21.1400 662.0000 1.0000
21.1500 667.0000 1.0000
21.1600 626.0000 1.0000
21.1700 633.0000 1.0000
21.1800 662.0000 1.0000
21.1900 645.0000 1.0000
21.2000 655.0000 1.0000
21.2100 646.0000 1.0000
21.2200 626.0000 1.0000
21.2300 633.0000 1.0000
21.2400 649.0000 1.0000
21.2500 632.0000 1.0000
21.2600 652.0000 1.0000
21.2700 637.0000 1.0000
21.2800 665.0000 1.0000
21.2900 647.0000 1.0000
21.3000 676.0000 1.0000
21.3100 645.0000 1.0000
21.3200 658.0000 1.0000
21.3300 625.0000 1.0000
21.3400 666.0000 1.0000
21.3500 635.0000 1.0000
21.3600 598.0000 1.0000
21.3700 618.0000 1.0000
21.3800 647.0000 1.0000
21.3900 682.0000 1.0000
21.4000 670.0000 1.0000
21.4100 642.0000 1.0000
21.4200 634.0000 1.0000
21.4300 635.0000 1.0000
21.4400 607.0000 1.0000
21.4500 677.0000 1.0000
21.4600 642.0000 1.0000
21.4700 609.0000 1.0000
21.4800 672.0000 1.0000
21.4900 668.0000 1.0000
21.5000 661.0000 1.0000
21.5100 663.0000 1.0000
21.5200 648.0000 1.0000
21.5300 649.0000 1.0000
21.5400 624.0000 1.0000
21.5500 661.0000 1.0000
21.5600 646.0000 1.0000
21.5700 628.0000 1.0000
21.5800 672.0000 1.0000
21.5900 606.0000 1.0000
21.6000 666.0000 1.0000
21.6100 643.0000 1.0000
21.6200 651.0000 1.0000
21.6300 653.0000 1.0000
21.6400 651.0000 1.0000
21.6500 641.0000 1.0000
21.6600 653.0000 1.0000
21.6700 650.0000 1.0000
21.6800 680.0000 1.0000
21.6900 677.0000 1.0000
21.7000 651.0000 1.0000
21.7100 663.0000 1.0000
21.7200 706.0000 1.0000
21.7300 656.0000 1.0000
21.7400 620.0000 1.0000
21.7500 654.0000 1.0000
21.7600 668.0000 1.0000
21.7700 652.0000 1.0000
21.7800 664.0000 1.0000
21.7900 661.0000 1.0000
21.8000 666.0000 1.0000
21.8100 636.0000 1.0000
21.8200 664.0000 1.0000
21.8300 649.0000 1.0000
21.8400 677.0000 1.0000
21.8500 661.0000 1.0000
21.8600 652.0000 1.0000
21.8700 680.0000 1.0000
21.8800 668.0000 1.0000
21.8900 678.0000 1.0000
21.9000 675.0000 1.0000
21.9100 658.0000 1.0000
21.9200 620.0000 1.0000
21.9300 637.0000 1.0000
21.9400 672.0000 1.0000
21.9500 629.0000 1.0000
21.9600 629.0000 1.0000
21.9700 617.0000 1.0000
21.9800 651.0000 1.0000
21.9900 638.0000 1.0000
22.0000 655.0000 1.0000
22.0100 649.0000 1.0000
22.0200 634.0000 1.0000
22.0300 641.0000 1.0000
22.0400 657.0000 1.0000
22.0500 648.0000 1.0000
22.0600 660.0000 1.0000
22.0700 674.0000 1.0000
22.0800 636.0000 1.0000
22.0900 637.0000 1.0000
22.1000 632.0000 1.0000
22.1100 680.0000 1.0000
22.1200 648.0000 1.0000
22.1300 649.0000 1.0000
22.1400 652.0000 1.0000
22.1500 660.0000 1.0000
22.1600 663.0000 1.0000
22.1700 672.0000 1.0000
22.1800 634.0000 1.0000
22.1900 682.0000 1.0000
22.2000 661.0000 1.0000
22.2100 681.0000 1.0000
22.2200 632.0000 1.0000
22.2300 636.0000 1.0000
22.2400 669.0000 1.0000
22.2500 673.0000 1.0000
22.2600 631.0000 1.0000
22.2700 616.0000 1.0000
22.2800 647.0000 1.0000
22.2900 677.0000 1.0000
22.3000 676.0000 1.0000
22.3100 651.0000 1.0000
22.3200 652.0000 1.0000
22.3300 657.0000 1.0000
22.3400 673.0000 1.0000
22.3500 645.0000 1.0000
22.3600 671.0000 1.0000
22.3700 662.0000 1.0000
22.3800 650.0000 1.0000
22.3900 660.0000 1.0000
22.4000 675.0000 1.0000
22.4100 656.0000 1.0000
22.4200 681.0000 1.0000
22.4300 651.0000 1.0000
22.4400 658.0000 1.0000
22.4500 670.0000 1.0000
22.4600 664.0000 1.0000
22.4700 634.0000 1.0000
22.4800 663.0000 1.0000
22.4900 631.0000 1.0000
22.5000 654.0000 1.0000
22.5100 681.0000 1.0000
22.5200 631.0000 1.0000
22.5300 650.0000 1.0000
22.5400 621.0000 1.0000
22.5500 662.0000 1.0000
22.5600 707.0000 1.0000
22.5700 668.0000 1.0000
22.5800 647.0000 1.0000
22.5900 643.0000 1.0000
22.6000 645.0000 1.0000
22.6100 642.0000 1.0000
22.6200 658.0000 1.0000
22.6300 620.0000 1.0000
22.6400 647.0000 1.0000
22.6500 627.0000 1.0000
22.6600 607.0000 1.0000
22.6700 686.0000 1.0000
22.6800 676.0000 1.0000
22.6900 641.0000 1.0000
22.7000 622.0000 1.0000
22.7100 677.0000 1.0000
22.7200 663.0000 1.0000
22.7300 663.0000 1.0000
22.7400 672.0000 1.0000
22.7500 654.0000 1.0000
22.7600 618.0000 1.0000
22.7700 609.0000 1.0000
22.7800 663.0000 1.0000
22.7900 622.0000 1.0000
22.8000 679.0000 1.0000
22.8100 664.0000 1.0000
22.8200 663.0000 1.0000
22.8300 691.0000 1.0000
22.8400 650.0000 1.0000
22.8500 624.0000 1.0000
22.8600 667.0000 1.0000
22.8700 654.0000 1.0000
22.8800 658.0000 1.0000
22.8900 668.0000 1.0000
22.9000 656.0000 1.0000
22.9100 628.0000 1.0000
22.9200 604.0000 1.0000
22.9300 688.0000 1.0000
22.9400 656.0000 1.0000
22.9500 654.0000 1.0000
22.9600 686.0000 1.0000
22.9700 672.0000 1.0000
22.9800 659.0000 1.0000
22.9900 642.0000 1.0000
23.0000 641.0000 1.0000
23.0100 665.0000 1.0000
23.0200 653.0000 1.0000
23.0300 639.0000 1.0000
23.0400 664.0000 1.0000
23.0500 651.0000 1.0000
23.0600 642.0000 1.0000
23.0700 691.0000 1.0000
23.0800 653.0000 1.0000
23.0900 670.0000 1.0000
23.1000 619.0000 1.0000
23.1100 633.0000 1.0000
23.1200 608.0000 1.0000
23.1300 687.0000 1.0000
23.1400 689.0000 1.0000
23.1500 629.0000 1.0000
23.1600 673.0000 1.0000
23.1700 647.0000 1.0000
23.1800 667.0000 1.0000
23.1900 675.0000 1.0000
23.2000 649.0000 1.0000
23.2100 675.0000 1.0000
23.2200 688.0000 1.0000
23.2300 651.0000 1.0000
23.2400 657.0000 1.0000
23.2500 665.0000 1.0000
23.2600 631.0000 1.0000
23.2700 675.0000 1.0000
23.2800 659.0000 1.0000
23.2900 683.0000 1.0000
23.3000 684.0000 1.0000
23.3100 679.0000 1.0000
23.3200 680.0000 1.0000
23.3300 674.0000 1.0000
23.3400 669.0000 1.0000
23.3500 660.0000 1.0000
23.3600 671.0000 1.0000
23.3700 636.0000 1.0000
23.3800 669.0000 1.0000
23.3900 669.0000 1.0000
23.4000 614.0000 1.0000
23.4100 659.0000 1.0000
23.4200 663.0000 1.0000
23.4300 656.0000 1.0000
23.4400 676.0000 1.0000
23.4500 629.0000 1.0000
23.4600 628.0000 1.0000
23.4700 669.0000 1.0000
23.4800 648.0000 1.0000
23.4900 679.0000 1.0000
23.5000 644.0000 1.0000
23.5100 625.0000 1.0000
23.5200 651.0000 1.0000
23.5300 691.0000 1.0000
23.5400 674.0000 1.0000
23.5500 664.0000 1.0000
23.5600 652.0000 1.0000
23.5700 680.0000 1.0000
23.5800 661.0000 1.0000
23.5900 679.0000 1.0000
23.6000 693.0000 1.0000
23.6100 686.0000 1.0000
23.6200 694.0000 1.0000
23.6300 675.0000 1.0000
23.6400 665.0000 1.0000
23.6500 674.0000 1.0000
23.6600 691.0000 1.0000
23.6700 654.0000 1.0000
23.6800 711.0000 1.0000
23.6900 669.0000 1.0000
23.7000 682.0000 1.0000
23.7100 661.0000 1.0000
23.7200 643.0000 1.0000
23.7300 655.0000 1.0000
23.7400 660.0000 1.0000
23.7500 635.0000 1.0000
23.7600 711.0000 1.0000
23.7700 719.0000 1.0000
23.7800 700.0000 1.0000
23.7900 690.0000 1.0000
23.8000 654.0000 1.0000
23.8100 669.0000 1.0000
23.8200 682.0000 1.0000
23.8300 668.0000 1.0000
23.8400 687.0000 1.0000
23.8500 695.0000 1.0000
23.8600 675.0000 1.0000
23.8700 660.0000 1.0000
23.8800 653.0000 1.0000
23.8900 641.0000 1.0000
23.9000 673.0000 1.0000
23.9100 672.0000 1.0000
23.9200 700.0000 1.0000
23.9300 647.0000 1.0000
23.9400 650.0000 1.0000
23.9500 659.0000 1.0000
23.9600 638.0000 1.0000
23.9700 669.0000 1.0000
23.9800 670.0000 1.0000
23.9900 711.0000 1.0000
24.0000 692.0000 1.0000
24.0100 615.0000 1.0000
24.0200 677.0000 1.0000
24.0300 645.0000 1.0000
24.0400 661.0000 1.0000
24.0500 631.0000 1.0000
24.0600 629.0000 1.0000
24.0700 661.0000 1.0000
24.0800 679.0000 1.0000
24.0900 721.0000 1.0000
24.1000 729.0000 1.0000
24.1100 665.0000 1.0000
24.1200 641.0000 1.0000
24.1300 655.0000 1.0000
24.1400 652.0000 1.0000
24.1500 667.0000 1.0000
24.1600 684.0000 1.0000
24.1700 642.0000 1.0000
24.1800 667.0000 1.0000
24.1900 631.0000 1.0000
24.2000 663.0000 1.0000
24.2100 678.0000 1.0000
24.2200 660.0000 1.0000
24.2300 675.0000 1.0000
24.2400 681.0000 1.0000
24.2500 703.0000 1.0000
24.2600 671.0000 1.0000
24.2700 640.0000 1.0000
24.2800 643.0000 1.0000
24.2900 667.0000 1.0000
24.3000 648.0000 1.0000
24.3100 662.0000 1.0000
24.3200 662.0000 1.0000
24.3300 673.0000 1.0000
24.3400 680.0000 1.0000
24.3500 698.0000 1.0000
24.3600 651.0000 1.0000
24.3700 699.0000 1.0000
24.3800 643.0000 1.0000
24.3900 678.0000 1.0000
24.4000 681.0000 1.0000
24.4100 655.0000 1.0000
24.4200 637.0000 1.0000
24.4300 663.0000 1.0000
24.4400 681.0000 1.0000
24.4500 647.0000 1.0000
24.4600 675.0000 1.0000
24.4700 644.0000 1.0000
24.4800 663.0000 1.0000
24.4900 675.0000 1.0000
24.5000 667.0000 1.0000
24.5100 732.0000 1.0000
24.5200 678.0000 1.0000
24.5300 673.0000 1.0000
24.5400 708.0000 1.0000
24.5500 655.0000 1.0000
24.5600 705.0000 1.0000
24.5700 663.0000 1.0000
24.5800 650.0000 1.0000
24.5900 664.0000 1.0000
24.6000 664.0000 1.0000
24.6100 696.0000 1.0000
24.6200 718.0000 1.0000
24.6300 726.0000 1.0000
24.6400 692.0000 1.0000
24.6500 712.0000 1.0000
24.6600 728.0000 1.0000
24.6700 722.0000 1.0000
24.6800 674.0000 1.0000
24.6900 670.0000 1.0000
24.7000 691.0000 1.0000
24.7100 685.0000 1.0000
24.7200 705.0000 1.0000
24.7300 756.0000 1.0000
24.7400 712.0000 1.0000
24.7500 715.0000 1.0000
24.7600 646.0000 1.0000
24.7700 653.0000 1.0000
24.7800 687.0000 1.0000
24.7900 676.0000 1.0000
24.8000 689.0000 1.0000
24.8100 671.0000 1.0000
24.8200 650.0000 1.0000
24.8300 683.0000 1.0000
24.8400 700.0000 1.0000
24.8500 695.0000 1.0000
24.8600 720.0000 1.0000
24.8700 720.0000 1.0000
24.8800 685.0000 1.0000
24.8900 673.0000 1.0000
24.9000 718.0000 1.0000
24.9100 667.0000 1.0000
24.9200 714.0000 1.0000
24.9300 659.0000 1.0000
24.9400 651.0000 1.0000
24.9500 651.0000 1.0000
24.9600 682.0000 1.0000
24.9700 711.0000 1.0000
24.9800 683.0000 1.0000
24.9900 714.0000 1.0000
25.0000 709.0000 1.0000
25.0100 651.0000 1.0000
25.0200 675.0000 1.0000
25.0300 716.0000 1.0000
25.0400 692.0000 1.0000
25.0500 691.0000 1.0000
25.0600 732.0000 1.0000
25.0700 702.0000 1.0000
25.0800 724.0000 1.0000
25.0900 707.0000 1.0000
25.1000 717.0000 1.0000
25.1100 703.0000 1.0000
25.1200 686.0000 1.0000
25.1300 670.0000 1.0000
25.1400 695.0000 1.0000
25.1500 701.0000 1.0000
25.1600 690.0000 1.0000
25.1700 753.0000 1.0000
25.1800 672.0000 1.0000
25.1900 727.0000 1.0000
25.2000 683.0000 1.0000
25.2100 699.0000 1.0000
25.2200 715.0000 1.0000
25.2300 679.0000 1.0000
25.2400 675.0000 1.0000
25.2500 672.0000 1.0000
25.2600 666.0000 1.0000
25.2700 685.0000 1.0000
25.2800 742.0000 1.0000
25.2900 655.0000 1.0000
25.3000 661.0000 1.0000
25.3100 696.0000 1.0000
25.3200 719.0000 1.0000
25.3300 694.0000 1.0000
25.3400 679.0000 1.0000
25.3500 696.0000 1.0000
25.3600 716.0000 1.0000
25.3700 699.0000 1.0000
25.3800 666.0000 1.0000
25.3900 729.0000 1.0000
25.4000 698.0000 1.0000
25.4100 722.0000 1.0000
25.4200 699.0000 1.0000
25.4300 667.0000 1.0000
25.4400 683.0000 1.0000
25.4500 722.0000 1.0000
25.4600 660.0000 1.0000
25.4700 682.0000 1.0000
25.4800 702.0000 1.0000
25.4900 727.0000 1.0000
25.5000 702.0000 1.0000
25.5100 687.0000 1.0000
25.5200 682.0000 1.0000
25.5300 654.0000 1.0000
25.5400 704.0000 1.0000
25.5500 653.0000 1.0000
25.5600 705.0000 1.0000
25.5700 687.0000 1.0000
25.5800 688.0000 1.0000
25.5900 641.0000 1.0000
25.6000 743.0000 1.0000
25.6100 652.0000 1.0000
25.6200 689.0000 1.0000
25.6300 698.0000 1.0000
25.6400 675.0000 1.0000
25.6500 691.0000 1.0000
25.6600 640.0000 1.0000
25.6700 669.0000 1.0000
25.6800 701.0000 1.0000
25.6900 652.0000 1.0000
25.7000 656.0000 1.0000
25.7100 673.0000 1.0000
25.7200 714.0000 1.0000
25.7300 687.0000 1.0000
25.7400 720.0000 1.0000
25.7500 656.0000 1.0000
25.7600 658.0000 1.0000
25.7700 669.0000 1.0000
25.7800 672.0000 1.0000
25.7900 649.0000 1.0000
25.8000 681.0000 1.0000
25.8100 743.0000 1.0000
25.8200 704.0000 1.0000
25.8300 695.0000 1.0000
25.8400 708.0000 1.0000
25.8500 693.0000 1.0000
25.8600 693.0000 1.0000
25.8700 731.0000 1.0000
25.8800 707.0000 1.0000
25.8900 731.0000 1.0000
25.9000 695.0000 1.0000
25.9100 751.0000 1.0000
25.9200 691.0000 1.0000
25.9300 686.0000 1.0000
25.9400 652.0000 1.0000
25.9500 678.0000 1.0000
25.9600 668.0000 1.0000
25.9700 689.0000 1.0000
25.9800 682.0000 1.0000
25.9900 667.0000 1.0000
26.0000 719.0000 1.0000
26.0100 709.0000 1.0000
26.0200 722.0000 1.0000
26.0300 683.0000 1.0000
26.0400 668.0000 1.0000
26.0500 700.0000 1.0000
26.0600 728.0000 1.0000
26.0700 717.0000 1.0000
26.0800 662.0000 1.0000
26.0900 690.0000 1.0000
26.1000 683.0000 1.0000
26.1100 677.0000 1.0000
26.1200 670.0000 1.0000
26.1300 694.0000 1.0000
26.1400 775.0000 1.0000
26.1500 677.0000 1.0000
26.1600 686.0000 1.0000
26.1700 654.0000 1.0000
26.1800 710.0000 1.0000
26.1900 685.0000 1.0000
26.2000 674.0000 1.0000
26.2100 732.0000 1.0000
26.2200 712.0000 1.0000
26.2300 685.0000 1.0000
26.2400 692.0000 1.0000
26.2500 642.0000 1.0000
26.2600 742.0000 1.0000
26.2700 732.0000 1.0000
26.2800 716.0000 1.0000
26.2900 699.0000 1.0000
26.3000 666.0000 1.0000
26.3100 684.0000 1.0000
26.3200 684.0000 1.0000
26.3300 701.0000 1.0000
26.3400 701.0000 1.0000
26.3500 711.0000 1.0000
26.3600 687.0000 1.0000
26.3700 718.0000 1.0000
26.3800 727.0000 1.0000
26.3900 704.0000 1.0000
26.4000 726.0000 1.0000
26.4100 699.0000 1.0000
26.4200 677.0000 1.0000
26.4300 703.0000 1.0000
26.4400 723.0000 1.0000
26.4500 732.0000 1.0000
26.4600 742.0000 1.0000
26.4700 731.0000 1.0000
26.4800 763.0000 1.0000
26.4900 740.0000 1.0000
26.5000 677.0000 1.0000
26.5100 735.0000 1.0000
26.5200 768.0000 1.0000
26.5300 739.0000 1.0000
26.5400 756.0000 1.0000
26.5500 743.0000 1.0000
26.5600 710.0000 1.0000
26.5700 715.0000 1.0000
26.5800 715.0000 1.0000
26.5900 716.0000 1.0000
26.6000 705.0000 1.0000
26.6100 740.0000 1.0000
26.6200 736.0000 1.0000
26.6300 745.0000 1.0000
26.6400 736.0000 1.0000
26.6500 714.0000 1.0000
26.6600 787.0000 1.0000
26.6700 720.0000 1.0000
26.6800 749.0000 1.0000
26.6900 734.0000 1.0000
26.7000 732.0000 1.0000
26.7100 735.0000 1.0000
26.7200 711.0000 1.0000
26.7300 717.0000 1.0000
26.7400 745.0000 1.0000
26.7500 775.0000 1.0000
26.7600 801.0000 1.0000
26.7700 770.0000 1.0000
26.7800 744.0000 1.0000
26.7900 736.0000 1.0000
26.8000 732.0000 1.0000
26.8100 740.0000 1.0000
26.8200 755.0000 1.0000
26.8300 780.0000 1.0000
26.8400 766.0000 1.0000
26.8500 786.0000 1.0000
26.8600 735.0000 1.0000
26.8700 794.0000 1.0000
26.8800 798.0000 1.0000
26.8900 785.0000 1.0000
26.9000 829.0000 1.0000
26.9100 764.0000 1.0000
26.9200 769.0000 1.0000
26.9300 827.0000 1.0000
26.9400 811.0000 1.0000
26.9500 850.0000 1.0000
26.9600 849.0000 1.0000
26.9700 834.0000 1.0000
26.9800 830.0000 1.0000
26.9900 856.0000 1.0000
27.0000 850.0000 1.0000
27.0100 915.0000 1.0000
27.0200 908.0000 1.0000
27.0300 931.0000 1.0000
27.0400 950.0000 1.0000
27.0500 1006.0000 1.0000
27.0600 1024.0000 1.0000
27.0700 1008.0000 1.0000
27.0800 993.0000 1.0000
27.0900 1064.0000 1.0000
27.1000 1117.0000 1.0000
27.1100 1113.0000 1.0000
27.1200 1144.0000 1.0000
27.1300 1159.0000 1.0000
27.1400 1219.0000 1.0000
27.1500 1261.0000 1.0000
27.1600 1331.0000 1.0000
27.1700 1353.0000 1.0000
27.1800 1530.0000 1.0000
27.1900 1494.0000 1.0000
27.2000 1490.0000 1.0000
27.2100 1599.0000 1.0000
27.2200 1751.0000 1.0000
27.2300 1837.0000 1.0000
27.2400 1863.0000 1.0000
27.2500 2017.0000 1.0000
27.2600 2132.0000 1.0000
27.2700 2223.0000 1.0000
27.2800 2276.0000 1.0000
27.2900 2351.0000 1.0000
27.3000 2436.0000 1.0000
27.3100 2532.0000 1.0000
27.3200 2571.0000 1.0000
27.3300 2513.0000 1.0000
27.3400 2594.0000 1.0000
27.3500 2546.0000 1.0000
27.3600 2469.0000 1.0000
27.3700 2405.0000 1.0000
27.3800 2347.0000 1.0000
27.3900 2223.0000 1.0000
27.4000 2197.0000 1.0000
27.4100 2034.0000 1.0000
27.4200 1983.0000 1.0000
27.4300 1881.0000 1.0000
27.4400 1728.0000 1.0000
27.4500 1628.0000 1.0000
27.4600 1534.0000 1.0000
27.4700 1504.0000 1.0000
27.4800 1430.0000 1.0000
27.4900 1379.0000 1.0000
27.5000 1337.0000 1.0000
27.5100 1316.0000 1.0000
27.5200 1263.0000 1.0000
27.5300 1144.0000 1.0000
27.5400 1165.0000 1.0000
27.5500 1138.0000 1.0000
27.5600 1115.0000 1.0000
27.5700 1065.0000 1.0000
27.5800 982.0000 1.0000
27.5900 1001.0000 1.0000
27.6000 992.0000 1.0000
27.6100 966.0000 1.0000
27.6200 951.0000 1.0000
27.6300 1009.0000 1.0000
27.6400 881.0000 1.0000
27.6500 925.0000 1.0000
27.6600 917.0000 1.0000
27.6700 887.0000 1.0000
27.6800 876.0000 1.0000
27.6900 862.0000 1.0000
27.7000 859.0000 1.0000
27.7100 812.0000 1.0000
27.7200 812.0000 1.0000
27.7300 793.0000 1.0000
27.7400 831.0000 1.0000
27.7500 791.0000 1.0000
27.7600 817.0000 1.0000
27.7700 856.0000 1.0000
27.7800 779.0000 1.0000
27.7900 758.0000 1.0000
27.8000 806.0000 1.0000
27.8100 752.0000 1.0000
27.8200 782.0000 1.0000
27.8300 737.0000 1.0000
27.8400 775.0000 1.0000
27.8500 723.0000 1.0000
27.8600 772.0000 1.0000
27.8700 707.0000 1.0000
27.8800 764.0000 1.0000
27.8900 741.0000 1.0000
27.9000 737.0000 1.0000
27.9100 777.0000 1.0000
27.9200 761.0000 1.0000
27.9300 754.0000 1.0000
27.9400 781.0000 1.0000
27.9500 780.0000 1.0000
27.9600 688.0000 1.0000
27.9700 752.0000 1.0000
27.9800 737.0000 1.0000
27.9900 742.0000 1.0000
28.0000 687.0000 1.0000
28.0100 727.0000 1.0000
28.0200 719.0000 1.0000
28.0300 685.0000 1.0000
28.0400 763.0000 1.0000
28.0500 724.0000 1.0000
28.0600 697.0000 1.0000
28.0700 703.0000 1.0000
28.0800 680.0000 1.0000
28.0900 694.0000 1.0000
28.1000 678.0000 1.0000
28.1100 700.0000 1.0000
28.1200 728.0000 1.0000
28.1300 739.0000 1.0000
28.1400 679.0000 1.0000
28.1500 710.0000 1.0000
28.1600 693.0000 1.0000
28.1700 733.0000 1.0000
28.1800 690.0000 1.0000
28.1900 701.0000 1.0000
28.2000 711.0000 1.0000
28.2100 673.0000 1.0000
28.2200 686.0000 1.0000
28.2300 727.0000 1.0000
28.2400 696.0000 1.0000
28.2500 675.0000 1.0000
28.2600 690.0000 1.0000
28.2700 712.0000 1.0000
28.2800 701.0000 1.0000
28.2900 715.0000 1.0000
28.3000 673.0000 1.0000
28.3100 671.0000 1.0000
28.3200 702.0000 1.0000
28.3300 697.0000 1.0000
28.3400 692.0000 1.0000
28.3500 701.0000 1.0000
28.3600 696.0000 1.0000
28.3700 686.0000 1.0000
28.3800 709.0000 1.0000
28.3900 693.0000 1.0000
28.4000 719.0000 1.0000
28.4100 688.0000 1.0000
28.4200 692.0000 1.0000
28.4300 665.0000 1.0000
28.4400 662.0000 1.0000
28.4500 677.0000 1.0000
28.4600 665.0000 1.0000
28.4700 672.0000 1.0000
28.4800 681.0000 1.0000
28.4900 682.0000 1.0000
28.5000 671.0000 1.0000
28.5100 709.0000 1.0000
28.5200 684.0000 1.0000
28.5300 672.0000 1.0000
28.5400 660.0000 1.0000
28.5500 679.0000 1.0000
28.5600 707.0000 1.0000
28.5700 692.0000 1.0000
28.5800 697.0000 1.0000
28.5900 673.0000 1.0000
28.6000 768.0000 1.0000
28.6100 685.0000 1.0000
28.6200 651.0000 1.0000
28.6300 679.0000 1.0000
28.6400 674.0000 1.0000
28.6500 683.0000 1.0000
28.6600 674.0000 1.0000
28.6700 693.0000 1.0000
28.6800 721.0000 1.0000
28.6900 679.0000 1.0000
28.7000 636.0000 1.0000
28.7100 688.0000 1.0000
28.7200 701.0000 1.0000
28.7300 666.0000 1.0000
28.7400 672.0000 1.0000
28.7500 657.0000 1.0000
28.7600 637.0000 1.0000
28.7700 686.0000 1.0000
28.7800 683.0000 1.0000
28.7900 687.0000 1.0000
28.8000 646.0000 1.0000
28.8100 681.0000 1.0000
28.8200 643.0000 1.0000
28.8300 691.0000 1.0000
28.8400 665.0000 1.0000
28.8500 632.0000 1.0000
28.8600 646.0000 1.0000
28.8700 644.0000 1.0000
28.8800 644.0000 1.0000
28.8900 658.0000 1.0000
28.9000 655.0000 1.0000
28.9100 695.0000 1.0000
28.9200 658.0000 1.0000
28.9300 669.0000 1.0000
28.9400 627.0000 1.0000
28.9500 665.0000 1.0000
28.9600 662.0000 1.0000
28.9700 635.0000 1.0000
28.9800 674.0000 1.0000
28.9900 683.0000 1.0000
29.0000 696.0000 1.0000
29.0100 667.0000 1.0000
29.0200 662.0000 1.0000
29.0300 642.0000 1.0000
29.0400 680.0000 1.0000
29.0500 667.0000 1.0000
29.0600 679.0000 1.0000
29.0700 719.0000 1.0000
29.0800 711.0000 1.0000
29.0900 703.0000 1.0000
29.1000 691.0000 1.0000
29.1100 732.0000 1.0000
29.1200 765.0000 1.0000
29.1300 772.0000 1.0000
29.1400 758.0000 1.0000
29.1500 762.0000 1.0000
29.1600 728.0000 1.0000
29.1700 702.0000 1.0000
29.1800 702.0000 1.0000
29.1900 684.0000 1.0000
29.2000 751.0000 1.0000
29.2100 706.0000 1.0000
29.2200 676.0000 1.0000
29.2300 685.0000 1.0000
29.2400 637.0000 1.0000
29.2500 685.0000 1.0000
29.2600 685.0000 1.0000
29.2700 682.0000 1.0000
29.2800 650.0000 1.0000
29.2900 644.0000 1.0000
29.3000 644.0000 1.0000
29.3100 664.0000 1.0000
29.3200 666.0000 1.0000
29.3300 672.0000 1.0000
29.3400 647.0000 1.0000
29.3500 648.0000 1.0000
29.3600 650.0000 1.0000
29.3700 630.0000 1.0000
29.3800 661.0000 1.0000
29.3900 625.0000 1.0000
29.4000 655.0000 1.0000
29.4100 653.0000 1.0000
29.4200 699.0000 1.0000
29.4300 663.0000 1.0000
29.4400 658.0000 1.0000
29.4500 694.0000 1.0000
29.4600 651.0000 1.0000
29.4700 690.0000 1.0000
29.4800 609.0000 1.0000
29.4900 634.0000 1.0000
29.5000 620.0000 1.0000
29.5100 648.0000 1.0000
29.5200 644.0000 1.0000
29.5300 635.0000 1.0000
29.5400 638.0000 1.0000
29.5500 633.0000 1.0000
29.5600 635.0000 1.0000
29.5700 645.0000 1.0000
29.5800 630.0000 1.0000
29.5900 650.0000 1.0000
29.6000 569.0000 1.0000
29.6100 605.0000 1.0000
29.6200 662.0000 1.0000
29.6300 618.0000 1.0000
29.6400 649.0000 1.0000
29.6500 669.0000 1.0000
29.6600 649.0000 1.0000
29.6700 616.0000 1.0000
29.6800 664.0000 1.0000
29.6900 638.0000 1.0000
29.7000 655.0000 1.0000
29.7100 664.0000 1.0000
29.7200 627.0000 1.0000
29.7300 644.0000 1.0000
29.7400 665.0000 1.0000
29.7500 621.0000 1.0000
29.7600 600.0000 1.0000
29.7700 616.0000 1.0000
29.7800 661.0000 1.0000
29.7900 623.0000 1.0000
29.8000 652.0000 1.0000
29.8100 665.0000 1.0000
29.8200 666.0000 1.0000
29.8300 673.0000 1.0000
29.8400 676.0000 1.0000
29.8500 647.0000 1.0000
29.8600 622.0000 1.0000
29.8700 640.0000 1.0000
29.8800 631.0000 1.0000
29.8900 652.0000 1.0000
29.9000 597.0000 1.0000
29.9100 630.0000 1.0000
29.9200 608.0000 1.0000
29.9300 675.0000 1.0000
29.9400 624.0000 1.0000
29.9500 691.0000 1.0000
29.9600 645.0000 1.0000
29.9700 632.0000 1.0000
29.9800 620.0000 1.0000
29.9900 619.0000 1.0000
30.0000 601.0000 1.0000
30.0100 586.0000 1.0000
30.0200 629.0000 1.0000
30.0300 684.0000 1.0000
30.0400 642.0000 1.0000
30.0500 674.0000 1.0000
30.0600 617.0000 1.0000
30.0700 621.0000 1.0000
30.0800 662.0000 1.0000
30.0900 613.0000 1.0000
30.1000 625.0000 1.0000
30.1100 634.0000 1.0000
30.1200 623.0000 1.0000
30.1300 654.0000 1.0000
30.1400 649.0000 1.0000
30.1500 584.0000 1.0000
30.1600 670.0000 1.0000
30.1700 637.0000 1.0000
30.1800 624.0000 1.0000
30.1900 629.0000 1.0000
30.2000 646.0000 1.0000
30.2100 640.0000 1.0000
30.2200 625.0000 1.0000
30.2300 622.0000 1.0000
30.2400 675.0000 1.0000
30.2500 648.0000 1.0000
30.2600 649.0000 1.0000
30.2700 620.0000 1.0000
30.2800 607.0000 1.0000
30.2900 635.0000 1.0000
30.3000 580.0000 1.0000
30.3100 644.0000 1.0000
30.3200 603.0000 1.0000
30.3300 620.0000 1.0000
30.3400 610.0000 1.0000
30.3500 620.0000 1.0000
30.3600 600.0000 1.0000
30.3700 662.0000 1.0000
30.3800 617.0000 1.0000
30.3900 643.0000 1.0000
30.4000 646.0000 1.0000
30.4100 652.0000 1.0000
30.4200 628.0000 1.0000
30.4300 659.0000 1.0000
30.4400 646.0000 1.0000
30.4500 642.0000 1.0000
30.4600 593.0000 1.0000
30.4700 595.0000 1.0000
30.4800 586.0000 1.0000
30.4900 624.0000 1.0000
30.5000 658.0000 1.0000
30.5100 626.0000 1.0000
30.5200 587.0000 1.0000
30.5300 633.0000 1.0000
30.5400 628.0000 1.0000
30.5500 644.0000 1.0000
30.5600 617.0000 1.0000
30.5700 635.0000 1.0000
30.5800 609.0000 1.0000
30.5900 618.0000 1.0000
30.6000 615.0000 1.0000
30.6100 591.0000 1.0000
30.6200 615.0000 1.0000
30.6300 632.0000 1.0000
30.6400 647.0000 1.0000
30.6500 613.0000 1.0000
30.6600 606.0000 1.0000
30.6700 595.0000 1.0000
30.6800 610.0000 1.0000
30.6900 586.0000 1.0000
30.7000 598.0000 1.0000
30.7100 596.0000 1.0000
30.7200 578.0000 1.0000
30.7300 621.0000 1.0000
30.7400 633.0000 1.0000
30.7500 603.0000 1.0000
30.7600 612.0000 1.0000
30.7700 624.0000 1.0000
30.7800 638.0000 1.0000
30.7900 586.0000 1.0000
30.8000 576.0000 1.0000
30.8100 612.0000 1.0000
30.8200 652.0000 1.0000
30.8300 639.0000 1.0000
30.8400 626.0000 1.0000
30.8500 629.0000 1.0000
30.8600 638.0000 1.0000
30.8700 635.0000 1.0000
30.8800 641.0000 1.0000
30.8900 629.0000 1.0000
30.9000 622.0000 1.0000
30.9100 584.0000 1.0000
30.9200 586.0000 1.0000
30.9300 619.0000 1.0000
30.9400 612.0000 1.0000
30.9500 636.0000 1.0000
30.9600 590.0000 1.0000
30.9700 586.0000 1.0000
30.9800 581.0000 1.0000
30.9900 586.0000 1.0000
31.0000 600.0000 1.0000
31.0100 602.0000 1.0000
31.0200 607.0000 1.0000
31.0300 601.0000 1.0000
31.0400 631.0000 1.0000
31.0500 636.0000 1.0000
31.0600 653.0000 1.0000
31.0700 623.0000 1.0000
31.0800 603.0000 1.0000
31.0900 584.0000 1.0000
31.1000 646.0000 1.0000
31.1100 634.0000 1.0000
31.1200 641.0000 1.0000
31.1300 639.0000 1.0000
31.1400 635.0000 1.0000
31.1500 614.0000 1.0000
31.1600 645.0000 1.0000
31.1700 622.0000 1.0000
31.1800 649.0000 1.0000
31.1900 617.0000 1.0000
31.2000 618.0000 1.0000
31.2100 640.0000 1.0000
31.2200 585.0000 1.0000
31.2300 639.0000 1.0000
31.2400 613.0000 1.0000
31.2500 588.0000 1.0000
31.2600 623.0000 1.0000
31.2700 636.0000 1.0000
31.2800 565.0000 1.0000
31.2900 596.0000 1.0000
31.3000 597.0000 1.0000
31.3100 587.0000 1.0000
31.3200 651.0000 1.0000
31.3300 603.0000 1.0000
31.3400 598.0000 1.0000
31.3500 610.0000 1.0000
31.3600 597.0000 1.0000
31.3700 602.0000 1.0000
31.3800 646.0000 1.0000
31.3900 605.0000 1.0000
31.4000 617.0000 1.0000
31.4100 567.0000 1.0000
31.4200 588.0000 1.0000
31.4300 571.0000 1.0000
31.4400 620.0000 1.0000
31.4500 589.0000 1.0000
31.4600 587.0000 1.0000
31.4700 552.0000 1.0000
31.4800 577.0000 1.0000
31.4900 571.0000 1.0000
31.5000 601.0000 1.0000
31.5100 628.0000 1.0000
31.5200 605.0000 1.0000
31.5300 579.0000 1.0000
31.5400 616.0000 1.0000
31.5500 579.0000 1.0000
31.5600 595.0000 1.0000
31.5700 585.0000 1.0000
31.5800 613.0000 1.0000
31.5900 599.0000 1.0000
31.6000 610.0000 1.0000
31.6100 600.0000 1.0000
31.6200 595.0000 1.0000
31.6300 583.0000 1.0000
31.6400 593.0000 1.0000
31.6500 660.0000 1.0000
31.6600 578.0000 1.0000
31.6700 576.0000 1.0000
31.6800 604.0000 1.0000
31.6900 582.0000 1.0000
31.7000 563.0000 1.0000
31.7100 618.0000 1.0000
31.7200 617.0000 1.0000
31.7300 592.0000 1.0000
31.7400 561.0000 1.0000
31.7500 587.0000 1.0000
31.7600 616.0000 1.0000
31.7700 593.0000 1.0000
31.7800 564.0000 1.0000
31.7900 592.0000 1.0000
31.8000 541.0000 1.0000
31.8100 609.0000 1.0000
31.8200 591.0000 1.0000
31.8300 616.0000 1.0000
31.8400 577.0000 1.0000
31.8500 600.0000 1.0000
31.8600 621.0000 1.0000
31.8700 597.0000 1.0000
31.8800 605.0000 1.0000
31.8900 604.0000 1.0000
31.9000 607.0000 1.0000
31.9100 613.0000 1.0000
31.9200 597.0000 1.0000
31.9300 580.0000 1.0000
31.9400 625.0000 1.0000
31.9500 600.0000 1.0000
31.9600 663.0000 1.0000
31.9700 623.0000 1.0000
31.9800 598.0000 1.0000
31.9900 611.0000 1.0000
32.0000 606.0000 1.0000
32.0100 587.0000 1.0000
32.0200 612.0000 1.0000
32.0300 613.0000 1.0000
32.0400 606.0000 1.0000
32.0500 625.0000 1.0000
32.0600 592.0000 1.0000
32.0700 561.0000 1.0000
32.0800 637.0000 1.0000
32.0900 619.0000 1.0000
32.1000 639.0000 1.0000
32.1100 607.0000 1.0000
32.1200 598.0000 1.0000
32.1300 596.0000 1.0000
32.1400 600.0000 1.0000
32.1500 582.0000 1.0000
32.1600 597.0000 1.0000
32.1700 599.0000 1.0000
32.1800 597.0000 1.0000
32.1900 581.0000 1.0000
32.2000 626.0000 1.0000
32.2100 577.0000 1.0000
32.2200 593.0000 1.0000
32.2300 599.0000 1.0000
32.2400 586.0000 1.0000
32.2500 575.0000 1.0000
32.2600 577.0000 1.0000
32.2700 582.0000 1.0000
32.2800 602.0000 1.0000
32.2900 588.0000 1.0000
32.3000 554.0000 1.0000
32.3100 596.0000 1.0000
32.3200 591.0000 1.0000
32.3300 572.0000 1.0000
32.3400 573.0000 1.0000
32.3500 573.0000 1.0000
32.3600 597.0000 1.0000
32.3700 587.0000 1.0000
32.3800 605.0000 1.0000
32.3900 610.0000 1.0000
32.4000 593.0000 1.0000
32.4100 601.0000 1.0000
32.4200 609.0000 1.0000
32.4300 538.0000 1.0000
32.4400 561.0000 1.0000
32.4500 628.0000 1.0000
32.4600 574.0000 1.0000
32.4700 574.0000 1.0000
32.4800 558.0000 1.0000
32.4900 570.0000 1.0000
32.5000 576.0000 1.0000
32.5100 562.0000 1.0000
32.5200 562.0000 1.0000
32.5300 555.0000 1.0000
32.5400 555.0000 1.0000
32.5500 579.0000 1.0000
32.5600 555.0000 1.0000
32.5700 576.0000 1.0000
32.5800 575.0000 1.0000
32.5900 554.0000 1.0000
32.6000 525.0000 1.0000
32.6100 555.0000 1.0000
32.6200 537.0000 1.0000
32.6300 563.0000 1.0000
32.6400 604.0000 1.0000
32.6500 549.0000 1.0000
32.6600 562.0000 1.0000
32.6700 591.0000 1.0000
32.6800 590.0000 1.0000
32.6900 585.0000 1.0000
32.7000 553.0000 1.0000
32.7100 580.0000 1.0000
32.7200 572.0000 1.0000
32.7300 548.0000 1.0000
32.7400 553.0000 1.0000
32.7500 598.0000 1.0000
32.7600 574.0000 1.0000
32.7700 563.0000 1.0000
32.7800 563.0000 1.0000
32.7900 571.0000 1.0000
32.8000 569.0000 1.0000
32.8100 576.0000 1.0000
32.8200 544.0000 1.0000
32.8300 561.0000 1.0000
32.8400 572.0000 1.0000
32.8500 553.0000 1.0000
32.8600 587.0000 1.0000
32.8700 574.0000 1.0000
32.8800 572.0000 1.0000
32.8900 541.0000 1.0000
32.9000 568.0000 1.0000
32.9100 596.0000 1.0000
32.9200 561.0000 1.0000
32.9300 560.0000 1.0000
32.9400 555.0000 1.0000
32.9500 559.0000 1.0000
32.9600 547.0000 1.0000
32.9700 535.0000 1.0000
32.9800 562.0000 1.0000
32.9900 569.0000 1.0000
33.0000 564.0000 1.0000
33.0100 559.0000 1.0000
33.0200 561.0000 1.0000
33.0300 542.0000 1.0000
33.0400 563.0000 1.0000
33.0500 558.0000 1.0000
33.0600 587.0000 1.0000
33.0700 593.0000 1.0000
33.0800 562.0000 1.0000
33.0900 558.0000 1.0000
33.1000 582.0000 1.0000
33.1100 596.0000 1.0000
33.1200 561.0000 1.0000
33.1300 589.0000 1.0000
33.1400 589.0000 1.0000
33.1500 546.0000 1.0000
33.1600 555.0000 1.0000
33.1700 595.0000 1.0000
33.1800 570.0000 1.0000
33.1900 551.0000 1.0000
33.2000 565.0000 1.0000
33.2100 571.0000 1.0000
33.2200 566.0000 1.0000
33.2300 579.0000 1.0000
33.2400 578.0000 1.0000
33.2500 533.0000 1.0000
33.2600 555.0000 1.0000
33.2700 563.0000 1.0000
33.2800 596.0000 1.0000
33.2900 564.0000 1.0000
33.3000 561.0000 1.0000
33.3100 578.0000 1.0000
33.3200 621.0000 1.0000
33.3300 567.0000 1.0000
33.3400 574.0000 1.0000
33.3500 560.0000 1.0000
33.3600 551.0000 1.0000
33.3700 581.0000 1.0000
33.3800 543.0000 1.0000
33.3900 568.0000 1.0000
33.4000 548.0000 1.0000
33.4100 556.0000 1.0000
33.4200 591.0000 1.0000
33.4300 581.0000 1.0000
33.4400 548.0000 1.0000
33.4500 516.0000 1.0000
33.4600 556.0000 1.0000
33.4700 602.0000 1.0000
33.4800 556.0000 1.0000
33.4900 574.0000 1.0000
33.5000 563.0000 1.0000
33.5100 595.0000 1.0000
33.5200 561.0000 1.0000
33.5300 531.0000 1.0000
33.5400 552.0000 1.0000
33.5500 553.0000 1.0000
33.5600 559.0000 1.0000
33.5700 573.0000 1.0000
33.5800 557.0000 1.0000
33.5900 600.0000 1.0000
33.6000 587.0000 1.0000
33.6100 560.0000 1.0000
33.6200 557.0000 1.0000
33.6300 568.0000 1.0000
33.6400 562.0000 1.0000
33.6500 555.0000 1.0000
33.6600 587.0000 1.0000
33.6700 552.0000 1.0000
33.6800 629.0000 1.0000
33.6900 607.0000 1.0000
33.7000 598.0000 1.0000
33.7100 593.0000 1.0000
33.7200 567.0000 1.0000
33.7300 547.0000 1.0000
33.7400 584.0000 1.0000
33.7500 576.0000 1.0000
33.7600 534.0000 1.0000
33.7700 615.0000 1.0000
33.7800 593.0000 1.0000
33.7900 597.0000 1.0000
33.8000 591.0000 1.0000
33.8100 556.0000 1.0000
33.8200 564.0000 1.0000
33.8300 582.0000 1.0000
33.8400 587.0000 1.0000
33.8500 601.0000 1.0000
33.8600 630.0000 1.0000
33.8700 612.0000 1.0000
33.8800 661.0000 1.0000
33.8900 633.0000 1.0000
33.9000 591.0000 1.0000
33.9100 613.0000 1.0000
33.9200 653.0000 1.0000
33.9300 631.0000 1.0000
33.9400 642.0000 1.0000
33.9500 637.0000 1.0000
33.9600 604.0000 1.0000
33.9700 608.0000 1.0000
33.9800 612.0000 1.0000
33.9900 600.0000 1.0000
34.0000 664.0000 1.0000
34.0100 623.0000 1.0000
34.0200 661.0000 1.0000
34.0300 641.0000 1.0000
34.0400 627.0000 1.0000
34.0500 651.0000 1.0000
34.0600 629.0000 1.0000
34.0700 643.0000 1.0000
34.0800 641.0000 1.0000
34.0900 612.0000 1.0000
34.1000 642.0000 1.0000
34.1100 628.0000 1.0000
34.1200 653.0000 1.0000
34.1300 630.0000 1.0000
34.1400 601.0000 1.0000
34.1500 601.0000 1.0000
34.1600 626.0000 1.0000
34.1700 639.0000 1.0000
34.1800 645.0000 1.0000
34.1900 635.0000 1.0000
34.2000 655.0000 1.0000
34.2100 653.0000 1.0000
34.2200 684.0000 1.0000
34.2300 679.0000 1.0000
34.2400 690.0000 1.0000
34.2500 678.0000 1.0000
34.2600 668.0000 1.0000
34.2700 750.0000 1.0000
34.2800 749.0000 1.0000
34.2900 692.0000 1.0000
34.3000 756.0000 1.0000
34.3100 714.0000 1.0000
34.3200 790.0000 1.0000
34.3300 805.0000 1.0000
34.3400 790.0000 1.0000
34.3500 822.0000 1.0000
34.3600 875.0000 1.0000
34.3700 876.0000 1.0000
34.3800 958.0000 1.0000
34.3900 939.0000 1.0000
34.4000 983.0000 1.0000
34.4100 970.0000 1.0000
34.4200 1056.0000 1.0000
34.4300 1039.0000 1.0000
34.4400 1115.0000 1.0000
34.4500 1162.0000 1.0000
34.4600 1228.0000 1.0000
34.4700 1247.0000 1.0000
34.4800 1274.0000 1.0000
34.4900 1394.0000 1.0000
34.5000 1396.0000 1.0000
34.5100 1388.0000 1.0000
34.5200 1418.0000 1.0000
34.5300 1472.0000 1.0000
34.5400 1433.0000 1.0000
34.5500 1443.0000 1.0000
34.5600 1388.0000 1.0000
34.5700 1287.0000 1.0000
34.5800 1249.0000 1.0000
34.5900 1270.0000 1.0000
34.6000 1188.0000 1.0000
34.6100 1197.0000 1.0000
34.6200 1147.0000 1.0000
34.6300 1077.0000 1.0000
34.6400 1045.0000 1.0000
34.6500 1014.0000 1.0000
34.6600 959.0000 1.0000
34.6700 879.0000 1.0000
34.6800 873.0000 1.0000
34.6900 878.0000 1.0000
34.7000 821.0000 1.0000
34.7100 825.0000 1.0000
34.7200 788.0000 1.0000
34.7300 771.0000 1.0000
34.7400 730.0000 1.0000
34.7500 752.0000 1.0000
34.7600 727.0000 1.0000
34.7700 674.0000 1.0000
34.7800 717.0000 1.0000
34.7900 701.0000 1.0000
34.8000 700.0000 1.0000
34.8100 703.0000 1.0000
34.8200 664.0000 1.0000
34.8300 692.0000 1.0000
34.8400 663.0000 1.0000
34.8500 602.0000 1.0000
34.8600 617.0000 1.0000
34.8700 624.0000 1.0000
34.8800 605.0000 1.0000
34.8900 623.0000 1.0000
34.9000 604.0000 1.0000
34.9100 601.0000 1.0000
34.9200 614.0000 1.0000
34.9300 583.0000 1.0000
34.9400 604.0000 1.0000
34.9500 629.0000 1.0000
34.9600 635.0000 1.0000
34.9700 570.0000 1.0000
34.9800 509.0000 1.0000
34.9900 545.0000 1.0000
35.0000 586.0000 1.0000
35.0100 591.0000 1.0000
35.0200 556.0000 1.0000
35.0300 556.0000 1.0000
35.0400 566.0000 1.0000
35.0500 572.0000 1.0000
35.0600 564.0000 1.0000
35.0700 572.0000 1.0000
35.0800 546.0000 1.0000
35.0900 530.0000 1.0000
35.1000 567.0000 1.0000
35.1100 544.0000 1.0000
35.1200 543.0000 1.0000
35.1300 522.0000 1.0000
35.1400 534.0000 1.0000
35.1500 554.0000 1.0000
35.1600 548.0000 1.0000
35.1700 552.0000 1.0000
35.1800 528.0000 1.0000
35.1900 503.0000 1.0000
35.2000 502.0000 1.0000
35.2100 501.0000 1.0000
35.2200 525.0000 1.0000
35.2300 538.0000 1.0000
35.2400 532.0000 1.0000
35.2500 556.0000 1.0000
35.2600 543.0000 1.0000
35.2700 513.0000 1.0000
35.2800 487.0000 1.0000
35.2900 523.0000 1.0000
35.3000 550.0000 1.0000
35.3100 556.0000 1.0000
35.3200 515.0000 1.0000
35.3300 519.0000 1.0000
35.3400 502.0000 1.0000
35.3500 520.0000 1.0000
35.3600 520.0000 1.0000
35.3700 515.0000 1.0000
35.3800 513.0000 1.0000
35.3900 540.0000 1.0000
35.4000 502.0000 1.0000
35.4100 472.0000 1.0000
35.4200 493.0000 1.0000
35.4300 501.0000 1.0000
35.4400 481.0000 1.0000
35.4500 493.0000 1.0000
35.4600 524.0000 1.0000
35.4700 503.0000 1.0000
35.4800 487.0000 1.0000
35.4900 508.0000 1.0000
35.5000 483.0000 1.0000
35.5100 494.0000 1.0000
35.5200 482.0000 1.0000
35.5300 455.0000 1.0000
35.5400 478.0000 1.0000
35.5500 474.0000 1.0000
35.5600 485.0000 1.0000
35.5700 500.0000 1.0000
35.5800 487.0000 1.0000
35.5900 501.0000 1.0000
35.6000 529.0000 1.0000
35.6100 499.0000 1.0000
35.6200 526.0000 1.0000
35.6300 512.0000 1.0000
35.6400 510.0000 1.0000
35.6500 485.0000 1.0000
35.6600 525.0000 1.0000
35.6700 496.0000 1.0000
35.6800 499.0000 1.0000
35.6900 456.0000 1.0000
35.7000 463.0000 1.0000
35.7100 485.0000 1.0000
35.7200 528.0000 1.0000
35.7300 500.0000 1.0000
35.7400 486.0000 1.0000
35.7500 519.0000 1.0000
35.7600 505.0000 1.0000
35.7700 482.0000 1.0000
35.7800 503.0000 1.0000
35.7900 515.0000 1.0000
35.8000 503.0000 1.0000
35.8100 477.0000 1.0000
35.8200 509.0000 1.0000
35.8300 456.0000 1.0000
35.8400 500.0000 1.0000
35.8500 493.0000 1.0000
35.8600 468.0000 1.0000
35.8700 468.0000 1.0000
35.8800 506.0000 1.0000
35.8900 503.0000 1.0000
35.9000 483.0000 1.0000
35.9100 517.0000 1.0000
35.9200 499.0000 1.0000
35.9300 505.0000 1.0000
35.9400 459.0000 1.0000
35.9500 509.0000 1.0000
35.9600 488.0000 1.0000
35.9700 501.0000 1.0000
35.9800 517.0000 1.0000
35.9900 493.0000 1.0000
36.0000 488.0000 1.0000
36.0100 494.0000 1.0000
36.0200 533.0000 1.0000
36.0300 487.0000 1.0000
36.0400 483.0000 1.0000
36.0500 499.0000 1.0000
36.0600 511.0000 1.0000
36.0700 486.0000 1.0000
36.0800 487.0000 1.0000
36.0900 525.0000 1.0000
36.1000 518.0000 1.0000
36.1100 527.0000 1.0000
36.1200 500.0000 1.0000
36.1300 521.0000 1.0000
36.1400 506.0000 1.0000
36.1500 526.0000 1.0000
36.1600 549.0000 1.0000
36.1700 536.0000 1.0000
36.1800 529.0000 1.0000
36.1900 547.0000 1.0000
36.2000 554.0000 1.0000
36.2100 579.0000 1.0000
36.2200 526.0000 1.0000
36.2300 562.0000 1.0000
36.2400 567.0000 1.0000
36.2500 593.0000 1.0000
36.2600 573.0000 1.0000
36.2700 571.0000 1.0000
36.2800 628.0000 1.0000
36.2900 613.0000 1.0000
36.3000 632.0000 1.0000
36.3100 661.0000 1.0000
36.3200 647.0000 1.0000
36.3300 675.0000 1.0000
36.3400 689.0000 1.0000
36.3500 671.0000 1.0000
36.3600 729.0000 1.0000
36.3700 757.0000 1.0000
36.3800 731.0000 1.0000
36.3900 762.0000 1.0000
36.4000 771.0000 1.0000
36.4100 801.0000 1.0000
36.4200 773.0000 1.0000
36.4300 764.0000 1.0000
36.4400 742.0000 1.0000
36.4500 767.0000 1.0000
36.4600 793.0000 1.0000
36.4700 757.0000 1.0000
36.4800 729.0000 1.0000
36.4900 728.0000 1.0000
36.5000 711.0000 1.0000
36.5100 718.0000 1.0000
36.5200 743.0000 1.0000
36.5300 732.0000 1.0000
36.5400 697.0000 1.0000
36.5500 706.0000 1.0000
36.5600 661.0000 1.0000
36.5700 639.0000 1.0000
36.5800 583.0000 1.0000
36.5900 593.0000 1.0000
36.6000 640.0000 1.0000
36.6100 607.0000 1.0000
36.6200 580.0000 1.0000
36.6300 569.0000 1.0000
36.6400 548.0000 1.0000
36.6500 564.0000 1.0000
36.6600 553.0000 1.0000
36.6700 570.0000 1.0000
36.6800 505.0000 1.0000
36.6900 515.0000 1.0000
36.7000 502.0000 1.0000
36.7100 518.0000 1.0000
36.7200 511.0000 1.0000
36.7300 508.0000 1.0000
36.7400 500.0000 1.0000
36.7500 528.0000 1.0000
36.7600 485.0000 1.0000
36.7700 483.0000 1.0000
36.7800 473.0000 1.0000
36.7900 516.0000 1.0000
36.8000 521.0000 1.0000
36.8100 526.0000 1.0000
36.8200 472.0000 1.0000
36.8300 477.0000 1.0000
36.8400 455.0000 1.0000
36.8500 488.0000 1.0000
36.8600 443.0000 1.0000
36.8700 467.0000 1.0000
36.8800 442.0000 1.0000
36.8900 442.0000 1.0000
36.9000 432.0000 1.0000
36.9100 455.0000 1.0000
36.9200 446.0000 1.0000
36.9300 479.0000 1.0000
36.9400 464.0000 1.0000
36.9500 456.0000 1.0000
36.9600 450.0000 1.0000
36.9700 442.0000 1.0000
36.9800 421.0000 1.0000
36.9900 458.0000 1.0000
37.0000 451.0000 1.0000
37.0100 440.0000 1.0000
37.0200 445.0000 1.0000
37.0300 460.0000 1.0000
37.0400 434.0000 1.0000
37.0500 437.0000 1.0000
37.0600 440.0000 1.0000
37.0700 434.0000 1.0000
37.0800 475.0000 1.0000
37.0900 469.0000 1.0000
37.1000 437.0000 1.0000
37.1100 424.0000 1.0000
37.1200 436.0000 1.0000
37.1300 478.0000 1.0000
37.1400 497.0000 1.0000
37.1500 443.0000 1.0000
37.1600 469.0000 1.0000
37.1700 431.0000 1.0000
37.1800 431.0000 1.0000
37.1900 451.0000 1.0000
37.2000 455.0000 1.0000
37.2100 437.0000 1.0000
37.2200 442.0000 1.0000
37.2300 423.0000 1.0000
37.2400 476.0000 1.0000
37.2500 443.0000 1.0000
37.2600 445.0000 1.0000
37.2700 454.0000 1.0000
37.2800 446.0000 1.0000
37.2900 471.0000 1.0000
37.3000 450.0000 1.0000
37.3100 434.0000 1.0000
37.3200 434.0000 1.0000
37.3300 443.0000 1.0000
37.3400 425.0000 1.0000
37.3500 453.0000 1.0000
37.3600 404.0000 1.0000
37.3700 426.0000 1.0000
37.3800 447.0000 1.0000
37.3900 448.0000 1.0000
37.4000 451.0000 1.0000
37.4100 468.0000 1.0000
37.4200 436.0000 1.0000
37.4300 466.0000 1.0000
37.4400 453.0000 1.0000
37.4500 463.0000 1.0000
37.4600 466.0000 1.0000
37.4700 429.0000 1.0000
37.4800 444.0000 1.0000
37.4900 470.0000 1.0000
37.5000 465.0000 1.0000
37.5100 433.0000 1.0000
37.5200 429.0000 1.0000
37.5300 424.0000 1.0000
37.5400 421.0000 1.0000
37.5500 470.0000 1.0000
37.5600 453.0000 1.0000
37.5700 416.0000 1.0000
37.5800 440.0000 1.0000
37.5900 453.0000 1.0000
37.6000 479.0000 1.0000
37.6100 446.0000 1.0000
37.6200 460.0000 1.0000
37.6300 464.0000 1.0000
37.6400 437.0000 1.0000
37.6500 428.0000 1.0000
37.6600 446.0000 1.0000
37.6700 436.0000 1.0000
37.6800 438.0000 1.0000
37.6900 442.0000 1.0000
37.7000 459.0000 1.0000
37.7100 406.0000 1.0000
37.7200 422.0000 1.0000
37.7300 444.0000 1.0000
37.7400 465.0000 1.0000
37.7500 447.0000 1.0000
37.7600 454.0000 1.0000
37.7700 428.0000 1.0000
37.7800 415.0000 1.0000
37.7900 438.0000 1.0000
37.8000 439.0000 1.0000
37.8100 460.0000 1.0000
37.8200 441.0000 1.0000
37.8300 444.0000 1.0000
37.8400 456.0000 1.0000
37.8500 459.0000 1.0000
37.8600 437.0000 1.0000
37.8700 440.0000 1.0000
37.8800 421.0000 1.0000
37.8900 454.0000 1.0000
37.9000 463.0000 1.0000
37.9100 464.0000 1.0000
37.9200 459.0000 1.0000
37.9300 452.0000 1.0000
37.9400 508.0000 1.0000
37.9500 443.0000 1.0000
37.9600 426.0000 1.0000
37.9700 474.0000 1.0000
37.9800 482.0000 1.0000
37.9900 437.0000 1.0000
38.0000 466.0000 1.0000
38.0100 510.0000 1.0000
38.0200 461.0000 1.0000
38.0300 500.0000 1.0000
38.0400 471.0000 1.0000
38.0500 444.0000 1.0000
38.0600 457.0000 1.0000
38.0700 490.0000 1.0000
38.0800 504.0000 1.0000
38.0900 474.0000 1.0000
38.1000 494.0000 1.0000
38.1100 463.0000 1.0000
38.1200 531.0000 1.0000
38.1300 557.0000 1.0000
38.1400 524.0000 1.0000
38.1500 520.0000 1.0000
38.1600 525.0000 1.0000
38.1700 526.0000 1.0000
38.1800 547.0000 1.0000
38.1900 536.0000 1.0000
38.2000 551.0000 1.0000
38.2100 575.0000 1.0000
38.2200 573.0000 1.0000
38.2300 598.0000 1.0000
38.2400 640.0000 1.0000
38.2500 613.0000 1.0000
38.2600 605.0000 1.0000
38.2700 631.0000 1.0000
38.2800 664.0000 1.0000
38.2900 671.0000 1.0000
38.3000 727.0000 1.0000
38.3100 741.0000 1.0000
38.3200 733.0000 1.0000
38.3300 783.0000 1.0000
38.3400 844.0000 1.0000
38.3500 889.0000 1.0000
38.3600 914.0000 1.0000
38.3700 1013.0000 1.0000
38.3800 1031.0000 1.0000
38.3900 1068.0000 1.0000
38.4000 1163.0000 1.0000
38.4100 1217.0000 1.0000
38.4200 1266.0000 1.0000
38.4300 1334.0000 1.0000
38.4400 1489.0000 1.0000
38.4500 1578.0000 1.0000
38.4600 1730.0000 1.0000
38.4700 1772.0000 1.0000
38.4800 1919.0000 1.0000
38.4900 1991.0000 1.0000
38.5000 2149.0000 1.0000
38.5100 2203.0000 1.0000
38.5200 2334.0000 1.0000
38.5300 2333.0000 1.0000
38.5400 2515.0000 1.0000
38.5500 2527.0000 1.0000
38.5600 2507.0000 1.0000
38.5700 2564.0000 1.0000
38.5800 2538.0000 1.0000
38.5900 2449.0000 1.0000
38.6000 2360.0000 1.0000
38.6100 2419.0000 1.0000
38.6200 2358.0000 1.0000
38.6300 2109.0000 1.0000
38.6400 2122.0000 1.0000
38.6500 2045.0000 1.0000
38.6600 1916.0000 1.0000
38.6700 1838.0000 1.0000
38.6800 1703.0000 1.0000
38.6900 1715.0000 1.0000
38.7000 1550.0000 1.0000
38.7100 1444.0000 1.0000
38.7200 1360.0000 1.0000
38.7300 1318.0000 1.0000
38.7400 1191.0000 1.0000
38.7500 1139.0000 1.0000
38.7600 1103.0000 1.0000
38.7700 1008.0000 1.0000
38.7800 953.0000 1.0000
38.7900 900.0000 1.0000
38.8000 867.0000 1.0000
38.8100 874.0000 1.0000
38.8200 789.0000 1.0000
38.8300 770.0000 1.0000
38.8400 680.0000 1.0000
38.8500 683.0000 1.0000
38.8600 650.0000 1.0000
38.8700 635.0000 1.0000
38.8800 631.0000 1.0000
38.8900 595.0000 1.0000
38.9000 563.0000 1.0000
38.9100 554.0000 1.0000
38.9200 561.0000 1.0000
38.9300 546.0000 1.0000
38.9400 533.0000 1.0000
38.9500 515.0000 1.0000
38.9600 542.0000 1.0000
38.9700 489.0000 1.0000
38.9800 488.0000 1.0000
38.9900 451.0000 1.0000
39.0000 483.0000 1.0000
39.0100 492.0000 1.0000
39.0200 446.0000 1.0000
39.0300 446.0000 1.0000
39.0400 432.0000 1.0000
39.0500 459.0000 1.0000
39.0600 468.0000 1.0000
39.0700 454.0000 1.0000
39.0800 451.0000 1.0000
39.0900 406.0000 1.0000
39.1000 426.0000 1.0000
39.1100 423.0000 1.0000
39.1200 435.0000 1.0000
39.1300 455.0000 1.0000
39.1400 461.0000 1.0000
39.1500 436.0000 1.0000
39.1600 432.0000 1.0000
39.1700 429.0000 1.0000
39.1800 435.0000 1.0000
39.1900 432.0000 1.0000
39.2000 398.0000 1.0000
39.2100 374.0000 1.0000
39.2200 403.0000 1.0000
39.2300 412.0000 1.0000
39.2400 410.0000 1.0000
39.2500 415.0000 1.0000
39.2600 413.0000 1.0000
39.2700 418.0000 1.0000
39.2800 410.0000 1.0000
39.2900 402.0000 1.0000
39.3000 412.0000 1.0000
39.3100 382.0000 1.0000
39.3200 418.0000 1.0000
39.3300 418.0000 1.0000
39.3400 408.0000 1.0000
39.3500 416.0000 1.0000
39.3600 395.0000 1.0000
39.3700 407.0000 1.0000
39.3800 379.0000 1.0000
39.3900 409.0000 1.0000
39.4000 376.0000 1.0000
39.4100 399.0000 1.0000
39.4200 393.0000 1.0000
39.4300 415.0000 1.0000
39.4400 429.0000 1.0000
39.4500 406.0000 1.0000
39.4600 400.0000 1.0000
39.4700 423.0000 1.0000
39.4800 416.0000 1.0000
39.4900 445.0000 1.0000
39.5000 417.0000 1.0000
39.5100 415.0000 1.0000
39.5200 411.0000 1.0000
39.5300 401.0000 1.0000
39.5400 428.0000 1.0000
39.5500 398.0000 1.0000
39.5600 415.0000 1.0000
39.5700 422.0000 1.0000
39.5800 386.0000 1.0000
39.5900 402.0000 1.0000
39.6000 448.0000 1.0000
39.6100 444.0000 1.0000
39.6200 425.0000 1.0000
39.6300 395.0000 1.0000
39.6400 429.0000 1.0000
39.6500 357.0000 1.0000
39.6600 381.0000 1.0000
39.6700 431.0000 1.0000
39.6800 427.0000 1.0000
39.6900 408.0000 1.0000
39.7000 424.0000 1.0000
39.7100 394.0000 1.0000
39.7200 403.0000 1.0000
39.7300 398.0000 1.0000
39.7400 413.0000 1.0000
39.7500 416.0000 1.0000
39.7600 419.0000 1.0000
39.7700 459.0000 1.0000
39.7800 450.0000 1.0000
39.7900 416.0000 1.0000
39.8000 432.0000 1.0000
39.8100 378.0000 1.0000
39.8200 388.0000 1.0000
39.8300 415.0000 1.0000
39.8400 410.0000 1.0000
39.8500 415.0000 1.0000
39.8600 397.0000 1.0000
39.8700 400.0000 1.0000
39.8800 388.0000 1.0000
39.8900 392.0000 1.0000
39.9000 364.0000 1.0000
39.9100 388.0000 1.0000
39.9200 375.0000 1.0000
39.9300 399.0000 1.0000
39.9400 372.0000 1.0000
39.9500 405.0000 1.0000
39.9600 353.0000 1.0000
39.9700 358.0000 1.0000
39.9800 386.0000 1.0000
39.9900 384.0000 1.0000
40.0000 392.0000 1.0000
40.0100 395.0000 1.0000
40.0200 385.0000 1.0000
40.0300 396.0000 1.0000
40.0400 413.0000 1.0000
40.0500 376.0000 1.0000
40.0600 365.0000 1.0000
40.0700 379.0000 1.0000
40.0800 386.0000 1.0000
40.0900 394.0000 1.0000
40.1000 402.0000 1.0000
40.1100 404.0000 1.0000
40.1200 365.0000 1.0000
40.1300 391.0000 1.0000
40.1400 384.0000 1.0000
40.1500 389.0000 1.0000
40.1600 393.0000 1.0000
40.1700 392.0000 1.0000
40.1800 375.0000 1.0000
40.1900 348.0000 1.0000
40.2000 365.0000 1.0000
40.2100 394.0000 1.0000
40.2200 411.0000 1.0000
40.2300 367.0000 1.0000
40.2400 357.0000 1.0000
40.2500 342.0000 1.0000
40.2600 365.0000 1.0000
40.2700 354.0000 1.0000
40.2800 359.0000 1.0000
40.2900 359.0000 1.0000
40.3000 353.0000 1.0000
40.3100 398.0000 1.0000
40.3200 404.0000 1.0000
40.3300 379.0000 1.0000
40.3400 358.0000 1.0000
40.3500 370.0000 1.0000
40.3600 365.0000 1.0000
40.3700 382.0000 1.0000
40.3800 373.0000 1.0000
40.3900 366.0000 1.0000
40.4000 368.0000 1.0000
40.4100 395.0000 1.0000
40.4200 364.0000 1.0000
40.4300 391.0000 1.0000
40.4400 402.0000 1.0000
40.4500 352.0000 1.0000
40.4600 409.0000 1.0000
40.4700 379.0000 1.0000
40.4800 382.0000 1.0000
40.4900 377.0000 1.0000
40.5000 358.0000 1.0000
40.5100 375.0000 1.0000
40.5200 360.0000 1.0000
40.5300 374.0000 1.0000
40.5400 404.0000 1.0000
40.5500 393.0000 1.0000
40.5600 373.0000 1.0000
40.5700 347.0000 1.0000
40.5800 380.0000 1.0000
40.5900 390.0000 1.0000
40.6000 371.0000 1.0000
40.6100 357.0000 1.0000
40.6200 389.0000 1.0000
40.6300 357.0000 1.0000
40.6400 373.0000 1.0000
40.6500 368.0000 1.0000
40.6600 384.0000 1.0000
40.6700 378.0000 1.0000
40.6800 364.0000 1.0000
40.6900 399.0000 1.0000
40.7000 379.0000 1.0000
40.7100 383.0000 1.0000
40.7200 389.0000 1.0000
40.7300 360.0000 1.0000
40.7400 371.0000 1.0000
40.7500 369.0000 1.0000
40.7600 379.0000 1.0000
40.7700 383.0000 1.0000
40.7800 359.0000 1.0000
40.7900 362.0000 1.0000
40.8000 381.0000 1.0000
40.8100 360.0000 1.0000
40.8200 365.0000 1.0000
40.8300 382.0000 1.0000
40.8400 387.0000 1.0000
40.8500 374.0000 1.0000
40.8600 361.0000 1.0000
40.8700 339.0000 1.0000
40.8800 384.0000 1.0000
40.8900 383.0000 1.0000
40.9000 379.0000 1.0000
40.9100 386.0000 1.0000
40.9200 364.0000 1.0000
40.9300 375.0000 1.0000
40.9400 383.0000 1.0000
40.9500 338.0000 1.0000
40.9600 357.0000 1.0000
40.9700 380.0000 1.0000
40.9800 379.0000 1.0000
40.9900 359.0000 1.0000
41.0000 358.0000 1.0000
41.0100 384.0000 1.0000
41.0200 341.0000 1.0000
41.0300 337.0000 1.0000
41.0400 363.0000 1.0000
41.0500 407.0000 1.0000
41.0600 390.0000 1.0000
41.0700 338.0000 1.0000
41.0800 381.0000 1.0000
41.0900 361.0000 1.0000
41.1000 363.0000 1.0000
41.1100 372.0000 1.0000
41.1200 345.0000 1.0000
41.1300 356.0000 1.0000
41.1400 359.0000 1.0000
41.1500 349.0000 1.0000
41.1600 358.0000 1.0000
41.1700 385.0000 1.0000
41.1800 395.0000 1.0000
41.1900 395.0000 1.0000
41.2000 357.0000 1.0000
41.2100 356.0000 1.0000
41.2200 340.0000 1.0000
41.2300 371.0000 1.0000
41.2400 369.0000 1.0000
41.2500 350.0000 1.0000
41.2600 354.0000 1.0000
41.2700 377.0000 1.0000
41.2800 383.0000 1.0000
41.2900 387.0000 1.0000
41.3000 375.0000 1.0000
41.3100 397.0000 1.0000
41.3200 389.0000 1.0000
41.3300 380.0000 1.0000
41.3400 359.0000 1.0000
41.3500 364.0000 1.0000
41.3600 369.0000 1.0000
41.3700 369.0000 1.0000
41.3800 348.0000 1.0000
41.3900 359.0000 1.0000
41.4000 391.0000 1.0000
41.4100 380.0000 1.0000
41.4200 365.0000 1.0000
41.4300 348.0000 1.0000
41.4400 340.0000 1.0000
41.4500 353.0000 1.0000
41.4600 346.0000 1.0000
41.4700 372.0000 1.0000
41.4800 372.0000 1.0000
41.4900 351.0000 1.0000
41.5000 367.0000 1.0000
41.5100 381.0000 1.0000
41.5200 363.0000 1.0000
41.5300 389.0000 1.0000
41.5400 355.0000 1.0000
41.5500 357.0000 1.0000
41.5600 367.0000 1.0000
41.5700 369.0000 1.0000
41.5800 361.0000 1.0000
41.5900 416.0000 1.0000
41.6000 355.0000 1.0000
41.6100 354.0000 1.0000
41.6200 375.0000 1.0000
41.6300 391.0000 1.0000
41.6400 370.0000 1.0000
41.6500 414.0000 1.0000
41.6600 380.0000 1.0000
41.6700 365.0000 1.0000
41.6800 402.0000 1.0000
41.6900 370.0000 1.0000
41.7000 385.0000 1.0000
41.7100 410.0000 1.0000
41.7200 391.0000 1.0000
41.7300 379.0000 1.0000
41.7400 351.0000 1.0000
41.7500 360.0000 1.0000
41.7600 359.0000 1.0000
41.7700 371.0000 1.0000
41.7800 346.0000 1.0000
41.7900 395.0000 1.0000
41.8000 387.0000 1.0000
41.8100 357.0000 1.0000
41.8200 379.0000 1.0000
41.8300 378.0000 1.0000
41.8400 357.0000 1.0000
41.8500 350.0000 1.0000
41.8600 375.0000 1.0000
41.8700 368.0000 1.0000
41.8800 382.0000 1.0000
41.8900 366.0000 1.0000
41.9000 367.0000 1.0000
41.9100 373.0000 1.0000
41.9200 366.0000 1.0000
41.9300 355.0000 1.0000
41.9400 341.0000 1.0000
41.9500 351.0000 1.0000
41.9600 345.0000 1.0000
41.9700 341.0000 1.0000
41.9800 363.0000 1.0000
41.9900 360.0000 1.0000
42.0000 391.0000 1.0000
42.0100 359.0000 1.0000
42.0200 350.0000 1.0000
42.0300 356.0000 1.0000
42.0400 365.0000 1.0000
42.0500 357.0000 1.0000
42.0600 357.0000 1.0000
42.0700 347.0000 1.0000
42.0800 353.0000 1.0000
42.0900 357.0000 1.0000
42.1000 358.0000 1.0000
42.1100 377.0000 1.0000
42.1200 355.0000 1.0000
42.1300 353.0000 1.0000
42.1400 383.0000 1.0000
42.1500 371.0000 1.0000
42.1600 377.0000 1.0000
42.1700 377.0000 1.0000
42.1800 356.0000 1.0000
42.1900 384.0000 1.0000
42.2000 383.0000 1.0000
42.2100 326.0000 1.0000
42.2200 366.0000 1.0000
42.2300 342.0000 1.0000
42.2400 354.0000 1.0000
42.2500 327.0000 1.0000
42.2600 348.0000 1.0000
42.2700 346.0000 1.0000
42.2800 333.0000 1.0000
42.2900 360.0000 1.0000
42.3000 363.0000 1.0000
42.3100 363.0000 1.0000
42.3200 378.0000 1.0000
42.3300 363.0000 1.0000
42.3400 352.0000 1.0000
42.3500 352.0000 1.0000
42.3600 345.0000 1.0000
42.3700 358.0000 1.0000
42.3800 350.0000 1.0000
42.3900 342.0000 1.0000
42.4000 333.0000 1.0000
42.4100 355.0000 1.0000
42.4200 353.0000 1.0000
42.4300 357.0000 1.0000
42.4400 311.0000 1.0000
42.4500 346.0000 1.0000
42.4600 341.0000 1.0000
42.4700 354.0000 1.0000
42.4800 380.0000 1.0000
42.4900 349.0000 1.0000
42.5000 353.0000 1.0000
42.5100 359.0000 1.0000
42.5200 344.0000 1.0000
42.5300 362.0000 1.0000
42.5400 347.0000 1.0000
42.5500 365.0000 1.0000
42.5600 334.0000 1.0000
42.5700 364.0000 1.0000
42.5800 323.0000 1.0000
42.5900 381.0000 1.0000
42.6000 377.0000 1.0000
42.6100 368.0000 1.0000
42.6200 348.0000 1.0000
42.6300 370.0000 1.0000
42.6400 348.0000 1.0000
42.6500 364.0000 1.0000
42.6600 351.0000 1.0000
42.6700 344.0000 1.0000
42.6800 351.0000 1.0000
42.6900 340.0000 1.0000
42.7000 345.0000 1.0000
42.7100 370.0000 1.0000
42.7200 392.0000 1.0000
42.7300 350.0000 1.0000
42.7400 334.0000 1.0000
42.7500 351.0000 1.0000
42.7600 360.0000 1.0000
42.7700 370.0000 1.0000
42.7800 360.0000 1.0000
42.7900 354.0000 1.0000
42.8000 346.0000 1.0000
42.8100 352.0000 1.0000
42.8200 356.0000 1.0000
42.8300 378.0000 1.0000
42.8400 344.0000 1.0000
42.8500 354.0000 1.0000
42.8600 384.0000 1.0000
42.8700 360.0000 1.0000
42.8800 336.0000 1.0000
42.8900 357.0000 1.0000
42.9000 329.0000 1.0000
42.9100 358.0000 1.0000
42.9200 342.0000 1.0000
42.9300 341.0000 1.0000
42.9400 351.0000 1.0000
42.9500 351.0000 1.0000
42.9600 379.0000 1.0000
42.9700 366.0000 1.0000
42.9800 347.0000 1.0000
42.9900 345.0000 1.0000
43.0000 389.0000 1.0000
43.0100 377.0000 1.0000
43.0200 366.0000 1.0000
43.0300 351.0000 1.0000
43.0400 350.0000 1.0000
43.0500 356.0000 1.0000
43.0600 354.0000 1.0000
43.0700 375.0000 1.0000
43.0800 362.0000 1.0000
43.0900 346.0000 1.0000
43.1000 360.0000 1.0000
43.1100 374.0000 1.0000
43.1200 368.0000 1.0000
43.1300 357.0000 1.0000
43.1400 402.0000 1.0000
43.1500 385.0000 1.0000
43.1600 406.0000 1.0000
43.1700 378.0000 1.0000
43.1800 409.0000 1.0000
43.1900 399.0000 1.0000
43.2000 389.0000 1.0000
43.2100 363.0000 1.0000
43.2200 391.0000 1.0000
43.2300 366.0000 1.0000
43.2400 375.0000 1.0000
43.2500 362.0000 1.0000
43.2600 380.0000 1.0000
43.2700 377.0000 1.0000
43.2800 371.0000 1.0000
43.2900 399.0000 1.0000
43.3000 394.0000 1.0000
43.3100 380.0000 1.0000
43.3200 379.0000 1.0000
43.3300 408.0000 1.0000
43.3400 351.0000 1.0000
43.3500 364.0000 1.0000
43.3600 358.0000 1.0000
43.3700 372.0000 1.0000
43.3800 362.0000 1.0000
43.3900 370.0000 1.0000
43.4000 367.0000 1.0000
43.4100 367.0000 1.0000
43.4200 415.0000 1.0000
43.4300 349.0000 1.0000
43.4400 360.0000 1.0000
43.4500 376.0000 1.0000
43.4600 384.0000 1.0000
43.4700 376.0000 1.0000
43.4800 389.0000 1.0000
43.4900 377.0000 1.0000
43.5000 354.0000 1.0000
43.5100 345.0000 1.0000
43.5200 379.0000 1.0000
43.5300 346.0000 1.0000
43.5400 345.0000 1.0000
43.5500 366.0000 1.0000
43.5600 389.0000 1.0000
43.5700 362.0000 1.0000
43.5800 337.0000 1.0000
43.5900 336.0000 1.0000
43.6000 341.0000 1.0000
43.6100 374.0000 1.0000
43.6200 339.0000 1.0000
43.6300 357.0000 1.0000
43.6400 339.0000 1.0000
43.6500 355.0000 1.0000
43.6600 368.0000 1.0000
43.6700 378.0000 1.0000
43.6800 370.0000 1.0000
43.6900 351.0000 1.0000
43.7000 327.0000 1.0000
43.7100 356.0000 1.0000
43.7200 348.0000 1.0000
43.7300 333.0000 1.0000
43.7400 304.0000 1.0000
43.7500 317.0000 1.0000
43.7600 342.0000 1.0000
43.7700 346.0000 1.0000
43.7800 334.0000 1.0000
43.7900 336.0000 1.0000
43.8000 337.0000 1.0000
43.8100 348.0000 1.0000
43.8200 332.0000 1.0000
43.8300 361.0000 1.0000
43.8400 379.0000 1.0000
43.8500 357.0000 1.0000
43.8600 380.0000 1.0000
43.8700 359.0000 1.0000
43.8800 379.0000 1.0000
43.8900 337.0000 1.0000
43.9000 350.0000 1.0000
43.9100 346.0000 1.0000
43.9200 353.0000 1.0000
43.9300 350.0000 1.0000
43.9400 364.0000 1.0000
43.9500 354.0000 1.0000
43.9600 377.0000 1.0000
43.9700 362.0000 1.0000
43.9800 350.0000 1.0000
43.9900 319.0000 1.0000
44.0000 363.0000 1.0000
44.0100 334.0000 1.0000
44.0200 340.0000 1.0000
44.0300 332.0000 1.0000
44.0400 365.0000 1.0000
44.0500 319.0000 1.0000
44.0600 311.0000 1.0000
44.0700 352.0000 1.0000
44.0800 371.0000 1.0000
44.0900 348.0000 1.0000
44.1000 361.0000 1.0000
44.1100 350.0000 1.0000
44.1200 372.0000 1.0000
44.1300 363.0000 1.0000
44.1400 342.0000 1.0000
44.1500 343.0000 1.0000
44.1600 348.0000 1.0000
44.1700 322.0000 1.0000
44.1800 366.0000 1.0000
44.1900 347.0000 1.0000
44.2000 343.0000 1.0000
44.2100 337.0000 1.0000
44.2200 339.0000 1.0000
44.2300 313.0000 1.0000
44.2400 347.0000 1.0000
44.2500 360.0000 1.0000
44.2600 356.0000 1.0000
44.2700 353.0000 1.0000
44.2800 330.0000 1.0000
44.2900 344.0000 1.0000
44.3000 364.0000 1.0000
44.3100 375.0000 1.0000
44.3200 353.0000 1.0000
44.3300 391.0000 1.0000
44.3400 373.0000 1.0000
44.3500 371.0000 1.0000
44.3600 367.0000 1.0000
44.3700 336.0000 1.0000
44.3800 368.0000 1.0000
44.3900 375.0000 1.0000
44.4000 361.0000 1.0000
44.4100 374.0000 1.0000
44.4200 394.0000 1.0000
44.4300 345.0000 1.0000
44.4400 352.0000 1.0000
44.4500 346.0000 1.0000
44.4600 345.0000 1.0000
44.4700 357.0000 1.0000
44.4800 350.0000 1.0000
44.4900 323.0000 1.0000
44.5000 368.0000 1.0000
44.5100 352.0000 1.0000
44.5200 355.0000 1.0000
44.5300 340.0000 1.0000
44.5400 348.0000 1.0000
44.5500 354.0000 1.0000
44.5600 379.0000 1.0000
44.5700 351.0000 1.0000
44.5800 340.0000 1.0000
44.5900 342.0000 1.0000
44.6000 338.0000 1.0000
44.6100 310.0000 1.0000
44.6200 335.0000 1.0000
44.6300 365.0000 1.0000
44.6400 343.0000 1.0000
44.6500 329.0000 1.0000
44.6600 354.0000 1.0000
44.6700 343.0000 1.0000
44.6800 328.0000 1.0000
44.6900 363.0000 1.0000
44.7000 322.0000 1.0000
44.7100 359.0000 1.0000
44.7200 346.0000 1.0000
44.7300 334.0000 1.0000
44.7400 306.0000 1.0000
44.7500 322.0000 1.0000
44.7600 348.0000 1.0000
44.7700 339.0000 1.0000
44.7800 335.0000 1.0000
44.7900 336.0000 1.0000
44.8000 338.0000 1.0000
44.8100 322.0000 1.0000
44.8200 314.0000 1.0000
44.8300 332.0000 1.0000
44.8400 338.0000 1.0000
44.8500 327.0000 1.0000
44.8600 353.0000 1.0000
44.8700 316.0000 1.0000
44.8800 361.0000 1.0000
44.8900 365.0000 1.0000
44.9000 368.0000 1.0000
44.9100 326.0000 1.0000
44.9200 344.0000 1.0000
44.9300 342.0000 1.0000
44.9400 361.0000 1.0000
44.9500 333.0000 1.0000
44.9600 333.0000 1.0000
44.9700 345.0000 1.0000
44.9800 338.0000 1.0000
44.9900 314.0000 1.0000
45.0000 329.0000 1.0000
45.0100 363.0000 1.0000
45.0200 345.0000 1.0000
45.0300 327.0000 1.0000
45.0400 341.0000 1.0000
45.0500 329.0000 1.0000
45.0600 336.0000 1.0000
45.0700 338.0000 1.0000
45.0800 345.0000 1.0000
45.0900 316.0000 1.0000
45.1000 349.0000 1.0000
45.1100 346.0000 1.0000
45.1200 360.0000 1.0000
45.1300 336.0000 1.0000
45.1400 337.0000 1.0000
45.1500 313.0000 1.0000
45.1600 336.0000 1.0000
45.1700 316.0000 1.0000
45.1800 346.0000 1.0000
45.1900 348.0000 1.0000
45.2000 350.0000 1.0000
45.2100 348.0000 1.0000
45.2200 334.0000 1.0000
45.2300 333.0000 1.0000
45.2400 340.0000 1.0000
45.2500 345.0000 1.0000
45.2600 377.0000 1.0000
45.2700 349.0000 1.0000
45.2800 307.0000 1.0000
45.2900 307.0000 1.0000
45.3000 360.0000 1.0000
45.3100 348.0000 1.0000
45.3200 325.0000 1.0000
45.3300 337.0000 1.0000
45.3400 356.0000 1.0000
45.3500 372.0000 1.0000
45.3600 353.0000 1.0000
45.3700 320.0000 1.0000
45.3800 347.0000 1.0000
45.3900 352.0000 1.0000
45.4000 355.0000 1.0000
45.4100 337.0000 1.0000
45.4200 349.0000 1.0000
45.4300 380.0000 1.0000
45.4400 342.0000 1.0000
45.4500 326.0000 1.0000
45.4600 319.0000 1.0000
45.4700 315.0000 1.0000
45.4800 356.0000 1.0000
45.4900 342.0000 1.0000
45.5000 355.0000 1.0000
45.5100 343.0000 1.0000
45.5200 331.0000 1.0000
45.5300 361.0000 1.0000
45.5400 357.0000 1.0000
45.5500 329.0000 1.0000
45.5600 355.0000 1.0000
45.5700 359.0000 1.0000
45.5800 347.0000 1.0000
45.5900 351.0000 1.0000
45.6000 344.0000 1.0000
45.6100 335.0000 1.0000
45.6200 332.0000 1.0000
45.6300 339.0000 1.0000
45.6400 356.0000 1.0000
45.6500 341.0000 1.0000
45.6600 322.0000 1.0000
45.6700 349.0000 1.0000
45.6800 371.0000 1.0000
45.6900 351.0000 1.0000
45.7000 321.0000 1.0000
45.7100 332.0000 1.0000
45.7200 328.0000 1.0000
45.7300 300.0000 1.0000
45.7400 346.0000 1.0000
45.7500 326.0000 1.0000
45.7600 335.0000 1.0000
45.7700 366.0000 1.0000
45.7800 311.0000 1.0000
45.7900 330.0000 1.0000
45.8000 367.0000 1.0000
45.8100 347.0000 1.0000
45.8200 318.0000 1.0000
45.8300 357.0000 1.0000
45.8400 334.0000 1.0000
45.8500 317.0000 1.0000
45.8600 318.0000 1.0000
45.8700 348.0000 1.0000
45.8800 351.0000 1.0000
45.8900 345.0000 1.0000
45.9000 341.0000 1.0000
45.9100 366.0000 1.0000
45.9200 333.0000 1.0000
45.9300 354.0000 1.0000
45.9400 323.0000 1.0000
45.9500 296.0000 1.0000
45.9600 349.0000 1.0000
45.9700 330.0000 1.0000
45.9800 309.0000 1.0000
45.9900 353.0000 1.0000
46.0000 354.0000 1.0000
46.0100 351.0000 1.0000
46.0200 319.0000 1.0000
46.0300 317.0000 1.0000
46.0400 335.0000 1.0000
46.0500 350.0000 1.0000
46.0600 339.0000 1.0000
46.0700 310.0000 1.0000
46.0800 315.0000 1.0000
46.0900 353.0000 1.0000
46.1000 318.0000 1.0000
46.1100 333.0000 1.0000
46.1200 362.0000 1.0000
46.1300 329.0000 1.0000
46.1400 324.0000 1.0000
46.1500 347.0000 1.0000
46.1600 325.0000 1.0000
46.1700 333.0000 1.0000
46.1800 340.0000 1.0000
46.1900 342.0000 1.0000
46.2000 326.0000 1.0000
46.2100 326.0000 1.0000
46.2200 299.0000 1.0000
46.2300 321.0000 1.0000
46.2400 329.0000 1.0000
46.2500 333.0000 1.0000
46.2600 328.0000 1.0000
46.2700 319.0000 1.0000
46.2800 347.0000 1.0000
46.2900 334.0000 1.0000
46.3000 332.0000 1.0000
46.3100 327.0000 1.0000
46.3200 312.0000 1.0000
46.3300 308.0000 1.0000
46.3400 353.0000 1.0000
46.3500 302.0000 1.0000
46.3600 318.0000 1.0000
46.3700 326.0000 1.0000
46.3800 345.0000 1.0000
46.3900 311.0000 1.0000
46.4000 324.0000 1.0000
46.4100 349.0000 1.0000
46.4200 344.0000 1.0000
46.4300 342.0000 1.0000
46.4400 334.0000 1.0000
46.4500 335.0000 1.0000
46.4600 350.0000 1.0000
46.4700 340.0000 1.0000
46.4800 341.0000 1.0000
46.4900 339.0000 1.0000
46.5000 343.0000 1.0000
46.5100 332.0000 1.0000
46.5200 352.0000 1.0000
46.5300 329.0000 1.0000
46.5400 318.0000 1.0000
46.5500 349.0000 1.0000
46.5600 350.0000 1.0000
46.5700 352.0000 1.0000
46.5800 351.0000 1.0000
46.5900 336.0000 1.0000
46.6000 302.0000 1.0000
46.6100 323.0000 1.0000
46.6200 338.0000 1.0000
46.6300 343.0000 1.0000
46.6400 338.0000 1.0000
46.6500 326.0000 1.0000
46.6600 334.0000 1.0000
46.6700 305.0000 1.0000
46.6800 327.0000 1.0000
46.6900 313.0000 1.0000
46.7000 371.0000 1.0000
46.7100 379.0000 1.0000
46.7200 337.0000 1.0000
46.7300 346.0000 1.0000
46.7400 335.0000 1.0000
46.7500 350.0000 1.0000
46.7600 347.0000 1.0000
46.7700 333.0000 1.0000
46.7800 343.0000 1.0000
46.7900 336.0000 1.0000
46.8000 353.0000 1.0000
46.8100 323.0000 1.0000
46.8200 314.0000 1.0000
46.8300 343.0000 1.0000
46.8400 391.0000 1.0000
46.8500 370.0000 1.0000
46.8600 338.0000 1.0000
46.8700 341.0000 1.0000
46.8800 337.0000 1.0000
46.8900 356.0000 1.0000
46.9000 316.0000 1.0000
46.9100 347.0000 1.0000
46.9200 337.0000 1.0000
46.9300 331.0000 1.0000
46.9400 364.0000 1.0000
46.9500 334.0000 1.0000
46.9600 333.0000 1.0000
46.9700 336.0000 1.0000
46.9800 374.0000 1.0000
46.9900 324.0000 1.0000
47.0000 354.0000 1.0000
47.0100 336.0000 1.0000
47.0200 361.0000 1.0000
47.0300 371.0000 1.0000
47.0400 368.0000 1.0000
47.0500 307.0000 1.0000
47.0600 375.0000 1.0000
47.0700 315.0000 1.0000
47.0800 353.0000 1.0000
47.0900 321.0000 1.0000
47.1000 330.0000 1.0000
47.1100 335.0000 1.0000
47.1200 348.0000 1.0000
47.1300 319.0000 1.0000
47.1400 320.0000 1.0000
47.1500 310.0000 1.0000
47.1600 314.0000 1.0000
47.1700 318.0000 1.0000
47.1800 325.0000 1.0000
47.1900 322.0000 1.0000
47.2000 326.0000 1.0000
47.2100 339.0000 1.0000
47.2200 334.0000 1.0000
47.2300 341.0000 1.0000
47.2400 309.0000 1.0000
47.2500 315.0000 1.0000
47.2600 296.0000 1.0000
47.2700 328.0000 1.0000
47.2800 321.0000 1.0000
47.2900 350.0000 1.0000
47.3000 320.0000 1.0000
47.3100 354.0000 1.0000
47.3200 322.0000 1.0000
47.3300 326.0000 1.0000
47.3400 331.0000 1.0000
47.3500 333.0000 1.0000
47.3600 309.0000 1.0000
47.3700 324.0000 1.0000
47.3800 331.0000 1.0000
47.3900 306.0000 1.0000
47.4000 331.0000 1.0000
47.4100 336.0000 1.0000
47.4200 313.0000 1.0000
47.4300 334.0000 1.0000
47.4400 321.0000 1.0000
47.4500 310.0000 1.0000
47.4600 332.0000 1.0000
47.4700 327.0000 1.0000
47.4800 308.0000 1.0000
47.4900 306.0000 1.0000
47.5000 354.0000 1.0000
47.5100 327.0000 1.0000
47.5200 315.0000 1.0000
47.5300 313.0000 1.0000
47.5400 320.0000 1.0000
47.5500 311.0000 1.0000
47.5600 363.0000 1.0000
47.5700 306.0000 1.0000
47.5800 346.0000 1.0000
47.5900 333.0000 1.0000
47.6000 293.0000 1.0000
47.6100 342.0000 1.0000
47.6200 345.0000 1.0000
47.6300 309.0000 1.0000
47.6400 321.0000 1.0000
47.6500 310.0000 1.0000
47.6600 325.0000 1.0000
47.6700 298.0000 1.0000
47.6800 309.0000 1.0000
47.6900 314.0000 1.0000
47.7000 298.0000 1.0000
47.7100 331.0000 1.0000
47.7200 332.0000 1.0000
47.7300 339.0000 1.0000
47.7400 315.0000 1.0000
47.7500 319.0000 1.0000
47.7600 316.0000 1.0000
47.7700 324.0000 1.0000
47.7800 319.0000 1.0000
47.7900 357.0000 1.0000
47.8000 335.0000 1.0000
47.8100 353.0000 1.0000
47.8200 332.0000 1.0000
47.8300 335.0000 1.0000
47.8400 307.0000 1.0000
47.8500 280.0000 1.0000
47.8600 314.0000 1.0000
47.8700 314.0000 1.0000
47.8800 311.0000 1.0000
47.8900 315.0000 1.0000
47.9000 326.0000 1.0000
47.9100 290.0000 1.0000
47.9200 309.0000 1.0000
47.9300 292.0000 1.0000
47.9400 294.0000 1.0000
47.9500 312.0000 1.0000
47.9600 320.0000 1.0000
47.9700 327.0000 1.0000
47.9800 335.0000 1.0000
47.9900 323.0000 1.0000
48.0000 323.0000 1.0000
48.0100 342.0000 1.0000
48.0200 322.0000 1.0000
48.0300 325.0000 1.0000
48.0400 323.0000 1.0000
48.0500 293.0000 1.0000
48.0600 315.0000 1.0000
48.0700 309.0000 1.0000
48.0800 319.0000 1.0000
48.0900 340.0000 1.0000
48.1000 322.0000 1.0000
48.1100 332.0000 1.0000
48.1200 346.0000 1.0000
48.1300 318.0000 1.0000
48.1400 320.0000 1.0000
48.1500 312.0000 1.0000
48.1600 296.0000 1.0000
48.1700 310.0000 1.0000
48.1800 300.0000 1.0000
48.1900 302.0000 1.0000
48.2000 335.0000 1.0000
48.2100 342.0000 1.0000
48.2200 300.0000 1.0000
48.2300 312.0000 1.0000
48.2400 316.0000 1.0000
48.2500 306.0000 1.0000
48.2600 317.0000 1.0000
48.2700 314.0000 1.0000
48.2800 326.0000 1.0000
48.2900 338.0000 1.0000
48.3000 288.0000 1.0000
48.3100 310.0000 1.0000
48.3200 341.0000 1.0000
48.3300 314.0000 1.0000
48.3400 323.0000 1.0000
48.3500 317.0000 1.0000
48.3600 291.0000 1.0000
48.3700 339.0000 1.0000
48.3800 284.0000 1.0000
48.3900 298.0000 1.0000
48.4000 328.0000 1.0000
48.4100 329.0000 1.0000
48.4200 331.0000 1.0000
48.4300 302.0000 1.0000
48.4400 306.0000 1.0000
48.4500 299.0000 1.0000
48.4600 314.0000 1.0000
48.4700 268.0000 1.0000
48.4800 315.0000 1.0000
48.4900 317.0000 1.0000
48.5000 334.0000 1.0000
48.5100 298.0000 1.0000
48.5200 324.0000 1.0000
48.5300 332.0000 1.0000
48.5400 305.0000 1.0000
48.5500 305.0000 1.0000
48.5600 310.0000 1.0000
48.5700 296.0000 1.0000
48.5800 310.0000 1.0000
48.5900 336.0000 1.0000
48.6000 325.0000 1.0000
48.6100 307.0000 1.0000
48.6200 314.0000 1.0000
48.6300 316.0000 1.0000
48.6400 302.0000 1.0000
48.6500 303.0000 1.0000
48.6600 313.0000 1.0000
48.6700 348.0000 1.0000
48.6800 335.0000 1.0000
48.6900 333.0000 1.0000
48.7000 315.0000 1.0000
48.7100 318.0000 1.0000
48.7200 307.0000 1.0000
48.7300 315.0000 1.0000
48.7400 298.0000 1.0000
48.7500 307.0000 1.0000
48.7600 312.0000 1.0000
48.7700 299.0000 1.0000
48.7800 311.0000 1.0000
48.7900 305.0000 1.0000
48.8000 296.0000 1.0000
48.8100 290.0000 1.0000
48.8200 329.0000 1.0000
48.8300 306.0000 1.0000
48.8400 299.0000 1.0000
48.8500 292.0000 1.0000
48.8600 322.0000 1.0000
48.8700 332.0000 1.0000
48.8800 312.0000 1.0000
48.8900 324.0000 1.0000
48.9000 319.0000 1.0000
48.9100 319.0000 1.0000
48.9200 318.0000 1.0000
48.9300 300.0000 1.0000
48.9400 321.0000 1.0000
48.9500 301.0000 1.0000
48.9600 323.0000 1.0000
48.9700 308.0000 1.0000
48.9800 301.0000 1.0000
48.9900 284.0000 1.0000
49.0000 316.0000 1.0000
49.0100 304.0000 1.0000
49.0200 303.0000 1.0000
49.0300 306.0000 1.0000
49.0400 319.0000 1.0000
49.0500 313.0000 1.0000
49.0600 278.0000 1.0000
49.0700 298.0000 1.0000
49.0800 296.0000 1.0000
49.0900 310.0000 1.0000
49.1000 311.0000 1.0000
49.1100 303.0000 1.0000
49.1200 294.0000 1.0000
49.1300 321.0000 1.0000
49.1400 314.0000 1.0000
49.1500 315.0000 1.0000
49.1600 319.0000 1.0000
49.1700 293.0000 1.0000
49.1800 336.0000 1.0000
49.1900 310.0000 1.0000
49.2000 305.0000 1.0000
49.2100 306.0000 1.0000
49.2200 317.0000 1.0000
49.2300 297.0000 1.0000
49.2400 314.0000 1.0000
49.2500 317.0000 1.0000
49.2600 314.0000 1.0000
49.2700 317.0000 1.0000
49.2800 318.0000 1.0000
49.2900 300.0000 1.0000
49.3000 320.0000 1.0000
49.3100 294.0000 1.0000
49.3200 288.0000 1.0000
49.3300 302.0000 1.0000
49.3400 326.0000 1.0000
49.3500 318.0000 1.0000
49.3600 296.0000 1.0000
49.3700 296.0000 1.0000
49.3800 326.0000 1.0000
49.3900 349.0000 1.0000
49.4000 304.0000 1.0000
49.4100 323.0000 1.0000
49.4200 331.0000 1.0000
49.4300 312.0000 1.0000
49.4400 318.0000 1.0000
49.4500 323.0000 1.0000
49.4600 310.0000 1.0000
49.4700 295.0000 1.0000
49.4800 317.0000 1.0000
49.4900 284.0000 1.0000
49.5000 328.0000 1.0000
49.5100 338.0000 1.0000
49.5200 309.0000 1.0000
49.5300 325.0000 1.0000
49.5400 308.0000 1.0000
49.5500 265.0000 1.0000
49.5600 306.0000 1.0000
49.5700 310.0000 1.0000
49.5800 290.0000 1.0000
49.5900 305.0000 1.0000
49.6000 323.0000 1.0000
49.6100 311.0000 1.0000
49.6200 333.0000 1.0000
49.6300 300.0000 1.0000
49.6400 302.0000 1.0000
49.6500 311.0000 1.0000
49.6600 289.0000 1.0000
49.6700 335.0000 1.0000
49.6800 291.0000 1.0000
49.6900 321.0000 1.0000
49.7000 293.0000 1.0000
49.7100 281.0000 1.0000
49.7200 293.0000 1.0000
49.7300 290.0000 1.0000
49.7400 302.0000 1.0000
49.7500 300.0000 1.0000
49.7600 318.0000 1.0000
49.7700 288.0000 1.0000
49.7800 326.0000 1.0000
49.7900 286.0000 1.0000
49.8000 322.0000 1.0000
49.8100 313.0000 1.0000
49.8200 328.0000 1.0000
49.8300 323.0000 1.0000
49.8400 318.0000 1.0000
49.8500 333.0000 1.0000
49.8600 325.0000 1.0000
49.8700 294.0000 1.0000
49.8800 308.0000 1.0000
49.8900 310.0000 1.0000
49.9000 313.0000 1.0000
49.9100 289.0000 1.0000
49.9200 288.0000 1.0000
49.9300 298.0000 1.0000
49.9400 289.0000 1.0000
49.9500 317.0000 1.0000
49.9600 316.0000 1.0000
49.9700 292.0000 1.0000
49.9800 292.0000 1.0000
49.9900 329.0000 1.0000
50.0000 326.0000 1.0000
50.0100 320.0000 1.0000
50.0200 302.0000 1.0000
50.0300 307.0000 1.0000
50.0400 332.0000 1.0000
50.0500 313.0000 1.0000
50.0600 317.0000 1.0000
50.0700 311.0000 1.0000
50.0800 320.0000 1.0000
50.0900 320.0000 1.0000
50.1000 316.0000 1.0000
50.1100 312.0000 1.0000
50.1200 326.0000 1.0000
50.1300 313.0000 1.0000
50.1400 320.0000 1.0000
50.1500 342.0000 1.0000
50.1600 322.0000 1.0000
50.1700 296.0000 1.0000
50.1800 303.0000 1.0000
50.1900 285.0000 1.0000
50.2000 307.0000 1.0000
50.2100 311.0000 1.0000
50.2200 289.0000 1.0000
50.2300 322.0000 1.0000
50.2400 328.0000 1.0000
50.2500 314.0000 1.0000
50.2600 310.0000 1.0000
50.2700 310.0000 1.0000
50.2800 321.0000 1.0000
50.2900 312.0000 1.0000
50.3000 325.0000 1.0000
50.3100 317.0000 1.0000
50.3200 314.0000 1.0000
50.3300 319.0000 1.0000
50.3400 313.0000 1.0000
50.3500 305.0000 1.0000
50.3600 303.0000 1.0000
50.3700 301.0000 1.0000
50.3800 299.0000 1.0000
50.3900 310.0000 1.0000
50.4000 298.0000 1.0000
50.4100 290.0000 1.0000
50.4200 330.0000 1.0000
50.4300 338.0000 1.0000
50.4400 290.0000 1.0000
50.4500 319.0000 1.0000
50.4600 310.0000 1.0000
50.4700 312.0000 1.0000
50.4800 316.0000 1.0000
50.4900 311.0000 1.0000
50.5000 328.0000 1.0000
50.5100 304.0000 1.0000
50.5200 323.0000 1.0000
50.5300 305.0000 1.0000
50.5400 338.0000 1.0000
50.5500 323.0000 1.0000
50.5600 313.0000 1.0000
50.5700 320.0000 1.0000
50.5800 309.0000 1.0000
50.5900 341.0000 1.0000
50.6000 298.0000 1.0000
50.6100 292.0000 1.0000
50.6200 321.0000 1.0000
50.6300 300.0000 1.0000
50.6400 308.0000 1.0000
50.6500 309.0000 1.0000
50.6600 303.0000 1.0000
50.6700 321.0000 1.0000
50.6800 327.0000 1.0000
50.6900 307.0000 1.0000
50.7000 291.0000 1.0000
50.7100 343.0000 1.0000
50.7200 316.0000 1.0000
50.7300 330.0000 1.0000
50.7400 309.0000 1.0000
50.7500 308.0000 1.0000
50.7600 308.0000 1.0000
50.7700 312.0000 1.0000
50.7800 297.0000 1.0000
50.7900 308.0000 1.0000
50.8000 298.0000 1.0000
50.8100 310.0000 1.0000
50.8200 328.0000 1.0000
50.8300 340.0000 1.0000
50.8400 350.0000 1.0000
50.8500 312.0000 1.0000
50.8600 300.0000 1.0000
50.8700 281.0000 1.0000
50.8800 327.0000 1.0000
50.8900 337.0000 1.0000
50.9000 321.0000 1.0000
50.9100 285.0000 1.0000
50.9200 327.0000 1.0000
50.9300 309.0000 1.0000
50.9400 309.0000 1.0000
50.9500 326.0000 1.0000
50.9600 306.0000 1.0000
50.9700 327.0000 1.0000
50.9800 318.0000 1.0000
50.9900 333.0000 1.0000
51.0000 321.0000 1.0000
51.0100 305.0000 1.0000
51.0200 329.0000 1.0000
51.0300 302.0000 1.0000
51.0400 291.0000 1.0000
51.0500 318.0000 1.0000
51.0600 344.0000 1.0000
51.0700 310.0000 1.0000
51.0800 315.0000 1.0000
51.0900 292.0000 1.0000
51.1000 312.0000 1.0000
51.1100 320.0000 1.0000
51.1200 322.0000 1.0000
51.1300 323.0000 1.0000
51.1400 302.0000 1.0000
51.1500 334.0000 1.0000
51.1600 323.0000 1.0000
51.1700 319.0000 1.0000
51.1800 310.0000 1.0000
51.1900 306.0000 1.0000
51.2000 310.0000 1.0000
51.2100 315.0000 1.0000
51.2200 311.0000 1.0000
51.2300 315.0000 1.0000
51.2400 300.0000 1.0000
51.2500 320.0000 1.0000
51.2600 300.0000 1.0000
51.2700 336.0000 1.0000
51.2800 300.0000 1.0000
51.2900 297.0000 1.0000
51.3000 328.0000 1.0000
51.3100 312.0000 1.0000
51.3200 333.0000 1.0000
51.3300 313.0000 1.0000
51.3400 331.0000 1.0000
51.3500 319.0000 1.0000
51.3600 323.0000 1.0000
51.3700 312.0000 1.0000
51.3800 331.0000 1.0000
51.3900 293.0000 1.0000
51.4000 315.0000 1.0000
51.4100 299.0000 1.0000
51.4200 317.0000 1.0000
51.4300 329.0000 1.0000
51.4400 319.0000 1.0000
51.4500 287.0000 1.0000
51.4600 289.0000 1.0000
51.4700 305.0000 1.0000
51.4800 332.0000 1.0000
51.4900 301.0000 1.0000
51.5000 330.0000 1.0000
51.5100 340.0000 1.0000
51.5200 333.0000 1.0000
51.5300 341.0000 1.0000
51.5400 345.0000 1.0000
51.5500 337.0000 1.0000
51.5600 315.0000 1.0000
51.5700 327.0000 1.0000
51.5800 318.0000 1.0000
51.5900 336.0000 1.0000
51.6000 331.0000 1.0000
51.6100 327.0000 1.0000
51.6200 312.0000 1.0000
51.6300 303.0000 1.0000
51.6400 328.0000 1.0000
51.6500 332.0000 1.0000
51.6600 331.0000 1.0000
51.6700 297.0000 1.0000
51.6800 327.0000 1.0000
51.6900 299.0000 1.0000
51.7000 369.0000 1.0000
51.7100 349.0000 1.0000
51.7200 329.0000 1.0000
51.7300 340.0000 1.0000
51.7400 346.0000 1.0000
51.7500 306.0000 1.0000
51.7600 309.0000 1.0000
51.7700 344.0000 1.0000
51.7800 327.0000 1.0000
51.7900 330.0000 1.0000
51.8000 314.0000 1.0000
51.8100 324.0000 1.0000
51.8200 360.0000 1.0000
51.8300 369.0000 1.0000
51.8400 371.0000 1.0000
51.8500 368.0000 1.0000
51.8600 369.0000 1.0000
51.8700 338.0000 1.0000
51.8800 369.0000 1.0000
51.8900 392.0000 1.0000
51.9000 383.0000 1.0000
51.9100 393.0000 1.0000
51.9200 408.0000 1.0000
51.9300 433.0000 1.0000
51.9400 399.0000 1.0000
51.9500 383.0000 1.0000
51.9600 408.0000 1.0000
51.9700 434.0000 1.0000
51.9800 464.0000 1.0000
51.9900 459.0000 1.0000
52.0000 481.0000 1.0000
52.0100 513.0000 1.0000
52.0200 471.0000 1.0000
52.0300 532.0000 1.0000
52.0400 545.0000 1.0000
52.0500 578.0000 1.0000
52.0600 566.0000 1.0000
52.0700 576.0000 1.0000
52.0800 602.0000 1.0000
52.0900 616.0000 1.0000
52.1000 655.0000 1.0000
52.1100 745.0000 1.0000
52.1200 758.0000 1.0000
52.1300 809.0000 1.0000
52.1400 865.0000 1.0000
52.1500 880.0000 1.0000
52.1600 951.0000 1.0000
52.1700 1079.0000 1.0000
52.1800 1197.0000 1.0000
52.1900 1294.0000 1.0000
52.2000 1343.0000 1.0000
52.2100 1506.0000 1.0000
52.2200 1614.0000 1.0000
52.2300 1791.0000 1.0000
52.2400 1938.0000 1.0000
52.2500 1993.0000 1.0000
52.2600 2058.0000 1.0000
52.2700 2164.0000 1.0000
52.2800 2239.0000 1.0000
52.2900 2312.0000 1.0000
52.3000 2349.0000 1.0000
52.3100 2287.0000 1.0000
52.3200 2322.0000 1.0000
52.3300 2220.0000 1.0000
52.3400 2073.0000 1.0000
52.3500 1974.0000 1.0000
52.3600 1949.0000 1.0000
52.3700 1897.0000 1.0000
52.3800 1909.0000 1.0000
52.3900 1902.0000 1.0000
52.4000 1841.0000 1.0000
52.4100 1773.0000 1.0000
52.4200 1666.0000 1.0000
52.4300 1548.0000 1.0000
52.4400 1636.0000 1.0000
52.4500 1462.0000 1.0000
52.4600 1447.0000 1.0000
52.4700 1349.0000 1.0000
52.4800 1266.0000 1.0000
52.4900 1186.0000 1.0000
52.5000 1078.0000 1.0000
52.5100 1003.0000 1.0000
52.5200 924.0000 1.0000
52.5300 914.0000 1.0000
52.5400 873.0000 1.0000
52.5500 787.0000 1.0000
52.5600 676.0000 1.0000
52.5700 649.0000 1.0000
52.5800 703.0000 1.0000
52.5900 671.0000 1.0000
52.6000 593.0000 1.0000
52.6100 602.0000 1.0000
52.6200 582.0000 1.0000
52.6300 526.0000 1.0000
52.6400 507.0000 1.0000
52.6500 484.0000 1.0000
52.6600 442.0000 1.0000
52.6700 461.0000 1.0000
52.6800 445.0000 1.0000
52.6900 420.0000 1.0000
52.7000 406.0000 1.0000
52.7100 444.0000 1.0000
52.7200 436.0000 1.0000
52.7300 446.0000 1.0000
52.7400 414.0000 1.0000
52.7500 437.0000 1.0000
52.7600 404.0000 1.0000
52.7700 396.0000 1.0000
52.7800 386.0000 1.0000
52.7900 396.0000 1.0000
52.8000 379.0000 1.0000
52.8100 367.0000 1.0000
52.8200 357.0000 1.0000
52.8300 361.0000 1.0000
52.8400 373.0000 1.0000
52.8500 365.0000 1.0000
52.8600 365.0000 1.0000
52.8700 364.0000 1.0000
52.8800 338.0000 1.0000
52.8900 352.0000 1.0000
52.9000 346.0000 1.0000
52.9100 369.0000 1.0000
52.9200 308.0000 1.0000
52.9300 368.0000 1.0000
52.9400 322.0000 1.0000
52.9500 314.0000 1.0000
52.9600 335.0000 1.0000
52.9700 301.0000 1.0000
52.9800 327.0000 1.0000
52.9900 328.0000 1.0000
53.0000 319.0000 1.0000
53.0100 325.0000 1.0000
53.0200 329.0000 1.0000
53.0300 321.0000 1.0000
53.0400 349.0000 1.0000
53.0500 338.0000 1.0000
53.0600 345.0000 1.0000
53.0700 348.0000 1.0000
53.0800 311.0000 1.0000
53.0900 307.0000 1.0000
53.1000 303.0000 1.0000
53.1100 348.0000 1.0000
53.1200 346.0000 1.0000
53.1300 300.0000 1.0000
53.1400 324.0000 1.0000
53.1500 341.0000 1.0000
53.1600 356.0000 1.0000
53.1700 343.0000 1.0000
53.1800 325.0000 1.0000
53.1900 327.0000 1.0000
53.2000 329.0000 1.0000
53.2100 344.0000 1.0000
53.2200 329.0000 1.0000
53.2300 293.0000 1.0000
53.2400 306.0000 1.0000
53.2500 310.0000 1.0000
53.2600 304.0000 1.0000
53.2700 311.0000 1.0000
53.2800 323.0000 1.0000
53.2900 338.0000 1.0000
53.3000 292.0000 1.0000
53.3100 303.0000 1.0000
53.3200 309.0000 1.0000
53.3300 318.0000 1.0000
53.3400 328.0000 1.0000
53.3500 309.0000 1.0000
53.3600 257.0000 1.0000
53.3700 318.0000 1.0000
53.3800 302.0000 1.0000
53.3900 279.0000 1.0000
53.4000 323.0000 1.0000
53.4100 298.0000 1.0000
53.4200 337.0000 1.0000
53.4300 316.0000 1.0000
53.4400 291.0000 1.0000
53.4500 293.0000 1.0000
53.4600 304.0000 1.0000
53.4700 335.0000 1.0000
53.4800 336.0000 1.0000
53.4900 315.0000 1.0000
53.5000 308.0000 1.0000
53.5100 327.0000 1.0000
53.5200 343.0000 1.0000
53.5300 333.0000 1.0000
53.5400 309.0000 1.0000
53.5500 323.0000 1.0000
53.5600 315.0000 1.0000
53.5700 311.0000 1.0000
53.5800 311.0000 1.0000
53.5900 306.0000 1.0000
53.6000 285.0000 1.0000
53.6100 329.0000 1.0000
53.6200 317.0000 1.0000
53.6300 320.0000 1.0000
53.6400 323.0000 1.0000
53.6500 313.0000 1.0000
53.6600 315.0000 1.0000
53.6700 291.0000 1.0000
53.6800 318.0000 1.0000
53.6900 317.0000 1.0000
53.7000 322.0000 1.0000
53.7100 323.0000 1.0000
53.7200 287.0000 1.0000
53.7300 291.0000 1.0000
53.7400 295.0000 1.0000
53.7500 306.0000 1.0000
53.7600 317.0000 1.0000
53.7700 297.0000 1.0000
53.7800 344.0000 1.0000
53.7900 319.0000 1.0000
53.8000 297.0000 1.0000
53.8100 301.0000 1.0000
53.8200 307.0000 1.0000
53.8300 322.0000 1.0000
53.8400 324.0000 1.0000
53.8500 319.0000 1.0000
53.8600 316.0000 1.0000
53.8700 318.0000 1.0000
53.8800 292.0000 1.0000
53.8900 312.0000 1.0000
53.9000 291.0000 1.0000
53.9100 303.0000 1.0000
53.9200 289.0000 1.0000
53.9300 318.0000 1.0000
53.9400 324.0000 1.0000
53.9500 308.0000 1.0000
53.9600 310.0000 1.0000
53.9700 283.0000 1.0000
53.9800 296.0000 1.0000
53.9900 327.0000 1.0000
54.0000 283.0000 1.0000
54.0100 294.0000 1.0000
54.0200 310.0000 1.0000
54.0300 290.0000 1.0000
54.0400 286.0000 1.0000
54.0500 282.0000 1.0000
54.0600 310.0000 1.0000
54.0700 292.0000 1.0000
54.0800 297.0000 1.0000
54.0900 301.0000 1.0000
54.1000 306.0000 1.0000
54.1100 313.0000 1.0000
54.1200 313.0000 1.0000
54.1300 302.0000 1.0000
54.1400 295.0000 1.0000
54.1500 285.0000 1.0000
54.1600 303.0000 1.0000
54.1700 321.0000 1.0000
54.1800 346.0000 1.0000
54.1900 325.0000 1.0000
54.2000 298.0000 1.0000
54.2100 321.0000 1.0000
54.2200 292.0000 1.0000
54.2300 318.0000 1.0000
54.2400 284.0000 1.0000
54.2500 309.0000 1.0000
54.2600 289.0000 1.0000
54.2700 308.0000 1.0000
54.2800 310.0000 1.0000
54.2900 347.0000 1.0000
54.3000 326.0000 1.0000
54.3100 318.0000 1.0000
54.3200 277.0000 1.0000
54.3300 285.0000 1.0000
54.3400 291.0000 1.0000
54.3500 281.0000 1.0000
54.3600 301.0000 1.0000
54.3700 295.0000 1.0000
54.3800 306.0000 1.0000
54.3900 304.0000 1.0000
54.4000 322.0000 1.0000
54.4100 312.0000 1.0000
54.4200 298.0000 1.0000
54.4300 316.0000 1.0000
54.4400 330.0000 1.0000
54.4500 289.0000 1.0000
54.4600 284.0000 1.0000
54.4700 310.0000 1.0000
54.4800 287.0000 1.0000
54.4900 308.0000 1.0000
54.5000 318.0000 1.0000
54.5100 300.0000 1.0000
54.5200 338.0000 1.0000
54.5300 308.0000 1.0000
54.5400 318.0000 1.0000
54.5500 319.0000 1.0000
54.5600 342.0000 1.0000
54.5700 314.0000 1.0000
54.5800 299.0000 1.0000
54.5900 309.0000 1.0000
54.6000 296.0000 1.0000
54.6100 320.0000 1.0000
54.6200 312.0000 1.0000
54.6300 311.0000 1.0000
54.6400 279.0000 1.0000
54.6500 306.0000 1.0000
54.6600 312.0000 1.0000
54.6700 316.0000 1.0000
54.6800 301.0000 1.0000
54.6900 292.0000 1.0000
54.7000 321.0000 1.0000
54.7100 310.0000 1.0000
54.7200 326.0000 1.0000
54.7300 321.0000 1.0000
54.7400 291.0000 1.0000
54.7500 310.0000 1.0000
54.7600 320.0000 1.0000
54.7700 302.0000 1.0000
54.7800 311.0000 1.0000
54.7900 316.0000 1.0000
54.8000 336.0000 1.0000
54.8100 327.0000 1.0000
54.8200 308.0000 1.0000
54.8300 318.0000 1.0000
54.8400 334.0000 1.0000
54.8500 323.0000 1.0000
54.8600 315.0000 1.0000
54.8700 334.0000 1.0000
54.8800 321.0000 1.0000
54.8900 342.0000 1.0000
54.9000 311.0000 1.0000
54.9100 317.0000 1.0000
54.9200 304.0000 1.0000
54.9300 307.0000 1.0000
54.9400 324.0000 1.0000
54.9500 341.0000 1.0000
54.9600 343.0000 1.0000
54.9700 325.0000 1.0000
54.9800 314.0000 1.0000
54.9900 331.0000 1.0000
55.0000 301.0000 1.0000
55.0100 323.0000 1.0000
55.0200 355.0000 1.0000
55.0300 380.0000 1.0000
55.0400 345.0000 1.0000
55.0500 340.0000 1.0000
55.0600 348.0000 1.0000
55.0700 344.0000 1.0000
55.0800 360.0000 1.0000
55.0900 331.0000 1.0000
55.1000 352.0000 1.0000
55.1100 345.0000 1.0000
55.1200 322.0000 1.0000
55.1300 367.0000 1.0000
55.1400 371.0000 1.0000
55.1500 351.0000 1.0000
55.1600 381.0000 1.0000
55.1700 370.0000 1.0000
55.1800 387.0000 1.0000
55.1900 389.0000 1.0000
55.2000 413.0000 1.0000
55.2100 422.0000 1.0000
55.2200 405.0000 1.0000
55.2300 413.0000 1.0000
55.2400 455.0000 1.0000
55.2500 441.0000 1.0000
55.2600 464.0000 1.0000
55.2700 429.0000 1.0000
55.2800 460.0000 1.0000
55.2900 442.0000 1.0000
55.3000 456.0000 1.0000
55.3100 457.0000 1.0000
55.3200 428.0000 1.0000
55.3300 434.0000 1.0000
55.3400 469.0000 1.0000
55.3500 433.0000 1.0000
55.3600 444.0000 1.0000
55.3700 468.0000 1.0000
55.3800 472.0000 1.0000
55.3900 448.0000 1.0000
55.4000 416.0000 1.0000
55.4100 456.0000 1.0000
55.4200 414.0000 1.0000
55.4300 405.0000 1.0000
55.4400 429.0000 1.0000
55.4500 434.0000 1.0000
55.4600 400.0000 1.0000
55.4700 380.0000 1.0000
55.4800 376.0000 1.0000
55.4900 350.0000 1.0000
55.5000 394.0000 1.0000
55.5100 352.0000 1.0000
55.5200 371.0000 1.0000
55.5300 419.0000 1.0000
55.5400 364.0000 1.0000
55.5500 355.0000 1.0000
55.5600 366.0000 1.0000
55.5700 336.0000 1.0000
55.5800 358.0000 1.0000
55.5900 336.0000 1.0000
55.6000 316.0000 1.0000
55.6100 338.0000 1.0000
55.6200 346.0000 1.0000
55.6300 367.0000 1.0000
55.6400 340.0000 1.0000
55.6500 295.0000 1.0000
55.6600 339.0000 1.0000
55.6700 328.0000 1.0000
55.6800 355.0000 1.0000
55.6900 361.0000 1.0000
55.7000 334.0000 1.0000
55.7100 306.0000 1.0000
55.7200 306.0000 1.0000
55.7300 340.0000 1.0000
55.7400 289.0000 1.0000
55.7500 277.0000 1.0000
55.7600 288.0000 1.0000
55.7700 280.0000 1.0000
55.7800 314.0000 1.0000
55.7900 318.0000 1.0000
55.8000 324.0000 1.0000
55.8100 294.0000 1.0000
55.8200 302.0000 1.0000
55.8300 322.0000 1.0000
55.8400 300.0000 1.0000
55.8500 322.0000 1.0000
55.8600 328.0000 1.0000
55.8700 333.0000 1.0000
55.8800 347.0000 1.0000
55.8900 321.0000 1.0000
55.9000 291.0000 1.0000
55.9100 321.0000 1.0000
55.9200 313.0000 1.0000
55.9300 326.0000 1.0000
55.9400 303.0000 1.0000
55.9500 287.0000 1.0000
55.9600 318.0000 1.0000
55.9700 279.0000 1.0000
55.9800 309.0000 1.0000
55.9900 292.0000 1.0000
56.0000 298.0000 1.0000
56.0100 313.0000 1.0000
56.0200 294.0000 1.0000
56.0300 305.0000 1.0000
56.0400 300.0000 1.0000
56.0500 313.0000 1.0000
56.0600 293.0000 1.0000
56.0700 276.0000 1.0000
56.0800 296.0000 1.0000
56.0900 274.0000 1.0000
56.1000 279.0000 1.0000
56.1100 261.0000 1.0000
56.1200 300.0000 1.0000
56.1300 301.0000 1.0000
56.1400 296.0000 1.0000
56.1500 296.0000 1.0000
56.1600 295.0000 1.0000
56.1700 295.0000 1.0000
56.1800 298.0000 1.0000
56.1900 279.0000 1.0000
56.2000 292.0000 1.0000
56.2100 272.0000 1.0000
56.2200 307.0000 1.0000
56.2300 308.0000 1.0000
56.2400 323.0000 1.0000
56.2500 285.0000 1.0000
56.2600 291.0000 1.0000
56.2700 301.0000 1.0000
56.2800 314.0000 1.0000
56.2900 269.0000 1.0000
56.3000 298.0000 1.0000
56.3100 281.0000 1.0000
56.3200 278.0000 1.0000
56.3300 283.0000 1.0000
56.3400 311.0000 1.0000
56.3500 310.0000 1.0000
56.3600 296.0000 1.0000
56.3700 294.0000 1.0000
56.3800 265.0000 1.0000
56.3900 327.0000 1.0000
56.4000 307.0000 1.0000
56.4100 303.0000 1.0000
56.4200 298.0000 1.0000
56.4300 291.0000 1.0000
56.4400 308.0000 1.0000
56.4500 321.0000 1.0000
56.4600 288.0000 1.0000
56.4700 314.0000 1.0000
56.4800 279.0000 1.0000
56.4900 271.0000 1.0000
56.5000 280.0000 1.0000
56.5100 317.0000 1.0000
56.5200 281.0000 1.0000
56.5300 298.0000 1.0000
56.5400 288.0000 1.0000
56.5500 293.0000 1.0000
56.5600 306.0000 1.0000
56.5700 262.0000 1.0000
56.5800 285.0000 1.0000
56.5900 312.0000 1.0000
56.6000 296.0000 1.0000
56.6100 295.0000 1.0000
56.6200 285.0000 1.0000
56.6300 299.0000 1.0000
56.6400 280.0000 1.0000
56.6500 294.0000 1.0000
56.6600 298.0000 1.0000
56.6700 276.0000 1.0000
56.6800 303.0000 1.0000
56.6900 292.0000 1.0000
56.7000 313.0000 1.0000
56.7100 318.0000 1.0000
56.7200 291.0000 1.0000
56.7300 298.0000 1.0000
56.7400 322.0000 1.0000
56.7500 308.0000 1.0000
56.7600 314.0000 1.0000
56.7700 293.0000 1.0000
56.7800 292.0000 1.0000
56.7900 290.0000 1.0000
56.8000 295.0000 1.0000
56.8100 308.0000 1.0000
56.8200 291.0000 1.0000
56.8300 303.0000 1.0000
56.8400 299.0000 1.0000
56.8500 246.0000 1.0000
56.8600 277.0000 1.0000
56.8700 306.0000 1.0000
56.8800 276.0000 1.0000
56.8900 258.0000 1.0000
56.9000 269.0000 1.0000
56.9100 281.0000 1.0000
56.9200 285.0000 1.0000
56.9300 295.0000 1.0000
56.9400 303.0000 1.0000
56.9500 302.0000 1.0000
56.9600 284.0000 1.0000
56.9700 302.0000 1.0000
56.9800 296.0000 1.0000
56.9900 283.0000 1.0000
57.0000 300.0000 1.0000
57.0100 278.0000 1.0000
57.0200 311.0000 1.0000
57.0300 267.0000 1.0000
57.0400 302.0000 1.0000
57.0500 305.0000 1.0000
57.0600 284.0000 1.0000
57.0700 313.0000 1.0000
57.0800 291.0000 1.0000
57.0900 312.0000 1.0000
57.1000 277.0000 1.0000
57.1100 272.0000 1.0000
57.1200 317.0000 1.0000
57.1300 282.0000 1.0000
57.1400 282.0000 1.0000
57.1500 283.0000 1.0000
57.1600 269.0000 1.0000
57.1700 296.0000 1.0000
57.1800 278.0000 1.0000
57.1900 273.0000 1.0000
57.2000 298.0000 1.0000
57.2100 279.0000 1.0000
57.2200 287.0000 1.0000
57.2300 304.0000 1.0000
57.2400 309.0000 1.0000
57.2500 282.0000 1.0000
57.2600 294.0000 1.0000
57.2700 306.0000 1.0000
57.2800 280.0000 1.0000
57.2900 281.0000 1.0000
57.3000 297.0000 1.0000
57.3100 312.0000 1.0000
57.3200 292.0000 1.0000
57.3300 265.0000 1.0000
57.3400 317.0000 1.0000
57.3500 315.0000 1.0000
57.3600 310.0000 1.0000
57.3700 314.0000 1.0000
57.3800 278.0000 1.0000
57.3900 279.0000 1.0000
57.4000 296.0000 1.0000
57.4100 264.0000 1.0000
57.4200 290.0000 1.0000
57.4300 291.0000 1.0000
57.4400 288.0000 1.0000
57.4500 249.0000 1.0000
57.4600 273.0000 1.0000
57.4700 299.0000 1.0000
57.4800 279.0000 1.0000
57.4900 289.0000 1.0000
57.5000 272.0000 1.0000
57.5100 275.0000 1.0000
57.5200 294.0000 1.0000
57.5300 273.0000 1.0000
57.5400 279.0000 1.0000
57.5500 272.0000 1.0000
57.5600 296.0000 1.0000
57.5700 303.0000 1.0000
57.5800 298.0000 1.0000
57.5900 316.0000 1.0000
57.6000 300.0000 1.0000
57.6100 295.0000 1.0000
57.6200 281.0000 1.0000
57.6300 295.0000 1.0000
57.6400 311.0000 1.0000
57.6500 295.0000 1.0000
57.6600 298.0000 1.0000
57.6700 278.0000 1.0000
57.6800 274.0000 1.0000
57.6900 284.0000 1.0000
57.7000 290.0000 1.0000
57.7100 291.0000 1.0000
57.7200 276.0000 1.0000
57.7300 303.0000 1.0000
57.7400 262.0000 1.0000
57.7500 289.0000 1.0000
57.7600 321.0000 1.0000
57.7700 276.0000 1.0000
57.7800 285.0000 1.0000
57.7900 257.0000 1.0000
57.8000 277.0000 1.0000
57.8100 295.0000 1.0000
57.8200 261.0000 1.0000
57.8300 286.0000 1.0000
57.8400 294.0000 1.0000
57.8500 276.0000 1.0000
57.8600 298.0000 1.0000
57.8700 296.0000 1.0000
57.8800 275.0000 1.0000
57.8900 294.0000 1.0000
57.9000 274.0000 1.0000
57.9100 290.0000 1.0000
57.9200 282.0000 1.0000
57.9300 311.0000 1.0000
57.9400 302.0000 1.0000
57.9500 295.0000 1.0000
57.9600 291.0000 1.0000
57.9700 305.0000 1.0000
57.9800 288.0000 1.0000
57.9900 281.0000 1.0000
58.0000 260.0000 1.0000
58.0100 292.0000 1.0000
58.0200 278.0000 1.0000
58.0300 281.0000 1.0000
58.0400 295.0000 1.0000
58.0500 278.0000 1.0000
58.0600 262.0000 1.0000
58.0700 266.0000 1.0000
58.0800 286.0000 1.0000
58.0900 313.0000 1.0000
58.1000 293.0000 1.0000
58.1100 291.0000 1.0000
58.1200 312.0000 1.0000
58.1300 297.0000 1.0000
58.1400 292.0000 1.0000
58.1500 308.0000 1.0000
58.1600 294.0000 1.0000
58.1700 314.0000 1.0000
58.1800 281.0000 1.0000
58.1900 313.0000 1.0000
58.2000 305.0000 1.0000
58.2100 323.0000 1.0000
58.2200 300.0000 1.0000
58.2300 298.0000 1.0000
58.2400 279.0000 1.0000
58.2500 290.0000 1.0000
58.2600 290.0000 1.0000
58.2700 301.0000 1.0000
58.2800 281.0000 1.0000
58.2900 317.0000 1.0000
58.3000 263.0000 1.0000
58.3100 260.0000 1.0000
58.3200 290.0000 1.0000
58.3300 292.0000 1.0000
58.3400 292.0000 1.0000
58.3500 312.0000 1.0000
58.3600 284.0000 1.0000
58.3700 269.0000 1.0000
58.3800 309.0000 1.0000
58.3900 326.0000 1.0000
58.4000 273.0000 1.0000
58.4100 271.0000 1.0000
58.4200 325.0000 1.0000
58.4300 295.0000 1.0000
58.4400 293.0000 1.0000
58.4500 272.0000 1.0000
58.4600 299.0000 1.0000
58.4700 304.0000 1.0000
58.4800 285.0000 1.0000
58.4900 308.0000 1.0000
58.5000 265.0000 1.0000
58.5100 281.0000 1.0000
58.5200 280.0000 1.0000
58.5300 270.0000 1.0000
58.5400 301.0000 1.0000
58.5500 278.0000 1.0000
58.5600 284.0000 1.0000
58.5700 287.0000 1.0000
58.5800 265.0000 1.0000
58.5900 303.0000 1.0000
58.6000 310.0000 1.0000
58.6100 290.0000 1.0000
58.6200 280.0000 1.0000
58.6300 303.0000 1.0000
58.6400 291.0000 1.0000
58.6500 308.0000 1.0000
58.6600 295.0000 1.0000
58.6700 276.0000 1.0000
58.6800 288.0000 1.0000
58.6900 289.0000 1.0000
58.7000 322.0000 1.0000
58.7100 283.0000 1.0000
58.7200 287.0000 1.0000
58.7300 289.0000 1.0000
58.7400 301.0000 1.0000
58.7500 308.0000 1.0000
58.7600 301.0000 1.0000
58.7700 288.0000 1.0000
58.7800 291.0000 1.0000
58.7900 272.0000 1.0000
58.8000 291.0000 1.0000
58.8100 282.0000 1.0000
58.8200 281.0000 1.0000
58.8300 295.0000 1.0000
58.8400 256.0000 1.0000
58.8500 276.0000 1.0000
58.8600 299.0000 1.0000
58.8700 285.0000 1.0000
58.8800 291.0000 1.0000
58.8900 302.0000 1.0000
58.9000 265.0000 1.0000
58.9100 269.0000 1.0000
58.9200 292.0000 1.0000
58.9300 262.0000 1.0000
58.9400 265.0000 1.0000
58.9500 291.0000 1.0000
58.9600 305.0000 1.0000
58.9700 293.0000 1.0000
58.9800 285.0000 1.0000
58.9900 299.0000 1.0000
59.0000 318.0000 1.0000
59.0100 307.0000 1.0000
59.0200 308.0000 1.0000
59.0300 289.0000 1.0000
59.0400 293.0000 1.0000
59.0500 280.0000 1.0000
59.0600 292.0000 1.0000
59.0700 315.0000 1.0000
59.0800 277.0000 1.0000
59.0900 292.0000 1.0000
59.1000 317.0000 1.0000
59.1100 292.0000 1.0000
59.1200 295.0000 1.0000
59.1300 317.0000 1.0000
59.1400 295.0000 1.0000
59.1500 263.0000 1.0000
59.1600 271.0000 1.0000
59.1700 281.0000 1.0000
59.1800 311.0000 1.0000
59.1900 305.0000 1.0000
59.2000 301.0000 1.0000
59.2100 292.0000 1.0000
59.2200 281.0000 1.0000
59.2300 282.0000 1.0000
59.2400 297.0000 1.0000
59.2500 286.0000 1.0000
59.2600 278.0000 1.0000
59.2700 323.0000 1.0000
59.2800 304.0000 1.0000
59.2900 309.0000 1.0000
59.3000 333.0000 1.0000
59.3100 300.0000 1.0000
59.3200 300.0000 1.0000
59.3300 316.0000 1.0000
59.3400 320.0000 1.0000
59.3500 318.0000 1.0000
59.3600 323.0000 1.0000
59.3700 327.0000 1.0000
59.3800 305.0000 1.0000
59.3900 296.0000 1.0000
59.4000 318.0000 1.0000
59.4100 287.0000 1.0000
59.4200 281.0000 1.0000
59.4300 313.0000 1.0000
59.4400 290.0000 1.0000
59.4500 278.0000 1.0000
59.4600 276.0000 1.0000
59.4700 283.0000 1.0000
59.4800 286.0000 1.0000
59.4900 303.0000 1.0000
59.5000 285.0000 1.0000
59.5100 298.0000 1.0000
59.5200 294.0000 1.0000
59.5300 271.0000 1.0000
59.5400 269.0000 1.0000
59.5500 279.0000 1.0000
59.5600 297.0000 1.0000
59.5700 310.0000 1.0000
59.5800 296.0000 1.0000
59.5900 283.0000 1.0000
59.6000 297.0000 1.0000
59.6100 278.0000 1.0000
59.6200 294.0000 1.0000
59.6300 282.0000 1.0000
59.6400 282.0000 1.0000
59.6500 273.0000 1.0000
59.6600 300.0000 1.0000
59.6700 278.0000 1.0000
59.6800 283.0000 1.0000
59.6900 289.0000 1.0000
59.7000 306.0000 1.0000
59.7100 295.0000 1.0000
59.7200 292.0000 1.0000
59.7300 272.0000 1.0000
59.7400 282.0000 1.0000
59.7500 286.0000 1.0000
59.7600 280.0000 1.0000
59.7700 263.0000 1.0000
59.7800 296.0000 1.0000
59.7900 311.0000 1.0000
59.8000 296.0000 1.0000
59.8100 284.0000 1.0000
59.8200 283.0000 1.0000
59.8300 263.0000 1.0000
59.8400 288.0000 1.0000
59.8500 274.0000 1.0000
59.8600 286.0000 1.0000
59.8700 292.0000 1.0000
59.8800 298.0000 1.0000
59.8900 295.0000 1.0000
59.9000 285.0000 1.0000
59.9100 284.0000 1.0000
59.9200 297.0000 1.0000
59.9300 270.0000 1.0000
59.9400 290.0000 1.0000
59.9500 286.0000 1.0000
59.9600 275.0000 1.0000
59.9700 297.0000 1.0000
59.9800 302.0000 1.0000
59.9900 289.0000 1.0000
60.0000 286.0000 1.0000
60.0100 260.0000 1.0000
60.0200 312.0000 1.0000
60.0300 287.0000 1.0000
60.0400 253.0000 1.0000
60.0500 245.0000 1.0000
60.0600 264.0000 1.0000
60.0700 294.0000 1.0000
60.0800 302.0000 1.0000
60.0900 274.0000 1.0000
60.1000 308.0000 1.0000
60.1100 279.0000 1.0000
60.1200 282.0000 1.0000
60.1300 298.0000 1.0000
60.1400 263.0000 1.0000
60.1500 292.0000 1.0000
60.1600 286.0000 1.0000
60.1700 284.0000 1.0000
60.1800 291.0000 1.0000
60.1900 308.0000 1.0000
60.2000 280.0000 1.0000
60.2100 303.0000 1.0000
60.2200 340.0000 1.0000
60.2300 304.0000 1.0000
60.2400 274.0000 1.0000
60.2500 312.0000 1.0000
60.2600 276.0000 1.0000
60.2700 308.0000 1.0000
60.2800 258.0000 1.0000
60.2900 290.0000 1.0000
60.3000 268.0000 1.0000
60.3100 296.0000 1.0000
60.3200 283.0000 1.0000
60.3300 283.0000 1.0000
60.3400 284.0000 1.0000
60.3500 270.0000 1.0000
60.3600 299.0000 1.0000
60.3700 286.0000 1.0000
60.3800 270.0000 1.0000
60.3900 269.0000 1.0000
60.4000 300.0000 1.0000
60.4100 280.0000 1.0000
60.4200 274.0000 1.0000
60.4300 265.0000 1.0000
60.4400 273.0000 1.0000
60.4500 296.0000 1.0000
60.4600 273.0000 1.0000
60.4700 271.0000 1.0000
60.4800 315.0000 1.0000
60.4900 319.0000 1.0000
60.5000 311.0000 1.0000
60.5100 303.0000 1.0000
60.5200 280.0000 1.0000
60.5300 280.0000 1.0000
60.5400 287.0000 1.0000
60.5500 285.0000 1.0000
60.5600 311.0000 1.0000
60.5700 291.0000 1.0000
60.5800 261.0000 1.0000
60.5900 256.0000 1.0000
60.6000 286.0000 1.0000
60.6100 278.0000 1.0000
60.6200 287.0000 1.0000
60.6300 287.0000 1.0000
60.6400 284.0000 1.0000
60.6500 280.0000 1.0000
60.6600 283.0000 1.0000
60.6700 293.0000 1.0000
60.6800 290.0000 1.0000
60.6900 300.0000 1.0000
60.7000 276.0000 1.0000
60.7100 276.0000 1.0000
60.7200 271.0000 1.0000
60.7300 263.0000 1.0000
60.7400 311.0000 1.0000
60.7500 272.0000 1.0000
60.7600 293.0000 1.0000
60.7700 301.0000 1.0000
60.7800 282.0000 1.0000
60.7900 263.0000 1.0000
60.8000 271.0000 1.0000
60.8100 298.0000 1.0000
60.8200 278.0000 1.0000
60.8300 273.0000 1.0000
60.8400 258.0000 1.0000
60.8500 292.0000 1.0000
60.8600 279.0000 1.0000
60.8700 298.0000 1.0000
60.8800 274.0000 1.0000
60.8900 292.0000 1.0000
60.9000 276.0000 1.0000
60.9100 238.0000 1.0000
60.9200 282.0000 1.0000
60.9300 276.0000 1.0000
60.9400 305.0000 1.0000
60.9500 295.0000 1.0000
60.9600 274.0000 1.0000
60.9700 277.0000 1.0000
60.9800 289.0000 1.0000
60.9900 312.0000 1.0000
61.0000 287.0000 1.0000
61.0100 286.0000 1.0000
61.0200 295.0000 1.0000
61.0300 273.0000 1.0000
61.0400 293.0000 1.0000
61.0500 269.0000 1.0000
61.0600 289.0000 1.0000
61.0700 252.0000 1.0000
61.0800 284.0000 1.0000
61.0900 303.0000 1.0000
61.1000 297.0000 1.0000
61.1100 303.0000 1.0000
61.1200 301.0000 1.0000
61.1300 284.0000 1.0000
61.1400 278.0000 1.0000
61.1500 298.0000 1.0000
61.1600 276.0000 1.0000
61.1700 272.0000 1.0000
61.1800 287.0000 1.0000
61.1900 278.0000 1.0000
61.2000 268.0000 1.0000
61.2100 287.0000 1.0000
61.2200 294.0000 1.0000
61.2300 283.0000 1.0000
61.2400 278.0000 1.0000
61.2500 250.0000 1.0000
61.2600 302.0000 1.0000
61.2700 283.0000 1.0000
61.2800 274.0000 1.0000
61.2900 287.0000 1.0000
61.3000 288.0000 1.0000
61.3100 305.0000 1.0000
61.3200 312.0000 1.0000
61.3300 308.0000 1.0000
61.3400 283.0000 1.0000
61.3500 292.0000 1.0000
61.3600 310.0000 1.0000
61.3700 301.0000 1.0000
61.3800 315.0000 1.0000
61.3900 315.0000 1.0000
61.4000 307.0000 1.0000
61.4100 278.0000 1.0000
61.4200 276.0000 1.0000
61.4300 318.0000 1.0000
61.4400 312.0000 1.0000
61.4500 305.0000 1.0000
61.4600 296.0000 1.0000
61.4700 292.0000 1.0000
61.4800 283.0000 1.0000
61.4900 282.0000 1.0000
61.5000 281.0000 1.0000
61.5100 274.0000 1.0000
61.5200 299.0000 1.0000
61.5300 287.0000 1.0000
61.5400 288.0000 1.0000
61.5500 284.0000 1.0000
61.5600 292.0000 1.0000
61.5700 291.0000 1.0000
61.5800 287.0000 1.0000
61.5900 276.0000 1.0000
61.6000 295.0000 1.0000
61.6100 274.0000 1.0000
61.6200 285.0000 1.0000
61.6300 293.0000 1.0000
61.6400 277.0000 1.0000
61.6500 306.0000 1.0000
61.6600 285.0000 1.0000
61.6700 304.0000 1.0000
61.6800 331.0000 1.0000
61.6900 318.0000 1.0000
61.7000 304.0000 1.0000
61.7100 302.0000 1.0000
61.7200 296.0000 1.0000
61.7300 289.0000 1.0000
61.7400 306.0000 1.0000
61.7500 294.0000 1.0000
61.7600 282.0000 1.0000
61.7700 299.0000 1.0000
61.7800 287.0000 1.0000
61.7900 338.0000 1.0000
61.8000 284.0000 1.0000
61.8100 301.0000 1.0000
61.8200 288.0000 1.0000
61.8300 303.0000 1.0000
61.8400 327.0000 1.0000
61.8500 307.0000 1.0000
61.8600 298.0000 1.0000
61.8700 292.0000 1.0000
61.8800 317.0000 1.0000
61.8900 301.0000 1.0000
61.9000 321.0000 1.0000
61.9100 311.0000 1.0000
61.9200 316.0000 1.0000
61.9300 340.0000 1.0000
61.9400 329.0000 1.0000
61.9500 320.0000 1.0000
61.9600 340.0000 1.0000
61.9700 318.0000 1.0000
61.9800 342.0000 1.0000
61.9900 373.0000 1.0000
62.0000 353.0000 1.0000
62.0100 366.0000 1.0000
62.0200 355.0000 1.0000
62.0300 379.0000 1.0000
62.0400 383.0000 1.0000
62.0500 398.0000 1.0000
62.0600 402.0000 1.0000
62.0700 411.0000 1.0000
62.0800 357.0000 1.0000
62.0900 403.0000 1.0000
62.1000 450.0000 1.0000
62.1100 469.0000 1.0000
62.1200 411.0000 1.0000
62.1300 426.0000 1.0000
62.1400 470.0000 1.0000
62.1500 454.0000 1.0000
62.1600 497.0000 1.0000
62.1700 494.0000 1.0000
62.1800 519.0000 1.0000
62.1900 530.0000 1.0000
62.2000 541.0000 1.0000
62.2100 562.0000 1.0000
62.2200 566.0000 1.0000
62.2300 580.0000 1.0000
62.2400 557.0000 1.0000
62.2500 583.0000 1.0000
62.2600 592.0000 1.0000
62.2700 584.0000 1.0000
62.2800 664.0000 1.0000
62.2900 597.0000 1.0000
62.3000 638.0000 1.0000
62.3100 667.0000 1.0000
62.3200 638.0000 1.0000
62.3300 619.0000 1.0000
62.3400 622.0000 1.0000
62.3500 638.0000 1.0000
62.3600 628.0000 1.0000
62.3700 614.0000 1.0000
62.3800 593.0000 1.0000
62.3900 587.0000 1.0000
62.4000 582.0000 1.0000
62.4100 630.0000 1.0000
62.4200 636.0000 1.0000
62.4300 602.0000 1.0000
62.4400 594.0000 1.0000
62.4500 582.0000 1.0000
62.4600 554.0000 1.0000
62.4700 538.0000 1.0000
62.4800 535.0000 1.0000
62.4900 539.0000 1.0000
62.5000 518.0000 1.0000
62.5100 522.0000 1.0000
62.5200 475.0000 1.0000
62.5300 493.0000 1.0000
62.5400 494.0000 1.0000
62.5500 527.0000 1.0000
62.5600 455.0000 1.0000
62.5700 455.0000 1.0000
62.5800 454.0000 1.0000
62.5900 429.0000 1.0000
62.6000 433.0000 1.0000
62.6100 398.0000 1.0000
62.6200 386.0000 1.0000
62.6300 416.0000 1.0000
62.6400 449.0000 1.0000
62.6500 355.0000 1.0000
62.6600 423.0000 1.0000
62.6700 407.0000 1.0000
62.6800 370.0000 1.0000
62.6900 385.0000 1.0000
62.7000 377.0000 1.0000
62.7100 363.0000 1.0000
62.7200 390.0000 1.0000
62.7300 366.0000 1.0000
62.7400 361.0000 1.0000
62.7500 359.0000 1.0000
62.7600 329.0000 1.0000
62.7700 338.0000 1.0000
62.7800 322.0000 1.0000
62.7900 332.0000 1.0000
62.8000 335.0000 1.0000
62.8100 319.0000 1.0000
62.8200 337.0000 1.0000
62.8300 328.0000 1.0000
62.8400 353.0000 1.0000
62.8500 346.0000 1.0000
62.8600 316.0000 1.0000
62.8700 302.0000 1.0000
62.8800 329.0000 1.0000
62.8900 314.0000 1.0000
62.9000 326.0000 1.0000
62.9100 320.0000 1.0000
62.9200 319.0000 1.0000
62.9300 301.0000 1.0000
62.9400 297.0000 1.0000
62.9500 314.0000 1.0000
62.9600 326.0000 1.0000
62.9700 313.0000 1.0000
62.9800 274.0000 1.0000
62.9900 312.0000 1.0000
63.0000 289.0000 1.0000
63.0100 302.0000 1.0000
63.0200 338.0000 1.0000
63.0300 346.0000 1.0000
63.0400 327.0000 1.0000
63.0500 336.0000 1.0000
63.0600 305.0000 1.0000
63.0700 305.0000 1.0000
63.0800 324.0000 1.0000
63.0900 319.0000 1.0000
63.1000 310.0000 1.0000
63.1100 353.0000 1.0000
63.1200 282.0000 1.0000
63.1300 319.0000 1.0000
63.1400 305.0000 1.0000
63.1500 317.0000 1.0000
63.1600 322.0000 1.0000
63.1700 329.0000 1.0000
63.1800 290.0000 1.0000
63.1900 324.0000 1.0000
63.2000 305.0000 1.0000
63.2100 343.0000 1.0000
63.2200 307.0000 1.0000
63.2300 310.0000 1.0000
63.2400 319.0000 1.0000
63.2500 297.0000 1.0000
63.2600 277.0000 1.0000
63.2700 302.0000 1.0000
63.2800 289.0000 1.0000
63.2900 301.0000 1.0000
63.3000 308.0000 1.0000
63.3100 329.0000 1.0000
63.3200 298.0000 1.0000
63.3300 312.0000 1.0000
63.3400 298.0000 1.0000
63.3500 303.0000 1.0000
63.3600 302.0000 1.0000
63.3700 276.0000 1.0000
63.3800 301.0000 1.0000
63.3900 307.0000 1.0000
63.4000 324.0000 1.0000
63.4100 291.0000 1.0000
63.4200 297.0000 1.0000
63.4300 309.0000 1.0000
63.4400 291.0000 1.0000
63.4500 310.0000 1.0000
63.4600 301.0000 1.0000
63.4700 298.0000 1.0000
63.4800 270.0000 1.0000
63.4900 285.0000 1.0000
63.5000 308.0000 1.0000
63.5100 308.0000 1.0000
63.5200 299.0000 1.0000
63.5300 288.0000 1.0000
63.5400 305.0000 1.0000
63.5500 293.0000 1.0000
63.5600 308.0000 1.0000
63.5700 293.0000 1.0000
63.5800 300.0000 1.0000
63.5900 298.0000 1.0000
63.6000 308.0000 1.0000
63.6100 284.0000 1.0000
63.6200 292.0000 1.0000
63.6300 278.0000 1.0000
63.6400 280.0000 1.0000
63.6500 295.0000 1.0000
63.6600 296.0000 1.0000
63.6700 282.0000 1.0000
63.6800 313.0000 1.0000
63.6900 293.0000 1.0000
63.7000 289.0000 1.0000
63.7100 311.0000 1.0000
63.7200 318.0000 1.0000
63.7300 280.0000 1.0000
63.7400 313.0000 1.0000
63.7500 311.0000 1.0000
63.7600 291.0000 1.0000
63.7700 303.0000 1.0000
63.7800 314.0000 1.0000
63.7900 308.0000 1.0000
63.8000 267.0000 1.0000
63.8100 267.0000 1.0000
63.8200 279.0000 1.0000
63.8300 288.0000 1.0000
63.8400 264.0000 1.0000
63.8500 296.0000 1.0000
63.8600 307.0000 1.0000
63.8700 311.0000 1.0000
63.8800 285.0000 1.0000
63.8900 307.0000 1.0000
63.9000 303.0000 1.0000
63.9100 283.0000 1.0000
63.9200 275.0000 1.0000
63.9300 282.0000 1.0000
63.9400 289.0000 1.0000
63.9500 310.0000 1.0000
63.9600 279.0000 1.0000
63.9700 299.0000 1.0000
63.9800 287.0000 1.0000
63.9900 278.0000 1.0000
64.0000 300.0000 1.0000
64.0100 302.0000 1.0000
64.0200 304.0000 1.0000
64.0300 311.0000 1.0000
64.0400 273.0000 1.0000
64.0500 293.0000 1.0000
64.0600 301.0000 1.0000
64.0700 289.0000 1.0000
64.0800 310.0000 1.0000
64.0900 305.0000 1.0000
64.1000 305.0000 1.0000
64.1100 325.0000 1.0000
64.1200 297.0000 1.0000
64.1300 306.0000 1.0000
64.1400 312.0000 1.0000
64.1500 303.0000 1.0000
64.1600 279.0000 1.0000
64.1700 291.0000 1.0000
64.1800 288.0000 1.0000
64.1900 284.0000 1.0000
64.2000 254.0000 1.0000
64.2100 281.0000 1.0000
64.2200 283.0000 1.0000
64.2300 317.0000 1.0000
64.2400 293.0000 1.0000
64.2500 272.0000 1.0000
64.2600 311.0000 1.0000
64.2700 291.0000 1.0000
64.2800 290.0000 1.0000
64.2900 316.0000 1.0000
64.3000 335.0000 1.0000
64.3100 315.0000 1.0000
64.3200 291.0000 1.0000
64.3300 301.0000 1.0000
64.3400 314.0000 1.0000
64.3500 293.0000 1.0000
64.3600 306.0000 1.0000
64.3700 271.0000 1.0000
64.3800 300.0000 1.0000
64.3900 324.0000 1.0000
64.4000 328.0000 1.0000
64.4100 322.0000 1.0000
64.4200 308.0000 1.0000
64.4300 353.0000 1.0000
64.4400 313.0000 1.0000
64.4500 301.0000 1.0000
64.4600 337.0000 1.0000
64.4700 333.0000 1.0000
64.4800 326.0000 1.0000
64.4900 316.0000 1.0000
64.5000 329.0000 1.0000
64.5100 323.0000 1.0000
64.5200 344.0000 1.0000
64.5300 316.0000 1.0000
64.5400 326.0000 1.0000
64.5500 352.0000 1.0000
64.5600 330.0000 1.0000
64.5700 332.0000 1.0000
64.5800 350.0000 1.0000
64.5900 325.0000 1.0000
64.6000 359.0000 1.0000
64.6100 327.0000 1.0000
64.6200 353.0000 1.0000
64.6300 336.0000 1.0000
64.6400 346.0000 1.0000
64.6500 354.0000 1.0000
64.6600 400.0000 1.0000
64.6700 369.0000 1.0000
64.6800 374.0000 1.0000
64.6900 384.0000 1.0000
64.7000 370.0000 1.0000
64.7100 369.0000 1.0000
64.7200 360.0000 1.0000
64.7300 356.0000 1.0000
64.7400 379.0000 1.0000
64.7500 351.0000 1.0000
64.7600 379.0000 1.0000
64.7700 392.0000 1.0000
64.7800 373.0000 1.0000
64.7900 385.0000 1.0000
64.8000 362.0000 1.0000
64.8100 379.0000 1.0000
64.8200 390.0000 1.0000
64.8300 357.0000 1.0000
64.8400 372.0000 1.0000
64.8500 365.0000 1.0000
64.8600 362.0000 1.0000
64.8700 379.0000 1.0000
64.8800 345.0000 1.0000
64.8900 365.0000 1.0000
64.9000 343.0000 1.0000
64.9100 340.0000 1.0000
64.9200 326.0000 1.0000
64.9300 334.0000 1.0000
64.9400 323.0000 1.0000
64.9500 356.0000 1.0000
64.9600 350.0000 1.0000
64.9700 331.0000 1.0000
64.9800 331.0000 1.0000
64.9900 343.0000 1.0000
65.0000 331.0000 1.0000
65.0100 304.0000 1.0000
65.0200 314.0000 1.0000
65.0300 338.0000 1.0000
65.0400 333.0000 1.0000
65.0500 321.0000 1.0000
65.0600 322.0000 1.0000
65.0700 320.0000 1.0000
65.0800 354.0000 1.0000
65.0900 356.0000 1.0000
65.1000 360.0000 1.0000
65.1100 334.0000 1.0000
65.1200 348.0000 1.0000
65.1300 318.0000 1.0000
65.1400 315.0000 1.0000
65.1500 338.0000 1.0000
65.1600 311.0000 1.0000
65.1700 329.0000 1.0000
65.1800 289.0000 1.0000
65.1900 296.0000 1.0000
65.2000 285.0000 1.0000
65.2100 320.0000 1.0000
65.2200 303.0000 1.0000
65.2300 298.0000 1.0000
65.2400 300.0000 1.0000
65.2500 302.0000 1.0000
65.2600 303.0000 1.0000
65.2700 331.0000 1.0000
65.2800 314.0000 1.0000
65.2900 330.0000 1.0000
65.3000 313.0000 1.0000
65.3100 290.0000 1.0000
65.3200 306.0000 1.0000
65.3300 301.0000 1.0000
65.3400 320.0000 1.0000
65.3500 311.0000 1.0000
65.3600 316.0000 1.0000
65.3700 310.0000 1.0000
65.3800 317.0000 1.0000
65.3900 319.0000 1.0000
65.4000 315.0000 1.0000
65.4100 305.0000 1.0000
65.4200 280.0000 1.0000
65.4300 281.0000 1.0000
65.4400 310.0000 1.0000
65.4500 308.0000 1.0000
65.4600 318.0000 1.0000
65.4700 293.0000 1.0000
65.4800 304.0000 1.0000
65.4900 302.0000 1.0000
65.5000 280.0000 1.0000
65.5100 268.0000 1.0000
65.5200 284.0000 1.0000
65.5300 316.0000 1.0000
65.5400 287.0000 1.0000
65.5500 304.0000 1.0000
65.5600 300.0000 1.0000
65.5700 307.0000 1.0000
65.5800 282.0000 1.0000
65.5900 280.0000 1.0000
65.6000 303.0000 1.0000
65.6100 317.0000 1.0000
65.6200 279.0000 1.0000
65.6300 311.0000 1.0000
65.6400 293.0000 1.0000
65.6500 312.0000 1.0000
65.6600 320.0000 1.0000
65.6700 302.0000 1.0000
65.6800 314.0000 1.0000
65.6900 295.0000 1.0000
65.7000 293.0000 1.0000
65.7100 322.0000 1.0000
65.7200 333.0000 1.0000
65.7300 333.0000 1.0000
65.7400 340.0000 1.0000
65.7500 320.0000 1.0000
65.7600 308.0000 1.0000
65.7700 340.0000 1.0000
65.7800 326.0000 1.0000
65.7900 335.0000 1.0000
65.8000 328.0000 1.0000
65.8100 341.0000 1.0000
65.8200 348.0000 1.0000
65.8300 372.0000 1.0000
65.8400 360.0000 1.0000
65.8500 316.0000 1.0000
65.8600 334.0000 1.0000
65.8700 366.0000 1.0000
65.8800 315.0000 1.0000
65.8900 357.0000 1.0000
65.9000 343.0000 1.0000
65.9100 368.0000 1.0000
65.9200 417.0000 1.0000
65.9300 366.0000 1.0000
65.9400 363.0000 1.0000
65.9500 371.0000 1.0000
65.9600 415.0000 1.0000
65.9700 391.0000 1.0000
65.9800 382.0000 1.0000
65.9900 393.0000 1.0000
66.0000 414.0000 1.0000
66.0100 425.0000 1.0000
66.0200 443.0000 1.0000
66.0300 445.0000 1.0000
66.0400 460.0000 1.0000
66.0500 462.0000 1.0000
66.0600 467.0000 1.0000
66.0700 494.0000 1.0000
66.0800 549.0000 1.0000
66.0900 541.0000 1.0000
66.1000 562.0000 1.0000
66.1100 598.0000 1.0000
66.1200 564.0000 1.0000
66.1300 659.0000 1.0000
66.1400 669.0000 1.0000
66.1500 707.0000 1.0000
66.1600 740.0000 1.0000
66.1700 831.0000 1.0000
66.1800 852.0000 1.0000
66.1900 928.0000 1.0000
66.2000 942.0000 1.0000
66.2100 987.0000 1.0000
66.2200 1026.0000 1.0000
66.2300 1070.0000 1.0000
66.2400 1131.0000 1.0000
66.2500 1126.0000 1.0000
66.2600 1163.0000 1.0000
66.2700 1124.0000 1.0000
66.2800 1155.0000 1.0000
66.2900 1163.0000 1.0000
66.3000 1163.0000 1.0000
66.3100 1120.0000 1.0000
66.3200 1154.0000 1.0000
66.3300 1180.0000 1.0000
66.3400 1113.0000 1.0000
66.3500 1110.0000 1.0000
66.3600 1025.0000 1.0000
66.3700 995.0000 1.0000
66.3800 1020.0000 1.0000
66.3900 1013.0000 1.0000
66.4000 1055.0000 1.0000
66.4100 989.0000 1.0000
66.4200 1001.0000 1.0000
66.4300 1011.0000 1.0000
66.4400 1014.0000 1.0000
66.4500 941.0000 1.0000
66.4600 935.0000 1.0000
66.4700 907.0000 1.0000
66.4800 878.0000 1.0000
66.4900 813.0000 1.0000
66.5000 793.0000 1.0000
66.5100 813.0000 1.0000
66.5200 774.0000 1.0000
66.5300 763.0000 1.0000
66.5400 720.0000 1.0000
66.5500 661.0000 1.0000
66.5600 645.0000 1.0000
66.5700 624.0000 1.0000
66.5800 588.0000 1.0000
66.5900 558.0000 1.0000
66.6000 531.0000 1.0000
66.6100 518.0000 1.0000
66.6200 494.0000 1.0000
66.6300 458.0000 1.0000
66.6400 495.0000 1.0000
66.6500 439.0000 1.0000
66.6600 460.0000 1.0000
66.6700 474.0000 1.0000
66.6800 416.0000 1.0000
66.6900 442.0000 1.0000
66.7000 429.0000 1.0000
66.7100 414.0000 1.0000
66.7200 439.0000 1.0000
66.7300 366.0000 1.0000
66.7400 359.0000 1.0000
66.7500 380.0000 1.0000
66.7600 364.0000 1.0000
66.7700 358.0000 1.0000
66.7800 343.0000 1.0000
66.7900 362.0000 1.0000
66.8000 346.0000 1.0000
66.8100 351.0000 1.0000
66.8200 347.0000 1.0000
66.8300 333.0000 1.0000
66.8400 320.0000 1.0000
66.8500 336.0000 1.0000
66.8600 310.0000 1.0000
66.8700 307.0000 1.0000
66.8800 289.0000 1.0000
66.8900 314.0000 1.0000
66.9000 318.0000 1.0000
66.9100 337.0000 1.0000
66.9200 332.0000 1.0000
66.9300 328.0000 1.0000
66.9400 350.0000 1.0000
66.9500 313.0000 1.0000
66.9600 289.0000 1.0000
66.9700 315.0000 1.0000
66.9800 311.0000 1.0000
66.9900 283.0000 1.0000
67.0000 302.0000 1.0000
67.0100 309.0000 1.0000
67.0200 279.0000 1.0000
67.0300 308.0000 1.0000
67.0400 267.0000 1.0000
67.0500 311.0000 1.0000
67.0600 306.0000 1.0000
67.0700 273.0000 1.0000
67.0800 284.0000 1.0000
67.0900 294.0000 1.0000
67.1000 308.0000 1.0000
67.1100 290.0000 1.0000
67.1200 291.0000 1.0000
67.1300 287.0000 1.0000
67.1400 268.0000 1.0000
67.1500 290.0000 1.0000
67.1600 238.0000 1.0000
67.1700 274.0000 1.0000
67.1800 289.0000 1.0000
67.1900 278.0000 1.0000
67.2000 281.0000 1.0000
67.2100 273.0000 1.0000
67.2200 254.0000 1.0000
67.2300 291.0000 1.0000
67.2400 279.0000 1.0000
67.2500 271.0000 1.0000
67.2600 297.0000 1.0000
67.2700 290.0000 1.0000
67.2800 286.0000 1.0000
67.2900 276.0000 1.0000
67.3000 284.0000 1.0000
67.3100 283.0000 1.0000
67.3200 308.0000 1.0000
67.3300 274.0000 1.0000
67.3400 291.0000 1.0000
67.3500 275.0000 1.0000
67.3600 287.0000 1.0000
67.3700 274.0000 1.0000
67.3800 251.0000 1.0000
67.3900 261.0000 1.0000
67.4000 276.0000 1.0000
67.4100 257.0000 1.0000
67.4200 263.0000 1.0000
67.4300 266.0000 1.0000
67.4400 262.0000 1.0000
67.4500 252.0000 1.0000
67.4600 270.0000 1.0000
67.4700 273.0000 1.0000
67.4800 278.0000 1.0000
67.4900 275.0000 1.0000
67.5000 258.0000 1.0000
67.5100 270.0000 1.0000
67.5200 285.0000 1.0000
67.5300 264.0000 1.0000
67.5400 280.0000 1.0000
67.5500 279.0000 1.0000
67.5600 258.0000 1.0000
67.5700 275.0000 1.0000
67.5800 273.0000 1.0000
67.5900 294.0000 1.0000
67.6000 267.0000 1.0000
67.6100 299.0000 1.0000
67.6200 293.0000 1.0000
67.6300 268.0000 1.0000
67.6400 230.0000 1.0000
67.6500 261.0000 1.0000
67.6600 264.0000 1.0000
67.6700 263.0000 1.0000
67.6800 292.0000 1.0000
67.6900 252.0000 1.0000
67.7000 257.0000 1.0000
67.7100 284.0000 1.0000
67.7200 263.0000 1.0000
67.7300 253.0000 1.0000
67.7400 252.0000 1.0000
67.7500 282.0000 1.0000
67.7600 270.0000 1.0000
67.7700 276.0000 1.0000
67.7800 269.0000 1.0000
67.7900 258.0000 1.0000
67.8000 272.0000 1.0000
67.8100 271.0000 1.0000
67.8200 280.0000 1.0000
67.8300 290.0000 1.0000
67.8400 245.0000 1.0000
67.8500 259.0000 1.0000
67.8600 281.0000 1.0000
67.8700 274.0000 1.0000
67.8800 248.0000 1.0000
67.8900 263.0000 1.0000
67.9000 258.0000 1.0000
67.9100 272.0000 1.0000
67.9200 239.0000 1.0000
67.9300 257.0000 1.0000
67.9400 273.0000 1.0000
67.9500 275.0000 1.0000
67.9600 287.0000 1.0000
67.9700 268.0000 1.0000
67.9800 280.0000 1.0000
67.9900 255.0000 1.0000
68.0000 280.0000 1.0000
68.0100 266.0000 1.0000
68.0200 282.0000 1.0000
68.0300 281.0000 1.0000
68.0400 262.0000 1.0000
68.0500 250.0000 1.0000
68.0600 259.0000 1.0000
68.0700 250.0000 1.0000
68.0800 271.0000 1.0000
68.0900 284.0000 1.0000
68.1000 266.0000 1.0000
68.1100 288.0000 1.0000
68.1200 299.0000 1.0000
68.1300 258.0000 1.0000
68.1400 277.0000 1.0000
68.1500 278.0000 1.0000
68.1600 269.0000 1.0000
68.1700 271.0000 1.0000
68.1800 265.0000 1.0000
68.1900 284.0000 1.0000
68.2000 250.0000 1.0000
68.2100 240.0000 1.0000
68.2200 252.0000 1.0000
68.2300 280.0000 1.0000
68.2400 269.0000 1.0000
68.2500 253.0000 1.0000
68.2600 247.0000 1.0000
68.2700 267.0000 1.0000
68.2800 276.0000 1.0000
68.2900 255.0000 1.0000
68.3000 275.0000 1.0000
68.3100 255.0000 1.0000
68.3200 250.0000 1.0000
68.3300 291.0000 1.0000
68.3400 277.0000 1.0000
68.3500 277.0000 1.0000
68.3600 262.0000 1.0000
68.3700 256.0000 1.0000
68.3800 235.0000 1.0000
68.3900 277.0000 1.0000
68.4000 249.0000 1.0000
68.4100 253.0000 1.0000
68.4200 277.0000 1.0000
68.4300 271.0000 1.0000
68.4400 277.0000 1.0000
68.4500 264.0000 1.0000
68.4600 268.0000 1.0000
68.4700 267.0000 1.0000
68.4800 280.0000 1.0000
68.4900 280.0000 1.0000
68.5000 296.0000 1.0000
68.5100 277.0000 1.0000
68.5200 277.0000 1.0000
68.5300 273.0000 1.0000
68.5400 275.0000 1.0000
68.5500 258.0000 1.0000
68.5600 285.0000 1.0000
68.5700 265.0000 1.0000
68.5800 262.0000 1.0000
68.5900 277.0000 1.0000
68.6000 254.0000 1.0000
68.6100 263.0000 1.0000
68.6200 236.0000 1.0000
68.6300 263.0000 1.0000
68.6400 282.0000 1.0000
68.6500 269.0000 1.0000
68.6600 246.0000 1.0000
68.6700 264.0000 1.0000
68.6800 264.0000 1.0000
68.6900 266.0000 1.0000
68.7000 263.0000 1.0000
68.7100 258.0000 1.0000
68.7200 253.0000 1.0000
68.7300 271.0000 1.0000
68.7400 265.0000 1.0000
68.7500 258.0000 1.0000
68.7600 259.0000 1.0000
68.7700 251.0000 1.0000
68.7800 254.0000 1.0000
68.7900 279.0000 1.0000
68.8000 265.0000 1.0000
68.8100 247.0000 1.0000
68.8200 258.0000 1.0000
68.8300 254.0000 1.0000
68.8400 288.0000 1.0000
68.8500 241.0000 1.0000
68.8600 277.0000 1.0000
68.8700 283.0000 1.0000
68.8800 253.0000 1.0000
68.8900 267.0000 1.0000
68.9000 283.0000 1.0000
68.9100 253.0000 1.0000
68.9200 241.0000 1.0000
68.9300 248.0000 1.0000
68.9400 274.0000 1.0000
68.9500 279.0000 1.0000
68.9600 229.0000 1.0000
68.9700 247.0000 1.0000
68.9800 255.0000 1.0000
68.9900 259.0000 1.0000
69.0000 264.0000 1.0000
69.0100 269.0000 1.0000
69.0200 256.0000 1.0000
69.0300 252.0000 1.0000
69.0400 264.0000 1.0000
69.0500 287.0000 1.0000
69.0600 274.0000 1.0000
69.0700 259.0000 1.0000
69.0800 256.0000 1.0000
69.0900 217.0000 1.0000
69.1000 236.0000 1.0000
69.1100 256.0000 1.0000
69.1200 257.0000 1.0000
69.1300 257.0000 1.0000
69.1400 262.0000 1.0000
69.1500 247.0000 1.0000
69.1600 234.0000 1.0000
69.1700 250.0000 1.0000
69.1800 275.0000 1.0000
69.1900 267.0000 1.0000
69.2000 259.0000 1.0000
69.2100 270.0000 1.0000
69.2200 274.0000 1.0000
69.2300 272.0000 1.0000
69.2400 251.0000 1.0000
69.2500 235.0000 1.0000
69.2600 247.0000 1.0000
69.2700 249.0000 1.0000
69.2800 241.0000 1.0000
69.2900 240.0000 1.0000
69.3000 255.0000 1.0000
69.3100 277.0000 1.0000
69.3200 278.0000 1.0000
69.3300 239.0000 1.0000
69.3400 264.0000 1.0000
69.3500 241.0000 1.0000
69.3600 263.0000 1.0000
69.3700 237.0000 1.0000
69.3800 258.0000 1.0000
69.3900 257.0000 1.0000
69.4000 242.0000 1.0000
69.4100 263.0000 1.0000
69.4200 240.0000 1.0000
69.4300 256.0000 1.0000
69.4400 254.0000 1.0000
69.4500 228.0000 1.0000
69.4600 244.0000 1.0000
69.4700 268.0000 1.0000
69.4800 270.0000 1.0000
69.4900 253.0000 1.0000
69.5000 264.0000 1.0000
69.5100 277.0000 1.0000
69.5200 264.0000 1.0000
69.5300 251.0000 1.0000
69.5400 268.0000 1.0000
69.5500 251.0000 1.0000
69.5600 235.0000 1.0000
69.5700 256.0000 1.0000
69.5800 254.0000 1.0000
69.5900 266.0000 1.0000
69.6000 261.0000 1.0000
69.6100 256.0000 1.0000
69.6200 265.0000 1.0000
69.6300 255.0000 1.0000
69.6400 225.0000 1.0000
69.6500 255.0000 1.0000
69.6600 269.0000 1.0000
69.6700 254.0000 1.0000
69.6800 277.0000 1.0000
69.6900 288.0000 1.0000
69.7000 289.0000 1.0000
69.7100 255.0000 1.0000
69.7200 259.0000 1.0000
69.7300 257.0000 1.0000
69.7400 264.0000 1.0000
69.7500 270.0000 1.0000
69.7600 272.0000 1.0000
69.7700 259.0000 1.0000
69.7800 250.0000 1.0000
69.7900 264.0000 1.0000
69.8000 263.0000 1.0000
69.8100 235.0000 1.0000
69.8200 286.0000 1.0000
69.8300 249.0000 1.0000
69.8400 259.0000 1.0000
69.8500 239.0000 1.0000
69.8600 226.0000 1.0000
69.8700 247.0000 1.0000
69.8800 250.0000 1.0000
69.8900 279.0000 1.0000
69.9000 254.0000 1.0000
69.9100 267.0000 1.0000
69.9200 269.0000 1.0000
69.9300 235.0000 1.0000
69.9400 251.0000 1.0000
69.9500 246.0000 1.0000
69.9600 260.0000 1.0000
69.9700 260.0000 1.0000
69.9800 270.0000 1.0000
69.9900 260.0000 1.0000
70.0000 234.0000 1.0000
*RAS_INT_END
*RAS_TEMPERATURE_START
*RAS_TEMPERATURE_END
*RAS_DATA_END
