*RAS_DATA_START
*RAS_HEADER_START
*DISP_FMT_X "%.2f"
*DISP_FMT_Y "%.0f"
*DISP_FULLSCALE "16055.0000000000"
*DISP_LINE_COLOR "255.0000000000"
*DISP_LINE_STYLE "0.0000000000"
*DISP_LINE_WIDTH "0.2500000000"
*DISP_NOTE "測定データ-7"
*DISP_OFFSET_Y "0.0000000000"
*DISP_PEAKSEARCH_UNIT_Y "cps"
*DISP_RANGE_BOTTOM "0.0000000000"
*DISP_RANGE_LEFT "20.0000000000"
*DISP_RANGE_LOGCUTOFF "0.0100000000"
*DISP_RANGE_RIGHT "70.0000000000"
*DISP_RANGE_TOP "16055.0000000000"
*DISP_SCALE_MODE_Y "0.0000000000"
*DISP_TAB_NAME "2θ/θ"
*DISP_TITLE_Y "強度"
*DISP_UNIT_Y "cps"
*DISP_WINDOW_NAME "MSG_MACROENGINE"
*FILE_COMMENT " "
*FILE_MD5 ""
*FILE_MEMO " "
*FILE_OPERATOR "Administrator"
*FILE_SAMPLE " "
*FILE_TYPE "RAS_RAW"
*FILE_USERGROUP "システムマネージャ"
*FILE_VERSION "1.0000000000"
*HW_ATTACHMENT_ID "ATT0025"
*HW_ATTACHMENT_NAME "標準|Standard"
*HW_COUNTER_ID-0 "CUT0025"
*HW_COUNTER_ID-1 "CUT0020"
*HW_COUNTER_ID-2 "CUT0020"
*HW_COUNTER_ID-3 "CSL0021"
*HW_COUNTER_ID-4 "CMC0021"
*HW_COUNTER_NAME-0 "D/teX Ultra|D/teX Ultra"
*HW_COUNTER_NAME-1 "None|None"
*HW_COUNTER_NAME-2 "None|None"
*HW_COUNTER_NAME-3 "BBM|BBM"
*HW_COUNTER_NAME-4 "検出器モノクロメータ|Detector monochromator"
*HW_COUNTER_SELECT_NAME "D/teX Ultra|D/teX Ultra"
*HW_GONIOMETER_ID "GON0023"
*HW_GONIOMETER_NAME "SmartLab|SmartLab"
*HW_GONIOMETER_RADIUS-0 "90.0"
*HW_GONIOMETER_RADIUS-1 "114.0"
*HW_GONIOMETER_RADIUS-2 "190.0"
*HW_GONIOMETER_RADIUS-3 "300.0"
*HW_GONIOMETER_RADIUS-4 "187.0"
*HW_GONIOMETER_RADIUS-5 "300.0"
*HW_GONIOMETER_RADIUS-6 "113.0"
*HW_GONIOMETER_RADIUS-7 "331.0"
*HW_I_OPT_ID-0 "CBO0021"
*HW_I_OPT_ID-1 "ICR0023"
*HW_I_OPT_ID-2 "ISL0021"
*HW_I_OPT_ID-3 "ISO0021"
*HW_I_OPT_ID-4 "IAD0021"
*HW_I_OPT_ID-5 "IPR0001"
*HW_I_OPT_NAME-0 "CBOユニット|CBO unit"
*HW_I_OPT_NAME-1 "標準入射光学ユニット|Standard incident optical unit"
*HW_I_OPT_NAME-2 "標準入射スリットボックス|Standard incident slit box"
*HW_I_OPT_NAME-3 "入射平行スリット|Incident parallel slit"
*HW_I_OPT_NAME-4 "長手制限スリット|Length limiting slit"
*HW_I_OPT_NAME-5 "None|None"
*HW_R_ATTENUATER_AUTOMODE "0"
*HW_R_OPT_ID-0 "RSS0021"
*HW_R_OPT_ID-1 "RCR0023"
*HW_R_OPT_ID-2 "RSO0021"
*HW_R_OPT_ID-3 "RRS0021"
*HW_R_OPT_ID-4 "ATN0021"
*HW_R_OPT_ID-5 "RFL0021"
*HW_R_OPT_ID-6 "RAD0021"
*HW_R_OPT_NAME-0 "標準受光スリットボックス1|Standard receiving slit box # 1"
*HW_R_OPT_NAME-1 "標準受光光学ユニット1|Standard receiving unit # 1"
*HW_R_OPT_NAME-2 "標準受光光学ユニット2|Standard receiving optical unit # 2"
*HW_R_OPT_NAME-3 "標準受光スリットボックス2|Standard receiving slit box # 2"
*HW_R_OPT_NAME-4 "標準アッテネータ|Standard Attenuator"
*HW_R_OPT_NAME-5 "Cu Kβ|Cu K-beta"
*HW_R_OPT_NAME-6 "調整用受光スリット|Alignment receiving slit"
*HW_SAMPLE_HOLDER_ID "SMP0023"
*HW_SAMPLE_HOLDER_NAME "標準Zステージ|Standard Z stage"
*HW_XG_CURRENT_MAX "50"
*HW_XG_CURRENT_MIN "2"
*HW_XG_CURRENT_RESOLUTION "1"
*HW_XG_CURRENT_UNIT "mA"
*HW_XG_FOCUS "1mm x 10mm"
*HW_XG_FOCUS_TYPE "Normal"
*HW_XG_ID ""
*HW_XG_NAME "3kW 封入管(ID:1200)|3kW Sealed tube(ID:1200)"
*HW_XG_TARGET_ATOMIC_NUMBER "29.0000000000"
*HW_XG_TARGET_NAME "Cu"
*HW_XG_TYPE "Hermetic"
*HW_XG_VOLTAGE_MAX "60"
*HW_XG_VOLTAGE_MIN "20"
*HW_XG_VOLTAGE_RESOLUTION "1"
*HW_XG_VOLTAGE_UNIT "kV"
*HW_XG_WATT_MAX "1.500"
*HW_XG_WATT_UNIT "kW"
*HW_XG_WAVE_LENGTH_ALPHA1 "1.540593"
*HW_XG_WAVE_LENGTH_ALPHA2 "1.544414"
*HW_XG_WAVE_LENGTH_BETA "1.392250"
*MEAS_COND_AXIS_NAME-0 "2θ/θ"
*MEAS_COND_AXIS_NAME-1 "2θ"
*MEAS_COND_AXIS_NAME-2 "ω"
*MEAS_COND_AXIS_NAME-3 "Z"
*MEAS_COND_AXIS_NAME-4 "2θ/ω"
*MEAS_COND_AXIS_NAME-5 "θs"
*MEAS_COND_AXIS_NAME-6 "θd"
*MEAS_COND_AXIS_NAME-7 "Ts"
*MEAS_COND_AXIS_NAME-8 "CBO選択スリット"
*MEAS_COND_AXIS_NAME-9 "M"
*MEAS_COND_AXIS_NAME-10 "入射平行スリット"
*MEAS_COND_AXIS_NAME-11 "入射スリット"
*MEAS_COND_AXIS_NAME-12 ""
*MEAS_COND_AXIS_NAME-13 "Zs"
*MEAS_COND_AXIS_NAME-14 "入射光学素子"
*MEAS_COND_AXIS_NAME-15 "長手制限スリット"
*MEAS_COND_AXIS_NAME-16 "センタースリット"
*MEAS_COND_AXIS_NAME-17 "フィルター"
*MEAS_COND_AXIS_NAME-18 "受光スリット1"
*MEAS_COND_AXIS_NAME-19 "受光スリット2"
*MEAS_COND_AXIS_NAME-20 "受光光学素子"
*MEAS_COND_AXIS_NAME-21 "受光平行スリット"
*MEAS_COND_AXIS_NAME-22 "調整用受光スリット"
*MEAS_COND_AXIS_NAME-23 ""
*MEAS_COND_AXIS_NAME-24 ""
*MEAS_COND_AXIS_NAME-25 "Zd"
*MEAS_COND_AXIS_NAME-26 "アッテネータ"
*MEAS_COND_AXIS_NAME-27 "検出器モノクロメータ"
*MEAS_COND_AXIS_NAME-28 "モノクロメータスリット"
*MEAS_COND_AXIS_NAME-29 "プライマリビーム"
*MEAS_COND_AXIS_NAME-30 "PHA"
*MEAS_COND_AXIS_NAME_INTERNAL-0 "TwoThetaTheta"
*MEAS_COND_AXIS_NAME_INTERNAL-1 "TwoTheta"
*MEAS_COND_AXIS_NAME_INTERNAL-2 "Omega"
*MEAS_COND_AXIS_NAME_INTERNAL-3 "Z"
*MEAS_COND_AXIS_NAME_INTERNAL-4 "TwoThetaOmega"
*MEAS_COND_AXIS_NAME_INTERNAL-5 "ThetaS"
*MEAS_COND_AXIS_NAME_INTERNAL-6 "ThetaD"
*MEAS_COND_AXIS_NAME_INTERNAL-7 "Ts"
*MEAS_COND_AXIS_NAME_INTERNAL-8 "CBO"
*MEAS_COND_AXIS_NAME_INTERNAL-9 "CBO-M"
*MEAS_COND_AXIS_NAME_INTERNAL-10 "IncidentSollerSlit"
*MEAS_COND_AXIS_NAME_INTERNAL-11 "IncidentSlitBox"
*MEAS_COND_AXIS_NAME_INTERNAL-12 "IncidentSlitBox-_Axis"
*MEAS_COND_AXIS_NAME_INTERNAL-13 "Zs"
*MEAS_COND_AXIS_NAME_INTERNAL-14 "IncidentMonochromator"
*MEAS_COND_AXIS_NAME_INTERNAL-15 "IncidentAxdSlit"
*MEAS_COND_AXIS_NAME_INTERNAL-16 "CenterSlit"
*MEAS_COND_AXIS_NAME_INTERNAL-17 "Filter"
*MEAS_COND_AXIS_NAME_INTERNAL-18 "ReceivingSlitBox1"
*MEAS_COND_AXIS_NAME_INTERNAL-19 "ReceivingSlitBox2"
*MEAS_COND_AXIS_NAME_INTERNAL-20 "ReceivingOptics"
*MEAS_COND_AXIS_NAME_INTERNAL-21 "ReceivingSollerSlit"
*MEAS_COND_AXIS_NAME_INTERNAL-22 "ReceivingAxdSlit"
*MEAS_COND_AXIS_NAME_INTERNAL-23 "ReceivingSlitBox1-_Axis"
*MEAS_COND_AXIS_NAME_INTERNAL-24 "ReceivingSlitBox2-_Axis"
*MEAS_COND_AXIS_NAME_INTERNAL-25 "ReceivingSlitBox2-Zd"
*MEAS_COND_AXIS_NAME_INTERNAL-26 "Attenuator"
*MEAS_COND_AXIS_NAME_INTERNAL-27 "CounterMonochromator"
*MEAS_COND_AXIS_NAME_INTERNAL-28 "CounterSlit"
*MEAS_COND_AXIS_NAME_INTERNAL-29 "IncidentPrimary"
*MEAS_COND_AXIS_NAME_INTERNAL-30 "PHA"
*MEAS_COND_AXIS_NAME_MAGICNO-0 "83951616.0000000000"
*MEAS_COND_AXIS_NAME_MAGICNO-1 "268632064.0000000000"
*MEAS_COND_AXIS_NAME_MAGICNO-2 "268500992.0000000000"
*MEAS_COND_AXIS_NAME_MAGICNO-3 "285278208.0000000000"
*MEAS_COND_AXIS_NAME_MAGICNO-4 "83951616.0000000000"
*MEAS_COND_AXIS_NAME_MAGICNO-5 "131072.0000000000"
*MEAS_COND_AXIS_NAME_MAGICNO-6 "131072.0000000000"
*MEAS_COND_AXIS_NAME_MAGICNO-7 "318898176.0000000000"
*MEAS_COND_AXIS_NAME_MAGICNO-8 "20971521.0000000000"
*MEAS_COND_AXIS_NAME_MAGICNO-9 "285343744.0000000000"
*MEAS_COND_AXIS_NAME_MAGICNO-10 "20971521.0000000000"
*MEAS_COND_AXIS_NAME_MAGICNO-11 "22020097.0000000000"
*MEAS_COND_AXIS_NAME_MAGICNO-12 "25165824.0000000000"
*MEAS_COND_AXIS_NAME_MAGICNO-13 "318898176.0000000000"
*MEAS_COND_AXIS_NAME_MAGICNO-14 "1.0000000000"
*MEAS_COND_AXIS_NAME_MAGICNO-15 "20971521.0000000000"
*MEAS_COND_AXIS_NAME_MAGICNO-16 "20971521.0000000000"
*MEAS_COND_AXIS_NAME_MAGICNO-17 "20971521.0000000000"
*MEAS_COND_AXIS_NAME_MAGICNO-18 "23068673.0000000000"
*MEAS_COND_AXIS_NAME_MAGICNO-19 "23068673.0000000000"
*MEAS_COND_AXIS_NAME_MAGICNO-20 "20971521.0000000000"
*MEAS_COND_AXIS_NAME_MAGICNO-21 "20971521.0000000000"
*MEAS_COND_AXIS_NAME_MAGICNO-22 "20971521.0000000000"
*MEAS_COND_AXIS_NAME_MAGICNO-23 "25165824.0000000000"
*MEAS_COND_AXIS_NAME_MAGICNO-24 "25165824.0000000000"
*MEAS_COND_AXIS_NAME_MAGICNO-25 "285343744.0000000000"
*MEAS_COND_AXIS_NAME_MAGICNO-26 "17301505.0000000000"
*MEAS_COND_AXIS_NAME_MAGICNO-27 "20971521.0000000000"
*MEAS_COND_AXIS_NAME_MAGICNO-28 "20971521.0000000000"
*MEAS_COND_AXIS_NAME_MAGICNO-29 "20971521.0000000000"
*MEAS_COND_AXIS_NAME_MAGICNO-30 "0.0000000000"
*MEAS_COND_AXIS_OFFSET-0 "-"
*MEAS_COND_AXIS_OFFSET-1 "-0.0801000000"
*MEAS_COND_AXIS_OFFSET-2 "0.2338000000"
*MEAS_COND_AXIS_OFFSET-3 "-"
*MEAS_COND_AXIS_OFFSET-4 "-"
*MEAS_COND_AXIS_OFFSET-5 "0.2338000000"
*MEAS_COND_AXIS_OFFSET-6 "-0.3139000000"
*MEAS_COND_AXIS_OFFSET-7 "-"
*MEAS_COND_AXIS_OFFSET-8 "-"
*MEAS_COND_AXIS_OFFSET-9 "-"
*MEAS_COND_AXIS_OFFSET-10 "-"
*MEAS_COND_AXIS_OFFSET-11 "-"
*MEAS_COND_AXIS_OFFSET-12 "-"
*MEAS_COND_AXIS_OFFSET-13 "-"
*MEAS_COND_AXIS_OFFSET-14 "-"
*MEAS_COND_AXIS_OFFSET-15 "-"
*MEAS_COND_AXIS_OFFSET-16 "-"
*MEAS_COND_AXIS_OFFSET-17 "-"
*MEAS_COND_AXIS_OFFSET-18 "-"
*MEAS_COND_AXIS_OFFSET-19 "-"
*MEAS_COND_AXIS_OFFSET-20 "-"
*MEAS_COND_AXIS_OFFSET-21 "-"
*MEAS_COND_AXIS_OFFSET-22 "-"
*MEAS_COND_AXIS_OFFSET-23 "-"
*MEAS_COND_AXIS_OFFSET-24 "-"
*MEAS_COND_AXIS_OFFSET-25 "-"
*MEAS_COND_AXIS_OFFSET-26 "-"
*MEAS_COND_AXIS_OFFSET-27 "-"
*MEAS_COND_AXIS_OFFSET-28 "-"
*MEAS_COND_AXIS_OFFSET-29 "-"
*MEAS_COND_AXIS_OFFSET-30 "-"
*MEAS_COND_AXIS_POSITION-0 "0.0000000000"
*MEAS_COND_AXIS_POSITION-1 "0.0000000000"
*MEAS_COND_AXIS_POSITION-2 "0.0000000000"
*MEAS_COND_AXIS_POSITION-3 "-2.9583600000"
*MEAS_COND_AXIS_POSITION-4 "0.0000000000"
*MEAS_COND_AXIS_POSITION-5 "0.0000000000"
*MEAS_COND_AXIS_POSITION-6 "0.0000000000"
*MEAS_COND_AXIS_POSITION-7 "-0.4278800000"
*MEAS_COND_AXIS_POSITION-8 "BB"
*MEAS_COND_AXIS_POSITION-9 "0.0000000000"
*MEAS_COND_AXIS_POSITION-10 "Soller_slit_5.0deg"
*MEAS_COND_AXIS_POSITION-11 "2/3deg"
*MEAS_COND_AXIS_POSITION-12 "2.2088000000"
*MEAS_COND_AXIS_POSITION-13 "-1.0609400000"
*MEAS_COND_AXIS_POSITION-14 "0.0000000000"
*MEAS_COND_AXIS_POSITION-15 "10.0mm"
*MEAS_COND_AXIS_POSITION-16 "None"
*MEAS_COND_AXIS_POSITION-17 "Cu_K-beta"
*MEAS_COND_AXIS_POSITION-18 "13.000mm"
*MEAS_COND_AXIS_POSITION-19 "13.000mm"
*MEAS_COND_AXIS_POSITION-20 "No_unit"
*MEAS_COND_AXIS_POSITION-21 "Soller_slit_5.0deg"
*MEAS_COND_AXIS_POSITION-22 "None"
*MEAS_COND_AXIS_POSITION-23 "13.0000000000"
*MEAS_COND_AXIS_POSITION-24 "13.0000000000"
*MEAS_COND_AXIS_POSITION-25 "0.0081300000"
*MEAS_COND_AXIS_POSITION-26 "Open"
*MEAS_COND_AXIS_POSITION-27 "None"
*MEAS_COND_AXIS_POSITION-28 "None"
*MEAS_COND_AXIS_POSITION-29 "None"
*MEAS_COND_AXIS_POSITION-30 "38.0000000000"
*MEAS_COND_AXIS_UNIT-0 "deg"
*MEAS_COND_AXIS_UNIT-1 "deg"
*MEAS_COND_AXIS_UNIT-2 "deg"
*MEAS_COND_AXIS_UNIT-3 "mm"
*MEAS_COND_AXIS_UNIT-4 "deg"
*MEAS_COND_AXIS_UNIT-5 "deg"
*MEAS_COND_AXIS_UNIT-6 "deg"
*MEAS_COND_AXIS_UNIT-7 "mm"
*MEAS_COND_AXIS_UNIT-8 ""
*MEAS_COND_AXIS_UNIT-9 "pulse"
*MEAS_COND_AXIS_UNIT-10 ""
*MEAS_COND_AXIS_UNIT-11 ""
*MEAS_COND_AXIS_UNIT-12 "mm"
*MEAS_COND_AXIS_UNIT-13 "mm"
*MEAS_COND_AXIS_UNIT-14 ""
*MEAS_COND_AXIS_UNIT-15 ""
*MEAS_COND_AXIS_UNIT-16 ""
*MEAS_COND_AXIS_UNIT-17 ""
*MEAS_COND_AXIS_UNIT-18 ""
*MEAS_COND_AXIS_UNIT-19 ""
*MEAS_COND_AXIS_UNIT-20 ""
*MEAS_COND_AXIS_UNIT-21 ""
*MEAS_COND_AXIS_UNIT-22 ""
*MEAS_COND_AXIS_UNIT-23 "mm"
*MEAS_COND_AXIS_UNIT-24 "mm"
*MEAS_COND_AXIS_UNIT-25 "mm"
*MEAS_COND_AXIS_UNIT-26 ""
*MEAS_COND_AXIS_UNIT-27 ""
*MEAS_COND_AXIS_UNIT-28 ""
*MEAS_COND_AXIS_UNIT-29 ""
*MEAS_COND_AXIS_UNIT-30 "div"
*MEAS_COND_COUNTER_CNTLOSS_CORR "0.0000000000"
*MEAS_COND_COUNTER_PHABASE "38.0000000000"
*MEAS_COND_COUNTER_PHAWINDOW "16.0000000000"
*MEAS_COND_COUNTER_PHA_UNIT "div"
*MEAS_COND_COUNTER_TAUDIFF "30.0000000000"
*MEAS_COND_COUNTER_TAUINT "0.0000000000"
*MEAS_COND_IRRADIATION_MODE "OFF"
*MEAS_COND_IRRADIATION_WIDTH ""
*MEAS_COND_OPT_ATTR "集中法"
*MEAS_COND_OPT_NAME "@集中法"
*MEAS_COND_UNSYMMETRIC_MODE "OFF"
*MEAS_COND_XG_CURRENT "30.0000000000"
*MEAS_COND_XG_VOLTAGE "40.0000000000"
*MEAS_COND_XG_WAVE_TYPE "Ka"
*MEAS_DATA_COUNT "5001.0000000000"
*MEAS_SCAN_AXIS_X "2θ/θ"
*MEAS_SCAN_AXIS_X_INTERNAL "TwoThetaTheta"
*MEAS_SCAN_END_TIME "08/06/22 15:42:27"
*MEAS_SCAN_MODE "CONTINUOUS"
*MEAS_SCAN_MONITOR "0"
*MEAS_SCAN_RESOLUTION_X "0.0002"
*MEAS_SCAN_SPEED "2.5"
*MEAS_SCAN_SPEED_UNIT "deg/min"
*MEAS_SCAN_START "20.0000000000"
*MEAS_SCAN_START_TIME "08/06/22 15:21:03"
*MEAS_SCAN_STEP "0.0100000000"
*MEAS_SCAN_STOP "70.0000000000"
*MEAS_SCAN_UNIT_X "deg"
*MEAS_SCAN_UNIT_Y "counts"
*RAS_HEADER_END
*RAS_INT_START
20.0000 942.0000 1.0000
20.0100 949.0000 1.0000
20.0200 932.0000 1.0000
20.0300 980.0000 1.0000
20.0400 948.0000 1.0000
20.0500 960.0000 1.0000
20.0600 1012.0000 1.0000
20.0700 982.0000 1.0000
20.0800 939.0000 1.0000
20.0900 976.0000 1.0000
20.1000 993.0000 1.0000
20.1100 931.0000 1.0000
20.1200 953.0000 1.0000
20.1300 974.0000 1.0000
20.1400 969.0000 1.0000
20.1500 908.0000 1.0000
20.1600 940.0000 1.0000
20.1700 980.0000 1.0000
20.1800 1015.0000 1.0000
20.1900 976.0000 1.0000
20.2000 906.0000 1.0000
20.2100 988.0000 1.0000
20.2200 1007.0000 1.0000
20.2300 1011.0000 1.0000
20.2400 969.0000 1.0000
20.2500 984.0000 1.0000
20.2600 1030.0000 1.0000
20.2700 1010.0000 1.0000
20.2800 977.0000 1.0000
20.2900 944.0000 1.0000
20.3000 969.0000 1.0000
20.3100 964.0000 1.0000
20.3200 1006.0000 1.0000
20.3300 1021.0000 1.0000
20.3400 912.0000 1.0000
20.3500 938.0000 1.0000
20.3600 1022.0000 1.0000
20.3700 960.0000 1.0000
20.3800 956.0000 1.0000
20.3900 971.0000 1.0000
20.4000 929.0000 1.0000
20.4100 976.0000 1.0000
20.4200 965.0000 1.0000
20.4300 960.0000 1.0000
20.4400 977.0000 1.0000
20.4500 977.0000 1.0000
20.4600 959.0000 1.0000
20.4700 953.0000 1.0000
20.4800 942.0000 1.0000
20.4900 951.0000 1.0000
20.5000 993.0000 1.0000
20.5100 972.0000 1.0000
20.5200 994.0000 1.0000
20.5300 992.0000 1.0000
20.5400 967.0000 1.0000
20.5500 954.0000 1.0000
20.5600 950.0000 1.0000
20.5700 910.0000 1.0000
20.5800 965.0000 1.0000
20.5900 989.0000 1.0000
20.6000 952.0000 1.0000
20.6100 970.0000 1.0000
20.6200 1002.0000 1.0000
20.6300 968.0000 1.0000
20.6400 942.0000 1.0000
20.6500 982.0000 1.0000
20.6600 956.0000 1.0000
20.6700 944.0000 1.0000
20.6800 961.0000 1.0000
20.6900 954.0000 1.0000
20.7000 930.0000 1.0000
20.7100 946.0000 1.0000
20.7200 940.0000 1.0000
20.7300 963.0000 1.0000
20.7400 939.0000 1.0000
20.7500 985.0000 1.0000
20.7600 959.0000 1.0000
20.7700 941.0000 1.0000
20.7800 975.0000 1.0000
20.7900 966.0000 1.0000
20.8000 933.0000 1.0000
20.8100 998.0000 1.0000
20.8200 990.0000 1.0000
20.8300 976.0000 1.0000
20.8400 964.0000 1.0000
20.8500 949.0000 1.0000
20.8600 971.0000 1.0000
20.8700 957.0000 1.0000
20.8800 907.0000 1.0000
20.8900 916.0000 1.0000
20.9000 923.0000 1.0000
20.9100 1013.0000 1.0000
20.9200 950.0000 1.0000
20.9300 927.0000 1.0000
20.9400 956.0000 1.0000
20.9500 953.0000 1.0000
20.9600 927.0000 1.0000
20.9700 939.0000 1.0000
20.9800 976.0000 1.0000
20.9900 977.0000 1.0000
21.0000 969.0000 1.0000
21.0100 985.0000 1.0000
21.0200 965.0000 1.0000
21.0300 911.0000 1.0000
21.0400 939.0000 1.0000
21.0500 979.0000 1.0000
21.0600 1020.0000 1.0000
21.0700 958.0000 1.0000
21.0800 951.0000 1.0000
21.0900 964.0000 1.0000
21.1000 919.0000 1.0000
21.1100 975.0000 1.0000
21.1200 927.0000 1.0000
21.1300 945.0000 1.0000
21.1400 966.0000 1.0000
21.1500 982.0000 1.0000
21.1600 946.0000 1.0000
21.1700 961.0000 1.0000
21.1800 968.0000 1.0000
21.1900 931.0000 1.0000
21.2000 917.0000 1.0000
21.2100 905.0000 1.0000
21.2200 893.0000 1.0000
21.2300 939.0000 1.0000
21.2400 994.0000 1.0000
21.2500 981.0000 1.0000
21.2600 957.0000 1.0000
21.2700 949.0000 1.0000
21.2800 969.0000 1.0000
21.2900 912.0000 1.0000
21.3000 977.0000 1.0000
21.3100 986.0000 1.0000
21.3200 953.0000 1.0000
21.3300 952.0000 1.0000
21.3400 950.0000 1.0000
21.3500 966.0000 1.0000
21.3600 943.0000 1.0000
21.3700 894.0000 1.0000
21.3800 963.0000 1.0000
21.3900 970.0000 1.0000
21.4000 953.0000 1.0000
21.4100 937.0000 1.0000
21.4200 961.0000 1.0000
21.4300 895.0000 1.0000
21.4400 939.0000 1.0000
21.4500 959.0000 1.0000
21.4600 943.0000 1.0000
21.4700 951.0000 1.0000
21.4800 958.0000 1.0000
21.4900 917.0000 1.0000
21.5000 912.0000 1.0000
21.5100 920.0000 1.0000
21.5200 954.0000 1.0000
21.5300 886.0000 1.0000
21.5400 968.0000 1.0000
21.5500 911.0000 1.0000
21.5600 945.0000 1.0000
21.5700 966.0000 1.0000
21.5800 959.0000 1.0000
21.5900 946.0000 1.0000
21.6000 918.0000 1.0000
21.6100 972.0000 1.0000
21.6200 982.0000 1.0000
21.6300 944.0000 1.0000
21.6400 937.0000 1.0000
21.6500 954.0000 1.0000
21.6600 954.0000 1.0000
21.6700 946.0000 1.0000
21.6800 975.0000 1.0000
21.6900 974.0000 1.0000
21.7000 950.0000 1.0000
21.7100 974.0000 1.0000
21.7200 939.0000 1.0000
21.7300 887.0000 1.0000
21.7400 958.0000 1.0000
21.7500 958.0000 1.0000
21.7600 975.0000 1.0000
21.7700 948.0000 1.0000
21.7800 895.0000 1.0000
21.7900 981.0000 1.0000
21.8000 932.0000 1.0000
21.8100 933.0000 1.0000
21.8200 918.0000 1.0000
21.8300 944.0000 1.0000
21.8400 940.0000 1.0000
21.8500 930.0000 1.0000
21.8600 929.0000 1.0000
21.8700 947.0000 1.0000
21.8800 969.0000 1.0000
21.8900 971.0000 1.0000
21.9000 914.0000 1.0000
21.9100 946.0000 1.0000
21.9200 977.0000 1.0000
21.9300 965.0000 1.0000
21.9400 963.0000 1.0000
21.9500 980.0000 1.0000
21.9600 913.0000 1.0000
21.9700 914.0000 1.0000
21.9800 937.0000 1.0000
21.9900 930.0000 1.0000
22.0000 880.0000 1.0000
22.0100 957.0000 1.0000
22.0200 933.0000 1.0000
22.0300 983.0000 1.0000
22.0400 941.0000 1.0000
22.0500 897.0000 1.0000
22.0600 967.0000 1.0000
22.0700 931.0000 1.0000
22.0800 986.0000 1.0000
22.0900 913.0000 1.0000
22.1000 957.0000 1.0000
22.1100 928.0000 1.0000
22.1200 922.0000 1.0000
22.1300 902.0000 1.0000
22.1400 962.0000 1.0000
22.1500 913.0000 1.0000
22.1600 904.0000 1.0000
22.1700 939.0000 1.0000
22.1800 952.0000 1.0000
22.1900 978.0000 1.0000
22.2000 952.0000 1.0000
22.2100 929.0000 1.0000
22.2200 945.0000 1.0000
22.2300 952.0000 1.0000
22.2400 960.0000 1.0000
22.2500 955.0000 1.0000
22.2600 913.0000 1.0000
22.2700 903.0000 1.0000
22.2800 949.0000 1.0000
22.2900 957.0000 1.0000
22.3000 929.0000 1.0000
22.3100 935.0000 1.0000
22.3200 919.0000 1.0000
22.3300 942.0000 1.0000
22.3400 926.0000 1.0000
22.3500 946.0000 1.0000
22.3600 959.0000 1.0000
22.3700 987.0000 1.0000
22.3800 970.0000 1.0000
22.3900 952.0000 1.0000
22.4000 972.0000 1.0000
22.4100 965.0000 1.0000
22.4200 932.0000 1.0000
22.4300 955.0000 1.0000
22.4400 938.0000 1.0000
22.4500 954.0000 1.0000
22.4600 970.0000 1.0000
22.4700 877.0000 1.0000
22.4800 957.0000 1.0000
22.4900 938.0000 1.0000
22.5000 863.0000 1.0000
22.5100 945.0000 1.0000
22.5200 940.0000 1.0000
22.5300 938.0000 1.0000
22.5400 902.0000 1.0000
22.5500 938.0000 1.0000
22.5600 940.0000 1.0000
22.5700 912.0000 1.0000
22.5800 938.0000 1.0000
22.5900 1029.0000 1.0000
22.6000 920.0000 1.0000
22.6100 960.0000 1.0000
22.6200 953.0000 1.0000
22.6300 944.0000 1.0000
22.6400 890.0000 1.0000
22.6500 968.0000 1.0000
22.6600 883.0000 1.0000
22.6700 998.0000 1.0000
22.6800 929.0000 1.0000
22.6900 883.0000 1.0000
22.7000 918.0000 1.0000
22.7100 935.0000 1.0000
22.7200 981.0000 1.0000
22.7300 975.0000 1.0000
22.7400 926.0000 1.0000
22.7500 920.0000 1.0000
22.7600 958.0000 1.0000
22.7700 862.0000 1.0000
22.7800 911.0000 1.0000
22.7900 919.0000 1.0000
22.8000 927.0000 1.0000
22.8100 943.0000 1.0000
22.8200 901.0000 1.0000
22.8300 958.0000 1.0000
22.8400 945.0000 1.0000
22.8500 954.0000 1.0000
22.8600 944.0000 1.0000
22.8700 913.0000 1.0000
22.8800 954.0000 1.0000
22.8900 996.0000 1.0000
22.9000 912.0000 1.0000
22.9100 921.0000 1.0000
22.9200 867.0000 1.0000
22.9300 908.0000 1.0000
22.9400 920.0000 1.0000
22.9500 919.0000 1.0000
22.9600 930.0000 1.0000
22.9700 889.0000 1.0000
22.9800 949.0000 1.0000
22.9900 977.0000 1.0000
23.0000 919.0000 1.0000
23.0100 937.0000 1.0000
23.0200 917.0000 1.0000
23.0300 937.0000 1.0000
23.0400 937.0000 1.0000
23.0500 895.0000 1.0000
23.0600 927.0000 1.0000
23.0700 925.0000 1.0000
23.0800 921.0000 1.0000
23.0900 900.0000 1.0000
23.1000 925.0000 1.0000
23.1100 941.0000 1.0000
23.1200 978.0000 1.0000
23.1300 912.0000 1.0000
23.1400 962.0000 1.0000
23.1500 940.0000 1.0000
23.1600 914.0000 1.0000
23.1700 939.0000 1.0000
23.1800 949.0000 1.0000
23.1900 901.0000 1.0000
23.2000 885.0000 1.0000
23.2100 926.0000 1.0000
23.2200 917.0000 1.0000
23.2300 908.0000 1.0000
23.2400 900.0000 1.0000
23.2500 905.0000 1.0000
23.2600 936.0000 1.0000
23.2700 859.0000 1.0000
23.2800 948.0000 1.0000
23.2900 932.0000 1.0000
23.3000 888.0000 1.0000
23.3100 900.0000 1.0000
23.3200 891.0000 1.0000
23.3300 953.0000 1.0000
23.3400 945.0000 1.0000
23.3500 906.0000 1.0000
23.3600 945.0000 1.0000
23.3700 947.0000 1.0000
23.3800 941.0000 1.0000
23.3900 897.0000 1.0000
23.4000 941.0000 1.0000
23.4100 941.0000 1.0000
23.4200 887.0000 1.0000
23.4300 898.0000 1.0000
23.4400 922.0000 1.0000
23.4500 932.0000 1.0000
23.4600 948.0000 1.0000
23.4700 892.0000 1.0000
23.4800 958.0000 1.0000
23.4900 957.0000 1.0000
23.5000 926.0000 1.0000
23.5100 937.0000 1.0000
23.5200 859.0000 1.0000
23.5300 950.0000 1.0000
23.5400 918.0000 1.0000
23.5500 921.0000 1.0000
23.5600 931.0000 1.0000
23.5700 893.0000 1.0000
23.5800 928.0000 1.0000
23.5900 921.0000 1.0000
23.6000 928.0000 1.0000
23.6100 953.0000 1.0000
23.6200 945.0000 1.0000
23.6300 912.0000 1.0000
23.6400 901.0000 1.0000
23.6500 974.0000 1.0000
23.6600 965.0000 1.0000
23.6700 940.0000 1.0000
23.6800 931.0000 1.0000
23.6900 910.0000 1.0000
23.7000 914.0000 1.0000
23.7100 938.0000 1.0000
23.7200 954.0000 1.0000
23.7300 929.0000 1.0000
23.7400 925.0000 1.0000
23.7500 930.0000 1.0000
23.7600 982.0000 1.0000
23.7700 934.0000 1.0000
23.7800 921.0000 1.0000
23.7900 958.0000 1.0000
23.8000 910.0000 1.0000
23.8100 978.0000 1.0000
23.8200 972.0000 1.0000
23.8300 948.0000 1.0000
23.8400 956.0000 1.0000
23.8500 951.0000 1.0000
23.8600 968.0000 1.0000
23.8700 923.0000 1.0000
23.8800 911.0000 1.0000
23.8900 986.0000 1.0000
23.9000 937.0000 1.0000
23.9100 963.0000 1.0000
23.9200 953.0000 1.0000
23.9300 955.0000 1.0000
23.9400 953.0000 1.0000
23.9500 981.0000 1.0000
23.9600 977.0000 1.0000
23.9700 1015.0000 1.0000
23.9800 939.0000 1.0000
23.9900 906.0000 1.0000
24.0000 932.0000 1.0000
24.0100 983.0000 1.0000
24.0200 999.0000 1.0000
24.0300 1019.0000 1.0000
24.0400 1000.0000 1.0000
24.0500 984.0000 1.0000
24.0600 1024.0000 1.0000
24.0700 990.0000 1.0000
24.0800 1012.0000 1.0000
24.0900 1001.0000 1.0000
24.1000 983.0000 1.0000
24.1100 943.0000 1.0000
24.1200 1011.0000 1.0000
24.1300 1006.0000 1.0000
24.1400 1020.0000 1.0000
24.1500 942.0000 1.0000
24.1600 973.0000 1.0000
24.1700 1013.0000 1.0000
24.1800 994.0000 1.0000
24.1900 963.0000 1.0000
24.2000 952.0000 1.0000
24.2100 969.0000 1.0000
24.2200 928.0000 1.0000
24.2300 922.0000 1.0000
24.2400 977.0000 1.0000
24.2500 929.0000 1.0000
24.2600 944.0000 1.0000
24.2700 958.0000 1.0000
24.2800 980.0000 1.0000
24.2900 917.0000 1.0000
24.3000 902.0000 1.0000
24.3100 896.0000 1.0000
24.3200 945.0000 1.0000
24.3300 949.0000 1.0000
24.3400 926.0000 1.0000
24.3500 898.0000 1.0000
24.3600 920.0000 1.0000
24.3700 957.0000 1.0000
24.3800 945.0000 1.0000
24.3900 863.0000 1.0000
24.4000 904.0000 1.0000
24.4100 962.0000 1.0000
24.4200 922.0000 1.0000
24.4300 891.0000 1.0000
24.4400 894.0000 1.0000
24.4500 966.0000 1.0000
24.4600 946.0000 1.0000
24.4700 903.0000 1.0000
24.4800 917.0000 1.0000
24.4900 904.0000 1.0000
24.5000 913.0000 1.0000
24.5100 835.0000 1.0000
24.5200 943.0000 1.0000
24.5300 932.0000 1.0000
24.5400 918.0000 1.0000
24.5500 890.0000 1.0000
24.5600 907.0000 1.0000
24.5700 870.0000 1.0000
24.5800 912.0000 1.0000
24.5900 917.0000 1.0000
24.6000 907.0000 1.0000
24.6100 922.0000 1.0000
24.6200 893.0000 1.0000
24.6300 937.0000 1.0000
24.6400 893.0000 1.0000
24.6500 879.0000 1.0000
24.6600 893.0000 1.0000
24.6700 905.0000 1.0000
24.6800 900.0000 1.0000
24.6900 894.0000 1.0000
24.7000 932.0000 1.0000
24.7100 929.0000 1.0000
24.7200 924.0000 1.0000
24.7300 949.0000 1.0000
24.7400 917.0000 1.0000
24.7500 879.0000 1.0000
24.7600 895.0000 1.0000
24.7700 921.0000 1.0000
24.7800 844.0000 1.0000
24.7900 868.0000 1.0000
24.8000 910.0000 1.0000
24.8100 841.0000 1.0000
24.8200 868.0000 1.0000
24.8300 883.0000 1.0000
24.8400 867.0000 1.0000
24.8500 905.0000 1.0000
24.8600 889.0000 1.0000
24.8700 884.0000 1.0000
24.8800 905.0000 1.0000
24.8900 839.0000 1.0000
24.9000 882.0000 1.0000
24.9100 894.0000 1.0000
24.9200 873.0000 1.0000
24.9300 829.0000 1.0000
24.9400 868.0000 1.0000
24.9500 894.0000 1.0000
24.9600 877.0000 1.0000
24.9700 878.0000 1.0000
24.9800 863.0000 1.0000
24.9900 873.0000 1.0000
25.0000 882.0000 1.0000
25.0100 873.0000 1.0000
25.0200 890.0000 1.0000
25.0300 904.0000 1.0000
25.0400 892.0000 1.0000
25.0500 897.0000 1.0000
25.0600 876.0000 1.0000
25.0700 910.0000 1.0000
25.0800 893.0000 1.0000
25.0900 893.0000 1.0000
25.1000 916.0000 1.0000
25.1100 879.0000 1.0000
25.1200 939.0000 1.0000
25.1300 888.0000 1.0000
25.1400 864.0000 1.0000
25.1500 819.0000 1.0000
25.1600 872.0000 1.0000
25.1700 910.0000 1.0000
25.1800 926.0000 1.0000
25.1900 899.0000 1.0000
25.2000 900.0000 1.0000
25.2100 911.0000 1.0000
25.2200 865.0000 1.0000
25.2300 893.0000 1.0000
25.2400 862.0000 1.0000
25.2500 875.0000 1.0000
25.2600 914.0000 1.0000
25.2700 885.0000 1.0000
25.2800 847.0000 1.0000
25.2900 942.0000 1.0000
25.3000 875.0000 1.0000
25.3100 883.0000 1.0000
25.3200 911.0000 1.0000
25.3300 902.0000 1.0000
25.3400 852.0000 1.0000
25.3500 905.0000 1.0000
25.3600 894.0000 1.0000
25.3700 859.0000 1.0000
25.3800 902.0000 1.0000
25.3900 915.0000 1.0000
25.4000 895.0000 1.0000
25.4100 918.0000 1.0000
25.4200 863.0000 1.0000
25.4300 933.0000 1.0000
25.4400 879.0000 1.0000
25.4500 908.0000 1.0000
25.4600 945.0000 1.0000
25.4700 914.0000 1.0000
25.4800 926.0000 1.0000
25.4900 923.0000 1.0000
25.5000 923.0000 1.0000
25.5100 874.0000 1.0000
25.5200 892.0000 1.0000
25.5300 849.0000 1.0000
25.5400 913.0000 1.0000
25.5500 964.0000 1.0000
25.5600 894.0000 1.0000
25.5700 946.0000 1.0000
25.5800 931.0000 1.0000
25.5900 951.0000 1.0000
25.6000 853.0000 1.0000
25.6100 912.0000 1.0000
25.6200 906.0000 1.0000
25.6300 864.0000 1.0000
25.6400 875.0000 1.0000
25.6500 903.0000 1.0000
25.6600 903.0000 1.0000
25.6700 913.0000 1.0000
25.6800 963.0000 1.0000
25.6900 913.0000 1.0000
25.7000 892.0000 1.0000
25.7100 892.0000 1.0000
25.7200 900.0000 1.0000
25.7300 908.0000 1.0000
25.7400 908.0000 1.0000
25.7500 993.0000 1.0000
25.7600 898.0000 1.0000
25.7700 901.0000 1.0000
25.7800 893.0000 1.0000
25.7900 883.0000 1.0000
25.8000 918.0000 1.0000
25.8100 955.0000 1.0000
25.8200 921.0000 1.0000
25.8300 928.0000 1.0000
25.8400 894.0000 1.0000
25.8500 918.0000 1.0000
25.8600 1007.0000 1.0000
25.8700 995.0000 1.0000
25.8800 982.0000 1.0000
25.8900 911.0000 1.0000
25.9000 953.0000 1.0000
25.9100 987.0000 1.0000
25.9200 951.0000 1.0000
25.9300 986.0000 1.0000
25.9400 932.0000 1.0000
25.9500 951.0000 1.0000
25.9600 914.0000 1.0000
25.9700 957.0000 1.0000
25.9800 970.0000 1.0000
25.9900 1010.0000 1.0000
26.0000 1001.0000 1.0000
26.0100 979.0000 1.0000
26.0200 1000.0000 1.0000
26.0300 990.0000 1.0000
26.0400 995.0000 1.0000
26.0500 1014.0000 1.0000
26.0600 998.0000 1.0000
26.0700 1053.0000 1.0000
26.0800 1081.0000 1.0000
26.0900 1074.0000 1.0000
26.1000 1079.0000 1.0000
26.1100 1104.0000 1.0000
26.1200 1075.0000 1.0000
26.1300 1172.0000 1.0000
26.1400 1128.0000 1.0000
26.1500 1186.0000 1.0000
26.1600 1141.0000 1.0000
26.1700 1221.0000 1.0000
26.1800 1248.0000 1.0000
26.1900 1236.0000 1.0000
26.2000 1203.0000 1.0000
26.2100 1348.0000 1.0000
26.2200 1338.0000 1.0000
26.2300 1427.0000 1.0000
26.2400 1428.0000 1.0000
26.2500 1483.0000 1.0000
26.2600 1561.0000 1.0000
26.2700 1572.0000 1.0000
26.2800 1673.0000 1.0000
26.2900 1693.0000 1.0000
26.3000 1776.0000 1.0000
26.3100 1730.0000 1.0000
26.3200 1932.0000 1.0000
26.3300 2018.0000 1.0000
26.3400 2158.0000 1.0000
26.3500 2273.0000 1.0000
26.3600 2423.0000 1.0000
26.3700 2571.0000 1.0000
26.3800 2740.0000 1.0000
26.3900 2730.0000 1.0000
26.4000 2914.0000 1.0000
26.4100 3031.0000 1.0000
26.4200 3107.0000 1.0000
26.4300 3180.0000 1.0000
26.4400 3211.0000 1.0000
26.4500 3133.0000 1.0000
26.4600 3186.0000 1.0000
26.4700 3091.0000 1.0000
26.4800 3017.0000 1.0000
26.4900 2970.0000 1.0000
26.5000 2727.0000 1.0000
26.5100 2626.0000 1.0000
26.5200 2471.0000 1.0000
26.5300 2358.0000 1.0000
26.5400 2202.0000 1.0000
26.5500 2175.0000 1.0000
26.5600 2015.0000 1.0000
26.5700 1886.0000 1.0000
26.5800 1796.0000 1.0000
26.5900 1716.0000 1.0000
26.6000 1665.0000 1.0000
26.6100 1587.0000 1.0000
26.6200 1529.0000 1.0000
26.6300 1449.0000 1.0000
26.6400 1348.0000 1.0000
26.6500 1323.0000 1.0000
26.6600 1325.0000 1.0000
26.6700 1233.0000 1.0000
26.6800 1208.0000 1.0000
26.6900 1201.0000 1.0000
26.7000 1183.0000 1.0000
26.7100 1168.0000 1.0000
26.7200 1127.0000 1.0000
26.7300 1100.0000 1.0000
26.7400 1126.0000 1.0000
26.7500 1096.0000 1.0000
26.7600 1042.0000 1.0000
26.7700 1039.0000 1.0000
26.7800 1082.0000 1.0000
26.7900 1028.0000 1.0000
26.8000 1026.0000 1.0000
26.8100 999.0000 1.0000
26.8200 1000.0000 1.0000
26.8300 1005.0000 1.0000
26.8400 884.0000 1.0000
26.8500 902.0000 1.0000
26.8600 957.0000 1.0000
26.8700 996.0000 1.0000
26.8800 989.0000 1.0000
26.8900 903.0000 1.0000
26.9000 975.0000 1.0000
26.9100 922.0000 1.0000
26.9200 961.0000 1.0000
26.9300 891.0000 1.0000
26.9400 901.0000 1.0000
26.9500 885.0000 1.0000
26.9600 876.0000 1.0000
26.9700 946.0000 1.0000
26.9800 930.0000 1.0000
26.9900 916.0000 1.0000
27.0000 873.0000 1.0000
27.0100 952.0000 1.0000
27.0200 955.0000 1.0000
27.0300 940.0000 1.0000
27.0400 869.0000 1.0000
27.0500 894.0000 1.0000
27.0600 870.0000 1.0000
27.0700 859.0000 1.0000
27.0800 852.0000 1.0000
27.0900 881.0000 1.0000
27.1000 922.0000 1.0000
27.1100 907.0000 1.0000
27.1200 857.0000 1.0000
27.1300 856.0000 1.0000
27.1400 948.0000 1.0000
27.1500 824.0000 1.0000
27.1600 858.0000 1.0000
27.1700 884.0000 1.0000
27.1800 813.0000 1.0000
27.1900 854.0000 1.0000
27.2000 858.0000 1.0000
27.2100 849.0000 1.0000
27.2200 847.0000 1.0000
27.2300 814.0000 1.0000
27.2400 880.0000 1.0000
27.2500 844.0000 1.0000
27.2600 820.0000 1.0000
27.2700 822.0000 1.0000
27.2800 866.0000 1.0000
27.2900 816.0000 1.0000
27.3000 875.0000 1.0000
27.3100 870.0000 1.0000
27.3200 835.0000 1.0000
27.3300 866.0000 1.0000
27.3400 890.0000 1.0000
27.3500 876.0000 1.0000
27.3600 838.0000 1.0000
27.3700 831.0000 1.0000
27.3800 860.0000 1.0000
27.3900 838.0000 1.0000
27.4000 869.0000 1.0000
27.4100 848.0000 1.0000
27.4200 828.0000 1.0000
27.4300 851.0000 1.0000
27.4400 804.0000 1.0000
27.4500 757.0000 1.0000
27.4600 805.0000 1.0000
27.4700 795.0000 1.0000
27.4800 841.0000 1.0000
27.4900 832.0000 1.0000
27.5000 792.0000 1.0000
27.5100 798.0000 1.0000
27.5200 815.0000 1.0000
27.5300 868.0000 1.0000
27.5400 800.0000 1.0000
27.5500 796.0000 1.0000
27.5600 792.0000 1.0000
27.5700 769.0000 1.0000
27.5800 807.0000 1.0000
27.5900 788.0000 1.0000
27.6000 801.0000 1.0000
27.6100 791.0000 1.0000
27.6200 795.0000 1.0000
27.6300 858.0000 1.0000
27.6400 772.0000 1.0000
27.6500 785.0000 1.0000
27.6600 817.0000 1.0000
27.6700 812.0000 1.0000
27.6800 793.0000 1.0000
27.6900 776.0000 1.0000
27.7000 796.0000 1.0000
27.7100 821.0000 1.0000
27.7200 783.0000 1.0000
27.7300 834.0000 1.0000
27.7400 821.0000 1.0000
27.7500 812.0000 1.0000
27.7600 815.0000 1.0000
27.7700 835.0000 1.0000
27.7800 832.0000 1.0000
27.7900 798.0000 1.0000
27.8000 779.0000 1.0000
27.8100 822.0000 1.0000
27.8200 789.0000 1.0000
27.8300 777.0000 1.0000
27.8400 806.0000 1.0000
27.8500 815.0000 1.0000
27.8600 813.0000 1.0000
27.8700 783.0000 1.0000
27.8800 759.0000 1.0000
27.8900 783.0000 1.0000
27.9000 794.0000 1.0000
27.9100 783.0000 1.0000
27.9200 826.0000 1.0000
27.9300 844.0000 1.0000
27.9400 849.0000 1.0000
27.9500 792.0000 1.0000
27.9600 811.0000 1.0000
27.9700 768.0000 1.0000
27.9800 806.0000 1.0000
27.9900 796.0000 1.0000
28.0000 791.0000 1.0000
28.0100 807.0000 1.0000
28.0200 817.0000 1.0000
28.0300 789.0000 1.0000
28.0400 764.0000 1.0000
28.0500 758.0000 1.0000
28.0600 785.0000 1.0000
28.0700 810.0000 1.0000
28.0800 811.0000 1.0000
28.0900 820.0000 1.0000
28.1000 805.0000 1.0000
28.1100 808.0000 1.0000
28.1200 767.0000 1.0000
28.1300 827.0000 1.0000
28.1400 761.0000 1.0000
28.1500 794.0000 1.0000
28.1600 768.0000 1.0000
28.1700 775.0000 1.0000
28.1800 762.0000 1.0000
28.1900 796.0000 1.0000
28.2000 769.0000 1.0000
28.2100 791.0000 1.0000
28.2200 720.0000 1.0000
28.2300 800.0000 1.0000
28.2400 753.0000 1.0000
28.2500 809.0000 1.0000
28.2600 760.0000 1.0000
28.2700 804.0000 1.0000
28.2800 790.0000 1.0000
28.2900 798.0000 1.0000
28.3000 796.0000 1.0000
28.3100 803.0000 1.0000
28.3200 796.0000 1.0000
28.3300 815.0000 1.0000
28.3400 769.0000 1.0000
28.3500 774.0000 1.0000
28.3600 801.0000 1.0000
28.3700 739.0000 1.0000
28.3800 780.0000 1.0000
28.3900 754.0000 1.0000
28.4000 771.0000 1.0000
28.4100 762.0000 1.0000
28.4200 780.0000 1.0000
28.4300 765.0000 1.0000
28.4400 762.0000 1.0000
28.4500 793.0000 1.0000
28.4600 800.0000 1.0000
28.4700 741.0000 1.0000
28.4800 758.0000 1.0000
28.4900 746.0000 1.0000
28.5000 772.0000 1.0000
28.5100 767.0000 1.0000
28.5200 776.0000 1.0000
28.5300 731.0000 1.0000
28.5400 768.0000 1.0000
28.5500 773.0000 1.0000
28.5600 763.0000 1.0000
28.5700 786.0000 1.0000
28.5800 759.0000 1.0000
28.5900 785.0000 1.0000
28.6000 749.0000 1.0000
28.6100 747.0000 1.0000
28.6200 768.0000 1.0000
28.6300 780.0000 1.0000
28.6400 772.0000 1.0000
28.6500 779.0000 1.0000
28.6600 748.0000 1.0000
28.6700 770.0000 1.0000
28.6800 740.0000 1.0000
28.6900 778.0000 1.0000
28.7000 777.0000 1.0000
28.7100 813.0000 1.0000
28.7200 772.0000 1.0000
28.7300 772.0000 1.0000
28.7400 787.0000 1.0000
28.7500 764.0000 1.0000
28.7600 797.0000 1.0000
28.7700 751.0000 1.0000
28.7800 760.0000 1.0000
28.7900 753.0000 1.0000
28.8000 742.0000 1.0000
28.8100 722.0000 1.0000
28.8200 761.0000 1.0000
28.8300 771.0000 1.0000
28.8400 765.0000 1.0000
28.8500 764.0000 1.0000
28.8600 735.0000 1.0000
28.8700 757.0000 1.0000
28.8800 761.0000 1.0000
28.8900 723.0000 1.0000
28.9000 773.0000 1.0000
28.9100 725.0000 1.0000
28.9200 781.0000 1.0000
28.9300 772.0000 1.0000
28.9400 733.0000 1.0000
28.9500 754.0000 1.0000
28.9600 799.0000 1.0000
28.9700 757.0000 1.0000
28.9800 751.0000 1.0000
28.9900 755.0000 1.0000
29.0000 770.0000 1.0000
29.0100 764.0000 1.0000
29.0200 751.0000 1.0000
29.0300 744.0000 1.0000
29.0400 721.0000 1.0000
29.0500 736.0000 1.0000
29.0600 754.0000 1.0000
29.0700 702.0000 1.0000
29.0800 801.0000 1.0000
29.0900 759.0000 1.0000
29.1000 759.0000 1.0000
29.1100 775.0000 1.0000
29.1200 780.0000 1.0000
29.1300 701.0000 1.0000
29.1400 775.0000 1.0000
29.1500 703.0000 1.0000
29.1600 784.0000 1.0000
29.1700 769.0000 1.0000
29.1800 741.0000 1.0000
29.1900 723.0000 1.0000
29.2000 749.0000 1.0000
29.2100 768.0000 1.0000
29.2200 724.0000 1.0000
29.2300 755.0000 1.0000
29.2400 766.0000 1.0000
29.2500 779.0000 1.0000
29.2600 710.0000 1.0000
29.2700 763.0000 1.0000
29.2800 713.0000 1.0000
29.2900 734.0000 1.0000
29.3000 709.0000 1.0000
29.3100 708.0000 1.0000
29.3200 741.0000 1.0000
29.3300 752.0000 1.0000
29.3400 765.0000 1.0000
29.3500 808.0000 1.0000
29.3600 729.0000 1.0000
29.3700 756.0000 1.0000
29.3800 746.0000 1.0000
29.3900 707.0000 1.0000
29.4000 706.0000 1.0000
29.4100 731.0000 1.0000
29.4200 781.0000 1.0000
29.4300 720.0000 1.0000
29.4400 751.0000 1.0000
29.4500 742.0000 1.0000
29.4600 735.0000 1.0000
29.4700 732.0000 1.0000
29.4800 717.0000 1.0000
29.4900 723.0000 1.0000
29.5000 747.0000 1.0000
29.5100 742.0000 1.0000
29.5200 741.0000 1.0000
29.5300 764.0000 1.0000
29.5400 692.0000 1.0000
29.5500 744.0000 1.0000
29.5600 749.0000 1.0000
29.5700 691.0000 1.0000
29.5800 754.0000 1.0000
29.5900 716.0000 1.0000
29.6000 696.0000 1.0000
29.6100 727.0000 1.0000
29.6200 698.0000 1.0000
29.6300 694.0000 1.0000
29.6400 749.0000 1.0000
29.6500 736.0000 1.0000
29.6600 665.0000 1.0000
29.6700 711.0000 1.0000
29.6800 749.0000 1.0000
29.6900 731.0000 1.0000
29.7000 718.0000 1.0000
29.7100 725.0000 1.0000
29.7200 722.0000 1.0000
29.7300 759.0000 1.0000
29.7400 698.0000 1.0000
29.7500 671.0000 1.0000
29.7600 696.0000 1.0000
29.7700 760.0000 1.0000
29.7800 716.0000 1.0000
29.7900 691.0000 1.0000
29.8000 716.0000 1.0000
29.8100 731.0000 1.0000
29.8200 724.0000 1.0000
29.8300 716.0000 1.0000
29.8400 721.0000 1.0000
29.8500 724.0000 1.0000
29.8600 733.0000 1.0000
29.8700 720.0000 1.0000
29.8800 731.0000 1.0000
29.8900 781.0000 1.0000
29.9000 735.0000 1.0000
29.9100 722.0000 1.0000
29.9200 727.0000 1.0000
29.9300 760.0000 1.0000
29.9400 713.0000 1.0000
29.9500 689.0000 1.0000
29.9600 720.0000 1.0000
29.9700 733.0000 1.0000
29.9800 675.0000 1.0000
29.9900 680.0000 1.0000
30.0000 684.0000 1.0000
30.0100 687.0000 1.0000
30.0200 706.0000 1.0000
30.0300 754.0000 1.0000
30.0400 712.0000 1.0000
30.0500 717.0000 1.0000
30.0600 733.0000 1.0000
30.0700 726.0000 1.0000
30.0800 745.0000 1.0000
30.0900 714.0000 1.0000
30.1000 735.0000 1.0000
30.1100 738.0000 1.0000
30.1200 754.0000 1.0000
30.1300 774.0000 1.0000
30.1400 733.0000 1.0000
30.1500 724.0000 1.0000
30.1600 776.0000 1.0000
30.1700 712.0000 1.0000
30.1800 717.0000 1.0000
30.1900 742.0000 1.0000
30.2000 756.0000 1.0000
30.2100 734.0000 1.0000
30.2200 738.0000 1.0000
30.2300 745.0000 1.0000
30.2400 694.0000 1.0000
30.2500 705.0000 1.0000
30.2600 727.0000 1.0000
30.2700 727.0000 1.0000
30.2800 700.0000 1.0000
30.2900 725.0000 1.0000
30.3000 750.0000 1.0000
30.3100 704.0000 1.0000
30.3200 700.0000 1.0000
30.3300 708.0000 1.0000
30.3400 713.0000 1.0000
30.3500 725.0000 1.0000
30.3600 722.0000 1.0000
30.3700 710.0000 1.0000
30.3800 720.0000 1.0000
30.3900 692.0000 1.0000
30.4000 705.0000 1.0000
30.4100 695.0000 1.0000
30.4200 712.0000 1.0000
30.4300 676.0000 1.0000
30.4400 702.0000 1.0000
30.4500 722.0000 1.0000
30.4600 699.0000 1.0000
30.4700 728.0000 1.0000
30.4800 709.0000 1.0000
30.4900 687.0000 1.0000
30.5000 709.0000 1.0000
30.5100 690.0000 1.0000
30.5200 706.0000 1.0000
30.5300 745.0000 1.0000
30.5400 724.0000 1.0000
30.5500 665.0000 1.0000
30.5600 721.0000 1.0000
30.5700 698.0000 1.0000
30.5800 694.0000 1.0000
30.5900 733.0000 1.0000
30.6000 685.0000 1.0000
30.6100 671.0000 1.0000
30.6200 717.0000 1.0000
30.6300 705.0000 1.0000
30.6400 678.0000 1.0000
30.6500 641.0000 1.0000
30.6600 740.0000 1.0000
30.6700 687.0000 1.0000
30.6800 738.0000 1.0000
30.6900 738.0000 1.0000
30.7000 697.0000 1.0000
30.7100 673.0000 1.0000
30.7200 704.0000 1.0000
30.7300 684.0000 1.0000
30.7400 705.0000 1.0000
30.7500 699.0000 1.0000
30.7600 732.0000 1.0000
30.7700 732.0000 1.0000
30.7800 711.0000 1.0000
30.7900 709.0000 1.0000
30.8000 704.0000 1.0000
30.8100 694.0000 1.0000
30.8200 694.0000 1.0000
30.8300 704.0000 1.0000
30.8400 713.0000 1.0000
30.8500 750.0000 1.0000
30.8600 710.0000 1.0000
30.8700 709.0000 1.0000
30.8800 672.0000 1.0000
30.8900 667.0000 1.0000
30.9000 700.0000 1.0000
30.9100 686.0000 1.0000
30.9200 674.0000 1.0000
30.9300 673.0000 1.0000
30.9400 719.0000 1.0000
30.9500 698.0000 1.0000
30.9600 678.0000 1.0000
30.9700 694.0000 1.0000
30.9800 688.0000 1.0000
30.9900 708.0000 1.0000
31.0000 700.0000 1.0000
31.0100 682.0000 1.0000
31.0200 731.0000 1.0000
31.0300 712.0000 1.0000
31.0400 656.0000 1.0000
31.0500 694.0000 1.0000
31.0600 710.0000 1.0000
31.0700 735.0000 1.0000
31.0800 741.0000 1.0000
31.0900 706.0000 1.0000
31.1000 675.0000 1.0000
31.1100 713.0000 1.0000
31.1200 707.0000 1.0000
31.1300 751.0000 1.0000
31.1400 668.0000 1.0000
31.1500 663.0000 1.0000
31.1600 706.0000 1.0000
31.1700 698.0000 1.0000
31.1800 712.0000 1.0000
31.1900 707.0000 1.0000
31.2000 723.0000 1.0000
31.2100 664.0000 1.0000
31.2200 697.0000 1.0000
31.2300 681.0000 1.0000
31.2400 725.0000 1.0000
31.2500 653.0000 1.0000
31.2600 714.0000 1.0000
31.2700 687.0000 1.0000
31.2800 719.0000 1.0000
31.2900 706.0000 1.0000
31.3000 687.0000 1.0000
31.3100 685.0000 1.0000
31.3200 681.0000 1.0000
31.3300 685.0000 1.0000
31.3400 674.0000 1.0000
31.3500 695.0000 1.0000
31.3600 727.0000 1.0000
31.3700 700.0000 1.0000
31.3800 690.0000 1.0000
31.3900 684.0000 1.0000
31.4000 701.0000 1.0000
31.4100 716.0000 1.0000
31.4200 729.0000 1.0000
31.4300 719.0000 1.0000
31.4400 673.0000 1.0000
31.4500 719.0000 1.0000
31.4600 667.0000 1.0000
31.4700 692.0000 1.0000
31.4800 686.0000 1.0000
31.4900 662.0000 1.0000
31.5000 695.0000 1.0000
31.5100 688.0000 1.0000
31.5200 653.0000 1.0000
31.5300 689.0000 1.0000
31.5400 684.0000 1.0000
31.5500 666.0000 1.0000
31.5600 670.0000 1.0000
31.5700 669.0000 1.0000
31.5800 691.0000 1.0000
31.5900 676.0000 1.0000
31.6000 672.0000 1.0000
31.6100 708.0000 1.0000
31.6200 702.0000 1.0000
31.6300 711.0000 1.0000
31.6400 706.0000 1.0000
31.6500 657.0000 1.0000
31.6600 695.0000 1.0000
31.6700 698.0000 1.0000
31.6800 688.0000 1.0000
31.6900 705.0000 1.0000
31.7000 697.0000 1.0000
31.7100 687.0000 1.0000
31.7200 685.0000 1.0000
31.7300 660.0000 1.0000
31.7400 710.0000 1.0000
31.7500 706.0000 1.0000
31.7600 654.0000 1.0000
31.7700 708.0000 1.0000
31.7800 688.0000 1.0000
31.7900 638.0000 1.0000
31.8000 624.0000 1.0000
31.8100 659.0000 1.0000
31.8200 691.0000 1.0000
31.8300 679.0000 1.0000
31.8400 687.0000 1.0000
31.8500 657.0000 1.0000
31.8600 669.0000 1.0000
31.8700 673.0000 1.0000
31.8800 659.0000 1.0000
31.8900 670.0000 1.0000
31.9000 671.0000 1.0000
31.9100 701.0000 1.0000
31.9200 693.0000 1.0000
31.9300 673.0000 1.0000
31.9400 648.0000 1.0000
31.9500 692.0000 1.0000
31.9600 711.0000 1.0000
31.9700 670.0000 1.0000
31.9800 688.0000 1.0000
31.9900 655.0000 1.0000
32.0000 690.0000 1.0000
32.0100 682.0000 1.0000
32.0200 686.0000 1.0000
32.0300 681.0000 1.0000
32.0400 655.0000 1.0000
32.0500 677.0000 1.0000
32.0600 679.0000 1.0000
32.0700 655.0000 1.0000
32.0800 691.0000 1.0000
32.0900 648.0000 1.0000
32.1000 661.0000 1.0000
32.1100 650.0000 1.0000
32.1200 631.0000 1.0000
32.1300 649.0000 1.0000
32.1400 650.0000 1.0000
32.1500 683.0000 1.0000
32.1600 689.0000 1.0000
32.1700 645.0000 1.0000
32.1800 678.0000 1.0000
32.1900 688.0000 1.0000
32.2000 688.0000 1.0000
32.2100 688.0000 1.0000
32.2200 666.0000 1.0000
32.2300 640.0000 1.0000
32.2400 653.0000 1.0000
32.2500 651.0000 1.0000
32.2600 644.0000 1.0000
32.2700 684.0000 1.0000
32.2800 691.0000 1.0000
32.2900 669.0000 1.0000
32.3000 651.0000 1.0000
32.3100 641.0000 1.0000
32.3200 657.0000 1.0000
32.3300 628.0000 1.0000
32.3400 672.0000 1.0000
32.3500 678.0000 1.0000
32.3600 671.0000 1.0000
32.3700 663.0000 1.0000
32.3800 649.0000 1.0000
32.3900 685.0000 1.0000
32.4000 658.0000 1.0000
32.4100 664.0000 1.0000
32.4200 646.0000 1.0000
32.4300 665.0000 1.0000
32.4400 671.0000 1.0000
32.4500 647.0000 1.0000
32.4600 673.0000 1.0000
32.4700 653.0000 1.0000
32.4800 620.0000 1.0000
32.4900 680.0000 1.0000
32.5000 644.0000 1.0000
32.5100 635.0000 1.0000
32.5200 631.0000 1.0000
32.5300 647.0000 1.0000
32.5400 662.0000 1.0000
32.5500 691.0000 1.0000
32.5600 628.0000 1.0000
32.5700 658.0000 1.0000
32.5800 647.0000 1.0000
32.5900 639.0000 1.0000
32.6000 647.0000 1.0000
32.6100 640.0000 1.0000
32.6200 652.0000 1.0000
32.6300 696.0000 1.0000
32.6400 626.0000 1.0000
32.6500 600.0000 1.0000
32.6600 651.0000 1.0000
32.6700 623.0000 1.0000
32.6800 653.0000 1.0000
32.6900 642.0000 1.0000
32.7000 696.0000 1.0000
32.7100 634.0000 1.0000
32.7200 668.0000 1.0000
32.7300 670.0000 1.0000
32.7400 664.0000 1.0000
32.7500 690.0000 1.0000
32.7600 667.0000 1.0000
32.7700 660.0000 1.0000
32.7800 631.0000 1.0000
32.7900 717.0000 1.0000
32.8000 687.0000 1.0000
32.8100 654.0000 1.0000
32.8200 662.0000 1.0000
32.8300 662.0000 1.0000
32.8400 678.0000 1.0000
32.8500 709.0000 1.0000
32.8600 660.0000 1.0000
32.8700 698.0000 1.0000
32.8800 692.0000 1.0000
32.8900 718.0000 1.0000
32.9000 703.0000 1.0000
32.9100 731.0000 1.0000
32.9200 734.0000 1.0000
32.9300 673.0000 1.0000
32.9400 736.0000 1.0000
32.9500 697.0000 1.0000
32.9600 724.0000 1.0000
32.9700 737.0000 1.0000
32.9800 736.0000 1.0000
32.9900 724.0000 1.0000
33.0000 744.0000 1.0000
33.0100 760.0000 1.0000
33.0200 753.0000 1.0000
33.0300 763.0000 1.0000
33.0400 741.0000 1.0000
33.0500 784.0000 1.0000
33.0600 789.0000 1.0000
33.0700 817.0000 1.0000
33.0800 768.0000 1.0000
33.0900 831.0000 1.0000
33.1000 814.0000 1.0000
33.1100 802.0000 1.0000
33.1200 785.0000 1.0000
33.1300 835.0000 1.0000
33.1400 802.0000 1.0000
33.1500 757.0000 1.0000
33.1600 755.0000 1.0000
33.1700 746.0000 1.0000
33.1800 763.0000 1.0000
33.1900 771.0000 1.0000
33.2000 770.0000 1.0000
33.2100 759.0000 1.0000
33.2200 773.0000 1.0000
33.2300 728.0000 1.0000
33.2400 745.0000 1.0000
33.2500 765.0000 1.0000
33.2600 754.0000 1.0000
33.2700 759.0000 1.0000
33.2800 776.0000 1.0000
33.2900 731.0000 1.0000
33.3000 736.0000 1.0000
33.3100 728.0000 1.0000
33.3200 747.0000 1.0000
33.3300 772.0000 1.0000
33.3400 754.0000 1.0000
33.3500 767.0000 1.0000
33.3600 788.0000 1.0000
33.3700 770.0000 1.0000
33.3800 809.0000 1.0000
33.3900 765.0000 1.0000
33.4000 806.0000 1.0000
33.4100 808.0000 1.0000
33.4200 840.0000 1.0000
33.4300 858.0000 1.0000
33.4400 886.0000 1.0000
33.4500 867.0000 1.0000
33.4600 896.0000 1.0000
33.4700 861.0000 1.0000
33.4800 918.0000 1.0000
33.4900 901.0000 1.0000
33.5000 929.0000 1.0000
33.5100 993.0000 1.0000
33.5200 1013.0000 1.0000
33.5300 1097.0000 1.0000
33.5400 1100.0000 1.0000
33.5500 1189.0000 1.0000
33.5600 1173.0000 1.0000
33.5700 1260.0000 1.0000
33.5800 1275.0000 1.0000
33.5900 1348.0000 1.0000
33.6000 1376.0000 1.0000
33.6100 1424.0000 1.0000
33.6200 1476.0000 1.0000
33.6300 1495.0000 1.0000
33.6400 1531.0000 1.0000
33.6500 1595.0000 1.0000
33.6600 1589.0000 1.0000
33.6700 1586.0000 1.0000
33.6800 1508.0000 1.0000
33.6900 1481.0000 1.0000
33.7000 1411.0000 1.0000
33.7100 1396.0000 1.0000
33.7200 1398.0000 1.0000
33.7300 1342.0000 1.0000
33.7400 1231.0000 1.0000
33.7500 1262.0000 1.0000
33.7600 1184.0000 1.0000
33.7700 1139.0000 1.0000
33.7800 1126.0000 1.0000
33.7900 1076.0000 1.0000
33.8000 1017.0000 1.0000
33.8100 1019.0000 1.0000
33.8200 974.0000 1.0000
33.8300 877.0000 1.0000
33.8400 865.0000 1.0000
33.8500 864.0000 1.0000
33.8600 827.0000 1.0000
33.8700 846.0000 1.0000
33.8800 830.0000 1.0000
33.8900 807.0000 1.0000
33.9000 758.0000 1.0000
33.9100 764.0000 1.0000
33.9200 765.0000 1.0000
33.9300 731.0000 1.0000
33.9400 784.0000 1.0000
33.9500 710.0000 1.0000
33.9600 712.0000 1.0000
33.9700 740.0000 1.0000
33.9800 701.0000 1.0000
33.9900 713.0000 1.0000
34.0000 697.0000 1.0000
34.0100 698.0000 1.0000
34.0200 673.0000 1.0000
34.0300 658.0000 1.0000
34.0400 720.0000 1.0000
34.0500 653.0000 1.0000
34.0600 677.0000 1.0000
34.0700 637.0000 1.0000
34.0800 645.0000 1.0000
34.0900 657.0000 1.0000
34.1000 665.0000 1.0000
34.1100 622.0000 1.0000
34.1200 637.0000 1.0000
34.1300 596.0000 1.0000
34.1400 669.0000 1.0000
34.1500 626.0000 1.0000
34.1600 636.0000 1.0000
34.1700 638.0000 1.0000
34.1800 652.0000 1.0000
34.1900 643.0000 1.0000
34.2000 643.0000 1.0000
34.2100 607.0000 1.0000
34.2200 642.0000 1.0000
34.2300 649.0000 1.0000
34.2400 629.0000 1.0000
34.2500 590.0000 1.0000
34.2600 624.0000 1.0000
34.2700 619.0000 1.0000
34.2800 579.0000 1.0000
34.2900 626.0000 1.0000
34.3000 584.0000 1.0000
34.3100 579.0000 1.0000
34.3200 583.0000 1.0000
34.3300 617.0000 1.0000
34.3400 620.0000 1.0000
34.3500 593.0000 1.0000
34.3600 603.0000 1.0000
34.3700 631.0000 1.0000
34.3800 614.0000 1.0000
34.3900 606.0000 1.0000
34.4000 617.0000 1.0000
34.4100 601.0000 1.0000
34.4200 596.0000 1.0000
34.4300 583.0000 1.0000
34.4400 622.0000 1.0000
34.4500 590.0000 1.0000
34.4600 598.0000 1.0000
34.4700 597.0000 1.0000
34.4800 569.0000 1.0000
34.4900 588.0000 1.0000
34.5000 627.0000 1.0000
34.5100 583.0000 1.0000
34.5200 595.0000 1.0000
34.5300 606.0000 1.0000
34.5400 599.0000 1.0000
34.5500 590.0000 1.0000
34.5600 587.0000 1.0000
34.5700 573.0000 1.0000
34.5800 546.0000 1.0000
34.5900 587.0000 1.0000
34.6000 577.0000 1.0000
34.6100 571.0000 1.0000
34.6200 599.0000 1.0000
34.6300 603.0000 1.0000
34.6400 575.0000 1.0000
34.6500 593.0000 1.0000
34.6600 586.0000 1.0000
34.6700 593.0000 1.0000
34.6800 613.0000 1.0000
34.6900 580.0000 1.0000
34.7000 582.0000 1.0000
34.7100 584.0000 1.0000
34.7200 552.0000 1.0000
34.7300 610.0000 1.0000
34.7400 622.0000 1.0000
34.7500 588.0000 1.0000
34.7600 579.0000 1.0000
34.7700 586.0000 1.0000
34.7800 555.0000 1.0000
34.7900 568.0000 1.0000
34.8000 579.0000 1.0000
34.8100 579.0000 1.0000
34.8200 561.0000 1.0000
34.8300 557.0000 1.0000
34.8400 589.0000 1.0000
34.8500 582.0000 1.0000
34.8600 572.0000 1.0000
34.8700 577.0000 1.0000
34.8800 566.0000 1.0000
34.8900 605.0000 1.0000
34.9000 564.0000 1.0000
34.9100 610.0000 1.0000
34.9200 577.0000 1.0000
34.9300 556.0000 1.0000
34.9400 576.0000 1.0000
34.9500 575.0000 1.0000
34.9600 603.0000 1.0000
34.9700 595.0000 1.0000
34.9800 608.0000 1.0000
34.9900 591.0000 1.0000
35.0000 565.0000 1.0000
35.0100 588.0000 1.0000
35.0200 570.0000 1.0000
35.0300 591.0000 1.0000
35.0400 565.0000 1.0000
35.0500 569.0000 1.0000
35.0600 625.0000 1.0000
35.0700 577.0000 1.0000
35.0800 598.0000 1.0000
35.0900 555.0000 1.0000
35.1000 600.0000 1.0000
35.1100 592.0000 1.0000
35.1200 560.0000 1.0000
35.1300 570.0000 1.0000
35.1400 603.0000 1.0000
35.1500 570.0000 1.0000
35.1600 570.0000 1.0000
35.1700 536.0000 1.0000
35.1800 544.0000 1.0000
35.1900 565.0000 1.0000
35.2000 596.0000 1.0000
35.2100 587.0000 1.0000
35.2200 599.0000 1.0000
35.2300 580.0000 1.0000
35.2400 589.0000 1.0000
35.2500 581.0000 1.0000
35.2600 574.0000 1.0000
35.2700 586.0000 1.0000
35.2800 599.0000 1.0000
35.2900 656.0000 1.0000
35.3000 583.0000 1.0000
35.3100 576.0000 1.0000
35.3200 568.0000 1.0000
35.3300 597.0000 1.0000
35.3400 595.0000 1.0000
35.3500 601.0000 1.0000
35.3600 613.0000 1.0000
35.3700 614.0000 1.0000
35.3800 592.0000 1.0000
35.3900 668.0000 1.0000
35.4000 644.0000 1.0000
35.4100 705.0000 1.0000
35.4200 641.0000 1.0000
35.4300 708.0000 1.0000
35.4400 734.0000 1.0000
35.4500 703.0000 1.0000
35.4600 726.0000 1.0000
35.4700 766.0000 1.0000
35.4800 767.0000 1.0000
35.4900 752.0000 1.0000
35.5000 775.0000 1.0000
35.5100 829.0000 1.0000
35.5200 812.0000 1.0000
35.5300 804.0000 1.0000
35.5400 846.0000 1.0000
35.5500 893.0000 1.0000
35.5600 915.0000 1.0000
35.5700 894.0000 1.0000
35.5800 906.0000 1.0000
35.5900 856.0000 1.0000
35.6000 855.0000 1.0000
35.6100 783.0000 1.0000
35.6200 853.0000 1.0000
35.6300 838.0000 1.0000
35.6400 789.0000 1.0000
35.6500 790.0000 1.0000
35.6600 835.0000 1.0000
35.6700 838.0000 1.0000
35.6800 741.0000 1.0000
35.6900 718.0000 1.0000
35.7000 740.0000 1.0000
35.7100 682.0000 1.0000
35.7200 682.0000 1.0000
35.7300 674.0000 1.0000
35.7400 670.0000 1.0000
35.7500 623.0000 1.0000
35.7600 650.0000 1.0000
35.7700 655.0000 1.0000
35.7800 591.0000 1.0000
35.7900 578.0000 1.0000
35.8000 607.0000 1.0000
35.8100 574.0000 1.0000
35.8200 596.0000 1.0000
35.8300 571.0000 1.0000
35.8400 594.0000 1.0000
35.8500 580.0000 1.0000
35.8600 585.0000 1.0000
35.8700 574.0000 1.0000
35.8800 553.0000 1.0000
35.8900 592.0000 1.0000
35.9000 571.0000 1.0000
35.9100 571.0000 1.0000
35.9200 566.0000 1.0000
35.9300 537.0000 1.0000
35.9400 579.0000 1.0000
35.9500 577.0000 1.0000
35.9600 545.0000 1.0000
35.9700 553.0000 1.0000
35.9800 553.0000 1.0000
35.9900 539.0000 1.0000
36.0000 524.0000 1.0000
36.0100 530.0000 1.0000
36.0200 556.0000 1.0000
36.0300 573.0000 1.0000
36.0400 538.0000 1.0000
36.0500 535.0000 1.0000
36.0600 583.0000 1.0000
36.0700 529.0000 1.0000
36.0800 507.0000 1.0000
36.0900 494.0000 1.0000
36.1000 495.0000 1.0000
36.1100 553.0000 1.0000
36.1200 585.0000 1.0000
36.1300 541.0000 1.0000
36.1400 542.0000 1.0000
36.1500 569.0000 1.0000
36.1600 527.0000 1.0000
36.1700 565.0000 1.0000
36.1800 525.0000 1.0000
36.1900 548.0000 1.0000
36.2000 520.0000 1.0000
36.2100 520.0000 1.0000
36.2200 539.0000 1.0000
36.2300 512.0000 1.0000
36.2400 535.0000 1.0000
36.2500 540.0000 1.0000
36.2600 557.0000 1.0000
36.2700 505.0000 1.0000
36.2800 512.0000 1.0000
36.2900 529.0000 1.0000
36.3000 507.0000 1.0000
36.3100 490.0000 1.0000
36.3200 475.0000 1.0000
36.3300 504.0000 1.0000
36.3400 544.0000 1.0000
36.3500 552.0000 1.0000
36.3600 526.0000 1.0000
36.3700 550.0000 1.0000
36.3800 556.0000 1.0000
36.3900 568.0000 1.0000
36.4000 570.0000 1.0000
36.4100 533.0000 1.0000
36.4200 540.0000 1.0000
36.4300 533.0000 1.0000
36.4400 513.0000 1.0000
36.4500 531.0000 1.0000
36.4600 550.0000 1.0000
36.4700 536.0000 1.0000
36.4800 535.0000 1.0000
36.4900 540.0000 1.0000
36.5000 563.0000 1.0000
36.5100 539.0000 1.0000
36.5200 528.0000 1.0000
36.5300 562.0000 1.0000
36.5400 512.0000 1.0000
36.5500 502.0000 1.0000
36.5600 519.0000 1.0000
36.5700 544.0000 1.0000
36.5800 521.0000 1.0000
36.5900 546.0000 1.0000
36.6000 549.0000 1.0000
36.6100 534.0000 1.0000
36.6200 534.0000 1.0000
36.6300 517.0000 1.0000
36.6400 512.0000 1.0000
36.6500 524.0000 1.0000
36.6600 493.0000 1.0000
36.6700 516.0000 1.0000
36.6800 558.0000 1.0000
36.6900 584.0000 1.0000
36.7000 541.0000 1.0000
36.7100 543.0000 1.0000
36.7200 531.0000 1.0000
36.7300 510.0000 1.0000
36.7400 550.0000 1.0000
36.7500 548.0000 1.0000
36.7600 537.0000 1.0000
36.7700 479.0000 1.0000
36.7800 512.0000 1.0000
36.7900 554.0000 1.0000
36.8000 526.0000 1.0000
36.8100 511.0000 1.0000
36.8200 524.0000 1.0000
36.8300 507.0000 1.0000
36.8400 524.0000 1.0000
36.8500 546.0000 1.0000
36.8600 522.0000 1.0000
36.8700 522.0000 1.0000
36.8800 518.0000 1.0000
36.8900 538.0000 1.0000
36.9000 518.0000 1.0000
36.9100 541.0000 1.0000
36.9200 511.0000 1.0000
36.9300 543.0000 1.0000
36.9400 520.0000 1.0000
36.9500 508.0000 1.0000
36.9600 515.0000 1.0000
36.9700 509.0000 1.0000
36.9800 520.0000 1.0000
36.9900 537.0000 1.0000
37.0000 539.0000 1.0000
37.0100 499.0000 1.0000
37.0200 530.0000 1.0000
37.0300 527.0000 1.0000
37.0400 509.0000 1.0000
37.0500 555.0000 1.0000
37.0600 527.0000 1.0000
37.0700 516.0000 1.0000
37.0800 537.0000 1.0000
37.0900 546.0000 1.0000
37.1000 524.0000 1.0000
37.1100 531.0000 1.0000
37.1200 558.0000 1.0000
37.1300 530.0000 1.0000
37.1400 524.0000 1.0000
37.1500 562.0000 1.0000
37.1600 543.0000 1.0000
37.1700 522.0000 1.0000
37.1800 545.0000 1.0000
37.1900 561.0000 1.0000
37.2000 534.0000 1.0000
37.2100 553.0000 1.0000
37.2200 575.0000 1.0000
37.2300 543.0000 1.0000
37.2400 561.0000 1.0000
37.2500 565.0000 1.0000
37.2600 528.0000 1.0000
37.2700 517.0000 1.0000
37.2800 570.0000 1.0000
37.2900 587.0000 1.0000
37.3000 575.0000 1.0000
37.3100 620.0000 1.0000
37.3200 583.0000 1.0000
37.3300 619.0000 1.0000
37.3400 611.0000 1.0000
37.3500 600.0000 1.0000
37.3600 618.0000 1.0000
37.3700 646.0000 1.0000
37.3800 651.0000 1.0000
37.3900 692.0000 1.0000
37.4000 719.0000 1.0000
37.4100 722.0000 1.0000
37.4200 778.0000 1.0000
37.4300 725.0000 1.0000
37.4400 770.0000 1.0000
37.4500 802.0000 1.0000
37.4600 849.0000 1.0000
37.4700 884.0000 1.0000
37.4800 885.0000 1.0000
37.4900 933.0000 1.0000
37.5000 971.0000 1.0000
37.5100 967.0000 1.0000
37.5200 1073.0000 1.0000
37.5300 1086.0000 1.0000
37.5400 1194.0000 1.0000
37.5500 1229.0000 1.0000
37.5600 1353.0000 1.0000
37.5700 1346.0000 1.0000
37.5800 1469.0000 1.0000
37.5900 1566.0000 1.0000
37.6000 1627.0000 1.0000
37.6100 1751.0000 1.0000
37.6200 1806.0000 1.0000
37.6300 1939.0000 1.0000
37.6400 2071.0000 1.0000
37.6500 2185.0000 1.0000
37.6600 2348.0000 1.0000
37.6700 2317.0000 1.0000
37.6800 2378.0000 1.0000
37.6900 2487.0000 1.0000
37.7000 2548.0000 1.0000
37.7100 2555.0000 1.0000
37.7200 2530.0000 1.0000
37.7300 2511.0000 1.0000
37.7400 2546.0000 1.0000
37.7500 2449.0000 1.0000
37.7600 2333.0000 1.0000
37.7700 2236.0000 1.0000
37.7800 2206.0000 1.0000
37.7900 2168.0000 1.0000
37.8000 2043.0000 1.0000
37.8100 1952.0000 1.0000
37.8200 1889.0000 1.0000
37.8300 1714.0000 1.0000
37.8400 1677.0000 1.0000
37.8500 1594.0000 1.0000
37.8600 1468.0000 1.0000
37.8700 1358.0000 1.0000
37.8800 1301.0000 1.0000
37.8900 1239.0000 1.0000
37.9000 1114.0000 1.0000
37.9100 1124.0000 1.0000
37.9200 1049.0000 1.0000
37.9300 995.0000 1.0000
37.9400 930.0000 1.0000
37.9500 903.0000 1.0000
37.9600 833.0000 1.0000
37.9700 799.0000 1.0000
37.9800 793.0000 1.0000
37.9900 753.0000 1.0000
38.0000 772.0000 1.0000
38.0100 711.0000 1.0000
38.0200 729.0000 1.0000
38.0300 701.0000 1.0000
38.0400 668.0000 1.0000
38.0500 634.0000 1.0000
38.0600 642.0000 1.0000
38.0700 634.0000 1.0000
38.0800 563.0000 1.0000
38.0900 565.0000 1.0000
38.1000 585.0000 1.0000
38.1100 594.0000 1.0000
38.1200 554.0000 1.0000
38.1300 553.0000 1.0000
38.1400 548.0000 1.0000
38.1500 585.0000 1.0000
38.1600 550.0000 1.0000
38.1700 529.0000 1.0000
38.1800 523.0000 1.0000
38.1900 538.0000 1.0000
38.2000 540.0000 1.0000
38.2100 500.0000 1.0000
38.2200 513.0000 1.0000
38.2300 572.0000 1.0000
38.2400 533.0000 1.0000
38.2500 514.0000 1.0000
38.2600 531.0000 1.0000
38.2700 514.0000 1.0000
38.2800 500.0000 1.0000
38.2900 512.0000 1.0000
38.3000 500.0000 1.0000
38.3100 481.0000 1.0000
38.3200 461.0000 1.0000
38.3300 464.0000 1.0000
38.3400 484.0000 1.0000
38.3500 468.0000 1.0000
38.3600 499.0000 1.0000
38.3700 489.0000 1.0000
38.3800 479.0000 1.0000
38.3900 498.0000 1.0000
38.4000 469.0000 1.0000
38.4100 495.0000 1.0000
38.4200 492.0000 1.0000
38.4300 498.0000 1.0000
38.4400 489.0000 1.0000
38.4500 494.0000 1.0000
38.4600 479.0000 1.0000
38.4700 492.0000 1.0000
38.4800 487.0000 1.0000
38.4900 499.0000 1.0000
38.5000 476.0000 1.0000
38.5100 453.0000 1.0000
38.5200 482.0000 1.0000
38.5300 508.0000 1.0000
38.5400 498.0000 1.0000
38.5500 485.0000 1.0000
38.5600 469.0000 1.0000
38.5700 482.0000 1.0000
38.5800 479.0000 1.0000
38.5900 467.0000 1.0000
38.6000 527.0000 1.0000
38.6100 486.0000 1.0000
38.6200 470.0000 1.0000
38.6300 493.0000 1.0000
38.6400 479.0000 1.0000
38.6500 488.0000 1.0000
38.6600 519.0000 1.0000
38.6700 493.0000 1.0000
38.6800 493.0000 1.0000
38.6900 523.0000 1.0000
38.7000 498.0000 1.0000
38.7100 496.0000 1.0000
38.7200 545.0000 1.0000
38.7300 492.0000 1.0000
38.7400 491.0000 1.0000
38.7500 509.0000 1.0000
38.7600 507.0000 1.0000
38.7700 482.0000 1.0000
38.7800 473.0000 1.0000
38.7900 495.0000 1.0000
38.8000 484.0000 1.0000
38.8100 455.0000 1.0000
38.8200 503.0000 1.0000
38.8300 485.0000 1.0000
38.8400 507.0000 1.0000
38.8500 499.0000 1.0000
38.8600 454.0000 1.0000
38.8700 472.0000 1.0000
38.8800 482.0000 1.0000
38.8900 472.0000 1.0000
38.9000 479.0000 1.0000
38.9100 493.0000 1.0000
38.9200 460.0000 1.0000
38.9300 460.0000 1.0000
38.9400 480.0000 1.0000
38.9500 446.0000 1.0000
38.9600 460.0000 1.0000
38.9700 493.0000 1.0000
38.9800 454.0000 1.0000
38.9900 465.0000 1.0000
39.0000 424.0000 1.0000
39.0100 472.0000 1.0000
39.0200 494.0000 1.0000
39.0300 438.0000 1.0000
39.0400 449.0000 1.0000
39.0500 516.0000 1.0000
39.0600 490.0000 1.0000
39.0700 452.0000 1.0000
39.0800 450.0000 1.0000
39.0900 426.0000 1.0000
39.1000 476.0000 1.0000
39.1100 453.0000 1.0000
39.1200 481.0000 1.0000
39.1300 475.0000 1.0000
39.1400 441.0000 1.0000
39.1500 446.0000 1.0000
39.1600 429.0000 1.0000
39.1700 471.0000 1.0000
39.1800 437.0000 1.0000
39.1900 449.0000 1.0000
39.2000 460.0000 1.0000
39.2100 468.0000 1.0000
39.2200 445.0000 1.0000
39.2300 470.0000 1.0000
39.2400 473.0000 1.0000
39.2500 492.0000 1.0000
39.2600 462.0000 1.0000
39.2700 433.0000 1.0000
39.2800 474.0000 1.0000
39.2900 442.0000 1.0000
39.3000 457.0000 1.0000
39.3100 469.0000 1.0000
39.3200 459.0000 1.0000
39.3300 454.0000 1.0000
39.3400 446.0000 1.0000
39.3500 483.0000 1.0000
39.3600 477.0000 1.0000
39.3700 455.0000 1.0000
39.3800 433.0000 1.0000
39.3900 438.0000 1.0000
39.4000 478.0000 1.0000
39.4100 465.0000 1.0000
39.4200 464.0000 1.0000
39.4300 441.0000 1.0000
39.4400 462.0000 1.0000
39.4500 447.0000 1.0000
39.4600 420.0000 1.0000
39.4700 445.0000 1.0000
39.4800 432.0000 1.0000
39.4900 442.0000 1.0000
39.5000 475.0000 1.0000
39.5100 419.0000 1.0000
39.5200 445.0000 1.0000
39.5300 434.0000 1.0000
39.5400 464.0000 1.0000
39.5500 440.0000 1.0000
39.5600 434.0000 1.0000
39.5700 462.0000 1.0000
39.5800 432.0000 1.0000
39.5900 435.0000 1.0000
39.6000 414.0000 1.0000
39.6100 423.0000 1.0000
39.6200 442.0000 1.0000
39.6300 401.0000 1.0000
39.6400 442.0000 1.0000
39.6500 436.0000 1.0000
39.6600 425.0000 1.0000
39.6700 457.0000 1.0000
39.6800 439.0000 1.0000
39.6900 428.0000 1.0000
39.7000 459.0000 1.0000
39.7100 426.0000 1.0000
39.7200 428.0000 1.0000
39.7300 435.0000 1.0000
39.7400 444.0000 1.0000
39.7500 427.0000 1.0000
39.7600 430.0000 1.0000
39.7700 445.0000 1.0000
39.7800 433.0000 1.0000
39.7900 438.0000 1.0000
39.8000 447.0000 1.0000
39.8100 426.0000 1.0000
39.8200 454.0000 1.0000
39.8300 440.0000 1.0000
39.8400 476.0000 1.0000
39.8500 447.0000 1.0000
39.8600 448.0000 1.0000
39.8700 420.0000 1.0000
39.8800 429.0000 1.0000
39.8900 451.0000 1.0000
39.9000 417.0000 1.0000
39.9100 444.0000 1.0000
39.9200 429.0000 1.0000
39.9300 431.0000 1.0000
39.9400 440.0000 1.0000
39.9500 433.0000 1.0000
39.9600 463.0000 1.0000
39.9700 444.0000 1.0000
39.9800 449.0000 1.0000
39.9900 440.0000 1.0000
40.0000 431.0000 1.0000
40.0100 440.0000 1.0000
40.0200 429.0000 1.0000
40.0300 446.0000 1.0000
40.0400 435.0000 1.0000
40.0500 406.0000 1.0000
40.0600 421.0000 1.0000
40.0700 410.0000 1.0000
40.0800 404.0000 1.0000
40.0900 436.0000 1.0000
40.1000 413.0000 1.0000
40.1100 426.0000 1.0000
40.1200 444.0000 1.0000
40.1300 410.0000 1.0000
40.1400 438.0000 1.0000
40.1500 459.0000 1.0000
40.1600 454.0000 1.0000
40.1700 415.0000 1.0000
40.1800 446.0000 1.0000
40.1900 463.0000 1.0000
40.2000 429.0000 1.0000
40.2100 418.0000 1.0000
40.2200 444.0000 1.0000
40.2300 444.0000 1.0000
40.2400 432.0000 1.0000
40.2500 438.0000 1.0000
40.2600 459.0000 1.0000
40.2700 431.0000 1.0000
40.2800 457.0000 1.0000
40.2900 433.0000 1.0000
40.3000 445.0000 1.0000
40.3100 451.0000 1.0000
40.3200 444.0000 1.0000
40.3300 419.0000 1.0000
40.3400 448.0000 1.0000
40.3500 449.0000 1.0000
40.3600 425.0000 1.0000
40.3700 447.0000 1.0000
40.3800 432.0000 1.0000
40.3900 428.0000 1.0000
40.4000 444.0000 1.0000
40.4100 433.0000 1.0000
40.4200 436.0000 1.0000
40.4300 435.0000 1.0000
40.4400 463.0000 1.0000
40.4500 460.0000 1.0000
40.4600 439.0000 1.0000
40.4700 413.0000 1.0000
40.4800 435.0000 1.0000
40.4900 459.0000 1.0000
40.5000 425.0000 1.0000
40.5100 397.0000 1.0000
40.5200 434.0000 1.0000
40.5300 443.0000 1.0000
40.5400 452.0000 1.0000
40.5500 453.0000 1.0000
40.5600 457.0000 1.0000
40.5700 437.0000 1.0000
40.5800 415.0000 1.0000
40.5900 427.0000 1.0000
40.6000 428.0000 1.0000
40.6100 426.0000 1.0000
40.6200 447.0000 1.0000
40.6300 446.0000 1.0000
40.6400 462.0000 1.0000
40.6500 441.0000 1.0000
40.6600 433.0000 1.0000
40.6700 437.0000 1.0000
40.6800 420.0000 1.0000
40.6900 455.0000 1.0000
40.7000 416.0000 1.0000
40.7100 439.0000 1.0000
40.7200 468.0000 1.0000
40.7300 440.0000 1.0000
40.7400 426.0000 1.0000
40.7500 470.0000 1.0000
40.7600 446.0000 1.0000
40.7700 450.0000 1.0000
40.7800 478.0000 1.0000
40.7900 484.0000 1.0000
40.8000 437.0000 1.0000
40.8100 495.0000 1.0000
40.8200 449.0000 1.0000
40.8300 461.0000 1.0000
40.8400 454.0000 1.0000
40.8500 487.0000 1.0000
40.8600 463.0000 1.0000
40.8700 460.0000 1.0000
40.8800 474.0000 1.0000
40.8900 454.0000 1.0000
40.9000 435.0000 1.0000
40.9100 418.0000 1.0000
40.9200 439.0000 1.0000
40.9300 463.0000 1.0000
40.9400 437.0000 1.0000
40.9500 441.0000 1.0000
40.9600 460.0000 1.0000
40.9700 438.0000 1.0000
40.9800 442.0000 1.0000
40.9900 408.0000 1.0000
41.0000 441.0000 1.0000
41.0100 444.0000 1.0000
41.0200 418.0000 1.0000
41.0300 424.0000 1.0000
41.0400 436.0000 1.0000
41.0500 425.0000 1.0000
41.0600 429.0000 1.0000
41.0700 387.0000 1.0000
41.0800 394.0000 1.0000
41.0900 416.0000 1.0000
41.1000 456.0000 1.0000
41.1100 430.0000 1.0000
41.1200 433.0000 1.0000
41.1300 434.0000 1.0000
41.1400 444.0000 1.0000
41.1500 426.0000 1.0000
41.1600 432.0000 1.0000
41.1700 452.0000 1.0000
41.1800 431.0000 1.0000
41.1900 431.0000 1.0000
41.2000 437.0000 1.0000
41.2100 407.0000 1.0000
41.2200 421.0000 1.0000
41.2300 427.0000 1.0000
41.2400 391.0000 1.0000
41.2500 434.0000 1.0000
41.2600 448.0000 1.0000
41.2700 438.0000 1.0000
41.2800 441.0000 1.0000
41.2900 425.0000 1.0000
41.3000 426.0000 1.0000
41.3100 428.0000 1.0000
41.3200 400.0000 1.0000
41.3300 479.0000 1.0000
41.3400 427.0000 1.0000
41.3500 432.0000 1.0000
41.3600 406.0000 1.0000
41.3700 416.0000 1.0000
41.3800 423.0000 1.0000
41.3900 421.0000 1.0000
41.4000 425.0000 1.0000
41.4100 421.0000 1.0000
41.4200 412.0000 1.0000
41.4300 421.0000 1.0000
41.4400 484.0000 1.0000
41.4500 480.0000 1.0000
41.4600 440.0000 1.0000
41.4700 443.0000 1.0000
41.4800 438.0000 1.0000
41.4900 415.0000 1.0000
41.5000 408.0000 1.0000
41.5100 440.0000 1.0000
41.5200 447.0000 1.0000
41.5300 456.0000 1.0000
41.5400 416.0000 1.0000
41.5500 409.0000 1.0000
41.5600 412.0000 1.0000
41.5700 412.0000 1.0000
41.5800 428.0000 1.0000
41.5900 418.0000 1.0000
41.6000 382.0000 1.0000
41.6100 389.0000 1.0000
41.6200 432.0000 1.0000
41.6300 430.0000 1.0000
41.6400 406.0000 1.0000
41.6500 411.0000 1.0000
41.6600 388.0000 1.0000
41.6700 405.0000 1.0000
41.6800 446.0000 1.0000
41.6900 415.0000 1.0000
41.7000 401.0000 1.0000
41.7100 427.0000 1.0000
41.7200 411.0000 1.0000
41.7300 420.0000 1.0000
41.7400 427.0000 1.0000
41.7500 435.0000 1.0000
41.7600 449.0000 1.0000
41.7700 412.0000 1.0000
41.7800 439.0000 1.0000
41.7900 407.0000 1.0000
41.8000 401.0000 1.0000
41.8100 401.0000 1.0000
41.8200 422.0000 1.0000
41.8300 396.0000 1.0000
41.8400 431.0000 1.0000
41.8500 408.0000 1.0000
41.8600 420.0000 1.0000
41.8700 429.0000 1.0000
41.8800 421.0000 1.0000
41.8900 423.0000 1.0000
41.9000 409.0000 1.0000
41.9100 417.0000 1.0000
41.9200 385.0000 1.0000
41.9300 432.0000 1.0000
41.9400 431.0000 1.0000
41.9500 432.0000 1.0000
41.9600 418.0000 1.0000
41.9700 407.0000 1.0000
41.9800 436.0000 1.0000
41.9900 408.0000 1.0000
42.0000 435.0000 1.0000
42.0100 417.0000 1.0000
42.0200 451.0000 1.0000
42.0300 394.0000 1.0000
42.0400 425.0000 1.0000
42.0500 400.0000 1.0000
42.0600 442.0000 1.0000
42.0700 409.0000 1.0000
42.0800 433.0000 1.0000
42.0900 414.0000 1.0000
42.1000 431.0000 1.0000
42.1100 421.0000 1.0000
42.1200 384.0000 1.0000
42.1300 432.0000 1.0000
42.1400 422.0000 1.0000
42.1500 424.0000 1.0000
42.1600 423.0000 1.0000
42.1700 448.0000 1.0000
42.1800 424.0000 1.0000
42.1900 445.0000 1.0000
42.2000 431.0000 1.0000
42.2100 454.0000 1.0000
42.2200 447.0000 1.0000
42.2300 412.0000 1.0000
42.2400 416.0000 1.0000
42.2500 397.0000 1.0000
42.2600 434.0000 1.0000
42.2700 413.0000 1.0000
42.2800 415.0000 1.0000
42.2900 422.0000 1.0000
42.3000 430.0000 1.0000
42.3100 460.0000 1.0000
42.3200 437.0000 1.0000
42.3300 434.0000 1.0000
42.3400 483.0000 1.0000
42.3500 464.0000 1.0000
42.3600 473.0000 1.0000
42.3700 467.0000 1.0000
42.3800 465.0000 1.0000
42.3900 470.0000 1.0000
42.4000 453.0000 1.0000
42.4100 452.0000 1.0000
42.4200 479.0000 1.0000
42.4300 419.0000 1.0000
42.4400 443.0000 1.0000
42.4500 459.0000 1.0000
42.4600 448.0000 1.0000
42.4700 467.0000 1.0000
42.4800 425.0000 1.0000
42.4900 427.0000 1.0000
42.5000 445.0000 1.0000
42.5100 425.0000 1.0000
42.5200 457.0000 1.0000
42.5300 425.0000 1.0000
42.5400 420.0000 1.0000
42.5500 469.0000 1.0000
42.5600 423.0000 1.0000
42.5700 450.0000 1.0000
42.5800 439.0000 1.0000
42.5900 431.0000 1.0000
42.6000 435.0000 1.0000
42.6100 394.0000 1.0000
42.6200 438.0000 1.0000
42.6300 434.0000 1.0000
42.6400 394.0000 1.0000
42.6500 421.0000 1.0000
42.6600 434.0000 1.0000
42.6700 442.0000 1.0000
42.6800 414.0000 1.0000
42.6900 420.0000 1.0000
42.7000 421.0000 1.0000
42.7100 400.0000 1.0000
42.7200 400.0000 1.0000
42.7300 424.0000 1.0000
42.7400 408.0000 1.0000
42.7500 425.0000 1.0000
42.7600 414.0000 1.0000
42.7700 422.0000 1.0000
42.7800 433.0000 1.0000
42.7900 414.0000 1.0000
42.8000 420.0000 1.0000
42.8100 439.0000 1.0000
42.8200 405.0000 1.0000
42.8300 406.0000 1.0000
42.8400 399.0000 1.0000
42.8500 398.0000 1.0000
42.8600 458.0000 1.0000
42.8700 413.0000 1.0000
42.8800 393.0000 1.0000
42.8900 414.0000 1.0000
42.9000 400.0000 1.0000
42.9100 418.0000 1.0000
42.9200 402.0000 1.0000
42.9300 421.0000 1.0000
42.9400 438.0000 1.0000
42.9500 400.0000 1.0000
42.9600 414.0000 1.0000
42.9700 446.0000 1.0000
42.9800 410.0000 1.0000
42.9900 463.0000 1.0000
43.0000 425.0000 1.0000
43.0100 437.0000 1.0000
43.0200 439.0000 1.0000
43.0300 402.0000 1.0000
43.0400 425.0000 1.0000
43.0500 409.0000 1.0000
43.0600 386.0000 1.0000
43.0700 431.0000 1.0000
43.0800 418.0000 1.0000
43.0900 397.0000 1.0000
43.1000 435.0000 1.0000
43.1100 393.0000 1.0000
43.1200 408.0000 1.0000
43.1300 401.0000 1.0000
43.1400 400.0000 1.0000
43.1500 391.0000 1.0000
43.1600 401.0000 1.0000
43.1700 394.0000 1.0000
43.1800 401.0000 1.0000
43.1900 418.0000 1.0000
43.2000 400.0000 1.0000
43.2100 381.0000 1.0000
43.2200 415.0000 1.0000
43.2300 415.0000 1.0000
43.2400 416.0000 1.0000
43.2500 414.0000 1.0000
43.2600 416.0000 1.0000
43.2700 414.0000 1.0000
43.2800 407.0000 1.0000
43.2900 401.0000 1.0000
43.3000 419.0000 1.0000
43.3100 404.0000 1.0000
43.3200 435.0000 1.0000
43.3300 437.0000 1.0000
43.3400 426.0000 1.0000
43.3500 423.0000 1.0000
43.3600 414.0000 1.0000
43.3700 402.0000 1.0000
43.3800 386.0000 1.0000
43.3900 408.0000 1.0000
43.4000 420.0000 1.0000
43.4100 389.0000 1.0000
43.4200 425.0000 1.0000
43.4300 386.0000 1.0000
43.4400 399.0000 1.0000
43.4500 386.0000 1.0000
43.4600 415.0000 1.0000
43.4700 429.0000 1.0000
43.4800 428.0000 1.0000
43.4900 403.0000 1.0000
43.5000 399.0000 1.0000
43.5100 433.0000 1.0000
43.5200 399.0000 1.0000
43.5300 427.0000 1.0000
43.5400 403.0000 1.0000
43.5500 409.0000 1.0000
43.5600 422.0000 1.0000
43.5700 423.0000 1.0000
43.5800 411.0000 1.0000
43.5900 404.0000 1.0000
43.6000 416.0000 1.0000
43.6100 394.0000 1.0000
43.6200 408.0000 1.0000
43.6300 402.0000 1.0000
43.6400 401.0000 1.0000
43.6500 407.0000 1.0000
43.6600 406.0000 1.0000
43.6700 367.0000 1.0000
43.6800 393.0000 1.0000
43.6900 423.0000 1.0000
43.7000 418.0000 1.0000
43.7100 380.0000 1.0000
43.7200 410.0000 1.0000
43.7300 387.0000 1.0000
43.7400 405.0000 1.0000
43.7500 382.0000 1.0000
43.7600 355.0000 1.0000
43.7700 385.0000 1.0000
43.7800 390.0000 1.0000
43.7900 435.0000 1.0000
43.8000 398.0000 1.0000
43.8100 398.0000 1.0000
43.8200 412.0000 1.0000
43.8300 426.0000 1.0000
43.8400 402.0000 1.0000
43.8500 393.0000 1.0000
43.8600 371.0000 1.0000
43.8700 398.0000 1.0000
43.8800 397.0000 1.0000
43.8900 414.0000 1.0000
43.9000 368.0000 1.0000
43.9100 372.0000 1.0000
43.9200 394.0000 1.0000
43.9300 393.0000 1.0000
43.9400 389.0000 1.0000
43.9500 401.0000 1.0000
43.9600 424.0000 1.0000
43.9700 397.0000 1.0000
43.9800 380.0000 1.0000
43.9900 368.0000 1.0000
44.0000 360.0000 1.0000
44.0100 409.0000 1.0000
44.0200 389.0000 1.0000
44.0300 389.0000 1.0000
44.0400 421.0000 1.0000
44.0500 387.0000 1.0000
44.0600 439.0000 1.0000
44.0700 435.0000 1.0000
44.0800 415.0000 1.0000
44.0900 394.0000 1.0000
44.1000 368.0000 1.0000
44.1100 391.0000 1.0000
44.1200 412.0000 1.0000
44.1300 393.0000 1.0000
44.1400 400.0000 1.0000
44.1500 395.0000 1.0000
44.1600 381.0000 1.0000
44.1700 344.0000 1.0000
44.1800 375.0000 1.0000
44.1900 408.0000 1.0000
44.2000 422.0000 1.0000
44.2100 439.0000 1.0000
44.2200 410.0000 1.0000
44.2300 374.0000 1.0000
44.2400 398.0000 1.0000
44.2500 390.0000 1.0000
44.2600 398.0000 1.0000
44.2700 387.0000 1.0000
44.2800 400.0000 1.0000
44.2900 390.0000 1.0000
44.3000 376.0000 1.0000
44.3100 405.0000 1.0000
44.3200 419.0000 1.0000
44.3300 393.0000 1.0000
44.3400 385.0000 1.0000
44.3500 414.0000 1.0000
44.3600 400.0000 1.0000
44.3700 394.0000 1.0000
44.3800 410.0000 1.0000
44.3900 421.0000 1.0000
44.4000 374.0000 1.0000
44.4100 403.0000 1.0000
44.4200 365.0000 1.0000
44.4300 393.0000 1.0000
44.4400 401.0000 1.0000
44.4500 369.0000 1.0000
44.4600 398.0000 1.0000
44.4700 432.0000 1.0000
44.4800 421.0000 1.0000
44.4900 357.0000 1.0000
44.5000 405.0000 1.0000
44.5100 393.0000 1.0000
44.5200 396.0000 1.0000
44.5300 408.0000 1.0000
44.5400 385.0000 1.0000
44.5500 409.0000 1.0000
44.5600 403.0000 1.0000
44.5700 375.0000 1.0000
44.5800 373.0000 1.0000
44.5900 371.0000 1.0000
44.6000 388.0000 1.0000
44.6100 382.0000 1.0000
44.6200 419.0000 1.0000
44.6300 362.0000 1.0000
44.6400 427.0000 1.0000
44.6500 396.0000 1.0000
44.6600 397.0000 1.0000
44.6700 360.0000 1.0000
44.6800 404.0000 1.0000
44.6900 379.0000 1.0000
44.7000 395.0000 1.0000
44.7100 373.0000 1.0000
44.7200 411.0000 1.0000
44.7300 372.0000 1.0000
44.7400 391.0000 1.0000
44.7500 365.0000 1.0000
44.7600 370.0000 1.0000
44.7700 382.0000 1.0000
44.7800 409.0000 1.0000
44.7900 367.0000 1.0000
44.8000 392.0000 1.0000
44.8100 385.0000 1.0000
44.8200 394.0000 1.0000
44.8300 428.0000 1.0000
44.8400 411.0000 1.0000
44.8500 381.0000 1.0000
44.8600 400.0000 1.0000
44.8700 412.0000 1.0000
44.8800 373.0000 1.0000
44.8900 376.0000 1.0000
44.9000 396.0000 1.0000
44.9100 398.0000 1.0000
44.9200 423.0000 1.0000
44.9300 381.0000 1.0000
44.9400 366.0000 1.0000
44.9500 387.0000 1.0000
44.9600 376.0000 1.0000
44.9700 398.0000 1.0000
44.9800 389.0000 1.0000
44.9900 393.0000 1.0000
45.0000 391.0000 1.0000
45.0100 410.0000 1.0000
45.0200 384.0000 1.0000
45.0300 405.0000 1.0000
45.0400 368.0000 1.0000
45.0500 406.0000 1.0000
45.0600 384.0000 1.0000
45.0700 406.0000 1.0000
45.0800 404.0000 1.0000
45.0900 406.0000 1.0000
45.1000 391.0000 1.0000
45.1100 409.0000 1.0000
45.1200 418.0000 1.0000
45.1300 403.0000 1.0000
45.1400 388.0000 1.0000
45.1500 385.0000 1.0000
45.1600 388.0000 1.0000
45.1700 382.0000 1.0000
45.1800 384.0000 1.0000
45.1900 403.0000 1.0000
45.2000 375.0000 1.0000
45.2100 368.0000 1.0000
45.2200 413.0000 1.0000
45.2300 382.0000 1.0000
45.2400 409.0000 1.0000
45.2500 376.0000 1.0000
45.2600 363.0000 1.0000
45.2700 374.0000 1.0000
45.2800 397.0000 1.0000
45.2900 367.0000 1.0000
45.3000 398.0000 1.0000
45.3100 380.0000 1.0000
45.3200 376.0000 1.0000
45.3300 422.0000 1.0000
45.3400 383.0000 1.0000
45.3500 378.0000 1.0000
45.3600 378.0000 1.0000
45.3700 364.0000 1.0000
45.3800 382.0000 1.0000
45.3900 376.0000 1.0000
45.4000 395.0000 1.0000
45.4100 380.0000 1.0000
45.4200 415.0000 1.0000
45.4300 375.0000 1.0000
45.4400 385.0000 1.0000
45.4500 400.0000 1.0000
45.4600 389.0000 1.0000
45.4700 401.0000 1.0000
45.4800 356.0000 1.0000
45.4900 378.0000 1.0000
45.5000 385.0000 1.0000
45.5100 388.0000 1.0000
45.5200 368.0000 1.0000
45.5300 388.0000 1.0000
45.5400 422.0000 1.0000
45.5500 381.0000 1.0000
45.5600 388.0000 1.0000
45.5700 377.0000 1.0000
45.5800 374.0000 1.0000
45.5900 361.0000 1.0000
45.6000 383.0000 1.0000
45.6100 388.0000 1.0000
45.6200 363.0000 1.0000
45.6300 392.0000 1.0000
45.6400 402.0000 1.0000
45.6500 380.0000 1.0000
45.6600 390.0000 1.0000
45.6700 411.0000 1.0000
45.6800 404.0000 1.0000
45.6900 363.0000 1.0000
45.7000 337.0000 1.0000
45.7100 387.0000 1.0000
45.7200 392.0000 1.0000
45.7300 383.0000 1.0000
45.7400 387.0000 1.0000
45.7500 365.0000 1.0000
45.7600 406.0000 1.0000
45.7700 398.0000 1.0000
45.7800 361.0000 1.0000
45.7900 378.0000 1.0000
45.8000 368.0000 1.0000
45.8100 383.0000 1.0000
45.8200 375.0000 1.0000
45.8300 358.0000 1.0000
45.8400 385.0000 1.0000
45.8500 376.0000 1.0000
45.8600 394.0000 1.0000
45.8700 356.0000 1.0000
45.8800 387.0000 1.0000
45.8900 351.0000 1.0000
45.9000 376.0000 1.0000
45.9100 378.0000 1.0000
45.9200 375.0000 1.0000
45.9300 353.0000 1.0000
45.9400 388.0000 1.0000
45.9500 379.0000 1.0000
45.9600 404.0000 1.0000
45.9700 388.0000 1.0000
45.9800 401.0000 1.0000
45.9900 414.0000 1.0000
46.0000 384.0000 1.0000
46.0100 384.0000 1.0000
46.0200 356.0000 1.0000
46.0300 370.0000 1.0000
46.0400 390.0000 1.0000
46.0500 404.0000 1.0000
46.0600 415.0000 1.0000
46.0700 397.0000 1.0000
46.0800 369.0000 1.0000
46.0900 345.0000 1.0000
46.1000 374.0000 1.0000
46.1100 370.0000 1.0000
46.1200 365.0000 1.0000
46.1300 405.0000 1.0000
46.1400 365.0000 1.0000
46.1500 394.0000 1.0000
46.1600 394.0000 1.0000
46.1700 396.0000 1.0000
46.1800 395.0000 1.0000
46.1900 390.0000 1.0000
46.2000 365.0000 1.0000
46.2100 352.0000 1.0000
46.2200 409.0000 1.0000
46.2300 399.0000 1.0000
46.2400 409.0000 1.0000
46.2500 363.0000 1.0000
46.2600 361.0000 1.0000
46.2700 380.0000 1.0000
46.2800 400.0000 1.0000
46.2900 369.0000 1.0000
46.3000 393.0000 1.0000
46.3100 364.0000 1.0000
46.3200 374.0000 1.0000
46.3300 392.0000 1.0000
46.3400 401.0000 1.0000
46.3500 346.0000 1.0000
46.3600 388.0000 1.0000
46.3700 404.0000 1.0000
46.3800 365.0000 1.0000
46.3900 384.0000 1.0000
46.4000 384.0000 1.0000
46.4100 391.0000 1.0000
46.4200 387.0000 1.0000
46.4300 355.0000 1.0000
46.4400 379.0000 1.0000
46.4500 383.0000 1.0000
46.4600 380.0000 1.0000
46.4700 391.0000 1.0000
46.4800 375.0000 1.0000
46.4900 358.0000 1.0000
46.5000 347.0000 1.0000
46.5100 400.0000 1.0000
46.5200 379.0000 1.0000
46.5300 388.0000 1.0000
46.5400 409.0000 1.0000
46.5500 343.0000 1.0000
46.5600 340.0000 1.0000
46.5700 375.0000 1.0000
46.5800 374.0000 1.0000
46.5900 374.0000 1.0000
46.6000 362.0000 1.0000
46.6100 356.0000 1.0000
46.6200 384.0000 1.0000
46.6300 375.0000 1.0000
46.6400 384.0000 1.0000
46.6500 382.0000 1.0000
46.6600 398.0000 1.0000
46.6700 385.0000 1.0000
46.6800 347.0000 1.0000
46.6900 378.0000 1.0000
46.7000 401.0000 1.0000
46.7100 361.0000 1.0000
46.7200 353.0000 1.0000
46.7300 376.0000 1.0000
46.7400 344.0000 1.0000
46.7500 382.0000 1.0000
46.7600 352.0000 1.0000
46.7700 376.0000 1.0000
46.7800 401.0000 1.0000
46.7900 360.0000 1.0000
46.8000 405.0000 1.0000
46.8100 365.0000 1.0000
46.8200 366.0000 1.0000
46.8300 368.0000 1.0000
46.8400 390.0000 1.0000
46.8500 378.0000 1.0000
46.8600 354.0000 1.0000
46.8700 363.0000 1.0000
46.8800 355.0000 1.0000
46.8900 374.0000 1.0000
46.9000 382.0000 1.0000
46.9100 366.0000 1.0000
46.9200 362.0000 1.0000
46.9300 382.0000 1.0000
46.9400 377.0000 1.0000
46.9500 370.0000 1.0000
46.9600 406.0000 1.0000
46.9700 361.0000 1.0000
46.9800 350.0000 1.0000
46.9900 390.0000 1.0000
47.0000 358.0000 1.0000
47.0100 369.0000 1.0000
47.0200 362.0000 1.0000
47.0300 359.0000 1.0000
47.0400 369.0000 1.0000
47.0500 351.0000 1.0000
47.0600 377.0000 1.0000
47.0700 371.0000 1.0000
47.0800 369.0000 1.0000
47.0900 358.0000 1.0000
47.1000 363.0000 1.0000
47.1100 370.0000 1.0000
47.1200 379.0000 1.0000
47.1300 358.0000 1.0000
47.1400 360.0000 1.0000
47.1500 341.0000 1.0000
47.1600 348.0000 1.0000
47.1700 331.0000 1.0000
47.1800 340.0000 1.0000
47.1900 382.0000 1.0000
47.2000 361.0000 1.0000
47.2100 364.0000 1.0000
47.2200 357.0000 1.0000
47.2300 368.0000 1.0000
47.2400 396.0000 1.0000
47.2500 378.0000 1.0000
47.2600 332.0000 1.0000
47.2700 363.0000 1.0000
47.2800 379.0000 1.0000
47.2900 327.0000 1.0000
47.3000 377.0000 1.0000
47.3100 374.0000 1.0000
47.3200 344.0000 1.0000
47.3300 373.0000 1.0000
47.3400 373.0000 1.0000
47.3500 368.0000 1.0000
47.3600 392.0000 1.0000
47.3700 348.0000 1.0000
47.3800 341.0000 1.0000
47.3900 367.0000 1.0000
47.4000 361.0000 1.0000
47.4100 347.0000 1.0000
47.4200 379.0000 1.0000
47.4300 378.0000 1.0000
47.4400 359.0000 1.0000
47.4500 364.0000 1.0000
47.4600 359.0000 1.0000
47.4700 335.0000 1.0000
47.4800 373.0000 1.0000
47.4900 353.0000 1.0000
47.5000 355.0000 1.0000
47.5100 351.0000 1.0000
47.5200 338.0000 1.0000
47.5300 330.0000 1.0000
47.5400 366.0000 1.0000
47.5500 359.0000 1.0000
47.5600 354.0000 1.0000
47.5700 355.0000 1.0000
47.5800 370.0000 1.0000
47.5900 376.0000 1.0000
47.6000 365.0000 1.0000
47.6100 383.0000 1.0000
47.6200 362.0000 1.0000
47.6300 376.0000 1.0000
47.6400 365.0000 1.0000
47.6500 343.0000 1.0000
47.6600 382.0000 1.0000
47.6700 366.0000 1.0000
47.6800 385.0000 1.0000
47.6900 375.0000 1.0000
47.7000 368.0000 1.0000
47.7100 366.0000 1.0000
47.7200 350.0000 1.0000
47.7300 362.0000 1.0000
47.7400 351.0000 1.0000
47.7500 347.0000 1.0000
47.7600 365.0000 1.0000
47.7700 357.0000 1.0000
47.7800 357.0000 1.0000
47.7900 376.0000 1.0000
47.8000 380.0000 1.0000
47.8100 366.0000 1.0000
47.8200 342.0000 1.0000
47.8300 353.0000 1.0000
47.8400 363.0000 1.0000
47.8500 340.0000 1.0000
47.8600 326.0000 1.0000
47.8700 373.0000 1.0000
47.8800 363.0000 1.0000
47.8900 383.0000 1.0000
47.9000 374.0000 1.0000
47.9100 367.0000 1.0000
47.9200 350.0000 1.0000
47.9300 347.0000 1.0000
47.9400 344.0000 1.0000
47.9500 338.0000 1.0000
47.9600 365.0000 1.0000
47.9700 367.0000 1.0000
47.9800 361.0000 1.0000
47.9900 362.0000 1.0000
48.0000 367.0000 1.0000
48.0100 362.0000 1.0000
48.0200 374.0000 1.0000
48.0300 352.0000 1.0000
48.0400 348.0000 1.0000
48.0500 379.0000 1.0000
48.0600 362.0000 1.0000
48.0700 357.0000 1.0000
48.0800 347.0000 1.0000
48.0900 351.0000 1.0000
48.1000 339.0000 1.0000
48.1100 370.0000 1.0000
48.1200 346.0000 1.0000
48.1300 374.0000 1.0000
48.1400 359.0000 1.0000
48.1500 382.0000 1.0000
48.1600 344.0000 1.0000
48.1700 336.0000 1.0000
48.1800 355.0000 1.0000
48.1900 356.0000 1.0000
48.2000 338.0000 1.0000
48.2100 353.0000 1.0000
48.2200 350.0000 1.0000
48.2300 351.0000 1.0000
48.2400 357.0000 1.0000
48.2500 373.0000 1.0000
48.2600 373.0000 1.0000
48.2700 336.0000 1.0000
48.2800 342.0000 1.0000
48.2900 369.0000 1.0000
48.3000 356.0000 1.0000
48.3100 377.0000 1.0000
48.3200 344.0000 1.0000
48.3300 371.0000 1.0000
48.3400 364.0000 1.0000
48.3500 358.0000 1.0000
48.3600 351.0000 1.0000
48.3700 371.0000 1.0000
48.3800 314.0000 1.0000
48.3900 332.0000 1.0000
48.4000 357.0000 1.0000
48.4100 353.0000 1.0000
48.4200 371.0000 1.0000
48.4300 354.0000 1.0000
48.4400 349.0000 1.0000
48.4500 323.0000 1.0000
48.4600 359.0000 1.0000
48.4700 348.0000 1.0000
48.4800 351.0000 1.0000
48.4900 353.0000 1.0000
48.5000 380.0000 1.0000
48.5100 358.0000 1.0000
48.5200 346.0000 1.0000
48.5300 369.0000 1.0000
48.5400 350.0000 1.0000
48.5500 362.0000 1.0000
48.5600 351.0000 1.0000
48.5700 382.0000 1.0000
48.5800 334.0000 1.0000
48.5900 384.0000 1.0000
48.6000 378.0000 1.0000
48.6100 379.0000 1.0000
48.6200 366.0000 1.0000
48.6300 343.0000 1.0000
48.6400 352.0000 1.0000
48.6500 364.0000 1.0000
48.6600 349.0000 1.0000
48.6700 346.0000 1.0000
48.6800 342.0000 1.0000
48.6900 372.0000 1.0000
48.7000 366.0000 1.0000
48.7100 367.0000 1.0000
48.7200 352.0000 1.0000
48.7300 350.0000 1.0000
48.7400 387.0000 1.0000
48.7500 382.0000 1.0000
48.7600 334.0000 1.0000
48.7700 323.0000 1.0000
48.7800 356.0000 1.0000
48.7900 381.0000 1.0000
48.8000 398.0000 1.0000
48.8100 346.0000 1.0000
48.8200 334.0000 1.0000
48.8300 362.0000 1.0000
48.8400 345.0000 1.0000
48.8500 355.0000 1.0000
48.8600 352.0000 1.0000
48.8700 355.0000 1.0000
48.8800 340.0000 1.0000
48.8900 359.0000 1.0000
48.9000 338.0000 1.0000
48.9100 324.0000 1.0000
48.9200 353.0000 1.0000
48.9300 366.0000 1.0000
48.9400 344.0000 1.0000
48.9500 353.0000 1.0000
48.9600 367.0000 1.0000
48.9700 365.0000 1.0000
48.9800 335.0000 1.0000
48.9900 364.0000 1.0000
49.0000 373.0000 1.0000
49.0100 355.0000 1.0000
49.0200 374.0000 1.0000
49.0300 337.0000 1.0000
49.0400 352.0000 1.0000
49.0500 352.0000 1.0000
49.0600 364.0000 1.0000
49.0700 390.0000 1.0000
49.0800 355.0000 1.0000
49.0900 403.0000 1.0000
49.1000 370.0000 1.0000
49.1100 349.0000 1.0000
49.1200 331.0000 1.0000
49.1300 362.0000 1.0000
49.1400 343.0000 1.0000
49.1500 341.0000 1.0000
49.1600 364.0000 1.0000
49.1700 389.0000 1.0000
49.1800 359.0000 1.0000
49.1900 343.0000 1.0000
49.2000 335.0000 1.0000
49.2100 353.0000 1.0000
49.2200 367.0000 1.0000
49.2300 352.0000 1.0000
49.2400 356.0000 1.0000
49.2500 346.0000 1.0000
49.2600 328.0000 1.0000
49.2700 372.0000 1.0000
49.2800 346.0000 1.0000
49.2900 393.0000 1.0000
49.3000 361.0000 1.0000
49.3100 356.0000 1.0000
49.3200 351.0000 1.0000
49.3300 360.0000 1.0000
49.3400 373.0000 1.0000
49.3500 420.0000 1.0000
49.3600 434.0000 1.0000
49.3700 397.0000 1.0000
49.3800 434.0000 1.0000
49.3900 409.0000 1.0000
49.4000 405.0000 1.0000
49.4100 393.0000 1.0000
49.4200 399.0000 1.0000
49.4300 397.0000 1.0000
49.4400 411.0000 1.0000
49.4500 374.0000 1.0000
49.4600 392.0000 1.0000
49.4700 364.0000 1.0000
49.4800 412.0000 1.0000
49.4900 384.0000 1.0000
49.5000 391.0000 1.0000
49.5100 384.0000 1.0000
49.5200 374.0000 1.0000
49.5300 380.0000 1.0000
49.5400 387.0000 1.0000
49.5500 411.0000 1.0000
49.5600 379.0000 1.0000
49.5700 372.0000 1.0000
49.5800 406.0000 1.0000
49.5900 370.0000 1.0000
49.6000 378.0000 1.0000
49.6100 378.0000 1.0000
49.6200 368.0000 1.0000
49.6300 395.0000 1.0000
49.6400 395.0000 1.0000
49.6500 374.0000 1.0000
49.6600 332.0000 1.0000
49.6700 376.0000 1.0000
49.6800 368.0000 1.0000
49.6900 368.0000 1.0000
49.7000 337.0000 1.0000
49.7100 369.0000 1.0000
49.7200 367.0000 1.0000
49.7300 360.0000 1.0000
49.7400 358.0000 1.0000
49.7500 367.0000 1.0000
49.7600 370.0000 1.0000
49.7700 375.0000 1.0000
49.7800 399.0000 1.0000
49.7900 393.0000 1.0000
49.8000 383.0000 1.0000
49.8100 359.0000 1.0000
49.8200 371.0000 1.0000
49.8300 399.0000 1.0000
49.8400 358.0000 1.0000
49.8500 340.0000 1.0000
49.8600 359.0000 1.0000
49.8700 368.0000 1.0000
49.8800 367.0000 1.0000
49.8900 364.0000 1.0000
49.9000 385.0000 1.0000
49.9100 380.0000 1.0000
49.9200 377.0000 1.0000
49.9300 370.0000 1.0000
49.9400 393.0000 1.0000
49.9500 376.0000 1.0000
49.9600 343.0000 1.0000
49.9700 364.0000 1.0000
49.9800 383.0000 1.0000
49.9900 359.0000 1.0000
50.0000 370.0000 1.0000
50.0100 363.0000 1.0000
50.0200 349.0000 1.0000
50.0300 342.0000 1.0000
50.0400 350.0000 1.0000
50.0500 360.0000 1.0000
50.0600 370.0000 1.0000
50.0700 378.0000 1.0000
50.0800 378.0000 1.0000
50.0900 343.0000 1.0000
50.1000 361.0000 1.0000
50.1100 338.0000 1.0000
50.1200 332.0000 1.0000
50.1300 338.0000 1.0000
50.1400 346.0000 1.0000
50.1500 360.0000 1.0000
50.1600 335.0000 1.0000
50.1700 359.0000 1.0000
50.1800 364.0000 1.0000
50.1900 353.0000 1.0000
50.2000 365.0000 1.0000
50.2100 345.0000 1.0000
50.2200 359.0000 1.0000
50.2300 348.0000 1.0000
50.2400 358.0000 1.0000
50.2500 340.0000 1.0000
50.2600 340.0000 1.0000
50.2700 363.0000 1.0000
50.2800 339.0000 1.0000
50.2900 372.0000 1.0000
50.3000 347.0000 1.0000
50.3100 341.0000 1.0000
50.3200 359.0000 1.0000
50.3300 348.0000 1.0000
50.3400 350.0000 1.0000
50.3500 368.0000 1.0000
50.3600 313.0000 1.0000
50.3700 346.0000 1.0000
50.3800 382.0000 1.0000
50.3900 382.0000 1.0000
50.4000 400.0000 1.0000
50.4100 350.0000 1.0000
50.4200 358.0000 1.0000
50.4300 369.0000 1.0000
50.4400 348.0000 1.0000
50.4500 407.0000 1.0000
50.4600 371.0000 1.0000
50.4700 365.0000 1.0000
50.4800 339.0000 1.0000
50.4900 402.0000 1.0000
50.5000 351.0000 1.0000
50.5100 368.0000 1.0000
50.5200 350.0000 1.0000
50.5300 353.0000 1.0000
50.5400 368.0000 1.0000
50.5500 379.0000 1.0000
50.5600 365.0000 1.0000
50.5700 396.0000 1.0000
50.5800 382.0000 1.0000
50.5900 400.0000 1.0000
50.6000 349.0000 1.0000
50.6100 363.0000 1.0000
50.6200 349.0000 1.0000
50.6300 359.0000 1.0000
50.6400 352.0000 1.0000
50.6500 352.0000 1.0000
50.6600 370.0000 1.0000
50.6700 366.0000 1.0000
50.6800 381.0000 1.0000
50.6900 369.0000 1.0000
50.7000 373.0000 1.0000
50.7100 376.0000 1.0000
50.7200 358.0000 1.0000
50.7300 362.0000 1.0000
50.7400 347.0000 1.0000
50.7500 354.0000 1.0000
50.7600 353.0000 1.0000
50.7700 392.0000 1.0000
50.7800 389.0000 1.0000
50.7900 378.0000 1.0000
50.8000 362.0000 1.0000
50.8100 372.0000 1.0000
50.8200 383.0000 1.0000
50.8300 385.0000 1.0000
50.8400 386.0000 1.0000
50.8500 371.0000 1.0000
50.8600 342.0000 1.0000
50.8700 355.0000 1.0000
50.8800 346.0000 1.0000
50.8900 352.0000 1.0000
50.9000 344.0000 1.0000
50.9100 376.0000 1.0000
50.9200 391.0000 1.0000
50.9300 377.0000 1.0000
50.9400 391.0000 1.0000
50.9500 372.0000 1.0000
50.9600 380.0000 1.0000
50.9700 392.0000 1.0000
50.9800 388.0000 1.0000
50.9900 342.0000 1.0000
51.0000 369.0000 1.0000
51.0100 382.0000 1.0000
51.0200 399.0000 1.0000
51.0300 400.0000 1.0000
51.0400 409.0000 1.0000
51.0500 413.0000 1.0000
51.0600 414.0000 1.0000
51.0700 425.0000 1.0000
51.0800 398.0000 1.0000
51.0900 419.0000 1.0000
51.1000 401.0000 1.0000
51.1100 449.0000 1.0000
51.1200 444.0000 1.0000
51.1300 463.0000 1.0000
51.1400 440.0000 1.0000
51.1500 452.0000 1.0000
51.1600 473.0000 1.0000
51.1700 477.0000 1.0000
51.1800 531.0000 1.0000
51.1900 525.0000 1.0000
51.2000 566.0000 1.0000
51.2100 550.0000 1.0000
51.2200 545.0000 1.0000
51.2300 572.0000 1.0000
51.2400 616.0000 1.0000
51.2500 649.0000 1.0000
51.2600 632.0000 1.0000
51.2700 664.0000 1.0000
51.2800 688.0000 1.0000
51.2900 750.0000 1.0000
51.3000 764.0000 1.0000
51.3100 789.0000 1.0000
51.3200 908.0000 1.0000
51.3300 861.0000 1.0000
51.3400 995.0000 1.0000
51.3500 1042.0000 1.0000
51.3600 1155.0000 1.0000
51.3700 1233.0000 1.0000
51.3800 1342.0000 1.0000
51.3900 1442.0000 1.0000
51.4000 1635.0000 1.0000
51.4100 1660.0000 1.0000
51.4200 1773.0000 1.0000
51.4300 1962.0000 1.0000
51.4400 2034.0000 1.0000
51.4500 2135.0000 1.0000
51.4600 2286.0000 1.0000
51.4700 2283.0000 1.0000
51.4800 2288.0000 1.0000
51.4900 2344.0000 1.0000
51.5000 2324.0000 1.0000
51.5100 2252.0000 1.0000
51.5200 2150.0000 1.0000
51.5300 2063.0000 1.0000
51.5400 2016.0000 1.0000
51.5500 1891.0000 1.0000
51.5600 1841.0000 1.0000
51.5700 1838.0000 1.0000
51.5800 1808.0000 1.0000
51.5900 1750.0000 1.0000
51.6000 1697.0000 1.0000
51.6100 1640.0000 1.0000
51.6200 1594.0000 1.0000
51.6300 1572.0000 1.0000
51.6400 1516.0000 1.0000
51.6500 1360.0000 1.0000
51.6600 1313.0000 1.0000
51.6700 1206.0000 1.0000
51.6800 1111.0000 1.0000
51.6900 1041.0000 1.0000
51.7000 998.0000 1.0000
51.7100 903.0000 1.0000
51.7200 828.0000 1.0000
51.7300 800.0000 1.0000
51.7400 747.0000 1.0000
51.7500 757.0000 1.0000
51.7600 681.0000 1.0000
51.7700 650.0000 1.0000
51.7800 587.0000 1.0000
51.7900 593.0000 1.0000
51.8000 608.0000 1.0000
51.8100 583.0000 1.0000
51.8200 525.0000 1.0000
51.8300 557.0000 1.0000
51.8400 498.0000 1.0000
51.8500 495.0000 1.0000
51.8600 520.0000 1.0000
51.8700 490.0000 1.0000
51.8800 518.0000 1.0000
51.8900 477.0000 1.0000
51.9000 464.0000 1.0000
51.9100 454.0000 1.0000
51.9200 462.0000 1.0000
51.9300 472.0000 1.0000
51.9400 418.0000 1.0000
51.9500 454.0000 1.0000
51.9600 444.0000 1.0000
51.9700 401.0000 1.0000
51.9800 438.0000 1.0000
51.9900 395.0000 1.0000
52.0000 382.0000 1.0000
52.0100 410.0000 1.0000
52.0200 411.0000 1.0000
52.0300 405.0000 1.0000
52.0400 415.0000 1.0000
52.0500 400.0000 1.0000
52.0600 389.0000 1.0000
52.0700 378.0000 1.0000
52.0800 402.0000 1.0000
52.0900 396.0000 1.0000
52.1000 422.0000 1.0000
52.1100 399.0000 1.0000
52.1200 360.0000 1.0000
52.1300 387.0000 1.0000
52.1400 384.0000 1.0000
52.1500 359.0000 1.0000
52.1600 425.0000 1.0000
52.1700 374.0000 1.0000
52.1800 399.0000 1.0000
52.1900 381.0000 1.0000
52.2000 378.0000 1.0000
52.2100 363.0000 1.0000
52.2200 373.0000 1.0000
52.2300 382.0000 1.0000
52.2400 346.0000 1.0000
52.2500 364.0000 1.0000
52.2600 385.0000 1.0000
52.2700 382.0000 1.0000
52.2800 412.0000 1.0000
52.2900 358.0000 1.0000
52.3000 407.0000 1.0000
52.3100 365.0000 1.0000
52.3200 374.0000 1.0000
52.3300 355.0000 1.0000
52.3400 359.0000 1.0000
52.3500 374.0000 1.0000
52.3600 370.0000 1.0000
52.3700 355.0000 1.0000
52.3800 377.0000 1.0000
52.3900 355.0000 1.0000
52.4000 345.0000 1.0000
52.4100 373.0000 1.0000
52.4200 345.0000 1.0000
52.4300 365.0000 1.0000
52.4400 334.0000 1.0000
52.4500 360.0000 1.0000
52.4600 363.0000 1.0000
52.4700 374.0000 1.0000
52.4800 370.0000 1.0000
52.4900 341.0000 1.0000
52.5000 378.0000 1.0000
52.5100 359.0000 1.0000
52.5200 345.0000 1.0000
52.5300 379.0000 1.0000
52.5400 369.0000 1.0000
52.5500 351.0000 1.0000
52.5600 373.0000 1.0000
52.5700 375.0000 1.0000
52.5800 335.0000 1.0000
52.5900 349.0000 1.0000
52.6000 359.0000 1.0000
52.6100 348.0000 1.0000
52.6200 340.0000 1.0000
52.6300 330.0000 1.0000
52.6400 350.0000 1.0000
52.6500 372.0000 1.0000
52.6600 370.0000 1.0000
52.6700 351.0000 1.0000
52.6800 329.0000 1.0000
52.6900 344.0000 1.0000
52.7000 365.0000 1.0000
52.7100 329.0000 1.0000
52.7200 338.0000 1.0000
52.7300 334.0000 1.0000
52.7400 367.0000 1.0000
52.7500 372.0000 1.0000
52.7600 354.0000 1.0000
52.7700 355.0000 1.0000
52.7800 345.0000 1.0000
52.7900 349.0000 1.0000
52.8000 341.0000 1.0000
52.8100 354.0000 1.0000
52.8200 340.0000 1.0000
52.8300 323.0000 1.0000
52.8400 348.0000 1.0000
52.8500 338.0000 1.0000
52.8600 345.0000 1.0000
52.8700 380.0000 1.0000
52.8800 363.0000 1.0000
52.8900 340.0000 1.0000
52.9000 333.0000 1.0000
52.9100 353.0000 1.0000
52.9200 319.0000 1.0000
52.9300 340.0000 1.0000
52.9400 356.0000 1.0000
52.9500 345.0000 1.0000
52.9600 323.0000 1.0000
52.9700 321.0000 1.0000
52.9800 329.0000 1.0000
52.9900 361.0000 1.0000
53.0000 357.0000 1.0000
53.0100 364.0000 1.0000
53.0200 324.0000 1.0000
53.0300 343.0000 1.0000
53.0400 369.0000 1.0000
53.0500 354.0000 1.0000
53.0600 363.0000 1.0000
53.0700 370.0000 1.0000
53.0800 354.0000 1.0000
53.0900 366.0000 1.0000
53.1000 337.0000 1.0000
53.1100 369.0000 1.0000
53.1200 344.0000 1.0000
53.1300 352.0000 1.0000
53.1400 349.0000 1.0000
53.1500 325.0000 1.0000
53.1600 336.0000 1.0000
53.1700 348.0000 1.0000
53.1800 336.0000 1.0000
53.1900 346.0000 1.0000
53.2000 340.0000 1.0000
53.2100 346.0000 1.0000
53.2200 336.0000 1.0000
53.2300 327.0000 1.0000
53.2400 349.0000 1.0000
53.2500 343.0000 1.0000
53.2600 338.0000 1.0000
53.2700 386.0000 1.0000
53.2800 334.0000 1.0000
53.2900 355.0000 1.0000
53.3000 331.0000 1.0000
53.3100 352.0000 1.0000
53.3200 358.0000 1.0000
53.3300 323.0000 1.0000
53.3400 341.0000 1.0000
53.3500 350.0000 1.0000
53.3600 324.0000 1.0000
53.3700 350.0000 1.0000
53.3800 318.0000 1.0000
53.3900 310.0000 1.0000
53.4000 319.0000 1.0000
53.4100 330.0000 1.0000
53.4200 368.0000 1.0000
53.4300 327.0000 1.0000
53.4400 363.0000 1.0000
53.4500 339.0000 1.0000
53.4600 327.0000 1.0000
53.4700 333.0000 1.0000
53.4800 328.0000 1.0000
53.4900 346.0000 1.0000
53.5000 358.0000 1.0000
53.5100 357.0000 1.0000
53.5200 364.0000 1.0000
53.5300 343.0000 1.0000
53.5400 355.0000 1.0000
53.5500 395.0000 1.0000
53.5600 342.0000 1.0000
53.5700 328.0000 1.0000
53.5800 355.0000 1.0000
53.5900 337.0000 1.0000
53.6000 330.0000 1.0000
53.6100 347.0000 1.0000
53.6200 319.0000 1.0000
53.6300 320.0000 1.0000
53.6400 347.0000 1.0000
53.6500 376.0000 1.0000
53.6600 337.0000 1.0000
53.6700 340.0000 1.0000
53.6800 316.0000 1.0000
53.6900 361.0000 1.0000
53.7000 341.0000 1.0000
53.7100 317.0000 1.0000
53.7200 316.0000 1.0000
53.7300 389.0000 1.0000
53.7400 350.0000 1.0000
53.7500 352.0000 1.0000
53.7600 377.0000 1.0000
53.7700 358.0000 1.0000
53.7800 329.0000 1.0000
53.7900 344.0000 1.0000
53.8000 331.0000 1.0000
53.8100 354.0000 1.0000
53.8200 375.0000 1.0000
53.8300 367.0000 1.0000
53.8400 355.0000 1.0000
53.8500 363.0000 1.0000
53.8600 343.0000 1.0000
53.8700 340.0000 1.0000
53.8800 347.0000 1.0000
53.8900 372.0000 1.0000
53.9000 378.0000 1.0000
53.9100 369.0000 1.0000
53.9200 356.0000 1.0000
53.9300 379.0000 1.0000
53.9400 370.0000 1.0000
53.9500 397.0000 1.0000
53.9600 376.0000 1.0000
53.9700 374.0000 1.0000
53.9800 384.0000 1.0000
53.9900 384.0000 1.0000
54.0000 384.0000 1.0000
54.0100 419.0000 1.0000
54.0200 376.0000 1.0000
54.0300 362.0000 1.0000
54.0400 361.0000 1.0000
54.0500 382.0000 1.0000
54.0600 358.0000 1.0000
54.0700 381.0000 1.0000
54.0800 370.0000 1.0000
54.0900 380.0000 1.0000
54.1000 391.0000 1.0000
54.1100 402.0000 1.0000
54.1200 363.0000 1.0000
54.1300 385.0000 1.0000
54.1400 388.0000 1.0000
54.1500 348.0000 1.0000
54.1600 364.0000 1.0000
54.1700 362.0000 1.0000
54.1800 370.0000 1.0000
54.1900 396.0000 1.0000
54.2000 397.0000 1.0000
54.2100 377.0000 1.0000
54.2200 366.0000 1.0000
54.2300 352.0000 1.0000
54.2400 390.0000 1.0000
54.2500 367.0000 1.0000
54.2600 377.0000 1.0000
54.2700 371.0000 1.0000
54.2800 403.0000 1.0000
54.2900 393.0000 1.0000
54.3000 361.0000 1.0000
54.3100 386.0000 1.0000
54.3200 388.0000 1.0000
54.3300 399.0000 1.0000
54.3400 409.0000 1.0000
54.3500 414.0000 1.0000
54.3600 441.0000 1.0000
54.3700 426.0000 1.0000
54.3800 435.0000 1.0000
54.3900 455.0000 1.0000
54.4000 461.0000 1.0000
54.4100 447.0000 1.0000
54.4200 452.0000 1.0000
54.4300 448.0000 1.0000
54.4400 485.0000 1.0000
54.4500 483.0000 1.0000
54.4600 517.0000 1.0000
54.4700 511.0000 1.0000
54.4800 512.0000 1.0000
54.4900 499.0000 1.0000
54.5000 515.0000 1.0000
54.5100 559.0000 1.0000
54.5200 506.0000 1.0000
54.5300 534.0000 1.0000
54.5400 565.0000 1.0000
54.5500 505.0000 1.0000
54.5600 518.0000 1.0000
54.5700 482.0000 1.0000
54.5800 533.0000 1.0000
54.5900 510.0000 1.0000
54.6000 493.0000 1.0000
54.6100 526.0000 1.0000
54.6200 508.0000 1.0000
54.6300 474.0000 1.0000
54.6400 493.0000 1.0000
54.6500 452.0000 1.0000
54.6600 479.0000 1.0000
54.6700 470.0000 1.0000
54.6800 446.0000 1.0000
54.6900 411.0000 1.0000
54.7000 440.0000 1.0000
54.7100 447.0000 1.0000
54.7200 427.0000 1.0000
54.7300 417.0000 1.0000
54.7400 417.0000 1.0000
54.7500 415.0000 1.0000
54.7600 396.0000 1.0000
54.7700 391.0000 1.0000
54.7800 380.0000 1.0000
54.7900 393.0000 1.0000
54.8000 378.0000 1.0000
54.8100 377.0000 1.0000
54.8200 378.0000 1.0000
54.8300 364.0000 1.0000
54.8400 365.0000 1.0000
54.8500 348.0000 1.0000
54.8600 381.0000 1.0000
54.8700 356.0000 1.0000
54.8800 354.0000 1.0000
54.8900 362.0000 1.0000
54.9000 381.0000 1.0000
54.9100 376.0000 1.0000
54.9200 381.0000 1.0000
54.9300 355.0000 1.0000
54.9400 365.0000 1.0000
54.9500 374.0000 1.0000
54.9600 356.0000 1.0000
54.9700 362.0000 1.0000
54.9800 337.0000 1.0000
54.9900 340.0000 1.0000
55.0000 363.0000 1.0000
55.0100 369.0000 1.0000
55.0200 317.0000 1.0000
55.0300 337.0000 1.0000
55.0400 355.0000 1.0000
55.0500 340.0000 1.0000
55.0600 350.0000 1.0000
55.0700 347.0000 1.0000
55.0800 371.0000 1.0000
55.0900 318.0000 1.0000
55.1000 340.0000 1.0000
55.1100 323.0000 1.0000
55.1200 327.0000 1.0000
55.1300 355.0000 1.0000
55.1400 355.0000 1.0000
55.1500 332.0000 1.0000
55.1600 328.0000 1.0000
55.1700 345.0000 1.0000
55.1800 389.0000 1.0000
55.1900 328.0000 1.0000
55.2000 321.0000 1.0000
55.2100 345.0000 1.0000
55.2200 324.0000 1.0000
55.2300 331.0000 1.0000
55.2400 326.0000 1.0000
55.2500 340.0000 1.0000
55.2600 325.0000 1.0000
55.2700 342.0000 1.0000
55.2800 326.0000 1.0000
55.2900 333.0000 1.0000
55.3000 330.0000 1.0000
55.3100 322.0000 1.0000
55.3200 299.0000 1.0000
55.3300 312.0000 1.0000
55.3400 310.0000 1.0000
55.3500 340.0000 1.0000
55.3600 366.0000 1.0000
55.3700 334.0000 1.0000
55.3800 337.0000 1.0000
55.3900 365.0000 1.0000
55.4000 331.0000 1.0000
55.4100 345.0000 1.0000
55.4200 328.0000 1.0000
55.4300 311.0000 1.0000
55.4400 357.0000 1.0000
55.4500 347.0000 1.0000
55.4600 289.0000 1.0000
55.4700 310.0000 1.0000
55.4800 299.0000 1.0000
55.4900 329.0000 1.0000
55.5000 326.0000 1.0000
55.5100 340.0000 1.0000
55.5200 339.0000 1.0000
55.5300 335.0000 1.0000
55.5400 340.0000 1.0000
55.5500 341.0000 1.0000
55.5600 341.0000 1.0000
55.5700 332.0000 1.0000
55.5800 311.0000 1.0000
55.5900 330.0000 1.0000
55.6000 362.0000 1.0000
55.6100 327.0000 1.0000
55.6200 310.0000 1.0000
55.6300 335.0000 1.0000
55.6400 322.0000 1.0000
55.6500 332.0000 1.0000
55.6600 295.0000 1.0000
55.6700 306.0000 1.0000
55.6800 322.0000 1.0000
55.6900 318.0000 1.0000
55.7000 313.0000 1.0000
55.7100 327.0000 1.0000
55.7200 344.0000 1.0000
55.7300 334.0000 1.0000
55.7400 354.0000 1.0000
55.7500 332.0000 1.0000
55.7600 327.0000 1.0000
55.7700 337.0000 1.0000
55.7800 342.0000 1.0000
55.7900 338.0000 1.0000
55.8000 326.0000 1.0000
55.8100 317.0000 1.0000
55.8200 318.0000 1.0000
55.8300 320.0000 1.0000
55.8400 369.0000 1.0000
55.8500 316.0000 1.0000
55.8600 347.0000 1.0000
55.8700 305.0000 1.0000
55.8800 310.0000 1.0000
55.8900 335.0000 1.0000
55.9000 322.0000 1.0000
55.9100 323.0000 1.0000
55.9200 310.0000 1.0000
55.9300 317.0000 1.0000
55.9400 325.0000 1.0000
55.9500 344.0000 1.0000
55.9600 306.0000 1.0000
55.9700 299.0000 1.0000
55.9800 308.0000 1.0000
55.9900 326.0000 1.0000
56.0000 344.0000 1.0000
56.0100 310.0000 1.0000
56.0200 352.0000 1.0000
56.0300 354.0000 1.0000
56.0400 328.0000 1.0000
56.0500 320.0000 1.0000
56.0600 321.0000 1.0000
56.0700 371.0000 1.0000
56.0800 324.0000 1.0000
56.0900 333.0000 1.0000
56.1000 308.0000 1.0000
56.1100 339.0000 1.0000
56.1200 312.0000 1.0000
56.1300 330.0000 1.0000
56.1400 327.0000 1.0000
56.1500 326.0000 1.0000
56.1600 346.0000 1.0000
56.1700 368.0000 1.0000
56.1800 313.0000 1.0000
56.1900 348.0000 1.0000
56.2000 345.0000 1.0000
56.2100 328.0000 1.0000
56.2200 330.0000 1.0000
56.2300 339.0000 1.0000
56.2400 317.0000 1.0000
56.2500 326.0000 1.0000
56.2600 333.0000 1.0000
56.2700 316.0000 1.0000
56.2800 318.0000 1.0000
56.2900 317.0000 1.0000
56.3000 312.0000 1.0000
56.3100 350.0000 1.0000
56.3200 343.0000 1.0000
56.3300 326.0000 1.0000
56.3400 331.0000 1.0000
56.3500 342.0000 1.0000
56.3600 310.0000 1.0000
56.3700 317.0000 1.0000
56.3800 298.0000 1.0000
56.3900 296.0000 1.0000
56.4000 329.0000 1.0000
56.4100 330.0000 1.0000
56.4200 334.0000 1.0000
56.4300 333.0000 1.0000
56.4400 339.0000 1.0000
56.4500 343.0000 1.0000
56.4600 322.0000 1.0000
56.4700 327.0000 1.0000
56.4800 323.0000 1.0000
56.4900 317.0000 1.0000
56.5000 328.0000 1.0000
56.5100 337.0000 1.0000
56.5200 326.0000 1.0000
56.5300 296.0000 1.0000
56.5400 352.0000 1.0000
56.5500 361.0000 1.0000
56.5600 316.0000 1.0000
56.5700 319.0000 1.0000
56.5800 319.0000 1.0000
56.5900 328.0000 1.0000
56.6000 313.0000 1.0000
56.6100 331.0000 1.0000
56.6200 312.0000 1.0000
56.6300 322.0000 1.0000
56.6400 328.0000 1.0000
56.6500 350.0000 1.0000
56.6600 321.0000 1.0000
56.6700 296.0000 1.0000
56.6800 325.0000 1.0000
56.6900 348.0000 1.0000
56.7000 347.0000 1.0000
56.7100 343.0000 1.0000
56.7200 311.0000 1.0000
56.7300 341.0000 1.0000
56.7400 335.0000 1.0000
56.7500 323.0000 1.0000
56.7600 333.0000 1.0000
56.7700 317.0000 1.0000
56.7800 314.0000 1.0000
56.7900 330.0000 1.0000
56.8000 331.0000 1.0000
56.8100 331.0000 1.0000
56.8200 356.0000 1.0000
56.8300 297.0000 1.0000
56.8400 314.0000 1.0000
56.8500 312.0000 1.0000
56.8600 306.0000 1.0000
56.8700 349.0000 1.0000
56.8800 331.0000 1.0000
56.8900 325.0000 1.0000
56.9000 321.0000 1.0000
56.9100 343.0000 1.0000
56.9200 341.0000 1.0000
56.9300 327.0000 1.0000
56.9400 339.0000 1.0000
56.9500 343.0000 1.0000
56.9600 323.0000 1.0000
56.9700 322.0000 1.0000
56.9800 322.0000 1.0000
56.9900 357.0000 1.0000
57.0000 341.0000 1.0000
57.0100 312.0000 1.0000
57.0200 320.0000 1.0000
57.0300 344.0000 1.0000
57.0400 348.0000 1.0000
57.0500 344.0000 1.0000
57.0600 346.0000 1.0000
57.0700 317.0000 1.0000
57.0800 310.0000 1.0000
57.0900 339.0000 1.0000
57.1000 306.0000 1.0000
57.1100 329.0000 1.0000
57.1200 328.0000 1.0000
57.1300 325.0000 1.0000
57.1400 329.0000 1.0000
57.1500 339.0000 1.0000
57.1600 310.0000 1.0000
57.1700 353.0000 1.0000
57.1800 347.0000 1.0000
57.1900 310.0000 1.0000
57.2000 331.0000 1.0000
57.2100 325.0000 1.0000
57.2200 336.0000 1.0000
57.2300 331.0000 1.0000
57.2400 311.0000 1.0000
57.2500 326.0000 1.0000
57.2600 330.0000 1.0000
57.2700 326.0000 1.0000
57.2800 344.0000 1.0000
57.2900 313.0000 1.0000
57.3000 332.0000 1.0000
57.3100 335.0000 1.0000
57.3200 327.0000 1.0000
57.3300 323.0000 1.0000
57.3400 316.0000 1.0000
57.3500 344.0000 1.0000
57.3600 323.0000 1.0000
57.3700 333.0000 1.0000
57.3800 325.0000 1.0000
57.3900 333.0000 1.0000
57.4000 327.0000 1.0000
57.4100 345.0000 1.0000
57.4200 340.0000 1.0000
57.4300 336.0000 1.0000
57.4400 314.0000 1.0000
57.4500 359.0000 1.0000
57.4600 349.0000 1.0000
57.4700 328.0000 1.0000
57.4800 328.0000 1.0000
57.4900 297.0000 1.0000
57.5000 325.0000 1.0000
57.5100 313.0000 1.0000
57.5200 337.0000 1.0000
57.5300 367.0000 1.0000
57.5400 345.0000 1.0000
57.5500 318.0000 1.0000
57.5600 329.0000 1.0000
57.5700 348.0000 1.0000
57.5800 311.0000 1.0000
57.5900 326.0000 1.0000
57.6000 350.0000 1.0000
57.6100 353.0000 1.0000
57.6200 357.0000 1.0000
57.6300 332.0000 1.0000
57.6400 350.0000 1.0000
57.6500 361.0000 1.0000
57.6600 360.0000 1.0000
57.6700 352.0000 1.0000
57.6800 335.0000 1.0000
57.6900 340.0000 1.0000
57.7000 351.0000 1.0000
57.7100 367.0000 1.0000
57.7200 312.0000 1.0000
57.7300 332.0000 1.0000
57.7400 311.0000 1.0000
57.7500 325.0000 1.0000
57.7600 372.0000 1.0000
57.7700 341.0000 1.0000
57.7800 354.0000 1.0000
57.7900 305.0000 1.0000
57.8000 334.0000 1.0000
57.8100 326.0000 1.0000
57.8200 359.0000 1.0000
57.8300 349.0000 1.0000
57.8400 333.0000 1.0000
57.8500 339.0000 1.0000
57.8600 325.0000 1.0000
57.8700 326.0000 1.0000
57.8800 328.0000 1.0000
57.8900 329.0000 1.0000
57.9000 328.0000 1.0000
57.9100 336.0000 1.0000
57.9200 313.0000 1.0000
57.9300 312.0000 1.0000
57.9400 378.0000 1.0000
57.9500 365.0000 1.0000
57.9600 325.0000 1.0000
57.9700 325.0000 1.0000
57.9800 325.0000 1.0000
57.9900 322.0000 1.0000
58.0000 320.0000 1.0000
58.0100 344.0000 1.0000
58.0200 285.0000 1.0000
58.0300 312.0000 1.0000
58.0400 295.0000 1.0000
58.0500 289.0000 1.0000
58.0600 332.0000 1.0000
58.0700 311.0000 1.0000
58.0800 331.0000 1.0000
58.0900 326.0000 1.0000
58.1000 317.0000 1.0000
58.1100 329.0000 1.0000
58.1200 344.0000 1.0000
58.1300 320.0000 1.0000
58.1400 320.0000 1.0000
58.1500 332.0000 1.0000
58.1600 322.0000 1.0000
58.1700 324.0000 1.0000
58.1800 330.0000 1.0000
58.1900 301.0000 1.0000
58.2000 317.0000 1.0000
58.2100 330.0000 1.0000
58.2200 311.0000 1.0000
58.2300 314.0000 1.0000
58.2400 349.0000 1.0000
58.2500 315.0000 1.0000
58.2600 352.0000 1.0000
58.2700 338.0000 1.0000
58.2800 341.0000 1.0000
58.2900 340.0000 1.0000
58.3000 320.0000 1.0000
58.3100 329.0000 1.0000
58.3200 347.0000 1.0000
58.3300 339.0000 1.0000
58.3400 328.0000 1.0000
58.3500 304.0000 1.0000
58.3600 311.0000 1.0000
58.3700 307.0000 1.0000
58.3800 333.0000 1.0000
58.3900 330.0000 1.0000
58.4000 338.0000 1.0000
58.4100 306.0000 1.0000
58.4200 323.0000 1.0000
58.4300 309.0000 1.0000
58.4400 291.0000 1.0000
58.4500 329.0000 1.0000
58.4600 338.0000 1.0000
58.4700 325.0000 1.0000
58.4800 324.0000 1.0000
58.4900 315.0000 1.0000
58.5000 329.0000 1.0000
58.5100 348.0000 1.0000
58.5200 349.0000 1.0000
58.5300 305.0000 1.0000
58.5400 341.0000 1.0000
58.5500 336.0000 1.0000
58.5600 322.0000 1.0000
58.5700 328.0000 1.0000
58.5800 334.0000 1.0000
58.5900 334.0000 1.0000
58.6000 322.0000 1.0000
58.6100 353.0000 1.0000
58.6200 306.0000 1.0000
58.6300 327.0000 1.0000
58.6400 344.0000 1.0000
58.6500 332.0000 1.0000
58.6600 331.0000 1.0000
58.6700 323.0000 1.0000
58.6800 318.0000 1.0000
58.6900 328.0000 1.0000
58.7000 340.0000 1.0000
58.7100 338.0000 1.0000
58.7200 326.0000 1.0000
58.7300 309.0000 1.0000
58.7400 317.0000 1.0000
58.7500 302.0000 1.0000
58.7600 312.0000 1.0000
58.7700 344.0000 1.0000
58.7800 308.0000 1.0000
58.7900 333.0000 1.0000
58.8000 282.0000 1.0000
58.8100 312.0000 1.0000
58.8200 333.0000 1.0000
58.8300 316.0000 1.0000
58.8400 336.0000 1.0000
58.8500 349.0000 1.0000
58.8600 318.0000 1.0000
58.8700 375.0000 1.0000
58.8800 332.0000 1.0000
58.8900 339.0000 1.0000
58.9000 327.0000 1.0000
58.9100 302.0000 1.0000
58.9200 313.0000 1.0000
58.9300 336.0000 1.0000
58.9400 313.0000 1.0000
58.9500 320.0000 1.0000
58.9600 318.0000 1.0000
58.9700 318.0000 1.0000
58.9800 322.0000 1.0000
58.9900 331.0000 1.0000
59.0000 302.0000 1.0000
59.0100 316.0000 1.0000
59.0200 327.0000 1.0000
59.0300 295.0000 1.0000
59.0400 305.0000 1.0000
59.0500 298.0000 1.0000
59.0600 281.0000 1.0000
59.0700 307.0000 1.0000
59.0800 326.0000 1.0000
59.0900 323.0000 1.0000
59.1000 295.0000 1.0000
59.1100 309.0000 1.0000
59.1200 318.0000 1.0000
59.1300 319.0000 1.0000
59.1400 309.0000 1.0000
59.1500 322.0000 1.0000
59.1600 310.0000 1.0000
59.1700 319.0000 1.0000
59.1800 296.0000 1.0000
59.1900 287.0000 1.0000
59.2000 306.0000 1.0000
59.2100 332.0000 1.0000
59.2200 321.0000 1.0000
59.2300 302.0000 1.0000
59.2400 292.0000 1.0000
59.2500 330.0000 1.0000
59.2600 333.0000 1.0000
59.2700 356.0000 1.0000
59.2800 308.0000 1.0000
59.2900 330.0000 1.0000
59.3000 355.0000 1.0000
59.3100 338.0000 1.0000
59.3200 332.0000 1.0000
59.3300 338.0000 1.0000
59.3400 325.0000 1.0000
59.3500 324.0000 1.0000
59.3600 310.0000 1.0000
59.3700 309.0000 1.0000
59.3800 280.0000 1.0000
59.3900 308.0000 1.0000
59.4000 297.0000 1.0000
59.4100 319.0000 1.0000
59.4200 321.0000 1.0000
59.4300 331.0000 1.0000
59.4400 327.0000 1.0000
59.4500 302.0000 1.0000
59.4600 326.0000 1.0000
59.4700 330.0000 1.0000
59.4800 311.0000 1.0000
59.4900 347.0000 1.0000
59.5000 335.0000 1.0000
59.5100 336.0000 1.0000
59.5200 334.0000 1.0000
59.5300 304.0000 1.0000
59.5400 307.0000 1.0000
59.5500 342.0000 1.0000
59.5600 344.0000 1.0000
59.5700 318.0000 1.0000
59.5800 319.0000 1.0000
59.5900 337.0000 1.0000
59.6000 311.0000 1.0000
59.6100 322.0000 1.0000
59.6200 316.0000 1.0000
59.6300 308.0000 1.0000
59.6400 330.0000 1.0000
59.6500 300.0000 1.0000
59.6600 336.0000 1.0000
59.6700 304.0000 1.0000
59.6800 304.0000 1.0000
59.6900 340.0000 1.0000
59.7000 332.0000 1.0000
59.7100 331.0000 1.0000
59.7200 316.0000 1.0000
59.7300 293.0000 1.0000
59.7400 324.0000 1.0000
59.7500 335.0000 1.0000
59.7600 317.0000 1.0000
59.7700 298.0000 1.0000
59.7800 330.0000 1.0000
59.7900 326.0000 1.0000
59.8000 327.0000 1.0000
59.8100 312.0000 1.0000
59.8200 342.0000 1.0000
59.8300 313.0000 1.0000
59.8400 325.0000 1.0000
59.8500 342.0000 1.0000
59.8600 315.0000 1.0000
59.8700 319.0000 1.0000
59.8800 304.0000 1.0000
59.8900 317.0000 1.0000
59.9000 293.0000 1.0000
59.9100 290.0000 1.0000
59.9200 329.0000 1.0000
59.9300 330.0000 1.0000
59.9400 326.0000 1.0000
59.9500 317.0000 1.0000
59.9600 333.0000 1.0000
59.9700 324.0000 1.0000
59.9800 334.0000 1.0000
59.9900 349.0000 1.0000
60.0000 311.0000 1.0000
60.0100 325.0000 1.0000
60.0200 322.0000 1.0000
60.0300 330.0000 1.0000
60.0400 297.0000 1.0000
60.0500 319.0000 1.0000
60.0600 306.0000 1.0000
60.0700 299.0000 1.0000
60.0800 317.0000 1.0000
60.0900 324.0000 1.0000
60.1000 309.0000 1.0000
60.1100 307.0000 1.0000
60.1200 307.0000 1.0000
60.1300 311.0000 1.0000
60.1400 319.0000 1.0000
60.1500 344.0000 1.0000
60.1600 314.0000 1.0000
60.1700 301.0000 1.0000
60.1800 318.0000 1.0000
60.1900 310.0000 1.0000
60.2000 302.0000 1.0000
60.2100 336.0000 1.0000
60.2200 338.0000 1.0000
60.2300 311.0000 1.0000
60.2400 294.0000 1.0000
60.2500 293.0000 1.0000
60.2600 321.0000 1.0000
60.2700 333.0000 1.0000
60.2800 311.0000 1.0000
60.2900 315.0000 1.0000
60.3000 305.0000 1.0000
60.3100 327.0000 1.0000
60.3200 331.0000 1.0000
60.3300 312.0000 1.0000
60.3400 329.0000 1.0000
60.3500 338.0000 1.0000
60.3600 338.0000 1.0000
60.3700 310.0000 1.0000
60.3800 306.0000 1.0000
60.3900 346.0000 1.0000
60.4000 333.0000 1.0000
60.4100 331.0000 1.0000
60.4200 339.0000 1.0000
60.4300 366.0000 1.0000
60.4400 345.0000 1.0000
60.4500 320.0000 1.0000
60.4600 308.0000 1.0000
60.4700 301.0000 1.0000
60.4800 315.0000 1.0000
60.4900 341.0000 1.0000
60.5000 313.0000 1.0000
60.5100 332.0000 1.0000
60.5200 325.0000 1.0000
60.5300 340.0000 1.0000
60.5400 344.0000 1.0000
60.5500 333.0000 1.0000
60.5600 352.0000 1.0000
60.5700 328.0000 1.0000
60.5800 335.0000 1.0000
60.5900 316.0000 1.0000
60.6000 304.0000 1.0000
60.6100 342.0000 1.0000
60.6200 346.0000 1.0000
60.6300 342.0000 1.0000
60.6400 314.0000 1.0000
60.6500 301.0000 1.0000
60.6600 321.0000 1.0000
60.6700 333.0000 1.0000
60.6800 318.0000 1.0000
60.6900 349.0000 1.0000
60.7000 334.0000 1.0000
60.7100 345.0000 1.0000
60.7200 306.0000 1.0000
60.7300 322.0000 1.0000
60.7400 332.0000 1.0000
60.7500 319.0000 1.0000
60.7600 311.0000 1.0000
60.7700 292.0000 1.0000
60.7800 313.0000 1.0000
60.7900 359.0000 1.0000
60.8000 328.0000 1.0000
60.8100 317.0000 1.0000
60.8200 322.0000 1.0000
60.8300 295.0000 1.0000
60.8400 334.0000 1.0000
60.8500 297.0000 1.0000
60.8600 329.0000 1.0000
60.8700 319.0000 1.0000
60.8800 303.0000 1.0000
60.8900 330.0000 1.0000
60.9000 327.0000 1.0000
60.9100 310.0000 1.0000
60.9200 326.0000 1.0000
60.9300 338.0000 1.0000
60.9400 333.0000 1.0000
60.9500 351.0000 1.0000
60.9600 322.0000 1.0000
60.9700 338.0000 1.0000
60.9800 364.0000 1.0000
60.9900 363.0000 1.0000
61.0000 346.0000 1.0000
61.0100 376.0000 1.0000
61.0200 365.0000 1.0000
61.0300 348.0000 1.0000
61.0400 341.0000 1.0000
61.0500 337.0000 1.0000
61.0600 341.0000 1.0000
61.0700 335.0000 1.0000
61.0800 347.0000 1.0000
61.0900 343.0000 1.0000
61.1000 336.0000 1.0000
61.1100 348.0000 1.0000
61.1200 372.0000 1.0000
61.1300 360.0000 1.0000
61.1400 374.0000 1.0000
61.1500 358.0000 1.0000
61.1600 351.0000 1.0000
61.1700 387.0000 1.0000
61.1800 338.0000 1.0000
61.1900 369.0000 1.0000
61.2000 395.0000 1.0000
61.2100 416.0000 1.0000
61.2200 396.0000 1.0000
61.2300 400.0000 1.0000
61.2400 417.0000 1.0000
61.2500 389.0000 1.0000
61.2600 395.0000 1.0000
61.2700 409.0000 1.0000
61.2800 394.0000 1.0000
61.2900 438.0000 1.0000
61.3000 434.0000 1.0000
61.3100 435.0000 1.0000
61.3200 456.0000 1.0000
61.3300 469.0000 1.0000
61.3400 450.0000 1.0000
61.3500 504.0000 1.0000
61.3600 463.0000 1.0000
61.3700 493.0000 1.0000
61.3800 530.0000 1.0000
61.3900 508.0000 1.0000
61.4000 498.0000 1.0000
61.4100 534.0000 1.0000
61.4200 539.0000 1.0000
61.4300 561.0000 1.0000
61.4400 573.0000 1.0000
61.4500 607.0000 1.0000
61.4600 628.0000 1.0000
61.4700 607.0000 1.0000
61.4800 647.0000 1.0000
61.4900 630.0000 1.0000
61.5000 660.0000 1.0000
61.5100 669.0000 1.0000
61.5200 645.0000 1.0000
61.5300 633.0000 1.0000
61.5400 631.0000 1.0000
61.5500 603.0000 1.0000
61.5600 644.0000 1.0000
61.5700 663.0000 1.0000
61.5800 670.0000 1.0000
61.5900 688.0000 1.0000
61.6000 666.0000 1.0000
61.6100 645.0000 1.0000
61.6200 665.0000 1.0000
61.6300 684.0000 1.0000
61.6400 656.0000 1.0000
61.6500 632.0000 1.0000
61.6600 589.0000 1.0000
61.6700 598.0000 1.0000
61.6800 631.0000 1.0000
61.6900 665.0000 1.0000
61.7000 586.0000 1.0000
61.7100 571.0000 1.0000
61.7200 602.0000 1.0000
61.7300 546.0000 1.0000
61.7400 567.0000 1.0000
61.7500 520.0000 1.0000
61.7600 536.0000 1.0000
61.7700 517.0000 1.0000
61.7800 525.0000 1.0000
61.7900 517.0000 1.0000
61.8000 505.0000 1.0000
61.8100 481.0000 1.0000
61.8200 457.0000 1.0000
61.8300 462.0000 1.0000
61.8400 444.0000 1.0000
61.8500 440.0000 1.0000
61.8600 450.0000 1.0000
61.8700 463.0000 1.0000
61.8800 410.0000 1.0000
61.8900 404.0000 1.0000
61.9000 439.0000 1.0000
61.9100 418.0000 1.0000
61.9200 383.0000 1.0000
61.9300 392.0000 1.0000
61.9400 419.0000 1.0000
61.9500 375.0000 1.0000
61.9600 402.0000 1.0000
61.9700 381.0000 1.0000
61.9800 384.0000 1.0000
61.9900 357.0000 1.0000
62.0000 392.0000 1.0000
62.0100 352.0000 1.0000
62.0200 364.0000 1.0000
62.0300 390.0000 1.0000
62.0400 370.0000 1.0000
62.0500 390.0000 1.0000
62.0600 366.0000 1.0000
62.0700 377.0000 1.0000
62.0800 349.0000 1.0000
62.0900 375.0000 1.0000
62.1000 360.0000 1.0000
62.1100 367.0000 1.0000
62.1200 359.0000 1.0000
62.1300 355.0000 1.0000
62.1400 376.0000 1.0000
62.1500 344.0000 1.0000
62.1600 336.0000 1.0000
62.1700 363.0000 1.0000
62.1800 371.0000 1.0000
62.1900 355.0000 1.0000
62.2000 372.0000 1.0000
62.2100 357.0000 1.0000
62.2200 337.0000 1.0000
62.2300 356.0000 1.0000
62.2400 381.0000 1.0000
62.2500 348.0000 1.0000
62.2600 344.0000 1.0000
62.2700 362.0000 1.0000
62.2800 362.0000 1.0000
62.2900 332.0000 1.0000
62.3000 364.0000 1.0000
62.3100 342.0000 1.0000
62.3200 333.0000 1.0000
62.3300 359.0000 1.0000
62.3400 344.0000 1.0000
62.3500 359.0000 1.0000
62.3600 379.0000 1.0000
62.3700 358.0000 1.0000
62.3800 389.0000 1.0000
62.3900 351.0000 1.0000
62.4000 360.0000 1.0000
62.4100 367.0000 1.0000
62.4200 373.0000 1.0000
62.4300 330.0000 1.0000
62.4400 345.0000 1.0000
62.4500 355.0000 1.0000
62.4600 335.0000 1.0000
62.4700 342.0000 1.0000
62.4800 334.0000 1.0000
62.4900 339.0000 1.0000
62.5000 335.0000 1.0000
62.5100 355.0000 1.0000
62.5200 367.0000 1.0000
62.5300 352.0000 1.0000
62.5400 330.0000 1.0000
62.5500 358.0000 1.0000
62.5600 352.0000 1.0000
62.5700 370.0000 1.0000
62.5800 348.0000 1.0000
62.5900 350.0000 1.0000
62.6000 355.0000 1.0000
62.6100 344.0000 1.0000
62.6200 340.0000 1.0000
62.6300 331.0000 1.0000
62.6400 342.0000 1.0000
62.6500 349.0000 1.0000
62.6600 329.0000 1.0000
62.6700 308.0000 1.0000
62.6800 353.0000 1.0000
62.6900 324.0000 1.0000
62.7000 312.0000 1.0000
62.7100 340.0000 1.0000
62.7200 321.0000 1.0000
62.7300 363.0000 1.0000
62.7400 346.0000 1.0000
62.7500 370.0000 1.0000
62.7600 345.0000 1.0000
62.7700 311.0000 1.0000
62.7800 330.0000 1.0000
62.7900 340.0000 1.0000
62.8000 359.0000 1.0000
62.8100 365.0000 1.0000
62.8200 347.0000 1.0000
62.8300 305.0000 1.0000
62.8400 317.0000 1.0000
62.8500 322.0000 1.0000
62.8600 336.0000 1.0000
62.8700 331.0000 1.0000
62.8800 328.0000 1.0000
62.8900 342.0000 1.0000
62.9000 349.0000 1.0000
62.9100 323.0000 1.0000
62.9200 325.0000 1.0000
62.9300 321.0000 1.0000
62.9400 309.0000 1.0000
62.9500 322.0000 1.0000
62.9600 305.0000 1.0000
62.9700 317.0000 1.0000
62.9800 296.0000 1.0000
62.9900 318.0000 1.0000
63.0000 334.0000 1.0000
63.0100 347.0000 1.0000
63.0200 328.0000 1.0000
63.0300 328.0000 1.0000
63.0400 335.0000 1.0000
63.0500 356.0000 1.0000
63.0600 352.0000 1.0000
63.0700 349.0000 1.0000
63.0800 333.0000 1.0000
63.0900 352.0000 1.0000
63.1000 334.0000 1.0000
63.1100 342.0000 1.0000
63.1200 344.0000 1.0000
63.1300 314.0000 1.0000
63.1400 312.0000 1.0000
63.1500 288.0000 1.0000
63.1600 324.0000 1.0000
63.1700 360.0000 1.0000
63.1800 355.0000 1.0000
63.1900 344.0000 1.0000
63.2000 321.0000 1.0000
63.2100 348.0000 1.0000
63.2200 338.0000 1.0000
63.2300 315.0000 1.0000
63.2400 336.0000 1.0000
63.2500 324.0000 1.0000
63.2600 341.0000 1.0000
63.2700 346.0000 1.0000
63.2800 366.0000 1.0000
63.2900 345.0000 1.0000
63.3000 348.0000 1.0000
63.3100 352.0000 1.0000
63.3200 360.0000 1.0000
63.3300 359.0000 1.0000
63.3400 349.0000 1.0000
63.3500 331.0000 1.0000
63.3600 340.0000 1.0000
63.3700 306.0000 1.0000
63.3800 319.0000 1.0000
63.3900 305.0000 1.0000
63.4000 322.0000 1.0000
63.4100 323.0000 1.0000
63.4200 343.0000 1.0000
63.4300 308.0000 1.0000
63.4400 313.0000 1.0000
63.4500 347.0000 1.0000
63.4600 337.0000 1.0000
63.4700 346.0000 1.0000
63.4800 365.0000 1.0000
63.4900 318.0000 1.0000
63.5000 335.0000 1.0000
63.5100 338.0000 1.0000
63.5200 340.0000 1.0000
63.5300 339.0000 1.0000
63.5400 329.0000 1.0000
63.5500 327.0000 1.0000
63.5600 335.0000 1.0000
63.5700 359.0000 1.0000
63.5800 357.0000 1.0000
63.5900 317.0000 1.0000
63.6000 356.0000 1.0000
63.6100 348.0000 1.0000
63.6200 385.0000 1.0000
63.6300 343.0000 1.0000
63.6400 344.0000 1.0000
63.6500 352.0000 1.0000
63.6600 365.0000 1.0000
63.6700 358.0000 1.0000
63.6800 377.0000 1.0000
63.6900 355.0000 1.0000
63.7000 391.0000 1.0000
63.7100 348.0000 1.0000
63.7200 357.0000 1.0000
63.7300 371.0000 1.0000
63.7400 353.0000 1.0000
63.7500 372.0000 1.0000
63.7600 371.0000 1.0000
63.7700 375.0000 1.0000
63.7800 381.0000 1.0000
63.7900 371.0000 1.0000
63.8000 364.0000 1.0000
63.8100 378.0000 1.0000
63.8200 368.0000 1.0000
63.8300 363.0000 1.0000
63.8400 400.0000 1.0000
63.8500 374.0000 1.0000
63.8600 379.0000 1.0000
63.8700 393.0000 1.0000
63.8800 402.0000 1.0000
63.8900 399.0000 1.0000
63.9000 398.0000 1.0000
63.9100 403.0000 1.0000
63.9200 397.0000 1.0000
63.9300 407.0000 1.0000
63.9400 400.0000 1.0000
63.9500 432.0000 1.0000
63.9600 435.0000 1.0000
63.9700 406.0000 1.0000
63.9800 401.0000 1.0000
63.9900 408.0000 1.0000
64.0000 401.0000 1.0000
64.0100 410.0000 1.0000
64.0200 411.0000 1.0000
64.0300 400.0000 1.0000
64.0400 409.0000 1.0000
64.0500 399.0000 1.0000
64.0600 390.0000 1.0000
64.0700 419.0000 1.0000
64.0800 418.0000 1.0000
64.0900 411.0000 1.0000
64.1000 416.0000 1.0000
64.1100 399.0000 1.0000
64.1200 384.0000 1.0000
64.1300 404.0000 1.0000
64.1400 388.0000 1.0000
64.1500 401.0000 1.0000
64.1600 371.0000 1.0000
64.1700 378.0000 1.0000
64.1800 386.0000 1.0000
64.1900 358.0000 1.0000
64.2000 365.0000 1.0000
64.2100 372.0000 1.0000
64.2200 357.0000 1.0000
64.2300 365.0000 1.0000
64.2400 375.0000 1.0000
64.2500 355.0000 1.0000
64.2600 378.0000 1.0000
64.2700 349.0000 1.0000
64.2800 362.0000 1.0000
64.2900 382.0000 1.0000
64.3000 349.0000 1.0000
64.3100 371.0000 1.0000
64.3200 367.0000 1.0000
64.3300 363.0000 1.0000
64.3400 356.0000 1.0000
64.3500 351.0000 1.0000
64.3600 312.0000 1.0000
64.3700 330.0000 1.0000
64.3800 348.0000 1.0000
64.3900 374.0000 1.0000
64.4000 317.0000 1.0000
64.4100 325.0000 1.0000
64.4200 342.0000 1.0000
64.4300 335.0000 1.0000
64.4400 346.0000 1.0000
64.4500 324.0000 1.0000
64.4600 341.0000 1.0000
64.4700 324.0000 1.0000
64.4800 330.0000 1.0000
64.4900 379.0000 1.0000
64.5000 332.0000 1.0000
64.5100 346.0000 1.0000
64.5200 330.0000 1.0000
64.5300 329.0000 1.0000
64.5400 299.0000 1.0000
64.5500 326.0000 1.0000
64.5600 296.0000 1.0000
64.5700 336.0000 1.0000
64.5800 324.0000 1.0000
64.5900 331.0000 1.0000
64.6000 341.0000 1.0000
64.6100 337.0000 1.0000
64.6200 345.0000 1.0000
64.6300 344.0000 1.0000
64.6400 335.0000 1.0000
64.6500 323.0000 1.0000
64.6600 350.0000 1.0000
64.6700 317.0000 1.0000
64.6800 336.0000 1.0000
64.6900 311.0000 1.0000
64.7000 337.0000 1.0000
64.7100 331.0000 1.0000
64.7200 333.0000 1.0000
64.7300 340.0000 1.0000
64.7400 374.0000 1.0000
64.7500 330.0000 1.0000
64.7600 329.0000 1.0000
64.7700 327.0000 1.0000
64.7800 332.0000 1.0000
64.7900 334.0000 1.0000
64.8000 325.0000 1.0000
64.8100 315.0000 1.0000
64.8200 352.0000 1.0000
64.8300 361.0000 1.0000
64.8400 312.0000 1.0000
64.8500 335.0000 1.0000
64.8600 353.0000 1.0000
64.8700 336.0000 1.0000
64.8800 352.0000 1.0000
64.8900 329.0000 1.0000
64.9000 343.0000 1.0000
64.9100 333.0000 1.0000
64.9200 337.0000 1.0000
64.9300 359.0000 1.0000
64.9400 347.0000 1.0000
64.9500 344.0000 1.0000
64.9600 349.0000 1.0000
64.9700 341.0000 1.0000
64.9800 379.0000 1.0000
64.9900 377.0000 1.0000
65.0000 345.0000 1.0000
65.0100 361.0000 1.0000
65.0200 314.0000 1.0000
65.0300 311.0000 1.0000
65.0400 350.0000 1.0000
65.0500 339.0000 1.0000
65.0600 361.0000 1.0000
65.0700 365.0000 1.0000
65.0800 386.0000 1.0000
65.0900 365.0000 1.0000
65.1000 400.0000 1.0000
65.1100 386.0000 1.0000
65.1200 358.0000 1.0000
65.1300 348.0000 1.0000
65.1400 408.0000 1.0000
65.1500 364.0000 1.0000
65.1600 365.0000 1.0000
65.1700 399.0000 1.0000
65.1800 392.0000 1.0000
65.1900 413.0000 1.0000
65.2000 418.0000 1.0000
65.2100 408.0000 1.0000
65.2200 411.0000 1.0000
65.2300 410.0000 1.0000
65.2400 451.0000 1.0000
65.2500 430.0000 1.0000
65.2600 454.0000 1.0000
65.2700 493.0000 1.0000
65.2800 485.0000 1.0000
65.2900 504.0000 1.0000
65.3000 508.0000 1.0000
65.3100 540.0000 1.0000
65.3200 536.0000 1.0000
65.3300 552.0000 1.0000
65.3400 570.0000 1.0000
65.3500 607.0000 1.0000
65.3600 630.0000 1.0000
65.3700 666.0000 1.0000
65.3800 663.0000 1.0000
65.3900 697.0000 1.0000
65.4000 727.0000 1.0000
65.4100 732.0000 1.0000
65.4200 790.0000 1.0000
65.4300 813.0000 1.0000
65.4400 875.0000 1.0000
65.4500 907.0000 1.0000
65.4600 951.0000 1.0000
65.4700 979.0000 1.0000
65.4800 1036.0000 1.0000
65.4900 1072.0000 1.0000
65.5000 1055.0000 1.0000
65.5100 1074.0000 1.0000
65.5200 1110.0000 1.0000
65.5300 1130.0000 1.0000
65.5400 1173.0000 1.0000
65.5500 1145.0000 1.0000
65.5600 1144.0000 1.0000
65.5700 1098.0000 1.0000
65.5800 1080.0000 1.0000
65.5900 1087.0000 1.0000
65.6000 1051.0000 1.0000
65.6100 1018.0000 1.0000
65.6200 983.0000 1.0000
65.6300 961.0000 1.0000
65.6400 968.0000 1.0000
65.6500 935.0000 1.0000
65.6600 900.0000 1.0000
65.6700 883.0000 1.0000
65.6800 853.0000 1.0000
65.6900 913.0000 1.0000
65.7000 909.0000 1.0000
65.7100 904.0000 1.0000
65.7200 868.0000 1.0000
65.7300 822.0000 1.0000
65.7400 825.0000 1.0000
65.7500 795.0000 1.0000
65.7600 734.0000 1.0000
65.7700 731.0000 1.0000
65.7800 691.0000 1.0000
65.7900 693.0000 1.0000
65.8000 648.0000 1.0000
65.8100 644.0000 1.0000
65.8200 625.0000 1.0000
65.8300 589.0000 1.0000
65.8400 581.0000 1.0000
65.8500 556.0000 1.0000
65.8600 526.0000 1.0000
65.8700 508.0000 1.0000
65.8800 520.0000 1.0000
65.8900 496.0000 1.0000
65.9000 491.0000 1.0000
65.9100 465.0000 1.0000
65.9200 450.0000 1.0000
65.9300 443.0000 1.0000
65.9400 430.0000 1.0000
65.9500 449.0000 1.0000
65.9600 425.0000 1.0000
65.9700 412.0000 1.0000
65.9800 387.0000 1.0000
65.9900 384.0000 1.0000
66.0000 416.0000 1.0000
66.0100 371.0000 1.0000
66.0200 364.0000 1.0000
66.0300 381.0000 1.0000
66.0400 372.0000 1.0000
66.0500 380.0000 1.0000
66.0600 389.0000 1.0000
66.0700 363.0000 1.0000
66.0800 359.0000 1.0000
66.0900 353.0000 1.0000
66.1000 368.0000 1.0000
66.1100 375.0000 1.0000
66.1200 344.0000 1.0000
66.1300 325.0000 1.0000
66.1400 338.0000 1.0000
66.1500 359.0000 1.0000
66.1600 336.0000 1.0000
66.1700 365.0000 1.0000
66.1800 367.0000 1.0000
66.1900 342.0000 1.0000
66.2000 321.0000 1.0000
66.2100 316.0000 1.0000
66.2200 338.0000 1.0000
66.2300 331.0000 1.0000
66.2400 316.0000 1.0000
66.2500 328.0000 1.0000
66.2600 320.0000 1.0000
66.2700 287.0000 1.0000
66.2800 309.0000 1.0000
66.2900 321.0000 1.0000
66.3000 319.0000 1.0000
66.3100 325.0000 1.0000
66.3200 301.0000 1.0000
66.3300 324.0000 1.0000
66.3400 333.0000 1.0000
66.3500 326.0000 1.0000
66.3600 319.0000 1.0000
66.3700 329.0000 1.0000
66.3800 332.0000 1.0000
66.3900 309.0000 1.0000
66.4000 319.0000 1.0000
66.4100 337.0000 1.0000
66.4200 309.0000 1.0000
66.4300 296.0000 1.0000
66.4400 316.0000 1.0000
66.4500 316.0000 1.0000
66.4600 317.0000 1.0000
66.4700 294.0000 1.0000
66.4800 305.0000 1.0000
66.4900 298.0000 1.0000
66.5000 321.0000 1.0000
66.5100 307.0000 1.0000
66.5200 295.0000 1.0000
66.5300 312.0000 1.0000
66.5400 335.0000 1.0000
66.5500 315.0000 1.0000
66.5600 338.0000 1.0000
66.5700 317.0000 1.0000
66.5800 295.0000 1.0000
66.5900 320.0000 1.0000
66.6000 323.0000 1.0000
66.6100 281.0000 1.0000
66.6200 317.0000 1.0000
66.6300 272.0000 1.0000
66.6400 278.0000 1.0000
66.6500 298.0000 1.0000
66.6600 322.0000 1.0000
66.6700 302.0000 1.0000
66.6800 298.0000 1.0000
66.6900 285.0000 1.0000
66.7000 270.0000 1.0000
66.7100 317.0000 1.0000
66.7200 319.0000 1.0000
66.7300 319.0000 1.0000
66.7400 285.0000 1.0000
66.7500 282.0000 1.0000
66.7600 311.0000 1.0000
66.7700 310.0000 1.0000
66.7800 302.0000 1.0000
66.7900 297.0000 1.0000
66.8000 317.0000 1.0000
66.8100 345.0000 1.0000
66.8200 305.0000 1.0000
66.8300 301.0000 1.0000
66.8400 289.0000 1.0000
66.8500 291.0000 1.0000
66.8600 309.0000 1.0000
66.8700 296.0000 1.0000
66.8800 301.0000 1.0000
66.8900 294.0000 1.0000
66.9000 291.0000 1.0000
66.9100 309.0000 1.0000
66.9200 311.0000 1.0000
66.9300 292.0000 1.0000
66.9400 285.0000 1.0000
66.9500 308.0000 1.0000
66.9600 280.0000 1.0000
66.9700 272.0000 1.0000
66.9800 291.0000 1.0000
66.9900 306.0000 1.0000
67.0000 307.0000 1.0000
67.0100 281.0000 1.0000
67.0200 309.0000 1.0000
67.0300 304.0000 1.0000
67.0400 271.0000 1.0000
67.0500 298.0000 1.0000
67.0600 286.0000 1.0000
67.0700 294.0000 1.0000
67.0800 276.0000 1.0000
67.0900 279.0000 1.0000
67.1000 323.0000 1.0000
67.1100 318.0000 1.0000
67.1200 294.0000 1.0000
67.1300 300.0000 1.0000
67.1400 294.0000 1.0000
67.1500 289.0000 1.0000
67.1600 294.0000 1.0000
67.1700 298.0000 1.0000
67.1800 280.0000 1.0000
67.1900 300.0000 1.0000
67.2000 300.0000 1.0000
67.2100 286.0000 1.0000
67.2200 313.0000 1.0000
67.2300 266.0000 1.0000
67.2400 263.0000 1.0000
67.2500 307.0000 1.0000
67.2600 272.0000 1.0000
67.2700 292.0000 1.0000
67.2800 283.0000 1.0000
67.2900 305.0000 1.0000
67.3000 288.0000 1.0000
67.3100 286.0000 1.0000
67.3200 281.0000 1.0000
67.3300 313.0000 1.0000
67.3400 309.0000 1.0000
67.3500 310.0000 1.0000
67.3600 329.0000 1.0000
67.3700 272.0000 1.0000
67.3800 291.0000 1.0000
67.3900 297.0000 1.0000
67.4000 309.0000 1.0000
67.4100 295.0000 1.0000
67.4200 265.0000 1.0000
67.4300 275.0000 1.0000
67.4400 277.0000 1.0000
67.4500 300.0000 1.0000
67.4600 287.0000 1.0000
67.4700 283.0000 1.0000
67.4800 276.0000 1.0000
67.4900 276.0000 1.0000
67.5000 286.0000 1.0000
67.5100 283.0000 1.0000
67.5200 296.0000 1.0000
67.5300 282.0000 1.0000
67.5400 302.0000 1.0000
67.5500 308.0000 1.0000
67.5600 274.0000 1.0000
67.5700 323.0000 1.0000
67.5800 305.0000 1.0000
67.5900 312.0000 1.0000
67.6000 318.0000 1.0000
67.6100 265.0000 1.0000
67.6200 272.0000 1.0000
67.6300 300.0000 1.0000
67.6400 306.0000 1.0000
67.6500 284.0000 1.0000
67.6600 304.0000 1.0000
67.6700 289.0000 1.0000
67.6800 305.0000 1.0000
67.6900 320.0000 1.0000
67.7000 312.0000 1.0000
67.7100 276.0000 1.0000
67.7200 259.0000 1.0000
67.7300 287.0000 1.0000
67.7400 291.0000 1.0000
67.7500 288.0000 1.0000
67.7600 286.0000 1.0000
67.7700 268.0000 1.0000
67.7800 276.0000 1.0000
67.7900 276.0000 1.0000
67.8000 302.0000 1.0000
67.8100 308.0000 1.0000
67.8200 299.0000 1.0000
67.8300 301.0000 1.0000
67.8400 265.0000 1.0000
67.8500 280.0000 1.0000
67.8600 293.0000 1.0000
67.8700 279.0000 1.0000
67.8800 288.0000 1.0000
67.8900 275.0000 1.0000
67.9000 275.0000 1.0000
67.9100 280.0000 1.0000
67.9200 286.0000 1.0000
67.9300 302.0000 1.0000
67.9400 301.0000 1.0000
67.9500 322.0000 1.0000
67.9600 290.0000 1.0000
67.9700 299.0000 1.0000
67.9800 298.0000 1.0000
67.9900 285.0000 1.0000
68.0000 297.0000 1.0000
68.0100 286.0000 1.0000
68.0200 277.0000 1.0000
68.0300 277.0000 1.0000
68.0400 290.0000 1.0000
68.0500 292.0000 1.0000
68.0600 282.0000 1.0000
68.0700 299.0000 1.0000
68.0800 308.0000 1.0000
68.0900 271.0000 1.0000
68.1000 279.0000 1.0000
68.1100 276.0000 1.0000
68.1200 277.0000 1.0000
68.1300 265.0000 1.0000
68.1400 284.0000 1.0000
68.1500 302.0000 1.0000
68.1600 290.0000 1.0000
68.1700 302.0000 1.0000
68.1800 268.0000 1.0000
68.1900 273.0000 1.0000
68.2000 278.0000 1.0000
68.2100 309.0000 1.0000
68.2200 287.0000 1.0000
68.2300 282.0000 1.0000
68.2400 315.0000 1.0000
68.2500 283.0000 1.0000
68.2600 275.0000 1.0000
68.2700 297.0000 1.0000
68.2800 291.0000 1.0000
68.2900 299.0000 1.0000
68.3000 278.0000 1.0000
68.3100 259.0000 1.0000
68.3200 302.0000 1.0000
68.3300 275.0000 1.0000
68.3400 272.0000 1.0000
68.3500 291.0000 1.0000
68.3600 270.0000 1.0000
68.3700 297.0000 1.0000
68.3800 290.0000 1.0000
68.3900 294.0000 1.0000
68.4000 276.0000 1.0000
68.4100 289.0000 1.0000
68.4200 286.0000 1.0000
68.4300 303.0000 1.0000
68.4400 285.0000 1.0000
68.4500 292.0000 1.0000
68.4600 290.0000 1.0000
68.4700 277.0000 1.0000
68.4800 274.0000 1.0000
68.4900 293.0000 1.0000
68.5000 261.0000 1.0000
68.5100 289.0000 1.0000
68.5200 275.0000 1.0000
68.5300 300.0000 1.0000
68.5400 295.0000 1.0000
68.5500 282.0000 1.0000
68.5600 252.0000 1.0000
68.5700 281.0000 1.0000
68.5800 259.0000 1.0000
68.5900 279.0000 1.0000
68.6000 261.0000 1.0000
68.6100 271.0000 1.0000
68.6200 292.0000 1.0000
68.6300 299.0000 1.0000
68.6400 275.0000 1.0000
68.6500 285.0000 1.0000
68.6600 282.0000 1.0000
68.6700 280.0000 1.0000
68.6800 276.0000 1.0000
68.6900 282.0000 1.0000
68.7000 269.0000 1.0000
68.7100 271.0000 1.0000
68.7200 272.0000 1.0000
68.7300 265.0000 1.0000
68.7400 275.0000 1.0000
68.7500 285.0000 1.0000
68.7600 308.0000 1.0000
68.7700 296.0000 1.0000
68.7800 286.0000 1.0000
68.7900 268.0000 1.0000
68.8000 295.0000 1.0000
68.8100 287.0000 1.0000
68.8200 300.0000 1.0000
68.8300 286.0000 1.0000
68.8400 264.0000 1.0000
68.8500 321.0000 1.0000
68.8600 274.0000 1.0000
68.8700 272.0000 1.0000
68.8800 305.0000 1.0000
68.8900 290.0000 1.0000
68.9000 303.0000 1.0000
68.9100 315.0000 1.0000
68.9200 308.0000 1.0000
68.9300 291.0000 1.0000
68.9400 295.0000 1.0000
68.9500 261.0000 1.0000
68.9600 271.0000 1.0000
68.9700 284.0000 1.0000
68.9800 303.0000 1.0000
68.9900 280.0000 1.0000
69.0000 288.0000 1.0000
69.0100 280.0000 1.0000
69.0200 271.0000 1.0000
69.0300 304.0000 1.0000
69.0400 288.0000 1.0000
69.0500 292.0000 1.0000
69.0600 276.0000 1.0000
69.0700 271.0000 1.0000
69.0800 277.0000 1.0000
69.0900 276.0000 1.0000
69.1000 260.0000 1.0000
69.1100 250.0000 1.0000
69.1200 281.0000 1.0000
69.1300 281.0000 1.0000
69.1400 265.0000 1.0000
69.1500 286.0000 1.0000
69.1600 306.0000 1.0000
69.1700 282.0000 1.0000
69.1800 265.0000 1.0000
69.1900 264.0000 1.0000
69.2000 283.0000 1.0000
69.2100 275.0000 1.0000
69.2200 304.0000 1.0000
69.2300 290.0000 1.0000
69.2400 251.0000 1.0000
69.2500 271.0000 1.0000
69.2600 291.0000 1.0000
69.2700 310.0000 1.0000
69.2800 292.0000 1.0000
69.2900 285.0000 1.0000
69.3000 283.0000 1.0000
69.3100 283.0000 1.0000
69.3200 250.0000 1.0000
69.3300 288.0000 1.0000
69.3400 296.0000 1.0000
69.3500 306.0000 1.0000
69.3600 295.0000 1.0000
69.3700 276.0000 1.0000
69.3800 292.0000 1.0000
69.3900 274.0000 1.0000
69.4000 279.0000 1.0000
69.4100 314.0000 1.0000
69.4200 255.0000 1.0000
69.4300 297.0000 1.0000
69.4400 309.0000 1.0000
69.4500 306.0000 1.0000
69.4600 286.0000 1.0000
69.4700 266.0000 1.0000
69.4800 279.0000 1.0000
69.4900 307.0000 1.0000
69.5000 258.0000 1.0000
69.5100 270.0000 1.0000
69.5200 267.0000 1.0000
69.5300 272.0000 1.0000
69.5400 278.0000 1.0000
69.5500 273.0000 1.0000
69.5600 274.0000 1.0000
69.5700 286.0000 1.0000
69.5800 262.0000 1.0000
69.5900 278.0000 1.0000
69.6000 280.0000 1.0000
69.6100 269.0000 1.0000
69.6200 263.0000 1.0000
69.6300 277.0000 1.0000
69.6400 263.0000 1.0000
69.6500 249.0000 1.0000
69.6600 264.0000 1.0000
69.6700 264.0000 1.0000
69.6800 283.0000 1.0000
69.6900 295.0000 1.0000
69.7000 269.0000 1.0000
69.7100 279.0000 1.0000
69.7200 284.0000 1.0000
69.7300 291.0000 1.0000
69.7400 303.0000 1.0000
69.7500 288.0000 1.0000
69.7600 275.0000 1.0000
69.7700 268.0000 1.0000
69.7800 275.0000 1.0000
69.7900 276.0000 1.0000
69.8000 257.0000 1.0000
69.8100 262.0000 1.0000
69.8200 276.0000 1.0000
69.8300 297.0000 1.0000
69.8400 278.0000 1.0000
69.8500 248.0000 1.0000
69.8600 281.0000 1.0000
69.8700 276.0000 1.0000
69.8800 311.0000 1.0000
69.8900 293.0000 1.0000
69.9000 265.0000 1.0000
69.9100 256.0000 1.0000
69.9200 262.0000 1.0000
69.9300 245.0000 1.0000
69.9400 273.0000 1.0000
69.9500 287.0000 1.0000
69.9600 281.0000 1.0000
69.9700 266.0000 1.0000
69.9800 266.0000 1.0000
69.9900 279.0000 1.0000
70.0000 269.0000 1.0000
*RAS_INT_END
*RAS_TEMPERATURE_START
*RAS_TEMPERATURE_END
*RAS_DATA_END
