*RAS_DATA_START
*RAS_HEADER_START
*DISP_FMT_X "%.2f"
*DISP_FMT_Y "%.0f"
*DISP_FULLSCALE "14055.0000000000"
*DISP_LINE_COLOR "255.0000000000"
*DISP_LINE_STYLE "0.0000000000"
*DISP_LINE_WIDTH "0.2500000000"
*DISP_NOTE "測定データ-1"
*DISP_OFFSET_Y "0.0000000000"
*DISP_PEAKSEARCH_UNIT_Y "cps"
*DISP_RANGE_BOTTOM "0.0000000000"
*DISP_RANGE_LEFT "20.0000000000"
*DISP_RANGE_LOGCUTOFF "0.0100000000"
*DISP_RANGE_RIGHT "70.0000000000"
*DISP_RANGE_TOP "14055.0000000000"
*DISP_SCALE_MODE_Y "0.0000000000"
*DISP_TAB_NAME "2θ/θ"
*DISP_TITLE_Y "強度"
*DISP_UNIT_Y "cps"
*DISP_WINDOW_NAME "MSG_MACROENGINE"
*FILE_COMMENT " "
*FILE_MD5 ""
*FILE_MEMO " "
*FILE_OPERATOR "Administrator"
*FILE_SAMPLE " "
*FILE_TYPE "RAS_RAW"
*FILE_USERGROUP "システムマネージャ"
*FILE_VERSION "1.0000000000"
*HW_ATTACHMENT_ID "ATT0025"
*HW_ATTACHMENT_NAME "標準|Standard"
*HW_COUNTER_ID-0 "CUT0025"
*HW_COUNTER_ID-1 "CUT0020"
*HW_COUNTER_ID-2 "CUT0020"
*HW_COUNTER_ID-3 "CSL0021"
*HW_COUNTER_ID-4 "CMC0021"
*HW_COUNTER_NAME-0 "D/teX Ultra|D/teX Ultra"
*HW_COUNTER_NAME-1 "None|None"
*HW_COUNTER_NAME-2 "None|None"
*HW_COUNTER_NAME-3 "BBM|BBM"
*HW_COUNTER_NAME-4 "検出器モノクロメータ|Detector monochromator"
*HW_COUNTER_SELECT_NAME "D/teX Ultra|D/teX Ultra"
*HW_GONIOMETER_ID "GON0023"
*HW_GONIOMETER_NAME "SmartLab|SmartLab"
*HW_GONIOMETER_RADIUS-0 "90.0"
*HW_GONIOMETER_RADIUS-1 "114.0"
*HW_GONIOMETER_RADIUS-2 "190.0"
*HW_GONIOMETER_RADIUS-3 "300.0"
*HW_GONIOMETER_RADIUS-4 "187.0"
*HW_GONIOMETER_RADIUS-5 "300.0"
*HW_GONIOMETER_RADIUS-6 "113.0"
*HW_GONIOMETER_RADIUS-7 "331.0"
*HW_I_OPT_ID-0 "CBO0021"
*HW_I_OPT_ID-1 "ICR0023"
*HW_I_OPT_ID-2 "ISL0021"
*HW_I_OPT_ID-3 "ISO0021"
*HW_I_OPT_ID-4 "IAD0021"
*HW_I_OPT_ID-5 "IPR0001"
*HW_I_OPT_NAME-0 "CBOユニット|CBO unit"
*HW_I_OPT_NAME-1 "標準入射光学ユニット|Standard incident optical unit"
*HW_I_OPT_NAME-2 "標準入射スリットボックス|Standard incident slit box"
*HW_I_OPT_NAME-3 "入射平行スリット|Incident parallel slit"
*HW_I_OPT_NAME-4 "長手制限スリット|Length limiting slit"
*HW_I_OPT_NAME-5 "None|None"
*HW_R_ATTENUATER_AUTOMODE "0"
*HW_R_OPT_ID-0 "RSS0021"
*HW_R_OPT_ID-1 "RCR0023"
*HW_R_OPT_ID-2 "RSO0021"
*HW_R_OPT_ID-3 "RRS0021"
*HW_R_OPT_ID-4 "ATN0021"
*HW_R_OPT_ID-5 "RFL0021"
*HW_R_OPT_ID-6 "RAD0021"
*HW_R_OPT_NAME-0 "標準受光スリットボックス1|Standard receiving slit box # 1"
*HW_R_OPT_NAME-1 "標準受光光学ユニット1|Standard receiving unit # 1"
*HW_R_OPT_NAME-2 "標準受光光学ユニット2|Standard receiving optical unit # 2"
*HW_R_OPT_NAME-3 "標準受光スリットボックス2|Standard receiving slit box # 2"
*HW_R_OPT_NAME-4 "標準アッテネータ|Standard Attenuator"
*HW_R_OPT_NAME-5 "Cu Kβ|Cu K-beta"
*HW_R_OPT_NAME-6 "調整用受光スリット|Alignment receiving slit"
*HW_SAMPLE_HOLDER_ID "SMP0023"
*HW_SAMPLE_HOLDER_NAME "標準Zステージ|Standard Z stage"
*HW_XG_CURRENT_MAX "50"
*HW_XG_CURRENT_MIN "2"
*HW_XG_CURRENT_RESOLUTION "1"
*HW_XG_CURRENT_UNIT "mA"
*HW_XG_FOCUS "1mm x 10mm"
*HW_XG_FOCUS_TYPE "Normal"
*HW_XG_ID ""
*HW_XG_NAME "3kW 封入管(ID:1200)|3kW Sealed tube(ID:1200)"
*HW_XG_TARGET_ATOMIC_NUMBER "29.0000000000"
*HW_XG_TARGET_NAME "Cu"
*HW_XG_TYPE "Hermetic"
*HW_XG_VOLTAGE_MAX "60"
*HW_XG_VOLTAGE_MIN "20"
*HW_XG_VOLTAGE_RESOLUTION "1"
*HW_XG_VOLTAGE_UNIT "kV"
*HW_XG_WATT_MAX "1.500"
*HW_XG_WATT_UNIT "kW"
*HW_XG_WAVE_LENGTH_ALPHA1 "1.540593"
*HW_XG_WAVE_LENGTH_ALPHA2 "1.544414"
*HW_XG_WAVE_LENGTH_BETA "1.392250"
*MEAS_COND_AXIS_NAME-0 "2θ/θ"
*MEAS_COND_AXIS_NAME-1 "2θ"
*MEAS_COND_AXIS_NAME-2 "ω"
*MEAS_COND_AXIS_NAME-3 "Z"
*MEAS_COND_AXIS_NAME-4 "2θ/ω"
*MEAS_COND_AXIS_NAME-5 "θs"
*MEAS_COND_AXIS_NAME-6 "θd"
*MEAS_COND_AXIS_NAME-7 "Ts"
*MEAS_COND_AXIS_NAME-8 "CBO選択スリット"
*MEAS_COND_AXIS_NAME-9 "M"
*MEAS_COND_AXIS_NAME-10 "入射平行スリット"
*MEAS_COND_AXIS_NAME-11 "入射スリット"
*MEAS_COND_AXIS_NAME-12 ""
*MEAS_COND_AXIS_NAME-13 "Zs"
*MEAS_COND_AXIS_NAME-14 "入射光学素子"
*MEAS_COND_AXIS_NAME-15 "長手制限スリット"
*MEAS_COND_AXIS_NAME-16 "センタースリット"
*MEAS_COND_AXIS_NAME-17 "フィルター"
*MEAS_COND_AXIS_NAME-18 "受光スリット1"
*MEAS_COND_AXIS_NAME-19 "受光スリット2"
*MEAS_COND_AXIS_NAME-20 "受光光学素子"
*MEAS_COND_AXIS_NAME-21 "受光平行スリット"
*MEAS_COND_AXIS_NAME-22 "調整用受光スリット"
*MEAS_COND_AXIS_NAME-23 ""
*MEAS_COND_AXIS_NAME-24 ""
*MEAS_COND_AXIS_NAME-25 "Zd"
*MEAS_COND_AXIS_NAME-26 "アッテネータ"
*MEAS_COND_AXIS_NAME-27 "検出器モノクロメータ"
*MEAS_COND_AXIS_NAME-28 "モノクロメータスリット"
*MEAS_COND_AXIS_NAME-29 "プライマリビーム"
*MEAS_COND_AXIS_NAME-30 "PHA"
*MEAS_COND_AXIS_NAME_INTERNAL-0 "TwoThetaTheta"
*MEAS_COND_AXIS_NAME_INTERNAL-1 "TwoTheta"
*MEAS_COND_AXIS_NAME_INTERNAL-2 "Omega"
*MEAS_COND_AXIS_NAME_INTERNAL-3 "Z"
*MEAS_COND_AXIS_NAME_INTERNAL-4 "TwoThetaOmega"
*MEAS_COND_AXIS_NAME_INTERNAL-5 "ThetaS"
*MEAS_COND_AXIS_NAME_INTERNAL-6 "ThetaD"
*MEAS_COND_AXIS_NAME_INTERNAL-7 "Ts"
*MEAS_COND_AXIS_NAME_INTERNAL-8 "CBO"
*MEAS_COND_AXIS_NAME_INTERNAL-9 "CBO-M"
*MEAS_COND_AXIS_NAME_INTERNAL-10 "IncidentSollerSlit"
*MEAS_COND_AXIS_NAME_INTERNAL-11 "IncidentSlitBox"
*MEAS_COND_AXIS_NAME_INTERNAL-12 "IncidentSlitBox-_Axis"
*MEAS_COND_AXIS_NAME_INTERNAL-13 "Zs"
*MEAS_COND_AXIS_NAME_INTERNAL-14 "IncidentMonochromator"
*MEAS_COND_AXIS_NAME_INTERNAL-15 "IncidentAxdSlit"
*MEAS_COND_AXIS_NAME_INTERNAL-16 "CenterSlit"
*MEAS_COND_AXIS_NAME_INTERNAL-17 "Filter"
*MEAS_COND_AXIS_NAME_INTERNAL-18 "ReceivingSlitBox1"
*MEAS_COND_AXIS_NAME_INTERNAL-19 "ReceivingSlitBox2"
*MEAS_COND_AXIS_NAME_INTERNAL-20 "ReceivingOptics"
*MEAS_COND_AXIS_NAME_INTERNAL-21 "ReceivingSollerSlit"
*MEAS_COND_AXIS_NAME_INTERNAL-22 "ReceivingAxdSlit"
*MEAS_COND_AXIS_NAME_INTERNAL-23 "ReceivingSlitBox1-_Axis"
*MEAS_COND_AXIS_NAME_INTERNAL-24 "ReceivingSlitBox2-_Axis"
*MEAS_COND_AXIS_NAME_INTERNAL-25 "ReceivingSlitBox2-Zd"
*MEAS_COND_AXIS_NAME_INTERNAL-26 "Attenuator"
*MEAS_COND_AXIS_NAME_INTERNAL-27 "CounterMonochromator"
*MEAS_COND_AXIS_NAME_INTERNAL-28 "CounterSlit"
*MEAS_COND_AXIS_NAME_INTERNAL-29 "IncidentPrimary"
*MEAS_COND_AXIS_NAME_INTERNAL-30 "PHA"
*MEAS_COND_AXIS_NAME_MAGICNO-0 "83951616.0000000000"
*MEAS_COND_AXIS_NAME_MAGICNO-1 "268632064.0000000000"
*MEAS_COND_AXIS_NAME_MAGICNO-2 "268500992.0000000000"
*MEAS_COND_AXIS_NAME_MAGICNO-3 "285278208.0000000000"
*MEAS_COND_AXIS_NAME_MAGICNO-4 "83951616.0000000000"
*MEAS_COND_AXIS_NAME_MAGICNO-5 "131072.0000000000"
*MEAS_COND_AXIS_NAME_MAGICNO-6 "131072.0000000000"
*MEAS_COND_AXIS_NAME_MAGICNO-7 "318898176.0000000000"
*MEAS_COND_AXIS_NAME_MAGICNO-8 "20971521.0000000000"
*MEAS_COND_AXIS_NAME_MAGICNO-9 "285343744.0000000000"
*MEAS_COND_AXIS_NAME_MAGICNO-10 "20971521.0000000000"
*MEAS_COND_AXIS_NAME_MAGICNO-11 "22020097.0000000000"
*MEAS_COND_AXIS_NAME_MAGICNO-12 "25165824.0000000000"
*MEAS_COND_AXIS_NAME_MAGICNO-13 "318898176.0000000000"
*MEAS_COND_AXIS_NAME_MAGICNO-14 "1.0000000000"
*MEAS_COND_AXIS_NAME_MAGICNO-15 "20971521.0000000000"
*MEAS_COND_AXIS_NAME_MAGICNO-16 "20971521.0000000000"
*MEAS_COND_AXIS_NAME_MAGICNO-17 "20971521.0000000000"
*MEAS_COND_AXIS_NAME_MAGICNO-18 "23068673.0000000000"
*MEAS_COND_AXIS_NAME_MAGICNO-19 "23068673.0000000000"
*MEAS_COND_AXIS_NAME_MAGICNO-20 "20971521.0000000000"
*MEAS_COND_AXIS_NAME_MAGICNO-21 "20971521.0000000000"
*MEAS_COND_AXIS_NAME_MAGICNO-22 "20971521.0000000000"
*MEAS_COND_AXIS_NAME_MAGICNO-23 "25165824.0000000000"
*MEAS_COND_AXIS_NAME_MAGICNO-24 "25165824.0000000000"
*MEAS_COND_AXIS_NAME_MAGICNO-25 "285343744.0000000000"
*MEAS_COND_AXIS_NAME_MAGICNO-26 "17301505.0000000000"
*MEAS_COND_AXIS_NAME_MAGICNO-27 "20971521.0000000000"
*MEAS_COND_AXIS_NAME_MAGICNO-28 "20971521.0000000000"
*MEAS_COND_AXIS_NAME_MAGICNO-29 "20971521.0000000000"
*MEAS_COND_AXIS_NAME_MAGICNO-30 "0.0000000000"
*MEAS_COND_AXIS_OFFSET-0 "-"
*MEAS_COND_AXIS_OFFSET-1 "-0.1081000000"
*MEAS_COND_AXIS_OFFSET-2 "0.3758000000"
*MEAS_COND_AXIS_OFFSET-3 "-"
*MEAS_COND_AXIS_OFFSET-4 "-"
*MEAS_COND_AXIS_OFFSET-5 "0.3758000000"
*MEAS_COND_AXIS_OFFSET-6 "-0.4839000000"
*MEAS_COND_AXIS_OFFSET-7 "-"
*MEAS_COND_AXIS_OFFSET-8 "-"
*MEAS_COND_AXIS_OFFSET-9 "-"
*MEAS_COND_AXIS_OFFSET-10 "-"
*MEAS_COND_AXIS_OFFSET-11 "-"
*MEAS_COND_AXIS_OFFSET-12 "-"
*MEAS_COND_AXIS_OFFSET-13 "-"
*MEAS_COND_AXIS_OFFSET-14 "-"
*MEAS_COND_AXIS_OFFSET-15 "-"
*MEAS_COND_AXIS_OFFSET-16 "-"
*MEAS_COND_AXIS_OFFSET-17 "-"
*MEAS_COND_AXIS_OFFSET-18 "-"
*MEAS_COND_AXIS_OFFSET-19 "-"
*MEAS_COND_AXIS_OFFSET-20 "-"
*MEAS_COND_AXIS_OFFSET-21 "-"
*MEAS_COND_AXIS_OFFSET-22 "-"
*MEAS_COND_AXIS_OFFSET-23 "-"
*MEAS_COND_AXIS_OFFSET-24 "-"
*MEAS_COND_AXIS_OFFSET-25 "-"
*MEAS_COND_AXIS_OFFSET-26 "-"
*MEAS_COND_AXIS_OFFSET-27 "-"
*MEAS_COND_AXIS_OFFSET-28 "-"
*MEAS_COND_AXIS_OFFSET-29 "-"
*MEAS_COND_AXIS_OFFSET-30 "-"
*MEAS_COND_AXIS_POSITION-0 "0.0000000000"
*MEAS_COND_AXIS_POSITION-1 "0.0000000000"
*MEAS_COND_AXIS_POSITION-2 "0.0000000000"
*MEAS_COND_AXIS_POSITION-3 "-0.5500000000"
*MEAS_COND_AXIS_POSITION-4 "0.0000000000"
*MEAS_COND_AXIS_POSITION-5 "0.0000000000"
*MEAS_COND_AXIS_POSITION-6 "0.0000000000"
*MEAS_COND_AXIS_POSITION-7 "-0.4278800000"
*MEAS_COND_AXIS_POSITION-8 "BB"
*MEAS_COND_AXIS_POSITION-9 "0.0000000000"
*MEAS_COND_AXIS_POSITION-10 "Soller_slit_5.0deg"
*MEAS_COND_AXIS_POSITION-11 "2/3deg"
*MEAS_COND_AXIS_POSITION-12 "2.2088000000"
*MEAS_COND_AXIS_POSITION-13 "-0.4140600000"
*MEAS_COND_AXIS_POSITION-14 "0.0000000000"
*MEAS_COND_AXIS_POSITION-15 "10.0mm"
*MEAS_COND_AXIS_POSITION-16 "None"
*MEAS_COND_AXIS_POSITION-17 "Cu_K-beta"
*MEAS_COND_AXIS_POSITION-18 "13.000mm"
*MEAS_COND_AXIS_POSITION-19 "13.000mm"
*MEAS_COND_AXIS_POSITION-20 "No_unit"
*MEAS_COND_AXIS_POSITION-21 "Soller_slit_5.0deg"
*MEAS_COND_AXIS_POSITION-22 "None"
*MEAS_COND_AXIS_POSITION-23 "13.0000000000"
*MEAS_COND_AXIS_POSITION-24 "13.0000000000"
*MEAS_COND_AXIS_POSITION-25 "0.0109400000"
*MEAS_COND_AXIS_POSITION-26 "Open"
*MEAS_COND_AXIS_POSITION-27 "None"
*MEAS_COND_AXIS_POSITION-28 "None"
*MEAS_COND_AXIS_POSITION-29 "None"
*MEAS_COND_AXIS_POSITION-30 "38.0000000000"
*MEAS_COND_AXIS_UNIT-0 "deg"
*MEAS_COND_AXIS_UNIT-1 "deg"
*MEAS_COND_AXIS_UNIT-2 "deg"
*MEAS_COND_AXIS_UNIT-3 "mm"
*MEAS_COND_AXIS_UNIT-4 "deg"
*MEAS_COND_AXIS_UNIT-5 "deg"
*MEAS_COND_AXIS_UNIT-6 "deg"
*MEAS_COND_AXIS_UNIT-7 "mm"
*MEAS_COND_AXIS_UNIT-8 ""
*MEAS_COND_AXIS_UNIT-9 "pulse"
*MEAS_COND_AXIS_UNIT-10 ""
*MEAS_COND_AXIS_UNIT-11 ""
*MEAS_COND_AXIS_UNIT-12 "mm"
*MEAS_COND_AXIS_UNIT-13 "mm"
*MEAS_COND_AXIS_UNIT-14 ""
*MEAS_COND_AXIS_UNIT-15 ""
*MEAS_COND_AXIS_UNIT-16 ""
*MEAS_COND_AXIS_UNIT-17 ""
*MEAS_COND_AXIS_UNIT-18 ""
*MEAS_COND_AXIS_UNIT-19 ""
*MEAS_COND_AXIS_UNIT-20 ""
*MEAS_COND_AXIS_UNIT-21 ""
*MEAS_COND_AXIS_UNIT-22 ""
*MEAS_COND_AXIS_UNIT-23 "mm"
*MEAS_COND_AXIS_UNIT-24 "mm"
*MEAS_COND_AXIS_UNIT-25 "mm"
*MEAS_COND_AXIS_UNIT-26 ""
*MEAS_COND_AXIS_UNIT-27 ""
*MEAS_COND_AXIS_UNIT-28 ""
*MEAS_COND_AXIS_UNIT-29 ""
*MEAS_COND_AXIS_UNIT-30 "div"
*MEAS_COND_COUNTER_CNTLOSS_CORR "0.0000000000"
*MEAS_COND_COUNTER_PHABASE "38.0000000000"
*MEAS_COND_COUNTER_PHAWINDOW "16.0000000000"
*MEAS_COND_COUNTER_PHA_UNIT "div"
*MEAS_COND_COUNTER_TAUDIFF "30.0000000000"
*MEAS_COND_COUNTER_TAUINT "0.0000000000"
*MEAS_COND_IRRADIATION_MODE "OFF"
*MEAS_COND_IRRADIATION_WIDTH ""
*MEAS_COND_OPT_ATTR "集中法"
*MEAS_COND_OPT_NAME "@集中法"
*MEAS_COND_UNSYMMETRIC_MODE "OFF"
*MEAS_COND_XG_CURRENT "30.0000000000"
*MEAS_COND_XG_VOLTAGE "40.0000000000"
*MEAS_COND_XG_WAVE_TYPE "Ka"
*MEAS_DATA_COUNT "5001.0000000000"
*MEAS_SCAN_AXIS_X "2θ/θ"
*MEAS_SCAN_AXIS_X_INTERNAL "TwoThetaTheta"
*MEAS_SCAN_END_TIME "07/28/21 11:18:53"
*MEAS_SCAN_MODE "CONTINUOUS"
*MEAS_SCAN_MONITOR "0"
*MEAS_SCAN_RESOLUTION_X "0.0002"
*MEAS_SCAN_SPEED "2.5"
*MEAS_SCAN_SPEED_UNIT "deg/min"
*MEAS_SCAN_START "20.0000000000"
*MEAS_SCAN_START_TIME "07/28/21 10:57:29"
*MEAS_SCAN_STEP "0.0100000000"
*MEAS_SCAN_STOP "70.0000000000"
*MEAS_SCAN_UNIT_X "deg"
*MEAS_SCAN_UNIT_Y "counts"
*RAS_HEADER_END
*RAS_INT_START
20.0000 677.0000 1.0000
20.0100 730.0000 1.0000
20.0200 736.0000 1.0000
20.0300 735.0000 1.0000
20.0400 718.0000 1.0000
20.0500 730.0000 1.0000
20.0600 719.0000 1.0000
20.0700 685.0000 1.0000
20.0800 677.0000 1.0000
20.0900 727.0000 1.0000
20.1000 689.0000 1.0000
20.1100 683.0000 1.0000
20.1200 695.0000 1.0000
20.1300 678.0000 1.0000
20.1400 659.0000 1.0000
20.1500 713.0000 1.0000
20.1600 721.0000 1.0000
20.1700 688.0000 1.0000
20.1800 753.0000 1.0000
20.1900 685.0000 1.0000
20.2000 709.0000 1.0000
20.2100 708.0000 1.0000
20.2200 708.0000 1.0000
20.2300 663.0000 1.0000
20.2400 681.0000 1.0000
20.2500 693.0000 1.0000
20.2600 712.0000 1.0000
20.2700 706.0000 1.0000
20.2800 728.0000 1.0000
20.2900 675.0000 1.0000
20.3000 668.0000 1.0000
20.3100 707.0000 1.0000
20.3200 670.0000 1.0000
20.3300 663.0000 1.0000
20.3400 671.0000 1.0000
20.3500 716.0000 1.0000
20.3600 704.0000 1.0000
20.3700 693.0000 1.0000
20.3800 724.0000 1.0000
20.3900 696.0000 1.0000
20.4000 672.0000 1.0000
20.4100 697.0000 1.0000
20.4200 735.0000 1.0000
20.4300 676.0000 1.0000
20.4400 667.0000 1.0000
20.4500 694.0000 1.0000
20.4600 691.0000 1.0000
20.4700 696.0000 1.0000
20.4800 676.0000 1.0000
20.4900 674.0000 1.0000
20.5000 689.0000 1.0000
20.5100 695.0000 1.0000
20.5200 683.0000 1.0000
20.5300 712.0000 1.0000
20.5400 678.0000 1.0000
20.5500 710.0000 1.0000
20.5600 719.0000 1.0000
20.5700 716.0000 1.0000
20.5800 694.0000 1.0000
20.5900 654.0000 1.0000
20.6000 709.0000 1.0000
20.6100 680.0000 1.0000
20.6200 682.0000 1.0000
20.6300 726.0000 1.0000
20.6400 685.0000 1.0000
20.6500 697.0000 1.0000
20.6600 719.0000 1.0000
20.6700 713.0000 1.0000
20.6800 655.0000 1.0000
20.6900 711.0000 1.0000
20.7000 717.0000 1.0000
20.7100 656.0000 1.0000
20.7200 680.0000 1.0000
20.7300 679.0000 1.0000
20.7400 636.0000 1.0000
20.7500 701.0000 1.0000
20.7600 710.0000 1.0000
20.7700 699.0000 1.0000
20.7800 715.0000 1.0000
20.7900 679.0000 1.0000
20.8000 680.0000 1.0000
20.8100 670.0000 1.0000
20.8200 680.0000 1.0000
20.8300 671.0000 1.0000
20.8400 666.0000 1.0000
20.8500 687.0000 1.0000
20.8600 681.0000 1.0000
20.8700 712.0000 1.0000
20.8800 707.0000 1.0000
20.8900 702.0000 1.0000
20.9000 732.0000 1.0000
20.9100 712.0000 1.0000
20.9200 681.0000 1.0000
20.9300 709.0000 1.0000
20.9400 698.0000 1.0000
20.9500 708.0000 1.0000
20.9600 694.0000 1.0000
20.9700 751.0000 1.0000
20.9800 719.0000 1.0000
20.9900 702.0000 1.0000
21.0000 681.0000 1.0000
21.0100 709.0000 1.0000
21.0200 691.0000 1.0000
21.0300 699.0000 1.0000
21.0400 676.0000 1.0000
21.0500 637.0000 1.0000
21.0600 722.0000 1.0000
21.0700 694.0000 1.0000
21.0800 693.0000 1.0000
21.0900 724.0000 1.0000
21.1000 709.0000 1.0000
21.1100 711.0000 1.0000
21.1200 701.0000 1.0000
21.1300 677.0000 1.0000
21.1400 744.0000 1.0000
21.1500 726.0000 1.0000
21.1600 679.0000 1.0000
21.1700 681.0000 1.0000
21.1800 674.0000 1.0000
21.1900 703.0000 1.0000
21.2000 686.0000 1.0000
21.2100 718.0000 1.0000
21.2200 745.0000 1.0000
21.2300 703.0000 1.0000
21.2400 684.0000 1.0000
21.2500 704.0000 1.0000
21.2600 695.0000 1.0000
21.2700 660.0000 1.0000
21.2800 692.0000 1.0000
21.2900 660.0000 1.0000
21.3000 642.0000 1.0000
21.3100 699.0000 1.0000
21.3200 723.0000 1.0000
21.3300 709.0000 1.0000
21.3400 689.0000 1.0000
21.3500 707.0000 1.0000
21.3600 691.0000 1.0000
21.3700 677.0000 1.0000
21.3800 688.0000 1.0000
21.3900 728.0000 1.0000
21.4000 723.0000 1.0000
21.4100 706.0000 1.0000
21.4200 713.0000 1.0000
21.4300 704.0000 1.0000
21.4400 768.0000 1.0000
21.4500 690.0000 1.0000
21.4600 699.0000 1.0000
21.4700 715.0000 1.0000
21.4800 719.0000 1.0000
21.4900 724.0000 1.0000
21.5000 681.0000 1.0000
21.5100 734.0000 1.0000
21.5200 745.0000 1.0000
21.5300 678.0000 1.0000
21.5400 689.0000 1.0000
21.5500 703.0000 1.0000
21.5600 717.0000 1.0000
21.5700 721.0000 1.0000
21.5800 744.0000 1.0000
21.5900 692.0000 1.0000
21.6000 704.0000 1.0000
21.6100 715.0000 1.0000
21.6200 727.0000 1.0000
21.6300 718.0000 1.0000
21.6400 656.0000 1.0000
21.6500 686.0000 1.0000
21.6600 706.0000 1.0000
21.6700 714.0000 1.0000
21.6800 690.0000 1.0000
21.6900 683.0000 1.0000
21.7000 703.0000 1.0000
21.7100 673.0000 1.0000
21.7200 658.0000 1.0000
21.7300 672.0000 1.0000
21.7400 716.0000 1.0000
21.7500 711.0000 1.0000
21.7600 686.0000 1.0000
21.7700 676.0000 1.0000
21.7800 643.0000 1.0000
21.7900 695.0000 1.0000
21.8000 678.0000 1.0000
21.8100 729.0000 1.0000
21.8200 702.0000 1.0000
21.8300 720.0000 1.0000
21.8400 732.0000 1.0000
21.8500 710.0000 1.0000
21.8600 724.0000 1.0000
21.8700 728.0000 1.0000
21.8800 693.0000 1.0000
21.8900 727.0000 1.0000
21.9000 680.0000 1.0000
21.9100 708.0000 1.0000
21.9200 729.0000 1.0000
21.9300 717.0000 1.0000
21.9400 718.0000 1.0000
21.9500 725.0000 1.0000
21.9600 730.0000 1.0000
21.9700 710.0000 1.0000
21.9800 682.0000 1.0000
21.9900 721.0000 1.0000
22.0000 760.0000 1.0000
22.0100 698.0000 1.0000
22.0200 698.0000 1.0000
22.0300 732.0000 1.0000
22.0400 745.0000 1.0000
22.0500 725.0000 1.0000
22.0600 720.0000 1.0000
22.0700 716.0000 1.0000
22.0800 740.0000 1.0000
22.0900 693.0000 1.0000
22.1000 702.0000 1.0000
22.1100 712.0000 1.0000
22.1200 716.0000 1.0000
22.1300 686.0000 1.0000
22.1400 719.0000 1.0000
22.1500 701.0000 1.0000
22.1600 669.0000 1.0000
22.1700 632.0000 1.0000
22.1800 702.0000 1.0000
22.1900 733.0000 1.0000
22.2000 737.0000 1.0000
22.2100 702.0000 1.0000
22.2200 736.0000 1.0000
22.2300 702.0000 1.0000
22.2400 672.0000 1.0000
22.2500 721.0000 1.0000
22.2600 741.0000 1.0000
22.2700 712.0000 1.0000
22.2800 711.0000 1.0000
22.2900 718.0000 1.0000
22.3000 704.0000 1.0000
22.3100 706.0000 1.0000
22.3200 705.0000 1.0000
22.3300 711.0000 1.0000
22.3400 717.0000 1.0000
22.3500 698.0000 1.0000
22.3600 673.0000 1.0000
22.3700 695.0000 1.0000
22.3800 698.0000 1.0000
22.3900 705.0000 1.0000
22.4000 740.0000 1.0000
22.4100 739.0000 1.0000
22.4200 725.0000 1.0000
22.4300 725.0000 1.0000
22.4400 708.0000 1.0000
22.4500 723.0000 1.0000
22.4600 695.0000 1.0000
22.4700 687.0000 1.0000
22.4800 745.0000 1.0000
22.4900 714.0000 1.0000
22.5000 746.0000 1.0000
22.5100 715.0000 1.0000
22.5200 698.0000 1.0000
22.5300 706.0000 1.0000
22.5400 748.0000 1.0000
22.5500 742.0000 1.0000
22.5600 724.0000 1.0000
22.5700 714.0000 1.0000
22.5800 692.0000 1.0000
22.5900 706.0000 1.0000
22.6000 720.0000 1.0000
22.6100 726.0000 1.0000
22.6200 748.0000 1.0000
22.6300 722.0000 1.0000
22.6400 693.0000 1.0000
22.6500 739.0000 1.0000
22.6600 710.0000 1.0000
22.6700 710.0000 1.0000
22.6800 693.0000 1.0000
22.6900 724.0000 1.0000
22.7000 746.0000 1.0000
22.7100 734.0000 1.0000
22.7200 715.0000 1.0000
22.7300 681.0000 1.0000
22.7400 716.0000 1.0000
22.7500 707.0000 1.0000
22.7600 770.0000 1.0000
22.7700 695.0000 1.0000
22.7800 684.0000 1.0000
22.7900 717.0000 1.0000
22.8000 746.0000 1.0000
22.8100 725.0000 1.0000
22.8200 700.0000 1.0000
22.8300 681.0000 1.0000
22.8400 667.0000 1.0000
22.8500 705.0000 1.0000
22.8600 731.0000 1.0000
22.8700 729.0000 1.0000
22.8800 728.0000 1.0000
22.8900 693.0000 1.0000
22.9000 682.0000 1.0000
22.9100 689.0000 1.0000
22.9200 689.0000 1.0000
22.9300 709.0000 1.0000
22.9400 700.0000 1.0000
22.9500 759.0000 1.0000
22.9600 744.0000 1.0000
22.9700 722.0000 1.0000
22.9800 694.0000 1.0000
22.9900 716.0000 1.0000
23.0000 696.0000 1.0000
23.0100 705.0000 1.0000
23.0200 718.0000 1.0000
23.0300 680.0000 1.0000
23.0400 748.0000 1.0000
23.0500 734.0000 1.0000
23.0600 712.0000 1.0000
23.0700 710.0000 1.0000
23.0800 687.0000 1.0000
23.0900 698.0000 1.0000
23.1000 720.0000 1.0000
23.1100 734.0000 1.0000
23.1200 707.0000 1.0000
23.1300 713.0000 1.0000
23.1400 745.0000 1.0000
23.1500 729.0000 1.0000
23.1600 734.0000 1.0000
23.1700 753.0000 1.0000
23.1800 675.0000 1.0000
23.1900 708.0000 1.0000
23.2000 705.0000 1.0000
23.2100 700.0000 1.0000
23.2200 694.0000 1.0000
23.2300 688.0000 1.0000
23.2400 696.0000 1.0000
23.2500 708.0000 1.0000
23.2600 716.0000 1.0000
23.2700 664.0000 1.0000
23.2800 710.0000 1.0000
23.2900 716.0000 1.0000
23.3000 688.0000 1.0000
23.3100 726.0000 1.0000
23.3200 736.0000 1.0000
23.3300 739.0000 1.0000
23.3400 723.0000 1.0000
23.3500 739.0000 1.0000
23.3600 725.0000 1.0000
23.3700 707.0000 1.0000
23.3800 705.0000 1.0000
23.3900 740.0000 1.0000
23.4000 702.0000 1.0000
23.4100 718.0000 1.0000
23.4200 709.0000 1.0000
23.4300 687.0000 1.0000
23.4400 704.0000 1.0000
23.4500 705.0000 1.0000
23.4600 692.0000 1.0000
23.4700 715.0000 1.0000
23.4800 745.0000 1.0000
23.4900 712.0000 1.0000
23.5000 708.0000 1.0000
23.5100 753.0000 1.0000
23.5200 664.0000 1.0000
23.5300 685.0000 1.0000
23.5400 685.0000 1.0000
23.5500 727.0000 1.0000
23.5600 685.0000 1.0000
23.5700 719.0000 1.0000
23.5800 711.0000 1.0000
23.5900 694.0000 1.0000
23.6000 705.0000 1.0000
23.6100 705.0000 1.0000
23.6200 751.0000 1.0000
23.6300 761.0000 1.0000
23.6400 711.0000 1.0000
23.6500 688.0000 1.0000
23.6600 704.0000 1.0000
23.6700 672.0000 1.0000
23.6800 710.0000 1.0000
23.6900 760.0000 1.0000
23.7000 789.0000 1.0000
23.7100 737.0000 1.0000
23.7200 651.0000 1.0000
23.7300 714.0000 1.0000
23.7400 673.0000 1.0000
23.7500 719.0000 1.0000
23.7600 712.0000 1.0000
23.7700 705.0000 1.0000
23.7800 694.0000 1.0000
23.7900 748.0000 1.0000
23.8000 712.0000 1.0000
23.8100 721.0000 1.0000
23.8200 707.0000 1.0000
23.8300 711.0000 1.0000
23.8400 695.0000 1.0000
23.8500 701.0000 1.0000
23.8600 688.0000 1.0000
23.8700 710.0000 1.0000
23.8800 697.0000 1.0000
23.8900 672.0000 1.0000
23.9000 739.0000 1.0000
23.9100 704.0000 1.0000
23.9200 709.0000 1.0000
23.9300 707.0000 1.0000
23.9400 750.0000 1.0000
23.9500 747.0000 1.0000
23.9600 704.0000 1.0000
23.9700 718.0000 1.0000
23.9800 700.0000 1.0000
23.9900 714.0000 1.0000
24.0000 700.0000 1.0000
24.0100 715.0000 1.0000
24.0200 705.0000 1.0000
24.0300 696.0000 1.0000
24.0400 720.0000 1.0000
24.0500 709.0000 1.0000
24.0600 693.0000 1.0000
24.0700 692.0000 1.0000
24.0800 699.0000 1.0000
24.0900 720.0000 1.0000
24.1000 723.0000 1.0000
24.1100 723.0000 1.0000
24.1200 731.0000 1.0000
24.1300 711.0000 1.0000
24.1400 750.0000 1.0000
24.1500 756.0000 1.0000
24.1600 744.0000 1.0000
24.1700 724.0000 1.0000
24.1800 721.0000 1.0000
24.1900 696.0000 1.0000
24.2000 714.0000 1.0000
24.2100 697.0000 1.0000
24.2200 713.0000 1.0000
24.2300 687.0000 1.0000
24.2400 726.0000 1.0000
24.2500 768.0000 1.0000
24.2600 729.0000 1.0000
24.2700 707.0000 1.0000
24.2800 750.0000 1.0000
24.2900 742.0000 1.0000
24.3000 727.0000 1.0000
24.3100 691.0000 1.0000
24.3200 710.0000 1.0000
24.3300 735.0000 1.0000
24.3400 702.0000 1.0000
24.3500 722.0000 1.0000
24.3600 715.0000 1.0000
24.3700 718.0000 1.0000
24.3800 694.0000 1.0000
24.3900 687.0000 1.0000
24.4000 714.0000 1.0000
24.4100 748.0000 1.0000
24.4200 685.0000 1.0000
24.4300 743.0000 1.0000
24.4400 719.0000 1.0000
24.4500 746.0000 1.0000
24.4600 713.0000 1.0000
24.4700 735.0000 1.0000
24.4800 695.0000 1.0000
24.4900 690.0000 1.0000
24.5000 728.0000 1.0000
24.5100 744.0000 1.0000
24.5200 738.0000 1.0000
24.5300 714.0000 1.0000
24.5400 688.0000 1.0000
24.5500 753.0000 1.0000
24.5600 709.0000 1.0000
24.5700 725.0000 1.0000
24.5800 709.0000 1.0000
24.5900 681.0000 1.0000
24.6000 748.0000 1.0000
24.6100 780.0000 1.0000
24.6200 747.0000 1.0000
24.6300 704.0000 1.0000
24.6400 743.0000 1.0000
24.6500 725.0000 1.0000
24.6600 737.0000 1.0000
24.6700 711.0000 1.0000
24.6800 749.0000 1.0000
24.6900 747.0000 1.0000
24.7000 775.0000 1.0000
24.7100 743.0000 1.0000
24.7200 751.0000 1.0000
24.7300 757.0000 1.0000
24.7400 744.0000 1.0000
24.7500 728.0000 1.0000
24.7600 749.0000 1.0000
24.7700 750.0000 1.0000
24.7800 735.0000 1.0000
24.7900 762.0000 1.0000
24.8000 722.0000 1.0000
24.8100 767.0000 1.0000
24.8200 742.0000 1.0000
24.8300 716.0000 1.0000
24.8400 726.0000 1.0000
24.8500 739.0000 1.0000
24.8600 734.0000 1.0000
24.8700 769.0000 1.0000
24.8800 765.0000 1.0000
24.8900 770.0000 1.0000
24.9000 831.0000 1.0000
24.9100 775.0000 1.0000
24.9200 750.0000 1.0000
24.9300 736.0000 1.0000
24.9400 772.0000 1.0000
24.9500 780.0000 1.0000
24.9600 769.0000 1.0000
24.9700 748.0000 1.0000
24.9800 778.0000 1.0000
24.9900 732.0000 1.0000
25.0000 755.0000 1.0000
25.0100 759.0000 1.0000
25.0200 780.0000 1.0000
25.0300 740.0000 1.0000
25.0400 740.0000 1.0000
25.0500 726.0000 1.0000
25.0600 754.0000 1.0000
25.0700 790.0000 1.0000
25.0800 757.0000 1.0000
25.0900 724.0000 1.0000
25.1000 766.0000 1.0000
25.1100 745.0000 1.0000
25.1200 761.0000 1.0000
25.1300 761.0000 1.0000
25.1400 777.0000 1.0000
25.1500 779.0000 1.0000
25.1600 755.0000 1.0000
25.1700 744.0000 1.0000
25.1800 744.0000 1.0000
25.1900 727.0000 1.0000
25.2000 749.0000 1.0000
25.2100 722.0000 1.0000
25.2200 753.0000 1.0000
25.2300 777.0000 1.0000
25.2400 768.0000 1.0000
25.2500 767.0000 1.0000
25.2600 805.0000 1.0000
25.2700 722.0000 1.0000
25.2800 739.0000 1.0000
25.2900 756.0000 1.0000
25.3000 766.0000 1.0000
25.3100 738.0000 1.0000
25.3200 738.0000 1.0000
25.3300 741.0000 1.0000
25.3400 762.0000 1.0000
25.3500 736.0000 1.0000
25.3600 742.0000 1.0000
25.3700 729.0000 1.0000
25.3800 788.0000 1.0000
25.3900 771.0000 1.0000
25.4000 752.0000 1.0000
25.4100 742.0000 1.0000
25.4200 761.0000 1.0000
25.4300 737.0000 1.0000
25.4400 787.0000 1.0000
25.4500 732.0000 1.0000
25.4600 731.0000 1.0000
25.4700 707.0000 1.0000
25.4800 715.0000 1.0000
25.4900 727.0000 1.0000
25.5000 710.0000 1.0000
25.5100 723.0000 1.0000
25.5200 768.0000 1.0000
25.5300 721.0000 1.0000
25.5400 757.0000 1.0000
25.5500 736.0000 1.0000
25.5600 737.0000 1.0000
25.5700 728.0000 1.0000
25.5800 691.0000 1.0000
25.5900 728.0000 1.0000
25.6000 753.0000 1.0000
25.6100 757.0000 1.0000
25.6200 772.0000 1.0000
25.6300 739.0000 1.0000
25.6400 721.0000 1.0000
25.6500 756.0000 1.0000
25.6600 723.0000 1.0000
25.6700 685.0000 1.0000
25.6800 715.0000 1.0000
25.6900 740.0000 1.0000
25.7000 716.0000 1.0000
25.7100 739.0000 1.0000
25.7200 692.0000 1.0000
25.7300 744.0000 1.0000
25.7400 793.0000 1.0000
25.7500 746.0000 1.0000
25.7600 734.0000 1.0000
25.7700 678.0000 1.0000
25.7800 721.0000 1.0000
25.7900 722.0000 1.0000
25.8000 764.0000 1.0000
25.8100 751.0000 1.0000
25.8200 755.0000 1.0000
25.8300 757.0000 1.0000
25.8400 745.0000 1.0000
25.8500 748.0000 1.0000
25.8600 784.0000 1.0000
25.8700 766.0000 1.0000
25.8800 741.0000 1.0000
25.8900 685.0000 1.0000
25.9000 736.0000 1.0000
25.9100 693.0000 1.0000
25.9200 709.0000 1.0000
25.9300 734.0000 1.0000
25.9400 738.0000 1.0000
25.9500 746.0000 1.0000
25.9600 716.0000 1.0000
25.9700 759.0000 1.0000
25.9800 766.0000 1.0000
25.9900 735.0000 1.0000
26.0000 718.0000 1.0000
26.0100 716.0000 1.0000
26.0200 696.0000 1.0000
26.0300 743.0000 1.0000
26.0400 750.0000 1.0000
26.0500 710.0000 1.0000
26.0600 722.0000 1.0000
26.0700 734.0000 1.0000
26.0800 720.0000 1.0000
26.0900 740.0000 1.0000
26.1000 742.0000 1.0000
26.1100 725.0000 1.0000
26.1200 735.0000 1.0000
26.1300 712.0000 1.0000
26.1400 740.0000 1.0000
26.1500 737.0000 1.0000
26.1600 753.0000 1.0000
26.1700 733.0000 1.0000
26.1800 780.0000 1.0000
26.1900 749.0000 1.0000
26.2000 748.0000 1.0000
26.2100 726.0000 1.0000
26.2200 755.0000 1.0000
26.2300 722.0000 1.0000
26.2400 755.0000 1.0000
26.2500 751.0000 1.0000
26.2600 743.0000 1.0000
26.2700 739.0000 1.0000
26.2800 725.0000 1.0000
26.2900 746.0000 1.0000
26.3000 786.0000 1.0000
26.3100 767.0000 1.0000
26.3200 779.0000 1.0000
26.3300 730.0000 1.0000
26.3400 746.0000 1.0000
26.3500 758.0000 1.0000
26.3600 753.0000 1.0000
26.3700 747.0000 1.0000
26.3800 764.0000 1.0000
26.3900 777.0000 1.0000
26.4000 743.0000 1.0000
26.4100 793.0000 1.0000
26.4200 766.0000 1.0000
26.4300 760.0000 1.0000
26.4400 802.0000 1.0000
26.4500 754.0000 1.0000
26.4600 738.0000 1.0000
26.4700 749.0000 1.0000
26.4800 738.0000 1.0000
26.4900 757.0000 1.0000
26.5000 762.0000 1.0000
26.5100 721.0000 1.0000
26.5200 717.0000 1.0000
26.5300 758.0000 1.0000
26.5400 801.0000 1.0000
26.5500 745.0000 1.0000
26.5600 766.0000 1.0000
26.5700 734.0000 1.0000
26.5800 726.0000 1.0000
26.5900 813.0000 1.0000
26.6000 774.0000 1.0000
26.6100 767.0000 1.0000
26.6200 769.0000 1.0000
26.6300 787.0000 1.0000
26.6400 738.0000 1.0000
26.6500 794.0000 1.0000
26.6600 760.0000 1.0000
26.6700 814.0000 1.0000
26.6800 804.0000 1.0000
26.6900 748.0000 1.0000
26.7000 805.0000 1.0000
26.7100 775.0000 1.0000
26.7200 778.0000 1.0000
26.7300 841.0000 1.0000
26.7400 804.0000 1.0000
26.7500 804.0000 1.0000
26.7600 807.0000 1.0000
26.7700 772.0000 1.0000
26.7800 750.0000 1.0000
26.7900 836.0000 1.0000
26.8000 781.0000 1.0000
26.8100 792.0000 1.0000
26.8200 752.0000 1.0000
26.8300 808.0000 1.0000
26.8400 857.0000 1.0000
26.8500 833.0000 1.0000
26.8600 822.0000 1.0000
26.8700 881.0000 1.0000
26.8800 837.0000 1.0000
26.8900 921.0000 1.0000
26.9000 859.0000 1.0000
26.9100 845.0000 1.0000
26.9200 896.0000 1.0000
26.9300 874.0000 1.0000
26.9400 848.0000 1.0000
26.9500 891.0000 1.0000
26.9600 891.0000 1.0000
26.9700 914.0000 1.0000
26.9800 930.0000 1.0000
26.9900 954.0000 1.0000
27.0000 978.0000 1.0000
27.0100 1033.0000 1.0000
27.0200 1011.0000 1.0000
27.0300 1006.0000 1.0000
27.0400 1025.0000 1.0000
27.0500 1044.0000 1.0000
27.0600 1056.0000 1.0000
27.0700 1073.0000 1.0000
27.0800 1070.0000 1.0000
27.0900 1111.0000 1.0000
27.1000 1179.0000 1.0000
27.1100 1229.0000 1.0000
27.1200 1290.0000 1.0000
27.1300 1302.0000 1.0000
27.1400 1316.0000 1.0000
27.1500 1403.0000 1.0000
27.1600 1501.0000 1.0000
27.1700 1496.0000 1.0000
27.1800 1648.0000 1.0000
27.1900 1703.0000 1.0000
27.2000 1859.0000 1.0000
27.2100 1914.0000 1.0000
27.2200 1966.0000 1.0000
27.2300 2091.0000 1.0000
27.2400 2255.0000 1.0000
27.2500 2375.0000 1.0000
27.2600 2424.0000 1.0000
27.2700 2459.0000 1.0000
27.2800 2586.0000 1.0000
27.2900 2648.0000 1.0000
27.3000 2678.0000 1.0000
27.3100 2702.0000 1.0000
27.3200 2811.0000 1.0000
27.3300 2763.0000 1.0000
27.3400 2644.0000 1.0000
27.3500 2577.0000 1.0000
27.3600 2568.0000 1.0000
27.3700 2454.0000 1.0000
27.3800 2271.0000 1.0000
27.3900 2265.0000 1.0000
27.4000 2127.0000 1.0000
27.4100 2057.0000 1.0000
27.4200 1903.0000 1.0000
27.4300 1806.0000 1.0000
27.4400 1742.0000 1.0000
27.4500 1620.0000 1.0000
27.4600 1510.0000 1.0000
27.4700 1509.0000 1.0000
27.4800 1429.0000 1.0000
27.4900 1372.0000 1.0000
27.5000 1401.0000 1.0000
27.5100 1304.0000 1.0000
27.5200 1266.0000 1.0000
27.5300 1237.0000 1.0000
27.5400 1182.0000 1.0000
27.5500 1128.0000 1.0000
27.5600 1065.0000 1.0000
27.5700 1070.0000 1.0000
27.5800 1088.0000 1.0000
27.5900 1020.0000 1.0000
27.6000 1013.0000 1.0000
27.6100 1022.0000 1.0000
27.6200 960.0000 1.0000
27.6300 1009.0000 1.0000
27.6400 966.0000 1.0000
27.6500 943.0000 1.0000
27.6600 938.0000 1.0000
27.6700 932.0000 1.0000
27.6800 863.0000 1.0000
27.6900 873.0000 1.0000
27.7000 869.0000 1.0000
27.7100 827.0000 1.0000
27.7200 845.0000 1.0000
27.7300 855.0000 1.0000
27.7400 868.0000 1.0000
27.7500 833.0000 1.0000
27.7600 830.0000 1.0000
27.7700 830.0000 1.0000
27.7800 807.0000 1.0000
27.7900 816.0000 1.0000
27.8000 806.0000 1.0000
27.8100 782.0000 1.0000
27.8200 805.0000 1.0000
27.8300 845.0000 1.0000
27.8400 833.0000 1.0000
27.8500 770.0000 1.0000
27.8600 736.0000 1.0000
27.8700 785.0000 1.0000
27.8800 781.0000 1.0000
27.8900 801.0000 1.0000
27.9000 823.0000 1.0000
27.9100 779.0000 1.0000
27.9200 772.0000 1.0000
27.9300 800.0000 1.0000
27.9400 783.0000 1.0000
27.9500 804.0000 1.0000
27.9600 781.0000 1.0000
27.9700 784.0000 1.0000
27.9800 751.0000 1.0000
27.9900 740.0000 1.0000
28.0000 770.0000 1.0000
28.0100 726.0000 1.0000
28.0200 747.0000 1.0000
28.0300 758.0000 1.0000
28.0400 769.0000 1.0000
28.0500 757.0000 1.0000
28.0600 782.0000 1.0000
28.0700 762.0000 1.0000
28.0800 740.0000 1.0000
28.0900 773.0000 1.0000
28.1000 767.0000 1.0000
28.1100 727.0000 1.0000
28.1200 723.0000 1.0000
28.1300 802.0000 1.0000
28.1400 737.0000 1.0000
28.1500 748.0000 1.0000
28.1600 735.0000 1.0000
28.1700 752.0000 1.0000
28.1800 763.0000 1.0000
28.1900 752.0000 1.0000
28.2000 756.0000 1.0000
28.2100 741.0000 1.0000
28.2200 746.0000 1.0000
28.2300 695.0000 1.0000
28.2400 741.0000 1.0000
28.2500 746.0000 1.0000
28.2600 717.0000 1.0000
28.2700 740.0000 1.0000
28.2800 742.0000 1.0000
28.2900 770.0000 1.0000
28.3000 783.0000 1.0000
28.3100 713.0000 1.0000
28.3200 711.0000 1.0000
28.3300 759.0000 1.0000
28.3400 721.0000 1.0000
28.3500 730.0000 1.0000
28.3600 753.0000 1.0000
28.3700 745.0000 1.0000
28.3800 744.0000 1.0000
28.3900 667.0000 1.0000
28.4000 746.0000 1.0000
28.4100 703.0000 1.0000
28.4200 744.0000 1.0000
28.4300 702.0000 1.0000
28.4400 694.0000 1.0000
28.4500 715.0000 1.0000
28.4600 707.0000 1.0000
28.4700 719.0000 1.0000
28.4800 703.0000 1.0000
28.4900 700.0000 1.0000
28.5000 776.0000 1.0000
28.5100 744.0000 1.0000
28.5200 736.0000 1.0000
28.5300 743.0000 1.0000
28.5400 714.0000 1.0000
28.5500 640.0000 1.0000
28.5600 673.0000 1.0000
28.5700 699.0000 1.0000
28.5800 722.0000 1.0000
28.5900 708.0000 1.0000
28.6000 672.0000 1.0000
28.6100 709.0000 1.0000
28.6200 671.0000 1.0000
28.6300 695.0000 1.0000
28.6400 736.0000 1.0000
28.6500 728.0000 1.0000
28.6600 747.0000 1.0000
28.6700 675.0000 1.0000
28.6800 737.0000 1.0000
28.6900 682.0000 1.0000
28.7000 655.0000 1.0000
28.7100 734.0000 1.0000
28.7200 722.0000 1.0000
28.7300 712.0000 1.0000
28.7400 700.0000 1.0000
28.7500 727.0000 1.0000
28.7600 693.0000 1.0000
28.7700 695.0000 1.0000
28.7800 721.0000 1.0000
28.7900 705.0000 1.0000
28.8000 679.0000 1.0000
28.8100 738.0000 1.0000
28.8200 712.0000 1.0000
28.8300 681.0000 1.0000
28.8400 721.0000 1.0000
28.8500 677.0000 1.0000
28.8600 769.0000 1.0000
28.8700 693.0000 1.0000
28.8800 697.0000 1.0000
28.8900 719.0000 1.0000
28.9000 736.0000 1.0000
28.9100 679.0000 1.0000
28.9200 707.0000 1.0000
28.9300 743.0000 1.0000
28.9400 642.0000 1.0000
28.9500 675.0000 1.0000
28.9600 689.0000 1.0000
28.9700 719.0000 1.0000
28.9800 716.0000 1.0000
28.9900 703.0000 1.0000
29.0000 717.0000 1.0000
29.0100 699.0000 1.0000
29.0200 717.0000 1.0000
29.0300 702.0000 1.0000
29.0400 693.0000 1.0000
29.0500 689.0000 1.0000
29.0600 690.0000 1.0000
29.0700 669.0000 1.0000
29.0800 689.0000 1.0000
29.0900 718.0000 1.0000
29.1000 723.0000 1.0000
29.1100 708.0000 1.0000
29.1200 693.0000 1.0000
29.1300 730.0000 1.0000
29.1400 684.0000 1.0000
29.1500 714.0000 1.0000
29.1600 668.0000 1.0000
29.1700 720.0000 1.0000
29.1800 692.0000 1.0000
29.1900 783.0000 1.0000
29.2000 717.0000 1.0000
29.2100 690.0000 1.0000
29.2200 706.0000 1.0000
29.2300 659.0000 1.0000
29.2400 679.0000 1.0000
29.2500 650.0000 1.0000
29.2600 712.0000 1.0000
29.2700 681.0000 1.0000
29.2800 683.0000 1.0000
29.2900 642.0000 1.0000
29.3000 679.0000 1.0000
29.3100 670.0000 1.0000
29.3200 664.0000 1.0000
29.3300 741.0000 1.0000
29.3400 662.0000 1.0000
29.3500 629.0000 1.0000
29.3600 656.0000 1.0000
29.3700 693.0000 1.0000
29.3800 678.0000 1.0000
29.3900 691.0000 1.0000
29.4000 690.0000 1.0000
29.4100 717.0000 1.0000
29.4200 670.0000 1.0000
29.4300 667.0000 1.0000
29.4400 633.0000 1.0000
29.4500 672.0000 1.0000
29.4600 665.0000 1.0000
29.4700 652.0000 1.0000
29.4800 676.0000 1.0000
29.4900 676.0000 1.0000
29.5000 666.0000 1.0000
29.5100 682.0000 1.0000
29.5200 685.0000 1.0000
29.5300 670.0000 1.0000
29.5400 688.0000 1.0000
29.5500 697.0000 1.0000
29.5600 686.0000 1.0000
29.5700 729.0000 1.0000
29.5800 674.0000 1.0000
29.5900 647.0000 1.0000
29.6000 655.0000 1.0000
29.6100 679.0000 1.0000
29.6200 683.0000 1.0000
29.6300 697.0000 1.0000
29.6400 712.0000 1.0000
29.6500 661.0000 1.0000
29.6600 670.0000 1.0000
29.6700 675.0000 1.0000
29.6800 676.0000 1.0000
29.6900 709.0000 1.0000
29.7000 672.0000 1.0000
29.7100 682.0000 1.0000
29.7200 702.0000 1.0000
29.7300 651.0000 1.0000
29.7400 688.0000 1.0000
29.7500 753.0000 1.0000
29.7600 708.0000 1.0000
29.7700 693.0000 1.0000
29.7800 649.0000 1.0000
29.7900 678.0000 1.0000
29.8000 696.0000 1.0000
29.8100 679.0000 1.0000
29.8200 656.0000 1.0000
29.8300 647.0000 1.0000
29.8400 669.0000 1.0000
29.8500 693.0000 1.0000
29.8600 672.0000 1.0000
29.8700 658.0000 1.0000
29.8800 649.0000 1.0000
29.8900 651.0000 1.0000
29.9000 662.0000 1.0000
29.9100 671.0000 1.0000
29.9200 716.0000 1.0000
29.9300 685.0000 1.0000
29.9400 658.0000 1.0000
29.9500 653.0000 1.0000
29.9600 670.0000 1.0000
29.9700 640.0000 1.0000
29.9800 671.0000 1.0000
29.9900 675.0000 1.0000
30.0000 684.0000 1.0000
30.0100 696.0000 1.0000
30.0200 694.0000 1.0000
30.0300 661.0000 1.0000
30.0400 662.0000 1.0000
30.0500 687.0000 1.0000
30.0600 651.0000 1.0000
30.0700 659.0000 1.0000
30.0800 661.0000 1.0000
30.0900 662.0000 1.0000
30.1000 656.0000 1.0000
30.1100 657.0000 1.0000
30.1200 658.0000 1.0000
30.1300 632.0000 1.0000
30.1400 636.0000 1.0000
30.1500 730.0000 1.0000
30.1600 674.0000 1.0000
30.1700 690.0000 1.0000
30.1800 651.0000 1.0000
30.1900 666.0000 1.0000
30.2000 683.0000 1.0000
30.2100 667.0000 1.0000
30.2200 662.0000 1.0000
30.2300 649.0000 1.0000
30.2400 642.0000 1.0000
30.2500 690.0000 1.0000
30.2600 678.0000 1.0000
30.2700 678.0000 1.0000
30.2800 673.0000 1.0000
30.2900 663.0000 1.0000
30.3000 651.0000 1.0000
30.3100 694.0000 1.0000
30.3200 640.0000 1.0000
30.3300 680.0000 1.0000
30.3400 674.0000 1.0000
30.3500 684.0000 1.0000
30.3600 645.0000 1.0000
30.3700 686.0000 1.0000
30.3800 656.0000 1.0000
30.3900 685.0000 1.0000
30.4000 691.0000 1.0000
30.4100 661.0000 1.0000
30.4200 660.0000 1.0000
30.4300 629.0000 1.0000
30.4400 662.0000 1.0000
30.4500 676.0000 1.0000
30.4600 676.0000 1.0000
30.4700 669.0000 1.0000
30.4800 643.0000 1.0000
30.4900 657.0000 1.0000
30.5000 668.0000 1.0000
30.5100 623.0000 1.0000
30.5200 666.0000 1.0000
30.5300 643.0000 1.0000
30.5400 682.0000 1.0000
30.5500 711.0000 1.0000
30.5600 673.0000 1.0000
30.5700 669.0000 1.0000
30.5800 645.0000 1.0000
30.5900 678.0000 1.0000
30.6000 617.0000 1.0000
30.6100 651.0000 1.0000
30.6200 662.0000 1.0000
30.6300 669.0000 1.0000
30.6400 694.0000 1.0000
30.6500 663.0000 1.0000
30.6600 619.0000 1.0000
30.6700 639.0000 1.0000
30.6800 642.0000 1.0000
30.6900 648.0000 1.0000
30.7000 672.0000 1.0000
30.7100 651.0000 1.0000
30.7200 714.0000 1.0000
30.7300 661.0000 1.0000
30.7400 678.0000 1.0000
30.7500 668.0000 1.0000
30.7600 678.0000 1.0000
30.7700 613.0000 1.0000
30.7800 698.0000 1.0000
30.7900 610.0000 1.0000
30.8000 619.0000 1.0000
30.8100 652.0000 1.0000
30.8200 620.0000 1.0000
30.8300 602.0000 1.0000
30.8400 612.0000 1.0000
30.8500 660.0000 1.0000
30.8600 665.0000 1.0000
30.8700 625.0000 1.0000
30.8800 632.0000 1.0000
30.8900 641.0000 1.0000
30.9000 647.0000 1.0000
30.9100 636.0000 1.0000
30.9200 657.0000 1.0000
30.9300 624.0000 1.0000
30.9400 622.0000 1.0000
30.9500 627.0000 1.0000
30.9600 679.0000 1.0000
30.9700 635.0000 1.0000
30.9800 643.0000 1.0000
30.9900 650.0000 1.0000
31.0000 682.0000 1.0000
31.0100 594.0000 1.0000
31.0200 656.0000 1.0000
31.0300 609.0000 1.0000
31.0400 638.0000 1.0000
31.0500 653.0000 1.0000
31.0600 669.0000 1.0000
31.0700 641.0000 1.0000
31.0800 643.0000 1.0000
31.0900 634.0000 1.0000
31.1000 649.0000 1.0000
31.1100 640.0000 1.0000
31.1200 654.0000 1.0000
31.1300 661.0000 1.0000
31.1400 652.0000 1.0000
31.1500 662.0000 1.0000
31.1600 622.0000 1.0000
31.1700 616.0000 1.0000
31.1800 629.0000 1.0000
31.1900 574.0000 1.0000
31.2000 623.0000 1.0000
31.2100 611.0000 1.0000
31.2200 594.0000 1.0000
31.2300 651.0000 1.0000
31.2400 652.0000 1.0000
31.2500 646.0000 1.0000
31.2600 660.0000 1.0000
31.2700 612.0000 1.0000
31.2800 609.0000 1.0000
31.2900 637.0000 1.0000
31.3000 630.0000 1.0000
31.3100 590.0000 1.0000
31.3200 649.0000 1.0000
31.3300 583.0000 1.0000
31.3400 630.0000 1.0000
31.3500 633.0000 1.0000
31.3600 643.0000 1.0000
31.3700 610.0000 1.0000
31.3800 608.0000 1.0000
31.3900 628.0000 1.0000
31.4000 603.0000 1.0000
31.4100 605.0000 1.0000
31.4200 610.0000 1.0000
31.4300 634.0000 1.0000
31.4400 622.0000 1.0000
31.4500 611.0000 1.0000
31.4600 603.0000 1.0000
31.4700 620.0000 1.0000
31.4800 626.0000 1.0000
31.4900 615.0000 1.0000
31.5000 618.0000 1.0000
31.5100 657.0000 1.0000
31.5200 617.0000 1.0000
31.5300 637.0000 1.0000
31.5400 627.0000 1.0000
31.5500 632.0000 1.0000
31.5600 596.0000 1.0000
31.5700 606.0000 1.0000
31.5800 623.0000 1.0000
31.5900 592.0000 1.0000
31.6000 618.0000 1.0000
31.6100 598.0000 1.0000
31.6200 587.0000 1.0000
31.6300 604.0000 1.0000
31.6400 602.0000 1.0000
31.6500 666.0000 1.0000
31.6600 657.0000 1.0000
31.6700 652.0000 1.0000
31.6800 650.0000 1.0000
31.6900 673.0000 1.0000
31.7000 632.0000 1.0000
31.7100 631.0000 1.0000
31.7200 607.0000 1.0000
31.7300 574.0000 1.0000
31.7400 611.0000 1.0000
31.7500 590.0000 1.0000
31.7600 619.0000 1.0000
31.7700 626.0000 1.0000
31.7800 648.0000 1.0000
31.7900 594.0000 1.0000
31.8000 625.0000 1.0000
31.8100 622.0000 1.0000
31.8200 648.0000 1.0000
31.8300 621.0000 1.0000
31.8400 651.0000 1.0000
31.8500 636.0000 1.0000
31.8600 610.0000 1.0000
31.8700 641.0000 1.0000
31.8800 652.0000 1.0000
31.8900 640.0000 1.0000
31.9000 637.0000 1.0000
31.9100 645.0000 1.0000
31.9200 619.0000 1.0000
31.9300 635.0000 1.0000
31.9400 629.0000 1.0000
31.9500 635.0000 1.0000
31.9600 688.0000 1.0000
31.9700 662.0000 1.0000
31.9800 693.0000 1.0000
31.9900 667.0000 1.0000
32.0000 625.0000 1.0000
32.0100 630.0000 1.0000
32.0200 634.0000 1.0000
32.0300 676.0000 1.0000
32.0400 656.0000 1.0000
32.0500 631.0000 1.0000
32.0600 643.0000 1.0000
32.0700 632.0000 1.0000
32.0800 572.0000 1.0000
32.0900 630.0000 1.0000
32.1000 655.0000 1.0000
32.1100 658.0000 1.0000
32.1200 646.0000 1.0000
32.1300 628.0000 1.0000
32.1400 639.0000 1.0000
32.1500 624.0000 1.0000
32.1600 616.0000 1.0000
32.1700 614.0000 1.0000
32.1800 616.0000 1.0000
32.1900 611.0000 1.0000
32.2000 621.0000 1.0000
32.2100 667.0000 1.0000
32.2200 631.0000 1.0000
32.2300 626.0000 1.0000
32.2400 621.0000 1.0000
32.2500 558.0000 1.0000
32.2600 610.0000 1.0000
32.2700 634.0000 1.0000
32.2800 616.0000 1.0000
32.2900 582.0000 1.0000
32.3000 614.0000 1.0000
32.3100 623.0000 1.0000
32.3200 650.0000 1.0000
32.3300 602.0000 1.0000
32.3400 611.0000 1.0000
32.3500 598.0000 1.0000
32.3600 600.0000 1.0000
32.3700 606.0000 1.0000
32.3800 608.0000 1.0000
32.3900 625.0000 1.0000
32.4000 611.0000 1.0000
32.4100 597.0000 1.0000
32.4200 598.0000 1.0000
32.4300 584.0000 1.0000
32.4400 584.0000 1.0000
32.4500 602.0000 1.0000
32.4600 587.0000 1.0000
32.4700 573.0000 1.0000
32.4800 603.0000 1.0000
32.4900 594.0000 1.0000
32.5000 615.0000 1.0000
32.5100 587.0000 1.0000
32.5200 620.0000 1.0000
32.5300 656.0000 1.0000
32.5400 608.0000 1.0000
32.5500 602.0000 1.0000
32.5600 614.0000 1.0000
32.5700 629.0000 1.0000
32.5800 610.0000 1.0000
32.5900 603.0000 1.0000
32.6000 587.0000 1.0000
32.6100 567.0000 1.0000
32.6200 558.0000 1.0000
32.6300 663.0000 1.0000
32.6400 602.0000 1.0000
32.6500 593.0000 1.0000
32.6600 595.0000 1.0000
32.6700 603.0000 1.0000
32.6800 634.0000 1.0000
32.6900 606.0000 1.0000
32.7000 596.0000 1.0000
32.7100 560.0000 1.0000
32.7200 586.0000 1.0000
32.7300 621.0000 1.0000
32.7400 620.0000 1.0000
32.7500 595.0000 1.0000
32.7600 612.0000 1.0000
32.7700 588.0000 1.0000
32.7800 648.0000 1.0000
32.7900 623.0000 1.0000
32.8000 586.0000 1.0000
32.8100 571.0000 1.0000
32.8200 562.0000 1.0000
32.8300 618.0000 1.0000
32.8400 599.0000 1.0000
32.8500 606.0000 1.0000
32.8600 553.0000 1.0000
32.8700 610.0000 1.0000
32.8800 573.0000 1.0000
32.8900 591.0000 1.0000
32.9000 594.0000 1.0000
32.9100 595.0000 1.0000
32.9200 618.0000 1.0000
32.9300 598.0000 1.0000
32.9400 588.0000 1.0000
32.9500 604.0000 1.0000
32.9600 573.0000 1.0000
32.9700 572.0000 1.0000
32.9800 587.0000 1.0000
32.9900 571.0000 1.0000
33.0000 618.0000 1.0000
33.0100 592.0000 1.0000
33.0200 582.0000 1.0000
33.0300 581.0000 1.0000
33.0400 597.0000 1.0000
33.0500 586.0000 1.0000
33.0600 583.0000 1.0000
33.0700 611.0000 1.0000
33.0800 614.0000 1.0000
33.0900 634.0000 1.0000
33.1000 600.0000 1.0000
33.1100 549.0000 1.0000
33.1200 587.0000 1.0000
33.1300 606.0000 1.0000
33.1400 590.0000 1.0000
33.1500 588.0000 1.0000
33.1600 578.0000 1.0000
33.1700 600.0000 1.0000
33.1800 624.0000 1.0000
33.1900 588.0000 1.0000
33.2000 541.0000 1.0000
33.2100 615.0000 1.0000
33.2200 623.0000 1.0000
33.2300 538.0000 1.0000
33.2400 587.0000 1.0000
33.2500 583.0000 1.0000
33.2600 573.0000 1.0000
33.2700 613.0000 1.0000
33.2800 597.0000 1.0000
33.2900 596.0000 1.0000
33.3000 572.0000 1.0000
33.3100 574.0000 1.0000
33.3200 558.0000 1.0000
33.3300 551.0000 1.0000
33.3400 574.0000 1.0000
33.3500 604.0000 1.0000
33.3600 558.0000 1.0000
33.3700 608.0000 1.0000
33.3800 594.0000 1.0000
33.3900 584.0000 1.0000
33.4000 594.0000 1.0000
33.4100 581.0000 1.0000
33.4200 597.0000 1.0000
33.4300 567.0000 1.0000
33.4400 563.0000 1.0000
33.4500 613.0000 1.0000
33.4600 593.0000 1.0000
33.4700 572.0000 1.0000
33.4800 591.0000 1.0000
33.4900 556.0000 1.0000
33.5000 597.0000 1.0000
33.5100 598.0000 1.0000
33.5200 595.0000 1.0000
33.5300 556.0000 1.0000
33.5400 582.0000 1.0000
33.5500 593.0000 1.0000
33.5600 605.0000 1.0000
33.5700 598.0000 1.0000
33.5800 610.0000 1.0000
33.5900 623.0000 1.0000
33.6000 591.0000 1.0000
33.6100 607.0000 1.0000
33.6200 593.0000 1.0000
33.6300 606.0000 1.0000
33.6400 585.0000 1.0000
33.6500 605.0000 1.0000
33.6600 562.0000 1.0000
33.6700 610.0000 1.0000
33.6800 573.0000 1.0000
33.6900 593.0000 1.0000
33.7000 566.0000 1.0000
33.7100 607.0000 1.0000
33.7200 594.0000 1.0000
33.7300 619.0000 1.0000
33.7400 620.0000 1.0000
33.7500 568.0000 1.0000
33.7600 553.0000 1.0000
33.7700 591.0000 1.0000
33.7800 587.0000 1.0000
33.7900 587.0000 1.0000
33.8000 673.0000 1.0000
33.8100 643.0000 1.0000
33.8200 602.0000 1.0000
33.8300 609.0000 1.0000
33.8400 618.0000 1.0000
33.8500 612.0000 1.0000
33.8600 599.0000 1.0000
33.8700 610.0000 1.0000
33.8800 634.0000 1.0000
33.8900 650.0000 1.0000
33.9000 701.0000 1.0000
33.9100 645.0000 1.0000
33.9200 656.0000 1.0000
33.9300 622.0000 1.0000
33.9400 603.0000 1.0000
33.9500 626.0000 1.0000
33.9600 661.0000 1.0000
33.9700 665.0000 1.0000
33.9800 663.0000 1.0000
33.9900 691.0000 1.0000
34.0000 667.0000 1.0000
34.0100 656.0000 1.0000
34.0200 678.0000 1.0000
34.0300 693.0000 1.0000
34.0400 681.0000 1.0000
34.0500 635.0000 1.0000
34.0600 656.0000 1.0000
34.0700 639.0000 1.0000
34.0800 647.0000 1.0000
34.0900 649.0000 1.0000
34.1000 660.0000 1.0000
34.1100 666.0000 1.0000
34.1200 668.0000 1.0000
34.1300 658.0000 1.0000
34.1400 661.0000 1.0000
34.1500 673.0000 1.0000
34.1600 671.0000 1.0000
34.1700 648.0000 1.0000
34.1800 652.0000 1.0000
34.1900 687.0000 1.0000
34.2000 705.0000 1.0000
34.2100 655.0000 1.0000
34.2200 722.0000 1.0000
34.2300 688.0000 1.0000
34.2400 694.0000 1.0000
34.2500 736.0000 1.0000
34.2600 736.0000 1.0000
34.2700 729.0000 1.0000
34.2800 754.0000 1.0000
34.2900 752.0000 1.0000
34.3000 783.0000 1.0000
34.3100 784.0000 1.0000
34.3200 801.0000 1.0000
34.3300 808.0000 1.0000
34.3400 846.0000 1.0000
34.3500 898.0000 1.0000
34.3600 930.0000 1.0000
34.3700 1005.0000 1.0000
34.3800 1010.0000 1.0000
34.3900 1049.0000 1.0000
34.4000 1077.0000 1.0000
34.4100 1046.0000 1.0000
34.4200 1168.0000 1.0000
34.4300 1168.0000 1.0000
34.4400 1258.0000 1.0000
34.4500 1293.0000 1.0000
34.4600 1382.0000 1.0000
34.4700 1378.0000 1.0000
34.4800 1469.0000 1.0000
34.4900 1486.0000 1.0000
34.5000 1516.0000 1.0000
34.5100 1503.0000 1.0000
34.5200 1499.0000 1.0000
34.5300 1446.0000 1.0000
34.5400 1458.0000 1.0000
34.5500 1450.0000 1.0000
34.5600 1403.0000 1.0000
34.5700 1369.0000 1.0000
34.5800 1320.0000 1.0000
34.5900 1294.0000 1.0000
34.6000 1214.0000 1.0000
34.6100 1223.0000 1.0000
34.6200 1173.0000 1.0000
34.6300 1043.0000 1.0000
34.6400 1066.0000 1.0000
34.6500 1000.0000 1.0000
34.6600 976.0000 1.0000
34.6700 953.0000 1.0000
34.6800 905.0000 1.0000
34.6900 880.0000 1.0000
34.7000 876.0000 1.0000
34.7100 839.0000 1.0000
34.7200 763.0000 1.0000
34.7300 791.0000 1.0000
34.7400 773.0000 1.0000
34.7500 743.0000 1.0000
34.7600 764.0000 1.0000
34.7700 713.0000 1.0000
34.7800 734.0000 1.0000
34.7900 747.0000 1.0000
34.8000 686.0000 1.0000
34.8100 661.0000 1.0000
34.8200 638.0000 1.0000
34.8300 670.0000 1.0000
34.8400 670.0000 1.0000
34.8500 635.0000 1.0000
34.8600 646.0000 1.0000
34.8700 630.0000 1.0000
34.8800 627.0000 1.0000
34.8900 601.0000 1.0000
34.9000 648.0000 1.0000
34.9100 622.0000 1.0000
34.9200 611.0000 1.0000
34.9300 589.0000 1.0000
34.9400 592.0000 1.0000
34.9500 638.0000 1.0000
34.9600 592.0000 1.0000
34.9700 568.0000 1.0000
34.9800 591.0000 1.0000
34.9900 575.0000 1.0000
35.0000 600.0000 1.0000
35.0100 612.0000 1.0000
35.0200 531.0000 1.0000
35.0300 539.0000 1.0000
35.0400 554.0000 1.0000
35.0500 539.0000 1.0000
35.0600 563.0000 1.0000
35.0700 509.0000 1.0000
35.0800 568.0000 1.0000
35.0900 587.0000 1.0000
35.1000 584.0000 1.0000
35.1100 529.0000 1.0000
35.1200 564.0000 1.0000
35.1300 567.0000 1.0000
35.1400 540.0000 1.0000
35.1500 550.0000 1.0000
35.1600 582.0000 1.0000
35.1700 556.0000 1.0000
35.1800 602.0000 1.0000
35.1900 517.0000 1.0000
35.2000 551.0000 1.0000
35.2100 533.0000 1.0000
35.2200 553.0000 1.0000
35.2300 556.0000 1.0000
35.2400 520.0000 1.0000
35.2500 528.0000 1.0000
35.2600 529.0000 1.0000
35.2700 532.0000 1.0000
35.2800 545.0000 1.0000
35.2900 565.0000 1.0000
35.3000 500.0000 1.0000
35.3100 530.0000 1.0000
35.3200 519.0000 1.0000
35.3300 514.0000 1.0000
35.3400 520.0000 1.0000
35.3500 538.0000 1.0000
35.3600 527.0000 1.0000
35.3700 525.0000 1.0000
35.3800 497.0000 1.0000
35.3900 516.0000 1.0000
35.4000 520.0000 1.0000
35.4100 563.0000 1.0000
35.4200 517.0000 1.0000
35.4300 516.0000 1.0000
35.4400 535.0000 1.0000
35.4500 549.0000 1.0000
35.4600 533.0000 1.0000
35.4700 524.0000 1.0000
35.4800 525.0000 1.0000
35.4900 497.0000 1.0000
35.5000 512.0000 1.0000
35.5100 524.0000 1.0000
35.5200 528.0000 1.0000
35.5300 536.0000 1.0000
35.5400 511.0000 1.0000
35.5500 518.0000 1.0000
35.5600 514.0000 1.0000
35.5700 500.0000 1.0000
35.5800 514.0000 1.0000
35.5900 497.0000 1.0000
35.6000 502.0000 1.0000
35.6100 564.0000 1.0000
35.6200 490.0000 1.0000
35.6300 506.0000 1.0000
35.6400 527.0000 1.0000
35.6500 558.0000 1.0000
35.6600 517.0000 1.0000
35.6700 493.0000 1.0000
35.6800 529.0000 1.0000
35.6900 465.0000 1.0000
35.7000 493.0000 1.0000
35.7100 502.0000 1.0000
35.7200 541.0000 1.0000
35.7300 520.0000 1.0000
35.7400 496.0000 1.0000
35.7500 536.0000 1.0000
35.7600 516.0000 1.0000
35.7700 513.0000 1.0000
35.7800 502.0000 1.0000
35.7900 485.0000 1.0000
35.8000 500.0000 1.0000
35.8100 512.0000 1.0000
35.8200 503.0000 1.0000
35.8300 553.0000 1.0000
35.8400 522.0000 1.0000
35.8500 529.0000 1.0000
35.8600 485.0000 1.0000
35.8700 506.0000 1.0000
35.8800 519.0000 1.0000
35.8900 508.0000 1.0000
35.9000 483.0000 1.0000
35.9100 493.0000 1.0000
35.9200 514.0000 1.0000
35.9300 531.0000 1.0000
35.9400 461.0000 1.0000
35.9500 534.0000 1.0000
35.9600 526.0000 1.0000
35.9700 492.0000 1.0000
35.9800 518.0000 1.0000
35.9900 502.0000 1.0000
36.0000 509.0000 1.0000
36.0100 483.0000 1.0000
36.0200 513.0000 1.0000
36.0300 493.0000 1.0000
36.0400 517.0000 1.0000
36.0500 498.0000 1.0000
36.0600 489.0000 1.0000
36.0700 550.0000 1.0000
36.0800 526.0000 1.0000
36.0900 526.0000 1.0000
36.1000 540.0000 1.0000
36.1100 549.0000 1.0000
36.1200 524.0000 1.0000
36.1300 532.0000 1.0000
36.1400 539.0000 1.0000
36.1500 564.0000 1.0000
36.1600 559.0000 1.0000
36.1700 517.0000 1.0000
36.1800 551.0000 1.0000
36.1900 539.0000 1.0000
36.2000 577.0000 1.0000
36.2100 604.0000 1.0000
36.2200 601.0000 1.0000
36.2300 587.0000 1.0000
36.2400 604.0000 1.0000
36.2500 628.0000 1.0000
36.2600 613.0000 1.0000
36.2700 663.0000 1.0000
36.2800 666.0000 1.0000
36.2900 706.0000 1.0000
36.3000 647.0000 1.0000
36.3100 671.0000 1.0000
36.3200 719.0000 1.0000
36.3300 731.0000 1.0000
36.3400 747.0000 1.0000
36.3500 814.0000 1.0000
36.3600 823.0000 1.0000
36.3700 818.0000 1.0000
36.3800 873.0000 1.0000
36.3900 880.0000 1.0000
36.4000 875.0000 1.0000
36.4100 888.0000 1.0000
36.4200 862.0000 1.0000
36.4300 838.0000 1.0000
36.4400 847.0000 1.0000
36.4500 832.0000 1.0000
36.4600 867.0000 1.0000
36.4700 860.0000 1.0000
36.4800 858.0000 1.0000
36.4900 822.0000 1.0000
36.5000 759.0000 1.0000
36.5100 778.0000 1.0000
36.5200 811.0000 1.0000
36.5300 748.0000 1.0000
36.5400 726.0000 1.0000
36.5500 738.0000 1.0000
36.5600 701.0000 1.0000
36.5700 675.0000 1.0000
36.5800 612.0000 1.0000
36.5900 620.0000 1.0000
36.6000 632.0000 1.0000
36.6100 624.0000 1.0000
36.6200 614.0000 1.0000
36.6300 561.0000 1.0000
36.6400 569.0000 1.0000
36.6500 549.0000 1.0000
36.6600 553.0000 1.0000
36.6700 532.0000 1.0000
36.6800 531.0000 1.0000
36.6900 523.0000 1.0000
36.7000 556.0000 1.0000
36.7100 516.0000 1.0000
36.7200 517.0000 1.0000
36.7300 499.0000 1.0000
36.7400 493.0000 1.0000
36.7500 498.0000 1.0000
36.7600 530.0000 1.0000
36.7700 492.0000 1.0000
36.7800 500.0000 1.0000
36.7900 494.0000 1.0000
36.8000 534.0000 1.0000
36.8100 466.0000 1.0000
36.8200 522.0000 1.0000
36.8300 493.0000 1.0000
36.8400 515.0000 1.0000
36.8500 474.0000 1.0000
36.8600 494.0000 1.0000
36.8700 492.0000 1.0000
36.8800 499.0000 1.0000
36.8900 467.0000 1.0000
36.9000 470.0000 1.0000
36.9100 481.0000 1.0000
36.9200 459.0000 1.0000
36.9300 507.0000 1.0000
36.9400 488.0000 1.0000
36.9500 448.0000 1.0000
36.9600 464.0000 1.0000
36.9700 441.0000 1.0000
36.9800 479.0000 1.0000
36.9900 468.0000 1.0000
37.0000 430.0000 1.0000
37.0100 450.0000 1.0000
37.0200 477.0000 1.0000
37.0300 495.0000 1.0000
37.0400 456.0000 1.0000
37.0500 450.0000 1.0000
37.0600 453.0000 1.0000
37.0700 457.0000 1.0000
37.0800 441.0000 1.0000
37.0900 457.0000 1.0000
37.1000 462.0000 1.0000
37.1100 471.0000 1.0000
37.1200 473.0000 1.0000
37.1300 494.0000 1.0000
37.1400 472.0000 1.0000
37.1500 467.0000 1.0000
37.1600 485.0000 1.0000
37.1700 478.0000 1.0000
37.1800 473.0000 1.0000
37.1900 441.0000 1.0000
37.2000 448.0000 1.0000
37.2100 445.0000 1.0000
37.2200 471.0000 1.0000
37.2300 477.0000 1.0000
37.2400 491.0000 1.0000
37.2500 462.0000 1.0000
37.2600 456.0000 1.0000
37.2700 447.0000 1.0000
37.2800 466.0000 1.0000
37.2900 488.0000 1.0000
37.3000 501.0000 1.0000
37.3100 480.0000 1.0000
37.3200 453.0000 1.0000
37.3300 470.0000 1.0000
37.3400 463.0000 1.0000
37.3500 475.0000 1.0000
37.3600 508.0000 1.0000
37.3700 470.0000 1.0000
37.3800 455.0000 1.0000
37.3900 466.0000 1.0000
37.4000 467.0000 1.0000
37.4100 453.0000 1.0000
37.4200 442.0000 1.0000
37.4300 437.0000 1.0000
37.4400 452.0000 1.0000
37.4500 457.0000 1.0000
37.4600 472.0000 1.0000
37.4700 467.0000 1.0000
37.4800 440.0000 1.0000
37.4900 480.0000 1.0000
37.5000 471.0000 1.0000
37.5100 465.0000 1.0000
37.5200 451.0000 1.0000
37.5300 452.0000 1.0000
37.5400 482.0000 1.0000
37.5500 447.0000 1.0000
37.5600 460.0000 1.0000
37.5700 475.0000 1.0000
37.5800 431.0000 1.0000
37.5900 490.0000 1.0000
37.6000 463.0000 1.0000
37.6100 462.0000 1.0000
37.6200 463.0000 1.0000
37.6300 493.0000 1.0000
37.6400 458.0000 1.0000
37.6500 456.0000 1.0000
37.6600 441.0000 1.0000
37.6700 426.0000 1.0000
37.6800 439.0000 1.0000
37.6900 472.0000 1.0000
37.7000 480.0000 1.0000
37.7100 468.0000 1.0000
37.7200 457.0000 1.0000
37.7300 466.0000 1.0000
37.7400 476.0000 1.0000
37.7500 472.0000 1.0000
37.7600 459.0000 1.0000
37.7700 436.0000 1.0000
37.7800 462.0000 1.0000
37.7900 476.0000 1.0000
37.8000 455.0000 1.0000
37.8100 497.0000 1.0000
37.8200 467.0000 1.0000
37.8300 463.0000 1.0000
37.8400 484.0000 1.0000
37.8500 477.0000 1.0000
37.8600 471.0000 1.0000
37.8700 454.0000 1.0000
37.8800 476.0000 1.0000
37.8900 444.0000 1.0000
37.9000 464.0000 1.0000
37.9100 461.0000 1.0000
37.9200 479.0000 1.0000
37.9300 486.0000 1.0000
37.9400 482.0000 1.0000
37.9500 450.0000 1.0000
37.9600 455.0000 1.0000
37.9700 489.0000 1.0000
37.9800 461.0000 1.0000
37.9900 510.0000 1.0000
38.0000 465.0000 1.0000
38.0100 485.0000 1.0000
38.0200 498.0000 1.0000
38.0300 479.0000 1.0000
38.0400 521.0000 1.0000
38.0500 491.0000 1.0000
38.0600 457.0000 1.0000
38.0700 494.0000 1.0000
38.0800 515.0000 1.0000
38.0900 479.0000 1.0000
38.1000 503.0000 1.0000
38.1100 542.0000 1.0000
38.1200 538.0000 1.0000
38.1300 555.0000 1.0000
38.1400 545.0000 1.0000
38.1500 574.0000 1.0000
38.1600 563.0000 1.0000
38.1700 570.0000 1.0000
38.1800 586.0000 1.0000
38.1900 614.0000 1.0000
38.2000 604.0000 1.0000
38.2100 611.0000 1.0000
38.2200 664.0000 1.0000
38.2300 651.0000 1.0000
38.2400 659.0000 1.0000
38.2500 662.0000 1.0000
38.2600 672.0000 1.0000
38.2700 711.0000 1.0000
38.2800 753.0000 1.0000
38.2900 776.0000 1.0000
38.3000 797.0000 1.0000
38.3100 818.0000 1.0000
38.3200 828.0000 1.0000
38.3300 889.0000 1.0000
38.3400 896.0000 1.0000
38.3500 948.0000 1.0000
38.3600 1006.0000 1.0000
38.3700 1054.0000 1.0000
38.3800 1106.0000 1.0000
38.3900 1207.0000 1.0000
38.4000 1271.0000 1.0000
38.4100 1393.0000 1.0000
38.4200 1420.0000 1.0000
38.4300 1508.0000 1.0000
38.4400 1727.0000 1.0000
38.4500 1722.0000 1.0000
38.4600 1819.0000 1.0000
38.4700 2042.0000 1.0000
38.4800 2113.0000 1.0000
38.4900 2249.0000 1.0000
38.5000 2390.0000 1.0000
38.5100 2372.0000 1.0000
38.5200 2464.0000 1.0000
38.5300 2638.0000 1.0000
38.5400 2698.0000 1.0000
38.5500 2654.0000 1.0000
38.5600 2624.0000 1.0000
38.5700 2724.0000 1.0000
38.5800 2577.0000 1.0000
38.5900 2580.0000 1.0000
38.6000 2440.0000 1.0000
38.6100 2434.0000 1.0000
38.6200 2314.0000 1.0000
38.6300 2282.0000 1.0000
38.6400 2079.0000 1.0000
38.6500 2084.0000 1.0000
38.6600 1893.0000 1.0000
38.6700 1808.0000 1.0000
38.6800 1731.0000 1.0000
38.6900 1611.0000 1.0000
38.7000 1513.0000 1.0000
38.7100 1467.0000 1.0000
38.7200 1284.0000 1.0000
38.7300 1174.0000 1.0000
38.7400 1191.0000 1.0000
38.7500 1050.0000 1.0000
38.7600 1028.0000 1.0000
38.7700 985.0000 1.0000
38.7800 947.0000 1.0000
38.7900 893.0000 1.0000
38.8000 861.0000 1.0000
38.8100 793.0000 1.0000
38.8200 755.0000 1.0000
38.8300 736.0000 1.0000
38.8400 699.0000 1.0000
38.8500 677.0000 1.0000
38.8600 639.0000 1.0000
38.8700 646.0000 1.0000
38.8800 612.0000 1.0000
38.8900 609.0000 1.0000
38.9000 587.0000 1.0000
38.9100 604.0000 1.0000
38.9200 590.0000 1.0000
38.9300 561.0000 1.0000
38.9400 575.0000 1.0000
38.9500 542.0000 1.0000
38.9600 520.0000 1.0000
38.9700 527.0000 1.0000
38.9800 521.0000 1.0000
38.9900 501.0000 1.0000
39.0000 506.0000 1.0000
39.0100 474.0000 1.0000
39.0200 478.0000 1.0000
39.0300 477.0000 1.0000
39.0400 492.0000 1.0000
39.0500 489.0000 1.0000
39.0600 516.0000 1.0000
39.0700 437.0000 1.0000
39.0800 487.0000 1.0000
39.0900 490.0000 1.0000
39.1000 486.0000 1.0000
39.1100 463.0000 1.0000
39.1200 485.0000 1.0000
39.1300 461.0000 1.0000
39.1400 414.0000 1.0000
39.1500 429.0000 1.0000
39.1600 432.0000 1.0000
39.1700 453.0000 1.0000
39.1800 422.0000 1.0000
39.1900 421.0000 1.0000
39.2000 453.0000 1.0000
39.2100 455.0000 1.0000
39.2200 408.0000 1.0000
39.2300 440.0000 1.0000
39.2400 462.0000 1.0000
39.2500 414.0000 1.0000
39.2600 436.0000 1.0000
39.2700 468.0000 1.0000
39.2800 442.0000 1.0000
39.2900 439.0000 1.0000
39.3000 400.0000 1.0000
39.3100 433.0000 1.0000
39.3200 410.0000 1.0000
39.3300 432.0000 1.0000
39.3400 416.0000 1.0000
39.3500 447.0000 1.0000
39.3600 450.0000 1.0000
39.3700 423.0000 1.0000
39.3800 431.0000 1.0000
39.3900 437.0000 1.0000
39.4000 428.0000 1.0000
39.4100 444.0000 1.0000
39.4200 432.0000 1.0000
39.4300 430.0000 1.0000
39.4400 426.0000 1.0000
39.4500 451.0000 1.0000
39.4600 434.0000 1.0000
39.4700 431.0000 1.0000
39.4800 403.0000 1.0000
39.4900 427.0000 1.0000
39.5000 450.0000 1.0000
39.5100 457.0000 1.0000
39.5200 446.0000 1.0000
39.5300 450.0000 1.0000
39.5400 387.0000 1.0000
39.5500 449.0000 1.0000
39.5600 416.0000 1.0000
39.5700 436.0000 1.0000
39.5800 457.0000 1.0000
39.5900 456.0000 1.0000
39.6000 464.0000 1.0000
39.6100 439.0000 1.0000
39.6200 451.0000 1.0000
39.6300 405.0000 1.0000
39.6400 435.0000 1.0000
39.6500 458.0000 1.0000
39.6600 440.0000 1.0000
39.6700 438.0000 1.0000
39.6800 445.0000 1.0000
39.6900 458.0000 1.0000
39.7000 418.0000 1.0000
39.7100 441.0000 1.0000
39.7200 410.0000 1.0000
39.7300 408.0000 1.0000
39.7400 397.0000 1.0000
39.7500 385.0000 1.0000
39.7600 445.0000 1.0000
39.7700 439.0000 1.0000
39.7800 410.0000 1.0000
39.7900 420.0000 1.0000
39.8000 412.0000 1.0000
39.8100 434.0000 1.0000
39.8200 421.0000 1.0000
39.8300 430.0000 1.0000
39.8400 418.0000 1.0000
39.8500 418.0000 1.0000
39.8600 429.0000 1.0000
39.8700 406.0000 1.0000
39.8800 442.0000 1.0000
39.8900 403.0000 1.0000
39.9000 415.0000 1.0000
39.9100 382.0000 1.0000
39.9200 408.0000 1.0000
39.9300 417.0000 1.0000
39.9400 415.0000 1.0000
39.9500 405.0000 1.0000
39.9600 409.0000 1.0000
39.9700 383.0000 1.0000
39.9800 411.0000 1.0000
39.9900 390.0000 1.0000
40.0000 417.0000 1.0000
40.0100 414.0000 1.0000
40.0200 412.0000 1.0000
40.0300 420.0000 1.0000
40.0400 433.0000 1.0000
40.0500 414.0000 1.0000
40.0600 388.0000 1.0000
40.0700 397.0000 1.0000
40.0800 396.0000 1.0000
40.0900 394.0000 1.0000
40.1000 400.0000 1.0000
40.1100 389.0000 1.0000
40.1200 436.0000 1.0000
40.1300 396.0000 1.0000
40.1400 403.0000 1.0000
40.1500 414.0000 1.0000
40.1600 378.0000 1.0000
40.1700 381.0000 1.0000
40.1800 404.0000 1.0000
40.1900 400.0000 1.0000
40.2000 427.0000 1.0000
40.2100 412.0000 1.0000
40.2200 405.0000 1.0000
40.2300 412.0000 1.0000
40.2400 391.0000 1.0000
40.2500 410.0000 1.0000
40.2600 396.0000 1.0000
40.2700 423.0000 1.0000
40.2800 393.0000 1.0000
40.2900 403.0000 1.0000
40.3000 385.0000 1.0000
40.3100 391.0000 1.0000
40.3200 377.0000 1.0000
40.3300 406.0000 1.0000
40.3400 396.0000 1.0000
40.3500 379.0000 1.0000
40.3600 420.0000 1.0000
40.3700 388.0000 1.0000
40.3800 429.0000 1.0000
40.3900 435.0000 1.0000
40.4000 400.0000 1.0000
40.4100 377.0000 1.0000
40.4200 374.0000 1.0000
40.4300 373.0000 1.0000
40.4400 431.0000 1.0000
40.4500 383.0000 1.0000
40.4600 419.0000 1.0000
40.4700 390.0000 1.0000
40.4800 398.0000 1.0000
40.4900 349.0000 1.0000
40.5000 362.0000 1.0000
40.5100 394.0000 1.0000
40.5200 400.0000 1.0000
40.5300 422.0000 1.0000
40.5400 397.0000 1.0000
40.5500 383.0000 1.0000
40.5600 385.0000 1.0000
40.5700 374.0000 1.0000
40.5800 379.0000 1.0000
40.5900 347.0000 1.0000
40.6000 367.0000 1.0000
40.6100 359.0000 1.0000
40.6200 415.0000 1.0000
40.6300 382.0000 1.0000
40.6400 405.0000 1.0000
40.6500 370.0000 1.0000
40.6600 393.0000 1.0000
40.6700 350.0000 1.0000
40.6800 373.0000 1.0000
40.6900 342.0000 1.0000
40.7000 414.0000 1.0000
40.7100 406.0000 1.0000
40.7200 395.0000 1.0000
40.7300 382.0000 1.0000
40.7400 394.0000 1.0000
40.7500 381.0000 1.0000
40.7600 390.0000 1.0000
40.7700 393.0000 1.0000
40.7800 389.0000 1.0000
40.7900 408.0000 1.0000
40.8000 402.0000 1.0000
40.8100 418.0000 1.0000
40.8200 395.0000 1.0000
40.8300 373.0000 1.0000
40.8400 384.0000 1.0000
40.8500 385.0000 1.0000
40.8600 383.0000 1.0000
40.8700 376.0000 1.0000
40.8800 411.0000 1.0000
40.8900 411.0000 1.0000
40.9000 404.0000 1.0000
40.9100 388.0000 1.0000
40.9200 391.0000 1.0000
40.9300 360.0000 1.0000
40.9400 382.0000 1.0000
40.9500 367.0000 1.0000
40.9600 371.0000 1.0000
40.9700 387.0000 1.0000
40.9800 389.0000 1.0000
40.9900 403.0000 1.0000
41.0000 391.0000 1.0000
41.0100 368.0000 1.0000
41.0200 419.0000 1.0000
41.0300 394.0000 1.0000
41.0400 369.0000 1.0000
41.0500 380.0000 1.0000
41.0600 371.0000 1.0000
41.0700 361.0000 1.0000
41.0800 385.0000 1.0000
41.0900 408.0000 1.0000
41.1000 389.0000 1.0000
41.1100 374.0000 1.0000
41.1200 406.0000 1.0000
41.1300 397.0000 1.0000
41.1400 402.0000 1.0000
41.1500 378.0000 1.0000
41.1600 376.0000 1.0000
41.1700 385.0000 1.0000
41.1800 380.0000 1.0000
41.1900 372.0000 1.0000
41.2000 381.0000 1.0000
41.2100 365.0000 1.0000
41.2200 377.0000 1.0000
41.2300 384.0000 1.0000
41.2400 383.0000 1.0000
41.2500 414.0000 1.0000
41.2600 350.0000 1.0000
41.2700 384.0000 1.0000
41.2800 392.0000 1.0000
41.2900 391.0000 1.0000
41.3000 371.0000 1.0000
41.3100 381.0000 1.0000
41.3200 384.0000 1.0000
41.3300 377.0000 1.0000
41.3400 371.0000 1.0000
41.3500 377.0000 1.0000
41.3600 395.0000 1.0000
41.3700 388.0000 1.0000
41.3800 358.0000 1.0000
41.3900 364.0000 1.0000
41.4000 378.0000 1.0000
41.4100 386.0000 1.0000
41.4200 389.0000 1.0000
41.4300 378.0000 1.0000
41.4400 365.0000 1.0000
41.4500 394.0000 1.0000
41.4600 410.0000 1.0000
41.4700 419.0000 1.0000
41.4800 396.0000 1.0000
41.4900 421.0000 1.0000
41.5000 403.0000 1.0000
41.5100 389.0000 1.0000
41.5200 371.0000 1.0000
41.5300 414.0000 1.0000
41.5400 395.0000 1.0000
41.5500 419.0000 1.0000
41.5600 408.0000 1.0000
41.5700 398.0000 1.0000
41.5800 406.0000 1.0000
41.5900 400.0000 1.0000
41.6000 409.0000 1.0000
41.6100 402.0000 1.0000
41.6200 396.0000 1.0000
41.6300 392.0000 1.0000
41.6400 403.0000 1.0000
41.6500 411.0000 1.0000
41.6600 411.0000 1.0000
41.6700 422.0000 1.0000
41.6800 426.0000 1.0000
41.6900 396.0000 1.0000
41.7000 401.0000 1.0000
41.7100 411.0000 1.0000
41.7200 396.0000 1.0000
41.7300 407.0000 1.0000
41.7400 385.0000 1.0000
41.7500 348.0000 1.0000
41.7600 402.0000 1.0000
41.7700 377.0000 1.0000
41.7800 392.0000 1.0000
41.7900 384.0000 1.0000
41.8000 373.0000 1.0000
41.8100 395.0000 1.0000
41.8200 389.0000 1.0000
41.8300 362.0000 1.0000
41.8400 400.0000 1.0000
41.8500 393.0000 1.0000
41.8600 329.0000 1.0000
41.8700 387.0000 1.0000
41.8800 389.0000 1.0000
41.8900 378.0000 1.0000
41.9000 385.0000 1.0000
41.9100 417.0000 1.0000
41.9200 361.0000 1.0000
41.9300 386.0000 1.0000
41.9400 364.0000 1.0000
41.9500 375.0000 1.0000
41.9600 399.0000 1.0000
41.9700 367.0000 1.0000
41.9800 372.0000 1.0000
41.9900 373.0000 1.0000
42.0000 351.0000 1.0000
42.0100 380.0000 1.0000
42.0200 365.0000 1.0000
42.0300 395.0000 1.0000
42.0400 418.0000 1.0000
42.0500 365.0000 1.0000
42.0600 364.0000 1.0000
42.0700 353.0000 1.0000
42.0800 389.0000 1.0000
42.0900 347.0000 1.0000
42.1000 374.0000 1.0000
42.1100 403.0000 1.0000
42.1200 364.0000 1.0000
42.1300 419.0000 1.0000
42.1400 407.0000 1.0000
42.1500 385.0000 1.0000
42.1600 384.0000 1.0000
42.1700 396.0000 1.0000
42.1800 392.0000 1.0000
42.1900 402.0000 1.0000
42.2000 357.0000 1.0000
42.2100 378.0000 1.0000
42.2200 402.0000 1.0000
42.2300 398.0000 1.0000
42.2400 413.0000 1.0000
42.2500 382.0000 1.0000
42.2600 371.0000 1.0000
42.2700 389.0000 1.0000
42.2800 395.0000 1.0000
42.2900 367.0000 1.0000
42.3000 361.0000 1.0000
42.3100 361.0000 1.0000
42.3200 373.0000 1.0000
42.3300 371.0000 1.0000
42.3400 380.0000 1.0000
42.3500 418.0000 1.0000
42.3600 376.0000 1.0000
42.3700 393.0000 1.0000
42.3800 383.0000 1.0000
42.3900 410.0000 1.0000
42.4000 387.0000 1.0000
42.4100 370.0000 1.0000
42.4200 375.0000 1.0000
42.4300 375.0000 1.0000
42.4400 350.0000 1.0000
42.4500 373.0000 1.0000
42.4600 384.0000 1.0000
42.4700 356.0000 1.0000
42.4800 367.0000 1.0000
42.4900 377.0000 1.0000
42.5000 348.0000 1.0000
42.5100 365.0000 1.0000
42.5200 370.0000 1.0000
42.5300 387.0000 1.0000
42.5400 363.0000 1.0000
42.5500 374.0000 1.0000
42.5600 416.0000 1.0000
42.5700 377.0000 1.0000
42.5800 388.0000 1.0000
42.5900 391.0000 1.0000
42.6000 382.0000 1.0000
42.6100 405.0000 1.0000
42.6200 362.0000 1.0000
42.6300 374.0000 1.0000
42.6400 379.0000 1.0000
42.6500 359.0000 1.0000
42.6600 415.0000 1.0000
42.6700 384.0000 1.0000
42.6800 395.0000 1.0000
42.6900 382.0000 1.0000
42.7000 357.0000 1.0000
42.7100 373.0000 1.0000
42.7200 376.0000 1.0000
42.7300 373.0000 1.0000
42.7400 369.0000 1.0000
42.7500 364.0000 1.0000
42.7600 351.0000 1.0000
42.7700 374.0000 1.0000
42.7800 352.0000 1.0000
42.7900 373.0000 1.0000
42.8000 379.0000 1.0000
42.8100 381.0000 1.0000
42.8200 387.0000 1.0000
42.8300 351.0000 1.0000
42.8400 412.0000 1.0000
42.8500 379.0000 1.0000
42.8600 370.0000 1.0000
42.8700 383.0000 1.0000
42.8800 351.0000 1.0000
42.8900 347.0000 1.0000
42.9000 365.0000 1.0000
42.9100 375.0000 1.0000
42.9200 341.0000 1.0000
42.9300 373.0000 1.0000
42.9400 405.0000 1.0000
42.9500 371.0000 1.0000
42.9600 371.0000 1.0000
42.9700 401.0000 1.0000
42.9800 353.0000 1.0000
42.9900 367.0000 1.0000
43.0000 377.0000 1.0000
43.0100 380.0000 1.0000
43.0200 370.0000 1.0000
43.0300 353.0000 1.0000
43.0400 396.0000 1.0000
43.0500 390.0000 1.0000
43.0600 373.0000 1.0000
43.0700 373.0000 1.0000
43.0800 400.0000 1.0000
43.0900 370.0000 1.0000
43.1000 369.0000 1.0000
43.1100 420.0000 1.0000
43.1200 408.0000 1.0000
43.1300 416.0000 1.0000
43.1400 392.0000 1.0000
43.1500 422.0000 1.0000
43.1600 406.0000 1.0000
43.1700 398.0000 1.0000
43.1800 423.0000 1.0000
43.1900 399.0000 1.0000
43.2000 412.0000 1.0000
43.2100 398.0000 1.0000
43.2200 402.0000 1.0000
43.2300 418.0000 1.0000
43.2400 421.0000 1.0000
43.2500 452.0000 1.0000
43.2600 407.0000 1.0000
43.2700 405.0000 1.0000
43.2800 376.0000 1.0000
43.2900 382.0000 1.0000
43.3000 360.0000 1.0000
43.3100 395.0000 1.0000
43.3200 441.0000 1.0000
43.3300 398.0000 1.0000
43.3400 399.0000 1.0000
43.3500 404.0000 1.0000
43.3600 398.0000 1.0000
43.3700 405.0000 1.0000
43.3800 386.0000 1.0000
43.3900 387.0000 1.0000
43.4000 424.0000 1.0000
43.4100 362.0000 1.0000
43.4200 355.0000 1.0000
43.4300 382.0000 1.0000
43.4400 355.0000 1.0000
43.4500 352.0000 1.0000
43.4600 353.0000 1.0000
43.4700 377.0000 1.0000
43.4800 382.0000 1.0000
43.4900 384.0000 1.0000
43.5000 366.0000 1.0000
43.5100 398.0000 1.0000
43.5200 338.0000 1.0000
43.5300 387.0000 1.0000
43.5400 357.0000 1.0000
43.5500 375.0000 1.0000
43.5600 375.0000 1.0000
43.5700 340.0000 1.0000
43.5800 380.0000 1.0000
43.5900 363.0000 1.0000
43.6000 357.0000 1.0000
43.6100 388.0000 1.0000
43.6200 380.0000 1.0000
43.6300 342.0000 1.0000
43.6400 359.0000 1.0000
43.6500 341.0000 1.0000
43.6600 350.0000 1.0000
43.6700 382.0000 1.0000
43.6800 384.0000 1.0000
43.6900 341.0000 1.0000
43.7000 359.0000 1.0000
43.7100 365.0000 1.0000
43.7200 365.0000 1.0000
43.7300 368.0000 1.0000
43.7400 385.0000 1.0000
43.7500 338.0000 1.0000
43.7600 384.0000 1.0000
43.7700 375.0000 1.0000
43.7800 386.0000 1.0000
43.7900 348.0000 1.0000
43.8000 374.0000 1.0000
43.8100 389.0000 1.0000
43.8200 384.0000 1.0000
43.8300 347.0000 1.0000
43.8400 341.0000 1.0000
43.8500 353.0000 1.0000
43.8600 346.0000 1.0000
43.8700 350.0000 1.0000
43.8800 342.0000 1.0000
43.8900 342.0000 1.0000
43.9000 363.0000 1.0000
43.9100 354.0000 1.0000
43.9200 364.0000 1.0000
43.9300 401.0000 1.0000
43.9400 355.0000 1.0000
43.9500 368.0000 1.0000
43.9600 354.0000 1.0000
43.9700 347.0000 1.0000
43.9800 359.0000 1.0000
43.9900 352.0000 1.0000
44.0000 345.0000 1.0000
44.0100 369.0000 1.0000
44.0200 364.0000 1.0000
44.0300 354.0000 1.0000
44.0400 385.0000 1.0000
44.0500 383.0000 1.0000
44.0600 354.0000 1.0000
44.0700 336.0000 1.0000
44.0800 364.0000 1.0000
44.0900 386.0000 1.0000
44.1000 357.0000 1.0000
44.1100 380.0000 1.0000
44.1200 373.0000 1.0000
44.1300 361.0000 1.0000
44.1400 371.0000 1.0000
44.1500 383.0000 1.0000
44.1600 358.0000 1.0000
44.1700 334.0000 1.0000
44.1800 370.0000 1.0000
44.1900 402.0000 1.0000
44.2000 372.0000 1.0000
44.2100 345.0000 1.0000
44.2200 370.0000 1.0000
44.2300 379.0000 1.0000
44.2400 361.0000 1.0000
44.2500 359.0000 1.0000
44.2600 347.0000 1.0000
44.2700 357.0000 1.0000
44.2800 367.0000 1.0000
44.2900 328.0000 1.0000
44.3000 372.0000 1.0000
44.3100 360.0000 1.0000
44.3200 361.0000 1.0000
44.3300 365.0000 1.0000
44.3400 354.0000 1.0000
44.3500 370.0000 1.0000
44.3600 351.0000 1.0000
44.3700 377.0000 1.0000
44.3800 348.0000 1.0000
44.3900 367.0000 1.0000
44.4000 379.0000 1.0000
44.4100 383.0000 1.0000
44.4200 331.0000 1.0000
44.4300 345.0000 1.0000
44.4400 352.0000 1.0000
44.4500 398.0000 1.0000
44.4600 347.0000 1.0000
44.4700 362.0000 1.0000
44.4800 350.0000 1.0000
44.4900 354.0000 1.0000
44.5000 364.0000 1.0000
44.5100 351.0000 1.0000
44.5200 363.0000 1.0000
44.5300 370.0000 1.0000
44.5400 370.0000 1.0000
44.5500 354.0000 1.0000
44.5600 362.0000 1.0000
44.5700 370.0000 1.0000
44.5800 336.0000 1.0000
44.5900 367.0000 1.0000
44.6000 388.0000 1.0000
44.6100 390.0000 1.0000
44.6200 361.0000 1.0000
44.6300 343.0000 1.0000
44.6400 383.0000 1.0000
44.6500 337.0000 1.0000
44.6600 343.0000 1.0000
44.6700 352.0000 1.0000
44.6800 373.0000 1.0000
44.6900 369.0000 1.0000
44.7000 380.0000 1.0000
44.7100 356.0000 1.0000
44.7200 360.0000 1.0000
44.7300 316.0000 1.0000
44.7400 390.0000 1.0000
44.7500 323.0000 1.0000
44.7600 367.0000 1.0000
44.7700 378.0000 1.0000
44.7800 328.0000 1.0000
44.7900 368.0000 1.0000
44.8000 354.0000 1.0000
44.8100 348.0000 1.0000
44.8200 354.0000 1.0000
44.8300 348.0000 1.0000
44.8400 363.0000 1.0000
44.8500 368.0000 1.0000
44.8600 356.0000 1.0000
44.8700 334.0000 1.0000
44.8800 391.0000 1.0000
44.8900 389.0000 1.0000
44.9000 325.0000 1.0000
44.9100 363.0000 1.0000
44.9200 360.0000 1.0000
44.9300 372.0000 1.0000
44.9400 379.0000 1.0000
44.9500 368.0000 1.0000
44.9600 373.0000 1.0000
44.9700 356.0000 1.0000
44.9800 345.0000 1.0000
44.9900 356.0000 1.0000
45.0000 381.0000 1.0000
45.0100 372.0000 1.0000
45.0200 344.0000 1.0000
45.0300 326.0000 1.0000
45.0400 366.0000 1.0000
45.0500 363.0000 1.0000
45.0600 372.0000 1.0000
45.0700 394.0000 1.0000
45.0800 358.0000 1.0000
45.0900 345.0000 1.0000
45.1000 352.0000 1.0000
45.1100 365.0000 1.0000
45.1200 367.0000 1.0000
45.1300 324.0000 1.0000
45.1400 339.0000 1.0000
45.1500 354.0000 1.0000
45.1600 354.0000 1.0000
45.1700 373.0000 1.0000
45.1800 338.0000 1.0000
45.1900 381.0000 1.0000
45.2000 400.0000 1.0000
45.2100 323.0000 1.0000
45.2200 340.0000 1.0000
45.2300 364.0000 1.0000
45.2400 371.0000 1.0000
45.2500 343.0000 1.0000
45.2600 340.0000 1.0000
45.2700 333.0000 1.0000
45.2800 363.0000 1.0000
45.2900 363.0000 1.0000
45.3000 325.0000 1.0000
45.3100 328.0000 1.0000
45.3200 346.0000 1.0000
45.3300 375.0000 1.0000
45.3400 354.0000 1.0000
45.3500 385.0000 1.0000
45.3600 376.0000 1.0000
45.3700 329.0000 1.0000
45.3800 373.0000 1.0000
45.3900 362.0000 1.0000
45.4000 349.0000 1.0000
45.4100 362.0000 1.0000
45.4200 354.0000 1.0000
45.4300 347.0000 1.0000
45.4400 341.0000 1.0000
45.4500 347.0000 1.0000
45.4600 338.0000 1.0000
45.4700 379.0000 1.0000
45.4800 353.0000 1.0000
45.4900 339.0000 1.0000
45.5000 303.0000 1.0000
45.5100 317.0000 1.0000
45.5200 387.0000 1.0000
45.5300 357.0000 1.0000
45.5400 341.0000 1.0000
45.5500 333.0000 1.0000
45.5600 358.0000 1.0000
45.5700 351.0000 1.0000
45.5800 348.0000 1.0000
45.5900 354.0000 1.0000
45.6000 371.0000 1.0000
45.6100 339.0000 1.0000
45.6200 354.0000 1.0000
45.6300 380.0000 1.0000
45.6400 368.0000 1.0000
45.6500 347.0000 1.0000
45.6600 338.0000 1.0000
45.6700 337.0000 1.0000
45.6800 350.0000 1.0000
45.6900 351.0000 1.0000
45.7000 342.0000 1.0000
45.7100 319.0000 1.0000
45.7200 359.0000 1.0000
45.7300 359.0000 1.0000
45.7400 340.0000 1.0000
45.7500 342.0000 1.0000
45.7600 313.0000 1.0000
45.7700 310.0000 1.0000
45.7800 328.0000 1.0000
45.7900 352.0000 1.0000
45.8000 351.0000 1.0000
45.8100 348.0000 1.0000
45.8200 347.0000 1.0000
45.8300 358.0000 1.0000
45.8400 378.0000 1.0000
45.8500 362.0000 1.0000
45.8600 341.0000 1.0000
45.8700 373.0000 1.0000
45.8800 343.0000 1.0000
45.8900 345.0000 1.0000
45.9000 348.0000 1.0000
45.9100 330.0000 1.0000
45.9200 350.0000 1.0000
45.9300 336.0000 1.0000
45.9400 354.0000 1.0000
45.9500 379.0000 1.0000
45.9600 370.0000 1.0000
45.9700 332.0000 1.0000
45.9800 354.0000 1.0000
45.9900 313.0000 1.0000
46.0000 319.0000 1.0000
46.0100 333.0000 1.0000
46.0200 332.0000 1.0000
46.0300 340.0000 1.0000
46.0400 360.0000 1.0000
46.0500 375.0000 1.0000
46.0600 333.0000 1.0000
46.0700 339.0000 1.0000
46.0800 333.0000 1.0000
46.0900 358.0000 1.0000
46.1000 373.0000 1.0000
46.1100 338.0000 1.0000
46.1200 308.0000 1.0000
46.1300 354.0000 1.0000
46.1400 351.0000 1.0000
46.1500 339.0000 1.0000
46.1600 326.0000 1.0000
46.1700 378.0000 1.0000
46.1800 351.0000 1.0000
46.1900 339.0000 1.0000
46.2000 320.0000 1.0000
46.2100 347.0000 1.0000
46.2200 351.0000 1.0000
46.2300 319.0000 1.0000
46.2400 331.0000 1.0000
46.2500 336.0000 1.0000
46.2600 341.0000 1.0000
46.2700 344.0000 1.0000
46.2800 354.0000 1.0000
46.2900 335.0000 1.0000
46.3000 353.0000 1.0000
46.3100 368.0000 1.0000
46.3200 357.0000 1.0000
46.3300 362.0000 1.0000
46.3400 360.0000 1.0000
46.3500 336.0000 1.0000
46.3600 335.0000 1.0000
46.3700 333.0000 1.0000
46.3800 388.0000 1.0000
46.3900 334.0000 1.0000
46.4000 369.0000 1.0000
46.4100 334.0000 1.0000
46.4200 338.0000 1.0000
46.4300 344.0000 1.0000
46.4400 362.0000 1.0000
46.4500 342.0000 1.0000
46.4600 328.0000 1.0000
46.4700 340.0000 1.0000
46.4800 351.0000 1.0000
46.4900 358.0000 1.0000
46.5000 389.0000 1.0000
46.5100 355.0000 1.0000
46.5200 369.0000 1.0000
46.5300 368.0000 1.0000
46.5400 359.0000 1.0000
46.5500 315.0000 1.0000
46.5600 332.0000 1.0000
46.5700 355.0000 1.0000
46.5800 318.0000 1.0000
46.5900 342.0000 1.0000
46.6000 339.0000 1.0000
46.6100 324.0000 1.0000
46.6200 315.0000 1.0000
46.6300 347.0000 1.0000
46.6400 341.0000 1.0000
46.6500 353.0000 1.0000
46.6600 356.0000 1.0000
46.6700 347.0000 1.0000
46.6800 343.0000 1.0000
46.6900 352.0000 1.0000
46.7000 336.0000 1.0000
46.7100 349.0000 1.0000
46.7200 351.0000 1.0000
46.7300 351.0000 1.0000
46.7400 319.0000 1.0000
46.7500 354.0000 1.0000
46.7600 342.0000 1.0000
46.7700 361.0000 1.0000
46.7800 333.0000 1.0000
46.7900 351.0000 1.0000
46.8000 367.0000 1.0000
46.8100 342.0000 1.0000
46.8200 307.0000 1.0000
46.8300 349.0000 1.0000
46.8400 348.0000 1.0000
46.8500 385.0000 1.0000
46.8600 326.0000 1.0000
46.8700 357.0000 1.0000
46.8800 367.0000 1.0000
46.8900 343.0000 1.0000
46.9000 350.0000 1.0000
46.9100 335.0000 1.0000
46.9200 357.0000 1.0000
46.9300 354.0000 1.0000
46.9400 352.0000 1.0000
46.9500 390.0000 1.0000
46.9600 339.0000 1.0000
46.9700 373.0000 1.0000
46.9800 354.0000 1.0000
46.9900 345.0000 1.0000
47.0000 348.0000 1.0000
47.0100 337.0000 1.0000
47.0200 360.0000 1.0000
47.0300 364.0000 1.0000
47.0400 364.0000 1.0000
47.0500 374.0000 1.0000
47.0600 343.0000 1.0000
47.0700 316.0000 1.0000
47.0800 365.0000 1.0000
47.0900 347.0000 1.0000
47.1000 358.0000 1.0000
47.1100 361.0000 1.0000
47.1200 348.0000 1.0000
47.1300 339.0000 1.0000
47.1400 332.0000 1.0000
47.1500 356.0000 1.0000
47.1600 329.0000 1.0000
47.1700 334.0000 1.0000
47.1800 334.0000 1.0000
47.1900 329.0000 1.0000
47.2000 345.0000 1.0000
47.2100 340.0000 1.0000
47.2200 334.0000 1.0000
47.2300 341.0000 1.0000
47.2400 354.0000 1.0000
47.2500 304.0000 1.0000
47.2600 314.0000 1.0000
47.2700 319.0000 1.0000
47.2800 353.0000 1.0000
47.2900 363.0000 1.0000
47.3000 326.0000 1.0000
47.3100 314.0000 1.0000
47.3200 354.0000 1.0000
47.3300 337.0000 1.0000
47.3400 329.0000 1.0000
47.3500 343.0000 1.0000
47.3600 346.0000 1.0000
47.3700 341.0000 1.0000
47.3800 351.0000 1.0000
47.3900 316.0000 1.0000
47.4000 319.0000 1.0000
47.4100 329.0000 1.0000
47.4200 342.0000 1.0000
47.4300 331.0000 1.0000
47.4400 342.0000 1.0000
47.4500 351.0000 1.0000
47.4600 344.0000 1.0000
47.4700 326.0000 1.0000
47.4800 331.0000 1.0000
47.4900 306.0000 1.0000
47.5000 316.0000 1.0000
47.5100 353.0000 1.0000
47.5200 364.0000 1.0000
47.5300 340.0000 1.0000
47.5400 327.0000 1.0000
47.5500 339.0000 1.0000
47.5600 342.0000 1.0000
47.5700 339.0000 1.0000
47.5800 337.0000 1.0000
47.5900 336.0000 1.0000
47.6000 334.0000 1.0000
47.6100 343.0000 1.0000
47.6200 343.0000 1.0000
47.6300 344.0000 1.0000
47.6400 325.0000 1.0000
47.6500 291.0000 1.0000
47.6600 334.0000 1.0000
47.6700 322.0000 1.0000
47.6800 355.0000 1.0000
47.6900 347.0000 1.0000
47.7000 340.0000 1.0000
47.7100 341.0000 1.0000
47.7200 305.0000 1.0000
47.7300 323.0000 1.0000
47.7400 366.0000 1.0000
47.7500 371.0000 1.0000
47.7600 328.0000 1.0000
47.7700 369.0000 1.0000
47.7800 338.0000 1.0000
47.7900 311.0000 1.0000
47.8000 310.0000 1.0000
47.8100 332.0000 1.0000
47.8200 334.0000 1.0000
47.8300 342.0000 1.0000
47.8400 315.0000 1.0000
47.8500 315.0000 1.0000
47.8600 353.0000 1.0000
47.8700 352.0000 1.0000
47.8800 330.0000 1.0000
47.8900 307.0000 1.0000
47.9000 327.0000 1.0000
47.9100 341.0000 1.0000
47.9200 351.0000 1.0000
47.9300 334.0000 1.0000
47.9400 335.0000 1.0000
47.9500 332.0000 1.0000
47.9600 333.0000 1.0000
47.9700 328.0000 1.0000
47.9800 339.0000 1.0000
47.9900 320.0000 1.0000
48.0000 312.0000 1.0000
48.0100 333.0000 1.0000
48.0200 337.0000 1.0000
48.0300 351.0000 1.0000
48.0400 303.0000 1.0000
48.0500 319.0000 1.0000
48.0600 308.0000 1.0000
48.0700 361.0000 1.0000
48.0800 338.0000 1.0000
48.0900 332.0000 1.0000
48.1000 321.0000 1.0000
48.1100 339.0000 1.0000
48.1200 321.0000 1.0000
48.1300 341.0000 1.0000
48.1400 337.0000 1.0000
48.1500 326.0000 1.0000
48.1600 338.0000 1.0000
48.1700 330.0000 1.0000
48.1800 345.0000 1.0000
48.1900 328.0000 1.0000
48.2000 341.0000 1.0000
48.2100 306.0000 1.0000
48.2200 312.0000 1.0000
48.2300 310.0000 1.0000
48.2400 313.0000 1.0000
48.2500 320.0000 1.0000
48.2600 326.0000 1.0000
48.2700 351.0000 1.0000
48.2800 343.0000 1.0000
48.2900 338.0000 1.0000
48.3000 336.0000 1.0000
48.3100 319.0000 1.0000
48.3200 315.0000 1.0000
48.3300 349.0000 1.0000
48.3400 312.0000 1.0000
48.3500 330.0000 1.0000
48.3600 299.0000 1.0000
48.3700 339.0000 1.0000
48.3800 328.0000 1.0000
48.3900 331.0000 1.0000
48.4000 342.0000 1.0000
48.4100 308.0000 1.0000
48.4200 321.0000 1.0000
48.4300 335.0000 1.0000
48.4400 324.0000 1.0000
48.4500 341.0000 1.0000
48.4600 318.0000 1.0000
48.4700 335.0000 1.0000
48.4800 322.0000 1.0000
48.4900 346.0000 1.0000
48.5000 343.0000 1.0000
48.5100 326.0000 1.0000
48.5200 356.0000 1.0000
48.5300 292.0000 1.0000
48.5400 348.0000 1.0000
48.5500 354.0000 1.0000
48.5600 325.0000 1.0000
48.5700 335.0000 1.0000
48.5800 341.0000 1.0000
48.5900 326.0000 1.0000
48.6000 322.0000 1.0000
48.6100 349.0000 1.0000
48.6200 325.0000 1.0000
48.6300 330.0000 1.0000
48.6400 312.0000 1.0000
48.6500 302.0000 1.0000
48.6600 328.0000 1.0000
48.6700 332.0000 1.0000
48.6800 318.0000 1.0000
48.6900 285.0000 1.0000
48.7000 337.0000 1.0000
48.7100 358.0000 1.0000
48.7200 334.0000 1.0000
48.7300 307.0000 1.0000
48.7400 293.0000 1.0000
48.7500 337.0000 1.0000
48.7600 315.0000 1.0000
48.7700 330.0000 1.0000
48.7800 290.0000 1.0000
48.7900 317.0000 1.0000
48.8000 325.0000 1.0000
48.8100 306.0000 1.0000
48.8200 336.0000 1.0000
48.8300 339.0000 1.0000
48.8400 322.0000 1.0000
48.8500 327.0000 1.0000
48.8600 298.0000 1.0000
48.8700 349.0000 1.0000
48.8800 358.0000 1.0000
48.8900 355.0000 1.0000
48.9000 332.0000 1.0000
48.9100 326.0000 1.0000
48.9200 342.0000 1.0000
48.9300 331.0000 1.0000
48.9400 290.0000 1.0000
48.9500 314.0000 1.0000
48.9600 320.0000 1.0000
48.9700 352.0000 1.0000
48.9800 336.0000 1.0000
48.9900 341.0000 1.0000
49.0000 341.0000 1.0000
49.0100 315.0000 1.0000
49.0200 296.0000 1.0000
49.0300 322.0000 1.0000
49.0400 329.0000 1.0000
49.0500 327.0000 1.0000
49.0600 325.0000 1.0000
49.0700 322.0000 1.0000
49.0800 323.0000 1.0000
49.0900 323.0000 1.0000
49.1000 315.0000 1.0000
49.1100 294.0000 1.0000
49.1200 315.0000 1.0000
49.1300 332.0000 1.0000
49.1400 324.0000 1.0000
49.1500 303.0000 1.0000
49.1600 321.0000 1.0000
49.1700 338.0000 1.0000
49.1800 339.0000 1.0000
49.1900 284.0000 1.0000
49.2000 330.0000 1.0000
49.2100 320.0000 1.0000
49.2200 351.0000 1.0000
49.2300 307.0000 1.0000
49.2400 325.0000 1.0000
49.2500 348.0000 1.0000
49.2600 324.0000 1.0000
49.2700 326.0000 1.0000
49.2800 328.0000 1.0000
49.2900 328.0000 1.0000
49.3000 309.0000 1.0000
49.3100 304.0000 1.0000
49.3200 320.0000 1.0000
49.3300 313.0000 1.0000
49.3400 308.0000 1.0000
49.3500 315.0000 1.0000
49.3600 338.0000 1.0000
49.3700 330.0000 1.0000
49.3800 318.0000 1.0000
49.3900 315.0000 1.0000
49.4000 313.0000 1.0000
49.4100 313.0000 1.0000
49.4200 312.0000 1.0000
49.4300 317.0000 1.0000
49.4400 314.0000 1.0000
49.4500 322.0000 1.0000
49.4600 310.0000 1.0000
49.4700 332.0000 1.0000
49.4800 312.0000 1.0000
49.4900 322.0000 1.0000
49.5000 337.0000 1.0000
49.5100 327.0000 1.0000
49.5200 332.0000 1.0000
49.5300 324.0000 1.0000
49.5400 322.0000 1.0000
49.5500 348.0000 1.0000
49.5600 329.0000 1.0000
49.5700 303.0000 1.0000
49.5800 305.0000 1.0000
49.5900 333.0000 1.0000
49.6000 283.0000 1.0000
49.6100 335.0000 1.0000
49.6200 316.0000 1.0000
49.6300 299.0000 1.0000
49.6400 306.0000 1.0000
49.6500 308.0000 1.0000
49.6600 307.0000 1.0000
49.6700 350.0000 1.0000
49.6800 326.0000 1.0000
49.6900 331.0000 1.0000
49.7000 329.0000 1.0000
49.7100 276.0000 1.0000
49.7200 309.0000 1.0000
49.7300 312.0000 1.0000
49.7400 289.0000 1.0000
49.7500 297.0000 1.0000
49.7600 332.0000 1.0000
49.7700 304.0000 1.0000
49.7800 302.0000 1.0000
49.7900 297.0000 1.0000
49.8000 326.0000 1.0000
49.8100 331.0000 1.0000
49.8200 294.0000 1.0000
49.8300 349.0000 1.0000
49.8400 279.0000 1.0000
49.8500 289.0000 1.0000
49.8600 343.0000 1.0000
49.8700 311.0000 1.0000
49.8800 317.0000 1.0000
49.8900 333.0000 1.0000
49.9000 321.0000 1.0000
49.9100 306.0000 1.0000
49.9200 304.0000 1.0000
49.9300 338.0000 1.0000
49.9400 331.0000 1.0000
49.9500 340.0000 1.0000
49.9600 324.0000 1.0000
49.9700 312.0000 1.0000
49.9800 307.0000 1.0000
49.9900 322.0000 1.0000
50.0000 339.0000 1.0000
50.0100 319.0000 1.0000
50.0200 319.0000 1.0000
50.0300 293.0000 1.0000
50.0400 325.0000 1.0000
50.0500 354.0000 1.0000
50.0600 322.0000 1.0000
50.0700 320.0000 1.0000
50.0800 341.0000 1.0000
50.0900 331.0000 1.0000
50.1000 323.0000 1.0000
50.1100 316.0000 1.0000
50.1200 307.0000 1.0000
50.1300 342.0000 1.0000
50.1400 334.0000 1.0000
50.1500 327.0000 1.0000
50.1600 332.0000 1.0000
50.1700 323.0000 1.0000
50.1800 312.0000 1.0000
50.1900 338.0000 1.0000
50.2000 331.0000 1.0000
50.2100 347.0000 1.0000
50.2200 317.0000 1.0000
50.2300 326.0000 1.0000
50.2400 345.0000 1.0000
50.2500 368.0000 1.0000
50.2600 343.0000 1.0000
50.2700 362.0000 1.0000
50.2800 340.0000 1.0000
50.2900 338.0000 1.0000
50.3000 339.0000 1.0000
50.3100 338.0000 1.0000
50.3200 345.0000 1.0000
50.3300 330.0000 1.0000
50.3400 351.0000 1.0000
50.3500 333.0000 1.0000
50.3600 368.0000 1.0000
50.3700 313.0000 1.0000
50.3800 326.0000 1.0000
50.3900 316.0000 1.0000
50.4000 340.0000 1.0000
50.4100 340.0000 1.0000
50.4200 343.0000 1.0000
50.4300 317.0000 1.0000
50.4400 318.0000 1.0000
50.4500 311.0000 1.0000
50.4600 321.0000 1.0000
50.4700 304.0000 1.0000
50.4800 354.0000 1.0000
50.4900 318.0000 1.0000
50.5000 327.0000 1.0000
50.5100 337.0000 1.0000
50.5200 300.0000 1.0000
50.5300 310.0000 1.0000
50.5400 312.0000 1.0000
50.5500 319.0000 1.0000
50.5600 337.0000 1.0000
50.5700 320.0000 1.0000
50.5800 321.0000 1.0000
50.5900 305.0000 1.0000
50.6000 332.0000 1.0000
50.6100 310.0000 1.0000
50.6200 289.0000 1.0000
50.6300 329.0000 1.0000
50.6400 340.0000 1.0000
50.6500 318.0000 1.0000
50.6600 330.0000 1.0000
50.6700 348.0000 1.0000
50.6800 332.0000 1.0000
50.6900 336.0000 1.0000
50.7000 315.0000 1.0000
50.7100 323.0000 1.0000
50.7200 311.0000 1.0000
50.7300 309.0000 1.0000
50.7400 339.0000 1.0000
50.7500 333.0000 1.0000
50.7600 342.0000 1.0000
50.7700 337.0000 1.0000
50.7800 321.0000 1.0000
50.7900 344.0000 1.0000
50.8000 333.0000 1.0000
50.8100 314.0000 1.0000
50.8200 330.0000 1.0000
50.8300 326.0000 1.0000
50.8400 347.0000 1.0000
50.8500 339.0000 1.0000
50.8600 308.0000 1.0000
50.8700 344.0000 1.0000
50.8800 332.0000 1.0000
50.8900 313.0000 1.0000
50.9000 324.0000 1.0000
50.9100 346.0000 1.0000
50.9200 315.0000 1.0000
50.9300 323.0000 1.0000
50.9400 323.0000 1.0000
50.9500 339.0000 1.0000
50.9600 323.0000 1.0000
50.9700 310.0000 1.0000
50.9800 330.0000 1.0000
50.9900 329.0000 1.0000
51.0000 357.0000 1.0000
51.0100 318.0000 1.0000
51.0200 298.0000 1.0000
51.0300 305.0000 1.0000
51.0400 328.0000 1.0000
51.0500 347.0000 1.0000
51.0600 332.0000 1.0000
51.0700 314.0000 1.0000
51.0800 326.0000 1.0000
51.0900 337.0000 1.0000
51.1000 325.0000 1.0000
51.1100 343.0000 1.0000
51.1200 308.0000 1.0000
51.1300 323.0000 1.0000
51.1400 318.0000 1.0000
51.1500 325.0000 1.0000
51.1600 337.0000 1.0000
51.1700 362.0000 1.0000
51.1800 351.0000 1.0000
51.1900 336.0000 1.0000
51.2000 339.0000 1.0000
51.2100 326.0000 1.0000
51.2200 297.0000 1.0000
51.2300 334.0000 1.0000
51.2400 341.0000 1.0000
51.2500 325.0000 1.0000
51.2600 324.0000 1.0000
51.2700 304.0000 1.0000
51.2800 309.0000 1.0000
51.2900 324.0000 1.0000
51.3000 339.0000 1.0000
51.3100 306.0000 1.0000
51.3200 323.0000 1.0000
51.3300 318.0000 1.0000
51.3400 316.0000 1.0000
51.3500 330.0000 1.0000
51.3600 297.0000 1.0000
51.3700 310.0000 1.0000
51.3800 301.0000 1.0000
51.3900 333.0000 1.0000
51.4000 332.0000 1.0000
51.4100 334.0000 1.0000
51.4200 311.0000 1.0000
51.4300 313.0000 1.0000
51.4400 341.0000 1.0000
51.4500 314.0000 1.0000
51.4600 307.0000 1.0000
51.4700 318.0000 1.0000
51.4800 335.0000 1.0000
51.4900 308.0000 1.0000
51.5000 344.0000 1.0000
51.5100 325.0000 1.0000
51.5200 305.0000 1.0000
51.5300 335.0000 1.0000
51.5400 331.0000 1.0000
51.5500 335.0000 1.0000
51.5600 305.0000 1.0000
51.5700 323.0000 1.0000
51.5800 322.0000 1.0000
51.5900 318.0000 1.0000
51.6000 370.0000 1.0000
51.6100 322.0000 1.0000
51.6200 318.0000 1.0000
51.6300 348.0000 1.0000
51.6400 336.0000 1.0000
51.6500 317.0000 1.0000
51.6600 326.0000 1.0000
51.6700 302.0000 1.0000
51.6800 335.0000 1.0000
51.6900 341.0000 1.0000
51.7000 339.0000 1.0000
51.7100 339.0000 1.0000
51.7200 341.0000 1.0000
51.7300 339.0000 1.0000
51.7400 348.0000 1.0000
51.7500 347.0000 1.0000
51.7600 339.0000 1.0000
51.7700 341.0000 1.0000
51.7800 336.0000 1.0000
51.7900 355.0000 1.0000
51.8000 358.0000 1.0000
51.8100 365.0000 1.0000
51.8200 379.0000 1.0000
51.8300 368.0000 1.0000
51.8400 366.0000 1.0000
51.8500 363.0000 1.0000
51.8600 377.0000 1.0000
51.8700 353.0000 1.0000
51.8800 362.0000 1.0000
51.8900 396.0000 1.0000
51.9000 405.0000 1.0000
51.9100 409.0000 1.0000
51.9200 401.0000 1.0000
51.9300 374.0000 1.0000
51.9400 413.0000 1.0000
51.9500 429.0000 1.0000
51.9600 446.0000 1.0000
51.9700 428.0000 1.0000
51.9800 469.0000 1.0000
51.9900 454.0000 1.0000
52.0000 472.0000 1.0000
52.0100 475.0000 1.0000
52.0200 506.0000 1.0000
52.0300 547.0000 1.0000
52.0400 559.0000 1.0000
52.0500 552.0000 1.0000
52.0600 593.0000 1.0000
52.0700 625.0000 1.0000
52.0800 604.0000 1.0000
52.0900 640.0000 1.0000
52.1000 694.0000 1.0000
52.1100 748.0000 1.0000
52.1200 789.0000 1.0000
52.1300 814.0000 1.0000
52.1400 892.0000 1.0000
52.1500 954.0000 1.0000
52.1600 1067.0000 1.0000
52.1700 1162.0000 1.0000
52.1800 1217.0000 1.0000
52.1900 1358.0000 1.0000
52.2000 1499.0000 1.0000
52.2100 1605.0000 1.0000
52.2200 1779.0000 1.0000
52.2300 1846.0000 1.0000
52.2400 1974.0000 1.0000
52.2500 2022.0000 1.0000
52.2600 2091.0000 1.0000
52.2700 2231.0000 1.0000
52.2800 2278.0000 1.0000
52.2900 2316.0000 1.0000
52.3000 2271.0000 1.0000
52.3100 2344.0000 1.0000
52.3200 2228.0000 1.0000
52.3300 2095.0000 1.0000
52.3400 2031.0000 1.0000
52.3500 1884.0000 1.0000
52.3600 1910.0000 1.0000
52.3700 1886.0000 1.0000
52.3800 1833.0000 1.0000
52.3900 1786.0000 1.0000
52.4000 1720.0000 1.0000
52.4100 1611.0000 1.0000
52.4200 1637.0000 1.0000
52.4300 1515.0000 1.0000
52.4400 1507.0000 1.0000
52.4500 1443.0000 1.0000
52.4600 1329.0000 1.0000
52.4700 1214.0000 1.0000
52.4800 1135.0000 1.0000
52.4900 1064.0000 1.0000
52.5000 1019.0000 1.0000
52.5100 934.0000 1.0000
52.5200 824.0000 1.0000
52.5300 832.0000 1.0000
52.5400 746.0000 1.0000
52.5500 711.0000 1.0000
52.5600 666.0000 1.0000
52.5700 642.0000 1.0000
52.5800 633.0000 1.0000
52.5900 545.0000 1.0000
52.6000 535.0000 1.0000
52.6100 574.0000 1.0000
52.6200 511.0000 1.0000
52.6300 485.0000 1.0000
52.6400 474.0000 1.0000
52.6500 497.0000 1.0000
52.6600 461.0000 1.0000
52.6700 464.0000 1.0000
52.6800 455.0000 1.0000
52.6900 453.0000 1.0000
52.7000 453.0000 1.0000
52.7100 429.0000 1.0000
52.7200 419.0000 1.0000
52.7300 392.0000 1.0000
52.7400 392.0000 1.0000
52.7500 410.0000 1.0000
52.7600 379.0000 1.0000
52.7700 382.0000 1.0000
52.7800 403.0000 1.0000
52.7900 380.0000 1.0000
52.8000 398.0000 1.0000
52.8100 389.0000 1.0000
52.8200 366.0000 1.0000
52.8300 362.0000 1.0000
52.8400 363.0000 1.0000
52.8500 326.0000 1.0000
52.8600 373.0000 1.0000
52.8700 369.0000 1.0000
52.8800 365.0000 1.0000
52.8900 327.0000 1.0000
52.9000 342.0000 1.0000
52.9100 331.0000 1.0000
52.9200 340.0000 1.0000
52.9300 387.0000 1.0000
52.9400 327.0000 1.0000
52.9500 327.0000 1.0000
52.9600 322.0000 1.0000
52.9700 303.0000 1.0000
52.9800 344.0000 1.0000
52.9900 329.0000 1.0000
53.0000 324.0000 1.0000
53.0100 306.0000 1.0000
53.0200 334.0000 1.0000
53.0300 326.0000 1.0000
53.0400 314.0000 1.0000
53.0500 324.0000 1.0000
53.0600 287.0000 1.0000
53.0700 333.0000 1.0000
53.0800 315.0000 1.0000
53.0900 317.0000 1.0000
53.1000 315.0000 1.0000
53.1100 326.0000 1.0000
53.1200 335.0000 1.0000
53.1300 346.0000 1.0000
53.1400 330.0000 1.0000
53.1500 320.0000 1.0000
53.1600 327.0000 1.0000
53.1700 313.0000 1.0000
53.1800 320.0000 1.0000
53.1900 313.0000 1.0000
53.2000 317.0000 1.0000
53.2100 335.0000 1.0000
53.2200 304.0000 1.0000
53.2300 318.0000 1.0000
53.2400 302.0000 1.0000
53.2500 330.0000 1.0000
53.2600 297.0000 1.0000
53.2700 305.0000 1.0000
53.2800 296.0000 1.0000
53.2900 290.0000 1.0000
53.3000 270.0000 1.0000
53.3100 295.0000 1.0000
53.3200 310.0000 1.0000
53.3300 287.0000 1.0000
53.3400 296.0000 1.0000
53.3500 298.0000 1.0000
53.3600 309.0000 1.0000
53.3700 300.0000 1.0000
53.3800 305.0000 1.0000
53.3900 289.0000 1.0000
53.4000 291.0000 1.0000
53.4100 287.0000 1.0000
53.4200 290.0000 1.0000
53.4300 285.0000 1.0000
53.4400 301.0000 1.0000
53.4500 310.0000 1.0000
53.4600 331.0000 1.0000
53.4700 274.0000 1.0000
53.4800 306.0000 1.0000
53.4900 314.0000 1.0000
53.5000 302.0000 1.0000
53.5100 301.0000 1.0000
53.5200 295.0000 1.0000
53.5300 299.0000 1.0000
53.5400 289.0000 1.0000
53.5500 307.0000 1.0000
53.5600 287.0000 1.0000
53.5700 301.0000 1.0000
53.5800 293.0000 1.0000
53.5900 290.0000 1.0000
53.6000 286.0000 1.0000
53.6100 313.0000 1.0000
53.6200 267.0000 1.0000
53.6300 300.0000 1.0000
53.6400 284.0000 1.0000
53.6500 283.0000 1.0000
53.6600 300.0000 1.0000
53.6700 300.0000 1.0000
53.6800 290.0000 1.0000
53.6900 271.0000 1.0000
53.7000 302.0000 1.0000
53.7100 301.0000 1.0000
53.7200 277.0000 1.0000
53.7300 304.0000 1.0000
53.7400 300.0000 1.0000
53.7500 306.0000 1.0000
53.7600 279.0000 1.0000
53.7700 294.0000 1.0000
53.7800 261.0000 1.0000
53.7900 288.0000 1.0000
53.8000 268.0000 1.0000
53.8100 302.0000 1.0000
53.8200 296.0000 1.0000
53.8300 318.0000 1.0000
53.8400 298.0000 1.0000
53.8500 285.0000 1.0000
53.8600 282.0000 1.0000
53.8700 300.0000 1.0000
53.8800 289.0000 1.0000
53.8900 265.0000 1.0000
53.9000 282.0000 1.0000
53.9100 300.0000 1.0000
53.9200 274.0000 1.0000
53.9300 310.0000 1.0000
53.9400 322.0000 1.0000
53.9500 295.0000 1.0000
53.9600 279.0000 1.0000
53.9700 281.0000 1.0000
53.9800 292.0000 1.0000
53.9900 289.0000 1.0000
54.0000 295.0000 1.0000
54.0100 281.0000 1.0000
54.0200 291.0000 1.0000
54.0300 303.0000 1.0000
54.0400 306.0000 1.0000
54.0500 307.0000 1.0000
54.0600 290.0000 1.0000
54.0700 309.0000 1.0000
54.0800 285.0000 1.0000
54.0900 286.0000 1.0000
54.1000 266.0000 1.0000
54.1100 315.0000 1.0000
54.1200 323.0000 1.0000
54.1300 269.0000 1.0000
54.1400 282.0000 1.0000
54.1500 315.0000 1.0000
54.1600 297.0000 1.0000
54.1700 291.0000 1.0000
54.1800 312.0000 1.0000
54.1900 296.0000 1.0000
54.2000 298.0000 1.0000
54.2100 288.0000 1.0000
54.2200 295.0000 1.0000
54.2300 282.0000 1.0000
54.2400 264.0000 1.0000
54.2500 298.0000 1.0000
54.2600 311.0000 1.0000
54.2700 285.0000 1.0000
54.2800 282.0000 1.0000
54.2900 307.0000 1.0000
54.3000 293.0000 1.0000
54.3100 292.0000 1.0000
54.3200 305.0000 1.0000
54.3300 271.0000 1.0000
54.3400 246.0000 1.0000
54.3500 275.0000 1.0000
54.3600 267.0000 1.0000
54.3700 282.0000 1.0000
54.3800 258.0000 1.0000
54.3900 327.0000 1.0000
54.4000 292.0000 1.0000
54.4100 289.0000 1.0000
54.4200 292.0000 1.0000
54.4300 283.0000 1.0000
54.4400 279.0000 1.0000
54.4500 296.0000 1.0000
54.4600 278.0000 1.0000
54.4700 287.0000 1.0000
54.4800 310.0000 1.0000
54.4900 297.0000 1.0000
54.5000 298.0000 1.0000
54.5100 298.0000 1.0000
54.5200 322.0000 1.0000
54.5300 293.0000 1.0000
54.5400 298.0000 1.0000
54.5500 268.0000 1.0000
54.5600 319.0000 1.0000
54.5700 286.0000 1.0000
54.5800 278.0000 1.0000
54.5900 301.0000 1.0000
54.6000 307.0000 1.0000
54.6100 300.0000 1.0000
54.6200 284.0000 1.0000
54.6300 291.0000 1.0000
54.6400 315.0000 1.0000
54.6500 291.0000 1.0000
54.6600 280.0000 1.0000
54.6700 271.0000 1.0000
54.6800 300.0000 1.0000
54.6900 320.0000 1.0000
54.7000 293.0000 1.0000
54.7100 315.0000 1.0000
54.7200 316.0000 1.0000
54.7300 289.0000 1.0000
54.7400 285.0000 1.0000
54.7500 311.0000 1.0000
54.7600 321.0000 1.0000
54.7700 297.0000 1.0000
54.7800 297.0000 1.0000
54.7900 330.0000 1.0000
54.8000 274.0000 1.0000
54.8100 300.0000 1.0000
54.8200 289.0000 1.0000
54.8300 304.0000 1.0000
54.8400 315.0000 1.0000
54.8500 320.0000 1.0000
54.8600 323.0000 1.0000
54.8700 296.0000 1.0000
54.8800 299.0000 1.0000
54.8900 296.0000 1.0000
54.9000 312.0000 1.0000
54.9100 294.0000 1.0000
54.9200 301.0000 1.0000
54.9300 298.0000 1.0000
54.9400 315.0000 1.0000
54.9500 319.0000 1.0000
54.9600 334.0000 1.0000
54.9700 322.0000 1.0000
54.9800 301.0000 1.0000
54.9900 280.0000 1.0000
55.0000 332.0000 1.0000
55.0100 315.0000 1.0000
55.0200 296.0000 1.0000
55.0300 310.0000 1.0000
55.0400 343.0000 1.0000
55.0500 320.0000 1.0000
55.0600 326.0000 1.0000
55.0700 291.0000 1.0000
55.0800 328.0000 1.0000
55.0900 296.0000 1.0000
55.1000 330.0000 1.0000
55.1100 358.0000 1.0000
55.1200 341.0000 1.0000
55.1300 351.0000 1.0000
55.1400 342.0000 1.0000
55.1500 367.0000 1.0000
55.1600 350.0000 1.0000
55.1700 361.0000 1.0000
55.1800 352.0000 1.0000
55.1900 393.0000 1.0000
55.2000 394.0000 1.0000
55.2100 390.0000 1.0000
55.2200 380.0000 1.0000
55.2300 418.0000 1.0000
55.2400 423.0000 1.0000
55.2500 437.0000 1.0000
55.2600 446.0000 1.0000
55.2700 420.0000 1.0000
55.2800 479.0000 1.0000
55.2900 432.0000 1.0000
55.3000 423.0000 1.0000
55.3100 444.0000 1.0000
55.3200 426.0000 1.0000
55.3300 417.0000 1.0000
55.3400 432.0000 1.0000
55.3500 421.0000 1.0000
55.3600 438.0000 1.0000
55.3700 437.0000 1.0000
55.3800 457.0000 1.0000
55.3900 432.0000 1.0000
55.4000 430.0000 1.0000
55.4100 437.0000 1.0000
55.4200 436.0000 1.0000
55.4300 397.0000 1.0000
55.4400 394.0000 1.0000
55.4500 401.0000 1.0000
55.4600 402.0000 1.0000
55.4700 390.0000 1.0000
55.4800 385.0000 1.0000
55.4900 373.0000 1.0000
55.5000 355.0000 1.0000
55.5100 381.0000 1.0000
55.5200 371.0000 1.0000
55.5300 320.0000 1.0000
55.5400 322.0000 1.0000
55.5500 322.0000 1.0000
55.5600 332.0000 1.0000
55.5700 336.0000 1.0000
55.5800 304.0000 1.0000
55.5900 346.0000 1.0000
55.6000 337.0000 1.0000
55.6100 330.0000 1.0000
55.6200 352.0000 1.0000
55.6300 322.0000 1.0000
55.6400 311.0000 1.0000
55.6500 317.0000 1.0000
55.6600 314.0000 1.0000
55.6700 309.0000 1.0000
55.6800 332.0000 1.0000
55.6900 309.0000 1.0000
55.7000 333.0000 1.0000
55.7100 319.0000 1.0000
55.7200 295.0000 1.0000
55.7300 300.0000 1.0000
55.7400 285.0000 1.0000
55.7500 291.0000 1.0000
55.7600 287.0000 1.0000
55.7700 303.0000 1.0000
55.7800 327.0000 1.0000
55.7900 295.0000 1.0000
55.8000 301.0000 1.0000
55.8100 290.0000 1.0000
55.8200 313.0000 1.0000
55.8300 293.0000 1.0000
55.8400 284.0000 1.0000
55.8500 268.0000 1.0000
55.8600 268.0000 1.0000
55.8700 294.0000 1.0000
55.8800 304.0000 1.0000
55.8900 245.0000 1.0000
55.9000 296.0000 1.0000
55.9100 307.0000 1.0000
55.9200 298.0000 1.0000
55.9300 291.0000 1.0000
55.9400 258.0000 1.0000
55.9500 267.0000 1.0000
55.9600 291.0000 1.0000
55.9700 307.0000 1.0000
55.9800 285.0000 1.0000
55.9900 281.0000 1.0000
56.0000 289.0000 1.0000
56.0100 298.0000 1.0000
56.0200 289.0000 1.0000
56.0300 274.0000 1.0000
56.0400 289.0000 1.0000
56.0500 246.0000 1.0000
56.0600 294.0000 1.0000
56.0700 286.0000 1.0000
56.0800 283.0000 1.0000
56.0900 286.0000 1.0000
56.1000 295.0000 1.0000
56.1100 300.0000 1.0000
56.1200 268.0000 1.0000
56.1300 303.0000 1.0000
56.1400 272.0000 1.0000
56.1500 288.0000 1.0000
56.1600 295.0000 1.0000
56.1700 285.0000 1.0000
56.1800 270.0000 1.0000
56.1900 289.0000 1.0000
56.2000 277.0000 1.0000
56.2100 295.0000 1.0000
56.2200 280.0000 1.0000
56.2300 297.0000 1.0000
56.2400 306.0000 1.0000
56.2500 297.0000 1.0000
56.2600 288.0000 1.0000
56.2700 282.0000 1.0000
56.2800 265.0000 1.0000
56.2900 269.0000 1.0000
56.3000 272.0000 1.0000
56.3100 263.0000 1.0000
56.3200 301.0000 1.0000
56.3300 296.0000 1.0000
56.3400 287.0000 1.0000
56.3500 289.0000 1.0000
56.3600 298.0000 1.0000
56.3700 310.0000 1.0000
56.3800 280.0000 1.0000
56.3900 295.0000 1.0000
56.4000 258.0000 1.0000
56.4100 287.0000 1.0000
56.4200 256.0000 1.0000
56.4300 304.0000 1.0000
56.4400 310.0000 1.0000
56.4500 318.0000 1.0000
56.4600 275.0000 1.0000
56.4700 242.0000 1.0000
56.4800 271.0000 1.0000
56.4900 292.0000 1.0000
56.5000 285.0000 1.0000
56.5100 295.0000 1.0000
56.5200 271.0000 1.0000
56.5300 278.0000 1.0000
56.5400 252.0000 1.0000
56.5500 295.0000 1.0000
56.5600 284.0000 1.0000
56.5700 273.0000 1.0000
56.5800 281.0000 1.0000
56.5900 283.0000 1.0000
56.6000 252.0000 1.0000
56.6100 285.0000 1.0000
56.6200 283.0000 1.0000
56.6300 292.0000 1.0000
56.6400 294.0000 1.0000
56.6500 283.0000 1.0000
56.6600 253.0000 1.0000
56.6700 267.0000 1.0000
56.6800 265.0000 1.0000
56.6900 276.0000 1.0000
56.7000 289.0000 1.0000
56.7100 280.0000 1.0000
56.7200 292.0000 1.0000
56.7300 278.0000 1.0000
56.7400 269.0000 1.0000
56.7500 271.0000 1.0000
56.7600 272.0000 1.0000
56.7700 289.0000 1.0000
56.7800 289.0000 1.0000
56.7900 300.0000 1.0000
56.8000 279.0000 1.0000
56.8100 270.0000 1.0000
56.8200 297.0000 1.0000
56.8300 293.0000 1.0000
56.8400 270.0000 1.0000
56.8500 288.0000 1.0000
56.8600 295.0000 1.0000
56.8700 285.0000 1.0000
56.8800 271.0000 1.0000
56.8900 292.0000 1.0000
56.9000 281.0000 1.0000
56.9100 259.0000 1.0000
56.9200 291.0000 1.0000
56.9300 278.0000 1.0000
56.9400 254.0000 1.0000
56.9500 240.0000 1.0000
56.9600 281.0000 1.0000
56.9700 277.0000 1.0000
56.9800 280.0000 1.0000
56.9900 279.0000 1.0000
57.0000 278.0000 1.0000
57.0100 286.0000 1.0000
57.0200 290.0000 1.0000
57.0300 280.0000 1.0000
57.0400 276.0000 1.0000
57.0500 289.0000 1.0000
57.0600 295.0000 1.0000
57.0700 287.0000 1.0000
57.0800 290.0000 1.0000
57.0900 272.0000 1.0000
57.1000 272.0000 1.0000
57.1100 280.0000 1.0000
57.1200 273.0000 1.0000
57.1300 287.0000 1.0000
57.1400 300.0000 1.0000
57.1500 294.0000 1.0000
57.1600 291.0000 1.0000
57.1700 300.0000 1.0000
57.1800 284.0000 1.0000
57.1900 271.0000 1.0000
57.2000 266.0000 1.0000
57.2100 272.0000 1.0000
57.2200 313.0000 1.0000
57.2300 290.0000 1.0000
57.2400 259.0000 1.0000
57.2500 266.0000 1.0000
57.2600 297.0000 1.0000
57.2700 274.0000 1.0000
57.2800 270.0000 1.0000
57.2900 271.0000 1.0000
57.3000 287.0000 1.0000
57.3100 280.0000 1.0000
57.3200 264.0000 1.0000
57.3300 271.0000 1.0000
57.3400 278.0000 1.0000
57.3500 275.0000 1.0000
57.3600 298.0000 1.0000
57.3700 278.0000 1.0000
57.3800 288.0000 1.0000
57.3900 294.0000 1.0000
57.4000 275.0000 1.0000
57.4100 268.0000 1.0000
57.4200 281.0000 1.0000
57.4300 268.0000 1.0000
57.4400 289.0000 1.0000
57.4500 281.0000 1.0000
57.4600 276.0000 1.0000
57.4700 270.0000 1.0000
57.4800 261.0000 1.0000
57.4900 273.0000 1.0000
57.5000 277.0000 1.0000
57.5100 267.0000 1.0000
57.5200 274.0000 1.0000
57.5300 282.0000 1.0000
57.5400 273.0000 1.0000
57.5500 272.0000 1.0000
57.5600 254.0000 1.0000
57.5700 260.0000 1.0000
57.5800 251.0000 1.0000
57.5900 287.0000 1.0000
57.6000 271.0000 1.0000
57.6100 280.0000 1.0000
57.6200 268.0000 1.0000
57.6300 274.0000 1.0000
57.6400 303.0000 1.0000
57.6500 299.0000 1.0000
57.6600 290.0000 1.0000
57.6700 310.0000 1.0000
57.6800 285.0000 1.0000
57.6900 284.0000 1.0000
57.7000 303.0000 1.0000
57.7100 266.0000 1.0000
57.7200 294.0000 1.0000
57.7300 284.0000 1.0000
57.7400 274.0000 1.0000
57.7500 257.0000 1.0000
57.7600 287.0000 1.0000
57.7700 292.0000 1.0000
57.7800 277.0000 1.0000
57.7900 287.0000 1.0000
57.8000 288.0000 1.0000
57.8100 284.0000 1.0000
57.8200 302.0000 1.0000
57.8300 292.0000 1.0000
57.8400 297.0000 1.0000
57.8500 275.0000 1.0000
57.8600 259.0000 1.0000
57.8700 272.0000 1.0000
57.8800 298.0000 1.0000
57.8900 298.0000 1.0000
57.9000 252.0000 1.0000
57.9100 300.0000 1.0000
57.9200 287.0000 1.0000
57.9300 272.0000 1.0000
57.9400 286.0000 1.0000
57.9500 281.0000 1.0000
57.9600 282.0000 1.0000
57.9700 303.0000 1.0000
57.9800 280.0000 1.0000
57.9900 289.0000 1.0000
58.0000 295.0000 1.0000
58.0100 288.0000 1.0000
58.0200 305.0000 1.0000
58.0300 263.0000 1.0000
58.0400 285.0000 1.0000
58.0500 264.0000 1.0000
58.0600 289.0000 1.0000
58.0700 296.0000 1.0000
58.0800 280.0000 1.0000
58.0900 307.0000 1.0000
58.1000 299.0000 1.0000
58.1100 297.0000 1.0000
58.1200 281.0000 1.0000
58.1300 291.0000 1.0000
58.1400 299.0000 1.0000
58.1500 280.0000 1.0000
58.1600 289.0000 1.0000
58.1700 278.0000 1.0000
58.1800 278.0000 1.0000
58.1900 296.0000 1.0000
58.2000 283.0000 1.0000
58.2100 297.0000 1.0000
58.2200 254.0000 1.0000
58.2300 277.0000 1.0000
58.2400 261.0000 1.0000
58.2500 267.0000 1.0000
58.2600 277.0000 1.0000
58.2700 259.0000 1.0000
58.2800 266.0000 1.0000
58.2900 284.0000 1.0000
58.3000 296.0000 1.0000
58.3100 278.0000 1.0000
58.3200 261.0000 1.0000
58.3300 284.0000 1.0000
58.3400 297.0000 1.0000
58.3500 306.0000 1.0000
58.3600 290.0000 1.0000
58.3700 293.0000 1.0000
58.3800 313.0000 1.0000
58.3900 278.0000 1.0000
58.4000 290.0000 1.0000
58.4100 285.0000 1.0000
58.4200 281.0000 1.0000
58.4300 260.0000 1.0000
58.4400 264.0000 1.0000
58.4500 278.0000 1.0000
58.4600 285.0000 1.0000
58.4700 292.0000 1.0000
58.4800 271.0000 1.0000
58.4900 274.0000 1.0000
58.5000 265.0000 1.0000
58.5100 292.0000 1.0000
58.5200 279.0000 1.0000
58.5300 267.0000 1.0000
58.5400 280.0000 1.0000
58.5500 262.0000 1.0000
58.5600 260.0000 1.0000
58.5700 268.0000 1.0000
58.5800 252.0000 1.0000
58.5900 287.0000 1.0000
58.6000 304.0000 1.0000
58.6100 289.0000 1.0000
58.6200 279.0000 1.0000
58.6300 259.0000 1.0000
58.6400 287.0000 1.0000
58.6500 286.0000 1.0000
58.6600 264.0000 1.0000
58.6700 260.0000 1.0000
58.6800 291.0000 1.0000
58.6900 291.0000 1.0000
58.7000 270.0000 1.0000
58.7100 282.0000 1.0000
58.7200 278.0000 1.0000
58.7300 294.0000 1.0000
58.7400 291.0000 1.0000
58.7500 270.0000 1.0000
58.7600 295.0000 1.0000
58.7700 293.0000 1.0000
58.7800 267.0000 1.0000
58.7900 283.0000 1.0000
58.8000 269.0000 1.0000
58.8100 302.0000 1.0000
58.8200 294.0000 1.0000
58.8300 285.0000 1.0000
58.8400 260.0000 1.0000
58.8500 296.0000 1.0000
58.8600 263.0000 1.0000
58.8700 252.0000 1.0000
58.8800 272.0000 1.0000
58.8900 255.0000 1.0000
58.9000 264.0000 1.0000
58.9100 303.0000 1.0000
58.9200 279.0000 1.0000
58.9300 289.0000 1.0000
58.9400 286.0000 1.0000
58.9500 288.0000 1.0000
58.9600 269.0000 1.0000
58.9700 279.0000 1.0000
58.9800 311.0000 1.0000
58.9900 246.0000 1.0000
59.0000 279.0000 1.0000
59.0100 288.0000 1.0000
59.0200 282.0000 1.0000
59.0300 275.0000 1.0000
59.0400 293.0000 1.0000
59.0500 264.0000 1.0000
59.0600 297.0000 1.0000
59.0700 269.0000 1.0000
59.0800 277.0000 1.0000
59.0900 268.0000 1.0000
59.1000 291.0000 1.0000
59.1100 288.0000 1.0000
59.1200 275.0000 1.0000
59.1300 275.0000 1.0000
59.1400 282.0000 1.0000
59.1500 289.0000 1.0000
59.1600 278.0000 1.0000
59.1700 282.0000 1.0000
59.1800 257.0000 1.0000
59.1900 309.0000 1.0000
59.2000 286.0000 1.0000
59.2100 303.0000 1.0000
59.2200 267.0000 1.0000
59.2300 285.0000 1.0000
59.2400 290.0000 1.0000
59.2500 303.0000 1.0000
59.2600 279.0000 1.0000
59.2700 306.0000 1.0000
59.2800 293.0000 1.0000
59.2900 280.0000 1.0000
59.3000 275.0000 1.0000
59.3100 300.0000 1.0000
59.3200 281.0000 1.0000
59.3300 272.0000 1.0000
59.3400 290.0000 1.0000
59.3500 273.0000 1.0000
59.3600 288.0000 1.0000
59.3700 296.0000 1.0000
59.3800 298.0000 1.0000
59.3900 298.0000 1.0000
59.4000 315.0000 1.0000
59.4100 270.0000 1.0000
59.4200 259.0000 1.0000
59.4300 281.0000 1.0000
59.4400 278.0000 1.0000
59.4500 256.0000 1.0000
59.4600 260.0000 1.0000
59.4700 277.0000 1.0000
59.4800 290.0000 1.0000
59.4900 281.0000 1.0000
59.5000 287.0000 1.0000
59.5100 286.0000 1.0000
59.5200 292.0000 1.0000
59.5300 273.0000 1.0000
59.5400 269.0000 1.0000
59.5500 247.0000 1.0000
59.5600 259.0000 1.0000
59.5700 285.0000 1.0000
59.5800 272.0000 1.0000
59.5900 286.0000 1.0000
59.6000 286.0000 1.0000
59.6100 290.0000 1.0000
59.6200 282.0000 1.0000
59.6300 298.0000 1.0000
59.6400 282.0000 1.0000
59.6500 282.0000 1.0000
59.6600 250.0000 1.0000
59.6700 291.0000 1.0000
59.6800 275.0000 1.0000
59.6900 275.0000 1.0000
59.7000 247.0000 1.0000
59.7100 275.0000 1.0000
59.7200 276.0000 1.0000
59.7300 280.0000 1.0000
59.7400 288.0000 1.0000
59.7500 281.0000 1.0000
59.7600 256.0000 1.0000
59.7700 322.0000 1.0000
59.7800 267.0000 1.0000
59.7900 294.0000 1.0000
59.8000 266.0000 1.0000
59.8100 307.0000 1.0000
59.8200 290.0000 1.0000
59.8300 277.0000 1.0000
59.8400 316.0000 1.0000
59.8500 281.0000 1.0000
59.8600 279.0000 1.0000
59.8700 266.0000 1.0000
59.8800 280.0000 1.0000
59.8900 273.0000 1.0000
59.9000 276.0000 1.0000
59.9100 270.0000 1.0000
59.9200 258.0000 1.0000
59.9300 278.0000 1.0000
59.9400 275.0000 1.0000
59.9500 275.0000 1.0000
59.9600 264.0000 1.0000
59.9700 283.0000 1.0000
59.9800 258.0000 1.0000
59.9900 277.0000 1.0000
60.0000 302.0000 1.0000
60.0100 272.0000 1.0000
60.0200 260.0000 1.0000
60.0300 269.0000 1.0000
60.0400 289.0000 1.0000
60.0500 279.0000 1.0000
60.0600 310.0000 1.0000
60.0700 284.0000 1.0000
60.0800 264.0000 1.0000
60.0900 288.0000 1.0000
60.1000 265.0000 1.0000
60.1100 277.0000 1.0000
60.1200 277.0000 1.0000
60.1300 300.0000 1.0000
60.1400 267.0000 1.0000
60.1500 296.0000 1.0000
60.1600 272.0000 1.0000
60.1700 276.0000 1.0000
60.1800 273.0000 1.0000
60.1900 254.0000 1.0000
60.2000 260.0000 1.0000
60.2100 305.0000 1.0000
60.2200 283.0000 1.0000
60.2300 259.0000 1.0000
60.2400 284.0000 1.0000
60.2500 282.0000 1.0000
60.2600 284.0000 1.0000
60.2700 300.0000 1.0000
60.2800 286.0000 1.0000
60.2900 264.0000 1.0000
60.3000 283.0000 1.0000
60.3100 279.0000 1.0000
60.3200 284.0000 1.0000
60.3300 274.0000 1.0000
60.3400 277.0000 1.0000
60.3500 302.0000 1.0000
60.3600 271.0000 1.0000
60.3700 267.0000 1.0000
60.3800 294.0000 1.0000
60.3900 264.0000 1.0000
60.4000 275.0000 1.0000
60.4100 274.0000 1.0000
60.4200 252.0000 1.0000
60.4300 276.0000 1.0000
60.4400 294.0000 1.0000
60.4500 282.0000 1.0000
60.4600 268.0000 1.0000
60.4700 277.0000 1.0000
60.4800 297.0000 1.0000
60.4900 267.0000 1.0000
60.5000 271.0000 1.0000
60.5100 301.0000 1.0000
60.5200 288.0000 1.0000
60.5300 280.0000 1.0000
60.5400 287.0000 1.0000
60.5500 292.0000 1.0000
60.5600 290.0000 1.0000
60.5700 278.0000 1.0000
60.5800 274.0000 1.0000
60.5900 244.0000 1.0000
60.6000 269.0000 1.0000
60.6100 285.0000 1.0000
60.6200 300.0000 1.0000
60.6300 289.0000 1.0000
60.6400 277.0000 1.0000
60.6500 263.0000 1.0000
60.6600 284.0000 1.0000
60.6700 270.0000 1.0000
60.6800 297.0000 1.0000
60.6900 288.0000 1.0000
60.7000 305.0000 1.0000
60.7100 284.0000 1.0000
60.7200 253.0000 1.0000
60.7300 297.0000 1.0000
60.7400 274.0000 1.0000
60.7500 250.0000 1.0000
60.7600 266.0000 1.0000
60.7700 259.0000 1.0000
60.7800 267.0000 1.0000
60.7900 301.0000 1.0000
60.8000 277.0000 1.0000
60.8100 247.0000 1.0000
60.8200 263.0000 1.0000
60.8300 290.0000 1.0000
60.8400 297.0000 1.0000
60.8500 253.0000 1.0000
60.8600 262.0000 1.0000
60.8700 257.0000 1.0000
60.8800 305.0000 1.0000
60.8900 275.0000 1.0000
60.9000 297.0000 1.0000
60.9100 252.0000 1.0000
60.9200 273.0000 1.0000
60.9300 275.0000 1.0000
60.9400 270.0000 1.0000
60.9500 275.0000 1.0000
60.9600 277.0000 1.0000
60.9700 296.0000 1.0000
60.9800 290.0000 1.0000
60.9900 289.0000 1.0000
61.0000 264.0000 1.0000
61.0100 278.0000 1.0000
61.0200 259.0000 1.0000
61.0300 258.0000 1.0000
61.0400 244.0000 1.0000
61.0500 270.0000 1.0000
61.0600 264.0000 1.0000
61.0700 269.0000 1.0000
61.0800 258.0000 1.0000
61.0900 294.0000 1.0000
61.1000 300.0000 1.0000
61.1100 260.0000 1.0000
61.1200 269.0000 1.0000
61.1300 280.0000 1.0000
61.1400 291.0000 1.0000
61.1500 259.0000 1.0000
61.1600 258.0000 1.0000
61.1700 289.0000 1.0000
61.1800 272.0000 1.0000
61.1900 273.0000 1.0000
61.2000 287.0000 1.0000
61.2100 283.0000 1.0000
61.2200 265.0000 1.0000
61.2300 268.0000 1.0000
61.2400 274.0000 1.0000
61.2500 279.0000 1.0000
61.2600 272.0000 1.0000
61.2700 271.0000 1.0000
61.2800 263.0000 1.0000
61.2900 286.0000 1.0000
61.3000 254.0000 1.0000
61.3100 293.0000 1.0000
61.3200 296.0000 1.0000
61.3300 263.0000 1.0000
61.3400 274.0000 1.0000
61.3500 296.0000 1.0000
61.3600 280.0000 1.0000
61.3700 288.0000 1.0000
61.3800 296.0000 1.0000
61.3900 278.0000 1.0000
61.4000 293.0000 1.0000
61.4100 291.0000 1.0000
61.4200 275.0000 1.0000
61.4300 251.0000 1.0000
61.4400 290.0000 1.0000
61.4500 300.0000 1.0000
61.4600 291.0000 1.0000
61.4700 271.0000 1.0000
61.4800 274.0000 1.0000
61.4900 264.0000 1.0000
61.5000 269.0000 1.0000
61.5100 279.0000 1.0000
61.5200 271.0000 1.0000
61.5300 291.0000 1.0000
61.5400 273.0000 1.0000
61.5500 295.0000 1.0000
61.5600 281.0000 1.0000
61.5700 287.0000 1.0000
61.5800 249.0000 1.0000
61.5900 280.0000 1.0000
61.6000 299.0000 1.0000
61.6100 270.0000 1.0000
61.6200 267.0000 1.0000
61.6300 266.0000 1.0000
61.6400 275.0000 1.0000
61.6500 293.0000 1.0000
61.6600 268.0000 1.0000
61.6700 280.0000 1.0000
61.6800 285.0000 1.0000
61.6900 274.0000 1.0000
61.7000 285.0000 1.0000
61.7100 278.0000 1.0000
61.7200 278.0000 1.0000
61.7300 294.0000 1.0000
61.7400 279.0000 1.0000
61.7500 265.0000 1.0000
61.7600 293.0000 1.0000
61.7700 294.0000 1.0000
61.7800 301.0000 1.0000
61.7900 313.0000 1.0000
61.8000 300.0000 1.0000
61.8100 291.0000 1.0000
61.8200 299.0000 1.0000
61.8300 291.0000 1.0000
61.8400 280.0000 1.0000
61.8500 311.0000 1.0000
61.8600 295.0000 1.0000
61.8700 309.0000 1.0000
61.8800 305.0000 1.0000
61.8900 322.0000 1.0000
61.9000 297.0000 1.0000
61.9100 297.0000 1.0000
61.9200 322.0000 1.0000
61.9300 309.0000 1.0000
61.9400 296.0000 1.0000
61.9500 320.0000 1.0000
61.9600 306.0000 1.0000
61.9700 295.0000 1.0000
61.9800 318.0000 1.0000
61.9900 311.0000 1.0000
62.0000 322.0000 1.0000
62.0100 354.0000 1.0000
62.0200 360.0000 1.0000
62.0300 368.0000 1.0000
62.0400 366.0000 1.0000
62.0500 394.0000 1.0000
62.0600 386.0000 1.0000
62.0700 404.0000 1.0000
62.0800 406.0000 1.0000
62.0900 420.0000 1.0000
62.1000 404.0000 1.0000
62.1100 418.0000 1.0000
62.1200 418.0000 1.0000
62.1300 392.0000 1.0000
62.1400 461.0000 1.0000
62.1500 453.0000 1.0000
62.1600 486.0000 1.0000
62.1700 528.0000 1.0000
62.1800 477.0000 1.0000
62.1900 506.0000 1.0000
62.2000 505.0000 1.0000
62.2100 543.0000 1.0000
62.2200 513.0000 1.0000
62.2300 559.0000 1.0000
62.2400 620.0000 1.0000
62.2500 499.0000 1.0000
62.2600 550.0000 1.0000
62.2700 601.0000 1.0000
62.2800 612.0000 1.0000
62.2900 594.0000 1.0000
62.3000 605.0000 1.0000
62.3100 610.0000 1.0000
62.3200 582.0000 1.0000
62.3300 623.0000 1.0000
62.3400 604.0000 1.0000
62.3500 646.0000 1.0000
62.3600 602.0000 1.0000
62.3700 591.0000 1.0000
62.3800 595.0000 1.0000
62.3900 589.0000 1.0000
62.4000 558.0000 1.0000
62.4100 565.0000 1.0000
62.4200 572.0000 1.0000
62.4300 549.0000 1.0000
62.4400 522.0000 1.0000
62.4500 550.0000 1.0000
62.4600 514.0000 1.0000
62.4700 537.0000 1.0000
62.4800 507.0000 1.0000
62.4900 478.0000 1.0000
62.5000 514.0000 1.0000
62.5100 512.0000 1.0000
62.5200 493.0000 1.0000
62.5300 461.0000 1.0000
62.5400 455.0000 1.0000
62.5500 427.0000 1.0000
62.5600 403.0000 1.0000
62.5700 452.0000 1.0000
62.5800 392.0000 1.0000
62.5900 387.0000 1.0000
62.6000 408.0000 1.0000
62.6100 415.0000 1.0000
62.6200 405.0000 1.0000
62.6300 429.0000 1.0000
62.6400 385.0000 1.0000
62.6500 361.0000 1.0000
62.6600 386.0000 1.0000
62.6700 351.0000 1.0000
62.6800 363.0000 1.0000
62.6900 332.0000 1.0000
62.7000 370.0000 1.0000
62.7100 333.0000 1.0000
62.7200 367.0000 1.0000
62.7300 353.0000 1.0000
62.7400 353.0000 1.0000
62.7500 313.0000 1.0000
62.7600 328.0000 1.0000
62.7700 336.0000 1.0000
62.7800 308.0000 1.0000
62.7900 321.0000 1.0000
62.8000 303.0000 1.0000
62.8100 329.0000 1.0000
62.8200 303.0000 1.0000
62.8300 308.0000 1.0000
62.8400 332.0000 1.0000
62.8500 309.0000 1.0000
62.8600 345.0000 1.0000
62.8700 319.0000 1.0000
62.8800 335.0000 1.0000
62.8900 351.0000 1.0000
62.9000 334.0000 1.0000
62.9100 334.0000 1.0000
62.9200 299.0000 1.0000
62.9300 306.0000 1.0000
62.9400 308.0000 1.0000
62.9500 342.0000 1.0000
62.9600 304.0000 1.0000
62.9700 301.0000 1.0000
62.9800 314.0000 1.0000
62.9900 287.0000 1.0000
63.0000 287.0000 1.0000
63.0100 299.0000 1.0000
63.0200 291.0000 1.0000
63.0300 313.0000 1.0000
63.0400 306.0000 1.0000
63.0500 296.0000 1.0000
63.0600 302.0000 1.0000
63.0700 317.0000 1.0000
63.0800 297.0000 1.0000
63.0900 303.0000 1.0000
63.1000 321.0000 1.0000
63.1100 331.0000 1.0000
63.1200 306.0000 1.0000
63.1300 269.0000 1.0000
63.1400 303.0000 1.0000
63.1500 270.0000 1.0000
63.1600 320.0000 1.0000
63.1700 291.0000 1.0000
63.1800 310.0000 1.0000
63.1900 296.0000 1.0000
63.2000 304.0000 1.0000
63.2100 315.0000 1.0000
63.2200 295.0000 1.0000
63.2300 284.0000 1.0000
63.2400 288.0000 1.0000
63.2500 294.0000 1.0000
63.2600 306.0000 1.0000
63.2700 291.0000 1.0000
63.2800 305.0000 1.0000
63.2900 294.0000 1.0000
63.3000 289.0000 1.0000
63.3100 294.0000 1.0000
63.3200 295.0000 1.0000
63.3300 279.0000 1.0000
63.3400 308.0000 1.0000
63.3500 274.0000 1.0000
63.3600 271.0000 1.0000
63.3700 279.0000 1.0000
63.3800 301.0000 1.0000
63.3900 288.0000 1.0000
63.4000 272.0000 1.0000
63.4100 264.0000 1.0000
63.4200 292.0000 1.0000
63.4300 275.0000 1.0000
63.4400 261.0000 1.0000
63.4500 265.0000 1.0000
63.4600 273.0000 1.0000
63.4700 316.0000 1.0000
63.4800 283.0000 1.0000
63.4900 286.0000 1.0000
63.5000 306.0000 1.0000
63.5100 272.0000 1.0000
63.5200 289.0000 1.0000
63.5300 268.0000 1.0000
63.5400 270.0000 1.0000
63.5500 273.0000 1.0000
63.5600 271.0000 1.0000
63.5700 275.0000 1.0000
63.5800 242.0000 1.0000
63.5900 280.0000 1.0000
63.6000 267.0000 1.0000
63.6100 271.0000 1.0000
63.6200 274.0000 1.0000
63.6300 273.0000 1.0000
63.6400 294.0000 1.0000
63.6500 256.0000 1.0000
63.6600 297.0000 1.0000
63.6700 276.0000 1.0000
63.6800 275.0000 1.0000
63.6900 267.0000 1.0000
63.7000 277.0000 1.0000
63.7100 271.0000 1.0000
63.7200 268.0000 1.0000
63.7300 255.0000 1.0000
63.7400 287.0000 1.0000
63.7500 293.0000 1.0000
63.7600 275.0000 1.0000
63.7700 271.0000 1.0000
63.7800 267.0000 1.0000
63.7900 270.0000 1.0000
63.8000 285.0000 1.0000
63.8100 292.0000 1.0000
63.8200 278.0000 1.0000
63.8300 275.0000 1.0000
63.8400 275.0000 1.0000
63.8500 297.0000 1.0000
63.8600 247.0000 1.0000
63.8700 268.0000 1.0000
63.8800 298.0000 1.0000
63.8900 264.0000 1.0000
63.9000 274.0000 1.0000
63.9100 297.0000 1.0000
63.9200 287.0000 1.0000
63.9300 279.0000 1.0000
63.9400 289.0000 1.0000
63.9500 302.0000 1.0000
63.9600 286.0000 1.0000
63.9700 302.0000 1.0000
63.9800 279.0000 1.0000
63.9900 268.0000 1.0000
64.0000 267.0000 1.0000
64.0100 258.0000 1.0000
64.0200 315.0000 1.0000
64.0300 281.0000 1.0000
64.0400 290.0000 1.0000
64.0500 306.0000 1.0000
64.0600 312.0000 1.0000
64.0700 282.0000 1.0000
64.0800 292.0000 1.0000
64.0900 284.0000 1.0000
64.1000 271.0000 1.0000
64.1100 297.0000 1.0000
64.1200 302.0000 1.0000
64.1300 288.0000 1.0000
64.1400 272.0000 1.0000
64.1500 253.0000 1.0000
64.1600 277.0000 1.0000
64.1700 290.0000 1.0000
64.1800 311.0000 1.0000
64.1900 300.0000 1.0000
64.2000 291.0000 1.0000
64.2100 262.0000 1.0000
64.2200 276.0000 1.0000
64.2300 241.0000 1.0000
64.2400 283.0000 1.0000
64.2500 269.0000 1.0000
64.2600 271.0000 1.0000
64.2700 274.0000 1.0000
64.2800 314.0000 1.0000
64.2900 284.0000 1.0000
64.3000 292.0000 1.0000
64.3100 286.0000 1.0000
64.3200 326.0000 1.0000
64.3300 304.0000 1.0000
64.3400 286.0000 1.0000
64.3500 282.0000 1.0000
64.3600 316.0000 1.0000
64.3700 302.0000 1.0000
64.3800 309.0000 1.0000
64.3900 280.0000 1.0000
64.4000 291.0000 1.0000
64.4100 299.0000 1.0000
64.4200 316.0000 1.0000
64.4300 337.0000 1.0000
64.4400 292.0000 1.0000
64.4500 297.0000 1.0000
64.4600 301.0000 1.0000
64.4700 302.0000 1.0000
64.4800 310.0000 1.0000
64.4900 308.0000 1.0000
64.5000 262.0000 1.0000
64.5100 301.0000 1.0000
64.5200 286.0000 1.0000
64.5300 308.0000 1.0000
64.5400 346.0000 1.0000
64.5500 303.0000 1.0000
64.5600 331.0000 1.0000
64.5700 332.0000 1.0000
64.5800 344.0000 1.0000
64.5900 321.0000 1.0000
64.6000 356.0000 1.0000
64.6100 350.0000 1.0000
64.6200 366.0000 1.0000
64.6300 361.0000 1.0000
64.6400 326.0000 1.0000
64.6500 349.0000 1.0000
64.6600 357.0000 1.0000
64.6700 376.0000 1.0000
64.6800 350.0000 1.0000
64.6900 342.0000 1.0000
64.7000 362.0000 1.0000
64.7100 382.0000 1.0000
64.7200 387.0000 1.0000
64.7300 358.0000 1.0000
64.7400 359.0000 1.0000
64.7500 377.0000 1.0000
64.7600 395.0000 1.0000
64.7700 366.0000 1.0000
64.7800 365.0000 1.0000
64.7900 363.0000 1.0000
64.8000 353.0000 1.0000
64.8100 330.0000 1.0000
64.8200 383.0000 1.0000
64.8300 379.0000 1.0000
64.8400 395.0000 1.0000
64.8500 329.0000 1.0000
64.8600 333.0000 1.0000
64.8700 351.0000 1.0000
64.8800 364.0000 1.0000
64.8900 349.0000 1.0000
64.9000 341.0000 1.0000
64.9100 350.0000 1.0000
64.9200 371.0000 1.0000
64.9300 333.0000 1.0000
64.9400 329.0000 1.0000
64.9500 320.0000 1.0000
64.9600 356.0000 1.0000
64.9700 362.0000 1.0000
64.9800 322.0000 1.0000
64.9900 314.0000 1.0000
65.0000 310.0000 1.0000
65.0100 293.0000 1.0000
65.0200 282.0000 1.0000
65.0300 311.0000 1.0000
65.0400 290.0000 1.0000
65.0500 328.0000 1.0000
65.0600 319.0000 1.0000
65.0700 346.0000 1.0000
65.0800 300.0000 1.0000
65.0900 305.0000 1.0000
65.1000 326.0000 1.0000
65.1100 298.0000 1.0000
65.1200 283.0000 1.0000
65.1300 319.0000 1.0000
65.1400 276.0000 1.0000
65.1500 302.0000 1.0000
65.1600 283.0000 1.0000
65.1700 308.0000 1.0000
65.1800 303.0000 1.0000
65.1900 287.0000 1.0000
65.2000 319.0000 1.0000
65.2100 311.0000 1.0000
65.2200 303.0000 1.0000
65.2300 313.0000 1.0000
65.2400 317.0000 1.0000
65.2500 281.0000 1.0000
65.2600 282.0000 1.0000
65.2700 321.0000 1.0000
65.2800 301.0000 1.0000
65.2900 269.0000 1.0000
65.3000 299.0000 1.0000
65.3100 302.0000 1.0000
65.3200 289.0000 1.0000
65.3300 282.0000 1.0000
65.3400 269.0000 1.0000
65.3500 279.0000 1.0000
65.3600 279.0000 1.0000
65.3700 296.0000 1.0000
65.3800 264.0000 1.0000
65.3900 289.0000 1.0000
65.4000 304.0000 1.0000
65.4100 282.0000 1.0000
65.4200 282.0000 1.0000
65.4300 280.0000 1.0000
65.4400 280.0000 1.0000
65.4500 297.0000 1.0000
65.4600 273.0000 1.0000
65.4700 295.0000 1.0000
65.4800 268.0000 1.0000
65.4900 279.0000 1.0000
65.5000 273.0000 1.0000
65.5100 303.0000 1.0000
65.5200 286.0000 1.0000
65.5300 294.0000 1.0000
65.5400 292.0000 1.0000
65.5500 286.0000 1.0000
65.5600 286.0000 1.0000
65.5700 266.0000 1.0000
65.5800 296.0000 1.0000
65.5900 338.0000 1.0000
65.6000 292.0000 1.0000
65.6100 325.0000 1.0000
65.6200 312.0000 1.0000
65.6300 314.0000 1.0000
65.6400 292.0000 1.0000
65.6500 300.0000 1.0000
65.6600 303.0000 1.0000
65.6700 293.0000 1.0000
65.6800 304.0000 1.0000
65.6900 293.0000 1.0000
65.7000 282.0000 1.0000
65.7100 296.0000 1.0000
65.7200 302.0000 1.0000
65.7300 313.0000 1.0000
65.7400 295.0000 1.0000
65.7500 302.0000 1.0000
65.7600 328.0000 1.0000
65.7700 305.0000 1.0000
65.7800 293.0000 1.0000
65.7900 289.0000 1.0000
65.8000 301.0000 1.0000
65.8100 293.0000 1.0000
65.8200 328.0000 1.0000
65.8300 304.0000 1.0000
65.8400 295.0000 1.0000
65.8500 312.0000 1.0000
65.8600 333.0000 1.0000
65.8700 325.0000 1.0000
65.8800 377.0000 1.0000
65.8900 378.0000 1.0000
65.9000 373.0000 1.0000
65.9100 352.0000 1.0000
65.9200 342.0000 1.0000
65.9300 350.0000 1.0000
65.9400 364.0000 1.0000
65.9500 348.0000 1.0000
65.9600 384.0000 1.0000
65.9700 385.0000 1.0000
65.9800 411.0000 1.0000
65.9900 390.0000 1.0000
66.0000 400.0000 1.0000
66.0100 394.0000 1.0000
66.0200 418.0000 1.0000
66.0300 422.0000 1.0000
66.0400 435.0000 1.0000
66.0500 450.0000 1.0000
66.0600 459.0000 1.0000
66.0700 466.0000 1.0000
66.0800 464.0000 1.0000
66.0900 565.0000 1.0000
66.1000 548.0000 1.0000
66.1100 563.0000 1.0000
66.1200 581.0000 1.0000
66.1300 621.0000 1.0000
66.1400 684.0000 1.0000
66.1500 678.0000 1.0000
66.1600 762.0000 1.0000
66.1700 771.0000 1.0000
66.1800 799.0000 1.0000
66.1900 823.0000 1.0000
66.2000 911.0000 1.0000
66.2100 945.0000 1.0000
66.2200 994.0000 1.0000
66.2300 1015.0000 1.0000
66.2400 1056.0000 1.0000
66.2500 1121.0000 1.0000
66.2600 1141.0000 1.0000
66.2700 1141.0000 1.0000
66.2800 1102.0000 1.0000
66.2900 1142.0000 1.0000
66.3000 1164.0000 1.0000
66.3100 1150.0000 1.0000
66.3200 1111.0000 1.0000
66.3300 1032.0000 1.0000
66.3400 982.0000 1.0000
66.3500 998.0000 1.0000
66.3600 1000.0000 1.0000
66.3700 1022.0000 1.0000
66.3800 995.0000 1.0000
66.3900 983.0000 1.0000
66.4000 935.0000 1.0000
66.4100 908.0000 1.0000
66.4200 920.0000 1.0000
66.4300 910.0000 1.0000
66.4400 898.0000 1.0000
66.4500 860.0000 1.0000
66.4600 868.0000 1.0000
66.4700 867.0000 1.0000
66.4800 839.0000 1.0000
66.4900 806.0000 1.0000
66.5000 743.0000 1.0000
66.5100 769.0000 1.0000
66.5200 710.0000 1.0000
66.5300 655.0000 1.0000
66.5400 619.0000 1.0000
66.5500 594.0000 1.0000
66.5600 594.0000 1.0000
66.5700 538.0000 1.0000
66.5800 555.0000 1.0000
66.5900 517.0000 1.0000
66.6000 484.0000 1.0000
66.6100 501.0000 1.0000
66.6200 471.0000 1.0000
66.6300 469.0000 1.0000
66.6400 444.0000 1.0000
66.6500 432.0000 1.0000
66.6600 428.0000 1.0000
66.6700 421.0000 1.0000
66.6800 404.0000 1.0000
66.6900 396.0000 1.0000
66.7000 383.0000 1.0000
66.7100 405.0000 1.0000
66.7200 388.0000 1.0000
66.7300 364.0000 1.0000
66.7400 381.0000 1.0000
66.7500 402.0000 1.0000
66.7600 379.0000 1.0000
66.7700 373.0000 1.0000
66.7800 327.0000 1.0000
66.7900 333.0000 1.0000
66.8000 323.0000 1.0000
66.8100 306.0000 1.0000
66.8200 326.0000 1.0000
66.8300 342.0000 1.0000
66.8400 317.0000 1.0000
66.8500 322.0000 1.0000
66.8600 291.0000 1.0000
66.8700 307.0000 1.0000
66.8800 295.0000 1.0000
66.8900 263.0000 1.0000
66.9000 303.0000 1.0000
66.9100 315.0000 1.0000
66.9200 280.0000 1.0000
66.9300 312.0000 1.0000
66.9400 293.0000 1.0000
66.9500 291.0000 1.0000
66.9600 310.0000 1.0000
66.9700 304.0000 1.0000
66.9800 308.0000 1.0000
66.9900 283.0000 1.0000
67.0000 303.0000 1.0000
67.0100 242.0000 1.0000
67.0200 284.0000 1.0000
67.0300 300.0000 1.0000
67.0400 276.0000 1.0000
67.0500 281.0000 1.0000
67.0600 293.0000 1.0000
67.0700 276.0000 1.0000
67.0800 288.0000 1.0000
67.0900 269.0000 1.0000
67.1000 274.0000 1.0000
67.1100 298.0000 1.0000
67.1200 263.0000 1.0000
67.1300 297.0000 1.0000
67.1400 268.0000 1.0000
67.1500 278.0000 1.0000
67.1600 253.0000 1.0000
67.1700 255.0000 1.0000
67.1800 253.0000 1.0000
67.1900 279.0000 1.0000
67.2000 270.0000 1.0000
67.2100 261.0000 1.0000
67.2200 269.0000 1.0000
67.2300 259.0000 1.0000
67.2400 272.0000 1.0000
67.2500 276.0000 1.0000
67.2600 270.0000 1.0000
67.2700 294.0000 1.0000
67.2800 275.0000 1.0000
67.2900 282.0000 1.0000
67.3000 264.0000 1.0000
67.3100 255.0000 1.0000
67.3200 250.0000 1.0000
67.3300 289.0000 1.0000
67.3400 250.0000 1.0000
67.3500 257.0000 1.0000
67.3600 268.0000 1.0000
67.3700 272.0000 1.0000
67.3800 269.0000 1.0000
67.3900 247.0000 1.0000
67.4000 267.0000 1.0000
67.4100 260.0000 1.0000
67.4200 293.0000 1.0000
67.4300 275.0000 1.0000
67.4400 233.0000 1.0000
67.4500 273.0000 1.0000
67.4600 276.0000 1.0000
67.4700 282.0000 1.0000
67.4800 267.0000 1.0000
67.4900 263.0000 1.0000
67.5000 263.0000 1.0000
67.5100 270.0000 1.0000
67.5200 280.0000 1.0000
67.5300 267.0000 1.0000
67.5400 256.0000 1.0000
67.5500 262.0000 1.0000
67.5600 278.0000 1.0000
67.5700 276.0000 1.0000
67.5800 263.0000 1.0000
67.5900 267.0000 1.0000
67.6000 274.0000 1.0000
67.6100 258.0000 1.0000
67.6200 244.0000 1.0000
67.6300 258.0000 1.0000
67.6400 273.0000 1.0000
67.6500 267.0000 1.0000
67.6600 246.0000 1.0000
67.6700 269.0000 1.0000
67.6800 275.0000 1.0000
67.6900 256.0000 1.0000
67.7000 249.0000 1.0000
67.7100 259.0000 1.0000
67.7200 240.0000 1.0000
67.7300 241.0000 1.0000
67.7400 248.0000 1.0000
67.7500 245.0000 1.0000
67.7600 265.0000 1.0000
67.7700 270.0000 1.0000
67.7800 245.0000 1.0000
67.7900 265.0000 1.0000
67.8000 262.0000 1.0000
67.8100 250.0000 1.0000
67.8200 249.0000 1.0000
67.8300 257.0000 1.0000
67.8400 255.0000 1.0000
67.8500 251.0000 1.0000
67.8600 256.0000 1.0000
67.8700 269.0000 1.0000
67.8800 252.0000 1.0000
67.8900 256.0000 1.0000
67.9000 249.0000 1.0000
67.9100 247.0000 1.0000
67.9200 249.0000 1.0000
67.9300 263.0000 1.0000
67.9400 266.0000 1.0000
67.9500 234.0000 1.0000
67.9600 244.0000 1.0000
67.9700 259.0000 1.0000
67.9800 265.0000 1.0000
67.9900 272.0000 1.0000
68.0000 242.0000 1.0000
68.0100 240.0000 1.0000
68.0200 255.0000 1.0000
68.0300 267.0000 1.0000
68.0400 264.0000 1.0000
68.0500 255.0000 1.0000
68.0600 258.0000 1.0000
68.0700 258.0000 1.0000
68.0800 264.0000 1.0000
68.0900 249.0000 1.0000
68.1000 260.0000 1.0000
68.1100 244.0000 1.0000
68.1200 242.0000 1.0000
68.1300 237.0000 1.0000
68.1400 248.0000 1.0000
68.1500 230.0000 1.0000
68.1600 250.0000 1.0000
68.1700 256.0000 1.0000
68.1800 251.0000 1.0000
68.1900 240.0000 1.0000
68.2000 245.0000 1.0000
68.2100 234.0000 1.0000
68.2200 240.0000 1.0000
68.2300 248.0000 1.0000
68.2400 240.0000 1.0000
68.2500 262.0000 1.0000
68.2600 229.0000 1.0000
68.2700 248.0000 1.0000
68.2800 230.0000 1.0000
68.2900 274.0000 1.0000
68.3000 258.0000 1.0000
68.3100 259.0000 1.0000
68.3200 201.0000 1.0000
68.3300 263.0000 1.0000
68.3400 248.0000 1.0000
68.3500 238.0000 1.0000
68.3600 253.0000 1.0000
68.3700 270.0000 1.0000
68.3800 262.0000 1.0000
68.3900 267.0000 1.0000
68.4000 266.0000 1.0000
68.4100 245.0000 1.0000
68.4200 245.0000 1.0000
68.4300 285.0000 1.0000
68.4400 263.0000 1.0000
68.4500 271.0000 1.0000
68.4600 262.0000 1.0000
68.4700 240.0000 1.0000
68.4800 251.0000 1.0000
68.4900 237.0000 1.0000
68.5000 247.0000 1.0000
68.5100 251.0000 1.0000
68.5200 245.0000 1.0000
68.5300 246.0000 1.0000
68.5400 246.0000 1.0000
68.5500 276.0000 1.0000
68.5600 248.0000 1.0000
68.5700 236.0000 1.0000
68.5800 228.0000 1.0000
68.5900 256.0000 1.0000
68.6000 260.0000 1.0000
68.6100 232.0000 1.0000
68.6200 235.0000 1.0000
68.6300 248.0000 1.0000
68.6400 258.0000 1.0000
68.6500 250.0000 1.0000
68.6600 243.0000 1.0000
68.6700 245.0000 1.0000
68.6800 241.0000 1.0000
68.6900 255.0000 1.0000
68.7000 253.0000 1.0000
68.7100 244.0000 1.0000
68.7200 230.0000 1.0000
68.7300 213.0000 1.0000
68.7400 221.0000 1.0000
68.7500 251.0000 1.0000
68.7600 233.0000 1.0000
68.7700 225.0000 1.0000
68.7800 243.0000 1.0000
68.7900 238.0000 1.0000
68.8000 253.0000 1.0000
68.8100 266.0000 1.0000
68.8200 237.0000 1.0000
68.8300 257.0000 1.0000
68.8400 267.0000 1.0000
68.8500 274.0000 1.0000
68.8600 263.0000 1.0000
68.8700 241.0000 1.0000
68.8800 263.0000 1.0000
68.8900 252.0000 1.0000
68.9000 269.0000 1.0000
68.9100 252.0000 1.0000
68.9200 216.0000 1.0000
68.9300 255.0000 1.0000
68.9400 250.0000 1.0000
68.9500 223.0000 1.0000
68.9600 232.0000 1.0000
68.9700 228.0000 1.0000
68.9800 230.0000 1.0000
68.9900 241.0000 1.0000
69.0000 247.0000 1.0000
69.0100 239.0000 1.0000
69.0200 256.0000 1.0000
69.0300 228.0000 1.0000
69.0400 249.0000 1.0000
69.0500 258.0000 1.0000
69.0600 238.0000 1.0000
69.0700 238.0000 1.0000
69.0800 250.0000 1.0000
69.0900 255.0000 1.0000
69.1000 251.0000 1.0000
69.1100 250.0000 1.0000
69.1200 234.0000 1.0000
69.1300 235.0000 1.0000
69.1400 231.0000 1.0000
69.1500 208.0000 1.0000
69.1600 233.0000 1.0000
69.1700 281.0000 1.0000
69.1800 235.0000 1.0000
69.1900 219.0000 1.0000
69.2000 247.0000 1.0000
69.2100 257.0000 1.0000
69.2200 255.0000 1.0000
69.2300 261.0000 1.0000
69.2400 252.0000 1.0000
69.2500 256.0000 1.0000
69.2600 224.0000 1.0000
69.2700 258.0000 1.0000
69.2800 239.0000 1.0000
69.2900 244.0000 1.0000
69.3000 235.0000 1.0000
69.3100 239.0000 1.0000
69.3200 252.0000 1.0000
69.3300 244.0000 1.0000
69.3400 248.0000 1.0000
69.3500 255.0000 1.0000
69.3600 251.0000 1.0000
69.3700 270.0000 1.0000
69.3800 231.0000 1.0000
69.3900 278.0000 1.0000
69.4000 240.0000 1.0000
69.4100 269.0000 1.0000
69.4200 247.0000 1.0000
69.4300 253.0000 1.0000
69.4400 235.0000 1.0000
69.4500 256.0000 1.0000
69.4600 258.0000 1.0000
69.4700 263.0000 1.0000
69.4800 248.0000 1.0000
69.4900 248.0000 1.0000
69.5000 230.0000 1.0000
69.5100 259.0000 1.0000
69.5200 256.0000 1.0000
69.5300 255.0000 1.0000
69.5400 255.0000 1.0000
69.5500 239.0000 1.0000
69.5600 241.0000 1.0000
69.5700 213.0000 1.0000
69.5800 247.0000 1.0000
69.5900 255.0000 1.0000
69.6000 258.0000 1.0000
69.6100 243.0000 1.0000
69.6200 240.0000 1.0000
69.6300 240.0000 1.0000
69.6400 255.0000 1.0000
69.6500 248.0000 1.0000
69.6600 245.0000 1.0000
69.6700 251.0000 1.0000
69.6800 237.0000 1.0000
69.6900 213.0000 1.0000
69.7000 253.0000 1.0000
69.7100 256.0000 1.0000
69.7200 268.0000 1.0000
69.7300 244.0000 1.0000
69.7400 242.0000 1.0000
69.7500 248.0000 1.0000
69.7600 228.0000 1.0000
69.7700 259.0000 1.0000
69.7800 270.0000 1.0000
69.7900 222.0000 1.0000
69.8000 226.0000 1.0000
69.8100 236.0000 1.0000
69.8200 236.0000 1.0000
69.8300 252.0000 1.0000
69.8400 248.0000 1.0000
69.8500 230.0000 1.0000
69.8600 232.0000 1.0000
69.8700 244.0000 1.0000
69.8800 246.0000 1.0000
69.8900 245.0000 1.0000
69.9000 225.0000 1.0000
69.9100 222.0000 1.0000
69.9200 245.0000 1.0000
69.9300 228.0000 1.0000
69.9400 267.0000 1.0000
69.9500 234.0000 1.0000
69.9600 246.0000 1.0000
69.9700 242.0000 1.0000
69.9800 224.0000 1.0000
69.9900 222.0000 1.0000
70.0000 229.0000 1.0000
*RAS_INT_END
*RAS_TEMPERATURE_START
*RAS_TEMPERATURE_END
*RAS_DATA_END
