*RAS_DATA_START
*RAS_HEADER_START
*DISP_FMT_X "%.2f"
*DISP_FMT_Y "%.0f"
*DISP_FULLSCALE "13826.0000000000"
*DISP_LINE_COLOR "255.0000000000"
*DISP_LINE_STYLE "0.0000000000"
*DISP_LINE_WIDTH "0.2500000000"
*DISP_NOTE "測定データ-3"
*DISP_OFFSET_Y "0.0000000000"
*DISP_PEAKSEARCH_UNIT_Y "cps"
*DISP_RANGE_BOTTOM "0.0000000000"
*DISP_RANGE_LEFT "20.0000000000"
*DISP_RANGE_LOGCUTOFF "0.0100000000"
*DISP_RANGE_RIGHT "70.0000000000"
*DISP_RANGE_TOP "13826.0000000000"
*DISP_SCALE_MODE_Y "0.0000000000"
*DISP_TAB_NAME "2θ/θ"
*DISP_TITLE_Y "強度"
*DISP_UNIT_Y "cps"
*DISP_WINDOW_NAME "MSG_MACROENGINE"
*FILE_COMMENT " "
*FILE_MD5 ""
*FILE_MEMO " "
*FILE_OPERATOR "Administrator"
*FILE_SAMPLE " "
*FILE_TYPE "RAS_RAW"
*FILE_USERGROUP "システムマネージャ"
*FILE_VERSION "1.0000000000"
*HW_ATTACHMENT_ID "ATT0025"
*HW_ATTACHMENT_NAME "標準|Standard"
*HW_COUNTER_ID-0 "CUT0025"
*HW_COUNTER_ID-1 "CUT0020"
*HW_COUNTER_ID-2 "CUT0020"
*HW_COUNTER_ID-3 "CSL0021"
*HW_COUNTER_ID-4 "CMC0021"
*HW_COUNTER_NAME-0 "D/teX Ultra|D/teX Ultra"
*HW_COUNTER_NAME-1 "None|None"
*HW_COUNTER_NAME-2 "None|None"
*HW_COUNTER_NAME-3 "BBM|BBM"
*HW_COUNTER_NAME-4 "検出器モノクロメータ|Detector monochromator"
*HW_COUNTER_SELECT_NAME "D/teX Ultra|D/teX Ultra"
*HW_GONIOMETER_ID "GON0023"
*HW_GONIOMETER_NAME "SmartLab|SmartLab"
*HW_GONIOMETER_RADIUS-0 "90.0"
*HW_GONIOMETER_RADIUS-1 "114.0"
*HW_GONIOMETER_RADIUS-2 "190.0"
*HW_GONIOMETER_RADIUS-3 "300.0"
*HW_GONIOMETER_RADIUS-4 "187.0"
*HW_GONIOMETER_RADIUS-5 "300.0"
*HW_GONIOMETER_RADIUS-6 "113.0"
*HW_GONIOMETER_RADIUS-7 "331.0"
*HW_I_OPT_ID-0 "CBO0021"
*HW_I_OPT_ID-1 "ICR0023"
*HW_I_OPT_ID-2 "ISL0021"
*HW_I_OPT_ID-3 "ISO0021"
*HW_I_OPT_ID-4 "IAD0021"
*HW_I_OPT_ID-5 "IPR0001"
*HW_I_OPT_NAME-0 "CBOユニット|CBO unit"
*HW_I_OPT_NAME-1 "標準入射光学ユニット|Standard incident optical unit"
*HW_I_OPT_NAME-2 "標準入射スリットボックス|Standard incident slit box"
*HW_I_OPT_NAME-3 "入射平行スリット|Incident parallel slit"
*HW_I_OPT_NAME-4 "長手制限スリット|Length limiting slit"
*HW_I_OPT_NAME-5 "None|None"
*HW_R_ATTENUATER_AUTOMODE "0"
*HW_R_OPT_ID-0 "RSS0021"
*HW_R_OPT_ID-1 "RCR0023"
*HW_R_OPT_ID-2 "RSO0021"
*HW_R_OPT_ID-3 "RRS0021"
*HW_R_OPT_ID-4 "ATN0021"
*HW_R_OPT_ID-5 "RFL0021"
*HW_R_OPT_ID-6 "RAD0021"
*HW_R_OPT_NAME-0 "標準受光スリットボックス1|Standard receiving slit box # 1"
*HW_R_OPT_NAME-1 "標準受光光学ユニット1|Standard receiving unit # 1"
*HW_R_OPT_NAME-2 "標準受光光学ユニット2|Standard receiving optical unit # 2"
*HW_R_OPT_NAME-3 "標準受光スリットボックス2|Standard receiving slit box # 2"
*HW_R_OPT_NAME-4 "標準アッテネータ|Standard Attenuator"
*HW_R_OPT_NAME-5 "Cu Kβ|Cu K-beta"
*HW_R_OPT_NAME-6 "調整用受光スリット|Alignment receiving slit"
*HW_SAMPLE_HOLDER_ID "SMP0023"
*HW_SAMPLE_HOLDER_NAME "標準Zステージ|Standard Z stage"
*HW_XG_CURRENT_MAX "50"
*HW_XG_CURRENT_MIN "2"
*HW_XG_CURRENT_RESOLUTION "1"
*HW_XG_CURRENT_UNIT "mA"
*HW_XG_FOCUS "1mm x 10mm"
*HW_XG_FOCUS_TYPE "Normal"
*HW_XG_ID ""
*HW_XG_NAME "3kW 封入管(ID:1200)|3kW Sealed tube(ID:1200)"
*HW_XG_TARGET_ATOMIC_NUMBER "29.0000000000"
*HW_XG_TARGET_NAME "Cu"
*HW_XG_TYPE "Hermetic"
*HW_XG_VOLTAGE_MAX "60"
*HW_XG_VOLTAGE_MIN "20"
*HW_XG_VOLTAGE_RESOLUTION "1"
*HW_XG_VOLTAGE_UNIT "kV"
*HW_XG_WATT_MAX "1.500"
*HW_XG_WATT_UNIT "kW"
*HW_XG_WAVE_LENGTH_ALPHA1 "1.540593"
*HW_XG_WAVE_LENGTH_ALPHA2 "1.544414"
*HW_XG_WAVE_LENGTH_BETA "1.392250"
*MEAS_COND_AXIS_NAME-0 "2θ/θ"
*MEAS_COND_AXIS_NAME-1 "2θ"
*MEAS_COND_AXIS_NAME-2 "ω"
*MEAS_COND_AXIS_NAME-3 "Z"
*MEAS_COND_AXIS_NAME-4 "2θ/ω"
*MEAS_COND_AXIS_NAME-5 "θs"
*MEAS_COND_AXIS_NAME-6 "θd"
*MEAS_COND_AXIS_NAME-7 "Ts"
*MEAS_COND_AXIS_NAME-8 "CBO選択スリット"
*MEAS_COND_AXIS_NAME-9 "M"
*MEAS_COND_AXIS_NAME-10 "入射平行スリット"
*MEAS_COND_AXIS_NAME-11 "入射スリット"
*MEAS_COND_AXIS_NAME-12 ""
*MEAS_COND_AXIS_NAME-13 "Zs"
*MEAS_COND_AXIS_NAME-14 "入射光学素子"
*MEAS_COND_AXIS_NAME-15 "長手制限スリット"
*MEAS_COND_AXIS_NAME-16 "センタースリット"
*MEAS_COND_AXIS_NAME-17 "フィルター"
*MEAS_COND_AXIS_NAME-18 "受光スリット1"
*MEAS_COND_AXIS_NAME-19 "受光スリット2"
*MEAS_COND_AXIS_NAME-20 "受光光学素子"
*MEAS_COND_AXIS_NAME-21 "受光平行スリット"
*MEAS_COND_AXIS_NAME-22 "調整用受光スリット"
*MEAS_COND_AXIS_NAME-23 ""
*MEAS_COND_AXIS_NAME-24 ""
*MEAS_COND_AXIS_NAME-25 "Zd"
*MEAS_COND_AXIS_NAME-26 "アッテネータ"
*MEAS_COND_AXIS_NAME-27 "検出器モノクロメータ"
*MEAS_COND_AXIS_NAME-28 "モノクロメータスリット"
*MEAS_COND_AXIS_NAME-29 "プライマリビーム"
*MEAS_COND_AXIS_NAME-30 "PHA"
*MEAS_COND_AXIS_NAME_INTERNAL-0 "TwoThetaTheta"
*MEAS_COND_AXIS_NAME_INTERNAL-1 "TwoTheta"
*MEAS_COND_AXIS_NAME_INTERNAL-2 "Omega"
*MEAS_COND_AXIS_NAME_INTERNAL-3 "Z"
*MEAS_COND_AXIS_NAME_INTERNAL-4 "TwoThetaOmega"
*MEAS_COND_AXIS_NAME_INTERNAL-5 "ThetaS"
*MEAS_COND_AXIS_NAME_INTERNAL-6 "ThetaD"
*MEAS_COND_AXIS_NAME_INTERNAL-7 "Ts"
*MEAS_COND_AXIS_NAME_INTERNAL-8 "CBO"
*MEAS_COND_AXIS_NAME_INTERNAL-9 "CBO-M"
*MEAS_COND_AXIS_NAME_INTERNAL-10 "IncidentSollerSlit"
*MEAS_COND_AXIS_NAME_INTERNAL-11 "IncidentSlitBox"
*MEAS_COND_AXIS_NAME_INTERNAL-12 "IncidentSlitBox-_Axis"
*MEAS_COND_AXIS_NAME_INTERNAL-13 "Zs"
*MEAS_COND_AXIS_NAME_INTERNAL-14 "IncidentMonochromator"
*MEAS_COND_AXIS_NAME_INTERNAL-15 "IncidentAxdSlit"
*MEAS_COND_AXIS_NAME_INTERNAL-16 "CenterSlit"
*MEAS_COND_AXIS_NAME_INTERNAL-17 "Filter"
*MEAS_COND_AXIS_NAME_INTERNAL-18 "ReceivingSlitBox1"
*MEAS_COND_AXIS_NAME_INTERNAL-19 "ReceivingSlitBox2"
*MEAS_COND_AXIS_NAME_INTERNAL-20 "ReceivingOptics"
*MEAS_COND_AXIS_NAME_INTERNAL-21 "ReceivingSollerSlit"
*MEAS_COND_AXIS_NAME_INTERNAL-22 "ReceivingAxdSlit"
*MEAS_COND_AXIS_NAME_INTERNAL-23 "ReceivingSlitBox1-_Axis"
*MEAS_COND_AXIS_NAME_INTERNAL-24 "ReceivingSlitBox2-_Axis"
*MEAS_COND_AXIS_NAME_INTERNAL-25 "ReceivingSlitBox2-Zd"
*MEAS_COND_AXIS_NAME_INTERNAL-26 "Attenuator"
*MEAS_COND_AXIS_NAME_INTERNAL-27 "CounterMonochromator"
*MEAS_COND_AXIS_NAME_INTERNAL-28 "CounterSlit"
*MEAS_COND_AXIS_NAME_INTERNAL-29 "IncidentPrimary"
*MEAS_COND_AXIS_NAME_INTERNAL-30 "PHA"
*MEAS_COND_AXIS_NAME_MAGICNO-0 "83951616.0000000000"
*MEAS_COND_AXIS_NAME_MAGICNO-1 "268632064.0000000000"
*MEAS_COND_AXIS_NAME_MAGICNO-2 "268500992.0000000000"
*MEAS_COND_AXIS_NAME_MAGICNO-3 "285278208.0000000000"
*MEAS_COND_AXIS_NAME_MAGICNO-4 "83951616.0000000000"
*MEAS_COND_AXIS_NAME_MAGICNO-5 "131072.0000000000"
*MEAS_COND_AXIS_NAME_MAGICNO-6 "131072.0000000000"
*MEAS_COND_AXIS_NAME_MAGICNO-7 "318898176.0000000000"
*MEAS_COND_AXIS_NAME_MAGICNO-8 "20971521.0000000000"
*MEAS_COND_AXIS_NAME_MAGICNO-9 "285343744.0000000000"
*MEAS_COND_AXIS_NAME_MAGICNO-10 "20971521.0000000000"
*MEAS_COND_AXIS_NAME_MAGICNO-11 "22020097.0000000000"
*MEAS_COND_AXIS_NAME_MAGICNO-12 "25165824.0000000000"
*MEAS_COND_AXIS_NAME_MAGICNO-13 "318898176.0000000000"
*MEAS_COND_AXIS_NAME_MAGICNO-14 "1.0000000000"
*MEAS_COND_AXIS_NAME_MAGICNO-15 "20971521.0000000000"
*MEAS_COND_AXIS_NAME_MAGICNO-16 "20971521.0000000000"
*MEAS_COND_AXIS_NAME_MAGICNO-17 "20971521.0000000000"
*MEAS_COND_AXIS_NAME_MAGICNO-18 "23068673.0000000000"
*MEAS_COND_AXIS_NAME_MAGICNO-19 "23068673.0000000000"
*MEAS_COND_AXIS_NAME_MAGICNO-20 "20971521.0000000000"
*MEAS_COND_AXIS_NAME_MAGICNO-21 "20971521.0000000000"
*MEAS_COND_AXIS_NAME_MAGICNO-22 "20971521.0000000000"
*MEAS_COND_AXIS_NAME_MAGICNO-23 "25165824.0000000000"
*MEAS_COND_AXIS_NAME_MAGICNO-24 "25165824.0000000000"
*MEAS_COND_AXIS_NAME_MAGICNO-25 "285343744.0000000000"
*MEAS_COND_AXIS_NAME_MAGICNO-26 "17301505.0000000000"
*MEAS_COND_AXIS_NAME_MAGICNO-27 "20971521.0000000000"
*MEAS_COND_AXIS_NAME_MAGICNO-28 "20971521.0000000000"
*MEAS_COND_AXIS_NAME_MAGICNO-29 "20971521.0000000000"
*MEAS_COND_AXIS_NAME_MAGICNO-30 "0.0000000000"
*MEAS_COND_AXIS_OFFSET-0 "-"
*MEAS_COND_AXIS_OFFSET-1 "-0.1081000000"
*MEAS_COND_AXIS_OFFSET-2 "0.3758000000"
*MEAS_COND_AXIS_OFFSET-3 "-"
*MEAS_COND_AXIS_OFFSET-4 "-"
*MEAS_COND_AXIS_OFFSET-5 "0.3758000000"
*MEAS_COND_AXIS_OFFSET-6 "-0.4839000000"
*MEAS_COND_AXIS_OFFSET-7 "-"
*MEAS_COND_AXIS_OFFSET-8 "-"
*MEAS_COND_AXIS_OFFSET-9 "-"
*MEAS_COND_AXIS_OFFSET-10 "-"
*MEAS_COND_AXIS_OFFSET-11 "-"
*MEAS_COND_AXIS_OFFSET-12 "-"
*MEAS_COND_AXIS_OFFSET-13 "-"
*MEAS_COND_AXIS_OFFSET-14 "-"
*MEAS_COND_AXIS_OFFSET-15 "-"
*MEAS_COND_AXIS_OFFSET-16 "-"
*MEAS_COND_AXIS_OFFSET-17 "-"
*MEAS_COND_AXIS_OFFSET-18 "-"
*MEAS_COND_AXIS_OFFSET-19 "-"
*MEAS_COND_AXIS_OFFSET-20 "-"
*MEAS_COND_AXIS_OFFSET-21 "-"
*MEAS_COND_AXIS_OFFSET-22 "-"
*MEAS_COND_AXIS_OFFSET-23 "-"
*MEAS_COND_AXIS_OFFSET-24 "-"
*MEAS_COND_AXIS_OFFSET-25 "-"
*MEAS_COND_AXIS_OFFSET-26 "-"
*MEAS_COND_AXIS_OFFSET-27 "-"
*MEAS_COND_AXIS_OFFSET-28 "-"
*MEAS_COND_AXIS_OFFSET-29 "-"
*MEAS_COND_AXIS_OFFSET-30 "-"
*MEAS_COND_AXIS_POSITION-0 "0.0000000000"
*MEAS_COND_AXIS_POSITION-1 "0.0000000000"
*MEAS_COND_AXIS_POSITION-2 "0.0000000000"
*MEAS_COND_AXIS_POSITION-3 "-0.5500000000"
*MEAS_COND_AXIS_POSITION-4 "0.0000000000"
*MEAS_COND_AXIS_POSITION-5 "0.0000000000"
*MEAS_COND_AXIS_POSITION-6 "0.0000000000"
*MEAS_COND_AXIS_POSITION-7 "-0.4278800000"
*MEAS_COND_AXIS_POSITION-8 "BB"
*MEAS_COND_AXIS_POSITION-9 "0.0000000000"
*MEAS_COND_AXIS_POSITION-10 "Soller_slit_5.0deg"
*MEAS_COND_AXIS_POSITION-11 "2/3deg"
*MEAS_COND_AXIS_POSITION-12 "2.2088000000"
*MEAS_COND_AXIS_POSITION-13 "-0.4140600000"
*MEAS_COND_AXIS_POSITION-14 "0.0000000000"
*MEAS_COND_AXIS_POSITION-15 "10.0mm"
*MEAS_COND_AXIS_POSITION-16 "None"
*MEAS_COND_AXIS_POSITION-17 "Cu_K-beta"
*MEAS_COND_AXIS_POSITION-18 "13.000mm"
*MEAS_COND_AXIS_POSITION-19 "13.000mm"
*MEAS_COND_AXIS_POSITION-20 "No_unit"
*MEAS_COND_AXIS_POSITION-21 "Soller_slit_5.0deg"
*MEAS_COND_AXIS_POSITION-22 "None"
*MEAS_COND_AXIS_POSITION-23 "13.0000000000"
*MEAS_COND_AXIS_POSITION-24 "13.0000000000"
*MEAS_COND_AXIS_POSITION-25 "0.0109400000"
*MEAS_COND_AXIS_POSITION-26 "Open"
*MEAS_COND_AXIS_POSITION-27 "None"
*MEAS_COND_AXIS_POSITION-28 "None"
*MEAS_COND_AXIS_POSITION-29 "None"
*MEAS_COND_AXIS_POSITION-30 "38.0000000000"
*MEAS_COND_AXIS_UNIT-0 "deg"
*MEAS_COND_AXIS_UNIT-1 "deg"
*MEAS_COND_AXIS_UNIT-2 "deg"
*MEAS_COND_AXIS_UNIT-3 "mm"
*MEAS_COND_AXIS_UNIT-4 "deg"
*MEAS_COND_AXIS_UNIT-5 "deg"
*MEAS_COND_AXIS_UNIT-6 "deg"
*MEAS_COND_AXIS_UNIT-7 "mm"
*MEAS_COND_AXIS_UNIT-8 ""
*MEAS_COND_AXIS_UNIT-9 "pulse"
*MEAS_COND_AXIS_UNIT-10 ""
*MEAS_COND_AXIS_UNIT-11 ""
*MEAS_COND_AXIS_UNIT-12 "mm"
*MEAS_COND_AXIS_UNIT-13 "mm"
*MEAS_COND_AXIS_UNIT-14 ""
*MEAS_COND_AXIS_UNIT-15 ""
*MEAS_COND_AXIS_UNIT-16 ""
*MEAS_COND_AXIS_UNIT-17 ""
*MEAS_COND_AXIS_UNIT-18 ""
*MEAS_COND_AXIS_UNIT-19 ""
*MEAS_COND_AXIS_UNIT-20 ""
*MEAS_COND_AXIS_UNIT-21 ""
*MEAS_COND_AXIS_UNIT-22 ""
*MEAS_COND_AXIS_UNIT-23 "mm"
*MEAS_COND_AXIS_UNIT-24 "mm"
*MEAS_COND_AXIS_UNIT-25 "mm"
*MEAS_COND_AXIS_UNIT-26 ""
*MEAS_COND_AXIS_UNIT-27 ""
*MEAS_COND_AXIS_UNIT-28 ""
*MEAS_COND_AXIS_UNIT-29 ""
*MEAS_COND_AXIS_UNIT-30 "div"
*MEAS_COND_COUNTER_CNTLOSS_CORR "0.0000000000"
*MEAS_COND_COUNTER_PHABASE "38.0000000000"
*MEAS_COND_COUNTER_PHAWINDOW "16.0000000000"
*MEAS_COND_COUNTER_PHA_UNIT "div"
*MEAS_COND_COUNTER_TAUDIFF "30.0000000000"
*MEAS_COND_COUNTER_TAUINT "0.0000000000"
*MEAS_COND_IRRADIATION_MODE "OFF"
*MEAS_COND_IRRADIATION_WIDTH ""
*MEAS_COND_OPT_ATTR "集中法"
*MEAS_COND_OPT_NAME "@集中法"
*MEAS_COND_UNSYMMETRIC_MODE "OFF"
*MEAS_COND_XG_CURRENT "30.0000000000"
*MEAS_COND_XG_VOLTAGE "40.0000000000"
*MEAS_COND_XG_WAVE_TYPE "Ka"
*MEAS_DATA_COUNT "5001.0000000000"
*MEAS_SCAN_AXIS_X "2θ/θ"
*MEAS_SCAN_AXIS_X_INTERNAL "TwoThetaTheta"
*MEAS_SCAN_END_TIME "07/08/21 13:41:13"
*MEAS_SCAN_MODE "CONTINUOUS"
*MEAS_SCAN_MONITOR "0"
*MEAS_SCAN_RESOLUTION_X "0.0002"
*MEAS_SCAN_SPEED "1.0"
*MEAS_SCAN_SPEED_UNIT "deg/min"
*MEAS_SCAN_START "20.0000000000"
*MEAS_SCAN_START_TIME "07/08/21 12:48:19"
*MEAS_SCAN_STEP "0.0100000000"
*MEAS_SCAN_STOP "70.0000000000"
*MEAS_SCAN_UNIT_X "deg"
*MEAS_SCAN_UNIT_Y "counts"
*RAS_HEADER_END
*RAS_INT_START
20.0000 1471.0000 1.0000
20.0100 1622.0000 1.0000
20.0200 1618.0000 1.0000
20.0300 1649.0000 1.0000
20.0400 1579.0000 1.0000
20.0500 1643.0000 1.0000
20.0600 1572.0000 1.0000
20.0700 1570.0000 1.0000
20.0800 1598.0000 1.0000
20.0900 1615.0000 1.0000
20.1000 1638.0000 1.0000
20.1100 1582.0000 1.0000
20.1200 1652.0000 1.0000
20.1300 1610.0000 1.0000
20.1400 1595.0000 1.0000
20.1500 1523.0000 1.0000
20.1600 1636.0000 1.0000
20.1700 1651.0000 1.0000
20.1800 1588.0000 1.0000
20.1900 1560.0000 1.0000
20.2000 1603.0000 1.0000
20.2100 1605.0000 1.0000
20.2200 1653.0000 1.0000
20.2300 1611.0000 1.0000
20.2400 1570.0000 1.0000
20.2500 1561.0000 1.0000
20.2600 1573.0000 1.0000
20.2700 1588.0000 1.0000
20.2800 1624.0000 1.0000
20.2900 1606.0000 1.0000
20.3000 1646.0000 1.0000
20.3100 1614.0000 1.0000
20.3200 1629.0000 1.0000
20.3300 1598.0000 1.0000
20.3400 1618.0000 1.0000
20.3500 1627.0000 1.0000
20.3600 1647.0000 1.0000
20.3700 1683.0000 1.0000
20.3800 1570.0000 1.0000
20.3900 1637.0000 1.0000
20.4000 1546.0000 1.0000
20.4100 1596.0000 1.0000
20.4200 1684.0000 1.0000
20.4300 1623.0000 1.0000
20.4400 1592.0000 1.0000
20.4500 1584.0000 1.0000
20.4600 1651.0000 1.0000
20.4700 1649.0000 1.0000
20.4800 1625.0000 1.0000
20.4900 1673.0000 1.0000
20.5000 1761.0000 1.0000
20.5100 1625.0000 1.0000
20.5200 1652.0000 1.0000
20.5300 1611.0000 1.0000
20.5400 1579.0000 1.0000
20.5500 1635.0000 1.0000
20.5600 1585.0000 1.0000
20.5700 1571.0000 1.0000
20.5800 1667.0000 1.0000
20.5900 1622.0000 1.0000
20.6000 1618.0000 1.0000
20.6100 1630.0000 1.0000
20.6200 1554.0000 1.0000
20.6300 1638.0000 1.0000
20.6400 1708.0000 1.0000
20.6500 1605.0000 1.0000
20.6600 1606.0000 1.0000
20.6700 1642.0000 1.0000
20.6800 1587.0000 1.0000
20.6900 1636.0000 1.0000
20.7000 1618.0000 1.0000
20.7100 1599.0000 1.0000
20.7200 1659.0000 1.0000
20.7300 1615.0000 1.0000
20.7400 1584.0000 1.0000
20.7500 1554.0000 1.0000
20.7600 1579.0000 1.0000
20.7700 1588.0000 1.0000
20.7800 1542.0000 1.0000
20.7900 1588.0000 1.0000
20.8000 1598.0000 1.0000
20.8100 1667.0000 1.0000
20.8200 1628.0000 1.0000
20.8300 1653.0000 1.0000
20.8400 1599.0000 1.0000
20.8500 1632.0000 1.0000
20.8600 1569.0000 1.0000
20.8700 1602.0000 1.0000
20.8800 1657.0000 1.0000
20.8900 1608.0000 1.0000
20.9000 1632.0000 1.0000
20.9100 1672.0000 1.0000
20.9200 1638.0000 1.0000
20.9300 1560.0000 1.0000
20.9400 1555.0000 1.0000
20.9500 1611.0000 1.0000
20.9600 1584.0000 1.0000
20.9700 1612.0000 1.0000
20.9800 1609.0000 1.0000
20.9900 1592.0000 1.0000
21.0000 1629.0000 1.0000
21.0100 1582.0000 1.0000
21.0200 1606.0000 1.0000
21.0300 1618.0000 1.0000
21.0400 1687.0000 1.0000
21.0500 1625.0000 1.0000
21.0600 1664.0000 1.0000
21.0700 1610.0000 1.0000
21.0800 1586.0000 1.0000
21.0900 1623.0000 1.0000
21.1000 1618.0000 1.0000
21.1100 1685.0000 1.0000
21.1200 1601.0000 1.0000
21.1300 1655.0000 1.0000
21.1400 1614.0000 1.0000
21.1500 1627.0000 1.0000
21.1600 1659.0000 1.0000
21.1700 1653.0000 1.0000
21.1800 1586.0000 1.0000
21.1900 1624.0000 1.0000
21.2000 1624.0000 1.0000
21.2100 1654.0000 1.0000
21.2200 1596.0000 1.0000
21.2300 1589.0000 1.0000
21.2400 1683.0000 1.0000
21.2500 1648.0000 1.0000
21.2600 1625.0000 1.0000
21.2700 1638.0000 1.0000
21.2800 1604.0000 1.0000
21.2900 1619.0000 1.0000
21.3000 1638.0000 1.0000
21.3100 1572.0000 1.0000
21.3200 1658.0000 1.0000
21.3300 1585.0000 1.0000
21.3400 1635.0000 1.0000
21.3500 1605.0000 1.0000
21.3600 1607.0000 1.0000
21.3700 1612.0000 1.0000
21.3800 1605.0000 1.0000
21.3900 1623.0000 1.0000
21.4000 1658.0000 1.0000
21.4100 1636.0000 1.0000
21.4200 1560.0000 1.0000
21.4300 1651.0000 1.0000
21.4400 1627.0000 1.0000
21.4500 1666.0000 1.0000
21.4600 1621.0000 1.0000
21.4700 1639.0000 1.0000
21.4800 1548.0000 1.0000
21.4900 1554.0000 1.0000
21.5000 1589.0000 1.0000
21.5100 1689.0000 1.0000
21.5200 1596.0000 1.0000
21.5300 1631.0000 1.0000
21.5400 1615.0000 1.0000
21.5500 1650.0000 1.0000
21.5600 1627.0000 1.0000
21.5700 1684.0000 1.0000
21.5800 1655.0000 1.0000
21.5900 1598.0000 1.0000
21.6000 1626.0000 1.0000
21.6100 1554.0000 1.0000
21.6200 1594.0000 1.0000
21.6300 1553.0000 1.0000
21.6400 1602.0000 1.0000
21.6500 1657.0000 1.0000
21.6600 1601.0000 1.0000
21.6700 1559.0000 1.0000
21.6800 1603.0000 1.0000
21.6900 1619.0000 1.0000
21.7000 1611.0000 1.0000
21.7100 1553.0000 1.0000
21.7200 1622.0000 1.0000
21.7300 1598.0000 1.0000
21.7400 1602.0000 1.0000
21.7500 1618.0000 1.0000
21.7600 1628.0000 1.0000
21.7700 1660.0000 1.0000
21.7800 1643.0000 1.0000
21.7900 1660.0000 1.0000
21.8000 1594.0000 1.0000
21.8100 1624.0000 1.0000
21.8200 1661.0000 1.0000
21.8300 1615.0000 1.0000
21.8400 1597.0000 1.0000
21.8500 1631.0000 1.0000
21.8600 1716.0000 1.0000
21.8700 1615.0000 1.0000
21.8800 1629.0000 1.0000
21.8900 1658.0000 1.0000
21.9000 1615.0000 1.0000
21.9100 1592.0000 1.0000
21.9200 1631.0000 1.0000
21.9300 1673.0000 1.0000
21.9400 1648.0000 1.0000
21.9500 1576.0000 1.0000
21.9600 1611.0000 1.0000
21.9700 1621.0000 1.0000
21.9800 1624.0000 1.0000
21.9900 1692.0000 1.0000
22.0000 1699.0000 1.0000
22.0100 1717.0000 1.0000
22.0200 1668.0000 1.0000
22.0300 1688.0000 1.0000
22.0400 1696.0000 1.0000
22.0500 1584.0000 1.0000
22.0600 1587.0000 1.0000
22.0700 1663.0000 1.0000
22.0800 1604.0000 1.0000
22.0900 1605.0000 1.0000
22.1000 1654.0000 1.0000
22.1100 1688.0000 1.0000
22.1200 1653.0000 1.0000
22.1300 1635.0000 1.0000
22.1400 1652.0000 1.0000
22.1500 1665.0000 1.0000
22.1600 1638.0000 1.0000
22.1700 1711.0000 1.0000
22.1800 1690.0000 1.0000
22.1900 1605.0000 1.0000
22.2000 1666.0000 1.0000
22.2100 1623.0000 1.0000
22.2200 1630.0000 1.0000
22.2300 1633.0000 1.0000
22.2400 1724.0000 1.0000
22.2500 1634.0000 1.0000
22.2600 1625.0000 1.0000
22.2700 1624.0000 1.0000
22.2800 1638.0000 1.0000
22.2900 1608.0000 1.0000
22.3000 1544.0000 1.0000
22.3100 1666.0000 1.0000
22.3200 1669.0000 1.0000
22.3300 1654.0000 1.0000
22.3400 1622.0000 1.0000
22.3500 1657.0000 1.0000
22.3600 1634.0000 1.0000
22.3700 1627.0000 1.0000
22.3800 1666.0000 1.0000
22.3900 1666.0000 1.0000
22.4000 1678.0000 1.0000
22.4100 1665.0000 1.0000
22.4200 1594.0000 1.0000
22.4300 1609.0000 1.0000
22.4400 1644.0000 1.0000
22.4500 1678.0000 1.0000
22.4600 1646.0000 1.0000
22.4700 1707.0000 1.0000
22.4800 1637.0000 1.0000
22.4900 1688.0000 1.0000
22.5000 1638.0000 1.0000
22.5100 1637.0000 1.0000
22.5200 1633.0000 1.0000
22.5300 1627.0000 1.0000
22.5400 1586.0000 1.0000
22.5500 1599.0000 1.0000
22.5600 1642.0000 1.0000
22.5700 1565.0000 1.0000
22.5800 1561.0000 1.0000
22.5900 1577.0000 1.0000
22.6000 1634.0000 1.0000
22.6100 1594.0000 1.0000
22.6200 1654.0000 1.0000
22.6300 1609.0000 1.0000
22.6400 1671.0000 1.0000
22.6500 1641.0000 1.0000
22.6600 1602.0000 1.0000
22.6700 1642.0000 1.0000
22.6800 1658.0000 1.0000
22.6900 1635.0000 1.0000
22.7000 1622.0000 1.0000
22.7100 1671.0000 1.0000
22.7200 1689.0000 1.0000
22.7300 1662.0000 1.0000
22.7400 1744.0000 1.0000
22.7500 1713.0000 1.0000
22.7600 1632.0000 1.0000
22.7700 1644.0000 1.0000
22.7800 1657.0000 1.0000
22.7900 1682.0000 1.0000
22.8000 1617.0000 1.0000
22.8100 1651.0000 1.0000
22.8200 1638.0000 1.0000
22.8300 1676.0000 1.0000
22.8400 1688.0000 1.0000
22.8500 1692.0000 1.0000
22.8600 1666.0000 1.0000
22.8700 1655.0000 1.0000
22.8800 1684.0000 1.0000
22.8900 1744.0000 1.0000
22.9000 1745.0000 1.0000
22.9100 1680.0000 1.0000
22.9200 1611.0000 1.0000
22.9300 1718.0000 1.0000
22.9400 1719.0000 1.0000
22.9500 1682.0000 1.0000
22.9600 1662.0000 1.0000
22.9700 1635.0000 1.0000
22.9800 1646.0000 1.0000
22.9900 1656.0000 1.0000
23.0000 1664.0000 1.0000
23.0100 1645.0000 1.0000
23.0200 1672.0000 1.0000
23.0300 1636.0000 1.0000
23.0400 1652.0000 1.0000
23.0500 1630.0000 1.0000
23.0600 1633.0000 1.0000
23.0700 1618.0000 1.0000
23.0800 1602.0000 1.0000
23.0900 1638.0000 1.0000
23.1000 1628.0000 1.0000
23.1100 1684.0000 1.0000
23.1200 1636.0000 1.0000
23.1300 1714.0000 1.0000
23.1400 1659.0000 1.0000
23.1500 1645.0000 1.0000
23.1600 1680.0000 1.0000
23.1700 1703.0000 1.0000
23.1800 1685.0000 1.0000
23.1900 1712.0000 1.0000
23.2000 1749.0000 1.0000
23.2100 1689.0000 1.0000
23.2200 1615.0000 1.0000
23.2300 1612.0000 1.0000
23.2400 1671.0000 1.0000
23.2500 1638.0000 1.0000
23.2600 1686.0000 1.0000
23.2700 1617.0000 1.0000
23.2800 1710.0000 1.0000
23.2900 1653.0000 1.0000
23.3000 1668.0000 1.0000
23.3100 1728.0000 1.0000
23.3200 1708.0000 1.0000
23.3300 1623.0000 1.0000
23.3400 1679.0000 1.0000
23.3500 1639.0000 1.0000
23.3600 1650.0000 1.0000
23.3700 1704.0000 1.0000
23.3800 1717.0000 1.0000
23.3900 1672.0000 1.0000
23.4000 1639.0000 1.0000
23.4100 1705.0000 1.0000
23.4200 1647.0000 1.0000
23.4300 1663.0000 1.0000
23.4400 1703.0000 1.0000
23.4500 1654.0000 1.0000
23.4600 1645.0000 1.0000
23.4700 1662.0000 1.0000
23.4800 1664.0000 1.0000
23.4900 1682.0000 1.0000
23.5000 1602.0000 1.0000
23.5100 1658.0000 1.0000
23.5200 1664.0000 1.0000
23.5300 1661.0000 1.0000
23.5400 1674.0000 1.0000
23.5500 1673.0000 1.0000
23.5600 1606.0000 1.0000
23.5700 1635.0000 1.0000
23.5800 1634.0000 1.0000
23.5900 1766.0000 1.0000
23.6000 1651.0000 1.0000
23.6100 1680.0000 1.0000
23.6200 1714.0000 1.0000
23.6300 1704.0000 1.0000
23.6400 1629.0000 1.0000
23.6500 1651.0000 1.0000
23.6600 1672.0000 1.0000
23.6700 1774.0000 1.0000
23.6800 1738.0000 1.0000
23.6900 1686.0000 1.0000
23.7000 1717.0000 1.0000
23.7100 1694.0000 1.0000
23.7200 1732.0000 1.0000
23.7300 1713.0000 1.0000
23.7400 1626.0000 1.0000
23.7500 1680.0000 1.0000
23.7600 1731.0000 1.0000
23.7700 1651.0000 1.0000
23.7800 1746.0000 1.0000
23.7900 1640.0000 1.0000
23.8000 1700.0000 1.0000
23.8100 1670.0000 1.0000
23.8200 1742.0000 1.0000
23.8300 1667.0000 1.0000
23.8400 1676.0000 1.0000
23.8500 1654.0000 1.0000
23.8600 1722.0000 1.0000
23.8700 1699.0000 1.0000
23.8800 1633.0000 1.0000
23.8900 1662.0000 1.0000
23.9000 1694.0000 1.0000
23.9100 1708.0000 1.0000
23.9200 1693.0000 1.0000
23.9300 1631.0000 1.0000
23.9400 1648.0000 1.0000
23.9500 1701.0000 1.0000
23.9600 1713.0000 1.0000
23.9700 1658.0000 1.0000
23.9800 1730.0000 1.0000
23.9900 1688.0000 1.0000
24.0000 1702.0000 1.0000
24.0100 1702.0000 1.0000
24.0200 1731.0000 1.0000
24.0300 1712.0000 1.0000
24.0400 1775.0000 1.0000
24.0500 1698.0000 1.0000
24.0600 1734.0000 1.0000
24.0700 1707.0000 1.0000
24.0800 1700.0000 1.0000
24.0900 1699.0000 1.0000
24.1000 1670.0000 1.0000
24.1100 1638.0000 1.0000
24.1200 1681.0000 1.0000
24.1300 1656.0000 1.0000
24.1400 1709.0000 1.0000
24.1500 1670.0000 1.0000
24.1600 1661.0000 1.0000
24.1700 1694.0000 1.0000
24.1800 1658.0000 1.0000
24.1900 1671.0000 1.0000
24.2000 1670.0000 1.0000
24.2100 1765.0000 1.0000
24.2200 1672.0000 1.0000
24.2300 1702.0000 1.0000
24.2400 1694.0000 1.0000
24.2500 1713.0000 1.0000
24.2600 1716.0000 1.0000
24.2700 1650.0000 1.0000
24.2800 1634.0000 1.0000
24.2900 1661.0000 1.0000
24.3000 1715.0000 1.0000
24.3100 1670.0000 1.0000
24.3200 1723.0000 1.0000
24.3300 1666.0000 1.0000
24.3400 1729.0000 1.0000
24.3500 1678.0000 1.0000
24.3600 1638.0000 1.0000
24.3700 1647.0000 1.0000
24.3800 1696.0000 1.0000
24.3900 1707.0000 1.0000
24.4000 1653.0000 1.0000
24.4100 1689.0000 1.0000
24.4200 1748.0000 1.0000
24.4300 1673.0000 1.0000
24.4400 1705.0000 1.0000
24.4500 1678.0000 1.0000
24.4600 1706.0000 1.0000
24.4700 1667.0000 1.0000
24.4800 1742.0000 1.0000
24.4900 1763.0000 1.0000
24.5000 1713.0000 1.0000
24.5100 1678.0000 1.0000
24.5200 1734.0000 1.0000
24.5300 1723.0000 1.0000
24.5400 1700.0000 1.0000
24.5500 1775.0000 1.0000
24.5600 1734.0000 1.0000
24.5700 1672.0000 1.0000
24.5800 1702.0000 1.0000
24.5900 1735.0000 1.0000
24.6000 1695.0000 1.0000
24.6100 1671.0000 1.0000
24.6200 1736.0000 1.0000
24.6300 1718.0000 1.0000
24.6400 1780.0000 1.0000
24.6500 1722.0000 1.0000
24.6600 1753.0000 1.0000
24.6700 1744.0000 1.0000
24.6800 1694.0000 1.0000
24.6900 1726.0000 1.0000
24.7000 1751.0000 1.0000
24.7100 1792.0000 1.0000
24.7200 1747.0000 1.0000
24.7300 1752.0000 1.0000
24.7400 1673.0000 1.0000
24.7500 1796.0000 1.0000
24.7600 1815.0000 1.0000
24.7700 1682.0000 1.0000
24.7800 1694.0000 1.0000
24.7900 1762.0000 1.0000
24.8000 1681.0000 1.0000
24.8100 1798.0000 1.0000
24.8200 1728.0000 1.0000
24.8300 1701.0000 1.0000
24.8400 1746.0000 1.0000
24.8500 1772.0000 1.0000
24.8600 1751.0000 1.0000
24.8700 1763.0000 1.0000
24.8800 1755.0000 1.0000
24.8900 1847.0000 1.0000
24.9000 1820.0000 1.0000
24.9100 1869.0000 1.0000
24.9200 1863.0000 1.0000
24.9300 1803.0000 1.0000
24.9400 1838.0000 1.0000
24.9500 1852.0000 1.0000
24.9600 1828.0000 1.0000
24.9700 1900.0000 1.0000
24.9800 1793.0000 1.0000
24.9900 1794.0000 1.0000
25.0000 1744.0000 1.0000
25.0100 1814.0000 1.0000
25.0200 1793.0000 1.0000
25.0300 1802.0000 1.0000
25.0400 1831.0000 1.0000
25.0500 1864.0000 1.0000
25.0600 1810.0000 1.0000
25.0700 1786.0000 1.0000
25.0800 1763.0000 1.0000
25.0900 1720.0000 1.0000
25.1000 1730.0000 1.0000
25.1100 1801.0000 1.0000
25.1200 1777.0000 1.0000
25.1300 1701.0000 1.0000
25.1400 1796.0000 1.0000
25.1500 1766.0000 1.0000
25.1600 1721.0000 1.0000
25.1700 1751.0000 1.0000
25.1800 1686.0000 1.0000
25.1900 1724.0000 1.0000
25.2000 1761.0000 1.0000
25.2100 1747.0000 1.0000
25.2200 1794.0000 1.0000
25.2300 1751.0000 1.0000
25.2400 1753.0000 1.0000
25.2500 1775.0000 1.0000
25.2600 1805.0000 1.0000
25.2700 1794.0000 1.0000
25.2800 1729.0000 1.0000
25.2900 1807.0000 1.0000
25.3000 1753.0000 1.0000
25.3100 1730.0000 1.0000
25.3200 1743.0000 1.0000
25.3300 1697.0000 1.0000
25.3400 1713.0000 1.0000
25.3500 1734.0000 1.0000
25.3600 1714.0000 1.0000
25.3700 1656.0000 1.0000
25.3800 1672.0000 1.0000
25.3900 1781.0000 1.0000
25.4000 1690.0000 1.0000
25.4100 1692.0000 1.0000
25.4200 1729.0000 1.0000
25.4300 1705.0000 1.0000
25.4400 1701.0000 1.0000
25.4500 1745.0000 1.0000
25.4600 1714.0000 1.0000
25.4700 1725.0000 1.0000
25.4800 1749.0000 1.0000
25.4900 1742.0000 1.0000
25.5000 1686.0000 1.0000
25.5100 1755.0000 1.0000
25.5200 1772.0000 1.0000
25.5300 1716.0000 1.0000
25.5400 1736.0000 1.0000
25.5500 1726.0000 1.0000
25.5600 1680.0000 1.0000
25.5700 1753.0000 1.0000
25.5800 1682.0000 1.0000
25.5900 1716.0000 1.0000
25.6000 1775.0000 1.0000
25.6100 1743.0000 1.0000
25.6200 1709.0000 1.0000
25.6300 1706.0000 1.0000
25.6400 1718.0000 1.0000
25.6500 1729.0000 1.0000
25.6600 1750.0000 1.0000
25.6700 1770.0000 1.0000
25.6800 1702.0000 1.0000
25.6900 1706.0000 1.0000
25.7000 1726.0000 1.0000
25.7100 1691.0000 1.0000
25.7200 1758.0000 1.0000
25.7300 1769.0000 1.0000
25.7400 1785.0000 1.0000
25.7500 1703.0000 1.0000
25.7600 1716.0000 1.0000
25.7700 1829.0000 1.0000
25.7800 1735.0000 1.0000
25.7900 1718.0000 1.0000
25.8000 1721.0000 1.0000
25.8100 1702.0000 1.0000
25.8200 1777.0000 1.0000
25.8300 1765.0000 1.0000
25.8400 1694.0000 1.0000
25.8500 1715.0000 1.0000
25.8600 1703.0000 1.0000
25.8700 1756.0000 1.0000
25.8800 1738.0000 1.0000
25.8900 1714.0000 1.0000
25.9000 1778.0000 1.0000
25.9100 1803.0000 1.0000
25.9200 1797.0000 1.0000
25.9300 1770.0000 1.0000
25.9400 1763.0000 1.0000
25.9500 1737.0000 1.0000
25.9600 1768.0000 1.0000
25.9700 1717.0000 1.0000
25.9800 1712.0000 1.0000
25.9900 1676.0000 1.0000
26.0000 1717.0000 1.0000
26.0100 1755.0000 1.0000
26.0200 1660.0000 1.0000
26.0300 1752.0000 1.0000
26.0400 1670.0000 1.0000
26.0500 1745.0000 1.0000
26.0600 1755.0000 1.0000
26.0700 1782.0000 1.0000
26.0800 1810.0000 1.0000
26.0900 1845.0000 1.0000
26.1000 1792.0000 1.0000
26.1100 1717.0000 1.0000
26.1200 1723.0000 1.0000
26.1300 1750.0000 1.0000
26.1400 1734.0000 1.0000
26.1500 1680.0000 1.0000
26.1600 1758.0000 1.0000
26.1700 1752.0000 1.0000
26.1800 1739.0000 1.0000
26.1900 1735.0000 1.0000
26.2000 1731.0000 1.0000
26.2100 1688.0000 1.0000
26.2200 1755.0000 1.0000
26.2300 1766.0000 1.0000
26.2400 1742.0000 1.0000
26.2500 1739.0000 1.0000
26.2600 1714.0000 1.0000
26.2700 1741.0000 1.0000
26.2800 1792.0000 1.0000
26.2900 1787.0000 1.0000
26.3000 1755.0000 1.0000
26.3100 1757.0000 1.0000
26.3200 1734.0000 1.0000
26.3300 1694.0000 1.0000
26.3400 1812.0000 1.0000
26.3500 1832.0000 1.0000
26.3600 1779.0000 1.0000
26.3700 1748.0000 1.0000
26.3800 1744.0000 1.0000
26.3900 1762.0000 1.0000
26.4000 1773.0000 1.0000
26.4100 1804.0000 1.0000
26.4200 1802.0000 1.0000
26.4300 1771.0000 1.0000
26.4400 1740.0000 1.0000
26.4500 1755.0000 1.0000
26.4600 1823.0000 1.0000
26.4700 1792.0000 1.0000
26.4800 1770.0000 1.0000
26.4900 1832.0000 1.0000
26.5000 1800.0000 1.0000
26.5100 1814.0000 1.0000
26.5200 1837.0000 1.0000
26.5300 1922.0000 1.0000
26.5400 1809.0000 1.0000
26.5500 1801.0000 1.0000
26.5600 1883.0000 1.0000
26.5700 1815.0000 1.0000
26.5800 1828.0000 1.0000
26.5900 1839.0000 1.0000
26.6000 1874.0000 1.0000
26.6100 1881.0000 1.0000
26.6200 1810.0000 1.0000
26.6300 1919.0000 1.0000
26.6400 1844.0000 1.0000
26.6500 1844.0000 1.0000
26.6600 1823.0000 1.0000
26.6700 1879.0000 1.0000
26.6800 1899.0000 1.0000
26.6900 1836.0000 1.0000
26.7000 1867.0000 1.0000
26.7100 1888.0000 1.0000
26.7200 1870.0000 1.0000
26.7300 1871.0000 1.0000
26.7400 1907.0000 1.0000
26.7500 1897.0000 1.0000
26.7600 1849.0000 1.0000
26.7700 1886.0000 1.0000
26.7800 1897.0000 1.0000
26.7900 1919.0000 1.0000
26.8000 1901.0000 1.0000
26.8100 1934.0000 1.0000
26.8200 1933.0000 1.0000
26.8300 1973.0000 1.0000
26.8400 2007.0000 1.0000
26.8500 2020.0000 1.0000
26.8600 2016.0000 1.0000
26.8700 1980.0000 1.0000
26.8800 2088.0000 1.0000
26.8900 2026.0000 1.0000
26.9000 2107.0000 1.0000
26.9100 2042.0000 1.0000
26.9200 2129.0000 1.0000
26.9300 2045.0000 1.0000
26.9400 2141.0000 1.0000
26.9500 2193.0000 1.0000
26.9600 2216.0000 1.0000
26.9700 2151.0000 1.0000
26.9800 2205.0000 1.0000
26.9900 2262.0000 1.0000
27.0000 2282.0000 1.0000
27.0100 2319.0000 1.0000
27.0200 2462.0000 1.0000
27.0300 2540.0000 1.0000
27.0400 2514.0000 1.0000
27.0500 2602.0000 1.0000
27.0600 2613.0000 1.0000
27.0700 2745.0000 1.0000
27.0800 2884.0000 1.0000
27.0900 2917.0000 1.0000
27.1000 2911.0000 1.0000
27.1100 3090.0000 1.0000
27.1200 3187.0000 1.0000
27.1300 3327.0000 1.0000
27.1400 3455.0000 1.0000
27.1500 3630.0000 1.0000
27.1600 3693.0000 1.0000
27.1700 3964.0000 1.0000
27.1800 4174.0000 1.0000
27.1900 4432.0000 1.0000
27.2000 4668.0000 1.0000
27.2100 4866.0000 1.0000
27.2200 5150.0000 1.0000
27.2300 5402.0000 1.0000
27.2400 5819.0000 1.0000
27.2500 6095.0000 1.0000
27.2600 6194.0000 1.0000
27.2700 6261.0000 1.0000
27.2800 6557.0000 1.0000
27.2900 6838.0000 1.0000
27.3000 6913.0000 1.0000
27.3100 6868.0000 1.0000
27.3200 6841.0000 1.0000
27.3300 6591.0000 1.0000
27.3400 6573.0000 1.0000
27.3500 6430.0000 1.0000
27.3600 6166.0000 1.0000
27.3700 5921.0000 1.0000
27.3800 5682.0000 1.0000
27.3900 5448.0000 1.0000
27.4000 5220.0000 1.0000
27.4100 4870.0000 1.0000
27.4200 4640.0000 1.0000
27.4300 4366.0000 1.0000
27.4400 4004.0000 1.0000
27.4500 3879.0000 1.0000
27.4600 3687.0000 1.0000
27.4700 3524.0000 1.0000
27.4800 3344.0000 1.0000
27.4900 3267.0000 1.0000
27.5000 3102.0000 1.0000
27.5100 3009.0000 1.0000
27.5200 2950.0000 1.0000
27.5300 2834.0000 1.0000
27.5400 2808.0000 1.0000
27.5500 2717.0000 1.0000
27.5600 2619.0000 1.0000
27.5700 2537.0000 1.0000
27.5800 2460.0000 1.0000
27.5900 2421.0000 1.0000
27.6000 2336.0000 1.0000
27.6100 2339.0000 1.0000
27.6200 2243.0000 1.0000
27.6300 2347.0000 1.0000
27.6400 2273.0000 1.0000
27.6500 2194.0000 1.0000
27.6600 2203.0000 1.0000
27.6700 2093.0000 1.0000
27.6800 2052.0000 1.0000
27.6900 2078.0000 1.0000
27.7000 2187.0000 1.0000
27.7100 2042.0000 1.0000
27.7200 2070.0000 1.0000
27.7300 1987.0000 1.0000
27.7400 2009.0000 1.0000
27.7500 2049.0000 1.0000
27.7600 1979.0000 1.0000
27.7700 2006.0000 1.0000
27.7800 1965.0000 1.0000
27.7900 1996.0000 1.0000
27.8000 1934.0000 1.0000
27.8100 1966.0000 1.0000
27.8200 1893.0000 1.0000
27.8300 1864.0000 1.0000
27.8400 1892.0000 1.0000
27.8500 1927.0000 1.0000
27.8600 1867.0000 1.0000
27.8700 1865.0000 1.0000
27.8800 1884.0000 1.0000
27.8900 1863.0000 1.0000
27.9000 1890.0000 1.0000
27.9100 1880.0000 1.0000
27.9200 1798.0000 1.0000
27.9300 1845.0000 1.0000
27.9400 1885.0000 1.0000
27.9500 1865.0000 1.0000
27.9600 1783.0000 1.0000
27.9700 1782.0000 1.0000
27.9800 1804.0000 1.0000
27.9900 1714.0000 1.0000
28.0000 1722.0000 1.0000
28.0100 1770.0000 1.0000
28.0200 1879.0000 1.0000
28.0300 1776.0000 1.0000
28.0400 1768.0000 1.0000
28.0500 1729.0000 1.0000
28.0600 1733.0000 1.0000
28.0700 1840.0000 1.0000
28.0800 1777.0000 1.0000
28.0900 1819.0000 1.0000
28.1000 1809.0000 1.0000
28.1100 1755.0000 1.0000
28.1200 1718.0000 1.0000
28.1300 1732.0000 1.0000
28.1400 1758.0000 1.0000
28.1500 1745.0000 1.0000
28.1600 1731.0000 1.0000
28.1700 1700.0000 1.0000
28.1800 1734.0000 1.0000
28.1900 1767.0000 1.0000
28.2000 1764.0000 1.0000
28.2100 1689.0000 1.0000
28.2200 1692.0000 1.0000
28.2300 1705.0000 1.0000
28.2400 1747.0000 1.0000
28.2500 1709.0000 1.0000
28.2600 1622.0000 1.0000
28.2700 1652.0000 1.0000
28.2800 1739.0000 1.0000
28.2900 1717.0000 1.0000
28.3000 1690.0000 1.0000
28.3100 1715.0000 1.0000
28.3200 1683.0000 1.0000
28.3300 1659.0000 1.0000
28.3400 1726.0000 1.0000
28.3500 1704.0000 1.0000
28.3600 1700.0000 1.0000
28.3700 1687.0000 1.0000
28.3800 1705.0000 1.0000
28.3900 1695.0000 1.0000
28.4000 1609.0000 1.0000
28.4100 1701.0000 1.0000
28.4200 1668.0000 1.0000
28.4300 1646.0000 1.0000
28.4400 1711.0000 1.0000
28.4500 1639.0000 1.0000
28.4600 1678.0000 1.0000
28.4700 1690.0000 1.0000
28.4800 1659.0000 1.0000
28.4900 1713.0000 1.0000
28.5000 1599.0000 1.0000
28.5100 1686.0000 1.0000
28.5200 1616.0000 1.0000
28.5300 1684.0000 1.0000
28.5400 1682.0000 1.0000
28.5500 1647.0000 1.0000
28.5600 1636.0000 1.0000
28.5700 1662.0000 1.0000
28.5800 1655.0000 1.0000
28.5900 1658.0000 1.0000
28.6000 1624.0000 1.0000
28.6100 1673.0000 1.0000
28.6200 1700.0000 1.0000
28.6300 1652.0000 1.0000
28.6400 1675.0000 1.0000
28.6500 1677.0000 1.0000
28.6600 1655.0000 1.0000
28.6700 1640.0000 1.0000
28.6800 1658.0000 1.0000
28.6900 1642.0000 1.0000
28.7000 1680.0000 1.0000
28.7100 1565.0000 1.0000
28.7200 1666.0000 1.0000
28.7300 1645.0000 1.0000
28.7400 1641.0000 1.0000
28.7500 1684.0000 1.0000
28.7600 1628.0000 1.0000
28.7700 1677.0000 1.0000
28.7800 1660.0000 1.0000
28.7900 1664.0000 1.0000
28.8000 1631.0000 1.0000
28.8100 1653.0000 1.0000
28.8200 1628.0000 1.0000
28.8300 1648.0000 1.0000
28.8400 1596.0000 1.0000
28.8500 1630.0000 1.0000
28.8600 1671.0000 1.0000
28.8700 1659.0000 1.0000
28.8800 1648.0000 1.0000
28.8900 1610.0000 1.0000
28.9000 1626.0000 1.0000
28.9100 1675.0000 1.0000
28.9200 1652.0000 1.0000
28.9300 1662.0000 1.0000
28.9400 1643.0000 1.0000
28.9500 1641.0000 1.0000
28.9600 1646.0000 1.0000
28.9700 1639.0000 1.0000
28.9800 1652.0000 1.0000
28.9900 1647.0000 1.0000
29.0000 1604.0000 1.0000
29.0100 1689.0000 1.0000
29.0200 1637.0000 1.0000
29.0300 1663.0000 1.0000
29.0400 1643.0000 1.0000
29.0500 1625.0000 1.0000
29.0600 1511.0000 1.0000
29.0700 1617.0000 1.0000
29.0800 1615.0000 1.0000
29.0900 1626.0000 1.0000
29.1000 1583.0000 1.0000
29.1100 1642.0000 1.0000
29.1200 1607.0000 1.0000
29.1300 1563.0000 1.0000
29.1400 1647.0000 1.0000
29.1500 1614.0000 1.0000
29.1600 1620.0000 1.0000
29.1700 1651.0000 1.0000
29.1800 1591.0000 1.0000
29.1900 1599.0000 1.0000
29.2000 1587.0000 1.0000
29.2100 1587.0000 1.0000
29.2200 1577.0000 1.0000
29.2300 1654.0000 1.0000
29.2400 1605.0000 1.0000
29.2500 1581.0000 1.0000
29.2600 1631.0000 1.0000
29.2700 1660.0000 1.0000
29.2800 1594.0000 1.0000
29.2900 1582.0000 1.0000
29.3000 1517.0000 1.0000
29.3100 1550.0000 1.0000
29.3200 1581.0000 1.0000
29.3300 1601.0000 1.0000
29.3400 1577.0000 1.0000
29.3500 1628.0000 1.0000
29.3600 1603.0000 1.0000
29.3700 1617.0000 1.0000
29.3800 1603.0000 1.0000
29.3900 1620.0000 1.0000
29.4000 1542.0000 1.0000
29.4100 1627.0000 1.0000
29.4200 1588.0000 1.0000
29.4300 1542.0000 1.0000
29.4400 1516.0000 1.0000
29.4500 1578.0000 1.0000
29.4600 1638.0000 1.0000
29.4700 1627.0000 1.0000
29.4800 1590.0000 1.0000
29.4900 1641.0000 1.0000
29.5000 1601.0000 1.0000
29.5100 1538.0000 1.0000
29.5200 1541.0000 1.0000
29.5300 1568.0000 1.0000
29.5400 1556.0000 1.0000
29.5500 1546.0000 1.0000
29.5600 1541.0000 1.0000
29.5700 1536.0000 1.0000
29.5800 1572.0000 1.0000
29.5900 1577.0000 1.0000
29.6000 1575.0000 1.0000
29.6100 1562.0000 1.0000
29.6200 1607.0000 1.0000
29.6300 1600.0000 1.0000
29.6400 1565.0000 1.0000
29.6500 1634.0000 1.0000
29.6600 1560.0000 1.0000
29.6700 1563.0000 1.0000
29.6800 1500.0000 1.0000
29.6900 1596.0000 1.0000
29.7000 1590.0000 1.0000
29.7100 1565.0000 1.0000
29.7200 1537.0000 1.0000
29.7300 1589.0000 1.0000
29.7400 1524.0000 1.0000
29.7500 1546.0000 1.0000
29.7600 1530.0000 1.0000
29.7700 1558.0000 1.0000
29.7800 1586.0000 1.0000
29.7900 1621.0000 1.0000
29.8000 1615.0000 1.0000
29.8100 1606.0000 1.0000
29.8200 1536.0000 1.0000
29.8300 1548.0000 1.0000
29.8400 1576.0000 1.0000
29.8500 1572.0000 1.0000
29.8600 1599.0000 1.0000
29.8700 1565.0000 1.0000
29.8800 1563.0000 1.0000
29.8900 1509.0000 1.0000
29.9000 1554.0000 1.0000
29.9100 1522.0000 1.0000
29.9200 1546.0000 1.0000
29.9300 1610.0000 1.0000
29.9400 1560.0000 1.0000
29.9500 1569.0000 1.0000
29.9600 1642.0000 1.0000
29.9700 1575.0000 1.0000
29.9800 1610.0000 1.0000
29.9900 1539.0000 1.0000
30.0000 1507.0000 1.0000
30.0100 1541.0000 1.0000
30.0200 1563.0000 1.0000
30.0300 1627.0000 1.0000
30.0400 1563.0000 1.0000
30.0500 1596.0000 1.0000
30.0600 1488.0000 1.0000
30.0700 1544.0000 1.0000
30.0800 1513.0000 1.0000
30.0900 1602.0000 1.0000
30.1000 1601.0000 1.0000
30.1100 1566.0000 1.0000
30.1200 1577.0000 1.0000
30.1300 1533.0000 1.0000
30.1400 1538.0000 1.0000
30.1500 1550.0000 1.0000
30.1600 1554.0000 1.0000
30.1700 1587.0000 1.0000
30.1800 1561.0000 1.0000
30.1900 1509.0000 1.0000
30.2000 1555.0000 1.0000
30.2100 1587.0000 1.0000
30.2200 1542.0000 1.0000
30.2300 1520.0000 1.0000
30.2400 1548.0000 1.0000
30.2500 1596.0000 1.0000
30.2600 1520.0000 1.0000
30.2700 1504.0000 1.0000
30.2800 1552.0000 1.0000
30.2900 1568.0000 1.0000
30.3000 1546.0000 1.0000
30.3100 1480.0000 1.0000
30.3200 1549.0000 1.0000
30.3300 1525.0000 1.0000
30.3400 1595.0000 1.0000
30.3500 1549.0000 1.0000
30.3600 1464.0000 1.0000
30.3700 1570.0000 1.0000
30.3800 1430.0000 1.0000
30.3900 1496.0000 1.0000
30.4000 1499.0000 1.0000
30.4100 1544.0000 1.0000
30.4200 1573.0000 1.0000
30.4300 1540.0000 1.0000
30.4400 1538.0000 1.0000
30.4500 1499.0000 1.0000
30.4600 1547.0000 1.0000
30.4700 1525.0000 1.0000
30.4800 1478.0000 1.0000
30.4900 1449.0000 1.0000
30.5000 1501.0000 1.0000
30.5100 1423.0000 1.0000
30.5200 1560.0000 1.0000
30.5300 1516.0000 1.0000
30.5400 1538.0000 1.0000
30.5500 1518.0000 1.0000
30.5600 1474.0000 1.0000
30.5700 1509.0000 1.0000
30.5800 1524.0000 1.0000
30.5900 1486.0000 1.0000
30.6000 1475.0000 1.0000
30.6100 1489.0000 1.0000
30.6200 1476.0000 1.0000
30.6300 1547.0000 1.0000
30.6400 1485.0000 1.0000
30.6500 1484.0000 1.0000
30.6600 1525.0000 1.0000
30.6700 1591.0000 1.0000
30.6800 1501.0000 1.0000
30.6900 1505.0000 1.0000
30.7000 1506.0000 1.0000
30.7100 1520.0000 1.0000
30.7200 1495.0000 1.0000
30.7300 1485.0000 1.0000
30.7400 1497.0000 1.0000
30.7500 1493.0000 1.0000
30.7600 1507.0000 1.0000
30.7700 1478.0000 1.0000
30.7800 1541.0000 1.0000
30.7900 1526.0000 1.0000
30.8000 1471.0000 1.0000
30.8100 1516.0000 1.0000
30.8200 1480.0000 1.0000
30.8300 1498.0000 1.0000
30.8400 1513.0000 1.0000
30.8500 1443.0000 1.0000
30.8600 1506.0000 1.0000
30.8700 1520.0000 1.0000
30.8800 1506.0000 1.0000
30.8900 1496.0000 1.0000
30.9000 1487.0000 1.0000
30.9100 1514.0000 1.0000
30.9200 1561.0000 1.0000
30.9300 1486.0000 1.0000
30.9400 1514.0000 1.0000
30.9500 1470.0000 1.0000
30.9600 1477.0000 1.0000
30.9700 1467.0000 1.0000
30.9800 1517.0000 1.0000
30.9900 1453.0000 1.0000
31.0000 1433.0000 1.0000
31.0100 1522.0000 1.0000
31.0200 1542.0000 1.0000
31.0300 1536.0000 1.0000
31.0400 1478.0000 1.0000
31.0500 1505.0000 1.0000
31.0600 1532.0000 1.0000
31.0700 1548.0000 1.0000
31.0800 1551.0000 1.0000
31.0900 1556.0000 1.0000
31.1000 1537.0000 1.0000
31.1100 1496.0000 1.0000
31.1200 1476.0000 1.0000
31.1300 1467.0000 1.0000
31.1400 1460.0000 1.0000
31.1500 1420.0000 1.0000
31.1600 1548.0000 1.0000
31.1700 1516.0000 1.0000
31.1800 1507.0000 1.0000
31.1900 1487.0000 1.0000
31.2000 1505.0000 1.0000
31.2100 1508.0000 1.0000
31.2200 1485.0000 1.0000
31.2300 1503.0000 1.0000
31.2400 1476.0000 1.0000
31.2500 1468.0000 1.0000
31.2600 1436.0000 1.0000
31.2700 1494.0000 1.0000
31.2800 1494.0000 1.0000
31.2900 1449.0000 1.0000
31.3000 1518.0000 1.0000
31.3100 1481.0000 1.0000
31.3200 1506.0000 1.0000
31.3300 1562.0000 1.0000
31.3400 1460.0000 1.0000
31.3500 1476.0000 1.0000
31.3600 1403.0000 1.0000
31.3700 1456.0000 1.0000
31.3800 1474.0000 1.0000
31.3900 1479.0000 1.0000
31.4000 1478.0000 1.0000
31.4100 1456.0000 1.0000
31.4200 1430.0000 1.0000
31.4300 1436.0000 1.0000
31.4400 1484.0000 1.0000
31.4500 1488.0000 1.0000
31.4600 1513.0000 1.0000
31.4700 1431.0000 1.0000
31.4800 1457.0000 1.0000
31.4900 1476.0000 1.0000
31.5000 1450.0000 1.0000
31.5100 1474.0000 1.0000
31.5200 1450.0000 1.0000
31.5300 1493.0000 1.0000
31.5400 1472.0000 1.0000
31.5500 1452.0000 1.0000
31.5600 1473.0000 1.0000
31.5700 1489.0000 1.0000
31.5800 1490.0000 1.0000
31.5900 1427.0000 1.0000
31.6000 1445.0000 1.0000
31.6100 1508.0000 1.0000
31.6200 1437.0000 1.0000
31.6300 1482.0000 1.0000
31.6400 1413.0000 1.0000
31.6500 1471.0000 1.0000
31.6600 1431.0000 1.0000
31.6700 1438.0000 1.0000
31.6800 1414.0000 1.0000
31.6900 1413.0000 1.0000
31.7000 1459.0000 1.0000
31.7100 1447.0000 1.0000
31.7200 1453.0000 1.0000
31.7300 1469.0000 1.0000
31.7400 1436.0000 1.0000
31.7500 1434.0000 1.0000
31.7600 1448.0000 1.0000
31.7700 1418.0000 1.0000
31.7800 1398.0000 1.0000
31.7900 1448.0000 1.0000
31.8000 1468.0000 1.0000
31.8100 1459.0000 1.0000
31.8200 1402.0000 1.0000
31.8300 1421.0000 1.0000
31.8400 1475.0000 1.0000
31.8500 1513.0000 1.0000
31.8600 1506.0000 1.0000
31.8700 1525.0000 1.0000
31.8800 1493.0000 1.0000
31.8900 1484.0000 1.0000
31.9000 1521.0000 1.0000
31.9100 1456.0000 1.0000
31.9200 1494.0000 1.0000
31.9300 1470.0000 1.0000
31.9400 1503.0000 1.0000
31.9500 1443.0000 1.0000
31.9600 1467.0000 1.0000
31.9700 1521.0000 1.0000
31.9800 1542.0000 1.0000
31.9900 1434.0000 1.0000
32.0000 1485.0000 1.0000
32.0100 1513.0000 1.0000
32.0200 1501.0000 1.0000
32.0300 1478.0000 1.0000
32.0400 1490.0000 1.0000
32.0500 1437.0000 1.0000
32.0600 1389.0000 1.0000
32.0700 1433.0000 1.0000
32.0800 1496.0000 1.0000
32.0900 1487.0000 1.0000
32.1000 1495.0000 1.0000
32.1100 1498.0000 1.0000
32.1200 1498.0000 1.0000
32.1300 1448.0000 1.0000
32.1400 1455.0000 1.0000
32.1500 1379.0000 1.0000
32.1600 1413.0000 1.0000
32.1700 1440.0000 1.0000
32.1800 1475.0000 1.0000
32.1900 1448.0000 1.0000
32.2000 1454.0000 1.0000
32.2100 1397.0000 1.0000
32.2200 1431.0000 1.0000
32.2300 1436.0000 1.0000
32.2400 1476.0000 1.0000
32.2500 1515.0000 1.0000
32.2600 1463.0000 1.0000
32.2700 1448.0000 1.0000
32.2800 1443.0000 1.0000
32.2900 1422.0000 1.0000
32.3000 1425.0000 1.0000
32.3100 1442.0000 1.0000
32.3200 1409.0000 1.0000
32.3300 1436.0000 1.0000
32.3400 1462.0000 1.0000
32.3500 1440.0000 1.0000
32.3600 1392.0000 1.0000
32.3700 1436.0000 1.0000
32.3800 1369.0000 1.0000
32.3900 1417.0000 1.0000
32.4000 1471.0000 1.0000
32.4100 1435.0000 1.0000
32.4200 1428.0000 1.0000
32.4300 1387.0000 1.0000
32.4400 1389.0000 1.0000
32.4500 1385.0000 1.0000
32.4600 1389.0000 1.0000
32.4700 1428.0000 1.0000
32.4800 1556.0000 1.0000
32.4900 1463.0000 1.0000
32.5000 1389.0000 1.0000
32.5100 1390.0000 1.0000
32.5200 1419.0000 1.0000
32.5300 1406.0000 1.0000
32.5400 1361.0000 1.0000
32.5500 1416.0000 1.0000
32.5600 1420.0000 1.0000
32.5700 1425.0000 1.0000
32.5800 1404.0000 1.0000
32.5900 1427.0000 1.0000
32.6000 1408.0000 1.0000
32.6100 1502.0000 1.0000
32.6200 1462.0000 1.0000
32.6300 1407.0000 1.0000
32.6400 1379.0000 1.0000
32.6500 1403.0000 1.0000
32.6600 1436.0000 1.0000
32.6700 1400.0000 1.0000
32.6800 1350.0000 1.0000
32.6900 1365.0000 1.0000
32.7000 1457.0000 1.0000
32.7100 1423.0000 1.0000
32.7200 1393.0000 1.0000
32.7300 1353.0000 1.0000
32.7400 1395.0000 1.0000
32.7500 1403.0000 1.0000
32.7600 1392.0000 1.0000
32.7700 1389.0000 1.0000
32.7800 1400.0000 1.0000
32.7900 1381.0000 1.0000
32.8000 1355.0000 1.0000
32.8100 1447.0000 1.0000
32.8200 1407.0000 1.0000
32.8300 1409.0000 1.0000
32.8400 1427.0000 1.0000
32.8500 1361.0000 1.0000
32.8600 1412.0000 1.0000
32.8700 1415.0000 1.0000
32.8800 1390.0000 1.0000
32.8900 1358.0000 1.0000
32.9000 1411.0000 1.0000
32.9100 1378.0000 1.0000
32.9200 1434.0000 1.0000
32.9300 1355.0000 1.0000
32.9400 1350.0000 1.0000
32.9500 1370.0000 1.0000
32.9600 1419.0000 1.0000
32.9700 1372.0000 1.0000
32.9800 1399.0000 1.0000
32.9900 1351.0000 1.0000
33.0000 1414.0000 1.0000
33.0100 1394.0000 1.0000
33.0200 1390.0000 1.0000
33.0300 1425.0000 1.0000
33.0400 1325.0000 1.0000
33.0500 1405.0000 1.0000
33.0600 1384.0000 1.0000
33.0700 1386.0000 1.0000
33.0800 1391.0000 1.0000
33.0900 1374.0000 1.0000
33.1000 1314.0000 1.0000
33.1100 1368.0000 1.0000
33.1200 1339.0000 1.0000
33.1300 1350.0000 1.0000
33.1400 1367.0000 1.0000
33.1500 1350.0000 1.0000
33.1600 1398.0000 1.0000
33.1700 1380.0000 1.0000
33.1800 1459.0000 1.0000
33.1900 1407.0000 1.0000
33.2000 1384.0000 1.0000
33.2100 1349.0000 1.0000
33.2200 1385.0000 1.0000
33.2300 1416.0000 1.0000
33.2400 1364.0000 1.0000
33.2500 1312.0000 1.0000
33.2600 1323.0000 1.0000
33.2700 1359.0000 1.0000
33.2800 1399.0000 1.0000
33.2900 1381.0000 1.0000
33.3000 1405.0000 1.0000
33.3100 1376.0000 1.0000
33.3200 1390.0000 1.0000
33.3300 1344.0000 1.0000
33.3400 1318.0000 1.0000
33.3500 1379.0000 1.0000
33.3600 1420.0000 1.0000
33.3700 1378.0000 1.0000
33.3800 1361.0000 1.0000
33.3900 1375.0000 1.0000
33.4000 1428.0000 1.0000
33.4100 1418.0000 1.0000
33.4200 1353.0000 1.0000
33.4300 1433.0000 1.0000
33.4400 1378.0000 1.0000
33.4500 1366.0000 1.0000
33.4600 1378.0000 1.0000
33.4700 1480.0000 1.0000
33.4800 1444.0000 1.0000
33.4900 1428.0000 1.0000
33.5000 1366.0000 1.0000
33.5100 1413.0000 1.0000
33.5200 1413.0000 1.0000
33.5300 1398.0000 1.0000
33.5400 1285.0000 1.0000
33.5500 1335.0000 1.0000
33.5600 1413.0000 1.0000
33.5700 1349.0000 1.0000
33.5800 1317.0000 1.0000
33.5900 1329.0000 1.0000
33.6000 1383.0000 1.0000
33.6100 1445.0000 1.0000
33.6200 1386.0000 1.0000
33.6300 1359.0000 1.0000
33.6400 1393.0000 1.0000
33.6500 1414.0000 1.0000
33.6600 1351.0000 1.0000
33.6700 1336.0000 1.0000
33.6800 1414.0000 1.0000
33.6900 1468.0000 1.0000
33.7000 1434.0000 1.0000
33.7100 1452.0000 1.0000
33.7200 1413.0000 1.0000
33.7300 1409.0000 1.0000
33.7400 1400.0000 1.0000
33.7500 1417.0000 1.0000
33.7600 1449.0000 1.0000
33.7700 1458.0000 1.0000
33.7800 1462.0000 1.0000
33.7900 1499.0000 1.0000
33.8000 1482.0000 1.0000
33.8100 1543.0000 1.0000
33.8200 1494.0000 1.0000
33.8300 1456.0000 1.0000
33.8400 1549.0000 1.0000
33.8500 1517.0000 1.0000
33.8600 1515.0000 1.0000
33.8700 1584.0000 1.0000
33.8800 1591.0000 1.0000
33.8900 1618.0000 1.0000
33.9000 1663.0000 1.0000
33.9100 1677.0000 1.0000
33.9200 1641.0000 1.0000
33.9300 1683.0000 1.0000
33.9400 1648.0000 1.0000
33.9500 1644.0000 1.0000
33.9600 1671.0000 1.0000
33.9700 1697.0000 1.0000
33.9800 1636.0000 1.0000
33.9900 1674.0000 1.0000
34.0000 1623.0000 1.0000
34.0100 1582.0000 1.0000
34.0200 1591.0000 1.0000
34.0300 1601.0000 1.0000
34.0400 1594.0000 1.0000
34.0500 1607.0000 1.0000
34.0600 1582.0000 1.0000
34.0700 1594.0000 1.0000
34.0800 1575.0000 1.0000
34.0900 1616.0000 1.0000
34.1000 1567.0000 1.0000
34.1100 1520.0000 1.0000
34.1200 1502.0000 1.0000
34.1300 1531.0000 1.0000
34.1400 1508.0000 1.0000
34.1500 1523.0000 1.0000
34.1600 1600.0000 1.0000
34.1700 1576.0000 1.0000
34.1800 1571.0000 1.0000
34.1900 1540.0000 1.0000
34.2000 1593.0000 1.0000
34.2100 1661.0000 1.0000
34.2200 1650.0000 1.0000
34.2300 1662.0000 1.0000
34.2400 1681.0000 1.0000
34.2500 1772.0000 1.0000
34.2600 1794.0000 1.0000
34.2700 1735.0000 1.0000
34.2800 1758.0000 1.0000
34.2900 1802.0000 1.0000
34.3000 1876.0000 1.0000
34.3100 2010.0000 1.0000
34.3200 1980.0000 1.0000
34.3300 2108.0000 1.0000
34.3400 2101.0000 1.0000
34.3500 2117.0000 1.0000
34.3600 2181.0000 1.0000
34.3700 2310.0000 1.0000
34.3800 2442.0000 1.0000
34.3900 2493.0000 1.0000
34.4000 2586.0000 1.0000
34.4100 2724.0000 1.0000
34.4200 2812.0000 1.0000
34.4300 2947.0000 1.0000
34.4400 3116.0000 1.0000
34.4500 3182.0000 1.0000
34.4600 3357.0000 1.0000
34.4700 3375.0000 1.0000
34.4800 3399.0000 1.0000
34.4900 3419.0000 1.0000
34.5000 3552.0000 1.0000
34.5100 3551.0000 1.0000
34.5200 3388.0000 1.0000
34.5300 3414.0000 1.0000
34.5400 3309.0000 1.0000
34.5500 3285.0000 1.0000
34.5600 3113.0000 1.0000
34.5700 2987.0000 1.0000
34.5800 2935.0000 1.0000
34.5900 2926.0000 1.0000
34.6000 2792.0000 1.0000
34.6100 2637.0000 1.0000
34.6200 2544.0000 1.0000
34.6300 2576.0000 1.0000
34.6400 2390.0000 1.0000
34.6500 2376.0000 1.0000
34.6600 2240.0000 1.0000
34.6700 2122.0000 1.0000
34.6800 1976.0000 1.0000
34.6900 1987.0000 1.0000
34.7000 1945.0000 1.0000
34.7100 1852.0000 1.0000
34.7200 1793.0000 1.0000
34.7300 1823.0000 1.0000
34.7400 1785.0000 1.0000
34.7500 1772.0000 1.0000
34.7600 1743.0000 1.0000
34.7700 1682.0000 1.0000
34.7800 1677.0000 1.0000
34.7900 1646.0000 1.0000
34.8000 1559.0000 1.0000
34.8100 1569.0000 1.0000
34.8200 1583.0000 1.0000
34.8300 1557.0000 1.0000
34.8400 1575.0000 1.0000
34.8500 1450.0000 1.0000
34.8600 1460.0000 1.0000
34.8700 1479.0000 1.0000
34.8800 1508.0000 1.0000
34.8900 1503.0000 1.0000
34.9000 1550.0000 1.0000
34.9100 1477.0000 1.0000
34.9200 1442.0000 1.0000
34.9300 1406.0000 1.0000
34.9400 1385.0000 1.0000
34.9500 1405.0000 1.0000
34.9600 1449.0000 1.0000
34.9700 1408.0000 1.0000
34.9800 1357.0000 1.0000
34.9900 1442.0000 1.0000
35.0000 1350.0000 1.0000
35.0100 1318.0000 1.0000
35.0200 1314.0000 1.0000
35.0300 1347.0000 1.0000
35.0400 1328.0000 1.0000
35.0500 1302.0000 1.0000
35.0600 1334.0000 1.0000
35.0700 1287.0000 1.0000
35.0800 1311.0000 1.0000
35.0900 1306.0000 1.0000
35.1000 1324.0000 1.0000
35.1100 1308.0000 1.0000
35.1200 1314.0000 1.0000
35.1300 1291.0000 1.0000
35.1400 1345.0000 1.0000
35.1500 1308.0000 1.0000
35.1600 1316.0000 1.0000
35.1700 1303.0000 1.0000
35.1800 1230.0000 1.0000
35.1900 1331.0000 1.0000
35.2000 1297.0000 1.0000
35.2100 1239.0000 1.0000
35.2200 1257.0000 1.0000
35.2300 1276.0000 1.0000
35.2400 1243.0000 1.0000
35.2500 1230.0000 1.0000
35.2600 1281.0000 1.0000
35.2700 1218.0000 1.0000
35.2800 1266.0000 1.0000
35.2900 1261.0000 1.0000
35.3000 1223.0000 1.0000
35.3100 1210.0000 1.0000
35.3200 1284.0000 1.0000
35.3300 1265.0000 1.0000
35.3400 1251.0000 1.0000
35.3500 1250.0000 1.0000
35.3600 1252.0000 1.0000
35.3700 1200.0000 1.0000
35.3800 1234.0000 1.0000
35.3900 1239.0000 1.0000
35.4000 1220.0000 1.0000
35.4100 1224.0000 1.0000
35.4200 1245.0000 1.0000
35.4300 1209.0000 1.0000
35.4400 1230.0000 1.0000
35.4500 1270.0000 1.0000
35.4600 1184.0000 1.0000
35.4700 1210.0000 1.0000
35.4800 1225.0000 1.0000
35.4900 1219.0000 1.0000
35.5000 1179.0000 1.0000
35.5100 1238.0000 1.0000
35.5200 1214.0000 1.0000
35.5300 1226.0000 1.0000
35.5400 1243.0000 1.0000
35.5500 1185.0000 1.0000
35.5600 1238.0000 1.0000
35.5700 1224.0000 1.0000
35.5800 1219.0000 1.0000
35.5900 1197.0000 1.0000
35.6000 1239.0000 1.0000
35.6100 1304.0000 1.0000
35.6200 1234.0000 1.0000
35.6300 1192.0000 1.0000
35.6400 1162.0000 1.0000
35.6500 1188.0000 1.0000
35.6600 1246.0000 1.0000
35.6700 1192.0000 1.0000
35.6800 1180.0000 1.0000
35.6900 1179.0000 1.0000
35.7000 1182.0000 1.0000
35.7100 1224.0000 1.0000
35.7200 1212.0000 1.0000
35.7300 1176.0000 1.0000
35.7400 1207.0000 1.0000
35.7500 1247.0000 1.0000
35.7600 1247.0000 1.0000
35.7700 1201.0000 1.0000
35.7800 1177.0000 1.0000
35.7900 1154.0000 1.0000
35.8000 1233.0000 1.0000
35.8100 1200.0000 1.0000
35.8200 1218.0000 1.0000
35.8300 1182.0000 1.0000
35.8400 1169.0000 1.0000
35.8500 1181.0000 1.0000
35.8600 1254.0000 1.0000
35.8700 1227.0000 1.0000
35.8800 1154.0000 1.0000
35.8900 1237.0000 1.0000
35.9000 1194.0000 1.0000
35.9100 1193.0000 1.0000
35.9200 1191.0000 1.0000
35.9300 1209.0000 1.0000
35.9400 1180.0000 1.0000
35.9500 1177.0000 1.0000
35.9600 1141.0000 1.0000
35.9700 1166.0000 1.0000
35.9800 1213.0000 1.0000
35.9900 1228.0000 1.0000
36.0000 1189.0000 1.0000
36.0100 1219.0000 1.0000
36.0200 1158.0000 1.0000
36.0300 1198.0000 1.0000
36.0400 1160.0000 1.0000
36.0500 1120.0000 1.0000
36.0600 1145.0000 1.0000
36.0700 1194.0000 1.0000
36.0800 1157.0000 1.0000
36.0900 1217.0000 1.0000
36.1000 1275.0000 1.0000
36.1100 1182.0000 1.0000
36.1200 1297.0000 1.0000
36.1300 1294.0000 1.0000
36.1400 1212.0000 1.0000
36.1500 1207.0000 1.0000
36.1600 1289.0000 1.0000
36.1700 1233.0000 1.0000
36.1800 1237.0000 1.0000
36.1900 1290.0000 1.0000
36.2000 1282.0000 1.0000
36.2100 1322.0000 1.0000
36.2200 1345.0000 1.0000
36.2300 1365.0000 1.0000
36.2400 1373.0000 1.0000
36.2500 1391.0000 1.0000
36.2600 1364.0000 1.0000
36.2700 1453.0000 1.0000
36.2800 1480.0000 1.0000
36.2900 1516.0000 1.0000
36.3000 1549.0000 1.0000
36.3100 1585.0000 1.0000
36.3200 1630.0000 1.0000
36.3300 1686.0000 1.0000
36.3400 1730.0000 1.0000
36.3500 1851.0000 1.0000
36.3600 1886.0000 1.0000
36.3700 1941.0000 1.0000
36.3800 2040.0000 1.0000
36.3900 2123.0000 1.0000
36.4000 2257.0000 1.0000
36.4100 2220.0000 1.0000
36.4200 2132.0000 1.0000
36.4300 2104.0000 1.0000
36.4400 2103.0000 1.0000
36.4500 2120.0000 1.0000
36.4600 2017.0000 1.0000
36.4700 1969.0000 1.0000
36.4800 1881.0000 1.0000
36.4900 1809.0000 1.0000
36.5000 1790.0000 1.0000
36.5100 1760.0000 1.0000
36.5200 1747.0000 1.0000
36.5300 1667.0000 1.0000
36.5400 1584.0000 1.0000
36.5500 1524.0000 1.0000
36.5600 1458.0000 1.0000
36.5700 1428.0000 1.0000
36.5800 1368.0000 1.0000
36.5900 1342.0000 1.0000
36.6000 1304.0000 1.0000
36.6100 1307.0000 1.0000
36.6200 1285.0000 1.0000
36.6300 1198.0000 1.0000
36.6400 1240.0000 1.0000
36.6500 1231.0000 1.0000
36.6600 1186.0000 1.0000
36.6700 1172.0000 1.0000
36.6800 1185.0000 1.0000
36.6900 1194.0000 1.0000
36.7000 1115.0000 1.0000
36.7100 1140.0000 1.0000
36.7200 1172.0000 1.0000
36.7300 1188.0000 1.0000
36.7400 1125.0000 1.0000
36.7500 1200.0000 1.0000
36.7600 1157.0000 1.0000
36.7700 1110.0000 1.0000
36.7800 1095.0000 1.0000
36.7900 1089.0000 1.0000
36.8000 1143.0000 1.0000
36.8100 1131.0000 1.0000
36.8200 1079.0000 1.0000
36.8300 1133.0000 1.0000
36.8400 1139.0000 1.0000
36.8500 1097.0000 1.0000
36.8600 1132.0000 1.0000
36.8700 1159.0000 1.0000
36.8800 1136.0000 1.0000
36.8900 1113.0000 1.0000
36.9000 1055.0000 1.0000
36.9100 1034.0000 1.0000
36.9200 1100.0000 1.0000
36.9300 1102.0000 1.0000
36.9400 1184.0000 1.0000
36.9500 1138.0000 1.0000
36.9600 1096.0000 1.0000
36.9700 1146.0000 1.0000
36.9800 1088.0000 1.0000
36.9900 1100.0000 1.0000
37.0000 1125.0000 1.0000
37.0100 1072.0000 1.0000
37.0200 1083.0000 1.0000
37.0300 1131.0000 1.0000
37.0400 1051.0000 1.0000
37.0500 1103.0000 1.0000
37.0600 1114.0000 1.0000
37.0700 1083.0000 1.0000
37.0800 1102.0000 1.0000
37.0900 1093.0000 1.0000
37.1000 1052.0000 1.0000
37.1100 1100.0000 1.0000
37.1200 1057.0000 1.0000
37.1300 1099.0000 1.0000
37.1400 1069.0000 1.0000
37.1500 1070.0000 1.0000
37.1600 1105.0000 1.0000
37.1700 1116.0000 1.0000
37.1800 1103.0000 1.0000
37.1900 1104.0000 1.0000
37.2000 1039.0000 1.0000
37.2100 1079.0000 1.0000
37.2200 1002.0000 1.0000
37.2300 1106.0000 1.0000
37.2400 1075.0000 1.0000
37.2500 1038.0000 1.0000
37.2600 1078.0000 1.0000
37.2700 1123.0000 1.0000
37.2800 1096.0000 1.0000
37.2900 1150.0000 1.0000
37.3000 1130.0000 1.0000
37.3100 1047.0000 1.0000
37.3200 1070.0000 1.0000
37.3300 1113.0000 1.0000
37.3400 1049.0000 1.0000
37.3500 1050.0000 1.0000
37.3600 1089.0000 1.0000
37.3700 1101.0000 1.0000
37.3800 1074.0000 1.0000
37.3900 1088.0000 1.0000
37.4000 1082.0000 1.0000
37.4100 1100.0000 1.0000
37.4200 1065.0000 1.0000
37.4300 1125.0000 1.0000
37.4400 1107.0000 1.0000
37.4500 1092.0000 1.0000
37.4600 1043.0000 1.0000
37.4700 1050.0000 1.0000
37.4800 1089.0000 1.0000
37.4900 1102.0000 1.0000
37.5000 1072.0000 1.0000
37.5100 1070.0000 1.0000
37.5200 1079.0000 1.0000
37.5300 1093.0000 1.0000
37.5400 1099.0000 1.0000
37.5500 1054.0000 1.0000
37.5600 1054.0000 1.0000
37.5700 1058.0000 1.0000
37.5800 1119.0000 1.0000
37.5900 1130.0000 1.0000
37.6000 1103.0000 1.0000
37.6100 1067.0000 1.0000
37.6200 1106.0000 1.0000
37.6300 1081.0000 1.0000
37.6400 1085.0000 1.0000
37.6500 1118.0000 1.0000
37.6600 1064.0000 1.0000
37.6700 1120.0000 1.0000
37.6800 1070.0000 1.0000
37.6900 1093.0000 1.0000
37.7000 1120.0000 1.0000
37.7100 1068.0000 1.0000
37.7200 1124.0000 1.0000
37.7300 1056.0000 1.0000
37.7400 1065.0000 1.0000
37.7500 1106.0000 1.0000
37.7600 1052.0000 1.0000
37.7700 1090.0000 1.0000
37.7800 1092.0000 1.0000
37.7900 1117.0000 1.0000
37.8000 1058.0000 1.0000
37.8100 1107.0000 1.0000
37.8200 1124.0000 1.0000
37.8300 1098.0000 1.0000
37.8400 1076.0000 1.0000
37.8500 1118.0000 1.0000
37.8600 1134.0000 1.0000
37.8700 1049.0000 1.0000
37.8800 1091.0000 1.0000
37.8900 1150.0000 1.0000
37.9000 1103.0000 1.0000
37.9100 1149.0000 1.0000
37.9200 1128.0000 1.0000
37.9300 1099.0000 1.0000
37.9400 1145.0000 1.0000
37.9500 1142.0000 1.0000
37.9600 1135.0000 1.0000
37.9700 1164.0000 1.0000
37.9800 1128.0000 1.0000
37.9900 1148.0000 1.0000
38.0000 1163.0000 1.0000
38.0100 1193.0000 1.0000
38.0200 1166.0000 1.0000
38.0300 1201.0000 1.0000
38.0400 1112.0000 1.0000
38.0500 1162.0000 1.0000
38.0600 1191.0000 1.0000
38.0700 1160.0000 1.0000
38.0800 1199.0000 1.0000
38.0900 1217.0000 1.0000
38.1000 1230.0000 1.0000
38.1100 1313.0000 1.0000
38.1200 1240.0000 1.0000
38.1300 1255.0000 1.0000
38.1400 1318.0000 1.0000
38.1500 1344.0000 1.0000
38.1600 1325.0000 1.0000
38.1700 1362.0000 1.0000
38.1800 1444.0000 1.0000
38.1900 1358.0000 1.0000
38.2000 1408.0000 1.0000
38.2100 1452.0000 1.0000
38.2200 1537.0000 1.0000
38.2300 1537.0000 1.0000
38.2400 1561.0000 1.0000
38.2500 1630.0000 1.0000
38.2600 1664.0000 1.0000
38.2700 1720.0000 1.0000
38.2800 1794.0000 1.0000
38.2900 1904.0000 1.0000
38.3000 1942.0000 1.0000
38.3100 2060.0000 1.0000
38.3200 2062.0000 1.0000
38.3300 2196.0000 1.0000
38.3400 2240.0000 1.0000
38.3500 2401.0000 1.0000
38.3600 2554.0000 1.0000
38.3700 2703.0000 1.0000
38.3800 2905.0000 1.0000
38.3900 2957.0000 1.0000
38.4000 3284.0000 1.0000
38.4100 3448.0000 1.0000
38.4200 3692.0000 1.0000
38.4300 3978.0000 1.0000
38.4400 4294.0000 1.0000
38.4500 4555.0000 1.0000
38.4600 4920.0000 1.0000
38.4700 5171.0000 1.0000
38.4800 5365.0000 1.0000
38.4900 5643.0000 1.0000
38.5000 5901.0000 1.0000
38.5100 6173.0000 1.0000
38.5200 6289.0000 1.0000
38.5300 6340.0000 1.0000
38.5400 6426.0000 1.0000
38.5500 6476.0000 1.0000
38.5600 6442.0000 1.0000
38.5700 6440.0000 1.0000
38.5800 6323.0000 1.0000
38.5900 6080.0000 1.0000
38.6000 5862.0000 1.0000
38.6100 5449.0000 1.0000
38.6200 5397.0000 1.0000
38.6300 5206.0000 1.0000
38.6400 5014.0000 1.0000
38.6500 4565.0000 1.0000
38.6600 4428.0000 1.0000
38.6700 4161.0000 1.0000
38.6800 3998.0000 1.0000
38.6900 3757.0000 1.0000
38.7000 3445.0000 1.0000
38.7100 3233.0000 1.0000
38.7200 3091.0000 1.0000
38.7300 2844.0000 1.0000
38.7400 2799.0000 1.0000
38.7500 2592.0000 1.0000
38.7600 2337.0000 1.0000
38.7700 2275.0000 1.0000
38.7800 2176.0000 1.0000
38.7900 2046.0000 1.0000
38.8000 1905.0000 1.0000
38.8100 1875.0000 1.0000
38.8200 1766.0000 1.0000
38.8300 1767.0000 1.0000
38.8400 1650.0000 1.0000
38.8500 1585.0000 1.0000
38.8600 1556.0000 1.0000
38.8700 1520.0000 1.0000
38.8800 1419.0000 1.0000
38.8900 1401.0000 1.0000
38.9000 1346.0000 1.0000
38.9100 1360.0000 1.0000
38.9200 1300.0000 1.0000
38.9300 1267.0000 1.0000
38.9400 1212.0000 1.0000
38.9500 1252.0000 1.0000
38.9600 1226.0000 1.0000
38.9700 1188.0000 1.0000
38.9800 1176.0000 1.0000
38.9900 1193.0000 1.0000
39.0000 1127.0000 1.0000
39.0100 1184.0000 1.0000
39.0200 1148.0000 1.0000
39.0300 1152.0000 1.0000
39.0400 1112.0000 1.0000
39.0500 1128.0000 1.0000
39.0600 1109.0000 1.0000
39.0700 1135.0000 1.0000
39.0800 1081.0000 1.0000
39.0900 1078.0000 1.0000
39.1000 1106.0000 1.0000
39.1100 1083.0000 1.0000
39.1200 1066.0000 1.0000
39.1300 1070.0000 1.0000
39.1400 1059.0000 1.0000
39.1500 1037.0000 1.0000
39.1600 1050.0000 1.0000
39.1700 1024.0000 1.0000
39.1800 1068.0000 1.0000
39.1900 1078.0000 1.0000
39.2000 1065.0000 1.0000
39.2100 1033.0000 1.0000
39.2200 1052.0000 1.0000
39.2300 1035.0000 1.0000
39.2400 992.0000 1.0000
39.2500 1058.0000 1.0000
39.2600 1032.0000 1.0000
39.2700 1040.0000 1.0000
39.2800 1052.0000 1.0000
39.2900 1094.0000 1.0000
39.3000 949.0000 1.0000
39.3100 1016.0000 1.0000
39.3200 1006.0000 1.0000
39.3300 972.0000 1.0000
39.3400 953.0000 1.0000
39.3500 1005.0000 1.0000
39.3600 1050.0000 1.0000
39.3700 1028.0000 1.0000
39.3800 998.0000 1.0000
39.3900 989.0000 1.0000
39.4000 1062.0000 1.0000
39.4100 1049.0000 1.0000
39.4200 999.0000 1.0000
39.4300 1026.0000 1.0000
39.4400 1039.0000 1.0000
39.4500 1062.0000 1.0000
39.4600 1065.0000 1.0000
39.4700 1070.0000 1.0000
39.4800 1047.0000 1.0000
39.4900 1015.0000 1.0000
39.5000 1040.0000 1.0000
39.5100 1037.0000 1.0000
39.5200 1019.0000 1.0000
39.5300 1027.0000 1.0000
39.5400 996.0000 1.0000
39.5500 1052.0000 1.0000
39.5600 1026.0000 1.0000
39.5700 1020.0000 1.0000
39.5800 1069.0000 1.0000
39.5900 1122.0000 1.0000
39.6000 1094.0000 1.0000
39.6100 1058.0000 1.0000
39.6200 1023.0000 1.0000
39.6300 1023.0000 1.0000
39.6400 1064.0000 1.0000
39.6500 1015.0000 1.0000
39.6600 1077.0000 1.0000
39.6700 1002.0000 1.0000
39.6800 1005.0000 1.0000
39.6900 1024.0000 1.0000
39.7000 1082.0000 1.0000
39.7100 1052.0000 1.0000
39.7200 971.0000 1.0000
39.7300 981.0000 1.0000
39.7400 995.0000 1.0000
39.7500 1044.0000 1.0000
39.7600 997.0000 1.0000
39.7700 989.0000 1.0000
39.7800 972.0000 1.0000
39.7900 974.0000 1.0000
39.8000 997.0000 1.0000
39.8100 968.0000 1.0000
39.8200 966.0000 1.0000
39.8300 936.0000 1.0000
39.8400 981.0000 1.0000
39.8500 985.0000 1.0000
39.8600 945.0000 1.0000
39.8700 976.0000 1.0000
39.8800 924.0000 1.0000
39.8900 917.0000 1.0000
39.9000 940.0000 1.0000
39.9100 940.0000 1.0000
39.9200 942.0000 1.0000
39.9300 934.0000 1.0000
39.9400 955.0000 1.0000
39.9500 949.0000 1.0000
39.9600 939.0000 1.0000
39.9700 985.0000 1.0000
39.9800 976.0000 1.0000
39.9900 931.0000 1.0000
40.0000 895.0000 1.0000
40.0100 954.0000 1.0000
40.0200 956.0000 1.0000
40.0300 907.0000 1.0000
40.0400 927.0000 1.0000
40.0500 937.0000 1.0000
40.0600 940.0000 1.0000
40.0700 866.0000 1.0000
40.0800 902.0000 1.0000
40.0900 986.0000 1.0000
40.1000 981.0000 1.0000
40.1100 931.0000 1.0000
40.1200 951.0000 1.0000
40.1300 933.0000 1.0000
40.1400 994.0000 1.0000
40.1500 896.0000 1.0000
40.1600 918.0000 1.0000
40.1700 983.0000 1.0000
40.1800 928.0000 1.0000
40.1900 899.0000 1.0000
40.2000 986.0000 1.0000
40.2100 980.0000 1.0000
40.2200 945.0000 1.0000
40.2300 909.0000 1.0000
40.2400 885.0000 1.0000
40.2500 927.0000 1.0000
40.2600 927.0000 1.0000
40.2700 928.0000 1.0000
40.2800 905.0000 1.0000
40.2900 947.0000 1.0000
40.3000 915.0000 1.0000
40.3100 915.0000 1.0000
40.3200 911.0000 1.0000
40.3300 948.0000 1.0000
40.3400 947.0000 1.0000
40.3500 945.0000 1.0000
40.3600 932.0000 1.0000
40.3700 890.0000 1.0000
40.3800 912.0000 1.0000
40.3900 941.0000 1.0000
40.4000 926.0000 1.0000
40.4100 904.0000 1.0000
40.4200 935.0000 1.0000
40.4300 914.0000 1.0000
40.4400 946.0000 1.0000
40.4500 908.0000 1.0000
40.4600 919.0000 1.0000
40.4700 905.0000 1.0000
40.4800 909.0000 1.0000
40.4900 901.0000 1.0000
40.5000 921.0000 1.0000
40.5100 918.0000 1.0000
40.5200 953.0000 1.0000
40.5300 943.0000 1.0000
40.5400 947.0000 1.0000
40.5500 933.0000 1.0000
40.5600 916.0000 1.0000
40.5700 914.0000 1.0000
40.5800 886.0000 1.0000
40.5900 885.0000 1.0000
40.6000 929.0000 1.0000
40.6100 935.0000 1.0000
40.6200 902.0000 1.0000
40.6300 951.0000 1.0000
40.6400 936.0000 1.0000
40.6500 883.0000 1.0000
40.6600 928.0000 1.0000
40.6700 875.0000 1.0000
40.6800 891.0000 1.0000
40.6900 902.0000 1.0000
40.7000 929.0000 1.0000
40.7100 863.0000 1.0000
40.7200 959.0000 1.0000
40.7300 888.0000 1.0000
40.7400 982.0000 1.0000
40.7500 942.0000 1.0000
40.7600 928.0000 1.0000
40.7700 946.0000 1.0000
40.7800 929.0000 1.0000
40.7900 876.0000 1.0000
40.8000 928.0000 1.0000
40.8100 922.0000 1.0000
40.8200 912.0000 1.0000
40.8300 927.0000 1.0000
40.8400 900.0000 1.0000
40.8500 940.0000 1.0000
40.8600 936.0000 1.0000
40.8700 890.0000 1.0000
40.8800 915.0000 1.0000
40.8900 905.0000 1.0000
40.9000 879.0000 1.0000
40.9100 892.0000 1.0000
40.9200 887.0000 1.0000
40.9300 916.0000 1.0000
40.9400 878.0000 1.0000
40.9500 902.0000 1.0000
40.9600 955.0000 1.0000
40.9700 929.0000 1.0000
40.9800 909.0000 1.0000
40.9900 942.0000 1.0000
41.0000 920.0000 1.0000
41.0100 951.0000 1.0000
41.0200 935.0000 1.0000
41.0300 937.0000 1.0000
41.0400 886.0000 1.0000
41.0500 893.0000 1.0000
41.0600 882.0000 1.0000
41.0700 932.0000 1.0000
41.0800 924.0000 1.0000
41.0900 909.0000 1.0000
41.1000 880.0000 1.0000
41.1100 925.0000 1.0000
41.1200 875.0000 1.0000
41.1300 879.0000 1.0000
41.1400 885.0000 1.0000
41.1500 926.0000 1.0000
41.1600 861.0000 1.0000
41.1700 896.0000 1.0000
41.1800 895.0000 1.0000
41.1900 930.0000 1.0000
41.2000 891.0000 1.0000
41.2100 906.0000 1.0000
41.2200 939.0000 1.0000
41.2300 945.0000 1.0000
41.2400 913.0000 1.0000
41.2500 889.0000 1.0000
41.2600 897.0000 1.0000
41.2700 909.0000 1.0000
41.2800 859.0000 1.0000
41.2900 846.0000 1.0000
41.3000 875.0000 1.0000
41.3100 973.0000 1.0000
41.3200 906.0000 1.0000
41.3300 870.0000 1.0000
41.3400 855.0000 1.0000
41.3500 859.0000 1.0000
41.3600 894.0000 1.0000
41.3700 897.0000 1.0000
41.3800 898.0000 1.0000
41.3900 901.0000 1.0000
41.4000 905.0000 1.0000
41.4100 904.0000 1.0000
41.4200 905.0000 1.0000
41.4300 892.0000 1.0000
41.4400 964.0000 1.0000
41.4500 913.0000 1.0000
41.4600 938.0000 1.0000
41.4700 887.0000 1.0000
41.4800 949.0000 1.0000
41.4900 941.0000 1.0000
41.5000 882.0000 1.0000
41.5100 930.0000 1.0000
41.5200 935.0000 1.0000
41.5300 927.0000 1.0000
41.5400 887.0000 1.0000
41.5500 945.0000 1.0000
41.5600 931.0000 1.0000
41.5700 892.0000 1.0000
41.5800 957.0000 1.0000
41.5900 915.0000 1.0000
41.6000 944.0000 1.0000
41.6100 902.0000 1.0000
41.6200 933.0000 1.0000
41.6300 949.0000 1.0000
41.6400 950.0000 1.0000
41.6500 904.0000 1.0000
41.6600 909.0000 1.0000
41.6700 920.0000 1.0000
41.6800 958.0000 1.0000
41.6900 963.0000 1.0000
41.7000 891.0000 1.0000
41.7100 926.0000 1.0000
41.7200 914.0000 1.0000
41.7300 884.0000 1.0000
41.7400 924.0000 1.0000
41.7500 938.0000 1.0000
41.7600 907.0000 1.0000
41.7700 898.0000 1.0000
41.7800 908.0000 1.0000
41.7900 957.0000 1.0000
41.8000 962.0000 1.0000
41.8100 908.0000 1.0000
41.8200 901.0000 1.0000
41.8300 916.0000 1.0000
41.8400 901.0000 1.0000
41.8500 938.0000 1.0000
41.8600 931.0000 1.0000
41.8700 882.0000 1.0000
41.8800 905.0000 1.0000
41.8900 914.0000 1.0000
41.9000 913.0000 1.0000
41.9100 871.0000 1.0000
41.9200 968.0000 1.0000
41.9300 920.0000 1.0000
41.9400 935.0000 1.0000
41.9500 917.0000 1.0000
41.9600 872.0000 1.0000
41.9700 916.0000 1.0000
41.9800 890.0000 1.0000
41.9900 883.0000 1.0000
42.0000 910.0000 1.0000
42.0100 904.0000 1.0000
42.0200 872.0000 1.0000
42.0300 878.0000 1.0000
42.0400 894.0000 1.0000
42.0500 895.0000 1.0000
42.0600 809.0000 1.0000
42.0700 846.0000 1.0000
42.0800 882.0000 1.0000
42.0900 911.0000 1.0000
42.1000 883.0000 1.0000
42.1100 910.0000 1.0000
42.1200 916.0000 1.0000
42.1300 958.0000 1.0000
42.1400 929.0000 1.0000
42.1500 897.0000 1.0000
42.1600 916.0000 1.0000
42.1700 883.0000 1.0000
42.1800 861.0000 1.0000
42.1900 904.0000 1.0000
42.2000 884.0000 1.0000
42.2100 895.0000 1.0000
42.2200 895.0000 1.0000
42.2300 885.0000 1.0000
42.2400 883.0000 1.0000
42.2500 875.0000 1.0000
42.2600 914.0000 1.0000
42.2700 910.0000 1.0000
42.2800 874.0000 1.0000
42.2900 899.0000 1.0000
42.3000 856.0000 1.0000
42.3100 869.0000 1.0000
42.3200 880.0000 1.0000
42.3300 856.0000 1.0000
42.3400 839.0000 1.0000
42.3500 849.0000 1.0000
42.3600 833.0000 1.0000
42.3700 917.0000 1.0000
42.3800 866.0000 1.0000
42.3900 901.0000 1.0000
42.4000 894.0000 1.0000
42.4100 920.0000 1.0000
42.4200 845.0000 1.0000
42.4300 846.0000 1.0000
42.4400 870.0000 1.0000
42.4500 872.0000 1.0000
42.4600 879.0000 1.0000
42.4700 887.0000 1.0000
42.4800 905.0000 1.0000
42.4900 899.0000 1.0000
42.5000 837.0000 1.0000
42.5100 923.0000 1.0000
42.5200 921.0000 1.0000
42.5300 897.0000 1.0000
42.5400 914.0000 1.0000
42.5500 934.0000 1.0000
42.5600 899.0000 1.0000
42.5700 893.0000 1.0000
42.5800 856.0000 1.0000
42.5900 889.0000 1.0000
42.6000 852.0000 1.0000
42.6100 891.0000 1.0000
42.6200 856.0000 1.0000
42.6300 869.0000 1.0000
42.6400 874.0000 1.0000
42.6500 891.0000 1.0000
42.6600 884.0000 1.0000
42.6700 867.0000 1.0000
42.6800 876.0000 1.0000
42.6900 873.0000 1.0000
42.7000 915.0000 1.0000
42.7100 886.0000 1.0000
42.7200 862.0000 1.0000
42.7300 879.0000 1.0000
42.7400 919.0000 1.0000
42.7500 886.0000 1.0000
42.7600 871.0000 1.0000
42.7700 886.0000 1.0000
42.7800 880.0000 1.0000
42.7900 869.0000 1.0000
42.8000 895.0000 1.0000
42.8100 875.0000 1.0000
42.8200 885.0000 1.0000
42.8300 895.0000 1.0000
42.8400 882.0000 1.0000
42.8500 885.0000 1.0000
42.8600 871.0000 1.0000
42.8700 876.0000 1.0000
42.8800 855.0000 1.0000
42.8900 832.0000 1.0000
42.9000 888.0000 1.0000
42.9100 905.0000 1.0000
42.9200 905.0000 1.0000
42.9300 864.0000 1.0000
42.9400 926.0000 1.0000
42.9500 939.0000 1.0000
42.9600 882.0000 1.0000
42.9700 912.0000 1.0000
42.9800 887.0000 1.0000
42.9900 907.0000 1.0000
43.0000 914.0000 1.0000
43.0100 884.0000 1.0000
43.0200 897.0000 1.0000
43.0300 898.0000 1.0000
43.0400 923.0000 1.0000
43.0500 927.0000 1.0000
43.0600 924.0000 1.0000
43.0700 878.0000 1.0000
43.0800 930.0000 1.0000
43.0900 971.0000 1.0000
43.1000 926.0000 1.0000
43.1100 888.0000 1.0000
43.1200 948.0000 1.0000
43.1300 944.0000 1.0000
43.1400 939.0000 1.0000
43.1500 931.0000 1.0000
43.1600 931.0000 1.0000
43.1700 951.0000 1.0000
43.1800 968.0000 1.0000
43.1900 925.0000 1.0000
43.2000 935.0000 1.0000
43.2100 942.0000 1.0000
43.2200 966.0000 1.0000
43.2300 966.0000 1.0000
43.2400 913.0000 1.0000
43.2500 936.0000 1.0000
43.2600 966.0000 1.0000
43.2700 1008.0000 1.0000
43.2800 958.0000 1.0000
43.2900 973.0000 1.0000
43.3000 958.0000 1.0000
43.3100 982.0000 1.0000
43.3200 962.0000 1.0000
43.3300 900.0000 1.0000
43.3400 911.0000 1.0000
43.3500 924.0000 1.0000
43.3600 987.0000 1.0000
43.3700 877.0000 1.0000
43.3800 870.0000 1.0000
43.3900 953.0000 1.0000
43.4000 916.0000 1.0000
43.4100 882.0000 1.0000
43.4200 912.0000 1.0000
43.4300 943.0000 1.0000
43.4400 885.0000 1.0000
43.4500 874.0000 1.0000
43.4600 912.0000 1.0000
43.4700 920.0000 1.0000
43.4800 920.0000 1.0000
43.4900 854.0000 1.0000
43.5000 900.0000 1.0000
43.5100 832.0000 1.0000
43.5200 875.0000 1.0000
43.5300 881.0000 1.0000
43.5400 846.0000 1.0000
43.5500 887.0000 1.0000
43.5600 845.0000 1.0000
43.5700 889.0000 1.0000
43.5800 910.0000 1.0000
43.5900 932.0000 1.0000
43.6000 855.0000 1.0000
43.6100 939.0000 1.0000
43.6200 929.0000 1.0000
43.6300 851.0000 1.0000
43.6400 819.0000 1.0000
43.6500 864.0000 1.0000
43.6600 837.0000 1.0000
43.6700 838.0000 1.0000
43.6800 876.0000 1.0000
43.6900 856.0000 1.0000
43.7000 869.0000 1.0000
43.7100 880.0000 1.0000
43.7200 842.0000 1.0000
43.7300 848.0000 1.0000
43.7400 837.0000 1.0000
43.7500 900.0000 1.0000
43.7600 892.0000 1.0000
43.7700 894.0000 1.0000
43.7800 848.0000 1.0000
43.7900 889.0000 1.0000
43.8000 843.0000 1.0000
43.8100 876.0000 1.0000
43.8200 927.0000 1.0000
43.8300 824.0000 1.0000
43.8400 837.0000 1.0000
43.8500 861.0000 1.0000
43.8600 848.0000 1.0000
43.8700 839.0000 1.0000
43.8800 882.0000 1.0000
43.8900 855.0000 1.0000
43.9000 868.0000 1.0000
43.9100 822.0000 1.0000
43.9200 840.0000 1.0000
43.9300 835.0000 1.0000
43.9400 854.0000 1.0000
43.9500 876.0000 1.0000
43.9600 835.0000 1.0000
43.9700 862.0000 1.0000
43.9800 885.0000 1.0000
43.9900 887.0000 1.0000
44.0000 863.0000 1.0000
44.0100 886.0000 1.0000
44.0200 867.0000 1.0000
44.0300 911.0000 1.0000
44.0400 877.0000 1.0000
44.0500 854.0000 1.0000
44.0600 833.0000 1.0000
44.0700 858.0000 1.0000
44.0800 837.0000 1.0000
44.0900 878.0000 1.0000
44.1000 854.0000 1.0000
44.1100 833.0000 1.0000
44.1200 833.0000 1.0000
44.1300 862.0000 1.0000
44.1400 881.0000 1.0000
44.1500 863.0000 1.0000
44.1600 824.0000 1.0000
44.1700 874.0000 1.0000
44.1800 814.0000 1.0000
44.1900 898.0000 1.0000
44.2000 858.0000 1.0000
44.2100 829.0000 1.0000
44.2200 890.0000 1.0000
44.2300 863.0000 1.0000
44.2400 836.0000 1.0000
44.2500 849.0000 1.0000
44.2600 931.0000 1.0000
44.2700 843.0000 1.0000
44.2800 841.0000 1.0000
44.2900 824.0000 1.0000
44.3000 883.0000 1.0000
44.3100 918.0000 1.0000
44.3200 878.0000 1.0000
44.3300 847.0000 1.0000
44.3400 877.0000 1.0000
44.3500 865.0000 1.0000
44.3600 903.0000 1.0000
44.3700 889.0000 1.0000
44.3800 867.0000 1.0000
44.3900 858.0000 1.0000
44.4000 867.0000 1.0000
44.4100 890.0000 1.0000
44.4200 824.0000 1.0000
44.4300 846.0000 1.0000
44.4400 838.0000 1.0000
44.4500 832.0000 1.0000
44.4600 821.0000 1.0000
44.4700 813.0000 1.0000
44.4800 855.0000 1.0000
44.4900 917.0000 1.0000
44.5000 821.0000 1.0000
44.5100 878.0000 1.0000
44.5200 867.0000 1.0000
44.5300 869.0000 1.0000
44.5400 871.0000 1.0000
44.5500 857.0000 1.0000
44.5600 799.0000 1.0000
44.5700 816.0000 1.0000
44.5800 850.0000 1.0000
44.5900 832.0000 1.0000
44.6000 799.0000 1.0000
44.6100 855.0000 1.0000
44.6200 873.0000 1.0000
44.6300 884.0000 1.0000
44.6400 841.0000 1.0000
44.6500 884.0000 1.0000
44.6600 814.0000 1.0000
44.6700 857.0000 1.0000
44.6800 838.0000 1.0000
44.6900 821.0000 1.0000
44.7000 827.0000 1.0000
44.7100 857.0000 1.0000
44.7200 852.0000 1.0000
44.7300 859.0000 1.0000
44.7400 802.0000 1.0000
44.7500 859.0000 1.0000
44.7600 845.0000 1.0000
44.7700 874.0000 1.0000
44.7800 832.0000 1.0000
44.7900 843.0000 1.0000
44.8000 811.0000 1.0000
44.8100 813.0000 1.0000
44.8200 842.0000 1.0000
44.8300 847.0000 1.0000
44.8400 805.0000 1.0000
44.8500 831.0000 1.0000
44.8600 835.0000 1.0000
44.8700 839.0000 1.0000
44.8800 896.0000 1.0000
44.8900 843.0000 1.0000
44.9000 814.0000 1.0000
44.9100 796.0000 1.0000
44.9200 837.0000 1.0000
44.9300 816.0000 1.0000
44.9400 827.0000 1.0000
44.9500 825.0000 1.0000
44.9600 833.0000 1.0000
44.9700 833.0000 1.0000
44.9800 866.0000 1.0000
44.9900 876.0000 1.0000
45.0000 834.0000 1.0000
45.0100 869.0000 1.0000
45.0200 859.0000 1.0000
45.0300 787.0000 1.0000
45.0400 841.0000 1.0000
45.0500 836.0000 1.0000
45.0600 845.0000 1.0000
45.0700 830.0000 1.0000
45.0800 817.0000 1.0000
45.0900 848.0000 1.0000
45.1000 854.0000 1.0000
45.1100 852.0000 1.0000
45.1200 838.0000 1.0000
45.1300 856.0000 1.0000
45.1400 874.0000 1.0000
45.1500 809.0000 1.0000
45.1600 841.0000 1.0000
45.1700 809.0000 1.0000
45.1800 810.0000 1.0000
45.1900 838.0000 1.0000
45.2000 813.0000 1.0000
45.2100 836.0000 1.0000
45.2200 837.0000 1.0000
45.2300 877.0000 1.0000
45.2400 843.0000 1.0000
45.2500 855.0000 1.0000
45.2600 876.0000 1.0000
45.2700 845.0000 1.0000
45.2800 789.0000 1.0000
45.2900 798.0000 1.0000
45.3000 807.0000 1.0000
45.3100 818.0000 1.0000
45.3200 853.0000 1.0000
45.3300 856.0000 1.0000
45.3400 793.0000 1.0000
45.3500 770.0000 1.0000
45.3600 750.0000 1.0000
45.3700 837.0000 1.0000
45.3800 804.0000 1.0000
45.3900 849.0000 1.0000
45.4000 826.0000 1.0000
45.4100 812.0000 1.0000
45.4200 840.0000 1.0000
45.4300 830.0000 1.0000
45.4400 802.0000 1.0000
45.4500 860.0000 1.0000
45.4600 864.0000 1.0000
45.4700 810.0000 1.0000
45.4800 801.0000 1.0000
45.4900 809.0000 1.0000
45.5000 798.0000 1.0000
45.5100 804.0000 1.0000
45.5200 831.0000 1.0000
45.5300 779.0000 1.0000
45.5400 769.0000 1.0000
45.5500 801.0000 1.0000
45.5600 823.0000 1.0000
45.5700 896.0000 1.0000
45.5800 799.0000 1.0000
45.5900 819.0000 1.0000
45.6000 836.0000 1.0000
45.6100 842.0000 1.0000
45.6200 838.0000 1.0000
45.6300 827.0000 1.0000
45.6400 815.0000 1.0000
45.6500 825.0000 1.0000
45.6600 810.0000 1.0000
45.6700 874.0000 1.0000
45.6800 815.0000 1.0000
45.6900 815.0000 1.0000
45.7000 803.0000 1.0000
45.7100 860.0000 1.0000
45.7200 867.0000 1.0000
45.7300 816.0000 1.0000
45.7400 860.0000 1.0000
45.7500 801.0000 1.0000
45.7600 830.0000 1.0000
45.7700 808.0000 1.0000
45.7800 815.0000 1.0000
45.7900 830.0000 1.0000
45.8000 829.0000 1.0000
45.8100 837.0000 1.0000
45.8200 809.0000 1.0000
45.8300 828.0000 1.0000
45.8400 818.0000 1.0000
45.8500 837.0000 1.0000
45.8600 816.0000 1.0000
45.8700 812.0000 1.0000
45.8800 820.0000 1.0000
45.8900 777.0000 1.0000
45.9000 803.0000 1.0000
45.9100 818.0000 1.0000
45.9200 783.0000 1.0000
45.9300 831.0000 1.0000
45.9400 827.0000 1.0000
45.9500 796.0000 1.0000
45.9600 813.0000 1.0000
45.9700 827.0000 1.0000
45.9800 840.0000 1.0000
45.9900 853.0000 1.0000
46.0000 841.0000 1.0000
46.0100 763.0000 1.0000
46.0200 808.0000 1.0000
46.0300 821.0000 1.0000
46.0400 831.0000 1.0000
46.0500 835.0000 1.0000
46.0600 825.0000 1.0000
46.0700 857.0000 1.0000
46.0800 816.0000 1.0000
46.0900 833.0000 1.0000
46.1000 797.0000 1.0000
46.1100 839.0000 1.0000
46.1200 790.0000 1.0000
46.1300 766.0000 1.0000
46.1400 815.0000 1.0000
46.1500 793.0000 1.0000
46.1600 814.0000 1.0000
46.1700 831.0000 1.0000
46.1800 775.0000 1.0000
46.1900 828.0000 1.0000
46.2000 812.0000 1.0000
46.2100 816.0000 1.0000
46.2200 833.0000 1.0000
46.2300 836.0000 1.0000
46.2400 842.0000 1.0000
46.2500 854.0000 1.0000
46.2600 845.0000 1.0000
46.2700 820.0000 1.0000
46.2800 779.0000 1.0000
46.2900 783.0000 1.0000
46.3000 813.0000 1.0000
46.3100 871.0000 1.0000
46.3200 819.0000 1.0000
46.3300 816.0000 1.0000
46.3400 799.0000 1.0000
46.3500 798.0000 1.0000
46.3600 829.0000 1.0000
46.3700 778.0000 1.0000
46.3800 789.0000 1.0000
46.3900 795.0000 1.0000
46.4000 831.0000 1.0000
46.4100 812.0000 1.0000
46.4200 826.0000 1.0000
46.4300 763.0000 1.0000
46.4400 737.0000 1.0000
46.4500 778.0000 1.0000
46.4600 812.0000 1.0000
46.4700 821.0000 1.0000
46.4800 811.0000 1.0000
46.4900 832.0000 1.0000
46.5000 818.0000 1.0000
46.5100 807.0000 1.0000
46.5200 798.0000 1.0000
46.5300 809.0000 1.0000
46.5400 752.0000 1.0000
46.5500 814.0000 1.0000
46.5600 810.0000 1.0000
46.5700 832.0000 1.0000
46.5800 816.0000 1.0000
46.5900 758.0000 1.0000
46.6000 798.0000 1.0000
46.6100 838.0000 1.0000
46.6200 822.0000 1.0000
46.6300 847.0000 1.0000
46.6400 855.0000 1.0000
46.6500 835.0000 1.0000
46.6600 813.0000 1.0000
46.6700 791.0000 1.0000
46.6800 815.0000 1.0000
46.6900 794.0000 1.0000
46.7000 861.0000 1.0000
46.7100 831.0000 1.0000
46.7200 771.0000 1.0000
46.7300 799.0000 1.0000
46.7400 734.0000 1.0000
46.7500 793.0000 1.0000
46.7600 784.0000 1.0000
46.7700 827.0000 1.0000
46.7800 801.0000 1.0000
46.7900 797.0000 1.0000
46.8000 783.0000 1.0000
46.8100 822.0000 1.0000
46.8200 847.0000 1.0000
46.8300 774.0000 1.0000
46.8400 781.0000 1.0000
46.8500 814.0000 1.0000
46.8600 830.0000 1.0000
46.8700 828.0000 1.0000
46.8800 848.0000 1.0000
46.8900 810.0000 1.0000
46.9000 804.0000 1.0000
46.9100 821.0000 1.0000
46.9200 851.0000 1.0000
46.9300 797.0000 1.0000
46.9400 796.0000 1.0000
46.9500 855.0000 1.0000
46.9600 844.0000 1.0000
46.9700 794.0000 1.0000
46.9800 798.0000 1.0000
46.9900 818.0000 1.0000
47.0000 840.0000 1.0000
47.0100 847.0000 1.0000
47.0200 863.0000 1.0000
47.0300 796.0000 1.0000
47.0400 830.0000 1.0000
47.0500 867.0000 1.0000
47.0600 823.0000 1.0000
47.0700 802.0000 1.0000
47.0800 817.0000 1.0000
47.0900 818.0000 1.0000
47.1000 840.0000 1.0000
47.1100 820.0000 1.0000
47.1200 800.0000 1.0000
47.1300 749.0000 1.0000
47.1400 820.0000 1.0000
47.1500 824.0000 1.0000
47.1600 798.0000 1.0000
47.1700 764.0000 1.0000
47.1800 746.0000 1.0000
47.1900 778.0000 1.0000
47.2000 819.0000 1.0000
47.2100 796.0000 1.0000
47.2200 810.0000 1.0000
47.2300 768.0000 1.0000
47.2400 755.0000 1.0000
47.2500 814.0000 1.0000
47.2600 826.0000 1.0000
47.2700 787.0000 1.0000
47.2800 809.0000 1.0000
47.2900 763.0000 1.0000
47.3000 788.0000 1.0000
47.3100 806.0000 1.0000
47.3200 836.0000 1.0000
47.3300 821.0000 1.0000
47.3400 808.0000 1.0000
47.3500 835.0000 1.0000
47.3600 792.0000 1.0000
47.3700 801.0000 1.0000
47.3800 807.0000 1.0000
47.3900 773.0000 1.0000
47.4000 844.0000 1.0000
47.4100 806.0000 1.0000
47.4200 781.0000 1.0000
47.4300 795.0000 1.0000
47.4400 795.0000 1.0000
47.4500 777.0000 1.0000
47.4600 792.0000 1.0000
47.4700 781.0000 1.0000
47.4800 766.0000 1.0000
47.4900 756.0000 1.0000
47.5000 800.0000 1.0000
47.5100 791.0000 1.0000
47.5200 780.0000 1.0000
47.5300 749.0000 1.0000
47.5400 746.0000 1.0000
47.5500 766.0000 1.0000
47.5600 820.0000 1.0000
47.5700 783.0000 1.0000
47.5800 772.0000 1.0000
47.5900 793.0000 1.0000
47.6000 818.0000 1.0000
47.6100 745.0000 1.0000
47.6200 739.0000 1.0000
47.6300 773.0000 1.0000
47.6400 751.0000 1.0000
47.6500 771.0000 1.0000
47.6600 803.0000 1.0000
47.6700 775.0000 1.0000
47.6800 776.0000 1.0000
47.6900 790.0000 1.0000
47.7000 793.0000 1.0000
47.7100 823.0000 1.0000
47.7200 784.0000 1.0000
47.7300 765.0000 1.0000
47.7400 795.0000 1.0000
47.7500 774.0000 1.0000
47.7600 802.0000 1.0000
47.7700 791.0000 1.0000
47.7800 787.0000 1.0000
47.7900 801.0000 1.0000
47.8000 788.0000 1.0000
47.8100 770.0000 1.0000
47.8200 764.0000 1.0000
47.8300 780.0000 1.0000
47.8400 780.0000 1.0000
47.8500 817.0000 1.0000
47.8600 772.0000 1.0000
47.8700 749.0000 1.0000
47.8800 802.0000 1.0000
47.8900 831.0000 1.0000
47.9000 784.0000 1.0000
47.9100 784.0000 1.0000
47.9200 791.0000 1.0000
47.9300 753.0000 1.0000
47.9400 796.0000 1.0000
47.9500 812.0000 1.0000
47.9600 717.0000 1.0000
47.9700 803.0000 1.0000
47.9800 825.0000 1.0000
47.9900 791.0000 1.0000
48.0000 787.0000 1.0000
48.0100 779.0000 1.0000
48.0200 748.0000 1.0000
48.0300 794.0000 1.0000
48.0400 772.0000 1.0000
48.0500 784.0000 1.0000
48.0600 790.0000 1.0000
48.0700 789.0000 1.0000
48.0800 750.0000 1.0000
48.0900 743.0000 1.0000
48.1000 757.0000 1.0000
48.1100 750.0000 1.0000
48.1200 781.0000 1.0000
48.1300 774.0000 1.0000
48.1400 767.0000 1.0000
48.1500 789.0000 1.0000
48.1600 785.0000 1.0000
48.1700 791.0000 1.0000
48.1800 776.0000 1.0000
48.1900 760.0000 1.0000
48.2000 784.0000 1.0000
48.2100 773.0000 1.0000
48.2200 753.0000 1.0000
48.2300 787.0000 1.0000
48.2400 803.0000 1.0000
48.2500 741.0000 1.0000
48.2600 737.0000 1.0000
48.2700 733.0000 1.0000
48.2800 809.0000 1.0000
48.2900 798.0000 1.0000
48.3000 731.0000 1.0000
48.3100 784.0000 1.0000
48.3200 743.0000 1.0000
48.3300 799.0000 1.0000
48.3400 800.0000 1.0000
48.3500 754.0000 1.0000
48.3600 763.0000 1.0000
48.3700 759.0000 1.0000
48.3800 789.0000 1.0000
48.3900 766.0000 1.0000
48.4000 782.0000 1.0000
48.4100 789.0000 1.0000
48.4200 799.0000 1.0000
48.4300 745.0000 1.0000
48.4400 753.0000 1.0000
48.4500 783.0000 1.0000
48.4600 751.0000 1.0000
48.4700 732.0000 1.0000
48.4800 727.0000 1.0000
48.4900 790.0000 1.0000
48.5000 765.0000 1.0000
48.5100 773.0000 1.0000
48.5200 810.0000 1.0000
48.5300 795.0000 1.0000
48.5400 759.0000 1.0000
48.5500 775.0000 1.0000
48.5600 830.0000 1.0000
48.5700 775.0000 1.0000
48.5800 785.0000 1.0000
48.5900 758.0000 1.0000
48.6000 781.0000 1.0000
48.6100 817.0000 1.0000
48.6200 760.0000 1.0000
48.6300 702.0000 1.0000
48.6400 782.0000 1.0000
48.6500 789.0000 1.0000
48.6600 815.0000 1.0000
48.6700 774.0000 1.0000
48.6800 775.0000 1.0000
48.6900 771.0000 1.0000
48.7000 783.0000 1.0000
48.7100 748.0000 1.0000
48.7200 778.0000 1.0000
48.7300 759.0000 1.0000
48.7400 728.0000 1.0000
48.7500 797.0000 1.0000
48.7600 792.0000 1.0000
48.7700 784.0000 1.0000
48.7800 773.0000 1.0000
48.7900 745.0000 1.0000
48.8000 732.0000 1.0000
48.8100 748.0000 1.0000
48.8200 734.0000 1.0000
48.8300 729.0000 1.0000
48.8400 765.0000 1.0000
48.8500 758.0000 1.0000
48.8600 819.0000 1.0000
48.8700 775.0000 1.0000
48.8800 766.0000 1.0000
48.8900 744.0000 1.0000
48.9000 772.0000 1.0000
48.9100 781.0000 1.0000
48.9200 793.0000 1.0000
48.9300 757.0000 1.0000
48.9400 740.0000 1.0000
48.9500 767.0000 1.0000
48.9600 770.0000 1.0000
48.9700 752.0000 1.0000
48.9800 790.0000 1.0000
48.9900 716.0000 1.0000
49.0000 732.0000 1.0000
49.0100 718.0000 1.0000
49.0200 737.0000 1.0000
49.0300 735.0000 1.0000
49.0400 742.0000 1.0000
49.0500 732.0000 1.0000
49.0600 781.0000 1.0000
49.0700 783.0000 1.0000
49.0800 803.0000 1.0000
49.0900 760.0000 1.0000
49.1000 774.0000 1.0000
49.1100 768.0000 1.0000
49.1200 788.0000 1.0000
49.1300 762.0000 1.0000
49.1400 769.0000 1.0000
49.1500 757.0000 1.0000
49.1600 720.0000 1.0000
49.1700 752.0000 1.0000
49.1800 768.0000 1.0000
49.1900 751.0000 1.0000
49.2000 701.0000 1.0000
49.2100 729.0000 1.0000
49.2200 749.0000 1.0000
49.2300 741.0000 1.0000
49.2400 765.0000 1.0000
49.2500 751.0000 1.0000
49.2600 742.0000 1.0000
49.2700 766.0000 1.0000
49.2800 778.0000 1.0000
49.2900 729.0000 1.0000
49.3000 712.0000 1.0000
49.3100 753.0000 1.0000
49.3200 722.0000 1.0000
49.3300 751.0000 1.0000
49.3400 778.0000 1.0000
49.3500 744.0000 1.0000
49.3600 736.0000 1.0000
49.3700 732.0000 1.0000
49.3800 826.0000 1.0000
49.3900 712.0000 1.0000
49.4000 789.0000 1.0000
49.4100 712.0000 1.0000
49.4200 749.0000 1.0000
49.4300 777.0000 1.0000
49.4400 782.0000 1.0000
49.4500 755.0000 1.0000
49.4600 750.0000 1.0000
49.4700 798.0000 1.0000
49.4800 787.0000 1.0000
49.4900 778.0000 1.0000
49.5000 769.0000 1.0000
49.5100 789.0000 1.0000
49.5200 800.0000 1.0000
49.5300 770.0000 1.0000
49.5400 806.0000 1.0000
49.5500 775.0000 1.0000
49.5600 759.0000 1.0000
49.5700 760.0000 1.0000
49.5800 745.0000 1.0000
49.5900 788.0000 1.0000
49.6000 779.0000 1.0000
49.6100 775.0000 1.0000
49.6200 776.0000 1.0000
49.6300 744.0000 1.0000
49.6400 761.0000 1.0000
49.6500 730.0000 1.0000
49.6600 753.0000 1.0000
49.6700 800.0000 1.0000
49.6800 818.0000 1.0000
49.6900 767.0000 1.0000
49.7000 790.0000 1.0000
49.7100 735.0000 1.0000
49.7200 749.0000 1.0000
49.7300 795.0000 1.0000
49.7400 741.0000 1.0000
49.7500 734.0000 1.0000
49.7600 730.0000 1.0000
49.7700 747.0000 1.0000
49.7800 757.0000 1.0000
49.7900 748.0000 1.0000
49.8000 759.0000 1.0000
49.8100 771.0000 1.0000
49.8200 690.0000 1.0000
49.8300 737.0000 1.0000
49.8400 779.0000 1.0000
49.8500 772.0000 1.0000
49.8600 743.0000 1.0000
49.8700 742.0000 1.0000
49.8800 810.0000 1.0000
49.8900 786.0000 1.0000
49.9000 783.0000 1.0000
49.9100 801.0000 1.0000
49.9200 797.0000 1.0000
49.9300 758.0000 1.0000
49.9400 737.0000 1.0000
49.9500 740.0000 1.0000
49.9600 723.0000 1.0000
49.9700 768.0000 1.0000
49.9800 720.0000 1.0000
49.9900 787.0000 1.0000
50.0000 774.0000 1.0000
50.0100 778.0000 1.0000
50.0200 789.0000 1.0000
50.0300 762.0000 1.0000
50.0400 761.0000 1.0000
50.0500 822.0000 1.0000
50.0600 755.0000 1.0000
50.0700 801.0000 1.0000
50.0800 743.0000 1.0000
50.0900 755.0000 1.0000
50.1000 781.0000 1.0000
50.1100 808.0000 1.0000
50.1200 781.0000 1.0000
50.1300 758.0000 1.0000
50.1400 785.0000 1.0000
50.1500 774.0000 1.0000
50.1600 785.0000 1.0000
50.1700 778.0000 1.0000
50.1800 780.0000 1.0000
50.1900 823.0000 1.0000
50.2000 821.0000 1.0000
50.2100 791.0000 1.0000
50.2200 801.0000 1.0000
50.2300 842.0000 1.0000
50.2400 794.0000 1.0000
50.2500 836.0000 1.0000
50.2600 838.0000 1.0000
50.2700 793.0000 1.0000
50.2800 798.0000 1.0000
50.2900 824.0000 1.0000
50.3000 791.0000 1.0000
50.3100 787.0000 1.0000
50.3200 783.0000 1.0000
50.3300 764.0000 1.0000
50.3400 799.0000 1.0000
50.3500 814.0000 1.0000
50.3600 801.0000 1.0000
50.3700 829.0000 1.0000
50.3800 800.0000 1.0000
50.3900 828.0000 1.0000
50.4000 823.0000 1.0000
50.4100 829.0000 1.0000
50.4200 770.0000 1.0000
50.4300 796.0000 1.0000
50.4400 817.0000 1.0000
50.4500 801.0000 1.0000
50.4600 740.0000 1.0000
50.4700 817.0000 1.0000
50.4800 779.0000 1.0000
50.4900 811.0000 1.0000
50.5000 790.0000 1.0000
50.5100 806.0000 1.0000
50.5200 788.0000 1.0000
50.5300 784.0000 1.0000
50.5400 781.0000 1.0000
50.5500 793.0000 1.0000
50.5600 770.0000 1.0000
50.5700 798.0000 1.0000
50.5800 779.0000 1.0000
50.5900 795.0000 1.0000
50.6000 784.0000 1.0000
50.6100 750.0000 1.0000
50.6200 784.0000 1.0000
50.6300 753.0000 1.0000
50.6400 809.0000 1.0000
50.6500 773.0000 1.0000
50.6600 802.0000 1.0000
50.6700 786.0000 1.0000
50.6800 762.0000 1.0000
50.6900 819.0000 1.0000
50.7000 788.0000 1.0000
50.7100 782.0000 1.0000
50.7200 778.0000 1.0000
50.7300 750.0000 1.0000
50.7400 724.0000 1.0000
50.7500 788.0000 1.0000
50.7600 772.0000 1.0000
50.7700 761.0000 1.0000
50.7800 761.0000 1.0000
50.7900 776.0000 1.0000
50.8000 734.0000 1.0000
50.8100 758.0000 1.0000
50.8200 774.0000 1.0000
50.8300 762.0000 1.0000
50.8400 780.0000 1.0000
50.8500 756.0000 1.0000
50.8600 779.0000 1.0000
50.8700 759.0000 1.0000
50.8800 765.0000 1.0000
50.8900 774.0000 1.0000
50.9000 785.0000 1.0000
50.9100 794.0000 1.0000
50.9200 732.0000 1.0000
50.9300 766.0000 1.0000
50.9400 796.0000 1.0000
50.9500 815.0000 1.0000
50.9600 779.0000 1.0000
50.9700 802.0000 1.0000
50.9800 760.0000 1.0000
50.9900 756.0000 1.0000
51.0000 776.0000 1.0000
51.0100 786.0000 1.0000
51.0200 774.0000 1.0000
51.0300 778.0000 1.0000
51.0400 794.0000 1.0000
51.0500 790.0000 1.0000
51.0600 744.0000 1.0000
51.0700 790.0000 1.0000
51.0800 747.0000 1.0000
51.0900 764.0000 1.0000
51.1000 764.0000 1.0000
51.1100 744.0000 1.0000
51.1200 769.0000 1.0000
51.1300 773.0000 1.0000
51.1400 752.0000 1.0000
51.1500 796.0000 1.0000
51.1600 803.0000 1.0000
51.1700 784.0000 1.0000
51.1800 784.0000 1.0000
51.1900 758.0000 1.0000
51.2000 752.0000 1.0000
51.2100 757.0000 1.0000
51.2200 744.0000 1.0000
51.2300 778.0000 1.0000
51.2400 770.0000 1.0000
51.2500 797.0000 1.0000
51.2600 750.0000 1.0000
51.2700 762.0000 1.0000
51.2800 744.0000 1.0000
51.2900 738.0000 1.0000
51.3000 781.0000 1.0000
51.3100 793.0000 1.0000
51.3200 700.0000 1.0000
51.3300 824.0000 1.0000
51.3400 793.0000 1.0000
51.3500 736.0000 1.0000
51.3600 738.0000 1.0000
51.3700 772.0000 1.0000
51.3800 762.0000 1.0000
51.3900 772.0000 1.0000
51.4000 797.0000 1.0000
51.4100 807.0000 1.0000
51.4200 779.0000 1.0000
51.4300 740.0000 1.0000
51.4400 790.0000 1.0000
51.4500 783.0000 1.0000
51.4600 748.0000 1.0000
51.4700 774.0000 1.0000
51.4800 773.0000 1.0000
51.4900 737.0000 1.0000
51.5000 771.0000 1.0000
51.5100 837.0000 1.0000
51.5200 767.0000 1.0000
51.5300 764.0000 1.0000
51.5400 784.0000 1.0000
51.5500 765.0000 1.0000
51.5600 803.0000 1.0000
51.5700 809.0000 1.0000
51.5800 833.0000 1.0000
51.5900 793.0000 1.0000
51.6000 787.0000 1.0000
51.6100 785.0000 1.0000
51.6200 821.0000 1.0000
51.6300 815.0000 1.0000
51.6400 778.0000 1.0000
51.6500 805.0000 1.0000
51.6600 774.0000 1.0000
51.6700 766.0000 1.0000
51.6800 821.0000 1.0000
51.6900 841.0000 1.0000
51.7000 811.0000 1.0000
51.7100 818.0000 1.0000
51.7200 838.0000 1.0000
51.7300 816.0000 1.0000
51.7400 847.0000 1.0000
51.7500 839.0000 1.0000
51.7600 841.0000 1.0000
51.7700 896.0000 1.0000
51.7800 860.0000 1.0000
51.7900 829.0000 1.0000
51.8000 853.0000 1.0000
51.8100 880.0000 1.0000
51.8200 855.0000 1.0000
51.8300 867.0000 1.0000
51.8400 857.0000 1.0000
51.8500 883.0000 1.0000
51.8600 891.0000 1.0000
51.8700 915.0000 1.0000
51.8800 925.0000 1.0000
51.8900 967.0000 1.0000
51.9000 1008.0000 1.0000
51.9100 964.0000 1.0000
51.9200 1011.0000 1.0000
51.9300 1045.0000 1.0000
51.9400 1046.0000 1.0000
51.9500 1031.0000 1.0000
51.9600 1090.0000 1.0000
51.9700 1144.0000 1.0000
51.9800 1156.0000 1.0000
51.9900 1153.0000 1.0000
52.0000 1215.0000 1.0000
52.0100 1268.0000 1.0000
52.0200 1319.0000 1.0000
52.0300 1394.0000 1.0000
52.0400 1388.0000 1.0000
52.0500 1425.0000 1.0000
52.0600 1503.0000 1.0000
52.0700 1594.0000 1.0000
52.0800 1647.0000 1.0000
52.0900 1725.0000 1.0000
52.1000 1843.0000 1.0000
52.1100 2060.0000 1.0000
52.1200 2112.0000 1.0000
52.1300 2239.0000 1.0000
52.1400 2477.0000 1.0000
52.1500 2669.0000 1.0000
52.1600 2890.0000 1.0000
52.1700 3137.0000 1.0000
52.1800 3361.0000 1.0000
52.1900 3652.0000 1.0000
52.2000 4061.0000 1.0000
52.2100 4291.0000 1.0000
52.2200 4595.0000 1.0000
52.2300 4870.0000 1.0000
52.2400 5133.0000 1.0000
52.2500 5368.0000 1.0000
52.2600 5524.0000 1.0000
52.2700 5645.0000 1.0000
52.2800 5677.0000 1.0000
52.2900 5657.0000 1.0000
52.3000 5518.0000 1.0000
52.3100 5377.0000 1.0000
52.3200 5096.0000 1.0000
52.3300 5074.0000 1.0000
52.3400 4902.0000 1.0000
52.3500 4820.0000 1.0000
52.3600 4641.0000 1.0000
52.3700 4432.0000 1.0000
52.3800 4431.0000 1.0000
52.3900 4310.0000 1.0000
52.4000 4160.0000 1.0000
52.4100 4053.0000 1.0000
52.4200 3863.0000 1.0000
52.4300 3747.0000 1.0000
52.4400 3543.0000 1.0000
52.4500 3440.0000 1.0000
52.4600 3147.0000 1.0000
52.4700 2896.0000 1.0000
52.4800 2688.0000 1.0000
52.4900 2497.0000 1.0000
52.5000 2325.0000 1.0000
52.5100 2181.0000 1.0000
52.5200 1985.0000 1.0000
52.5300 1890.0000 1.0000
52.5400 1722.0000 1.0000
52.5500 1644.0000 1.0000
52.5600 1623.0000 1.0000
52.5700 1542.0000 1.0000
52.5800 1455.0000 1.0000
52.5900 1427.0000 1.0000
52.6000 1366.0000 1.0000
52.6100 1309.0000 1.0000
52.6200 1202.0000 1.0000
52.6300 1182.0000 1.0000
52.6400 1194.0000 1.0000
52.6500 1168.0000 1.0000
52.6600 1075.0000 1.0000
52.6700 1083.0000 1.0000
52.6800 1080.0000 1.0000
52.6900 1076.0000 1.0000
52.7000 1016.0000 1.0000
52.7100 1020.0000 1.0000
52.7200 1014.0000 1.0000
52.7300 989.0000 1.0000
52.7400 950.0000 1.0000
52.7500 952.0000 1.0000
52.7600 987.0000 1.0000
52.7700 958.0000 1.0000
52.7800 974.0000 1.0000
52.7900 945.0000 1.0000
52.8000 960.0000 1.0000
52.8100 926.0000 1.0000
52.8200 902.0000 1.0000
52.8300 855.0000 1.0000
52.8400 905.0000 1.0000
52.8500 912.0000 1.0000
52.8600 864.0000 1.0000
52.8700 861.0000 1.0000
52.8800 848.0000 1.0000
52.8900 855.0000 1.0000
52.9000 840.0000 1.0000
52.9100 790.0000 1.0000
52.9200 834.0000 1.0000
52.9300 841.0000 1.0000
52.9400 826.0000 1.0000
52.9500 851.0000 1.0000
52.9600 840.0000 1.0000
52.9700 833.0000 1.0000
52.9800 799.0000 1.0000
52.9900 806.0000 1.0000
53.0000 801.0000 1.0000
53.0100 795.0000 1.0000
53.0200 794.0000 1.0000
53.0300 839.0000 1.0000
53.0400 839.0000 1.0000
53.0500 786.0000 1.0000
53.0600 810.0000 1.0000
53.0700 811.0000 1.0000
53.0800 784.0000 1.0000
53.0900 776.0000 1.0000
53.1000 781.0000 1.0000
53.1100 826.0000 1.0000
53.1200 804.0000 1.0000
53.1300 774.0000 1.0000
53.1400 821.0000 1.0000
53.1500 745.0000 1.0000
53.1600 762.0000 1.0000
53.1700 803.0000 1.0000
53.1800 810.0000 1.0000
53.1900 756.0000 1.0000
53.2000 772.0000 1.0000
53.2100 773.0000 1.0000
53.2200 765.0000 1.0000
53.2300 795.0000 1.0000
53.2400 767.0000 1.0000
53.2500 780.0000 1.0000
53.2600 761.0000 1.0000
53.2700 748.0000 1.0000
53.2800 772.0000 1.0000
53.2900 800.0000 1.0000
53.3000 789.0000 1.0000
53.3100 737.0000 1.0000
53.3200 707.0000 1.0000
53.3300 785.0000 1.0000
53.3400 789.0000 1.0000
53.3500 763.0000 1.0000
53.3600 772.0000 1.0000
53.3700 773.0000 1.0000
53.3800 756.0000 1.0000
53.3900 761.0000 1.0000
53.4000 713.0000 1.0000
53.4100 711.0000 1.0000
53.4200 719.0000 1.0000
53.4300 750.0000 1.0000
53.4400 735.0000 1.0000
53.4500 770.0000 1.0000
53.4600 777.0000 1.0000
53.4700 783.0000 1.0000
53.4800 756.0000 1.0000
53.4900 780.0000 1.0000
53.5000 752.0000 1.0000
53.5100 746.0000 1.0000
53.5200 771.0000 1.0000
53.5300 750.0000 1.0000
53.5400 779.0000 1.0000
53.5500 781.0000 1.0000
53.5600 785.0000 1.0000
53.5700 703.0000 1.0000
53.5800 742.0000 1.0000
53.5900 734.0000 1.0000
53.6000 746.0000 1.0000
53.6100 761.0000 1.0000
53.6200 771.0000 1.0000
53.6300 764.0000 1.0000
53.6400 793.0000 1.0000
53.6500 787.0000 1.0000
53.6600 761.0000 1.0000
53.6700 756.0000 1.0000
53.6800 724.0000 1.0000
53.6900 751.0000 1.0000
53.7000 764.0000 1.0000
53.7100 739.0000 1.0000
53.7200 764.0000 1.0000
53.7300 742.0000 1.0000
53.7400 719.0000 1.0000
53.7500 788.0000 1.0000
53.7600 686.0000 1.0000
53.7700 731.0000 1.0000
53.7800 744.0000 1.0000
53.7900 741.0000 1.0000
53.8000 786.0000 1.0000
53.8100 740.0000 1.0000
53.8200 718.0000 1.0000
53.8300 721.0000 1.0000
53.8400 730.0000 1.0000
53.8500 711.0000 1.0000
53.8600 739.0000 1.0000
53.8700 752.0000 1.0000
53.8800 718.0000 1.0000
53.8900 788.0000 1.0000
53.9000 738.0000 1.0000
53.9100 767.0000 1.0000
53.9200 780.0000 1.0000
53.9300 757.0000 1.0000
53.9400 699.0000 1.0000
53.9500 742.0000 1.0000
53.9600 758.0000 1.0000
53.9700 722.0000 1.0000
53.9800 770.0000 1.0000
53.9900 756.0000 1.0000
54.0000 732.0000 1.0000
54.0100 749.0000 1.0000
54.0200 749.0000 1.0000
54.0300 765.0000 1.0000
54.0400 771.0000 1.0000
54.0500 709.0000 1.0000
54.0600 707.0000 1.0000
54.0700 716.0000 1.0000
54.0800 739.0000 1.0000
54.0900 758.0000 1.0000
54.1000 742.0000 1.0000
54.1100 723.0000 1.0000
54.1200 735.0000 1.0000
54.1300 752.0000 1.0000
54.1400 751.0000 1.0000
54.1500 750.0000 1.0000
54.1600 768.0000 1.0000
54.1700 759.0000 1.0000
54.1800 750.0000 1.0000
54.1900 765.0000 1.0000
54.2000 738.0000 1.0000
54.2100 781.0000 1.0000
54.2200 750.0000 1.0000
54.2300 727.0000 1.0000
54.2400 761.0000 1.0000
54.2500 740.0000 1.0000
54.2600 759.0000 1.0000
54.2700 839.0000 1.0000
54.2800 755.0000 1.0000
54.2900 716.0000 1.0000
54.3000 744.0000 1.0000
54.3100 775.0000 1.0000
54.3200 686.0000 1.0000
54.3300 764.0000 1.0000
54.3400 745.0000 1.0000
54.3500 754.0000 1.0000
54.3600 721.0000 1.0000
54.3700 740.0000 1.0000
54.3800 730.0000 1.0000
54.3900 701.0000 1.0000
54.4000 743.0000 1.0000
54.4100 796.0000 1.0000
54.4200 763.0000 1.0000
54.4300 754.0000 1.0000
54.4400 744.0000 1.0000
54.4500 725.0000 1.0000
54.4600 747.0000 1.0000
54.4700 734.0000 1.0000
54.4800 717.0000 1.0000
54.4900 767.0000 1.0000
54.5000 779.0000 1.0000
54.5100 773.0000 1.0000
54.5200 779.0000 1.0000
54.5300 755.0000 1.0000
54.5400 727.0000 1.0000
54.5500 767.0000 1.0000
54.5600 757.0000 1.0000
54.5700 764.0000 1.0000
54.5800 780.0000 1.0000
54.5900 754.0000 1.0000
54.6000 731.0000 1.0000
54.6100 751.0000 1.0000
54.6200 736.0000 1.0000
54.6300 776.0000 1.0000
54.6400 785.0000 1.0000
54.6500 749.0000 1.0000
54.6600 779.0000 1.0000
54.6700 781.0000 1.0000
54.6800 816.0000 1.0000
54.6900 804.0000 1.0000
54.7000 791.0000 1.0000
54.7100 813.0000 1.0000
54.7200 766.0000 1.0000
54.7300 830.0000 1.0000
54.7400 814.0000 1.0000
54.7500 825.0000 1.0000
54.7600 846.0000 1.0000
54.7700 840.0000 1.0000
54.7800 791.0000 1.0000
54.7900 829.0000 1.0000
54.8000 789.0000 1.0000
54.8100 771.0000 1.0000
54.8200 842.0000 1.0000
54.8300 801.0000 1.0000
54.8400 807.0000 1.0000
54.8500 780.0000 1.0000
54.8600 818.0000 1.0000
54.8700 833.0000 1.0000
54.8800 883.0000 1.0000
54.8900 874.0000 1.0000
54.9000 853.0000 1.0000
54.9100 820.0000 1.0000
54.9200 802.0000 1.0000
54.9300 815.0000 1.0000
54.9400 826.0000 1.0000
54.9500 834.0000 1.0000
54.9600 811.0000 1.0000
54.9700 825.0000 1.0000
54.9800 826.0000 1.0000
54.9900 819.0000 1.0000
55.0000 851.0000 1.0000
55.0100 852.0000 1.0000
55.0200 793.0000 1.0000
55.0300 856.0000 1.0000
55.0400 871.0000 1.0000
55.0500 873.0000 1.0000
55.0600 888.0000 1.0000
55.0700 837.0000 1.0000
55.0800 859.0000 1.0000
55.0900 867.0000 1.0000
55.1000 821.0000 1.0000
55.1100 919.0000 1.0000
55.1200 903.0000 1.0000
55.1300 918.0000 1.0000
55.1400 913.0000 1.0000
55.1500 936.0000 1.0000
55.1600 950.0000 1.0000
55.1700 940.0000 1.0000
55.1800 954.0000 1.0000
55.1900 985.0000 1.0000
55.2000 1023.0000 1.0000
55.2100 1016.0000 1.0000
55.2200 988.0000 1.0000
55.2300 1079.0000 1.0000
55.2400 1077.0000 1.0000
55.2500 1106.0000 1.0000
55.2600 1177.0000 1.0000
55.2700 1138.0000 1.0000
55.2800 1141.0000 1.0000
55.2900 1100.0000 1.0000
55.3000 1162.0000 1.0000
55.3100 1091.0000 1.0000
55.3200 1124.0000 1.0000
55.3300 1121.0000 1.0000
55.3400 1118.0000 1.0000
55.3500 1167.0000 1.0000
55.3600 1116.0000 1.0000
55.3700 1115.0000 1.0000
55.3800 1102.0000 1.0000
55.3900 1092.0000 1.0000
55.4000 1025.0000 1.0000
55.4100 1025.0000 1.0000
55.4200 1069.0000 1.0000
55.4300 1105.0000 1.0000
55.4400 1018.0000 1.0000
55.4500 1025.0000 1.0000
55.4600 980.0000 1.0000
55.4700 1021.0000 1.0000
55.4800 948.0000 1.0000
55.4900 960.0000 1.0000
55.5000 947.0000 1.0000
55.5100 919.0000 1.0000
55.5200 867.0000 1.0000
55.5300 901.0000 1.0000
55.5400 897.0000 1.0000
55.5500 886.0000 1.0000
55.5600 863.0000 1.0000
55.5700 877.0000 1.0000
55.5800 887.0000 1.0000
55.5900 872.0000 1.0000
55.6000 893.0000 1.0000
55.6100 849.0000 1.0000
55.6200 805.0000 1.0000
55.6300 817.0000 1.0000
55.6400 803.0000 1.0000
55.6500 808.0000 1.0000
55.6600 846.0000 1.0000
55.6700 788.0000 1.0000
55.6800 793.0000 1.0000
55.6900 787.0000 1.0000
55.7000 842.0000 1.0000
55.7100 788.0000 1.0000
55.7200 757.0000 1.0000
55.7300 782.0000 1.0000
55.7400 802.0000 1.0000
55.7500 791.0000 1.0000
55.7600 759.0000 1.0000
55.7700 776.0000 1.0000
55.7800 776.0000 1.0000
55.7900 760.0000 1.0000
55.8000 750.0000 1.0000
55.8100 759.0000 1.0000
55.8200 745.0000 1.0000
55.8300 715.0000 1.0000
55.8400 731.0000 1.0000
55.8500 752.0000 1.0000
55.8600 788.0000 1.0000
55.8700 719.0000 1.0000
55.8800 766.0000 1.0000
55.8900 770.0000 1.0000
55.9000 716.0000 1.0000
55.9100 755.0000 1.0000
55.9200 763.0000 1.0000
55.9300 734.0000 1.0000
55.9400 739.0000 1.0000
55.9500 723.0000 1.0000
55.9600 751.0000 1.0000
55.9700 718.0000 1.0000
55.9800 753.0000 1.0000
55.9900 711.0000 1.0000
56.0000 724.0000 1.0000
56.0100 761.0000 1.0000
56.0200 753.0000 1.0000
56.0300 717.0000 1.0000
56.0400 751.0000 1.0000
56.0500 737.0000 1.0000
56.0600 711.0000 1.0000
56.0700 674.0000 1.0000
56.0800 715.0000 1.0000
56.0900 723.0000 1.0000
56.1000 700.0000 1.0000
56.1100 719.0000 1.0000
56.1200 722.0000 1.0000
56.1300 729.0000 1.0000
56.1400 718.0000 1.0000
56.1500 785.0000 1.0000
56.1600 711.0000 1.0000
56.1700 688.0000 1.0000
56.1800 691.0000 1.0000
56.1900 741.0000 1.0000
56.2000 717.0000 1.0000
56.2100 708.0000 1.0000
56.2200 735.0000 1.0000
56.2300 738.0000 1.0000
56.2400 733.0000 1.0000
56.2500 735.0000 1.0000
56.2600 757.0000 1.0000
56.2700 716.0000 1.0000
56.2800 748.0000 1.0000
56.2900 710.0000 1.0000
56.3000 715.0000 1.0000
56.3100 728.0000 1.0000
56.3200 742.0000 1.0000
56.3300 725.0000 1.0000
56.3400 743.0000 1.0000
56.3500 748.0000 1.0000
56.3600 731.0000 1.0000
56.3700 756.0000 1.0000
56.3800 688.0000 1.0000
56.3900 685.0000 1.0000
56.4000 730.0000 1.0000
56.4100 718.0000 1.0000
56.4200 710.0000 1.0000
56.4300 724.0000 1.0000
56.4400 705.0000 1.0000
56.4500 772.0000 1.0000
56.4600 743.0000 1.0000
56.4700 729.0000 1.0000
56.4800 711.0000 1.0000
56.4900 734.0000 1.0000
56.5000 763.0000 1.0000
56.5100 681.0000 1.0000
56.5200 706.0000 1.0000
56.5300 766.0000 1.0000
56.5400 735.0000 1.0000
56.5500 752.0000 1.0000
56.5600 717.0000 1.0000
56.5700 732.0000 1.0000
56.5800 717.0000 1.0000
56.5900 702.0000 1.0000
56.6000 709.0000 1.0000
56.6100 710.0000 1.0000
56.6200 687.0000 1.0000
56.6300 681.0000 1.0000
56.6400 703.0000 1.0000
56.6500 706.0000 1.0000
56.6600 720.0000 1.0000
56.6700 729.0000 1.0000
56.6800 703.0000 1.0000
56.6900 769.0000 1.0000
56.7000 749.0000 1.0000
56.7100 688.0000 1.0000
56.7200 683.0000 1.0000
56.7300 669.0000 1.0000
56.7400 756.0000 1.0000
56.7500 733.0000 1.0000
56.7600 753.0000 1.0000
56.7700 694.0000 1.0000
56.7800 732.0000 1.0000
56.7900 695.0000 1.0000
56.8000 727.0000 1.0000
56.8100 721.0000 1.0000
56.8200 769.0000 1.0000
56.8300 696.0000 1.0000
56.8400 691.0000 1.0000
56.8500 719.0000 1.0000
56.8600 690.0000 1.0000
56.8700 747.0000 1.0000
56.8800 737.0000 1.0000
56.8900 706.0000 1.0000
56.9000 728.0000 1.0000
56.9100 746.0000 1.0000
56.9200 726.0000 1.0000
56.9300 722.0000 1.0000
56.9400 719.0000 1.0000
56.9500 731.0000 1.0000
56.9600 732.0000 1.0000
56.9700 707.0000 1.0000
56.9800 721.0000 1.0000
56.9900 709.0000 1.0000
57.0000 745.0000 1.0000
57.0100 773.0000 1.0000
57.0200 670.0000 1.0000
57.0300 709.0000 1.0000
57.0400 714.0000 1.0000
57.0500 712.0000 1.0000
57.0600 734.0000 1.0000
57.0700 710.0000 1.0000
57.0800 712.0000 1.0000
57.0900 713.0000 1.0000
57.1000 741.0000 1.0000
57.1100 721.0000 1.0000
57.1200 718.0000 1.0000
57.1300 715.0000 1.0000
57.1400 698.0000 1.0000
57.1500 716.0000 1.0000
57.1600 738.0000 1.0000
57.1700 676.0000 1.0000
57.1800 687.0000 1.0000
57.1900 733.0000 1.0000
57.2000 738.0000 1.0000
57.2100 697.0000 1.0000
57.2200 700.0000 1.0000
57.2300 701.0000 1.0000
57.2400 700.0000 1.0000
57.2500 675.0000 1.0000
57.2600 716.0000 1.0000
57.2700 725.0000 1.0000
57.2800 709.0000 1.0000
57.2900 670.0000 1.0000
57.3000 694.0000 1.0000
57.3100 717.0000 1.0000
57.3200 696.0000 1.0000
57.3300 751.0000 1.0000
57.3400 711.0000 1.0000
57.3500 731.0000 1.0000
57.3600 695.0000 1.0000
57.3700 686.0000 1.0000
57.3800 710.0000 1.0000
57.3900 702.0000 1.0000
57.4000 685.0000 1.0000
57.4100 715.0000 1.0000
57.4200 720.0000 1.0000
57.4300 731.0000 1.0000
57.4400 732.0000 1.0000
57.4500 697.0000 1.0000
57.4600 758.0000 1.0000
57.4700 701.0000 1.0000
57.4800 717.0000 1.0000
57.4900 701.0000 1.0000
57.5000 731.0000 1.0000
57.5100 713.0000 1.0000
57.5200 723.0000 1.0000
57.5300 711.0000 1.0000
57.5400 737.0000 1.0000
57.5500 708.0000 1.0000
57.5600 686.0000 1.0000
57.5700 711.0000 1.0000
57.5800 734.0000 1.0000
57.5900 704.0000 1.0000
57.6000 709.0000 1.0000
57.6100 711.0000 1.0000
57.6200 730.0000 1.0000
57.6300 722.0000 1.0000
57.6400 733.0000 1.0000
57.6500 723.0000 1.0000
57.6600 711.0000 1.0000
57.6700 677.0000 1.0000
57.6800 723.0000 1.0000
57.6900 726.0000 1.0000
57.7000 744.0000 1.0000
57.7100 703.0000 1.0000
57.7200 723.0000 1.0000
57.7300 712.0000 1.0000
57.7400 696.0000 1.0000
57.7500 749.0000 1.0000
57.7600 733.0000 1.0000
57.7700 716.0000 1.0000
57.7800 722.0000 1.0000
57.7900 737.0000 1.0000
57.8000 741.0000 1.0000
57.8100 712.0000 1.0000
57.8200 723.0000 1.0000
57.8300 715.0000 1.0000
57.8400 689.0000 1.0000
57.8500 715.0000 1.0000
57.8600 734.0000 1.0000
57.8700 727.0000 1.0000
57.8800 710.0000 1.0000
57.8900 695.0000 1.0000
57.9000 690.0000 1.0000
57.9100 732.0000 1.0000
57.9200 718.0000 1.0000
57.9300 706.0000 1.0000
57.9400 703.0000 1.0000
57.9500 666.0000 1.0000
57.9600 724.0000 1.0000
57.9700 743.0000 1.0000
57.9800 737.0000 1.0000
57.9900 694.0000 1.0000
58.0000 712.0000 1.0000
58.0100 703.0000 1.0000
58.0200 679.0000 1.0000
58.0300 733.0000 1.0000
58.0400 695.0000 1.0000
58.0500 724.0000 1.0000
58.0600 722.0000 1.0000
58.0700 720.0000 1.0000
58.0800 709.0000 1.0000
58.0900 681.0000 1.0000
58.1000 735.0000 1.0000
58.1100 746.0000 1.0000
58.1200 736.0000 1.0000
58.1300 743.0000 1.0000
58.1400 696.0000 1.0000
58.1500 685.0000 1.0000
58.1600 728.0000 1.0000
58.1700 711.0000 1.0000
58.1800 700.0000 1.0000
58.1900 690.0000 1.0000
58.2000 723.0000 1.0000
58.2100 756.0000 1.0000
58.2200 694.0000 1.0000
58.2300 729.0000 1.0000
58.2400 752.0000 1.0000
58.2500 712.0000 1.0000
58.2600 756.0000 1.0000
58.2700 716.0000 1.0000
58.2800 756.0000 1.0000
58.2900 752.0000 1.0000
58.3000 733.0000 1.0000
58.3100 735.0000 1.0000
58.3200 759.0000 1.0000
58.3300 702.0000 1.0000
58.3400 720.0000 1.0000
58.3500 747.0000 1.0000
58.3600 711.0000 1.0000
58.3700 713.0000 1.0000
58.3800 722.0000 1.0000
58.3900 774.0000 1.0000
58.4000 688.0000 1.0000
58.4100 758.0000 1.0000
58.4200 782.0000 1.0000
58.4300 695.0000 1.0000
58.4400 718.0000 1.0000
58.4500 728.0000 1.0000
58.4600 741.0000 1.0000
58.4700 722.0000 1.0000
58.4800 757.0000 1.0000
58.4900 732.0000 1.0000
58.5000 733.0000 1.0000
58.5100 684.0000 1.0000
58.5200 732.0000 1.0000
58.5300 753.0000 1.0000
58.5400 725.0000 1.0000
58.5500 725.0000 1.0000
58.5600 703.0000 1.0000
58.5700 705.0000 1.0000
58.5800 686.0000 1.0000
58.5900 696.0000 1.0000
58.6000 723.0000 1.0000
58.6100 741.0000 1.0000
58.6200 717.0000 1.0000
58.6300 728.0000 1.0000
58.6400 709.0000 1.0000
58.6500 719.0000 1.0000
58.6600 751.0000 1.0000
58.6700 686.0000 1.0000
58.6800 722.0000 1.0000
58.6900 732.0000 1.0000
58.7000 745.0000 1.0000
58.7100 712.0000 1.0000
58.7200 731.0000 1.0000
58.7300 747.0000 1.0000
58.7400 716.0000 1.0000
58.7500 729.0000 1.0000
58.7600 727.0000 1.0000
58.7700 702.0000 1.0000
58.7800 713.0000 1.0000
58.7900 724.0000 1.0000
58.8000 703.0000 1.0000
58.8100 752.0000 1.0000
58.8200 683.0000 1.0000
58.8300 710.0000 1.0000
58.8400 717.0000 1.0000
58.8500 687.0000 1.0000
58.8600 674.0000 1.0000
58.8700 702.0000 1.0000
58.8800 706.0000 1.0000
58.8900 705.0000 1.0000
58.9000 711.0000 1.0000
58.9100 718.0000 1.0000
58.9200 731.0000 1.0000
58.9300 744.0000 1.0000
58.9400 692.0000 1.0000
58.9500 721.0000 1.0000
58.9600 707.0000 1.0000
58.9700 768.0000 1.0000
58.9800 702.0000 1.0000
58.9900 682.0000 1.0000
59.0000 724.0000 1.0000
59.0100 710.0000 1.0000
59.0200 695.0000 1.0000
59.0300 714.0000 1.0000
59.0400 653.0000 1.0000
59.0500 703.0000 1.0000
59.0600 685.0000 1.0000
59.0700 723.0000 1.0000
59.0800 676.0000 1.0000
59.0900 731.0000 1.0000
59.1000 715.0000 1.0000
59.1100 707.0000 1.0000
59.1200 731.0000 1.0000
59.1300 710.0000 1.0000
59.1400 715.0000 1.0000
59.1500 733.0000 1.0000
59.1600 710.0000 1.0000
59.1700 695.0000 1.0000
59.1800 728.0000 1.0000
59.1900 717.0000 1.0000
59.2000 732.0000 1.0000
59.2100 642.0000 1.0000
59.2200 683.0000 1.0000
59.2300 663.0000 1.0000
59.2400 743.0000 1.0000
59.2500 704.0000 1.0000
59.2600 687.0000 1.0000
59.2700 684.0000 1.0000
59.2800 728.0000 1.0000
59.2900 734.0000 1.0000
59.3000 777.0000 1.0000
59.3100 735.0000 1.0000
59.3200 687.0000 1.0000
59.3300 731.0000 1.0000
59.3400 723.0000 1.0000
59.3500 762.0000 1.0000
59.3600 729.0000 1.0000
59.3700 709.0000 1.0000
59.3800 725.0000 1.0000
59.3900 715.0000 1.0000
59.4000 747.0000 1.0000
59.4100 708.0000 1.0000
59.4200 698.0000 1.0000
59.4300 733.0000 1.0000
59.4400 732.0000 1.0000
59.4500 701.0000 1.0000
59.4600 707.0000 1.0000
59.4700 694.0000 1.0000
59.4800 723.0000 1.0000
59.4900 726.0000 1.0000
59.5000 753.0000 1.0000
59.5100 746.0000 1.0000
59.5200 762.0000 1.0000
59.5300 693.0000 1.0000
59.5400 702.0000 1.0000
59.5500 721.0000 1.0000
59.5600 718.0000 1.0000
59.5700 736.0000 1.0000
59.5800 701.0000 1.0000
59.5900 679.0000 1.0000
59.6000 704.0000 1.0000
59.6100 694.0000 1.0000
59.6200 688.0000 1.0000
59.6300 748.0000 1.0000
59.6400 721.0000 1.0000
59.6500 696.0000 1.0000
59.6600 697.0000 1.0000
59.6700 730.0000 1.0000
59.6800 695.0000 1.0000
59.6900 727.0000 1.0000
59.7000 715.0000 1.0000
59.7100 738.0000 1.0000
59.7200 707.0000 1.0000
59.7300 738.0000 1.0000
59.7400 687.0000 1.0000
59.7500 744.0000 1.0000
59.7600 694.0000 1.0000
59.7700 719.0000 1.0000
59.7800 731.0000 1.0000
59.7900 675.0000 1.0000
59.8000 679.0000 1.0000
59.8100 698.0000 1.0000
59.8200 738.0000 1.0000
59.8300 669.0000 1.0000
59.8400 757.0000 1.0000
59.8500 685.0000 1.0000
59.8600 711.0000 1.0000
59.8700 693.0000 1.0000
59.8800 707.0000 1.0000
59.8900 659.0000 1.0000
59.9000 737.0000 1.0000
59.9100 744.0000 1.0000
59.9200 700.0000 1.0000
59.9300 719.0000 1.0000
59.9400 703.0000 1.0000
59.9500 730.0000 1.0000
59.9600 728.0000 1.0000
59.9700 693.0000 1.0000
59.9800 673.0000 1.0000
59.9900 740.0000 1.0000
60.0000 756.0000 1.0000
60.0100 733.0000 1.0000
60.0200 700.0000 1.0000
60.0300 704.0000 1.0000
60.0400 654.0000 1.0000
60.0500 704.0000 1.0000
60.0600 702.0000 1.0000
60.0700 755.0000 1.0000
60.0800 691.0000 1.0000
60.0900 713.0000 1.0000
60.1000 663.0000 1.0000
60.1100 734.0000 1.0000
60.1200 679.0000 1.0000
60.1300 737.0000 1.0000
60.1400 709.0000 1.0000
60.1500 716.0000 1.0000
60.1600 703.0000 1.0000
60.1700 728.0000 1.0000
60.1800 683.0000 1.0000
60.1900 715.0000 1.0000
60.2000 673.0000 1.0000
60.2100 713.0000 1.0000
60.2200 654.0000 1.0000
60.2300 736.0000 1.0000
60.2400 669.0000 1.0000
60.2500 669.0000 1.0000
60.2600 739.0000 1.0000
60.2700 722.0000 1.0000
60.2800 713.0000 1.0000
60.2900 688.0000 1.0000
60.3000 717.0000 1.0000
60.3100 716.0000 1.0000
60.3200 735.0000 1.0000
60.3300 690.0000 1.0000
60.3400 652.0000 1.0000
60.3500 689.0000 1.0000
60.3600 744.0000 1.0000
60.3700 737.0000 1.0000
60.3800 748.0000 1.0000
60.3900 708.0000 1.0000
60.4000 739.0000 1.0000
60.4100 726.0000 1.0000
60.4200 666.0000 1.0000
60.4300 762.0000 1.0000
60.4400 750.0000 1.0000
60.4500 744.0000 1.0000
60.4600 713.0000 1.0000
60.4700 670.0000 1.0000
60.4800 696.0000 1.0000
60.4900 713.0000 1.0000
60.5000 694.0000 1.0000
60.5100 734.0000 1.0000
60.5200 668.0000 1.0000
60.5300 701.0000 1.0000
60.5400 715.0000 1.0000
60.5500 666.0000 1.0000
60.5600 682.0000 1.0000
60.5700 758.0000 1.0000
60.5800 685.0000 1.0000
60.5900 700.0000 1.0000
60.6000 711.0000 1.0000
60.6100 719.0000 1.0000
60.6200 678.0000 1.0000
60.6300 699.0000 1.0000
60.6400 708.0000 1.0000
60.6500 737.0000 1.0000
60.6600 743.0000 1.0000
60.6700 749.0000 1.0000
60.6800 700.0000 1.0000
60.6900 683.0000 1.0000
60.7000 736.0000 1.0000
60.7100 753.0000 1.0000
60.7200 692.0000 1.0000
60.7300 701.0000 1.0000
60.7400 696.0000 1.0000
60.7500 679.0000 1.0000
60.7600 728.0000 1.0000
60.7700 727.0000 1.0000
60.7800 689.0000 1.0000
60.7900 731.0000 1.0000
60.8000 695.0000 1.0000
60.8100 699.0000 1.0000
60.8200 725.0000 1.0000
60.8300 686.0000 1.0000
60.8400 743.0000 1.0000
60.8500 670.0000 1.0000
60.8600 713.0000 1.0000
60.8700 733.0000 1.0000
60.8800 766.0000 1.0000
60.8900 691.0000 1.0000
60.9000 712.0000 1.0000
60.9100 718.0000 1.0000
60.9200 691.0000 1.0000
60.9300 701.0000 1.0000
60.9400 705.0000 1.0000
60.9500 691.0000 1.0000
60.9600 690.0000 1.0000
60.9700 676.0000 1.0000
60.9800 752.0000 1.0000
60.9900 741.0000 1.0000
61.0000 701.0000 1.0000
61.0100 705.0000 1.0000
61.0200 711.0000 1.0000
61.0300 674.0000 1.0000
61.0400 707.0000 1.0000
61.0500 733.0000 1.0000
61.0600 695.0000 1.0000
61.0700 717.0000 1.0000
61.0800 736.0000 1.0000
61.0900 732.0000 1.0000
61.1000 730.0000 1.0000
61.1100 726.0000 1.0000
61.1200 712.0000 1.0000
61.1300 699.0000 1.0000
61.1400 677.0000 1.0000
61.1500 720.0000 1.0000
61.1600 670.0000 1.0000
61.1700 710.0000 1.0000
61.1800 685.0000 1.0000
61.1900 716.0000 1.0000
61.2000 713.0000 1.0000
61.2100 707.0000 1.0000
61.2200 719.0000 1.0000
61.2300 725.0000 1.0000
61.2400 680.0000 1.0000
61.2500 711.0000 1.0000
61.2600 712.0000 1.0000
61.2700 726.0000 1.0000
61.2800 676.0000 1.0000
61.2900 695.0000 1.0000
61.3000 696.0000 1.0000
61.3100 688.0000 1.0000
61.3200 711.0000 1.0000
61.3300 709.0000 1.0000
61.3400 700.0000 1.0000
61.3500 711.0000 1.0000
61.3600 728.0000 1.0000
61.3700 750.0000 1.0000
61.3800 721.0000 1.0000
61.3900 713.0000 1.0000
61.4000 682.0000 1.0000
61.4100 728.0000 1.0000
61.4200 741.0000 1.0000
61.4300 730.0000 1.0000
61.4400 717.0000 1.0000
61.4500 714.0000 1.0000
61.4600 733.0000 1.0000
61.4700 712.0000 1.0000
61.4800 702.0000 1.0000
61.4900 729.0000 1.0000
61.5000 774.0000 1.0000
61.5100 733.0000 1.0000
61.5200 689.0000 1.0000
61.5300 731.0000 1.0000
61.5400 727.0000 1.0000
61.5500 764.0000 1.0000
61.5600 710.0000 1.0000
61.5700 723.0000 1.0000
61.5800 716.0000 1.0000
61.5900 701.0000 1.0000
61.6000 724.0000 1.0000
61.6100 705.0000 1.0000
61.6200 736.0000 1.0000
61.6300 718.0000 1.0000
61.6400 709.0000 1.0000
61.6500 721.0000 1.0000
61.6600 721.0000 1.0000
61.6700 722.0000 1.0000
61.6800 731.0000 1.0000
61.6900 735.0000 1.0000
61.7000 734.0000 1.0000
61.7100 711.0000 1.0000
61.7200 742.0000 1.0000
61.7300 727.0000 1.0000
61.7400 749.0000 1.0000
61.7500 796.0000 1.0000
61.7600 764.0000 1.0000
61.7700 738.0000 1.0000
61.7800 773.0000 1.0000
61.7900 777.0000 1.0000
61.8000 734.0000 1.0000
61.8100 742.0000 1.0000
61.8200 744.0000 1.0000
61.8300 807.0000 1.0000
61.8400 797.0000 1.0000
61.8500 737.0000 1.0000
61.8600 790.0000 1.0000
61.8700 810.0000 1.0000
61.8800 797.0000 1.0000
61.8900 771.0000 1.0000
61.9000 815.0000 1.0000
61.9100 799.0000 1.0000
61.9200 860.0000 1.0000
61.9300 822.0000 1.0000
61.9400 833.0000 1.0000
61.9500 844.0000 1.0000
61.9600 856.0000 1.0000
61.9700 926.0000 1.0000
61.9800 907.0000 1.0000
61.9900 875.0000 1.0000
62.0000 861.0000 1.0000
62.0100 914.0000 1.0000
62.0200 903.0000 1.0000
62.0300 951.0000 1.0000
62.0400 1000.0000 1.0000
62.0500 989.0000 1.0000
62.0600 993.0000 1.0000
62.0700 953.0000 1.0000
62.0800 1067.0000 1.0000
62.0900 1026.0000 1.0000
62.1000 1111.0000 1.0000
62.1100 1116.0000 1.0000
62.1200 1150.0000 1.0000
62.1300 1186.0000 1.0000
62.1400 1175.0000 1.0000
62.1500 1197.0000 1.0000
62.1600 1290.0000 1.0000
62.1700 1342.0000 1.0000
62.1800 1317.0000 1.0000
62.1900 1337.0000 1.0000
62.2000 1368.0000 1.0000
62.2100 1462.0000 1.0000
62.2200 1451.0000 1.0000
62.2300 1527.0000 1.0000
62.2400 1580.0000 1.0000
62.2500 1586.0000 1.0000
62.2600 1601.0000 1.0000
62.2700 1635.0000 1.0000
62.2800 1551.0000 1.0000
62.2900 1604.0000 1.0000
62.3000 1545.0000 1.0000
62.3100 1610.0000 1.0000
62.3200 1558.0000 1.0000
62.3300 1554.0000 1.0000
62.3400 1557.0000 1.0000
62.3500 1548.0000 1.0000
62.3600 1551.0000 1.0000
62.3700 1537.0000 1.0000
62.3800 1527.0000 1.0000
62.3900 1552.0000 1.0000
62.4000 1491.0000 1.0000
62.4100 1485.0000 1.0000
62.4200 1421.0000 1.0000
62.4300 1397.0000 1.0000
62.4400 1415.0000 1.0000
62.4500 1397.0000 1.0000
62.4600 1380.0000 1.0000
62.4700 1381.0000 1.0000
62.4800 1425.0000 1.0000
62.4900 1294.0000 1.0000
62.5000 1272.0000 1.0000
62.5100 1278.0000 1.0000
62.5200 1230.0000 1.0000
62.5300 1206.0000 1.0000
62.5400 1205.0000 1.0000
62.5500 1116.0000 1.0000
62.5600 1117.0000 1.0000
62.5700 1096.0000 1.0000
62.5800 1087.0000 1.0000
62.5900 1074.0000 1.0000
62.6000 1001.0000 1.0000
62.6100 1029.0000 1.0000
62.6200 983.0000 1.0000
62.6300 1008.0000 1.0000
62.6400 989.0000 1.0000
62.6500 973.0000 1.0000
62.6600 970.0000 1.0000
62.6700 928.0000 1.0000
62.6800 941.0000 1.0000
62.6900 940.0000 1.0000
62.7000 910.0000 1.0000
62.7100 886.0000 1.0000
62.7200 871.0000 1.0000
62.7300 895.0000 1.0000
62.7400 877.0000 1.0000
62.7500 861.0000 1.0000
62.7600 816.0000 1.0000
62.7700 850.0000 1.0000
62.7800 831.0000 1.0000
62.7900 830.0000 1.0000
62.8000 869.0000 1.0000
62.8100 834.0000 1.0000
62.8200 798.0000 1.0000
62.8300 829.0000 1.0000
62.8400 858.0000 1.0000
62.8500 859.0000 1.0000
62.8600 775.0000 1.0000
62.8700 804.0000 1.0000
62.8800 776.0000 1.0000
62.8900 776.0000 1.0000
62.9000 723.0000 1.0000
62.9100 750.0000 1.0000
62.9200 820.0000 1.0000
62.9300 834.0000 1.0000
62.9400 778.0000 1.0000
62.9500 783.0000 1.0000
62.9600 837.0000 1.0000
62.9700 783.0000 1.0000
62.9800 817.0000 1.0000
62.9900 776.0000 1.0000
63.0000 766.0000 1.0000
63.0100 762.0000 1.0000
63.0200 791.0000 1.0000
63.0300 761.0000 1.0000
63.0400 786.0000 1.0000
63.0500 788.0000 1.0000
63.0600 818.0000 1.0000
63.0700 836.0000 1.0000
63.0800 814.0000 1.0000
63.0900 784.0000 1.0000
63.1000 778.0000 1.0000
63.1100 779.0000 1.0000
63.1200 772.0000 1.0000
63.1300 803.0000 1.0000
63.1400 826.0000 1.0000
63.1500 810.0000 1.0000
63.1600 793.0000 1.0000
63.1700 809.0000 1.0000
63.1800 758.0000 1.0000
63.1900 799.0000 1.0000
63.2000 754.0000 1.0000
63.2100 776.0000 1.0000
63.2200 764.0000 1.0000
63.2300 726.0000 1.0000
63.2400 754.0000 1.0000
63.2500 743.0000 1.0000
63.2600 759.0000 1.0000
63.2700 761.0000 1.0000
63.2800 763.0000 1.0000
63.2900 753.0000 1.0000
63.3000 731.0000 1.0000
63.3100 743.0000 1.0000
63.3200 780.0000 1.0000
63.3300 731.0000 1.0000
63.3400 763.0000 1.0000
63.3500 765.0000 1.0000
63.3600 776.0000 1.0000
63.3700 723.0000 1.0000
63.3800 697.0000 1.0000
63.3900 753.0000 1.0000
63.4000 708.0000 1.0000
63.4100 716.0000 1.0000
63.4200 714.0000 1.0000
63.4300 741.0000 1.0000
63.4400 686.0000 1.0000
63.4500 737.0000 1.0000
63.4600 713.0000 1.0000
63.4700 695.0000 1.0000
63.4800 690.0000 1.0000
63.4900 703.0000 1.0000
63.5000 750.0000 1.0000
63.5100 721.0000 1.0000
63.5200 710.0000 1.0000
63.5300 708.0000 1.0000
63.5400 705.0000 1.0000
63.5500 701.0000 1.0000
63.5600 670.0000 1.0000
63.5700 676.0000 1.0000
63.5800 711.0000 1.0000
63.5900 704.0000 1.0000
63.6000 740.0000 1.0000
63.6100 714.0000 1.0000
63.6200 737.0000 1.0000
63.6300 693.0000 1.0000
63.6400 746.0000 1.0000
63.6500 705.0000 1.0000
63.6600 726.0000 1.0000
63.6700 711.0000 1.0000
63.6800 724.0000 1.0000
63.6900 705.0000 1.0000
63.7000 708.0000 1.0000
63.7100 718.0000 1.0000
63.7200 695.0000 1.0000
63.7300 709.0000 1.0000
63.7400 708.0000 1.0000
63.7500 691.0000 1.0000
63.7600 719.0000 1.0000
63.7700 722.0000 1.0000
63.7800 690.0000 1.0000
63.7900 721.0000 1.0000
63.8000 696.0000 1.0000
63.8100 710.0000 1.0000
63.8200 700.0000 1.0000
63.8300 686.0000 1.0000
63.8400 731.0000 1.0000
63.8500 760.0000 1.0000
63.8600 713.0000 1.0000
63.8700 697.0000 1.0000
63.8800 704.0000 1.0000
63.8900 678.0000 1.0000
63.9000 692.0000 1.0000
63.9100 679.0000 1.0000
63.9200 706.0000 1.0000
63.9300 704.0000 1.0000
63.9400 712.0000 1.0000
63.9500 728.0000 1.0000
63.9600 730.0000 1.0000
63.9700 707.0000 1.0000
63.9800 706.0000 1.0000
63.9900 723.0000 1.0000
64.0000 696.0000 1.0000
64.0100 736.0000 1.0000
64.0200 727.0000 1.0000
64.0300 704.0000 1.0000
64.0400 732.0000 1.0000
64.0500 725.0000 1.0000
64.0600 762.0000 1.0000
64.0700 699.0000 1.0000
64.0800 731.0000 1.0000
64.0900 719.0000 1.0000
64.1000 731.0000 1.0000
64.1100 740.0000 1.0000
64.1200 734.0000 1.0000
64.1300 681.0000 1.0000
64.1400 722.0000 1.0000
64.1500 707.0000 1.0000
64.1600 736.0000 1.0000
64.1700 741.0000 1.0000
64.1800 742.0000 1.0000
64.1900 726.0000 1.0000
64.2000 738.0000 1.0000
64.2100 720.0000 1.0000
64.2200 711.0000 1.0000
64.2300 729.0000 1.0000
64.2400 675.0000 1.0000
64.2500 690.0000 1.0000
64.2600 682.0000 1.0000
64.2700 713.0000 1.0000
64.2800 718.0000 1.0000
64.2900 735.0000 1.0000
64.3000 763.0000 1.0000
64.3100 717.0000 1.0000
64.3200 690.0000 1.0000
64.3300 737.0000 1.0000
64.3400 720.0000 1.0000
64.3500 727.0000 1.0000
64.3600 752.0000 1.0000
64.3700 759.0000 1.0000
64.3800 720.0000 1.0000
64.3900 731.0000 1.0000
64.4000 752.0000 1.0000
64.4100 757.0000 1.0000
64.4200 769.0000 1.0000
64.4300 765.0000 1.0000
64.4400 742.0000 1.0000
64.4500 744.0000 1.0000
64.4600 735.0000 1.0000
64.4700 813.0000 1.0000
64.4800 735.0000 1.0000
64.4900 754.0000 1.0000
64.5000 797.0000 1.0000
64.5100 771.0000 1.0000
64.5200 764.0000 1.0000
64.5300 803.0000 1.0000
64.5400 791.0000 1.0000
64.5500 788.0000 1.0000
64.5600 833.0000 1.0000
64.5700 819.0000 1.0000
64.5800 819.0000 1.0000
64.5900 842.0000 1.0000
64.6000 863.0000 1.0000
64.6100 869.0000 1.0000
64.6200 838.0000 1.0000
64.6300 954.0000 1.0000
64.6400 962.0000 1.0000
64.6500 958.0000 1.0000
64.6600 960.0000 1.0000
64.6700 1004.0000 1.0000
64.6800 997.0000 1.0000
64.6900 1013.0000 1.0000
64.7000 984.0000 1.0000
64.7100 957.0000 1.0000
64.7200 937.0000 1.0000
64.7300 934.0000 1.0000
64.7400 960.0000 1.0000
64.7500 898.0000 1.0000
64.7600 892.0000 1.0000
64.7700 876.0000 1.0000
64.7800 861.0000 1.0000
64.7900 888.0000 1.0000
64.8000 924.0000 1.0000
64.8100 896.0000 1.0000
64.8200 903.0000 1.0000
64.8300 874.0000 1.0000
64.8400 933.0000 1.0000
64.8500 935.0000 1.0000
64.8600 929.0000 1.0000
64.8700 879.0000 1.0000
64.8800 878.0000 1.0000
64.8900 879.0000 1.0000
64.9000 880.0000 1.0000
64.9100 851.0000 1.0000
64.9200 813.0000 1.0000
64.9300 813.0000 1.0000
64.9400 838.0000 1.0000
64.9500 813.0000 1.0000
64.9600 830.0000 1.0000
64.9700 792.0000 1.0000
64.9800 775.0000 1.0000
64.9900 768.0000 1.0000
65.0000 781.0000 1.0000
65.0100 771.0000 1.0000
65.0200 769.0000 1.0000
65.0300 782.0000 1.0000
65.0400 803.0000 1.0000
65.0500 783.0000 1.0000
65.0600 742.0000 1.0000
65.0700 771.0000 1.0000
65.0800 771.0000 1.0000
65.0900 745.0000 1.0000
65.1000 717.0000 1.0000
65.1100 783.0000 1.0000
65.1200 766.0000 1.0000
65.1300 752.0000 1.0000
65.1400 765.0000 1.0000
65.1500 794.0000 1.0000
65.1600 753.0000 1.0000
65.1700 762.0000 1.0000
65.1800 758.0000 1.0000
65.1900 747.0000 1.0000
65.2000 748.0000 1.0000
65.2100 694.0000 1.0000
65.2200 691.0000 1.0000
65.2300 744.0000 1.0000
65.2400 759.0000 1.0000
65.2500 751.0000 1.0000
65.2600 752.0000 1.0000
65.2700 747.0000 1.0000
65.2800 754.0000 1.0000
65.2900 761.0000 1.0000
65.3000 726.0000 1.0000
65.3100 763.0000 1.0000
65.3200 731.0000 1.0000
65.3300 713.0000 1.0000
65.3400 730.0000 1.0000
65.3500 753.0000 1.0000
65.3600 775.0000 1.0000
65.3700 699.0000 1.0000
65.3800 726.0000 1.0000
65.3900 765.0000 1.0000
65.4000 766.0000 1.0000
65.4100 732.0000 1.0000
65.4200 728.0000 1.0000
65.4300 735.0000 1.0000
65.4400 722.0000 1.0000
65.4500 704.0000 1.0000
65.4600 724.0000 1.0000
65.4700 727.0000 1.0000
65.4800 778.0000 1.0000
65.4900 722.0000 1.0000
65.5000 750.0000 1.0000
65.5100 715.0000 1.0000
65.5200 741.0000 1.0000
65.5300 758.0000 1.0000
65.5400 782.0000 1.0000
65.5500 790.0000 1.0000
65.5600 737.0000 1.0000
65.5700 738.0000 1.0000
65.5800 730.0000 1.0000
65.5900 759.0000 1.0000
65.6000 754.0000 1.0000
65.6100 713.0000 1.0000
65.6200 765.0000 1.0000
65.6300 769.0000 1.0000
65.6400 741.0000 1.0000
65.6500 792.0000 1.0000
65.6600 792.0000 1.0000
65.6700 764.0000 1.0000
65.6800 781.0000 1.0000
65.6900 816.0000 1.0000
65.7000 809.0000 1.0000
65.7100 750.0000 1.0000
65.7200 751.0000 1.0000
65.7300 760.0000 1.0000
65.7400 799.0000 1.0000
65.7500 794.0000 1.0000
65.7600 818.0000 1.0000
65.7700 847.0000 1.0000
65.7800 810.0000 1.0000
65.7900 814.0000 1.0000
65.8000 805.0000 1.0000
65.8100 829.0000 1.0000
65.8200 800.0000 1.0000
65.8300 883.0000 1.0000
65.8400 868.0000 1.0000
65.8500 891.0000 1.0000
65.8600 843.0000 1.0000
65.8700 875.0000 1.0000
65.8800 912.0000 1.0000
65.8900 921.0000 1.0000
65.9000 918.0000 1.0000
65.9100 926.0000 1.0000
65.9200 936.0000 1.0000
65.9300 916.0000 1.0000
65.9400 926.0000 1.0000
65.9500 975.0000 1.0000
65.9600 984.0000 1.0000
65.9700 1017.0000 1.0000
65.9800 1012.0000 1.0000
65.9900 1124.0000 1.0000
66.0000 1018.0000 1.0000
66.0100 1065.0000 1.0000
66.0200 1111.0000 1.0000
66.0300 1160.0000 1.0000
66.0400 1192.0000 1.0000
66.0500 1208.0000 1.0000
66.0600 1298.0000 1.0000
66.0700 1354.0000 1.0000
66.0800 1412.0000 1.0000
66.0900 1374.0000 1.0000
66.1000 1498.0000 1.0000
66.1100 1608.0000 1.0000
66.1200 1615.0000 1.0000
66.1300 1663.0000 1.0000
66.1400 1783.0000 1.0000
66.1500 1824.0000 1.0000
66.1600 1975.0000 1.0000
66.1700 2127.0000 1.0000
66.1800 2282.0000 1.0000
66.1900 2273.0000 1.0000
66.2000 2456.0000 1.0000
66.2100 2576.0000 1.0000
66.2200 2692.0000 1.0000
66.2300 2718.0000 1.0000
66.2400 2747.0000 1.0000
66.2500 2858.0000 1.0000
66.2600 2890.0000 1.0000
66.2700 2791.0000 1.0000
66.2800 2909.0000 1.0000
66.2900 2892.0000 1.0000
66.3000 2867.0000 1.0000
66.3100 2838.0000 1.0000
66.3200 2686.0000 1.0000
66.3300 2719.0000 1.0000
66.3400 2601.0000 1.0000
66.3500 2615.0000 1.0000
66.3600 2551.0000 1.0000
66.3700 2506.0000 1.0000
66.3800 2456.0000 1.0000
66.3900 2499.0000 1.0000
66.4000 2397.0000 1.0000
66.4100 2384.0000 1.0000
66.4200 2329.0000 1.0000
66.4300 2317.0000 1.0000
66.4400 2288.0000 1.0000
66.4500 2250.0000 1.0000
66.4600 2230.0000 1.0000
66.4700 2077.0000 1.0000
66.4800 2075.0000 1.0000
66.4900 1916.0000 1.0000
66.5000 1923.0000 1.0000
66.5100 1880.0000 1.0000
66.5200 1801.0000 1.0000
66.5300 1691.0000 1.0000
66.5400 1564.0000 1.0000
66.5500 1551.0000 1.0000
66.5600 1466.0000 1.0000
66.5700 1459.0000 1.0000
66.5800 1415.0000 1.0000
66.5900 1361.0000 1.0000
66.6000 1246.0000 1.0000
66.6100 1183.0000 1.0000
66.6200 1144.0000 1.0000
66.6300 1192.0000 1.0000
66.6400 1135.0000 1.0000
66.6500 1156.0000 1.0000
66.6600 1124.0000 1.0000
66.6700 1044.0000 1.0000
66.6800 1014.0000 1.0000
66.6900 973.0000 1.0000
66.7000 989.0000 1.0000
66.7100 950.0000 1.0000
66.7200 1008.0000 1.0000
66.7300 905.0000 1.0000
66.7400 913.0000 1.0000
66.7500 920.0000 1.0000
66.7600 949.0000 1.0000
66.7700 874.0000 1.0000
66.7800 871.0000 1.0000
66.7900 889.0000 1.0000
66.8000 845.0000 1.0000
66.8100 803.0000 1.0000
66.8200 845.0000 1.0000
66.8300 826.0000 1.0000
66.8400 828.0000 1.0000
66.8500 800.0000 1.0000
66.8600 785.0000 1.0000
66.8700 806.0000 1.0000
66.8800 807.0000 1.0000
66.8900 782.0000 1.0000
66.9000 781.0000 1.0000
66.9100 811.0000 1.0000
66.9200 770.0000 1.0000
66.9300 713.0000 1.0000
66.9400 749.0000 1.0000
66.9500 774.0000 1.0000
66.9600 721.0000 1.0000
66.9700 762.0000 1.0000
66.9800 739.0000 1.0000
66.9900 665.0000 1.0000
67.0000 729.0000 1.0000
67.0100 728.0000 1.0000
67.0200 703.0000 1.0000
67.0300 764.0000 1.0000
67.0400 738.0000 1.0000
67.0500 696.0000 1.0000
67.0600 696.0000 1.0000
67.0700 743.0000 1.0000
67.0800 753.0000 1.0000
67.0900 702.0000 1.0000
67.1000 759.0000 1.0000
67.1100 721.0000 1.0000
67.1200 697.0000 1.0000
67.1300 722.0000 1.0000
67.1400 721.0000 1.0000
67.1500 702.0000 1.0000
67.1600 707.0000 1.0000
67.1700 729.0000 1.0000
67.1800 766.0000 1.0000
67.1900 669.0000 1.0000
67.2000 683.0000 1.0000
67.2100 685.0000 1.0000
67.2200 676.0000 1.0000
67.2300 698.0000 1.0000
67.2400 722.0000 1.0000
67.2500 678.0000 1.0000
67.2600 663.0000 1.0000
67.2700 649.0000 1.0000
67.2800 692.0000 1.0000
67.2900 694.0000 1.0000
67.3000 685.0000 1.0000
67.3100 703.0000 1.0000
67.3200 685.0000 1.0000
67.3300 693.0000 1.0000
67.3400 716.0000 1.0000
67.3500 662.0000 1.0000
67.3600 685.0000 1.0000
67.3700 636.0000 1.0000
67.3800 711.0000 1.0000
67.3900 684.0000 1.0000
67.4000 710.0000 1.0000
67.4100 708.0000 1.0000
67.4200 682.0000 1.0000
67.4300 686.0000 1.0000
67.4400 620.0000 1.0000
67.4500 672.0000 1.0000
67.4600 649.0000 1.0000
67.4700 646.0000 1.0000
67.4800 650.0000 1.0000
67.4900 668.0000 1.0000
67.5000 705.0000 1.0000
67.5100 707.0000 1.0000
67.5200 621.0000 1.0000
67.5300 699.0000 1.0000
67.5400 647.0000 1.0000
67.5500 678.0000 1.0000
67.5600 676.0000 1.0000
67.5700 697.0000 1.0000
67.5800 750.0000 1.0000
67.5900 685.0000 1.0000
67.6000 621.0000 1.0000
67.6100 683.0000 1.0000
67.6200 646.0000 1.0000
67.6300 662.0000 1.0000
67.6400 677.0000 1.0000
67.6500 640.0000 1.0000
67.6600 665.0000 1.0000
67.6700 647.0000 1.0000
67.6800 694.0000 1.0000
67.6900 634.0000 1.0000
67.7000 691.0000 1.0000
67.7100 643.0000 1.0000
67.7200 655.0000 1.0000
67.7300 660.0000 1.0000
67.7400 644.0000 1.0000
67.7500 691.0000 1.0000
67.7600 635.0000 1.0000
67.7700 667.0000 1.0000
67.7800 684.0000 1.0000
67.7900 644.0000 1.0000
67.8000 661.0000 1.0000
67.8100 692.0000 1.0000
67.8200 665.0000 1.0000
67.8300 669.0000 1.0000
67.8400 667.0000 1.0000
67.8500 640.0000 1.0000
67.8600 654.0000 1.0000
67.8700 643.0000 1.0000
67.8800 643.0000 1.0000
67.8900 646.0000 1.0000
67.9000 648.0000 1.0000
67.9100 665.0000 1.0000
67.9200 685.0000 1.0000
67.9300 647.0000 1.0000
67.9400 664.0000 1.0000
67.9500 619.0000 1.0000
67.9600 657.0000 1.0000
67.9700 662.0000 1.0000
67.9800 666.0000 1.0000
67.9900 671.0000 1.0000
68.0000 666.0000 1.0000
68.0100 665.0000 1.0000
68.0200 672.0000 1.0000
68.0300 664.0000 1.0000
68.0400 687.0000 1.0000
68.0500 685.0000 1.0000
68.0600 671.0000 1.0000
68.0700 643.0000 1.0000
68.0800 671.0000 1.0000
68.0900 656.0000 1.0000
68.1000 657.0000 1.0000
68.1100 637.0000 1.0000
68.1200 650.0000 1.0000
68.1300 617.0000 1.0000
68.1400 681.0000 1.0000
68.1500 681.0000 1.0000
68.1600 629.0000 1.0000
68.1700 644.0000 1.0000
68.1800 673.0000 1.0000
68.1900 708.0000 1.0000
68.2000 652.0000 1.0000
68.2100 656.0000 1.0000
68.2200 676.0000 1.0000
68.2300 652.0000 1.0000
68.2400 649.0000 1.0000
68.2500 641.0000 1.0000
68.2600 628.0000 1.0000
68.2700 624.0000 1.0000
68.2800 597.0000 1.0000
68.2900 599.0000 1.0000
68.3000 615.0000 1.0000
68.3100 649.0000 1.0000
68.3200 666.0000 1.0000
68.3300 647.0000 1.0000
68.3400 662.0000 1.0000
68.3500 642.0000 1.0000
68.3600 646.0000 1.0000
68.3700 651.0000 1.0000
68.3800 663.0000 1.0000
68.3900 673.0000 1.0000
68.4000 676.0000 1.0000
68.4100 714.0000 1.0000
68.4200 665.0000 1.0000
68.4300 707.0000 1.0000
68.4400 643.0000 1.0000
68.4500 651.0000 1.0000
68.4600 624.0000 1.0000
68.4700 623.0000 1.0000
68.4800 643.0000 1.0000
68.4900 627.0000 1.0000
68.5000 680.0000 1.0000
68.5100 681.0000 1.0000
68.5200 659.0000 1.0000
68.5300 662.0000 1.0000
68.5400 646.0000 1.0000
68.5500 627.0000 1.0000
68.5600 657.0000 1.0000
68.5700 682.0000 1.0000
68.5800 682.0000 1.0000
68.5900 687.0000 1.0000
68.6000 643.0000 1.0000
68.6100 675.0000 1.0000
68.6200 658.0000 1.0000
68.6300 634.0000 1.0000
68.6400 647.0000 1.0000
68.6500 664.0000 1.0000
68.6600 680.0000 1.0000
68.6700 657.0000 1.0000
68.6800 641.0000 1.0000
68.6900 644.0000 1.0000
68.7000 638.0000 1.0000
68.7100 667.0000 1.0000
68.7200 652.0000 1.0000
68.7300 631.0000 1.0000
68.7400 620.0000 1.0000
68.7500 652.0000 1.0000
68.7600 631.0000 1.0000
68.7700 640.0000 1.0000
68.7800 626.0000 1.0000
68.7900 644.0000 1.0000
68.8000 613.0000 1.0000
68.8100 620.0000 1.0000
68.8200 612.0000 1.0000
68.8300 675.0000 1.0000
68.8400 647.0000 1.0000
68.8500 639.0000 1.0000
68.8600 639.0000 1.0000
68.8700 616.0000 1.0000
68.8800 628.0000 1.0000
68.8900 627.0000 1.0000
68.9000 625.0000 1.0000
68.9100 594.0000 1.0000
68.9200 635.0000 1.0000
68.9300 643.0000 1.0000
68.9400 671.0000 1.0000
68.9500 651.0000 1.0000
68.9600 684.0000 1.0000
68.9700 630.0000 1.0000
68.9800 632.0000 1.0000
68.9900 635.0000 1.0000
69.0000 629.0000 1.0000
69.0100 633.0000 1.0000
69.0200 656.0000 1.0000
69.0300 598.0000 1.0000
69.0400 624.0000 1.0000
69.0500 675.0000 1.0000
69.0600 649.0000 1.0000
69.0700 611.0000 1.0000
69.0800 613.0000 1.0000
69.0900 630.0000 1.0000
69.1000 615.0000 1.0000
69.1100 647.0000 1.0000
69.1200 663.0000 1.0000
69.1300 626.0000 1.0000
69.1400 629.0000 1.0000
69.1500 669.0000 1.0000
69.1600 663.0000 1.0000
69.1700 639.0000 1.0000
69.1800 645.0000 1.0000
69.1900 659.0000 1.0000
69.2000 616.0000 1.0000
69.2100 626.0000 1.0000
69.2200 661.0000 1.0000
69.2300 632.0000 1.0000
69.2400 640.0000 1.0000
69.2500 651.0000 1.0000
69.2600 664.0000 1.0000
69.2700 602.0000 1.0000
69.2800 647.0000 1.0000
69.2900 641.0000 1.0000
69.3000 663.0000 1.0000
69.3100 614.0000 1.0000
69.3200 627.0000 1.0000
69.3300 640.0000 1.0000
69.3400 631.0000 1.0000
69.3500 636.0000 1.0000
69.3600 600.0000 1.0000
69.3700 613.0000 1.0000
69.3800 675.0000 1.0000
69.3900 648.0000 1.0000
69.4000 666.0000 1.0000
69.4100 610.0000 1.0000
69.4200 642.0000 1.0000
69.4300 684.0000 1.0000
69.4400 628.0000 1.0000
69.4500 639.0000 1.0000
69.4600 661.0000 1.0000
69.4700 621.0000 1.0000
69.4800 613.0000 1.0000
69.4900 649.0000 1.0000
69.5000 646.0000 1.0000
69.5100 688.0000 1.0000
69.5200 646.0000 1.0000
69.5300 686.0000 1.0000
69.5400 655.0000 1.0000
69.5500 650.0000 1.0000
69.5600 641.0000 1.0000
69.5700 636.0000 1.0000
69.5800 648.0000 1.0000
69.5900 626.0000 1.0000
69.6000 616.0000 1.0000
69.6100 637.0000 1.0000
69.6200 591.0000 1.0000
69.6300 657.0000 1.0000
69.6400 611.0000 1.0000
69.6500 591.0000 1.0000
69.6600 610.0000 1.0000
69.6700 675.0000 1.0000
69.6800 619.0000 1.0000
69.6900 657.0000 1.0000
69.7000 638.0000 1.0000
69.7100 630.0000 1.0000
69.7200 632.0000 1.0000
69.7300 624.0000 1.0000
69.7400 637.0000 1.0000
69.7500 637.0000 1.0000
69.7600 615.0000 1.0000
69.7700 600.0000 1.0000
69.7800 606.0000 1.0000
69.7900 650.0000 1.0000
69.8000 653.0000 1.0000
69.8100 654.0000 1.0000
69.8200 640.0000 1.0000
69.8300 618.0000 1.0000
69.8400 645.0000 1.0000
69.8500 600.0000 1.0000
69.8600 640.0000 1.0000
69.8700 601.0000 1.0000
69.8800 618.0000 1.0000
69.8900 601.0000 1.0000
69.9000 586.0000 1.0000
69.9100 614.0000 1.0000
69.9200 601.0000 1.0000
69.9300 657.0000 1.0000
69.9400 648.0000 1.0000
69.9500 607.0000 1.0000
69.9600 621.0000 1.0000
69.9700 620.0000 1.0000
69.9800 599.0000 1.0000
69.9900 602.0000 1.0000
70.0000 614.0000 1.0000
*RAS_INT_END
*RAS_TEMPERATURE_START
*RAS_TEMPERATURE_END
*RAS_DATA_END
