*RAS_DATA_START
*RAS_HEADER_START
*DISP_FMT_X "%.2f"
*DISP_FMT_Y "%.0f"
*DISP_FULLSCALE "20175.0000000000"
*DISP_LINE_COLOR "255.0000000000"
*DISP_LINE_STYLE "0.0000000000"
*DISP_LINE_WIDTH "0.2500000000"
*DISP_NOTE "測定データ-1"
*DISP_OFFSET_Y "0.0000000000"
*DISP_PEAKSEARCH_UNIT_Y "cps"
*DISP_RANGE_BOTTOM "0.0000000000"
*DISP_RANGE_LEFT "20.0000000000"
*DISP_RANGE_LOGCUTOFF "0.0100000000"
*DISP_RANGE_RIGHT "70.0000000000"
*DISP_RANGE_TOP "20175.0000000000"
*DISP_SCALE_MODE_Y "0.0000000000"
*DISP_TAB_NAME "2θ/θ"
*DISP_TITLE_Y "強度"
*DISP_UNIT_Y "cps"
*DISP_WINDOW_NAME "MSG_MACROENGINE"
*FILE_COMMENT " "
*FILE_MD5 ""
*FILE_MEMO " "
*FILE_OPERATOR "Administrator"
*FILE_SAMPLE " "
*FILE_TYPE "RAS_RAW"
*FILE_USERGROUP "システムマネージャ"
*FILE_VERSION "1.0000000000"
*HW_ATTACHMENT_ID "ATT0025"
*HW_ATTACHMENT_NAME "標準|Standard"
*HW_COUNTER_ID-0 "CUT0025"
*HW_COUNTER_ID-1 "CUT0020"
*HW_COUNTER_ID-2 "CUT0020"
*HW_COUNTER_ID-3 "CSL0021"
*HW_COUNTER_ID-4 "CMC0021"
*HW_COUNTER_NAME-0 "D/teX Ultra|D/teX Ultra"
*HW_COUNTER_NAME-1 "None|None"
*HW_COUNTER_NAME-2 "None|None"
*HW_COUNTER_NAME-3 "BBM|BBM"
*HW_COUNTER_NAME-4 "検出器モノクロメータ|Detector monochromator"
*HW_COUNTER_SELECT_NAME "D/teX Ultra|D/teX Ultra"
*HW_GONIOMETER_ID "GON0023"
*HW_GONIOMETER_NAME "SmartLab|SmartLab"
*HW_GONIOMETER_RADIUS-0 "90.0"
*HW_GONIOMETER_RADIUS-1 "114.0"
*HW_GONIOMETER_RADIUS-2 "190.0"
*HW_GONIOMETER_RADIUS-3 "300.0"
*HW_GONIOMETER_RADIUS-4 "187.0"
*HW_GONIOMETER_RADIUS-5 "300.0"
*HW_GONIOMETER_RADIUS-6 "113.0"
*HW_GONIOMETER_RADIUS-7 "331.0"
*HW_I_OPT_ID-0 "CBO0021"
*HW_I_OPT_ID-1 "ICR0023"
*HW_I_OPT_ID-2 "ISL0021"
*HW_I_OPT_ID-3 "ISO0021"
*HW_I_OPT_ID-4 "IAD0021"
*HW_I_OPT_ID-5 "IPR0001"
*HW_I_OPT_NAME-0 "CBOユニット|CBO unit"
*HW_I_OPT_NAME-1 "標準入射光学ユニット|Standard incident optical unit"
*HW_I_OPT_NAME-2 "標準入射スリットボックス|Standard incident slit box"
*HW_I_OPT_NAME-3 "入射平行スリット|Incident parallel slit"
*HW_I_OPT_NAME-4 "長手制限スリット|Length limiting slit"
*HW_I_OPT_NAME-5 "None|None"
*HW_R_ATTENUATER_AUTOMODE "0"
*HW_R_OPT_ID-0 "RSS0021"
*HW_R_OPT_ID-1 "RCR0023"
*HW_R_OPT_ID-2 "RSO0021"
*HW_R_OPT_ID-3 "RRS0021"
*HW_R_OPT_ID-4 "ATN0021"
*HW_R_OPT_ID-5 "RFL0021"
*HW_R_OPT_ID-6 "RAD0021"
*HW_R_OPT_NAME-0 "標準受光スリットボックス1|Standard receiving slit box # 1"
*HW_R_OPT_NAME-1 "標準受光光学ユニット1|Standard receiving unit # 1"
*HW_R_OPT_NAME-2 "標準受光光学ユニット2|Standard receiving optical unit # 2"
*HW_R_OPT_NAME-3 "標準受光スリットボックス2|Standard receiving slit box # 2"
*HW_R_OPT_NAME-4 "標準アッテネータ|Standard Attenuator"
*HW_R_OPT_NAME-5 "Cu Kβ|Cu K-beta"
*HW_R_OPT_NAME-6 "調整用受光スリット|Alignment receiving slit"
*HW_SAMPLE_HOLDER_ID "SMP0023"
*HW_SAMPLE_HOLDER_NAME "標準Zステージ|Standard Z stage"
*HW_XG_CURRENT_MAX "50"
*HW_XG_CURRENT_MIN "2"
*HW_XG_CURRENT_RESOLUTION "1"
*HW_XG_CURRENT_UNIT "mA"
*HW_XG_FOCUS "1mm x 10mm"
*HW_XG_FOCUS_TYPE "Normal"
*HW_XG_ID ""
*HW_XG_NAME "3kW 封入管(ID:1200)|3kW Sealed tube(ID:1200)"
*HW_XG_TARGET_ATOMIC_NUMBER "29.0000000000"
*HW_XG_TARGET_NAME "Cu"
*HW_XG_TYPE "Hermetic"
*HW_XG_VOLTAGE_MAX "60"
*HW_XG_VOLTAGE_MIN "20"
*HW_XG_VOLTAGE_RESOLUTION "1"
*HW_XG_VOLTAGE_UNIT "kV"
*HW_XG_WATT_MAX "1.500"
*HW_XG_WATT_UNIT "kW"
*HW_XG_WAVE_LENGTH_ALPHA1 "1.540593"
*HW_XG_WAVE_LENGTH_ALPHA2 "1.544414"
*HW_XG_WAVE_LENGTH_BETA "1.392250"
*MEAS_COND_AXIS_NAME-0 "2θ/θ"
*MEAS_COND_AXIS_NAME-1 "2θ"
*MEAS_COND_AXIS_NAME-2 "ω"
*MEAS_COND_AXIS_NAME-3 "Z"
*MEAS_COND_AXIS_NAME-4 "2θ/ω"
*MEAS_COND_AXIS_NAME-5 "θs"
*MEAS_COND_AXIS_NAME-6 "θd"
*MEAS_COND_AXIS_NAME-7 "Ts"
*MEAS_COND_AXIS_NAME-8 "CBO選択スリット"
*MEAS_COND_AXIS_NAME-9 "M"
*MEAS_COND_AXIS_NAME-10 "入射平行スリット"
*MEAS_COND_AXIS_NAME-11 "入射スリット"
*MEAS_COND_AXIS_NAME-12 ""
*MEAS_COND_AXIS_NAME-13 "Zs"
*MEAS_COND_AXIS_NAME-14 "入射光学素子"
*MEAS_COND_AXIS_NAME-15 "長手制限スリット"
*MEAS_COND_AXIS_NAME-16 "センタースリット"
*MEAS_COND_AXIS_NAME-17 "フィルター"
*MEAS_COND_AXIS_NAME-18 "受光スリット1"
*MEAS_COND_AXIS_NAME-19 "受光スリット2"
*MEAS_COND_AXIS_NAME-20 "受光光学素子"
*MEAS_COND_AXIS_NAME-21 "受光平行スリット"
*MEAS_COND_AXIS_NAME-22 "調整用受光スリット"
*MEAS_COND_AXIS_NAME-23 ""
*MEAS_COND_AXIS_NAME-24 ""
*MEAS_COND_AXIS_NAME-25 "Zd"
*MEAS_COND_AXIS_NAME-26 "アッテネータ"
*MEAS_COND_AXIS_NAME-27 "検出器モノクロメータ"
*MEAS_COND_AXIS_NAME-28 "モノクロメータスリット"
*MEAS_COND_AXIS_NAME-29 "プライマリビーム"
*MEAS_COND_AXIS_NAME-30 "PHA"
*MEAS_COND_AXIS_NAME_INTERNAL-0 "TwoThetaTheta"
*MEAS_COND_AXIS_NAME_INTERNAL-1 "TwoTheta"
*MEAS_COND_AXIS_NAME_INTERNAL-2 "Omega"
*MEAS_COND_AXIS_NAME_INTERNAL-3 "Z"
*MEAS_COND_AXIS_NAME_INTERNAL-4 "TwoThetaOmega"
*MEAS_COND_AXIS_NAME_INTERNAL-5 "ThetaS"
*MEAS_COND_AXIS_NAME_INTERNAL-6 "ThetaD"
*MEAS_COND_AXIS_NAME_INTERNAL-7 "Ts"
*MEAS_COND_AXIS_NAME_INTERNAL-8 "CBO"
*MEAS_COND_AXIS_NAME_INTERNAL-9 "CBO-M"
*MEAS_COND_AXIS_NAME_INTERNAL-10 "IncidentSollerSlit"
*MEAS_COND_AXIS_NAME_INTERNAL-11 "IncidentSlitBox"
*MEAS_COND_AXIS_NAME_INTERNAL-12 "IncidentSlitBox-_Axis"
*MEAS_COND_AXIS_NAME_INTERNAL-13 "Zs"
*MEAS_COND_AXIS_NAME_INTERNAL-14 "IncidentMonochromator"
*MEAS_COND_AXIS_NAME_INTERNAL-15 "IncidentAxdSlit"
*MEAS_COND_AXIS_NAME_INTERNAL-16 "CenterSlit"
*MEAS_COND_AXIS_NAME_INTERNAL-17 "Filter"
*MEAS_COND_AXIS_NAME_INTERNAL-18 "ReceivingSlitBox1"
*MEAS_COND_AXIS_NAME_INTERNAL-19 "ReceivingSlitBox2"
*MEAS_COND_AXIS_NAME_INTERNAL-20 "ReceivingOptics"
*MEAS_COND_AXIS_NAME_INTERNAL-21 "ReceivingSollerSlit"
*MEAS_COND_AXIS_NAME_INTERNAL-22 "ReceivingAxdSlit"
*MEAS_COND_AXIS_NAME_INTERNAL-23 "ReceivingSlitBox1-_Axis"
*MEAS_COND_AXIS_NAME_INTERNAL-24 "ReceivingSlitBox2-_Axis"
*MEAS_COND_AXIS_NAME_INTERNAL-25 "ReceivingSlitBox2-Zd"
*MEAS_COND_AXIS_NAME_INTERNAL-26 "Attenuator"
*MEAS_COND_AXIS_NAME_INTERNAL-27 "CounterMonochromator"
*MEAS_COND_AXIS_NAME_INTERNAL-28 "CounterSlit"
*MEAS_COND_AXIS_NAME_INTERNAL-29 "IncidentPrimary"
*MEAS_COND_AXIS_NAME_INTERNAL-30 "PHA"
*MEAS_COND_AXIS_NAME_MAGICNO-0 "83951616.0000000000"
*MEAS_COND_AXIS_NAME_MAGICNO-1 "268632064.0000000000"
*MEAS_COND_AXIS_NAME_MAGICNO-2 "268500992.0000000000"
*MEAS_COND_AXIS_NAME_MAGICNO-3 "285278208.0000000000"
*MEAS_COND_AXIS_NAME_MAGICNO-4 "83951616.0000000000"
*MEAS_COND_AXIS_NAME_MAGICNO-5 "131072.0000000000"
*MEAS_COND_AXIS_NAME_MAGICNO-6 "131072.0000000000"
*MEAS_COND_AXIS_NAME_MAGICNO-7 "318898176.0000000000"
*MEAS_COND_AXIS_NAME_MAGICNO-8 "20971521.0000000000"
*MEAS_COND_AXIS_NAME_MAGICNO-9 "285343744.0000000000"
*MEAS_COND_AXIS_NAME_MAGICNO-10 "20971521.0000000000"
*MEAS_COND_AXIS_NAME_MAGICNO-11 "22020097.0000000000"
*MEAS_COND_AXIS_NAME_MAGICNO-12 "25165824.0000000000"
*MEAS_COND_AXIS_NAME_MAGICNO-13 "318898176.0000000000"
*MEAS_COND_AXIS_NAME_MAGICNO-14 "1.0000000000"
*MEAS_COND_AXIS_NAME_MAGICNO-15 "20971521.0000000000"
*MEAS_COND_AXIS_NAME_MAGICNO-16 "20971521.0000000000"
*MEAS_COND_AXIS_NAME_MAGICNO-17 "20971521.0000000000"
*MEAS_COND_AXIS_NAME_MAGICNO-18 "23068673.0000000000"
*MEAS_COND_AXIS_NAME_MAGICNO-19 "23068673.0000000000"
*MEAS_COND_AXIS_NAME_MAGICNO-20 "20971521.0000000000"
*MEAS_COND_AXIS_NAME_MAGICNO-21 "20971521.0000000000"
*MEAS_COND_AXIS_NAME_MAGICNO-22 "20971521.0000000000"
*MEAS_COND_AXIS_NAME_MAGICNO-23 "25165824.0000000000"
*MEAS_COND_AXIS_NAME_MAGICNO-24 "25165824.0000000000"
*MEAS_COND_AXIS_NAME_MAGICNO-25 "285343744.0000000000"
*MEAS_COND_AXIS_NAME_MAGICNO-26 "17301505.0000000000"
*MEAS_COND_AXIS_NAME_MAGICNO-27 "20971521.0000000000"
*MEAS_COND_AXIS_NAME_MAGICNO-28 "20971521.0000000000"
*MEAS_COND_AXIS_NAME_MAGICNO-29 "20971521.0000000000"
*MEAS_COND_AXIS_NAME_MAGICNO-30 "0.0000000000"
*MEAS_COND_AXIS_OFFSET-0 "-"
*MEAS_COND_AXIS_OFFSET-1 "-0.0801000000"
*MEAS_COND_AXIS_OFFSET-2 "0.1283000000"
*MEAS_COND_AXIS_OFFSET-3 "-"
*MEAS_COND_AXIS_OFFSET-4 "-"
*MEAS_COND_AXIS_OFFSET-5 "0.1283000000"
*MEAS_COND_AXIS_OFFSET-6 "-0.2084000000"
*MEAS_COND_AXIS_OFFSET-7 "-"
*MEAS_COND_AXIS_OFFSET-8 "-"
*MEAS_COND_AXIS_OFFSET-9 "-"
*MEAS_COND_AXIS_OFFSET-10 "-"
*MEAS_COND_AXIS_OFFSET-11 "-"
*MEAS_COND_AXIS_OFFSET-12 "-"
*MEAS_COND_AXIS_OFFSET-13 "-"
*MEAS_COND_AXIS_OFFSET-14 "-"
*MEAS_COND_AXIS_OFFSET-15 "-"
*MEAS_COND_AXIS_OFFSET-16 "-"
*MEAS_COND_AXIS_OFFSET-17 "-"
*MEAS_COND_AXIS_OFFSET-18 "-"
*MEAS_COND_AXIS_OFFSET-19 "-"
*MEAS_COND_AXIS_OFFSET-20 "-"
*MEAS_COND_AXIS_OFFSET-21 "-"
*MEAS_COND_AXIS_OFFSET-22 "-"
*MEAS_COND_AXIS_OFFSET-23 "-"
*MEAS_COND_AXIS_OFFSET-24 "-"
*MEAS_COND_AXIS_OFFSET-25 "-"
*MEAS_COND_AXIS_OFFSET-26 "-"
*MEAS_COND_AXIS_OFFSET-27 "-"
*MEAS_COND_AXIS_OFFSET-28 "-"
*MEAS_COND_AXIS_OFFSET-29 "-"
*MEAS_COND_AXIS_OFFSET-30 "-"
*MEAS_COND_AXIS_POSITION-0 "0.0000000000"
*MEAS_COND_AXIS_POSITION-1 "0.0000000000"
*MEAS_COND_AXIS_POSITION-2 "0.0000000000"
*MEAS_COND_AXIS_POSITION-3 "-2.9935200000"
*MEAS_COND_AXIS_POSITION-4 "0.0000000000"
*MEAS_COND_AXIS_POSITION-5 "0.0000000000"
*MEAS_COND_AXIS_POSITION-6 "0.0000000000"
*MEAS_COND_AXIS_POSITION-7 "-0.4278800000"
*MEAS_COND_AXIS_POSITION-8 "BB"
*MEAS_COND_AXIS_POSITION-9 "0.0000000000"
*MEAS_COND_AXIS_POSITION-10 "Soller_slit_5.0deg"
*MEAS_COND_AXIS_POSITION-11 "2/3deg"
*MEAS_COND_AXIS_POSITION-12 "2.2088000000"
*MEAS_COND_AXIS_POSITION-13 "-1.0609400000"
*MEAS_COND_AXIS_POSITION-14 "0.0000000000"
*MEAS_COND_AXIS_POSITION-15 "10.0mm"
*MEAS_COND_AXIS_POSITION-16 "None"
*MEAS_COND_AXIS_POSITION-17 "Cu_K-beta"
*MEAS_COND_AXIS_POSITION-18 "13.000mm"
*MEAS_COND_AXIS_POSITION-19 "13.000mm"
*MEAS_COND_AXIS_POSITION-20 "No_unit"
*MEAS_COND_AXIS_POSITION-21 "Soller_slit_5.0deg"
*MEAS_COND_AXIS_POSITION-22 "None"
*MEAS_COND_AXIS_POSITION-23 "13.0000000000"
*MEAS_COND_AXIS_POSITION-24 "13.0000000000"
*MEAS_COND_AXIS_POSITION-25 "0.0081300000"
*MEAS_COND_AXIS_POSITION-26 "Open"
*MEAS_COND_AXIS_POSITION-27 "None"
*MEAS_COND_AXIS_POSITION-28 "None"
*MEAS_COND_AXIS_POSITION-29 "None"
*MEAS_COND_AXIS_POSITION-30 "38.0000000000"
*MEAS_COND_AXIS_UNIT-0 "deg"
*MEAS_COND_AXIS_UNIT-1 "deg"
*MEAS_COND_AXIS_UNIT-2 "deg"
*MEAS_COND_AXIS_UNIT-3 "mm"
*MEAS_COND_AXIS_UNIT-4 "deg"
*MEAS_COND_AXIS_UNIT-5 "deg"
*MEAS_COND_AXIS_UNIT-6 "deg"
*MEAS_COND_AXIS_UNIT-7 "mm"
*MEAS_COND_AXIS_UNIT-8 ""
*MEAS_COND_AXIS_UNIT-9 "pulse"
*MEAS_COND_AXIS_UNIT-10 ""
*MEAS_COND_AXIS_UNIT-11 ""
*MEAS_COND_AXIS_UNIT-12 "mm"
*MEAS_COND_AXIS_UNIT-13 "mm"
*MEAS_COND_AXIS_UNIT-14 ""
*MEAS_COND_AXIS_UNIT-15 ""
*MEAS_COND_AXIS_UNIT-16 ""
*MEAS_COND_AXIS_UNIT-17 ""
*MEAS_COND_AXIS_UNIT-18 ""
*MEAS_COND_AXIS_UNIT-19 ""
*MEAS_COND_AXIS_UNIT-20 ""
*MEAS_COND_AXIS_UNIT-21 ""
*MEAS_COND_AXIS_UNIT-22 ""
*MEAS_COND_AXIS_UNIT-23 "mm"
*MEAS_COND_AXIS_UNIT-24 "mm"
*MEAS_COND_AXIS_UNIT-25 "mm"
*MEAS_COND_AXIS_UNIT-26 ""
*MEAS_COND_AXIS_UNIT-27 ""
*MEAS_COND_AXIS_UNIT-28 ""
*MEAS_COND_AXIS_UNIT-29 ""
*MEAS_COND_AXIS_UNIT-30 "div"
*MEAS_COND_COUNTER_CNTLOSS_CORR "0.0000000000"
*MEAS_COND_COUNTER_PHABASE "38.0000000000"
*MEAS_COND_COUNTER_PHAWINDOW "16.0000000000"
*MEAS_COND_COUNTER_PHA_UNIT "div"
*MEAS_COND_COUNTER_TAUDIFF "30.0000000000"
*MEAS_COND_COUNTER_TAUINT "0.0000000000"
*MEAS_COND_IRRADIATION_MODE "OFF"
*MEAS_COND_IRRADIATION_WIDTH ""
*MEAS_COND_OPT_ATTR "集中法"
*MEAS_COND_OPT_NAME "@集中法"
*MEAS_COND_UNSYMMETRIC_MODE "OFF"
*MEAS_COND_XG_CURRENT "30.0000000000"
*MEAS_COND_XG_VOLTAGE "40.0000000000"
*MEAS_COND_XG_WAVE_TYPE "Ka"
*MEAS_DATA_COUNT "5001.0000000000"
*MEAS_SCAN_AXIS_X "2θ/θ"
*MEAS_SCAN_AXIS_X_INTERNAL "TwoThetaTheta"
*MEAS_SCAN_END_TIME "07/20/22 15:24:59"
*MEAS_SCAN_MODE "CONTINUOUS"
*MEAS_SCAN_MONITOR "0"
*MEAS_SCAN_RESOLUTION_X "0.0002"
*MEAS_SCAN_SPEED "2.5"
*MEAS_SCAN_SPEED_UNIT "deg/min"
*MEAS_SCAN_START "20.0000000000"
*MEAS_SCAN_START_TIME "07/20/22 15:03:36"
*MEAS_SCAN_STEP "0.0100000000"
*MEAS_SCAN_STOP "70.0000000000"
*MEAS_SCAN_UNIT_X "deg"
*MEAS_SCAN_UNIT_Y "counts"
*RAS_HEADER_END
*RAS_INT_START
20.0000 1013.0000 1.0000
20.0100 1029.0000 1.0000
20.0200 1066.0000 1.0000
20.0300 1037.0000 1.0000
20.0400 1019.0000 1.0000
20.0500 1040.0000 1.0000
20.0600 1034.0000 1.0000
20.0700 1069.0000 1.0000
20.0800 1007.0000 1.0000
20.0900 1054.0000 1.0000
20.1000 1070.0000 1.0000
20.1100 1045.0000 1.0000
20.1200 1066.0000 1.0000
20.1300 1099.0000 1.0000
20.1400 1072.0000 1.0000
20.1500 1113.0000 1.0000
20.1600 1070.0000 1.0000
20.1700 1017.0000 1.0000
20.1800 1071.0000 1.0000
20.1900 1103.0000 1.0000
20.2000 1091.0000 1.0000
20.2100 1077.0000 1.0000
20.2200 1075.0000 1.0000
20.2300 1035.0000 1.0000
20.2400 1111.0000 1.0000
20.2500 1051.0000 1.0000
20.2600 1021.0000 1.0000
20.2700 1035.0000 1.0000
20.2800 1061.0000 1.0000
20.2900 1068.0000 1.0000
20.3000 1058.0000 1.0000
20.3100 1073.0000 1.0000
20.3200 1077.0000 1.0000
20.3300 1116.0000 1.0000
20.3400 1118.0000 1.0000
20.3500 1052.0000 1.0000
20.3600 1113.0000 1.0000
20.3700 1105.0000 1.0000
20.3800 1052.0000 1.0000
20.3900 1073.0000 1.0000
20.4000 1056.0000 1.0000
20.4100 1086.0000 1.0000
20.4200 1003.0000 1.0000
20.4300 1028.0000 1.0000
20.4400 1042.0000 1.0000
20.4500 1108.0000 1.0000
20.4600 1085.0000 1.0000
20.4700 1031.0000 1.0000
20.4800 988.0000 1.0000
20.4900 989.0000 1.0000
20.5000 1053.0000 1.0000
20.5100 1063.0000 1.0000
20.5200 1055.0000 1.0000
20.5300 1082.0000 1.0000
20.5400 1029.0000 1.0000
20.5500 1044.0000 1.0000
20.5600 1064.0000 1.0000
20.5700 1043.0000 1.0000
20.5800 1067.0000 1.0000
20.5900 1059.0000 1.0000
20.6000 1047.0000 1.0000
20.6100 1011.0000 1.0000
20.6200 1090.0000 1.0000
20.6300 1039.0000 1.0000
20.6400 1069.0000 1.0000
20.6500 1085.0000 1.0000
20.6600 1044.0000 1.0000
20.6700 1073.0000 1.0000
20.6800 1076.0000 1.0000
20.6900 1095.0000 1.0000
20.7000 1011.0000 1.0000
20.7100 1012.0000 1.0000
20.7200 1076.0000 1.0000
20.7300 1061.0000 1.0000
20.7400 1068.0000 1.0000
20.7500 1041.0000 1.0000
20.7600 1032.0000 1.0000
20.7700 1058.0000 1.0000
20.7800 1045.0000 1.0000
20.7900 1038.0000 1.0000
20.8000 1030.0000 1.0000
20.8100 1069.0000 1.0000
20.8200 1071.0000 1.0000
20.8300 1080.0000 1.0000
20.8400 1038.0000 1.0000
20.8500 1048.0000 1.0000
20.8600 1073.0000 1.0000
20.8700 1085.0000 1.0000
20.8800 1116.0000 1.0000
20.8900 1085.0000 1.0000
20.9000 1073.0000 1.0000
20.9100 1080.0000 1.0000
20.9200 1068.0000 1.0000
20.9300 1051.0000 1.0000
20.9400 1059.0000 1.0000
20.9500 1015.0000 1.0000
20.9600 1063.0000 1.0000
20.9700 1082.0000 1.0000
20.9800 1069.0000 1.0000
20.9900 1066.0000 1.0000
21.0000 1087.0000 1.0000
21.0100 1069.0000 1.0000
21.0200 1017.0000 1.0000
21.0300 1055.0000 1.0000
21.0400 1042.0000 1.0000
21.0500 1028.0000 1.0000
21.0600 1041.0000 1.0000
21.0700 1070.0000 1.0000
21.0800 1062.0000 1.0000
21.0900 1035.0000 1.0000
21.1000 1065.0000 1.0000
21.1100 1044.0000 1.0000
21.1200 1024.0000 1.0000
21.1300 1072.0000 1.0000
21.1400 1026.0000 1.0000
21.1500 994.0000 1.0000
21.1600 1058.0000 1.0000
21.1700 1038.0000 1.0000
21.1800 1044.0000 1.0000
21.1900 1012.0000 1.0000
21.2000 1055.0000 1.0000
21.2100 1033.0000 1.0000
21.2200 1043.0000 1.0000
21.2300 1026.0000 1.0000
21.2400 1090.0000 1.0000
21.2500 1032.0000 1.0000
21.2600 1048.0000 1.0000
21.2700 1034.0000 1.0000
21.2800 1032.0000 1.0000
21.2900 1009.0000 1.0000
21.3000 1087.0000 1.0000
21.3100 1004.0000 1.0000
21.3200 1084.0000 1.0000
21.3300 1091.0000 1.0000
21.3400 1039.0000 1.0000
21.3500 1086.0000 1.0000
21.3600 1045.0000 1.0000
21.3700 1025.0000 1.0000
21.3800 1095.0000 1.0000
21.3900 1045.0000 1.0000
21.4000 1056.0000 1.0000
21.4100 983.0000 1.0000
21.4200 1075.0000 1.0000
21.4300 1050.0000 1.0000
21.4400 1046.0000 1.0000
21.4500 1006.0000 1.0000
21.4600 1012.0000 1.0000
21.4700 1043.0000 1.0000
21.4800 1015.0000 1.0000
21.4900 997.0000 1.0000
21.5000 1059.0000 1.0000
21.5100 1034.0000 1.0000
21.5200 1025.0000 1.0000
21.5300 1083.0000 1.0000
21.5400 1076.0000 1.0000
21.5500 1036.0000 1.0000
21.5600 1045.0000 1.0000
21.5700 1046.0000 1.0000
21.5800 990.0000 1.0000
21.5900 1028.0000 1.0000
21.6000 1045.0000 1.0000
21.6100 1007.0000 1.0000
21.6200 1033.0000 1.0000
21.6300 1058.0000 1.0000
21.6400 1052.0000 1.0000
21.6500 1056.0000 1.0000
21.6600 1070.0000 1.0000
21.6700 1055.0000 1.0000
21.6800 1045.0000 1.0000
21.6900 1065.0000 1.0000
21.7000 1047.0000 1.0000
21.7100 1028.0000 1.0000
21.7200 1003.0000 1.0000
21.7300 1055.0000 1.0000
21.7400 1014.0000 1.0000
21.7500 1004.0000 1.0000
21.7600 1103.0000 1.0000
21.7700 1028.0000 1.0000
21.7800 1027.0000 1.0000
21.7900 1022.0000 1.0000
21.8000 986.0000 1.0000
21.8100 1089.0000 1.0000
21.8200 1021.0000 1.0000
21.8300 1056.0000 1.0000
21.8400 1028.0000 1.0000
21.8500 1049.0000 1.0000
21.8600 1033.0000 1.0000
21.8700 1033.0000 1.0000
21.8800 1094.0000 1.0000
21.8900 1034.0000 1.0000
21.9000 1088.0000 1.0000
21.9100 1071.0000 1.0000
21.9200 1056.0000 1.0000
21.9300 1030.0000 1.0000
21.9400 1041.0000 1.0000
21.9500 1060.0000 1.0000
21.9600 1026.0000 1.0000
21.9700 1046.0000 1.0000
21.9800 1046.0000 1.0000
21.9900 1073.0000 1.0000
22.0000 1046.0000 1.0000
22.0100 1018.0000 1.0000
22.0200 1014.0000 1.0000
22.0300 1038.0000 1.0000
22.0400 1059.0000 1.0000
22.0500 1052.0000 1.0000
22.0600 1029.0000 1.0000
22.0700 1031.0000 1.0000
22.0800 1031.0000 1.0000
22.0900 1024.0000 1.0000
22.1000 989.0000 1.0000
22.1100 1016.0000 1.0000
22.1200 1010.0000 1.0000
22.1300 989.0000 1.0000
22.1400 1078.0000 1.0000
22.1500 1047.0000 1.0000
22.1600 1017.0000 1.0000
22.1700 1016.0000 1.0000
22.1800 1035.0000 1.0000
22.1900 1056.0000 1.0000
22.2000 1052.0000 1.0000
22.2100 997.0000 1.0000
22.2200 1024.0000 1.0000
22.2300 1030.0000 1.0000
22.2400 1083.0000 1.0000
22.2500 1075.0000 1.0000
22.2600 1023.0000 1.0000
22.2700 985.0000 1.0000
22.2800 1050.0000 1.0000
22.2900 1051.0000 1.0000
22.3000 1034.0000 1.0000
22.3100 1009.0000 1.0000
22.3200 994.0000 1.0000
22.3300 1052.0000 1.0000
22.3400 986.0000 1.0000
22.3500 985.0000 1.0000
22.3600 989.0000 1.0000
22.3700 1013.0000 1.0000
22.3800 1068.0000 1.0000
22.3900 1060.0000 1.0000
22.4000 1061.0000 1.0000
22.4100 1016.0000 1.0000
22.4200 1068.0000 1.0000
22.4300 1029.0000 1.0000
22.4400 1042.0000 1.0000
22.4500 1000.0000 1.0000
22.4600 1059.0000 1.0000
22.4700 1048.0000 1.0000
22.4800 1033.0000 1.0000
22.4900 1010.0000 1.0000
22.5000 1021.0000 1.0000
22.5100 987.0000 1.0000
22.5200 1023.0000 1.0000
22.5300 1057.0000 1.0000
22.5400 1033.0000 1.0000
22.5500 1029.0000 1.0000
22.5600 1087.0000 1.0000
22.5700 1031.0000 1.0000
22.5800 1043.0000 1.0000
22.5900 1010.0000 1.0000
22.6000 1028.0000 1.0000
22.6100 1035.0000 1.0000
22.6200 1035.0000 1.0000
22.6300 1037.0000 1.0000
22.6400 1057.0000 1.0000
22.6500 969.0000 1.0000
22.6600 998.0000 1.0000
22.6700 1064.0000 1.0000
22.6800 1039.0000 1.0000
22.6900 1032.0000 1.0000
22.7000 1059.0000 1.0000
22.7100 1073.0000 1.0000
22.7200 1047.0000 1.0000
22.7300 1012.0000 1.0000
22.7400 1039.0000 1.0000
22.7500 1004.0000 1.0000
22.7600 1029.0000 1.0000
22.7700 1010.0000 1.0000
22.7800 1090.0000 1.0000
22.7900 1014.0000 1.0000
22.8000 1028.0000 1.0000
22.8100 1061.0000 1.0000
22.8200 1099.0000 1.0000
22.8300 1098.0000 1.0000
22.8400 980.0000 1.0000
22.8500 1022.0000 1.0000
22.8600 1016.0000 1.0000
22.8700 983.0000 1.0000
22.8800 1019.0000 1.0000
22.8900 1008.0000 1.0000
22.9000 1046.0000 1.0000
22.9100 1052.0000 1.0000
22.9200 1033.0000 1.0000
22.9300 1077.0000 1.0000
22.9400 1056.0000 1.0000
22.9500 1040.0000 1.0000
22.9600 1034.0000 1.0000
22.9700 1035.0000 1.0000
22.9800 1054.0000 1.0000
22.9900 1011.0000 1.0000
23.0000 1046.0000 1.0000
23.0100 1016.0000 1.0000
23.0200 1000.0000 1.0000
23.0300 1030.0000 1.0000
23.0400 975.0000 1.0000
23.0500 1011.0000 1.0000
23.0600 1018.0000 1.0000
23.0700 1013.0000 1.0000
23.0800 990.0000 1.0000
23.0900 1036.0000 1.0000
23.1000 938.0000 1.0000
23.1100 1011.0000 1.0000
23.1200 1038.0000 1.0000
23.1300 1031.0000 1.0000
23.1400 1023.0000 1.0000
23.1500 1009.0000 1.0000
23.1600 969.0000 1.0000
23.1700 1019.0000 1.0000
23.1800 1017.0000 1.0000
23.1900 1032.0000 1.0000
23.2000 1041.0000 1.0000
23.2100 1026.0000 1.0000
23.2200 986.0000 1.0000
23.2300 1034.0000 1.0000
23.2400 1008.0000 1.0000
23.2500 953.0000 1.0000
23.2600 988.0000 1.0000
23.2700 1006.0000 1.0000
23.2800 1013.0000 1.0000
23.2900 1010.0000 1.0000
23.3000 1046.0000 1.0000
23.3100 1023.0000 1.0000
23.3200 1020.0000 1.0000
23.3300 1044.0000 1.0000
23.3400 997.0000 1.0000
23.3500 993.0000 1.0000
23.3600 1007.0000 1.0000
23.3700 1042.0000 1.0000
23.3800 1043.0000 1.0000
23.3900 1024.0000 1.0000
23.4000 1042.0000 1.0000
23.4100 993.0000 1.0000
23.4200 1011.0000 1.0000
23.4300 995.0000 1.0000
23.4400 1028.0000 1.0000
23.4500 1058.0000 1.0000
23.4600 1071.0000 1.0000
23.4700 1026.0000 1.0000
23.4800 1005.0000 1.0000
23.4900 1017.0000 1.0000
23.5000 1039.0000 1.0000
23.5100 1013.0000 1.0000
23.5200 1011.0000 1.0000
23.5300 977.0000 1.0000
23.5400 990.0000 1.0000
23.5500 1007.0000 1.0000
23.5600 1035.0000 1.0000
23.5700 1038.0000 1.0000
23.5800 982.0000 1.0000
23.5900 1002.0000 1.0000
23.6000 998.0000 1.0000
23.6100 1073.0000 1.0000
23.6200 1061.0000 1.0000
23.6300 1011.0000 1.0000
23.6400 1039.0000 1.0000
23.6500 982.0000 1.0000
23.6600 987.0000 1.0000
23.6700 1013.0000 1.0000
23.6800 1012.0000 1.0000
23.6900 1016.0000 1.0000
23.7000 1076.0000 1.0000
23.7100 1055.0000 1.0000
23.7200 1052.0000 1.0000
23.7300 1049.0000 1.0000
23.7400 1012.0000 1.0000
23.7500 1029.0000 1.0000
23.7600 1019.0000 1.0000
23.7700 1060.0000 1.0000
23.7800 1064.0000 1.0000
23.7900 1048.0000 1.0000
23.8000 1009.0000 1.0000
23.8100 1057.0000 1.0000
23.8200 1002.0000 1.0000
23.8300 1023.0000 1.0000
23.8400 1043.0000 1.0000
23.8500 1047.0000 1.0000
23.8600 1019.0000 1.0000
23.8700 1030.0000 1.0000
23.8800 1074.0000 1.0000
23.8900 1036.0000 1.0000
23.9000 1076.0000 1.0000
23.9100 1080.0000 1.0000
23.9200 1057.0000 1.0000
23.9300 1041.0000 1.0000
23.9400 1060.0000 1.0000
23.9500 1024.0000 1.0000
23.9600 1080.0000 1.0000
23.9700 1084.0000 1.0000
23.9800 1100.0000 1.0000
23.9900 1088.0000 1.0000
24.0000 1115.0000 1.0000
24.0100 1135.0000 1.0000
24.0200 1126.0000 1.0000
24.0300 1115.0000 1.0000
24.0400 1108.0000 1.0000
24.0500 1151.0000 1.0000
24.0600 1160.0000 1.0000
24.0700 1164.0000 1.0000
24.0800 1134.0000 1.0000
24.0900 1176.0000 1.0000
24.1000 1140.0000 1.0000
24.1100 1132.0000 1.0000
24.1200 1192.0000 1.0000
24.1300 1160.0000 1.0000
24.1400 1118.0000 1.0000
24.1500 1091.0000 1.0000
24.1600 1093.0000 1.0000
24.1700 1054.0000 1.0000
24.1800 1083.0000 1.0000
24.1900 1077.0000 1.0000
24.2000 1047.0000 1.0000
24.2100 1095.0000 1.0000
24.2200 1055.0000 1.0000
24.2300 1017.0000 1.0000
24.2400 1022.0000 1.0000
24.2500 1031.0000 1.0000
24.2600 1008.0000 1.0000
24.2700 1019.0000 1.0000
24.2800 1054.0000 1.0000
24.2900 1079.0000 1.0000
24.3000 1109.0000 1.0000
24.3100 1054.0000 1.0000
24.3200 998.0000 1.0000
24.3300 1031.0000 1.0000
24.3400 1014.0000 1.0000
24.3500 1072.0000 1.0000
24.3600 1026.0000 1.0000
24.3700 1048.0000 1.0000
24.3800 1043.0000 1.0000
24.3900 1021.0000 1.0000
24.4000 1073.0000 1.0000
24.4100 1050.0000 1.0000
24.4200 1021.0000 1.0000
24.4300 1051.0000 1.0000
24.4400 986.0000 1.0000
24.4500 1049.0000 1.0000
24.4600 1013.0000 1.0000
24.4700 1025.0000 1.0000
24.4800 1030.0000 1.0000
24.4900 1008.0000 1.0000
24.5000 1001.0000 1.0000
24.5100 1001.0000 1.0000
24.5200 1021.0000 1.0000
24.5300 1016.0000 1.0000
24.5400 1014.0000 1.0000
24.5500 1029.0000 1.0000
24.5600 941.0000 1.0000
24.5700 1053.0000 1.0000
24.5800 1018.0000 1.0000
24.5900 1011.0000 1.0000
24.6000 1001.0000 1.0000
24.6100 962.0000 1.0000
24.6200 1006.0000 1.0000
24.6300 1043.0000 1.0000
24.6400 1051.0000 1.0000
24.6500 1034.0000 1.0000
24.6600 963.0000 1.0000
24.6700 987.0000 1.0000
24.6800 998.0000 1.0000
24.6900 1012.0000 1.0000
24.7000 989.0000 1.0000
24.7100 987.0000 1.0000
24.7200 994.0000 1.0000
24.7300 994.0000 1.0000
24.7400 1019.0000 1.0000
24.7500 998.0000 1.0000
24.7600 1004.0000 1.0000
24.7700 1006.0000 1.0000
24.7800 1006.0000 1.0000
24.7900 973.0000 1.0000
24.8000 1002.0000 1.0000
24.8100 1031.0000 1.0000
24.8200 1030.0000 1.0000
24.8300 1025.0000 1.0000
24.8400 990.0000 1.0000
24.8500 1039.0000 1.0000
24.8600 1027.0000 1.0000
24.8700 995.0000 1.0000
24.8800 1010.0000 1.0000
24.8900 947.0000 1.0000
24.9000 995.0000 1.0000
24.9100 1004.0000 1.0000
24.9200 1036.0000 1.0000
24.9300 1002.0000 1.0000
24.9400 984.0000 1.0000
24.9500 972.0000 1.0000
24.9600 967.0000 1.0000
24.9700 1034.0000 1.0000
24.9800 1020.0000 1.0000
24.9900 1034.0000 1.0000
25.0000 1007.0000 1.0000
25.0100 1002.0000 1.0000
25.0200 981.0000 1.0000
25.0300 1003.0000 1.0000
25.0400 1009.0000 1.0000
25.0500 983.0000 1.0000
25.0600 1018.0000 1.0000
25.0700 1005.0000 1.0000
25.0800 1006.0000 1.0000
25.0900 1001.0000 1.0000
25.1000 1002.0000 1.0000
25.1100 1010.0000 1.0000
25.1200 1016.0000 1.0000
25.1300 1002.0000 1.0000
25.1400 1048.0000 1.0000
25.1500 952.0000 1.0000
25.1600 1012.0000 1.0000
25.1700 941.0000 1.0000
25.1800 1007.0000 1.0000
25.1900 993.0000 1.0000
25.2000 991.0000 1.0000
25.2100 1036.0000 1.0000
25.2200 992.0000 1.0000
25.2300 1031.0000 1.0000
25.2400 1010.0000 1.0000
25.2500 999.0000 1.0000
25.2600 1005.0000 1.0000
25.2700 1038.0000 1.0000
25.2800 1003.0000 1.0000
25.2900 986.0000 1.0000
25.3000 992.0000 1.0000
25.3100 953.0000 1.0000
25.3200 964.0000 1.0000
25.3300 1007.0000 1.0000
25.3400 1005.0000 1.0000
25.3500 1011.0000 1.0000
25.3600 995.0000 1.0000
25.3700 985.0000 1.0000
25.3800 962.0000 1.0000
25.3900 934.0000 1.0000
25.4000 1002.0000 1.0000
25.4100 1015.0000 1.0000
25.4200 1080.0000 1.0000
25.4300 1046.0000 1.0000
25.4400 1075.0000 1.0000
25.4500 1054.0000 1.0000
25.4600 996.0000 1.0000
25.4700 1039.0000 1.0000
25.4800 1063.0000 1.0000
25.4900 1015.0000 1.0000
25.5000 992.0000 1.0000
25.5100 994.0000 1.0000
25.5200 1005.0000 1.0000
25.5300 1036.0000 1.0000
25.5400 1022.0000 1.0000
25.5500 1031.0000 1.0000
25.5600 978.0000 1.0000
25.5700 1048.0000 1.0000
25.5800 1040.0000 1.0000
25.5900 1050.0000 1.0000
25.6000 1010.0000 1.0000
25.6100 999.0000 1.0000
25.6200 1039.0000 1.0000
25.6300 1008.0000 1.0000
25.6400 1017.0000 1.0000
25.6500 1031.0000 1.0000
25.6600 1066.0000 1.0000
25.6700 1032.0000 1.0000
25.6800 1025.0000 1.0000
25.6900 1074.0000 1.0000
25.7000 1046.0000 1.0000
25.7100 1072.0000 1.0000
25.7200 1036.0000 1.0000
25.7300 1054.0000 1.0000
25.7400 1036.0000 1.0000
25.7500 1043.0000 1.0000
25.7600 1052.0000 1.0000
25.7700 1032.0000 1.0000
25.7800 1086.0000 1.0000
25.7900 1102.0000 1.0000
25.8000 1040.0000 1.0000
25.8100 1063.0000 1.0000
25.8200 1079.0000 1.0000
25.8300 1055.0000 1.0000
25.8400 1048.0000 1.0000
25.8500 1003.0000 1.0000
25.8600 1102.0000 1.0000
25.8700 1167.0000 1.0000
25.8800 1073.0000 1.0000
25.8900 1052.0000 1.0000
25.9000 1114.0000 1.0000
25.9100 1061.0000 1.0000
25.9200 1071.0000 1.0000
25.9300 1125.0000 1.0000
25.9400 1125.0000 1.0000
25.9500 1085.0000 1.0000
25.9600 1083.0000 1.0000
25.9700 1119.0000 1.0000
25.9800 1149.0000 1.0000
25.9900 1122.0000 1.0000
26.0000 1170.0000 1.0000
26.0100 1193.0000 1.0000
26.0200 1149.0000 1.0000
26.0300 1222.0000 1.0000
26.0400 1198.0000 1.0000
26.0500 1200.0000 1.0000
26.0600 1220.0000 1.0000
26.0700 1208.0000 1.0000
26.0800 1208.0000 1.0000
26.0900 1235.0000 1.0000
26.1000 1290.0000 1.0000
26.1100 1318.0000 1.0000
26.1200 1286.0000 1.0000
26.1300 1375.0000 1.0000
26.1400 1323.0000 1.0000
26.1500 1304.0000 1.0000
26.1600 1411.0000 1.0000
26.1700 1475.0000 1.0000
26.1800 1482.0000 1.0000
26.1900 1476.0000 1.0000
26.2000 1519.0000 1.0000
26.2100 1598.0000 1.0000
26.2200 1638.0000 1.0000
26.2300 1665.0000 1.0000
26.2400 1753.0000 1.0000
26.2500 1774.0000 1.0000
26.2600 1947.0000 1.0000
26.2700 2020.0000 1.0000
26.2800 2080.0000 1.0000
26.2900 2089.0000 1.0000
26.3000 2288.0000 1.0000
26.3100 2374.0000 1.0000
26.3200 2505.0000 1.0000
26.3300 2666.0000 1.0000
26.3400 2857.0000 1.0000
26.3500 3075.0000 1.0000
26.3600 3152.0000 1.0000
26.3700 3387.0000 1.0000
26.3800 3525.0000 1.0000
26.3900 3720.0000 1.0000
26.4000 3834.0000 1.0000
26.4100 3904.0000 1.0000
26.4200 3936.0000 1.0000
26.4300 4029.0000 1.0000
26.4400 4035.0000 1.0000
26.4500 3938.0000 1.0000
26.4600 3929.0000 1.0000
26.4700 3810.0000 1.0000
26.4800 3724.0000 1.0000
26.4900 3561.0000 1.0000
26.5000 3419.0000 1.0000
26.5100 3313.0000 1.0000
26.5200 3015.0000 1.0000
26.5300 2887.0000 1.0000
26.5400 2637.0000 1.0000
26.5500 2554.0000 1.0000
26.5600 2482.0000 1.0000
26.5700 2295.0000 1.0000
26.5800 2210.0000 1.0000
26.5900 2111.0000 1.0000
26.6000 2039.0000 1.0000
26.6100 1934.0000 1.0000
26.6200 1858.0000 1.0000
26.6300 1753.0000 1.0000
26.6400 1721.0000 1.0000
26.6500 1572.0000 1.0000
26.6600 1518.0000 1.0000
26.6700 1597.0000 1.0000
26.6800 1503.0000 1.0000
26.6900 1451.0000 1.0000
26.7000 1427.0000 1.0000
26.7100 1398.0000 1.0000
26.7200 1351.0000 1.0000
26.7300 1321.0000 1.0000
26.7400 1265.0000 1.0000
26.7500 1256.0000 1.0000
26.7600 1282.0000 1.0000
26.7700 1255.0000 1.0000
26.7800 1242.0000 1.0000
26.7900 1181.0000 1.0000
26.8000 1190.0000 1.0000
26.8100 1211.0000 1.0000
26.8200 1181.0000 1.0000
26.8300 1212.0000 1.0000
26.8400 1152.0000 1.0000
26.8500 1149.0000 1.0000
26.8600 1115.0000 1.0000
26.8700 1114.0000 1.0000
26.8800 1028.0000 1.0000
26.8900 1102.0000 1.0000
26.9000 1119.0000 1.0000
26.9100 1103.0000 1.0000
26.9200 1109.0000 1.0000
26.9300 1059.0000 1.0000
26.9400 1029.0000 1.0000
26.9500 1084.0000 1.0000
26.9600 1105.0000 1.0000
26.9700 1108.0000 1.0000
26.9800 1087.0000 1.0000
26.9900 1078.0000 1.0000
27.0000 1099.0000 1.0000
27.0100 1074.0000 1.0000
27.0200 998.0000 1.0000
27.0300 1087.0000 1.0000
27.0400 1029.0000 1.0000
27.0500 1016.0000 1.0000
27.0600 1006.0000 1.0000
27.0700 1064.0000 1.0000
27.0800 1071.0000 1.0000
27.0900 986.0000 1.0000
27.1000 1050.0000 1.0000
27.1100 1005.0000 1.0000
27.1200 1031.0000 1.0000
27.1300 1005.0000 1.0000
27.1400 1003.0000 1.0000
27.1500 995.0000 1.0000
27.1600 984.0000 1.0000
27.1700 1014.0000 1.0000
27.1800 1008.0000 1.0000
27.1900 1032.0000 1.0000
27.2000 1020.0000 1.0000
27.2100 1031.0000 1.0000
27.2200 998.0000 1.0000
27.2300 1012.0000 1.0000
27.2400 1042.0000 1.0000
27.2500 981.0000 1.0000
27.2600 993.0000 1.0000
27.2700 968.0000 1.0000
27.2800 986.0000 1.0000
27.2900 1002.0000 1.0000
27.3000 932.0000 1.0000
27.3100 987.0000 1.0000
27.3200 1007.0000 1.0000
27.3300 1021.0000 1.0000
27.3400 918.0000 1.0000
27.3500 961.0000 1.0000
27.3600 967.0000 1.0000
27.3700 1024.0000 1.0000
27.3800 973.0000 1.0000
27.3900 1026.0000 1.0000
27.4000 1012.0000 1.0000
27.4100 999.0000 1.0000
27.4200 958.0000 1.0000
27.4300 960.0000 1.0000
27.4400 962.0000 1.0000
27.4500 978.0000 1.0000
27.4600 979.0000 1.0000
27.4700 946.0000 1.0000
27.4800 946.0000 1.0000
27.4900 969.0000 1.0000
27.5000 969.0000 1.0000
27.5100 963.0000 1.0000
27.5200 943.0000 1.0000
27.5300 985.0000 1.0000
27.5400 995.0000 1.0000
27.5500 962.0000 1.0000
27.5600 899.0000 1.0000
27.5700 927.0000 1.0000
27.5800 936.0000 1.0000
27.5900 989.0000 1.0000
27.6000 937.0000 1.0000
27.6100 997.0000 1.0000
27.6200 965.0000 1.0000
27.6300 932.0000 1.0000
27.6400 931.0000 1.0000
27.6500 924.0000 1.0000
27.6600 923.0000 1.0000
27.6700 947.0000 1.0000
27.6800 1004.0000 1.0000
27.6900 924.0000 1.0000
27.7000 928.0000 1.0000
27.7100 943.0000 1.0000
27.7200 967.0000 1.0000
27.7300 896.0000 1.0000
27.7400 934.0000 1.0000
27.7500 928.0000 1.0000
27.7600 939.0000 1.0000
27.7700 976.0000 1.0000
27.7800 921.0000 1.0000
27.7900 994.0000 1.0000
27.8000 999.0000 1.0000
27.8100 897.0000 1.0000
27.8200 908.0000 1.0000
27.8300 943.0000 1.0000
27.8400 952.0000 1.0000
27.8500 958.0000 1.0000
27.8600 948.0000 1.0000
27.8700 960.0000 1.0000
27.8800 869.0000 1.0000
27.8900 907.0000 1.0000
27.9000 925.0000 1.0000
27.9100 929.0000 1.0000
27.9200 937.0000 1.0000
27.9300 928.0000 1.0000
27.9400 942.0000 1.0000
27.9500 939.0000 1.0000
27.9600 913.0000 1.0000
27.9700 919.0000 1.0000
27.9800 927.0000 1.0000
27.9900 910.0000 1.0000
28.0000 915.0000 1.0000
28.0100 875.0000 1.0000
28.0200 897.0000 1.0000
28.0300 901.0000 1.0000
28.0400 912.0000 1.0000
28.0500 941.0000 1.0000
28.0600 934.0000 1.0000
28.0700 909.0000 1.0000
28.0800 920.0000 1.0000
28.0900 944.0000 1.0000
28.1000 927.0000 1.0000
28.1100 934.0000 1.0000
28.1200 968.0000 1.0000
28.1300 930.0000 1.0000
28.1400 897.0000 1.0000
28.1500 924.0000 1.0000
28.1600 887.0000 1.0000
28.1700 927.0000 1.0000
28.1800 929.0000 1.0000
28.1900 974.0000 1.0000
28.2000 925.0000 1.0000
28.2100 929.0000 1.0000
28.2200 928.0000 1.0000
28.2300 941.0000 1.0000
28.2400 906.0000 1.0000
28.2500 910.0000 1.0000
28.2600 896.0000 1.0000
28.2700 942.0000 1.0000
28.2800 937.0000 1.0000
28.2900 907.0000 1.0000
28.3000 946.0000 1.0000
28.3100 937.0000 1.0000
28.3200 890.0000 1.0000
28.3300 935.0000 1.0000
28.3400 901.0000 1.0000
28.3500 864.0000 1.0000
28.3600 915.0000 1.0000
28.3700 947.0000 1.0000
28.3800 899.0000 1.0000
28.3900 887.0000 1.0000
28.4000 901.0000 1.0000
28.4100 892.0000 1.0000
28.4200 917.0000 1.0000
28.4300 861.0000 1.0000
28.4400 876.0000 1.0000
28.4500 868.0000 1.0000
28.4600 909.0000 1.0000
28.4700 903.0000 1.0000
28.4800 926.0000 1.0000
28.4900 899.0000 1.0000
28.5000 894.0000 1.0000
28.5100 955.0000 1.0000
28.5200 966.0000 1.0000
28.5300 864.0000 1.0000
28.5400 887.0000 1.0000
28.5500 895.0000 1.0000
28.5600 908.0000 1.0000
28.5700 877.0000 1.0000
28.5800 891.0000 1.0000
28.5900 841.0000 1.0000
28.6000 877.0000 1.0000
28.6100 918.0000 1.0000
28.6200 931.0000 1.0000
28.6300 869.0000 1.0000
28.6400 875.0000 1.0000
28.6500 893.0000 1.0000
28.6600 871.0000 1.0000
28.6700 874.0000 1.0000
28.6800 838.0000 1.0000
28.6900 876.0000 1.0000
28.7000 872.0000 1.0000
28.7100 905.0000 1.0000
28.7200 890.0000 1.0000
28.7300 897.0000 1.0000
28.7400 875.0000 1.0000
28.7500 858.0000 1.0000
28.7600 888.0000 1.0000
28.7700 855.0000 1.0000
28.7800 924.0000 1.0000
28.7900 876.0000 1.0000
28.8000 871.0000 1.0000
28.8100 849.0000 1.0000
28.8200 903.0000 1.0000
28.8300 905.0000 1.0000
28.8400 861.0000 1.0000
28.8500 875.0000 1.0000
28.8600 893.0000 1.0000
28.8700 860.0000 1.0000
28.8800 899.0000 1.0000
28.8900 924.0000 1.0000
28.9000 857.0000 1.0000
28.9100 855.0000 1.0000
28.9200 899.0000 1.0000
28.9300 929.0000 1.0000
28.9400 883.0000 1.0000
28.9500 880.0000 1.0000
28.9600 886.0000 1.0000
28.9700 895.0000 1.0000
28.9800 862.0000 1.0000
28.9900 849.0000 1.0000
29.0000 944.0000 1.0000
29.0100 852.0000 1.0000
29.0200 908.0000 1.0000
29.0300 904.0000 1.0000
29.0400 861.0000 1.0000
29.0500 856.0000 1.0000
29.0600 882.0000 1.0000
29.0700 889.0000 1.0000
29.0800 842.0000 1.0000
29.0900 949.0000 1.0000
29.1000 868.0000 1.0000
29.1100 853.0000 1.0000
29.1200 863.0000 1.0000
29.1300 851.0000 1.0000
29.1400 843.0000 1.0000
29.1500 916.0000 1.0000
29.1600 874.0000 1.0000
29.1700 859.0000 1.0000
29.1800 908.0000 1.0000
29.1900 846.0000 1.0000
29.2000 912.0000 1.0000
29.2100 888.0000 1.0000
29.2200 896.0000 1.0000
29.2300 902.0000 1.0000
29.2400 861.0000 1.0000
29.2500 869.0000 1.0000
29.2600 847.0000 1.0000
29.2700 891.0000 1.0000
29.2800 917.0000 1.0000
29.2900 871.0000 1.0000
29.3000 879.0000 1.0000
29.3100 876.0000 1.0000
29.3200 900.0000 1.0000
29.3300 850.0000 1.0000
29.3400 799.0000 1.0000
29.3500 877.0000 1.0000
29.3600 873.0000 1.0000
29.3700 879.0000 1.0000
29.3800 849.0000 1.0000
29.3900 838.0000 1.0000
29.4000 846.0000 1.0000
29.4100 871.0000 1.0000
29.4200 887.0000 1.0000
29.4300 887.0000 1.0000
29.4400 876.0000 1.0000
29.4500 910.0000 1.0000
29.4600 859.0000 1.0000
29.4700 842.0000 1.0000
29.4800 857.0000 1.0000
29.4900 833.0000 1.0000
29.5000 885.0000 1.0000
29.5100 856.0000 1.0000
29.5200 895.0000 1.0000
29.5300 906.0000 1.0000
29.5400 877.0000 1.0000
29.5500 843.0000 1.0000
29.5600 829.0000 1.0000
29.5700 865.0000 1.0000
29.5800 892.0000 1.0000
29.5900 882.0000 1.0000
29.6000 897.0000 1.0000
29.6100 873.0000 1.0000
29.6200 875.0000 1.0000
29.6300 879.0000 1.0000
29.6400 868.0000 1.0000
29.6500 875.0000 1.0000
29.6600 823.0000 1.0000
29.6700 830.0000 1.0000
29.6800 877.0000 1.0000
29.6900 851.0000 1.0000
29.7000 862.0000 1.0000
29.7100 817.0000 1.0000
29.7200 837.0000 1.0000
29.7300 860.0000 1.0000
29.7400 842.0000 1.0000
29.7500 848.0000 1.0000
29.7600 875.0000 1.0000
29.7700 848.0000 1.0000
29.7800 851.0000 1.0000
29.7900 846.0000 1.0000
29.8000 843.0000 1.0000
29.8100 840.0000 1.0000
29.8200 846.0000 1.0000
29.8300 894.0000 1.0000
29.8400 834.0000 1.0000
29.8500 845.0000 1.0000
29.8600 856.0000 1.0000
29.8700 855.0000 1.0000
29.8800 839.0000 1.0000
29.8900 850.0000 1.0000
29.9000 814.0000 1.0000
29.9100 862.0000 1.0000
29.9200 818.0000 1.0000
29.9300 836.0000 1.0000
29.9400 846.0000 1.0000
29.9500 867.0000 1.0000
29.9600 821.0000 1.0000
29.9700 815.0000 1.0000
29.9800 822.0000 1.0000
29.9900 855.0000 1.0000
30.0000 894.0000 1.0000
30.0100 828.0000 1.0000
30.0200 834.0000 1.0000
30.0300 821.0000 1.0000
30.0400 836.0000 1.0000
30.0500 847.0000 1.0000
30.0600 840.0000 1.0000
30.0700 827.0000 1.0000
30.0800 831.0000 1.0000
30.0900 860.0000 1.0000
30.1000 849.0000 1.0000
30.1100 837.0000 1.0000
30.1200 825.0000 1.0000
30.1300 812.0000 1.0000
30.1400 799.0000 1.0000
30.1500 857.0000 1.0000
30.1600 864.0000 1.0000
30.1700 830.0000 1.0000
30.1800 791.0000 1.0000
30.1900 814.0000 1.0000
30.2000 895.0000 1.0000
30.2100 868.0000 1.0000
30.2200 842.0000 1.0000
30.2300 857.0000 1.0000
30.2400 846.0000 1.0000
30.2500 865.0000 1.0000
30.2600 810.0000 1.0000
30.2700 848.0000 1.0000
30.2800 860.0000 1.0000
30.2900 864.0000 1.0000
30.3000 878.0000 1.0000
30.3100 866.0000 1.0000
30.3200 826.0000 1.0000
30.3300 804.0000 1.0000
30.3400 831.0000 1.0000
30.3500 817.0000 1.0000
30.3600 785.0000 1.0000
30.3700 838.0000 1.0000
30.3800 833.0000 1.0000
30.3900 863.0000 1.0000
30.4000 835.0000 1.0000
30.4100 819.0000 1.0000
30.4200 837.0000 1.0000
30.4300 830.0000 1.0000
30.4400 847.0000 1.0000
30.4500 860.0000 1.0000
30.4600 777.0000 1.0000
30.4700 839.0000 1.0000
30.4800 862.0000 1.0000
30.4900 812.0000 1.0000
30.5000 796.0000 1.0000
30.5100 806.0000 1.0000
30.5200 849.0000 1.0000
30.5300 838.0000 1.0000
30.5400 813.0000 1.0000
30.5500 787.0000 1.0000
30.5600 818.0000 1.0000
30.5700 814.0000 1.0000
30.5800 834.0000 1.0000
30.5900 829.0000 1.0000
30.6000 806.0000 1.0000
30.6100 755.0000 1.0000
30.6200 847.0000 1.0000
30.6300 808.0000 1.0000
30.6400 827.0000 1.0000
30.6500 883.0000 1.0000
30.6600 799.0000 1.0000
30.6700 875.0000 1.0000
30.6800 785.0000 1.0000
30.6900 829.0000 1.0000
30.7000 833.0000 1.0000
30.7100 817.0000 1.0000
30.7200 806.0000 1.0000
30.7300 794.0000 1.0000
30.7400 832.0000 1.0000
30.7500 769.0000 1.0000
30.7600 858.0000 1.0000
30.7700 814.0000 1.0000
30.7800 792.0000 1.0000
30.7900 809.0000 1.0000
30.8000 807.0000 1.0000
30.8100 808.0000 1.0000
30.8200 815.0000 1.0000
30.8300 778.0000 1.0000
30.8400 845.0000 1.0000
30.8500 851.0000 1.0000
30.8600 805.0000 1.0000
30.8700 806.0000 1.0000
30.8800 817.0000 1.0000
30.8900 843.0000 1.0000
30.9000 809.0000 1.0000
30.9100 819.0000 1.0000
30.9200 835.0000 1.0000
30.9300 822.0000 1.0000
30.9400 844.0000 1.0000
30.9500 842.0000 1.0000
30.9600 836.0000 1.0000
30.9700 853.0000 1.0000
30.9800 842.0000 1.0000
30.9900 800.0000 1.0000
31.0000 765.0000 1.0000
31.0100 793.0000 1.0000
31.0200 830.0000 1.0000
31.0300 858.0000 1.0000
31.0400 846.0000 1.0000
31.0500 859.0000 1.0000
31.0600 830.0000 1.0000
31.0700 804.0000 1.0000
31.0800 838.0000 1.0000
31.0900 881.0000 1.0000
31.1000 858.0000 1.0000
31.1100 853.0000 1.0000
31.1200 840.0000 1.0000
31.1300 827.0000 1.0000
31.1400 761.0000 1.0000
31.1500 811.0000 1.0000
31.1600 829.0000 1.0000
31.1700 815.0000 1.0000
31.1800 862.0000 1.0000
31.1900 861.0000 1.0000
31.2000 834.0000 1.0000
31.2100 831.0000 1.0000
31.2200 786.0000 1.0000
31.2300 791.0000 1.0000
31.2400 819.0000 1.0000
31.2500 823.0000 1.0000
31.2600 812.0000 1.0000
31.2700 854.0000 1.0000
31.2800 792.0000 1.0000
31.2900 784.0000 1.0000
31.3000 756.0000 1.0000
31.3100 804.0000 1.0000
31.3200 770.0000 1.0000
31.3300 821.0000 1.0000
31.3400 806.0000 1.0000
31.3500 822.0000 1.0000
31.3600 792.0000 1.0000
31.3700 825.0000 1.0000
31.3800 774.0000 1.0000
31.3900 760.0000 1.0000
31.4000 826.0000 1.0000
31.4100 786.0000 1.0000
31.4200 828.0000 1.0000
31.4300 781.0000 1.0000
31.4400 777.0000 1.0000
31.4500 761.0000 1.0000
31.4600 773.0000 1.0000
31.4700 777.0000 1.0000
31.4800 802.0000 1.0000
31.4900 771.0000 1.0000
31.5000 796.0000 1.0000
31.5100 831.0000 1.0000
31.5200 835.0000 1.0000
31.5300 802.0000 1.0000
31.5400 773.0000 1.0000
31.5500 775.0000 1.0000
31.5600 816.0000 1.0000
31.5700 793.0000 1.0000
31.5800 830.0000 1.0000
31.5900 788.0000 1.0000
31.6000 776.0000 1.0000
31.6100 779.0000 1.0000
31.6200 737.0000 1.0000
31.6300 785.0000 1.0000
31.6400 827.0000 1.0000
31.6500 773.0000 1.0000
31.6600 810.0000 1.0000
31.6700 797.0000 1.0000
31.6800 776.0000 1.0000
31.6900 746.0000 1.0000
31.7000 802.0000 1.0000
31.7100 809.0000 1.0000
31.7200 788.0000 1.0000
31.7300 775.0000 1.0000
31.7400 780.0000 1.0000
31.7500 802.0000 1.0000
31.7600 769.0000 1.0000
31.7700 734.0000 1.0000
31.7800 768.0000 1.0000
31.7900 815.0000 1.0000
31.8000 780.0000 1.0000
31.8100 789.0000 1.0000
31.8200 826.0000 1.0000
31.8300 768.0000 1.0000
31.8400 714.0000 1.0000
31.8500 795.0000 1.0000
31.8600 800.0000 1.0000
31.8700 739.0000 1.0000
31.8800 818.0000 1.0000
31.8900 749.0000 1.0000
31.9000 755.0000 1.0000
31.9100 754.0000 1.0000
31.9200 789.0000 1.0000
31.9300 763.0000 1.0000
31.9400 760.0000 1.0000
31.9500 728.0000 1.0000
31.9600 773.0000 1.0000
31.9700 744.0000 1.0000
31.9800 770.0000 1.0000
31.9900 764.0000 1.0000
32.0000 768.0000 1.0000
32.0100 818.0000 1.0000
32.0200 750.0000 1.0000
32.0300 782.0000 1.0000
32.0400 765.0000 1.0000
32.0500 759.0000 1.0000
32.0600 766.0000 1.0000
32.0700 734.0000 1.0000
32.0800 787.0000 1.0000
32.0900 760.0000 1.0000
32.1000 762.0000 1.0000
32.1100 772.0000 1.0000
32.1200 773.0000 1.0000
32.1300 751.0000 1.0000
32.1400 748.0000 1.0000
32.1500 774.0000 1.0000
32.1600 789.0000 1.0000
32.1700 765.0000 1.0000
32.1800 811.0000 1.0000
32.1900 807.0000 1.0000
32.2000 782.0000 1.0000
32.2100 778.0000 1.0000
32.2200 781.0000 1.0000
32.2300 759.0000 1.0000
32.2400 777.0000 1.0000
32.2500 786.0000 1.0000
32.2600 771.0000 1.0000
32.2700 728.0000 1.0000
32.2800 788.0000 1.0000
32.2900 803.0000 1.0000
32.3000 782.0000 1.0000
32.3100 771.0000 1.0000
32.3200 766.0000 1.0000
32.3300 788.0000 1.0000
32.3400 757.0000 1.0000
32.3500 758.0000 1.0000
32.3600 780.0000 1.0000
32.3700 771.0000 1.0000
32.3800 710.0000 1.0000
32.3900 755.0000 1.0000
32.4000 816.0000 1.0000
32.4100 787.0000 1.0000
32.4200 764.0000 1.0000
32.4300 790.0000 1.0000
32.4400 751.0000 1.0000
32.4500 778.0000 1.0000
32.4600 789.0000 1.0000
32.4700 779.0000 1.0000
32.4800 712.0000 1.0000
32.4900 793.0000 1.0000
32.5000 795.0000 1.0000
32.5100 755.0000 1.0000
32.5200 729.0000 1.0000
32.5300 783.0000 1.0000
32.5400 753.0000 1.0000
32.5500 811.0000 1.0000
32.5600 750.0000 1.0000
32.5700 747.0000 1.0000
32.5800 727.0000 1.0000
32.5900 761.0000 1.0000
32.6000 762.0000 1.0000
32.6100 778.0000 1.0000
32.6200 778.0000 1.0000
32.6300 771.0000 1.0000
32.6400 745.0000 1.0000
32.6500 744.0000 1.0000
32.6600 751.0000 1.0000
32.6700 767.0000 1.0000
32.6800 786.0000 1.0000
32.6900 783.0000 1.0000
32.7000 737.0000 1.0000
32.7100 728.0000 1.0000
32.7200 719.0000 1.0000
32.7300 736.0000 1.0000
32.7400 732.0000 1.0000
32.7500 790.0000 1.0000
32.7600 768.0000 1.0000
32.7700 785.0000 1.0000
32.7800 732.0000 1.0000
32.7900 777.0000 1.0000
32.8000 808.0000 1.0000
32.8100 758.0000 1.0000
32.8200 769.0000 1.0000
32.8300 791.0000 1.0000
32.8400 800.0000 1.0000
32.8500 785.0000 1.0000
32.8600 771.0000 1.0000
32.8700 809.0000 1.0000
32.8800 816.0000 1.0000
32.8900 830.0000 1.0000
32.9000 802.0000 1.0000
32.9100 812.0000 1.0000
32.9200 847.0000 1.0000
32.9300 858.0000 1.0000
32.9400 840.0000 1.0000
32.9500 845.0000 1.0000
32.9600 893.0000 1.0000
32.9700 871.0000 1.0000
32.9800 905.0000 1.0000
32.9900 975.0000 1.0000
33.0000 955.0000 1.0000
33.0100 955.0000 1.0000
33.0200 1011.0000 1.0000
33.0300 1005.0000 1.0000
33.0400 1051.0000 1.0000
33.0500 1052.0000 1.0000
33.0600 1077.0000 1.0000
33.0700 1111.0000 1.0000
33.0800 1119.0000 1.0000
33.0900 1100.0000 1.0000
33.1000 1113.0000 1.0000
33.1100 1125.0000 1.0000
33.1200 1148.0000 1.0000
33.1300 1066.0000 1.0000
33.1400 1095.0000 1.0000
33.1500 1004.0000 1.0000
33.1600 1017.0000 1.0000
33.1700 1016.0000 1.0000
33.1800 1038.0000 1.0000
33.1900 972.0000 1.0000
33.2000 958.0000 1.0000
33.2100 965.0000 1.0000
33.2200 967.0000 1.0000
33.2300 923.0000 1.0000
33.2400 859.0000 1.0000
33.2500 866.0000 1.0000
33.2600 855.0000 1.0000
33.2700 882.0000 1.0000
33.2800 890.0000 1.0000
33.2900 880.0000 1.0000
33.3000 846.0000 1.0000
33.3100 844.0000 1.0000
33.3200 878.0000 1.0000
33.3300 909.0000 1.0000
33.3400 895.0000 1.0000
33.3500 860.0000 1.0000
33.3600 916.0000 1.0000
33.3700 872.0000 1.0000
33.3800 948.0000 1.0000
33.3900 946.0000 1.0000
33.4000 926.0000 1.0000
33.4100 956.0000 1.0000
33.4200 990.0000 1.0000
33.4300 1060.0000 1.0000
33.4400 1055.0000 1.0000
33.4500 1017.0000 1.0000
33.4600 1113.0000 1.0000
33.4700 1074.0000 1.0000
33.4800 1132.0000 1.0000
33.4900 1191.0000 1.0000
33.5000 1262.0000 1.0000
33.5100 1303.0000 1.0000
33.5200 1269.0000 1.0000
33.5300 1382.0000 1.0000
33.5400 1451.0000 1.0000
33.5500 1537.0000 1.0000
33.5600 1610.0000 1.0000
33.5700 1659.0000 1.0000
33.5800 1695.0000 1.0000
33.5900 1738.0000 1.0000
33.6000 1827.0000 1.0000
33.6100 1820.0000 1.0000
33.6200 1918.0000 1.0000
33.6300 1999.0000 1.0000
33.6400 1957.0000 1.0000
33.6500 1906.0000 1.0000
33.6600 1909.0000 1.0000
33.6700 1932.0000 1.0000
33.6800 1893.0000 1.0000
33.6900 1822.0000 1.0000
33.7000 1753.0000 1.0000
33.7100 1747.0000 1.0000
33.7200 1703.0000 1.0000
33.7300 1616.0000 1.0000
33.7400 1610.0000 1.0000
33.7500 1519.0000 1.0000
33.7600 1476.0000 1.0000
33.7700 1310.0000 1.0000
33.7800 1356.0000 1.0000
33.7900 1294.0000 1.0000
33.8000 1214.0000 1.0000
33.8100 1186.0000 1.0000
33.8200 1150.0000 1.0000
33.8300 1100.0000 1.0000
33.8400 1081.0000 1.0000
33.8500 1050.0000 1.0000
33.8600 1004.0000 1.0000
33.8700 992.0000 1.0000
33.8800 1012.0000 1.0000
33.8900 958.0000 1.0000
33.9000 957.0000 1.0000
33.9100 905.0000 1.0000
33.9200 921.0000 1.0000
33.9300 927.0000 1.0000
33.9400 889.0000 1.0000
33.9500 929.0000 1.0000
33.9600 874.0000 1.0000
33.9700 836.0000 1.0000
33.9800 848.0000 1.0000
33.9900 825.0000 1.0000
34.0000 841.0000 1.0000
34.0100 839.0000 1.0000
34.0200 788.0000 1.0000
34.0300 800.0000 1.0000
34.0400 836.0000 1.0000
34.0500 807.0000 1.0000
34.0600 758.0000 1.0000
34.0700 761.0000 1.0000
34.0800 774.0000 1.0000
34.0900 752.0000 1.0000
34.1000 778.0000 1.0000
34.1100 789.0000 1.0000
34.1200 784.0000 1.0000
34.1300 747.0000 1.0000
34.1400 735.0000 1.0000
34.1500 744.0000 1.0000
34.1600 746.0000 1.0000
34.1700 719.0000 1.0000
34.1800 721.0000 1.0000
34.1900 714.0000 1.0000
34.2000 747.0000 1.0000
34.2100 742.0000 1.0000
34.2200 745.0000 1.0000
34.2300 744.0000 1.0000
34.2400 732.0000 1.0000
34.2500 734.0000 1.0000
34.2600 720.0000 1.0000
34.2700 720.0000 1.0000
34.2800 699.0000 1.0000
34.2900 708.0000 1.0000
34.3000 707.0000 1.0000
34.3100 705.0000 1.0000
34.3200 699.0000 1.0000
34.3300 735.0000 1.0000
34.3400 738.0000 1.0000
34.3500 712.0000 1.0000
34.3600 719.0000 1.0000
34.3700 701.0000 1.0000
34.3800 695.0000 1.0000
34.3900 727.0000 1.0000
34.4000 694.0000 1.0000
34.4100 708.0000 1.0000
34.4200 697.0000 1.0000
34.4300 713.0000 1.0000
34.4400 697.0000 1.0000
34.4500 685.0000 1.0000
34.4600 737.0000 1.0000
34.4700 711.0000 1.0000
34.4800 694.0000 1.0000
34.4900 680.0000 1.0000
34.5000 681.0000 1.0000
34.5100 708.0000 1.0000
34.5200 714.0000 1.0000
34.5300 720.0000 1.0000
34.5400 703.0000 1.0000
34.5500 734.0000 1.0000
34.5600 684.0000 1.0000
34.5700 700.0000 1.0000
34.5800 632.0000 1.0000
34.5900 661.0000 1.0000
34.6000 663.0000 1.0000
34.6100 630.0000 1.0000
34.6200 665.0000 1.0000
34.6300 646.0000 1.0000
34.6400 653.0000 1.0000
34.6500 671.0000 1.0000
34.6600 656.0000 1.0000
34.6700 671.0000 1.0000
34.6800 708.0000 1.0000
34.6900 688.0000 1.0000
34.7000 693.0000 1.0000
34.7100 644.0000 1.0000
34.7200 690.0000 1.0000
34.7300 690.0000 1.0000
34.7400 688.0000 1.0000
34.7500 691.0000 1.0000
34.7600 684.0000 1.0000
34.7700 653.0000 1.0000
34.7800 676.0000 1.0000
34.7900 682.0000 1.0000
34.8000 641.0000 1.0000
34.8100 690.0000 1.0000
34.8200 650.0000 1.0000
34.8300 707.0000 1.0000
34.8400 673.0000 1.0000
34.8500 680.0000 1.0000
34.8600 676.0000 1.0000
34.8700 674.0000 1.0000
34.8800 662.0000 1.0000
34.8900 679.0000 1.0000
34.9000 673.0000 1.0000
34.9100 691.0000 1.0000
34.9200 660.0000 1.0000
34.9300 678.0000 1.0000
34.9400 668.0000 1.0000
34.9500 684.0000 1.0000
34.9600 703.0000 1.0000
34.9700 716.0000 1.0000
34.9800 653.0000 1.0000
34.9900 647.0000 1.0000
35.0000 678.0000 1.0000
35.0100 602.0000 1.0000
35.0200 660.0000 1.0000
35.0300 629.0000 1.0000
35.0400 678.0000 1.0000
35.0500 682.0000 1.0000
35.0600 655.0000 1.0000
35.0700 657.0000 1.0000
35.0800 692.0000 1.0000
35.0900 674.0000 1.0000
35.1000 687.0000 1.0000
35.1100 667.0000 1.0000
35.1200 675.0000 1.0000
35.1300 670.0000 1.0000
35.1400 648.0000 1.0000
35.1500 647.0000 1.0000
35.1600 659.0000 1.0000
35.1700 672.0000 1.0000
35.1800 684.0000 1.0000
35.1900 675.0000 1.0000
35.2000 673.0000 1.0000
35.2100 651.0000 1.0000
35.2200 632.0000 1.0000
35.2300 668.0000 1.0000
35.2400 684.0000 1.0000
35.2500 679.0000 1.0000
35.2600 654.0000 1.0000
35.2700 664.0000 1.0000
35.2800 705.0000 1.0000
35.2900 713.0000 1.0000
35.3000 667.0000 1.0000
35.3100 728.0000 1.0000
35.3200 706.0000 1.0000
35.3300 681.0000 1.0000
35.3400 682.0000 1.0000
35.3500 702.0000 1.0000
35.3600 701.0000 1.0000
35.3700 657.0000 1.0000
35.3800 746.0000 1.0000
35.3900 771.0000 1.0000
35.4000 688.0000 1.0000
35.4100 745.0000 1.0000
35.4200 746.0000 1.0000
35.4300 839.0000 1.0000
35.4400 842.0000 1.0000
35.4500 833.0000 1.0000
35.4600 865.0000 1.0000
35.4700 866.0000 1.0000
35.4800 901.0000 1.0000
35.4900 925.0000 1.0000
35.5000 927.0000 1.0000
35.5100 960.0000 1.0000
35.5200 1046.0000 1.0000
35.5300 1015.0000 1.0000
35.5400 1061.0000 1.0000
35.5500 1078.0000 1.0000
35.5600 1052.0000 1.0000
35.5700 1084.0000 1.0000
35.5800 1073.0000 1.0000
35.5900 1060.0000 1.0000
35.6000 1122.0000 1.0000
35.6100 1053.0000 1.0000
35.6200 1039.0000 1.0000
35.6300 1034.0000 1.0000
35.6400 969.0000 1.0000
35.6500 904.0000 1.0000
35.6600 876.0000 1.0000
35.6700 878.0000 1.0000
35.6800 839.0000 1.0000
35.6900 808.0000 1.0000
35.7000 754.0000 1.0000
35.7100 784.0000 1.0000
35.7200 762.0000 1.0000
35.7300 757.0000 1.0000
35.7400 716.0000 1.0000
35.7500 718.0000 1.0000
35.7600 643.0000 1.0000
35.7700 700.0000 1.0000
35.7800 696.0000 1.0000
35.7900 649.0000 1.0000
35.8000 689.0000 1.0000
35.8100 658.0000 1.0000
35.8200 670.0000 1.0000
35.8300 671.0000 1.0000
35.8400 665.0000 1.0000
35.8500 684.0000 1.0000
35.8600 606.0000 1.0000
35.8700 638.0000 1.0000
35.8800 647.0000 1.0000
35.8900 573.0000 1.0000
35.9000 586.0000 1.0000
35.9100 625.0000 1.0000
35.9200 633.0000 1.0000
35.9300 608.0000 1.0000
35.9400 606.0000 1.0000
35.9500 593.0000 1.0000
35.9600 664.0000 1.0000
35.9700 613.0000 1.0000
35.9800 626.0000 1.0000
35.9900 632.0000 1.0000
36.0000 626.0000 1.0000
36.0100 654.0000 1.0000
36.0200 639.0000 1.0000
36.0300 629.0000 1.0000
36.0400 571.0000 1.0000
36.0500 607.0000 1.0000
36.0600 622.0000 1.0000
36.0700 618.0000 1.0000
36.0800 587.0000 1.0000
36.0900 602.0000 1.0000
36.1000 597.0000 1.0000
36.1100 629.0000 1.0000
36.1200 632.0000 1.0000
36.1300 598.0000 1.0000
36.1400 607.0000 1.0000
36.1500 574.0000 1.0000
36.1600 592.0000 1.0000
36.1700 591.0000 1.0000
36.1800 603.0000 1.0000
36.1900 636.0000 1.0000
36.2000 606.0000 1.0000
36.2100 634.0000 1.0000
36.2200 579.0000 1.0000
36.2300 623.0000 1.0000
36.2400 615.0000 1.0000
36.2500 583.0000 1.0000
36.2600 599.0000 1.0000
36.2700 591.0000 1.0000
36.2800 582.0000 1.0000
36.2900 588.0000 1.0000
36.3000 617.0000 1.0000
36.3100 592.0000 1.0000
36.3200 590.0000 1.0000
36.3300 610.0000 1.0000
36.3400 618.0000 1.0000
36.3500 598.0000 1.0000
36.3600 610.0000 1.0000
36.3700 662.0000 1.0000
36.3800 611.0000 1.0000
36.3900 586.0000 1.0000
36.4000 598.0000 1.0000
36.4100 609.0000 1.0000
36.4200 584.0000 1.0000
36.4300 653.0000 1.0000
36.4400 628.0000 1.0000
36.4500 602.0000 1.0000
36.4600 633.0000 1.0000
36.4700 605.0000 1.0000
36.4800 583.0000 1.0000
36.4900 631.0000 1.0000
36.5000 627.0000 1.0000
36.5100 557.0000 1.0000
36.5200 579.0000 1.0000
36.5300 610.0000 1.0000
36.5400 601.0000 1.0000
36.5500 617.0000 1.0000
36.5600 602.0000 1.0000
36.5700 601.0000 1.0000
36.5800 624.0000 1.0000
36.5900 625.0000 1.0000
36.6000 637.0000 1.0000
36.6100 612.0000 1.0000
36.6200 597.0000 1.0000
36.6300 608.0000 1.0000
36.6400 615.0000 1.0000
36.6500 600.0000 1.0000
36.6600 627.0000 1.0000
36.6700 627.0000 1.0000
36.6800 616.0000 1.0000
36.6900 653.0000 1.0000
36.7000 620.0000 1.0000
36.7100 600.0000 1.0000
36.7200 658.0000 1.0000
36.7300 569.0000 1.0000
36.7400 582.0000 1.0000
36.7500 582.0000 1.0000
36.7600 594.0000 1.0000
36.7700 580.0000 1.0000
36.7800 604.0000 1.0000
36.7900 598.0000 1.0000
36.8000 572.0000 1.0000
36.8100 613.0000 1.0000
36.8200 562.0000 1.0000
36.8300 613.0000 1.0000
36.8400 614.0000 1.0000
36.8500 567.0000 1.0000
36.8600 618.0000 1.0000
36.8700 597.0000 1.0000
36.8800 600.0000 1.0000
36.8900 588.0000 1.0000
36.9000 607.0000 1.0000
36.9100 574.0000 1.0000
36.9200 606.0000 1.0000
36.9300 612.0000 1.0000
36.9400 591.0000 1.0000
36.9500 640.0000 1.0000
36.9600 606.0000 1.0000
36.9700 597.0000 1.0000
36.9800 575.0000 1.0000
36.9900 608.0000 1.0000
37.0000 623.0000 1.0000
37.0100 599.0000 1.0000
37.0200 590.0000 1.0000
37.0300 622.0000 1.0000
37.0400 609.0000 1.0000
37.0500 664.0000 1.0000
37.0600 638.0000 1.0000
37.0700 623.0000 1.0000
37.0800 634.0000 1.0000
37.0900 613.0000 1.0000
37.1000 649.0000 1.0000
37.1100 624.0000 1.0000
37.1200 613.0000 1.0000
37.1300 599.0000 1.0000
37.1400 639.0000 1.0000
37.1500 609.0000 1.0000
37.1600 607.0000 1.0000
37.1700 646.0000 1.0000
37.1800 647.0000 1.0000
37.1900 687.0000 1.0000
37.2000 625.0000 1.0000
37.2100 638.0000 1.0000
37.2200 632.0000 1.0000
37.2300 675.0000 1.0000
37.2400 614.0000 1.0000
37.2500 667.0000 1.0000
37.2600 662.0000 1.0000
37.2700 675.0000 1.0000
37.2800 645.0000 1.0000
37.2900 658.0000 1.0000
37.3000 707.0000 1.0000
37.3100 684.0000 1.0000
37.3200 738.0000 1.0000
37.3300 729.0000 1.0000
37.3400 723.0000 1.0000
37.3500 801.0000 1.0000
37.3600 808.0000 1.0000
37.3700 759.0000 1.0000
37.3800 784.0000 1.0000
37.3900 898.0000 1.0000
37.4000 827.0000 1.0000
37.4100 910.0000 1.0000
37.4200 924.0000 1.0000
37.4300 987.0000 1.0000
37.4400 1028.0000 1.0000
37.4500 1012.0000 1.0000
37.4600 1058.0000 1.0000
37.4700 1116.0000 1.0000
37.4800 1179.0000 1.0000
37.4900 1228.0000 1.0000
37.5000 1335.0000 1.0000
37.5100 1376.0000 1.0000
37.5200 1475.0000 1.0000
37.5300 1543.0000 1.0000
37.5400 1546.0000 1.0000
37.5500 1671.0000 1.0000
37.5600 1813.0000 1.0000
37.5700 1989.0000 1.0000
37.5800 2184.0000 1.0000
37.5900 2202.0000 1.0000
37.6000 2275.0000 1.0000
37.6100 2462.0000 1.0000
37.6200 2604.0000 1.0000
37.6300 2826.0000 1.0000
37.6400 2924.0000 1.0000
37.6500 2986.0000 1.0000
37.6600 3125.0000 1.0000
37.6700 3210.0000 1.0000
37.6800 3242.0000 1.0000
37.6900 3339.0000 1.0000
37.7000 3296.0000 1.0000
37.7100 3234.0000 1.0000
37.7200 3196.0000 1.0000
37.7300 3109.0000 1.0000
37.7400 3067.0000 1.0000
37.7500 3002.0000 1.0000
37.7600 2921.0000 1.0000
37.7700 2865.0000 1.0000
37.7800 2688.0000 1.0000
37.7900 2549.0000 1.0000
37.8000 2364.0000 1.0000
37.8100 2254.0000 1.0000
37.8200 2248.0000 1.0000
37.8300 2053.0000 1.0000
37.8400 1966.0000 1.0000
37.8500 1855.0000 1.0000
37.8600 1690.0000 1.0000
37.8700 1572.0000 1.0000
37.8800 1477.0000 1.0000
37.8900 1388.0000 1.0000
37.9000 1403.0000 1.0000
37.9100 1280.0000 1.0000
37.9200 1212.0000 1.0000
37.9300 1109.0000 1.0000
37.9400 1038.0000 1.0000
37.9500 1022.0000 1.0000
37.9600 960.0000 1.0000
37.9700 960.0000 1.0000
37.9800 880.0000 1.0000
37.9900 848.0000 1.0000
38.0000 844.0000 1.0000
38.0100 800.0000 1.0000
38.0200 802.0000 1.0000
38.0300 742.0000 1.0000
38.0400 750.0000 1.0000
38.0500 758.0000 1.0000
38.0600 731.0000 1.0000
38.0700 709.0000 1.0000
38.0800 695.0000 1.0000
38.0900 689.0000 1.0000
38.1000 658.0000 1.0000
38.1100 633.0000 1.0000
38.1200 649.0000 1.0000
38.1300 632.0000 1.0000
38.1400 666.0000 1.0000
38.1500 608.0000 1.0000
38.1600 616.0000 1.0000
38.1700 609.0000 1.0000
38.1800 642.0000 1.0000
38.1900 610.0000 1.0000
38.2000 610.0000 1.0000
38.2100 594.0000 1.0000
38.2200 589.0000 1.0000
38.2300 595.0000 1.0000
38.2400 647.0000 1.0000
38.2500 603.0000 1.0000
38.2600 618.0000 1.0000
38.2700 576.0000 1.0000
38.2800 612.0000 1.0000
38.2900 594.0000 1.0000
38.3000 581.0000 1.0000
38.3100 551.0000 1.0000
38.3200 586.0000 1.0000
38.3300 552.0000 1.0000
38.3400 568.0000 1.0000
38.3500 604.0000 1.0000
38.3600 576.0000 1.0000
38.3700 566.0000 1.0000
38.3800 563.0000 1.0000
38.3900 572.0000 1.0000
38.4000 586.0000 1.0000
38.4100 569.0000 1.0000
38.4200 561.0000 1.0000
38.4300 552.0000 1.0000
38.4400 580.0000 1.0000
38.4500 583.0000 1.0000
38.4600 556.0000 1.0000
38.4700 559.0000 1.0000
38.4800 580.0000 1.0000
38.4900 545.0000 1.0000
38.5000 570.0000 1.0000
38.5100 548.0000 1.0000
38.5200 540.0000 1.0000
38.5300 546.0000 1.0000
38.5400 594.0000 1.0000
38.5500 585.0000 1.0000
38.5600 543.0000 1.0000
38.5700 547.0000 1.0000
38.5800 584.0000 1.0000
38.5900 557.0000 1.0000
38.6000 557.0000 1.0000
38.6100 567.0000 1.0000
38.6200 589.0000 1.0000
38.6300 542.0000 1.0000
38.6400 582.0000 1.0000
38.6500 581.0000 1.0000
38.6600 598.0000 1.0000
38.6700 563.0000 1.0000
38.6800 566.0000 1.0000
38.6900 598.0000 1.0000
38.7000 599.0000 1.0000
38.7100 568.0000 1.0000
38.7200 596.0000 1.0000
38.7300 570.0000 1.0000
38.7400 535.0000 1.0000
38.7500 576.0000 1.0000
38.7600 560.0000 1.0000
38.7700 564.0000 1.0000
38.7800 566.0000 1.0000
38.7900 597.0000 1.0000
38.8000 606.0000 1.0000
38.8100 554.0000 1.0000
38.8200 528.0000 1.0000
38.8300 553.0000 1.0000
38.8400 547.0000 1.0000
38.8500 567.0000 1.0000
38.8600 564.0000 1.0000
38.8700 544.0000 1.0000
38.8800 570.0000 1.0000
38.8900 566.0000 1.0000
38.9000 543.0000 1.0000
38.9100 561.0000 1.0000
38.9200 532.0000 1.0000
38.9300 555.0000 1.0000
38.9400 555.0000 1.0000
38.9500 550.0000 1.0000
38.9600 516.0000 1.0000
38.9700 588.0000 1.0000
38.9800 540.0000 1.0000
38.9900 559.0000 1.0000
39.0000 508.0000 1.0000
39.0100 533.0000 1.0000
39.0200 561.0000 1.0000
39.0300 557.0000 1.0000
39.0400 498.0000 1.0000
39.0500 544.0000 1.0000
39.0600 533.0000 1.0000
39.0700 562.0000 1.0000
39.0800 520.0000 1.0000
39.0900 503.0000 1.0000
39.1000 501.0000 1.0000
39.1100 519.0000 1.0000
39.1200 520.0000 1.0000
39.1300 530.0000 1.0000
39.1400 524.0000 1.0000
39.1500 555.0000 1.0000
39.1600 584.0000 1.0000
39.1700 525.0000 1.0000
39.1800 554.0000 1.0000
39.1900 568.0000 1.0000
39.2000 553.0000 1.0000
39.2100 527.0000 1.0000
39.2200 538.0000 1.0000
39.2300 505.0000 1.0000
39.2400 556.0000 1.0000
39.2500 521.0000 1.0000
39.2600 529.0000 1.0000
39.2700 558.0000 1.0000
39.2800 509.0000 1.0000
39.2900 531.0000 1.0000
39.3000 541.0000 1.0000
39.3100 539.0000 1.0000
39.3200 512.0000 1.0000
39.3300 541.0000 1.0000
39.3400 534.0000 1.0000
39.3500 539.0000 1.0000
39.3600 525.0000 1.0000
39.3700 533.0000 1.0000
39.3800 487.0000 1.0000
39.3900 513.0000 1.0000
39.4000 511.0000 1.0000
39.4100 532.0000 1.0000
39.4200 518.0000 1.0000
39.4300 519.0000 1.0000
39.4400 504.0000 1.0000
39.4500 511.0000 1.0000
39.4600 520.0000 1.0000
39.4700 522.0000 1.0000
39.4800 515.0000 1.0000
39.4900 520.0000 1.0000
39.5000 516.0000 1.0000
39.5100 502.0000 1.0000
39.5200 528.0000 1.0000
39.5300 518.0000 1.0000
39.5400 521.0000 1.0000
39.5500 497.0000 1.0000
39.5600 467.0000 1.0000
39.5700 497.0000 1.0000
39.5800 535.0000 1.0000
39.5900 483.0000 1.0000
39.6000 437.0000 1.0000
39.6100 476.0000 1.0000
39.6200 477.0000 1.0000
39.6300 534.0000 1.0000
39.6400 530.0000 1.0000
39.6500 502.0000 1.0000
39.6600 525.0000 1.0000
39.6700 511.0000 1.0000
39.6800 520.0000 1.0000
39.6900 519.0000 1.0000
39.7000 493.0000 1.0000
39.7100 512.0000 1.0000
39.7200 502.0000 1.0000
39.7300 495.0000 1.0000
39.7400 524.0000 1.0000
39.7500 506.0000 1.0000
39.7600 504.0000 1.0000
39.7700 499.0000 1.0000
39.7800 480.0000 1.0000
39.7900 524.0000 1.0000
39.8000 534.0000 1.0000
39.8100 514.0000 1.0000
39.8200 520.0000 1.0000
39.8300 547.0000 1.0000
39.8400 513.0000 1.0000
39.8500 512.0000 1.0000
39.8600 521.0000 1.0000
39.8700 473.0000 1.0000
39.8800 490.0000 1.0000
39.8900 513.0000 1.0000
39.9000 483.0000 1.0000
39.9100 479.0000 1.0000
39.9200 482.0000 1.0000
39.9300 487.0000 1.0000
39.9400 478.0000 1.0000
39.9500 503.0000 1.0000
39.9600 495.0000 1.0000
39.9700 476.0000 1.0000
39.9800 548.0000 1.0000
39.9900 500.0000 1.0000
40.0000 509.0000 1.0000
40.0100 549.0000 1.0000
40.0200 524.0000 1.0000
40.0300 509.0000 1.0000
40.0400 484.0000 1.0000
40.0500 551.0000 1.0000
40.0600 538.0000 1.0000
40.0700 514.0000 1.0000
40.0800 500.0000 1.0000
40.0900 502.0000 1.0000
40.1000 499.0000 1.0000
40.1100 491.0000 1.0000
40.1200 520.0000 1.0000
40.1300 470.0000 1.0000
40.1400 473.0000 1.0000
40.1500 506.0000 1.0000
40.1600 493.0000 1.0000
40.1700 501.0000 1.0000
40.1800 498.0000 1.0000
40.1900 522.0000 1.0000
40.2000 469.0000 1.0000
40.2100 511.0000 1.0000
40.2200 493.0000 1.0000
40.2300 504.0000 1.0000
40.2400 507.0000 1.0000
40.2500 506.0000 1.0000
40.2600 457.0000 1.0000
40.2700 483.0000 1.0000
40.2800 476.0000 1.0000
40.2900 524.0000 1.0000
40.3000 534.0000 1.0000
40.3100 497.0000 1.0000
40.3200 493.0000 1.0000
40.3300 482.0000 1.0000
40.3400 491.0000 1.0000
40.3500 514.0000 1.0000
40.3600 491.0000 1.0000
40.3700 492.0000 1.0000
40.3800 513.0000 1.0000
40.3900 503.0000 1.0000
40.4000 487.0000 1.0000
40.4100 498.0000 1.0000
40.4200 554.0000 1.0000
40.4300 521.0000 1.0000
40.4400 500.0000 1.0000
40.4500 487.0000 1.0000
40.4600 505.0000 1.0000
40.4700 493.0000 1.0000
40.4800 473.0000 1.0000
40.4900 489.0000 1.0000
40.5000 480.0000 1.0000
40.5100 491.0000 1.0000
40.5200 490.0000 1.0000
40.5300 513.0000 1.0000
40.5400 505.0000 1.0000
40.5500 523.0000 1.0000
40.5600 484.0000 1.0000
40.5700 480.0000 1.0000
40.5800 526.0000 1.0000
40.5900 513.0000 1.0000
40.6000 507.0000 1.0000
40.6100 492.0000 1.0000
40.6200 482.0000 1.0000
40.6300 512.0000 1.0000
40.6400 498.0000 1.0000
40.6500 485.0000 1.0000
40.6600 460.0000 1.0000
40.6700 496.0000 1.0000
40.6800 502.0000 1.0000
40.6900 503.0000 1.0000
40.7000 521.0000 1.0000
40.7100 527.0000 1.0000
40.7200 519.0000 1.0000
40.7300 559.0000 1.0000
40.7400 544.0000 1.0000
40.7500 546.0000 1.0000
40.7600 585.0000 1.0000
40.7700 575.0000 1.0000
40.7800 557.0000 1.0000
40.7900 537.0000 1.0000
40.8000 543.0000 1.0000
40.8100 547.0000 1.0000
40.8200 568.0000 1.0000
40.8300 572.0000 1.0000
40.8400 533.0000 1.0000
40.8500 518.0000 1.0000
40.8600 540.0000 1.0000
40.8700 553.0000 1.0000
40.8800 543.0000 1.0000
40.8900 533.0000 1.0000
40.9000 544.0000 1.0000
40.9100 553.0000 1.0000
40.9200 530.0000 1.0000
40.9300 525.0000 1.0000
40.9400 522.0000 1.0000
40.9500 502.0000 1.0000
40.9600 490.0000 1.0000
40.9700 519.0000 1.0000
40.9800 520.0000 1.0000
40.9900 488.0000 1.0000
41.0000 493.0000 1.0000
41.0100 493.0000 1.0000
41.0200 530.0000 1.0000
41.0300 481.0000 1.0000
41.0400 478.0000 1.0000
41.0500 485.0000 1.0000
41.0600 503.0000 1.0000
41.0700 503.0000 1.0000
41.0800 475.0000 1.0000
41.0900 551.0000 1.0000
41.1000 500.0000 1.0000
41.1100 502.0000 1.0000
41.1200 500.0000 1.0000
41.1300 530.0000 1.0000
41.1400 458.0000 1.0000
41.1500 490.0000 1.0000
41.1600 487.0000 1.0000
41.1700 503.0000 1.0000
41.1800 493.0000 1.0000
41.1900 484.0000 1.0000
41.2000 479.0000 1.0000
41.2100 439.0000 1.0000
41.2200 491.0000 1.0000
41.2300 495.0000 1.0000
41.2400 499.0000 1.0000
41.2500 482.0000 1.0000
41.2600 460.0000 1.0000
41.2700 504.0000 1.0000
41.2800 479.0000 1.0000
41.2900 455.0000 1.0000
41.3000 450.0000 1.0000
41.3100 521.0000 1.0000
41.3200 516.0000 1.0000
41.3300 478.0000 1.0000
41.3400 492.0000 1.0000
41.3500 470.0000 1.0000
41.3600 458.0000 1.0000
41.3700 450.0000 1.0000
41.3800 482.0000 1.0000
41.3900 467.0000 1.0000
41.4000 518.0000 1.0000
41.4100 509.0000 1.0000
41.4200 501.0000 1.0000
41.4300 477.0000 1.0000
41.4400 495.0000 1.0000
41.4500 524.0000 1.0000
41.4600 481.0000 1.0000
41.4700 483.0000 1.0000
41.4800 453.0000 1.0000
41.4900 466.0000 1.0000
41.5000 476.0000 1.0000
41.5100 476.0000 1.0000
41.5200 503.0000 1.0000
41.5300 464.0000 1.0000
41.5400 453.0000 1.0000
41.5500 486.0000 1.0000
41.5600 477.0000 1.0000
41.5700 479.0000 1.0000
41.5800 491.0000 1.0000
41.5900 476.0000 1.0000
41.6000 487.0000 1.0000
41.6100 446.0000 1.0000
41.6200 451.0000 1.0000
41.6300 456.0000 1.0000
41.6400 469.0000 1.0000
41.6500 479.0000 1.0000
41.6600 496.0000 1.0000
41.6700 476.0000 1.0000
41.6800 476.0000 1.0000
41.6900 481.0000 1.0000
41.7000 475.0000 1.0000
41.7100 442.0000 1.0000
41.7200 489.0000 1.0000
41.7300 458.0000 1.0000
41.7400 468.0000 1.0000
41.7500 510.0000 1.0000
41.7600 509.0000 1.0000
41.7700 493.0000 1.0000
41.7800 473.0000 1.0000
41.7900 488.0000 1.0000
41.8000 514.0000 1.0000
41.8100 477.0000 1.0000
41.8200 452.0000 1.0000
41.8300 476.0000 1.0000
41.8400 472.0000 1.0000
41.8500 476.0000 1.0000
41.8600 459.0000 1.0000
41.8700 491.0000 1.0000
41.8800 464.0000 1.0000
41.8900 482.0000 1.0000
41.9000 478.0000 1.0000
41.9100 464.0000 1.0000
41.9200 480.0000 1.0000
41.9300 499.0000 1.0000
41.9400 452.0000 1.0000
41.9500 478.0000 1.0000
41.9600 516.0000 1.0000
41.9700 476.0000 1.0000
41.9800 470.0000 1.0000
41.9900 471.0000 1.0000
42.0000 471.0000 1.0000
42.0100 477.0000 1.0000
42.0200 484.0000 1.0000
42.0300 453.0000 1.0000
42.0400 491.0000 1.0000
42.0500 501.0000 1.0000
42.0600 488.0000 1.0000
42.0700 435.0000 1.0000
42.0800 485.0000 1.0000
42.0900 483.0000 1.0000
42.1000 466.0000 1.0000
42.1100 493.0000 1.0000
42.1200 450.0000 1.0000
42.1300 495.0000 1.0000
42.1400 490.0000 1.0000
42.1500 495.0000 1.0000
42.1600 482.0000 1.0000
42.1700 504.0000 1.0000
42.1800 516.0000 1.0000
42.1900 505.0000 1.0000
42.2000 477.0000 1.0000
42.2100 488.0000 1.0000
42.2200 486.0000 1.0000
42.2300 470.0000 1.0000
42.2400 501.0000 1.0000
42.2500 499.0000 1.0000
42.2600 478.0000 1.0000
42.2700 500.0000 1.0000
42.2800 537.0000 1.0000
42.2900 558.0000 1.0000
42.3000 537.0000 1.0000
42.3100 483.0000 1.0000
42.3200 548.0000 1.0000
42.3300 550.0000 1.0000
42.3400 520.0000 1.0000
42.3500 531.0000 1.0000
42.3600 565.0000 1.0000
42.3700 543.0000 1.0000
42.3800 543.0000 1.0000
42.3900 557.0000 1.0000
42.4000 542.0000 1.0000
42.4100 553.0000 1.0000
42.4200 541.0000 1.0000
42.4300 537.0000 1.0000
42.4400 516.0000 1.0000
42.4500 488.0000 1.0000
42.4600 520.0000 1.0000
42.4700 515.0000 1.0000
42.4800 523.0000 1.0000
42.4900 497.0000 1.0000
42.5000 504.0000 1.0000
42.5100 547.0000 1.0000
42.5200 525.0000 1.0000
42.5300 507.0000 1.0000
42.5400 519.0000 1.0000
42.5500 504.0000 1.0000
42.5600 498.0000 1.0000
42.5700 450.0000 1.0000
42.5800 507.0000 1.0000
42.5900 516.0000 1.0000
42.6000 492.0000 1.0000
42.6100 492.0000 1.0000
42.6200 485.0000 1.0000
42.6300 472.0000 1.0000
42.6400 480.0000 1.0000
42.6500 448.0000 1.0000
42.6600 480.0000 1.0000
42.6700 483.0000 1.0000
42.6800 463.0000 1.0000
42.6900 483.0000 1.0000
42.7000 507.0000 1.0000
42.7100 477.0000 1.0000
42.7200 430.0000 1.0000
42.7300 461.0000 1.0000
42.7400 470.0000 1.0000
42.7500 490.0000 1.0000
42.7600 466.0000 1.0000
42.7700 454.0000 1.0000
42.7800 471.0000 1.0000
42.7900 468.0000 1.0000
42.8000 468.0000 1.0000
42.8100 471.0000 1.0000
42.8200 473.0000 1.0000
42.8300 445.0000 1.0000
42.8400 440.0000 1.0000
42.8500 489.0000 1.0000
42.8600 490.0000 1.0000
42.8700 474.0000 1.0000
42.8800 484.0000 1.0000
42.8900 475.0000 1.0000
42.9000 457.0000 1.0000
42.9100 454.0000 1.0000
42.9200 481.0000 1.0000
42.9300 471.0000 1.0000
42.9400 487.0000 1.0000
42.9500 487.0000 1.0000
42.9600 463.0000 1.0000
42.9700 462.0000 1.0000
42.9800 514.0000 1.0000
42.9900 510.0000 1.0000
43.0000 467.0000 1.0000
43.0100 470.0000 1.0000
43.0200 485.0000 1.0000
43.0300 451.0000 1.0000
43.0400 471.0000 1.0000
43.0500 468.0000 1.0000
43.0600 467.0000 1.0000
43.0700 443.0000 1.0000
43.0800 472.0000 1.0000
43.0900 434.0000 1.0000
43.1000 455.0000 1.0000
43.1100 488.0000 1.0000
43.1200 498.0000 1.0000
43.1300 450.0000 1.0000
43.1400 428.0000 1.0000
43.1500 470.0000 1.0000
43.1600 476.0000 1.0000
43.1700 475.0000 1.0000
43.1800 479.0000 1.0000
43.1900 500.0000 1.0000
43.2000 452.0000 1.0000
43.2100 465.0000 1.0000
43.2200 491.0000 1.0000
43.2300 482.0000 1.0000
43.2400 453.0000 1.0000
43.2500 464.0000 1.0000
43.2600 480.0000 1.0000
43.2700 457.0000 1.0000
43.2800 461.0000 1.0000
43.2900 452.0000 1.0000
43.3000 462.0000 1.0000
43.3100 441.0000 1.0000
43.3200 442.0000 1.0000
43.3300 471.0000 1.0000
43.3400 487.0000 1.0000
43.3500 492.0000 1.0000
43.3600 458.0000 1.0000
43.3700 468.0000 1.0000
43.3800 452.0000 1.0000
43.3900 493.0000 1.0000
43.4000 462.0000 1.0000
43.4100 477.0000 1.0000
43.4200 479.0000 1.0000
43.4300 493.0000 1.0000
43.4400 482.0000 1.0000
43.4500 479.0000 1.0000
43.4600 472.0000 1.0000
43.4700 436.0000 1.0000
43.4800 489.0000 1.0000
43.4900 452.0000 1.0000
43.5000 436.0000 1.0000
43.5100 472.0000 1.0000
43.5200 444.0000 1.0000
43.5300 469.0000 1.0000
43.5400 463.0000 1.0000
43.5500 493.0000 1.0000
43.5600 486.0000 1.0000
43.5700 478.0000 1.0000
43.5800 487.0000 1.0000
43.5900 431.0000 1.0000
43.6000 436.0000 1.0000
43.6100 465.0000 1.0000
43.6200 457.0000 1.0000
43.6300 464.0000 1.0000
43.6400 462.0000 1.0000
43.6500 436.0000 1.0000
43.6600 475.0000 1.0000
43.6700 427.0000 1.0000
43.6800 441.0000 1.0000
43.6900 483.0000 1.0000
43.7000 441.0000 1.0000
43.7100 470.0000 1.0000
43.7200 473.0000 1.0000
43.7300 473.0000 1.0000
43.7400 450.0000 1.0000
43.7500 467.0000 1.0000
43.7600 476.0000 1.0000
43.7700 460.0000 1.0000
43.7800 449.0000 1.0000
43.7900 441.0000 1.0000
43.8000 463.0000 1.0000
43.8100 450.0000 1.0000
43.8200 438.0000 1.0000
43.8300 471.0000 1.0000
43.8400 449.0000 1.0000
43.8500 469.0000 1.0000
43.8600 454.0000 1.0000
43.8700 466.0000 1.0000
43.8800 486.0000 1.0000
43.8900 486.0000 1.0000
43.9000 456.0000 1.0000
43.9100 418.0000 1.0000
43.9200 396.0000 1.0000
43.9300 446.0000 1.0000
43.9400 430.0000 1.0000
43.9500 444.0000 1.0000
43.9600 467.0000 1.0000
43.9700 446.0000 1.0000
43.9800 453.0000 1.0000
43.9900 450.0000 1.0000
44.0000 426.0000 1.0000
44.0100 443.0000 1.0000
44.0200 476.0000 1.0000
44.0300 473.0000 1.0000
44.0400 434.0000 1.0000
44.0500 455.0000 1.0000
44.0600 486.0000 1.0000
44.0700 451.0000 1.0000
44.0800 450.0000 1.0000
44.0900 442.0000 1.0000
44.1000 477.0000 1.0000
44.1100 478.0000 1.0000
44.1200 440.0000 1.0000
44.1300 419.0000 1.0000
44.1400 435.0000 1.0000
44.1500 452.0000 1.0000
44.1600 418.0000 1.0000
44.1700 419.0000 1.0000
44.1800 459.0000 1.0000
44.1900 454.0000 1.0000
44.2000 465.0000 1.0000
44.2100 441.0000 1.0000
44.2200 452.0000 1.0000
44.2300 474.0000 1.0000
44.2400 456.0000 1.0000
44.2500 433.0000 1.0000
44.2600 493.0000 1.0000
44.2700 467.0000 1.0000
44.2800 458.0000 1.0000
44.2900 454.0000 1.0000
44.3000 447.0000 1.0000
44.3100 460.0000 1.0000
44.3200 466.0000 1.0000
44.3300 415.0000 1.0000
44.3400 425.0000 1.0000
44.3500 443.0000 1.0000
44.3600 449.0000 1.0000
44.3700 429.0000 1.0000
44.3800 411.0000 1.0000
44.3900 418.0000 1.0000
44.4000 421.0000 1.0000
44.4100 453.0000 1.0000
44.4200 471.0000 1.0000
44.4300 445.0000 1.0000
44.4400 453.0000 1.0000
44.4500 457.0000 1.0000
44.4600 465.0000 1.0000
44.4700 451.0000 1.0000
44.4800 470.0000 1.0000
44.4900 471.0000 1.0000
44.5000 457.0000 1.0000
44.5100 458.0000 1.0000
44.5200 458.0000 1.0000
44.5300 440.0000 1.0000
44.5400 436.0000 1.0000
44.5500 453.0000 1.0000
44.5600 428.0000 1.0000
44.5700 467.0000 1.0000
44.5800 444.0000 1.0000
44.5900 430.0000 1.0000
44.6000 450.0000 1.0000
44.6100 463.0000 1.0000
44.6200 441.0000 1.0000
44.6300 442.0000 1.0000
44.6400 436.0000 1.0000
44.6500 444.0000 1.0000
44.6600 454.0000 1.0000
44.6700 448.0000 1.0000
44.6800 441.0000 1.0000
44.6900 430.0000 1.0000
44.7000 445.0000 1.0000
44.7100 441.0000 1.0000
44.7200 423.0000 1.0000
44.7300 459.0000 1.0000
44.7400 458.0000 1.0000
44.7500 423.0000 1.0000
44.7600 459.0000 1.0000
44.7700 449.0000 1.0000
44.7800 465.0000 1.0000
44.7900 434.0000 1.0000
44.8000 418.0000 1.0000
44.8100 451.0000 1.0000
44.8200 446.0000 1.0000
44.8300 437.0000 1.0000
44.8400 434.0000 1.0000
44.8500 447.0000 1.0000
44.8600 421.0000 1.0000
44.8700 461.0000 1.0000
44.8800 465.0000 1.0000
44.8900 461.0000 1.0000
44.9000 461.0000 1.0000
44.9100 438.0000 1.0000
44.9200 453.0000 1.0000
44.9300 470.0000 1.0000
44.9400 420.0000 1.0000
44.9500 439.0000 1.0000
44.9600 448.0000 1.0000
44.9700 463.0000 1.0000
44.9800 438.0000 1.0000
44.9900 455.0000 1.0000
45.0000 415.0000 1.0000
45.0100 425.0000 1.0000
45.0200 430.0000 1.0000
45.0300 472.0000 1.0000
45.0400 433.0000 1.0000
45.0500 421.0000 1.0000
45.0600 460.0000 1.0000
45.0700 449.0000 1.0000
45.0800 466.0000 1.0000
45.0900 450.0000 1.0000
45.1000 433.0000 1.0000
45.1100 446.0000 1.0000
45.1200 416.0000 1.0000
45.1300 466.0000 1.0000
45.1400 449.0000 1.0000
45.1500 441.0000 1.0000
45.1600 486.0000 1.0000
45.1700 456.0000 1.0000
45.1800 480.0000 1.0000
45.1900 472.0000 1.0000
45.2000 415.0000 1.0000
45.2100 434.0000 1.0000
45.2200 440.0000 1.0000
45.2300 483.0000 1.0000
45.2400 461.0000 1.0000
45.2500 418.0000 1.0000
45.2600 433.0000 1.0000
45.2700 430.0000 1.0000
45.2800 459.0000 1.0000
45.2900 439.0000 1.0000
45.3000 458.0000 1.0000
45.3100 429.0000 1.0000
45.3200 461.0000 1.0000
45.3300 443.0000 1.0000
45.3400 441.0000 1.0000
45.3500 436.0000 1.0000
45.3600 435.0000 1.0000
45.3700 466.0000 1.0000
45.3800 454.0000 1.0000
45.3900 431.0000 1.0000
45.4000 496.0000 1.0000
45.4100 434.0000 1.0000
45.4200 437.0000 1.0000
45.4300 458.0000 1.0000
45.4400 454.0000 1.0000
45.4500 437.0000 1.0000
45.4600 484.0000 1.0000
45.4700 449.0000 1.0000
45.4800 455.0000 1.0000
45.4900 435.0000 1.0000
45.5000 437.0000 1.0000
45.5100 416.0000 1.0000
45.5200 407.0000 1.0000
45.5300 418.0000 1.0000
45.5400 442.0000 1.0000
45.5500 463.0000 1.0000
45.5600 436.0000 1.0000
45.5700 462.0000 1.0000
45.5800 426.0000 1.0000
45.5900 478.0000 1.0000
45.6000 436.0000 1.0000
45.6100 413.0000 1.0000
45.6200 444.0000 1.0000
45.6300 455.0000 1.0000
45.6400 443.0000 1.0000
45.6500 453.0000 1.0000
45.6600 426.0000 1.0000
45.6700 450.0000 1.0000
45.6800 428.0000 1.0000
45.6900 444.0000 1.0000
45.7000 439.0000 1.0000
45.7100 410.0000 1.0000
45.7200 424.0000 1.0000
45.7300 426.0000 1.0000
45.7400 441.0000 1.0000
45.7500 429.0000 1.0000
45.7600 441.0000 1.0000
45.7700 425.0000 1.0000
45.7800 466.0000 1.0000
45.7900 445.0000 1.0000
45.8000 431.0000 1.0000
45.8100 426.0000 1.0000
45.8200 435.0000 1.0000
45.8300 439.0000 1.0000
45.8400 436.0000 1.0000
45.8500 476.0000 1.0000
45.8600 445.0000 1.0000
45.8700 431.0000 1.0000
45.8800 481.0000 1.0000
45.8900 436.0000 1.0000
45.9000 440.0000 1.0000
45.9100 466.0000 1.0000
45.9200 442.0000 1.0000
45.9300 440.0000 1.0000
45.9400 448.0000 1.0000
45.9500 451.0000 1.0000
45.9600 449.0000 1.0000
45.9700 456.0000 1.0000
45.9800 423.0000 1.0000
45.9900 380.0000 1.0000
46.0000 416.0000 1.0000
46.0100 446.0000 1.0000
46.0200 406.0000 1.0000
46.0300 421.0000 1.0000
46.0400 400.0000 1.0000
46.0500 461.0000 1.0000
46.0600 462.0000 1.0000
46.0700 463.0000 1.0000
46.0800 431.0000 1.0000
46.0900 446.0000 1.0000
46.1000 460.0000 1.0000
46.1100 450.0000 1.0000
46.1200 449.0000 1.0000
46.1300 441.0000 1.0000
46.1400 438.0000 1.0000
46.1500 423.0000 1.0000
46.1600 442.0000 1.0000
46.1700 442.0000 1.0000
46.1800 462.0000 1.0000
46.1900 446.0000 1.0000
46.2000 454.0000 1.0000
46.2100 477.0000 1.0000
46.2200 487.0000 1.0000
46.2300 459.0000 1.0000
46.2400 438.0000 1.0000
46.2500 444.0000 1.0000
46.2600 451.0000 1.0000
46.2700 414.0000 1.0000
46.2800 460.0000 1.0000
46.2900 471.0000 1.0000
46.3000 439.0000 1.0000
46.3100 472.0000 1.0000
46.3200 435.0000 1.0000
46.3300 420.0000 1.0000
46.3400 474.0000 1.0000
46.3500 421.0000 1.0000
46.3600 462.0000 1.0000
46.3700 485.0000 1.0000
46.3800 449.0000 1.0000
46.3900 464.0000 1.0000
46.4000 460.0000 1.0000
46.4100 408.0000 1.0000
46.4200 465.0000 1.0000
46.4300 439.0000 1.0000
46.4400 439.0000 1.0000
46.4500 459.0000 1.0000
46.4600 444.0000 1.0000
46.4700 421.0000 1.0000
46.4800 413.0000 1.0000
46.4900 452.0000 1.0000
46.5000 438.0000 1.0000
46.5100 403.0000 1.0000
46.5200 417.0000 1.0000
46.5300 448.0000 1.0000
46.5400 426.0000 1.0000
46.5500 412.0000 1.0000
46.5600 418.0000 1.0000
46.5700 461.0000 1.0000
46.5800 454.0000 1.0000
46.5900 450.0000 1.0000
46.6000 428.0000 1.0000
46.6100 433.0000 1.0000
46.6200 443.0000 1.0000
46.6300 474.0000 1.0000
46.6400 451.0000 1.0000
46.6500 461.0000 1.0000
46.6600 462.0000 1.0000
46.6700 474.0000 1.0000
46.6800 445.0000 1.0000
46.6900 448.0000 1.0000
46.7000 439.0000 1.0000
46.7100 441.0000 1.0000
46.7200 463.0000 1.0000
46.7300 509.0000 1.0000
46.7400 456.0000 1.0000
46.7500 448.0000 1.0000
46.7600 442.0000 1.0000
46.7700 428.0000 1.0000
46.7800 444.0000 1.0000
46.7900 431.0000 1.0000
46.8000 439.0000 1.0000
46.8100 488.0000 1.0000
46.8200 432.0000 1.0000
46.8300 462.0000 1.0000
46.8400 456.0000 1.0000
46.8500 445.0000 1.0000
46.8600 427.0000 1.0000
46.8700 436.0000 1.0000
46.8800 396.0000 1.0000
46.8900 465.0000 1.0000
46.9000 448.0000 1.0000
46.9100 456.0000 1.0000
46.9200 410.0000 1.0000
46.9300 400.0000 1.0000
46.9400 396.0000 1.0000
46.9500 419.0000 1.0000
46.9600 434.0000 1.0000
46.9700 431.0000 1.0000
46.9800 433.0000 1.0000
46.9900 432.0000 1.0000
47.0000 441.0000 1.0000
47.0100 434.0000 1.0000
47.0200 417.0000 1.0000
47.0300 420.0000 1.0000
47.0400 471.0000 1.0000
47.0500 443.0000 1.0000
47.0600 422.0000 1.0000
47.0700 444.0000 1.0000
47.0800 436.0000 1.0000
47.0900 427.0000 1.0000
47.1000 432.0000 1.0000
47.1100 439.0000 1.0000
47.1200 454.0000 1.0000
47.1300 421.0000 1.0000
47.1400 414.0000 1.0000
47.1500 425.0000 1.0000
47.1600 424.0000 1.0000
47.1700 439.0000 1.0000
47.1800 464.0000 1.0000
47.1900 456.0000 1.0000
47.2000 460.0000 1.0000
47.2100 456.0000 1.0000
47.2200 452.0000 1.0000
47.2300 433.0000 1.0000
47.2400 434.0000 1.0000
47.2500 405.0000 1.0000
47.2600 462.0000 1.0000
47.2700 418.0000 1.0000
47.2800 433.0000 1.0000
47.2900 431.0000 1.0000
47.3000 417.0000 1.0000
47.3100 440.0000 1.0000
47.3200 438.0000 1.0000
47.3300 439.0000 1.0000
47.3400 450.0000 1.0000
47.3500 429.0000 1.0000
47.3600 441.0000 1.0000
47.3700 444.0000 1.0000
47.3800 452.0000 1.0000
47.3900 442.0000 1.0000
47.4000 453.0000 1.0000
47.4100 450.0000 1.0000
47.4200 452.0000 1.0000
47.4300 416.0000 1.0000
47.4400 483.0000 1.0000
47.4500 432.0000 1.0000
47.4600 443.0000 1.0000
47.4700 435.0000 1.0000
47.4800 468.0000 1.0000
47.4900 435.0000 1.0000
47.5000 412.0000 1.0000
47.5100 394.0000 1.0000
47.5200 403.0000 1.0000
47.5300 417.0000 1.0000
47.5400 415.0000 1.0000
47.5500 433.0000 1.0000
47.5600 443.0000 1.0000
47.5700 464.0000 1.0000
47.5800 439.0000 1.0000
47.5900 425.0000 1.0000
47.6000 433.0000 1.0000
47.6100 398.0000 1.0000
47.6200 455.0000 1.0000
47.6300 427.0000 1.0000
47.6400 454.0000 1.0000
47.6500 449.0000 1.0000
47.6600 444.0000 1.0000
47.6700 436.0000 1.0000
47.6800 441.0000 1.0000
47.6900 461.0000 1.0000
47.7000 436.0000 1.0000
47.7100 402.0000 1.0000
47.7200 437.0000 1.0000
47.7300 423.0000 1.0000
47.7400 423.0000 1.0000
47.7500 390.0000 1.0000
47.7600 412.0000 1.0000
47.7700 418.0000 1.0000
47.7800 421.0000 1.0000
47.7900 429.0000 1.0000
47.8000 463.0000 1.0000
47.8100 436.0000 1.0000
47.8200 408.0000 1.0000
47.8300 444.0000 1.0000
47.8400 397.0000 1.0000
47.8500 411.0000 1.0000
47.8600 425.0000 1.0000
47.8700 442.0000 1.0000
47.8800 398.0000 1.0000
47.8900 413.0000 1.0000
47.9000 393.0000 1.0000
47.9100 409.0000 1.0000
47.9200 417.0000 1.0000
47.9300 407.0000 1.0000
47.9400 405.0000 1.0000
47.9500 430.0000 1.0000
47.9600 424.0000 1.0000
47.9700 430.0000 1.0000
47.9800 406.0000 1.0000
47.9900 429.0000 1.0000
48.0000 409.0000 1.0000
48.0100 452.0000 1.0000
48.0200 455.0000 1.0000
48.0300 414.0000 1.0000
48.0400 398.0000 1.0000
48.0500 424.0000 1.0000
48.0600 411.0000 1.0000
48.0700 416.0000 1.0000
48.0800 429.0000 1.0000
48.0900 427.0000 1.0000
48.1000 415.0000 1.0000
48.1100 406.0000 1.0000
48.1200 424.0000 1.0000
48.1300 422.0000 1.0000
48.1400 405.0000 1.0000
48.1500 400.0000 1.0000
48.1600 414.0000 1.0000
48.1700 441.0000 1.0000
48.1800 388.0000 1.0000
48.1900 444.0000 1.0000
48.2000 444.0000 1.0000
48.2100 427.0000 1.0000
48.2200 446.0000 1.0000
48.2300 448.0000 1.0000
48.2400 449.0000 1.0000
48.2500 426.0000 1.0000
48.2600 414.0000 1.0000
48.2700 416.0000 1.0000
48.2800 436.0000 1.0000
48.2900 415.0000 1.0000
48.3000 422.0000 1.0000
48.3100 413.0000 1.0000
48.3200 392.0000 1.0000
48.3300 423.0000 1.0000
48.3400 395.0000 1.0000
48.3500 404.0000 1.0000
48.3600 439.0000 1.0000
48.3700 399.0000 1.0000
48.3800 433.0000 1.0000
48.3900 448.0000 1.0000
48.4000 456.0000 1.0000
48.4100 432.0000 1.0000
48.4200 453.0000 1.0000
48.4300 441.0000 1.0000
48.4400 424.0000 1.0000
48.4500 415.0000 1.0000
48.4600 438.0000 1.0000
48.4700 421.0000 1.0000
48.4800 386.0000 1.0000
48.4900 410.0000 1.0000
48.5000 411.0000 1.0000
48.5100 452.0000 1.0000
48.5200 419.0000 1.0000
48.5300 440.0000 1.0000
48.5400 446.0000 1.0000
48.5500 430.0000 1.0000
48.5600 443.0000 1.0000
48.5700 406.0000 1.0000
48.5800 411.0000 1.0000
48.5900 460.0000 1.0000
48.6000 419.0000 1.0000
48.6100 429.0000 1.0000
48.6200 471.0000 1.0000
48.6300 461.0000 1.0000
48.6400 424.0000 1.0000
48.6500 445.0000 1.0000
48.6600 418.0000 1.0000
48.6700 409.0000 1.0000
48.6800 425.0000 1.0000
48.6900 417.0000 1.0000
48.7000 408.0000 1.0000
48.7100 413.0000 1.0000
48.7200 407.0000 1.0000
48.7300 398.0000 1.0000
48.7400 437.0000 1.0000
48.7500 423.0000 1.0000
48.7600 402.0000 1.0000
48.7700 406.0000 1.0000
48.7800 437.0000 1.0000
48.7900 437.0000 1.0000
48.8000 431.0000 1.0000
48.8100 393.0000 1.0000
48.8200 409.0000 1.0000
48.8300 445.0000 1.0000
48.8400 407.0000 1.0000
48.8500 424.0000 1.0000
48.8600 456.0000 1.0000
48.8700 429.0000 1.0000
48.8800 387.0000 1.0000
48.8900 400.0000 1.0000
48.9000 441.0000 1.0000
48.9100 424.0000 1.0000
48.9200 436.0000 1.0000
48.9300 406.0000 1.0000
48.9400 408.0000 1.0000
48.9500 439.0000 1.0000
48.9600 422.0000 1.0000
48.9700 403.0000 1.0000
48.9800 414.0000 1.0000
48.9900 391.0000 1.0000
49.0000 405.0000 1.0000
49.0100 384.0000 1.0000
49.0200 408.0000 1.0000
49.0300 412.0000 1.0000
49.0400 418.0000 1.0000
49.0500 427.0000 1.0000
49.0600 459.0000 1.0000
49.0700 423.0000 1.0000
49.0800 399.0000 1.0000
49.0900 412.0000 1.0000
49.1000 427.0000 1.0000
49.1100 388.0000 1.0000
49.1200 399.0000 1.0000
49.1300 399.0000 1.0000
49.1400 432.0000 1.0000
49.1500 422.0000 1.0000
49.1600 415.0000 1.0000
49.1700 422.0000 1.0000
49.1800 406.0000 1.0000
49.1900 430.0000 1.0000
49.2000 423.0000 1.0000
49.2100 403.0000 1.0000
49.2200 445.0000 1.0000
49.2300 427.0000 1.0000
49.2400 449.0000 1.0000
49.2500 466.0000 1.0000
49.2600 448.0000 1.0000
49.2700 420.0000 1.0000
49.2800 460.0000 1.0000
49.2900 456.0000 1.0000
49.3000 448.0000 1.0000
49.3100 456.0000 1.0000
49.3200 453.0000 1.0000
49.3300 477.0000 1.0000
49.3400 473.0000 1.0000
49.3500 529.0000 1.0000
49.3600 494.0000 1.0000
49.3700 517.0000 1.0000
49.3800 540.0000 1.0000
49.3900 509.0000 1.0000
49.4000 491.0000 1.0000
49.4100 535.0000 1.0000
49.4200 499.0000 1.0000
49.4300 489.0000 1.0000
49.4400 504.0000 1.0000
49.4500 505.0000 1.0000
49.4600 465.0000 1.0000
49.4700 507.0000 1.0000
49.4800 480.0000 1.0000
49.4900 495.0000 1.0000
49.5000 437.0000 1.0000
49.5100 492.0000 1.0000
49.5200 476.0000 1.0000
49.5300 479.0000 1.0000
49.5400 504.0000 1.0000
49.5500 459.0000 1.0000
49.5600 401.0000 1.0000
49.5700 426.0000 1.0000
49.5800 462.0000 1.0000
49.5900 454.0000 1.0000
49.6000 450.0000 1.0000
49.6100 472.0000 1.0000
49.6200 427.0000 1.0000
49.6300 435.0000 1.0000
49.6400 447.0000 1.0000
49.6500 453.0000 1.0000
49.6600 452.0000 1.0000
49.6700 443.0000 1.0000
49.6800 412.0000 1.0000
49.6900 452.0000 1.0000
49.7000 470.0000 1.0000
49.7100 449.0000 1.0000
49.7200 431.0000 1.0000
49.7300 425.0000 1.0000
49.7400 410.0000 1.0000
49.7500 434.0000 1.0000
49.7600 453.0000 1.0000
49.7700 414.0000 1.0000
49.7800 440.0000 1.0000
49.7900 402.0000 1.0000
49.8000 452.0000 1.0000
49.8100 409.0000 1.0000
49.8200 421.0000 1.0000
49.8300 404.0000 1.0000
49.8400 432.0000 1.0000
49.8500 430.0000 1.0000
49.8600 445.0000 1.0000
49.8700 456.0000 1.0000
49.8800 423.0000 1.0000
49.8900 418.0000 1.0000
49.9000 458.0000 1.0000
49.9100 466.0000 1.0000
49.9200 409.0000 1.0000
49.9300 423.0000 1.0000
49.9400 400.0000 1.0000
49.9500 419.0000 1.0000
49.9600 441.0000 1.0000
49.9700 404.0000 1.0000
49.9800 436.0000 1.0000
49.9900 450.0000 1.0000
50.0000 479.0000 1.0000
50.0100 423.0000 1.0000
50.0200 424.0000 1.0000
50.0300 403.0000 1.0000
50.0400 402.0000 1.0000
50.0500 407.0000 1.0000
50.0600 427.0000 1.0000
50.0700 434.0000 1.0000
50.0800 432.0000 1.0000
50.0900 420.0000 1.0000
50.1000 410.0000 1.0000
50.1100 413.0000 1.0000
50.1200 419.0000 1.0000
50.1300 436.0000 1.0000
50.1400 416.0000 1.0000
50.1500 410.0000 1.0000
50.1600 440.0000 1.0000
50.1700 389.0000 1.0000
50.1800 388.0000 1.0000
50.1900 402.0000 1.0000
50.2000 422.0000 1.0000
50.2100 418.0000 1.0000
50.2200 436.0000 1.0000
50.2300 402.0000 1.0000
50.2400 398.0000 1.0000
50.2500 442.0000 1.0000
50.2600 395.0000 1.0000
50.2700 433.0000 1.0000
50.2800 397.0000 1.0000
50.2900 400.0000 1.0000
50.3000 400.0000 1.0000
50.3100 412.0000 1.0000
50.3200 433.0000 1.0000
50.3300 408.0000 1.0000
50.3400 390.0000 1.0000
50.3500 383.0000 1.0000
50.3600 432.0000 1.0000
50.3700 422.0000 1.0000
50.3800 434.0000 1.0000
50.3900 414.0000 1.0000
50.4000 419.0000 1.0000
50.4100 417.0000 1.0000
50.4200 419.0000 1.0000
50.4300 427.0000 1.0000
50.4400 434.0000 1.0000
50.4500 425.0000 1.0000
50.4600 434.0000 1.0000
50.4700 392.0000 1.0000
50.4800 428.0000 1.0000
50.4900 441.0000 1.0000
50.5000 396.0000 1.0000
50.5100 409.0000 1.0000
50.5200 401.0000 1.0000
50.5300 396.0000 1.0000
50.5400 423.0000 1.0000
50.5500 455.0000 1.0000
50.5600 415.0000 1.0000
50.5700 441.0000 1.0000
50.5800 443.0000 1.0000
50.5900 430.0000 1.0000
50.6000 414.0000 1.0000
50.6100 424.0000 1.0000
50.6200 403.0000 1.0000
50.6300 402.0000 1.0000
50.6400 392.0000 1.0000
50.6500 417.0000 1.0000
50.6600 440.0000 1.0000
50.6700 448.0000 1.0000
50.6800 438.0000 1.0000
50.6900 397.0000 1.0000
50.7000 423.0000 1.0000
50.7100 428.0000 1.0000
50.7200 410.0000 1.0000
50.7300 421.0000 1.0000
50.7400 405.0000 1.0000
50.7500 439.0000 1.0000
50.7600 454.0000 1.0000
50.7700 395.0000 1.0000
50.7800 400.0000 1.0000
50.7900 422.0000 1.0000
50.8000 407.0000 1.0000
50.8100 427.0000 1.0000
50.8200 453.0000 1.0000
50.8300 428.0000 1.0000
50.8400 448.0000 1.0000
50.8500 421.0000 1.0000
50.8600 415.0000 1.0000
50.8700 408.0000 1.0000
50.8800 458.0000 1.0000
50.8900 470.0000 1.0000
50.9000 463.0000 1.0000
50.9100 443.0000 1.0000
50.9200 501.0000 1.0000
50.9300 489.0000 1.0000
50.9400 436.0000 1.0000
50.9500 440.0000 1.0000
50.9600 461.0000 1.0000
50.9700 495.0000 1.0000
50.9800 494.0000 1.0000
50.9900 477.0000 1.0000
51.0000 437.0000 1.0000
51.0100 454.0000 1.0000
51.0200 490.0000 1.0000
51.0300 463.0000 1.0000
51.0400 459.0000 1.0000
51.0500 499.0000 1.0000
51.0600 460.0000 1.0000
51.0700 522.0000 1.0000
51.0800 495.0000 1.0000
51.0900 534.0000 1.0000
51.1000 547.0000 1.0000
51.1100 559.0000 1.0000
51.1200 580.0000 1.0000
51.1300 546.0000 1.0000
51.1400 579.0000 1.0000
51.1500 564.0000 1.0000
51.1600 582.0000 1.0000
51.1700 617.0000 1.0000
51.1800 593.0000 1.0000
51.1900 601.0000 1.0000
51.2000 664.0000 1.0000
51.2100 752.0000 1.0000
51.2200 747.0000 1.0000
51.2300 725.0000 1.0000
51.2400 756.0000 1.0000
51.2500 808.0000 1.0000
51.2600 856.0000 1.0000
51.2700 882.0000 1.0000
51.2800 965.0000 1.0000
51.2900 976.0000 1.0000
51.3000 1029.0000 1.0000
51.3100 1151.0000 1.0000
51.3200 1246.0000 1.0000
51.3300 1276.0000 1.0000
51.3400 1392.0000 1.0000
51.3500 1455.0000 1.0000
51.3600 1587.0000 1.0000
51.3700 1727.0000 1.0000
51.3800 1915.0000 1.0000
51.3900 2020.0000 1.0000
51.4000 2150.0000 1.0000
51.4100 2349.0000 1.0000
51.4200 2412.0000 1.0000
51.4300 2616.0000 1.0000
51.4400 2764.0000 1.0000
51.4500 2880.0000 1.0000
51.4600 2953.0000 1.0000
51.4700 2877.0000 1.0000
51.4800 2951.0000 1.0000
51.4900 2905.0000 1.0000
51.5000 2787.0000 1.0000
51.5100 2839.0000 1.0000
51.5200 2758.0000 1.0000
51.5300 2663.0000 1.0000
51.5400 2557.0000 1.0000
51.5500 2475.0000 1.0000
51.5600 2439.0000 1.0000
51.5700 2376.0000 1.0000
51.5800 2324.0000 1.0000
51.5900 2224.0000 1.0000
51.6000 2140.0000 1.0000
51.6100 2024.0000 1.0000
51.6200 2044.0000 1.0000
51.6300 1967.0000 1.0000
51.6400 1820.0000 1.0000
51.6500 1769.0000 1.0000
51.6600 1601.0000 1.0000
51.6700 1440.0000 1.0000
51.6800 1377.0000 1.0000
51.6900 1304.0000 1.0000
51.7000 1169.0000 1.0000
51.7100 1142.0000 1.0000
51.7200 1033.0000 1.0000
51.7300 988.0000 1.0000
51.7400 903.0000 1.0000
51.7500 844.0000 1.0000
51.7600 846.0000 1.0000
51.7700 802.0000 1.0000
51.7800 745.0000 1.0000
51.7900 685.0000 1.0000
51.8000 737.0000 1.0000
51.8100 695.0000 1.0000
51.8200 701.0000 1.0000
51.8300 688.0000 1.0000
51.8400 641.0000 1.0000
51.8500 607.0000 1.0000
51.8600 603.0000 1.0000
51.8700 564.0000 1.0000
51.8800 606.0000 1.0000
51.8900 564.0000 1.0000
51.9000 536.0000 1.0000
51.9100 543.0000 1.0000
51.9200 515.0000 1.0000
51.9300 505.0000 1.0000
51.9400 520.0000 1.0000
51.9500 514.0000 1.0000
51.9600 514.0000 1.0000
51.9700 490.0000 1.0000
51.9800 499.0000 1.0000
51.9900 442.0000 1.0000
52.0000 502.0000 1.0000
52.0100 490.0000 1.0000
52.0200 464.0000 1.0000
52.0300 480.0000 1.0000
52.0400 477.0000 1.0000
52.0500 449.0000 1.0000
52.0600 492.0000 1.0000
52.0700 477.0000 1.0000
52.0800 484.0000 1.0000
52.0900 435.0000 1.0000
52.1000 467.0000 1.0000
52.1100 440.0000 1.0000
52.1200 482.0000 1.0000
52.1300 452.0000 1.0000
52.1400 414.0000 1.0000
52.1500 457.0000 1.0000
52.1600 426.0000 1.0000
52.1700 426.0000 1.0000
52.1800 454.0000 1.0000
52.1900 411.0000 1.0000
52.2000 433.0000 1.0000
52.2100 444.0000 1.0000
52.2200 417.0000 1.0000
52.2300 438.0000 1.0000
52.2400 425.0000 1.0000
52.2500 396.0000 1.0000
52.2600 409.0000 1.0000
52.2700 405.0000 1.0000
52.2800 424.0000 1.0000
52.2900 434.0000 1.0000
52.3000 438.0000 1.0000
52.3100 410.0000 1.0000
52.3200 380.0000 1.0000
52.3300 406.0000 1.0000
52.3400 438.0000 1.0000
52.3500 409.0000 1.0000
52.3600 424.0000 1.0000
52.3700 435.0000 1.0000
52.3800 393.0000 1.0000
52.3900 396.0000 1.0000
52.4000 408.0000 1.0000
52.4100 430.0000 1.0000
52.4200 435.0000 1.0000
52.4300 410.0000 1.0000
52.4400 423.0000 1.0000
52.4500 419.0000 1.0000
52.4600 402.0000 1.0000
52.4700 417.0000 1.0000
52.4800 393.0000 1.0000
52.4900 377.0000 1.0000
52.5000 395.0000 1.0000
52.5100 404.0000 1.0000
52.5200 441.0000 1.0000
52.5300 392.0000 1.0000
52.5400 398.0000 1.0000
52.5500 416.0000 1.0000
52.5600 424.0000 1.0000
52.5700 391.0000 1.0000
52.5800 414.0000 1.0000
52.5900 438.0000 1.0000
52.6000 452.0000 1.0000
52.6100 419.0000 1.0000
52.6200 455.0000 1.0000
52.6300 441.0000 1.0000
52.6400 404.0000 1.0000
52.6500 397.0000 1.0000
52.6600 400.0000 1.0000
52.6700 417.0000 1.0000
52.6800 428.0000 1.0000
52.6900 400.0000 1.0000
52.7000 390.0000 1.0000
52.7100 429.0000 1.0000
52.7200 422.0000 1.0000
52.7300 388.0000 1.0000
52.7400 396.0000 1.0000
52.7500 404.0000 1.0000
52.7600 380.0000 1.0000
52.7700 407.0000 1.0000
52.7800 380.0000 1.0000
52.7900 402.0000 1.0000
52.8000 396.0000 1.0000
52.8100 406.0000 1.0000
52.8200 406.0000 1.0000
52.8300 395.0000 1.0000
52.8400 363.0000 1.0000
52.8500 399.0000 1.0000
52.8600 406.0000 1.0000
52.8700 417.0000 1.0000
52.8800 406.0000 1.0000
52.8900 434.0000 1.0000
52.9000 414.0000 1.0000
52.9100 426.0000 1.0000
52.9200 387.0000 1.0000
52.9300 421.0000 1.0000
52.9400 403.0000 1.0000
52.9500 382.0000 1.0000
52.9600 402.0000 1.0000
52.9700 383.0000 1.0000
52.9800 427.0000 1.0000
52.9900 414.0000 1.0000
53.0000 418.0000 1.0000
53.0100 390.0000 1.0000
53.0200 408.0000 1.0000
53.0300 381.0000 1.0000
53.0400 446.0000 1.0000
53.0500 427.0000 1.0000
53.0600 390.0000 1.0000
53.0700 394.0000 1.0000
53.0800 374.0000 1.0000
53.0900 416.0000 1.0000
53.1000 406.0000 1.0000
53.1100 395.0000 1.0000
53.1200 392.0000 1.0000
53.1300 384.0000 1.0000
53.1400 393.0000 1.0000
53.1500 413.0000 1.0000
53.1600 385.0000 1.0000
53.1700 367.0000 1.0000
53.1800 397.0000 1.0000
53.1900 399.0000 1.0000
53.2000 439.0000 1.0000
53.2100 397.0000 1.0000
53.2200 394.0000 1.0000
53.2300 388.0000 1.0000
53.2400 407.0000 1.0000
53.2500 403.0000 1.0000
53.2600 393.0000 1.0000
53.2700 412.0000 1.0000
53.2800 408.0000 1.0000
53.2900 394.0000 1.0000
53.3000 425.0000 1.0000
53.3100 442.0000 1.0000
53.3200 378.0000 1.0000
53.3300 373.0000 1.0000
53.3400 408.0000 1.0000
53.3500 356.0000 1.0000
53.3600 390.0000 1.0000
53.3700 411.0000 1.0000
53.3800 389.0000 1.0000
53.3900 374.0000 1.0000
53.4000 399.0000 1.0000
53.4100 421.0000 1.0000
53.4200 412.0000 1.0000
53.4300 397.0000 1.0000
53.4400 388.0000 1.0000
53.4500 400.0000 1.0000
53.4600 390.0000 1.0000
53.4700 394.0000 1.0000
53.4800 384.0000 1.0000
53.4900 423.0000 1.0000
53.5000 389.0000 1.0000
53.5100 367.0000 1.0000
53.5200 395.0000 1.0000
53.5300 390.0000 1.0000
53.5400 403.0000 1.0000
53.5500 435.0000 1.0000
53.5600 424.0000 1.0000
53.5700 411.0000 1.0000
53.5800 391.0000 1.0000
53.5900 420.0000 1.0000
53.6000 405.0000 1.0000
53.6100 401.0000 1.0000
53.6200 429.0000 1.0000
53.6300 398.0000 1.0000
53.6400 373.0000 1.0000
53.6500 399.0000 1.0000
53.6600 405.0000 1.0000
53.6700 426.0000 1.0000
53.6800 405.0000 1.0000
53.6900 359.0000 1.0000
53.7000 422.0000 1.0000
53.7100 418.0000 1.0000
53.7200 418.0000 1.0000
53.7300 423.0000 1.0000
53.7400 424.0000 1.0000
53.7500 396.0000 1.0000
53.7600 375.0000 1.0000
53.7700 389.0000 1.0000
53.7800 396.0000 1.0000
53.7900 385.0000 1.0000
53.8000 422.0000 1.0000
53.8100 417.0000 1.0000
53.8200 419.0000 1.0000
53.8300 438.0000 1.0000
53.8400 422.0000 1.0000
53.8500 452.0000 1.0000
53.8600 432.0000 1.0000
53.8700 426.0000 1.0000
53.8800 410.0000 1.0000
53.8900 429.0000 1.0000
53.9000 461.0000 1.0000
53.9100 432.0000 1.0000
53.9200 462.0000 1.0000
53.9300 460.0000 1.0000
53.9400 458.0000 1.0000
53.9500 467.0000 1.0000
53.9600 500.0000 1.0000
53.9700 503.0000 1.0000
53.9800 535.0000 1.0000
53.9900 475.0000 1.0000
54.0000 505.0000 1.0000
54.0100 484.0000 1.0000
54.0200 506.0000 1.0000
54.0300 513.0000 1.0000
54.0400 482.0000 1.0000
54.0500 489.0000 1.0000
54.0600 512.0000 1.0000
54.0700 483.0000 1.0000
54.0800 449.0000 1.0000
54.0900 487.0000 1.0000
54.1000 451.0000 1.0000
54.1100 482.0000 1.0000
54.1200 489.0000 1.0000
54.1300 446.0000 1.0000
54.1400 503.0000 1.0000
54.1500 484.0000 1.0000
54.1600 465.0000 1.0000
54.1700 451.0000 1.0000
54.1800 456.0000 1.0000
54.1900 458.0000 1.0000
54.2000 475.0000 1.0000
54.2100 411.0000 1.0000
54.2200 453.0000 1.0000
54.2300 465.0000 1.0000
54.2400 444.0000 1.0000
54.2500 449.0000 1.0000
54.2600 440.0000 1.0000
54.2700 495.0000 1.0000
54.2800 470.0000 1.0000
54.2900 452.0000 1.0000
54.3000 455.0000 1.0000
54.3100 503.0000 1.0000
54.3200 471.0000 1.0000
54.3300 469.0000 1.0000
54.3400 471.0000 1.0000
54.3500 476.0000 1.0000
54.3600 501.0000 1.0000
54.3700 497.0000 1.0000
54.3800 530.0000 1.0000
54.3900 498.0000 1.0000
54.4000 588.0000 1.0000
54.4100 531.0000 1.0000
54.4200 562.0000 1.0000
54.4300 551.0000 1.0000
54.4400 577.0000 1.0000
54.4500 583.0000 1.0000
54.4600 586.0000 1.0000
54.4700 616.0000 1.0000
54.4800 647.0000 1.0000
54.4900 613.0000 1.0000
54.5000 607.0000 1.0000
54.5100 604.0000 1.0000
54.5200 655.0000 1.0000
54.5300 589.0000 1.0000
54.5400 591.0000 1.0000
54.5500 594.0000 1.0000
54.5600 607.0000 1.0000
54.5700 648.0000 1.0000
54.5800 587.0000 1.0000
54.5900 613.0000 1.0000
54.6000 585.0000 1.0000
54.6100 606.0000 1.0000
54.6200 555.0000 1.0000
54.6300 577.0000 1.0000
54.6400 570.0000 1.0000
54.6500 536.0000 1.0000
54.6600 577.0000 1.0000
54.6700 589.0000 1.0000
54.6800 538.0000 1.0000
54.6900 499.0000 1.0000
54.7000 499.0000 1.0000
54.7100 533.0000 1.0000
54.7200 512.0000 1.0000
54.7300 489.0000 1.0000
54.7400 460.0000 1.0000
54.7500 469.0000 1.0000
54.7600 454.0000 1.0000
54.7700 440.0000 1.0000
54.7800 438.0000 1.0000
54.7900 461.0000 1.0000
54.8000 417.0000 1.0000
54.8100 435.0000 1.0000
54.8200 442.0000 1.0000
54.8300 452.0000 1.0000
54.8400 454.0000 1.0000
54.8500 446.0000 1.0000
54.8600 420.0000 1.0000
54.8700 420.0000 1.0000
54.8800 412.0000 1.0000
54.8900 424.0000 1.0000
54.9000 447.0000 1.0000
54.9100 446.0000 1.0000
54.9200 407.0000 1.0000
54.9300 413.0000 1.0000
54.9400 396.0000 1.0000
54.9500 393.0000 1.0000
54.9600 397.0000 1.0000
54.9700 390.0000 1.0000
54.9800 392.0000 1.0000
54.9900 395.0000 1.0000
55.0000 385.0000 1.0000
55.0100 386.0000 1.0000
55.0200 415.0000 1.0000
55.0300 383.0000 1.0000
55.0400 409.0000 1.0000
55.0500 410.0000 1.0000
55.0600 380.0000 1.0000
55.0700 374.0000 1.0000
55.0800 407.0000 1.0000
55.0900 423.0000 1.0000
55.1000 386.0000 1.0000
55.1100 345.0000 1.0000
55.1200 394.0000 1.0000
55.1300 412.0000 1.0000
55.1400 352.0000 1.0000
55.1500 397.0000 1.0000
55.1600 378.0000 1.0000
55.1700 340.0000 1.0000
55.1800 368.0000 1.0000
55.1900 397.0000 1.0000
55.2000 395.0000 1.0000
55.2100 383.0000 1.0000
55.2200 371.0000 1.0000
55.2300 413.0000 1.0000
55.2400 386.0000 1.0000
55.2500 380.0000 1.0000
55.2600 393.0000 1.0000
55.2700 399.0000 1.0000
55.2800 394.0000 1.0000
55.2900 391.0000 1.0000
55.3000 382.0000 1.0000
55.3100 401.0000 1.0000
55.3200 406.0000 1.0000
55.3300 407.0000 1.0000
55.3400 378.0000 1.0000
55.3500 331.0000 1.0000
55.3600 383.0000 1.0000
55.3700 375.0000 1.0000
55.3800 380.0000 1.0000
55.3900 407.0000 1.0000
55.4000 410.0000 1.0000
55.4100 377.0000 1.0000
55.4200 374.0000 1.0000
55.4300 375.0000 1.0000
55.4400 415.0000 1.0000
55.4500 397.0000 1.0000
55.4600 389.0000 1.0000
55.4700 386.0000 1.0000
55.4800 367.0000 1.0000
55.4900 406.0000 1.0000
55.5000 375.0000 1.0000
55.5100 377.0000 1.0000
55.5200 390.0000 1.0000
55.5300 365.0000 1.0000
55.5400 357.0000 1.0000
55.5500 361.0000 1.0000
55.5600 396.0000 1.0000
55.5700 392.0000 1.0000
55.5800 397.0000 1.0000
55.5900 410.0000 1.0000
55.6000 377.0000 1.0000
55.6100 375.0000 1.0000
55.6200 366.0000 1.0000
55.6300 353.0000 1.0000
55.6400 387.0000 1.0000
55.6500 388.0000 1.0000
55.6600 358.0000 1.0000
55.6700 385.0000 1.0000
55.6800 387.0000 1.0000
55.6900 385.0000 1.0000
55.7000 369.0000 1.0000
55.7100 389.0000 1.0000
55.7200 394.0000 1.0000
55.7300 388.0000 1.0000
55.7400 367.0000 1.0000
55.7500 378.0000 1.0000
55.7600 367.0000 1.0000
55.7700 367.0000 1.0000
55.7800 381.0000 1.0000
55.7900 382.0000 1.0000
55.8000 358.0000 1.0000
55.8100 368.0000 1.0000
55.8200 360.0000 1.0000
55.8300 351.0000 1.0000
55.8400 365.0000 1.0000
55.8500 383.0000 1.0000
55.8600 387.0000 1.0000
55.8700 353.0000 1.0000
55.8800 390.0000 1.0000
55.8900 347.0000 1.0000
55.9000 381.0000 1.0000
55.9100 347.0000 1.0000
55.9200 404.0000 1.0000
55.9300 345.0000 1.0000
55.9400 401.0000 1.0000
55.9500 358.0000 1.0000
55.9600 363.0000 1.0000
55.9700 391.0000 1.0000
55.9800 377.0000 1.0000
55.9900 372.0000 1.0000
56.0000 379.0000 1.0000
56.0100 382.0000 1.0000
56.0200 366.0000 1.0000
56.0300 400.0000 1.0000
56.0400 343.0000 1.0000
56.0500 365.0000 1.0000
56.0600 342.0000 1.0000
56.0700 394.0000 1.0000
56.0800 374.0000 1.0000
56.0900 361.0000 1.0000
56.1000 390.0000 1.0000
56.1100 377.0000 1.0000
56.1200 365.0000 1.0000
56.1300 347.0000 1.0000
56.1400 365.0000 1.0000
56.1500 381.0000 1.0000
56.1600 382.0000 1.0000
56.1700 377.0000 1.0000
56.1800 346.0000 1.0000
56.1900 374.0000 1.0000
56.2000 366.0000 1.0000
56.2100 389.0000 1.0000
56.2200 396.0000 1.0000
56.2300 368.0000 1.0000
56.2400 360.0000 1.0000
56.2500 383.0000 1.0000
56.2600 362.0000 1.0000
56.2700 407.0000 1.0000
56.2800 369.0000 1.0000
56.2900 392.0000 1.0000
56.3000 400.0000 1.0000
56.3100 389.0000 1.0000
56.3200 395.0000 1.0000
56.3300 406.0000 1.0000
56.3400 369.0000 1.0000
56.3500 370.0000 1.0000
56.3600 351.0000 1.0000
56.3700 355.0000 1.0000
56.3800 348.0000 1.0000
56.3900 367.0000 1.0000
56.4000 392.0000 1.0000
56.4100 395.0000 1.0000
56.4200 370.0000 1.0000
56.4300 378.0000 1.0000
56.4400 370.0000 1.0000
56.4500 351.0000 1.0000
56.4600 349.0000 1.0000
56.4700 355.0000 1.0000
56.4800 368.0000 1.0000
56.4900 368.0000 1.0000
56.5000 348.0000 1.0000
56.5100 381.0000 1.0000
56.5200 361.0000 1.0000
56.5300 367.0000 1.0000
56.5400 371.0000 1.0000
56.5500 374.0000 1.0000
56.5600 365.0000 1.0000
56.5700 376.0000 1.0000
56.5800 393.0000 1.0000
56.5900 369.0000 1.0000
56.6000 385.0000 1.0000
56.6100 405.0000 1.0000
56.6200 370.0000 1.0000
56.6300 371.0000 1.0000
56.6400 348.0000 1.0000
56.6500 375.0000 1.0000
56.6600 384.0000 1.0000
56.6700 382.0000 1.0000
56.6800 374.0000 1.0000
56.6900 391.0000 1.0000
56.7000 395.0000 1.0000
56.7100 356.0000 1.0000
56.7200 396.0000 1.0000
56.7300 370.0000 1.0000
56.7400 355.0000 1.0000
56.7500 358.0000 1.0000
56.7600 358.0000 1.0000
56.7700 361.0000 1.0000
56.7800 383.0000 1.0000
56.7900 360.0000 1.0000
56.8000 355.0000 1.0000
56.8100 367.0000 1.0000
56.8200 369.0000 1.0000
56.8300 367.0000 1.0000
56.8400 374.0000 1.0000
56.8500 350.0000 1.0000
56.8600 367.0000 1.0000
56.8700 354.0000 1.0000
56.8800 349.0000 1.0000
56.8900 376.0000 1.0000
56.9000 364.0000 1.0000
56.9100 345.0000 1.0000
56.9200 357.0000 1.0000
56.9300 360.0000 1.0000
56.9400 384.0000 1.0000
56.9500 360.0000 1.0000
56.9600 359.0000 1.0000
56.9700 340.0000 1.0000
56.9800 336.0000 1.0000
56.9900 356.0000 1.0000
57.0000 380.0000 1.0000
57.0100 365.0000 1.0000
57.0200 377.0000 1.0000
57.0300 366.0000 1.0000
57.0400 354.0000 1.0000
57.0500 390.0000 1.0000
57.0600 363.0000 1.0000
57.0700 403.0000 1.0000
57.0800 382.0000 1.0000
57.0900 389.0000 1.0000
57.1000 367.0000 1.0000
57.1100 382.0000 1.0000
57.1200 364.0000 1.0000
57.1300 369.0000 1.0000
57.1400 390.0000 1.0000
57.1500 385.0000 1.0000
57.1600 373.0000 1.0000
57.1700 367.0000 1.0000
57.1800 359.0000 1.0000
57.1900 392.0000 1.0000
57.2000 384.0000 1.0000
57.2100 382.0000 1.0000
57.2200 390.0000 1.0000
57.2300 400.0000 1.0000
57.2400 388.0000 1.0000
57.2500 373.0000 1.0000
57.2600 371.0000 1.0000
57.2700 339.0000 1.0000
57.2800 367.0000 1.0000
57.2900 372.0000 1.0000
57.3000 388.0000 1.0000
57.3100 400.0000 1.0000
57.3200 390.0000 1.0000
57.3300 405.0000 1.0000
57.3400 384.0000 1.0000
57.3500 400.0000 1.0000
57.3600 355.0000 1.0000
57.3700 373.0000 1.0000
57.3800 379.0000 1.0000
57.3900 407.0000 1.0000
57.4000 375.0000 1.0000
57.4100 376.0000 1.0000
57.4200 414.0000 1.0000
57.4300 404.0000 1.0000
57.4400 377.0000 1.0000
57.4500 398.0000 1.0000
57.4600 391.0000 1.0000
57.4700 388.0000 1.0000
57.4800 394.0000 1.0000
57.4900 364.0000 1.0000
57.5000 394.0000 1.0000
57.5100 384.0000 1.0000
57.5200 375.0000 1.0000
57.5300 412.0000 1.0000
57.5400 389.0000 1.0000
57.5500 365.0000 1.0000
57.5600 392.0000 1.0000
57.5700 394.0000 1.0000
57.5800 387.0000 1.0000
57.5900 364.0000 1.0000
57.6000 390.0000 1.0000
57.6100 389.0000 1.0000
57.6200 383.0000 1.0000
57.6300 411.0000 1.0000
57.6400 378.0000 1.0000
57.6500 402.0000 1.0000
57.6600 367.0000 1.0000
57.6700 385.0000 1.0000
57.6800 374.0000 1.0000
57.6900 402.0000 1.0000
57.7000 391.0000 1.0000
57.7100 343.0000 1.0000
57.7200 380.0000 1.0000
57.7300 367.0000 1.0000
57.7400 384.0000 1.0000
57.7500 365.0000 1.0000
57.7600 379.0000 1.0000
57.7700 378.0000 1.0000
57.7800 386.0000 1.0000
57.7900 376.0000 1.0000
57.8000 370.0000 1.0000
57.8100 377.0000 1.0000
57.8200 383.0000 1.0000
57.8300 404.0000 1.0000
57.8400 371.0000 1.0000
57.8500 356.0000 1.0000
57.8600 361.0000 1.0000
57.8700 369.0000 1.0000
57.8800 374.0000 1.0000
57.8900 349.0000 1.0000
57.9000 358.0000 1.0000
57.9100 388.0000 1.0000
57.9200 351.0000 1.0000
57.9300 371.0000 1.0000
57.9400 378.0000 1.0000
57.9500 343.0000 1.0000
57.9600 353.0000 1.0000
57.9700 364.0000 1.0000
57.9800 352.0000 1.0000
57.9900 348.0000 1.0000
58.0000 367.0000 1.0000
58.0100 362.0000 1.0000
58.0200 361.0000 1.0000
58.0300 383.0000 1.0000
58.0400 361.0000 1.0000
58.0500 386.0000 1.0000
58.0600 384.0000 1.0000
58.0700 362.0000 1.0000
58.0800 364.0000 1.0000
58.0900 375.0000 1.0000
58.1000 389.0000 1.0000
58.1100 363.0000 1.0000
58.1200 400.0000 1.0000
58.1300 377.0000 1.0000
58.1400 345.0000 1.0000
58.1500 364.0000 1.0000
58.1600 381.0000 1.0000
58.1700 397.0000 1.0000
58.1800 372.0000 1.0000
58.1900 369.0000 1.0000
58.2000 357.0000 1.0000
58.2100 374.0000 1.0000
58.2200 371.0000 1.0000
58.2300 403.0000 1.0000
58.2400 379.0000 1.0000
58.2500 390.0000 1.0000
58.2600 383.0000 1.0000
58.2700 350.0000 1.0000
58.2800 384.0000 1.0000
58.2900 365.0000 1.0000
58.3000 350.0000 1.0000
58.3100 377.0000 1.0000
58.3200 352.0000 1.0000
58.3300 386.0000 1.0000
58.3400 361.0000 1.0000
58.3500 380.0000 1.0000
58.3600 362.0000 1.0000
58.3700 376.0000 1.0000
58.3800 378.0000 1.0000
58.3900 346.0000 1.0000
58.4000 369.0000 1.0000
58.4100 365.0000 1.0000
58.4200 389.0000 1.0000
58.4300 340.0000 1.0000
58.4400 349.0000 1.0000
58.4500 356.0000 1.0000
58.4600 381.0000 1.0000
58.4700 375.0000 1.0000
58.4800 357.0000 1.0000
58.4900 370.0000 1.0000
58.5000 385.0000 1.0000
58.5100 355.0000 1.0000
58.5200 401.0000 1.0000
58.5300 376.0000 1.0000
58.5400 381.0000 1.0000
58.5500 387.0000 1.0000
58.5600 393.0000 1.0000
58.5700 387.0000 1.0000
58.5800 390.0000 1.0000
58.5900 377.0000 1.0000
58.6000 374.0000 1.0000
58.6100 354.0000 1.0000
58.6200 368.0000 1.0000
58.6300 347.0000 1.0000
58.6400 349.0000 1.0000
58.6500 361.0000 1.0000
58.6600 378.0000 1.0000
58.6700 354.0000 1.0000
58.6800 346.0000 1.0000
58.6900 376.0000 1.0000
58.7000 356.0000 1.0000
58.7100 343.0000 1.0000
58.7200 359.0000 1.0000
58.7300 347.0000 1.0000
58.7400 354.0000 1.0000
58.7500 363.0000 1.0000
58.7600 401.0000 1.0000
58.7700 356.0000 1.0000
58.7800 355.0000 1.0000
58.7900 381.0000 1.0000
58.8000 401.0000 1.0000
58.8100 357.0000 1.0000
58.8200 355.0000 1.0000
58.8300 338.0000 1.0000
58.8400 358.0000 1.0000
58.8500 370.0000 1.0000
58.8600 376.0000 1.0000
58.8700 384.0000 1.0000
58.8800 392.0000 1.0000
58.8900 373.0000 1.0000
58.9000 386.0000 1.0000
58.9100 394.0000 1.0000
58.9200 392.0000 1.0000
58.9300 390.0000 1.0000
58.9400 404.0000 1.0000
58.9500 373.0000 1.0000
58.9600 354.0000 1.0000
58.9700 358.0000 1.0000
58.9800 388.0000 1.0000
58.9900 355.0000 1.0000
59.0000 385.0000 1.0000
59.0100 387.0000 1.0000
59.0200 357.0000 1.0000
59.0300 379.0000 1.0000
59.0400 386.0000 1.0000
59.0500 337.0000 1.0000
59.0600 385.0000 1.0000
59.0700 413.0000 1.0000
59.0800 367.0000 1.0000
59.0900 367.0000 1.0000
59.1000 369.0000 1.0000
59.1100 387.0000 1.0000
59.1200 379.0000 1.0000
59.1300 375.0000 1.0000
59.1400 379.0000 1.0000
59.1500 354.0000 1.0000
59.1600 366.0000 1.0000
59.1700 378.0000 1.0000
59.1800 374.0000 1.0000
59.1900 363.0000 1.0000
59.2000 361.0000 1.0000
59.2100 360.0000 1.0000
59.2200 363.0000 1.0000
59.2300 369.0000 1.0000
59.2400 380.0000 1.0000
59.2500 337.0000 1.0000
59.2600 382.0000 1.0000
59.2700 378.0000 1.0000
59.2800 390.0000 1.0000
59.2900 369.0000 1.0000
59.3000 402.0000 1.0000
59.3100 356.0000 1.0000
59.3200 376.0000 1.0000
59.3300 386.0000 1.0000
59.3400 392.0000 1.0000
59.3500 367.0000 1.0000
59.3600 381.0000 1.0000
59.3700 346.0000 1.0000
59.3800 336.0000 1.0000
59.3900 375.0000 1.0000
59.4000 407.0000 1.0000
59.4100 369.0000 1.0000
59.4200 366.0000 1.0000
59.4300 364.0000 1.0000
59.4400 374.0000 1.0000
59.4500 379.0000 1.0000
59.4600 373.0000 1.0000
59.4700 371.0000 1.0000
59.4800 357.0000 1.0000
59.4900 380.0000 1.0000
59.5000 390.0000 1.0000
59.5100 333.0000 1.0000
59.5200 361.0000 1.0000
59.5300 384.0000 1.0000
59.5400 361.0000 1.0000
59.5500 381.0000 1.0000
59.5600 386.0000 1.0000
59.5700 384.0000 1.0000
59.5800 367.0000 1.0000
59.5900 335.0000 1.0000
59.6000 350.0000 1.0000
59.6100 340.0000 1.0000
59.6200 365.0000 1.0000
59.6300 356.0000 1.0000
59.6400 398.0000 1.0000
59.6500 368.0000 1.0000
59.6600 376.0000 1.0000
59.6700 383.0000 1.0000
59.6800 360.0000 1.0000
59.6900 363.0000 1.0000
59.7000 340.0000 1.0000
59.7100 392.0000 1.0000
59.7200 366.0000 1.0000
59.7300 378.0000 1.0000
59.7400 392.0000 1.0000
59.7500 353.0000 1.0000
59.7600 375.0000 1.0000
59.7700 347.0000 1.0000
59.7800 373.0000 1.0000
59.7900 371.0000 1.0000
59.8000 358.0000 1.0000
59.8100 375.0000 1.0000
59.8200 341.0000 1.0000
59.8300 353.0000 1.0000
59.8400 364.0000 1.0000
59.8500 389.0000 1.0000
59.8600 387.0000 1.0000
59.8700 375.0000 1.0000
59.8800 365.0000 1.0000
59.8900 363.0000 1.0000
59.9000 375.0000 1.0000
59.9100 378.0000 1.0000
59.9200 360.0000 1.0000
59.9300 364.0000 1.0000
59.9400 348.0000 1.0000
59.9500 365.0000 1.0000
59.9600 369.0000 1.0000
59.9700 347.0000 1.0000
59.9800 348.0000 1.0000
59.9900 348.0000 1.0000
60.0000 385.0000 1.0000
60.0100 396.0000 1.0000
60.0200 349.0000 1.0000
60.0300 388.0000 1.0000
60.0400 358.0000 1.0000
60.0500 363.0000 1.0000
60.0600 371.0000 1.0000
60.0700 344.0000 1.0000
60.0800 341.0000 1.0000
60.0900 373.0000 1.0000
60.1000 348.0000 1.0000
60.1100 349.0000 1.0000
60.1200 353.0000 1.0000
60.1300 343.0000 1.0000
60.1400 339.0000 1.0000
60.1500 364.0000 1.0000
60.1600 364.0000 1.0000
60.1700 328.0000 1.0000
60.1800 357.0000 1.0000
60.1900 358.0000 1.0000
60.2000 358.0000 1.0000
60.2100 342.0000 1.0000
60.2200 399.0000 1.0000
60.2300 382.0000 1.0000
60.2400 368.0000 1.0000
60.2500 392.0000 1.0000
60.2600 382.0000 1.0000
60.2700 379.0000 1.0000
60.2800 352.0000 1.0000
60.2900 372.0000 1.0000
60.3000 350.0000 1.0000
60.3100 373.0000 1.0000
60.3200 356.0000 1.0000
60.3300 363.0000 1.0000
60.3400 329.0000 1.0000
60.3500 373.0000 1.0000
60.3600 374.0000 1.0000
60.3700 365.0000 1.0000
60.3800 365.0000 1.0000
60.3900 376.0000 1.0000
60.4000 367.0000 1.0000
60.4100 353.0000 1.0000
60.4200 364.0000 1.0000
60.4300 356.0000 1.0000
60.4400 378.0000 1.0000
60.4500 333.0000 1.0000
60.4600 357.0000 1.0000
60.4700 338.0000 1.0000
60.4800 357.0000 1.0000
60.4900 354.0000 1.0000
60.5000 354.0000 1.0000
60.5100 379.0000 1.0000
60.5200 366.0000 1.0000
60.5300 378.0000 1.0000
60.5400 378.0000 1.0000
60.5500 349.0000 1.0000
60.5600 342.0000 1.0000
60.5700 355.0000 1.0000
60.5800 380.0000 1.0000
60.5900 372.0000 1.0000
60.6000 374.0000 1.0000
60.6100 363.0000 1.0000
60.6200 369.0000 1.0000
60.6300 362.0000 1.0000
60.6400 363.0000 1.0000
60.6500 394.0000 1.0000
60.6600 353.0000 1.0000
60.6700 394.0000 1.0000
60.6800 360.0000 1.0000
60.6900 411.0000 1.0000
60.7000 375.0000 1.0000
60.7100 357.0000 1.0000
60.7200 364.0000 1.0000
60.7300 360.0000 1.0000
60.7400 358.0000 1.0000
60.7500 374.0000 1.0000
60.7600 383.0000 1.0000
60.7700 388.0000 1.0000
60.7800 374.0000 1.0000
60.7900 394.0000 1.0000
60.8000 375.0000 1.0000
60.8100 393.0000 1.0000
60.8200 359.0000 1.0000
60.8300 366.0000 1.0000
60.8400 394.0000 1.0000
60.8500 394.0000 1.0000
60.8600 383.0000 1.0000
60.8700 355.0000 1.0000
60.8800 343.0000 1.0000
60.8900 330.0000 1.0000
60.9000 356.0000 1.0000
60.9100 412.0000 1.0000
60.9200 390.0000 1.0000
60.9300 362.0000 1.0000
60.9400 379.0000 1.0000
60.9500 403.0000 1.0000
60.9600 388.0000 1.0000
60.9700 360.0000 1.0000
60.9800 387.0000 1.0000
60.9900 374.0000 1.0000
61.0000 383.0000 1.0000
61.0100 373.0000 1.0000
61.0200 377.0000 1.0000
61.0300 387.0000 1.0000
61.0400 376.0000 1.0000
61.0500 397.0000 1.0000
61.0600 403.0000 1.0000
61.0700 406.0000 1.0000
61.0800 413.0000 1.0000
61.0900 400.0000 1.0000
61.1000 402.0000 1.0000
61.1100 428.0000 1.0000
61.1200 421.0000 1.0000
61.1300 407.0000 1.0000
61.1400 398.0000 1.0000
61.1500 412.0000 1.0000
61.1600 391.0000 1.0000
61.1700 429.0000 1.0000
61.1800 427.0000 1.0000
61.1900 451.0000 1.0000
61.2000 409.0000 1.0000
61.2100 427.0000 1.0000
61.2200 470.0000 1.0000
61.2300 442.0000 1.0000
61.2400 452.0000 1.0000
61.2500 466.0000 1.0000
61.2600 459.0000 1.0000
61.2700 424.0000 1.0000
61.2800 467.0000 1.0000
61.2900 495.0000 1.0000
61.3000 490.0000 1.0000
61.3100 512.0000 1.0000
61.3200 538.0000 1.0000
61.3300 542.0000 1.0000
61.3400 575.0000 1.0000
61.3500 605.0000 1.0000
61.3600 572.0000 1.0000
61.3700 610.0000 1.0000
61.3800 656.0000 1.0000
61.3900 658.0000 1.0000
61.4000 627.0000 1.0000
61.4100 657.0000 1.0000
61.4200 686.0000 1.0000
61.4300 688.0000 1.0000
61.4400 746.0000 1.0000
61.4500 763.0000 1.0000
61.4600 753.0000 1.0000
61.4700 758.0000 1.0000
61.4800 708.0000 1.0000
61.4900 793.0000 1.0000
61.5000 823.0000 1.0000
61.5100 795.0000 1.0000
61.5200 778.0000 1.0000
61.5300 815.0000 1.0000
61.5400 827.0000 1.0000
61.5500 781.0000 1.0000
61.5600 810.0000 1.0000
61.5700 761.0000 1.0000
61.5800 828.0000 1.0000
61.5900 836.0000 1.0000
61.6000 806.0000 1.0000
61.6100 785.0000 1.0000
61.6200 752.0000 1.0000
61.6300 786.0000 1.0000
61.6400 745.0000 1.0000
61.6500 730.0000 1.0000
61.6600 702.0000 1.0000
61.6700 701.0000 1.0000
61.6800 731.0000 1.0000
61.6900 689.0000 1.0000
61.7000 665.0000 1.0000
61.7100 688.0000 1.0000
61.7200 635.0000 1.0000
61.7300 627.0000 1.0000
61.7400 638.0000 1.0000
61.7500 675.0000 1.0000
61.7600 613.0000 1.0000
61.7700 598.0000 1.0000
61.7800 583.0000 1.0000
61.7900 563.0000 1.0000
61.8000 525.0000 1.0000
61.8100 574.0000 1.0000
61.8200 546.0000 1.0000
61.8300 559.0000 1.0000
61.8400 567.0000 1.0000
61.8500 532.0000 1.0000
61.8600 515.0000 1.0000
61.8700 517.0000 1.0000
61.8800 472.0000 1.0000
61.8900 482.0000 1.0000
61.9000 506.0000 1.0000
61.9100 476.0000 1.0000
61.9200 462.0000 1.0000
61.9300 451.0000 1.0000
61.9400 429.0000 1.0000
61.9500 432.0000 1.0000
61.9600 468.0000 1.0000
61.9700 473.0000 1.0000
61.9800 436.0000 1.0000
61.9900 480.0000 1.0000
62.0000 470.0000 1.0000
62.0100 470.0000 1.0000
62.0200 441.0000 1.0000
62.0300 413.0000 1.0000
62.0400 441.0000 1.0000
62.0500 440.0000 1.0000
62.0600 427.0000 1.0000
62.0700 447.0000 1.0000
62.0800 442.0000 1.0000
62.0900 406.0000 1.0000
62.1000 381.0000 1.0000
62.1100 397.0000 1.0000
62.1200 392.0000 1.0000
62.1300 375.0000 1.0000
62.1400 393.0000 1.0000
62.1500 400.0000 1.0000
62.1600 432.0000 1.0000
62.1700 425.0000 1.0000
62.1800 372.0000 1.0000
62.1900 387.0000 1.0000
62.2000 388.0000 1.0000
62.2100 378.0000 1.0000
62.2200 405.0000 1.0000
62.2300 392.0000 1.0000
62.2400 361.0000 1.0000
62.2500 370.0000 1.0000
62.2600 401.0000 1.0000
62.2700 411.0000 1.0000
62.2800 407.0000 1.0000
62.2900 438.0000 1.0000
62.3000 419.0000 1.0000
62.3100 438.0000 1.0000
62.3200 419.0000 1.0000
62.3300 448.0000 1.0000
62.3400 434.0000 1.0000
62.3500 402.0000 1.0000
62.3600 432.0000 1.0000
62.3700 430.0000 1.0000
62.3800 431.0000 1.0000
62.3900 432.0000 1.0000
62.4000 441.0000 1.0000
62.4100 443.0000 1.0000
62.4200 451.0000 1.0000
62.4300 442.0000 1.0000
62.4400 428.0000 1.0000
62.4500 386.0000 1.0000
62.4600 415.0000 1.0000
62.4700 431.0000 1.0000
62.4800 425.0000 1.0000
62.4900 437.0000 1.0000
62.5000 406.0000 1.0000
62.5100 394.0000 1.0000
62.5200 412.0000 1.0000
62.5300 401.0000 1.0000
62.5400 410.0000 1.0000
62.5500 435.0000 1.0000
62.5600 400.0000 1.0000
62.5700 406.0000 1.0000
62.5800 407.0000 1.0000
62.5900 408.0000 1.0000
62.6000 411.0000 1.0000
62.6100 369.0000 1.0000
62.6200 372.0000 1.0000
62.6300 380.0000 1.0000
62.6400 393.0000 1.0000
62.6500 362.0000 1.0000
62.6600 366.0000 1.0000
62.6700 382.0000 1.0000
62.6800 371.0000 1.0000
62.6900 387.0000 1.0000
62.7000 371.0000 1.0000
62.7100 354.0000 1.0000
62.7200 368.0000 1.0000
62.7300 380.0000 1.0000
62.7400 396.0000 1.0000
62.7500 340.0000 1.0000
62.7600 364.0000 1.0000
62.7700 388.0000 1.0000
62.7800 389.0000 1.0000
62.7900 399.0000 1.0000
62.8000 343.0000 1.0000
62.8100 359.0000 1.0000
62.8200 381.0000 1.0000
62.8300 399.0000 1.0000
62.8400 367.0000 1.0000
62.8500 345.0000 1.0000
62.8600 375.0000 1.0000
62.8700 361.0000 1.0000
62.8800 375.0000 1.0000
62.8900 364.0000 1.0000
62.9000 365.0000 1.0000
62.9100 369.0000 1.0000
62.9200 359.0000 1.0000
62.9300 367.0000 1.0000
62.9400 368.0000 1.0000
62.9500 356.0000 1.0000
62.9600 362.0000 1.0000
62.9700 369.0000 1.0000
62.9800 381.0000 1.0000
62.9900 358.0000 1.0000
63.0000 339.0000 1.0000
63.0100 350.0000 1.0000
63.0200 392.0000 1.0000
63.0300 366.0000 1.0000
63.0400 360.0000 1.0000
63.0500 365.0000 1.0000
63.0600 356.0000 1.0000
63.0700 371.0000 1.0000
63.0800 367.0000 1.0000
63.0900 349.0000 1.0000
63.1000 340.0000 1.0000
63.1100 373.0000 1.0000
63.1200 360.0000 1.0000
63.1300 361.0000 1.0000
63.1400 350.0000 1.0000
63.1500 363.0000 1.0000
63.1600 381.0000 1.0000
63.1700 369.0000 1.0000
63.1800 340.0000 1.0000
63.1900 380.0000 1.0000
63.2000 354.0000 1.0000
63.2100 363.0000 1.0000
63.2200 357.0000 1.0000
63.2300 368.0000 1.0000
63.2400 361.0000 1.0000
63.2500 357.0000 1.0000
63.2600 374.0000 1.0000
63.2700 358.0000 1.0000
63.2800 370.0000 1.0000
63.2900 382.0000 1.0000
63.3000 367.0000 1.0000
63.3100 369.0000 1.0000
63.3200 355.0000 1.0000
63.3300 343.0000 1.0000
63.3400 375.0000 1.0000
63.3500 385.0000 1.0000
63.3600 350.0000 1.0000
63.3700 376.0000 1.0000
63.3800 391.0000 1.0000
63.3900 378.0000 1.0000
63.4000 372.0000 1.0000
63.4100 352.0000 1.0000
63.4200 381.0000 1.0000
63.4300 371.0000 1.0000
63.4400 328.0000 1.0000
63.4500 359.0000 1.0000
63.4600 374.0000 1.0000
63.4700 367.0000 1.0000
63.4800 360.0000 1.0000
63.4900 354.0000 1.0000
63.5000 367.0000 1.0000
63.5100 373.0000 1.0000
63.5200 350.0000 1.0000
63.5300 375.0000 1.0000
63.5400 354.0000 1.0000
63.5500 393.0000 1.0000
63.5600 362.0000 1.0000
63.5700 368.0000 1.0000
63.5800 376.0000 1.0000
63.5900 367.0000 1.0000
63.6000 387.0000 1.0000
63.6100 378.0000 1.0000
63.6200 356.0000 1.0000
63.6300 365.0000 1.0000
63.6400 371.0000 1.0000
63.6500 377.0000 1.0000
63.6600 373.0000 1.0000
63.6700 360.0000 1.0000
63.6800 378.0000 1.0000
63.6900 369.0000 1.0000
63.7000 382.0000 1.0000
63.7100 383.0000 1.0000
63.7200 380.0000 1.0000
63.7300 398.0000 1.0000
63.7400 364.0000 1.0000
63.7500 347.0000 1.0000
63.7600 382.0000 1.0000
63.7700 395.0000 1.0000
63.7800 401.0000 1.0000
63.7900 378.0000 1.0000
63.8000 378.0000 1.0000
63.8100 387.0000 1.0000
63.8200 390.0000 1.0000
63.8300 409.0000 1.0000
63.8400 401.0000 1.0000
63.8500 409.0000 1.0000
63.8600 410.0000 1.0000
63.8700 405.0000 1.0000
63.8800 444.0000 1.0000
63.8900 446.0000 1.0000
63.9000 458.0000 1.0000
63.9100 449.0000 1.0000
63.9200 483.0000 1.0000
63.9300 484.0000 1.0000
63.9400 490.0000 1.0000
63.9500 466.0000 1.0000
63.9600 454.0000 1.0000
63.9700 448.0000 1.0000
63.9800 476.0000 1.0000
63.9900 440.0000 1.0000
64.0000 444.0000 1.0000
64.0100 429.0000 1.0000
64.0200 437.0000 1.0000
64.0300 432.0000 1.0000
64.0400 402.0000 1.0000
64.0500 442.0000 1.0000
64.0600 432.0000 1.0000
64.0700 451.0000 1.0000
64.0800 404.0000 1.0000
64.0900 452.0000 1.0000
64.1000 446.0000 1.0000
64.1100 443.0000 1.0000
64.1200 471.0000 1.0000
64.1300 454.0000 1.0000
64.1400 434.0000 1.0000
64.1500 443.0000 1.0000
64.1600 402.0000 1.0000
64.1700 405.0000 1.0000
64.1800 404.0000 1.0000
64.1900 417.0000 1.0000
64.2000 422.0000 1.0000
64.2100 372.0000 1.0000
64.2200 410.0000 1.0000
64.2300 413.0000 1.0000
64.2400 388.0000 1.0000
64.2500 396.0000 1.0000
64.2600 354.0000 1.0000
64.2700 373.0000 1.0000
64.2800 413.0000 1.0000
64.2900 424.0000 1.0000
64.3000 380.0000 1.0000
64.3100 388.0000 1.0000
64.3200 369.0000 1.0000
64.3300 353.0000 1.0000
64.3400 403.0000 1.0000
64.3500 400.0000 1.0000
64.3600 373.0000 1.0000
64.3700 380.0000 1.0000
64.3800 341.0000 1.0000
64.3900 382.0000 1.0000
64.4000 400.0000 1.0000
64.4100 411.0000 1.0000
64.4200 357.0000 1.0000
64.4300 388.0000 1.0000
64.4400 382.0000 1.0000
64.4500 360.0000 1.0000
64.4600 409.0000 1.0000
64.4700 368.0000 1.0000
64.4800 398.0000 1.0000
64.4900 389.0000 1.0000
64.5000 409.0000 1.0000
64.5100 399.0000 1.0000
64.5200 380.0000 1.0000
64.5300 390.0000 1.0000
64.5400 389.0000 1.0000
64.5500 377.0000 1.0000
64.5600 428.0000 1.0000
64.5700 390.0000 1.0000
64.5800 394.0000 1.0000
64.5900 385.0000 1.0000
64.6000 366.0000 1.0000
64.6100 361.0000 1.0000
64.6200 358.0000 1.0000
64.6300 422.0000 1.0000
64.6400 370.0000 1.0000
64.6500 365.0000 1.0000
64.6600 389.0000 1.0000
64.6700 419.0000 1.0000
64.6800 393.0000 1.0000
64.6900 370.0000 1.0000
64.7000 415.0000 1.0000
64.7100 393.0000 1.0000
64.7200 388.0000 1.0000
64.7300 363.0000 1.0000
64.7400 358.0000 1.0000
64.7500 376.0000 1.0000
64.7600 389.0000 1.0000
64.7700 370.0000 1.0000
64.7800 399.0000 1.0000
64.7900 379.0000 1.0000
64.8000 393.0000 1.0000
64.8100 380.0000 1.0000
64.8200 406.0000 1.0000
64.8300 373.0000 1.0000
64.8400 390.0000 1.0000
64.8500 388.0000 1.0000
64.8600 340.0000 1.0000
64.8700 388.0000 1.0000
64.8800 370.0000 1.0000
64.8900 385.0000 1.0000
64.9000 373.0000 1.0000
64.9100 413.0000 1.0000
64.9200 393.0000 1.0000
64.9300 422.0000 1.0000
64.9400 410.0000 1.0000
64.9500 400.0000 1.0000
64.9600 401.0000 1.0000
64.9700 419.0000 1.0000
64.9800 402.0000 1.0000
64.9900 410.0000 1.0000
65.0000 404.0000 1.0000
65.0100 394.0000 1.0000
65.0200 411.0000 1.0000
65.0300 397.0000 1.0000
65.0400 382.0000 1.0000
65.0500 377.0000 1.0000
65.0600 431.0000 1.0000
65.0700 390.0000 1.0000
65.0800 404.0000 1.0000
65.0900 462.0000 1.0000
65.1000 430.0000 1.0000
65.1100 436.0000 1.0000
65.1200 477.0000 1.0000
65.1300 448.0000 1.0000
65.1400 449.0000 1.0000
65.1500 470.0000 1.0000
65.1600 512.0000 1.0000
65.1700 445.0000 1.0000
65.1800 460.0000 1.0000
65.1900 467.0000 1.0000
65.2000 481.0000 1.0000
65.2100 491.0000 1.0000
65.2200 536.0000 1.0000
65.2300 508.0000 1.0000
65.2400 553.0000 1.0000
65.2500 540.0000 1.0000
65.2600 565.0000 1.0000
65.2700 573.0000 1.0000
65.2800 576.0000 1.0000
65.2900 624.0000 1.0000
65.3000 598.0000 1.0000
65.3100 672.0000 1.0000
65.3200 701.0000 1.0000
65.3300 729.0000 1.0000
65.3400 756.0000 1.0000
65.3500 773.0000 1.0000
65.3600 804.0000 1.0000
65.3700 795.0000 1.0000
65.3800 873.0000 1.0000
65.3900 902.0000 1.0000
65.4000 940.0000 1.0000
65.4100 1018.0000 1.0000
65.4200 1020.0000 1.0000
65.4300 1137.0000 1.0000
65.4400 1170.0000 1.0000
65.4500 1270.0000 1.0000
65.4600 1292.0000 1.0000
65.4700 1263.0000 1.0000
65.4800 1287.0000 1.0000
65.4900 1314.0000 1.0000
65.5000 1332.0000 1.0000
65.5100 1418.0000 1.0000
65.5200 1349.0000 1.0000
65.5300 1359.0000 1.0000
65.5400 1463.0000 1.0000
65.5500 1388.0000 1.0000
65.5600 1333.0000 1.0000
65.5700 1345.0000 1.0000
65.5800 1217.0000 1.0000
65.5900 1202.0000 1.0000
65.6000 1234.0000 1.0000
65.6100 1181.0000 1.0000
65.6200 1169.0000 1.0000
65.6300 1185.0000 1.0000
65.6400 1196.0000 1.0000
65.6500 1194.0000 1.0000
65.6600 1150.0000 1.0000
65.6700 1132.0000 1.0000
65.6800 1119.0000 1.0000
65.6900 1159.0000 1.0000
65.7000 1045.0000 1.0000
65.7100 971.0000 1.0000
65.7200 1036.0000 1.0000
65.7300 941.0000 1.0000
65.7400 987.0000 1.0000
65.7500 869.0000 1.0000
65.7600 865.0000 1.0000
65.7700 860.0000 1.0000
65.7800 786.0000 1.0000
65.7900 800.0000 1.0000
65.8000 751.0000 1.0000
65.8100 711.0000 1.0000
65.8200 700.0000 1.0000
65.8300 685.0000 1.0000
65.8400 645.0000 1.0000
65.8500 612.0000 1.0000
65.8600 623.0000 1.0000
65.8700 571.0000 1.0000
65.8800 534.0000 1.0000
65.8900 547.0000 1.0000
65.9000 560.0000 1.0000
65.9100 502.0000 1.0000
65.9200 528.0000 1.0000
65.9300 530.0000 1.0000
65.9400 488.0000 1.0000
65.9500 476.0000 1.0000
65.9600 493.0000 1.0000
65.9700 465.0000 1.0000
65.9800 453.0000 1.0000
65.9900 447.0000 1.0000
66.0000 463.0000 1.0000
66.0100 434.0000 1.0000
66.0200 457.0000 1.0000
66.0300 445.0000 1.0000
66.0400 412.0000 1.0000
66.0500 422.0000 1.0000
66.0600 436.0000 1.0000
66.0700 419.0000 1.0000
66.0800 418.0000 1.0000
66.0900 389.0000 1.0000
66.1000 450.0000 1.0000
66.1100 380.0000 1.0000
66.1200 413.0000 1.0000
66.1300 433.0000 1.0000
66.1400 389.0000 1.0000
66.1500 388.0000 1.0000
66.1600 372.0000 1.0000
66.1700 402.0000 1.0000
66.1800 398.0000 1.0000
66.1900 390.0000 1.0000
66.2000 386.0000 1.0000
66.2100 392.0000 1.0000
66.2200 361.0000 1.0000
66.2300 372.0000 1.0000
66.2400 414.0000 1.0000
66.2500 370.0000 1.0000
66.2600 392.0000 1.0000
66.2700 380.0000 1.0000
66.2800 353.0000 1.0000
66.2900 360.0000 1.0000
66.3000 395.0000 1.0000
66.3100 380.0000 1.0000
66.3200 359.0000 1.0000
66.3300 352.0000 1.0000
66.3400 374.0000 1.0000
66.3500 354.0000 1.0000
66.3600 367.0000 1.0000
66.3700 359.0000 1.0000
66.3800 369.0000 1.0000
66.3900 345.0000 1.0000
66.4000 352.0000 1.0000
66.4100 343.0000 1.0000
66.4200 347.0000 1.0000
66.4300 357.0000 1.0000
66.4400 376.0000 1.0000
66.4500 370.0000 1.0000
66.4600 347.0000 1.0000
66.4700 389.0000 1.0000
66.4800 349.0000 1.0000
66.4900 331.0000 1.0000
66.5000 365.0000 1.0000
66.5100 347.0000 1.0000
66.5200 334.0000 1.0000
66.5300 344.0000 1.0000
66.5400 329.0000 1.0000
66.5500 362.0000 1.0000
66.5600 371.0000 1.0000
66.5700 344.0000 1.0000
66.5800 343.0000 1.0000
66.5900 349.0000 1.0000
66.6000 357.0000 1.0000
66.6100 363.0000 1.0000
66.6200 352.0000 1.0000
66.6300 350.0000 1.0000
66.6400 361.0000 1.0000
66.6500 341.0000 1.0000
66.6600 327.0000 1.0000
66.6700 350.0000 1.0000
66.6800 379.0000 1.0000
66.6900 321.0000 1.0000
66.7000 377.0000 1.0000
66.7100 364.0000 1.0000
66.7200 359.0000 1.0000
66.7300 326.0000 1.0000
66.7400 365.0000 1.0000
66.7500 328.0000 1.0000
66.7600 347.0000 1.0000
66.7700 336.0000 1.0000
66.7800 324.0000 1.0000
66.7900 351.0000 1.0000
66.8000 360.0000 1.0000
66.8100 333.0000 1.0000
66.8200 348.0000 1.0000
66.8300 351.0000 1.0000
66.8400 326.0000 1.0000
66.8500 376.0000 1.0000
66.8600 330.0000 1.0000
66.8700 329.0000 1.0000
66.8800 335.0000 1.0000
66.8900 334.0000 1.0000
66.9000 349.0000 1.0000
66.9100 357.0000 1.0000
66.9200 336.0000 1.0000
66.9300 337.0000 1.0000
66.9400 334.0000 1.0000
66.9500 340.0000 1.0000
66.9600 359.0000 1.0000
66.9700 368.0000 1.0000
66.9800 346.0000 1.0000
66.9900 325.0000 1.0000
67.0000 337.0000 1.0000
67.0100 333.0000 1.0000
67.0200 344.0000 1.0000
67.0300 346.0000 1.0000
67.0400 319.0000 1.0000
67.0500 325.0000 1.0000
67.0600 330.0000 1.0000
67.0700 345.0000 1.0000
67.0800 333.0000 1.0000
67.0900 375.0000 1.0000
67.1000 344.0000 1.0000
67.1100 330.0000 1.0000
67.1200 299.0000 1.0000
67.1300 342.0000 1.0000
67.1400 334.0000 1.0000
67.1500 321.0000 1.0000
67.1600 350.0000 1.0000
67.1700 322.0000 1.0000
67.1800 341.0000 1.0000
67.1900 337.0000 1.0000
67.2000 343.0000 1.0000
67.2100 347.0000 1.0000
67.2200 337.0000 1.0000
67.2300 313.0000 1.0000
67.2400 341.0000 1.0000
67.2500 336.0000 1.0000
67.2600 333.0000 1.0000
67.2700 326.0000 1.0000
67.2800 318.0000 1.0000
67.2900 362.0000 1.0000
67.3000 335.0000 1.0000
67.3100 322.0000 1.0000
67.3200 339.0000 1.0000
67.3300 321.0000 1.0000
67.3400 311.0000 1.0000
67.3500 325.0000 1.0000
67.3600 333.0000 1.0000
67.3700 339.0000 1.0000
67.3800 326.0000 1.0000
67.3900 328.0000 1.0000
67.4000 334.0000 1.0000
67.4100 356.0000 1.0000
67.4200 326.0000 1.0000
67.4300 328.0000 1.0000
67.4400 346.0000 1.0000
67.4500 316.0000 1.0000
67.4600 314.0000 1.0000
67.4700 318.0000 1.0000
67.4800 304.0000 1.0000
67.4900 325.0000 1.0000
67.5000 333.0000 1.0000
67.5100 313.0000 1.0000
67.5200 323.0000 1.0000
67.5300 321.0000 1.0000
67.5400 332.0000 1.0000
67.5500 310.0000 1.0000
67.5600 323.0000 1.0000
67.5700 344.0000 1.0000
67.5800 330.0000 1.0000
67.5900 311.0000 1.0000
67.6000 331.0000 1.0000
67.6100 320.0000 1.0000
67.6200 353.0000 1.0000
67.6300 346.0000 1.0000
67.6400 313.0000 1.0000
67.6500 316.0000 1.0000
67.6600 331.0000 1.0000
67.6700 308.0000 1.0000
67.6800 313.0000 1.0000
67.6900 365.0000 1.0000
67.7000 342.0000 1.0000
67.7100 314.0000 1.0000
67.7200 327.0000 1.0000
67.7300 323.0000 1.0000
67.7400 312.0000 1.0000
67.7500 295.0000 1.0000
67.7600 322.0000 1.0000
67.7700 326.0000 1.0000
67.7800 332.0000 1.0000
67.7900 296.0000 1.0000
67.8000 302.0000 1.0000
67.8100 319.0000 1.0000
67.8200 308.0000 1.0000
67.8300 341.0000 1.0000
67.8400 334.0000 1.0000
67.8500 346.0000 1.0000
67.8600 319.0000 1.0000
67.8700 347.0000 1.0000
67.8800 328.0000 1.0000
67.8900 336.0000 1.0000
67.9000 319.0000 1.0000
67.9100 327.0000 1.0000
67.9200 312.0000 1.0000
67.9300 342.0000 1.0000
67.9400 317.0000 1.0000
67.9500 337.0000 1.0000
67.9600 330.0000 1.0000
67.9700 311.0000 1.0000
67.9800 361.0000 1.0000
67.9900 335.0000 1.0000
68.0000 303.0000 1.0000
68.0100 345.0000 1.0000
68.0200 352.0000 1.0000
68.0300 320.0000 1.0000
68.0400 318.0000 1.0000
68.0500 314.0000 1.0000
68.0600 343.0000 1.0000
68.0700 331.0000 1.0000
68.0800 322.0000 1.0000
68.0900 325.0000 1.0000
68.1000 348.0000 1.0000
68.1100 366.0000 1.0000
68.1200 346.0000 1.0000
68.1300 332.0000 1.0000
68.1400 323.0000 1.0000
68.1500 328.0000 1.0000
68.1600 321.0000 1.0000
68.1700 345.0000 1.0000
68.1800 325.0000 1.0000
68.1900 317.0000 1.0000
68.2000 333.0000 1.0000
68.2100 288.0000 1.0000
68.2200 311.0000 1.0000
68.2300 325.0000 1.0000
68.2400 298.0000 1.0000
68.2500 303.0000 1.0000
68.2600 341.0000 1.0000
68.2700 336.0000 1.0000
68.2800 331.0000 1.0000
68.2900 357.0000 1.0000
68.3000 313.0000 1.0000
68.3100 339.0000 1.0000
68.3200 327.0000 1.0000
68.3300 344.0000 1.0000
68.3400 325.0000 1.0000
68.3500 348.0000 1.0000
68.3600 342.0000 1.0000
68.3700 314.0000 1.0000
68.3800 339.0000 1.0000
68.3900 329.0000 1.0000
68.4000 295.0000 1.0000
68.4100 331.0000 1.0000
68.4200 306.0000 1.0000
68.4300 337.0000 1.0000
68.4400 307.0000 1.0000
68.4500 332.0000 1.0000
68.4600 337.0000 1.0000
68.4700 306.0000 1.0000
68.4800 331.0000 1.0000
68.4900 313.0000 1.0000
68.5000 317.0000 1.0000
68.5100 331.0000 1.0000
68.5200 329.0000 1.0000
68.5300 352.0000 1.0000
68.5400 335.0000 1.0000
68.5500 338.0000 1.0000
68.5600 309.0000 1.0000
68.5700 329.0000 1.0000
68.5800 328.0000 1.0000
68.5900 341.0000 1.0000
68.6000 329.0000 1.0000
68.6100 314.0000 1.0000
68.6200 320.0000 1.0000
68.6300 339.0000 1.0000
68.6400 328.0000 1.0000
68.6500 311.0000 1.0000
68.6600 322.0000 1.0000
68.6700 344.0000 1.0000
68.6800 339.0000 1.0000
68.6900 316.0000 1.0000
68.7000 320.0000 1.0000
68.7100 322.0000 1.0000
68.7200 345.0000 1.0000
68.7300 305.0000 1.0000
68.7400 304.0000 1.0000
68.7500 316.0000 1.0000
68.7600 325.0000 1.0000
68.7700 326.0000 1.0000
68.7800 305.0000 1.0000
68.7900 315.0000 1.0000
68.8000 338.0000 1.0000
68.8100 320.0000 1.0000
68.8200 307.0000 1.0000
68.8300 313.0000 1.0000
68.8400 327.0000 1.0000
68.8500 315.0000 1.0000
68.8600 337.0000 1.0000
68.8700 333.0000 1.0000
68.8800 319.0000 1.0000
68.8900 324.0000 1.0000
68.9000 344.0000 1.0000
68.9100 330.0000 1.0000
68.9200 339.0000 1.0000
68.9300 322.0000 1.0000
68.9400 319.0000 1.0000
68.9500 335.0000 1.0000
68.9600 330.0000 1.0000
68.9700 317.0000 1.0000
68.9800 313.0000 1.0000
68.9900 324.0000 1.0000
69.0000 311.0000 1.0000
69.0100 314.0000 1.0000
69.0200 322.0000 1.0000
69.0300 313.0000 1.0000
69.0400 343.0000 1.0000
69.0500 315.0000 1.0000
69.0600 317.0000 1.0000
69.0700 345.0000 1.0000
69.0800 338.0000 1.0000
69.0900 310.0000 1.0000
69.1000 282.0000 1.0000
69.1100 337.0000 1.0000
69.1200 341.0000 1.0000
69.1300 302.0000 1.0000
69.1400 308.0000 1.0000
69.1500 308.0000 1.0000
69.1600 339.0000 1.0000
69.1700 319.0000 1.0000
69.1800 313.0000 1.0000
69.1900 339.0000 1.0000
69.2000 328.0000 1.0000
69.2100 302.0000 1.0000
69.2200 324.0000 1.0000
69.2300 321.0000 1.0000
69.2400 320.0000 1.0000
69.2500 342.0000 1.0000
69.2600 311.0000 1.0000
69.2700 324.0000 1.0000
69.2800 325.0000 1.0000
69.2900 318.0000 1.0000
69.3000 305.0000 1.0000
69.3100 321.0000 1.0000
69.3200 311.0000 1.0000
69.3300 307.0000 1.0000
69.3400 319.0000 1.0000
69.3500 328.0000 1.0000
69.3600 368.0000 1.0000
69.3700 298.0000 1.0000
69.3800 317.0000 1.0000
69.3900 313.0000 1.0000
69.4000 325.0000 1.0000
69.4100 305.0000 1.0000
69.4200 326.0000 1.0000
69.4300 365.0000 1.0000
69.4400 310.0000 1.0000
69.4500 305.0000 1.0000
69.4600 303.0000 1.0000
69.4700 319.0000 1.0000
69.4800 346.0000 1.0000
69.4900 310.0000 1.0000
69.5000 329.0000 1.0000
69.5100 319.0000 1.0000
69.5200 328.0000 1.0000
69.5300 335.0000 1.0000
69.5400 331.0000 1.0000
69.5500 321.0000 1.0000
69.5600 323.0000 1.0000
69.5700 328.0000 1.0000
69.5800 317.0000 1.0000
69.5900 319.0000 1.0000
69.6000 324.0000 1.0000
69.6100 313.0000 1.0000
69.6200 310.0000 1.0000
69.6300 316.0000 1.0000
69.6400 334.0000 1.0000
69.6500 318.0000 1.0000
69.6600 324.0000 1.0000
69.6700 328.0000 1.0000
69.6800 338.0000 1.0000
69.6900 323.0000 1.0000
69.7000 332.0000 1.0000
69.7100 334.0000 1.0000
69.7200 329.0000 1.0000
69.7300 320.0000 1.0000
69.7400 320.0000 1.0000
69.7500 324.0000 1.0000
69.7600 310.0000 1.0000
69.7700 323.0000 1.0000
69.7800 315.0000 1.0000
69.7900 313.0000 1.0000
69.8000 300.0000 1.0000
69.8100 347.0000 1.0000
69.8200 334.0000 1.0000
69.8300 306.0000 1.0000
69.8400 304.0000 1.0000
69.8500 295.0000 1.0000
69.8600 321.0000 1.0000
69.8700 323.0000 1.0000
69.8800 346.0000 1.0000
69.8900 324.0000 1.0000
69.9000 324.0000 1.0000
69.9100 316.0000 1.0000
69.9200 327.0000 1.0000
69.9300 304.0000 1.0000
69.9400 325.0000 1.0000
69.9500 303.0000 1.0000
69.9600 307.0000 1.0000
69.9700 336.0000 1.0000
69.9800 322.0000 1.0000
69.9900 296.0000 1.0000
70.0000 305.0000 1.0000
*RAS_INT_END
*RAS_TEMPERATURE_START
*RAS_TEMPERATURE_END
*RAS_DATA_END
