*RAS_DATA_START
*RAS_HEADER_START
*DISP_FMT_X "%.2f"
*DISP_FMT_Y "%.0f"
*DISP_FULLSCALE "16240.0000000000"
*DISP_LINE_COLOR "255.0000000000"
*DISP_LINE_STYLE "0.0000000000"
*DISP_LINE_WIDTH "0.2500000000"
*DISP_NOTE "測定データ-6"
*DISP_OFFSET_Y "0.0000000000"
*DISP_PEAKSEARCH_UNIT_Y "cps"
*DISP_RANGE_BOTTOM "0.0000000000"
*DISP_RANGE_LEFT "20.0000000000"
*DISP_RANGE_LOGCUTOFF "0.0100000000"
*DISP_RANGE_RIGHT "70.0000000000"
*DISP_RANGE_TOP "16240.0000000000"
*DISP_SCALE_MODE_Y "0.0000000000"
*DISP_TAB_NAME "2θ/θ"
*DISP_TITLE_Y "強度"
*DISP_UNIT_Y "cps"
*DISP_WINDOW_NAME "MSG_MACROENGINE"
*FILE_COMMENT " "
*FILE_MD5 ""
*FILE_MEMO " "
*FILE_OPERATOR "Administrator"
*FILE_SAMPLE " "
*FILE_TYPE "RAS_RAW"
*FILE_USERGROUP "システムマネージャ"
*FILE_VERSION "1.0000000000"
*HW_ATTACHMENT_ID "ATT0025"
*HW_ATTACHMENT_NAME "標準|Standard"
*HW_COUNTER_ID-0 "CUT0025"
*HW_COUNTER_ID-1 "CUT0020"
*HW_COUNTER_ID-2 "CUT0020"
*HW_COUNTER_ID-3 "CSL0021"
*HW_COUNTER_ID-4 "CMC0021"
*HW_COUNTER_NAME-0 "D/teX Ultra|D/teX Ultra"
*HW_COUNTER_NAME-1 "None|None"
*HW_COUNTER_NAME-2 "None|None"
*HW_COUNTER_NAME-3 "BBM|BBM"
*HW_COUNTER_NAME-4 "検出器モノクロメータ|Detector monochromator"
*HW_COUNTER_SELECT_NAME "D/teX Ultra|D/teX Ultra"
*HW_GONIOMETER_ID "GON0023"
*HW_GONIOMETER_NAME "SmartLab|SmartLab"
*HW_GONIOMETER_RADIUS-0 "90.0"
*HW_GONIOMETER_RADIUS-1 "114.0"
*HW_GONIOMETER_RADIUS-2 "190.0"
*HW_GONIOMETER_RADIUS-3 "300.0"
*HW_GONIOMETER_RADIUS-4 "187.0"
*HW_GONIOMETER_RADIUS-5 "300.0"
*HW_GONIOMETER_RADIUS-6 "113.0"
*HW_GONIOMETER_RADIUS-7 "331.0"
*HW_I_OPT_ID-0 "CBO0021"
*HW_I_OPT_ID-1 "ICR0023"
*HW_I_OPT_ID-2 "ISL0021"
*HW_I_OPT_ID-3 "ISO0021"
*HW_I_OPT_ID-4 "IAD0021"
*HW_I_OPT_ID-5 "IPR0001"
*HW_I_OPT_NAME-0 "CBOユニット|CBO unit"
*HW_I_OPT_NAME-1 "標準入射光学ユニット|Standard incident optical unit"
*HW_I_OPT_NAME-2 "標準入射スリットボックス|Standard incident slit box"
*HW_I_OPT_NAME-3 "入射平行スリット|Incident parallel slit"
*HW_I_OPT_NAME-4 "長手制限スリット|Length limiting slit"
*HW_I_OPT_NAME-5 "None|None"
*HW_R_ATTENUATER_AUTOMODE "0"
*HW_R_OPT_ID-0 "RSS0021"
*HW_R_OPT_ID-1 "RCR0023"
*HW_R_OPT_ID-2 "RSO0021"
*HW_R_OPT_ID-3 "RRS0021"
*HW_R_OPT_ID-4 "ATN0021"
*HW_R_OPT_ID-5 "RFL0021"
*HW_R_OPT_ID-6 "RAD0021"
*HW_R_OPT_NAME-0 "標準受光スリットボックス1|Standard receiving slit box # 1"
*HW_R_OPT_NAME-1 "標準受光光学ユニット1|Standard receiving unit # 1"
*HW_R_OPT_NAME-2 "標準受光光学ユニット2|Standard receiving optical unit # 2"
*HW_R_OPT_NAME-3 "標準受光スリットボックス2|Standard receiving slit box # 2"
*HW_R_OPT_NAME-4 "標準アッテネータ|Standard Attenuator"
*HW_R_OPT_NAME-5 "Cu Kβ|Cu K-beta"
*HW_R_OPT_NAME-6 "調整用受光スリット|Alignment receiving slit"
*HW_SAMPLE_HOLDER_ID "SMP0023"
*HW_SAMPLE_HOLDER_NAME "標準Zステージ|Standard Z stage"
*HW_XG_CURRENT_MAX "50"
*HW_XG_CURRENT_MIN "2"
*HW_XG_CURRENT_RESOLUTION "1"
*HW_XG_CURRENT_UNIT "mA"
*HW_XG_FOCUS "1mm x 10mm"
*HW_XG_FOCUS_TYPE "Normal"
*HW_XG_ID ""
*HW_XG_NAME "3kW 封入管(ID:1200)|3kW Sealed tube(ID:1200)"
*HW_XG_TARGET_ATOMIC_NUMBER "29.0000000000"
*HW_XG_TARGET_NAME "Cu"
*HW_XG_TYPE "Hermetic"
*HW_XG_VOLTAGE_MAX "60"
*HW_XG_VOLTAGE_MIN "20"
*HW_XG_VOLTAGE_RESOLUTION "1"
*HW_XG_VOLTAGE_UNIT "kV"
*HW_XG_WATT_MAX "1.500"
*HW_XG_WATT_UNIT "kW"
*HW_XG_WAVE_LENGTH_ALPHA1 "1.540593"
*HW_XG_WAVE_LENGTH_ALPHA2 "1.544414"
*HW_XG_WAVE_LENGTH_BETA "1.392250"
*MEAS_COND_AXIS_NAME-0 "2θ/θ"
*MEAS_COND_AXIS_NAME-1 "2θ"
*MEAS_COND_AXIS_NAME-2 "ω"
*MEAS_COND_AXIS_NAME-3 "Z"
*MEAS_COND_AXIS_NAME-4 "2θ/ω"
*MEAS_COND_AXIS_NAME-5 "θs"
*MEAS_COND_AXIS_NAME-6 "θd"
*MEAS_COND_AXIS_NAME-7 "Ts"
*MEAS_COND_AXIS_NAME-8 "CBO選択スリット"
*MEAS_COND_AXIS_NAME-9 "M"
*MEAS_COND_AXIS_NAME-10 "入射平行スリット"
*MEAS_COND_AXIS_NAME-11 "入射スリット"
*MEAS_COND_AXIS_NAME-12 ""
*MEAS_COND_AXIS_NAME-13 "Zs"
*MEAS_COND_AXIS_NAME-14 "入射光学素子"
*MEAS_COND_AXIS_NAME-15 "長手制限スリット"
*MEAS_COND_AXIS_NAME-16 "センタースリット"
*MEAS_COND_AXIS_NAME-17 "フィルター"
*MEAS_COND_AXIS_NAME-18 "受光スリット1"
*MEAS_COND_AXIS_NAME-19 "受光スリット2"
*MEAS_COND_AXIS_NAME-20 "受光光学素子"
*MEAS_COND_AXIS_NAME-21 "受光平行スリット"
*MEAS_COND_AXIS_NAME-22 "調整用受光スリット"
*MEAS_COND_AXIS_NAME-23 ""
*MEAS_COND_AXIS_NAME-24 ""
*MEAS_COND_AXIS_NAME-25 "Zd"
*MEAS_COND_AXIS_NAME-26 "アッテネータ"
*MEAS_COND_AXIS_NAME-27 "検出器モノクロメータ"
*MEAS_COND_AXIS_NAME-28 "モノクロメータスリット"
*MEAS_COND_AXIS_NAME-29 "プライマリビーム"
*MEAS_COND_AXIS_NAME-30 "PHA"
*MEAS_COND_AXIS_NAME_INTERNAL-0 "TwoThetaTheta"
*MEAS_COND_AXIS_NAME_INTERNAL-1 "TwoTheta"
*MEAS_COND_AXIS_NAME_INTERNAL-2 "Omega"
*MEAS_COND_AXIS_NAME_INTERNAL-3 "Z"
*MEAS_COND_AXIS_NAME_INTERNAL-4 "TwoThetaOmega"
*MEAS_COND_AXIS_NAME_INTERNAL-5 "ThetaS"
*MEAS_COND_AXIS_NAME_INTERNAL-6 "ThetaD"
*MEAS_COND_AXIS_NAME_INTERNAL-7 "Ts"
*MEAS_COND_AXIS_NAME_INTERNAL-8 "CBO"
*MEAS_COND_AXIS_NAME_INTERNAL-9 "CBO-M"
*MEAS_COND_AXIS_NAME_INTERNAL-10 "IncidentSollerSlit"
*MEAS_COND_AXIS_NAME_INTERNAL-11 "IncidentSlitBox"
*MEAS_COND_AXIS_NAME_INTERNAL-12 "IncidentSlitBox-_Axis"
*MEAS_COND_AXIS_NAME_INTERNAL-13 "Zs"
*MEAS_COND_AXIS_NAME_INTERNAL-14 "IncidentMonochromator"
*MEAS_COND_AXIS_NAME_INTERNAL-15 "IncidentAxdSlit"
*MEAS_COND_AXIS_NAME_INTERNAL-16 "CenterSlit"
*MEAS_COND_AXIS_NAME_INTERNAL-17 "Filter"
*MEAS_COND_AXIS_NAME_INTERNAL-18 "ReceivingSlitBox1"
*MEAS_COND_AXIS_NAME_INTERNAL-19 "ReceivingSlitBox2"
*MEAS_COND_AXIS_NAME_INTERNAL-20 "ReceivingOptics"
*MEAS_COND_AXIS_NAME_INTERNAL-21 "ReceivingSollerSlit"
*MEAS_COND_AXIS_NAME_INTERNAL-22 "ReceivingAxdSlit"
*MEAS_COND_AXIS_NAME_INTERNAL-23 "ReceivingSlitBox1-_Axis"
*MEAS_COND_AXIS_NAME_INTERNAL-24 "ReceivingSlitBox2-_Axis"
*MEAS_COND_AXIS_NAME_INTERNAL-25 "ReceivingSlitBox2-Zd"
*MEAS_COND_AXIS_NAME_INTERNAL-26 "Attenuator"
*MEAS_COND_AXIS_NAME_INTERNAL-27 "CounterMonochromator"
*MEAS_COND_AXIS_NAME_INTERNAL-28 "CounterSlit"
*MEAS_COND_AXIS_NAME_INTERNAL-29 "IncidentPrimary"
*MEAS_COND_AXIS_NAME_INTERNAL-30 "PHA"
*MEAS_COND_AXIS_NAME_MAGICNO-0 "83951616.0000000000"
*MEAS_COND_AXIS_NAME_MAGICNO-1 "268632064.0000000000"
*MEAS_COND_AXIS_NAME_MAGICNO-2 "268500992.0000000000"
*MEAS_COND_AXIS_NAME_MAGICNO-3 "285278208.0000000000"
*MEAS_COND_AXIS_NAME_MAGICNO-4 "83951616.0000000000"
*MEAS_COND_AXIS_NAME_MAGICNO-5 "131072.0000000000"
*MEAS_COND_AXIS_NAME_MAGICNO-6 "131072.0000000000"
*MEAS_COND_AXIS_NAME_MAGICNO-7 "318898176.0000000000"
*MEAS_COND_AXIS_NAME_MAGICNO-8 "20971521.0000000000"
*MEAS_COND_AXIS_NAME_MAGICNO-9 "285343744.0000000000"
*MEAS_COND_AXIS_NAME_MAGICNO-10 "20971521.0000000000"
*MEAS_COND_AXIS_NAME_MAGICNO-11 "22020097.0000000000"
*MEAS_COND_AXIS_NAME_MAGICNO-12 "25165824.0000000000"
*MEAS_COND_AXIS_NAME_MAGICNO-13 "318898176.0000000000"
*MEAS_COND_AXIS_NAME_MAGICNO-14 "1.0000000000"
*MEAS_COND_AXIS_NAME_MAGICNO-15 "20971521.0000000000"
*MEAS_COND_AXIS_NAME_MAGICNO-16 "20971521.0000000000"
*MEAS_COND_AXIS_NAME_MAGICNO-17 "20971521.0000000000"
*MEAS_COND_AXIS_NAME_MAGICNO-18 "23068673.0000000000"
*MEAS_COND_AXIS_NAME_MAGICNO-19 "23068673.0000000000"
*MEAS_COND_AXIS_NAME_MAGICNO-20 "20971521.0000000000"
*MEAS_COND_AXIS_NAME_MAGICNO-21 "20971521.0000000000"
*MEAS_COND_AXIS_NAME_MAGICNO-22 "20971521.0000000000"
*MEAS_COND_AXIS_NAME_MAGICNO-23 "25165824.0000000000"
*MEAS_COND_AXIS_NAME_MAGICNO-24 "25165824.0000000000"
*MEAS_COND_AXIS_NAME_MAGICNO-25 "285343744.0000000000"
*MEAS_COND_AXIS_NAME_MAGICNO-26 "17301505.0000000000"
*MEAS_COND_AXIS_NAME_MAGICNO-27 "20971521.0000000000"
*MEAS_COND_AXIS_NAME_MAGICNO-28 "20971521.0000000000"
*MEAS_COND_AXIS_NAME_MAGICNO-29 "20971521.0000000000"
*MEAS_COND_AXIS_NAME_MAGICNO-30 "0.0000000000"
*MEAS_COND_AXIS_OFFSET-0 "-"
*MEAS_COND_AXIS_OFFSET-1 "-0.0801000000"
*MEAS_COND_AXIS_OFFSET-2 "0.2338000000"
*MEAS_COND_AXIS_OFFSET-3 "-"
*MEAS_COND_AXIS_OFFSET-4 "-"
*MEAS_COND_AXIS_OFFSET-5 "0.2338000000"
*MEAS_COND_AXIS_OFFSET-6 "-0.3139000000"
*MEAS_COND_AXIS_OFFSET-7 "-"
*MEAS_COND_AXIS_OFFSET-8 "-"
*MEAS_COND_AXIS_OFFSET-9 "-"
*MEAS_COND_AXIS_OFFSET-10 "-"
*MEAS_COND_AXIS_OFFSET-11 "-"
*MEAS_COND_AXIS_OFFSET-12 "-"
*MEAS_COND_AXIS_OFFSET-13 "-"
*MEAS_COND_AXIS_OFFSET-14 "-"
*MEAS_COND_AXIS_OFFSET-15 "-"
*MEAS_COND_AXIS_OFFSET-16 "-"
*MEAS_COND_AXIS_OFFSET-17 "-"
*MEAS_COND_AXIS_OFFSET-18 "-"
*MEAS_COND_AXIS_OFFSET-19 "-"
*MEAS_COND_AXIS_OFFSET-20 "-"
*MEAS_COND_AXIS_OFFSET-21 "-"
*MEAS_COND_AXIS_OFFSET-22 "-"
*MEAS_COND_AXIS_OFFSET-23 "-"
*MEAS_COND_AXIS_OFFSET-24 "-"
*MEAS_COND_AXIS_OFFSET-25 "-"
*MEAS_COND_AXIS_OFFSET-26 "-"
*MEAS_COND_AXIS_OFFSET-27 "-"
*MEAS_COND_AXIS_OFFSET-28 "-"
*MEAS_COND_AXIS_OFFSET-29 "-"
*MEAS_COND_AXIS_OFFSET-30 "-"
*MEAS_COND_AXIS_POSITION-0 "0.0000000000"
*MEAS_COND_AXIS_POSITION-1 "0.0000000000"
*MEAS_COND_AXIS_POSITION-2 "0.0000000000"
*MEAS_COND_AXIS_POSITION-3 "-2.9583600000"
*MEAS_COND_AXIS_POSITION-4 "0.0000000000"
*MEAS_COND_AXIS_POSITION-5 "0.0000000000"
*MEAS_COND_AXIS_POSITION-6 "0.0000000000"
*MEAS_COND_AXIS_POSITION-7 "-0.4278800000"
*MEAS_COND_AXIS_POSITION-8 "BB"
*MEAS_COND_AXIS_POSITION-9 "0.0000000000"
*MEAS_COND_AXIS_POSITION-10 "Soller_slit_5.0deg"
*MEAS_COND_AXIS_POSITION-11 "2/3deg"
*MEAS_COND_AXIS_POSITION-12 "2.2088000000"
*MEAS_COND_AXIS_POSITION-13 "-1.0609400000"
*MEAS_COND_AXIS_POSITION-14 "0.0000000000"
*MEAS_COND_AXIS_POSITION-15 "10.0mm"
*MEAS_COND_AXIS_POSITION-16 "None"
*MEAS_COND_AXIS_POSITION-17 "Cu_K-beta"
*MEAS_COND_AXIS_POSITION-18 "13.000mm"
*MEAS_COND_AXIS_POSITION-19 "13.000mm"
*MEAS_COND_AXIS_POSITION-20 "No_unit"
*MEAS_COND_AXIS_POSITION-21 "Soller_slit_5.0deg"
*MEAS_COND_AXIS_POSITION-22 "None"
*MEAS_COND_AXIS_POSITION-23 "13.0000000000"
*MEAS_COND_AXIS_POSITION-24 "13.0000000000"
*MEAS_COND_AXIS_POSITION-25 "0.0081300000"
*MEAS_COND_AXIS_POSITION-26 "Open"
*MEAS_COND_AXIS_POSITION-27 "None"
*MEAS_COND_AXIS_POSITION-28 "None"
*MEAS_COND_AXIS_POSITION-29 "None"
*MEAS_COND_AXIS_POSITION-30 "38.0000000000"
*MEAS_COND_AXIS_UNIT-0 "deg"
*MEAS_COND_AXIS_UNIT-1 "deg"
*MEAS_COND_AXIS_UNIT-2 "deg"
*MEAS_COND_AXIS_UNIT-3 "mm"
*MEAS_COND_AXIS_UNIT-4 "deg"
*MEAS_COND_AXIS_UNIT-5 "deg"
*MEAS_COND_AXIS_UNIT-6 "deg"
*MEAS_COND_AXIS_UNIT-7 "mm"
*MEAS_COND_AXIS_UNIT-8 ""
*MEAS_COND_AXIS_UNIT-9 "pulse"
*MEAS_COND_AXIS_UNIT-10 ""
*MEAS_COND_AXIS_UNIT-11 ""
*MEAS_COND_AXIS_UNIT-12 "mm"
*MEAS_COND_AXIS_UNIT-13 "mm"
*MEAS_COND_AXIS_UNIT-14 ""
*MEAS_COND_AXIS_UNIT-15 ""
*MEAS_COND_AXIS_UNIT-16 ""
*MEAS_COND_AXIS_UNIT-17 ""
*MEAS_COND_AXIS_UNIT-18 ""
*MEAS_COND_AXIS_UNIT-19 ""
*MEAS_COND_AXIS_UNIT-20 ""
*MEAS_COND_AXIS_UNIT-21 ""
*MEAS_COND_AXIS_UNIT-22 ""
*MEAS_COND_AXIS_UNIT-23 "mm"
*MEAS_COND_AXIS_UNIT-24 "mm"
*MEAS_COND_AXIS_UNIT-25 "mm"
*MEAS_COND_AXIS_UNIT-26 ""
*MEAS_COND_AXIS_UNIT-27 ""
*MEAS_COND_AXIS_UNIT-28 ""
*MEAS_COND_AXIS_UNIT-29 ""
*MEAS_COND_AXIS_UNIT-30 "div"
*MEAS_COND_COUNTER_CNTLOSS_CORR "0.0000000000"
*MEAS_COND_COUNTER_PHABASE "38.0000000000"
*MEAS_COND_COUNTER_PHAWINDOW "16.0000000000"
*MEAS_COND_COUNTER_PHA_UNIT "div"
*MEAS_COND_COUNTER_TAUDIFF "30.0000000000"
*MEAS_COND_COUNTER_TAUINT "0.0000000000"
*MEAS_COND_IRRADIATION_MODE "OFF"
*MEAS_COND_IRRADIATION_WIDTH ""
*MEAS_COND_OPT_ATTR "集中法"
*MEAS_COND_OPT_NAME "@集中法"
*MEAS_COND_UNSYMMETRIC_MODE "OFF"
*MEAS_COND_XG_CURRENT "30.0000000000"
*MEAS_COND_XG_VOLTAGE "40.0000000000"
*MEAS_COND_XG_WAVE_TYPE "Ka"
*MEAS_DATA_COUNT "5001.0000000000"
*MEAS_SCAN_AXIS_X "2θ/θ"
*MEAS_SCAN_AXIS_X_INTERNAL "TwoThetaTheta"
*MEAS_SCAN_END_TIME "08/06/22 15:19:49"
*MEAS_SCAN_MODE "CONTINUOUS"
*MEAS_SCAN_MONITOR "0"
*MEAS_SCAN_RESOLUTION_X "0.0002"
*MEAS_SCAN_SPEED "2.5"
*MEAS_SCAN_SPEED_UNIT "deg/min"
*MEAS_SCAN_START "20.0000000000"
*MEAS_SCAN_START_TIME "08/06/22 14:58:25"
*MEAS_SCAN_STEP "0.0100000000"
*MEAS_SCAN_STOP "70.0000000000"
*MEAS_SCAN_UNIT_X "deg"
*MEAS_SCAN_UNIT_Y "counts"
*RAS_HEADER_END
*RAS_INT_START
20.0000 1021.0000 1.0000
20.0100 1037.0000 1.0000
20.0200 987.0000 1.0000
20.0300 1022.0000 1.0000
20.0400 965.0000 1.0000
20.0500 979.0000 1.0000
20.0600 991.0000 1.0000
20.0700 984.0000 1.0000
20.0800 975.0000 1.0000
20.0900 932.0000 1.0000
20.1000 964.0000 1.0000
20.1100 960.0000 1.0000
20.1200 964.0000 1.0000
20.1300 982.0000 1.0000
20.1400 986.0000 1.0000
20.1500 921.0000 1.0000
20.1600 1004.0000 1.0000
20.1700 963.0000 1.0000
20.1800 945.0000 1.0000
20.1900 975.0000 1.0000
20.2000 985.0000 1.0000
20.2100 1008.0000 1.0000
20.2200 969.0000 1.0000
20.2300 926.0000 1.0000
20.2400 918.0000 1.0000
20.2500 941.0000 1.0000
20.2600 970.0000 1.0000
20.2700 953.0000 1.0000
20.2800 933.0000 1.0000
20.2900 929.0000 1.0000
20.3000 970.0000 1.0000
20.3100 925.0000 1.0000
20.3200 941.0000 1.0000
20.3300 932.0000 1.0000
20.3400 1033.0000 1.0000
20.3500 1009.0000 1.0000
20.3600 940.0000 1.0000
20.3700 997.0000 1.0000
20.3800 910.0000 1.0000
20.3900 962.0000 1.0000
20.4000 965.0000 1.0000
20.4100 937.0000 1.0000
20.4200 970.0000 1.0000
20.4300 962.0000 1.0000
20.4400 931.0000 1.0000
20.4500 926.0000 1.0000
20.4600 937.0000 1.0000
20.4700 907.0000 1.0000
20.4800 967.0000 1.0000
20.4900 954.0000 1.0000
20.5000 923.0000 1.0000
20.5100 921.0000 1.0000
20.5200 924.0000 1.0000
20.5300 930.0000 1.0000
20.5400 943.0000 1.0000
20.5500 957.0000 1.0000
20.5600 935.0000 1.0000
20.5700 954.0000 1.0000
20.5800 972.0000 1.0000
20.5900 925.0000 1.0000
20.6000 991.0000 1.0000
20.6100 976.0000 1.0000
20.6200 964.0000 1.0000
20.6300 918.0000 1.0000
20.6400 913.0000 1.0000
20.6500 955.0000 1.0000
20.6600 940.0000 1.0000
20.6700 980.0000 1.0000
20.6800 974.0000 1.0000
20.6900 959.0000 1.0000
20.7000 956.0000 1.0000
20.7100 954.0000 1.0000
20.7200 935.0000 1.0000
20.7300 973.0000 1.0000
20.7400 970.0000 1.0000
20.7500 977.0000 1.0000
20.7600 943.0000 1.0000
20.7700 914.0000 1.0000
20.7800 930.0000 1.0000
20.7900 946.0000 1.0000
20.8000 979.0000 1.0000
20.8100 998.0000 1.0000
20.8200 966.0000 1.0000
20.8300 955.0000 1.0000
20.8400 948.0000 1.0000
20.8500 938.0000 1.0000
20.8600 952.0000 1.0000
20.8700 941.0000 1.0000
20.8800 923.0000 1.0000
20.8900 939.0000 1.0000
20.9000 956.0000 1.0000
20.9100 957.0000 1.0000
20.9200 939.0000 1.0000
20.9300 951.0000 1.0000
20.9400 967.0000 1.0000
20.9500 957.0000 1.0000
20.9600 1005.0000 1.0000
20.9700 959.0000 1.0000
20.9800 947.0000 1.0000
20.9900 939.0000 1.0000
21.0000 1001.0000 1.0000
21.0100 975.0000 1.0000
21.0200 957.0000 1.0000
21.0300 948.0000 1.0000
21.0400 935.0000 1.0000
21.0500 959.0000 1.0000
21.0600 966.0000 1.0000
21.0700 964.0000 1.0000
21.0800 912.0000 1.0000
21.0900 896.0000 1.0000
21.1000 960.0000 1.0000
21.1100 981.0000 1.0000
21.1200 928.0000 1.0000
21.1300 931.0000 1.0000
21.1400 939.0000 1.0000
21.1500 970.0000 1.0000
21.1600 959.0000 1.0000
21.1700 1050.0000 1.0000
21.1800 961.0000 1.0000
21.1900 972.0000 1.0000
21.2000 962.0000 1.0000
21.2100 907.0000 1.0000
21.2200 936.0000 1.0000
21.2300 987.0000 1.0000
21.2400 1002.0000 1.0000
21.2500 920.0000 1.0000
21.2600 937.0000 1.0000
21.2700 955.0000 1.0000
21.2800 935.0000 1.0000
21.2900 982.0000 1.0000
21.3000 980.0000 1.0000
21.3100 942.0000 1.0000
21.3200 968.0000 1.0000
21.3300 963.0000 1.0000
21.3400 936.0000 1.0000
21.3500 957.0000 1.0000
21.3600 990.0000 1.0000
21.3700 957.0000 1.0000
21.3800 971.0000 1.0000
21.3900 942.0000 1.0000
21.4000 934.0000 1.0000
21.4100 912.0000 1.0000
21.4200 915.0000 1.0000
21.4300 916.0000 1.0000
21.4400 939.0000 1.0000
21.4500 943.0000 1.0000
21.4600 954.0000 1.0000
21.4700 915.0000 1.0000
21.4800 980.0000 1.0000
21.4900 979.0000 1.0000
21.5000 950.0000 1.0000
21.5100 927.0000 1.0000
21.5200 910.0000 1.0000
21.5300 947.0000 1.0000
21.5400 940.0000 1.0000
21.5500 959.0000 1.0000
21.5600 914.0000 1.0000
21.5700 937.0000 1.0000
21.5800 963.0000 1.0000
21.5900 957.0000 1.0000
21.6000 1009.0000 1.0000
21.6100 943.0000 1.0000
21.6200 917.0000 1.0000
21.6300 909.0000 1.0000
21.6400 884.0000 1.0000
21.6500 982.0000 1.0000
21.6600 940.0000 1.0000
21.6700 918.0000 1.0000
21.6800 962.0000 1.0000
21.6900 948.0000 1.0000
21.7000 953.0000 1.0000
21.7100 940.0000 1.0000
21.7200 958.0000 1.0000
21.7300 938.0000 1.0000
21.7400 923.0000 1.0000
21.7500 947.0000 1.0000
21.7600 977.0000 1.0000
21.7700 941.0000 1.0000
21.7800 915.0000 1.0000
21.7900 944.0000 1.0000
21.8000 937.0000 1.0000
21.8100 905.0000 1.0000
21.8200 894.0000 1.0000
21.8300 875.0000 1.0000
21.8400 934.0000 1.0000
21.8500 939.0000 1.0000
21.8600 892.0000 1.0000
21.8700 894.0000 1.0000
21.8800 956.0000 1.0000
21.8900 906.0000 1.0000
21.9000 900.0000 1.0000
21.9100 888.0000 1.0000
21.9200 909.0000 1.0000
21.9300 877.0000 1.0000
21.9400 900.0000 1.0000
21.9500 878.0000 1.0000
21.9600 887.0000 1.0000
21.9700 936.0000 1.0000
21.9800 955.0000 1.0000
21.9900 964.0000 1.0000
22.0000 942.0000 1.0000
22.0100 965.0000 1.0000
22.0200 911.0000 1.0000
22.0300 922.0000 1.0000
22.0400 895.0000 1.0000
22.0500 980.0000 1.0000
22.0600 926.0000 1.0000
22.0700 926.0000 1.0000
22.0800 955.0000 1.0000
22.0900 949.0000 1.0000
22.1000 910.0000 1.0000
22.1100 956.0000 1.0000
22.1200 933.0000 1.0000
22.1300 959.0000 1.0000
22.1400 927.0000 1.0000
22.1500 934.0000 1.0000
22.1600 923.0000 1.0000
22.1700 919.0000 1.0000
22.1800 932.0000 1.0000
22.1900 960.0000 1.0000
22.2000 905.0000 1.0000
22.2100 903.0000 1.0000
22.2200 889.0000 1.0000
22.2300 921.0000 1.0000
22.2400 914.0000 1.0000
22.2500 910.0000 1.0000
22.2600 907.0000 1.0000
22.2700 921.0000 1.0000
22.2800 954.0000 1.0000
22.2900 977.0000 1.0000
22.3000 915.0000 1.0000
22.3100 968.0000 1.0000
22.3200 950.0000 1.0000
22.3300 919.0000 1.0000
22.3400 947.0000 1.0000
22.3500 955.0000 1.0000
22.3600 935.0000 1.0000
22.3700 934.0000 1.0000
22.3800 865.0000 1.0000
22.3900 923.0000 1.0000
22.4000 905.0000 1.0000
22.4100 916.0000 1.0000
22.4200 904.0000 1.0000
22.4300 928.0000 1.0000
22.4400 896.0000 1.0000
22.4500 927.0000 1.0000
22.4600 884.0000 1.0000
22.4700 931.0000 1.0000
22.4800 903.0000 1.0000
22.4900 928.0000 1.0000
22.5000 903.0000 1.0000
22.5100 898.0000 1.0000
22.5200 924.0000 1.0000
22.5300 904.0000 1.0000
22.5400 926.0000 1.0000
22.5500 927.0000 1.0000
22.5600 930.0000 1.0000
22.5700 933.0000 1.0000
22.5800 948.0000 1.0000
22.5900 934.0000 1.0000
22.6000 931.0000 1.0000
22.6100 951.0000 1.0000
22.6200 918.0000 1.0000
22.6300 931.0000 1.0000
22.6400 957.0000 1.0000
22.6500 917.0000 1.0000
22.6600 919.0000 1.0000
22.6700 944.0000 1.0000
22.6800 882.0000 1.0000
22.6900 881.0000 1.0000
22.7000 956.0000 1.0000
22.7100 911.0000 1.0000
22.7200 903.0000 1.0000
22.7300 933.0000 1.0000
22.7400 908.0000 1.0000
22.7500 934.0000 1.0000
22.7600 903.0000 1.0000
22.7700 894.0000 1.0000
22.7800 889.0000 1.0000
22.7900 933.0000 1.0000
22.8000 934.0000 1.0000
22.8100 887.0000 1.0000
22.8200 889.0000 1.0000
22.8300 955.0000 1.0000
22.8400 956.0000 1.0000
22.8500 924.0000 1.0000
22.8600 889.0000 1.0000
22.8700 915.0000 1.0000
22.8800 941.0000 1.0000
22.8900 902.0000 1.0000
22.9000 926.0000 1.0000
22.9100 944.0000 1.0000
22.9200 937.0000 1.0000
22.9300 934.0000 1.0000
22.9400 910.0000 1.0000
22.9500 910.0000 1.0000
22.9600 928.0000 1.0000
22.9700 906.0000 1.0000
22.9800 940.0000 1.0000
22.9900 913.0000 1.0000
23.0000 943.0000 1.0000
23.0100 935.0000 1.0000
23.0200 906.0000 1.0000
23.0300 941.0000 1.0000
23.0400 940.0000 1.0000
23.0500 950.0000 1.0000
23.0600 920.0000 1.0000
23.0700 935.0000 1.0000
23.0800 910.0000 1.0000
23.0900 925.0000 1.0000
23.1000 914.0000 1.0000
23.1100 887.0000 1.0000
23.1200 925.0000 1.0000
23.1300 889.0000 1.0000
23.1400 929.0000 1.0000
23.1500 868.0000 1.0000
23.1600 929.0000 1.0000
23.1700 947.0000 1.0000
23.1800 928.0000 1.0000
23.1900 898.0000 1.0000
23.2000 879.0000 1.0000
23.2100 920.0000 1.0000
23.2200 895.0000 1.0000
23.2300 874.0000 1.0000
23.2400 868.0000 1.0000
23.2500 845.0000 1.0000
23.2600 885.0000 1.0000
23.2700 972.0000 1.0000
23.2800 913.0000 1.0000
23.2900 917.0000 1.0000
23.3000 887.0000 1.0000
23.3100 914.0000 1.0000
23.3200 927.0000 1.0000
23.3300 870.0000 1.0000
23.3400 886.0000 1.0000
23.3500 945.0000 1.0000
23.3600 889.0000 1.0000
23.3700 917.0000 1.0000
23.3800 933.0000 1.0000
23.3900 883.0000 1.0000
23.4000 923.0000 1.0000
23.4100 901.0000 1.0000
23.4200 904.0000 1.0000
23.4300 884.0000 1.0000
23.4400 940.0000 1.0000
23.4500 875.0000 1.0000
23.4600 896.0000 1.0000
23.4700 929.0000 1.0000
23.4800 954.0000 1.0000
23.4900 948.0000 1.0000
23.5000 932.0000 1.0000
23.5100 902.0000 1.0000
23.5200 915.0000 1.0000
23.5300 927.0000 1.0000
23.5400 924.0000 1.0000
23.5500 885.0000 1.0000
23.5600 864.0000 1.0000
23.5700 869.0000 1.0000
23.5800 895.0000 1.0000
23.5900 922.0000 1.0000
23.6000 892.0000 1.0000
23.6100 883.0000 1.0000
23.6200 909.0000 1.0000
23.6300 935.0000 1.0000
23.6400 888.0000 1.0000
23.6500 955.0000 1.0000
23.6600 933.0000 1.0000
23.6700 921.0000 1.0000
23.6800 944.0000 1.0000
23.6900 895.0000 1.0000
23.7000 923.0000 1.0000
23.7100 928.0000 1.0000
23.7200 945.0000 1.0000
23.7300 888.0000 1.0000
23.7400 947.0000 1.0000
23.7500 905.0000 1.0000
23.7600 957.0000 1.0000
23.7700 957.0000 1.0000
23.7800 967.0000 1.0000
23.7900 913.0000 1.0000
23.8000 886.0000 1.0000
23.8100 938.0000 1.0000
23.8200 966.0000 1.0000
23.8300 967.0000 1.0000
23.8400 984.0000 1.0000
23.8500 992.0000 1.0000
23.8600 972.0000 1.0000
23.8700 953.0000 1.0000
23.8800 891.0000 1.0000
23.8900 918.0000 1.0000
23.9000 971.0000 1.0000
23.9100 987.0000 1.0000
23.9200 997.0000 1.0000
23.9300 1008.0000 1.0000
23.9400 937.0000 1.0000
23.9500 1002.0000 1.0000
23.9600 964.0000 1.0000
23.9700 953.0000 1.0000
23.9800 959.0000 1.0000
23.9900 992.0000 1.0000
24.0000 980.0000 1.0000
24.0100 935.0000 1.0000
24.0200 967.0000 1.0000
24.0300 957.0000 1.0000
24.0400 991.0000 1.0000
24.0500 1025.0000 1.0000
24.0600 1014.0000 1.0000
24.0700 983.0000 1.0000
24.0800 996.0000 1.0000
24.0900 961.0000 1.0000
24.1000 1042.0000 1.0000
24.1100 1073.0000 1.0000
24.1200 1020.0000 1.0000
24.1300 1050.0000 1.0000
24.1400 1034.0000 1.0000
24.1500 943.0000 1.0000
24.1600 978.0000 1.0000
24.1700 1006.0000 1.0000
24.1800 955.0000 1.0000
24.1900 941.0000 1.0000
24.2000 974.0000 1.0000
24.2100 923.0000 1.0000
24.2200 940.0000 1.0000
24.2300 944.0000 1.0000
24.2400 1003.0000 1.0000
24.2500 972.0000 1.0000
24.2600 975.0000 1.0000
24.2700 946.0000 1.0000
24.2800 902.0000 1.0000
24.2900 956.0000 1.0000
24.3000 961.0000 1.0000
24.3100 920.0000 1.0000
24.3200 945.0000 1.0000
24.3300 927.0000 1.0000
24.3400 927.0000 1.0000
24.3500 966.0000 1.0000
24.3600 926.0000 1.0000
24.3700 958.0000 1.0000
24.3800 920.0000 1.0000
24.3900 894.0000 1.0000
24.4000 870.0000 1.0000
24.4100 909.0000 1.0000
24.4200 892.0000 1.0000
24.4300 896.0000 1.0000
24.4400 904.0000 1.0000
24.4500 896.0000 1.0000
24.4600 918.0000 1.0000
24.4700 901.0000 1.0000
24.4800 908.0000 1.0000
24.4900 894.0000 1.0000
24.5000 929.0000 1.0000
24.5100 822.0000 1.0000
24.5200 881.0000 1.0000
24.5300 925.0000 1.0000
24.5400 887.0000 1.0000
24.5500 854.0000 1.0000
24.5600 928.0000 1.0000
24.5700 934.0000 1.0000
24.5800 884.0000 1.0000
24.5900 904.0000 1.0000
24.6000 891.0000 1.0000
24.6100 903.0000 1.0000
24.6200 861.0000 1.0000
24.6300 886.0000 1.0000
24.6400 867.0000 1.0000
24.6500 893.0000 1.0000
24.6600 920.0000 1.0000
24.6700 939.0000 1.0000
24.6800 917.0000 1.0000
24.6900 894.0000 1.0000
24.7000 868.0000 1.0000
24.7100 830.0000 1.0000
24.7200 880.0000 1.0000
24.7300 856.0000 1.0000
24.7400 853.0000 1.0000
24.7500 857.0000 1.0000
24.7600 897.0000 1.0000
24.7700 885.0000 1.0000
24.7800 888.0000 1.0000
24.7900 913.0000 1.0000
24.8000 875.0000 1.0000
24.8100 841.0000 1.0000
24.8200 816.0000 1.0000
24.8300 921.0000 1.0000
24.8400 892.0000 1.0000
24.8500 947.0000 1.0000
24.8600 883.0000 1.0000
24.8700 889.0000 1.0000
24.8800 891.0000 1.0000
24.8900 871.0000 1.0000
24.9000 884.0000 1.0000
24.9100 882.0000 1.0000
24.9200 866.0000 1.0000
24.9300 921.0000 1.0000
24.9400 903.0000 1.0000
24.9500 913.0000 1.0000
24.9600 848.0000 1.0000
24.9700 892.0000 1.0000
24.9800 855.0000 1.0000
24.9900 883.0000 1.0000
25.0000 871.0000 1.0000
25.0100 845.0000 1.0000
25.0200 859.0000 1.0000
25.0300 860.0000 1.0000
25.0400 858.0000 1.0000
25.0500 905.0000 1.0000
25.0600 867.0000 1.0000
25.0700 903.0000 1.0000
25.0800 861.0000 1.0000
25.0900 883.0000 1.0000
25.1000 872.0000 1.0000
25.1100 897.0000 1.0000
25.1200 831.0000 1.0000
25.1300 871.0000 1.0000
25.1400 862.0000 1.0000
25.1500 896.0000 1.0000
25.1600 939.0000 1.0000
25.1700 901.0000 1.0000
25.1800 884.0000 1.0000
25.1900 852.0000 1.0000
25.2000 905.0000 1.0000
25.2100 849.0000 1.0000
25.2200 834.0000 1.0000
25.2300 855.0000 1.0000
25.2400 888.0000 1.0000
25.2500 934.0000 1.0000
25.2600 853.0000 1.0000
25.2700 847.0000 1.0000
25.2800 921.0000 1.0000
25.2900 888.0000 1.0000
25.3000 897.0000 1.0000
25.3100 935.0000 1.0000
25.3200 919.0000 1.0000
25.3300 900.0000 1.0000
25.3400 929.0000 1.0000
25.3500 876.0000 1.0000
25.3600 858.0000 1.0000
25.3700 885.0000 1.0000
25.3800 915.0000 1.0000
25.3900 860.0000 1.0000
25.4000 862.0000 1.0000
25.4100 869.0000 1.0000
25.4200 903.0000 1.0000
25.4300 889.0000 1.0000
25.4400 928.0000 1.0000
25.4500 905.0000 1.0000
25.4600 860.0000 1.0000
25.4700 853.0000 1.0000
25.4800 875.0000 1.0000
25.4900 863.0000 1.0000
25.5000 941.0000 1.0000
25.5100 902.0000 1.0000
25.5200 861.0000 1.0000
25.5300 898.0000 1.0000
25.5400 872.0000 1.0000
25.5500 928.0000 1.0000
25.5600 895.0000 1.0000
25.5700 900.0000 1.0000
25.5800 894.0000 1.0000
25.5900 943.0000 1.0000
25.6000 881.0000 1.0000
25.6100 947.0000 1.0000
25.6200 874.0000 1.0000
25.6300 922.0000 1.0000
25.6400 886.0000 1.0000
25.6500 911.0000 1.0000
25.6600 948.0000 1.0000
25.6700 883.0000 1.0000
25.6800 926.0000 1.0000
25.6900 951.0000 1.0000
25.7000 922.0000 1.0000
25.7100 939.0000 1.0000
25.7200 911.0000 1.0000
25.7300 919.0000 1.0000
25.7400 918.0000 1.0000
25.7500 927.0000 1.0000
25.7600 938.0000 1.0000
25.7700 965.0000 1.0000
25.7800 905.0000 1.0000
25.7900 968.0000 1.0000
25.8000 909.0000 1.0000
25.8100 836.0000 1.0000
25.8200 871.0000 1.0000
25.8300 906.0000 1.0000
25.8400 906.0000 1.0000
25.8500 902.0000 1.0000
25.8600 907.0000 1.0000
25.8700 924.0000 1.0000
25.8800 928.0000 1.0000
25.8900 910.0000 1.0000
25.9000 961.0000 1.0000
25.9100 915.0000 1.0000
25.9200 925.0000 1.0000
25.9300 949.0000 1.0000
25.9400 930.0000 1.0000
25.9500 934.0000 1.0000
25.9600 951.0000 1.0000
25.9700 939.0000 1.0000
25.9800 949.0000 1.0000
25.9900 994.0000 1.0000
26.0000 990.0000 1.0000
26.0100 959.0000 1.0000
26.0200 979.0000 1.0000
26.0300 945.0000 1.0000
26.0400 985.0000 1.0000
26.0500 980.0000 1.0000
26.0600 1016.0000 1.0000
26.0700 1042.0000 1.0000
26.0800 1026.0000 1.0000
26.0900 1019.0000 1.0000
26.1000 1069.0000 1.0000
26.1100 1043.0000 1.0000
26.1200 1070.0000 1.0000
26.1300 1136.0000 1.0000
26.1400 1143.0000 1.0000
26.1500 1147.0000 1.0000
26.1600 1202.0000 1.0000
26.1700 1218.0000 1.0000
26.1800 1217.0000 1.0000
26.1900 1272.0000 1.0000
26.2000 1324.0000 1.0000
26.2100 1345.0000 1.0000
26.2200 1268.0000 1.0000
26.2300 1387.0000 1.0000
26.2400 1437.0000 1.0000
26.2500 1486.0000 1.0000
26.2600 1449.0000 1.0000
26.2700 1535.0000 1.0000
26.2800 1679.0000 1.0000
26.2900 1706.0000 1.0000
26.3000 1750.0000 1.0000
26.3100 1863.0000 1.0000
26.3200 1926.0000 1.0000
26.3300 2017.0000 1.0000
26.3400 2130.0000 1.0000
26.3500 2249.0000 1.0000
26.3600 2458.0000 1.0000
26.3700 2589.0000 1.0000
26.3800 2641.0000 1.0000
26.3900 2801.0000 1.0000
26.4000 2894.0000 1.0000
26.4100 2953.0000 1.0000
26.4200 3103.0000 1.0000
26.4300 3248.0000 1.0000
26.4400 3227.0000 1.0000
26.4500 3135.0000 1.0000
26.4600 3091.0000 1.0000
26.4700 3035.0000 1.0000
26.4800 2941.0000 1.0000
26.4900 2848.0000 1.0000
26.5000 2783.0000 1.0000
26.5100 2678.0000 1.0000
26.5200 2410.0000 1.0000
26.5300 2303.0000 1.0000
26.5400 2284.0000 1.0000
26.5500 2094.0000 1.0000
26.5600 1923.0000 1.0000
26.5700 1800.0000 1.0000
26.5800 1745.0000 1.0000
26.5900 1647.0000 1.0000
26.6000 1629.0000 1.0000
26.6100 1565.0000 1.0000
26.6200 1547.0000 1.0000
26.6300 1428.0000 1.0000
26.6400 1409.0000 1.0000
26.6500 1338.0000 1.0000
26.6600 1307.0000 1.0000
26.6700 1241.0000 1.0000
26.6800 1241.0000 1.0000
26.6900 1156.0000 1.0000
26.7000 1143.0000 1.0000
26.7100 1155.0000 1.0000
26.7200 1113.0000 1.0000
26.7300 1087.0000 1.0000
26.7400 1101.0000 1.0000
26.7500 1102.0000 1.0000
26.7600 1100.0000 1.0000
26.7700 1084.0000 1.0000
26.7800 1054.0000 1.0000
26.7900 1051.0000 1.0000
26.8000 1018.0000 1.0000
26.8100 989.0000 1.0000
26.8200 967.0000 1.0000
26.8300 972.0000 1.0000
26.8400 994.0000 1.0000
26.8500 957.0000 1.0000
26.8600 951.0000 1.0000
26.8700 945.0000 1.0000
26.8800 901.0000 1.0000
26.8900 910.0000 1.0000
26.9000 967.0000 1.0000
26.9100 936.0000 1.0000
26.9200 937.0000 1.0000
26.9300 888.0000 1.0000
26.9400 891.0000 1.0000
26.9500 882.0000 1.0000
26.9600 910.0000 1.0000
26.9700 893.0000 1.0000
26.9800 897.0000 1.0000
26.9900 915.0000 1.0000
27.0000 906.0000 1.0000
27.0100 874.0000 1.0000
27.0200 867.0000 1.0000
27.0300 826.0000 1.0000
27.0400 883.0000 1.0000
27.0500 865.0000 1.0000
27.0600 905.0000 1.0000
27.0700 898.0000 1.0000
27.0800 889.0000 1.0000
27.0900 851.0000 1.0000
27.1000 890.0000 1.0000
27.1100 836.0000 1.0000
27.1200 863.0000 1.0000
27.1300 840.0000 1.0000
27.1400 870.0000 1.0000
27.1500 843.0000 1.0000
27.1600 867.0000 1.0000
27.1700 877.0000 1.0000
27.1800 886.0000 1.0000
27.1900 838.0000 1.0000
27.2000 850.0000 1.0000
27.2100 857.0000 1.0000
27.2200 833.0000 1.0000
27.2300 850.0000 1.0000
27.2400 823.0000 1.0000
27.2500 815.0000 1.0000
27.2600 801.0000 1.0000
27.2700 825.0000 1.0000
27.2800 852.0000 1.0000
27.2900 806.0000 1.0000
27.3000 823.0000 1.0000
27.3100 779.0000 1.0000
27.3200 840.0000 1.0000
27.3300 835.0000 1.0000
27.3400 845.0000 1.0000
27.3500 840.0000 1.0000
27.3600 801.0000 1.0000
27.3700 846.0000 1.0000
27.3800 862.0000 1.0000
27.3900 843.0000 1.0000
27.4000 840.0000 1.0000
27.4100 864.0000 1.0000
27.4200 831.0000 1.0000
27.4300 841.0000 1.0000
27.4400 792.0000 1.0000
27.4500 828.0000 1.0000
27.4600 820.0000 1.0000
27.4700 816.0000 1.0000
27.4800 845.0000 1.0000
27.4900 826.0000 1.0000
27.5000 763.0000 1.0000
27.5100 817.0000 1.0000
27.5200 799.0000 1.0000
27.5300 815.0000 1.0000
27.5400 835.0000 1.0000
27.5500 806.0000 1.0000
27.5600 813.0000 1.0000
27.5700 787.0000 1.0000
27.5800 832.0000 1.0000
27.5900 826.0000 1.0000
27.6000 817.0000 1.0000
27.6100 812.0000 1.0000
27.6200 821.0000 1.0000
27.6300 812.0000 1.0000
27.6400 849.0000 1.0000
27.6500 793.0000 1.0000
27.6600 864.0000 1.0000
27.6700 838.0000 1.0000
27.6800 816.0000 1.0000
27.6900 843.0000 1.0000
27.7000 812.0000 1.0000
27.7100 853.0000 1.0000
27.7200 799.0000 1.0000
27.7300 830.0000 1.0000
27.7400 860.0000 1.0000
27.7500 801.0000 1.0000
27.7600 797.0000 1.0000
27.7700 830.0000 1.0000
27.7800 802.0000 1.0000
27.7900 776.0000 1.0000
27.8000 827.0000 1.0000
27.8100 806.0000 1.0000
27.8200 780.0000 1.0000
27.8300 817.0000 1.0000
27.8400 780.0000 1.0000
27.8500 814.0000 1.0000
27.8600 823.0000 1.0000
27.8700 775.0000 1.0000
27.8800 797.0000 1.0000
27.8900 793.0000 1.0000
27.9000 820.0000 1.0000
27.9100 774.0000 1.0000
27.9200 813.0000 1.0000
27.9300 781.0000 1.0000
27.9400 782.0000 1.0000
27.9500 783.0000 1.0000
27.9600 784.0000 1.0000
27.9700 782.0000 1.0000
27.9800 809.0000 1.0000
27.9900 819.0000 1.0000
28.0000 775.0000 1.0000
28.0100 770.0000 1.0000
28.0200 754.0000 1.0000
28.0300 755.0000 1.0000
28.0400 765.0000 1.0000
28.0500 761.0000 1.0000
28.0600 781.0000 1.0000
28.0700 786.0000 1.0000
28.0800 773.0000 1.0000
28.0900 814.0000 1.0000
28.1000 740.0000 1.0000
28.1100 752.0000 1.0000
28.1200 746.0000 1.0000
28.1300 838.0000 1.0000
28.1400 769.0000 1.0000
28.1500 798.0000 1.0000
28.1600 787.0000 1.0000
28.1700 787.0000 1.0000
28.1800 768.0000 1.0000
28.1900 748.0000 1.0000
28.2000 770.0000 1.0000
28.2100 752.0000 1.0000
28.2200 771.0000 1.0000
28.2300 738.0000 1.0000
28.2400 789.0000 1.0000
28.2500 834.0000 1.0000
28.2600 798.0000 1.0000
28.2700 807.0000 1.0000
28.2800 780.0000 1.0000
28.2900 831.0000 1.0000
28.3000 831.0000 1.0000
28.3100 762.0000 1.0000
28.3200 780.0000 1.0000
28.3300 817.0000 1.0000
28.3400 755.0000 1.0000
28.3500 763.0000 1.0000
28.3600 744.0000 1.0000
28.3700 762.0000 1.0000
28.3800 789.0000 1.0000
28.3900 794.0000 1.0000
28.4000 784.0000 1.0000
28.4100 789.0000 1.0000
28.4200 848.0000 1.0000
28.4300 779.0000 1.0000
28.4400 813.0000 1.0000
28.4500 773.0000 1.0000
28.4600 783.0000 1.0000
28.4700 810.0000 1.0000
28.4800 776.0000 1.0000
28.4900 723.0000 1.0000
28.5000 786.0000 1.0000
28.5100 751.0000 1.0000
28.5200 756.0000 1.0000
28.5300 706.0000 1.0000
28.5400 759.0000 1.0000
28.5500 824.0000 1.0000
28.5600 792.0000 1.0000
28.5700 777.0000 1.0000
28.5800 792.0000 1.0000
28.5900 818.0000 1.0000
28.6000 790.0000 1.0000
28.6100 754.0000 1.0000
28.6200 710.0000 1.0000
28.6300 749.0000 1.0000
28.6400 752.0000 1.0000
28.6500 769.0000 1.0000
28.6600 750.0000 1.0000
28.6700 780.0000 1.0000
28.6800 724.0000 1.0000
28.6900 715.0000 1.0000
28.7000 726.0000 1.0000
28.7100 703.0000 1.0000
28.7200 774.0000 1.0000
28.7300 793.0000 1.0000
28.7400 763.0000 1.0000
28.7500 769.0000 1.0000
28.7600 781.0000 1.0000
28.7700 780.0000 1.0000
28.7800 772.0000 1.0000
28.7900 817.0000 1.0000
28.8000 754.0000 1.0000
28.8100 748.0000 1.0000
28.8200 779.0000 1.0000
28.8300 753.0000 1.0000
28.8400 810.0000 1.0000
28.8500 777.0000 1.0000
28.8600 731.0000 1.0000
28.8700 731.0000 1.0000
28.8800 746.0000 1.0000
28.8900 774.0000 1.0000
28.9000 742.0000 1.0000
28.9100 759.0000 1.0000
28.9200 764.0000 1.0000
28.9300 745.0000 1.0000
28.9400 763.0000 1.0000
28.9500 767.0000 1.0000
28.9600 748.0000 1.0000
28.9700 781.0000 1.0000
28.9800 727.0000 1.0000
28.9900 745.0000 1.0000
29.0000 756.0000 1.0000
29.0100 740.0000 1.0000
29.0200 745.0000 1.0000
29.0300 709.0000 1.0000
29.0400 764.0000 1.0000
29.0500 723.0000 1.0000
29.0600 711.0000 1.0000
29.0700 729.0000 1.0000
29.0800 758.0000 1.0000
29.0900 739.0000 1.0000
29.1000 750.0000 1.0000
29.1100 729.0000 1.0000
29.1200 743.0000 1.0000
29.1300 730.0000 1.0000
29.1400 776.0000 1.0000
29.1500 724.0000 1.0000
29.1600 721.0000 1.0000
29.1700 743.0000 1.0000
29.1800 772.0000 1.0000
29.1900 757.0000 1.0000
29.2000 766.0000 1.0000
29.2100 741.0000 1.0000
29.2200 746.0000 1.0000
29.2300 769.0000 1.0000
29.2400 746.0000 1.0000
29.2500 735.0000 1.0000
29.2600 736.0000 1.0000
29.2700 755.0000 1.0000
29.2800 767.0000 1.0000
29.2900 736.0000 1.0000
29.3000 714.0000 1.0000
29.3100 722.0000 1.0000
29.3200 732.0000 1.0000
29.3300 743.0000 1.0000
29.3400 747.0000 1.0000
29.3500 720.0000 1.0000
29.3600 708.0000 1.0000
29.3700 703.0000 1.0000
29.3800 707.0000 1.0000
29.3900 728.0000 1.0000
29.4000 732.0000 1.0000
29.4100 676.0000 1.0000
29.4200 730.0000 1.0000
29.4300 738.0000 1.0000
29.4400 701.0000 1.0000
29.4500 706.0000 1.0000
29.4600 746.0000 1.0000
29.4700 733.0000 1.0000
29.4800 763.0000 1.0000
29.4900 720.0000 1.0000
29.5000 716.0000 1.0000
29.5100 753.0000 1.0000
29.5200 759.0000 1.0000
29.5300 765.0000 1.0000
29.5400 719.0000 1.0000
29.5500 699.0000 1.0000
29.5600 730.0000 1.0000
29.5700 689.0000 1.0000
29.5800 755.0000 1.0000
29.5900 780.0000 1.0000
29.6000 766.0000 1.0000
29.6100 725.0000 1.0000
29.6200 703.0000 1.0000
29.6300 767.0000 1.0000
29.6400 730.0000 1.0000
29.6500 720.0000 1.0000
29.6600 687.0000 1.0000
29.6700 712.0000 1.0000
29.6800 757.0000 1.0000
29.6900 768.0000 1.0000
29.7000 730.0000 1.0000
29.7100 739.0000 1.0000
29.7200 720.0000 1.0000
29.7300 727.0000 1.0000
29.7400 739.0000 1.0000
29.7500 750.0000 1.0000
29.7600 744.0000 1.0000
29.7700 700.0000 1.0000
29.7800 710.0000 1.0000
29.7900 721.0000 1.0000
29.8000 731.0000 1.0000
29.8100 722.0000 1.0000
29.8200 688.0000 1.0000
29.8300 725.0000 1.0000
29.8400 736.0000 1.0000
29.8500 710.0000 1.0000
29.8600 699.0000 1.0000
29.8700 734.0000 1.0000
29.8800 709.0000 1.0000
29.8900 723.0000 1.0000
29.9000 735.0000 1.0000
29.9100 697.0000 1.0000
29.9200 713.0000 1.0000
29.9300 748.0000 1.0000
29.9400 735.0000 1.0000
29.9500 717.0000 1.0000
29.9600 719.0000 1.0000
29.9700 724.0000 1.0000
29.9800 722.0000 1.0000
29.9900 739.0000 1.0000
30.0000 746.0000 1.0000
30.0100 729.0000 1.0000
30.0200 694.0000 1.0000
30.0300 674.0000 1.0000
30.0400 708.0000 1.0000
30.0500 729.0000 1.0000
30.0600 698.0000 1.0000
30.0700 694.0000 1.0000
30.0800 688.0000 1.0000
30.0900 742.0000 1.0000
30.1000 760.0000 1.0000
30.1100 738.0000 1.0000
30.1200 702.0000 1.0000
30.1300 718.0000 1.0000
30.1400 675.0000 1.0000
30.1500 685.0000 1.0000
30.1600 688.0000 1.0000
30.1700 707.0000 1.0000
30.1800 695.0000 1.0000
30.1900 712.0000 1.0000
30.2000 718.0000 1.0000
30.2100 713.0000 1.0000
30.2200 730.0000 1.0000
30.2300 713.0000 1.0000
30.2400 736.0000 1.0000
30.2500 708.0000 1.0000
30.2600 696.0000 1.0000
30.2700 696.0000 1.0000
30.2800 714.0000 1.0000
30.2900 697.0000 1.0000
30.3000 718.0000 1.0000
30.3100 698.0000 1.0000
30.3200 704.0000 1.0000
30.3300 673.0000 1.0000
30.3400 699.0000 1.0000
30.3500 721.0000 1.0000
30.3600 779.0000 1.0000
30.3700 710.0000 1.0000
30.3800 733.0000 1.0000
30.3900 706.0000 1.0000
30.4000 663.0000 1.0000
30.4100 707.0000 1.0000
30.4200 714.0000 1.0000
30.4300 712.0000 1.0000
30.4400 697.0000 1.0000
30.4500 724.0000 1.0000
30.4600 711.0000 1.0000
30.4700 715.0000 1.0000
30.4800 711.0000 1.0000
30.4900 699.0000 1.0000
30.5000 728.0000 1.0000
30.5100 729.0000 1.0000
30.5200 691.0000 1.0000
30.5300 734.0000 1.0000
30.5400 695.0000 1.0000
30.5500 689.0000 1.0000
30.5600 745.0000 1.0000
30.5700 705.0000 1.0000
30.5800 663.0000 1.0000
30.5900 691.0000 1.0000
30.6000 722.0000 1.0000
30.6100 706.0000 1.0000
30.6200 715.0000 1.0000
30.6300 716.0000 1.0000
30.6400 713.0000 1.0000
30.6500 690.0000 1.0000
30.6600 736.0000 1.0000
30.6700 704.0000 1.0000
30.6800 701.0000 1.0000
30.6900 709.0000 1.0000
30.7000 709.0000 1.0000
30.7100 716.0000 1.0000
30.7200 734.0000 1.0000
30.7300 678.0000 1.0000
30.7400 685.0000 1.0000
30.7500 682.0000 1.0000
30.7600 683.0000 1.0000
30.7700 721.0000 1.0000
30.7800 664.0000 1.0000
30.7900 695.0000 1.0000
30.8000 696.0000 1.0000
30.8100 703.0000 1.0000
30.8200 704.0000 1.0000
30.8300 700.0000 1.0000
30.8400 736.0000 1.0000
30.8500 713.0000 1.0000
30.8600 671.0000 1.0000
30.8700 703.0000 1.0000
30.8800 691.0000 1.0000
30.8900 727.0000 1.0000
30.9000 656.0000 1.0000
30.9100 664.0000 1.0000
30.9200 675.0000 1.0000
30.9300 712.0000 1.0000
30.9400 649.0000 1.0000
30.9500 690.0000 1.0000
30.9600 735.0000 1.0000
30.9700 654.0000 1.0000
30.9800 681.0000 1.0000
30.9900 678.0000 1.0000
31.0000 736.0000 1.0000
31.0100 703.0000 1.0000
31.0200 686.0000 1.0000
31.0300 708.0000 1.0000
31.0400 721.0000 1.0000
31.0500 724.0000 1.0000
31.0600 691.0000 1.0000
31.0700 723.0000 1.0000
31.0800 694.0000 1.0000
31.0900 714.0000 1.0000
31.1000 665.0000 1.0000
31.1100 736.0000 1.0000
31.1200 754.0000 1.0000
31.1300 734.0000 1.0000
31.1400 703.0000 1.0000
31.1500 683.0000 1.0000
31.1600 713.0000 1.0000
31.1700 705.0000 1.0000
31.1800 712.0000 1.0000
31.1900 699.0000 1.0000
31.2000 679.0000 1.0000
31.2100 711.0000 1.0000
31.2200 667.0000 1.0000
31.2300 652.0000 1.0000
31.2400 665.0000 1.0000
31.2500 683.0000 1.0000
31.2600 680.0000 1.0000
31.2700 668.0000 1.0000
31.2800 686.0000 1.0000
31.2900 690.0000 1.0000
31.3000 661.0000 1.0000
31.3100 647.0000 1.0000
31.3200 692.0000 1.0000
31.3300 678.0000 1.0000
31.3400 642.0000 1.0000
31.3500 704.0000 1.0000
31.3600 712.0000 1.0000
31.3700 718.0000 1.0000
31.3800 672.0000 1.0000
31.3900 701.0000 1.0000
31.4000 687.0000 1.0000
31.4100 668.0000 1.0000
31.4200 700.0000 1.0000
31.4300 666.0000 1.0000
31.4400 691.0000 1.0000
31.4500 617.0000 1.0000
31.4600 665.0000 1.0000
31.4700 692.0000 1.0000
31.4800 706.0000 1.0000
31.4900 656.0000 1.0000
31.5000 665.0000 1.0000
31.5100 660.0000 1.0000
31.5200 673.0000 1.0000
31.5300 633.0000 1.0000
31.5400 690.0000 1.0000
31.5500 659.0000 1.0000
31.5600 659.0000 1.0000
31.5700 697.0000 1.0000
31.5800 657.0000 1.0000
31.5900 660.0000 1.0000
31.6000 666.0000 1.0000
31.6100 659.0000 1.0000
31.6200 634.0000 1.0000
31.6300 691.0000 1.0000
31.6400 660.0000 1.0000
31.6500 652.0000 1.0000
31.6600 663.0000 1.0000
31.6700 699.0000 1.0000
31.6800 702.0000 1.0000
31.6900 622.0000 1.0000
31.7000 668.0000 1.0000
31.7100 679.0000 1.0000
31.7200 737.0000 1.0000
31.7300 664.0000 1.0000
31.7400 643.0000 1.0000
31.7500 683.0000 1.0000
31.7600 647.0000 1.0000
31.7700 663.0000 1.0000
31.7800 701.0000 1.0000
31.7900 685.0000 1.0000
31.8000 662.0000 1.0000
31.8100 647.0000 1.0000
31.8200 691.0000 1.0000
31.8300 696.0000 1.0000
31.8400 698.0000 1.0000
31.8500 648.0000 1.0000
31.8600 662.0000 1.0000
31.8700 689.0000 1.0000
31.8800 660.0000 1.0000
31.8900 673.0000 1.0000
31.9000 681.0000 1.0000
31.9100 688.0000 1.0000
31.9200 697.0000 1.0000
31.9300 663.0000 1.0000
31.9400 635.0000 1.0000
31.9500 685.0000 1.0000
31.9600 650.0000 1.0000
31.9700 652.0000 1.0000
31.9800 695.0000 1.0000
31.9900 689.0000 1.0000
32.0000 661.0000 1.0000
32.0100 716.0000 1.0000
32.0200 709.0000 1.0000
32.0300 658.0000 1.0000
32.0400 672.0000 1.0000
32.0500 660.0000 1.0000
32.0600 626.0000 1.0000
32.0700 629.0000 1.0000
32.0800 639.0000 1.0000
32.0900 660.0000 1.0000
32.1000 663.0000 1.0000
32.1100 696.0000 1.0000
32.1200 666.0000 1.0000
32.1300 642.0000 1.0000
32.1400 640.0000 1.0000
32.1500 639.0000 1.0000
32.1600 659.0000 1.0000
32.1700 653.0000 1.0000
32.1800 679.0000 1.0000
32.1900 697.0000 1.0000
32.2000 644.0000 1.0000
32.2100 635.0000 1.0000
32.2200 684.0000 1.0000
32.2300 637.0000 1.0000
32.2400 635.0000 1.0000
32.2500 634.0000 1.0000
32.2600 665.0000 1.0000
32.2700 656.0000 1.0000
32.2800 647.0000 1.0000
32.2900 652.0000 1.0000
32.3000 679.0000 1.0000
32.3100 641.0000 1.0000
32.3200 647.0000 1.0000
32.3300 646.0000 1.0000
32.3400 665.0000 1.0000
32.3500 664.0000 1.0000
32.3600 675.0000 1.0000
32.3700 677.0000 1.0000
32.3800 639.0000 1.0000
32.3900 655.0000 1.0000
32.4000 686.0000 1.0000
32.4100 634.0000 1.0000
32.4200 695.0000 1.0000
32.4300 700.0000 1.0000
32.4400 676.0000 1.0000
32.4500 644.0000 1.0000
32.4600 703.0000 1.0000
32.4700 638.0000 1.0000
32.4800 651.0000 1.0000
32.4900 659.0000 1.0000
32.5000 642.0000 1.0000
32.5100 639.0000 1.0000
32.5200 677.0000 1.0000
32.5300 670.0000 1.0000
32.5400 656.0000 1.0000
32.5500 641.0000 1.0000
32.5600 638.0000 1.0000
32.5700 636.0000 1.0000
32.5800 667.0000 1.0000
32.5900 625.0000 1.0000
32.6000 683.0000 1.0000
32.6100 642.0000 1.0000
32.6200 671.0000 1.0000
32.6300 664.0000 1.0000
32.6400 663.0000 1.0000
32.6500 677.0000 1.0000
32.6600 660.0000 1.0000
32.6700 660.0000 1.0000
32.6800 674.0000 1.0000
32.6900 648.0000 1.0000
32.7000 697.0000 1.0000
32.7100 601.0000 1.0000
32.7200 660.0000 1.0000
32.7300 669.0000 1.0000
32.7400 678.0000 1.0000
32.7500 685.0000 1.0000
32.7600 681.0000 1.0000
32.7700 679.0000 1.0000
32.7800 655.0000 1.0000
32.7900 673.0000 1.0000
32.8000 689.0000 1.0000
32.8100 712.0000 1.0000
32.8200 704.0000 1.0000
32.8300 652.0000 1.0000
32.8400 701.0000 1.0000
32.8500 707.0000 1.0000
32.8600 690.0000 1.0000
32.8700 760.0000 1.0000
32.8800 756.0000 1.0000
32.8900 755.0000 1.0000
32.9000 757.0000 1.0000
32.9100 761.0000 1.0000
32.9200 755.0000 1.0000
32.9300 800.0000 1.0000
32.9400 720.0000 1.0000
32.9500 750.0000 1.0000
32.9600 757.0000 1.0000
32.9700 772.0000 1.0000
32.9800 800.0000 1.0000
32.9900 888.0000 1.0000
33.0000 814.0000 1.0000
33.0100 827.0000 1.0000
33.0200 849.0000 1.0000
33.0300 930.0000 1.0000
33.0400 849.0000 1.0000
33.0500 867.0000 1.0000
33.0600 922.0000 1.0000
33.0700 928.0000 1.0000
33.0800 912.0000 1.0000
33.0900 851.0000 1.0000
33.1000 922.0000 1.0000
33.1100 943.0000 1.0000
33.1200 926.0000 1.0000
33.1300 920.0000 1.0000
33.1400 877.0000 1.0000
33.1500 859.0000 1.0000
33.1600 903.0000 1.0000
33.1700 890.0000 1.0000
33.1800 898.0000 1.0000
33.1900 852.0000 1.0000
33.2000 846.0000 1.0000
33.2100 826.0000 1.0000
33.2200 847.0000 1.0000
33.2300 855.0000 1.0000
33.2400 822.0000 1.0000
33.2500 795.0000 1.0000
33.2600 802.0000 1.0000
33.2700 827.0000 1.0000
33.2800 780.0000 1.0000
33.2900 778.0000 1.0000
33.3000 756.0000 1.0000
33.3100 781.0000 1.0000
33.3200 781.0000 1.0000
33.3300 793.0000 1.0000
33.3400 751.0000 1.0000
33.3500 737.0000 1.0000
33.3600 740.0000 1.0000
33.3700 769.0000 1.0000
33.3800 810.0000 1.0000
33.3900 780.0000 1.0000
33.4000 789.0000 1.0000
33.4100 816.0000 1.0000
33.4200 849.0000 1.0000
33.4300 825.0000 1.0000
33.4400 843.0000 1.0000
33.4500 865.0000 1.0000
33.4600 828.0000 1.0000
33.4700 926.0000 1.0000
33.4800 924.0000 1.0000
33.4900 972.0000 1.0000
33.5000 963.0000 1.0000
33.5100 1012.0000 1.0000
33.5200 1009.0000 1.0000
33.5300 1063.0000 1.0000
33.5400 1069.0000 1.0000
33.5500 1168.0000 1.0000
33.5600 1154.0000 1.0000
33.5700 1268.0000 1.0000
33.5800 1326.0000 1.0000
33.5900 1308.0000 1.0000
33.6000 1434.0000 1.0000
33.6100 1457.0000 1.0000
33.6200 1552.0000 1.0000
33.6300 1537.0000 1.0000
33.6400 1612.0000 1.0000
33.6500 1616.0000 1.0000
33.6600 1559.0000 1.0000
33.6700 1581.0000 1.0000
33.6800 1527.0000 1.0000
33.6900 1514.0000 1.0000
33.7000 1474.0000 1.0000
33.7100 1438.0000 1.0000
33.7200 1319.0000 1.0000
33.7300 1332.0000 1.0000
33.7400 1280.0000 1.0000
33.7500 1222.0000 1.0000
33.7600 1166.0000 1.0000
33.7700 1172.0000 1.0000
33.7800 1125.0000 1.0000
33.7900 1059.0000 1.0000
33.8000 1026.0000 1.0000
33.8100 952.0000 1.0000
33.8200 971.0000 1.0000
33.8300 866.0000 1.0000
33.8400 842.0000 1.0000
33.8500 821.0000 1.0000
33.8600 807.0000 1.0000
33.8700 810.0000 1.0000
33.8800 810.0000 1.0000
33.8900 800.0000 1.0000
33.9000 800.0000 1.0000
33.9100 813.0000 1.0000
33.9200 776.0000 1.0000
33.9300 757.0000 1.0000
33.9400 736.0000 1.0000
33.9500 711.0000 1.0000
33.9600 711.0000 1.0000
33.9700 693.0000 1.0000
33.9800 719.0000 1.0000
33.9900 746.0000 1.0000
34.0000 727.0000 1.0000
34.0100 684.0000 1.0000
34.0200 687.0000 1.0000
34.0300 677.0000 1.0000
34.0400 692.0000 1.0000
34.0500 681.0000 1.0000
34.0600 631.0000 1.0000
34.0700 608.0000 1.0000
34.0800 601.0000 1.0000
34.0900 644.0000 1.0000
34.1000 654.0000 1.0000
34.1100 670.0000 1.0000
34.1200 614.0000 1.0000
34.1300 653.0000 1.0000
34.1400 611.0000 1.0000
34.1500 631.0000 1.0000
34.1600 665.0000 1.0000
34.1700 630.0000 1.0000
34.1800 652.0000 1.0000
34.1900 645.0000 1.0000
34.2000 595.0000 1.0000
34.2100 646.0000 1.0000
34.2200 642.0000 1.0000
34.2300 627.0000 1.0000
34.2400 606.0000 1.0000
34.2500 627.0000 1.0000
34.2600 650.0000 1.0000
34.2700 633.0000 1.0000
34.2800 625.0000 1.0000
34.2900 601.0000 1.0000
34.3000 633.0000 1.0000
34.3100 600.0000 1.0000
34.3200 589.0000 1.0000
34.3300 639.0000 1.0000
34.3400 596.0000 1.0000
34.3500 601.0000 1.0000
34.3600 617.0000 1.0000
34.3700 601.0000 1.0000
34.3800 581.0000 1.0000
34.3900 593.0000 1.0000
34.4000 592.0000 1.0000
34.4100 604.0000 1.0000
34.4200 592.0000 1.0000
34.4300 594.0000 1.0000
34.4400 595.0000 1.0000
34.4500 589.0000 1.0000
34.4600 611.0000 1.0000
34.4700 554.0000 1.0000
34.4800 613.0000 1.0000
34.4900 587.0000 1.0000
34.5000 607.0000 1.0000
34.5100 587.0000 1.0000
34.5200 604.0000 1.0000
34.5300 629.0000 1.0000
34.5400 567.0000 1.0000
34.5500 625.0000 1.0000
34.5600 571.0000 1.0000
34.5700 564.0000 1.0000
34.5800 578.0000 1.0000
34.5900 552.0000 1.0000
34.6000 586.0000 1.0000
34.6100 591.0000 1.0000
34.6200 585.0000 1.0000
34.6300 570.0000 1.0000
34.6400 613.0000 1.0000
34.6500 598.0000 1.0000
34.6600 557.0000 1.0000
34.6700 579.0000 1.0000
34.6800 571.0000 1.0000
34.6900 595.0000 1.0000
34.7000 626.0000 1.0000
34.7100 588.0000 1.0000
34.7200 591.0000 1.0000
34.7300 548.0000 1.0000
34.7400 606.0000 1.0000
34.7500 589.0000 1.0000
34.7600 590.0000 1.0000
34.7700 579.0000 1.0000
34.7800 596.0000 1.0000
34.7900 536.0000 1.0000
34.8000 586.0000 1.0000
34.8100 582.0000 1.0000
34.8200 578.0000 1.0000
34.8300 593.0000 1.0000
34.8400 567.0000 1.0000
34.8500 543.0000 1.0000
34.8600 564.0000 1.0000
34.8700 563.0000 1.0000
34.8800 585.0000 1.0000
34.8900 594.0000 1.0000
34.9000 594.0000 1.0000
34.9100 571.0000 1.0000
34.9200 552.0000 1.0000
34.9300 572.0000 1.0000
34.9400 558.0000 1.0000
34.9500 595.0000 1.0000
34.9600 544.0000 1.0000
34.9700 560.0000 1.0000
34.9800 520.0000 1.0000
34.9900 584.0000 1.0000
35.0000 571.0000 1.0000
35.0100 547.0000 1.0000
35.0200 566.0000 1.0000
35.0300 585.0000 1.0000
35.0400 592.0000 1.0000
35.0500 555.0000 1.0000
35.0600 581.0000 1.0000
35.0700 568.0000 1.0000
35.0800 569.0000 1.0000
35.0900 563.0000 1.0000
35.1000 599.0000 1.0000
35.1100 616.0000 1.0000
35.1200 605.0000 1.0000
35.1300 558.0000 1.0000
35.1400 587.0000 1.0000
35.1500 577.0000 1.0000
35.1600 569.0000 1.0000
35.1700 564.0000 1.0000
35.1800 576.0000 1.0000
35.1900 569.0000 1.0000
35.2000 534.0000 1.0000
35.2100 532.0000 1.0000
35.2200 584.0000 1.0000
35.2300 556.0000 1.0000
35.2400 580.0000 1.0000
35.2500 598.0000 1.0000
35.2600 616.0000 1.0000
35.2700 537.0000 1.0000
35.2800 624.0000 1.0000
35.2900 610.0000 1.0000
35.3000 598.0000 1.0000
35.3100 603.0000 1.0000
35.3200 626.0000 1.0000
35.3300 637.0000 1.0000
35.3400 592.0000 1.0000
35.3500 616.0000 1.0000
35.3600 676.0000 1.0000
35.3700 686.0000 1.0000
35.3800 653.0000 1.0000
35.3900 676.0000 1.0000
35.4000 704.0000 1.0000
35.4100 700.0000 1.0000
35.4200 690.0000 1.0000
35.4300 745.0000 1.0000
35.4400 683.0000 1.0000
35.4500 670.0000 1.0000
35.4600 699.0000 1.0000
35.4700 744.0000 1.0000
35.4800 790.0000 1.0000
35.4900 794.0000 1.0000
35.5000 804.0000 1.0000
35.5100 803.0000 1.0000
35.5200 881.0000 1.0000
35.5300 815.0000 1.0000
35.5400 843.0000 1.0000
35.5500 944.0000 1.0000
35.5600 873.0000 1.0000
35.5700 896.0000 1.0000
35.5800 899.0000 1.0000
35.5900 875.0000 1.0000
35.6000 910.0000 1.0000
35.6100 896.0000 1.0000
35.6200 878.0000 1.0000
35.6300 854.0000 1.0000
35.6400 802.0000 1.0000
35.6500 819.0000 1.0000
35.6600 780.0000 1.0000
35.6700 811.0000 1.0000
35.6800 830.0000 1.0000
35.6900 800.0000 1.0000
35.7000 729.0000 1.0000
35.7100 700.0000 1.0000
35.7200 706.0000 1.0000
35.7300 701.0000 1.0000
35.7400 662.0000 1.0000
35.7500 624.0000 1.0000
35.7600 610.0000 1.0000
35.7700 618.0000 1.0000
35.7800 609.0000 1.0000
35.7900 621.0000 1.0000
35.8000 624.0000 1.0000
35.8100 586.0000 1.0000
35.8200 639.0000 1.0000
35.8300 592.0000 1.0000
35.8400 600.0000 1.0000
35.8500 594.0000 1.0000
35.8600 550.0000 1.0000
35.8700 547.0000 1.0000
35.8800 624.0000 1.0000
35.8900 583.0000 1.0000
35.9000 575.0000 1.0000
35.9100 565.0000 1.0000
35.9200 535.0000 1.0000
35.9300 557.0000 1.0000
35.9400 550.0000 1.0000
35.9500 545.0000 1.0000
35.9600 529.0000 1.0000
35.9700 515.0000 1.0000
35.9800 542.0000 1.0000
35.9900 545.0000 1.0000
36.0000 532.0000 1.0000
36.0100 518.0000 1.0000
36.0200 530.0000 1.0000
36.0300 528.0000 1.0000
36.0400 566.0000 1.0000
36.0500 555.0000 1.0000
36.0600 563.0000 1.0000
36.0700 522.0000 1.0000
36.0800 532.0000 1.0000
36.0900 556.0000 1.0000
36.1000 567.0000 1.0000
36.1100 542.0000 1.0000
36.1200 503.0000 1.0000
36.1300 532.0000 1.0000
36.1400 510.0000 1.0000
36.1500 505.0000 1.0000
36.1600 504.0000 1.0000
36.1700 525.0000 1.0000
36.1800 503.0000 1.0000
36.1900 513.0000 1.0000
36.2000 511.0000 1.0000
36.2100 511.0000 1.0000
36.2200 525.0000 1.0000
36.2300 501.0000 1.0000
36.2400 493.0000 1.0000
36.2500 485.0000 1.0000
36.2600 541.0000 1.0000
36.2700 537.0000 1.0000
36.2800 506.0000 1.0000
36.2900 536.0000 1.0000
36.3000 490.0000 1.0000
36.3100 517.0000 1.0000
36.3200 561.0000 1.0000
36.3300 537.0000 1.0000
36.3400 516.0000 1.0000
36.3500 520.0000 1.0000
36.3600 529.0000 1.0000
36.3700 537.0000 1.0000
36.3800 515.0000 1.0000
36.3900 547.0000 1.0000
36.4000 539.0000 1.0000
36.4100 518.0000 1.0000
36.4200 517.0000 1.0000
36.4300 552.0000 1.0000
36.4400 535.0000 1.0000
36.4500 548.0000 1.0000
36.4600 537.0000 1.0000
36.4700 525.0000 1.0000
36.4800 525.0000 1.0000
36.4900 531.0000 1.0000
36.5000 548.0000 1.0000
36.5100 512.0000 1.0000
36.5200 482.0000 1.0000
36.5300 533.0000 1.0000
36.5400 517.0000 1.0000
36.5500 481.0000 1.0000
36.5600 541.0000 1.0000
36.5700 546.0000 1.0000
36.5800 483.0000 1.0000
36.5900 498.0000 1.0000
36.6000 489.0000 1.0000
36.6100 503.0000 1.0000
36.6200 497.0000 1.0000
36.6300 529.0000 1.0000
36.6400 520.0000 1.0000
36.6500 511.0000 1.0000
36.6600 545.0000 1.0000
36.6700 516.0000 1.0000
36.6800 530.0000 1.0000
36.6900 541.0000 1.0000
36.7000 494.0000 1.0000
36.7100 503.0000 1.0000
36.7200 543.0000 1.0000
36.7300 519.0000 1.0000
36.7400 533.0000 1.0000
36.7500 510.0000 1.0000
36.7600 523.0000 1.0000
36.7700 545.0000 1.0000
36.7800 510.0000 1.0000
36.7900 505.0000 1.0000
36.8000 534.0000 1.0000
36.8100 507.0000 1.0000
36.8200 504.0000 1.0000
36.8300 561.0000 1.0000
36.8400 541.0000 1.0000
36.8500 546.0000 1.0000
36.8600 485.0000 1.0000
36.8700 511.0000 1.0000
36.8800 500.0000 1.0000
36.8900 515.0000 1.0000
36.9000 537.0000 1.0000
36.9100 528.0000 1.0000
36.9200 499.0000 1.0000
36.9300 499.0000 1.0000
36.9400 483.0000 1.0000
36.9500 530.0000 1.0000
36.9600 539.0000 1.0000
36.9700 537.0000 1.0000
36.9800 540.0000 1.0000
36.9900 537.0000 1.0000
37.0000 527.0000 1.0000
37.0100 497.0000 1.0000
37.0200 527.0000 1.0000
37.0300 508.0000 1.0000
37.0400 522.0000 1.0000
37.0500 534.0000 1.0000
37.0600 527.0000 1.0000
37.0700 535.0000 1.0000
37.0800 535.0000 1.0000
37.0900 540.0000 1.0000
37.1000 509.0000 1.0000
37.1100 498.0000 1.0000
37.1200 491.0000 1.0000
37.1300 518.0000 1.0000
37.1400 527.0000 1.0000
37.1500 544.0000 1.0000
37.1600 504.0000 1.0000
37.1700 541.0000 1.0000
37.1800 549.0000 1.0000
37.1900 597.0000 1.0000
37.2000 552.0000 1.0000
37.2100 540.0000 1.0000
37.2200 600.0000 1.0000
37.2300 582.0000 1.0000
37.2400 585.0000 1.0000
37.2500 527.0000 1.0000
37.2600 541.0000 1.0000
37.2700 541.0000 1.0000
37.2800 596.0000 1.0000
37.2900 598.0000 1.0000
37.3000 600.0000 1.0000
37.3100 581.0000 1.0000
37.3200 583.0000 1.0000
37.3300 641.0000 1.0000
37.3400 617.0000 1.0000
37.3500 614.0000 1.0000
37.3600 631.0000 1.0000
37.3700 653.0000 1.0000
37.3800 665.0000 1.0000
37.3900 711.0000 1.0000
37.4000 706.0000 1.0000
37.4100 707.0000 1.0000
37.4200 745.0000 1.0000
37.4300 780.0000 1.0000
37.4400 735.0000 1.0000
37.4500 779.0000 1.0000
37.4600 825.0000 1.0000
37.4700 883.0000 1.0000
37.4800 864.0000 1.0000
37.4900 870.0000 1.0000
37.5000 958.0000 1.0000
37.5100 1019.0000 1.0000
37.5200 1040.0000 1.0000
37.5300 1095.0000 1.0000
37.5400 1201.0000 1.0000
37.5500 1317.0000 1.0000
37.5600 1359.0000 1.0000
37.5700 1393.0000 1.0000
37.5800 1510.0000 1.0000
37.5900 1568.0000 1.0000
37.6000 1661.0000 1.0000
37.6100 1772.0000 1.0000
37.6200 1883.0000 1.0000
37.6300 2071.0000 1.0000
37.6400 2136.0000 1.0000
37.6500 2221.0000 1.0000
37.6600 2228.0000 1.0000
37.6700 2335.0000 1.0000
37.6800 2407.0000 1.0000
37.6900 2521.0000 1.0000
37.7000 2570.0000 1.0000
37.7100 2587.0000 1.0000
37.7200 2549.0000 1.0000
37.7300 2628.0000 1.0000
37.7400 2585.0000 1.0000
37.7500 2577.0000 1.0000
37.7600 2356.0000 1.0000
37.7700 2280.0000 1.0000
37.7800 2223.0000 1.0000
37.7900 2224.0000 1.0000
37.8000 2126.0000 1.0000
37.8100 1939.0000 1.0000
37.8200 1893.0000 1.0000
37.8300 1760.0000 1.0000
37.8400 1711.0000 1.0000
37.8500 1599.0000 1.0000
37.8600 1477.0000 1.0000
37.8700 1437.0000 1.0000
37.8800 1320.0000 1.0000
37.8900 1179.0000 1.0000
37.9000 1135.0000 1.0000
37.9100 1123.0000 1.0000
37.9200 1054.0000 1.0000
37.9300 1025.0000 1.0000
37.9400 915.0000 1.0000
37.9500 901.0000 1.0000
37.9600 881.0000 1.0000
37.9700 813.0000 1.0000
37.9800 823.0000 1.0000
37.9900 770.0000 1.0000
38.0000 733.0000 1.0000
38.0100 702.0000 1.0000
38.0200 752.0000 1.0000
38.0300 698.0000 1.0000
38.0400 676.0000 1.0000
38.0500 667.0000 1.0000
38.0600 654.0000 1.0000
38.0700 628.0000 1.0000
38.0800 575.0000 1.0000
38.0900 589.0000 1.0000
38.1000 614.0000 1.0000
38.1100 584.0000 1.0000
38.1200 570.0000 1.0000
38.1300 569.0000 1.0000
38.1400 550.0000 1.0000
38.1500 585.0000 1.0000
38.1600 533.0000 1.0000
38.1700 540.0000 1.0000
38.1800 534.0000 1.0000
38.1900 532.0000 1.0000
38.2000 532.0000 1.0000
38.2100 497.0000 1.0000
38.2200 498.0000 1.0000
38.2300 525.0000 1.0000
38.2400 533.0000 1.0000
38.2500 517.0000 1.0000
38.2600 538.0000 1.0000
38.2700 537.0000 1.0000
38.2800 517.0000 1.0000
38.2900 524.0000 1.0000
38.3000 496.0000 1.0000
38.3100 538.0000 1.0000
38.3200 497.0000 1.0000
38.3300 523.0000 1.0000
38.3400 474.0000 1.0000
38.3500 459.0000 1.0000
38.3600 512.0000 1.0000
38.3700 473.0000 1.0000
38.3800 476.0000 1.0000
38.3900 488.0000 1.0000
38.4000 473.0000 1.0000
38.4100 475.0000 1.0000
38.4200 501.0000 1.0000
38.4300 536.0000 1.0000
38.4400 496.0000 1.0000
38.4500 486.0000 1.0000
38.4600 480.0000 1.0000
38.4700 519.0000 1.0000
38.4800 527.0000 1.0000
38.4900 480.0000 1.0000
38.5000 497.0000 1.0000
38.5100 513.0000 1.0000
38.5200 498.0000 1.0000
38.5300 473.0000 1.0000
38.5400 470.0000 1.0000
38.5500 467.0000 1.0000
38.5600 485.0000 1.0000
38.5700 487.0000 1.0000
38.5800 486.0000 1.0000
38.5900 495.0000 1.0000
38.6000 487.0000 1.0000
38.6100 482.0000 1.0000
38.6200 491.0000 1.0000
38.6300 495.0000 1.0000
38.6400 503.0000 1.0000
38.6500 499.0000 1.0000
38.6600 499.0000 1.0000
38.6700 502.0000 1.0000
38.6800 499.0000 1.0000
38.6900 483.0000 1.0000
38.7000 507.0000 1.0000
38.7100 491.0000 1.0000
38.7200 481.0000 1.0000
38.7300 486.0000 1.0000
38.7400 522.0000 1.0000
38.7500 506.0000 1.0000
38.7600 531.0000 1.0000
38.7700 521.0000 1.0000
38.7800 500.0000 1.0000
38.7900 515.0000 1.0000
38.8000 513.0000 1.0000
38.8100 479.0000 1.0000
38.8200 495.0000 1.0000
38.8300 494.0000 1.0000
38.8400 495.0000 1.0000
38.8500 504.0000 1.0000
38.8600 472.0000 1.0000
38.8700 483.0000 1.0000
38.8800 482.0000 1.0000
38.8900 477.0000 1.0000
38.9000 498.0000 1.0000
38.9100 513.0000 1.0000
38.9200 472.0000 1.0000
38.9300 497.0000 1.0000
38.9400 474.0000 1.0000
38.9500 453.0000 1.0000
38.9600 478.0000 1.0000
38.9700 481.0000 1.0000
38.9800 448.0000 1.0000
38.9900 454.0000 1.0000
39.0000 509.0000 1.0000
39.0100 522.0000 1.0000
39.0200 486.0000 1.0000
39.0300 447.0000 1.0000
39.0400 469.0000 1.0000
39.0500 489.0000 1.0000
39.0600 469.0000 1.0000
39.0700 477.0000 1.0000
39.0800 488.0000 1.0000
39.0900 478.0000 1.0000
39.1000 476.0000 1.0000
39.1100 489.0000 1.0000
39.1200 470.0000 1.0000
39.1300 461.0000 1.0000
39.1400 435.0000 1.0000
39.1500 444.0000 1.0000
39.1600 492.0000 1.0000
39.1700 474.0000 1.0000
39.1800 446.0000 1.0000
39.1900 499.0000 1.0000
39.2000 465.0000 1.0000
39.2100 465.0000 1.0000
39.2200 459.0000 1.0000
39.2300 466.0000 1.0000
39.2400 457.0000 1.0000
39.2500 457.0000 1.0000
39.2600 454.0000 1.0000
39.2700 430.0000 1.0000
39.2800 455.0000 1.0000
39.2900 436.0000 1.0000
39.3000 452.0000 1.0000
39.3100 474.0000 1.0000
39.3200 431.0000 1.0000
39.3300 474.0000 1.0000
39.3400 449.0000 1.0000
39.3500 428.0000 1.0000
39.3600 440.0000 1.0000
39.3700 461.0000 1.0000
39.3800 476.0000 1.0000
39.3900 454.0000 1.0000
39.4000 466.0000 1.0000
39.4100 434.0000 1.0000
39.4200 438.0000 1.0000
39.4300 433.0000 1.0000
39.4400 436.0000 1.0000
39.4500 463.0000 1.0000
39.4600 428.0000 1.0000
39.4700 458.0000 1.0000
39.4800 427.0000 1.0000
39.4900 435.0000 1.0000
39.5000 481.0000 1.0000
39.5100 456.0000 1.0000
39.5200 455.0000 1.0000
39.5300 467.0000 1.0000
39.5400 423.0000 1.0000
39.5500 471.0000 1.0000
39.5600 475.0000 1.0000
39.5700 456.0000 1.0000
39.5800 431.0000 1.0000
39.5900 423.0000 1.0000
39.6000 438.0000 1.0000
39.6100 433.0000 1.0000
39.6200 458.0000 1.0000
39.6300 438.0000 1.0000
39.6400 483.0000 1.0000
39.6500 432.0000 1.0000
39.6600 452.0000 1.0000
39.6700 437.0000 1.0000
39.6800 460.0000 1.0000
39.6900 469.0000 1.0000
39.7000 469.0000 1.0000
39.7100 467.0000 1.0000
39.7200 475.0000 1.0000
39.7300 436.0000 1.0000
39.7400 435.0000 1.0000
39.7500 446.0000 1.0000
39.7600 419.0000 1.0000
39.7700 451.0000 1.0000
39.7800 463.0000 1.0000
39.7900 472.0000 1.0000
39.8000 452.0000 1.0000
39.8100 458.0000 1.0000
39.8200 433.0000 1.0000
39.8300 422.0000 1.0000
39.8400 425.0000 1.0000
39.8500 440.0000 1.0000
39.8600 440.0000 1.0000
39.8700 431.0000 1.0000
39.8800 428.0000 1.0000
39.8900 438.0000 1.0000
39.9000 461.0000 1.0000
39.9100 434.0000 1.0000
39.9200 487.0000 1.0000
39.9300 440.0000 1.0000
39.9400 440.0000 1.0000
39.9500 441.0000 1.0000
39.9600 411.0000 1.0000
39.9700 409.0000 1.0000
39.9800 461.0000 1.0000
39.9900 459.0000 1.0000
40.0000 474.0000 1.0000
40.0100 429.0000 1.0000
40.0200 459.0000 1.0000
40.0300 434.0000 1.0000
40.0400 443.0000 1.0000
40.0500 434.0000 1.0000
40.0600 434.0000 1.0000
40.0700 456.0000 1.0000
40.0800 440.0000 1.0000
40.0900 431.0000 1.0000
40.1000 451.0000 1.0000
40.1100 468.0000 1.0000
40.1200 434.0000 1.0000
40.1300 447.0000 1.0000
40.1400 443.0000 1.0000
40.1500 424.0000 1.0000
40.1600 399.0000 1.0000
40.1700 418.0000 1.0000
40.1800 453.0000 1.0000
40.1900 424.0000 1.0000
40.2000 453.0000 1.0000
40.2100 438.0000 1.0000
40.2200 454.0000 1.0000
40.2300 467.0000 1.0000
40.2400 419.0000 1.0000
40.2500 432.0000 1.0000
40.2600 424.0000 1.0000
40.2700 431.0000 1.0000
40.2800 436.0000 1.0000
40.2900 442.0000 1.0000
40.3000 442.0000 1.0000
40.3100 440.0000 1.0000
40.3200 451.0000 1.0000
40.3300 444.0000 1.0000
40.3400 430.0000 1.0000
40.3500 448.0000 1.0000
40.3600 431.0000 1.0000
40.3700 436.0000 1.0000
40.3800 433.0000 1.0000
40.3900 447.0000 1.0000
40.4000 433.0000 1.0000
40.4100 420.0000 1.0000
40.4200 457.0000 1.0000
40.4300 480.0000 1.0000
40.4400 428.0000 1.0000
40.4500 439.0000 1.0000
40.4600 444.0000 1.0000
40.4700 431.0000 1.0000
40.4800 426.0000 1.0000
40.4900 418.0000 1.0000
40.5000 399.0000 1.0000
40.5100 423.0000 1.0000
40.5200 468.0000 1.0000
40.5300 454.0000 1.0000
40.5400 449.0000 1.0000
40.5500 425.0000 1.0000
40.5600 449.0000 1.0000
40.5700 480.0000 1.0000
40.5800 440.0000 1.0000
40.5900 406.0000 1.0000
40.6000 431.0000 1.0000
40.6100 450.0000 1.0000
40.6200 483.0000 1.0000
40.6300 446.0000 1.0000
40.6400 430.0000 1.0000
40.6500 493.0000 1.0000
40.6600 473.0000 1.0000
40.6700 472.0000 1.0000
40.6800 448.0000 1.0000
40.6900 468.0000 1.0000
40.7000 504.0000 1.0000
40.7100 464.0000 1.0000
40.7200 476.0000 1.0000
40.7300 467.0000 1.0000
40.7400 461.0000 1.0000
40.7500 501.0000 1.0000
40.7600 463.0000 1.0000
40.7700 461.0000 1.0000
40.7800 504.0000 1.0000
40.7900 471.0000 1.0000
40.8000 482.0000 1.0000
40.8100 475.0000 1.0000
40.8200 505.0000 1.0000
40.8300 497.0000 1.0000
40.8400 489.0000 1.0000
40.8500 473.0000 1.0000
40.8600 471.0000 1.0000
40.8700 493.0000 1.0000
40.8800 453.0000 1.0000
40.8900 480.0000 1.0000
40.9000 495.0000 1.0000
40.9100 461.0000 1.0000
40.9200 491.0000 1.0000
40.9300 464.0000 1.0000
40.9400 425.0000 1.0000
40.9500 472.0000 1.0000
40.9600 453.0000 1.0000
40.9700 472.0000 1.0000
40.9800 443.0000 1.0000
40.9900 430.0000 1.0000
41.0000 453.0000 1.0000
41.0100 448.0000 1.0000
41.0200 451.0000 1.0000
41.0300 473.0000 1.0000
41.0400 481.0000 1.0000
41.0500 449.0000 1.0000
41.0600 431.0000 1.0000
41.0700 400.0000 1.0000
41.0800 449.0000 1.0000
41.0900 448.0000 1.0000
41.1000 441.0000 1.0000
41.1100 434.0000 1.0000
41.1200 425.0000 1.0000
41.1300 425.0000 1.0000
41.1400 416.0000 1.0000
41.1500 420.0000 1.0000
41.1600 431.0000 1.0000
41.1700 440.0000 1.0000
41.1800 421.0000 1.0000
41.1900 431.0000 1.0000
41.2000 453.0000 1.0000
41.2100 432.0000 1.0000
41.2200 442.0000 1.0000
41.2300 439.0000 1.0000
41.2400 428.0000 1.0000
41.2500 403.0000 1.0000
41.2600 417.0000 1.0000
41.2700 450.0000 1.0000
41.2800 442.0000 1.0000
41.2900 415.0000 1.0000
41.3000 452.0000 1.0000
41.3100 390.0000 1.0000
41.3200 423.0000 1.0000
41.3300 445.0000 1.0000
41.3400 416.0000 1.0000
41.3500 455.0000 1.0000
41.3600 442.0000 1.0000
41.3700 470.0000 1.0000
41.3800 444.0000 1.0000
41.3900 421.0000 1.0000
41.4000 431.0000 1.0000
41.4100 459.0000 1.0000
41.4200 438.0000 1.0000
41.4300 430.0000 1.0000
41.4400 414.0000 1.0000
41.4500 402.0000 1.0000
41.4600 422.0000 1.0000
41.4700 425.0000 1.0000
41.4800 456.0000 1.0000
41.4900 419.0000 1.0000
41.5000 412.0000 1.0000
41.5100 423.0000 1.0000
41.5200 450.0000 1.0000
41.5300 402.0000 1.0000
41.5400 411.0000 1.0000
41.5500 422.0000 1.0000
41.5600 403.0000 1.0000
41.5700 452.0000 1.0000
41.5800 456.0000 1.0000
41.5900 416.0000 1.0000
41.6000 428.0000 1.0000
41.6100 430.0000 1.0000
41.6200 426.0000 1.0000
41.6300 468.0000 1.0000
41.6400 433.0000 1.0000
41.6500 435.0000 1.0000
41.6600 408.0000 1.0000
41.6700 408.0000 1.0000
41.6800 439.0000 1.0000
41.6900 437.0000 1.0000
41.7000 445.0000 1.0000
41.7100 430.0000 1.0000
41.7200 419.0000 1.0000
41.7300 431.0000 1.0000
41.7400 413.0000 1.0000
41.7500 416.0000 1.0000
41.7600 430.0000 1.0000
41.7700 432.0000 1.0000
41.7800 428.0000 1.0000
41.7900 414.0000 1.0000
41.8000 414.0000 1.0000
41.8100 445.0000 1.0000
41.8200 406.0000 1.0000
41.8300 398.0000 1.0000
41.8400 397.0000 1.0000
41.8500 409.0000 1.0000
41.8600 436.0000 1.0000
41.8700 385.0000 1.0000
41.8800 394.0000 1.0000
41.8900 416.0000 1.0000
41.9000 440.0000 1.0000
41.9100 418.0000 1.0000
41.9200 412.0000 1.0000
41.9300 409.0000 1.0000
41.9400 403.0000 1.0000
41.9500 417.0000 1.0000
41.9600 417.0000 1.0000
41.9700 402.0000 1.0000
41.9800 486.0000 1.0000
41.9900 411.0000 1.0000
42.0000 441.0000 1.0000
42.0100 412.0000 1.0000
42.0200 428.0000 1.0000
42.0300 408.0000 1.0000
42.0400 465.0000 1.0000
42.0500 414.0000 1.0000
42.0600 398.0000 1.0000
42.0700 438.0000 1.0000
42.0800 407.0000 1.0000
42.0900 391.0000 1.0000
42.1000 439.0000 1.0000
42.1100 451.0000 1.0000
42.1200 417.0000 1.0000
42.1300 412.0000 1.0000
42.1400 422.0000 1.0000
42.1500 436.0000 1.0000
42.1600 459.0000 1.0000
42.1700 404.0000 1.0000
42.1800 434.0000 1.0000
42.1900 420.0000 1.0000
42.2000 436.0000 1.0000
42.2100 460.0000 1.0000
42.2200 457.0000 1.0000
42.2300 413.0000 1.0000
42.2400 439.0000 1.0000
42.2500 437.0000 1.0000
42.2600 432.0000 1.0000
42.2700 446.0000 1.0000
42.2800 452.0000 1.0000
42.2900 454.0000 1.0000
42.3000 452.0000 1.0000
42.3100 461.0000 1.0000
42.3200 439.0000 1.0000
42.3300 448.0000 1.0000
42.3400 442.0000 1.0000
42.3500 455.0000 1.0000
42.3600 441.0000 1.0000
42.3700 426.0000 1.0000
42.3800 465.0000 1.0000
42.3900 486.0000 1.0000
42.4000 454.0000 1.0000
42.4100 508.0000 1.0000
42.4200 464.0000 1.0000
42.4300 447.0000 1.0000
42.4400 472.0000 1.0000
42.4500 478.0000 1.0000
42.4600 448.0000 1.0000
42.4700 486.0000 1.0000
42.4800 468.0000 1.0000
42.4900 451.0000 1.0000
42.5000 437.0000 1.0000
42.5100 454.0000 1.0000
42.5200 471.0000 1.0000
42.5300 455.0000 1.0000
42.5400 430.0000 1.0000
42.5500 454.0000 1.0000
42.5600 426.0000 1.0000
42.5700 420.0000 1.0000
42.5800 423.0000 1.0000
42.5900 427.0000 1.0000
42.6000 417.0000 1.0000
42.6100 438.0000 1.0000
42.6200 411.0000 1.0000
42.6300 404.0000 1.0000
42.6400 412.0000 1.0000
42.6500 454.0000 1.0000
42.6600 425.0000 1.0000
42.6700 445.0000 1.0000
42.6800 408.0000 1.0000
42.6900 407.0000 1.0000
42.7000 393.0000 1.0000
42.7100 411.0000 1.0000
42.7200 386.0000 1.0000
42.7300 413.0000 1.0000
42.7400 411.0000 1.0000
42.7500 417.0000 1.0000
42.7600 440.0000 1.0000
42.7700 421.0000 1.0000
42.7800 420.0000 1.0000
42.7900 414.0000 1.0000
42.8000 422.0000 1.0000
42.8100 395.0000 1.0000
42.8200 408.0000 1.0000
42.8300 411.0000 1.0000
42.8400 391.0000 1.0000
42.8500 433.0000 1.0000
42.8600 418.0000 1.0000
42.8700 396.0000 1.0000
42.8800 417.0000 1.0000
42.8900 406.0000 1.0000
42.9000 403.0000 1.0000
42.9100 422.0000 1.0000
42.9200 407.0000 1.0000
42.9300 398.0000 1.0000
42.9400 392.0000 1.0000
42.9500 402.0000 1.0000
42.9600 415.0000 1.0000
42.9700 391.0000 1.0000
42.9800 413.0000 1.0000
42.9900 404.0000 1.0000
43.0000 398.0000 1.0000
43.0100 396.0000 1.0000
43.0200 426.0000 1.0000
43.0300 416.0000 1.0000
43.0400 393.0000 1.0000
43.0500 402.0000 1.0000
43.0600 390.0000 1.0000
43.0700 417.0000 1.0000
43.0800 437.0000 1.0000
43.0900 422.0000 1.0000
43.1000 461.0000 1.0000
43.1100 440.0000 1.0000
43.1200 412.0000 1.0000
43.1300 410.0000 1.0000
43.1400 408.0000 1.0000
43.1500 408.0000 1.0000
43.1600 428.0000 1.0000
43.1700 412.0000 1.0000
43.1800 418.0000 1.0000
43.1900 434.0000 1.0000
43.2000 433.0000 1.0000
43.2100 430.0000 1.0000
43.2200 449.0000 1.0000
43.2300 441.0000 1.0000
43.2400 402.0000 1.0000
43.2500 424.0000 1.0000
43.2600 407.0000 1.0000
43.2700 426.0000 1.0000
43.2800 417.0000 1.0000
43.2900 416.0000 1.0000
43.3000 404.0000 1.0000
43.3100 403.0000 1.0000
43.3200 426.0000 1.0000
43.3300 403.0000 1.0000
43.3400 380.0000 1.0000
43.3500 413.0000 1.0000
43.3600 429.0000 1.0000
43.3700 416.0000 1.0000
43.3800 421.0000 1.0000
43.3900 373.0000 1.0000
43.4000 445.0000 1.0000
43.4100 406.0000 1.0000
43.4200 414.0000 1.0000
43.4300 429.0000 1.0000
43.4400 446.0000 1.0000
43.4500 436.0000 1.0000
43.4600 388.0000 1.0000
43.4700 412.0000 1.0000
43.4800 426.0000 1.0000
43.4900 409.0000 1.0000
43.5000 408.0000 1.0000
43.5100 427.0000 1.0000
43.5200 412.0000 1.0000
43.5300 454.0000 1.0000
43.5400 389.0000 1.0000
43.5500 419.0000 1.0000
43.5600 396.0000 1.0000
43.5700 436.0000 1.0000
43.5800 397.0000 1.0000
43.5900 413.0000 1.0000
43.6000 429.0000 1.0000
43.6100 433.0000 1.0000
43.6200 442.0000 1.0000
43.6300 393.0000 1.0000
43.6400 413.0000 1.0000
43.6500 397.0000 1.0000
43.6600 411.0000 1.0000
43.6700 386.0000 1.0000
43.6800 415.0000 1.0000
43.6900 424.0000 1.0000
43.7000 413.0000 1.0000
43.7100 407.0000 1.0000
43.7200 412.0000 1.0000
43.7300 395.0000 1.0000
43.7400 418.0000 1.0000
43.7500 390.0000 1.0000
43.7600 370.0000 1.0000
43.7700 397.0000 1.0000
43.7800 401.0000 1.0000
43.7900 409.0000 1.0000
43.8000 393.0000 1.0000
43.8100 399.0000 1.0000
43.8200 355.0000 1.0000
43.8300 376.0000 1.0000
43.8400 376.0000 1.0000
43.8500 388.0000 1.0000
43.8600 378.0000 1.0000
43.8700 402.0000 1.0000
43.8800 414.0000 1.0000
43.8900 387.0000 1.0000
43.9000 433.0000 1.0000
43.9100 419.0000 1.0000
43.9200 386.0000 1.0000
43.9300 407.0000 1.0000
43.9400 427.0000 1.0000
43.9500 417.0000 1.0000
43.9600 401.0000 1.0000
43.9700 398.0000 1.0000
43.9800 379.0000 1.0000
43.9900 398.0000 1.0000
44.0000 422.0000 1.0000
44.0100 398.0000 1.0000
44.0200 391.0000 1.0000
44.0300 403.0000 1.0000
44.0400 385.0000 1.0000
44.0500 410.0000 1.0000
44.0600 425.0000 1.0000
44.0700 393.0000 1.0000
44.0800 396.0000 1.0000
44.0900 378.0000 1.0000
44.1000 406.0000 1.0000
44.1100 393.0000 1.0000
44.1200 426.0000 1.0000
44.1300 412.0000 1.0000
44.1400 412.0000 1.0000
44.1500 389.0000 1.0000
44.1600 366.0000 1.0000
44.1700 395.0000 1.0000
44.1800 373.0000 1.0000
44.1900 377.0000 1.0000
44.2000 442.0000 1.0000
44.2100 385.0000 1.0000
44.2200 405.0000 1.0000
44.2300 378.0000 1.0000
44.2400 404.0000 1.0000
44.2500 399.0000 1.0000
44.2600 418.0000 1.0000
44.2700 404.0000 1.0000
44.2800 404.0000 1.0000
44.2900 412.0000 1.0000
44.3000 404.0000 1.0000
44.3100 398.0000 1.0000
44.3200 384.0000 1.0000
44.3300 390.0000 1.0000
44.3400 402.0000 1.0000
44.3500 367.0000 1.0000
44.3600 402.0000 1.0000
44.3700 418.0000 1.0000
44.3800 403.0000 1.0000
44.3900 393.0000 1.0000
44.4000 387.0000 1.0000
44.4100 415.0000 1.0000
44.4200 355.0000 1.0000
44.4300 389.0000 1.0000
44.4400 399.0000 1.0000
44.4500 379.0000 1.0000
44.4600 435.0000 1.0000
44.4700 421.0000 1.0000
44.4800 378.0000 1.0000
44.4900 395.0000 1.0000
44.5000 407.0000 1.0000
44.5100 368.0000 1.0000
44.5200 398.0000 1.0000
44.5300 394.0000 1.0000
44.5400 411.0000 1.0000
44.5500 385.0000 1.0000
44.5600 393.0000 1.0000
44.5700 419.0000 1.0000
44.5800 395.0000 1.0000
44.5900 402.0000 1.0000
44.6000 374.0000 1.0000
44.6100 396.0000 1.0000
44.6200 365.0000 1.0000
44.6300 383.0000 1.0000
44.6400 385.0000 1.0000
44.6500 394.0000 1.0000
44.6600 382.0000 1.0000
44.6700 385.0000 1.0000
44.6800 408.0000 1.0000
44.6900 411.0000 1.0000
44.7000 399.0000 1.0000
44.7100 384.0000 1.0000
44.7200 426.0000 1.0000
44.7300 397.0000 1.0000
44.7400 393.0000 1.0000
44.7500 379.0000 1.0000
44.7600 394.0000 1.0000
44.7700 445.0000 1.0000
44.7800 391.0000 1.0000
44.7900 387.0000 1.0000
44.8000 382.0000 1.0000
44.8100 408.0000 1.0000
44.8200 431.0000 1.0000
44.8300 376.0000 1.0000
44.8400 389.0000 1.0000
44.8500 367.0000 1.0000
44.8600 408.0000 1.0000
44.8700 367.0000 1.0000
44.8800 388.0000 1.0000
44.8900 415.0000 1.0000
44.9000 395.0000 1.0000
44.9100 385.0000 1.0000
44.9200 379.0000 1.0000
44.9300 388.0000 1.0000
44.9400 392.0000 1.0000
44.9500 402.0000 1.0000
44.9600 390.0000 1.0000
44.9700 409.0000 1.0000
44.9800 380.0000 1.0000
44.9900 396.0000 1.0000
45.0000 375.0000 1.0000
45.0100 383.0000 1.0000
45.0200 416.0000 1.0000
45.0300 414.0000 1.0000
45.0400 419.0000 1.0000
45.0500 389.0000 1.0000
45.0600 403.0000 1.0000
45.0700 409.0000 1.0000
45.0800 392.0000 1.0000
45.0900 388.0000 1.0000
45.1000 400.0000 1.0000
45.1100 388.0000 1.0000
45.1200 391.0000 1.0000
45.1300 401.0000 1.0000
45.1400 412.0000 1.0000
45.1500 411.0000 1.0000
45.1600 388.0000 1.0000
45.1700 391.0000 1.0000
45.1800 417.0000 1.0000
45.1900 376.0000 1.0000
45.2000 389.0000 1.0000
45.2100 362.0000 1.0000
45.2200 425.0000 1.0000
45.2300 400.0000 1.0000
45.2400 417.0000 1.0000
45.2500 405.0000 1.0000
45.2600 379.0000 1.0000
45.2700 411.0000 1.0000
45.2800 391.0000 1.0000
45.2900 402.0000 1.0000
45.3000 408.0000 1.0000
45.3100 378.0000 1.0000
45.3200 379.0000 1.0000
45.3300 353.0000 1.0000
45.3400 376.0000 1.0000
45.3500 393.0000 1.0000
45.3600 373.0000 1.0000
45.3700 403.0000 1.0000
45.3800 396.0000 1.0000
45.3900 368.0000 1.0000
45.4000 379.0000 1.0000
45.4100 379.0000 1.0000
45.4200 392.0000 1.0000
45.4300 413.0000 1.0000
45.4400 398.0000 1.0000
45.4500 388.0000 1.0000
45.4600 400.0000 1.0000
45.4700 368.0000 1.0000
45.4800 387.0000 1.0000
45.4900 406.0000 1.0000
45.5000 400.0000 1.0000
45.5100 371.0000 1.0000
45.5200 368.0000 1.0000
45.5300 381.0000 1.0000
45.5400 352.0000 1.0000
45.5500 387.0000 1.0000
45.5600 377.0000 1.0000
45.5700 391.0000 1.0000
45.5800 395.0000 1.0000
45.5900 370.0000 1.0000
45.6000 409.0000 1.0000
45.6100 365.0000 1.0000
45.6200 347.0000 1.0000
45.6300 371.0000 1.0000
45.6400 392.0000 1.0000
45.6500 361.0000 1.0000
45.6600 372.0000 1.0000
45.6700 366.0000 1.0000
45.6800 408.0000 1.0000
45.6900 396.0000 1.0000
45.7000 401.0000 1.0000
45.7100 372.0000 1.0000
45.7200 362.0000 1.0000
45.7300 364.0000 1.0000
45.7400 382.0000 1.0000
45.7500 352.0000 1.0000
45.7600 378.0000 1.0000
45.7700 367.0000 1.0000
45.7800 382.0000 1.0000
45.7900 389.0000 1.0000
45.8000 384.0000 1.0000
45.8100 388.0000 1.0000
45.8200 404.0000 1.0000
45.8300 386.0000 1.0000
45.8400 371.0000 1.0000
45.8500 360.0000 1.0000
45.8600 388.0000 1.0000
45.8700 397.0000 1.0000
45.8800 368.0000 1.0000
45.8900 360.0000 1.0000
45.9000 362.0000 1.0000
45.9100 381.0000 1.0000
45.9200 403.0000 1.0000
45.9300 406.0000 1.0000
45.9400 389.0000 1.0000
45.9500 403.0000 1.0000
45.9600 390.0000 1.0000
45.9700 347.0000 1.0000
45.9800 347.0000 1.0000
45.9900 385.0000 1.0000
46.0000 365.0000 1.0000
46.0100 356.0000 1.0000
46.0200 369.0000 1.0000
46.0300 389.0000 1.0000
46.0400 362.0000 1.0000
46.0500 378.0000 1.0000
46.0600 376.0000 1.0000
46.0700 382.0000 1.0000
46.0800 390.0000 1.0000
46.0900 407.0000 1.0000
46.1000 395.0000 1.0000
46.1100 380.0000 1.0000
46.1200 395.0000 1.0000
46.1300 399.0000 1.0000
46.1400 392.0000 1.0000
46.1500 395.0000 1.0000
46.1600 407.0000 1.0000
46.1700 400.0000 1.0000
46.1800 405.0000 1.0000
46.1900 406.0000 1.0000
46.2000 383.0000 1.0000
46.2100 403.0000 1.0000
46.2200 368.0000 1.0000
46.2300 411.0000 1.0000
46.2400 379.0000 1.0000
46.2500 391.0000 1.0000
46.2600 408.0000 1.0000
46.2700 373.0000 1.0000
46.2800 372.0000 1.0000
46.2900 399.0000 1.0000
46.3000 373.0000 1.0000
46.3100 398.0000 1.0000
46.3200 392.0000 1.0000
46.3300 389.0000 1.0000
46.3400 384.0000 1.0000
46.3500 409.0000 1.0000
46.3600 388.0000 1.0000
46.3700 410.0000 1.0000
46.3800 397.0000 1.0000
46.3900 399.0000 1.0000
46.4000 374.0000 1.0000
46.4100 370.0000 1.0000
46.4200 400.0000 1.0000
46.4300 389.0000 1.0000
46.4400 377.0000 1.0000
46.4500 373.0000 1.0000
46.4600 386.0000 1.0000
46.4700 365.0000 1.0000
46.4800 359.0000 1.0000
46.4900 384.0000 1.0000
46.5000 384.0000 1.0000
46.5100 376.0000 1.0000
46.5200 345.0000 1.0000
46.5300 349.0000 1.0000
46.5400 395.0000 1.0000
46.5500 383.0000 1.0000
46.5600 368.0000 1.0000
46.5700 396.0000 1.0000
46.5800 371.0000 1.0000
46.5900 400.0000 1.0000
46.6000 378.0000 1.0000
46.6100 401.0000 1.0000
46.6200 379.0000 1.0000
46.6300 352.0000 1.0000
46.6400 336.0000 1.0000
46.6500 375.0000 1.0000
46.6600 389.0000 1.0000
46.6700 393.0000 1.0000
46.6800 397.0000 1.0000
46.6900 379.0000 1.0000
46.7000 388.0000 1.0000
46.7100 391.0000 1.0000
46.7200 368.0000 1.0000
46.7300 361.0000 1.0000
46.7400 380.0000 1.0000
46.7500 365.0000 1.0000
46.7600 341.0000 1.0000
46.7700 360.0000 1.0000
46.7800 374.0000 1.0000
46.7900 369.0000 1.0000
46.8000 380.0000 1.0000
46.8100 377.0000 1.0000
46.8200 358.0000 1.0000
46.8300 359.0000 1.0000
46.8400 345.0000 1.0000
46.8500 393.0000 1.0000
46.8600 404.0000 1.0000
46.8700 362.0000 1.0000
46.8800 355.0000 1.0000
46.8900 356.0000 1.0000
46.9000 382.0000 1.0000
46.9100 335.0000 1.0000
46.9200 369.0000 1.0000
46.9300 357.0000 1.0000
46.9400 400.0000 1.0000
46.9500 390.0000 1.0000
46.9600 373.0000 1.0000
46.9700 367.0000 1.0000
46.9800 352.0000 1.0000
46.9900 367.0000 1.0000
47.0000 374.0000 1.0000
47.0100 351.0000 1.0000
47.0200 354.0000 1.0000
47.0300 358.0000 1.0000
47.0400 359.0000 1.0000
47.0500 340.0000 1.0000
47.0600 360.0000 1.0000
47.0700 375.0000 1.0000
47.0800 364.0000 1.0000
47.0900 384.0000 1.0000
47.1000 392.0000 1.0000
47.1100 420.0000 1.0000
47.1200 397.0000 1.0000
47.1300 367.0000 1.0000
47.1400 387.0000 1.0000
47.1500 356.0000 1.0000
47.1600 374.0000 1.0000
47.1700 362.0000 1.0000
47.1800 367.0000 1.0000
47.1900 395.0000 1.0000
47.2000 388.0000 1.0000
47.2100 388.0000 1.0000
47.2200 349.0000 1.0000
47.2300 376.0000 1.0000
47.2400 379.0000 1.0000
47.2500 350.0000 1.0000
47.2600 360.0000 1.0000
47.2700 354.0000 1.0000
47.2800 353.0000 1.0000
47.2900 352.0000 1.0000
47.3000 384.0000 1.0000
47.3100 369.0000 1.0000
47.3200 355.0000 1.0000
47.3300 345.0000 1.0000
47.3400 381.0000 1.0000
47.3500 379.0000 1.0000
47.3600 359.0000 1.0000
47.3700 335.0000 1.0000
47.3800 359.0000 1.0000
47.3900 339.0000 1.0000
47.4000 340.0000 1.0000
47.4100 361.0000 1.0000
47.4200 347.0000 1.0000
47.4300 382.0000 1.0000
47.4400 386.0000 1.0000
47.4500 376.0000 1.0000
47.4600 381.0000 1.0000
47.4700 369.0000 1.0000
47.4800 358.0000 1.0000
47.4900 356.0000 1.0000
47.5000 393.0000 1.0000
47.5100 376.0000 1.0000
47.5200 381.0000 1.0000
47.5300 335.0000 1.0000
47.5400 355.0000 1.0000
47.5500 370.0000 1.0000
47.5600 367.0000 1.0000
47.5700 380.0000 1.0000
47.5800 365.0000 1.0000
47.5900 377.0000 1.0000
47.6000 393.0000 1.0000
47.6100 335.0000 1.0000
47.6200 344.0000 1.0000
47.6300 367.0000 1.0000
47.6400 363.0000 1.0000
47.6500 361.0000 1.0000
47.6600 369.0000 1.0000
47.6700 371.0000 1.0000
47.6800 357.0000 1.0000
47.6900 379.0000 1.0000
47.7000 350.0000 1.0000
47.7100 349.0000 1.0000
47.7200 358.0000 1.0000
47.7300 379.0000 1.0000
47.7400 354.0000 1.0000
47.7500 339.0000 1.0000
47.7600 379.0000 1.0000
47.7700 336.0000 1.0000
47.7800 360.0000 1.0000
47.7900 369.0000 1.0000
47.8000 374.0000 1.0000
47.8100 364.0000 1.0000
47.8200 358.0000 1.0000
47.8300 349.0000 1.0000
47.8400 379.0000 1.0000
47.8500 361.0000 1.0000
47.8600 362.0000 1.0000
47.8700 372.0000 1.0000
47.8800 342.0000 1.0000
47.8900 363.0000 1.0000
47.9000 361.0000 1.0000
47.9100 372.0000 1.0000
47.9200 350.0000 1.0000
47.9300 364.0000 1.0000
47.9400 332.0000 1.0000
47.9500 331.0000 1.0000
47.9600 372.0000 1.0000
47.9700 370.0000 1.0000
47.9800 364.0000 1.0000
47.9900 385.0000 1.0000
48.0000 362.0000 1.0000
48.0100 388.0000 1.0000
48.0200 374.0000 1.0000
48.0300 369.0000 1.0000
48.0400 385.0000 1.0000
48.0500 371.0000 1.0000
48.0600 369.0000 1.0000
48.0700 372.0000 1.0000
48.0800 339.0000 1.0000
48.0900 354.0000 1.0000
48.1000 377.0000 1.0000
48.1100 357.0000 1.0000
48.1200 356.0000 1.0000
48.1300 373.0000 1.0000
48.1400 370.0000 1.0000
48.1500 361.0000 1.0000
48.1600 353.0000 1.0000
48.1700 321.0000 1.0000
48.1800 331.0000 1.0000
48.1900 360.0000 1.0000
48.2000 369.0000 1.0000
48.2100 360.0000 1.0000
48.2200 367.0000 1.0000
48.2300 346.0000 1.0000
48.2400 343.0000 1.0000
48.2500 364.0000 1.0000
48.2600 359.0000 1.0000
48.2700 340.0000 1.0000
48.2800 358.0000 1.0000
48.2900 342.0000 1.0000
48.3000 361.0000 1.0000
48.3100 369.0000 1.0000
48.3200 372.0000 1.0000
48.3300 386.0000 1.0000
48.3400 361.0000 1.0000
48.3500 354.0000 1.0000
48.3600 330.0000 1.0000
48.3700 348.0000 1.0000
48.3800 353.0000 1.0000
48.3900 383.0000 1.0000
48.4000 389.0000 1.0000
48.4100 351.0000 1.0000
48.4200 342.0000 1.0000
48.4300 361.0000 1.0000
48.4400 320.0000 1.0000
48.4500 367.0000 1.0000
48.4600 381.0000 1.0000
48.4700 358.0000 1.0000
48.4800 374.0000 1.0000
48.4900 360.0000 1.0000
48.5000 346.0000 1.0000
48.5100 364.0000 1.0000
48.5200 363.0000 1.0000
48.5300 362.0000 1.0000
48.5400 363.0000 1.0000
48.5500 357.0000 1.0000
48.5600 357.0000 1.0000
48.5700 381.0000 1.0000
48.5800 380.0000 1.0000
48.5900 359.0000 1.0000
48.6000 360.0000 1.0000
48.6100 360.0000 1.0000
48.6200 324.0000 1.0000
48.6300 374.0000 1.0000
48.6400 367.0000 1.0000
48.6500 365.0000 1.0000
48.6600 373.0000 1.0000
48.6700 350.0000 1.0000
48.6800 337.0000 1.0000
48.6900 340.0000 1.0000
48.7000 345.0000 1.0000
48.7100 372.0000 1.0000
48.7200 368.0000 1.0000
48.7300 347.0000 1.0000
48.7400 380.0000 1.0000
48.7500 357.0000 1.0000
48.7600 393.0000 1.0000
48.7700 372.0000 1.0000
48.7800 380.0000 1.0000
48.7900 354.0000 1.0000
48.8000 326.0000 1.0000
48.8100 324.0000 1.0000
48.8200 361.0000 1.0000
48.8300 349.0000 1.0000
48.8400 379.0000 1.0000
48.8500 360.0000 1.0000
48.8600 350.0000 1.0000
48.8700 340.0000 1.0000
48.8800 350.0000 1.0000
48.8900 368.0000 1.0000
48.9000 380.0000 1.0000
48.9100 362.0000 1.0000
48.9200 353.0000 1.0000
48.9300 355.0000 1.0000
48.9400 344.0000 1.0000
48.9500 385.0000 1.0000
48.9600 396.0000 1.0000
48.9700 382.0000 1.0000
48.9800 383.0000 1.0000
48.9900 362.0000 1.0000
49.0000 342.0000 1.0000
49.0100 386.0000 1.0000
49.0200 367.0000 1.0000
49.0300 382.0000 1.0000
49.0400 374.0000 1.0000
49.0500 367.0000 1.0000
49.0600 372.0000 1.0000
49.0700 366.0000 1.0000
49.0800 349.0000 1.0000
49.0900 347.0000 1.0000
49.1000 347.0000 1.0000
49.1100 375.0000 1.0000
49.1200 378.0000 1.0000
49.1300 359.0000 1.0000
49.1400 372.0000 1.0000
49.1500 372.0000 1.0000
49.1600 343.0000 1.0000
49.1700 381.0000 1.0000
49.1800 400.0000 1.0000
49.1900 366.0000 1.0000
49.2000 378.0000 1.0000
49.2100 380.0000 1.0000
49.2200 369.0000 1.0000
49.2300 349.0000 1.0000
49.2400 369.0000 1.0000
49.2500 385.0000 1.0000
49.2600 365.0000 1.0000
49.2700 383.0000 1.0000
49.2800 384.0000 1.0000
49.2900 361.0000 1.0000
49.3000 388.0000 1.0000
49.3100 407.0000 1.0000
49.3200 397.0000 1.0000
49.3300 391.0000 1.0000
49.3400 391.0000 1.0000
49.3500 429.0000 1.0000
49.3600 437.0000 1.0000
49.3700 422.0000 1.0000
49.3800 419.0000 1.0000
49.3900 421.0000 1.0000
49.4000 442.0000 1.0000
49.4100 454.0000 1.0000
49.4200 440.0000 1.0000
49.4300 398.0000 1.0000
49.4400 382.0000 1.0000
49.4500 396.0000 1.0000
49.4600 442.0000 1.0000
49.4700 422.0000 1.0000
49.4800 410.0000 1.0000
49.4900 400.0000 1.0000
49.5000 418.0000 1.0000
49.5100 399.0000 1.0000
49.5200 395.0000 1.0000
49.5300 424.0000 1.0000
49.5400 423.0000 1.0000
49.5500 423.0000 1.0000
49.5600 421.0000 1.0000
49.5700 395.0000 1.0000
49.5800 381.0000 1.0000
49.5900 388.0000 1.0000
49.6000 398.0000 1.0000
49.6100 365.0000 1.0000
49.6200 405.0000 1.0000
49.6300 383.0000 1.0000
49.6400 404.0000 1.0000
49.6500 381.0000 1.0000
49.6600 411.0000 1.0000
49.6700 358.0000 1.0000
49.6800 404.0000 1.0000
49.6900 363.0000 1.0000
49.7000 404.0000 1.0000
49.7100 381.0000 1.0000
49.7200 379.0000 1.0000
49.7300 351.0000 1.0000
49.7400 361.0000 1.0000
49.7500 361.0000 1.0000
49.7600 396.0000 1.0000
49.7700 372.0000 1.0000
49.7800 381.0000 1.0000
49.7900 367.0000 1.0000
49.8000 381.0000 1.0000
49.8100 385.0000 1.0000
49.8200 381.0000 1.0000
49.8300 405.0000 1.0000
49.8400 361.0000 1.0000
49.8500 369.0000 1.0000
49.8600 389.0000 1.0000
49.8700 375.0000 1.0000
49.8800 361.0000 1.0000
49.8900 374.0000 1.0000
49.9000 383.0000 1.0000
49.9100 376.0000 1.0000
49.9200 357.0000 1.0000
49.9300 347.0000 1.0000
49.9400 390.0000 1.0000
49.9500 366.0000 1.0000
49.9600 320.0000 1.0000
49.9700 361.0000 1.0000
49.9800 378.0000 1.0000
49.9900 381.0000 1.0000
50.0000 383.0000 1.0000
50.0100 379.0000 1.0000
50.0200 339.0000 1.0000
50.0300 352.0000 1.0000
50.0400 353.0000 1.0000
50.0500 395.0000 1.0000
50.0600 357.0000 1.0000
50.0700 353.0000 1.0000
50.0800 339.0000 1.0000
50.0900 364.0000 1.0000
50.1000 342.0000 1.0000
50.1100 345.0000 1.0000
50.1200 337.0000 1.0000
50.1300 345.0000 1.0000
50.1400 356.0000 1.0000
50.1500 365.0000 1.0000
50.1600 348.0000 1.0000
50.1700 349.0000 1.0000
50.1800 360.0000 1.0000
50.1900 357.0000 1.0000
50.2000 338.0000 1.0000
50.2100 354.0000 1.0000
50.2200 383.0000 1.0000
50.2300 376.0000 1.0000
50.2400 353.0000 1.0000
50.2500 362.0000 1.0000
50.2600 389.0000 1.0000
50.2700 379.0000 1.0000
50.2800 394.0000 1.0000
50.2900 384.0000 1.0000
50.3000 352.0000 1.0000
50.3100 336.0000 1.0000
50.3200 376.0000 1.0000
50.3300 336.0000 1.0000
50.3400 351.0000 1.0000
50.3500 351.0000 1.0000
50.3600 360.0000 1.0000
50.3700 372.0000 1.0000
50.3800 367.0000 1.0000
50.3900 361.0000 1.0000
50.4000 359.0000 1.0000
50.4100 357.0000 1.0000
50.4200 368.0000 1.0000
50.4300 380.0000 1.0000
50.4400 373.0000 1.0000
50.4500 369.0000 1.0000
50.4600 359.0000 1.0000
50.4700 357.0000 1.0000
50.4800 364.0000 1.0000
50.4900 378.0000 1.0000
50.5000 333.0000 1.0000
50.5100 379.0000 1.0000
50.5200 359.0000 1.0000
50.5300 356.0000 1.0000
50.5400 353.0000 1.0000
50.5500 334.0000 1.0000
50.5600 368.0000 1.0000
50.5700 355.0000 1.0000
50.5800 375.0000 1.0000
50.5900 356.0000 1.0000
50.6000 363.0000 1.0000
50.6100 363.0000 1.0000
50.6200 338.0000 1.0000
50.6300 349.0000 1.0000
50.6400 391.0000 1.0000
50.6500 343.0000 1.0000
50.6600 363.0000 1.0000
50.6700 351.0000 1.0000
50.6800 386.0000 1.0000
50.6900 382.0000 1.0000
50.7000 357.0000 1.0000
50.7100 388.0000 1.0000
50.7200 429.0000 1.0000
50.7300 367.0000 1.0000
50.7400 396.0000 1.0000
50.7500 365.0000 1.0000
50.7600 368.0000 1.0000
50.7700 372.0000 1.0000
50.7800 367.0000 1.0000
50.7900 389.0000 1.0000
50.8000 367.0000 1.0000
50.8100 382.0000 1.0000
50.8200 394.0000 1.0000
50.8300 371.0000 1.0000
50.8400 422.0000 1.0000
50.8500 389.0000 1.0000
50.8600 387.0000 1.0000
50.8700 387.0000 1.0000
50.8800 381.0000 1.0000
50.8900 381.0000 1.0000
50.9000 384.0000 1.0000
50.9100 376.0000 1.0000
50.9200 371.0000 1.0000
50.9300 381.0000 1.0000
50.9400 371.0000 1.0000
50.9500 394.0000 1.0000
50.9600 395.0000 1.0000
50.9700 385.0000 1.0000
50.9800 385.0000 1.0000
50.9900 395.0000 1.0000
51.0000 391.0000 1.0000
51.0100 396.0000 1.0000
51.0200 391.0000 1.0000
51.0300 406.0000 1.0000
51.0400 405.0000 1.0000
51.0500 421.0000 1.0000
51.0600 433.0000 1.0000
51.0700 434.0000 1.0000
51.0800 437.0000 1.0000
51.0900 425.0000 1.0000
51.1000 430.0000 1.0000
51.1100 434.0000 1.0000
51.1200 450.0000 1.0000
51.1300 450.0000 1.0000
51.1400 485.0000 1.0000
51.1500 479.0000 1.0000
51.1600 474.0000 1.0000
51.1700 495.0000 1.0000
51.1800 527.0000 1.0000
51.1900 525.0000 1.0000
51.2000 557.0000 1.0000
51.2100 580.0000 1.0000
51.2200 568.0000 1.0000
51.2300 580.0000 1.0000
51.2400 578.0000 1.0000
51.2500 630.0000 1.0000
51.2600 650.0000 1.0000
51.2700 676.0000 1.0000
51.2800 757.0000 1.0000
51.2900 811.0000 1.0000
51.3000 810.0000 1.0000
51.3100 822.0000 1.0000
51.3200 873.0000 1.0000
51.3300 912.0000 1.0000
51.3400 1021.0000 1.0000
51.3500 1115.0000 1.0000
51.3600 1183.0000 1.0000
51.3700 1334.0000 1.0000
51.3800 1363.0000 1.0000
51.3900 1398.0000 1.0000
51.4000 1494.0000 1.0000
51.4100 1647.0000 1.0000
51.4200 1715.0000 1.0000
51.4300 1858.0000 1.0000
51.4400 2083.0000 1.0000
51.4500 2116.0000 1.0000
51.4600 2068.0000 1.0000
51.4700 2171.0000 1.0000
51.4800 2187.0000 1.0000
51.4900 2311.0000 1.0000
51.5000 2242.0000 1.0000
51.5100 2226.0000 1.0000
51.5200 2109.0000 1.0000
51.5300 2107.0000 1.0000
51.5400 1999.0000 1.0000
51.5500 1926.0000 1.0000
51.5600 1846.0000 1.0000
51.5700 1803.0000 1.0000
51.5800 1703.0000 1.0000
51.5900 1707.0000 1.0000
51.6000 1642.0000 1.0000
51.6100 1665.0000 1.0000
51.6200 1621.0000 1.0000
51.6300 1495.0000 1.0000
51.6400 1490.0000 1.0000
51.6500 1435.0000 1.0000
51.6600 1325.0000 1.0000
51.6700 1215.0000 1.0000
51.6800 1115.0000 1.0000
51.6900 1005.0000 1.0000
51.7000 956.0000 1.0000
51.7100 917.0000 1.0000
51.7200 856.0000 1.0000
51.7300 825.0000 1.0000
51.7400 772.0000 1.0000
51.7500 731.0000 1.0000
51.7600 683.0000 1.0000
51.7700 671.0000 1.0000
51.7800 618.0000 1.0000
51.7900 676.0000 1.0000
51.8000 603.0000 1.0000
51.8100 564.0000 1.0000
51.8200 576.0000 1.0000
51.8300 537.0000 1.0000
51.8400 540.0000 1.0000
51.8500 484.0000 1.0000
51.8600 477.0000 1.0000
51.8700 479.0000 1.0000
51.8800 450.0000 1.0000
51.8900 468.0000 1.0000
51.9000 483.0000 1.0000
51.9100 475.0000 1.0000
51.9200 468.0000 1.0000
51.9300 452.0000 1.0000
51.9400 437.0000 1.0000
51.9500 452.0000 1.0000
51.9600 457.0000 1.0000
51.9700 424.0000 1.0000
51.9800 423.0000 1.0000
51.9900 436.0000 1.0000
52.0000 427.0000 1.0000
52.0100 407.0000 1.0000
52.0200 430.0000 1.0000
52.0300 421.0000 1.0000
52.0400 414.0000 1.0000
52.0500 399.0000 1.0000
52.0600 387.0000 1.0000
52.0700 386.0000 1.0000
52.0800 387.0000 1.0000
52.0900 404.0000 1.0000
52.1000 411.0000 1.0000
52.1100 416.0000 1.0000
52.1200 374.0000 1.0000
52.1300 388.0000 1.0000
52.1400 388.0000 1.0000
52.1500 406.0000 1.0000
52.1600 390.0000 1.0000
52.1700 379.0000 1.0000
52.1800 363.0000 1.0000
52.1900 337.0000 1.0000
52.2000 353.0000 1.0000
52.2100 355.0000 1.0000
52.2200 377.0000 1.0000
52.2300 377.0000 1.0000
52.2400 378.0000 1.0000
52.2500 386.0000 1.0000
52.2600 382.0000 1.0000
52.2700 369.0000 1.0000
52.2800 380.0000 1.0000
52.2900 407.0000 1.0000
52.3000 357.0000 1.0000
52.3100 385.0000 1.0000
52.3200 409.0000 1.0000
52.3300 373.0000 1.0000
52.3400 358.0000 1.0000
52.3500 360.0000 1.0000
52.3600 388.0000 1.0000
52.3700 352.0000 1.0000
52.3800 380.0000 1.0000
52.3900 373.0000 1.0000
52.4000 372.0000 1.0000
52.4100 379.0000 1.0000
52.4200 336.0000 1.0000
52.4300 371.0000 1.0000
52.4400 368.0000 1.0000
52.4500 357.0000 1.0000
52.4600 352.0000 1.0000
52.4700 345.0000 1.0000
52.4800 326.0000 1.0000
52.4900 344.0000 1.0000
52.5000 370.0000 1.0000
52.5100 339.0000 1.0000
52.5200 353.0000 1.0000
52.5300 374.0000 1.0000
52.5400 379.0000 1.0000
52.5500 347.0000 1.0000
52.5600 339.0000 1.0000
52.5700 362.0000 1.0000
52.5800 381.0000 1.0000
52.5900 360.0000 1.0000
52.6000 366.0000 1.0000
52.6100 381.0000 1.0000
52.6200 334.0000 1.0000
52.6300 345.0000 1.0000
52.6400 387.0000 1.0000
52.6500 338.0000 1.0000
52.6600 340.0000 1.0000
52.6700 349.0000 1.0000
52.6800 329.0000 1.0000
52.6900 344.0000 1.0000
52.7000 340.0000 1.0000
52.7100 343.0000 1.0000
52.7200 354.0000 1.0000
52.7300 357.0000 1.0000
52.7400 362.0000 1.0000
52.7500 354.0000 1.0000
52.7600 328.0000 1.0000
52.7700 334.0000 1.0000
52.7800 347.0000 1.0000
52.7900 353.0000 1.0000
52.8000 343.0000 1.0000
52.8100 344.0000 1.0000
52.8200 377.0000 1.0000
52.8300 366.0000 1.0000
52.8400 339.0000 1.0000
52.8500 362.0000 1.0000
52.8600 352.0000 1.0000
52.8700 380.0000 1.0000
52.8800 369.0000 1.0000
52.8900 386.0000 1.0000
52.9000 347.0000 1.0000
52.9100 344.0000 1.0000
52.9200 336.0000 1.0000
52.9300 355.0000 1.0000
52.9400 316.0000 1.0000
52.9500 377.0000 1.0000
52.9600 344.0000 1.0000
52.9700 331.0000 1.0000
52.9800 343.0000 1.0000
52.9900 346.0000 1.0000
53.0000 347.0000 1.0000
53.0100 337.0000 1.0000
53.0200 342.0000 1.0000
53.0300 329.0000 1.0000
53.0400 377.0000 1.0000
53.0500 339.0000 1.0000
53.0600 341.0000 1.0000
53.0700 350.0000 1.0000
53.0800 348.0000 1.0000
53.0900 369.0000 1.0000
53.1000 367.0000 1.0000
53.1100 360.0000 1.0000
53.1200 344.0000 1.0000
53.1300 354.0000 1.0000
53.1400 363.0000 1.0000
53.1500 328.0000 1.0000
53.1600 351.0000 1.0000
53.1700 349.0000 1.0000
53.1800 327.0000 1.0000
53.1900 344.0000 1.0000
53.2000 361.0000 1.0000
53.2100 374.0000 1.0000
53.2200 337.0000 1.0000
53.2300 358.0000 1.0000
53.2400 357.0000 1.0000
53.2500 332.0000 1.0000
53.2600 358.0000 1.0000
53.2700 351.0000 1.0000
53.2800 356.0000 1.0000
53.2900 354.0000 1.0000
53.3000 334.0000 1.0000
53.3100 384.0000 1.0000
53.3200 366.0000 1.0000
53.3300 370.0000 1.0000
53.3400 312.0000 1.0000
53.3500 341.0000 1.0000
53.3600 361.0000 1.0000
53.3700 321.0000 1.0000
53.3800 341.0000 1.0000
53.3900 319.0000 1.0000
53.4000 344.0000 1.0000
53.4100 324.0000 1.0000
53.4200 346.0000 1.0000
53.4300 354.0000 1.0000
53.4400 377.0000 1.0000
53.4500 354.0000 1.0000
53.4600 337.0000 1.0000
53.4700 361.0000 1.0000
53.4800 325.0000 1.0000
53.4900 353.0000 1.0000
53.5000 346.0000 1.0000
53.5100 307.0000 1.0000
53.5200 340.0000 1.0000
53.5300 351.0000 1.0000
53.5400 348.0000 1.0000
53.5500 325.0000 1.0000
53.5600 335.0000 1.0000
53.5700 348.0000 1.0000
53.5800 355.0000 1.0000
53.5900 368.0000 1.0000
53.6000 363.0000 1.0000
53.6100 339.0000 1.0000
53.6200 368.0000 1.0000
53.6300 358.0000 1.0000
53.6400 338.0000 1.0000
53.6500 330.0000 1.0000
53.6600 329.0000 1.0000
53.6700 350.0000 1.0000
53.6800 395.0000 1.0000
53.6900 354.0000 1.0000
53.7000 344.0000 1.0000
53.7100 338.0000 1.0000
53.7200 349.0000 1.0000
53.7300 327.0000 1.0000
53.7400 329.0000 1.0000
53.7500 353.0000 1.0000
53.7600 354.0000 1.0000
53.7700 358.0000 1.0000
53.7800 369.0000 1.0000
53.7900 338.0000 1.0000
53.8000 345.0000 1.0000
53.8100 372.0000 1.0000
53.8200 347.0000 1.0000
53.8300 369.0000 1.0000
53.8400 367.0000 1.0000
53.8500 355.0000 1.0000
53.8600 365.0000 1.0000
53.8700 366.0000 1.0000
53.8800 362.0000 1.0000
53.8900 390.0000 1.0000
53.9000 405.0000 1.0000
53.9100 386.0000 1.0000
53.9200 387.0000 1.0000
53.9300 397.0000 1.0000
53.9400 403.0000 1.0000
53.9500 391.0000 1.0000
53.9600 397.0000 1.0000
53.9700 394.0000 1.0000
53.9800 424.0000 1.0000
53.9900 423.0000 1.0000
54.0000 428.0000 1.0000
54.0100 408.0000 1.0000
54.0200 413.0000 1.0000
54.0300 408.0000 1.0000
54.0400 441.0000 1.0000
54.0500 435.0000 1.0000
54.0600 413.0000 1.0000
54.0700 420.0000 1.0000
54.0800 447.0000 1.0000
54.0900 431.0000 1.0000
54.1000 405.0000 1.0000
54.1100 392.0000 1.0000
54.1200 407.0000 1.0000
54.1300 421.0000 1.0000
54.1400 386.0000 1.0000
54.1500 389.0000 1.0000
54.1600 388.0000 1.0000
54.1700 401.0000 1.0000
54.1800 423.0000 1.0000
54.1900 370.0000 1.0000
54.2000 400.0000 1.0000
54.2100 418.0000 1.0000
54.2200 396.0000 1.0000
54.2300 399.0000 1.0000
54.2400 400.0000 1.0000
54.2500 372.0000 1.0000
54.2600 387.0000 1.0000
54.2700 399.0000 1.0000
54.2800 403.0000 1.0000
54.2900 397.0000 1.0000
54.3000 430.0000 1.0000
54.3100 426.0000 1.0000
54.3200 420.0000 1.0000
54.3300 407.0000 1.0000
54.3400 445.0000 1.0000
54.3500 421.0000 1.0000
54.3600 406.0000 1.0000
54.3700 472.0000 1.0000
54.3800 443.0000 1.0000
54.3900 431.0000 1.0000
54.4000 459.0000 1.0000
54.4100 453.0000 1.0000
54.4200 440.0000 1.0000
54.4300 481.0000 1.0000
54.4400 455.0000 1.0000
54.4500 505.0000 1.0000
54.4600 484.0000 1.0000
54.4700 508.0000 1.0000
54.4800 489.0000 1.0000
54.4900 538.0000 1.0000
54.5000 548.0000 1.0000
54.5100 536.0000 1.0000
54.5200 530.0000 1.0000
54.5300 513.0000 1.0000
54.5400 516.0000 1.0000
54.5500 535.0000 1.0000
54.5600 549.0000 1.0000
54.5700 499.0000 1.0000
54.5800 537.0000 1.0000
54.5900 489.0000 1.0000
54.6000 473.0000 1.0000
54.6100 497.0000 1.0000
54.6200 496.0000 1.0000
54.6300 502.0000 1.0000
54.6400 462.0000 1.0000
54.6500 471.0000 1.0000
54.6600 434.0000 1.0000
54.6700 451.0000 1.0000
54.6800 440.0000 1.0000
54.6900 438.0000 1.0000
54.7000 443.0000 1.0000
54.7100 425.0000 1.0000
54.7200 427.0000 1.0000
54.7300 444.0000 1.0000
54.7400 408.0000 1.0000
54.7500 421.0000 1.0000
54.7600 435.0000 1.0000
54.7700 408.0000 1.0000
54.7800 397.0000 1.0000
54.7900 378.0000 1.0000
54.8000 371.0000 1.0000
54.8100 379.0000 1.0000
54.8200 371.0000 1.0000
54.8300 398.0000 1.0000
54.8400 372.0000 1.0000
54.8500 369.0000 1.0000
54.8600 355.0000 1.0000
54.8700 374.0000 1.0000
54.8800 407.0000 1.0000
54.8900 397.0000 1.0000
54.9000 387.0000 1.0000
54.9100 355.0000 1.0000
54.9200 362.0000 1.0000
54.9300 365.0000 1.0000
54.9400 369.0000 1.0000
54.9500 356.0000 1.0000
54.9600 368.0000 1.0000
54.9700 350.0000 1.0000
54.9800 326.0000 1.0000
54.9900 353.0000 1.0000
55.0000 339.0000 1.0000
55.0100 321.0000 1.0000
55.0200 342.0000 1.0000
55.0300 352.0000 1.0000
55.0400 341.0000 1.0000
55.0500 317.0000 1.0000
55.0600 385.0000 1.0000
55.0700 360.0000 1.0000
55.0800 334.0000 1.0000
55.0900 349.0000 1.0000
55.1000 352.0000 1.0000
55.1100 344.0000 1.0000
55.1200 342.0000 1.0000
55.1300 345.0000 1.0000
55.1400 342.0000 1.0000
55.1500 366.0000 1.0000
55.1600 334.0000 1.0000
55.1700 347.0000 1.0000
55.1800 371.0000 1.0000
55.1900 328.0000 1.0000
55.2000 355.0000 1.0000
55.2100 313.0000 1.0000
55.2200 352.0000 1.0000
55.2300 344.0000 1.0000
55.2400 326.0000 1.0000
55.2500 339.0000 1.0000
55.2600 371.0000 1.0000
55.2700 337.0000 1.0000
55.2800 335.0000 1.0000
55.2900 372.0000 1.0000
55.3000 353.0000 1.0000
55.3100 334.0000 1.0000
55.3200 317.0000 1.0000
55.3300 320.0000 1.0000
55.3400 359.0000 1.0000
55.3500 302.0000 1.0000
55.3600 349.0000 1.0000
55.3700 329.0000 1.0000
55.3800 339.0000 1.0000
55.3900 360.0000 1.0000
55.4000 314.0000 1.0000
55.4100 337.0000 1.0000
55.4200 330.0000 1.0000
55.4300 325.0000 1.0000
55.4400 349.0000 1.0000
55.4500 328.0000 1.0000
55.4600 326.0000 1.0000
55.4700 308.0000 1.0000
55.4800 319.0000 1.0000
55.4900 322.0000 1.0000
55.5000 346.0000 1.0000
55.5100 337.0000 1.0000
55.5200 341.0000 1.0000
55.5300 341.0000 1.0000
55.5400 322.0000 1.0000
55.5500 302.0000 1.0000
55.5600 323.0000 1.0000
55.5700 347.0000 1.0000
55.5800 340.0000 1.0000
55.5900 348.0000 1.0000
55.6000 329.0000 1.0000
55.6100 346.0000 1.0000
55.6200 335.0000 1.0000
55.6300 324.0000 1.0000
55.6400 317.0000 1.0000
55.6500 310.0000 1.0000
55.6600 340.0000 1.0000
55.6700 296.0000 1.0000
55.6800 327.0000 1.0000
55.6900 351.0000 1.0000
55.7000 332.0000 1.0000
55.7100 363.0000 1.0000
55.7200 347.0000 1.0000
55.7300 331.0000 1.0000
55.7400 310.0000 1.0000
55.7500 338.0000 1.0000
55.7600 293.0000 1.0000
55.7700 348.0000 1.0000
55.7800 327.0000 1.0000
55.7900 319.0000 1.0000
55.8000 358.0000 1.0000
55.8100 309.0000 1.0000
55.8200 338.0000 1.0000
55.8300 362.0000 1.0000
55.8400 337.0000 1.0000
55.8500 353.0000 1.0000
55.8600 329.0000 1.0000
55.8700 333.0000 1.0000
55.8800 317.0000 1.0000
55.8900 354.0000 1.0000
55.9000 295.0000 1.0000
55.9100 304.0000 1.0000
55.9200 338.0000 1.0000
55.9300 352.0000 1.0000
55.9400 341.0000 1.0000
55.9500 315.0000 1.0000
55.9600 339.0000 1.0000
55.9700 354.0000 1.0000
55.9800 356.0000 1.0000
55.9900 360.0000 1.0000
56.0000 327.0000 1.0000
56.0100 361.0000 1.0000
56.0200 354.0000 1.0000
56.0300 321.0000 1.0000
56.0400 321.0000 1.0000
56.0500 347.0000 1.0000
56.0600 357.0000 1.0000
56.0700 332.0000 1.0000
56.0800 326.0000 1.0000
56.0900 340.0000 1.0000
56.1000 327.0000 1.0000
56.1100 337.0000 1.0000
56.1200 357.0000 1.0000
56.1300 365.0000 1.0000
56.1400 335.0000 1.0000
56.1500 319.0000 1.0000
56.1600 330.0000 1.0000
56.1700 306.0000 1.0000
56.1800 318.0000 1.0000
56.1900 344.0000 1.0000
56.2000 313.0000 1.0000
56.2100 334.0000 1.0000
56.2200 327.0000 1.0000
56.2300 326.0000 1.0000
56.2400 310.0000 1.0000
56.2500 331.0000 1.0000
56.2600 345.0000 1.0000
56.2700 330.0000 1.0000
56.2800 332.0000 1.0000
56.2900 353.0000 1.0000
56.3000 332.0000 1.0000
56.3100 316.0000 1.0000
56.3200 325.0000 1.0000
56.3300 317.0000 1.0000
56.3400 317.0000 1.0000
56.3500 340.0000 1.0000
56.3600 336.0000 1.0000
56.3700 343.0000 1.0000
56.3800 323.0000 1.0000
56.3900 332.0000 1.0000
56.4000 313.0000 1.0000
56.4100 335.0000 1.0000
56.4200 332.0000 1.0000
56.4300 325.0000 1.0000
56.4400 317.0000 1.0000
56.4500 308.0000 1.0000
56.4600 332.0000 1.0000
56.4700 319.0000 1.0000
56.4800 344.0000 1.0000
56.4900 303.0000 1.0000
56.5000 329.0000 1.0000
56.5100 320.0000 1.0000
56.5200 330.0000 1.0000
56.5300 328.0000 1.0000
56.5400 341.0000 1.0000
56.5500 339.0000 1.0000
56.5600 310.0000 1.0000
56.5700 323.0000 1.0000
56.5800 325.0000 1.0000
56.5900 340.0000 1.0000
56.6000 319.0000 1.0000
56.6100 331.0000 1.0000
56.6200 310.0000 1.0000
56.6300 322.0000 1.0000
56.6400 330.0000 1.0000
56.6500 327.0000 1.0000
56.6600 337.0000 1.0000
56.6700 322.0000 1.0000
56.6800 328.0000 1.0000
56.6900 331.0000 1.0000
56.7000 336.0000 1.0000
56.7100 334.0000 1.0000
56.7200 343.0000 1.0000
56.7300 334.0000 1.0000
56.7400 318.0000 1.0000
56.7500 320.0000 1.0000
56.7600 348.0000 1.0000
56.7700 351.0000 1.0000
56.7800 361.0000 1.0000
56.7900 332.0000 1.0000
56.8000 354.0000 1.0000
56.8100 338.0000 1.0000
56.8200 325.0000 1.0000
56.8300 355.0000 1.0000
56.8400 313.0000 1.0000
56.8500 347.0000 1.0000
56.8600 356.0000 1.0000
56.8700 319.0000 1.0000
56.8800 318.0000 1.0000
56.8900 313.0000 1.0000
56.9000 317.0000 1.0000
56.9100 349.0000 1.0000
56.9200 348.0000 1.0000
56.9300 334.0000 1.0000
56.9400 331.0000 1.0000
56.9500 320.0000 1.0000
56.9600 341.0000 1.0000
56.9700 324.0000 1.0000
56.9800 334.0000 1.0000
56.9900 318.0000 1.0000
57.0000 303.0000 1.0000
57.0100 319.0000 1.0000
57.0200 336.0000 1.0000
57.0300 313.0000 1.0000
57.0400 329.0000 1.0000
57.0500 341.0000 1.0000
57.0600 321.0000 1.0000
57.0700 337.0000 1.0000
57.0800 339.0000 1.0000
57.0900 318.0000 1.0000
57.1000 317.0000 1.0000
57.1100 320.0000 1.0000
57.1200 315.0000 1.0000
57.1300 325.0000 1.0000
57.1400 333.0000 1.0000
57.1500 326.0000 1.0000
57.1600 339.0000 1.0000
57.1700 319.0000 1.0000
57.1800 358.0000 1.0000
57.1900 334.0000 1.0000
57.2000 339.0000 1.0000
57.2100 305.0000 1.0000
57.2200 307.0000 1.0000
57.2300 322.0000 1.0000
57.2400 338.0000 1.0000
57.2500 336.0000 1.0000
57.2600 333.0000 1.0000
57.2700 350.0000 1.0000
57.2800 323.0000 1.0000
57.2900 334.0000 1.0000
57.3000 358.0000 1.0000
57.3100 326.0000 1.0000
57.3200 326.0000 1.0000
57.3300 298.0000 1.0000
57.3400 355.0000 1.0000
57.3500 355.0000 1.0000
57.3600 326.0000 1.0000
57.3700 342.0000 1.0000
57.3800 332.0000 1.0000
57.3900 343.0000 1.0000
57.4000 376.0000 1.0000
57.4100 352.0000 1.0000
57.4200 351.0000 1.0000
57.4300 332.0000 1.0000
57.4400 337.0000 1.0000
57.4500 341.0000 1.0000
57.4600 341.0000 1.0000
57.4700 362.0000 1.0000
57.4800 361.0000 1.0000
57.4900 342.0000 1.0000
57.5000 343.0000 1.0000
57.5100 315.0000 1.0000
57.5200 334.0000 1.0000
57.5300 358.0000 1.0000
57.5400 381.0000 1.0000
57.5500 365.0000 1.0000
57.5600 348.0000 1.0000
57.5700 346.0000 1.0000
57.5800 352.0000 1.0000
57.5900 356.0000 1.0000
57.6000 327.0000 1.0000
57.6100 318.0000 1.0000
57.6200 312.0000 1.0000
57.6300 323.0000 1.0000
57.6400 329.0000 1.0000
57.6500 304.0000 1.0000
57.6600 347.0000 1.0000
57.6700 310.0000 1.0000
57.6800 320.0000 1.0000
57.6900 335.0000 1.0000
57.7000 341.0000 1.0000
57.7100 314.0000 1.0000
57.7200 346.0000 1.0000
57.7300 342.0000 1.0000
57.7400 348.0000 1.0000
57.7500 340.0000 1.0000
57.7600 364.0000 1.0000
57.7700 357.0000 1.0000
57.7800 325.0000 1.0000
57.7900 352.0000 1.0000
57.8000 333.0000 1.0000
57.8100 326.0000 1.0000
57.8200 315.0000 1.0000
57.8300 352.0000 1.0000
57.8400 342.0000 1.0000
57.8500 335.0000 1.0000
57.8600 330.0000 1.0000
57.8700 345.0000 1.0000
57.8800 330.0000 1.0000
57.8900 315.0000 1.0000
57.9000 336.0000 1.0000
57.9100 345.0000 1.0000
57.9200 327.0000 1.0000
57.9300 360.0000 1.0000
57.9400 330.0000 1.0000
57.9500 349.0000 1.0000
57.9600 319.0000 1.0000
57.9700 354.0000 1.0000
57.9800 365.0000 1.0000
57.9900 338.0000 1.0000
58.0000 345.0000 1.0000
58.0100 347.0000 1.0000
58.0200 327.0000 1.0000
58.0300 312.0000 1.0000
58.0400 312.0000 1.0000
58.0500 331.0000 1.0000
58.0600 347.0000 1.0000
58.0700 350.0000 1.0000
58.0800 279.0000 1.0000
58.0900 320.0000 1.0000
58.1000 337.0000 1.0000
58.1100 334.0000 1.0000
58.1200 301.0000 1.0000
58.1300 333.0000 1.0000
58.1400 315.0000 1.0000
58.1500 331.0000 1.0000
58.1600 303.0000 1.0000
58.1700 329.0000 1.0000
58.1800 335.0000 1.0000
58.1900 342.0000 1.0000
58.2000 343.0000 1.0000
58.2100 338.0000 1.0000
58.2200 327.0000 1.0000
58.2300 306.0000 1.0000
58.2400 336.0000 1.0000
58.2500 335.0000 1.0000
58.2600 325.0000 1.0000
58.2700 351.0000 1.0000
58.2800 346.0000 1.0000
58.2900 302.0000 1.0000
58.3000 313.0000 1.0000
58.3100 302.0000 1.0000
58.3200 351.0000 1.0000
58.3300 310.0000 1.0000
58.3400 327.0000 1.0000
58.3500 327.0000 1.0000
58.3600 346.0000 1.0000
58.3700 366.0000 1.0000
58.3800 325.0000 1.0000
58.3900 320.0000 1.0000
58.4000 321.0000 1.0000
58.4100 332.0000 1.0000
58.4200 320.0000 1.0000
58.4300 360.0000 1.0000
58.4400 323.0000 1.0000
58.4500 333.0000 1.0000
58.4600 339.0000 1.0000
58.4700 309.0000 1.0000
58.4800 313.0000 1.0000
58.4900 348.0000 1.0000
58.5000 341.0000 1.0000
58.5100 328.0000 1.0000
58.5200 325.0000 1.0000
58.5300 350.0000 1.0000
58.5400 311.0000 1.0000
58.5500 342.0000 1.0000
58.5600 344.0000 1.0000
58.5700 335.0000 1.0000
58.5800 323.0000 1.0000
58.5900 342.0000 1.0000
58.6000 331.0000 1.0000
58.6100 347.0000 1.0000
58.6200 339.0000 1.0000
58.6300 327.0000 1.0000
58.6400 316.0000 1.0000
58.6500 311.0000 1.0000
58.6600 287.0000 1.0000
58.6700 302.0000 1.0000
58.6800 322.0000 1.0000
58.6900 323.0000 1.0000
58.7000 308.0000 1.0000
58.7100 341.0000 1.0000
58.7200 323.0000 1.0000
58.7300 322.0000 1.0000
58.7400 322.0000 1.0000
58.7500 309.0000 1.0000
58.7600 291.0000 1.0000
58.7700 320.0000 1.0000
58.7800 358.0000 1.0000
58.7900 333.0000 1.0000
58.8000 348.0000 1.0000
58.8100 353.0000 1.0000
58.8200 317.0000 1.0000
58.8300 334.0000 1.0000
58.8400 339.0000 1.0000
58.8500 326.0000 1.0000
58.8600 355.0000 1.0000
58.8700 320.0000 1.0000
58.8800 330.0000 1.0000
58.8900 290.0000 1.0000
58.9000 306.0000 1.0000
58.9100 317.0000 1.0000
58.9200 306.0000 1.0000
58.9300 319.0000 1.0000
58.9400 330.0000 1.0000
58.9500 325.0000 1.0000
58.9600 339.0000 1.0000
58.9700 334.0000 1.0000
58.9800 321.0000 1.0000
58.9900 318.0000 1.0000
59.0000 321.0000 1.0000
59.0100 301.0000 1.0000
59.0200 323.0000 1.0000
59.0300 344.0000 1.0000
59.0400 318.0000 1.0000
59.0500 303.0000 1.0000
59.0600 339.0000 1.0000
59.0700 349.0000 1.0000
59.0800 321.0000 1.0000
59.0900 319.0000 1.0000
59.1000 294.0000 1.0000
59.1100 330.0000 1.0000
59.1200 296.0000 1.0000
59.1300 312.0000 1.0000
59.1400 350.0000 1.0000
59.1500 344.0000 1.0000
59.1600 304.0000 1.0000
59.1700 292.0000 1.0000
59.1800 322.0000 1.0000
59.1900 308.0000 1.0000
59.2000 312.0000 1.0000
59.2100 314.0000 1.0000
59.2200 349.0000 1.0000
59.2300 318.0000 1.0000
59.2400 332.0000 1.0000
59.2500 319.0000 1.0000
59.2600 327.0000 1.0000
59.2700 324.0000 1.0000
59.2800 310.0000 1.0000
59.2900 304.0000 1.0000
59.3000 340.0000 1.0000
59.3100 341.0000 1.0000
59.3200 324.0000 1.0000
59.3300 317.0000 1.0000
59.3400 298.0000 1.0000
59.3500 320.0000 1.0000
59.3600 325.0000 1.0000
59.3700 326.0000 1.0000
59.3800 336.0000 1.0000
59.3900 321.0000 1.0000
59.4000 339.0000 1.0000
59.4100 313.0000 1.0000
59.4200 297.0000 1.0000
59.4300 321.0000 1.0000
59.4400 349.0000 1.0000
59.4500 325.0000 1.0000
59.4600 306.0000 1.0000
59.4700 324.0000 1.0000
59.4800 318.0000 1.0000
59.4900 292.0000 1.0000
59.5000 300.0000 1.0000
59.5100 315.0000 1.0000
59.5200 303.0000 1.0000
59.5300 320.0000 1.0000
59.5400 330.0000 1.0000
59.5500 329.0000 1.0000
59.5600 325.0000 1.0000
59.5700 330.0000 1.0000
59.5800 313.0000 1.0000
59.5900 318.0000 1.0000
59.6000 349.0000 1.0000
59.6100 346.0000 1.0000
59.6200 330.0000 1.0000
59.6300 317.0000 1.0000
59.6400 288.0000 1.0000
59.6500 305.0000 1.0000
59.6600 330.0000 1.0000
59.6700 322.0000 1.0000
59.6800 329.0000 1.0000
59.6900 315.0000 1.0000
59.7000 295.0000 1.0000
59.7100 305.0000 1.0000
59.7200 321.0000 1.0000
59.7300 318.0000 1.0000
59.7400 330.0000 1.0000
59.7500 345.0000 1.0000
59.7600 326.0000 1.0000
59.7700 275.0000 1.0000
59.7800 314.0000 1.0000
59.7900 317.0000 1.0000
59.8000 326.0000 1.0000
59.8100 340.0000 1.0000
59.8200 300.0000 1.0000
59.8300 344.0000 1.0000
59.8400 333.0000 1.0000
59.8500 328.0000 1.0000
59.8600 339.0000 1.0000
59.8700 347.0000 1.0000
59.8800 326.0000 1.0000
59.8900 306.0000 1.0000
59.9000 311.0000 1.0000
59.9100 321.0000 1.0000
59.9200 297.0000 1.0000
59.9300 327.0000 1.0000
59.9400 296.0000 1.0000
59.9500 327.0000 1.0000
59.9600 300.0000 1.0000
59.9700 302.0000 1.0000
59.9800 316.0000 1.0000
59.9900 345.0000 1.0000
60.0000 304.0000 1.0000
60.0100 315.0000 1.0000
60.0200 304.0000 1.0000
60.0300 293.0000 1.0000
60.0400 316.0000 1.0000
60.0500 327.0000 1.0000
60.0600 343.0000 1.0000
60.0700 336.0000 1.0000
60.0800 316.0000 1.0000
60.0900 305.0000 1.0000
60.1000 325.0000 1.0000
60.1100 338.0000 1.0000
60.1200 340.0000 1.0000
60.1300 336.0000 1.0000
60.1400 329.0000 1.0000
60.1500 336.0000 1.0000
60.1600 308.0000 1.0000
60.1700 324.0000 1.0000
60.1800 315.0000 1.0000
60.1900 336.0000 1.0000
60.2000 324.0000 1.0000
60.2100 340.0000 1.0000
60.2200 327.0000 1.0000
60.2300 320.0000 1.0000
60.2400 302.0000 1.0000
60.2500 328.0000 1.0000
60.2600 340.0000 1.0000
60.2700 336.0000 1.0000
60.2800 356.0000 1.0000
60.2900 330.0000 1.0000
60.3000 334.0000 1.0000
60.3100 313.0000 1.0000
60.3200 326.0000 1.0000
60.3300 374.0000 1.0000
60.3400 341.0000 1.0000
60.3500 309.0000 1.0000
60.3600 321.0000 1.0000
60.3700 299.0000 1.0000
60.3800 359.0000 1.0000
60.3900 347.0000 1.0000
60.4000 299.0000 1.0000
60.4100 319.0000 1.0000
60.4200 338.0000 1.0000
60.4300 323.0000 1.0000
60.4400 328.0000 1.0000
60.4500 319.0000 1.0000
60.4600 313.0000 1.0000
60.4700 304.0000 1.0000
60.4800 323.0000 1.0000
60.4900 328.0000 1.0000
60.5000 302.0000 1.0000
60.5100 312.0000 1.0000
60.5200 304.0000 1.0000
60.5300 327.0000 1.0000
60.5400 316.0000 1.0000
60.5500 325.0000 1.0000
60.5600 334.0000 1.0000
60.5700 348.0000 1.0000
60.5800 351.0000 1.0000
60.5900 354.0000 1.0000
60.6000 328.0000 1.0000
60.6100 331.0000 1.0000
60.6200 337.0000 1.0000
60.6300 338.0000 1.0000
60.6400 353.0000 1.0000
60.6500 332.0000 1.0000
60.6600 340.0000 1.0000
60.6700 344.0000 1.0000
60.6800 331.0000 1.0000
60.6900 300.0000 1.0000
60.7000 330.0000 1.0000
60.7100 348.0000 1.0000
60.7200 356.0000 1.0000
60.7300 297.0000 1.0000
60.7400 313.0000 1.0000
60.7500 353.0000 1.0000
60.7600 332.0000 1.0000
60.7700 310.0000 1.0000
60.7800 336.0000 1.0000
60.7900 354.0000 1.0000
60.8000 327.0000 1.0000
60.8100 338.0000 1.0000
60.8200 335.0000 1.0000
60.8300 311.0000 1.0000
60.8400 336.0000 1.0000
60.8500 349.0000 1.0000
60.8600 332.0000 1.0000
60.8700 319.0000 1.0000
60.8800 310.0000 1.0000
60.8900 347.0000 1.0000
60.9000 327.0000 1.0000
60.9100 319.0000 1.0000
60.9200 331.0000 1.0000
60.9300 331.0000 1.0000
60.9400 305.0000 1.0000
60.9500 295.0000 1.0000
60.9600 344.0000 1.0000
60.9700 355.0000 1.0000
60.9800 311.0000 1.0000
60.9900 353.0000 1.0000
61.0000 349.0000 1.0000
61.0100 305.0000 1.0000
61.0200 365.0000 1.0000
61.0300 381.0000 1.0000
61.0400 324.0000 1.0000
61.0500 338.0000 1.0000
61.0600 365.0000 1.0000
61.0700 362.0000 1.0000
61.0800 333.0000 1.0000
61.0900 330.0000 1.0000
61.1000 358.0000 1.0000
61.1100 361.0000 1.0000
61.1200 365.0000 1.0000
61.1300 335.0000 1.0000
61.1400 356.0000 1.0000
61.1500 381.0000 1.0000
61.1600 363.0000 1.0000
61.1700 370.0000 1.0000
61.1800 377.0000 1.0000
61.1900 391.0000 1.0000
61.2000 370.0000 1.0000
61.2100 386.0000 1.0000
61.2200 404.0000 1.0000
61.2300 375.0000 1.0000
61.2400 380.0000 1.0000
61.2500 385.0000 1.0000
61.2600 402.0000 1.0000
61.2700 432.0000 1.0000
61.2800 398.0000 1.0000
61.2900 380.0000 1.0000
61.3000 416.0000 1.0000
61.3100 428.0000 1.0000
61.3200 461.0000 1.0000
61.3300 488.0000 1.0000
61.3400 465.0000 1.0000
61.3500 446.0000 1.0000
61.3600 483.0000 1.0000
61.3700 517.0000 1.0000
61.3800 501.0000 1.0000
61.3900 544.0000 1.0000
61.4000 519.0000 1.0000
61.4100 521.0000 1.0000
61.4200 594.0000 1.0000
61.4300 598.0000 1.0000
61.4400 569.0000 1.0000
61.4500 609.0000 1.0000
61.4600 622.0000 1.0000
61.4700 623.0000 1.0000
61.4800 634.0000 1.0000
61.4900 641.0000 1.0000
61.5000 677.0000 1.0000
61.5100 701.0000 1.0000
61.5200 656.0000 1.0000
61.5300 653.0000 1.0000
61.5400 682.0000 1.0000
61.5500 692.0000 1.0000
61.5600 684.0000 1.0000
61.5700 711.0000 1.0000
61.5800 679.0000 1.0000
61.5900 660.0000 1.0000
61.6000 660.0000 1.0000
61.6100 692.0000 1.0000
61.6200 661.0000 1.0000
61.6300 640.0000 1.0000
61.6400 670.0000 1.0000
61.6500 626.0000 1.0000
61.6600 595.0000 1.0000
61.6700 597.0000 1.0000
61.6800 584.0000 1.0000
61.6900 621.0000 1.0000
61.7000 576.0000 1.0000
61.7100 554.0000 1.0000
61.7200 571.0000 1.0000
61.7300 556.0000 1.0000
61.7400 533.0000 1.0000
61.7500 538.0000 1.0000
61.7600 532.0000 1.0000
61.7700 563.0000 1.0000
61.7800 503.0000 1.0000
61.7900 543.0000 1.0000
61.8000 518.0000 1.0000
61.8100 477.0000 1.0000
61.8200 486.0000 1.0000
61.8300 503.0000 1.0000
61.8400 464.0000 1.0000
61.8500 436.0000 1.0000
61.8600 470.0000 1.0000
61.8700 448.0000 1.0000
61.8800 436.0000 1.0000
61.8900 434.0000 1.0000
61.9000 441.0000 1.0000
61.9100 425.0000 1.0000
61.9200 417.0000 1.0000
61.9300 433.0000 1.0000
61.9400 414.0000 1.0000
61.9500 360.0000 1.0000
61.9600 398.0000 1.0000
61.9700 395.0000 1.0000
61.9800 384.0000 1.0000
61.9900 376.0000 1.0000
62.0000 404.0000 1.0000
62.0100 385.0000 1.0000
62.0200 384.0000 1.0000
62.0300 386.0000 1.0000
62.0400 378.0000 1.0000
62.0500 366.0000 1.0000
62.0600 367.0000 1.0000
62.0700 344.0000 1.0000
62.0800 356.0000 1.0000
62.0900 359.0000 1.0000
62.1000 386.0000 1.0000
62.1100 369.0000 1.0000
62.1200 393.0000 1.0000
62.1300 367.0000 1.0000
62.1400 334.0000 1.0000
62.1500 328.0000 1.0000
62.1600 359.0000 1.0000
62.1700 360.0000 1.0000
62.1800 360.0000 1.0000
62.1900 372.0000 1.0000
62.2000 375.0000 1.0000
62.2100 382.0000 1.0000
62.2200 363.0000 1.0000
62.2300 368.0000 1.0000
62.2400 358.0000 1.0000
62.2500 345.0000 1.0000
62.2600 355.0000 1.0000
62.2700 345.0000 1.0000
62.2800 390.0000 1.0000
62.2900 366.0000 1.0000
62.3000 342.0000 1.0000
62.3100 362.0000 1.0000
62.3200 385.0000 1.0000
62.3300 373.0000 1.0000
62.3400 367.0000 1.0000
62.3500 369.0000 1.0000
62.3600 352.0000 1.0000
62.3700 400.0000 1.0000
62.3800 365.0000 1.0000
62.3900 358.0000 1.0000
62.4000 374.0000 1.0000
62.4100 390.0000 1.0000
62.4200 360.0000 1.0000
62.4300 367.0000 1.0000
62.4400 371.0000 1.0000
62.4500 352.0000 1.0000
62.4600 368.0000 1.0000
62.4700 385.0000 1.0000
62.4800 375.0000 1.0000
62.4900 376.0000 1.0000
62.5000 389.0000 1.0000
62.5100 391.0000 1.0000
62.5200 333.0000 1.0000
62.5300 356.0000 1.0000
62.5400 353.0000 1.0000
62.5500 367.0000 1.0000
62.5600 374.0000 1.0000
62.5700 370.0000 1.0000
62.5800 367.0000 1.0000
62.5900 370.0000 1.0000
62.6000 356.0000 1.0000
62.6100 387.0000 1.0000
62.6200 351.0000 1.0000
62.6300 386.0000 1.0000
62.6400 370.0000 1.0000
62.6500 352.0000 1.0000
62.6600 347.0000 1.0000
62.6700 329.0000 1.0000
62.6800 350.0000 1.0000
62.6900 322.0000 1.0000
62.7000 324.0000 1.0000
62.7100 322.0000 1.0000
62.7200 337.0000 1.0000
62.7300 312.0000 1.0000
62.7400 341.0000 1.0000
62.7500 306.0000 1.0000
62.7600 331.0000 1.0000
62.7700 347.0000 1.0000
62.7800 345.0000 1.0000
62.7900 316.0000 1.0000
62.8000 321.0000 1.0000
62.8100 306.0000 1.0000
62.8200 325.0000 1.0000
62.8300 373.0000 1.0000
62.8400 292.0000 1.0000
62.8500 301.0000 1.0000
62.8600 325.0000 1.0000
62.8700 330.0000 1.0000
62.8800 326.0000 1.0000
62.8900 292.0000 1.0000
62.9000 315.0000 1.0000
62.9100 321.0000 1.0000
62.9200 330.0000 1.0000
62.9300 320.0000 1.0000
62.9400 349.0000 1.0000
62.9500 316.0000 1.0000
62.9600 350.0000 1.0000
62.9700 326.0000 1.0000
62.9800 362.0000 1.0000
62.9900 340.0000 1.0000
63.0000 330.0000 1.0000
63.0100 333.0000 1.0000
63.0200 341.0000 1.0000
63.0300 335.0000 1.0000
63.0400 340.0000 1.0000
63.0500 338.0000 1.0000
63.0600 320.0000 1.0000
63.0700 326.0000 1.0000
63.0800 335.0000 1.0000
63.0900 331.0000 1.0000
63.1000 337.0000 1.0000
63.1100 306.0000 1.0000
63.1200 349.0000 1.0000
63.1300 337.0000 1.0000
63.1400 330.0000 1.0000
63.1500 310.0000 1.0000
63.1600 306.0000 1.0000
63.1700 336.0000 1.0000
63.1800 320.0000 1.0000
63.1900 333.0000 1.0000
63.2000 328.0000 1.0000
63.2100 335.0000 1.0000
63.2200 341.0000 1.0000
63.2300 335.0000 1.0000
63.2400 343.0000 1.0000
63.2500 313.0000 1.0000
63.2600 315.0000 1.0000
63.2700 325.0000 1.0000
63.2800 345.0000 1.0000
63.2900 310.0000 1.0000
63.3000 334.0000 1.0000
63.3100 334.0000 1.0000
63.3200 338.0000 1.0000
63.3300 344.0000 1.0000
63.3400 345.0000 1.0000
63.3500 322.0000 1.0000
63.3600 340.0000 1.0000
63.3700 323.0000 1.0000
63.3800 331.0000 1.0000
63.3900 324.0000 1.0000
63.4000 339.0000 1.0000
63.4100 333.0000 1.0000
63.4200 359.0000 1.0000
63.4300 341.0000 1.0000
63.4400 336.0000 1.0000
63.4500 319.0000 1.0000
63.4600 304.0000 1.0000
63.4700 366.0000 1.0000
63.4800 305.0000 1.0000
63.4900 305.0000 1.0000
63.5000 336.0000 1.0000
63.5100 287.0000 1.0000
63.5200 314.0000 1.0000
63.5300 320.0000 1.0000
63.5400 308.0000 1.0000
63.5500 314.0000 1.0000
63.5600 312.0000 1.0000
63.5700 337.0000 1.0000
63.5800 319.0000 1.0000
63.5900 306.0000 1.0000
63.6000 315.0000 1.0000
63.6100 318.0000 1.0000
63.6200 322.0000 1.0000
63.6300 353.0000 1.0000
63.6400 354.0000 1.0000
63.6500 326.0000 1.0000
63.6600 330.0000 1.0000
63.6700 343.0000 1.0000
63.6800 340.0000 1.0000
63.6900 357.0000 1.0000
63.7000 351.0000 1.0000
63.7100 368.0000 1.0000
63.7200 362.0000 1.0000
63.7300 359.0000 1.0000
63.7400 379.0000 1.0000
63.7500 385.0000 1.0000
63.7600 368.0000 1.0000
63.7700 368.0000 1.0000
63.7800 371.0000 1.0000
63.7900 373.0000 1.0000
63.8000 381.0000 1.0000
63.8100 389.0000 1.0000
63.8200 370.0000 1.0000
63.8300 357.0000 1.0000
63.8400 369.0000 1.0000
63.8500 377.0000 1.0000
63.8600 377.0000 1.0000
63.8700 436.0000 1.0000
63.8800 391.0000 1.0000
63.8900 413.0000 1.0000
63.9000 437.0000 1.0000
63.9100 386.0000 1.0000
63.9200 454.0000 1.0000
63.9300 426.0000 1.0000
63.9400 415.0000 1.0000
63.9500 405.0000 1.0000
63.9600 428.0000 1.0000
63.9700 427.0000 1.0000
63.9800 445.0000 1.0000
63.9900 408.0000 1.0000
64.0000 439.0000 1.0000
64.0100 424.0000 1.0000
64.0200 390.0000 1.0000
64.0300 392.0000 1.0000
64.0400 420.0000 1.0000
64.0500 406.0000 1.0000
64.0600 393.0000 1.0000
64.0700 418.0000 1.0000
64.0800 386.0000 1.0000
64.0900 406.0000 1.0000
64.1000 382.0000 1.0000
64.1100 370.0000 1.0000
64.1200 398.0000 1.0000
64.1300 344.0000 1.0000
64.1400 430.0000 1.0000
64.1500 384.0000 1.0000
64.1600 394.0000 1.0000
64.1700 374.0000 1.0000
64.1800 392.0000 1.0000
64.1900 377.0000 1.0000
64.2000 398.0000 1.0000
64.2100 391.0000 1.0000
64.2200 360.0000 1.0000
64.2300 376.0000 1.0000
64.2400 352.0000 1.0000
64.2500 339.0000 1.0000
64.2600 364.0000 1.0000
64.2700 365.0000 1.0000
64.2800 390.0000 1.0000
64.2900 346.0000 1.0000
64.3000 341.0000 1.0000
64.3100 351.0000 1.0000
64.3200 370.0000 1.0000
64.3300 371.0000 1.0000
64.3400 354.0000 1.0000
64.3500 374.0000 1.0000
64.3600 332.0000 1.0000
64.3700 363.0000 1.0000
64.3800 324.0000 1.0000
64.3900 335.0000 1.0000
64.4000 341.0000 1.0000
64.4100 354.0000 1.0000
64.4200 359.0000 1.0000
64.4300 344.0000 1.0000
64.4400 359.0000 1.0000
64.4500 349.0000 1.0000
64.4600 325.0000 1.0000
64.4700 315.0000 1.0000
64.4800 294.0000 1.0000
64.4900 325.0000 1.0000
64.5000 348.0000 1.0000
64.5100 357.0000 1.0000
64.5200 324.0000 1.0000
64.5300 332.0000 1.0000
64.5400 320.0000 1.0000
64.5500 353.0000 1.0000
64.5600 327.0000 1.0000
64.5700 348.0000 1.0000
64.5800 333.0000 1.0000
64.5900 355.0000 1.0000
64.6000 296.0000 1.0000
64.6100 298.0000 1.0000
64.6200 364.0000 1.0000
64.6300 346.0000 1.0000
64.6400 348.0000 1.0000
64.6500 322.0000 1.0000
64.6600 335.0000 1.0000
64.6700 346.0000 1.0000
64.6800 311.0000 1.0000
64.6900 324.0000 1.0000
64.7000 343.0000 1.0000
64.7100 320.0000 1.0000
64.7200 339.0000 1.0000
64.7300 346.0000 1.0000
64.7400 342.0000 1.0000
64.7500 323.0000 1.0000
64.7600 311.0000 1.0000
64.7700 318.0000 1.0000
64.7800 350.0000 1.0000
64.7900 347.0000 1.0000
64.8000 337.0000 1.0000
64.8100 319.0000 1.0000
64.8200 321.0000 1.0000
64.8300 334.0000 1.0000
64.8400 330.0000 1.0000
64.8500 336.0000 1.0000
64.8600 342.0000 1.0000
64.8700 343.0000 1.0000
64.8800 336.0000 1.0000
64.8900 305.0000 1.0000
64.9000 341.0000 1.0000
64.9100 334.0000 1.0000
64.9200 363.0000 1.0000
64.9300 348.0000 1.0000
64.9400 340.0000 1.0000
64.9500 344.0000 1.0000
64.9600 360.0000 1.0000
64.9700 355.0000 1.0000
64.9800 343.0000 1.0000
64.9900 328.0000 1.0000
65.0000 361.0000 1.0000
65.0100 370.0000 1.0000
65.0200 326.0000 1.0000
65.0300 363.0000 1.0000
65.0400 335.0000 1.0000
65.0500 328.0000 1.0000
65.0600 346.0000 1.0000
65.0700 313.0000 1.0000
65.0800 342.0000 1.0000
65.0900 352.0000 1.0000
65.1000 390.0000 1.0000
65.1100 377.0000 1.0000
65.1200 386.0000 1.0000
65.1300 392.0000 1.0000
65.1400 418.0000 1.0000
65.1500 407.0000 1.0000
65.1600 415.0000 1.0000
65.1700 403.0000 1.0000
65.1800 425.0000 1.0000
65.1900 399.0000 1.0000
65.2000 465.0000 1.0000
65.2100 451.0000 1.0000
65.2200 440.0000 1.0000
65.2300 432.0000 1.0000
65.2400 411.0000 1.0000
65.2500 428.0000 1.0000
65.2600 484.0000 1.0000
65.2700 470.0000 1.0000
65.2800 506.0000 1.0000
65.2900 501.0000 1.0000
65.3000 555.0000 1.0000
65.3100 524.0000 1.0000
65.3200 527.0000 1.0000
65.3300 561.0000 1.0000
65.3400 580.0000 1.0000
65.3500 588.0000 1.0000
65.3600 619.0000 1.0000
65.3700 620.0000 1.0000
65.3800 703.0000 1.0000
65.3900 758.0000 1.0000
65.4000 733.0000 1.0000
65.4100 752.0000 1.0000
65.4200 765.0000 1.0000
65.4300 820.0000 1.0000
65.4400 889.0000 1.0000
65.4500 898.0000 1.0000
65.4600 919.0000 1.0000
65.4700 967.0000 1.0000
65.4800 1018.0000 1.0000
65.4900 1018.0000 1.0000
65.5000 1019.0000 1.0000
65.5100 1112.0000 1.0000
65.5200 1156.0000 1.0000
65.5300 1169.0000 1.0000
65.5400 1157.0000 1.0000
65.5500 1178.0000 1.0000
65.5600 1156.0000 1.0000
65.5700 1130.0000 1.0000
65.5800 1107.0000 1.0000
65.5900 1052.0000 1.0000
65.6000 1087.0000 1.0000
65.6100 1077.0000 1.0000
65.6200 1037.0000 1.0000
65.6300 965.0000 1.0000
65.6400 1027.0000 1.0000
65.6500 987.0000 1.0000
65.6600 891.0000 1.0000
65.6700 920.0000 1.0000
65.6800 914.0000 1.0000
65.6900 973.0000 1.0000
65.7000 911.0000 1.0000
65.7100 830.0000 1.0000
65.7200 853.0000 1.0000
65.7300 850.0000 1.0000
65.7400 818.0000 1.0000
65.7500 800.0000 1.0000
65.7600 789.0000 1.0000
65.7700 739.0000 1.0000
65.7800 738.0000 1.0000
65.7900 732.0000 1.0000
65.8000 667.0000 1.0000
65.8100 671.0000 1.0000
65.8200 619.0000 1.0000
65.8300 558.0000 1.0000
65.8400 543.0000 1.0000
65.8500 546.0000 1.0000
65.8600 523.0000 1.0000
65.8700 520.0000 1.0000
65.8800 513.0000 1.0000
65.8900 495.0000 1.0000
65.9000 494.0000 1.0000
65.9100 466.0000 1.0000
65.9200 411.0000 1.0000
65.9300 441.0000 1.0000
65.9400 457.0000 1.0000
65.9500 447.0000 1.0000
65.9600 429.0000 1.0000
65.9700 411.0000 1.0000
65.9800 398.0000 1.0000
65.9900 405.0000 1.0000
66.0000 411.0000 1.0000
66.0100 415.0000 1.0000
66.0200 394.0000 1.0000
66.0300 406.0000 1.0000
66.0400 388.0000 1.0000
66.0500 380.0000 1.0000
66.0600 358.0000 1.0000
66.0700 383.0000 1.0000
66.0800 355.0000 1.0000
66.0900 377.0000 1.0000
66.1000 366.0000 1.0000
66.1100 348.0000 1.0000
66.1200 329.0000 1.0000
66.1300 315.0000 1.0000
66.1400 341.0000 1.0000
66.1500 323.0000 1.0000
66.1600 315.0000 1.0000
66.1700 321.0000 1.0000
66.1800 329.0000 1.0000
66.1900 338.0000 1.0000
66.2000 318.0000 1.0000
66.2100 361.0000 1.0000
66.2200 341.0000 1.0000
66.2300 329.0000 1.0000
66.2400 338.0000 1.0000
66.2500 360.0000 1.0000
66.2600 341.0000 1.0000
66.2700 311.0000 1.0000
66.2800 307.0000 1.0000
66.2900 313.0000 1.0000
66.3000 312.0000 1.0000
66.3100 326.0000 1.0000
66.3200 338.0000 1.0000
66.3300 333.0000 1.0000
66.3400 346.0000 1.0000
66.3500 330.0000 1.0000
66.3600 352.0000 1.0000
66.3700 366.0000 1.0000
66.3800 313.0000 1.0000
66.3900 332.0000 1.0000
66.4000 337.0000 1.0000
66.4100 324.0000 1.0000
66.4200 316.0000 1.0000
66.4300 302.0000 1.0000
66.4400 307.0000 1.0000
66.4500 332.0000 1.0000
66.4600 300.0000 1.0000
66.4700 343.0000 1.0000
66.4800 337.0000 1.0000
66.4900 328.0000 1.0000
66.5000 331.0000 1.0000
66.5100 341.0000 1.0000
66.5200 306.0000 1.0000
66.5300 314.0000 1.0000
66.5400 314.0000 1.0000
66.5500 313.0000 1.0000
66.5600 329.0000 1.0000
66.5700 307.0000 1.0000
66.5800 279.0000 1.0000
66.5900 287.0000 1.0000
66.6000 318.0000 1.0000
66.6100 326.0000 1.0000
66.6200 322.0000 1.0000
66.6300 299.0000 1.0000
66.6400 332.0000 1.0000
66.6500 306.0000 1.0000
66.6600 311.0000 1.0000
66.6700 286.0000 1.0000
66.6800 307.0000 1.0000
66.6900 300.0000 1.0000
66.7000 318.0000 1.0000
66.7100 320.0000 1.0000
66.7200 318.0000 1.0000
66.7300 309.0000 1.0000
66.7400 308.0000 1.0000
66.7500 297.0000 1.0000
66.7600 307.0000 1.0000
66.7700 283.0000 1.0000
66.7800 310.0000 1.0000
66.7900 283.0000 1.0000
66.8000 297.0000 1.0000
66.8100 317.0000 1.0000
66.8200 299.0000 1.0000
66.8300 305.0000 1.0000
66.8400 285.0000 1.0000
66.8500 292.0000 1.0000
66.8600 322.0000 1.0000
66.8700 298.0000 1.0000
66.8800 306.0000 1.0000
66.8900 313.0000 1.0000
66.9000 313.0000 1.0000
66.9100 310.0000 1.0000
66.9200 319.0000 1.0000
66.9300 322.0000 1.0000
66.9400 297.0000 1.0000
66.9500 294.0000 1.0000
66.9600 293.0000 1.0000
66.9700 301.0000 1.0000
66.9800 338.0000 1.0000
66.9900 313.0000 1.0000
67.0000 305.0000 1.0000
67.0100 307.0000 1.0000
67.0200 302.0000 1.0000
67.0300 267.0000 1.0000
67.0400 273.0000 1.0000
67.0500 270.0000 1.0000
67.0600 286.0000 1.0000
67.0700 287.0000 1.0000
67.0800 267.0000 1.0000
67.0900 301.0000 1.0000
67.1000 306.0000 1.0000
67.1100 289.0000 1.0000
67.1200 311.0000 1.0000
67.1300 289.0000 1.0000
67.1400 308.0000 1.0000
67.1500 286.0000 1.0000
67.1600 308.0000 1.0000
67.1700 295.0000 1.0000
67.1800 268.0000 1.0000
67.1900 306.0000 1.0000
67.2000 292.0000 1.0000
67.2100 324.0000 1.0000
67.2200 304.0000 1.0000
67.2300 295.0000 1.0000
67.2400 317.0000 1.0000
67.2500 284.0000 1.0000
67.2600 305.0000 1.0000
67.2700 307.0000 1.0000
67.2800 293.0000 1.0000
67.2900 289.0000 1.0000
67.3000 304.0000 1.0000
67.3100 306.0000 1.0000
67.3200 288.0000 1.0000
67.3300 296.0000 1.0000
67.3400 321.0000 1.0000
67.3500 280.0000 1.0000
67.3600 288.0000 1.0000
67.3700 300.0000 1.0000
67.3800 312.0000 1.0000
67.3900 293.0000 1.0000
67.4000 287.0000 1.0000
67.4100 306.0000 1.0000
67.4200 301.0000 1.0000
67.4300 327.0000 1.0000
67.4400 299.0000 1.0000
67.4500 264.0000 1.0000
67.4600 295.0000 1.0000
67.4700 292.0000 1.0000
67.4800 304.0000 1.0000
67.4900 311.0000 1.0000
67.5000 279.0000 1.0000
67.5100 295.0000 1.0000
67.5200 285.0000 1.0000
67.5300 302.0000 1.0000
67.5400 289.0000 1.0000
67.5500 306.0000 1.0000
67.5600 314.0000 1.0000
67.5700 284.0000 1.0000
67.5800 274.0000 1.0000
67.5900 283.0000 1.0000
67.6000 292.0000 1.0000
67.6100 300.0000 1.0000
67.6200 305.0000 1.0000
67.6300 305.0000 1.0000
67.6400 303.0000 1.0000
67.6500 297.0000 1.0000
67.6600 337.0000 1.0000
67.6700 307.0000 1.0000
67.6800 296.0000 1.0000
67.6900 274.0000 1.0000
67.7000 307.0000 1.0000
67.7100 322.0000 1.0000
67.7200 285.0000 1.0000
67.7300 288.0000 1.0000
67.7400 277.0000 1.0000
67.7500 285.0000 1.0000
67.7600 303.0000 1.0000
67.7700 304.0000 1.0000
67.7800 317.0000 1.0000
67.7900 297.0000 1.0000
67.8000 303.0000 1.0000
67.8100 297.0000 1.0000
67.8200 301.0000 1.0000
67.8300 274.0000 1.0000
67.8400 266.0000 1.0000
67.8500 298.0000 1.0000
67.8600 295.0000 1.0000
67.8700 305.0000 1.0000
67.8800 305.0000 1.0000
67.8900 307.0000 1.0000
67.9000 314.0000 1.0000
67.9100 311.0000 1.0000
67.9200 291.0000 1.0000
67.9300 285.0000 1.0000
67.9400 262.0000 1.0000
67.9500 269.0000 1.0000
67.9600 277.0000 1.0000
67.9700 264.0000 1.0000
67.9800 291.0000 1.0000
67.9900 287.0000 1.0000
68.0000 310.0000 1.0000
68.0100 305.0000 1.0000
68.0200 306.0000 1.0000
68.0300 314.0000 1.0000
68.0400 311.0000 1.0000
68.0500 285.0000 1.0000
68.0600 286.0000 1.0000
68.0700 279.0000 1.0000
68.0800 297.0000 1.0000
68.0900 286.0000 1.0000
68.1000 279.0000 1.0000
68.1100 301.0000 1.0000
68.1200 296.0000 1.0000
68.1300 311.0000 1.0000
68.1400 278.0000 1.0000
68.1500 279.0000 1.0000
68.1600 272.0000 1.0000
68.1700 271.0000 1.0000
68.1800 278.0000 1.0000
68.1900 292.0000 1.0000
68.2000 313.0000 1.0000
68.2100 294.0000 1.0000
68.2200 283.0000 1.0000
68.2300 278.0000 1.0000
68.2400 299.0000 1.0000
68.2500 297.0000 1.0000
68.2600 287.0000 1.0000
68.2700 270.0000 1.0000
68.2800 286.0000 1.0000
68.2900 296.0000 1.0000
68.3000 309.0000 1.0000
68.3100 279.0000 1.0000
68.3200 278.0000 1.0000
68.3300 271.0000 1.0000
68.3400 272.0000 1.0000
68.3500 300.0000 1.0000
68.3600 294.0000 1.0000
68.3700 295.0000 1.0000
68.3800 293.0000 1.0000
68.3900 313.0000 1.0000
68.4000 281.0000 1.0000
68.4100 288.0000 1.0000
68.4200 268.0000 1.0000
68.4300 286.0000 1.0000
68.4400 306.0000 1.0000
68.4500 279.0000 1.0000
68.4600 271.0000 1.0000
68.4700 282.0000 1.0000
68.4800 319.0000 1.0000
68.4900 291.0000 1.0000
68.5000 270.0000 1.0000
68.5100 301.0000 1.0000
68.5200 269.0000 1.0000
68.5300 284.0000 1.0000
68.5400 266.0000 1.0000
68.5500 286.0000 1.0000
68.5600 274.0000 1.0000
68.5700 306.0000 1.0000
68.5800 305.0000 1.0000
68.5900 264.0000 1.0000
68.6000 299.0000 1.0000
68.6100 276.0000 1.0000
68.6200 289.0000 1.0000
68.6300 276.0000 1.0000
68.6400 264.0000 1.0000
68.6500 261.0000 1.0000
68.6600 289.0000 1.0000
68.6700 280.0000 1.0000
68.6800 303.0000 1.0000
68.6900 289.0000 1.0000
68.7000 281.0000 1.0000
68.7100 299.0000 1.0000
68.7200 312.0000 1.0000
68.7300 287.0000 1.0000
68.7400 323.0000 1.0000
68.7500 288.0000 1.0000
68.7600 282.0000 1.0000
68.7700 263.0000 1.0000
68.7800 278.0000 1.0000
68.7900 283.0000 1.0000
68.8000 302.0000 1.0000
68.8100 283.0000 1.0000
68.8200 300.0000 1.0000
68.8300 272.0000 1.0000
68.8400 267.0000 1.0000
68.8500 293.0000 1.0000
68.8600 302.0000 1.0000
68.8700 280.0000 1.0000
68.8800 306.0000 1.0000
68.8900 312.0000 1.0000
68.9000 283.0000 1.0000
68.9100 292.0000 1.0000
68.9200 256.0000 1.0000
68.9300 268.0000 1.0000
68.9400 292.0000 1.0000
68.9500 285.0000 1.0000
68.9600 294.0000 1.0000
68.9700 296.0000 1.0000
68.9800 306.0000 1.0000
68.9900 287.0000 1.0000
69.0000 289.0000 1.0000
69.0100 281.0000 1.0000
69.0200 285.0000 1.0000
69.0300 279.0000 1.0000
69.0400 323.0000 1.0000
69.0500 288.0000 1.0000
69.0600 302.0000 1.0000
69.0700 289.0000 1.0000
69.0800 326.0000 1.0000
69.0900 294.0000 1.0000
69.1000 300.0000 1.0000
69.1100 292.0000 1.0000
69.1200 276.0000 1.0000
69.1300 280.0000 1.0000
69.1400 268.0000 1.0000
69.1500 282.0000 1.0000
69.1600 296.0000 1.0000
69.1700 289.0000 1.0000
69.1800 267.0000 1.0000
69.1900 300.0000 1.0000
69.2000 321.0000 1.0000
69.2100 298.0000 1.0000
69.2200 293.0000 1.0000
69.2300 291.0000 1.0000
69.2400 295.0000 1.0000
69.2500 279.0000 1.0000
69.2600 276.0000 1.0000
69.2700 275.0000 1.0000
69.2800 256.0000 1.0000
69.2900 306.0000 1.0000
69.3000 289.0000 1.0000
69.3100 274.0000 1.0000
69.3200 282.0000 1.0000
69.3300 251.0000 1.0000
69.3400 283.0000 1.0000
69.3500 291.0000 1.0000
69.3600 291.0000 1.0000
69.3700 287.0000 1.0000
69.3800 272.0000 1.0000
69.3900 290.0000 1.0000
69.4000 309.0000 1.0000
69.4100 284.0000 1.0000
69.4200 296.0000 1.0000
69.4300 287.0000 1.0000
69.4400 272.0000 1.0000
69.4500 284.0000 1.0000
69.4600 272.0000 1.0000
69.4700 270.0000 1.0000
69.4800 274.0000 1.0000
69.4900 300.0000 1.0000
69.5000 308.0000 1.0000
69.5100 281.0000 1.0000
69.5200 298.0000 1.0000
69.5300 280.0000 1.0000
69.5400 282.0000 1.0000
69.5500 279.0000 1.0000
69.5600 293.0000 1.0000
69.5700 287.0000 1.0000
69.5800 296.0000 1.0000
69.5900 274.0000 1.0000
69.6000 279.0000 1.0000
69.6100 287.0000 1.0000
69.6200 301.0000 1.0000
69.6300 271.0000 1.0000
69.6400 306.0000 1.0000
69.6500 298.0000 1.0000
69.6600 271.0000 1.0000
69.6700 293.0000 1.0000
69.6800 292.0000 1.0000
69.6900 305.0000 1.0000
69.7000 291.0000 1.0000
69.7100 290.0000 1.0000
69.7200 294.0000 1.0000
69.7300 288.0000 1.0000
69.7400 280.0000 1.0000
69.7500 258.0000 1.0000
69.7600 268.0000 1.0000
69.7700 277.0000 1.0000
69.7800 258.0000 1.0000
69.7900 266.0000 1.0000
69.8000 296.0000 1.0000
69.8100 274.0000 1.0000
69.8200 271.0000 1.0000
69.8300 280.0000 1.0000
69.8400 271.0000 1.0000
69.8500 284.0000 1.0000
69.8600 288.0000 1.0000
69.8700 290.0000 1.0000
69.8800 287.0000 1.0000
69.8900 263.0000 1.0000
69.9000 270.0000 1.0000
69.9100 265.0000 1.0000
69.9200 299.0000 1.0000
69.9300 276.0000 1.0000
69.9400 282.0000 1.0000
69.9500 278.0000 1.0000
69.9600 281.0000 1.0000
69.9700 285.0000 1.0000
69.9800 268.0000 1.0000
69.9900 261.0000 1.0000
70.0000 240.0000 1.0000
*RAS_INT_END
*RAS_TEMPERATURE_START
*RAS_TEMPERATURE_END
*RAS_DATA_END
