*RAS_DATA_START
*RAS_HEADER_START
*DISP_FMT_X "%.2f"
*DISP_FMT_Y "%.0f"
*DISP_FULLSCALE "15575.0000000000"
*DISP_LINE_COLOR "255.0000000000"
*DISP_LINE_STYLE "0.0000000000"
*DISP_LINE_WIDTH "0.2500000000"
*DISP_NOTE "測定データ-10"
*DISP_OFFSET_Y "0.0000000000"
*DISP_PEAKSEARCH_UNIT_Y "cps"
*DISP_RANGE_BOTTOM "0.0000000000"
*DISP_RANGE_LEFT "20.0000000000"
*DISP_RANGE_LOGCUTOFF "0.0100000000"
*DISP_RANGE_RIGHT "70.0000000000"
*DISP_RANGE_TOP "15575.0000000000"
*DISP_SCALE_MODE_Y "0.0000000000"
*DISP_TAB_NAME "2θ/θ"
*DISP_TITLE_Y "強度"
*DISP_UNIT_Y "cps"
*DISP_WINDOW_NAME "MSG_MACROENGINE"
*FILE_COMMENT " "
*FILE_MD5 ""
*FILE_MEMO " "
*FILE_OPERATOR "Administrator"
*FILE_SAMPLE " "
*FILE_TYPE "RAS_RAW"
*FILE_USERGROUP "システムマネージャ"
*FILE_VERSION "1.0000000000"
*HW_ATTACHMENT_ID "ATT0025"
*HW_ATTACHMENT_NAME "標準|Standard"
*HW_COUNTER_ID-0 "CUT0025"
*HW_COUNTER_ID-1 "CUT0020"
*HW_COUNTER_ID-2 "CUT0020"
*HW_COUNTER_ID-3 "CSL0021"
*HW_COUNTER_ID-4 "CMC0021"
*HW_COUNTER_NAME-0 "D/teX Ultra|D/teX Ultra"
*HW_COUNTER_NAME-1 "None|None"
*HW_COUNTER_NAME-2 "None|None"
*HW_COUNTER_NAME-3 "BBM|BBM"
*HW_COUNTER_NAME-4 "検出器モノクロメータ|Detector monochromator"
*HW_COUNTER_SELECT_NAME "D/teX Ultra|D/teX Ultra"
*HW_GONIOMETER_ID "GON0023"
*HW_GONIOMETER_NAME "SmartLab|SmartLab"
*HW_GONIOMETER_RADIUS-0 "90.0"
*HW_GONIOMETER_RADIUS-1 "114.0"
*HW_GONIOMETER_RADIUS-2 "190.0"
*HW_GONIOMETER_RADIUS-3 "300.0"
*HW_GONIOMETER_RADIUS-4 "187.0"
*HW_GONIOMETER_RADIUS-5 "300.0"
*HW_GONIOMETER_RADIUS-6 "113.0"
*HW_GONIOMETER_RADIUS-7 "331.0"
*HW_I_OPT_ID-0 "CBO0021"
*HW_I_OPT_ID-1 "ICR0023"
*HW_I_OPT_ID-2 "ISL0021"
*HW_I_OPT_ID-3 "ISO0021"
*HW_I_OPT_ID-4 "IAD0021"
*HW_I_OPT_ID-5 "IPR0001"
*HW_I_OPT_NAME-0 "CBOユニット|CBO unit"
*HW_I_OPT_NAME-1 "標準入射光学ユニット|Standard incident optical unit"
*HW_I_OPT_NAME-2 "標準入射スリットボックス|Standard incident slit box"
*HW_I_OPT_NAME-3 "入射平行スリット|Incident parallel slit"
*HW_I_OPT_NAME-4 "長手制限スリット|Length limiting slit"
*HW_I_OPT_NAME-5 "None|None"
*HW_R_ATTENUATER_AUTOMODE "0"
*HW_R_OPT_ID-0 "RSS0021"
*HW_R_OPT_ID-1 "RCR0023"
*HW_R_OPT_ID-2 "RSO0021"
*HW_R_OPT_ID-3 "RRS0021"
*HW_R_OPT_ID-4 "ATN0021"
*HW_R_OPT_ID-5 "RFL0021"
*HW_R_OPT_ID-6 "RAD0021"
*HW_R_OPT_NAME-0 "標準受光スリットボックス1|Standard receiving slit box # 1"
*HW_R_OPT_NAME-1 "標準受光光学ユニット1|Standard receiving unit # 1"
*HW_R_OPT_NAME-2 "標準受光光学ユニット2|Standard receiving optical unit # 2"
*HW_R_OPT_NAME-3 "標準受光スリットボックス2|Standard receiving slit box # 2"
*HW_R_OPT_NAME-4 "標準アッテネータ|Standard Attenuator"
*HW_R_OPT_NAME-5 "Cu Kβ|Cu K-beta"
*HW_R_OPT_NAME-6 "調整用受光スリット|Alignment receiving slit"
*HW_SAMPLE_HOLDER_ID "SMP0023"
*HW_SAMPLE_HOLDER_NAME "標準Zステージ|Standard Z stage"
*HW_XG_CURRENT_MAX "50"
*HW_XG_CURRENT_MIN "2"
*HW_XG_CURRENT_RESOLUTION "1"
*HW_XG_CURRENT_UNIT "mA"
*HW_XG_FOCUS "1mm x 10mm"
*HW_XG_FOCUS_TYPE "Normal"
*HW_XG_ID ""
*HW_XG_NAME "3kW 封入管(ID:1200)|3kW Sealed tube(ID:1200)"
*HW_XG_TARGET_ATOMIC_NUMBER "29.0000000000"
*HW_XG_TARGET_NAME "Cu"
*HW_XG_TYPE "Hermetic"
*HW_XG_VOLTAGE_MAX "60"
*HW_XG_VOLTAGE_MIN "20"
*HW_XG_VOLTAGE_RESOLUTION "1"
*HW_XG_VOLTAGE_UNIT "kV"
*HW_XG_WATT_MAX "1.500"
*HW_XG_WATT_UNIT "kW"
*HW_XG_WAVE_LENGTH_ALPHA1 "1.540593"
*HW_XG_WAVE_LENGTH_ALPHA2 "1.544414"
*HW_XG_WAVE_LENGTH_BETA "1.392250"
*MEAS_COND_AXIS_NAME-0 "2θ/θ"
*MEAS_COND_AXIS_NAME-1 "2θ"
*MEAS_COND_AXIS_NAME-2 "ω"
*MEAS_COND_AXIS_NAME-3 "Z"
*MEAS_COND_AXIS_NAME-4 "2θ/ω"
*MEAS_COND_AXIS_NAME-5 "θs"
*MEAS_COND_AXIS_NAME-6 "θd"
*MEAS_COND_AXIS_NAME-7 "Ts"
*MEAS_COND_AXIS_NAME-8 "CBO選択スリット"
*MEAS_COND_AXIS_NAME-9 "M"
*MEAS_COND_AXIS_NAME-10 "入射平行スリット"
*MEAS_COND_AXIS_NAME-11 "入射スリット"
*MEAS_COND_AXIS_NAME-12 ""
*MEAS_COND_AXIS_NAME-13 "Zs"
*MEAS_COND_AXIS_NAME-14 "入射光学素子"
*MEAS_COND_AXIS_NAME-15 "長手制限スリット"
*MEAS_COND_AXIS_NAME-16 "センタースリット"
*MEAS_COND_AXIS_NAME-17 "フィルター"
*MEAS_COND_AXIS_NAME-18 "受光スリット1"
*MEAS_COND_AXIS_NAME-19 "受光スリット2"
*MEAS_COND_AXIS_NAME-20 "受光光学素子"
*MEAS_COND_AXIS_NAME-21 "受光平行スリット"
*MEAS_COND_AXIS_NAME-22 "調整用受光スリット"
*MEAS_COND_AXIS_NAME-23 ""
*MEAS_COND_AXIS_NAME-24 ""
*MEAS_COND_AXIS_NAME-25 "Zd"
*MEAS_COND_AXIS_NAME-26 "アッテネータ"
*MEAS_COND_AXIS_NAME-27 "検出器モノクロメータ"
*MEAS_COND_AXIS_NAME-28 "モノクロメータスリット"
*MEAS_COND_AXIS_NAME-29 "プライマリビーム"
*MEAS_COND_AXIS_NAME-30 "PHA"
*MEAS_COND_AXIS_NAME_INTERNAL-0 "TwoThetaTheta"
*MEAS_COND_AXIS_NAME_INTERNAL-1 "TwoTheta"
*MEAS_COND_AXIS_NAME_INTERNAL-2 "Omega"
*MEAS_COND_AXIS_NAME_INTERNAL-3 "Z"
*MEAS_COND_AXIS_NAME_INTERNAL-4 "TwoThetaOmega"
*MEAS_COND_AXIS_NAME_INTERNAL-5 "ThetaS"
*MEAS_COND_AXIS_NAME_INTERNAL-6 "ThetaD"
*MEAS_COND_AXIS_NAME_INTERNAL-7 "Ts"
*MEAS_COND_AXIS_NAME_INTERNAL-8 "CBO"
*MEAS_COND_AXIS_NAME_INTERNAL-9 "CBO-M"
*MEAS_COND_AXIS_NAME_INTERNAL-10 "IncidentSollerSlit"
*MEAS_COND_AXIS_NAME_INTERNAL-11 "IncidentSlitBox"
*MEAS_COND_AXIS_NAME_INTERNAL-12 "IncidentSlitBox-_Axis"
*MEAS_COND_AXIS_NAME_INTERNAL-13 "Zs"
*MEAS_COND_AXIS_NAME_INTERNAL-14 "IncidentMonochromator"
*MEAS_COND_AXIS_NAME_INTERNAL-15 "IncidentAxdSlit"
*MEAS_COND_AXIS_NAME_INTERNAL-16 "CenterSlit"
*MEAS_COND_AXIS_NAME_INTERNAL-17 "Filter"
*MEAS_COND_AXIS_NAME_INTERNAL-18 "ReceivingSlitBox1"
*MEAS_COND_AXIS_NAME_INTERNAL-19 "ReceivingSlitBox2"
*MEAS_COND_AXIS_NAME_INTERNAL-20 "ReceivingOptics"
*MEAS_COND_AXIS_NAME_INTERNAL-21 "ReceivingSollerSlit"
*MEAS_COND_AXIS_NAME_INTERNAL-22 "ReceivingAxdSlit"
*MEAS_COND_AXIS_NAME_INTERNAL-23 "ReceivingSlitBox1-_Axis"
*MEAS_COND_AXIS_NAME_INTERNAL-24 "ReceivingSlitBox2-_Axis"
*MEAS_COND_AXIS_NAME_INTERNAL-25 "ReceivingSlitBox2-Zd"
*MEAS_COND_AXIS_NAME_INTERNAL-26 "Attenuator"
*MEAS_COND_AXIS_NAME_INTERNAL-27 "CounterMonochromator"
*MEAS_COND_AXIS_NAME_INTERNAL-28 "CounterSlit"
*MEAS_COND_AXIS_NAME_INTERNAL-29 "IncidentPrimary"
*MEAS_COND_AXIS_NAME_INTERNAL-30 "PHA"
*MEAS_COND_AXIS_NAME_MAGICNO-0 "83951616.0000000000"
*MEAS_COND_AXIS_NAME_MAGICNO-1 "268632064.0000000000"
*MEAS_COND_AXIS_NAME_MAGICNO-2 "268500992.0000000000"
*MEAS_COND_AXIS_NAME_MAGICNO-3 "285278208.0000000000"
*MEAS_COND_AXIS_NAME_MAGICNO-4 "83951616.0000000000"
*MEAS_COND_AXIS_NAME_MAGICNO-5 "131072.0000000000"
*MEAS_COND_AXIS_NAME_MAGICNO-6 "131072.0000000000"
*MEAS_COND_AXIS_NAME_MAGICNO-7 "318898176.0000000000"
*MEAS_COND_AXIS_NAME_MAGICNO-8 "20971521.0000000000"
*MEAS_COND_AXIS_NAME_MAGICNO-9 "285343744.0000000000"
*MEAS_COND_AXIS_NAME_MAGICNO-10 "20971521.0000000000"
*MEAS_COND_AXIS_NAME_MAGICNO-11 "22020097.0000000000"
*MEAS_COND_AXIS_NAME_MAGICNO-12 "25165824.0000000000"
*MEAS_COND_AXIS_NAME_MAGICNO-13 "318898176.0000000000"
*MEAS_COND_AXIS_NAME_MAGICNO-14 "1.0000000000"
*MEAS_COND_AXIS_NAME_MAGICNO-15 "20971521.0000000000"
*MEAS_COND_AXIS_NAME_MAGICNO-16 "20971521.0000000000"
*MEAS_COND_AXIS_NAME_MAGICNO-17 "20971521.0000000000"
*MEAS_COND_AXIS_NAME_MAGICNO-18 "23068673.0000000000"
*MEAS_COND_AXIS_NAME_MAGICNO-19 "23068673.0000000000"
*MEAS_COND_AXIS_NAME_MAGICNO-20 "20971521.0000000000"
*MEAS_COND_AXIS_NAME_MAGICNO-21 "20971521.0000000000"
*MEAS_COND_AXIS_NAME_MAGICNO-22 "20971521.0000000000"
*MEAS_COND_AXIS_NAME_MAGICNO-23 "25165824.0000000000"
*MEAS_COND_AXIS_NAME_MAGICNO-24 "25165824.0000000000"
*MEAS_COND_AXIS_NAME_MAGICNO-25 "285343744.0000000000"
*MEAS_COND_AXIS_NAME_MAGICNO-26 "17301505.0000000000"
*MEAS_COND_AXIS_NAME_MAGICNO-27 "20971521.0000000000"
*MEAS_COND_AXIS_NAME_MAGICNO-28 "20971521.0000000000"
*MEAS_COND_AXIS_NAME_MAGICNO-29 "20971521.0000000000"
*MEAS_COND_AXIS_NAME_MAGICNO-30 "0.0000000000"
*MEAS_COND_AXIS_OFFSET-0 "-"
*MEAS_COND_AXIS_OFFSET-1 "-0.0801000000"
*MEAS_COND_AXIS_OFFSET-2 "-0.1703000000"
*MEAS_COND_AXIS_OFFSET-3 "-"
*MEAS_COND_AXIS_OFFSET-4 "-"
*MEAS_COND_AXIS_OFFSET-5 "-0.1703000000"
*MEAS_COND_AXIS_OFFSET-6 "0.0902000000"
*MEAS_COND_AXIS_OFFSET-7 "-"
*MEAS_COND_AXIS_OFFSET-8 "-"
*MEAS_COND_AXIS_OFFSET-9 "-"
*MEAS_COND_AXIS_OFFSET-10 "-"
*MEAS_COND_AXIS_OFFSET-11 "-"
*MEAS_COND_AXIS_OFFSET-12 "-"
*MEAS_COND_AXIS_OFFSET-13 "-"
*MEAS_COND_AXIS_OFFSET-14 "-"
*MEAS_COND_AXIS_OFFSET-15 "-"
*MEAS_COND_AXIS_OFFSET-16 "-"
*MEAS_COND_AXIS_OFFSET-17 "-"
*MEAS_COND_AXIS_OFFSET-18 "-"
*MEAS_COND_AXIS_OFFSET-19 "-"
*MEAS_COND_AXIS_OFFSET-20 "-"
*MEAS_COND_AXIS_OFFSET-21 "-"
*MEAS_COND_AXIS_OFFSET-22 "-"
*MEAS_COND_AXIS_OFFSET-23 "-"
*MEAS_COND_AXIS_OFFSET-24 "-"
*MEAS_COND_AXIS_OFFSET-25 "-"
*MEAS_COND_AXIS_OFFSET-26 "-"
*MEAS_COND_AXIS_OFFSET-27 "-"
*MEAS_COND_AXIS_OFFSET-28 "-"
*MEAS_COND_AXIS_OFFSET-29 "-"
*MEAS_COND_AXIS_OFFSET-30 "-"
*MEAS_COND_AXIS_POSITION-0 "0.0000000000"
*MEAS_COND_AXIS_POSITION-1 "0.0000000000"
*MEAS_COND_AXIS_POSITION-2 "0.0000000000"
*MEAS_COND_AXIS_POSITION-3 "-2.8463000000"
*MEAS_COND_AXIS_POSITION-4 "0.0000000000"
*MEAS_COND_AXIS_POSITION-5 "0.0000000000"
*MEAS_COND_AXIS_POSITION-6 "0.0000000000"
*MEAS_COND_AXIS_POSITION-7 "-0.4278800000"
*MEAS_COND_AXIS_POSITION-8 "BB"
*MEAS_COND_AXIS_POSITION-9 "0.0000000000"
*MEAS_COND_AXIS_POSITION-10 "Soller_slit_5.0deg"
*MEAS_COND_AXIS_POSITION-11 "2/3deg"
*MEAS_COND_AXIS_POSITION-12 "2.2088000000"
*MEAS_COND_AXIS_POSITION-13 "-1.0609400000"
*MEAS_COND_AXIS_POSITION-14 "0.0000000000"
*MEAS_COND_AXIS_POSITION-15 "10.0mm"
*MEAS_COND_AXIS_POSITION-16 "None"
*MEAS_COND_AXIS_POSITION-17 "Cu_K-beta"
*MEAS_COND_AXIS_POSITION-18 "13.000mm"
*MEAS_COND_AXIS_POSITION-19 "13.000mm"
*MEAS_COND_AXIS_POSITION-20 "No_unit"
*MEAS_COND_AXIS_POSITION-21 "Soller_slit_5.0deg"
*MEAS_COND_AXIS_POSITION-22 "None"
*MEAS_COND_AXIS_POSITION-23 "13.0000000000"
*MEAS_COND_AXIS_POSITION-24 "13.0000000000"
*MEAS_COND_AXIS_POSITION-25 "0.0081300000"
*MEAS_COND_AXIS_POSITION-26 "Open"
*MEAS_COND_AXIS_POSITION-27 "None"
*MEAS_COND_AXIS_POSITION-28 "None"
*MEAS_COND_AXIS_POSITION-29 "None"
*MEAS_COND_AXIS_POSITION-30 "38.0000000000"
*MEAS_COND_AXIS_UNIT-0 "deg"
*MEAS_COND_AXIS_UNIT-1 "deg"
*MEAS_COND_AXIS_UNIT-2 "deg"
*MEAS_COND_AXIS_UNIT-3 "mm"
*MEAS_COND_AXIS_UNIT-4 "deg"
*MEAS_COND_AXIS_UNIT-5 "deg"
*MEAS_COND_AXIS_UNIT-6 "deg"
*MEAS_COND_AXIS_UNIT-7 "mm"
*MEAS_COND_AXIS_UNIT-8 ""
*MEAS_COND_AXIS_UNIT-9 "pulse"
*MEAS_COND_AXIS_UNIT-10 ""
*MEAS_COND_AXIS_UNIT-11 ""
*MEAS_COND_AXIS_UNIT-12 "mm"
*MEAS_COND_AXIS_UNIT-13 "mm"
*MEAS_COND_AXIS_UNIT-14 ""
*MEAS_COND_AXIS_UNIT-15 ""
*MEAS_COND_AXIS_UNIT-16 ""
*MEAS_COND_AXIS_UNIT-17 ""
*MEAS_COND_AXIS_UNIT-18 ""
*MEAS_COND_AXIS_UNIT-19 ""
*MEAS_COND_AXIS_UNIT-20 ""
*MEAS_COND_AXIS_UNIT-21 ""
*MEAS_COND_AXIS_UNIT-22 ""
*MEAS_COND_AXIS_UNIT-23 "mm"
*MEAS_COND_AXIS_UNIT-24 "mm"
*MEAS_COND_AXIS_UNIT-25 "mm"
*MEAS_COND_AXIS_UNIT-26 ""
*MEAS_COND_AXIS_UNIT-27 ""
*MEAS_COND_AXIS_UNIT-28 ""
*MEAS_COND_AXIS_UNIT-29 ""
*MEAS_COND_AXIS_UNIT-30 "div"
*MEAS_COND_COUNTER_CNTLOSS_CORR "0.0000000000"
*MEAS_COND_COUNTER_PHABASE "38.0000000000"
*MEAS_COND_COUNTER_PHAWINDOW "16.0000000000"
*MEAS_COND_COUNTER_PHA_UNIT "div"
*MEAS_COND_COUNTER_TAUDIFF "30.0000000000"
*MEAS_COND_COUNTER_TAUINT "0.0000000000"
*MEAS_COND_IRRADIATION_MODE "OFF"
*MEAS_COND_IRRADIATION_WIDTH ""
*MEAS_COND_OPT_ATTR "集中法"
*MEAS_COND_OPT_NAME "@集中法"
*MEAS_COND_UNSYMMETRIC_MODE "OFF"
*MEAS_COND_XG_CURRENT "30.0000000000"
*MEAS_COND_XG_VOLTAGE "40.0000000000"
*MEAS_COND_XG_WAVE_TYPE "Ka"
*MEAS_DATA_COUNT "5001.0000000000"
*MEAS_SCAN_AXIS_X "2θ/θ"
*MEAS_SCAN_AXIS_X_INTERNAL "TwoThetaTheta"
*MEAS_SCAN_END_TIME "07/02/22 18:13:50"
*MEAS_SCAN_MODE "CONTINUOUS"
*MEAS_SCAN_MONITOR "0"
*MEAS_SCAN_RESOLUTION_X "0.0002"
*MEAS_SCAN_SPEED "2.5"
*MEAS_SCAN_SPEED_UNIT "deg/min"
*MEAS_SCAN_START "20.0000000000"
*MEAS_SCAN_START_TIME "07/02/22 17:52:26"
*MEAS_SCAN_STEP "0.0100000000"
*MEAS_SCAN_STOP "70.0000000000"
*MEAS_SCAN_UNIT_X "deg"
*MEAS_SCAN_UNIT_Y "counts"
*RAS_HEADER_END
*RAS_INT_START
20.0000 931.0000 1.0000
20.0100 865.0000 1.0000
20.0200 881.0000 1.0000
20.0300 899.0000 1.0000
20.0400 908.0000 1.0000
20.0500 904.0000 1.0000
20.0600 902.0000 1.0000
20.0700 947.0000 1.0000
20.0800 900.0000 1.0000
20.0900 874.0000 1.0000
20.1000 920.0000 1.0000
20.1100 950.0000 1.0000
20.1200 940.0000 1.0000
20.1300 935.0000 1.0000
20.1400 934.0000 1.0000
20.1500 962.0000 1.0000
20.1600 894.0000 1.0000
20.1700 914.0000 1.0000
20.1800 940.0000 1.0000
20.1900 945.0000 1.0000
20.2000 885.0000 1.0000
20.2100 933.0000 1.0000
20.2200 891.0000 1.0000
20.2300 888.0000 1.0000
20.2400 919.0000 1.0000
20.2500 882.0000 1.0000
20.2600 939.0000 1.0000
20.2700 928.0000 1.0000
20.2800 894.0000 1.0000
20.2900 919.0000 1.0000
20.3000 888.0000 1.0000
20.3100 961.0000 1.0000
20.3200 917.0000 1.0000
20.3300 911.0000 1.0000
20.3400 922.0000 1.0000
20.3500 834.0000 1.0000
20.3600 867.0000 1.0000
20.3700 851.0000 1.0000
20.3800 940.0000 1.0000
20.3900 954.0000 1.0000
20.4000 903.0000 1.0000
20.4100 932.0000 1.0000
20.4200 858.0000 1.0000
20.4300 914.0000 1.0000
20.4400 926.0000 1.0000
20.4500 895.0000 1.0000
20.4600 876.0000 1.0000
20.4700 895.0000 1.0000
20.4800 918.0000 1.0000
20.4900 888.0000 1.0000
20.5000 869.0000 1.0000
20.5100 905.0000 1.0000
20.5200 881.0000 1.0000
20.5300 911.0000 1.0000
20.5400 915.0000 1.0000
20.5500 930.0000 1.0000
20.5600 876.0000 1.0000
20.5700 916.0000 1.0000
20.5800 880.0000 1.0000
20.5900 915.0000 1.0000
20.6000 932.0000 1.0000
20.6100 887.0000 1.0000
20.6200 942.0000 1.0000
20.6300 929.0000 1.0000
20.6400 948.0000 1.0000
20.6500 901.0000 1.0000
20.6600 911.0000 1.0000
20.6700 913.0000 1.0000
20.6800 900.0000 1.0000
20.6900 873.0000 1.0000
20.7000 915.0000 1.0000
20.7100 911.0000 1.0000
20.7200 886.0000 1.0000
20.7300 865.0000 1.0000
20.7400 920.0000 1.0000
20.7500 875.0000 1.0000
20.7600 893.0000 1.0000
20.7700 922.0000 1.0000
20.7800 891.0000 1.0000
20.7900 897.0000 1.0000
20.8000 919.0000 1.0000
20.8100 915.0000 1.0000
20.8200 913.0000 1.0000
20.8300 927.0000 1.0000
20.8400 947.0000 1.0000
20.8500 947.0000 1.0000
20.8600 957.0000 1.0000
20.8700 939.0000 1.0000
20.8800 979.0000 1.0000
20.8900 924.0000 1.0000
20.9000 903.0000 1.0000
20.9100 913.0000 1.0000
20.9200 945.0000 1.0000
20.9300 866.0000 1.0000
20.9400 945.0000 1.0000
20.9500 906.0000 1.0000
20.9600 896.0000 1.0000
20.9700 927.0000 1.0000
20.9800 935.0000 1.0000
20.9900 892.0000 1.0000
21.0000 896.0000 1.0000
21.0100 928.0000 1.0000
21.0200 896.0000 1.0000
21.0300 918.0000 1.0000
21.0400 959.0000 1.0000
21.0500 902.0000 1.0000
21.0600 916.0000 1.0000
21.0700 877.0000 1.0000
21.0800 893.0000 1.0000
21.0900 865.0000 1.0000
21.1000 920.0000 1.0000
21.1100 887.0000 1.0000
21.1200 885.0000 1.0000
21.1300 889.0000 1.0000
21.1400 874.0000 1.0000
21.1500 888.0000 1.0000
21.1600 900.0000 1.0000
21.1700 944.0000 1.0000
21.1800 948.0000 1.0000
21.1900 929.0000 1.0000
21.2000 863.0000 1.0000
21.2100 887.0000 1.0000
21.2200 973.0000 1.0000
21.2300 897.0000 1.0000
21.2400 910.0000 1.0000
21.2500 887.0000 1.0000
21.2600 858.0000 1.0000
21.2700 882.0000 1.0000
21.2800 901.0000 1.0000
21.2900 969.0000 1.0000
21.3000 944.0000 1.0000
21.3100 880.0000 1.0000
21.3200 936.0000 1.0000
21.3300 865.0000 1.0000
21.3400 877.0000 1.0000
21.3500 952.0000 1.0000
21.3600 880.0000 1.0000
21.3700 910.0000 1.0000
21.3800 874.0000 1.0000
21.3900 962.0000 1.0000
21.4000 893.0000 1.0000
21.4100 904.0000 1.0000
21.4200 904.0000 1.0000
21.4300 902.0000 1.0000
21.4400 895.0000 1.0000
21.4500 872.0000 1.0000
21.4600 878.0000 1.0000
21.4700 914.0000 1.0000
21.4800 908.0000 1.0000
21.4900 908.0000 1.0000
21.5000 891.0000 1.0000
21.5100 888.0000 1.0000
21.5200 899.0000 1.0000
21.5300 848.0000 1.0000
21.5400 886.0000 1.0000
21.5500 897.0000 1.0000
21.5600 892.0000 1.0000
21.5700 893.0000 1.0000
21.5800 858.0000 1.0000
21.5900 916.0000 1.0000
21.6000 851.0000 1.0000
21.6100 852.0000 1.0000
21.6200 899.0000 1.0000
21.6300 887.0000 1.0000
21.6400 906.0000 1.0000
21.6500 907.0000 1.0000
21.6600 910.0000 1.0000
21.6700 907.0000 1.0000
21.6800 879.0000 1.0000
21.6900 882.0000 1.0000
21.7000 867.0000 1.0000
21.7100 833.0000 1.0000
21.7200 916.0000 1.0000
21.7300 912.0000 1.0000
21.7400 866.0000 1.0000
21.7500 956.0000 1.0000
21.7600 936.0000 1.0000
21.7700 925.0000 1.0000
21.7800 886.0000 1.0000
21.7900 876.0000 1.0000
21.8000 880.0000 1.0000
21.8100 892.0000 1.0000
21.8200 898.0000 1.0000
21.8300 876.0000 1.0000
21.8400 875.0000 1.0000
21.8500 907.0000 1.0000
21.8600 911.0000 1.0000
21.8700 854.0000 1.0000
21.8800 878.0000 1.0000
21.8900 911.0000 1.0000
21.9000 921.0000 1.0000
21.9100 927.0000 1.0000
21.9200 947.0000 1.0000
21.9300 942.0000 1.0000
21.9400 898.0000 1.0000
21.9500 882.0000 1.0000
21.9600 888.0000 1.0000
21.9700 850.0000 1.0000
21.9800 901.0000 1.0000
21.9900 901.0000 1.0000
22.0000 916.0000 1.0000
22.0100 916.0000 1.0000
22.0200 871.0000 1.0000
22.0300 852.0000 1.0000
22.0400 923.0000 1.0000
22.0500 855.0000 1.0000
22.0600 874.0000 1.0000
22.0700 898.0000 1.0000
22.0800 917.0000 1.0000
22.0900 881.0000 1.0000
22.1000 896.0000 1.0000
22.1100 915.0000 1.0000
22.1200 882.0000 1.0000
22.1300 866.0000 1.0000
22.1400 898.0000 1.0000
22.1500 901.0000 1.0000
22.1600 887.0000 1.0000
22.1700 932.0000 1.0000
22.1800 885.0000 1.0000
22.1900 873.0000 1.0000
22.2000 842.0000 1.0000
22.2100 863.0000 1.0000
22.2200 895.0000 1.0000
22.2300 884.0000 1.0000
22.2400 900.0000 1.0000
22.2500 888.0000 1.0000
22.2600 905.0000 1.0000
22.2700 916.0000 1.0000
22.2800 930.0000 1.0000
22.2900 912.0000 1.0000
22.3000 858.0000 1.0000
22.3100 889.0000 1.0000
22.3200 888.0000 1.0000
22.3300 873.0000 1.0000
22.3400 888.0000 1.0000
22.3500 962.0000 1.0000
22.3600 904.0000 1.0000
22.3700 885.0000 1.0000
22.3800 929.0000 1.0000
22.3900 876.0000 1.0000
22.4000 891.0000 1.0000
22.4100 878.0000 1.0000
22.4200 844.0000 1.0000
22.4300 920.0000 1.0000
22.4400 912.0000 1.0000
22.4500 841.0000 1.0000
22.4600 922.0000 1.0000
22.4700 936.0000 1.0000
22.4800 871.0000 1.0000
22.4900 898.0000 1.0000
22.5000 893.0000 1.0000
22.5100 894.0000 1.0000
22.5200 933.0000 1.0000
22.5300 913.0000 1.0000
22.5400 949.0000 1.0000
22.5500 893.0000 1.0000
22.5600 904.0000 1.0000
22.5700 859.0000 1.0000
22.5800 883.0000 1.0000
22.5900 801.0000 1.0000
22.6000 856.0000 1.0000
22.6100 885.0000 1.0000
22.6200 866.0000 1.0000
22.6300 920.0000 1.0000
22.6400 915.0000 1.0000
22.6500 884.0000 1.0000
22.6600 868.0000 1.0000
22.6700 868.0000 1.0000
22.6800 864.0000 1.0000
22.6900 848.0000 1.0000
22.7000 888.0000 1.0000
22.7100 870.0000 1.0000
22.7200 915.0000 1.0000
22.7300 876.0000 1.0000
22.7400 889.0000 1.0000
22.7500 909.0000 1.0000
22.7600 844.0000 1.0000
22.7700 866.0000 1.0000
22.7800 856.0000 1.0000
22.7900 858.0000 1.0000
22.8000 896.0000 1.0000
22.8100 875.0000 1.0000
22.8200 903.0000 1.0000
22.8300 885.0000 1.0000
22.8400 861.0000 1.0000
22.8500 892.0000 1.0000
22.8600 907.0000 1.0000
22.8700 856.0000 1.0000
22.8800 870.0000 1.0000
22.8900 863.0000 1.0000
22.9000 922.0000 1.0000
22.9100 914.0000 1.0000
22.9200 897.0000 1.0000
22.9300 884.0000 1.0000
22.9400 873.0000 1.0000
22.9500 877.0000 1.0000
22.9600 894.0000 1.0000
22.9700 874.0000 1.0000
22.9800 900.0000 1.0000
22.9900 869.0000 1.0000
23.0000 926.0000 1.0000
23.0100 897.0000 1.0000
23.0200 882.0000 1.0000
23.0300 889.0000 1.0000
23.0400 896.0000 1.0000
23.0500 900.0000 1.0000
23.0600 896.0000 1.0000
23.0700 865.0000 1.0000
23.0800 866.0000 1.0000
23.0900 869.0000 1.0000
23.1000 873.0000 1.0000
23.1100 901.0000 1.0000
23.1200 878.0000 1.0000
23.1300 892.0000 1.0000
23.1400 868.0000 1.0000
23.1500 911.0000 1.0000
23.1600 861.0000 1.0000
23.1700 909.0000 1.0000
23.1800 878.0000 1.0000
23.1900 909.0000 1.0000
23.2000 869.0000 1.0000
23.2100 860.0000 1.0000
23.2200 884.0000 1.0000
23.2300 871.0000 1.0000
23.2400 910.0000 1.0000
23.2500 844.0000 1.0000
23.2600 859.0000 1.0000
23.2700 888.0000 1.0000
23.2800 886.0000 1.0000
23.2900 900.0000 1.0000
23.3000 913.0000 1.0000
23.3100 899.0000 1.0000
23.3200 890.0000 1.0000
23.3300 900.0000 1.0000
23.3400 926.0000 1.0000
23.3500 933.0000 1.0000
23.3600 925.0000 1.0000
23.3700 898.0000 1.0000
23.3800 842.0000 1.0000
23.3900 860.0000 1.0000
23.4000 846.0000 1.0000
23.4100 838.0000 1.0000
23.4200 890.0000 1.0000
23.4300 872.0000 1.0000
23.4400 881.0000 1.0000
23.4500 899.0000 1.0000
23.4600 865.0000 1.0000
23.4700 873.0000 1.0000
23.4800 853.0000 1.0000
23.4900 877.0000 1.0000
23.5000 913.0000 1.0000
23.5100 856.0000 1.0000
23.5200 866.0000 1.0000
23.5300 847.0000 1.0000
23.5400 828.0000 1.0000
23.5500 882.0000 1.0000
23.5600 856.0000 1.0000
23.5700 863.0000 1.0000
23.5800 845.0000 1.0000
23.5900 827.0000 1.0000
23.6000 875.0000 1.0000
23.6100 834.0000 1.0000
23.6200 846.0000 1.0000
23.6300 858.0000 1.0000
23.6400 870.0000 1.0000
23.6500 914.0000 1.0000
23.6600 892.0000 1.0000
23.6700 912.0000 1.0000
23.6800 879.0000 1.0000
23.6900 898.0000 1.0000
23.7000 876.0000 1.0000
23.7100 862.0000 1.0000
23.7200 884.0000 1.0000
23.7300 934.0000 1.0000
23.7400 851.0000 1.0000
23.7500 871.0000 1.0000
23.7600 897.0000 1.0000
23.7700 842.0000 1.0000
23.7800 881.0000 1.0000
23.7900 869.0000 1.0000
23.8000 830.0000 1.0000
23.8100 882.0000 1.0000
23.8200 896.0000 1.0000
23.8300 884.0000 1.0000
23.8400 903.0000 1.0000
23.8500 890.0000 1.0000
23.8600 922.0000 1.0000
23.8700 935.0000 1.0000
23.8800 925.0000 1.0000
23.8900 877.0000 1.0000
23.9000 922.0000 1.0000
23.9100 922.0000 1.0000
23.9200 915.0000 1.0000
23.9300 832.0000 1.0000
23.9400 888.0000 1.0000
23.9500 872.0000 1.0000
23.9600 932.0000 1.0000
23.9700 870.0000 1.0000
23.9800 893.0000 1.0000
23.9900 925.0000 1.0000
24.0000 944.0000 1.0000
24.0100 959.0000 1.0000
24.0200 911.0000 1.0000
24.0300 925.0000 1.0000
24.0400 938.0000 1.0000
24.0500 963.0000 1.0000
24.0600 945.0000 1.0000
24.0700 958.0000 1.0000
24.0800 935.0000 1.0000
24.0900 959.0000 1.0000
24.1000 945.0000 1.0000
24.1100 941.0000 1.0000
24.1200 943.0000 1.0000
24.1300 953.0000 1.0000
24.1400 929.0000 1.0000
24.1500 966.0000 1.0000
24.1600 938.0000 1.0000
24.1700 959.0000 1.0000
24.1800 925.0000 1.0000
24.1900 908.0000 1.0000
24.2000 893.0000 1.0000
24.2100 880.0000 1.0000
24.2200 912.0000 1.0000
24.2300 922.0000 1.0000
24.2400 948.0000 1.0000
24.2500 956.0000 1.0000
24.2600 854.0000 1.0000
24.2700 872.0000 1.0000
24.2800 895.0000 1.0000
24.2900 896.0000 1.0000
24.3000 888.0000 1.0000
24.3100 859.0000 1.0000
24.3200 849.0000 1.0000
24.3300 886.0000 1.0000
24.3400 868.0000 1.0000
24.3500 856.0000 1.0000
24.3600 879.0000 1.0000
24.3700 860.0000 1.0000
24.3800 860.0000 1.0000
24.3900 885.0000 1.0000
24.4000 879.0000 1.0000
24.4100 866.0000 1.0000
24.4200 871.0000 1.0000
24.4300 875.0000 1.0000
24.4400 886.0000 1.0000
24.4500 898.0000 1.0000
24.4600 916.0000 1.0000
24.4700 867.0000 1.0000
24.4800 887.0000 1.0000
24.4900 931.0000 1.0000
24.5000 877.0000 1.0000
24.5100 871.0000 1.0000
24.5200 859.0000 1.0000
24.5300 886.0000 1.0000
24.5400 884.0000 1.0000
24.5500 890.0000 1.0000
24.5600 874.0000 1.0000
24.5700 900.0000 1.0000
24.5800 840.0000 1.0000
24.5900 879.0000 1.0000
24.6000 882.0000 1.0000
24.6100 915.0000 1.0000
24.6200 862.0000 1.0000
24.6300 893.0000 1.0000
24.6400 859.0000 1.0000
24.6500 846.0000 1.0000
24.6600 873.0000 1.0000
24.6700 913.0000 1.0000
24.6800 866.0000 1.0000
24.6900 882.0000 1.0000
24.7000 856.0000 1.0000
24.7100 811.0000 1.0000
24.7200 846.0000 1.0000
24.7300 823.0000 1.0000
24.7400 840.0000 1.0000
24.7500 868.0000 1.0000
24.7600 863.0000 1.0000
24.7700 905.0000 1.0000
24.7800 861.0000 1.0000
24.7900 922.0000 1.0000
24.8000 837.0000 1.0000
24.8100 907.0000 1.0000
24.8200 906.0000 1.0000
24.8300 828.0000 1.0000
24.8400 889.0000 1.0000
24.8500 874.0000 1.0000
24.8600 880.0000 1.0000
24.8700 820.0000 1.0000
24.8800 824.0000 1.0000
24.8900 822.0000 1.0000
24.9000 858.0000 1.0000
24.9100 828.0000 1.0000
24.9200 801.0000 1.0000
24.9300 847.0000 1.0000
24.9400 831.0000 1.0000
24.9500 824.0000 1.0000
24.9600 839.0000 1.0000
24.9700 894.0000 1.0000
24.9800 845.0000 1.0000
24.9900 862.0000 1.0000
25.0000 854.0000 1.0000
25.0100 881.0000 1.0000
25.0200 844.0000 1.0000
25.0300 842.0000 1.0000
25.0400 877.0000 1.0000
25.0500 911.0000 1.0000
25.0600 857.0000 1.0000
25.0700 913.0000 1.0000
25.0800 844.0000 1.0000
25.0900 835.0000 1.0000
25.1000 830.0000 1.0000
25.1100 828.0000 1.0000
25.1200 838.0000 1.0000
25.1300 871.0000 1.0000
25.1400 896.0000 1.0000
25.1500 896.0000 1.0000
25.1600 833.0000 1.0000
25.1700 858.0000 1.0000
25.1800 826.0000 1.0000
25.1900 872.0000 1.0000
25.2000 863.0000 1.0000
25.2100 826.0000 1.0000
25.2200 924.0000 1.0000
25.2300 893.0000 1.0000
25.2400 894.0000 1.0000
25.2500 884.0000 1.0000
25.2600 862.0000 1.0000
25.2700 845.0000 1.0000
25.2800 831.0000 1.0000
25.2900 863.0000 1.0000
25.3000 923.0000 1.0000
25.3100 821.0000 1.0000
25.3200 831.0000 1.0000
25.3300 892.0000 1.0000
25.3400 862.0000 1.0000
25.3500 831.0000 1.0000
25.3600 875.0000 1.0000
25.3700 838.0000 1.0000
25.3800 862.0000 1.0000
25.3900 861.0000 1.0000
25.4000 846.0000 1.0000
25.4100 847.0000 1.0000
25.4200 866.0000 1.0000
25.4300 912.0000 1.0000
25.4400 886.0000 1.0000
25.4500 863.0000 1.0000
25.4600 893.0000 1.0000
25.4700 843.0000 1.0000
25.4800 892.0000 1.0000
25.4900 845.0000 1.0000
25.5000 815.0000 1.0000
25.5100 876.0000 1.0000
25.5200 844.0000 1.0000
25.5300 862.0000 1.0000
25.5400 856.0000 1.0000
25.5500 827.0000 1.0000
25.5600 850.0000 1.0000
25.5700 872.0000 1.0000
25.5800 907.0000 1.0000
25.5900 909.0000 1.0000
25.6000 873.0000 1.0000
25.6100 858.0000 1.0000
25.6200 868.0000 1.0000
25.6300 853.0000 1.0000
25.6400 810.0000 1.0000
25.6500 864.0000 1.0000
25.6600 870.0000 1.0000
25.6700 885.0000 1.0000
25.6800 888.0000 1.0000
25.6900 857.0000 1.0000
25.7000 865.0000 1.0000
25.7100 910.0000 1.0000
25.7200 868.0000 1.0000
25.7300 894.0000 1.0000
25.7400 908.0000 1.0000
25.7500 887.0000 1.0000
25.7600 924.0000 1.0000
25.7700 895.0000 1.0000
25.7800 933.0000 1.0000
25.7900 936.0000 1.0000
25.8000 845.0000 1.0000
25.8100 889.0000 1.0000
25.8200 911.0000 1.0000
25.8300 938.0000 1.0000
25.8400 883.0000 1.0000
25.8500 882.0000 1.0000
25.8600 891.0000 1.0000
25.8700 907.0000 1.0000
25.8800 905.0000 1.0000
25.8900 940.0000 1.0000
25.9000 911.0000 1.0000
25.9100 894.0000 1.0000
25.9200 865.0000 1.0000
25.9300 920.0000 1.0000
25.9400 901.0000 1.0000
25.9500 922.0000 1.0000
25.9600 868.0000 1.0000
25.9700 915.0000 1.0000
25.9800 987.0000 1.0000
25.9900 918.0000 1.0000
26.0000 927.0000 1.0000
26.0100 934.0000 1.0000
26.0200 970.0000 1.0000
26.0300 994.0000 1.0000
26.0400 971.0000 1.0000
26.0500 992.0000 1.0000
26.0600 956.0000 1.0000
26.0700 944.0000 1.0000
26.0800 1003.0000 1.0000
26.0900 978.0000 1.0000
26.1000 1055.0000 1.0000
26.1100 1024.0000 1.0000
26.1200 1032.0000 1.0000
26.1300 1035.0000 1.0000
26.1400 1080.0000 1.0000
26.1500 1075.0000 1.0000
26.1600 1127.0000 1.0000
26.1700 1123.0000 1.0000
26.1800 1185.0000 1.0000
26.1900 1158.0000 1.0000
26.2000 1172.0000 1.0000
26.2100 1231.0000 1.0000
26.2200 1219.0000 1.0000
26.2300 1246.0000 1.0000
26.2400 1317.0000 1.0000
26.2500 1257.0000 1.0000
26.2600 1411.0000 1.0000
26.2700 1373.0000 1.0000
26.2800 1464.0000 1.0000
26.2900 1541.0000 1.0000
26.3000 1588.0000 1.0000
26.3100 1661.0000 1.0000
26.3200 1697.0000 1.0000
26.3300 1784.0000 1.0000
26.3400 1839.0000 1.0000
26.3500 1919.0000 1.0000
26.3600 2070.0000 1.0000
26.3700 2173.0000 1.0000
26.3800 2398.0000 1.0000
26.3900 2454.0000 1.0000
26.4000 2598.0000 1.0000
26.4100 2691.0000 1.0000
26.4200 2817.0000 1.0000
26.4300 2946.0000 1.0000
26.4400 3064.0000 1.0000
26.4500 3115.0000 1.0000
26.4600 3057.0000 1.0000
26.4700 3025.0000 1.0000
26.4800 2966.0000 1.0000
26.4900 3057.0000 1.0000
26.5000 2884.0000 1.0000
26.5100 2816.0000 1.0000
26.5200 2694.0000 1.0000
26.5300 2637.0000 1.0000
26.5400 2464.0000 1.0000
26.5500 2331.0000 1.0000
26.5600 2106.0000 1.0000
26.5700 2038.0000 1.0000
26.5800 1997.0000 1.0000
26.5900 1836.0000 1.0000
26.6000 1716.0000 1.0000
26.6100 1591.0000 1.0000
26.6200 1617.0000 1.0000
26.6300 1476.0000 1.0000
26.6400 1434.0000 1.0000
26.6500 1425.0000 1.0000
26.6600 1416.0000 1.0000
26.6700 1342.0000 1.0000
26.6800 1257.0000 1.0000
26.6900 1273.0000 1.0000
26.7000 1241.0000 1.0000
26.7100 1205.0000 1.0000
26.7200 1132.0000 1.0000
26.7300 1136.0000 1.0000
26.7400 1097.0000 1.0000
26.7500 1084.0000 1.0000
26.7600 1051.0000 1.0000
26.7700 1032.0000 1.0000
26.7800 1028.0000 1.0000
26.7900 985.0000 1.0000
26.8000 964.0000 1.0000
26.8100 1010.0000 1.0000
26.8200 945.0000 1.0000
26.8300 1006.0000 1.0000
26.8400 974.0000 1.0000
26.8500 961.0000 1.0000
26.8600 960.0000 1.0000
26.8700 893.0000 1.0000
26.8800 926.0000 1.0000
26.8900 886.0000 1.0000
26.9000 868.0000 1.0000
26.9100 928.0000 1.0000
26.9200 867.0000 1.0000
26.9300 857.0000 1.0000
26.9400 881.0000 1.0000
26.9500 882.0000 1.0000
26.9600 904.0000 1.0000
26.9700 892.0000 1.0000
26.9800 881.0000 1.0000
26.9900 873.0000 1.0000
27.0000 897.0000 1.0000
27.0100 887.0000 1.0000
27.0200 906.0000 1.0000
27.0300 889.0000 1.0000
27.0400 848.0000 1.0000
27.0500 875.0000 1.0000
27.0600 888.0000 1.0000
27.0700 854.0000 1.0000
27.0800 853.0000 1.0000
27.0900 855.0000 1.0000
27.1000 820.0000 1.0000
27.1100 827.0000 1.0000
27.1200 843.0000 1.0000
27.1300 866.0000 1.0000
27.1400 846.0000 1.0000
27.1500 858.0000 1.0000
27.1600 810.0000 1.0000
27.1700 805.0000 1.0000
27.1800 820.0000 1.0000
27.1900 810.0000 1.0000
27.2000 830.0000 1.0000
27.2100 841.0000 1.0000
27.2200 828.0000 1.0000
27.2300 827.0000 1.0000
27.2400 826.0000 1.0000
27.2500 833.0000 1.0000
27.2600 857.0000 1.0000
27.2700 809.0000 1.0000
27.2800 810.0000 1.0000
27.2900 822.0000 1.0000
27.3000 811.0000 1.0000
27.3100 793.0000 1.0000
27.3200 831.0000 1.0000
27.3300 868.0000 1.0000
27.3400 756.0000 1.0000
27.3500 789.0000 1.0000
27.3600 775.0000 1.0000
27.3700 812.0000 1.0000
27.3800 793.0000 1.0000
27.3900 789.0000 1.0000
27.4000 809.0000 1.0000
27.4100 802.0000 1.0000
27.4200 807.0000 1.0000
27.4300 813.0000 1.0000
27.4400 789.0000 1.0000
27.4500 768.0000 1.0000
27.4600 809.0000 1.0000
27.4700 819.0000 1.0000
27.4800 806.0000 1.0000
27.4900 788.0000 1.0000
27.5000 812.0000 1.0000
27.5100 846.0000 1.0000
27.5200 807.0000 1.0000
27.5300 762.0000 1.0000
27.5400 794.0000 1.0000
27.5500 825.0000 1.0000
27.5600 789.0000 1.0000
27.5700 783.0000 1.0000
27.5800 801.0000 1.0000
27.5900 796.0000 1.0000
27.6000 774.0000 1.0000
27.6100 803.0000 1.0000
27.6200 751.0000 1.0000
27.6300 732.0000 1.0000
27.6400 799.0000 1.0000
27.6500 763.0000 1.0000
27.6600 789.0000 1.0000
27.6700 804.0000 1.0000
27.6800 729.0000 1.0000
27.6900 762.0000 1.0000
27.7000 850.0000 1.0000
27.7100 740.0000 1.0000
27.7200 811.0000 1.0000
27.7300 797.0000 1.0000
27.7400 802.0000 1.0000
27.7500 735.0000 1.0000
27.7600 823.0000 1.0000
27.7700 799.0000 1.0000
27.7800 828.0000 1.0000
27.7900 802.0000 1.0000
27.8000 785.0000 1.0000
27.8100 807.0000 1.0000
27.8200 755.0000 1.0000
27.8300 736.0000 1.0000
27.8400 756.0000 1.0000
27.8500 746.0000 1.0000
27.8600 780.0000 1.0000
27.8700 738.0000 1.0000
27.8800 755.0000 1.0000
27.8900 739.0000 1.0000
27.9000 771.0000 1.0000
27.9100 845.0000 1.0000
27.9200 764.0000 1.0000
27.9300 770.0000 1.0000
27.9400 828.0000 1.0000
27.9500 775.0000 1.0000
27.9600 782.0000 1.0000
27.9700 764.0000 1.0000
27.9800 781.0000 1.0000
27.9900 784.0000 1.0000
28.0000 780.0000 1.0000
28.0100 781.0000 1.0000
28.0200 741.0000 1.0000
28.0300 778.0000 1.0000
28.0400 736.0000 1.0000
28.0500 775.0000 1.0000
28.0600 759.0000 1.0000
28.0700 787.0000 1.0000
28.0800 769.0000 1.0000
28.0900 769.0000 1.0000
28.1000 770.0000 1.0000
28.1100 749.0000 1.0000
28.1200 752.0000 1.0000
28.1300 745.0000 1.0000
28.1400 765.0000 1.0000
28.1500 772.0000 1.0000
28.1600 778.0000 1.0000
28.1700 767.0000 1.0000
28.1800 745.0000 1.0000
28.1900 771.0000 1.0000
28.2000 768.0000 1.0000
28.2100 737.0000 1.0000
28.2200 777.0000 1.0000
28.2300 785.0000 1.0000
28.2400 766.0000 1.0000
28.2500 775.0000 1.0000
28.2600 815.0000 1.0000
28.2700 750.0000 1.0000
28.2800 693.0000 1.0000
28.2900 806.0000 1.0000
28.3000 758.0000 1.0000
28.3100 731.0000 1.0000
28.3200 687.0000 1.0000
28.3300 727.0000 1.0000
28.3400 750.0000 1.0000
28.3500 764.0000 1.0000
28.3600 717.0000 1.0000
28.3700 716.0000 1.0000
28.3800 747.0000 1.0000
28.3900 745.0000 1.0000
28.4000 754.0000 1.0000
28.4100 741.0000 1.0000
28.4200 752.0000 1.0000
28.4300 758.0000 1.0000
28.4400 719.0000 1.0000
28.4500 734.0000 1.0000
28.4600 790.0000 1.0000
28.4700 748.0000 1.0000
28.4800 705.0000 1.0000
28.4900 744.0000 1.0000
28.5000 719.0000 1.0000
28.5100 737.0000 1.0000
28.5200 771.0000 1.0000
28.5300 736.0000 1.0000
28.5400 740.0000 1.0000
28.5500 753.0000 1.0000
28.5600 770.0000 1.0000
28.5700 742.0000 1.0000
28.5800 720.0000 1.0000
28.5900 718.0000 1.0000
28.6000 733.0000 1.0000
28.6100 711.0000 1.0000
28.6200 742.0000 1.0000
28.6300 750.0000 1.0000
28.6400 765.0000 1.0000
28.6500 734.0000 1.0000
28.6600 717.0000 1.0000
28.6700 735.0000 1.0000
28.6800 689.0000 1.0000
28.6900 716.0000 1.0000
28.7000 720.0000 1.0000
28.7100 765.0000 1.0000
28.7200 707.0000 1.0000
28.7300 752.0000 1.0000
28.7400 779.0000 1.0000
28.7500 720.0000 1.0000
28.7600 788.0000 1.0000
28.7700 745.0000 1.0000
28.7800 752.0000 1.0000
28.7900 761.0000 1.0000
28.8000 750.0000 1.0000
28.8100 694.0000 1.0000
28.8200 757.0000 1.0000
28.8300 733.0000 1.0000
28.8400 745.0000 1.0000
28.8500 752.0000 1.0000
28.8600 683.0000 1.0000
28.8700 725.0000 1.0000
28.8800 734.0000 1.0000
28.8900 734.0000 1.0000
28.9000 717.0000 1.0000
28.9100 742.0000 1.0000
28.9200 691.0000 1.0000
28.9300 758.0000 1.0000
28.9400 718.0000 1.0000
28.9500 757.0000 1.0000
28.9600 702.0000 1.0000
28.9700 680.0000 1.0000
28.9800 730.0000 1.0000
28.9900 743.0000 1.0000
29.0000 698.0000 1.0000
29.0100 702.0000 1.0000
29.0200 737.0000 1.0000
29.0300 704.0000 1.0000
29.0400 702.0000 1.0000
29.0500 708.0000 1.0000
29.0600 742.0000 1.0000
29.0700 717.0000 1.0000
29.0800 721.0000 1.0000
29.0900 681.0000 1.0000
29.1000 744.0000 1.0000
29.1100 752.0000 1.0000
29.1200 688.0000 1.0000
29.1300 726.0000 1.0000
29.1400 728.0000 1.0000
29.1500 679.0000 1.0000
29.1600 674.0000 1.0000
29.1700 732.0000 1.0000
29.1800 726.0000 1.0000
29.1900 760.0000 1.0000
29.2000 709.0000 1.0000
29.2100 686.0000 1.0000
29.2200 717.0000 1.0000
29.2300 749.0000 1.0000
29.2400 716.0000 1.0000
29.2500 729.0000 1.0000
29.2600 705.0000 1.0000
29.2700 717.0000 1.0000
29.2800 707.0000 1.0000
29.2900 728.0000 1.0000
29.3000 693.0000 1.0000
29.3100 682.0000 1.0000
29.3200 712.0000 1.0000
29.3300 713.0000 1.0000
29.3400 737.0000 1.0000
29.3500 723.0000 1.0000
29.3600 696.0000 1.0000
29.3700 705.0000 1.0000
29.3800 722.0000 1.0000
29.3900 670.0000 1.0000
29.4000 660.0000 1.0000
29.4100 689.0000 1.0000
29.4200 718.0000 1.0000
29.4300 698.0000 1.0000
29.4400 733.0000 1.0000
29.4500 711.0000 1.0000
29.4600 697.0000 1.0000
29.4700 715.0000 1.0000
29.4800 710.0000 1.0000
29.4900 703.0000 1.0000
29.5000 711.0000 1.0000
29.5100 659.0000 1.0000
29.5200 708.0000 1.0000
29.5300 754.0000 1.0000
29.5400 676.0000 1.0000
29.5500 727.0000 1.0000
29.5600 691.0000 1.0000
29.5700 732.0000 1.0000
29.5800 735.0000 1.0000
29.5900 715.0000 1.0000
29.6000 697.0000 1.0000
29.6100 705.0000 1.0000
29.6200 723.0000 1.0000
29.6300 705.0000 1.0000
29.6400 693.0000 1.0000
29.6500 723.0000 1.0000
29.6600 747.0000 1.0000
29.6700 749.0000 1.0000
29.6800 650.0000 1.0000
29.6900 674.0000 1.0000
29.7000 718.0000 1.0000
29.7100 665.0000 1.0000
29.7200 683.0000 1.0000
29.7300 729.0000 1.0000
29.7400 706.0000 1.0000
29.7500 698.0000 1.0000
29.7600 717.0000 1.0000
29.7700 706.0000 1.0000
29.7800 718.0000 1.0000
29.7900 716.0000 1.0000
29.8000 700.0000 1.0000
29.8100 679.0000 1.0000
29.8200 705.0000 1.0000
29.8300 719.0000 1.0000
29.8400 699.0000 1.0000
29.8500 722.0000 1.0000
29.8600 672.0000 1.0000
29.8700 698.0000 1.0000
29.8800 681.0000 1.0000
29.8900 709.0000 1.0000
29.9000 718.0000 1.0000
29.9100 716.0000 1.0000
29.9200 683.0000 1.0000
29.9300 650.0000 1.0000
29.9400 681.0000 1.0000
29.9500 676.0000 1.0000
29.9600 700.0000 1.0000
29.9700 654.0000 1.0000
29.9800 715.0000 1.0000
29.9900 743.0000 1.0000
30.0000 719.0000 1.0000
30.0100 732.0000 1.0000
30.0200 703.0000 1.0000
30.0300 677.0000 1.0000
30.0400 671.0000 1.0000
30.0500 696.0000 1.0000
30.0600 677.0000 1.0000
30.0700 703.0000 1.0000
30.0800 657.0000 1.0000
30.0900 712.0000 1.0000
30.1000 687.0000 1.0000
30.1100 694.0000 1.0000
30.1200 668.0000 1.0000
30.1300 674.0000 1.0000
30.1400 649.0000 1.0000
30.1500 666.0000 1.0000
30.1600 700.0000 1.0000
30.1700 708.0000 1.0000
30.1800 695.0000 1.0000
30.1900 645.0000 1.0000
30.2000 668.0000 1.0000
30.2100 670.0000 1.0000
30.2200 706.0000 1.0000
30.2300 653.0000 1.0000
30.2400 603.0000 1.0000
30.2500 656.0000 1.0000
30.2600 678.0000 1.0000
30.2700 682.0000 1.0000
30.2800 738.0000 1.0000
30.2900 676.0000 1.0000
30.3000 683.0000 1.0000
30.3100 743.0000 1.0000
30.3200 726.0000 1.0000
30.3300 679.0000 1.0000
30.3400 651.0000 1.0000
30.3500 662.0000 1.0000
30.3600 701.0000 1.0000
30.3700 673.0000 1.0000
30.3800 665.0000 1.0000
30.3900 643.0000 1.0000
30.4000 710.0000 1.0000
30.4100 707.0000 1.0000
30.4200 655.0000 1.0000
30.4300 674.0000 1.0000
30.4400 663.0000 1.0000
30.4500 699.0000 1.0000
30.4600 645.0000 1.0000
30.4700 641.0000 1.0000
30.4800 701.0000 1.0000
30.4900 659.0000 1.0000
30.5000 684.0000 1.0000
30.5100 638.0000 1.0000
30.5200 672.0000 1.0000
30.5300 699.0000 1.0000
30.5400 695.0000 1.0000
30.5500 653.0000 1.0000
30.5600 652.0000 1.0000
30.5700 703.0000 1.0000
30.5800 672.0000 1.0000
30.5900 638.0000 1.0000
30.6000 665.0000 1.0000
30.6100 640.0000 1.0000
30.6200 683.0000 1.0000
30.6300 688.0000 1.0000
30.6400 686.0000 1.0000
30.6500 640.0000 1.0000
30.6600 654.0000 1.0000
30.6700 669.0000 1.0000
30.6800 697.0000 1.0000
30.6900 652.0000 1.0000
30.7000 633.0000 1.0000
30.7100 696.0000 1.0000
30.7200 636.0000 1.0000
30.7300 631.0000 1.0000
30.7400 695.0000 1.0000
30.7500 642.0000 1.0000
30.7600 674.0000 1.0000
30.7700 657.0000 1.0000
30.7800 694.0000 1.0000
30.7900 654.0000 1.0000
30.8000 695.0000 1.0000
30.8100 661.0000 1.0000
30.8200 650.0000 1.0000
30.8300 674.0000 1.0000
30.8400 659.0000 1.0000
30.8500 676.0000 1.0000
30.8600 691.0000 1.0000
30.8700 697.0000 1.0000
30.8800 671.0000 1.0000
30.8900 692.0000 1.0000
30.9000 684.0000 1.0000
30.9100 647.0000 1.0000
30.9200 640.0000 1.0000
30.9300 662.0000 1.0000
30.9400 662.0000 1.0000
30.9500 671.0000 1.0000
30.9600 660.0000 1.0000
30.9700 654.0000 1.0000
30.9800 650.0000 1.0000
30.9900 643.0000 1.0000
31.0000 669.0000 1.0000
31.0100 677.0000 1.0000
31.0200 656.0000 1.0000
31.0300 653.0000 1.0000
31.0400 645.0000 1.0000
31.0500 632.0000 1.0000
31.0600 664.0000 1.0000
31.0700 628.0000 1.0000
31.0800 676.0000 1.0000
31.0900 709.0000 1.0000
31.1000 659.0000 1.0000
31.1100 691.0000 1.0000
31.1200 686.0000 1.0000
31.1300 714.0000 1.0000
31.1400 676.0000 1.0000
31.1500 675.0000 1.0000
31.1600 660.0000 1.0000
31.1700 670.0000 1.0000
31.1800 641.0000 1.0000
31.1900 691.0000 1.0000
31.2000 672.0000 1.0000
31.2100 656.0000 1.0000
31.2200 667.0000 1.0000
31.2300 644.0000 1.0000
31.2400 675.0000 1.0000
31.2500 648.0000 1.0000
31.2600 694.0000 1.0000
31.2700 674.0000 1.0000
31.2800 686.0000 1.0000
31.2900 613.0000 1.0000
31.3000 673.0000 1.0000
31.3100 664.0000 1.0000
31.3200 615.0000 1.0000
31.3300 656.0000 1.0000
31.3400 680.0000 1.0000
31.3500 650.0000 1.0000
31.3600 642.0000 1.0000
31.3700 666.0000 1.0000
31.3800 641.0000 1.0000
31.3900 678.0000 1.0000
31.4000 661.0000 1.0000
31.4100 678.0000 1.0000
31.4200 655.0000 1.0000
31.4300 696.0000 1.0000
31.4400 667.0000 1.0000
31.4500 686.0000 1.0000
31.4600 629.0000 1.0000
31.4700 635.0000 1.0000
31.4800 639.0000 1.0000
31.4900 640.0000 1.0000
31.5000 641.0000 1.0000
31.5100 648.0000 1.0000
31.5200 626.0000 1.0000
31.5300 650.0000 1.0000
31.5400 681.0000 1.0000
31.5500 674.0000 1.0000
31.5600 643.0000 1.0000
31.5700 614.0000 1.0000
31.5800 642.0000 1.0000
31.5900 628.0000 1.0000
31.6000 688.0000 1.0000
31.6100 664.0000 1.0000
31.6200 663.0000 1.0000
31.6300 634.0000 1.0000
31.6400 589.0000 1.0000
31.6500 662.0000 1.0000
31.6600 667.0000 1.0000
31.6700 682.0000 1.0000
31.6800 634.0000 1.0000
31.6900 618.0000 1.0000
31.7000 646.0000 1.0000
31.7100 648.0000 1.0000
31.7200 624.0000 1.0000
31.7300 633.0000 1.0000
31.7400 658.0000 1.0000
31.7500 679.0000 1.0000
31.7600 669.0000 1.0000
31.7700 651.0000 1.0000
31.7800 656.0000 1.0000
31.7900 651.0000 1.0000
31.8000 625.0000 1.0000
31.8100 597.0000 1.0000
31.8200 641.0000 1.0000
31.8300 632.0000 1.0000
31.8400 623.0000 1.0000
31.8500 616.0000 1.0000
31.8600 646.0000 1.0000
31.8700 664.0000 1.0000
31.8800 626.0000 1.0000
31.8900 634.0000 1.0000
31.9000 606.0000 1.0000
31.9100 633.0000 1.0000
31.9200 626.0000 1.0000
31.9300 639.0000 1.0000
31.9400 614.0000 1.0000
31.9500 644.0000 1.0000
31.9600 681.0000 1.0000
31.9700 634.0000 1.0000
31.9800 662.0000 1.0000
31.9900 627.0000 1.0000
32.0000 607.0000 1.0000
32.0100 613.0000 1.0000
32.0200 682.0000 1.0000
32.0300 631.0000 1.0000
32.0400 625.0000 1.0000
32.0500 623.0000 1.0000
32.0600 617.0000 1.0000
32.0700 644.0000 1.0000
32.0800 619.0000 1.0000
32.0900 603.0000 1.0000
32.1000 614.0000 1.0000
32.1100 631.0000 1.0000
32.1200 635.0000 1.0000
32.1300 665.0000 1.0000
32.1400 631.0000 1.0000
32.1500 645.0000 1.0000
32.1600 626.0000 1.0000
32.1700 597.0000 1.0000
32.1800 591.0000 1.0000
32.1900 653.0000 1.0000
32.2000 619.0000 1.0000
32.2100 591.0000 1.0000
32.2200 649.0000 1.0000
32.2300 615.0000 1.0000
32.2400 622.0000 1.0000
32.2500 641.0000 1.0000
32.2600 665.0000 1.0000
32.2700 599.0000 1.0000
32.2800 588.0000 1.0000
32.2900 661.0000 1.0000
32.3000 627.0000 1.0000
32.3100 618.0000 1.0000
32.3200 614.0000 1.0000
32.3300 628.0000 1.0000
32.3400 638.0000 1.0000
32.3500 596.0000 1.0000
32.3600 649.0000 1.0000
32.3700 638.0000 1.0000
32.3800 619.0000 1.0000
32.3900 625.0000 1.0000
32.4000 616.0000 1.0000
32.4100 624.0000 1.0000
32.4200 655.0000 1.0000
32.4300 599.0000 1.0000
32.4400 578.0000 1.0000
32.4500 643.0000 1.0000
32.4600 647.0000 1.0000
32.4700 596.0000 1.0000
32.4800 617.0000 1.0000
32.4900 608.0000 1.0000
32.5000 621.0000 1.0000
32.5100 586.0000 1.0000
32.5200 621.0000 1.0000
32.5300 586.0000 1.0000
32.5400 653.0000 1.0000
32.5500 602.0000 1.0000
32.5600 608.0000 1.0000
32.5700 613.0000 1.0000
32.5800 622.0000 1.0000
32.5900 632.0000 1.0000
32.6000 580.0000 1.0000
32.6100 597.0000 1.0000
32.6200 618.0000 1.0000
32.6300 655.0000 1.0000
32.6400 609.0000 1.0000
32.6500 645.0000 1.0000
32.6600 632.0000 1.0000
32.6700 631.0000 1.0000
32.6800 665.0000 1.0000
32.6900 648.0000 1.0000
32.7000 624.0000 1.0000
32.7100 651.0000 1.0000
32.7200 633.0000 1.0000
32.7300 646.0000 1.0000
32.7400 653.0000 1.0000
32.7500 627.0000 1.0000
32.7600 670.0000 1.0000
32.7700 656.0000 1.0000
32.7800 633.0000 1.0000
32.7900 628.0000 1.0000
32.8000 611.0000 1.0000
32.8100 626.0000 1.0000
32.8200 593.0000 1.0000
32.8300 617.0000 1.0000
32.8400 635.0000 1.0000
32.8500 639.0000 1.0000
32.8600 642.0000 1.0000
32.8700 635.0000 1.0000
32.8800 644.0000 1.0000
32.8900 662.0000 1.0000
32.9000 616.0000 1.0000
32.9100 643.0000 1.0000
32.9200 629.0000 1.0000
32.9300 645.0000 1.0000
32.9400 692.0000 1.0000
32.9500 673.0000 1.0000
32.9600 695.0000 1.0000
32.9700 666.0000 1.0000
32.9800 659.0000 1.0000
32.9900 637.0000 1.0000
33.0000 699.0000 1.0000
33.0100 702.0000 1.0000
33.0200 720.0000 1.0000
33.0300 752.0000 1.0000
33.0400 703.0000 1.0000
33.0500 723.0000 1.0000
33.0600 755.0000 1.0000
33.0700 777.0000 1.0000
33.0800 773.0000 1.0000
33.0900 797.0000 1.0000
33.1000 787.0000 1.0000
33.1100 773.0000 1.0000
33.1200 753.0000 1.0000
33.1300 769.0000 1.0000
33.1400 782.0000 1.0000
33.1500 812.0000 1.0000
33.1600 767.0000 1.0000
33.1700 748.0000 1.0000
33.1800 729.0000 1.0000
33.1900 771.0000 1.0000
33.2000 737.0000 1.0000
33.2100 710.0000 1.0000
33.2200 753.0000 1.0000
33.2300 732.0000 1.0000
33.2400 713.0000 1.0000
33.2500 737.0000 1.0000
33.2600 779.0000 1.0000
33.2700 706.0000 1.0000
33.2800 693.0000 1.0000
33.2900 704.0000 1.0000
33.3000 726.0000 1.0000
33.3100 716.0000 1.0000
33.3200 682.0000 1.0000
33.3300 685.0000 1.0000
33.3400 692.0000 1.0000
33.3500 684.0000 1.0000
33.3600 698.0000 1.0000
33.3700 703.0000 1.0000
33.3800 716.0000 1.0000
33.3900 728.0000 1.0000
33.4000 745.0000 1.0000
33.4100 735.0000 1.0000
33.4200 770.0000 1.0000
33.4300 756.0000 1.0000
33.4400 792.0000 1.0000
33.4500 826.0000 1.0000
33.4600 826.0000 1.0000
33.4700 835.0000 1.0000
33.4800 855.0000 1.0000
33.4900 857.0000 1.0000
33.5000 905.0000 1.0000
33.5100 955.0000 1.0000
33.5200 904.0000 1.0000
33.5300 955.0000 1.0000
33.5400 978.0000 1.0000
33.5500 1020.0000 1.0000
33.5600 1096.0000 1.0000
33.5700 1182.0000 1.0000
33.5800 1185.0000 1.0000
33.5900 1246.0000 1.0000
33.6000 1274.0000 1.0000
33.6100 1409.0000 1.0000
33.6200 1401.0000 1.0000
33.6300 1465.0000 1.0000
33.6400 1556.0000 1.0000
33.6500 1507.0000 1.0000
33.6600 1563.0000 1.0000
33.6700 1606.0000 1.0000
33.6800 1635.0000 1.0000
33.6900 1581.0000 1.0000
33.7000 1492.0000 1.0000
33.7100 1518.0000 1.0000
33.7200 1484.0000 1.0000
33.7300 1416.0000 1.0000
33.7400 1388.0000 1.0000
33.7500 1317.0000 1.0000
33.7600 1263.0000 1.0000
33.7700 1185.0000 1.0000
33.7800 1153.0000 1.0000
33.7900 1078.0000 1.0000
33.8000 1082.0000 1.0000
33.8100 964.0000 1.0000
33.8200 978.0000 1.0000
33.8300 965.0000 1.0000
33.8400 896.0000 1.0000
33.8500 902.0000 1.0000
33.8600 860.0000 1.0000
33.8700 817.0000 1.0000
33.8800 834.0000 1.0000
33.8900 820.0000 1.0000
33.9000 792.0000 1.0000
33.9100 806.0000 1.0000
33.9200 735.0000 1.0000
33.9300 745.0000 1.0000
33.9400 710.0000 1.0000
33.9500 721.0000 1.0000
33.9600 724.0000 1.0000
33.9700 702.0000 1.0000
33.9800 716.0000 1.0000
33.9900 694.0000 1.0000
34.0000 695.0000 1.0000
34.0100 690.0000 1.0000
34.0200 670.0000 1.0000
34.0300 622.0000 1.0000
34.0400 686.0000 1.0000
34.0500 685.0000 1.0000
34.0600 640.0000 1.0000
34.0700 647.0000 1.0000
34.0800 648.0000 1.0000
34.0900 641.0000 1.0000
34.1000 659.0000 1.0000
34.1100 668.0000 1.0000
34.1200 689.0000 1.0000
34.1300 664.0000 1.0000
34.1400 628.0000 1.0000
34.1500 628.0000 1.0000
34.1600 614.0000 1.0000
34.1700 608.0000 1.0000
34.1800 597.0000 1.0000
34.1900 621.0000 1.0000
34.2000 611.0000 1.0000
34.2100 632.0000 1.0000
34.2200 624.0000 1.0000
34.2300 592.0000 1.0000
34.2400 625.0000 1.0000
34.2500 616.0000 1.0000
34.2600 620.0000 1.0000
34.2700 588.0000 1.0000
34.2800 614.0000 1.0000
34.2900 581.0000 1.0000
34.3000 574.0000 1.0000
34.3100 548.0000 1.0000
34.3200 567.0000 1.0000
34.3300 584.0000 1.0000
34.3400 624.0000 1.0000
34.3500 593.0000 1.0000
34.3600 610.0000 1.0000
34.3700 578.0000 1.0000
34.3800 571.0000 1.0000
34.3900 558.0000 1.0000
34.4000 598.0000 1.0000
34.4100 577.0000 1.0000
34.4200 531.0000 1.0000
34.4300 579.0000 1.0000
34.4400 564.0000 1.0000
34.4500 572.0000 1.0000
34.4600 569.0000 1.0000
34.4700 564.0000 1.0000
34.4800 567.0000 1.0000
34.4900 545.0000 1.0000
34.5000 568.0000 1.0000
34.5100 560.0000 1.0000
34.5200 560.0000 1.0000
34.5300 572.0000 1.0000
34.5400 584.0000 1.0000
34.5500 591.0000 1.0000
34.5600 559.0000 1.0000
34.5700 574.0000 1.0000
34.5800 591.0000 1.0000
34.5900 539.0000 1.0000
34.6000 583.0000 1.0000
34.6100 580.0000 1.0000
34.6200 556.0000 1.0000
34.6300 570.0000 1.0000
34.6400 575.0000 1.0000
34.6500 558.0000 1.0000
34.6600 562.0000 1.0000
34.6700 559.0000 1.0000
34.6800 548.0000 1.0000
34.6900 578.0000 1.0000
34.7000 596.0000 1.0000
34.7100 537.0000 1.0000
34.7200 543.0000 1.0000
34.7300 550.0000 1.0000
34.7400 538.0000 1.0000
34.7500 528.0000 1.0000
34.7600 552.0000 1.0000
34.7700 511.0000 1.0000
34.7800 550.0000 1.0000
34.7900 536.0000 1.0000
34.8000 567.0000 1.0000
34.8100 549.0000 1.0000
34.8200 525.0000 1.0000
34.8300 557.0000 1.0000
34.8400 532.0000 1.0000
34.8500 575.0000 1.0000
34.8600 572.0000 1.0000
34.8700 526.0000 1.0000
34.8800 540.0000 1.0000
34.8900 543.0000 1.0000
34.9000 520.0000 1.0000
34.9100 515.0000 1.0000
34.9200 548.0000 1.0000
34.9300 511.0000 1.0000
34.9400 527.0000 1.0000
34.9500 515.0000 1.0000
34.9600 549.0000 1.0000
34.9700 520.0000 1.0000
34.9800 542.0000 1.0000
34.9900 536.0000 1.0000
35.0000 549.0000 1.0000
35.0100 550.0000 1.0000
35.0200 529.0000 1.0000
35.0300 533.0000 1.0000
35.0400 558.0000 1.0000
35.0500 574.0000 1.0000
35.0600 571.0000 1.0000
35.0700 532.0000 1.0000
35.0800 511.0000 1.0000
35.0900 521.0000 1.0000
35.1000 521.0000 1.0000
35.1100 523.0000 1.0000
35.1200 535.0000 1.0000
35.1300 497.0000 1.0000
35.1400 549.0000 1.0000
35.1500 553.0000 1.0000
35.1600 540.0000 1.0000
35.1700 530.0000 1.0000
35.1800 525.0000 1.0000
35.1900 521.0000 1.0000
35.2000 534.0000 1.0000
35.2100 563.0000 1.0000
35.2200 553.0000 1.0000
35.2300 537.0000 1.0000
35.2400 525.0000 1.0000
35.2500 538.0000 1.0000
35.2600 541.0000 1.0000
35.2700 568.0000 1.0000
35.2800 573.0000 1.0000
35.2900 560.0000 1.0000
35.3000 590.0000 1.0000
35.3100 579.0000 1.0000
35.3200 574.0000 1.0000
35.3300 568.0000 1.0000
35.3400 600.0000 1.0000
35.3500 598.0000 1.0000
35.3600 561.0000 1.0000
35.3700 549.0000 1.0000
35.3800 635.0000 1.0000
35.3900 643.0000 1.0000
35.4000 641.0000 1.0000
35.4100 600.0000 1.0000
35.4200 671.0000 1.0000
35.4300 650.0000 1.0000
35.4400 671.0000 1.0000
35.4500 711.0000 1.0000
35.4600 716.0000 1.0000
35.4700 724.0000 1.0000
35.4800 721.0000 1.0000
35.4900 809.0000 1.0000
35.5000 788.0000 1.0000
35.5100 833.0000 1.0000
35.5200 871.0000 1.0000
35.5300 927.0000 1.0000
35.5400 971.0000 1.0000
35.5500 992.0000 1.0000
35.5600 1092.0000 1.0000
35.5700 1118.0000 1.0000
35.5800 1145.0000 1.0000
35.5900 1148.0000 1.0000
35.6000 1118.0000 1.0000
35.6100 1116.0000 1.0000
35.6200 1077.0000 1.0000
35.6300 1061.0000 1.0000
35.6400 1030.0000 1.0000
35.6500 993.0000 1.0000
35.6600 930.0000 1.0000
35.6700 953.0000 1.0000
35.6800 873.0000 1.0000
35.6900 909.0000 1.0000
35.7000 791.0000 1.0000
35.7100 783.0000 1.0000
35.7200 777.0000 1.0000
35.7300 733.0000 1.0000
35.7400 694.0000 1.0000
35.7500 667.0000 1.0000
35.7600 677.0000 1.0000
35.7700 625.0000 1.0000
35.7800 583.0000 1.0000
35.7900 594.0000 1.0000
35.8000 564.0000 1.0000
35.8100 563.0000 1.0000
35.8200 522.0000 1.0000
35.8300 559.0000 1.0000
35.8400 539.0000 1.0000
35.8500 530.0000 1.0000
35.8600 547.0000 1.0000
35.8700 500.0000 1.0000
35.8800 550.0000 1.0000
35.8900 563.0000 1.0000
35.9000 541.0000 1.0000
35.9100 493.0000 1.0000
35.9200 534.0000 1.0000
35.9300 490.0000 1.0000
35.9400 517.0000 1.0000
35.9500 521.0000 1.0000
35.9600 524.0000 1.0000
35.9700 480.0000 1.0000
35.9800 506.0000 1.0000
35.9900 501.0000 1.0000
36.0000 487.0000 1.0000
36.0100 529.0000 1.0000
36.0200 564.0000 1.0000
36.0300 500.0000 1.0000
36.0400 534.0000 1.0000
36.0500 503.0000 1.0000
36.0600 512.0000 1.0000
36.0700 489.0000 1.0000
36.0800 530.0000 1.0000
36.0900 521.0000 1.0000
36.1000 534.0000 1.0000
36.1100 533.0000 1.0000
36.1200 518.0000 1.0000
36.1300 505.0000 1.0000
36.1400 517.0000 1.0000
36.1500 486.0000 1.0000
36.1600 524.0000 1.0000
36.1700 512.0000 1.0000
36.1800 492.0000 1.0000
36.1900 519.0000 1.0000
36.2000 495.0000 1.0000
36.2100 495.0000 1.0000
36.2200 480.0000 1.0000
36.2300 505.0000 1.0000
36.2400 534.0000 1.0000
36.2500 494.0000 1.0000
36.2600 520.0000 1.0000
36.2700 486.0000 1.0000
36.2800 488.0000 1.0000
36.2900 508.0000 1.0000
36.3000 493.0000 1.0000
36.3100 493.0000 1.0000
36.3200 537.0000 1.0000
36.3300 489.0000 1.0000
36.3400 474.0000 1.0000
36.3500 476.0000 1.0000
36.3600 487.0000 1.0000
36.3700 515.0000 1.0000
36.3800 506.0000 1.0000
36.3900 477.0000 1.0000
36.4000 497.0000 1.0000
36.4100 447.0000 1.0000
36.4200 520.0000 1.0000
36.4300 475.0000 1.0000
36.4400 474.0000 1.0000
36.4500 472.0000 1.0000
36.4600 475.0000 1.0000
36.4700 492.0000 1.0000
36.4800 523.0000 1.0000
36.4900 449.0000 1.0000
36.5000 514.0000 1.0000
36.5100 503.0000 1.0000
36.5200 523.0000 1.0000
36.5300 497.0000 1.0000
36.5400 498.0000 1.0000
36.5500 526.0000 1.0000
36.5600 446.0000 1.0000
36.5700 488.0000 1.0000
36.5800 479.0000 1.0000
36.5900 507.0000 1.0000
36.6000 468.0000 1.0000
36.6100 498.0000 1.0000
36.6200 493.0000 1.0000
36.6300 499.0000 1.0000
36.6400 504.0000 1.0000
36.6500 527.0000 1.0000
36.6600 467.0000 1.0000
36.6700 480.0000 1.0000
36.6800 494.0000 1.0000
36.6900 508.0000 1.0000
36.7000 493.0000 1.0000
36.7100 499.0000 1.0000
36.7200 515.0000 1.0000
36.7300 506.0000 1.0000
36.7400 470.0000 1.0000
36.7500 515.0000 1.0000
36.7600 522.0000 1.0000
36.7700 523.0000 1.0000
36.7800 501.0000 1.0000
36.7900 496.0000 1.0000
36.8000 477.0000 1.0000
36.8100 512.0000 1.0000
36.8200 478.0000 1.0000
36.8300 485.0000 1.0000
36.8400 468.0000 1.0000
36.8500 489.0000 1.0000
36.8600 487.0000 1.0000
36.8700 510.0000 1.0000
36.8800 480.0000 1.0000
36.8900 500.0000 1.0000
36.9000 468.0000 1.0000
36.9100 494.0000 1.0000
36.9200 497.0000 1.0000
36.9300 500.0000 1.0000
36.9400 487.0000 1.0000
36.9500 490.0000 1.0000
36.9600 481.0000 1.0000
36.9700 495.0000 1.0000
36.9800 486.0000 1.0000
36.9900 487.0000 1.0000
37.0000 474.0000 1.0000
37.0100 480.0000 1.0000
37.0200 502.0000 1.0000
37.0300 498.0000 1.0000
37.0400 491.0000 1.0000
37.0500 452.0000 1.0000
37.0600 517.0000 1.0000
37.0700 501.0000 1.0000
37.0800 516.0000 1.0000
37.0900 499.0000 1.0000
37.1000 536.0000 1.0000
37.1100 511.0000 1.0000
37.1200 531.0000 1.0000
37.1300 511.0000 1.0000
37.1400 514.0000 1.0000
37.1500 475.0000 1.0000
37.1600 483.0000 1.0000
37.1700 517.0000 1.0000
37.1800 513.0000 1.0000
37.1900 520.0000 1.0000
37.2000 504.0000 1.0000
37.2100 495.0000 1.0000
37.2200 484.0000 1.0000
37.2300 533.0000 1.0000
37.2400 532.0000 1.0000
37.2500 572.0000 1.0000
37.2600 543.0000 1.0000
37.2700 550.0000 1.0000
37.2800 568.0000 1.0000
37.2900 558.0000 1.0000
37.3000 545.0000 1.0000
37.3100 556.0000 1.0000
37.3200 593.0000 1.0000
37.3300 595.0000 1.0000
37.3400 541.0000 1.0000
37.3500 534.0000 1.0000
37.3600 590.0000 1.0000
37.3700 594.0000 1.0000
37.3800 637.0000 1.0000
37.3900 648.0000 1.0000
37.4000 654.0000 1.0000
37.4100 662.0000 1.0000
37.4200 688.0000 1.0000
37.4300 663.0000 1.0000
37.4400 702.0000 1.0000
37.4500 738.0000 1.0000
37.4600 706.0000 1.0000
37.4700 722.0000 1.0000
37.4800 824.0000 1.0000
37.4900 775.0000 1.0000
37.5000 827.0000 1.0000
37.5100 844.0000 1.0000
37.5200 916.0000 1.0000
37.5300 953.0000 1.0000
37.5400 1030.0000 1.0000
37.5500 1033.0000 1.0000
37.5600 1130.0000 1.0000
37.5700 1202.0000 1.0000
37.5800 1226.0000 1.0000
37.5900 1316.0000 1.0000
37.6000 1451.0000 1.0000
37.6100 1476.0000 1.0000
37.6200 1679.0000 1.0000
37.6300 1748.0000 1.0000
37.6400 1748.0000 1.0000
37.6500 1935.0000 1.0000
37.6600 2022.0000 1.0000
37.6700 2142.0000 1.0000
37.6800 2242.0000 1.0000
37.6900 2223.0000 1.0000
37.7000 2332.0000 1.0000
37.7100 2378.0000 1.0000
37.7200 2298.0000 1.0000
37.7300 2386.0000 1.0000
37.7400 2426.0000 1.0000
37.7500 2293.0000 1.0000
37.7600 2256.0000 1.0000
37.7700 2250.0000 1.0000
37.7800 2144.0000 1.0000
37.7900 2077.0000 1.0000
37.8000 2068.0000 1.0000
37.8100 1865.0000 1.0000
37.8200 1881.0000 1.0000
37.8300 1725.0000 1.0000
37.8400 1625.0000 1.0000
37.8500 1520.0000 1.0000
37.8600 1506.0000 1.0000
37.8700 1402.0000 1.0000
37.8800 1289.0000 1.0000
37.8900 1202.0000 1.0000
37.9000 1138.0000 1.0000
37.9100 1115.0000 1.0000
37.9200 1070.0000 1.0000
37.9300 990.0000 1.0000
37.9400 941.0000 1.0000
37.9500 876.0000 1.0000
37.9600 813.0000 1.0000
37.9700 791.0000 1.0000
37.9800 741.0000 1.0000
37.9900 735.0000 1.0000
38.0000 718.0000 1.0000
38.0100 707.0000 1.0000
38.0200 680.0000 1.0000
38.0300 617.0000 1.0000
38.0400 623.0000 1.0000
38.0500 619.0000 1.0000
38.0600 664.0000 1.0000
38.0700 630.0000 1.0000
38.0800 590.0000 1.0000
38.0900 592.0000 1.0000
38.1000 555.0000 1.0000
38.1100 556.0000 1.0000
38.1200 530.0000 1.0000
38.1300 531.0000 1.0000
38.1400 505.0000 1.0000
38.1500 508.0000 1.0000
38.1600 515.0000 1.0000
38.1700 523.0000 1.0000
38.1800 485.0000 1.0000
38.1900 530.0000 1.0000
38.2000 514.0000 1.0000
38.2100 505.0000 1.0000
38.2200 503.0000 1.0000
38.2300 499.0000 1.0000
38.2400 490.0000 1.0000
38.2500 491.0000 1.0000
38.2600 487.0000 1.0000
38.2700 470.0000 1.0000
38.2800 464.0000 1.0000
38.2900 452.0000 1.0000
38.3000 511.0000 1.0000
38.3100 478.0000 1.0000
38.3200 445.0000 1.0000
38.3300 469.0000 1.0000
38.3400 496.0000 1.0000
38.3500 471.0000 1.0000
38.3600 468.0000 1.0000
38.3700 443.0000 1.0000
38.3800 479.0000 1.0000
38.3900 484.0000 1.0000
38.4000 502.0000 1.0000
38.4100 469.0000 1.0000
38.4200 464.0000 1.0000
38.4300 466.0000 1.0000
38.4400 484.0000 1.0000
38.4500 459.0000 1.0000
38.4600 479.0000 1.0000
38.4700 472.0000 1.0000
38.4800 463.0000 1.0000
38.4900 440.0000 1.0000
38.5000 455.0000 1.0000
38.5100 463.0000 1.0000
38.5200 451.0000 1.0000
38.5300 434.0000 1.0000
38.5400 422.0000 1.0000
38.5500 438.0000 1.0000
38.5600 457.0000 1.0000
38.5700 475.0000 1.0000
38.5800 475.0000 1.0000
38.5900 446.0000 1.0000
38.6000 433.0000 1.0000
38.6100 487.0000 1.0000
38.6200 491.0000 1.0000
38.6300 446.0000 1.0000
38.6400 448.0000 1.0000
38.6500 433.0000 1.0000
38.6600 449.0000 1.0000
38.6700 480.0000 1.0000
38.6800 495.0000 1.0000
38.6900 508.0000 1.0000
38.7000 480.0000 1.0000
38.7100 464.0000 1.0000
38.7200 467.0000 1.0000
38.7300 493.0000 1.0000
38.7400 503.0000 1.0000
38.7500 452.0000 1.0000
38.7600 453.0000 1.0000
38.7700 460.0000 1.0000
38.7800 482.0000 1.0000
38.7900 484.0000 1.0000
38.8000 499.0000 1.0000
38.8100 503.0000 1.0000
38.8200 428.0000 1.0000
38.8300 450.0000 1.0000
38.8400 484.0000 1.0000
38.8500 507.0000 1.0000
38.8600 478.0000 1.0000
38.8700 448.0000 1.0000
38.8800 448.0000 1.0000
38.8900 437.0000 1.0000
38.9000 444.0000 1.0000
38.9100 439.0000 1.0000
38.9200 435.0000 1.0000
38.9300 424.0000 1.0000
38.9400 424.0000 1.0000
38.9500 456.0000 1.0000
38.9600 423.0000 1.0000
38.9700 416.0000 1.0000
38.9800 423.0000 1.0000
38.9900 430.0000 1.0000
39.0000 442.0000 1.0000
39.0100 454.0000 1.0000
39.0200 441.0000 1.0000
39.0300 441.0000 1.0000
39.0400 449.0000 1.0000
39.0500 455.0000 1.0000
39.0600 426.0000 1.0000
39.0700 409.0000 1.0000
39.0800 410.0000 1.0000
39.0900 470.0000 1.0000
39.1000 434.0000 1.0000
39.1100 432.0000 1.0000
39.1200 414.0000 1.0000
39.1300 423.0000 1.0000
39.1400 453.0000 1.0000
39.1500 427.0000 1.0000
39.1600 439.0000 1.0000
39.1700 410.0000 1.0000
39.1800 400.0000 1.0000
39.1900 417.0000 1.0000
39.2000 443.0000 1.0000
39.2100 453.0000 1.0000
39.2200 415.0000 1.0000
39.2300 429.0000 1.0000
39.2400 432.0000 1.0000
39.2500 468.0000 1.0000
39.2600 423.0000 1.0000
39.2700 431.0000 1.0000
39.2800 430.0000 1.0000
39.2900 440.0000 1.0000
39.3000 454.0000 1.0000
39.3100 431.0000 1.0000
39.3200 441.0000 1.0000
39.3300 425.0000 1.0000
39.3400 429.0000 1.0000
39.3500 433.0000 1.0000
39.3600 450.0000 1.0000
39.3700 415.0000 1.0000
39.3800 416.0000 1.0000
39.3900 410.0000 1.0000
39.4000 429.0000 1.0000
39.4100 427.0000 1.0000
39.4200 443.0000 1.0000
39.4300 425.0000 1.0000
39.4400 436.0000 1.0000
39.4500 438.0000 1.0000
39.4600 397.0000 1.0000
39.4700 411.0000 1.0000
39.4800 441.0000 1.0000
39.4900 444.0000 1.0000
39.5000 419.0000 1.0000
39.5100 424.0000 1.0000
39.5200 405.0000 1.0000
39.5300 392.0000 1.0000
39.5400 447.0000 1.0000
39.5500 432.0000 1.0000
39.5600 412.0000 1.0000
39.5700 442.0000 1.0000
39.5800 404.0000 1.0000
39.5900 423.0000 1.0000
39.6000 414.0000 1.0000
39.6100 395.0000 1.0000
39.6200 403.0000 1.0000
39.6300 414.0000 1.0000
39.6400 421.0000 1.0000
39.6500 435.0000 1.0000
39.6600 431.0000 1.0000
39.6700 420.0000 1.0000
39.6800 406.0000 1.0000
39.6900 408.0000 1.0000
39.7000 447.0000 1.0000
39.7100 428.0000 1.0000
39.7200 411.0000 1.0000
39.7300 418.0000 1.0000
39.7400 438.0000 1.0000
39.7500 451.0000 1.0000
39.7600 429.0000 1.0000
39.7700 397.0000 1.0000
39.7800 427.0000 1.0000
39.7900 426.0000 1.0000
39.8000 429.0000 1.0000
39.8100 443.0000 1.0000
39.8200 422.0000 1.0000
39.8300 450.0000 1.0000
39.8400 388.0000 1.0000
39.8500 410.0000 1.0000
39.8600 406.0000 1.0000
39.8700 408.0000 1.0000
39.8800 409.0000 1.0000
39.8900 428.0000 1.0000
39.9000 425.0000 1.0000
39.9100 400.0000 1.0000
39.9200 423.0000 1.0000
39.9300 411.0000 1.0000
39.9400 430.0000 1.0000
39.9500 404.0000 1.0000
39.9600 416.0000 1.0000
39.9700 415.0000 1.0000
39.9800 393.0000 1.0000
39.9900 389.0000 1.0000
40.0000 424.0000 1.0000
40.0100 400.0000 1.0000
40.0200 407.0000 1.0000
40.0300 449.0000 1.0000
40.0400 443.0000 1.0000
40.0500 410.0000 1.0000
40.0600 408.0000 1.0000
40.0700 392.0000 1.0000
40.0800 403.0000 1.0000
40.0900 374.0000 1.0000
40.1000 385.0000 1.0000
40.1100 421.0000 1.0000
40.1200 446.0000 1.0000
40.1300 442.0000 1.0000
40.1400 378.0000 1.0000
40.1500 411.0000 1.0000
40.1600 413.0000 1.0000
40.1700 432.0000 1.0000
40.1800 436.0000 1.0000
40.1900 402.0000 1.0000
40.2000 420.0000 1.0000
40.2100 407.0000 1.0000
40.2200 390.0000 1.0000
40.2300 408.0000 1.0000
40.2400 384.0000 1.0000
40.2500 400.0000 1.0000
40.2600 376.0000 1.0000
40.2700 412.0000 1.0000
40.2800 397.0000 1.0000
40.2900 387.0000 1.0000
40.3000 415.0000 1.0000
40.3100 432.0000 1.0000
40.3200 411.0000 1.0000
40.3300 412.0000 1.0000
40.3400 414.0000 1.0000
40.3500 438.0000 1.0000
40.3600 413.0000 1.0000
40.3700 394.0000 1.0000
40.3800 400.0000 1.0000
40.3900 424.0000 1.0000
40.4000 428.0000 1.0000
40.4100 400.0000 1.0000
40.4200 431.0000 1.0000
40.4300 447.0000 1.0000
40.4400 433.0000 1.0000
40.4500 406.0000 1.0000
40.4600 439.0000 1.0000
40.4700 429.0000 1.0000
40.4800 421.0000 1.0000
40.4900 395.0000 1.0000
40.5000 401.0000 1.0000
40.5100 402.0000 1.0000
40.5200 400.0000 1.0000
40.5300 402.0000 1.0000
40.5400 382.0000 1.0000
40.5500 417.0000 1.0000
40.5600 399.0000 1.0000
40.5700 400.0000 1.0000
40.5800 409.0000 1.0000
40.5900 410.0000 1.0000
40.6000 395.0000 1.0000
40.6100 418.0000 1.0000
40.6200 408.0000 1.0000
40.6300 401.0000 1.0000
40.6400 384.0000 1.0000
40.6500 411.0000 1.0000
40.6600 435.0000 1.0000
40.6700 400.0000 1.0000
40.6800 441.0000 1.0000
40.6900 430.0000 1.0000
40.7000 408.0000 1.0000
40.7100 441.0000 1.0000
40.7200 449.0000 1.0000
40.7300 413.0000 1.0000
40.7400 440.0000 1.0000
40.7500 479.0000 1.0000
40.7600 440.0000 1.0000
40.7700 455.0000 1.0000
40.7800 396.0000 1.0000
40.7900 457.0000 1.0000
40.8000 468.0000 1.0000
40.8100 443.0000 1.0000
40.8200 400.0000 1.0000
40.8300 427.0000 1.0000
40.8400 429.0000 1.0000
40.8500 445.0000 1.0000
40.8600 416.0000 1.0000
40.8700 404.0000 1.0000
40.8800 432.0000 1.0000
40.8900 445.0000 1.0000
40.9000 408.0000 1.0000
40.9100 431.0000 1.0000
40.9200 434.0000 1.0000
40.9300 442.0000 1.0000
40.9400 432.0000 1.0000
40.9500 424.0000 1.0000
40.9600 409.0000 1.0000
40.9700 430.0000 1.0000
40.9800 428.0000 1.0000
40.9900 401.0000 1.0000
41.0000 405.0000 1.0000
41.0100 413.0000 1.0000
41.0200 403.0000 1.0000
41.0300 404.0000 1.0000
41.0400 421.0000 1.0000
41.0500 421.0000 1.0000
41.0600 399.0000 1.0000
41.0700 414.0000 1.0000
41.0800 417.0000 1.0000
41.0900 425.0000 1.0000
41.1000 388.0000 1.0000
41.1100 415.0000 1.0000
41.1200 391.0000 1.0000
41.1300 376.0000 1.0000
41.1400 376.0000 1.0000
41.1500 401.0000 1.0000
41.1600 407.0000 1.0000
41.1700 421.0000 1.0000
41.1800 407.0000 1.0000
41.1900 398.0000 1.0000
41.2000 413.0000 1.0000
41.2100 392.0000 1.0000
41.2200 387.0000 1.0000
41.2300 405.0000 1.0000
41.2400 389.0000 1.0000
41.2500 389.0000 1.0000
41.2600 387.0000 1.0000
41.2700 425.0000 1.0000
41.2800 400.0000 1.0000
41.2900 421.0000 1.0000
41.3000 392.0000 1.0000
41.3100 406.0000 1.0000
41.3200 430.0000 1.0000
41.3300 416.0000 1.0000
41.3400 418.0000 1.0000
41.3500 408.0000 1.0000
41.3600 422.0000 1.0000
41.3700 399.0000 1.0000
41.3800 405.0000 1.0000
41.3900 402.0000 1.0000
41.4000 411.0000 1.0000
41.4100 396.0000 1.0000
41.4200 394.0000 1.0000
41.4300 420.0000 1.0000
41.4400 361.0000 1.0000
41.4500 408.0000 1.0000
41.4600 388.0000 1.0000
41.4700 409.0000 1.0000
41.4800 403.0000 1.0000
41.4900 413.0000 1.0000
41.5000 400.0000 1.0000
41.5100 390.0000 1.0000
41.5200 365.0000 1.0000
41.5300 381.0000 1.0000
41.5400 367.0000 1.0000
41.5500 437.0000 1.0000
41.5600 379.0000 1.0000
41.5700 399.0000 1.0000
41.5800 397.0000 1.0000
41.5900 401.0000 1.0000
41.6000 409.0000 1.0000
41.6100 363.0000 1.0000
41.6200 393.0000 1.0000
41.6300 413.0000 1.0000
41.6400 441.0000 1.0000
41.6500 429.0000 1.0000
41.6600 380.0000 1.0000
41.6700 397.0000 1.0000
41.6800 388.0000 1.0000
41.6900 399.0000 1.0000
41.7000 413.0000 1.0000
41.7100 404.0000 1.0000
41.7200 382.0000 1.0000
41.7300 404.0000 1.0000
41.7400 382.0000 1.0000
41.7500 403.0000 1.0000
41.7600 403.0000 1.0000
41.7700 426.0000 1.0000
41.7800 371.0000 1.0000
41.7900 409.0000 1.0000
41.8000 417.0000 1.0000
41.8100 391.0000 1.0000
41.8200 426.0000 1.0000
41.8300 395.0000 1.0000
41.8400 442.0000 1.0000
41.8500 437.0000 1.0000
41.8600 354.0000 1.0000
41.8700 399.0000 1.0000
41.8800 381.0000 1.0000
41.8900 388.0000 1.0000
41.9000 409.0000 1.0000
41.9100 405.0000 1.0000
41.9200 407.0000 1.0000
41.9300 427.0000 1.0000
41.9400 408.0000 1.0000
41.9500 423.0000 1.0000
41.9600 388.0000 1.0000
41.9700 371.0000 1.0000
41.9800 378.0000 1.0000
41.9900 417.0000 1.0000
42.0000 412.0000 1.0000
42.0100 419.0000 1.0000
42.0200 391.0000 1.0000
42.0300 387.0000 1.0000
42.0400 386.0000 1.0000
42.0500 394.0000 1.0000
42.0600 400.0000 1.0000
42.0700 393.0000 1.0000
42.0800 396.0000 1.0000
42.0900 427.0000 1.0000
42.1000 436.0000 1.0000
42.1100 407.0000 1.0000
42.1200 375.0000 1.0000
42.1300 418.0000 1.0000
42.1400 365.0000 1.0000
42.1500 392.0000 1.0000
42.1600 406.0000 1.0000
42.1700 427.0000 1.0000
42.1800 419.0000 1.0000
42.1900 427.0000 1.0000
42.2000 359.0000 1.0000
42.2100 367.0000 1.0000
42.2200 386.0000 1.0000
42.2300 411.0000 1.0000
42.2400 412.0000 1.0000
42.2500 426.0000 1.0000
42.2600 382.0000 1.0000
42.2700 400.0000 1.0000
42.2800 405.0000 1.0000
42.2900 408.0000 1.0000
42.3000 407.0000 1.0000
42.3100 432.0000 1.0000
42.3200 381.0000 1.0000
42.3300 412.0000 1.0000
42.3400 409.0000 1.0000
42.3500 407.0000 1.0000
42.3600 432.0000 1.0000
42.3700 430.0000 1.0000
42.3800 410.0000 1.0000
42.3900 414.0000 1.0000
42.4000 415.0000 1.0000
42.4100 416.0000 1.0000
42.4200 451.0000 1.0000
42.4300 474.0000 1.0000
42.4400 389.0000 1.0000
42.4500 415.0000 1.0000
42.4600 458.0000 1.0000
42.4700 415.0000 1.0000
42.4800 440.0000 1.0000
42.4900 420.0000 1.0000
42.5000 436.0000 1.0000
42.5100 446.0000 1.0000
42.5200 404.0000 1.0000
42.5300 437.0000 1.0000
42.5400 452.0000 1.0000
42.5500 434.0000 1.0000
42.5600 423.0000 1.0000
42.5700 412.0000 1.0000
42.5800 430.0000 1.0000
42.5900 421.0000 1.0000
42.6000 406.0000 1.0000
42.6100 403.0000 1.0000
42.6200 386.0000 1.0000
42.6300 402.0000 1.0000
42.6400 425.0000 1.0000
42.6500 423.0000 1.0000
42.6600 435.0000 1.0000
42.6700 402.0000 1.0000
42.6800 390.0000 1.0000
42.6900 380.0000 1.0000
42.7000 416.0000 1.0000
42.7100 404.0000 1.0000
42.7200 418.0000 1.0000
42.7300 399.0000 1.0000
42.7400 439.0000 1.0000
42.7500 424.0000 1.0000
42.7600 393.0000 1.0000
42.7700 388.0000 1.0000
42.7800 388.0000 1.0000
42.7900 396.0000 1.0000
42.8000 370.0000 1.0000
42.8100 418.0000 1.0000
42.8200 381.0000 1.0000
42.8300 410.0000 1.0000
42.8400 399.0000 1.0000
42.8500 387.0000 1.0000
42.8600 401.0000 1.0000
42.8700 391.0000 1.0000
42.8800 414.0000 1.0000
42.8900 387.0000 1.0000
42.9000 391.0000 1.0000
42.9100 424.0000 1.0000
42.9200 407.0000 1.0000
42.9300 379.0000 1.0000
42.9400 371.0000 1.0000
42.9500 367.0000 1.0000
42.9600 397.0000 1.0000
42.9700 405.0000 1.0000
42.9800 405.0000 1.0000
42.9900 372.0000 1.0000
43.0000 373.0000 1.0000
43.0100 374.0000 1.0000
43.0200 386.0000 1.0000
43.0300 376.0000 1.0000
43.0400 370.0000 1.0000
43.0500 368.0000 1.0000
43.0600 394.0000 1.0000
43.0700 391.0000 1.0000
43.0800 374.0000 1.0000
43.0900 375.0000 1.0000
43.1000 382.0000 1.0000
43.1100 387.0000 1.0000
43.1200 393.0000 1.0000
43.1300 417.0000 1.0000
43.1400 394.0000 1.0000
43.1500 347.0000 1.0000
43.1600 380.0000 1.0000
43.1700 393.0000 1.0000
43.1800 407.0000 1.0000
43.1900 383.0000 1.0000
43.2000 413.0000 1.0000
43.2100 393.0000 1.0000
43.2200 381.0000 1.0000
43.2300 381.0000 1.0000
43.2400 368.0000 1.0000
43.2500 383.0000 1.0000
43.2600 404.0000 1.0000
43.2700 383.0000 1.0000
43.2800 413.0000 1.0000
43.2900 384.0000 1.0000
43.3000 410.0000 1.0000
43.3100 400.0000 1.0000
43.3200 403.0000 1.0000
43.3300 426.0000 1.0000
43.3400 372.0000 1.0000
43.3500 427.0000 1.0000
43.3600 388.0000 1.0000
43.3700 366.0000 1.0000
43.3800 390.0000 1.0000
43.3900 396.0000 1.0000
43.4000 398.0000 1.0000
43.4100 406.0000 1.0000
43.4200 406.0000 1.0000
43.4300 390.0000 1.0000
43.4400 424.0000 1.0000
43.4500 390.0000 1.0000
43.4600 410.0000 1.0000
43.4700 404.0000 1.0000
43.4800 406.0000 1.0000
43.4900 420.0000 1.0000
43.5000 410.0000 1.0000
43.5100 389.0000 1.0000
43.5200 402.0000 1.0000
43.5300 418.0000 1.0000
43.5400 406.0000 1.0000
43.5500 418.0000 1.0000
43.5600 389.0000 1.0000
43.5700 384.0000 1.0000
43.5800 367.0000 1.0000
43.5900 379.0000 1.0000
43.6000 391.0000 1.0000
43.6100 381.0000 1.0000
43.6200 386.0000 1.0000
43.6300 388.0000 1.0000
43.6400 372.0000 1.0000
43.6500 402.0000 1.0000
43.6600 343.0000 1.0000
43.6700 380.0000 1.0000
43.6800 397.0000 1.0000
43.6900 374.0000 1.0000
43.7000 376.0000 1.0000
43.7100 361.0000 1.0000
43.7200 367.0000 1.0000
43.7300 360.0000 1.0000
43.7400 391.0000 1.0000
43.7500 362.0000 1.0000
43.7600 380.0000 1.0000
43.7700 373.0000 1.0000
43.7800 375.0000 1.0000
43.7900 402.0000 1.0000
43.8000 346.0000 1.0000
43.8100 359.0000 1.0000
43.8200 430.0000 1.0000
43.8300 370.0000 1.0000
43.8400 369.0000 1.0000
43.8500 367.0000 1.0000
43.8600 396.0000 1.0000
43.8700 397.0000 1.0000
43.8800 389.0000 1.0000
43.8900 362.0000 1.0000
43.9000 377.0000 1.0000
43.9100 397.0000 1.0000
43.9200 378.0000 1.0000
43.9300 403.0000 1.0000
43.9400 384.0000 1.0000
43.9500 370.0000 1.0000
43.9600 400.0000 1.0000
43.9700 384.0000 1.0000
43.9800 358.0000 1.0000
43.9900 356.0000 1.0000
44.0000 397.0000 1.0000
44.0100 376.0000 1.0000
44.0200 353.0000 1.0000
44.0300 397.0000 1.0000
44.0400 373.0000 1.0000
44.0500 385.0000 1.0000
44.0600 379.0000 1.0000
44.0700 383.0000 1.0000
44.0800 405.0000 1.0000
44.0900 406.0000 1.0000
44.1000 407.0000 1.0000
44.1100 396.0000 1.0000
44.1200 376.0000 1.0000
44.1300 377.0000 1.0000
44.1400 372.0000 1.0000
44.1500 375.0000 1.0000
44.1600 366.0000 1.0000
44.1700 390.0000 1.0000
44.1800 394.0000 1.0000
44.1900 373.0000 1.0000
44.2000 384.0000 1.0000
44.2100 360.0000 1.0000
44.2200 352.0000 1.0000
44.2300 363.0000 1.0000
44.2400 361.0000 1.0000
44.2500 376.0000 1.0000
44.2600 379.0000 1.0000
44.2700 399.0000 1.0000
44.2800 409.0000 1.0000
44.2900 376.0000 1.0000
44.3000 366.0000 1.0000
44.3100 357.0000 1.0000
44.3200 377.0000 1.0000
44.3300 387.0000 1.0000
44.3400 408.0000 1.0000
44.3500 375.0000 1.0000
44.3600 384.0000 1.0000
44.3700 392.0000 1.0000
44.3800 372.0000 1.0000
44.3900 358.0000 1.0000
44.4000 389.0000 1.0000
44.4100 358.0000 1.0000
44.4200 386.0000 1.0000
44.4300 386.0000 1.0000
44.4400 355.0000 1.0000
44.4500 370.0000 1.0000
44.4600 391.0000 1.0000
44.4700 372.0000 1.0000
44.4800 366.0000 1.0000
44.4900 388.0000 1.0000
44.5000 387.0000 1.0000
44.5100 371.0000 1.0000
44.5200 403.0000 1.0000
44.5300 392.0000 1.0000
44.5400 366.0000 1.0000
44.5500 396.0000 1.0000
44.5600 383.0000 1.0000
44.5700 384.0000 1.0000
44.5800 375.0000 1.0000
44.5900 395.0000 1.0000
44.6000 385.0000 1.0000
44.6100 371.0000 1.0000
44.6200 371.0000 1.0000
44.6300 413.0000 1.0000
44.6400 366.0000 1.0000
44.6500 382.0000 1.0000
44.6600 375.0000 1.0000
44.6700 383.0000 1.0000
44.6800 374.0000 1.0000
44.6900 364.0000 1.0000
44.7000 384.0000 1.0000
44.7100 331.0000 1.0000
44.7200 359.0000 1.0000
44.7300 392.0000 1.0000
44.7400 378.0000 1.0000
44.7500 373.0000 1.0000
44.7600 384.0000 1.0000
44.7700 390.0000 1.0000
44.7800 371.0000 1.0000
44.7900 361.0000 1.0000
44.8000 396.0000 1.0000
44.8100 370.0000 1.0000
44.8200 335.0000 1.0000
44.8300 376.0000 1.0000
44.8400 352.0000 1.0000
44.8500 360.0000 1.0000
44.8600 363.0000 1.0000
44.8700 365.0000 1.0000
44.8800 383.0000 1.0000
44.8900 377.0000 1.0000
44.9000 376.0000 1.0000
44.9100 374.0000 1.0000
44.9200 377.0000 1.0000
44.9300 344.0000 1.0000
44.9400 364.0000 1.0000
44.9500 377.0000 1.0000
44.9600 392.0000 1.0000
44.9700 389.0000 1.0000
44.9800 392.0000 1.0000
44.9900 341.0000 1.0000
45.0000 367.0000 1.0000
45.0100 378.0000 1.0000
45.0200 370.0000 1.0000
45.0300 386.0000 1.0000
45.0400 358.0000 1.0000
45.0500 381.0000 1.0000
45.0600 372.0000 1.0000
45.0700 338.0000 1.0000
45.0800 365.0000 1.0000
45.0900 347.0000 1.0000
45.1000 373.0000 1.0000
45.1100 360.0000 1.0000
45.1200 345.0000 1.0000
45.1300 382.0000 1.0000
45.1400 377.0000 1.0000
45.1500 389.0000 1.0000
45.1600 379.0000 1.0000
45.1700 403.0000 1.0000
45.1800 382.0000 1.0000
45.1900 357.0000 1.0000
45.2000 352.0000 1.0000
45.2100 397.0000 1.0000
45.2200 365.0000 1.0000
45.2300 369.0000 1.0000
45.2400 327.0000 1.0000
45.2500 342.0000 1.0000
45.2600 378.0000 1.0000
45.2700 371.0000 1.0000
45.2800 414.0000 1.0000
45.2900 373.0000 1.0000
45.3000 330.0000 1.0000
45.3100 356.0000 1.0000
45.3200 339.0000 1.0000
45.3300 368.0000 1.0000
45.3400 393.0000 1.0000
45.3500 383.0000 1.0000
45.3600 401.0000 1.0000
45.3700 359.0000 1.0000
45.3800 367.0000 1.0000
45.3900 354.0000 1.0000
45.4000 357.0000 1.0000
45.4100 379.0000 1.0000
45.4200 388.0000 1.0000
45.4300 396.0000 1.0000
45.4400 371.0000 1.0000
45.4500 382.0000 1.0000
45.4600 374.0000 1.0000
45.4700 380.0000 1.0000
45.4800 387.0000 1.0000
45.4900 369.0000 1.0000
45.5000 364.0000 1.0000
45.5100 347.0000 1.0000
45.5200 351.0000 1.0000
45.5300 385.0000 1.0000
45.5400 351.0000 1.0000
45.5500 329.0000 1.0000
45.5600 342.0000 1.0000
45.5700 344.0000 1.0000
45.5800 373.0000 1.0000
45.5900 379.0000 1.0000
45.6000 381.0000 1.0000
45.6100 366.0000 1.0000
45.6200 364.0000 1.0000
45.6300 370.0000 1.0000
45.6400 319.0000 1.0000
45.6500 381.0000 1.0000
45.6600 359.0000 1.0000
45.6700 358.0000 1.0000
45.6800 380.0000 1.0000
45.6900 370.0000 1.0000
45.7000 368.0000 1.0000
45.7100 361.0000 1.0000
45.7200 374.0000 1.0000
45.7300 388.0000 1.0000
45.7400 385.0000 1.0000
45.7500 354.0000 1.0000
45.7600 367.0000 1.0000
45.7700 386.0000 1.0000
45.7800 357.0000 1.0000
45.7900 373.0000 1.0000
45.8000 394.0000 1.0000
45.8100 368.0000 1.0000
45.8200 371.0000 1.0000
45.8300 343.0000 1.0000
45.8400 381.0000 1.0000
45.8500 333.0000 1.0000
45.8600 377.0000 1.0000
45.8700 412.0000 1.0000
45.8800 365.0000 1.0000
45.8900 323.0000 1.0000
45.9000 363.0000 1.0000
45.9100 359.0000 1.0000
45.9200 387.0000 1.0000
45.9300 370.0000 1.0000
45.9400 360.0000 1.0000
45.9500 341.0000 1.0000
45.9600 358.0000 1.0000
45.9700 388.0000 1.0000
45.9800 366.0000 1.0000
45.9900 350.0000 1.0000
46.0000 346.0000 1.0000
46.0100 357.0000 1.0000
46.0200 356.0000 1.0000
46.0300 379.0000 1.0000
46.0400 373.0000 1.0000
46.0500 368.0000 1.0000
46.0600 358.0000 1.0000
46.0700 389.0000 1.0000
46.0800 361.0000 1.0000
46.0900 373.0000 1.0000
46.1000 374.0000 1.0000
46.1100 348.0000 1.0000
46.1200 351.0000 1.0000
46.1300 403.0000 1.0000
46.1400 380.0000 1.0000
46.1500 350.0000 1.0000
46.1600 373.0000 1.0000
46.1700 384.0000 1.0000
46.1800 359.0000 1.0000
46.1900 370.0000 1.0000
46.2000 364.0000 1.0000
46.2100 385.0000 1.0000
46.2200 369.0000 1.0000
46.2300 378.0000 1.0000
46.2400 348.0000 1.0000
46.2500 361.0000 1.0000
46.2600 348.0000 1.0000
46.2700 383.0000 1.0000
46.2800 373.0000 1.0000
46.2900 368.0000 1.0000
46.3000 390.0000 1.0000
46.3100 383.0000 1.0000
46.3200 379.0000 1.0000
46.3300 348.0000 1.0000
46.3400 382.0000 1.0000
46.3500 369.0000 1.0000
46.3600 347.0000 1.0000
46.3700 345.0000 1.0000
46.3800 340.0000 1.0000
46.3900 331.0000 1.0000
46.4000 353.0000 1.0000
46.4100 360.0000 1.0000
46.4200 360.0000 1.0000
46.4300 376.0000 1.0000
46.4400 390.0000 1.0000
46.4500 367.0000 1.0000
46.4600 357.0000 1.0000
46.4700 333.0000 1.0000
46.4800 392.0000 1.0000
46.4900 378.0000 1.0000
46.5000 367.0000 1.0000
46.5100 368.0000 1.0000
46.5200 370.0000 1.0000
46.5300 365.0000 1.0000
46.5400 357.0000 1.0000
46.5500 361.0000 1.0000
46.5600 358.0000 1.0000
46.5700 374.0000 1.0000
46.5800 343.0000 1.0000
46.5900 343.0000 1.0000
46.6000 372.0000 1.0000
46.6100 355.0000 1.0000
46.6200 365.0000 1.0000
46.6300 345.0000 1.0000
46.6400 363.0000 1.0000
46.6500 358.0000 1.0000
46.6600 345.0000 1.0000
46.6700 352.0000 1.0000
46.6800 363.0000 1.0000
46.6900 351.0000 1.0000
46.7000 341.0000 1.0000
46.7100 364.0000 1.0000
46.7200 351.0000 1.0000
46.7300 376.0000 1.0000
46.7400 346.0000 1.0000
46.7500 331.0000 1.0000
46.7600 355.0000 1.0000
46.7700 363.0000 1.0000
46.7800 372.0000 1.0000
46.7900 357.0000 1.0000
46.8000 356.0000 1.0000
46.8100 382.0000 1.0000
46.8200 393.0000 1.0000
46.8300 366.0000 1.0000
46.8400 339.0000 1.0000
46.8500 345.0000 1.0000
46.8600 370.0000 1.0000
46.8700 342.0000 1.0000
46.8800 346.0000 1.0000
46.8900 342.0000 1.0000
46.9000 336.0000 1.0000
46.9100 363.0000 1.0000
46.9200 340.0000 1.0000
46.9300 363.0000 1.0000
46.9400 354.0000 1.0000
46.9500 367.0000 1.0000
46.9600 332.0000 1.0000
46.9700 340.0000 1.0000
46.9800 363.0000 1.0000
46.9900 359.0000 1.0000
47.0000 348.0000 1.0000
47.0100 329.0000 1.0000
47.0200 334.0000 1.0000
47.0300 322.0000 1.0000
47.0400 339.0000 1.0000
47.0500 354.0000 1.0000
47.0600 368.0000 1.0000
47.0700 372.0000 1.0000
47.0800 351.0000 1.0000
47.0900 360.0000 1.0000
47.1000 362.0000 1.0000
47.1100 340.0000 1.0000
47.1200 340.0000 1.0000
47.1300 353.0000 1.0000
47.1400 355.0000 1.0000
47.1500 373.0000 1.0000
47.1600 359.0000 1.0000
47.1700 348.0000 1.0000
47.1800 360.0000 1.0000
47.1900 349.0000 1.0000
47.2000 363.0000 1.0000
47.2100 348.0000 1.0000
47.2200 355.0000 1.0000
47.2300 370.0000 1.0000
47.2400 374.0000 1.0000
47.2500 339.0000 1.0000
47.2600 324.0000 1.0000
47.2700 341.0000 1.0000
47.2800 341.0000 1.0000
47.2900 377.0000 1.0000
47.3000 347.0000 1.0000
47.3100 320.0000 1.0000
47.3200 343.0000 1.0000
47.3300 371.0000 1.0000
47.3400 345.0000 1.0000
47.3500 359.0000 1.0000
47.3600 322.0000 1.0000
47.3700 361.0000 1.0000
47.3800 351.0000 1.0000
47.3900 337.0000 1.0000
47.4000 349.0000 1.0000
47.4100 354.0000 1.0000
47.4200 336.0000 1.0000
47.4300 351.0000 1.0000
47.4400 333.0000 1.0000
47.4500 338.0000 1.0000
47.4600 348.0000 1.0000
47.4700 338.0000 1.0000
47.4800 337.0000 1.0000
47.4900 362.0000 1.0000
47.5000 376.0000 1.0000
47.5100 350.0000 1.0000
47.5200 360.0000 1.0000
47.5300 368.0000 1.0000
47.5400 342.0000 1.0000
47.5500 353.0000 1.0000
47.5600 351.0000 1.0000
47.5700 359.0000 1.0000
47.5800 323.0000 1.0000
47.5900 330.0000 1.0000
47.6000 336.0000 1.0000
47.6100 316.0000 1.0000
47.6200 332.0000 1.0000
47.6300 323.0000 1.0000
47.6400 355.0000 1.0000
47.6500 321.0000 1.0000
47.6600 314.0000 1.0000
47.6700 325.0000 1.0000
47.6800 329.0000 1.0000
47.6900 384.0000 1.0000
47.7000 349.0000 1.0000
47.7100 342.0000 1.0000
47.7200 344.0000 1.0000
47.7300 347.0000 1.0000
47.7400 328.0000 1.0000
47.7500 325.0000 1.0000
47.7600 372.0000 1.0000
47.7700 344.0000 1.0000
47.7800 358.0000 1.0000
47.7900 366.0000 1.0000
47.8000 369.0000 1.0000
47.8100 328.0000 1.0000
47.8200 357.0000 1.0000
47.8300 364.0000 1.0000
47.8400 345.0000 1.0000
47.8500 333.0000 1.0000
47.8600 338.0000 1.0000
47.8700 361.0000 1.0000
47.8800 341.0000 1.0000
47.8900 345.0000 1.0000
47.9000 346.0000 1.0000
47.9100 320.0000 1.0000
47.9200 313.0000 1.0000
47.9300 350.0000 1.0000
47.9400 346.0000 1.0000
47.9500 355.0000 1.0000
47.9600 355.0000 1.0000
47.9700 334.0000 1.0000
47.9800 315.0000 1.0000
47.9900 327.0000 1.0000
48.0000 352.0000 1.0000
48.0100 357.0000 1.0000
48.0200 357.0000 1.0000
48.0300 303.0000 1.0000
48.0400 338.0000 1.0000
48.0500 341.0000 1.0000
48.0600 387.0000 1.0000
48.0700 326.0000 1.0000
48.0800 324.0000 1.0000
48.0900 347.0000 1.0000
48.1000 341.0000 1.0000
48.1100 337.0000 1.0000
48.1200 345.0000 1.0000
48.1300 363.0000 1.0000
48.1400 312.0000 1.0000
48.1500 318.0000 1.0000
48.1600 341.0000 1.0000
48.1700 340.0000 1.0000
48.1800 336.0000 1.0000
48.1900 326.0000 1.0000
48.2000 330.0000 1.0000
48.2100 375.0000 1.0000
48.2200 330.0000 1.0000
48.2300 334.0000 1.0000
48.2400 370.0000 1.0000
48.2500 346.0000 1.0000
48.2600 357.0000 1.0000
48.2700 347.0000 1.0000
48.2800 344.0000 1.0000
48.2900 346.0000 1.0000
48.3000 361.0000 1.0000
48.3100 346.0000 1.0000
48.3200 315.0000 1.0000
48.3300 320.0000 1.0000
48.3400 351.0000 1.0000
48.3500 340.0000 1.0000
48.3600 371.0000 1.0000
48.3700 310.0000 1.0000
48.3800 347.0000 1.0000
48.3900 334.0000 1.0000
48.4000 338.0000 1.0000
48.4100 362.0000 1.0000
48.4200 348.0000 1.0000
48.4300 337.0000 1.0000
48.4400 346.0000 1.0000
48.4500 354.0000 1.0000
48.4600 364.0000 1.0000
48.4700 338.0000 1.0000
48.4800 351.0000 1.0000
48.4900 358.0000 1.0000
48.5000 357.0000 1.0000
48.5100 348.0000 1.0000
48.5200 334.0000 1.0000
48.5300 337.0000 1.0000
48.5400 320.0000 1.0000
48.5500 345.0000 1.0000
48.5600 347.0000 1.0000
48.5700 320.0000 1.0000
48.5800 332.0000 1.0000
48.5900 319.0000 1.0000
48.6000 325.0000 1.0000
48.6100 360.0000 1.0000
48.6200 306.0000 1.0000
48.6300 324.0000 1.0000
48.6400 341.0000 1.0000
48.6500 317.0000 1.0000
48.6600 300.0000 1.0000
48.6700 346.0000 1.0000
48.6800 344.0000 1.0000
48.6900 315.0000 1.0000
48.7000 321.0000 1.0000
48.7100 334.0000 1.0000
48.7200 313.0000 1.0000
48.7300 307.0000 1.0000
48.7400 320.0000 1.0000
48.7500 325.0000 1.0000
48.7600 332.0000 1.0000
48.7700 342.0000 1.0000
48.7800 355.0000 1.0000
48.7900 315.0000 1.0000
48.8000 342.0000 1.0000
48.8100 331.0000 1.0000
48.8200 334.0000 1.0000
48.8300 304.0000 1.0000
48.8400 340.0000 1.0000
48.8500 352.0000 1.0000
48.8600 326.0000 1.0000
48.8700 354.0000 1.0000
48.8800 329.0000 1.0000
48.8900 340.0000 1.0000
48.9000 302.0000 1.0000
48.9100 324.0000 1.0000
48.9200 363.0000 1.0000
48.9300 354.0000 1.0000
48.9400 338.0000 1.0000
48.9500 337.0000 1.0000
48.9600 347.0000 1.0000
48.9700 323.0000 1.0000
48.9800 314.0000 1.0000
48.9900 333.0000 1.0000
49.0000 354.0000 1.0000
49.0100 301.0000 1.0000
49.0200 342.0000 1.0000
49.0300 360.0000 1.0000
49.0400 337.0000 1.0000
49.0500 356.0000 1.0000
49.0600 346.0000 1.0000
49.0700 318.0000 1.0000
49.0800 321.0000 1.0000
49.0900 330.0000 1.0000
49.1000 315.0000 1.0000
49.1100 310.0000 1.0000
49.1200 353.0000 1.0000
49.1300 352.0000 1.0000
49.1400 324.0000 1.0000
49.1500 347.0000 1.0000
49.1600 330.0000 1.0000
49.1700 388.0000 1.0000
49.1800 376.0000 1.0000
49.1900 331.0000 1.0000
49.2000 341.0000 1.0000
49.2100 341.0000 1.0000
49.2200 328.0000 1.0000
49.2300 354.0000 1.0000
49.2400 343.0000 1.0000
49.2500 353.0000 1.0000
49.2600 358.0000 1.0000
49.2700 350.0000 1.0000
49.2800 350.0000 1.0000
49.2900 387.0000 1.0000
49.3000 378.0000 1.0000
49.3100 389.0000 1.0000
49.3200 345.0000 1.0000
49.3300 377.0000 1.0000
49.3400 376.0000 1.0000
49.3500 353.0000 1.0000
49.3600 342.0000 1.0000
49.3700 348.0000 1.0000
49.3800 371.0000 1.0000
49.3900 375.0000 1.0000
49.4000 372.0000 1.0000
49.4100 372.0000 1.0000
49.4200 391.0000 1.0000
49.4300 411.0000 1.0000
49.4400 364.0000 1.0000
49.4500 385.0000 1.0000
49.4600 362.0000 1.0000
49.4700 373.0000 1.0000
49.4800 388.0000 1.0000
49.4900 347.0000 1.0000
49.5000 333.0000 1.0000
49.5100 381.0000 1.0000
49.5200 379.0000 1.0000
49.5300 375.0000 1.0000
49.5400 349.0000 1.0000
49.5500 365.0000 1.0000
49.5600 362.0000 1.0000
49.5700 355.0000 1.0000
49.5800 366.0000 1.0000
49.5900 385.0000 1.0000
49.6000 379.0000 1.0000
49.6100 336.0000 1.0000
49.6200 380.0000 1.0000
49.6300 386.0000 1.0000
49.6400 361.0000 1.0000
49.6500 353.0000 1.0000
49.6600 375.0000 1.0000
49.6700 344.0000 1.0000
49.6800 344.0000 1.0000
49.6900 400.0000 1.0000
49.7000 358.0000 1.0000
49.7100 319.0000 1.0000
49.7200 337.0000 1.0000
49.7300 366.0000 1.0000
49.7400 364.0000 1.0000
49.7500 346.0000 1.0000
49.7600 359.0000 1.0000
49.7700 344.0000 1.0000
49.7800 385.0000 1.0000
49.7900 347.0000 1.0000
49.8000 368.0000 1.0000
49.8100 335.0000 1.0000
49.8200 357.0000 1.0000
49.8300 357.0000 1.0000
49.8400 338.0000 1.0000
49.8500 337.0000 1.0000
49.8600 336.0000 1.0000
49.8700 331.0000 1.0000
49.8800 355.0000 1.0000
49.8900 338.0000 1.0000
49.9000 332.0000 1.0000
49.9100 343.0000 1.0000
49.9200 368.0000 1.0000
49.9300 338.0000 1.0000
49.9400 331.0000 1.0000
49.9500 375.0000 1.0000
49.9600 326.0000 1.0000
49.9700 318.0000 1.0000
49.9800 343.0000 1.0000
49.9900 322.0000 1.0000
50.0000 337.0000 1.0000
50.0100 344.0000 1.0000
50.0200 335.0000 1.0000
50.0300 337.0000 1.0000
50.0400 340.0000 1.0000
50.0500 340.0000 1.0000
50.0600 363.0000 1.0000
50.0700 378.0000 1.0000
50.0800 347.0000 1.0000
50.0900 347.0000 1.0000
50.1000 372.0000 1.0000
50.1100 330.0000 1.0000
50.1200 359.0000 1.0000
50.1300 350.0000 1.0000
50.1400 359.0000 1.0000
50.1500 348.0000 1.0000
50.1600 332.0000 1.0000
50.1700 341.0000 1.0000
50.1800 346.0000 1.0000
50.1900 331.0000 1.0000
50.2000 350.0000 1.0000
50.2100 361.0000 1.0000
50.2200 355.0000 1.0000
50.2300 358.0000 1.0000
50.2400 334.0000 1.0000
50.2500 353.0000 1.0000
50.2600 307.0000 1.0000
50.2700 343.0000 1.0000
50.2800 342.0000 1.0000
50.2900 364.0000 1.0000
50.3000 352.0000 1.0000
50.3100 334.0000 1.0000
50.3200 350.0000 1.0000
50.3300 356.0000 1.0000
50.3400 361.0000 1.0000
50.3500 365.0000 1.0000
50.3600 360.0000 1.0000
50.3700 349.0000 1.0000
50.3800 348.0000 1.0000
50.3900 348.0000 1.0000
50.4000 362.0000 1.0000
50.4100 330.0000 1.0000
50.4200 332.0000 1.0000
50.4300 363.0000 1.0000
50.4400 361.0000 1.0000
50.4500 345.0000 1.0000
50.4600 345.0000 1.0000
50.4700 345.0000 1.0000
50.4800 367.0000 1.0000
50.4900 366.0000 1.0000
50.5000 349.0000 1.0000
50.5100 325.0000 1.0000
50.5200 359.0000 1.0000
50.5300 342.0000 1.0000
50.5400 333.0000 1.0000
50.5500 351.0000 1.0000
50.5600 365.0000 1.0000
50.5700 375.0000 1.0000
50.5800 373.0000 1.0000
50.5900 347.0000 1.0000
50.6000 327.0000 1.0000
50.6100 348.0000 1.0000
50.6200 346.0000 1.0000
50.6300 337.0000 1.0000
50.6400 337.0000 1.0000
50.6500 330.0000 1.0000
50.6600 338.0000 1.0000
50.6700 346.0000 1.0000
50.6800 346.0000 1.0000
50.6900 329.0000 1.0000
50.7000 318.0000 1.0000
50.7100 347.0000 1.0000
50.7200 391.0000 1.0000
50.7300 377.0000 1.0000
50.7400 346.0000 1.0000
50.7500 343.0000 1.0000
50.7600 355.0000 1.0000
50.7700 337.0000 1.0000
50.7800 326.0000 1.0000
50.7900 325.0000 1.0000
50.8000 356.0000 1.0000
50.8100 339.0000 1.0000
50.8200 345.0000 1.0000
50.8300 341.0000 1.0000
50.8400 343.0000 1.0000
50.8500 361.0000 1.0000
50.8600 308.0000 1.0000
50.8700 340.0000 1.0000
50.8800 347.0000 1.0000
50.8900 338.0000 1.0000
50.9000 375.0000 1.0000
50.9100 377.0000 1.0000
50.9200 359.0000 1.0000
50.9300 338.0000 1.0000
50.9400 367.0000 1.0000
50.9500 360.0000 1.0000
50.9600 363.0000 1.0000
50.9700 389.0000 1.0000
50.9800 375.0000 1.0000
50.9900 373.0000 1.0000
51.0000 372.0000 1.0000
51.0100 374.0000 1.0000
51.0200 403.0000 1.0000
51.0300 366.0000 1.0000
51.0400 384.0000 1.0000
51.0500 370.0000 1.0000
51.0600 364.0000 1.0000
51.0700 359.0000 1.0000
51.0800 406.0000 1.0000
51.0900 410.0000 1.0000
51.1000 432.0000 1.0000
51.1100 430.0000 1.0000
51.1200 431.0000 1.0000
51.1300 428.0000 1.0000
51.1400 417.0000 1.0000
51.1500 462.0000 1.0000
51.1600 471.0000 1.0000
51.1700 477.0000 1.0000
51.1800 501.0000 1.0000
51.1900 457.0000 1.0000
51.2000 497.0000 1.0000
51.2100 500.0000 1.0000
51.2200 523.0000 1.0000
51.2300 524.0000 1.0000
51.2400 558.0000 1.0000
51.2500 586.0000 1.0000
51.2600 623.0000 1.0000
51.2700 641.0000 1.0000
51.2800 673.0000 1.0000
51.2900 712.0000 1.0000
51.3000 714.0000 1.0000
51.3100 771.0000 1.0000
51.3200 807.0000 1.0000
51.3300 800.0000 1.0000
51.3400 866.0000 1.0000
51.3500 965.0000 1.0000
51.3600 1040.0000 1.0000
51.3700 1071.0000 1.0000
51.3800 1171.0000 1.0000
51.3900 1362.0000 1.0000
51.4000 1430.0000 1.0000
51.4100 1511.0000 1.0000
51.4200 1604.0000 1.0000
51.4300 1689.0000 1.0000
51.4400 1893.0000 1.0000
51.4500 2039.0000 1.0000
51.4600 2164.0000 1.0000
51.4700 2277.0000 1.0000
51.4800 2313.0000 1.0000
51.4900 2341.0000 1.0000
51.5000 2425.0000 1.0000
51.5100 2377.0000 1.0000
51.5200 2266.0000 1.0000
51.5300 2184.0000 1.0000
51.5400 2196.0000 1.0000
51.5500 2063.0000 1.0000
51.5600 2042.0000 1.0000
51.5700 1932.0000 1.0000
51.5800 1865.0000 1.0000
51.5900 1854.0000 1.0000
51.6000 1817.0000 1.0000
51.6100 1773.0000 1.0000
51.6200 1764.0000 1.0000
51.6300 1644.0000 1.0000
51.6400 1611.0000 1.0000
51.6500 1558.0000 1.0000
51.6600 1536.0000 1.0000
51.6700 1402.0000 1.0000
51.6800 1262.0000 1.0000
51.6900 1244.0000 1.0000
51.7000 1109.0000 1.0000
51.7100 983.0000 1.0000
51.7200 965.0000 1.0000
51.7300 931.0000 1.0000
51.7400 850.0000 1.0000
51.7500 802.0000 1.0000
51.7600 704.0000 1.0000
51.7700 728.0000 1.0000
51.7800 693.0000 1.0000
51.7900 639.0000 1.0000
51.8000 627.0000 1.0000
51.8100 583.0000 1.0000
51.8200 545.0000 1.0000
51.8300 560.0000 1.0000
51.8400 538.0000 1.0000
51.8500 511.0000 1.0000
51.8600 475.0000 1.0000
51.8700 502.0000 1.0000
51.8800 495.0000 1.0000
51.8900 456.0000 1.0000
51.9000 465.0000 1.0000
51.9100 482.0000 1.0000
51.9200 449.0000 1.0000
51.9300 407.0000 1.0000
51.9400 427.0000 1.0000
51.9500 457.0000 1.0000
51.9600 432.0000 1.0000
51.9700 452.0000 1.0000
51.9800 419.0000 1.0000
51.9900 387.0000 1.0000
52.0000 391.0000 1.0000
52.0100 414.0000 1.0000
52.0200 413.0000 1.0000
52.0300 377.0000 1.0000
52.0400 416.0000 1.0000
52.0500 397.0000 1.0000
52.0600 384.0000 1.0000
52.0700 383.0000 1.0000
52.0800 378.0000 1.0000
52.0900 401.0000 1.0000
52.1000 388.0000 1.0000
52.1100 364.0000 1.0000
52.1200 345.0000 1.0000
52.1300 375.0000 1.0000
52.1400 390.0000 1.0000
52.1500 381.0000 1.0000
52.1600 380.0000 1.0000
52.1700 397.0000 1.0000
52.1800 390.0000 1.0000
52.1900 384.0000 1.0000
52.2000 370.0000 1.0000
52.2100 362.0000 1.0000
52.2200 361.0000 1.0000
52.2300 365.0000 1.0000
52.2400 350.0000 1.0000
52.2500 371.0000 1.0000
52.2600 373.0000 1.0000
52.2700 344.0000 1.0000
52.2800 387.0000 1.0000
52.2900 362.0000 1.0000
52.3000 390.0000 1.0000
52.3100 377.0000 1.0000
52.3200 344.0000 1.0000
52.3300 347.0000 1.0000
52.3400 383.0000 1.0000
52.3500 363.0000 1.0000
52.3600 359.0000 1.0000
52.3700 361.0000 1.0000
52.3800 336.0000 1.0000
52.3900 338.0000 1.0000
52.4000 361.0000 1.0000
52.4100 338.0000 1.0000
52.4200 382.0000 1.0000
52.4300 346.0000 1.0000
52.4400 355.0000 1.0000
52.4500 346.0000 1.0000
52.4600 346.0000 1.0000
52.4700 334.0000 1.0000
52.4800 342.0000 1.0000
52.4900 346.0000 1.0000
52.5000 341.0000 1.0000
52.5100 327.0000 1.0000
52.5200 334.0000 1.0000
52.5300 337.0000 1.0000
52.5400 339.0000 1.0000
52.5500 353.0000 1.0000
52.5600 306.0000 1.0000
52.5700 330.0000 1.0000
52.5800 344.0000 1.0000
52.5900 337.0000 1.0000
52.6000 349.0000 1.0000
52.6100 338.0000 1.0000
52.6200 373.0000 1.0000
52.6300 331.0000 1.0000
52.6400 339.0000 1.0000
52.6500 365.0000 1.0000
52.6600 341.0000 1.0000
52.6700 328.0000 1.0000
52.6800 354.0000 1.0000
52.6900 335.0000 1.0000
52.7000 330.0000 1.0000
52.7100 342.0000 1.0000
52.7200 334.0000 1.0000
52.7300 344.0000 1.0000
52.7400 347.0000 1.0000
52.7500 320.0000 1.0000
52.7600 314.0000 1.0000
52.7700 313.0000 1.0000
52.7800 355.0000 1.0000
52.7900 348.0000 1.0000
52.8000 375.0000 1.0000
52.8100 337.0000 1.0000
52.8200 364.0000 1.0000
52.8300 344.0000 1.0000
52.8400 337.0000 1.0000
52.8500 350.0000 1.0000
52.8600 350.0000 1.0000
52.8700 357.0000 1.0000
52.8800 338.0000 1.0000
52.8900 346.0000 1.0000
52.9000 330.0000 1.0000
52.9100 325.0000 1.0000
52.9200 307.0000 1.0000
52.9300 332.0000 1.0000
52.9400 334.0000 1.0000
52.9500 323.0000 1.0000
52.9600 357.0000 1.0000
52.9700 322.0000 1.0000
52.9800 315.0000 1.0000
52.9900 333.0000 1.0000
53.0000 333.0000 1.0000
53.0100 310.0000 1.0000
53.0200 353.0000 1.0000
53.0300 313.0000 1.0000
53.0400 352.0000 1.0000
53.0500 329.0000 1.0000
53.0600 334.0000 1.0000
53.0700 331.0000 1.0000
53.0800 334.0000 1.0000
53.0900 323.0000 1.0000
53.1000 343.0000 1.0000
53.1100 348.0000 1.0000
53.1200 316.0000 1.0000
53.1300 341.0000 1.0000
53.1400 325.0000 1.0000
53.1500 331.0000 1.0000
53.1600 346.0000 1.0000
53.1700 319.0000 1.0000
53.1800 343.0000 1.0000
53.1900 335.0000 1.0000
53.2000 328.0000 1.0000
53.2100 314.0000 1.0000
53.2200 324.0000 1.0000
53.2300 357.0000 1.0000
53.2400 345.0000 1.0000
53.2500 335.0000 1.0000
53.2600 358.0000 1.0000
53.2700 329.0000 1.0000
53.2800 346.0000 1.0000
53.2900 330.0000 1.0000
53.3000 334.0000 1.0000
53.3100 328.0000 1.0000
53.3200 328.0000 1.0000
53.3300 352.0000 1.0000
53.3400 341.0000 1.0000
53.3500 361.0000 1.0000
53.3600 313.0000 1.0000
53.3700 329.0000 1.0000
53.3800 302.0000 1.0000
53.3900 335.0000 1.0000
53.4000 345.0000 1.0000
53.4100 344.0000 1.0000
53.4200 353.0000 1.0000
53.4300 350.0000 1.0000
53.4400 329.0000 1.0000
53.4500 346.0000 1.0000
53.4600 321.0000 1.0000
53.4700 343.0000 1.0000
53.4800 331.0000 1.0000
53.4900 331.0000 1.0000
53.5000 330.0000 1.0000
53.5100 333.0000 1.0000
53.5200 334.0000 1.0000
53.5300 315.0000 1.0000
53.5400 331.0000 1.0000
53.5500 321.0000 1.0000
53.5600 345.0000 1.0000
53.5700 330.0000 1.0000
53.5800 320.0000 1.0000
53.5900 323.0000 1.0000
53.6000 320.0000 1.0000
53.6100 308.0000 1.0000
53.6200 345.0000 1.0000
53.6300 314.0000 1.0000
53.6400 334.0000 1.0000
53.6500 335.0000 1.0000
53.6600 338.0000 1.0000
53.6700 325.0000 1.0000
53.6800 326.0000 1.0000
53.6900 321.0000 1.0000
53.7000 329.0000 1.0000
53.7100 307.0000 1.0000
53.7200 317.0000 1.0000
53.7300 326.0000 1.0000
53.7400 327.0000 1.0000
53.7500 325.0000 1.0000
53.7600 342.0000 1.0000
53.7700 340.0000 1.0000
53.7800 323.0000 1.0000
53.7900 337.0000 1.0000
53.8000 332.0000 1.0000
53.8100 343.0000 1.0000
53.8200 359.0000 1.0000
53.8300 340.0000 1.0000
53.8400 336.0000 1.0000
53.8500 353.0000 1.0000
53.8600 343.0000 1.0000
53.8700 311.0000 1.0000
53.8800 331.0000 1.0000
53.8900 321.0000 1.0000
53.9000 321.0000 1.0000
53.9100 315.0000 1.0000
53.9200 349.0000 1.0000
53.9300 363.0000 1.0000
53.9400 371.0000 1.0000
53.9500 365.0000 1.0000
53.9600 376.0000 1.0000
53.9700 355.0000 1.0000
53.9800 384.0000 1.0000
53.9900 370.0000 1.0000
54.0000 368.0000 1.0000
54.0100 362.0000 1.0000
54.0200 380.0000 1.0000
54.0300 392.0000 1.0000
54.0400 359.0000 1.0000
54.0500 383.0000 1.0000
54.0600 357.0000 1.0000
54.0700 359.0000 1.0000
54.0800 376.0000 1.0000
54.0900 385.0000 1.0000
54.1000 357.0000 1.0000
54.1100 370.0000 1.0000
54.1200 382.0000 1.0000
54.1300 376.0000 1.0000
54.1400 378.0000 1.0000
54.1500 378.0000 1.0000
54.1600 388.0000 1.0000
54.1700 379.0000 1.0000
54.1800 372.0000 1.0000
54.1900 339.0000 1.0000
54.2000 366.0000 1.0000
54.2100 328.0000 1.0000
54.2200 336.0000 1.0000
54.2300 375.0000 1.0000
54.2400 340.0000 1.0000
54.2500 352.0000 1.0000
54.2600 387.0000 1.0000
54.2700 390.0000 1.0000
54.2800 383.0000 1.0000
54.2900 388.0000 1.0000
54.3000 369.0000 1.0000
54.3100 415.0000 1.0000
54.3200 353.0000 1.0000
54.3300 406.0000 1.0000
54.3400 392.0000 1.0000
54.3500 408.0000 1.0000
54.3600 407.0000 1.0000
54.3700 389.0000 1.0000
54.3800 389.0000 1.0000
54.3900 397.0000 1.0000
54.4000 405.0000 1.0000
54.4100 442.0000 1.0000
54.4200 425.0000 1.0000
54.4300 460.0000 1.0000
54.4400 452.0000 1.0000
54.4500 463.0000 1.0000
54.4600 458.0000 1.0000
54.4700 484.0000 1.0000
54.4800 441.0000 1.0000
54.4900 464.0000 1.0000
54.5000 489.0000 1.0000
54.5100 461.0000 1.0000
54.5200 479.0000 1.0000
54.5300 503.0000 1.0000
54.5400 488.0000 1.0000
54.5500 492.0000 1.0000
54.5600 465.0000 1.0000
54.5700 475.0000 1.0000
54.5800 494.0000 1.0000
54.5900 471.0000 1.0000
54.6000 453.0000 1.0000
54.6100 510.0000 1.0000
54.6200 476.0000 1.0000
54.6300 450.0000 1.0000
54.6400 442.0000 1.0000
54.6500 438.0000 1.0000
54.6600 436.0000 1.0000
54.6700 452.0000 1.0000
54.6800 437.0000 1.0000
54.6900 433.0000 1.0000
54.7000 443.0000 1.0000
54.7100 422.0000 1.0000
54.7200 424.0000 1.0000
54.7300 383.0000 1.0000
54.7400 404.0000 1.0000
54.7500 393.0000 1.0000
54.7600 401.0000 1.0000
54.7700 389.0000 1.0000
54.7800 354.0000 1.0000
54.7900 388.0000 1.0000
54.8000 375.0000 1.0000
54.8100 377.0000 1.0000
54.8200 376.0000 1.0000
54.8300 374.0000 1.0000
54.8400 396.0000 1.0000
54.8500 359.0000 1.0000
54.8600 354.0000 1.0000
54.8700 342.0000 1.0000
54.8800 380.0000 1.0000
54.8900 358.0000 1.0000
54.9000 362.0000 1.0000
54.9100 338.0000 1.0000
54.9200 343.0000 1.0000
54.9300 326.0000 1.0000
54.9400 332.0000 1.0000
54.9500 359.0000 1.0000
54.9600 348.0000 1.0000
54.9700 342.0000 1.0000
54.9800 324.0000 1.0000
54.9900 333.0000 1.0000
55.0000 335.0000 1.0000
55.0100 358.0000 1.0000
55.0200 344.0000 1.0000
55.0300 319.0000 1.0000
55.0400 329.0000 1.0000
55.0500 349.0000 1.0000
55.0600 330.0000 1.0000
55.0700 340.0000 1.0000
55.0800 364.0000 1.0000
55.0900 333.0000 1.0000
55.1000 315.0000 1.0000
55.1100 346.0000 1.0000
55.1200 342.0000 1.0000
55.1300 296.0000 1.0000
55.1400 336.0000 1.0000
55.1500 316.0000 1.0000
55.1600 338.0000 1.0000
55.1700 306.0000 1.0000
55.1800 328.0000 1.0000
55.1900 331.0000 1.0000
55.2000 331.0000 1.0000
55.2100 324.0000 1.0000
55.2200 333.0000 1.0000
55.2300 311.0000 1.0000
55.2400 320.0000 1.0000
55.2500 321.0000 1.0000
55.2600 313.0000 1.0000
55.2700 323.0000 1.0000
55.2800 300.0000 1.0000
55.2900 314.0000 1.0000
55.3000 327.0000 1.0000
55.3100 307.0000 1.0000
55.3200 339.0000 1.0000
55.3300 365.0000 1.0000
55.3400 304.0000 1.0000
55.3500 323.0000 1.0000
55.3600 334.0000 1.0000
55.3700 320.0000 1.0000
55.3800 323.0000 1.0000
55.3900 338.0000 1.0000
55.4000 301.0000 1.0000
55.4100 291.0000 1.0000
55.4200 307.0000 1.0000
55.4300 305.0000 1.0000
55.4400 333.0000 1.0000
55.4500 323.0000 1.0000
55.4600 320.0000 1.0000
55.4700 314.0000 1.0000
55.4800 316.0000 1.0000
55.4900 328.0000 1.0000
55.5000 295.0000 1.0000
55.5100 343.0000 1.0000
55.5200 322.0000 1.0000
55.5300 333.0000 1.0000
55.5400 326.0000 1.0000
55.5500 347.0000 1.0000
55.5600 311.0000 1.0000
55.5700 299.0000 1.0000
55.5800 293.0000 1.0000
55.5900 309.0000 1.0000
55.6000 320.0000 1.0000
55.6100 312.0000 1.0000
55.6200 318.0000 1.0000
55.6300 311.0000 1.0000
55.6400 304.0000 1.0000
55.6500 308.0000 1.0000
55.6600 322.0000 1.0000
55.6700 325.0000 1.0000
55.6800 328.0000 1.0000
55.6900 315.0000 1.0000
55.7000 320.0000 1.0000
55.7100 308.0000 1.0000
55.7200 354.0000 1.0000
55.7300 331.0000 1.0000
55.7400 327.0000 1.0000
55.7500 322.0000 1.0000
55.7600 329.0000 1.0000
55.7700 298.0000 1.0000
55.7800 330.0000 1.0000
55.7900 310.0000 1.0000
55.8000 346.0000 1.0000
55.8100 314.0000 1.0000
55.8200 340.0000 1.0000
55.8300 288.0000 1.0000
55.8400 344.0000 1.0000
55.8500 318.0000 1.0000
55.8600 304.0000 1.0000
55.8700 328.0000 1.0000
55.8800 330.0000 1.0000
55.8900 332.0000 1.0000
55.9000 348.0000 1.0000
55.9100 302.0000 1.0000
55.9200 332.0000 1.0000
55.9300 309.0000 1.0000
55.9400 325.0000 1.0000
55.9500 292.0000 1.0000
55.9600 291.0000 1.0000
55.9700 294.0000 1.0000
55.9800 286.0000 1.0000
55.9900 343.0000 1.0000
56.0000 302.0000 1.0000
56.0100 320.0000 1.0000
56.0200 311.0000 1.0000
56.0300 353.0000 1.0000
56.0400 311.0000 1.0000
56.0500 339.0000 1.0000
56.0600 349.0000 1.0000
56.0700 324.0000 1.0000
56.0800 325.0000 1.0000
56.0900 320.0000 1.0000
56.1000 332.0000 1.0000
56.1100 340.0000 1.0000
56.1200 309.0000 1.0000
56.1300 310.0000 1.0000
56.1400 312.0000 1.0000
56.1500 337.0000 1.0000
56.1600 349.0000 1.0000
56.1700 315.0000 1.0000
56.1800 319.0000 1.0000
56.1900 288.0000 1.0000
56.2000 308.0000 1.0000
56.2100 306.0000 1.0000
56.2200 320.0000 1.0000
56.2300 334.0000 1.0000
56.2400 328.0000 1.0000
56.2500 339.0000 1.0000
56.2600 322.0000 1.0000
56.2700 320.0000 1.0000
56.2800 325.0000 1.0000
56.2900 324.0000 1.0000
56.3000 331.0000 1.0000
56.3100 340.0000 1.0000
56.3200 330.0000 1.0000
56.3300 306.0000 1.0000
56.3400 316.0000 1.0000
56.3500 282.0000 1.0000
56.3600 327.0000 1.0000
56.3700 326.0000 1.0000
56.3800 316.0000 1.0000
56.3900 344.0000 1.0000
56.4000 294.0000 1.0000
56.4100 299.0000 1.0000
56.4200 314.0000 1.0000
56.4300 289.0000 1.0000
56.4400 312.0000 1.0000
56.4500 310.0000 1.0000
56.4600 323.0000 1.0000
56.4700 308.0000 1.0000
56.4800 315.0000 1.0000
56.4900 311.0000 1.0000
56.5000 305.0000 1.0000
56.5100 335.0000 1.0000
56.5200 314.0000 1.0000
56.5300 333.0000 1.0000
56.5400 307.0000 1.0000
56.5500 316.0000 1.0000
56.5600 342.0000 1.0000
56.5700 323.0000 1.0000
56.5800 309.0000 1.0000
56.5900 308.0000 1.0000
56.6000 305.0000 1.0000
56.6100 329.0000 1.0000
56.6200 315.0000 1.0000
56.6300 322.0000 1.0000
56.6400 330.0000 1.0000
56.6500 322.0000 1.0000
56.6600 291.0000 1.0000
56.6700 294.0000 1.0000
56.6800 296.0000 1.0000
56.6900 287.0000 1.0000
56.7000 304.0000 1.0000
56.7100 312.0000 1.0000
56.7200 311.0000 1.0000
56.7300 303.0000 1.0000
56.7400 300.0000 1.0000
56.7500 311.0000 1.0000
56.7600 322.0000 1.0000
56.7700 330.0000 1.0000
56.7800 295.0000 1.0000
56.7900 309.0000 1.0000
56.8000 298.0000 1.0000
56.8100 347.0000 1.0000
56.8200 317.0000 1.0000
56.8300 316.0000 1.0000
56.8400 333.0000 1.0000
56.8500 332.0000 1.0000
56.8600 313.0000 1.0000
56.8700 280.0000 1.0000
56.8800 313.0000 1.0000
56.8900 310.0000 1.0000
56.9000 326.0000 1.0000
56.9100 350.0000 1.0000
56.9200 329.0000 1.0000
56.9300 341.0000 1.0000
56.9400 328.0000 1.0000
56.9500 289.0000 1.0000
56.9600 317.0000 1.0000
56.9700 331.0000 1.0000
56.9800 316.0000 1.0000
56.9900 296.0000 1.0000
57.0000 325.0000 1.0000
57.0100 331.0000 1.0000
57.0200 293.0000 1.0000
57.0300 323.0000 1.0000
57.0400 323.0000 1.0000
57.0500 296.0000 1.0000
57.0600 312.0000 1.0000
57.0700 333.0000 1.0000
57.0800 333.0000 1.0000
57.0900 328.0000 1.0000
57.1000 332.0000 1.0000
57.1100 303.0000 1.0000
57.1200 301.0000 1.0000
57.1300 323.0000 1.0000
57.1400 353.0000 1.0000
57.1500 304.0000 1.0000
57.1600 297.0000 1.0000
57.1700 305.0000 1.0000
57.1800 330.0000 1.0000
57.1900 308.0000 1.0000
57.2000 327.0000 1.0000
57.2100 327.0000 1.0000
57.2200 316.0000 1.0000
57.2300 348.0000 1.0000
57.2400 325.0000 1.0000
57.2500 300.0000 1.0000
57.2600 284.0000 1.0000
57.2700 313.0000 1.0000
57.2800 348.0000 1.0000
57.2900 312.0000 1.0000
57.3000 306.0000 1.0000
57.3100 305.0000 1.0000
57.3200 308.0000 1.0000
57.3300 324.0000 1.0000
57.3400 316.0000 1.0000
57.3500 319.0000 1.0000
57.3600 328.0000 1.0000
57.3700 337.0000 1.0000
57.3800 332.0000 1.0000
57.3900 327.0000 1.0000
57.4000 335.0000 1.0000
57.4100 337.0000 1.0000
57.4200 315.0000 1.0000
57.4300 340.0000 1.0000
57.4400 332.0000 1.0000
57.4500 323.0000 1.0000
57.4600 332.0000 1.0000
57.4700 348.0000 1.0000
57.4800 337.0000 1.0000
57.4900 317.0000 1.0000
57.5000 323.0000 1.0000
57.5100 318.0000 1.0000
57.5200 290.0000 1.0000
57.5300 292.0000 1.0000
57.5400 295.0000 1.0000
57.5500 332.0000 1.0000
57.5600 307.0000 1.0000
57.5700 322.0000 1.0000
57.5800 310.0000 1.0000
57.5900 319.0000 1.0000
57.6000 320.0000 1.0000
57.6100 309.0000 1.0000
57.6200 332.0000 1.0000
57.6300 308.0000 1.0000
57.6400 305.0000 1.0000
57.6500 345.0000 1.0000
57.6600 349.0000 1.0000
57.6700 339.0000 1.0000
57.6800 326.0000 1.0000
57.6900 320.0000 1.0000
57.7000 347.0000 1.0000
57.7100 321.0000 1.0000
57.7200 301.0000 1.0000
57.7300 290.0000 1.0000
57.7400 326.0000 1.0000
57.7500 323.0000 1.0000
57.7600 320.0000 1.0000
57.7700 321.0000 1.0000
57.7800 322.0000 1.0000
57.7900 314.0000 1.0000
57.8000 297.0000 1.0000
57.8100 338.0000 1.0000
57.8200 323.0000 1.0000
57.8300 347.0000 1.0000
57.8400 328.0000 1.0000
57.8500 312.0000 1.0000
57.8600 340.0000 1.0000
57.8700 324.0000 1.0000
57.8800 319.0000 1.0000
57.8900 287.0000 1.0000
57.9000 316.0000 1.0000
57.9100 346.0000 1.0000
57.9200 302.0000 1.0000
57.9300 307.0000 1.0000
57.9400 333.0000 1.0000
57.9500 306.0000 1.0000
57.9600 306.0000 1.0000
57.9700 349.0000 1.0000
57.9800 295.0000 1.0000
57.9900 300.0000 1.0000
58.0000 314.0000 1.0000
58.0100 328.0000 1.0000
58.0200 315.0000 1.0000
58.0300 310.0000 1.0000
58.0400 294.0000 1.0000
58.0500 313.0000 1.0000
58.0600 321.0000 1.0000
58.0700 315.0000 1.0000
58.0800 322.0000 1.0000
58.0900 321.0000 1.0000
58.1000 340.0000 1.0000
58.1100 326.0000 1.0000
58.1200 304.0000 1.0000
58.1300 282.0000 1.0000
58.1400 280.0000 1.0000
58.1500 320.0000 1.0000
58.1600 318.0000 1.0000
58.1700 295.0000 1.0000
58.1800 317.0000 1.0000
58.1900 314.0000 1.0000
58.2000 280.0000 1.0000
58.2100 304.0000 1.0000
58.2200 326.0000 1.0000
58.2300 320.0000 1.0000
58.2400 301.0000 1.0000
58.2500 297.0000 1.0000
58.2600 292.0000 1.0000
58.2700 320.0000 1.0000
58.2800 304.0000 1.0000
58.2900 309.0000 1.0000
58.3000 303.0000 1.0000
58.3100 313.0000 1.0000
58.3200 299.0000 1.0000
58.3300 353.0000 1.0000
58.3400 276.0000 1.0000
58.3500 329.0000 1.0000
58.3600 336.0000 1.0000
58.3700 335.0000 1.0000
58.3800 318.0000 1.0000
58.3900 328.0000 1.0000
58.4000 356.0000 1.0000
58.4100 321.0000 1.0000
58.4200 317.0000 1.0000
58.4300 316.0000 1.0000
58.4400 320.0000 1.0000
58.4500 332.0000 1.0000
58.4600 310.0000 1.0000
58.4700 306.0000 1.0000
58.4800 335.0000 1.0000
58.4900 315.0000 1.0000
58.5000 293.0000 1.0000
58.5100 301.0000 1.0000
58.5200 341.0000 1.0000
58.5300 302.0000 1.0000
58.5400 308.0000 1.0000
58.5500 322.0000 1.0000
58.5600 325.0000 1.0000
58.5700 327.0000 1.0000
58.5800 331.0000 1.0000
58.5900 304.0000 1.0000
58.6000 330.0000 1.0000
58.6100 317.0000 1.0000
58.6200 302.0000 1.0000
58.6300 357.0000 1.0000
58.6400 347.0000 1.0000
58.6500 309.0000 1.0000
58.6600 311.0000 1.0000
58.6700 309.0000 1.0000
58.6800 295.0000 1.0000
58.6900 301.0000 1.0000
58.7000 330.0000 1.0000
58.7100 321.0000 1.0000
58.7200 328.0000 1.0000
58.7300 326.0000 1.0000
58.7400 304.0000 1.0000
58.7500 315.0000 1.0000
58.7600 299.0000 1.0000
58.7700 328.0000 1.0000
58.7800 304.0000 1.0000
58.7900 325.0000 1.0000
58.8000 323.0000 1.0000
58.8100 312.0000 1.0000
58.8200 313.0000 1.0000
58.8300 312.0000 1.0000
58.8400 339.0000 1.0000
58.8500 307.0000 1.0000
58.8600 336.0000 1.0000
58.8700 288.0000 1.0000
58.8800 327.0000 1.0000
58.8900 359.0000 1.0000
58.9000 308.0000 1.0000
58.9100 354.0000 1.0000
58.9200 309.0000 1.0000
58.9300 313.0000 1.0000
58.9400 321.0000 1.0000
58.9500 304.0000 1.0000
58.9600 297.0000 1.0000
58.9700 306.0000 1.0000
58.9800 350.0000 1.0000
58.9900 318.0000 1.0000
59.0000 316.0000 1.0000
59.0100 330.0000 1.0000
59.0200 293.0000 1.0000
59.0300 320.0000 1.0000
59.0400 301.0000 1.0000
59.0500 302.0000 1.0000
59.0600 298.0000 1.0000
59.0700 321.0000 1.0000
59.0800 316.0000 1.0000
59.0900 310.0000 1.0000
59.1000 302.0000 1.0000
59.1100 298.0000 1.0000
59.1200 307.0000 1.0000
59.1300 302.0000 1.0000
59.1400 308.0000 1.0000
59.1500 304.0000 1.0000
59.1600 294.0000 1.0000
59.1700 313.0000 1.0000
59.1800 323.0000 1.0000
59.1900 294.0000 1.0000
59.2000 315.0000 1.0000
59.2100 302.0000 1.0000
59.2200 290.0000 1.0000
59.2300 287.0000 1.0000
59.2400 325.0000 1.0000
59.2500 310.0000 1.0000
59.2600 302.0000 1.0000
59.2700 312.0000 1.0000
59.2800 321.0000 1.0000
59.2900 326.0000 1.0000
59.3000 318.0000 1.0000
59.3100 317.0000 1.0000
59.3200 318.0000 1.0000
59.3300 325.0000 1.0000
59.3400 319.0000 1.0000
59.3500 301.0000 1.0000
59.3600 320.0000 1.0000
59.3700 325.0000 1.0000
59.3800 302.0000 1.0000
59.3900 325.0000 1.0000
59.4000 306.0000 1.0000
59.4100 319.0000 1.0000
59.4200 300.0000 1.0000
59.4300 323.0000 1.0000
59.4400 321.0000 1.0000
59.4500 272.0000 1.0000
59.4600 313.0000 1.0000
59.4700 295.0000 1.0000
59.4800 309.0000 1.0000
59.4900 311.0000 1.0000
59.5000 299.0000 1.0000
59.5100 326.0000 1.0000
59.5200 289.0000 1.0000
59.5300 279.0000 1.0000
59.5400 318.0000 1.0000
59.5500 301.0000 1.0000
59.5600 303.0000 1.0000
59.5700 303.0000 1.0000
59.5800 308.0000 1.0000
59.5900 311.0000 1.0000
59.6000 314.0000 1.0000
59.6100 286.0000 1.0000
59.6200 307.0000 1.0000
59.6300 293.0000 1.0000
59.6400 309.0000 1.0000
59.6500 322.0000 1.0000
59.6600 283.0000 1.0000
59.6700 302.0000 1.0000
59.6800 315.0000 1.0000
59.6900 318.0000 1.0000
59.7000 285.0000 1.0000
59.7100 312.0000 1.0000
59.7200 339.0000 1.0000
59.7300 315.0000 1.0000
59.7400 310.0000 1.0000
59.7500 297.0000 1.0000
59.7600 298.0000 1.0000
59.7700 307.0000 1.0000
59.7800 322.0000 1.0000
59.7900 315.0000 1.0000
59.8000 311.0000 1.0000
59.8100 300.0000 1.0000
59.8200 303.0000 1.0000
59.8300 309.0000 1.0000
59.8400 301.0000 1.0000
59.8500 293.0000 1.0000
59.8600 305.0000 1.0000
59.8700 288.0000 1.0000
59.8800 302.0000 1.0000
59.8900 296.0000 1.0000
59.9000 284.0000 1.0000
59.9100 281.0000 1.0000
59.9200 313.0000 1.0000
59.9300 314.0000 1.0000
59.9400 311.0000 1.0000
59.9500 282.0000 1.0000
59.9600 305.0000 1.0000
59.9700 313.0000 1.0000
59.9800 299.0000 1.0000
59.9900 324.0000 1.0000
60.0000 330.0000 1.0000
60.0100 313.0000 1.0000
60.0200 295.0000 1.0000
60.0300 330.0000 1.0000
60.0400 283.0000 1.0000
60.0500 295.0000 1.0000
60.0600 321.0000 1.0000
60.0700 298.0000 1.0000
60.0800 307.0000 1.0000
60.0900 318.0000 1.0000
60.1000 292.0000 1.0000
60.1100 315.0000 1.0000
60.1200 319.0000 1.0000
60.1300 318.0000 1.0000
60.1400 312.0000 1.0000
60.1500 313.0000 1.0000
60.1600 328.0000 1.0000
60.1700 317.0000 1.0000
60.1800 341.0000 1.0000
60.1900 325.0000 1.0000
60.2000 322.0000 1.0000
60.2100 319.0000 1.0000
60.2200 306.0000 1.0000
60.2300 299.0000 1.0000
60.2400 283.0000 1.0000
60.2500 296.0000 1.0000
60.2600 307.0000 1.0000
60.2700 325.0000 1.0000
60.2800 321.0000 1.0000
60.2900 319.0000 1.0000
60.3000 329.0000 1.0000
60.3100 295.0000 1.0000
60.3200 303.0000 1.0000
60.3300 309.0000 1.0000
60.3400 292.0000 1.0000
60.3500 290.0000 1.0000
60.3600 305.0000 1.0000
60.3700 319.0000 1.0000
60.3800 291.0000 1.0000
60.3900 305.0000 1.0000
60.4000 296.0000 1.0000
60.4100 326.0000 1.0000
60.4200 298.0000 1.0000
60.4300 271.0000 1.0000
60.4400 284.0000 1.0000
60.4500 292.0000 1.0000
60.4600 327.0000 1.0000
60.4700 313.0000 1.0000
60.4800 313.0000 1.0000
60.4900 323.0000 1.0000
60.5000 309.0000 1.0000
60.5100 333.0000 1.0000
60.5200 307.0000 1.0000
60.5300 315.0000 1.0000
60.5400 311.0000 1.0000
60.5500 301.0000 1.0000
60.5600 306.0000 1.0000
60.5700 331.0000 1.0000
60.5800 304.0000 1.0000
60.5900 324.0000 1.0000
60.6000 304.0000 1.0000
60.6100 308.0000 1.0000
60.6200 286.0000 1.0000
60.6300 311.0000 1.0000
60.6400 308.0000 1.0000
60.6500 296.0000 1.0000
60.6600 296.0000 1.0000
60.6700 292.0000 1.0000
60.6800 309.0000 1.0000
60.6900 303.0000 1.0000
60.7000 292.0000 1.0000
60.7100 318.0000 1.0000
60.7200 321.0000 1.0000
60.7300 320.0000 1.0000
60.7400 288.0000 1.0000
60.7500 324.0000 1.0000
60.7600 303.0000 1.0000
60.7700 313.0000 1.0000
60.7800 293.0000 1.0000
60.7900 310.0000 1.0000
60.8000 340.0000 1.0000
60.8100 326.0000 1.0000
60.8200 323.0000 1.0000
60.8300 306.0000 1.0000
60.8400 302.0000 1.0000
60.8500 290.0000 1.0000
60.8600 315.0000 1.0000
60.8700 312.0000 1.0000
60.8800 297.0000 1.0000
60.8900 352.0000 1.0000
60.9000 332.0000 1.0000
60.9100 326.0000 1.0000
60.9200 315.0000 1.0000
60.9300 315.0000 1.0000
60.9400 325.0000 1.0000
60.9500 304.0000 1.0000
60.9600 293.0000 1.0000
60.9700 295.0000 1.0000
60.9800 328.0000 1.0000
60.9900 323.0000 1.0000
61.0000 339.0000 1.0000
61.0100 316.0000 1.0000
61.0200 345.0000 1.0000
61.0300 335.0000 1.0000
61.0400 335.0000 1.0000
61.0500 305.0000 1.0000
61.0600 348.0000 1.0000
61.0700 338.0000 1.0000
61.0800 327.0000 1.0000
61.0900 358.0000 1.0000
61.1000 336.0000 1.0000
61.1100 319.0000 1.0000
61.1200 316.0000 1.0000
61.1300 360.0000 1.0000
61.1400 361.0000 1.0000
61.1500 369.0000 1.0000
61.1600 340.0000 1.0000
61.1700 318.0000 1.0000
61.1800 348.0000 1.0000
61.1900 362.0000 1.0000
61.2000 394.0000 1.0000
61.2100 364.0000 1.0000
61.2200 360.0000 1.0000
61.2300 363.0000 1.0000
61.2400 371.0000 1.0000
61.2500 373.0000 1.0000
61.2600 389.0000 1.0000
61.2700 402.0000 1.0000
61.2800 421.0000 1.0000
61.2900 419.0000 1.0000
61.3000 404.0000 1.0000
61.3100 394.0000 1.0000
61.3200 408.0000 1.0000
61.3300 412.0000 1.0000
61.3400 424.0000 1.0000
61.3500 412.0000 1.0000
61.3600 448.0000 1.0000
61.3700 470.0000 1.0000
61.3800 486.0000 1.0000
61.3900 514.0000 1.0000
61.4000 532.0000 1.0000
61.4100 526.0000 1.0000
61.4200 528.0000 1.0000
61.4300 543.0000 1.0000
61.4400 543.0000 1.0000
61.4500 542.0000 1.0000
61.4600 558.0000 1.0000
61.4700 581.0000 1.0000
61.4800 625.0000 1.0000
61.4900 642.0000 1.0000
61.5000 593.0000 1.0000
61.5100 650.0000 1.0000
61.5200 598.0000 1.0000
61.5300 642.0000 1.0000
61.5400 660.0000 1.0000
61.5500 664.0000 1.0000
61.5600 662.0000 1.0000
61.5700 624.0000 1.0000
61.5800 654.0000 1.0000
61.5900 667.0000 1.0000
61.6000 649.0000 1.0000
61.6100 643.0000 1.0000
61.6200 592.0000 1.0000
61.6300 622.0000 1.0000
61.6400 589.0000 1.0000
61.6500 606.0000 1.0000
61.6600 599.0000 1.0000
61.6700 614.0000 1.0000
61.6800 585.0000 1.0000
61.6900 569.0000 1.0000
61.7000 583.0000 1.0000
61.7100 584.0000 1.0000
61.7200 583.0000 1.0000
61.7300 548.0000 1.0000
61.7400 511.0000 1.0000
61.7500 540.0000 1.0000
61.7600 528.0000 1.0000
61.7700 516.0000 1.0000
61.7800 507.0000 1.0000
61.7900 503.0000 1.0000
61.8000 485.0000 1.0000
61.8100 474.0000 1.0000
61.8200 477.0000 1.0000
61.8300 465.0000 1.0000
61.8400 442.0000 1.0000
61.8500 412.0000 1.0000
61.8600 384.0000 1.0000
61.8700 403.0000 1.0000
61.8800 406.0000 1.0000
61.8900 408.0000 1.0000
61.9000 399.0000 1.0000
61.9100 392.0000 1.0000
61.9200 392.0000 1.0000
61.9300 393.0000 1.0000
61.9400 381.0000 1.0000
61.9500 402.0000 1.0000
61.9600 390.0000 1.0000
61.9700 374.0000 1.0000
61.9800 359.0000 1.0000
61.9900 358.0000 1.0000
62.0000 351.0000 1.0000
62.0100 369.0000 1.0000
62.0200 385.0000 1.0000
62.0300 352.0000 1.0000
62.0400 332.0000 1.0000
62.0500 364.0000 1.0000
62.0600 342.0000 1.0000
62.0700 382.0000 1.0000
62.0800 345.0000 1.0000
62.0900 325.0000 1.0000
62.1000 370.0000 1.0000
62.1100 368.0000 1.0000
62.1200 358.0000 1.0000
62.1300 318.0000 1.0000
62.1400 329.0000 1.0000
62.1500 357.0000 1.0000
62.1600 379.0000 1.0000
62.1700 354.0000 1.0000
62.1800 350.0000 1.0000
62.1900 339.0000 1.0000
62.2000 358.0000 1.0000
62.2100 344.0000 1.0000
62.2200 366.0000 1.0000
62.2300 331.0000 1.0000
62.2400 344.0000 1.0000
62.2500 358.0000 1.0000
62.2600 334.0000 1.0000
62.2700 353.0000 1.0000
62.2800 365.0000 1.0000
62.2900 348.0000 1.0000
62.3000 336.0000 1.0000
62.3100 362.0000 1.0000
62.3200 335.0000 1.0000
62.3300 346.0000 1.0000
62.3400 369.0000 1.0000
62.3500 343.0000 1.0000
62.3600 354.0000 1.0000
62.3700 365.0000 1.0000
62.3800 388.0000 1.0000
62.3900 346.0000 1.0000
62.4000 383.0000 1.0000
62.4100 369.0000 1.0000
62.4200 361.0000 1.0000
62.4300 367.0000 1.0000
62.4400 347.0000 1.0000
62.4500 356.0000 1.0000
62.4600 337.0000 1.0000
62.4700 359.0000 1.0000
62.4800 364.0000 1.0000
62.4900 350.0000 1.0000
62.5000 327.0000 1.0000
62.5100 303.0000 1.0000
62.5200 335.0000 1.0000
62.5300 350.0000 1.0000
62.5400 343.0000 1.0000
62.5500 313.0000 1.0000
62.5600 336.0000 1.0000
62.5700 326.0000 1.0000
62.5800 331.0000 1.0000
62.5900 334.0000 1.0000
62.6000 379.0000 1.0000
62.6100 349.0000 1.0000
62.6200 314.0000 1.0000
62.6300 310.0000 1.0000
62.6400 333.0000 1.0000
62.6500 321.0000 1.0000
62.6600 316.0000 1.0000
62.6700 296.0000 1.0000
62.6800 307.0000 1.0000
62.6900 290.0000 1.0000
62.7000 304.0000 1.0000
62.7100 326.0000 1.0000
62.7200 326.0000 1.0000
62.7300 321.0000 1.0000
62.7400 330.0000 1.0000
62.7500 313.0000 1.0000
62.7600 306.0000 1.0000
62.7700 321.0000 1.0000
62.7800 313.0000 1.0000
62.7900 315.0000 1.0000
62.8000 294.0000 1.0000
62.8100 315.0000 1.0000
62.8200 299.0000 1.0000
62.8300 313.0000 1.0000
62.8400 319.0000 1.0000
62.8500 301.0000 1.0000
62.8600 282.0000 1.0000
62.8700 314.0000 1.0000
62.8800 287.0000 1.0000
62.8900 320.0000 1.0000
62.9000 305.0000 1.0000
62.9100 319.0000 1.0000
62.9200 296.0000 1.0000
62.9300 306.0000 1.0000
62.9400 322.0000 1.0000
62.9500 337.0000 1.0000
62.9600 312.0000 1.0000
62.9700 300.0000 1.0000
62.9800 318.0000 1.0000
62.9900 321.0000 1.0000
63.0000 302.0000 1.0000
63.0100 322.0000 1.0000
63.0200 309.0000 1.0000
63.0300 318.0000 1.0000
63.0400 310.0000 1.0000
63.0500 315.0000 1.0000
63.0600 320.0000 1.0000
63.0700 294.0000 1.0000
63.0800 303.0000 1.0000
63.0900 317.0000 1.0000
63.1000 293.0000 1.0000
63.1100 316.0000 1.0000
63.1200 328.0000 1.0000
63.1300 314.0000 1.0000
63.1400 310.0000 1.0000
63.1500 336.0000 1.0000
63.1600 307.0000 1.0000
63.1700 282.0000 1.0000
63.1800 300.0000 1.0000
63.1900 336.0000 1.0000
63.2000 329.0000 1.0000
63.2100 313.0000 1.0000
63.2200 323.0000 1.0000
63.2300 332.0000 1.0000
63.2400 322.0000 1.0000
63.2500 302.0000 1.0000
63.2600 309.0000 1.0000
63.2700 294.0000 1.0000
63.2800 319.0000 1.0000
63.2900 330.0000 1.0000
63.3000 338.0000 1.0000
63.3100 329.0000 1.0000
63.3200 330.0000 1.0000
63.3300 322.0000 1.0000
63.3400 311.0000 1.0000
63.3500 308.0000 1.0000
63.3600 323.0000 1.0000
63.3700 292.0000 1.0000
63.3800 300.0000 1.0000
63.3900 303.0000 1.0000
63.4000 301.0000 1.0000
63.4100 312.0000 1.0000
63.4200 305.0000 1.0000
63.4300 339.0000 1.0000
63.4400 296.0000 1.0000
63.4500 292.0000 1.0000
63.4600 297.0000 1.0000
63.4700 316.0000 1.0000
63.4800 317.0000 1.0000
63.4900 326.0000 1.0000
63.5000 293.0000 1.0000
63.5100 296.0000 1.0000
63.5200 327.0000 1.0000
63.5300 302.0000 1.0000
63.5400 304.0000 1.0000
63.5500 324.0000 1.0000
63.5600 299.0000 1.0000
63.5700 340.0000 1.0000
63.5800 334.0000 1.0000
63.5900 344.0000 1.0000
63.6000 321.0000 1.0000
63.6100 317.0000 1.0000
63.6200 301.0000 1.0000
63.6300 323.0000 1.0000
63.6400 362.0000 1.0000
63.6500 336.0000 1.0000
63.6600 341.0000 1.0000
63.6700 352.0000 1.0000
63.6800 315.0000 1.0000
63.6900 329.0000 1.0000
63.7000 347.0000 1.0000
63.7100 356.0000 1.0000
63.7200 361.0000 1.0000
63.7300 352.0000 1.0000
63.7400 354.0000 1.0000
63.7500 351.0000 1.0000
63.7600 328.0000 1.0000
63.7700 352.0000 1.0000
63.7800 360.0000 1.0000
63.7900 340.0000 1.0000
63.8000 355.0000 1.0000
63.8100 386.0000 1.0000
63.8200 393.0000 1.0000
63.8300 362.0000 1.0000
63.8400 413.0000 1.0000
63.8500 394.0000 1.0000
63.8600 402.0000 1.0000
63.8700 398.0000 1.0000
63.8800 432.0000 1.0000
63.8900 491.0000 1.0000
63.9000 460.0000 1.0000
63.9100 487.0000 1.0000
63.9200 532.0000 1.0000
63.9300 510.0000 1.0000
63.9400 558.0000 1.0000
63.9500 553.0000 1.0000
63.9600 539.0000 1.0000
63.9700 498.0000 1.0000
63.9800 522.0000 1.0000
63.9900 512.0000 1.0000
64.0000 487.0000 1.0000
64.0100 479.0000 1.0000
64.0200 469.0000 1.0000
64.0300 456.0000 1.0000
64.0400 446.0000 1.0000
64.0500 453.0000 1.0000
64.0600 414.0000 1.0000
64.0700 466.0000 1.0000
64.0800 460.0000 1.0000
64.0900 437.0000 1.0000
64.1000 457.0000 1.0000
64.1100 460.0000 1.0000
64.1200 468.0000 1.0000
64.1300 463.0000 1.0000
64.1400 438.0000 1.0000
64.1500 474.0000 1.0000
64.1600 460.0000 1.0000
64.1700 415.0000 1.0000
64.1800 400.0000 1.0000
64.1900 390.0000 1.0000
64.2000 394.0000 1.0000
64.2100 394.0000 1.0000
64.2200 367.0000 1.0000
64.2300 370.0000 1.0000
64.2400 342.0000 1.0000
64.2500 376.0000 1.0000
64.2600 371.0000 1.0000
64.2700 370.0000 1.0000
64.2800 352.0000 1.0000
64.2900 388.0000 1.0000
64.3000 357.0000 1.0000
64.3100 373.0000 1.0000
64.3200 343.0000 1.0000
64.3300 344.0000 1.0000
64.3400 342.0000 1.0000
64.3500 360.0000 1.0000
64.3600 291.0000 1.0000
64.3700 341.0000 1.0000
64.3800 367.0000 1.0000
64.3900 379.0000 1.0000
64.4000 327.0000 1.0000
64.4100 342.0000 1.0000
64.4200 320.0000 1.0000
64.4300 349.0000 1.0000
64.4400 340.0000 1.0000
64.4500 342.0000 1.0000
64.4600 342.0000 1.0000
64.4700 386.0000 1.0000
64.4800 332.0000 1.0000
64.4900 341.0000 1.0000
64.5000 296.0000 1.0000
64.5100 337.0000 1.0000
64.5200 298.0000 1.0000
64.5300 339.0000 1.0000
64.5400 327.0000 1.0000
64.5500 325.0000 1.0000
64.5600 354.0000 1.0000
64.5700 331.0000 1.0000
64.5800 322.0000 1.0000
64.5900 343.0000 1.0000
64.6000 307.0000 1.0000
64.6100 329.0000 1.0000
64.6200 339.0000 1.0000
64.6300 311.0000 1.0000
64.6400 311.0000 1.0000
64.6500 318.0000 1.0000
64.6600 329.0000 1.0000
64.6700 310.0000 1.0000
64.6800 302.0000 1.0000
64.6900 302.0000 1.0000
64.7000 338.0000 1.0000
64.7100 338.0000 1.0000
64.7200 326.0000 1.0000
64.7300 312.0000 1.0000
64.7400 316.0000 1.0000
64.7500 329.0000 1.0000
64.7600 325.0000 1.0000
64.7700 301.0000 1.0000
64.7800 284.0000 1.0000
64.7900 322.0000 1.0000
64.8000 325.0000 1.0000
64.8100 294.0000 1.0000
64.8200 310.0000 1.0000
64.8300 354.0000 1.0000
64.8400 332.0000 1.0000
64.8500 332.0000 1.0000
64.8600 326.0000 1.0000
64.8700 342.0000 1.0000
64.8800 350.0000 1.0000
64.8900 311.0000 1.0000
64.9000 342.0000 1.0000
64.9100 333.0000 1.0000
64.9200 333.0000 1.0000
64.9300 324.0000 1.0000
64.9400 338.0000 1.0000
64.9500 341.0000 1.0000
64.9600 308.0000 1.0000
64.9700 312.0000 1.0000
64.9800 331.0000 1.0000
64.9900 342.0000 1.0000
65.0000 328.0000 1.0000
65.0100 327.0000 1.0000
65.0200 304.0000 1.0000
65.0300 337.0000 1.0000
65.0400 357.0000 1.0000
65.0500 364.0000 1.0000
65.0600 311.0000 1.0000
65.0700 368.0000 1.0000
65.0800 363.0000 1.0000
65.0900 376.0000 1.0000
65.1000 370.0000 1.0000
65.1100 359.0000 1.0000
65.1200 382.0000 1.0000
65.1300 354.0000 1.0000
65.1400 356.0000 1.0000
65.1500 388.0000 1.0000
65.1600 385.0000 1.0000
65.1700 374.0000 1.0000
65.1800 399.0000 1.0000
65.1900 403.0000 1.0000
65.2000 415.0000 1.0000
65.2100 412.0000 1.0000
65.2200 410.0000 1.0000
65.2300 431.0000 1.0000
65.2400 430.0000 1.0000
65.2500 430.0000 1.0000
65.2600 429.0000 1.0000
65.2700 440.0000 1.0000
65.2800 436.0000 1.0000
65.2900 447.0000 1.0000
65.3000 454.0000 1.0000
65.3100 489.0000 1.0000
65.3200 526.0000 1.0000
65.3300 521.0000 1.0000
65.3400 524.0000 1.0000
65.3500 558.0000 1.0000
65.3600 570.0000 1.0000
65.3700 612.0000 1.0000
65.3800 650.0000 1.0000
65.3900 686.0000 1.0000
65.4000 692.0000 1.0000
65.4100 711.0000 1.0000
65.4200 746.0000 1.0000
65.4300 830.0000 1.0000
65.4400 806.0000 1.0000
65.4500 870.0000 1.0000
65.4600 923.0000 1.0000
65.4700 987.0000 1.0000
65.4800 1065.0000 1.0000
65.4900 1075.0000 1.0000
65.5000 1070.0000 1.0000
65.5100 1070.0000 1.0000
65.5200 1136.0000 1.0000
65.5300 1145.0000 1.0000
65.5400 1244.0000 1.0000
65.5500 1114.0000 1.0000
65.5600 1184.0000 1.0000
65.5700 1140.0000 1.0000
65.5800 1142.0000 1.0000
65.5900 1095.0000 1.0000
65.6000 1142.0000 1.0000
65.6100 1040.0000 1.0000
65.6200 1051.0000 1.0000
65.6300 1013.0000 1.0000
65.6400 1006.0000 1.0000
65.6500 979.0000 1.0000
65.6600 979.0000 1.0000
65.6700 942.0000 1.0000
65.6800 951.0000 1.0000
65.6900 928.0000 1.0000
65.7000 911.0000 1.0000
65.7100 894.0000 1.0000
65.7200 933.0000 1.0000
65.7300 886.0000 1.0000
65.7400 879.0000 1.0000
65.7500 789.0000 1.0000
65.7600 798.0000 1.0000
65.7700 739.0000 1.0000
65.7800 764.0000 1.0000
65.7900 745.0000 1.0000
65.8000 725.0000 1.0000
65.8100 668.0000 1.0000
65.8200 616.0000 1.0000
65.8300 664.0000 1.0000
65.8400 597.0000 1.0000
65.8500 591.0000 1.0000
65.8600 528.0000 1.0000
65.8700 531.0000 1.0000
65.8800 510.0000 1.0000
65.8900 506.0000 1.0000
65.9000 521.0000 1.0000
65.9100 456.0000 1.0000
65.9200 466.0000 1.0000
65.9300 467.0000 1.0000
65.9400 475.0000 1.0000
65.9500 413.0000 1.0000
65.9600 404.0000 1.0000
65.9700 409.0000 1.0000
65.9800 402.0000 1.0000
65.9900 388.0000 1.0000
66.0000 364.0000 1.0000
66.0100 407.0000 1.0000
66.0200 417.0000 1.0000
66.0300 381.0000 1.0000
66.0400 359.0000 1.0000
66.0500 369.0000 1.0000
66.0600 362.0000 1.0000
66.0700 388.0000 1.0000
66.0800 374.0000 1.0000
66.0900 352.0000 1.0000
66.1000 337.0000 1.0000
66.1100 338.0000 1.0000
66.1200 348.0000 1.0000
66.1300 368.0000 1.0000
66.1400 334.0000 1.0000
66.1500 351.0000 1.0000
66.1600 322.0000 1.0000
66.1700 321.0000 1.0000
66.1800 339.0000 1.0000
66.1900 348.0000 1.0000
66.2000 318.0000 1.0000
66.2100 332.0000 1.0000
66.2200 333.0000 1.0000
66.2300 325.0000 1.0000
66.2400 378.0000 1.0000
66.2500 327.0000 1.0000
66.2600 351.0000 1.0000
66.2700 314.0000 1.0000
66.2800 328.0000 1.0000
66.2900 315.0000 1.0000
66.3000 330.0000 1.0000
66.3100 314.0000 1.0000
66.3200 308.0000 1.0000
66.3300 299.0000 1.0000
66.3400 296.0000 1.0000
66.3500 311.0000 1.0000
66.3600 317.0000 1.0000
66.3700 325.0000 1.0000
66.3800 311.0000 1.0000
66.3900 317.0000 1.0000
66.4000 292.0000 1.0000
66.4100 323.0000 1.0000
66.4200 311.0000 1.0000
66.4300 278.0000 1.0000
66.4400 319.0000 1.0000
66.4500 304.0000 1.0000
66.4600 308.0000 1.0000
66.4700 294.0000 1.0000
66.4800 287.0000 1.0000
66.4900 339.0000 1.0000
66.5000 324.0000 1.0000
66.5100 288.0000 1.0000
66.5200 274.0000 1.0000
66.5300 289.0000 1.0000
66.5400 330.0000 1.0000
66.5500 294.0000 1.0000
66.5600 304.0000 1.0000
66.5700 298.0000 1.0000
66.5800 305.0000 1.0000
66.5900 276.0000 1.0000
66.6000 296.0000 1.0000
66.6100 289.0000 1.0000
66.6200 297.0000 1.0000
66.6300 314.0000 1.0000
66.6400 317.0000 1.0000
66.6500 328.0000 1.0000
66.6600 315.0000 1.0000
66.6700 285.0000 1.0000
66.6800 297.0000 1.0000
66.6900 315.0000 1.0000
66.7000 284.0000 1.0000
66.7100 314.0000 1.0000
66.7200 284.0000 1.0000
66.7300 273.0000 1.0000
66.7400 289.0000 1.0000
66.7500 263.0000 1.0000
66.7600 274.0000 1.0000
66.7700 295.0000 1.0000
66.7800 296.0000 1.0000
66.7900 306.0000 1.0000
66.8000 292.0000 1.0000
66.8100 275.0000 1.0000
66.8200 290.0000 1.0000
66.8300 291.0000 1.0000
66.8400 289.0000 1.0000
66.8500 297.0000 1.0000
66.8600 294.0000 1.0000
66.8700 293.0000 1.0000
66.8800 281.0000 1.0000
66.8900 260.0000 1.0000
66.9000 292.0000 1.0000
66.9100 312.0000 1.0000
66.9200 294.0000 1.0000
66.9300 295.0000 1.0000
66.9400 283.0000 1.0000
66.9500 297.0000 1.0000
66.9600 285.0000 1.0000
66.9700 280.0000 1.0000
66.9800 290.0000 1.0000
66.9900 299.0000 1.0000
67.0000 312.0000 1.0000
67.0100 290.0000 1.0000
67.0200 306.0000 1.0000
67.0300 273.0000 1.0000
67.0400 278.0000 1.0000
67.0500 310.0000 1.0000
67.0600 290.0000 1.0000
67.0700 301.0000 1.0000
67.0800 254.0000 1.0000
67.0900 296.0000 1.0000
67.1000 280.0000 1.0000
67.1100 297.0000 1.0000
67.1200 307.0000 1.0000
67.1300 278.0000 1.0000
67.1400 274.0000 1.0000
67.1500 284.0000 1.0000
67.1600 283.0000 1.0000
67.1700 288.0000 1.0000
67.1800 272.0000 1.0000
67.1900 298.0000 1.0000
67.2000 283.0000 1.0000
67.2100 267.0000 1.0000
67.2200 275.0000 1.0000
67.2300 294.0000 1.0000
67.2400 278.0000 1.0000
67.2500 278.0000 1.0000
67.2600 304.0000 1.0000
67.2700 316.0000 1.0000
67.2800 302.0000 1.0000
67.2900 305.0000 1.0000
67.3000 314.0000 1.0000
67.3100 276.0000 1.0000
67.3200 282.0000 1.0000
67.3300 280.0000 1.0000
67.3400 298.0000 1.0000
67.3500 276.0000 1.0000
67.3600 281.0000 1.0000
67.3700 291.0000 1.0000
67.3800 291.0000 1.0000
67.3900 291.0000 1.0000
67.4000 274.0000 1.0000
67.4100 282.0000 1.0000
67.4200 268.0000 1.0000
67.4300 281.0000 1.0000
67.4400 298.0000 1.0000
67.4500 252.0000 1.0000
67.4600 274.0000 1.0000
67.4700 270.0000 1.0000
67.4800 292.0000 1.0000
67.4900 275.0000 1.0000
67.5000 288.0000 1.0000
67.5100 289.0000 1.0000
67.5200 255.0000 1.0000
67.5300 283.0000 1.0000
67.5400 278.0000 1.0000
67.5500 286.0000 1.0000
67.5600 274.0000 1.0000
67.5700 286.0000 1.0000
67.5800 272.0000 1.0000
67.5900 281.0000 1.0000
67.6000 266.0000 1.0000
67.6100 299.0000 1.0000
67.6200 307.0000 1.0000
67.6300 284.0000 1.0000
67.6400 257.0000 1.0000
67.6500 258.0000 1.0000
67.6600 261.0000 1.0000
67.6700 293.0000 1.0000
67.6800 281.0000 1.0000
67.6900 298.0000 1.0000
67.7000 266.0000 1.0000
67.7100 295.0000 1.0000
67.7200 285.0000 1.0000
67.7300 275.0000 1.0000
67.7400 291.0000 1.0000
67.7500 298.0000 1.0000
67.7600 292.0000 1.0000
67.7700 286.0000 1.0000
67.7800 303.0000 1.0000
67.7900 283.0000 1.0000
67.8000 280.0000 1.0000
67.8100 272.0000 1.0000
67.8200 274.0000 1.0000
67.8300 277.0000 1.0000
67.8400 292.0000 1.0000
67.8500 299.0000 1.0000
67.8600 274.0000 1.0000
67.8700 270.0000 1.0000
67.8800 295.0000 1.0000
67.8900 278.0000 1.0000
67.9000 288.0000 1.0000
67.9100 288.0000 1.0000
67.9200 257.0000 1.0000
67.9300 279.0000 1.0000
67.9400 291.0000 1.0000
67.9500 294.0000 1.0000
67.9600 265.0000 1.0000
67.9700 283.0000 1.0000
67.9800 309.0000 1.0000
67.9900 303.0000 1.0000
68.0000 319.0000 1.0000
68.0100 285.0000 1.0000
68.0200 276.0000 1.0000
68.0300 296.0000 1.0000
68.0400 269.0000 1.0000
68.0500 282.0000 1.0000
68.0600 285.0000 1.0000
68.0700 292.0000 1.0000
68.0800 285.0000 1.0000
68.0900 257.0000 1.0000
68.1000 273.0000 1.0000
68.1100 279.0000 1.0000
68.1200 279.0000 1.0000
68.1300 273.0000 1.0000
68.1400 276.0000 1.0000
68.1500 280.0000 1.0000
68.1600 276.0000 1.0000
68.1700 282.0000 1.0000
68.1800 273.0000 1.0000
68.1900 283.0000 1.0000
68.2000 271.0000 1.0000
68.2100 267.0000 1.0000
68.2200 281.0000 1.0000
68.2300 255.0000 1.0000
68.2400 256.0000 1.0000
68.2500 253.0000 1.0000
68.2600 271.0000 1.0000
68.2700 264.0000 1.0000
68.2800 287.0000 1.0000
68.2900 288.0000 1.0000
68.3000 307.0000 1.0000
68.3100 255.0000 1.0000
68.3200 270.0000 1.0000
68.3300 289.0000 1.0000
68.3400 266.0000 1.0000
68.3500 262.0000 1.0000
68.3600 284.0000 1.0000
68.3700 279.0000 1.0000
68.3800 283.0000 1.0000
68.3900 278.0000 1.0000
68.4000 266.0000 1.0000
68.4100 279.0000 1.0000
68.4200 280.0000 1.0000
68.4300 297.0000 1.0000
68.4400 290.0000 1.0000
68.4500 264.0000 1.0000
68.4600 282.0000 1.0000
68.4700 263.0000 1.0000
68.4800 285.0000 1.0000
68.4900 268.0000 1.0000
68.5000 288.0000 1.0000
68.5100 275.0000 1.0000
68.5200 296.0000 1.0000
68.5300 260.0000 1.0000
68.5400 268.0000 1.0000
68.5500 265.0000 1.0000
68.5600 302.0000 1.0000
68.5700 301.0000 1.0000
68.5800 267.0000 1.0000
68.5900 288.0000 1.0000
68.6000 312.0000 1.0000
68.6100 272.0000 1.0000
68.6200 260.0000 1.0000
68.6300 285.0000 1.0000
68.6400 287.0000 1.0000
68.6500 296.0000 1.0000
68.6600 272.0000 1.0000
68.6700 265.0000 1.0000
68.6800 278.0000 1.0000
68.6900 263.0000 1.0000
68.7000 275.0000 1.0000
68.7100 283.0000 1.0000
68.7200 256.0000 1.0000
68.7300 264.0000 1.0000
68.7400 279.0000 1.0000
68.7500 294.0000 1.0000
68.7600 297.0000 1.0000
68.7700 268.0000 1.0000
68.7800 275.0000 1.0000
68.7900 284.0000 1.0000
68.8000 292.0000 1.0000
68.8100 287.0000 1.0000
68.8200 296.0000 1.0000
68.8300 301.0000 1.0000
68.8400 288.0000 1.0000
68.8500 282.0000 1.0000
68.8600 291.0000 1.0000
68.8700 279.0000 1.0000
68.8800 270.0000 1.0000
68.8900 257.0000 1.0000
68.9000 268.0000 1.0000
68.9100 305.0000 1.0000
68.9200 286.0000 1.0000
68.9300 300.0000 1.0000
68.9400 290.0000 1.0000
68.9500 259.0000 1.0000
68.9600 263.0000 1.0000
68.9700 294.0000 1.0000
68.9800 264.0000 1.0000
68.9900 257.0000 1.0000
69.0000 259.0000 1.0000
69.0100 271.0000 1.0000
69.0200 301.0000 1.0000
69.0300 284.0000 1.0000
69.0400 276.0000 1.0000
69.0500 285.0000 1.0000
69.0600 297.0000 1.0000
69.0700 270.0000 1.0000
69.0800 255.0000 1.0000
69.0900 268.0000 1.0000
69.1000 283.0000 1.0000
69.1100 267.0000 1.0000
69.1200 271.0000 1.0000
69.1300 268.0000 1.0000
69.1400 294.0000 1.0000
69.1500 277.0000 1.0000
69.1600 248.0000 1.0000
69.1700 258.0000 1.0000
69.1800 301.0000 1.0000
69.1900 267.0000 1.0000
69.2000 259.0000 1.0000
69.2100 253.0000 1.0000
69.2200 272.0000 1.0000
69.2300 248.0000 1.0000
69.2400 267.0000 1.0000
69.2500 276.0000 1.0000
69.2600 261.0000 1.0000
69.2700 293.0000 1.0000
69.2800 283.0000 1.0000
69.2900 264.0000 1.0000
69.3000 247.0000 1.0000
69.3100 272.0000 1.0000
69.3200 270.0000 1.0000
69.3300 277.0000 1.0000
69.3400 266.0000 1.0000
69.3500 285.0000 1.0000
69.3600 267.0000 1.0000
69.3700 242.0000 1.0000
69.3800 261.0000 1.0000
69.3900 266.0000 1.0000
69.4000 257.0000 1.0000
69.4100 257.0000 1.0000
69.4200 269.0000 1.0000
69.4300 263.0000 1.0000
69.4400 284.0000 1.0000
69.4500 314.0000 1.0000
69.4600 266.0000 1.0000
69.4700 276.0000 1.0000
69.4800 287.0000 1.0000
69.4900 278.0000 1.0000
69.5000 288.0000 1.0000
69.5100 261.0000 1.0000
69.5200 249.0000 1.0000
69.5300 309.0000 1.0000
69.5400 262.0000 1.0000
69.5500 262.0000 1.0000
69.5600 254.0000 1.0000
69.5700 291.0000 1.0000
69.5800 292.0000 1.0000
69.5900 236.0000 1.0000
69.6000 259.0000 1.0000
69.6100 266.0000 1.0000
69.6200 256.0000 1.0000
69.6300 268.0000 1.0000
69.6400 301.0000 1.0000
69.6500 274.0000 1.0000
69.6600 276.0000 1.0000
69.6700 284.0000 1.0000
69.6800 270.0000 1.0000
69.6900 257.0000 1.0000
69.7000 265.0000 1.0000
69.7100 251.0000 1.0000
69.7200 268.0000 1.0000
69.7300 271.0000 1.0000
69.7400 256.0000 1.0000
69.7500 281.0000 1.0000
69.7600 266.0000 1.0000
69.7700 274.0000 1.0000
69.7800 270.0000 1.0000
69.7900 261.0000 1.0000
69.8000 271.0000 1.0000
69.8100 293.0000 1.0000
69.8200 276.0000 1.0000
69.8300 283.0000 1.0000
69.8400 290.0000 1.0000
69.8500 256.0000 1.0000
69.8600 292.0000 1.0000
69.8700 264.0000 1.0000
69.8800 254.0000 1.0000
69.8900 279.0000 1.0000
69.9000 274.0000 1.0000
69.9100 259.0000 1.0000
69.9200 280.0000 1.0000
69.9300 249.0000 1.0000
69.9400 257.0000 1.0000
69.9500 257.0000 1.0000
69.9600 262.0000 1.0000
69.9700 273.0000 1.0000
69.9800 251.0000 1.0000
69.9900 261.0000 1.0000
70.0000 262.0000 1.0000
*RAS_INT_END
*RAS_TEMPERATURE_START
*RAS_TEMPERATURE_END
*RAS_DATA_END
