*RAS_DATA_START
*RAS_HEADER_START
*DISP_FMT_X "%.2f"
*DISP_FMT_Y "%.0f"
*DISP_FULLSCALE "17810.0000000000"
*DISP_LINE_COLOR "255.0000000000"
*DISP_LINE_STYLE "0.0000000000"
*DISP_LINE_WIDTH "0.2500000000"
*DISP_NOTE "測定データ-10"
*DISP_OFFSET_Y "0.0000000000"
*DISP_PEAKSEARCH_UNIT_Y "cps"
*DISP_RANGE_BOTTOM "0.0000000000"
*DISP_RANGE_LEFT "20.0000000000"
*DISP_RANGE_LOGCUTOFF "0.0100000000"
*DISP_RANGE_RIGHT "70.0000000000"
*DISP_RANGE_TOP "17810.0000000000"
*DISP_SCALE_MODE_Y "0.0000000000"
*DISP_TAB_NAME "2θ/θ"
*DISP_TITLE_Y "強度"
*DISP_UNIT_Y "cps"
*DISP_WINDOW_NAME "MSG_MACROENGINE"
*FILE_COMMENT " "
*FILE_MD5 ""
*FILE_MEMO " "
*FILE_OPERATOR "Administrator"
*FILE_SAMPLE " "
*FILE_TYPE "RAS_RAW"
*FILE_USERGROUP "システムマネージャ"
*FILE_VERSION "1.0000000000"
*HW_ATTACHMENT_ID "ATT0025"
*HW_ATTACHMENT_NAME "標準|Standard"
*HW_COUNTER_ID-0 "CUT0025"
*HW_COUNTER_ID-1 "CUT0020"
*HW_COUNTER_ID-2 "CUT0020"
*HW_COUNTER_ID-3 "CSL0021"
*HW_COUNTER_ID-4 "CMC0021"
*HW_COUNTER_NAME-0 "D/teX Ultra|D/teX Ultra"
*HW_COUNTER_NAME-1 "None|None"
*HW_COUNTER_NAME-2 "None|None"
*HW_COUNTER_NAME-3 "BBM|BBM"
*HW_COUNTER_NAME-4 "検出器モノクロメータ|Detector monochromator"
*HW_COUNTER_SELECT_NAME "D/teX Ultra|D/teX Ultra"
*HW_GONIOMETER_ID "GON0023"
*HW_GONIOMETER_NAME "SmartLab|SmartLab"
*HW_GONIOMETER_RADIUS-0 "90.0"
*HW_GONIOMETER_RADIUS-1 "114.0"
*HW_GONIOMETER_RADIUS-2 "190.0"
*HW_GONIOMETER_RADIUS-3 "300.0"
*HW_GONIOMETER_RADIUS-4 "187.0"
*HW_GONIOMETER_RADIUS-5 "300.0"
*HW_GONIOMETER_RADIUS-6 "113.0"
*HW_GONIOMETER_RADIUS-7 "331.0"
*HW_I_OPT_ID-0 "CBO0021"
*HW_I_OPT_ID-1 "ICR0023"
*HW_I_OPT_ID-2 "ISL0021"
*HW_I_OPT_ID-3 "ISO0021"
*HW_I_OPT_ID-4 "IAD0021"
*HW_I_OPT_ID-5 "IPR0001"
*HW_I_OPT_NAME-0 "CBOユニット|CBO unit"
*HW_I_OPT_NAME-1 "標準入射光学ユニット|Standard incident optical unit"
*HW_I_OPT_NAME-2 "標準入射スリットボックス|Standard incident slit box"
*HW_I_OPT_NAME-3 "入射平行スリット|Incident parallel slit"
*HW_I_OPT_NAME-4 "長手制限スリット|Length limiting slit"
*HW_I_OPT_NAME-5 "None|None"
*HW_R_ATTENUATER_AUTOMODE "0"
*HW_R_OPT_ID-0 "RSS0021"
*HW_R_OPT_ID-1 "RCR0023"
*HW_R_OPT_ID-2 "RSO0021"
*HW_R_OPT_ID-3 "RRS0021"
*HW_R_OPT_ID-4 "ATN0021"
*HW_R_OPT_ID-5 "RFL0021"
*HW_R_OPT_ID-6 "RAD0021"
*HW_R_OPT_NAME-0 "標準受光スリットボックス1|Standard receiving slit box # 1"
*HW_R_OPT_NAME-1 "標準受光光学ユニット1|Standard receiving unit # 1"
*HW_R_OPT_NAME-2 "標準受光光学ユニット2|Standard receiving optical unit # 2"
*HW_R_OPT_NAME-3 "標準受光スリットボックス2|Standard receiving slit box # 2"
*HW_R_OPT_NAME-4 "標準アッテネータ|Standard Attenuator"
*HW_R_OPT_NAME-5 "Cu Kβ|Cu K-beta"
*HW_R_OPT_NAME-6 "調整用受光スリット|Alignment receiving slit"
*HW_SAMPLE_HOLDER_ID "SMP0023"
*HW_SAMPLE_HOLDER_NAME "標準Zステージ|Standard Z stage"
*HW_XG_CURRENT_MAX "50"
*HW_XG_CURRENT_MIN "2"
*HW_XG_CURRENT_RESOLUTION "1"
*HW_XG_CURRENT_UNIT "mA"
*HW_XG_FOCUS "1mm x 10mm"
*HW_XG_FOCUS_TYPE "Normal"
*HW_XG_ID ""
*HW_XG_NAME "3kW 封入管(ID:1200)|3kW Sealed tube(ID:1200)"
*HW_XG_TARGET_ATOMIC_NUMBER "29.0000000000"
*HW_XG_TARGET_NAME "Cu"
*HW_XG_TYPE "Hermetic"
*HW_XG_VOLTAGE_MAX "60"
*HW_XG_VOLTAGE_MIN "20"
*HW_XG_VOLTAGE_RESOLUTION "1"
*HW_XG_VOLTAGE_UNIT "kV"
*HW_XG_WATT_MAX "1.500"
*HW_XG_WATT_UNIT "kW"
*HW_XG_WAVE_LENGTH_ALPHA1 "1.540593"
*HW_XG_WAVE_LENGTH_ALPHA2 "1.544414"
*HW_XG_WAVE_LENGTH_BETA "1.392250"
*MEAS_COND_AXIS_NAME-0 "2θ/θ"
*MEAS_COND_AXIS_NAME-1 "2θ"
*MEAS_COND_AXIS_NAME-2 "ω"
*MEAS_COND_AXIS_NAME-3 "Z"
*MEAS_COND_AXIS_NAME-4 "2θ/ω"
*MEAS_COND_AXIS_NAME-5 "θs"
*MEAS_COND_AXIS_NAME-6 "θd"
*MEAS_COND_AXIS_NAME-7 "Ts"
*MEAS_COND_AXIS_NAME-8 "CBO選択スリット"
*MEAS_COND_AXIS_NAME-9 "M"
*MEAS_COND_AXIS_NAME-10 "入射平行スリット"
*MEAS_COND_AXIS_NAME-11 "入射スリット"
*MEAS_COND_AXIS_NAME-12 ""
*MEAS_COND_AXIS_NAME-13 "Zs"
*MEAS_COND_AXIS_NAME-14 "入射光学素子"
*MEAS_COND_AXIS_NAME-15 "長手制限スリット"
*MEAS_COND_AXIS_NAME-16 "センタースリット"
*MEAS_COND_AXIS_NAME-17 "フィルター"
*MEAS_COND_AXIS_NAME-18 "受光スリット1"
*MEAS_COND_AXIS_NAME-19 "受光スリット2"
*MEAS_COND_AXIS_NAME-20 "受光光学素子"
*MEAS_COND_AXIS_NAME-21 "受光平行スリット"
*MEAS_COND_AXIS_NAME-22 "調整用受光スリット"
*MEAS_COND_AXIS_NAME-23 ""
*MEAS_COND_AXIS_NAME-24 ""
*MEAS_COND_AXIS_NAME-25 "Zd"
*MEAS_COND_AXIS_NAME-26 "アッテネータ"
*MEAS_COND_AXIS_NAME-27 "検出器モノクロメータ"
*MEAS_COND_AXIS_NAME-28 "モノクロメータスリット"
*MEAS_COND_AXIS_NAME-29 "プライマリビーム"
*MEAS_COND_AXIS_NAME-30 "PHA"
*MEAS_COND_AXIS_NAME_INTERNAL-0 "TwoThetaTheta"
*MEAS_COND_AXIS_NAME_INTERNAL-1 "TwoTheta"
*MEAS_COND_AXIS_NAME_INTERNAL-2 "Omega"
*MEAS_COND_AXIS_NAME_INTERNAL-3 "Z"
*MEAS_COND_AXIS_NAME_INTERNAL-4 "TwoThetaOmega"
*MEAS_COND_AXIS_NAME_INTERNAL-5 "ThetaS"
*MEAS_COND_AXIS_NAME_INTERNAL-6 "ThetaD"
*MEAS_COND_AXIS_NAME_INTERNAL-7 "Ts"
*MEAS_COND_AXIS_NAME_INTERNAL-8 "CBO"
*MEAS_COND_AXIS_NAME_INTERNAL-9 "CBO-M"
*MEAS_COND_AXIS_NAME_INTERNAL-10 "IncidentSollerSlit"
*MEAS_COND_AXIS_NAME_INTERNAL-11 "IncidentSlitBox"
*MEAS_COND_AXIS_NAME_INTERNAL-12 "IncidentSlitBox-_Axis"
*MEAS_COND_AXIS_NAME_INTERNAL-13 "Zs"
*MEAS_COND_AXIS_NAME_INTERNAL-14 "IncidentMonochromator"
*MEAS_COND_AXIS_NAME_INTERNAL-15 "IncidentAxdSlit"
*MEAS_COND_AXIS_NAME_INTERNAL-16 "CenterSlit"
*MEAS_COND_AXIS_NAME_INTERNAL-17 "Filter"
*MEAS_COND_AXIS_NAME_INTERNAL-18 "ReceivingSlitBox1"
*MEAS_COND_AXIS_NAME_INTERNAL-19 "ReceivingSlitBox2"
*MEAS_COND_AXIS_NAME_INTERNAL-20 "ReceivingOptics"
*MEAS_COND_AXIS_NAME_INTERNAL-21 "ReceivingSollerSlit"
*MEAS_COND_AXIS_NAME_INTERNAL-22 "ReceivingAxdSlit"
*MEAS_COND_AXIS_NAME_INTERNAL-23 "ReceivingSlitBox1-_Axis"
*MEAS_COND_AXIS_NAME_INTERNAL-24 "ReceivingSlitBox2-_Axis"
*MEAS_COND_AXIS_NAME_INTERNAL-25 "ReceivingSlitBox2-Zd"
*MEAS_COND_AXIS_NAME_INTERNAL-26 "Attenuator"
*MEAS_COND_AXIS_NAME_INTERNAL-27 "CounterMonochromator"
*MEAS_COND_AXIS_NAME_INTERNAL-28 "CounterSlit"
*MEAS_COND_AXIS_NAME_INTERNAL-29 "IncidentPrimary"
*MEAS_COND_AXIS_NAME_INTERNAL-30 "PHA"
*MEAS_COND_AXIS_NAME_MAGICNO-0 "83951616.0000000000"
*MEAS_COND_AXIS_NAME_MAGICNO-1 "268632064.0000000000"
*MEAS_COND_AXIS_NAME_MAGICNO-2 "268500992.0000000000"
*MEAS_COND_AXIS_NAME_MAGICNO-3 "285278208.0000000000"
*MEAS_COND_AXIS_NAME_MAGICNO-4 "83951616.0000000000"
*MEAS_COND_AXIS_NAME_MAGICNO-5 "131072.0000000000"
*MEAS_COND_AXIS_NAME_MAGICNO-6 "131072.0000000000"
*MEAS_COND_AXIS_NAME_MAGICNO-7 "318898176.0000000000"
*MEAS_COND_AXIS_NAME_MAGICNO-8 "20971521.0000000000"
*MEAS_COND_AXIS_NAME_MAGICNO-9 "285343744.0000000000"
*MEAS_COND_AXIS_NAME_MAGICNO-10 "20971521.0000000000"
*MEAS_COND_AXIS_NAME_MAGICNO-11 "22020097.0000000000"
*MEAS_COND_AXIS_NAME_MAGICNO-12 "25165824.0000000000"
*MEAS_COND_AXIS_NAME_MAGICNO-13 "318898176.0000000000"
*MEAS_COND_AXIS_NAME_MAGICNO-14 "1.0000000000"
*MEAS_COND_AXIS_NAME_MAGICNO-15 "20971521.0000000000"
*MEAS_COND_AXIS_NAME_MAGICNO-16 "20971521.0000000000"
*MEAS_COND_AXIS_NAME_MAGICNO-17 "20971521.0000000000"
*MEAS_COND_AXIS_NAME_MAGICNO-18 "23068673.0000000000"
*MEAS_COND_AXIS_NAME_MAGICNO-19 "23068673.0000000000"
*MEAS_COND_AXIS_NAME_MAGICNO-20 "20971521.0000000000"
*MEAS_COND_AXIS_NAME_MAGICNO-21 "20971521.0000000000"
*MEAS_COND_AXIS_NAME_MAGICNO-22 "20971521.0000000000"
*MEAS_COND_AXIS_NAME_MAGICNO-23 "25165824.0000000000"
*MEAS_COND_AXIS_NAME_MAGICNO-24 "25165824.0000000000"
*MEAS_COND_AXIS_NAME_MAGICNO-25 "285343744.0000000000"
*MEAS_COND_AXIS_NAME_MAGICNO-26 "17301505.0000000000"
*MEAS_COND_AXIS_NAME_MAGICNO-27 "20971521.0000000000"
*MEAS_COND_AXIS_NAME_MAGICNO-28 "20971521.0000000000"
*MEAS_COND_AXIS_NAME_MAGICNO-29 "20971521.0000000000"
*MEAS_COND_AXIS_NAME_MAGICNO-30 "0.0000000000"
*MEAS_COND_AXIS_OFFSET-0 "-"
*MEAS_COND_AXIS_OFFSET-1 "-0.0801000000"
*MEAS_COND_AXIS_OFFSET-2 "0.1646000000"
*MEAS_COND_AXIS_OFFSET-3 "-"
*MEAS_COND_AXIS_OFFSET-4 "-"
*MEAS_COND_AXIS_OFFSET-5 "0.1646000000"
*MEAS_COND_AXIS_OFFSET-6 "-0.2447000000"
*MEAS_COND_AXIS_OFFSET-7 "-"
*MEAS_COND_AXIS_OFFSET-8 "-"
*MEAS_COND_AXIS_OFFSET-9 "-"
*MEAS_COND_AXIS_OFFSET-10 "-"
*MEAS_COND_AXIS_OFFSET-11 "-"
*MEAS_COND_AXIS_OFFSET-12 "-"
*MEAS_COND_AXIS_OFFSET-13 "-"
*MEAS_COND_AXIS_OFFSET-14 "-"
*MEAS_COND_AXIS_OFFSET-15 "-"
*MEAS_COND_AXIS_OFFSET-16 "-"
*MEAS_COND_AXIS_OFFSET-17 "-"
*MEAS_COND_AXIS_OFFSET-18 "-"
*MEAS_COND_AXIS_OFFSET-19 "-"
*MEAS_COND_AXIS_OFFSET-20 "-"
*MEAS_COND_AXIS_OFFSET-21 "-"
*MEAS_COND_AXIS_OFFSET-22 "-"
*MEAS_COND_AXIS_OFFSET-23 "-"
*MEAS_COND_AXIS_OFFSET-24 "-"
*MEAS_COND_AXIS_OFFSET-25 "-"
*MEAS_COND_AXIS_OFFSET-26 "-"
*MEAS_COND_AXIS_OFFSET-27 "-"
*MEAS_COND_AXIS_OFFSET-28 "-"
*MEAS_COND_AXIS_OFFSET-29 "-"
*MEAS_COND_AXIS_OFFSET-30 "-"
*MEAS_COND_AXIS_POSITION-0 "0.0000000000"
*MEAS_COND_AXIS_POSITION-1 "0.0000000000"
*MEAS_COND_AXIS_POSITION-2 "0.0000000000"
*MEAS_COND_AXIS_POSITION-3 "-2.9256400000"
*MEAS_COND_AXIS_POSITION-4 "0.0000000000"
*MEAS_COND_AXIS_POSITION-5 "0.0000000000"
*MEAS_COND_AXIS_POSITION-6 "0.0000000000"
*MEAS_COND_AXIS_POSITION-7 "-0.4278800000"
*MEAS_COND_AXIS_POSITION-8 "BB"
*MEAS_COND_AXIS_POSITION-9 "0.0000000000"
*MEAS_COND_AXIS_POSITION-10 "Soller_slit_5.0deg"
*MEAS_COND_AXIS_POSITION-11 "2/3deg"
*MEAS_COND_AXIS_POSITION-12 "2.2088000000"
*MEAS_COND_AXIS_POSITION-13 "-1.0609400000"
*MEAS_COND_AXIS_POSITION-14 "0.0000000000"
*MEAS_COND_AXIS_POSITION-15 "10.0mm"
*MEAS_COND_AXIS_POSITION-16 "None"
*MEAS_COND_AXIS_POSITION-17 "Cu_K-beta"
*MEAS_COND_AXIS_POSITION-18 "13.000mm"
*MEAS_COND_AXIS_POSITION-19 "13.000mm"
*MEAS_COND_AXIS_POSITION-20 "No_unit"
*MEAS_COND_AXIS_POSITION-21 "Soller_slit_5.0deg"
*MEAS_COND_AXIS_POSITION-22 "None"
*MEAS_COND_AXIS_POSITION-23 "13.0000000000"
*MEAS_COND_AXIS_POSITION-24 "13.0000000000"
*MEAS_COND_AXIS_POSITION-25 "0.0081300000"
*MEAS_COND_AXIS_POSITION-26 "Open"
*MEAS_COND_AXIS_POSITION-27 "None"
*MEAS_COND_AXIS_POSITION-28 "None"
*MEAS_COND_AXIS_POSITION-29 "None"
*MEAS_COND_AXIS_POSITION-30 "38.0000000000"
*MEAS_COND_AXIS_UNIT-0 "deg"
*MEAS_COND_AXIS_UNIT-1 "deg"
*MEAS_COND_AXIS_UNIT-2 "deg"
*MEAS_COND_AXIS_UNIT-3 "mm"
*MEAS_COND_AXIS_UNIT-4 "deg"
*MEAS_COND_AXIS_UNIT-5 "deg"
*MEAS_COND_AXIS_UNIT-6 "deg"
*MEAS_COND_AXIS_UNIT-7 "mm"
*MEAS_COND_AXIS_UNIT-8 ""
*MEAS_COND_AXIS_UNIT-9 "pulse"
*MEAS_COND_AXIS_UNIT-10 ""
*MEAS_COND_AXIS_UNIT-11 ""
*MEAS_COND_AXIS_UNIT-12 "mm"
*MEAS_COND_AXIS_UNIT-13 "mm"
*MEAS_COND_AXIS_UNIT-14 ""
*MEAS_COND_AXIS_UNIT-15 ""
*MEAS_COND_AXIS_UNIT-16 ""
*MEAS_COND_AXIS_UNIT-17 ""
*MEAS_COND_AXIS_UNIT-18 ""
*MEAS_COND_AXIS_UNIT-19 ""
*MEAS_COND_AXIS_UNIT-20 ""
*MEAS_COND_AXIS_UNIT-21 ""
*MEAS_COND_AXIS_UNIT-22 ""
*MEAS_COND_AXIS_UNIT-23 "mm"
*MEAS_COND_AXIS_UNIT-24 "mm"
*MEAS_COND_AXIS_UNIT-25 "mm"
*MEAS_COND_AXIS_UNIT-26 ""
*MEAS_COND_AXIS_UNIT-27 ""
*MEAS_COND_AXIS_UNIT-28 ""
*MEAS_COND_AXIS_UNIT-29 ""
*MEAS_COND_AXIS_UNIT-30 "div"
*MEAS_COND_COUNTER_CNTLOSS_CORR "0.0000000000"
*MEAS_COND_COUNTER_PHABASE "38.0000000000"
*MEAS_COND_COUNTER_PHAWINDOW "16.0000000000"
*MEAS_COND_COUNTER_PHA_UNIT "div"
*MEAS_COND_COUNTER_TAUDIFF "30.0000000000"
*MEAS_COND_COUNTER_TAUINT "0.0000000000"
*MEAS_COND_IRRADIATION_MODE "OFF"
*MEAS_COND_IRRADIATION_WIDTH ""
*MEAS_COND_OPT_ATTR "集中法"
*MEAS_COND_OPT_NAME "@集中法"
*MEAS_COND_UNSYMMETRIC_MODE "OFF"
*MEAS_COND_XG_CURRENT "30.0000000000"
*MEAS_COND_XG_VOLTAGE "40.0000000000"
*MEAS_COND_XG_WAVE_TYPE "Ka"
*MEAS_DATA_COUNT "5001.0000000000"
*MEAS_SCAN_AXIS_X "2θ/θ"
*MEAS_SCAN_AXIS_X_INTERNAL "TwoThetaTheta"
*MEAS_SCAN_END_TIME "07/09/22 16:37:24"
*MEAS_SCAN_MODE "CONTINUOUS"
*MEAS_SCAN_MONITOR "0"
*MEAS_SCAN_RESOLUTION_X "0.0002"
*MEAS_SCAN_SPEED "2.5"
*MEAS_SCAN_SPEED_UNIT "deg/min"
*MEAS_SCAN_START "20.0000000000"
*MEAS_SCAN_START_TIME "07/09/22 16:16:02"
*MEAS_SCAN_STEP "0.0100000000"
*MEAS_SCAN_STOP "70.0000000000"
*MEAS_SCAN_UNIT_X "deg"
*MEAS_SCAN_UNIT_Y "counts"
*RAS_HEADER_END
*RAS_INT_START
20.0000 1032.0000 1.0000
20.0100 1038.0000 1.0000
20.0200 1029.0000 1.0000
20.0300 1051.0000 1.0000
20.0400 999.0000 1.0000
20.0500 1024.0000 1.0000
20.0600 989.0000 1.0000
20.0700 1070.0000 1.0000
20.0800 1056.0000 1.0000
20.0900 1027.0000 1.0000
20.1000 1052.0000 1.0000
20.1100 1041.0000 1.0000
20.1200 1056.0000 1.0000
20.1300 1020.0000 1.0000
20.1400 1056.0000 1.0000
20.1500 1055.0000 1.0000
20.1600 1050.0000 1.0000
20.1700 1020.0000 1.0000
20.1800 1022.0000 1.0000
20.1900 1022.0000 1.0000
20.2000 1075.0000 1.0000
20.2100 1030.0000 1.0000
20.2200 1058.0000 1.0000
20.2300 1008.0000 1.0000
20.2400 1019.0000 1.0000
20.2500 1039.0000 1.0000
20.2600 1062.0000 1.0000
20.2700 1026.0000 1.0000
20.2800 1061.0000 1.0000
20.2900 1043.0000 1.0000
20.3000 1023.0000 1.0000
20.3100 1033.0000 1.0000
20.3200 1087.0000 1.0000
20.3300 1088.0000 1.0000
20.3400 1086.0000 1.0000
20.3500 1086.0000 1.0000
20.3600 1016.0000 1.0000
20.3700 1028.0000 1.0000
20.3800 1032.0000 1.0000
20.3900 1045.0000 1.0000
20.4000 1073.0000 1.0000
20.4100 1005.0000 1.0000
20.4200 1012.0000 1.0000
20.4300 1026.0000 1.0000
20.4400 1017.0000 1.0000
20.4500 1028.0000 1.0000
20.4600 1065.0000 1.0000
20.4700 1034.0000 1.0000
20.4800 1042.0000 1.0000
20.4900 1005.0000 1.0000
20.5000 1047.0000 1.0000
20.5100 1021.0000 1.0000
20.5200 1039.0000 1.0000
20.5300 1016.0000 1.0000
20.5400 1067.0000 1.0000
20.5500 1010.0000 1.0000
20.5600 970.0000 1.0000
20.5700 1016.0000 1.0000
20.5800 1029.0000 1.0000
20.5900 1039.0000 1.0000
20.6000 1057.0000 1.0000
20.6100 1088.0000 1.0000
20.6200 995.0000 1.0000
20.6300 984.0000 1.0000
20.6400 996.0000 1.0000
20.6500 1074.0000 1.0000
20.6600 1014.0000 1.0000
20.6700 1107.0000 1.0000
20.6800 1067.0000 1.0000
20.6900 990.0000 1.0000
20.7000 1007.0000 1.0000
20.7100 1015.0000 1.0000
20.7200 1030.0000 1.0000
20.7300 1045.0000 1.0000
20.7400 1060.0000 1.0000
20.7500 1006.0000 1.0000
20.7600 1034.0000 1.0000
20.7700 1051.0000 1.0000
20.7800 1087.0000 1.0000
20.7900 1051.0000 1.0000
20.8000 1050.0000 1.0000
20.8100 1019.0000 1.0000
20.8200 991.0000 1.0000
20.8300 1013.0000 1.0000
20.8400 1021.0000 1.0000
20.8500 1018.0000 1.0000
20.8600 1019.0000 1.0000
20.8700 1040.0000 1.0000
20.8800 982.0000 1.0000
20.8900 1022.0000 1.0000
20.9000 1022.0000 1.0000
20.9100 1056.0000 1.0000
20.9200 1075.0000 1.0000
20.9300 998.0000 1.0000
20.9400 1055.0000 1.0000
20.9500 1076.0000 1.0000
20.9600 1018.0000 1.0000
20.9700 1079.0000 1.0000
20.9800 1060.0000 1.0000
20.9900 1000.0000 1.0000
21.0000 1008.0000 1.0000
21.0100 1004.0000 1.0000
21.0200 1040.0000 1.0000
21.0300 975.0000 1.0000
21.0400 1071.0000 1.0000
21.0500 998.0000 1.0000
21.0600 1010.0000 1.0000
21.0700 993.0000 1.0000
21.0800 974.0000 1.0000
21.0900 1072.0000 1.0000
21.1000 1054.0000 1.0000
21.1100 1004.0000 1.0000
21.1200 1016.0000 1.0000
21.1300 1033.0000 1.0000
21.1400 1012.0000 1.0000
21.1500 1025.0000 1.0000
21.1600 1036.0000 1.0000
21.1700 1036.0000 1.0000
21.1800 1037.0000 1.0000
21.1900 1019.0000 1.0000
21.2000 1051.0000 1.0000
21.2100 1006.0000 1.0000
21.2200 983.0000 1.0000
21.2300 1035.0000 1.0000
21.2400 1037.0000 1.0000
21.2500 1014.0000 1.0000
21.2600 969.0000 1.0000
21.2700 1024.0000 1.0000
21.2800 1044.0000 1.0000
21.2900 984.0000 1.0000
21.3000 1060.0000 1.0000
21.3100 1095.0000 1.0000
21.3200 1036.0000 1.0000
21.3300 991.0000 1.0000
21.3400 1037.0000 1.0000
21.3500 1021.0000 1.0000
21.3600 1028.0000 1.0000
21.3700 1005.0000 1.0000
21.3800 1056.0000 1.0000
21.3900 1043.0000 1.0000
21.4000 1031.0000 1.0000
21.4100 1022.0000 1.0000
21.4200 978.0000 1.0000
21.4300 1008.0000 1.0000
21.4400 1011.0000 1.0000
21.4500 1038.0000 1.0000
21.4600 1084.0000 1.0000
21.4700 1010.0000 1.0000
21.4800 993.0000 1.0000
21.4900 1029.0000 1.0000
21.5000 1085.0000 1.0000
21.5100 1011.0000 1.0000
21.5200 1041.0000 1.0000
21.5300 1011.0000 1.0000
21.5400 1028.0000 1.0000
21.5500 1016.0000 1.0000
21.5600 1030.0000 1.0000
21.5700 1043.0000 1.0000
21.5800 1041.0000 1.0000
21.5900 1032.0000 1.0000
21.6000 1041.0000 1.0000
21.6100 1048.0000 1.0000
21.6200 1016.0000 1.0000
21.6300 1008.0000 1.0000
21.6400 1010.0000 1.0000
21.6500 1017.0000 1.0000
21.6600 990.0000 1.0000
21.6700 985.0000 1.0000
21.6800 1043.0000 1.0000
21.6900 1025.0000 1.0000
21.7000 1027.0000 1.0000
21.7100 1035.0000 1.0000
21.7200 1015.0000 1.0000
21.7300 1007.0000 1.0000
21.7400 1005.0000 1.0000
21.7500 1035.0000 1.0000
21.7600 1040.0000 1.0000
21.7700 1057.0000 1.0000
21.7800 1039.0000 1.0000
21.7900 1003.0000 1.0000
21.8000 1045.0000 1.0000
21.8100 1024.0000 1.0000
21.8200 1007.0000 1.0000
21.8300 992.0000 1.0000
21.8400 1040.0000 1.0000
21.8500 1064.0000 1.0000
21.8600 1018.0000 1.0000
21.8700 1033.0000 1.0000
21.8800 1041.0000 1.0000
21.8900 1019.0000 1.0000
21.9000 986.0000 1.0000
21.9100 990.0000 1.0000
21.9200 998.0000 1.0000
21.9300 1008.0000 1.0000
21.9400 1017.0000 1.0000
21.9500 1007.0000 1.0000
21.9600 1026.0000 1.0000
21.9700 1001.0000 1.0000
21.9800 1033.0000 1.0000
21.9900 1011.0000 1.0000
22.0000 1047.0000 1.0000
22.0100 1018.0000 1.0000
22.0200 1025.0000 1.0000
22.0300 990.0000 1.0000
22.0400 1028.0000 1.0000
22.0500 1030.0000 1.0000
22.0600 1004.0000 1.0000
22.0700 1029.0000 1.0000
22.0800 1049.0000 1.0000
22.0900 1015.0000 1.0000
22.1000 1031.0000 1.0000
22.1100 993.0000 1.0000
22.1200 1016.0000 1.0000
22.1300 1047.0000 1.0000
22.1400 990.0000 1.0000
22.1500 967.0000 1.0000
22.1600 991.0000 1.0000
22.1700 1030.0000 1.0000
22.1800 1020.0000 1.0000
22.1900 1005.0000 1.0000
22.2000 1056.0000 1.0000
22.2100 1052.0000 1.0000
22.2200 950.0000 1.0000
22.2300 977.0000 1.0000
22.2400 1074.0000 1.0000
22.2500 1001.0000 1.0000
22.2600 1001.0000 1.0000
22.2700 991.0000 1.0000
22.2800 1034.0000 1.0000
22.2900 1005.0000 1.0000
22.3000 1016.0000 1.0000
22.3100 999.0000 1.0000
22.3200 1003.0000 1.0000
22.3300 1027.0000 1.0000
22.3400 1016.0000 1.0000
22.3500 988.0000 1.0000
22.3600 1047.0000 1.0000
22.3700 1016.0000 1.0000
22.3800 1005.0000 1.0000
22.3900 1009.0000 1.0000
22.4000 968.0000 1.0000
22.4100 998.0000 1.0000
22.4200 992.0000 1.0000
22.4300 1044.0000 1.0000
22.4400 1025.0000 1.0000
22.4500 1022.0000 1.0000
22.4600 970.0000 1.0000
22.4700 1032.0000 1.0000
22.4800 990.0000 1.0000
22.4900 1011.0000 1.0000
22.5000 996.0000 1.0000
22.5100 972.0000 1.0000
22.5200 969.0000 1.0000
22.5300 1020.0000 1.0000
22.5400 1021.0000 1.0000
22.5500 982.0000 1.0000
22.5600 1022.0000 1.0000
22.5700 1084.0000 1.0000
22.5800 1054.0000 1.0000
22.5900 969.0000 1.0000
22.6000 957.0000 1.0000
22.6100 1032.0000 1.0000
22.6200 989.0000 1.0000
22.6300 980.0000 1.0000
22.6400 979.0000 1.0000
22.6500 997.0000 1.0000
22.6600 1012.0000 1.0000
22.6700 1012.0000 1.0000
22.6800 1050.0000 1.0000
22.6900 1036.0000 1.0000
22.7000 1016.0000 1.0000
22.7100 1015.0000 1.0000
22.7200 1015.0000 1.0000
22.7300 1011.0000 1.0000
22.7400 1022.0000 1.0000
22.7500 1037.0000 1.0000
22.7600 1010.0000 1.0000
22.7700 977.0000 1.0000
22.7800 1004.0000 1.0000
22.7900 987.0000 1.0000
22.8000 999.0000 1.0000
22.8100 1003.0000 1.0000
22.8200 988.0000 1.0000
22.8300 997.0000 1.0000
22.8400 1021.0000 1.0000
22.8500 1025.0000 1.0000
22.8600 1044.0000 1.0000
22.8700 1013.0000 1.0000
22.8800 976.0000 1.0000
22.8900 986.0000 1.0000
22.9000 1025.0000 1.0000
22.9100 980.0000 1.0000
22.9200 1006.0000 1.0000
22.9300 1050.0000 1.0000
22.9400 1003.0000 1.0000
22.9500 1010.0000 1.0000
22.9600 997.0000 1.0000
22.9700 1049.0000 1.0000
22.9800 998.0000 1.0000
22.9900 1026.0000 1.0000
23.0000 1007.0000 1.0000
23.0100 988.0000 1.0000
23.0200 1013.0000 1.0000
23.0300 998.0000 1.0000
23.0400 1017.0000 1.0000
23.0500 933.0000 1.0000
23.0600 981.0000 1.0000
23.0700 1018.0000 1.0000
23.0800 998.0000 1.0000
23.0900 990.0000 1.0000
23.1000 1031.0000 1.0000
23.1100 1003.0000 1.0000
23.1200 1001.0000 1.0000
23.1300 970.0000 1.0000
23.1400 1009.0000 1.0000
23.1500 1041.0000 1.0000
23.1600 1008.0000 1.0000
23.1700 983.0000 1.0000
23.1800 1011.0000 1.0000
23.1900 945.0000 1.0000
23.2000 1013.0000 1.0000
23.2100 1005.0000 1.0000
23.2200 972.0000 1.0000
23.2300 996.0000 1.0000
23.2400 964.0000 1.0000
23.2500 970.0000 1.0000
23.2600 992.0000 1.0000
23.2700 1029.0000 1.0000
23.2800 981.0000 1.0000
23.2900 960.0000 1.0000
23.3000 1000.0000 1.0000
23.3100 1010.0000 1.0000
23.3200 1006.0000 1.0000
23.3300 1010.0000 1.0000
23.3400 1004.0000 1.0000
23.3500 977.0000 1.0000
23.3600 1024.0000 1.0000
23.3700 1020.0000 1.0000
23.3800 984.0000 1.0000
23.3900 1010.0000 1.0000
23.4000 980.0000 1.0000
23.4100 976.0000 1.0000
23.4200 967.0000 1.0000
23.4300 998.0000 1.0000
23.4400 997.0000 1.0000
23.4500 960.0000 1.0000
23.4600 1003.0000 1.0000
23.4700 1023.0000 1.0000
23.4800 961.0000 1.0000
23.4900 973.0000 1.0000
23.5000 950.0000 1.0000
23.5100 964.0000 1.0000
23.5200 1016.0000 1.0000
23.5300 972.0000 1.0000
23.5400 987.0000 1.0000
23.5500 992.0000 1.0000
23.5600 989.0000 1.0000
23.5700 1004.0000 1.0000
23.5800 987.0000 1.0000
23.5900 1005.0000 1.0000
23.6000 934.0000 1.0000
23.6100 1023.0000 1.0000
23.6200 998.0000 1.0000
23.6300 1022.0000 1.0000
23.6400 983.0000 1.0000
23.6500 986.0000 1.0000
23.6600 935.0000 1.0000
23.6700 1045.0000 1.0000
23.6800 991.0000 1.0000
23.6900 983.0000 1.0000
23.7000 1003.0000 1.0000
23.7100 1036.0000 1.0000
23.7200 1034.0000 1.0000
23.7300 971.0000 1.0000
23.7400 989.0000 1.0000
23.7500 964.0000 1.0000
23.7600 945.0000 1.0000
23.7700 979.0000 1.0000
23.7800 999.0000 1.0000
23.7900 996.0000 1.0000
23.8000 1054.0000 1.0000
23.8100 1001.0000 1.0000
23.8200 1023.0000 1.0000
23.8300 1018.0000 1.0000
23.8400 984.0000 1.0000
23.8500 1009.0000 1.0000
23.8600 984.0000 1.0000
23.8700 1040.0000 1.0000
23.8800 1021.0000 1.0000
23.8900 1013.0000 1.0000
23.9000 997.0000 1.0000
23.9100 1068.0000 1.0000
23.9200 1025.0000 1.0000
23.9300 1018.0000 1.0000
23.9400 1018.0000 1.0000
23.9500 1062.0000 1.0000
23.9600 1040.0000 1.0000
23.9700 1030.0000 1.0000
23.9800 1068.0000 1.0000
23.9900 1044.0000 1.0000
24.0000 1005.0000 1.0000
24.0100 1038.0000 1.0000
24.0200 1068.0000 1.0000
24.0300 1038.0000 1.0000
24.0400 1088.0000 1.0000
24.0500 1071.0000 1.0000
24.0600 1095.0000 1.0000
24.0700 1057.0000 1.0000
24.0800 1095.0000 1.0000
24.0900 1080.0000 1.0000
24.1000 1094.0000 1.0000
24.1100 1022.0000 1.0000
24.1200 1067.0000 1.0000
24.1300 1045.0000 1.0000
24.1400 1107.0000 1.0000
24.1500 1061.0000 1.0000
24.1600 1109.0000 1.0000
24.1700 1062.0000 1.0000
24.1800 1030.0000 1.0000
24.1900 1016.0000 1.0000
24.2000 1037.0000 1.0000
24.2100 988.0000 1.0000
24.2200 993.0000 1.0000
24.2300 1007.0000 1.0000
24.2400 1022.0000 1.0000
24.2500 1037.0000 1.0000
24.2600 991.0000 1.0000
24.2700 976.0000 1.0000
24.2800 977.0000 1.0000
24.2900 1013.0000 1.0000
24.3000 1028.0000 1.0000
24.3100 1027.0000 1.0000
24.3200 1009.0000 1.0000
24.3300 998.0000 1.0000
24.3400 988.0000 1.0000
24.3500 1043.0000 1.0000
24.3600 1013.0000 1.0000
24.3700 1054.0000 1.0000
24.3800 995.0000 1.0000
24.3900 986.0000 1.0000
24.4000 979.0000 1.0000
24.4100 986.0000 1.0000
24.4200 961.0000 1.0000
24.4300 1002.0000 1.0000
24.4400 1041.0000 1.0000
24.4500 1010.0000 1.0000
24.4600 1008.0000 1.0000
24.4700 998.0000 1.0000
24.4800 1002.0000 1.0000
24.4900 956.0000 1.0000
24.5000 1013.0000 1.0000
24.5100 1048.0000 1.0000
24.5200 1022.0000 1.0000
24.5300 958.0000 1.0000
24.5400 986.0000 1.0000
24.5500 1005.0000 1.0000
24.5600 951.0000 1.0000
24.5700 944.0000 1.0000
24.5800 990.0000 1.0000
24.5900 1002.0000 1.0000
24.6000 1010.0000 1.0000
24.6100 959.0000 1.0000
24.6200 1008.0000 1.0000
24.6300 937.0000 1.0000
24.6400 1002.0000 1.0000
24.6500 989.0000 1.0000
24.6600 996.0000 1.0000
24.6700 946.0000 1.0000
24.6800 972.0000 1.0000
24.6900 958.0000 1.0000
24.7000 941.0000 1.0000
24.7100 1027.0000 1.0000
24.7200 941.0000 1.0000
24.7300 970.0000 1.0000
24.7400 939.0000 1.0000
24.7500 964.0000 1.0000
24.7600 1047.0000 1.0000
24.7700 1014.0000 1.0000
24.7800 989.0000 1.0000
24.7900 918.0000 1.0000
24.8000 982.0000 1.0000
24.8100 938.0000 1.0000
24.8200 971.0000 1.0000
24.8300 949.0000 1.0000
24.8400 974.0000 1.0000
24.8500 1000.0000 1.0000
24.8600 988.0000 1.0000
24.8700 1018.0000 1.0000
24.8800 994.0000 1.0000
24.8900 958.0000 1.0000
24.9000 972.0000 1.0000
24.9100 965.0000 1.0000
24.9200 905.0000 1.0000
24.9300 964.0000 1.0000
24.9400 938.0000 1.0000
24.9500 1013.0000 1.0000
24.9600 1021.0000 1.0000
24.9700 1007.0000 1.0000
24.9800 986.0000 1.0000
24.9900 966.0000 1.0000
25.0000 981.0000 1.0000
25.0100 999.0000 1.0000
25.0200 997.0000 1.0000
25.0300 1020.0000 1.0000
25.0400 957.0000 1.0000
25.0500 990.0000 1.0000
25.0600 940.0000 1.0000
25.0700 1000.0000 1.0000
25.0800 944.0000 1.0000
25.0900 959.0000 1.0000
25.1000 973.0000 1.0000
25.1100 968.0000 1.0000
25.1200 998.0000 1.0000
25.1300 962.0000 1.0000
25.1400 982.0000 1.0000
25.1500 973.0000 1.0000
25.1600 926.0000 1.0000
25.1700 976.0000 1.0000
25.1800 1005.0000 1.0000
25.1900 966.0000 1.0000
25.2000 967.0000 1.0000
25.2100 984.0000 1.0000
25.2200 957.0000 1.0000
25.2300 963.0000 1.0000
25.2400 1027.0000 1.0000
25.2500 1026.0000 1.0000
25.2600 953.0000 1.0000
25.2700 961.0000 1.0000
25.2800 907.0000 1.0000
25.2900 954.0000 1.0000
25.3000 972.0000 1.0000
25.3100 970.0000 1.0000
25.3200 994.0000 1.0000
25.3300 977.0000 1.0000
25.3400 1003.0000 1.0000
25.3500 966.0000 1.0000
25.3600 1041.0000 1.0000
25.3700 987.0000 1.0000
25.3800 963.0000 1.0000
25.3900 1025.0000 1.0000
25.4000 987.0000 1.0000
25.4100 985.0000 1.0000
25.4200 928.0000 1.0000
25.4300 982.0000 1.0000
25.4400 983.0000 1.0000
25.4500 967.0000 1.0000
25.4600 972.0000 1.0000
25.4700 968.0000 1.0000
25.4800 992.0000 1.0000
25.4900 992.0000 1.0000
25.5000 997.0000 1.0000
25.5100 965.0000 1.0000
25.5200 1013.0000 1.0000
25.5300 966.0000 1.0000
25.5400 1040.0000 1.0000
25.5500 981.0000 1.0000
25.5600 998.0000 1.0000
25.5700 1002.0000 1.0000
25.5800 983.0000 1.0000
25.5900 948.0000 1.0000
25.6000 975.0000 1.0000
25.6100 1013.0000 1.0000
25.6200 989.0000 1.0000
25.6300 976.0000 1.0000
25.6400 988.0000 1.0000
25.6500 986.0000 1.0000
25.6600 1018.0000 1.0000
25.6700 1031.0000 1.0000
25.6800 1030.0000 1.0000
25.6900 1007.0000 1.0000
25.7000 981.0000 1.0000
25.7100 1010.0000 1.0000
25.7200 970.0000 1.0000
25.7300 1005.0000 1.0000
25.7400 1008.0000 1.0000
25.7500 1003.0000 1.0000
25.7600 951.0000 1.0000
25.7700 1024.0000 1.0000
25.7800 1056.0000 1.0000
25.7900 1026.0000 1.0000
25.8000 981.0000 1.0000
25.8100 1000.0000 1.0000
25.8200 986.0000 1.0000
25.8300 1020.0000 1.0000
25.8400 1064.0000 1.0000
25.8500 1061.0000 1.0000
25.8600 1076.0000 1.0000
25.8700 1047.0000 1.0000
25.8800 1083.0000 1.0000
25.8900 1083.0000 1.0000
25.9000 1025.0000 1.0000
25.9100 1028.0000 1.0000
25.9200 1034.0000 1.0000
25.9300 1070.0000 1.0000
25.9400 1053.0000 1.0000
25.9500 1083.0000 1.0000
25.9600 1075.0000 1.0000
25.9700 1142.0000 1.0000
25.9800 1105.0000 1.0000
25.9900 1057.0000 1.0000
26.0000 1084.0000 1.0000
26.0100 1111.0000 1.0000
26.0200 1096.0000 1.0000
26.0300 1109.0000 1.0000
26.0400 1131.0000 1.0000
26.0500 1138.0000 1.0000
26.0600 1130.0000 1.0000
26.0700 1131.0000 1.0000
26.0800 1195.0000 1.0000
26.0900 1196.0000 1.0000
26.1000 1224.0000 1.0000
26.1100 1180.0000 1.0000
26.1200 1236.0000 1.0000
26.1300 1227.0000 1.0000
26.1400 1273.0000 1.0000
26.1500 1283.0000 1.0000
26.1600 1353.0000 1.0000
26.1700 1365.0000 1.0000
26.1800 1415.0000 1.0000
26.1900 1445.0000 1.0000
26.2000 1515.0000 1.0000
26.2100 1512.0000 1.0000
26.2200 1564.0000 1.0000
26.2300 1566.0000 1.0000
26.2400 1685.0000 1.0000
26.2500 1715.0000 1.0000
26.2600 1744.0000 1.0000
26.2700 1883.0000 1.0000
26.2800 2024.0000 1.0000
26.2900 2117.0000 1.0000
26.3000 2202.0000 1.0000
26.3100 2297.0000 1.0000
26.3200 2369.0000 1.0000
26.3300 2508.0000 1.0000
26.3400 2617.0000 1.0000
26.3500 2792.0000 1.0000
26.3600 2939.0000 1.0000
26.3700 3036.0000 1.0000
26.3800 3156.0000 1.0000
26.3900 3166.0000 1.0000
26.4000 3254.0000 1.0000
26.4100 3400.0000 1.0000
26.4200 3501.0000 1.0000
26.4300 3466.0000 1.0000
26.4400 3562.0000 1.0000
26.4500 3470.0000 1.0000
26.4600 3410.0000 1.0000
26.4700 3301.0000 1.0000
26.4800 3175.0000 1.0000
26.4900 3046.0000 1.0000
26.5000 2932.0000 1.0000
26.5100 2808.0000 1.0000
26.5200 2694.0000 1.0000
26.5300 2643.0000 1.0000
26.5400 2504.0000 1.0000
26.5500 2327.0000 1.0000
26.5600 2166.0000 1.0000
26.5700 2066.0000 1.0000
26.5800 2054.0000 1.0000
26.5900 1891.0000 1.0000
26.6000 1832.0000 1.0000
26.6100 1722.0000 1.0000
26.6200 1613.0000 1.0000
26.6300 1626.0000 1.0000
26.6400 1592.0000 1.0000
26.6500 1456.0000 1.0000
26.6600 1455.0000 1.0000
26.6700 1473.0000 1.0000
26.6800 1417.0000 1.0000
26.6900 1325.0000 1.0000
26.7000 1268.0000 1.0000
26.7100 1290.0000 1.0000
26.7200 1271.0000 1.0000
26.7300 1258.0000 1.0000
26.7400 1262.0000 1.0000
26.7500 1188.0000 1.0000
26.7600 1165.0000 1.0000
26.7700 1136.0000 1.0000
26.7800 1193.0000 1.0000
26.7900 1155.0000 1.0000
26.8000 1167.0000 1.0000
26.8100 1141.0000 1.0000
26.8200 1101.0000 1.0000
26.8300 1084.0000 1.0000
26.8400 1071.0000 1.0000
26.8500 1065.0000 1.0000
26.8600 1041.0000 1.0000
26.8700 1083.0000 1.0000
26.8800 1039.0000 1.0000
26.8900 1028.0000 1.0000
26.9000 1053.0000 1.0000
26.9100 1034.0000 1.0000
26.9200 1026.0000 1.0000
26.9300 1041.0000 1.0000
26.9400 958.0000 1.0000
26.9500 1010.0000 1.0000
26.9600 1016.0000 1.0000
26.9700 992.0000 1.0000
26.9800 943.0000 1.0000
26.9900 979.0000 1.0000
27.0000 941.0000 1.0000
27.0100 908.0000 1.0000
27.0200 964.0000 1.0000
27.0300 1029.0000 1.0000
27.0400 1023.0000 1.0000
27.0500 1017.0000 1.0000
27.0600 965.0000 1.0000
27.0700 962.0000 1.0000
27.0800 934.0000 1.0000
27.0900 994.0000 1.0000
27.1000 973.0000 1.0000
27.1100 962.0000 1.0000
27.1200 923.0000 1.0000
27.1300 978.0000 1.0000
27.1400 990.0000 1.0000
27.1500 951.0000 1.0000
27.1600 968.0000 1.0000
27.1700 943.0000 1.0000
27.1800 943.0000 1.0000
27.1900 937.0000 1.0000
27.2000 989.0000 1.0000
27.2100 996.0000 1.0000
27.2200 988.0000 1.0000
27.2300 967.0000 1.0000
27.2400 925.0000 1.0000
27.2500 925.0000 1.0000
27.2600 919.0000 1.0000
27.2700 939.0000 1.0000
27.2800 948.0000 1.0000
27.2900 949.0000 1.0000
27.3000 922.0000 1.0000
27.3100 938.0000 1.0000
27.3200 940.0000 1.0000
27.3300 977.0000 1.0000
27.3400 965.0000 1.0000
27.3500 933.0000 1.0000
27.3600 937.0000 1.0000
27.3700 918.0000 1.0000
27.3800 960.0000 1.0000
27.3900 942.0000 1.0000
27.4000 899.0000 1.0000
27.4100 928.0000 1.0000
27.4200 937.0000 1.0000
27.4300 917.0000 1.0000
27.4400 899.0000 1.0000
27.4500 912.0000 1.0000
27.4600 919.0000 1.0000
27.4700 933.0000 1.0000
27.4800 908.0000 1.0000
27.4900 925.0000 1.0000
27.5000 928.0000 1.0000
27.5100 924.0000 1.0000
27.5200 966.0000 1.0000
27.5300 914.0000 1.0000
27.5400 886.0000 1.0000
27.5500 902.0000 1.0000
27.5600 933.0000 1.0000
27.5700 850.0000 1.0000
27.5800 874.0000 1.0000
27.5900 889.0000 1.0000
27.6000 840.0000 1.0000
27.6100 891.0000 1.0000
27.6200 907.0000 1.0000
27.6300 901.0000 1.0000
27.6400 949.0000 1.0000
27.6500 900.0000 1.0000
27.6600 911.0000 1.0000
27.6700 882.0000 1.0000
27.6800 867.0000 1.0000
27.6900 846.0000 1.0000
27.7000 895.0000 1.0000
27.7100 864.0000 1.0000
27.7200 951.0000 1.0000
27.7300 897.0000 1.0000
27.7400 920.0000 1.0000
27.7500 893.0000 1.0000
27.7600 909.0000 1.0000
27.7700 852.0000 1.0000
27.7800 853.0000 1.0000
27.7900 890.0000 1.0000
27.8000 937.0000 1.0000
27.8100 876.0000 1.0000
27.8200 861.0000 1.0000
27.8300 898.0000 1.0000
27.8400 873.0000 1.0000
27.8500 853.0000 1.0000
27.8600 886.0000 1.0000
27.8700 881.0000 1.0000
27.8800 867.0000 1.0000
27.8900 941.0000 1.0000
27.9000 870.0000 1.0000
27.9100 891.0000 1.0000
27.9200 864.0000 1.0000
27.9300 877.0000 1.0000
27.9400 897.0000 1.0000
27.9500 873.0000 1.0000
27.9600 900.0000 1.0000
27.9700 861.0000 1.0000
27.9800 841.0000 1.0000
27.9900 899.0000 1.0000
28.0000 878.0000 1.0000
28.0100 837.0000 1.0000
28.0200 867.0000 1.0000
28.0300 921.0000 1.0000
28.0400 862.0000 1.0000
28.0500 888.0000 1.0000
28.0600 861.0000 1.0000
28.0700 915.0000 1.0000
28.0800 862.0000 1.0000
28.0900 872.0000 1.0000
28.1000 872.0000 1.0000
28.1100 854.0000 1.0000
28.1200 858.0000 1.0000
28.1300 864.0000 1.0000
28.1400 887.0000 1.0000
28.1500 902.0000 1.0000
28.1600 854.0000 1.0000
28.1700 872.0000 1.0000
28.1800 886.0000 1.0000
28.1900 879.0000 1.0000
28.2000 871.0000 1.0000
28.2100 903.0000 1.0000
28.2200 838.0000 1.0000
28.2300 882.0000 1.0000
28.2400 860.0000 1.0000
28.2500 868.0000 1.0000
28.2600 832.0000 1.0000
28.2700 858.0000 1.0000
28.2800 861.0000 1.0000
28.2900 840.0000 1.0000
28.3000 865.0000 1.0000
28.3100 868.0000 1.0000
28.3200 822.0000 1.0000
28.3300 844.0000 1.0000
28.3400 844.0000 1.0000
28.3500 836.0000 1.0000
28.3600 879.0000 1.0000
28.3700 859.0000 1.0000
28.3800 847.0000 1.0000
28.3900 811.0000 1.0000
28.4000 825.0000 1.0000
28.4100 834.0000 1.0000
28.4200 878.0000 1.0000
28.4300 859.0000 1.0000
28.4400 917.0000 1.0000
28.4500 871.0000 1.0000
28.4600 850.0000 1.0000
28.4700 865.0000 1.0000
28.4800 810.0000 1.0000
28.4900 858.0000 1.0000
28.5000 845.0000 1.0000
28.5100 834.0000 1.0000
28.5200 835.0000 1.0000
28.5300 807.0000 1.0000
28.5400 892.0000 1.0000
28.5500 841.0000 1.0000
28.5600 859.0000 1.0000
28.5700 877.0000 1.0000
28.5800 869.0000 1.0000
28.5900 865.0000 1.0000
28.6000 830.0000 1.0000
28.6100 815.0000 1.0000
28.6200 853.0000 1.0000
28.6300 859.0000 1.0000
28.6400 858.0000 1.0000
28.6500 859.0000 1.0000
28.6600 842.0000 1.0000
28.6700 846.0000 1.0000
28.6800 880.0000 1.0000
28.6900 864.0000 1.0000
28.7000 819.0000 1.0000
28.7100 820.0000 1.0000
28.7200 844.0000 1.0000
28.7300 829.0000 1.0000
28.7400 837.0000 1.0000
28.7500 899.0000 1.0000
28.7600 859.0000 1.0000
28.7700 843.0000 1.0000
28.7800 822.0000 1.0000
28.7900 816.0000 1.0000
28.8000 850.0000 1.0000
28.8100 872.0000 1.0000
28.8200 844.0000 1.0000
28.8300 857.0000 1.0000
28.8400 873.0000 1.0000
28.8500 820.0000 1.0000
28.8600 813.0000 1.0000
28.8700 851.0000 1.0000
28.8800 789.0000 1.0000
28.8900 829.0000 1.0000
28.9000 858.0000 1.0000
28.9100 881.0000 1.0000
28.9200 834.0000 1.0000
28.9300 831.0000 1.0000
28.9400 803.0000 1.0000
28.9500 817.0000 1.0000
28.9600 833.0000 1.0000
28.9700 827.0000 1.0000
28.9800 804.0000 1.0000
28.9900 809.0000 1.0000
29.0000 852.0000 1.0000
29.0100 815.0000 1.0000
29.0200 831.0000 1.0000
29.0300 869.0000 1.0000
29.0400 822.0000 1.0000
29.0500 808.0000 1.0000
29.0600 857.0000 1.0000
29.0700 835.0000 1.0000
29.0800 838.0000 1.0000
29.0900 828.0000 1.0000
29.1000 835.0000 1.0000
29.1100 879.0000 1.0000
29.1200 840.0000 1.0000
29.1300 859.0000 1.0000
29.1400 824.0000 1.0000
29.1500 769.0000 1.0000
29.1600 829.0000 1.0000
29.1700 830.0000 1.0000
29.1800 828.0000 1.0000
29.1900 809.0000 1.0000
29.2000 860.0000 1.0000
29.2100 814.0000 1.0000
29.2200 819.0000 1.0000
29.2300 839.0000 1.0000
29.2400 800.0000 1.0000
29.2500 796.0000 1.0000
29.2600 806.0000 1.0000
29.2700 828.0000 1.0000
29.2800 818.0000 1.0000
29.2900 817.0000 1.0000
29.3000 791.0000 1.0000
29.3100 805.0000 1.0000
29.3200 804.0000 1.0000
29.3300 807.0000 1.0000
29.3400 819.0000 1.0000
29.3500 765.0000 1.0000
29.3600 818.0000 1.0000
29.3700 801.0000 1.0000
29.3800 792.0000 1.0000
29.3900 772.0000 1.0000
29.4000 806.0000 1.0000
29.4100 788.0000 1.0000
29.4200 811.0000 1.0000
29.4300 807.0000 1.0000
29.4400 831.0000 1.0000
29.4500 801.0000 1.0000
29.4600 811.0000 1.0000
29.4700 805.0000 1.0000
29.4800 800.0000 1.0000
29.4900 805.0000 1.0000
29.5000 837.0000 1.0000
29.5100 814.0000 1.0000
29.5200 810.0000 1.0000
29.5300 783.0000 1.0000
29.5400 811.0000 1.0000
29.5500 808.0000 1.0000
29.5600 786.0000 1.0000
29.5700 781.0000 1.0000
29.5800 777.0000 1.0000
29.5900 819.0000 1.0000
29.6000 866.0000 1.0000
29.6100 815.0000 1.0000
29.6200 804.0000 1.0000
29.6300 782.0000 1.0000
29.6400 789.0000 1.0000
29.6500 787.0000 1.0000
29.6600 830.0000 1.0000
29.6700 780.0000 1.0000
29.6800 827.0000 1.0000
29.6900 790.0000 1.0000
29.7000 782.0000 1.0000
29.7100 786.0000 1.0000
29.7200 800.0000 1.0000
29.7300 805.0000 1.0000
29.7400 784.0000 1.0000
29.7500 812.0000 1.0000
29.7600 798.0000 1.0000
29.7700 825.0000 1.0000
29.7800 841.0000 1.0000
29.7900 814.0000 1.0000
29.8000 765.0000 1.0000
29.8100 751.0000 1.0000
29.8200 802.0000 1.0000
29.8300 796.0000 1.0000
29.8400 795.0000 1.0000
29.8500 766.0000 1.0000
29.8600 762.0000 1.0000
29.8700 807.0000 1.0000
29.8800 820.0000 1.0000
29.8900 804.0000 1.0000
29.9000 796.0000 1.0000
29.9100 804.0000 1.0000
29.9200 806.0000 1.0000
29.9300 826.0000 1.0000
29.9400 799.0000 1.0000
29.9500 783.0000 1.0000
29.9600 800.0000 1.0000
29.9700 795.0000 1.0000
29.9800 814.0000 1.0000
29.9900 817.0000 1.0000
30.0000 784.0000 1.0000
30.0100 782.0000 1.0000
30.0200 809.0000 1.0000
30.0300 845.0000 1.0000
30.0400 790.0000 1.0000
30.0500 799.0000 1.0000
30.0600 799.0000 1.0000
30.0700 836.0000 1.0000
30.0800 754.0000 1.0000
30.0900 791.0000 1.0000
30.1000 806.0000 1.0000
30.1100 763.0000 1.0000
30.1200 794.0000 1.0000
30.1300 813.0000 1.0000
30.1400 768.0000 1.0000
30.1500 777.0000 1.0000
30.1600 742.0000 1.0000
30.1700 774.0000 1.0000
30.1800 800.0000 1.0000
30.1900 798.0000 1.0000
30.2000 783.0000 1.0000
30.2100 838.0000 1.0000
30.2200 798.0000 1.0000
30.2300 811.0000 1.0000
30.2400 757.0000 1.0000
30.2500 811.0000 1.0000
30.2600 774.0000 1.0000
30.2700 823.0000 1.0000
30.2800 776.0000 1.0000
30.2900 779.0000 1.0000
30.3000 782.0000 1.0000
30.3100 825.0000 1.0000
30.3200 809.0000 1.0000
30.3300 799.0000 1.0000
30.3400 770.0000 1.0000
30.3500 801.0000 1.0000
30.3600 781.0000 1.0000
30.3700 767.0000 1.0000
30.3800 758.0000 1.0000
30.3900 746.0000 1.0000
30.4000 806.0000 1.0000
30.4100 802.0000 1.0000
30.4200 744.0000 1.0000
30.4300 766.0000 1.0000
30.4400 765.0000 1.0000
30.4500 797.0000 1.0000
30.4600 770.0000 1.0000
30.4700 733.0000 1.0000
30.4800 793.0000 1.0000
30.4900 771.0000 1.0000
30.5000 790.0000 1.0000
30.5100 795.0000 1.0000
30.5200 764.0000 1.0000
30.5300 741.0000 1.0000
30.5400 753.0000 1.0000
30.5500 747.0000 1.0000
30.5600 796.0000 1.0000
30.5700 786.0000 1.0000
30.5800 751.0000 1.0000
30.5900 747.0000 1.0000
30.6000 798.0000 1.0000
30.6100 771.0000 1.0000
30.6200 750.0000 1.0000
30.6300 768.0000 1.0000
30.6400 750.0000 1.0000
30.6500 798.0000 1.0000
30.6600 777.0000 1.0000
30.6700 721.0000 1.0000
30.6800 778.0000 1.0000
30.6900 758.0000 1.0000
30.7000 729.0000 1.0000
30.7100 737.0000 1.0000
30.7200 770.0000 1.0000
30.7300 739.0000 1.0000
30.7400 780.0000 1.0000
30.7500 743.0000 1.0000
30.7600 730.0000 1.0000
30.7700 792.0000 1.0000
30.7800 778.0000 1.0000
30.7900 763.0000 1.0000
30.8000 742.0000 1.0000
30.8100 733.0000 1.0000
30.8200 714.0000 1.0000
30.8300 761.0000 1.0000
30.8400 749.0000 1.0000
30.8500 751.0000 1.0000
30.8600 756.0000 1.0000
30.8700 781.0000 1.0000
30.8800 767.0000 1.0000
30.8900 763.0000 1.0000
30.9000 764.0000 1.0000
30.9100 777.0000 1.0000
30.9200 745.0000 1.0000
30.9300 731.0000 1.0000
30.9400 768.0000 1.0000
30.9500 789.0000 1.0000
30.9600 809.0000 1.0000
30.9700 773.0000 1.0000
30.9800 772.0000 1.0000
30.9900 770.0000 1.0000
31.0000 777.0000 1.0000
31.0100 770.0000 1.0000
31.0200 743.0000 1.0000
31.0300 750.0000 1.0000
31.0400 771.0000 1.0000
31.0500 762.0000 1.0000
31.0600 789.0000 1.0000
31.0700 779.0000 1.0000
31.0800 777.0000 1.0000
31.0900 770.0000 1.0000
31.1000 762.0000 1.0000
31.1100 746.0000 1.0000
31.1200 722.0000 1.0000
31.1300 791.0000 1.0000
31.1400 778.0000 1.0000
31.1500 771.0000 1.0000
31.1600 813.0000 1.0000
31.1700 743.0000 1.0000
31.1800 790.0000 1.0000
31.1900 789.0000 1.0000
31.2000 791.0000 1.0000
31.2100 734.0000 1.0000
31.2200 752.0000 1.0000
31.2300 713.0000 1.0000
31.2400 797.0000 1.0000
31.2500 765.0000 1.0000
31.2600 778.0000 1.0000
31.2700 767.0000 1.0000
31.2800 778.0000 1.0000
31.2900 776.0000 1.0000
31.3000 766.0000 1.0000
31.3100 758.0000 1.0000
31.3200 725.0000 1.0000
31.3300 740.0000 1.0000
31.3400 784.0000 1.0000
31.3500 754.0000 1.0000
31.3600 756.0000 1.0000
31.3700 750.0000 1.0000
31.3800 740.0000 1.0000
31.3900 766.0000 1.0000
31.4000 734.0000 1.0000
31.4100 760.0000 1.0000
31.4200 784.0000 1.0000
31.4300 751.0000 1.0000
31.4400 791.0000 1.0000
31.4500 746.0000 1.0000
31.4600 738.0000 1.0000
31.4700 755.0000 1.0000
31.4800 760.0000 1.0000
31.4900 737.0000 1.0000
31.5000 771.0000 1.0000
31.5100 768.0000 1.0000
31.5200 757.0000 1.0000
31.5300 755.0000 1.0000
31.5400 768.0000 1.0000
31.5500 812.0000 1.0000
31.5600 753.0000 1.0000
31.5700 763.0000 1.0000
31.5800 748.0000 1.0000
31.5900 783.0000 1.0000
31.6000 790.0000 1.0000
31.6100 747.0000 1.0000
31.6200 720.0000 1.0000
31.6300 730.0000 1.0000
31.6400 747.0000 1.0000
31.6500 771.0000 1.0000
31.6600 745.0000 1.0000
31.6700 757.0000 1.0000
31.6800 709.0000 1.0000
31.6900 746.0000 1.0000
31.7000 708.0000 1.0000
31.7100 755.0000 1.0000
31.7200 747.0000 1.0000
31.7300 726.0000 1.0000
31.7400 724.0000 1.0000
31.7500 735.0000 1.0000
31.7600 696.0000 1.0000
31.7700 758.0000 1.0000
31.7800 716.0000 1.0000
31.7900 712.0000 1.0000
31.8000 759.0000 1.0000
31.8100 768.0000 1.0000
31.8200 711.0000 1.0000
31.8300 721.0000 1.0000
31.8400 733.0000 1.0000
31.8500 772.0000 1.0000
31.8600 761.0000 1.0000
31.8700 719.0000 1.0000
31.8800 800.0000 1.0000
31.8900 733.0000 1.0000
31.9000 705.0000 1.0000
31.9100 733.0000 1.0000
31.9200 721.0000 1.0000
31.9300 696.0000 1.0000
31.9400 748.0000 1.0000
31.9500 715.0000 1.0000
31.9600 689.0000 1.0000
31.9700 775.0000 1.0000
31.9800 748.0000 1.0000
31.9900 728.0000 1.0000
32.0000 746.0000 1.0000
32.0100 712.0000 1.0000
32.0200 751.0000 1.0000
32.0300 755.0000 1.0000
32.0400 741.0000 1.0000
32.0500 707.0000 1.0000
32.0600 771.0000 1.0000
32.0700 733.0000 1.0000
32.0800 711.0000 1.0000
32.0900 695.0000 1.0000
32.1000 740.0000 1.0000
32.1100 749.0000 1.0000
32.1200 715.0000 1.0000
32.1300 702.0000 1.0000
32.1400 765.0000 1.0000
32.1500 750.0000 1.0000
32.1600 703.0000 1.0000
32.1700 703.0000 1.0000
32.1800 708.0000 1.0000
32.1900 718.0000 1.0000
32.2000 694.0000 1.0000
32.2100 700.0000 1.0000
32.2200 718.0000 1.0000
32.2300 692.0000 1.0000
32.2400 720.0000 1.0000
32.2500 740.0000 1.0000
32.2600 762.0000 1.0000
32.2700 707.0000 1.0000
32.2800 702.0000 1.0000
32.2900 694.0000 1.0000
32.3000 712.0000 1.0000
32.3100 706.0000 1.0000
32.3200 709.0000 1.0000
32.3300 745.0000 1.0000
32.3400 732.0000 1.0000
32.3500 720.0000 1.0000
32.3600 701.0000 1.0000
32.3700 747.0000 1.0000
32.3800 695.0000 1.0000
32.3900 723.0000 1.0000
32.4000 748.0000 1.0000
32.4100 713.0000 1.0000
32.4200 687.0000 1.0000
32.4300 710.0000 1.0000
32.4400 673.0000 1.0000
32.4500 724.0000 1.0000
32.4600 726.0000 1.0000
32.4700 686.0000 1.0000
32.4800 774.0000 1.0000
32.4900 727.0000 1.0000
32.5000 698.0000 1.0000
32.5100 714.0000 1.0000
32.5200 729.0000 1.0000
32.5300 694.0000 1.0000
32.5400 725.0000 1.0000
32.5500 746.0000 1.0000
32.5600 693.0000 1.0000
32.5700 733.0000 1.0000
32.5800 733.0000 1.0000
32.5900 691.0000 1.0000
32.6000 761.0000 1.0000
32.6100 723.0000 1.0000
32.6200 675.0000 1.0000
32.6300 698.0000 1.0000
32.6400 712.0000 1.0000
32.6500 731.0000 1.0000
32.6600 689.0000 1.0000
32.6700 728.0000 1.0000
32.6800 734.0000 1.0000
32.6900 701.0000 1.0000
32.7000 710.0000 1.0000
32.7100 694.0000 1.0000
32.7200 729.0000 1.0000
32.7300 705.0000 1.0000
32.7400 750.0000 1.0000
32.7500 728.0000 1.0000
32.7600 723.0000 1.0000
32.7700 740.0000 1.0000
32.7800 752.0000 1.0000
32.7900 696.0000 1.0000
32.8000 717.0000 1.0000
32.8100 725.0000 1.0000
32.8200 758.0000 1.0000
32.8300 715.0000 1.0000
32.8400 739.0000 1.0000
32.8500 734.0000 1.0000
32.8600 694.0000 1.0000
32.8700 732.0000 1.0000
32.8800 773.0000 1.0000
32.8900 799.0000 1.0000
32.9000 748.0000 1.0000
32.9100 768.0000 1.0000
32.9200 797.0000 1.0000
32.9300 736.0000 1.0000
32.9400 727.0000 1.0000
32.9500 773.0000 1.0000
32.9600 725.0000 1.0000
32.9700 831.0000 1.0000
32.9800 770.0000 1.0000
32.9900 840.0000 1.0000
33.0000 794.0000 1.0000
33.0100 798.0000 1.0000
33.0200 809.0000 1.0000
33.0300 844.0000 1.0000
33.0400 868.0000 1.0000
33.0500 843.0000 1.0000
33.0600 824.0000 1.0000
33.0700 798.0000 1.0000
33.0800 850.0000 1.0000
33.0900 772.0000 1.0000
33.1000 877.0000 1.0000
33.1100 826.0000 1.0000
33.1200 843.0000 1.0000
33.1300 855.0000 1.0000
33.1400 863.0000 1.0000
33.1500 877.0000 1.0000
33.1600 800.0000 1.0000
33.1700 856.0000 1.0000
33.1800 833.0000 1.0000
33.1900 823.0000 1.0000
33.2000 767.0000 1.0000
33.2100 742.0000 1.0000
33.2200 782.0000 1.0000
33.2300 781.0000 1.0000
33.2400 758.0000 1.0000
33.2500 740.0000 1.0000
33.2600 809.0000 1.0000
33.2700 787.0000 1.0000
33.2800 812.0000 1.0000
33.2900 783.0000 1.0000
33.3000 753.0000 1.0000
33.3100 798.0000 1.0000
33.3200 813.0000 1.0000
33.3300 764.0000 1.0000
33.3400 789.0000 1.0000
33.3500 803.0000 1.0000
33.3600 881.0000 1.0000
33.3700 813.0000 1.0000
33.3800 826.0000 1.0000
33.3900 863.0000 1.0000
33.4000 877.0000 1.0000
33.4100 887.0000 1.0000
33.4200 887.0000 1.0000
33.4300 919.0000 1.0000
33.4400 962.0000 1.0000
33.4500 970.0000 1.0000
33.4600 1002.0000 1.0000
33.4700 1006.0000 1.0000
33.4800 1045.0000 1.0000
33.4900 1147.0000 1.0000
33.5000 1107.0000 1.0000
33.5100 1147.0000 1.0000
33.5200 1206.0000 1.0000
33.5300 1191.0000 1.0000
33.5400 1265.0000 1.0000
33.5500 1342.0000 1.0000
33.5600 1397.0000 1.0000
33.5700 1462.0000 1.0000
33.5800 1484.0000 1.0000
33.5900 1574.0000 1.0000
33.6000 1559.0000 1.0000
33.6100 1743.0000 1.0000
33.6200 1692.0000 1.0000
33.6300 1675.0000 1.0000
33.6400 1718.0000 1.0000
33.6500 1716.0000 1.0000
33.6600 1753.0000 1.0000
33.6700 1671.0000 1.0000
33.6800 1606.0000 1.0000
33.6900 1671.0000 1.0000
33.7000 1632.0000 1.0000
33.7100 1571.0000 1.0000
33.7200 1446.0000 1.0000
33.7300 1380.0000 1.0000
33.7400 1394.0000 1.0000
33.7500 1341.0000 1.0000
33.7600 1335.0000 1.0000
33.7700 1246.0000 1.0000
33.7800 1219.0000 1.0000
33.7900 1146.0000 1.0000
33.8000 1093.0000 1.0000
33.8100 1100.0000 1.0000
33.8200 1013.0000 1.0000
33.8300 988.0000 1.0000
33.8400 986.0000 1.0000
33.8500 949.0000 1.0000
33.8600 974.0000 1.0000
33.8700 908.0000 1.0000
33.8800 918.0000 1.0000
33.8900 920.0000 1.0000
33.9000 874.0000 1.0000
33.9100 825.0000 1.0000
33.9200 844.0000 1.0000
33.9300 807.0000 1.0000
33.9400 817.0000 1.0000
33.9500 784.0000 1.0000
33.9600 802.0000 1.0000
33.9700 826.0000 1.0000
33.9800 783.0000 1.0000
33.9900 745.0000 1.0000
34.0000 778.0000 1.0000
34.0100 748.0000 1.0000
34.0200 763.0000 1.0000
34.0300 727.0000 1.0000
34.0400 744.0000 1.0000
34.0500 750.0000 1.0000
34.0600 746.0000 1.0000
34.0700 769.0000 1.0000
34.0800 731.0000 1.0000
34.0900 700.0000 1.0000
34.1000 697.0000 1.0000
34.1100 721.0000 1.0000
34.1200 679.0000 1.0000
34.1300 710.0000 1.0000
34.1400 673.0000 1.0000
34.1500 683.0000 1.0000
34.1600 695.0000 1.0000
34.1700 707.0000 1.0000
34.1800 722.0000 1.0000
34.1900 711.0000 1.0000
34.2000 698.0000 1.0000
34.2100 721.0000 1.0000
34.2200 662.0000 1.0000
34.2300 640.0000 1.0000
34.2400 653.0000 1.0000
34.2500 696.0000 1.0000
34.2600 667.0000 1.0000
34.2700 701.0000 1.0000
34.2800 701.0000 1.0000
34.2900 680.0000 1.0000
34.3000 679.0000 1.0000
34.3100 737.0000 1.0000
34.3200 665.0000 1.0000
34.3300 665.0000 1.0000
34.3400 645.0000 1.0000
34.3500 671.0000 1.0000
34.3600 694.0000 1.0000
34.3700 682.0000 1.0000
34.3800 677.0000 1.0000
34.3900 663.0000 1.0000
34.4000 653.0000 1.0000
34.4100 681.0000 1.0000
34.4200 653.0000 1.0000
34.4300 650.0000 1.0000
34.4400 676.0000 1.0000
34.4500 649.0000 1.0000
34.4600 646.0000 1.0000
34.4700 663.0000 1.0000
34.4800 600.0000 1.0000
34.4900 626.0000 1.0000
34.5000 683.0000 1.0000
34.5100 650.0000 1.0000
34.5200 658.0000 1.0000
34.5300 657.0000 1.0000
34.5400 628.0000 1.0000
34.5500 649.0000 1.0000
34.5600 661.0000 1.0000
34.5700 651.0000 1.0000
34.5800 664.0000 1.0000
34.5900 628.0000 1.0000
34.6000 600.0000 1.0000
34.6100 632.0000 1.0000
34.6200 654.0000 1.0000
34.6300 642.0000 1.0000
34.6400 656.0000 1.0000
34.6500 637.0000 1.0000
34.6600 635.0000 1.0000
34.6700 677.0000 1.0000
34.6800 645.0000 1.0000
34.6900 632.0000 1.0000
34.7000 639.0000 1.0000
34.7100 614.0000 1.0000
34.7200 637.0000 1.0000
34.7300 659.0000 1.0000
34.7400 656.0000 1.0000
34.7500 616.0000 1.0000
34.7600 620.0000 1.0000
34.7700 634.0000 1.0000
34.7800 624.0000 1.0000
34.7900 634.0000 1.0000
34.8000 646.0000 1.0000
34.8100 636.0000 1.0000
34.8200 645.0000 1.0000
34.8300 650.0000 1.0000
34.8400 651.0000 1.0000
34.8500 657.0000 1.0000
34.8600 623.0000 1.0000
34.8700 657.0000 1.0000
34.8800 612.0000 1.0000
34.8900 665.0000 1.0000
34.9000 603.0000 1.0000
34.9100 617.0000 1.0000
34.9200 625.0000 1.0000
34.9300 585.0000 1.0000
34.9400 628.0000 1.0000
34.9500 648.0000 1.0000
34.9600 651.0000 1.0000
34.9700 646.0000 1.0000
34.9800 589.0000 1.0000
34.9900 577.0000 1.0000
35.0000 618.0000 1.0000
35.0100 615.0000 1.0000
35.0200 634.0000 1.0000
35.0300 641.0000 1.0000
35.0400 659.0000 1.0000
35.0500 627.0000 1.0000
35.0600 585.0000 1.0000
35.0700 614.0000 1.0000
35.0800 636.0000 1.0000
35.0900 632.0000 1.0000
35.1000 636.0000 1.0000
35.1100 628.0000 1.0000
35.1200 605.0000 1.0000
35.1300 609.0000 1.0000
35.1400 662.0000 1.0000
35.1500 624.0000 1.0000
35.1600 602.0000 1.0000
35.1700 619.0000 1.0000
35.1800 631.0000 1.0000
35.1900 632.0000 1.0000
35.2000 641.0000 1.0000
35.2100 654.0000 1.0000
35.2200 632.0000 1.0000
35.2300 628.0000 1.0000
35.2400 652.0000 1.0000
35.2500 662.0000 1.0000
35.2600 651.0000 1.0000
35.2700 657.0000 1.0000
35.2800 690.0000 1.0000
35.2900 611.0000 1.0000
35.3000 673.0000 1.0000
35.3100 670.0000 1.0000
35.3200 634.0000 1.0000
35.3300 672.0000 1.0000
35.3400 679.0000 1.0000
35.3500 702.0000 1.0000
35.3600 712.0000 1.0000
35.3700 684.0000 1.0000
35.3800 736.0000 1.0000
35.3900 749.0000 1.0000
35.4000 711.0000 1.0000
35.4100 786.0000 1.0000
35.4200 821.0000 1.0000
35.4300 862.0000 1.0000
35.4400 882.0000 1.0000
35.4500 890.0000 1.0000
35.4600 967.0000 1.0000
35.4700 934.0000 1.0000
35.4800 1014.0000 1.0000
35.4900 1008.0000 1.0000
35.5000 1094.0000 1.0000
35.5100 1173.0000 1.0000
35.5200 1175.0000 1.0000
35.5300 1235.0000 1.0000
35.5400 1263.0000 1.0000
35.5500 1203.0000 1.0000
35.5600 1277.0000 1.0000
35.5700 1261.0000 1.0000
35.5800 1224.0000 1.0000
35.5900 1240.0000 1.0000
35.6000 1156.0000 1.0000
35.6100 1152.0000 1.0000
35.6200 1111.0000 1.0000
35.6300 1112.0000 1.0000
35.6400 1077.0000 1.0000
35.6500 1022.0000 1.0000
35.6600 920.0000 1.0000
35.6700 898.0000 1.0000
35.6800 854.0000 1.0000
35.6900 831.0000 1.0000
35.7000 814.0000 1.0000
35.7100 774.0000 1.0000
35.7200 825.0000 1.0000
35.7300 749.0000 1.0000
35.7400 716.0000 1.0000
35.7500 722.0000 1.0000
35.7600 689.0000 1.0000
35.7700 622.0000 1.0000
35.7800 642.0000 1.0000
35.7900 619.0000 1.0000
35.8000 603.0000 1.0000
35.8100 684.0000 1.0000
35.8200 652.0000 1.0000
35.8300 607.0000 1.0000
35.8400 604.0000 1.0000
35.8500 572.0000 1.0000
35.8600 612.0000 1.0000
35.8700 598.0000 1.0000
35.8800 608.0000 1.0000
35.8900 614.0000 1.0000
35.9000 603.0000 1.0000
35.9100 575.0000 1.0000
35.9200 592.0000 1.0000
35.9300 559.0000 1.0000
35.9400 591.0000 1.0000
35.9500 601.0000 1.0000
35.9600 632.0000 1.0000
35.9700 602.0000 1.0000
35.9800 610.0000 1.0000
35.9900 562.0000 1.0000
36.0000 547.0000 1.0000
36.0100 585.0000 1.0000
36.0200 579.0000 1.0000
36.0300 594.0000 1.0000
36.0400 550.0000 1.0000
36.0500 555.0000 1.0000
36.0600 561.0000 1.0000
36.0700 577.0000 1.0000
36.0800 600.0000 1.0000
36.0900 570.0000 1.0000
36.1000 578.0000 1.0000
36.1100 599.0000 1.0000
36.1200 608.0000 1.0000
36.1300 618.0000 1.0000
36.1400 599.0000 1.0000
36.1500 590.0000 1.0000
36.1600 568.0000 1.0000
36.1700 554.0000 1.0000
36.1800 576.0000 1.0000
36.1900 565.0000 1.0000
36.2000 549.0000 1.0000
36.2100 571.0000 1.0000
36.2200 576.0000 1.0000
36.2300 554.0000 1.0000
36.2400 572.0000 1.0000
36.2500 580.0000 1.0000
36.2600 595.0000 1.0000
36.2700 557.0000 1.0000
36.2800 604.0000 1.0000
36.2900 576.0000 1.0000
36.3000 585.0000 1.0000
36.3100 562.0000 1.0000
36.3200 619.0000 1.0000
36.3300 564.0000 1.0000
36.3400 574.0000 1.0000
36.3500 596.0000 1.0000
36.3600 572.0000 1.0000
36.3700 566.0000 1.0000
36.3800 576.0000 1.0000
36.3900 586.0000 1.0000
36.4000 601.0000 1.0000
36.4100 592.0000 1.0000
36.4200 557.0000 1.0000
36.4300 569.0000 1.0000
36.4400 561.0000 1.0000
36.4500 532.0000 1.0000
36.4600 578.0000 1.0000
36.4700 582.0000 1.0000
36.4800 557.0000 1.0000
36.4900 599.0000 1.0000
36.5000 599.0000 1.0000
36.5100 597.0000 1.0000
36.5200 532.0000 1.0000
36.5300 569.0000 1.0000
36.5400 596.0000 1.0000
36.5500 557.0000 1.0000
36.5600 593.0000 1.0000
36.5700 545.0000 1.0000
36.5800 591.0000 1.0000
36.5900 552.0000 1.0000
36.6000 564.0000 1.0000
36.6100 542.0000 1.0000
36.6200 581.0000 1.0000
36.6300 590.0000 1.0000
36.6400 563.0000 1.0000
36.6500 596.0000 1.0000
36.6600 570.0000 1.0000
36.6700 558.0000 1.0000
36.6800 535.0000 1.0000
36.6900 566.0000 1.0000
36.7000 575.0000 1.0000
36.7100 585.0000 1.0000
36.7200 569.0000 1.0000
36.7300 531.0000 1.0000
36.7400 591.0000 1.0000
36.7500 589.0000 1.0000
36.7600 547.0000 1.0000
36.7700 577.0000 1.0000
36.7800 587.0000 1.0000
36.7900 531.0000 1.0000
36.8000 573.0000 1.0000
36.8100 586.0000 1.0000
36.8200 565.0000 1.0000
36.8300 536.0000 1.0000
36.8400 541.0000 1.0000
36.8500 543.0000 1.0000
36.8600 579.0000 1.0000
36.8700 565.0000 1.0000
36.8800 587.0000 1.0000
36.8900 559.0000 1.0000
36.9000 573.0000 1.0000
36.9100 584.0000 1.0000
36.9200 598.0000 1.0000
36.9300 592.0000 1.0000
36.9400 594.0000 1.0000
36.9500 575.0000 1.0000
36.9600 577.0000 1.0000
36.9700 552.0000 1.0000
36.9800 557.0000 1.0000
36.9900 558.0000 1.0000
37.0000 572.0000 1.0000
37.0100 597.0000 1.0000
37.0200 555.0000 1.0000
37.0300 538.0000 1.0000
37.0400 590.0000 1.0000
37.0500 588.0000 1.0000
37.0600 565.0000 1.0000
37.0700 591.0000 1.0000
37.0800 646.0000 1.0000
37.0900 614.0000 1.0000
37.1000 612.0000 1.0000
37.1100 589.0000 1.0000
37.1200 620.0000 1.0000
37.1300 572.0000 1.0000
37.1400 611.0000 1.0000
37.1500 586.0000 1.0000
37.1600 572.0000 1.0000
37.1700 606.0000 1.0000
37.1800 601.0000 1.0000
37.1900 608.0000 1.0000
37.2000 587.0000 1.0000
37.2100 604.0000 1.0000
37.2200 603.0000 1.0000
37.2300 623.0000 1.0000
37.2400 615.0000 1.0000
37.2500 624.0000 1.0000
37.2600 628.0000 1.0000
37.2700 631.0000 1.0000
37.2800 639.0000 1.0000
37.2900 634.0000 1.0000
37.3000 682.0000 1.0000
37.3100 679.0000 1.0000
37.3200 710.0000 1.0000
37.3300 701.0000 1.0000
37.3400 752.0000 1.0000
37.3500 740.0000 1.0000
37.3600 739.0000 1.0000
37.3700 724.0000 1.0000
37.3800 765.0000 1.0000
37.3900 779.0000 1.0000
37.4000 839.0000 1.0000
37.4100 886.0000 1.0000
37.4200 882.0000 1.0000
37.4300 891.0000 1.0000
37.4400 949.0000 1.0000
37.4500 935.0000 1.0000
37.4600 993.0000 1.0000
37.4700 1046.0000 1.0000
37.4800 1081.0000 1.0000
37.4900 1142.0000 1.0000
37.5000 1205.0000 1.0000
37.5100 1217.0000 1.0000
37.5200 1318.0000 1.0000
37.5300 1439.0000 1.0000
37.5400 1487.0000 1.0000
37.5500 1591.0000 1.0000
37.5600 1700.0000 1.0000
37.5700 1785.0000 1.0000
37.5800 1862.0000 1.0000
37.5900 2059.0000 1.0000
37.6000 2122.0000 1.0000
37.6100 2224.0000 1.0000
37.6200 2345.0000 1.0000
37.6300 2459.0000 1.0000
37.6400 2568.0000 1.0000
37.6500 2697.0000 1.0000
37.6600 2783.0000 1.0000
37.6700 2912.0000 1.0000
37.6800 2857.0000 1.0000
37.6900 2912.0000 1.0000
37.7000 2907.0000 1.0000
37.7100 2942.0000 1.0000
37.7200 2934.0000 1.0000
37.7300 2951.0000 1.0000
37.7400 2906.0000 1.0000
37.7500 2817.0000 1.0000
37.7600 2703.0000 1.0000
37.7700 2599.0000 1.0000
37.7800 2616.0000 1.0000
37.7900 2482.0000 1.0000
37.8000 2298.0000 1.0000
37.8100 2286.0000 1.0000
37.8200 2145.0000 1.0000
37.8300 2022.0000 1.0000
37.8400 1899.0000 1.0000
37.8500 1838.0000 1.0000
37.8600 1714.0000 1.0000
37.8700 1581.0000 1.0000
37.8800 1459.0000 1.0000
37.8900 1372.0000 1.0000
37.9000 1282.0000 1.0000
37.9100 1200.0000 1.0000
37.9200 1193.0000 1.0000
37.9300 1120.0000 1.0000
37.9400 1070.0000 1.0000
37.9500 1018.0000 1.0000
37.9600 917.0000 1.0000
37.9700 926.0000 1.0000
37.9800 878.0000 1.0000
37.9900 813.0000 1.0000
38.0000 815.0000 1.0000
38.0100 839.0000 1.0000
38.0200 807.0000 1.0000
38.0300 763.0000 1.0000
38.0400 745.0000 1.0000
38.0500 690.0000 1.0000
38.0600 734.0000 1.0000
38.0700 656.0000 1.0000
38.0800 634.0000 1.0000
38.0900 683.0000 1.0000
38.1000 646.0000 1.0000
38.1100 649.0000 1.0000
38.1200 611.0000 1.0000
38.1300 624.0000 1.0000
38.1400 608.0000 1.0000
38.1500 612.0000 1.0000
38.1600 567.0000 1.0000
38.1700 607.0000 1.0000
38.1800 610.0000 1.0000
38.1900 581.0000 1.0000
38.2000 568.0000 1.0000
38.2100 586.0000 1.0000
38.2200 557.0000 1.0000
38.2300 580.0000 1.0000
38.2400 586.0000 1.0000
38.2500 584.0000 1.0000
38.2600 581.0000 1.0000
38.2700 568.0000 1.0000
38.2800 591.0000 1.0000
38.2900 558.0000 1.0000
38.3000 532.0000 1.0000
38.3100 549.0000 1.0000
38.3200 569.0000 1.0000
38.3300 527.0000 1.0000
38.3400 511.0000 1.0000
38.3500 569.0000 1.0000
38.3600 536.0000 1.0000
38.3700 561.0000 1.0000
38.3800 528.0000 1.0000
38.3900 558.0000 1.0000
38.4000 558.0000 1.0000
38.4100 526.0000 1.0000
38.4200 572.0000 1.0000
38.4300 557.0000 1.0000
38.4400 494.0000 1.0000
38.4500 503.0000 1.0000
38.4600 520.0000 1.0000
38.4700 544.0000 1.0000
38.4800 494.0000 1.0000
38.4900 506.0000 1.0000
38.5000 511.0000 1.0000
38.5100 562.0000 1.0000
38.5200 522.0000 1.0000
38.5300 491.0000 1.0000
38.5400 483.0000 1.0000
38.5500 523.0000 1.0000
38.5600 540.0000 1.0000
38.5700 515.0000 1.0000
38.5800 519.0000 1.0000
38.5900 500.0000 1.0000
38.6000 544.0000 1.0000
38.6100 541.0000 1.0000
38.6200 539.0000 1.0000
38.6300 509.0000 1.0000
38.6400 543.0000 1.0000
38.6500 583.0000 1.0000
38.6600 520.0000 1.0000
38.6700 492.0000 1.0000
38.6800 571.0000 1.0000
38.6900 531.0000 1.0000
38.7000 498.0000 1.0000
38.7100 543.0000 1.0000
38.7200 564.0000 1.0000
38.7300 540.0000 1.0000
38.7400 528.0000 1.0000
38.7500 562.0000 1.0000
38.7600 525.0000 1.0000
38.7700 562.0000 1.0000
38.7800 560.0000 1.0000
38.7900 557.0000 1.0000
38.8000 527.0000 1.0000
38.8100 498.0000 1.0000
38.8200 507.0000 1.0000
38.8300 516.0000 1.0000
38.8400 495.0000 1.0000
38.8500 523.0000 1.0000
38.8600 533.0000 1.0000
38.8700 507.0000 1.0000
38.8800 520.0000 1.0000
38.8900 519.0000 1.0000
38.9000 527.0000 1.0000
38.9100 522.0000 1.0000
38.9200 534.0000 1.0000
38.9300 539.0000 1.0000
38.9400 532.0000 1.0000
38.9500 539.0000 1.0000
38.9600 525.0000 1.0000
38.9700 528.0000 1.0000
38.9800 497.0000 1.0000
38.9900 484.0000 1.0000
39.0000 507.0000 1.0000
39.0100 519.0000 1.0000
39.0200 520.0000 1.0000
39.0300 488.0000 1.0000
39.0400 509.0000 1.0000
39.0500 514.0000 1.0000
39.0600 504.0000 1.0000
39.0700 529.0000 1.0000
39.0800 502.0000 1.0000
39.0900 475.0000 1.0000
39.1000 526.0000 1.0000
39.1100 494.0000 1.0000
39.1200 460.0000 1.0000
39.1300 530.0000 1.0000
39.1400 512.0000 1.0000
39.1500 524.0000 1.0000
39.1600 493.0000 1.0000
39.1700 497.0000 1.0000
39.1800 529.0000 1.0000
39.1900 482.0000 1.0000
39.2000 490.0000 1.0000
39.2100 459.0000 1.0000
39.2200 470.0000 1.0000
39.2300 500.0000 1.0000
39.2400 514.0000 1.0000
39.2500 532.0000 1.0000
39.2600 487.0000 1.0000
39.2700 495.0000 1.0000
39.2800 488.0000 1.0000
39.2900 480.0000 1.0000
39.3000 544.0000 1.0000
39.3100 478.0000 1.0000
39.3200 518.0000 1.0000
39.3300 486.0000 1.0000
39.3400 482.0000 1.0000
39.3500 476.0000 1.0000
39.3600 502.0000 1.0000
39.3700 497.0000 1.0000
39.3800 457.0000 1.0000
39.3900 482.0000 1.0000
39.4000 482.0000 1.0000
39.4100 476.0000 1.0000
39.4200 523.0000 1.0000
39.4300 474.0000 1.0000
39.4400 485.0000 1.0000
39.4500 504.0000 1.0000
39.4600 456.0000 1.0000
39.4700 444.0000 1.0000
39.4800 500.0000 1.0000
39.4900 474.0000 1.0000
39.5000 459.0000 1.0000
39.5100 454.0000 1.0000
39.5200 520.0000 1.0000
39.5300 472.0000 1.0000
39.5400 487.0000 1.0000
39.5500 520.0000 1.0000
39.5600 487.0000 1.0000
39.5700 486.0000 1.0000
39.5800 508.0000 1.0000
39.5900 484.0000 1.0000
39.6000 458.0000 1.0000
39.6100 518.0000 1.0000
39.6200 476.0000 1.0000
39.6300 480.0000 1.0000
39.6400 511.0000 1.0000
39.6500 476.0000 1.0000
39.6600 458.0000 1.0000
39.6700 482.0000 1.0000
39.6800 478.0000 1.0000
39.6900 501.0000 1.0000
39.7000 476.0000 1.0000
39.7100 456.0000 1.0000
39.7200 489.0000 1.0000
39.7300 501.0000 1.0000
39.7400 481.0000 1.0000
39.7500 486.0000 1.0000
39.7600 468.0000 1.0000
39.7700 493.0000 1.0000
39.7800 520.0000 1.0000
39.7900 486.0000 1.0000
39.8000 484.0000 1.0000
39.8100 499.0000 1.0000
39.8200 471.0000 1.0000
39.8300 478.0000 1.0000
39.8400 464.0000 1.0000
39.8500 483.0000 1.0000
39.8600 507.0000 1.0000
39.8700 479.0000 1.0000
39.8800 492.0000 1.0000
39.8900 481.0000 1.0000
39.9000 474.0000 1.0000
39.9100 507.0000 1.0000
39.9200 523.0000 1.0000
39.9300 481.0000 1.0000
39.9400 478.0000 1.0000
39.9500 468.0000 1.0000
39.9600 464.0000 1.0000
39.9700 504.0000 1.0000
39.9800 495.0000 1.0000
39.9900 465.0000 1.0000
40.0000 469.0000 1.0000
40.0100 444.0000 1.0000
40.0200 449.0000 1.0000
40.0300 486.0000 1.0000
40.0400 487.0000 1.0000
40.0500 502.0000 1.0000
40.0600 468.0000 1.0000
40.0700 475.0000 1.0000
40.0800 469.0000 1.0000
40.0900 459.0000 1.0000
40.1000 473.0000 1.0000
40.1100 454.0000 1.0000
40.1200 493.0000 1.0000
40.1300 476.0000 1.0000
40.1400 506.0000 1.0000
40.1500 484.0000 1.0000
40.1600 476.0000 1.0000
40.1700 496.0000 1.0000
40.1800 466.0000 1.0000
40.1900 435.0000 1.0000
40.2000 429.0000 1.0000
40.2100 504.0000 1.0000
40.2200 437.0000 1.0000
40.2300 497.0000 1.0000
40.2400 466.0000 1.0000
40.2500 463.0000 1.0000
40.2600 486.0000 1.0000
40.2700 506.0000 1.0000
40.2800 450.0000 1.0000
40.2900 471.0000 1.0000
40.3000 476.0000 1.0000
40.3100 472.0000 1.0000
40.3200 500.0000 1.0000
40.3300 504.0000 1.0000
40.3400 473.0000 1.0000
40.3500 431.0000 1.0000
40.3600 479.0000 1.0000
40.3700 492.0000 1.0000
40.3800 475.0000 1.0000
40.3900 482.0000 1.0000
40.4000 475.0000 1.0000
40.4100 492.0000 1.0000
40.4200 478.0000 1.0000
40.4300 459.0000 1.0000
40.4400 492.0000 1.0000
40.4500 463.0000 1.0000
40.4600 462.0000 1.0000
40.4700 440.0000 1.0000
40.4800 494.0000 1.0000
40.4900 464.0000 1.0000
40.5000 492.0000 1.0000
40.5100 499.0000 1.0000
40.5200 442.0000 1.0000
40.5300 472.0000 1.0000
40.5400 501.0000 1.0000
40.5500 498.0000 1.0000
40.5600 432.0000 1.0000
40.5700 484.0000 1.0000
40.5800 473.0000 1.0000
40.5900 453.0000 1.0000
40.6000 452.0000 1.0000
40.6100 513.0000 1.0000
40.6200 464.0000 1.0000
40.6300 486.0000 1.0000
40.6400 472.0000 1.0000
40.6500 471.0000 1.0000
40.6600 480.0000 1.0000
40.6700 490.0000 1.0000
40.6800 453.0000 1.0000
40.6900 484.0000 1.0000
40.7000 493.0000 1.0000
40.7100 500.0000 1.0000
40.7200 484.0000 1.0000
40.7300 537.0000 1.0000
40.7400 530.0000 1.0000
40.7500 483.0000 1.0000
40.7600 468.0000 1.0000
40.7700 481.0000 1.0000
40.7800 487.0000 1.0000
40.7900 468.0000 1.0000
40.8000 491.0000 1.0000
40.8100 509.0000 1.0000
40.8200 478.0000 1.0000
40.8300 470.0000 1.0000
40.8400 494.0000 1.0000
40.8500 488.0000 1.0000
40.8600 498.0000 1.0000
40.8700 471.0000 1.0000
40.8800 516.0000 1.0000
40.8900 506.0000 1.0000
40.9000 439.0000 1.0000
40.9100 480.0000 1.0000
40.9200 455.0000 1.0000
40.9300 487.0000 1.0000
40.9400 469.0000 1.0000
40.9500 490.0000 1.0000
40.9600 497.0000 1.0000
40.9700 487.0000 1.0000
40.9800 465.0000 1.0000
40.9900 505.0000 1.0000
41.0000 457.0000 1.0000
41.0100 443.0000 1.0000
41.0200 470.0000 1.0000
41.0300 448.0000 1.0000
41.0400 476.0000 1.0000
41.0500 488.0000 1.0000
41.0600 517.0000 1.0000
41.0700 473.0000 1.0000
41.0800 470.0000 1.0000
41.0900 444.0000 1.0000
41.1000 460.0000 1.0000
41.1100 486.0000 1.0000
41.1200 467.0000 1.0000
41.1300 489.0000 1.0000
41.1400 468.0000 1.0000
41.1500 467.0000 1.0000
41.1600 461.0000 1.0000
41.1700 452.0000 1.0000
41.1800 454.0000 1.0000
41.1900 439.0000 1.0000
41.2000 453.0000 1.0000
41.2100 476.0000 1.0000
41.2200 454.0000 1.0000
41.2300 435.0000 1.0000
41.2400 466.0000 1.0000
41.2500 458.0000 1.0000
41.2600 460.0000 1.0000
41.2700 459.0000 1.0000
41.2800 437.0000 1.0000
41.2900 472.0000 1.0000
41.3000 426.0000 1.0000
41.3100 467.0000 1.0000
41.3200 445.0000 1.0000
41.3300 448.0000 1.0000
41.3400 460.0000 1.0000
41.3500 435.0000 1.0000
41.3600 457.0000 1.0000
41.3700 441.0000 1.0000
41.3800 439.0000 1.0000
41.3900 474.0000 1.0000
41.4000 433.0000 1.0000
41.4100 439.0000 1.0000
41.4200 428.0000 1.0000
41.4300 471.0000 1.0000
41.4400 472.0000 1.0000
41.4500 474.0000 1.0000
41.4600 449.0000 1.0000
41.4700 471.0000 1.0000
41.4800 463.0000 1.0000
41.4900 449.0000 1.0000
41.5000 459.0000 1.0000
41.5100 470.0000 1.0000
41.5200 453.0000 1.0000
41.5300 455.0000 1.0000
41.5400 454.0000 1.0000
41.5500 479.0000 1.0000
41.5600 462.0000 1.0000
41.5700 483.0000 1.0000
41.5800 473.0000 1.0000
41.5900 453.0000 1.0000
41.6000 447.0000 1.0000
41.6100 441.0000 1.0000
41.6200 484.0000 1.0000
41.6300 476.0000 1.0000
41.6400 449.0000 1.0000
41.6500 426.0000 1.0000
41.6600 460.0000 1.0000
41.6700 479.0000 1.0000
41.6800 455.0000 1.0000
41.6900 461.0000 1.0000
41.7000 459.0000 1.0000
41.7100 443.0000 1.0000
41.7200 457.0000 1.0000
41.7300 466.0000 1.0000
41.7400 480.0000 1.0000
41.7500 467.0000 1.0000
41.7600 466.0000 1.0000
41.7700 493.0000 1.0000
41.7800 457.0000 1.0000
41.7900 469.0000 1.0000
41.8000 453.0000 1.0000
41.8100 473.0000 1.0000
41.8200 460.0000 1.0000
41.8300 467.0000 1.0000
41.8400 504.0000 1.0000
41.8500 448.0000 1.0000
41.8600 456.0000 1.0000
41.8700 449.0000 1.0000
41.8800 480.0000 1.0000
41.8900 453.0000 1.0000
41.9000 436.0000 1.0000
41.9100 492.0000 1.0000
41.9200 446.0000 1.0000
41.9300 469.0000 1.0000
41.9400 453.0000 1.0000
41.9500 457.0000 1.0000
41.9600 476.0000 1.0000
41.9700 460.0000 1.0000
41.9800 479.0000 1.0000
41.9900 455.0000 1.0000
42.0000 472.0000 1.0000
42.0100 446.0000 1.0000
42.0200 479.0000 1.0000
42.0300 448.0000 1.0000
42.0400 434.0000 1.0000
42.0500 429.0000 1.0000
42.0600 469.0000 1.0000
42.0700 466.0000 1.0000
42.0800 450.0000 1.0000
42.0900 475.0000 1.0000
42.1000 493.0000 1.0000
42.1100 458.0000 1.0000
42.1200 443.0000 1.0000
42.1300 473.0000 1.0000
42.1400 501.0000 1.0000
42.1500 438.0000 1.0000
42.1600 502.0000 1.0000
42.1700 460.0000 1.0000
42.1800 462.0000 1.0000
42.1900 447.0000 1.0000
42.2000 465.0000 1.0000
42.2100 473.0000 1.0000
42.2200 479.0000 1.0000
42.2300 483.0000 1.0000
42.2400 500.0000 1.0000
42.2500 476.0000 1.0000
42.2600 484.0000 1.0000
42.2700 506.0000 1.0000
42.2800 475.0000 1.0000
42.2900 519.0000 1.0000
42.3000 480.0000 1.0000
42.3100 511.0000 1.0000
42.3200 472.0000 1.0000
42.3300 475.0000 1.0000
42.3400 473.0000 1.0000
42.3500 497.0000 1.0000
42.3600 521.0000 1.0000
42.3700 499.0000 1.0000
42.3800 489.0000 1.0000
42.3900 487.0000 1.0000
42.4000 472.0000 1.0000
42.4100 491.0000 1.0000
42.4200 520.0000 1.0000
42.4300 516.0000 1.0000
42.4400 474.0000 1.0000
42.4500 499.0000 1.0000
42.4600 485.0000 1.0000
42.4700 505.0000 1.0000
42.4800 511.0000 1.0000
42.4900 494.0000 1.0000
42.5000 472.0000 1.0000
42.5100 474.0000 1.0000
42.5200 458.0000 1.0000
42.5300 480.0000 1.0000
42.5400 506.0000 1.0000
42.5500 494.0000 1.0000
42.5600 456.0000 1.0000
42.5700 479.0000 1.0000
42.5800 485.0000 1.0000
42.5900 469.0000 1.0000
42.6000 462.0000 1.0000
42.6100 474.0000 1.0000
42.6200 474.0000 1.0000
42.6300 455.0000 1.0000
42.6400 451.0000 1.0000
42.6500 462.0000 1.0000
42.6600 443.0000 1.0000
42.6700 495.0000 1.0000
42.6800 489.0000 1.0000
42.6900 437.0000 1.0000
42.7000 464.0000 1.0000
42.7100 448.0000 1.0000
42.7200 459.0000 1.0000
42.7300 483.0000 1.0000
42.7400 495.0000 1.0000
42.7500 443.0000 1.0000
42.7600 458.0000 1.0000
42.7700 471.0000 1.0000
42.7800 444.0000 1.0000
42.7900 464.0000 1.0000
42.8000 449.0000 1.0000
42.8100 410.0000 1.0000
42.8200 466.0000 1.0000
42.8300 445.0000 1.0000
42.8400 407.0000 1.0000
42.8500 455.0000 1.0000
42.8600 431.0000 1.0000
42.8700 438.0000 1.0000
42.8800 449.0000 1.0000
42.8900 427.0000 1.0000
42.9000 427.0000 1.0000
42.9100 411.0000 1.0000
42.9200 419.0000 1.0000
42.9300 417.0000 1.0000
42.9400 451.0000 1.0000
42.9500 445.0000 1.0000
42.9600 455.0000 1.0000
42.9700 432.0000 1.0000
42.9800 430.0000 1.0000
42.9900 450.0000 1.0000
43.0000 418.0000 1.0000
43.0100 463.0000 1.0000
43.0200 457.0000 1.0000
43.0300 452.0000 1.0000
43.0400 467.0000 1.0000
43.0500 469.0000 1.0000
43.0600 457.0000 1.0000
43.0700 428.0000 1.0000
43.0800 427.0000 1.0000
43.0900 466.0000 1.0000
43.1000 475.0000 1.0000
43.1100 473.0000 1.0000
43.1200 460.0000 1.0000
43.1300 413.0000 1.0000
43.1400 417.0000 1.0000
43.1500 444.0000 1.0000
43.1600 432.0000 1.0000
43.1700 450.0000 1.0000
43.1800 429.0000 1.0000
43.1900 426.0000 1.0000
43.2000 490.0000 1.0000
43.2100 465.0000 1.0000
43.2200 459.0000 1.0000
43.2300 459.0000 1.0000
43.2400 475.0000 1.0000
43.2500 463.0000 1.0000
43.2600 467.0000 1.0000
43.2700 469.0000 1.0000
43.2800 454.0000 1.0000
43.2900 433.0000 1.0000
43.3000 433.0000 1.0000
43.3100 452.0000 1.0000
43.3200 417.0000 1.0000
43.3300 451.0000 1.0000
43.3400 461.0000 1.0000
43.3500 451.0000 1.0000
43.3600 453.0000 1.0000
43.3700 430.0000 1.0000
43.3800 431.0000 1.0000
43.3900 428.0000 1.0000
43.4000 456.0000 1.0000
43.4100 433.0000 1.0000
43.4200 480.0000 1.0000
43.4300 473.0000 1.0000
43.4400 435.0000 1.0000
43.4500 470.0000 1.0000
43.4600 464.0000 1.0000
43.4700 438.0000 1.0000
43.4800 418.0000 1.0000
43.4900 487.0000 1.0000
43.5000 486.0000 1.0000
43.5100 458.0000 1.0000
43.5200 480.0000 1.0000
43.5300 487.0000 1.0000
43.5400 474.0000 1.0000
43.5500 447.0000 1.0000
43.5600 463.0000 1.0000
43.5700 457.0000 1.0000
43.5800 484.0000 1.0000
43.5900 475.0000 1.0000
43.6000 432.0000 1.0000
43.6100 451.0000 1.0000
43.6200 482.0000 1.0000
43.6300 448.0000 1.0000
43.6400 429.0000 1.0000
43.6500 470.0000 1.0000
43.6600 441.0000 1.0000
43.6700 450.0000 1.0000
43.6800 484.0000 1.0000
43.6900 451.0000 1.0000
43.7000 433.0000 1.0000
43.7100 461.0000 1.0000
43.7200 456.0000 1.0000
43.7300 504.0000 1.0000
43.7400 459.0000 1.0000
43.7500 444.0000 1.0000
43.7600 480.0000 1.0000
43.7700 433.0000 1.0000
43.7800 461.0000 1.0000
43.7900 469.0000 1.0000
43.8000 490.0000 1.0000
43.8100 429.0000 1.0000
43.8200 425.0000 1.0000
43.8300 442.0000 1.0000
43.8400 430.0000 1.0000
43.8500 418.0000 1.0000
43.8600 456.0000 1.0000
43.8700 426.0000 1.0000
43.8800 402.0000 1.0000
43.8900 424.0000 1.0000
43.9000 443.0000 1.0000
43.9100 426.0000 1.0000
43.9200 443.0000 1.0000
43.9300 424.0000 1.0000
43.9400 437.0000 1.0000
43.9500 419.0000 1.0000
43.9600 431.0000 1.0000
43.9700 449.0000 1.0000
43.9800 407.0000 1.0000
43.9900 436.0000 1.0000
44.0000 450.0000 1.0000
44.0100 438.0000 1.0000
44.0200 456.0000 1.0000
44.0300 465.0000 1.0000
44.0400 417.0000 1.0000
44.0500 427.0000 1.0000
44.0600 435.0000 1.0000
44.0700 441.0000 1.0000
44.0800 439.0000 1.0000
44.0900 455.0000 1.0000
44.1000 415.0000 1.0000
44.1100 413.0000 1.0000
44.1200 412.0000 1.0000
44.1300 404.0000 1.0000
44.1400 434.0000 1.0000
44.1500 411.0000 1.0000
44.1600 446.0000 1.0000
44.1700 430.0000 1.0000
44.1800 432.0000 1.0000
44.1900 464.0000 1.0000
44.2000 435.0000 1.0000
44.2100 436.0000 1.0000
44.2200 444.0000 1.0000
44.2300 417.0000 1.0000
44.2400 434.0000 1.0000
44.2500 423.0000 1.0000
44.2600 412.0000 1.0000
44.2700 431.0000 1.0000
44.2800 427.0000 1.0000
44.2900 446.0000 1.0000
44.3000 443.0000 1.0000
44.3100 425.0000 1.0000
44.3200 423.0000 1.0000
44.3300 395.0000 1.0000
44.3400 448.0000 1.0000
44.3500 448.0000 1.0000
44.3600 462.0000 1.0000
44.3700 442.0000 1.0000
44.3800 423.0000 1.0000
44.3900 418.0000 1.0000
44.4000 422.0000 1.0000
44.4100 435.0000 1.0000
44.4200 420.0000 1.0000
44.4300 409.0000 1.0000
44.4400 417.0000 1.0000
44.4500 467.0000 1.0000
44.4600 436.0000 1.0000
44.4700 412.0000 1.0000
44.4800 409.0000 1.0000
44.4900 461.0000 1.0000
44.5000 393.0000 1.0000
44.5100 419.0000 1.0000
44.5200 443.0000 1.0000
44.5300 439.0000 1.0000
44.5400 439.0000 1.0000
44.5500 434.0000 1.0000
44.5600 390.0000 1.0000
44.5700 404.0000 1.0000
44.5800 438.0000 1.0000
44.5900 400.0000 1.0000
44.6000 452.0000 1.0000
44.6100 421.0000 1.0000
44.6200 423.0000 1.0000
44.6300 436.0000 1.0000
44.6400 447.0000 1.0000
44.6500 408.0000 1.0000
44.6600 436.0000 1.0000
44.6700 433.0000 1.0000
44.6800 468.0000 1.0000
44.6900 406.0000 1.0000
44.7000 420.0000 1.0000
44.7100 446.0000 1.0000
44.7200 428.0000 1.0000
44.7300 415.0000 1.0000
44.7400 439.0000 1.0000
44.7500 446.0000 1.0000
44.7600 425.0000 1.0000
44.7700 426.0000 1.0000
44.7800 422.0000 1.0000
44.7900 417.0000 1.0000
44.8000 438.0000 1.0000
44.8100 403.0000 1.0000
44.8200 455.0000 1.0000
44.8300 411.0000 1.0000
44.8400 419.0000 1.0000
44.8500 452.0000 1.0000
44.8600 454.0000 1.0000
44.8700 438.0000 1.0000
44.8800 457.0000 1.0000
44.8900 429.0000 1.0000
44.9000 446.0000 1.0000
44.9100 437.0000 1.0000
44.9200 426.0000 1.0000
44.9300 453.0000 1.0000
44.9400 434.0000 1.0000
44.9500 468.0000 1.0000
44.9600 422.0000 1.0000
44.9700 437.0000 1.0000
44.9800 430.0000 1.0000
44.9900 420.0000 1.0000
45.0000 412.0000 1.0000
45.0100 416.0000 1.0000
45.0200 446.0000 1.0000
45.0300 432.0000 1.0000
45.0400 394.0000 1.0000
45.0500 420.0000 1.0000
45.0600 418.0000 1.0000
45.0700 430.0000 1.0000
45.0800 398.0000 1.0000
45.0900 414.0000 1.0000
45.1000 443.0000 1.0000
45.1100 422.0000 1.0000
45.1200 403.0000 1.0000
45.1300 427.0000 1.0000
45.1400 421.0000 1.0000
45.1500 450.0000 1.0000
45.1600 409.0000 1.0000
45.1700 436.0000 1.0000
45.1800 445.0000 1.0000
45.1900 399.0000 1.0000
45.2000 446.0000 1.0000
45.2100 428.0000 1.0000
45.2200 400.0000 1.0000
45.2300 417.0000 1.0000
45.2400 423.0000 1.0000
45.2500 397.0000 1.0000
45.2600 434.0000 1.0000
45.2700 435.0000 1.0000
45.2800 425.0000 1.0000
45.2900 449.0000 1.0000
45.3000 421.0000 1.0000
45.3100 435.0000 1.0000
45.3200 418.0000 1.0000
45.3300 412.0000 1.0000
45.3400 413.0000 1.0000
45.3500 410.0000 1.0000
45.3600 456.0000 1.0000
45.3700 404.0000 1.0000
45.3800 410.0000 1.0000
45.3900 424.0000 1.0000
45.4000 428.0000 1.0000
45.4100 438.0000 1.0000
45.4200 422.0000 1.0000
45.4300 412.0000 1.0000
45.4400 433.0000 1.0000
45.4500 437.0000 1.0000
45.4600 437.0000 1.0000
45.4700 442.0000 1.0000
45.4800 404.0000 1.0000
45.4900 408.0000 1.0000
45.5000 427.0000 1.0000
45.5100 427.0000 1.0000
45.5200 442.0000 1.0000
45.5300 414.0000 1.0000
45.5400 419.0000 1.0000
45.5500 388.0000 1.0000
45.5600 428.0000 1.0000
45.5700 411.0000 1.0000
45.5800 394.0000 1.0000
45.5900 405.0000 1.0000
45.6000 419.0000 1.0000
45.6100 446.0000 1.0000
45.6200 389.0000 1.0000
45.6300 441.0000 1.0000
45.6400 435.0000 1.0000
45.6500 389.0000 1.0000
45.6600 407.0000 1.0000
45.6700 398.0000 1.0000
45.6800 394.0000 1.0000
45.6900 402.0000 1.0000
45.7000 436.0000 1.0000
45.7100 397.0000 1.0000
45.7200 414.0000 1.0000
45.7300 397.0000 1.0000
45.7400 424.0000 1.0000
45.7500 397.0000 1.0000
45.7600 423.0000 1.0000
45.7700 439.0000 1.0000
45.7800 425.0000 1.0000
45.7900 407.0000 1.0000
45.8000 423.0000 1.0000
45.8100 411.0000 1.0000
45.8200 423.0000 1.0000
45.8300 410.0000 1.0000
45.8400 428.0000 1.0000
45.8500 413.0000 1.0000
45.8600 421.0000 1.0000
45.8700 460.0000 1.0000
45.8800 435.0000 1.0000
45.8900 423.0000 1.0000
45.9000 433.0000 1.0000
45.9100 400.0000 1.0000
45.9200 370.0000 1.0000
45.9300 385.0000 1.0000
45.9400 398.0000 1.0000
45.9500 402.0000 1.0000
45.9600 423.0000 1.0000
45.9700 417.0000 1.0000
45.9800 408.0000 1.0000
45.9900 443.0000 1.0000
46.0000 417.0000 1.0000
46.0100 414.0000 1.0000
46.0200 383.0000 1.0000
46.0300 393.0000 1.0000
46.0400 413.0000 1.0000
46.0500 419.0000 1.0000
46.0600 454.0000 1.0000
46.0700 438.0000 1.0000
46.0800 425.0000 1.0000
46.0900 440.0000 1.0000
46.1000 412.0000 1.0000
46.1100 435.0000 1.0000
46.1200 416.0000 1.0000
46.1300 434.0000 1.0000
46.1400 446.0000 1.0000
46.1500 430.0000 1.0000
46.1600 413.0000 1.0000
46.1700 445.0000 1.0000
46.1800 430.0000 1.0000
46.1900 421.0000 1.0000
46.2000 414.0000 1.0000
46.2100 463.0000 1.0000
46.2200 436.0000 1.0000
46.2300 391.0000 1.0000
46.2400 436.0000 1.0000
46.2500 431.0000 1.0000
46.2600 414.0000 1.0000
46.2700 433.0000 1.0000
46.2800 413.0000 1.0000
46.2900 399.0000 1.0000
46.3000 424.0000 1.0000
46.3100 426.0000 1.0000
46.3200 420.0000 1.0000
46.3300 436.0000 1.0000
46.3400 368.0000 1.0000
46.3500 414.0000 1.0000
46.3600 427.0000 1.0000
46.3700 432.0000 1.0000
46.3800 417.0000 1.0000
46.3900 423.0000 1.0000
46.4000 444.0000 1.0000
46.4100 434.0000 1.0000
46.4200 436.0000 1.0000
46.4300 434.0000 1.0000
46.4400 439.0000 1.0000
46.4500 416.0000 1.0000
46.4600 437.0000 1.0000
46.4700 425.0000 1.0000
46.4800 397.0000 1.0000
46.4900 448.0000 1.0000
46.5000 408.0000 1.0000
46.5100 417.0000 1.0000
46.5200 399.0000 1.0000
46.5300 412.0000 1.0000
46.5400 404.0000 1.0000
46.5500 386.0000 1.0000
46.5600 412.0000 1.0000
46.5700 428.0000 1.0000
46.5800 392.0000 1.0000
46.5900 416.0000 1.0000
46.6000 401.0000 1.0000
46.6100 404.0000 1.0000
46.6200 418.0000 1.0000
46.6300 371.0000 1.0000
46.6400 379.0000 1.0000
46.6500 378.0000 1.0000
46.6600 402.0000 1.0000
46.6700 430.0000 1.0000
46.6800 424.0000 1.0000
46.6900 408.0000 1.0000
46.7000 412.0000 1.0000
46.7100 405.0000 1.0000
46.7200 429.0000 1.0000
46.7300 424.0000 1.0000
46.7400 426.0000 1.0000
46.7500 408.0000 1.0000
46.7600 392.0000 1.0000
46.7700 395.0000 1.0000
46.7800 395.0000 1.0000
46.7900 417.0000 1.0000
46.8000 382.0000 1.0000
46.8100 381.0000 1.0000
46.8200 433.0000 1.0000
46.8300 399.0000 1.0000
46.8400 418.0000 1.0000
46.8500 422.0000 1.0000
46.8600 416.0000 1.0000
46.8700 420.0000 1.0000
46.8800 383.0000 1.0000
46.8900 416.0000 1.0000
46.9000 408.0000 1.0000
46.9100 384.0000 1.0000
46.9200 436.0000 1.0000
46.9300 420.0000 1.0000
46.9400 395.0000 1.0000
46.9500 396.0000 1.0000
46.9600 389.0000 1.0000
46.9700 400.0000 1.0000
46.9800 430.0000 1.0000
46.9900 385.0000 1.0000
47.0000 383.0000 1.0000
47.0100 406.0000 1.0000
47.0200 398.0000 1.0000
47.0300 428.0000 1.0000
47.0400 415.0000 1.0000
47.0500 441.0000 1.0000
47.0600 381.0000 1.0000
47.0700 378.0000 1.0000
47.0800 402.0000 1.0000
47.0900 392.0000 1.0000
47.1000 387.0000 1.0000
47.1100 399.0000 1.0000
47.1200 420.0000 1.0000
47.1300 415.0000 1.0000
47.1400 410.0000 1.0000
47.1500 423.0000 1.0000
47.1600 366.0000 1.0000
47.1700 373.0000 1.0000
47.1800 383.0000 1.0000
47.1900 371.0000 1.0000
47.2000 409.0000 1.0000
47.2100 403.0000 1.0000
47.2200 376.0000 1.0000
47.2300 365.0000 1.0000
47.2400 405.0000 1.0000
47.2500 399.0000 1.0000
47.2600 383.0000 1.0000
47.2700 421.0000 1.0000
47.2800 399.0000 1.0000
47.2900 407.0000 1.0000
47.3000 407.0000 1.0000
47.3100 380.0000 1.0000
47.3200 402.0000 1.0000
47.3300 389.0000 1.0000
47.3400 380.0000 1.0000
47.3500 394.0000 1.0000
47.3600 394.0000 1.0000
47.3700 420.0000 1.0000
47.3800 422.0000 1.0000
47.3900 416.0000 1.0000
47.4000 403.0000 1.0000
47.4100 386.0000 1.0000
47.4200 372.0000 1.0000
47.4300 416.0000 1.0000
47.4400 400.0000 1.0000
47.4500 369.0000 1.0000
47.4600 374.0000 1.0000
47.4700 423.0000 1.0000
47.4800 426.0000 1.0000
47.4900 396.0000 1.0000
47.5000 365.0000 1.0000
47.5100 405.0000 1.0000
47.5200 386.0000 1.0000
47.5300 381.0000 1.0000
47.5400 396.0000 1.0000
47.5500 391.0000 1.0000
47.5600 412.0000 1.0000
47.5700 389.0000 1.0000
47.5800 341.0000 1.0000
47.5900 400.0000 1.0000
47.6000 429.0000 1.0000
47.6100 385.0000 1.0000
47.6200 386.0000 1.0000
47.6300 385.0000 1.0000
47.6400 403.0000 1.0000
47.6500 393.0000 1.0000
47.6600 397.0000 1.0000
47.6700 410.0000 1.0000
47.6800 383.0000 1.0000
47.6900 367.0000 1.0000
47.7000 387.0000 1.0000
47.7100 383.0000 1.0000
47.7200 394.0000 1.0000
47.7300 387.0000 1.0000
47.7400 408.0000 1.0000
47.7500 408.0000 1.0000
47.7600 387.0000 1.0000
47.7700 393.0000 1.0000
47.7800 387.0000 1.0000
47.7900 394.0000 1.0000
47.8000 408.0000 1.0000
47.8100 375.0000 1.0000
47.8200 382.0000 1.0000
47.8300 374.0000 1.0000
47.8400 415.0000 1.0000
47.8500 366.0000 1.0000
47.8600 394.0000 1.0000
47.8700 391.0000 1.0000
47.8800 427.0000 1.0000
47.8900 419.0000 1.0000
47.9000 408.0000 1.0000
47.9100 388.0000 1.0000
47.9200 395.0000 1.0000
47.9300 384.0000 1.0000
47.9400 403.0000 1.0000
47.9500 399.0000 1.0000
47.9600 377.0000 1.0000
47.9700 370.0000 1.0000
47.9800 396.0000 1.0000
47.9900 421.0000 1.0000
48.0000 443.0000 1.0000
48.0100 398.0000 1.0000
48.0200 395.0000 1.0000
48.0300 430.0000 1.0000
48.0400 399.0000 1.0000
48.0500 371.0000 1.0000
48.0600 391.0000 1.0000
48.0700 373.0000 1.0000
48.0800 379.0000 1.0000
48.0900 377.0000 1.0000
48.1000 374.0000 1.0000
48.1100 390.0000 1.0000
48.1200 368.0000 1.0000
48.1300 404.0000 1.0000
48.1400 416.0000 1.0000
48.1500 410.0000 1.0000
48.1600 376.0000 1.0000
48.1700 383.0000 1.0000
48.1800 408.0000 1.0000
48.1900 393.0000 1.0000
48.2000 411.0000 1.0000
48.2100 406.0000 1.0000
48.2200 405.0000 1.0000
48.2300 408.0000 1.0000
48.2400 400.0000 1.0000
48.2500 405.0000 1.0000
48.2600 377.0000 1.0000
48.2700 400.0000 1.0000
48.2800 391.0000 1.0000
48.2900 359.0000 1.0000
48.3000 396.0000 1.0000
48.3100 382.0000 1.0000
48.3200 426.0000 1.0000
48.3300 385.0000 1.0000
48.3400 380.0000 1.0000
48.3500 400.0000 1.0000
48.3600 369.0000 1.0000
48.3700 396.0000 1.0000
48.3800 401.0000 1.0000
48.3900 370.0000 1.0000
48.4000 399.0000 1.0000
48.4100 371.0000 1.0000
48.4200 391.0000 1.0000
48.4300 366.0000 1.0000
48.4400 394.0000 1.0000
48.4500 394.0000 1.0000
48.4600 396.0000 1.0000
48.4700 372.0000 1.0000
48.4800 390.0000 1.0000
48.4900 370.0000 1.0000
48.5000 440.0000 1.0000
48.5100 370.0000 1.0000
48.5200 393.0000 1.0000
48.5300 407.0000 1.0000
48.5400 409.0000 1.0000
48.5500 373.0000 1.0000
48.5600 384.0000 1.0000
48.5700 402.0000 1.0000
48.5800 403.0000 1.0000
48.5900 372.0000 1.0000
48.6000 379.0000 1.0000
48.6100 393.0000 1.0000
48.6200 416.0000 1.0000
48.6300 401.0000 1.0000
48.6400 395.0000 1.0000
48.6500 389.0000 1.0000
48.6600 422.0000 1.0000
48.6700 399.0000 1.0000
48.6800 394.0000 1.0000
48.6900 387.0000 1.0000
48.7000 375.0000 1.0000
48.7100 385.0000 1.0000
48.7200 409.0000 1.0000
48.7300 372.0000 1.0000
48.7400 410.0000 1.0000
48.7500 405.0000 1.0000
48.7600 390.0000 1.0000
48.7700 396.0000 1.0000
48.7800 415.0000 1.0000
48.7900 389.0000 1.0000
48.8000 401.0000 1.0000
48.8100 378.0000 1.0000
48.8200 376.0000 1.0000
48.8300 413.0000 1.0000
48.8400 379.0000 1.0000
48.8500 381.0000 1.0000
48.8600 401.0000 1.0000
48.8700 396.0000 1.0000
48.8800 400.0000 1.0000
48.8900 363.0000 1.0000
48.9000 376.0000 1.0000
48.9100 363.0000 1.0000
48.9200 383.0000 1.0000
48.9300 416.0000 1.0000
48.9400 379.0000 1.0000
48.9500 384.0000 1.0000
48.9600 398.0000 1.0000
48.9700 382.0000 1.0000
48.9800 382.0000 1.0000
48.9900 381.0000 1.0000
49.0000 397.0000 1.0000
49.0100 381.0000 1.0000
49.0200 385.0000 1.0000
49.0300 412.0000 1.0000
49.0400 405.0000 1.0000
49.0500 367.0000 1.0000
49.0600 400.0000 1.0000
49.0700 396.0000 1.0000
49.0800 388.0000 1.0000
49.0900 370.0000 1.0000
49.1000 398.0000 1.0000
49.1100 406.0000 1.0000
49.1200 404.0000 1.0000
49.1300 419.0000 1.0000
49.1400 396.0000 1.0000
49.1500 398.0000 1.0000
49.1600 388.0000 1.0000
49.1700 394.0000 1.0000
49.1800 398.0000 1.0000
49.1900 387.0000 1.0000
49.2000 365.0000 1.0000
49.2100 399.0000 1.0000
49.2200 367.0000 1.0000
49.2300 395.0000 1.0000
49.2400 378.0000 1.0000
49.2500 375.0000 1.0000
49.2600 414.0000 1.0000
49.2700 406.0000 1.0000
49.2800 392.0000 1.0000
49.2900 379.0000 1.0000
49.3000 381.0000 1.0000
49.3100 434.0000 1.0000
49.3200 431.0000 1.0000
49.3300 425.0000 1.0000
49.3400 418.0000 1.0000
49.3500 425.0000 1.0000
49.3600 435.0000 1.0000
49.3700 428.0000 1.0000
49.3800 400.0000 1.0000
49.3900 437.0000 1.0000
49.4000 428.0000 1.0000
49.4100 437.0000 1.0000
49.4200 418.0000 1.0000
49.4300 432.0000 1.0000
49.4400 408.0000 1.0000
49.4500 444.0000 1.0000
49.4600 424.0000 1.0000
49.4700 398.0000 1.0000
49.4800 404.0000 1.0000
49.4900 369.0000 1.0000
49.5000 402.0000 1.0000
49.5100 433.0000 1.0000
49.5200 428.0000 1.0000
49.5300 444.0000 1.0000
49.5400 410.0000 1.0000
49.5500 439.0000 1.0000
49.5600 440.0000 1.0000
49.5700 381.0000 1.0000
49.5800 422.0000 1.0000
49.5900 417.0000 1.0000
49.6000 401.0000 1.0000
49.6100 392.0000 1.0000
49.6200 390.0000 1.0000
49.6300 379.0000 1.0000
49.6400 397.0000 1.0000
49.6500 427.0000 1.0000
49.6600 401.0000 1.0000
49.6700 404.0000 1.0000
49.6800 415.0000 1.0000
49.6900 388.0000 1.0000
49.7000 409.0000 1.0000
49.7100 393.0000 1.0000
49.7200 404.0000 1.0000
49.7300 356.0000 1.0000
49.7400 386.0000 1.0000
49.7500 414.0000 1.0000
49.7600 406.0000 1.0000
49.7700 426.0000 1.0000
49.7800 370.0000 1.0000
49.7900 407.0000 1.0000
49.8000 410.0000 1.0000
49.8100 376.0000 1.0000
49.8200 376.0000 1.0000
49.8300 381.0000 1.0000
49.8400 388.0000 1.0000
49.8500 395.0000 1.0000
49.8600 388.0000 1.0000
49.8700 389.0000 1.0000
49.8800 393.0000 1.0000
49.8900 380.0000 1.0000
49.9000 398.0000 1.0000
49.9100 431.0000 1.0000
49.9200 388.0000 1.0000
49.9300 426.0000 1.0000
49.9400 383.0000 1.0000
49.9500 407.0000 1.0000
49.9600 400.0000 1.0000
49.9700 384.0000 1.0000
49.9800 418.0000 1.0000
49.9900 373.0000 1.0000
50.0000 383.0000 1.0000
50.0100 378.0000 1.0000
50.0200 381.0000 1.0000
50.0300 403.0000 1.0000
50.0400 390.0000 1.0000
50.0500 369.0000 1.0000
50.0600 410.0000 1.0000
50.0700 416.0000 1.0000
50.0800 384.0000 1.0000
50.0900 401.0000 1.0000
50.1000 392.0000 1.0000
50.1100 407.0000 1.0000
50.1200 386.0000 1.0000
50.1300 389.0000 1.0000
50.1400 366.0000 1.0000
50.1500 357.0000 1.0000
50.1600 370.0000 1.0000
50.1700 394.0000 1.0000
50.1800 370.0000 1.0000
50.1900 388.0000 1.0000
50.2000 403.0000 1.0000
50.2100 380.0000 1.0000
50.2200 368.0000 1.0000
50.2300 379.0000 1.0000
50.2400 413.0000 1.0000
50.2500 389.0000 1.0000
50.2600 374.0000 1.0000
50.2700 394.0000 1.0000
50.2800 418.0000 1.0000
50.2900 414.0000 1.0000
50.3000 408.0000 1.0000
50.3100 367.0000 1.0000
50.3200 369.0000 1.0000
50.3300 385.0000 1.0000
50.3400 414.0000 1.0000
50.3500 392.0000 1.0000
50.3600 379.0000 1.0000
50.3700 376.0000 1.0000
50.3800 353.0000 1.0000
50.3900 401.0000 1.0000
50.4000 395.0000 1.0000
50.4100 387.0000 1.0000
50.4200 401.0000 1.0000
50.4300 393.0000 1.0000
50.4400 405.0000 1.0000
50.4500 402.0000 1.0000
50.4600 405.0000 1.0000
50.4700 389.0000 1.0000
50.4800 376.0000 1.0000
50.4900 380.0000 1.0000
50.5000 385.0000 1.0000
50.5100 403.0000 1.0000
50.5200 414.0000 1.0000
50.5300 388.0000 1.0000
50.5400 405.0000 1.0000
50.5500 419.0000 1.0000
50.5600 411.0000 1.0000
50.5700 409.0000 1.0000
50.5800 392.0000 1.0000
50.5900 402.0000 1.0000
50.6000 380.0000 1.0000
50.6100 402.0000 1.0000
50.6200 399.0000 1.0000
50.6300 381.0000 1.0000
50.6400 437.0000 1.0000
50.6500 400.0000 1.0000
50.6600 391.0000 1.0000
50.6700 411.0000 1.0000
50.6800 364.0000 1.0000
50.6900 370.0000 1.0000
50.7000 403.0000 1.0000
50.7100 390.0000 1.0000
50.7200 402.0000 1.0000
50.7300 371.0000 1.0000
50.7400 402.0000 1.0000
50.7500 393.0000 1.0000
50.7600 381.0000 1.0000
50.7700 431.0000 1.0000
50.7800 363.0000 1.0000
50.7900 429.0000 1.0000
50.8000 411.0000 1.0000
50.8100 405.0000 1.0000
50.8200 391.0000 1.0000
50.8300 397.0000 1.0000
50.8400 433.0000 1.0000
50.8500 436.0000 1.0000
50.8600 433.0000 1.0000
50.8700 424.0000 1.0000
50.8800 426.0000 1.0000
50.8900 401.0000 1.0000
50.9000 408.0000 1.0000
50.9100 419.0000 1.0000
50.9200 409.0000 1.0000
50.9300 398.0000 1.0000
50.9400 412.0000 1.0000
50.9500 436.0000 1.0000
50.9600 434.0000 1.0000
50.9700 433.0000 1.0000
50.9800 442.0000 1.0000
50.9900 441.0000 1.0000
51.0000 435.0000 1.0000
51.0100 444.0000 1.0000
51.0200 455.0000 1.0000
51.0300 459.0000 1.0000
51.0400 472.0000 1.0000
51.0500 432.0000 1.0000
51.0600 472.0000 1.0000
51.0700 490.0000 1.0000
51.0800 478.0000 1.0000
51.0900 471.0000 1.0000
51.1000 514.0000 1.0000
51.1100 523.0000 1.0000
51.1200 524.0000 1.0000
51.1300 493.0000 1.0000
51.1400 509.0000 1.0000
51.1500 531.0000 1.0000
51.1600 555.0000 1.0000
51.1700 582.0000 1.0000
51.1800 581.0000 1.0000
51.1900 613.0000 1.0000
51.2000 620.0000 1.0000
51.2100 667.0000 1.0000
51.2200 665.0000 1.0000
51.2300 703.0000 1.0000
51.2400 763.0000 1.0000
51.2500 736.0000 1.0000
51.2600 799.0000 1.0000
51.2700 804.0000 1.0000
51.2800 845.0000 1.0000
51.2900 927.0000 1.0000
51.3000 958.0000 1.0000
51.3100 1029.0000 1.0000
51.3200 1081.0000 1.0000
51.3300 1115.0000 1.0000
51.3400 1250.0000 1.0000
51.3500 1310.0000 1.0000
51.3600 1420.0000 1.0000
51.3700 1517.0000 1.0000
51.3800 1657.0000 1.0000
51.3900 1747.0000 1.0000
51.4000 1973.0000 1.0000
51.4100 2110.0000 1.0000
51.4200 2210.0000 1.0000
51.4300 2279.0000 1.0000
51.4400 2383.0000 1.0000
51.4500 2404.0000 1.0000
51.4600 2533.0000 1.0000
51.4700 2536.0000 1.0000
51.4800 2539.0000 1.0000
51.4900 2519.0000 1.0000
51.5000 2457.0000 1.0000
51.5100 2399.0000 1.0000
51.5200 2347.0000 1.0000
51.5300 2323.0000 1.0000
51.5400 2262.0000 1.0000
51.5500 2269.0000 1.0000
51.5600 2160.0000 1.0000
51.5700 2056.0000 1.0000
51.5800 2075.0000 1.0000
51.5900 1916.0000 1.0000
51.6000 1922.0000 1.0000
51.6100 1767.0000 1.0000
51.6200 1718.0000 1.0000
51.6300 1788.0000 1.0000
51.6400 1677.0000 1.0000
51.6500 1555.0000 1.0000
51.6600 1487.0000 1.0000
51.6700 1400.0000 1.0000
51.6800 1263.0000 1.0000
51.6900 1190.0000 1.0000
51.7000 1059.0000 1.0000
51.7100 1032.0000 1.0000
51.7200 943.0000 1.0000
51.7300 840.0000 1.0000
51.7400 814.0000 1.0000
51.7500 804.0000 1.0000
51.7600 792.0000 1.0000
51.7700 758.0000 1.0000
51.7800 716.0000 1.0000
51.7900 730.0000 1.0000
51.8000 645.0000 1.0000
51.8100 589.0000 1.0000
51.8200 603.0000 1.0000
51.8300 632.0000 1.0000
51.8400 601.0000 1.0000
51.8500 587.0000 1.0000
51.8600 576.0000 1.0000
51.8700 518.0000 1.0000
51.8800 561.0000 1.0000
51.8900 523.0000 1.0000
51.9000 524.0000 1.0000
51.9100 495.0000 1.0000
51.9200 491.0000 1.0000
51.9300 497.0000 1.0000
51.9400 467.0000 1.0000
51.9500 484.0000 1.0000
51.9600 479.0000 1.0000
51.9700 491.0000 1.0000
51.9800 475.0000 1.0000
51.9900 465.0000 1.0000
52.0000 445.0000 1.0000
52.0100 418.0000 1.0000
52.0200 458.0000 1.0000
52.0300 432.0000 1.0000
52.0400 438.0000 1.0000
52.0500 437.0000 1.0000
52.0600 448.0000 1.0000
52.0700 433.0000 1.0000
52.0800 408.0000 1.0000
52.0900 401.0000 1.0000
52.1000 416.0000 1.0000
52.1100 415.0000 1.0000
52.1200 421.0000 1.0000
52.1300 414.0000 1.0000
52.1400 399.0000 1.0000
52.1500 396.0000 1.0000
52.1600 438.0000 1.0000
52.1700 423.0000 1.0000
52.1800 393.0000 1.0000
52.1900 415.0000 1.0000
52.2000 382.0000 1.0000
52.2100 432.0000 1.0000
52.2200 404.0000 1.0000
52.2300 425.0000 1.0000
52.2400 430.0000 1.0000
52.2500 407.0000 1.0000
52.2600 414.0000 1.0000
52.2700 401.0000 1.0000
52.2800 408.0000 1.0000
52.2900 408.0000 1.0000
52.3000 372.0000 1.0000
52.3100 413.0000 1.0000
52.3200 399.0000 1.0000
52.3300 399.0000 1.0000
52.3400 435.0000 1.0000
52.3500 424.0000 1.0000
52.3600 401.0000 1.0000
52.3700 394.0000 1.0000
52.3800 396.0000 1.0000
52.3900 414.0000 1.0000
52.4000 393.0000 1.0000
52.4100 390.0000 1.0000
52.4200 403.0000 1.0000
52.4300 373.0000 1.0000
52.4400 408.0000 1.0000
52.4500 418.0000 1.0000
52.4600 409.0000 1.0000
52.4700 402.0000 1.0000
52.4800 390.0000 1.0000
52.4900 371.0000 1.0000
52.5000 367.0000 1.0000
52.5100 370.0000 1.0000
52.5200 367.0000 1.0000
52.5300 371.0000 1.0000
52.5400 371.0000 1.0000
52.5500 373.0000 1.0000
52.5600 397.0000 1.0000
52.5700 377.0000 1.0000
52.5800 400.0000 1.0000
52.5900 382.0000 1.0000
52.6000 388.0000 1.0000
52.6100 373.0000 1.0000
52.6200 405.0000 1.0000
52.6300 365.0000 1.0000
52.6400 370.0000 1.0000
52.6500 365.0000 1.0000
52.6600 376.0000 1.0000
52.6700 394.0000 1.0000
52.6800 376.0000 1.0000
52.6900 394.0000 1.0000
52.7000 418.0000 1.0000
52.7100 407.0000 1.0000
52.7200 402.0000 1.0000
52.7300 384.0000 1.0000
52.7400 397.0000 1.0000
52.7500 399.0000 1.0000
52.7600 401.0000 1.0000
52.7700 366.0000 1.0000
52.7800 369.0000 1.0000
52.7900 364.0000 1.0000
52.8000 356.0000 1.0000
52.8100 375.0000 1.0000
52.8200 390.0000 1.0000
52.8300 401.0000 1.0000
52.8400 384.0000 1.0000
52.8500 364.0000 1.0000
52.8600 389.0000 1.0000
52.8700 391.0000 1.0000
52.8800 401.0000 1.0000
52.8900 364.0000 1.0000
52.9000 362.0000 1.0000
52.9100 368.0000 1.0000
52.9200 355.0000 1.0000
52.9300 356.0000 1.0000
52.9400 376.0000 1.0000
52.9500 368.0000 1.0000
52.9600 361.0000 1.0000
52.9700 383.0000 1.0000
52.9800 388.0000 1.0000
52.9900 386.0000 1.0000
53.0000 357.0000 1.0000
53.0100 374.0000 1.0000
53.0200 394.0000 1.0000
53.0300 345.0000 1.0000
53.0400 405.0000 1.0000
53.0500 387.0000 1.0000
53.0600 365.0000 1.0000
53.0700 348.0000 1.0000
53.0800 416.0000 1.0000
53.0900 396.0000 1.0000
53.1000 401.0000 1.0000
53.1100 361.0000 1.0000
53.1200 384.0000 1.0000
53.1300 356.0000 1.0000
53.1400 370.0000 1.0000
53.1500 410.0000 1.0000
53.1600 386.0000 1.0000
53.1700 383.0000 1.0000
53.1800 358.0000 1.0000
53.1900 354.0000 1.0000
53.2000 367.0000 1.0000
53.2100 396.0000 1.0000
53.2200 401.0000 1.0000
53.2300 384.0000 1.0000
53.2400 380.0000 1.0000
53.2500 403.0000 1.0000
53.2600 367.0000 1.0000
53.2700 367.0000 1.0000
53.2800 384.0000 1.0000
53.2900 411.0000 1.0000
53.3000 363.0000 1.0000
53.3100 383.0000 1.0000
53.3200 350.0000 1.0000
53.3300 400.0000 1.0000
53.3400 371.0000 1.0000
53.3500 340.0000 1.0000
53.3600 378.0000 1.0000
53.3700 371.0000 1.0000
53.3800 355.0000 1.0000
53.3900 377.0000 1.0000
53.4000 386.0000 1.0000
53.4100 371.0000 1.0000
53.4200 391.0000 1.0000
53.4300 379.0000 1.0000
53.4400 401.0000 1.0000
53.4500 402.0000 1.0000
53.4600 376.0000 1.0000
53.4700 386.0000 1.0000
53.4800 394.0000 1.0000
53.4900 397.0000 1.0000
53.5000 399.0000 1.0000
53.5100 358.0000 1.0000
53.5200 388.0000 1.0000
53.5300 359.0000 1.0000
53.5400 370.0000 1.0000
53.5500 380.0000 1.0000
53.5600 366.0000 1.0000
53.5700 396.0000 1.0000
53.5800 397.0000 1.0000
53.5900 344.0000 1.0000
53.6000 374.0000 1.0000
53.6100 371.0000 1.0000
53.6200 338.0000 1.0000
53.6300 382.0000 1.0000
53.6400 383.0000 1.0000
53.6500 394.0000 1.0000
53.6600 378.0000 1.0000
53.6700 393.0000 1.0000
53.6800 355.0000 1.0000
53.6900 372.0000 1.0000
53.7000 372.0000 1.0000
53.7100 415.0000 1.0000
53.7200 421.0000 1.0000
53.7300 394.0000 1.0000
53.7400 391.0000 1.0000
53.7500 394.0000 1.0000
53.7600 367.0000 1.0000
53.7700 396.0000 1.0000
53.7800 362.0000 1.0000
53.7900 387.0000 1.0000
53.8000 380.0000 1.0000
53.8100 373.0000 1.0000
53.8200 370.0000 1.0000
53.8300 367.0000 1.0000
53.8400 377.0000 1.0000
53.8500 385.0000 1.0000
53.8600 369.0000 1.0000
53.8700 369.0000 1.0000
53.8800 371.0000 1.0000
53.8900 390.0000 1.0000
53.9000 391.0000 1.0000
53.9100 435.0000 1.0000
53.9200 391.0000 1.0000
53.9300 399.0000 1.0000
53.9400 434.0000 1.0000
53.9500 395.0000 1.0000
53.9600 418.0000 1.0000
53.9700 410.0000 1.0000
53.9800 402.0000 1.0000
53.9900 446.0000 1.0000
54.0000 417.0000 1.0000
54.0100 415.0000 1.0000
54.0200 420.0000 1.0000
54.0300 449.0000 1.0000
54.0400 434.0000 1.0000
54.0500 416.0000 1.0000
54.0600 393.0000 1.0000
54.0700 396.0000 1.0000
54.0800 397.0000 1.0000
54.0900 410.0000 1.0000
54.1000 436.0000 1.0000
54.1100 429.0000 1.0000
54.1200 443.0000 1.0000
54.1300 398.0000 1.0000
54.1400 413.0000 1.0000
54.1500 412.0000 1.0000
54.1600 409.0000 1.0000
54.1700 400.0000 1.0000
54.1800 420.0000 1.0000
54.1900 423.0000 1.0000
54.2000 400.0000 1.0000
54.2100 437.0000 1.0000
54.2200 429.0000 1.0000
54.2300 414.0000 1.0000
54.2400 403.0000 1.0000
54.2500 436.0000 1.0000
54.2600 420.0000 1.0000
54.2700 450.0000 1.0000
54.2800 432.0000 1.0000
54.2900 473.0000 1.0000
54.3000 458.0000 1.0000
54.3100 436.0000 1.0000
54.3200 461.0000 1.0000
54.3300 452.0000 1.0000
54.3400 456.0000 1.0000
54.3500 455.0000 1.0000
54.3600 464.0000 1.0000
54.3700 504.0000 1.0000
54.3800 498.0000 1.0000
54.3900 499.0000 1.0000
54.4000 530.0000 1.0000
54.4100 546.0000 1.0000
54.4200 532.0000 1.0000
54.4300 571.0000 1.0000
54.4400 588.0000 1.0000
54.4500 564.0000 1.0000
54.4600 531.0000 1.0000
54.4700 558.0000 1.0000
54.4800 589.0000 1.0000
54.4900 590.0000 1.0000
54.5000 557.0000 1.0000
54.5100 588.0000 1.0000
54.5200 563.0000 1.0000
54.5300 575.0000 1.0000
54.5400 583.0000 1.0000
54.5500 571.0000 1.0000
54.5600 567.0000 1.0000
54.5700 555.0000 1.0000
54.5800 529.0000 1.0000
54.5900 534.0000 1.0000
54.6000 550.0000 1.0000
54.6100 576.0000 1.0000
54.6200 564.0000 1.0000
54.6300 546.0000 1.0000
54.6400 541.0000 1.0000
54.6500 541.0000 1.0000
54.6600 523.0000 1.0000
54.6700 508.0000 1.0000
54.6800 467.0000 1.0000
54.6900 476.0000 1.0000
54.7000 475.0000 1.0000
54.7100 471.0000 1.0000
54.7200 477.0000 1.0000
54.7300 496.0000 1.0000
54.7400 448.0000 1.0000
54.7500 433.0000 1.0000
54.7600 442.0000 1.0000
54.7700 451.0000 1.0000
54.7800 401.0000 1.0000
54.7900 454.0000 1.0000
54.8000 439.0000 1.0000
54.8100 417.0000 1.0000
54.8200 420.0000 1.0000
54.8300 405.0000 1.0000
54.8400 400.0000 1.0000
54.8500 406.0000 1.0000
54.8600 398.0000 1.0000
54.8700 403.0000 1.0000
54.8800 414.0000 1.0000
54.8900 391.0000 1.0000
54.9000 365.0000 1.0000
54.9100 390.0000 1.0000
54.9200 364.0000 1.0000
54.9300 378.0000 1.0000
54.9400 427.0000 1.0000
54.9500 406.0000 1.0000
54.9600 357.0000 1.0000
54.9700 377.0000 1.0000
54.9800 376.0000 1.0000
54.9900 362.0000 1.0000
55.0000 384.0000 1.0000
55.0100 398.0000 1.0000
55.0200 373.0000 1.0000
55.0300 363.0000 1.0000
55.0400 370.0000 1.0000
55.0500 353.0000 1.0000
55.0600 349.0000 1.0000
55.0700 373.0000 1.0000
55.0800 403.0000 1.0000
55.0900 390.0000 1.0000
55.1000 398.0000 1.0000
55.1100 380.0000 1.0000
55.1200 407.0000 1.0000
55.1300 367.0000 1.0000
55.1400 376.0000 1.0000
55.1500 334.0000 1.0000
55.1600 408.0000 1.0000
55.1700 378.0000 1.0000
55.1800 361.0000 1.0000
55.1900 355.0000 1.0000
55.2000 368.0000 1.0000
55.2100 393.0000 1.0000
55.2200 383.0000 1.0000
55.2300 343.0000 1.0000
55.2400 371.0000 1.0000
55.2500 385.0000 1.0000
55.2600 376.0000 1.0000
55.2700 364.0000 1.0000
55.2800 378.0000 1.0000
55.2900 359.0000 1.0000
55.3000 361.0000 1.0000
55.3100 374.0000 1.0000
55.3200 373.0000 1.0000
55.3300 339.0000 1.0000
55.3400 359.0000 1.0000
55.3500 365.0000 1.0000
55.3600 372.0000 1.0000
55.3700 375.0000 1.0000
55.3800 354.0000 1.0000
55.3900 380.0000 1.0000
55.4000 349.0000 1.0000
55.4100 354.0000 1.0000
55.4200 373.0000 1.0000
55.4300 367.0000 1.0000
55.4400 359.0000 1.0000
55.4500 375.0000 1.0000
55.4600 367.0000 1.0000
55.4700 355.0000 1.0000
55.4800 403.0000 1.0000
55.4900 381.0000 1.0000
55.5000 373.0000 1.0000
55.5100 360.0000 1.0000
55.5200 349.0000 1.0000
55.5300 382.0000 1.0000
55.5400 339.0000 1.0000
55.5500 347.0000 1.0000
55.5600 352.0000 1.0000
55.5700 377.0000 1.0000
55.5800 340.0000 1.0000
55.5900 362.0000 1.0000
55.6000 358.0000 1.0000
55.6100 348.0000 1.0000
55.6200 358.0000 1.0000
55.6300 348.0000 1.0000
55.6400 336.0000 1.0000
55.6500 348.0000 1.0000
55.6600 357.0000 1.0000
55.6700 344.0000 1.0000
55.6800 405.0000 1.0000
55.6900 366.0000 1.0000
55.7000 384.0000 1.0000
55.7100 378.0000 1.0000
55.7200 385.0000 1.0000
55.7300 348.0000 1.0000
55.7400 327.0000 1.0000
55.7500 347.0000 1.0000
55.7600 361.0000 1.0000
55.7700 376.0000 1.0000
55.7800 363.0000 1.0000
55.7900 367.0000 1.0000
55.8000 368.0000 1.0000
55.8100 353.0000 1.0000
55.8200 377.0000 1.0000
55.8300 376.0000 1.0000
55.8400 388.0000 1.0000
55.8500 375.0000 1.0000
55.8600 351.0000 1.0000
55.8700 356.0000 1.0000
55.8800 377.0000 1.0000
55.8900 334.0000 1.0000
55.9000 362.0000 1.0000
55.9100 356.0000 1.0000
55.9200 350.0000 1.0000
55.9300 377.0000 1.0000
55.9400 353.0000 1.0000
55.9500 357.0000 1.0000
55.9600 368.0000 1.0000
55.9700 357.0000 1.0000
55.9800 395.0000 1.0000
55.9900 365.0000 1.0000
56.0000 359.0000 1.0000
56.0100 392.0000 1.0000
56.0200 358.0000 1.0000
56.0300 349.0000 1.0000
56.0400 335.0000 1.0000
56.0500 354.0000 1.0000
56.0600 364.0000 1.0000
56.0700 353.0000 1.0000
56.0800 361.0000 1.0000
56.0900 354.0000 1.0000
56.1000 358.0000 1.0000
56.1100 351.0000 1.0000
56.1200 347.0000 1.0000
56.1300 344.0000 1.0000
56.1400 356.0000 1.0000
56.1500 374.0000 1.0000
56.1600 378.0000 1.0000
56.1700 347.0000 1.0000
56.1800 357.0000 1.0000
56.1900 373.0000 1.0000
56.2000 396.0000 1.0000
56.2100 352.0000 1.0000
56.2200 341.0000 1.0000
56.2300 352.0000 1.0000
56.2400 377.0000 1.0000
56.2500 404.0000 1.0000
56.2600 397.0000 1.0000
56.2700 360.0000 1.0000
56.2800 340.0000 1.0000
56.2900 374.0000 1.0000
56.3000 355.0000 1.0000
56.3100 335.0000 1.0000
56.3200 365.0000 1.0000
56.3300 370.0000 1.0000
56.3400 341.0000 1.0000
56.3500 361.0000 1.0000
56.3600 369.0000 1.0000
56.3700 350.0000 1.0000
56.3800 364.0000 1.0000
56.3900 369.0000 1.0000
56.4000 378.0000 1.0000
56.4100 361.0000 1.0000
56.4200 350.0000 1.0000
56.4300 385.0000 1.0000
56.4400 350.0000 1.0000
56.4500 346.0000 1.0000
56.4600 350.0000 1.0000
56.4700 349.0000 1.0000
56.4800 370.0000 1.0000
56.4900 373.0000 1.0000
56.5000 369.0000 1.0000
56.5100 346.0000 1.0000
56.5200 355.0000 1.0000
56.5300 375.0000 1.0000
56.5400 356.0000 1.0000
56.5500 347.0000 1.0000
56.5600 358.0000 1.0000
56.5700 372.0000 1.0000
56.5800 361.0000 1.0000
56.5900 353.0000 1.0000
56.6000 352.0000 1.0000
56.6100 367.0000 1.0000
56.6200 370.0000 1.0000
56.6300 343.0000 1.0000
56.6400 353.0000 1.0000
56.6500 378.0000 1.0000
56.6600 363.0000 1.0000
56.6700 342.0000 1.0000
56.6800 352.0000 1.0000
56.6900 382.0000 1.0000
56.7000 335.0000 1.0000
56.7100 361.0000 1.0000
56.7200 331.0000 1.0000
56.7300 338.0000 1.0000
56.7400 327.0000 1.0000
56.7500 375.0000 1.0000
56.7600 363.0000 1.0000
56.7700 381.0000 1.0000
56.7800 352.0000 1.0000
56.7900 373.0000 1.0000
56.8000 365.0000 1.0000
56.8100 354.0000 1.0000
56.8200 367.0000 1.0000
56.8300 365.0000 1.0000
56.8400 341.0000 1.0000
56.8500 355.0000 1.0000
56.8600 365.0000 1.0000
56.8700 352.0000 1.0000
56.8800 375.0000 1.0000
56.8900 360.0000 1.0000
56.9000 354.0000 1.0000
56.9100 417.0000 1.0000
56.9200 369.0000 1.0000
56.9300 361.0000 1.0000
56.9400 363.0000 1.0000
56.9500 360.0000 1.0000
56.9600 350.0000 1.0000
56.9700 394.0000 1.0000
56.9800 368.0000 1.0000
56.9900 329.0000 1.0000
57.0000 339.0000 1.0000
57.0100 344.0000 1.0000
57.0200 376.0000 1.0000
57.0300 349.0000 1.0000
57.0400 351.0000 1.0000
57.0500 343.0000 1.0000
57.0600 367.0000 1.0000
57.0700 354.0000 1.0000
57.0800 361.0000 1.0000
57.0900 372.0000 1.0000
57.1000 381.0000 1.0000
57.1100 326.0000 1.0000
57.1200 386.0000 1.0000
57.1300 342.0000 1.0000
57.1400 346.0000 1.0000
57.1500 339.0000 1.0000
57.1600 346.0000 1.0000
57.1700 363.0000 1.0000
57.1800 355.0000 1.0000
57.1900 376.0000 1.0000
57.2000 370.0000 1.0000
57.2100 351.0000 1.0000
57.2200 382.0000 1.0000
57.2300 342.0000 1.0000
57.2400 337.0000 1.0000
57.2500 323.0000 1.0000
57.2600 340.0000 1.0000
57.2700 374.0000 1.0000
57.2800 350.0000 1.0000
57.2900 368.0000 1.0000
57.3000 334.0000 1.0000
57.3100 365.0000 1.0000
57.3200 380.0000 1.0000
57.3300 363.0000 1.0000
57.3400 360.0000 1.0000
57.3500 363.0000 1.0000
57.3600 359.0000 1.0000
57.3700 376.0000 1.0000
57.3800 386.0000 1.0000
57.3900 368.0000 1.0000
57.4000 368.0000 1.0000
57.4100 350.0000 1.0000
57.4200 361.0000 1.0000
57.4300 369.0000 1.0000
57.4400 369.0000 1.0000
57.4500 411.0000 1.0000
57.4600 366.0000 1.0000
57.4700 349.0000 1.0000
57.4800 362.0000 1.0000
57.4900 345.0000 1.0000
57.5000 350.0000 1.0000
57.5100 362.0000 1.0000
57.5200 342.0000 1.0000
57.5300 386.0000 1.0000
57.5400 352.0000 1.0000
57.5500 369.0000 1.0000
57.5600 358.0000 1.0000
57.5700 364.0000 1.0000
57.5800 380.0000 1.0000
57.5900 347.0000 1.0000
57.6000 347.0000 1.0000
57.6100 368.0000 1.0000
57.6200 359.0000 1.0000
57.6300 366.0000 1.0000
57.6400 360.0000 1.0000
57.6500 380.0000 1.0000
57.6600 327.0000 1.0000
57.6700 373.0000 1.0000
57.6800 388.0000 1.0000
57.6900 371.0000 1.0000
57.7000 386.0000 1.0000
57.7100 352.0000 1.0000
57.7200 379.0000 1.0000
57.7300 368.0000 1.0000
57.7400 356.0000 1.0000
57.7500 361.0000 1.0000
57.7600 366.0000 1.0000
57.7700 371.0000 1.0000
57.7800 369.0000 1.0000
57.7900 364.0000 1.0000
57.8000 404.0000 1.0000
57.8100 381.0000 1.0000
57.8200 334.0000 1.0000
57.8300 386.0000 1.0000
57.8400 397.0000 1.0000
57.8500 356.0000 1.0000
57.8600 338.0000 1.0000
57.8700 356.0000 1.0000
57.8800 348.0000 1.0000
57.8900 350.0000 1.0000
57.9000 344.0000 1.0000
57.9100 382.0000 1.0000
57.9200 380.0000 1.0000
57.9300 338.0000 1.0000
57.9400 349.0000 1.0000
57.9500 325.0000 1.0000
57.9600 337.0000 1.0000
57.9700 358.0000 1.0000
57.9800 357.0000 1.0000
57.9900 375.0000 1.0000
58.0000 347.0000 1.0000
58.0100 382.0000 1.0000
58.0200 375.0000 1.0000
58.0300 371.0000 1.0000
58.0400 343.0000 1.0000
58.0500 348.0000 1.0000
58.0600 365.0000 1.0000
58.0700 341.0000 1.0000
58.0800 341.0000 1.0000
58.0900 378.0000 1.0000
58.1000 376.0000 1.0000
58.1100 386.0000 1.0000
58.1200 351.0000 1.0000
58.1300 341.0000 1.0000
58.1400 365.0000 1.0000
58.1500 350.0000 1.0000
58.1600 382.0000 1.0000
58.1700 351.0000 1.0000
58.1800 356.0000 1.0000
58.1900 357.0000 1.0000
58.2000 350.0000 1.0000
58.2100 388.0000 1.0000
58.2200 320.0000 1.0000
58.2300 376.0000 1.0000
58.2400 356.0000 1.0000
58.2500 343.0000 1.0000
58.2600 360.0000 1.0000
58.2700 363.0000 1.0000
58.2800 355.0000 1.0000
58.2900 345.0000 1.0000
58.3000 334.0000 1.0000
58.3100 345.0000 1.0000
58.3200 347.0000 1.0000
58.3300 347.0000 1.0000
58.3400 340.0000 1.0000
58.3500 370.0000 1.0000
58.3600 338.0000 1.0000
58.3700 354.0000 1.0000
58.3800 358.0000 1.0000
58.3900 353.0000 1.0000
58.4000 362.0000 1.0000
58.4100 332.0000 1.0000
58.4200 341.0000 1.0000
58.4300 381.0000 1.0000
58.4400 366.0000 1.0000
58.4500 330.0000 1.0000
58.4600 339.0000 1.0000
58.4700 348.0000 1.0000
58.4800 346.0000 1.0000
58.4900 357.0000 1.0000
58.5000 356.0000 1.0000
58.5100 360.0000 1.0000
58.5200 368.0000 1.0000
58.5300 348.0000 1.0000
58.5400 375.0000 1.0000
58.5500 345.0000 1.0000
58.5600 369.0000 1.0000
58.5700 399.0000 1.0000
58.5800 389.0000 1.0000
58.5900 372.0000 1.0000
58.6000 406.0000 1.0000
58.6100 366.0000 1.0000
58.6200 363.0000 1.0000
58.6300 367.0000 1.0000
58.6400 354.0000 1.0000
58.6500 359.0000 1.0000
58.6600 376.0000 1.0000
58.6700 356.0000 1.0000
58.6800 361.0000 1.0000
58.6900 360.0000 1.0000
58.7000 353.0000 1.0000
58.7100 369.0000 1.0000
58.7200 362.0000 1.0000
58.7300 356.0000 1.0000
58.7400 344.0000 1.0000
58.7500 351.0000 1.0000
58.7600 345.0000 1.0000
58.7700 356.0000 1.0000
58.7800 349.0000 1.0000
58.7900 363.0000 1.0000
58.8000 352.0000 1.0000
58.8100 363.0000 1.0000
58.8200 325.0000 1.0000
58.8300 348.0000 1.0000
58.8400 369.0000 1.0000
58.8500 344.0000 1.0000
58.8600 340.0000 1.0000
58.8700 372.0000 1.0000
58.8800 335.0000 1.0000
58.8900 371.0000 1.0000
58.9000 365.0000 1.0000
58.9100 348.0000 1.0000
58.9200 367.0000 1.0000
58.9300 338.0000 1.0000
58.9400 365.0000 1.0000
58.9500 348.0000 1.0000
58.9600 345.0000 1.0000
58.9700 344.0000 1.0000
58.9800 341.0000 1.0000
58.9900 350.0000 1.0000
59.0000 353.0000 1.0000
59.0100 339.0000 1.0000
59.0200 321.0000 1.0000
59.0300 353.0000 1.0000
59.0400 361.0000 1.0000
59.0500 349.0000 1.0000
59.0600 369.0000 1.0000
59.0700 325.0000 1.0000
59.0800 347.0000 1.0000
59.0900 346.0000 1.0000
59.1000 336.0000 1.0000
59.1100 378.0000 1.0000
59.1200 328.0000 1.0000
59.1300 379.0000 1.0000
59.1400 352.0000 1.0000
59.1500 362.0000 1.0000
59.1600 349.0000 1.0000
59.1700 356.0000 1.0000
59.1800 347.0000 1.0000
59.1900 359.0000 1.0000
59.2000 342.0000 1.0000
59.2100 352.0000 1.0000
59.2200 362.0000 1.0000
59.2300 363.0000 1.0000
59.2400 356.0000 1.0000
59.2500 341.0000 1.0000
59.2600 361.0000 1.0000
59.2700 359.0000 1.0000
59.2800 357.0000 1.0000
59.2900 325.0000 1.0000
59.3000 356.0000 1.0000
59.3100 334.0000 1.0000
59.3200 370.0000 1.0000
59.3300 394.0000 1.0000
59.3400 348.0000 1.0000
59.3500 353.0000 1.0000
59.3600 357.0000 1.0000
59.3700 342.0000 1.0000
59.3800 329.0000 1.0000
59.3900 360.0000 1.0000
59.4000 349.0000 1.0000
59.4100 352.0000 1.0000
59.4200 377.0000 1.0000
59.4300 339.0000 1.0000
59.4400 373.0000 1.0000
59.4500 342.0000 1.0000
59.4600 362.0000 1.0000
59.4700 331.0000 1.0000
59.4800 351.0000 1.0000
59.4900 367.0000 1.0000
59.5000 380.0000 1.0000
59.5100 323.0000 1.0000
59.5200 374.0000 1.0000
59.5300 366.0000 1.0000
59.5400 350.0000 1.0000
59.5500 343.0000 1.0000
59.5600 335.0000 1.0000
59.5700 387.0000 1.0000
59.5800 361.0000 1.0000
59.5900 373.0000 1.0000
59.6000 376.0000 1.0000
59.6100 373.0000 1.0000
59.6200 353.0000 1.0000
59.6300 335.0000 1.0000
59.6400 363.0000 1.0000
59.6500 352.0000 1.0000
59.6600 356.0000 1.0000
59.6700 340.0000 1.0000
59.6800 365.0000 1.0000
59.6900 366.0000 1.0000
59.7000 325.0000 1.0000
59.7100 357.0000 1.0000
59.7200 361.0000 1.0000
59.7300 345.0000 1.0000
59.7400 362.0000 1.0000
59.7500 320.0000 1.0000
59.7600 325.0000 1.0000
59.7700 343.0000 1.0000
59.7800 375.0000 1.0000
59.7900 362.0000 1.0000
59.8000 372.0000 1.0000
59.8100 378.0000 1.0000
59.8200 371.0000 1.0000
59.8300 373.0000 1.0000
59.8400 381.0000 1.0000
59.8500 347.0000 1.0000
59.8600 367.0000 1.0000
59.8700 372.0000 1.0000
59.8800 348.0000 1.0000
59.8900 325.0000 1.0000
59.9000 340.0000 1.0000
59.9100 354.0000 1.0000
59.9200 358.0000 1.0000
59.9300 348.0000 1.0000
59.9400 357.0000 1.0000
59.9500 358.0000 1.0000
59.9600 344.0000 1.0000
59.9700 350.0000 1.0000
59.9800 360.0000 1.0000
59.9900 341.0000 1.0000
60.0000 342.0000 1.0000
60.0100 361.0000 1.0000
60.0200 366.0000 1.0000
60.0300 365.0000 1.0000
60.0400 343.0000 1.0000
60.0500 366.0000 1.0000
60.0600 401.0000 1.0000
60.0700 364.0000 1.0000
60.0800 353.0000 1.0000
60.0900 338.0000 1.0000
60.1000 331.0000 1.0000
60.1100 332.0000 1.0000
60.1200 338.0000 1.0000
60.1300 355.0000 1.0000
60.1400 332.0000 1.0000
60.1500 342.0000 1.0000
60.1600 385.0000 1.0000
60.1700 349.0000 1.0000
60.1800 348.0000 1.0000
60.1900 363.0000 1.0000
60.2000 339.0000 1.0000
60.2100 354.0000 1.0000
60.2200 375.0000 1.0000
60.2300 342.0000 1.0000
60.2400 346.0000 1.0000
60.2500 344.0000 1.0000
60.2600 354.0000 1.0000
60.2700 347.0000 1.0000
60.2800 327.0000 1.0000
60.2900 327.0000 1.0000
60.3000 363.0000 1.0000
60.3100 373.0000 1.0000
60.3200 360.0000 1.0000
60.3300 388.0000 1.0000
60.3400 355.0000 1.0000
60.3500 375.0000 1.0000
60.3600 356.0000 1.0000
60.3700 331.0000 1.0000
60.3800 386.0000 1.0000
60.3900 355.0000 1.0000
60.4000 379.0000 1.0000
60.4100 375.0000 1.0000
60.4200 347.0000 1.0000
60.4300 398.0000 1.0000
60.4400 331.0000 1.0000
60.4500 343.0000 1.0000
60.4600 324.0000 1.0000
60.4700 353.0000 1.0000
60.4800 354.0000 1.0000
60.4900 344.0000 1.0000
60.5000 357.0000 1.0000
60.5100 331.0000 1.0000
60.5200 371.0000 1.0000
60.5300 369.0000 1.0000
60.5400 372.0000 1.0000
60.5500 373.0000 1.0000
60.5600 394.0000 1.0000
60.5700 354.0000 1.0000
60.5800 355.0000 1.0000
60.5900 350.0000 1.0000
60.6000 331.0000 1.0000
60.6100 334.0000 1.0000
60.6200 372.0000 1.0000
60.6300 368.0000 1.0000
60.6400 385.0000 1.0000
60.6500 343.0000 1.0000
60.6600 380.0000 1.0000
60.6700 361.0000 1.0000
60.6800 344.0000 1.0000
60.6900 346.0000 1.0000
60.7000 348.0000 1.0000
60.7100 363.0000 1.0000
60.7200 367.0000 1.0000
60.7300 371.0000 1.0000
60.7400 373.0000 1.0000
60.7500 373.0000 1.0000
60.7600 381.0000 1.0000
60.7700 387.0000 1.0000
60.7800 379.0000 1.0000
60.7900 360.0000 1.0000
60.8000 365.0000 1.0000
60.8100 373.0000 1.0000
60.8200 356.0000 1.0000
60.8300 379.0000 1.0000
60.8400 376.0000 1.0000
60.8500 370.0000 1.0000
60.8600 344.0000 1.0000
60.8700 336.0000 1.0000
60.8800 352.0000 1.0000
60.8900 384.0000 1.0000
60.9000 376.0000 1.0000
60.9100 415.0000 1.0000
60.9200 376.0000 1.0000
60.9300 403.0000 1.0000
60.9400 380.0000 1.0000
60.9500 361.0000 1.0000
60.9600 362.0000 1.0000
60.9700 403.0000 1.0000
60.9800 367.0000 1.0000
60.9900 376.0000 1.0000
61.0000 351.0000 1.0000
61.0100 385.0000 1.0000
61.0200 371.0000 1.0000
61.0300 401.0000 1.0000
61.0400 375.0000 1.0000
61.0500 368.0000 1.0000
61.0600 405.0000 1.0000
61.0700 392.0000 1.0000
61.0800 380.0000 1.0000
61.0900 373.0000 1.0000
61.1000 402.0000 1.0000
61.1100 424.0000 1.0000
61.1200 407.0000 1.0000
61.1300 419.0000 1.0000
61.1400 389.0000 1.0000
61.1500 404.0000 1.0000
61.1600 372.0000 1.0000
61.1700 393.0000 1.0000
61.1800 409.0000 1.0000
61.1900 414.0000 1.0000
61.2000 411.0000 1.0000
61.2100 423.0000 1.0000
61.2200 431.0000 1.0000
61.2300 452.0000 1.0000
61.2400 427.0000 1.0000
61.2500 466.0000 1.0000
61.2600 480.0000 1.0000
61.2700 455.0000 1.0000
61.2800 458.0000 1.0000
61.2900 517.0000 1.0000
61.3000 492.0000 1.0000
61.3100 508.0000 1.0000
61.3200 531.0000 1.0000
61.3300 517.0000 1.0000
61.3400 531.0000 1.0000
61.3500 564.0000 1.0000
61.3600 572.0000 1.0000
61.3700 600.0000 1.0000
61.3800 597.0000 1.0000
61.3900 614.0000 1.0000
61.4000 602.0000 1.0000
61.4100 628.0000 1.0000
61.4200 671.0000 1.0000
61.4300 711.0000 1.0000
61.4400 684.0000 1.0000
61.4500 696.0000 1.0000
61.4600 690.0000 1.0000
61.4700 728.0000 1.0000
61.4800 694.0000 1.0000
61.4900 728.0000 1.0000
61.5000 779.0000 1.0000
61.5100 764.0000 1.0000
61.5200 816.0000 1.0000
61.5300 790.0000 1.0000
61.5400 783.0000 1.0000
61.5500 772.0000 1.0000
61.5600 830.0000 1.0000
61.5700 819.0000 1.0000
61.5800 756.0000 1.0000
61.5900 773.0000 1.0000
61.6000 757.0000 1.0000
61.6100 780.0000 1.0000
61.6200 779.0000 1.0000
61.6300 749.0000 1.0000
61.6400 761.0000 1.0000
61.6500 730.0000 1.0000
61.6600 740.0000 1.0000
61.6700 720.0000 1.0000
61.6800 714.0000 1.0000
61.6900 713.0000 1.0000
61.7000 698.0000 1.0000
61.7100 675.0000 1.0000
61.7200 692.0000 1.0000
61.7300 653.0000 1.0000
61.7400 623.0000 1.0000
61.7500 588.0000 1.0000
61.7600 571.0000 1.0000
61.7700 614.0000 1.0000
61.7800 606.0000 1.0000
61.7900 589.0000 1.0000
61.8000 552.0000 1.0000
61.8100 544.0000 1.0000
61.8200 543.0000 1.0000
61.8300 542.0000 1.0000
61.8400 545.0000 1.0000
61.8500 540.0000 1.0000
61.8600 532.0000 1.0000
61.8700 491.0000 1.0000
61.8800 531.0000 1.0000
61.8900 476.0000 1.0000
61.9000 472.0000 1.0000
61.9100 472.0000 1.0000
61.9200 460.0000 1.0000
61.9300 459.0000 1.0000
61.9400 454.0000 1.0000
61.9500 426.0000 1.0000
61.9600 433.0000 1.0000
61.9700 470.0000 1.0000
61.9800 416.0000 1.0000
61.9900 433.0000 1.0000
62.0000 421.0000 1.0000
62.0100 414.0000 1.0000
62.0200 415.0000 1.0000
62.0300 445.0000 1.0000
62.0400 406.0000 1.0000
62.0500 432.0000 1.0000
62.0600 417.0000 1.0000
62.0700 374.0000 1.0000
62.0800 422.0000 1.0000
62.0900 406.0000 1.0000
62.1000 385.0000 1.0000
62.1100 391.0000 1.0000
62.1200 378.0000 1.0000
62.1300 380.0000 1.0000
62.1400 411.0000 1.0000
62.1500 391.0000 1.0000
62.1600 406.0000 1.0000
62.1700 394.0000 1.0000
62.1800 411.0000 1.0000
62.1900 396.0000 1.0000
62.2000 417.0000 1.0000
62.2100 390.0000 1.0000
62.2200 404.0000 1.0000
62.2300 411.0000 1.0000
62.2400 409.0000 1.0000
62.2500 383.0000 1.0000
62.2600 384.0000 1.0000
62.2700 417.0000 1.0000
62.2800 375.0000 1.0000
62.2900 406.0000 1.0000
62.3000 402.0000 1.0000
62.3100 386.0000 1.0000
62.3200 383.0000 1.0000
62.3300 386.0000 1.0000
62.3400 421.0000 1.0000
62.3500 420.0000 1.0000
62.3600 440.0000 1.0000
62.3700 437.0000 1.0000
62.3800 394.0000 1.0000
62.3900 393.0000 1.0000
62.4000 396.0000 1.0000
62.4100 427.0000 1.0000
62.4200 401.0000 1.0000
62.4300 427.0000 1.0000
62.4400 374.0000 1.0000
62.4500 380.0000 1.0000
62.4600 412.0000 1.0000
62.4700 408.0000 1.0000
62.4800 383.0000 1.0000
62.4900 372.0000 1.0000
62.5000 368.0000 1.0000
62.5100 358.0000 1.0000
62.5200 391.0000 1.0000
62.5300 388.0000 1.0000
62.5400 379.0000 1.0000
62.5500 386.0000 1.0000
62.5600 365.0000 1.0000
62.5700 393.0000 1.0000
62.5800 369.0000 1.0000
62.5900 339.0000 1.0000
62.6000 403.0000 1.0000
62.6100 373.0000 1.0000
62.6200 339.0000 1.0000
62.6300 369.0000 1.0000
62.6400 377.0000 1.0000
62.6500 382.0000 1.0000
62.6600 366.0000 1.0000
62.6700 374.0000 1.0000
62.6800 377.0000 1.0000
62.6900 354.0000 1.0000
62.7000 344.0000 1.0000
62.7100 336.0000 1.0000
62.7200 358.0000 1.0000
62.7300 345.0000 1.0000
62.7400 336.0000 1.0000
62.7500 351.0000 1.0000
62.7600 326.0000 1.0000
62.7700 353.0000 1.0000
62.7800 352.0000 1.0000
62.7900 360.0000 1.0000
62.8000 349.0000 1.0000
62.8100 354.0000 1.0000
62.8200 402.0000 1.0000
62.8300 386.0000 1.0000
62.8400 338.0000 1.0000
62.8500 326.0000 1.0000
62.8600 329.0000 1.0000
62.8700 336.0000 1.0000
62.8800 357.0000 1.0000
62.8900 366.0000 1.0000
62.9000 342.0000 1.0000
62.9100 363.0000 1.0000
62.9200 348.0000 1.0000
62.9300 343.0000 1.0000
62.9400 352.0000 1.0000
62.9500 379.0000 1.0000
62.9600 365.0000 1.0000
62.9700 359.0000 1.0000
62.9800 345.0000 1.0000
62.9900 365.0000 1.0000
63.0000 355.0000 1.0000
63.0100 351.0000 1.0000
63.0200 379.0000 1.0000
63.0300 350.0000 1.0000
63.0400 351.0000 1.0000
63.0500 350.0000 1.0000
63.0600 352.0000 1.0000
63.0700 369.0000 1.0000
63.0800 369.0000 1.0000
63.0900 372.0000 1.0000
63.1000 359.0000 1.0000
63.1100 372.0000 1.0000
63.1200 373.0000 1.0000
63.1300 370.0000 1.0000
63.1400 360.0000 1.0000
63.1500 369.0000 1.0000
63.1600 357.0000 1.0000
63.1700 365.0000 1.0000
63.1800 350.0000 1.0000
63.1900 364.0000 1.0000
63.2000 362.0000 1.0000
63.2100 353.0000 1.0000
63.2200 329.0000 1.0000
63.2300 345.0000 1.0000
63.2400 344.0000 1.0000
63.2500 356.0000 1.0000
63.2600 349.0000 1.0000
63.2700 350.0000 1.0000
63.2800 337.0000 1.0000
63.2900 362.0000 1.0000
63.3000 352.0000 1.0000
63.3100 377.0000 1.0000
63.3200 347.0000 1.0000
63.3300 368.0000 1.0000
63.3400 366.0000 1.0000
63.3500 337.0000 1.0000
63.3600 337.0000 1.0000
63.3700 340.0000 1.0000
63.3800 347.0000 1.0000
63.3900 375.0000 1.0000
63.4000 357.0000 1.0000
63.4100 355.0000 1.0000
63.4200 386.0000 1.0000
63.4300 393.0000 1.0000
63.4400 354.0000 1.0000
63.4500 386.0000 1.0000
63.4600 353.0000 1.0000
63.4700 358.0000 1.0000
63.4800 338.0000 1.0000
63.4900 363.0000 1.0000
63.5000 374.0000 1.0000
63.5100 347.0000 1.0000
63.5200 356.0000 1.0000
63.5300 376.0000 1.0000
63.5400 358.0000 1.0000
63.5500 390.0000 1.0000
63.5600 354.0000 1.0000
63.5700 371.0000 1.0000
63.5800 372.0000 1.0000
63.5900 366.0000 1.0000
63.6000 343.0000 1.0000
63.6100 356.0000 1.0000
63.6200 386.0000 1.0000
63.6300 364.0000 1.0000
63.6400 369.0000 1.0000
63.6500 368.0000 1.0000
63.6600 385.0000 1.0000
63.6700 405.0000 1.0000
63.6800 358.0000 1.0000
63.6900 386.0000 1.0000
63.7000 374.0000 1.0000
63.7100 400.0000 1.0000
63.7200 402.0000 1.0000
63.7300 414.0000 1.0000
63.7400 383.0000 1.0000
63.7500 416.0000 1.0000
63.7600 415.0000 1.0000
63.7700 427.0000 1.0000
63.7800 428.0000 1.0000
63.7900 446.0000 1.0000
63.8000 413.0000 1.0000
63.8100 436.0000 1.0000
63.8200 419.0000 1.0000
63.8300 460.0000 1.0000
63.8400 466.0000 1.0000
63.8500 511.0000 1.0000
63.8600 494.0000 1.0000
63.8700 552.0000 1.0000
63.8800 538.0000 1.0000
63.8900 528.0000 1.0000
63.9000 542.0000 1.0000
63.9100 559.0000 1.0000
63.9200 617.0000 1.0000
63.9300 568.0000 1.0000
63.9400 563.0000 1.0000
63.9500 555.0000 1.0000
63.9600 600.0000 1.0000
63.9700 538.0000 1.0000
63.9800 535.0000 1.0000
63.9900 514.0000 1.0000
64.0000 501.0000 1.0000
64.0100 501.0000 1.0000
64.0200 482.0000 1.0000
64.0300 481.0000 1.0000
64.0400 509.0000 1.0000
64.0500 497.0000 1.0000
64.0600 458.0000 1.0000
64.0700 505.0000 1.0000
64.0800 517.0000 1.0000
64.0900 499.0000 1.0000
64.1000 507.0000 1.0000
64.1100 474.0000 1.0000
64.1200 461.0000 1.0000
64.1300 464.0000 1.0000
64.1400 453.0000 1.0000
64.1500 473.0000 1.0000
64.1600 461.0000 1.0000
64.1700 447.0000 1.0000
64.1800 425.0000 1.0000
64.1900 430.0000 1.0000
64.2000 404.0000 1.0000
64.2100 401.0000 1.0000
64.2200 400.0000 1.0000
64.2300 375.0000 1.0000
64.2400 412.0000 1.0000
64.2500 411.0000 1.0000
64.2600 412.0000 1.0000
64.2700 359.0000 1.0000
64.2800 358.0000 1.0000
64.2900 396.0000 1.0000
64.3000 397.0000 1.0000
64.3100 333.0000 1.0000
64.3200 345.0000 1.0000
64.3300 366.0000 1.0000
64.3400 393.0000 1.0000
64.3500 382.0000 1.0000
64.3600 369.0000 1.0000
64.3700 384.0000 1.0000
64.3800 373.0000 1.0000
64.3900 358.0000 1.0000
64.4000 362.0000 1.0000
64.4100 388.0000 1.0000
64.4200 381.0000 1.0000
64.4300 384.0000 1.0000
64.4400 349.0000 1.0000
64.4500 349.0000 1.0000
64.4600 376.0000 1.0000
64.4700 379.0000 1.0000
64.4800 370.0000 1.0000
64.4900 402.0000 1.0000
64.5000 387.0000 1.0000
64.5100 354.0000 1.0000
64.5200 357.0000 1.0000
64.5300 365.0000 1.0000
64.5400 397.0000 1.0000
64.5500 374.0000 1.0000
64.5600 347.0000 1.0000
64.5700 354.0000 1.0000
64.5800 380.0000 1.0000
64.5900 372.0000 1.0000
64.6000 346.0000 1.0000
64.6100 390.0000 1.0000
64.6200 387.0000 1.0000
64.6300 397.0000 1.0000
64.6400 335.0000 1.0000
64.6500 356.0000 1.0000
64.6600 371.0000 1.0000
64.6700 370.0000 1.0000
64.6800 360.0000 1.0000
64.6900 362.0000 1.0000
64.7000 375.0000 1.0000
64.7100 352.0000 1.0000
64.7200 348.0000 1.0000
64.7300 360.0000 1.0000
64.7400 356.0000 1.0000
64.7500 365.0000 1.0000
64.7600 370.0000 1.0000
64.7700 364.0000 1.0000
64.7800 359.0000 1.0000
64.7900 391.0000 1.0000
64.8000 355.0000 1.0000
64.8100 388.0000 1.0000
64.8200 375.0000 1.0000
64.8300 333.0000 1.0000
64.8400 365.0000 1.0000
64.8500 386.0000 1.0000
64.8600 374.0000 1.0000
64.8700 367.0000 1.0000
64.8800 355.0000 1.0000
64.8900 369.0000 1.0000
64.9000 368.0000 1.0000
64.9100 372.0000 1.0000
64.9200 381.0000 1.0000
64.9300 337.0000 1.0000
64.9400 362.0000 1.0000
64.9500 359.0000 1.0000
64.9600 373.0000 1.0000
64.9700 378.0000 1.0000
64.9800 360.0000 1.0000
64.9900 341.0000 1.0000
65.0000 397.0000 1.0000
65.0100 419.0000 1.0000
65.0200 413.0000 1.0000
65.0300 402.0000 1.0000
65.0400 373.0000 1.0000
65.0500 372.0000 1.0000
65.0600 404.0000 1.0000
65.0700 401.0000 1.0000
65.0800 403.0000 1.0000
65.0900 425.0000 1.0000
65.1000 412.0000 1.0000
65.1100 407.0000 1.0000
65.1200 421.0000 1.0000
65.1300 439.0000 1.0000
65.1400 417.0000 1.0000
65.1500 441.0000 1.0000
65.1600 437.0000 1.0000
65.1700 431.0000 1.0000
65.1800 459.0000 1.0000
65.1900 502.0000 1.0000
65.2000 492.0000 1.0000
65.2100 473.0000 1.0000
65.2200 504.0000 1.0000
65.2300 496.0000 1.0000
65.2400 533.0000 1.0000
65.2500 511.0000 1.0000
65.2600 533.0000 1.0000
65.2700 565.0000 1.0000
65.2800 582.0000 1.0000
65.2900 574.0000 1.0000
65.3000 553.0000 1.0000
65.3100 556.0000 1.0000
65.3200 624.0000 1.0000
65.3300 647.0000 1.0000
65.3400 648.0000 1.0000
65.3500 685.0000 1.0000
65.3600 724.0000 1.0000
65.3700 772.0000 1.0000
65.3800 827.0000 1.0000
65.3900 859.0000 1.0000
65.4000 857.0000 1.0000
65.4100 846.0000 1.0000
65.4200 952.0000 1.0000
65.4300 1014.0000 1.0000
65.4400 1041.0000 1.0000
65.4500 1034.0000 1.0000
65.4600 1083.0000 1.0000
65.4700 1128.0000 1.0000
65.4800 1210.0000 1.0000
65.4900 1237.0000 1.0000
65.5000 1287.0000 1.0000
65.5100 1286.0000 1.0000
65.5200 1274.0000 1.0000
65.5300 1302.0000 1.0000
65.5400 1351.0000 1.0000
65.5500 1343.0000 1.0000
65.5600 1328.0000 1.0000
65.5700 1274.0000 1.0000
65.5800 1267.0000 1.0000
65.5900 1253.0000 1.0000
65.6000 1242.0000 1.0000
65.6100 1189.0000 1.0000
65.6200 1167.0000 1.0000
65.6300 1144.0000 1.0000
65.6400 1157.0000 1.0000
65.6500 1091.0000 1.0000
65.6600 1098.0000 1.0000
65.6700 1074.0000 1.0000
65.6800 1076.0000 1.0000
65.6900 1091.0000 1.0000
65.7000 977.0000 1.0000
65.7100 981.0000 1.0000
65.7200 975.0000 1.0000
65.7300 971.0000 1.0000
65.7400 941.0000 1.0000
65.7500 911.0000 1.0000
65.7600 930.0000 1.0000
65.7700 880.0000 1.0000
65.7800 853.0000 1.0000
65.7900 824.0000 1.0000
65.8000 758.0000 1.0000
65.8100 708.0000 1.0000
65.8200 675.0000 1.0000
65.8300 655.0000 1.0000
65.8400 628.0000 1.0000
65.8500 591.0000 1.0000
65.8600 593.0000 1.0000
65.8700 589.0000 1.0000
65.8800 586.0000 1.0000
65.8900 552.0000 1.0000
65.9000 509.0000 1.0000
65.9100 516.0000 1.0000
65.9200 474.0000 1.0000
65.9300 522.0000 1.0000
65.9400 499.0000 1.0000
65.9500 504.0000 1.0000
65.9600 509.0000 1.0000
65.9700 471.0000 1.0000
65.9800 449.0000 1.0000
65.9900 472.0000 1.0000
66.0000 454.0000 1.0000
66.0100 412.0000 1.0000
66.0200 409.0000 1.0000
66.0300 415.0000 1.0000
66.0400 432.0000 1.0000
66.0500 408.0000 1.0000
66.0600 415.0000 1.0000
66.0700 394.0000 1.0000
66.0800 393.0000 1.0000
66.0900 415.0000 1.0000
66.1000 413.0000 1.0000
66.1100 384.0000 1.0000
66.1200 418.0000 1.0000
66.1300 359.0000 1.0000
66.1400 366.0000 1.0000
66.1500 396.0000 1.0000
66.1600 409.0000 1.0000
66.1700 382.0000 1.0000
66.1800 338.0000 1.0000
66.1900 371.0000 1.0000
66.2000 398.0000 1.0000
66.2100 364.0000 1.0000
66.2200 356.0000 1.0000
66.2300 359.0000 1.0000
66.2400 408.0000 1.0000
66.2500 367.0000 1.0000
66.2600 349.0000 1.0000
66.2700 361.0000 1.0000
66.2800 361.0000 1.0000
66.2900 364.0000 1.0000
66.3000 349.0000 1.0000
66.3100 350.0000 1.0000
66.3200 369.0000 1.0000
66.3300 351.0000 1.0000
66.3400 366.0000 1.0000
66.3500 350.0000 1.0000
66.3600 340.0000 1.0000
66.3700 313.0000 1.0000
66.3800 344.0000 1.0000
66.3900 333.0000 1.0000
66.4000 354.0000 1.0000
66.4100 332.0000 1.0000
66.4200 331.0000 1.0000
66.4300 338.0000 1.0000
66.4400 332.0000 1.0000
66.4500 348.0000 1.0000
66.4600 331.0000 1.0000
66.4700 369.0000 1.0000
66.4800 322.0000 1.0000
66.4900 335.0000 1.0000
66.5000 335.0000 1.0000
66.5100 344.0000 1.0000
66.5200 345.0000 1.0000
66.5300 331.0000 1.0000
66.5400 353.0000 1.0000
66.5500 318.0000 1.0000
66.5600 334.0000 1.0000
66.5700 344.0000 1.0000
66.5800 341.0000 1.0000
66.5900 361.0000 1.0000
66.6000 334.0000 1.0000
66.6100 348.0000 1.0000
66.6200 320.0000 1.0000
66.6300 345.0000 1.0000
66.6400 315.0000 1.0000
66.6500 325.0000 1.0000
66.6600 320.0000 1.0000
66.6700 327.0000 1.0000
66.6800 356.0000 1.0000
66.6900 317.0000 1.0000
66.7000 356.0000 1.0000
66.7100 337.0000 1.0000
66.7200 330.0000 1.0000
66.7300 323.0000 1.0000
66.7400 338.0000 1.0000
66.7500 337.0000 1.0000
66.7600 307.0000 1.0000
66.7700 331.0000 1.0000
66.7800 351.0000 1.0000
66.7900 315.0000 1.0000
66.8000 330.0000 1.0000
66.8100 316.0000 1.0000
66.8200 307.0000 1.0000
66.8300 303.0000 1.0000
66.8400 350.0000 1.0000
66.8500 329.0000 1.0000
66.8600 328.0000 1.0000
66.8700 298.0000 1.0000
66.8800 337.0000 1.0000
66.8900 344.0000 1.0000
66.9000 336.0000 1.0000
66.9100 346.0000 1.0000
66.9200 328.0000 1.0000
66.9300 306.0000 1.0000
66.9400 344.0000 1.0000
66.9500 348.0000 1.0000
66.9600 329.0000 1.0000
66.9700 310.0000 1.0000
66.9800 306.0000 1.0000
66.9900 312.0000 1.0000
67.0000 365.0000 1.0000
67.0100 333.0000 1.0000
67.0200 318.0000 1.0000
67.0300 353.0000 1.0000
67.0400 353.0000 1.0000
67.0500 357.0000 1.0000
67.0600 346.0000 1.0000
67.0700 339.0000 1.0000
67.0800 327.0000 1.0000
67.0900 307.0000 1.0000
67.1000 367.0000 1.0000
67.1100 354.0000 1.0000
67.1200 304.0000 1.0000
67.1300 307.0000 1.0000
67.1400 311.0000 1.0000
67.1500 314.0000 1.0000
67.1600 333.0000 1.0000
67.1700 358.0000 1.0000
67.1800 306.0000 1.0000
67.1900 310.0000 1.0000
67.2000 310.0000 1.0000
67.2100 316.0000 1.0000
67.2200 327.0000 1.0000
67.2300 315.0000 1.0000
67.2400 322.0000 1.0000
67.2500 309.0000 1.0000
67.2600 314.0000 1.0000
67.2700 296.0000 1.0000
67.2800 314.0000 1.0000
67.2900 362.0000 1.0000
67.3000 345.0000 1.0000
67.3100 337.0000 1.0000
67.3200 309.0000 1.0000
67.3300 343.0000 1.0000
67.3400 342.0000 1.0000
67.3500 354.0000 1.0000
67.3600 308.0000 1.0000
67.3700 308.0000 1.0000
67.3800 337.0000 1.0000
67.3900 344.0000 1.0000
67.4000 370.0000 1.0000
67.4100 346.0000 1.0000
67.4200 342.0000 1.0000
67.4300 311.0000 1.0000
67.4400 327.0000 1.0000
67.4500 311.0000 1.0000
67.4600 328.0000 1.0000
67.4700 322.0000 1.0000
67.4800 336.0000 1.0000
67.4900 291.0000 1.0000
67.5000 305.0000 1.0000
67.5100 332.0000 1.0000
67.5200 308.0000 1.0000
67.5300 315.0000 1.0000
67.5400 326.0000 1.0000
67.5500 298.0000 1.0000
67.5600 324.0000 1.0000
67.5700 346.0000 1.0000
67.5800 340.0000 1.0000
67.5900 305.0000 1.0000
67.6000 303.0000 1.0000
67.6100 317.0000 1.0000
67.6200 298.0000 1.0000
67.6300 350.0000 1.0000
67.6400 356.0000 1.0000
67.6500 310.0000 1.0000
67.6600 333.0000 1.0000
67.6700 314.0000 1.0000
67.6800 328.0000 1.0000
67.6900 305.0000 1.0000
67.7000 320.0000 1.0000
67.7100 296.0000 1.0000
67.7200 321.0000 1.0000
67.7300 309.0000 1.0000
67.7400 349.0000 1.0000
67.7500 329.0000 1.0000
67.7600 324.0000 1.0000
67.7700 330.0000 1.0000
67.7800 306.0000 1.0000
67.7900 333.0000 1.0000
67.8000 319.0000 1.0000
67.8100 323.0000 1.0000
67.8200 296.0000 1.0000
67.8300 319.0000 1.0000
67.8400 324.0000 1.0000
67.8500 342.0000 1.0000
67.8600 295.0000 1.0000
67.8700 294.0000 1.0000
67.8800 311.0000 1.0000
67.8900 279.0000 1.0000
67.9000 340.0000 1.0000
67.9100 319.0000 1.0000
67.9200 340.0000 1.0000
67.9300 315.0000 1.0000
67.9400 298.0000 1.0000
67.9500 319.0000 1.0000
67.9600 341.0000 1.0000
67.9700 322.0000 1.0000
67.9800 315.0000 1.0000
67.9900 313.0000 1.0000
68.0000 330.0000 1.0000
68.0100 299.0000 1.0000
68.0200 317.0000 1.0000
68.0300 325.0000 1.0000
68.0400 327.0000 1.0000
68.0500 305.0000 1.0000
68.0600 304.0000 1.0000
68.0700 322.0000 1.0000
68.0800 330.0000 1.0000
68.0900 340.0000 1.0000
68.1000 324.0000 1.0000
68.1100 337.0000 1.0000
68.1200 357.0000 1.0000
68.1300 313.0000 1.0000
68.1400 319.0000 1.0000
68.1500 302.0000 1.0000
68.1600 346.0000 1.0000
68.1700 334.0000 1.0000
68.1800 296.0000 1.0000
68.1900 310.0000 1.0000
68.2000 320.0000 1.0000
68.2100 318.0000 1.0000
68.2200 351.0000 1.0000
68.2300 335.0000 1.0000
68.2400 330.0000 1.0000
68.2500 302.0000 1.0000
68.2600 323.0000 1.0000
68.2700 329.0000 1.0000
68.2800 329.0000 1.0000
68.2900 316.0000 1.0000
68.3000 330.0000 1.0000
68.3100 291.0000 1.0000
68.3200 317.0000 1.0000
68.3300 312.0000 1.0000
68.3400 294.0000 1.0000
68.3500 305.0000 1.0000
68.3600 300.0000 1.0000
68.3700 310.0000 1.0000
68.3800 324.0000 1.0000
68.3900 306.0000 1.0000
68.4000 314.0000 1.0000
68.4100 311.0000 1.0000
68.4200 343.0000 1.0000
68.4300 315.0000 1.0000
68.4400 334.0000 1.0000
68.4500 331.0000 1.0000
68.4600 315.0000 1.0000
68.4700 346.0000 1.0000
68.4800 308.0000 1.0000
68.4900 318.0000 1.0000
68.5000 328.0000 1.0000
68.5100 343.0000 1.0000
68.5200 330.0000 1.0000
68.5300 307.0000 1.0000
68.5400 320.0000 1.0000
68.5500 326.0000 1.0000
68.5600 323.0000 1.0000
68.5700 295.0000 1.0000
68.5800 310.0000 1.0000
68.5900 319.0000 1.0000
68.6000 305.0000 1.0000
68.6100 327.0000 1.0000
68.6200 317.0000 1.0000
68.6300 303.0000 1.0000
68.6400 331.0000 1.0000
68.6500 323.0000 1.0000
68.6600 315.0000 1.0000
68.6700 299.0000 1.0000
68.6800 312.0000 1.0000
68.6900 319.0000 1.0000
68.7000 317.0000 1.0000
68.7100 316.0000 1.0000
68.7200 280.0000 1.0000
68.7300 294.0000 1.0000
68.7400 306.0000 1.0000
68.7500 321.0000 1.0000
68.7600 305.0000 1.0000
68.7700 309.0000 1.0000
68.7800 321.0000 1.0000
68.7900 292.0000 1.0000
68.8000 297.0000 1.0000
68.8100 298.0000 1.0000
68.8200 318.0000 1.0000
68.8300 306.0000 1.0000
68.8400 304.0000 1.0000
68.8500 311.0000 1.0000
68.8600 328.0000 1.0000
68.8700 309.0000 1.0000
68.8800 298.0000 1.0000
68.8900 313.0000 1.0000
68.9000 313.0000 1.0000
68.9100 290.0000 1.0000
68.9200 301.0000 1.0000
68.9300 328.0000 1.0000
68.9400 349.0000 1.0000
68.9500 340.0000 1.0000
68.9600 321.0000 1.0000
68.9700 317.0000 1.0000
68.9800 329.0000 1.0000
68.9900 294.0000 1.0000
69.0000 311.0000 1.0000
69.0100 325.0000 1.0000
69.0200 320.0000 1.0000
69.0300 336.0000 1.0000
69.0400 323.0000 1.0000
69.0500 313.0000 1.0000
69.0600 298.0000 1.0000
69.0700 284.0000 1.0000
69.0800 300.0000 1.0000
69.0900 306.0000 1.0000
69.1000 299.0000 1.0000
69.1100 309.0000 1.0000
69.1200 314.0000 1.0000
69.1300 278.0000 1.0000
69.1400 284.0000 1.0000
69.1500 297.0000 1.0000
69.1600 334.0000 1.0000
69.1700 290.0000 1.0000
69.1800 306.0000 1.0000
69.1900 332.0000 1.0000
69.2000 294.0000 1.0000
69.2100 330.0000 1.0000
69.2200 314.0000 1.0000
69.2300 315.0000 1.0000
69.2400 304.0000 1.0000
69.2500 303.0000 1.0000
69.2600 320.0000 1.0000
69.2700 292.0000 1.0000
69.2800 314.0000 1.0000
69.2900 328.0000 1.0000
69.3000 309.0000 1.0000
69.3100 297.0000 1.0000
69.3200 300.0000 1.0000
69.3300 305.0000 1.0000
69.3400 292.0000 1.0000
69.3500 320.0000 1.0000
69.3600 302.0000 1.0000
69.3700 312.0000 1.0000
69.3800 290.0000 1.0000
69.3900 296.0000 1.0000
69.4000 309.0000 1.0000
69.4100 297.0000 1.0000
69.4200 301.0000 1.0000
69.4300 299.0000 1.0000
69.4400 304.0000 1.0000
69.4500 303.0000 1.0000
69.4600 296.0000 1.0000
69.4700 312.0000 1.0000
69.4800 325.0000 1.0000
69.4900 312.0000 1.0000
69.5000 314.0000 1.0000
69.5100 297.0000 1.0000
69.5200 289.0000 1.0000
69.5300 298.0000 1.0000
69.5400 319.0000 1.0000
69.5500 294.0000 1.0000
69.5600 308.0000 1.0000
69.5700 302.0000 1.0000
69.5800 290.0000 1.0000
69.5900 306.0000 1.0000
69.6000 316.0000 1.0000
69.6100 278.0000 1.0000
69.6200 284.0000 1.0000
69.6300 315.0000 1.0000
69.6400 295.0000 1.0000
69.6500 313.0000 1.0000
69.6600 300.0000 1.0000
69.6700 270.0000 1.0000
69.6800 300.0000 1.0000
69.6900 320.0000 1.0000
69.7000 304.0000 1.0000
69.7100 301.0000 1.0000
69.7200 306.0000 1.0000
69.7300 336.0000 1.0000
69.7400 318.0000 1.0000
69.7500 299.0000 1.0000
69.7600 322.0000 1.0000
69.7700 313.0000 1.0000
69.7800 303.0000 1.0000
69.7900 297.0000 1.0000
69.8000 337.0000 1.0000
69.8100 339.0000 1.0000
69.8200 307.0000 1.0000
69.8300 303.0000 1.0000
69.8400 308.0000 1.0000
69.8500 300.0000 1.0000
69.8600 304.0000 1.0000
69.8700 299.0000 1.0000
69.8800 305.0000 1.0000
69.8900 316.0000 1.0000
69.9000 315.0000 1.0000
69.9100 286.0000 1.0000
69.9200 287.0000 1.0000
69.9300 314.0000 1.0000
69.9400 309.0000 1.0000
69.9500 294.0000 1.0000
69.9600 315.0000 1.0000
69.9700 323.0000 1.0000
69.9800 316.0000 1.0000
69.9900 296.0000 1.0000
70.0000 304.0000 1.0000
*RAS_INT_END
*RAS_TEMPERATURE_START
*RAS_TEMPERATURE_END
*RAS_DATA_END
