*RAS_DATA_START
*RAS_HEADER_START
*DISP_FMT_X "%.2f"
*DISP_FMT_Y "%.0f"
*DISP_FULLSCALE "13290.0000000000"
*DISP_LINE_COLOR "255.0000000000"
*DISP_LINE_STYLE "0.0000000000"
*DISP_LINE_WIDTH "0.2500000000"
*DISP_NOTE "測定データ-5"
*DISP_OFFSET_Y "0.0000000000"
*DISP_PEAKSEARCH_UNIT_Y "cps"
*DISP_RANGE_BOTTOM "0.0000000000"
*DISP_RANGE_LEFT "20.0000000000"
*DISP_RANGE_LOGCUTOFF "0.0100000000"
*DISP_RANGE_RIGHT "70.0000000000"
*DISP_RANGE_TOP "13290.0000000000"
*DISP_SCALE_MODE_Y "0.0000000000"
*DISP_TAB_NAME "2θ/θ"
*DISP_TITLE_Y "強度"
*DISP_UNIT_Y "cps"
*DISP_WINDOW_NAME "MSG_MACROENGINE"
*FILE_COMMENT " "
*FILE_MD5 ""
*FILE_MEMO " "
*FILE_OPERATOR "Administrator"
*FILE_SAMPLE " "
*FILE_TYPE "RAS_RAW"
*FILE_USERGROUP "システムマネージャ"
*FILE_VERSION "1.0000000000"
*HW_ATTACHMENT_ID "ATT0025"
*HW_ATTACHMENT_NAME "標準|Standard"
*HW_COUNTER_ID-0 "CUT0025"
*HW_COUNTER_ID-1 "CUT0020"
*HW_COUNTER_ID-2 "CUT0020"
*HW_COUNTER_ID-3 "CSL0021"
*HW_COUNTER_ID-4 "CMC0021"
*HW_COUNTER_NAME-0 "D/teX Ultra|D/teX Ultra"
*HW_COUNTER_NAME-1 "None|None"
*HW_COUNTER_NAME-2 "None|None"
*HW_COUNTER_NAME-3 "BBM|BBM"
*HW_COUNTER_NAME-4 "検出器モノクロメータ|Detector monochromator"
*HW_COUNTER_SELECT_NAME "D/teX Ultra|D/teX Ultra"
*HW_GONIOMETER_ID "GON0023"
*HW_GONIOMETER_NAME "SmartLab|SmartLab"
*HW_GONIOMETER_RADIUS-0 "90.0"
*HW_GONIOMETER_RADIUS-1 "114.0"
*HW_GONIOMETER_RADIUS-2 "190.0"
*HW_GONIOMETER_RADIUS-3 "300.0"
*HW_GONIOMETER_RADIUS-4 "187.0"
*HW_GONIOMETER_RADIUS-5 "300.0"
*HW_GONIOMETER_RADIUS-6 "113.0"
*HW_GONIOMETER_RADIUS-7 "331.0"
*HW_I_OPT_ID-0 "CBO0021"
*HW_I_OPT_ID-1 "ICR0023"
*HW_I_OPT_ID-2 "ISL0021"
*HW_I_OPT_ID-3 "ISO0021"
*HW_I_OPT_ID-4 "IAD0021"
*HW_I_OPT_ID-5 "IPR0001"
*HW_I_OPT_NAME-0 "CBOユニット|CBO unit"
*HW_I_OPT_NAME-1 "標準入射光学ユニット|Standard incident optical unit"
*HW_I_OPT_NAME-2 "標準入射スリットボックス|Standard incident slit box"
*HW_I_OPT_NAME-3 "入射平行スリット|Incident parallel slit"
*HW_I_OPT_NAME-4 "長手制限スリット|Length limiting slit"
*HW_I_OPT_NAME-5 "None|None"
*HW_R_ATTENUATER_AUTOMODE "0"
*HW_R_OPT_ID-0 "RSS0021"
*HW_R_OPT_ID-1 "RCR0023"
*HW_R_OPT_ID-2 "RSO0021"
*HW_R_OPT_ID-3 "RRS0021"
*HW_R_OPT_ID-4 "ATN0021"
*HW_R_OPT_ID-5 "RFL0021"
*HW_R_OPT_ID-6 "RAD0021"
*HW_R_OPT_NAME-0 "標準受光スリットボックス1|Standard receiving slit box # 1"
*HW_R_OPT_NAME-1 "標準受光光学ユニット1|Standard receiving unit # 1"
*HW_R_OPT_NAME-2 "標準受光光学ユニット2|Standard receiving optical unit # 2"
*HW_R_OPT_NAME-3 "標準受光スリットボックス2|Standard receiving slit box # 2"
*HW_R_OPT_NAME-4 "標準アッテネータ|Standard Attenuator"
*HW_R_OPT_NAME-5 "Cu Kβ|Cu K-beta"
*HW_R_OPT_NAME-6 "調整用受光スリット|Alignment receiving slit"
*HW_SAMPLE_HOLDER_ID "SMP0023"
*HW_SAMPLE_HOLDER_NAME "標準Zステージ|Standard Z stage"
*HW_XG_CURRENT_MAX "50"
*HW_XG_CURRENT_MIN "2"
*HW_XG_CURRENT_RESOLUTION "1"
*HW_XG_CURRENT_UNIT "mA"
*HW_XG_FOCUS "1mm x 10mm"
*HW_XG_FOCUS_TYPE "Normal"
*HW_XG_ID ""
*HW_XG_NAME "3kW 封入管(ID:1200)|3kW Sealed tube(ID:1200)"
*HW_XG_TARGET_ATOMIC_NUMBER "29.0000000000"
*HW_XG_TARGET_NAME "Cu"
*HW_XG_TYPE "Hermetic"
*HW_XG_VOLTAGE_MAX "60"
*HW_XG_VOLTAGE_MIN "20"
*HW_XG_VOLTAGE_RESOLUTION "1"
*HW_XG_VOLTAGE_UNIT "kV"
*HW_XG_WATT_MAX "1.500"
*HW_XG_WATT_UNIT "kW"
*HW_XG_WAVE_LENGTH_ALPHA1 "1.540593"
*HW_XG_WAVE_LENGTH_ALPHA2 "1.544414"
*HW_XG_WAVE_LENGTH_BETA "1.392250"
*MEAS_COND_AXIS_NAME-0 "2θ/θ"
*MEAS_COND_AXIS_NAME-1 "2θ"
*MEAS_COND_AXIS_NAME-2 "ω"
*MEAS_COND_AXIS_NAME-3 "Z"
*MEAS_COND_AXIS_NAME-4 "2θ/ω"
*MEAS_COND_AXIS_NAME-5 "θs"
*MEAS_COND_AXIS_NAME-6 "θd"
*MEAS_COND_AXIS_NAME-7 "Ts"
*MEAS_COND_AXIS_NAME-8 "CBO選択スリット"
*MEAS_COND_AXIS_NAME-9 "M"
*MEAS_COND_AXIS_NAME-10 "入射平行スリット"
*MEAS_COND_AXIS_NAME-11 "入射スリット"
*MEAS_COND_AXIS_NAME-12 ""
*MEAS_COND_AXIS_NAME-13 "Zs"
*MEAS_COND_AXIS_NAME-14 "入射光学素子"
*MEAS_COND_AXIS_NAME-15 "長手制限スリット"
*MEAS_COND_AXIS_NAME-16 "センタースリット"
*MEAS_COND_AXIS_NAME-17 "フィルター"
*MEAS_COND_AXIS_NAME-18 "受光スリット1"
*MEAS_COND_AXIS_NAME-19 "受光スリット2"
*MEAS_COND_AXIS_NAME-20 "受光光学素子"
*MEAS_COND_AXIS_NAME-21 "受光平行スリット"
*MEAS_COND_AXIS_NAME-22 "調整用受光スリット"
*MEAS_COND_AXIS_NAME-23 ""
*MEAS_COND_AXIS_NAME-24 ""
*MEAS_COND_AXIS_NAME-25 "Zd"
*MEAS_COND_AXIS_NAME-26 "アッテネータ"
*MEAS_COND_AXIS_NAME-27 "検出器モノクロメータ"
*MEAS_COND_AXIS_NAME-28 "モノクロメータスリット"
*MEAS_COND_AXIS_NAME-29 "プライマリビーム"
*MEAS_COND_AXIS_NAME-30 "PHA"
*MEAS_COND_AXIS_NAME_INTERNAL-0 "TwoThetaTheta"
*MEAS_COND_AXIS_NAME_INTERNAL-1 "TwoTheta"
*MEAS_COND_AXIS_NAME_INTERNAL-2 "Omega"
*MEAS_COND_AXIS_NAME_INTERNAL-3 "Z"
*MEAS_COND_AXIS_NAME_INTERNAL-4 "TwoThetaOmega"
*MEAS_COND_AXIS_NAME_INTERNAL-5 "ThetaS"
*MEAS_COND_AXIS_NAME_INTERNAL-6 "ThetaD"
*MEAS_COND_AXIS_NAME_INTERNAL-7 "Ts"
*MEAS_COND_AXIS_NAME_INTERNAL-8 "CBO"
*MEAS_COND_AXIS_NAME_INTERNAL-9 "CBO-M"
*MEAS_COND_AXIS_NAME_INTERNAL-10 "IncidentSollerSlit"
*MEAS_COND_AXIS_NAME_INTERNAL-11 "IncidentSlitBox"
*MEAS_COND_AXIS_NAME_INTERNAL-12 "IncidentSlitBox-_Axis"
*MEAS_COND_AXIS_NAME_INTERNAL-13 "Zs"
*MEAS_COND_AXIS_NAME_INTERNAL-14 "IncidentMonochromator"
*MEAS_COND_AXIS_NAME_INTERNAL-15 "IncidentAxdSlit"
*MEAS_COND_AXIS_NAME_INTERNAL-16 "CenterSlit"
*MEAS_COND_AXIS_NAME_INTERNAL-17 "Filter"
*MEAS_COND_AXIS_NAME_INTERNAL-18 "ReceivingSlitBox1"
*MEAS_COND_AXIS_NAME_INTERNAL-19 "ReceivingSlitBox2"
*MEAS_COND_AXIS_NAME_INTERNAL-20 "ReceivingOptics"
*MEAS_COND_AXIS_NAME_INTERNAL-21 "ReceivingSollerSlit"
*MEAS_COND_AXIS_NAME_INTERNAL-22 "ReceivingAxdSlit"
*MEAS_COND_AXIS_NAME_INTERNAL-23 "ReceivingSlitBox1-_Axis"
*MEAS_COND_AXIS_NAME_INTERNAL-24 "ReceivingSlitBox2-_Axis"
*MEAS_COND_AXIS_NAME_INTERNAL-25 "ReceivingSlitBox2-Zd"
*MEAS_COND_AXIS_NAME_INTERNAL-26 "Attenuator"
*MEAS_COND_AXIS_NAME_INTERNAL-27 "CounterMonochromator"
*MEAS_COND_AXIS_NAME_INTERNAL-28 "CounterSlit"
*MEAS_COND_AXIS_NAME_INTERNAL-29 "IncidentPrimary"
*MEAS_COND_AXIS_NAME_INTERNAL-30 "PHA"
*MEAS_COND_AXIS_NAME_MAGICNO-0 "83951616.0000000000"
*MEAS_COND_AXIS_NAME_MAGICNO-1 "268632064.0000000000"
*MEAS_COND_AXIS_NAME_MAGICNO-2 "268500992.0000000000"
*MEAS_COND_AXIS_NAME_MAGICNO-3 "285278208.0000000000"
*MEAS_COND_AXIS_NAME_MAGICNO-4 "83951616.0000000000"
*MEAS_COND_AXIS_NAME_MAGICNO-5 "131072.0000000000"
*MEAS_COND_AXIS_NAME_MAGICNO-6 "131072.0000000000"
*MEAS_COND_AXIS_NAME_MAGICNO-7 "318898176.0000000000"
*MEAS_COND_AXIS_NAME_MAGICNO-8 "20971521.0000000000"
*MEAS_COND_AXIS_NAME_MAGICNO-9 "285343744.0000000000"
*MEAS_COND_AXIS_NAME_MAGICNO-10 "20971521.0000000000"
*MEAS_COND_AXIS_NAME_MAGICNO-11 "22020097.0000000000"
*MEAS_COND_AXIS_NAME_MAGICNO-12 "25165824.0000000000"
*MEAS_COND_AXIS_NAME_MAGICNO-13 "318898176.0000000000"
*MEAS_COND_AXIS_NAME_MAGICNO-14 "1.0000000000"
*MEAS_COND_AXIS_NAME_MAGICNO-15 "20971521.0000000000"
*MEAS_COND_AXIS_NAME_MAGICNO-16 "20971521.0000000000"
*MEAS_COND_AXIS_NAME_MAGICNO-17 "20971521.0000000000"
*MEAS_COND_AXIS_NAME_MAGICNO-18 "23068673.0000000000"
*MEAS_COND_AXIS_NAME_MAGICNO-19 "23068673.0000000000"
*MEAS_COND_AXIS_NAME_MAGICNO-20 "20971521.0000000000"
*MEAS_COND_AXIS_NAME_MAGICNO-21 "20971521.0000000000"
*MEAS_COND_AXIS_NAME_MAGICNO-22 "20971521.0000000000"
*MEAS_COND_AXIS_NAME_MAGICNO-23 "25165824.0000000000"
*MEAS_COND_AXIS_NAME_MAGICNO-24 "25165824.0000000000"
*MEAS_COND_AXIS_NAME_MAGICNO-25 "285343744.0000000000"
*MEAS_COND_AXIS_NAME_MAGICNO-26 "17301505.0000000000"
*MEAS_COND_AXIS_NAME_MAGICNO-27 "20971521.0000000000"
*MEAS_COND_AXIS_NAME_MAGICNO-28 "20971521.0000000000"
*MEAS_COND_AXIS_NAME_MAGICNO-29 "20971521.0000000000"
*MEAS_COND_AXIS_NAME_MAGICNO-30 "0.0000000000"
*MEAS_COND_AXIS_OFFSET-0 "-"
*MEAS_COND_AXIS_OFFSET-1 "-0.1081000000"
*MEAS_COND_AXIS_OFFSET-2 "0.3758000000"
*MEAS_COND_AXIS_OFFSET-3 "-"
*MEAS_COND_AXIS_OFFSET-4 "-"
*MEAS_COND_AXIS_OFFSET-5 "0.3758000000"
*MEAS_COND_AXIS_OFFSET-6 "-0.4839000000"
*MEAS_COND_AXIS_OFFSET-7 "-"
*MEAS_COND_AXIS_OFFSET-8 "-"
*MEAS_COND_AXIS_OFFSET-9 "-"
*MEAS_COND_AXIS_OFFSET-10 "-"
*MEAS_COND_AXIS_OFFSET-11 "-"
*MEAS_COND_AXIS_OFFSET-12 "-"
*MEAS_COND_AXIS_OFFSET-13 "-"
*MEAS_COND_AXIS_OFFSET-14 "-"
*MEAS_COND_AXIS_OFFSET-15 "-"
*MEAS_COND_AXIS_OFFSET-16 "-"
*MEAS_COND_AXIS_OFFSET-17 "-"
*MEAS_COND_AXIS_OFFSET-18 "-"
*MEAS_COND_AXIS_OFFSET-19 "-"
*MEAS_COND_AXIS_OFFSET-20 "-"
*MEAS_COND_AXIS_OFFSET-21 "-"
*MEAS_COND_AXIS_OFFSET-22 "-"
*MEAS_COND_AXIS_OFFSET-23 "-"
*MEAS_COND_AXIS_OFFSET-24 "-"
*MEAS_COND_AXIS_OFFSET-25 "-"
*MEAS_COND_AXIS_OFFSET-26 "-"
*MEAS_COND_AXIS_OFFSET-27 "-"
*MEAS_COND_AXIS_OFFSET-28 "-"
*MEAS_COND_AXIS_OFFSET-29 "-"
*MEAS_COND_AXIS_OFFSET-30 "-"
*MEAS_COND_AXIS_POSITION-0 "0.0000000000"
*MEAS_COND_AXIS_POSITION-1 "0.0000000000"
*MEAS_COND_AXIS_POSITION-2 "0.0000000000"
*MEAS_COND_AXIS_POSITION-3 "-0.5500000000"
*MEAS_COND_AXIS_POSITION-4 "0.0000000000"
*MEAS_COND_AXIS_POSITION-5 "0.0000000000"
*MEAS_COND_AXIS_POSITION-6 "0.0000000000"
*MEAS_COND_AXIS_POSITION-7 "-0.4278800000"
*MEAS_COND_AXIS_POSITION-8 "BB"
*MEAS_COND_AXIS_POSITION-9 "0.0000000000"
*MEAS_COND_AXIS_POSITION-10 "Soller_slit_5.0deg"
*MEAS_COND_AXIS_POSITION-11 "2/3deg"
*MEAS_COND_AXIS_POSITION-12 "2.2088000000"
*MEAS_COND_AXIS_POSITION-13 "-0.4140600000"
*MEAS_COND_AXIS_POSITION-14 "0.0000000000"
*MEAS_COND_AXIS_POSITION-15 "10.0mm"
*MEAS_COND_AXIS_POSITION-16 "None"
*MEAS_COND_AXIS_POSITION-17 "Cu_K-beta"
*MEAS_COND_AXIS_POSITION-18 "13.000mm"
*MEAS_COND_AXIS_POSITION-19 "13.000mm"
*MEAS_COND_AXIS_POSITION-20 "No_unit"
*MEAS_COND_AXIS_POSITION-21 "Soller_slit_5.0deg"
*MEAS_COND_AXIS_POSITION-22 "None"
*MEAS_COND_AXIS_POSITION-23 "13.0000000000"
*MEAS_COND_AXIS_POSITION-24 "13.0000000000"
*MEAS_COND_AXIS_POSITION-25 "0.0109400000"
*MEAS_COND_AXIS_POSITION-26 "Open"
*MEAS_COND_AXIS_POSITION-27 "None"
*MEAS_COND_AXIS_POSITION-28 "None"
*MEAS_COND_AXIS_POSITION-29 "None"
*MEAS_COND_AXIS_POSITION-30 "38.0000000000"
*MEAS_COND_AXIS_UNIT-0 "deg"
*MEAS_COND_AXIS_UNIT-1 "deg"
*MEAS_COND_AXIS_UNIT-2 "deg"
*MEAS_COND_AXIS_UNIT-3 "mm"
*MEAS_COND_AXIS_UNIT-4 "deg"
*MEAS_COND_AXIS_UNIT-5 "deg"
*MEAS_COND_AXIS_UNIT-6 "deg"
*MEAS_COND_AXIS_UNIT-7 "mm"
*MEAS_COND_AXIS_UNIT-8 ""
*MEAS_COND_AXIS_UNIT-9 "pulse"
*MEAS_COND_AXIS_UNIT-10 ""
*MEAS_COND_AXIS_UNIT-11 ""
*MEAS_COND_AXIS_UNIT-12 "mm"
*MEAS_COND_AXIS_UNIT-13 "mm"
*MEAS_COND_AXIS_UNIT-14 ""
*MEAS_COND_AXIS_UNIT-15 ""
*MEAS_COND_AXIS_UNIT-16 ""
*MEAS_COND_AXIS_UNIT-17 ""
*MEAS_COND_AXIS_UNIT-18 ""
*MEAS_COND_AXIS_UNIT-19 ""
*MEAS_COND_AXIS_UNIT-20 ""
*MEAS_COND_AXIS_UNIT-21 ""
*MEAS_COND_AXIS_UNIT-22 ""
*MEAS_COND_AXIS_UNIT-23 "mm"
*MEAS_COND_AXIS_UNIT-24 "mm"
*MEAS_COND_AXIS_UNIT-25 "mm"
*MEAS_COND_AXIS_UNIT-26 ""
*MEAS_COND_AXIS_UNIT-27 ""
*MEAS_COND_AXIS_UNIT-28 ""
*MEAS_COND_AXIS_UNIT-29 ""
*MEAS_COND_AXIS_UNIT-30 "div"
*MEAS_COND_COUNTER_CNTLOSS_CORR "0.0000000000"
*MEAS_COND_COUNTER_PHABASE "38.0000000000"
*MEAS_COND_COUNTER_PHAWINDOW "16.0000000000"
*MEAS_COND_COUNTER_PHA_UNIT "div"
*MEAS_COND_COUNTER_TAUDIFF "30.0000000000"
*MEAS_COND_COUNTER_TAUINT "0.0000000000"
*MEAS_COND_IRRADIATION_MODE "OFF"
*MEAS_COND_IRRADIATION_WIDTH ""
*MEAS_COND_OPT_ATTR "集中法"
*MEAS_COND_OPT_NAME "@集中法"
*MEAS_COND_UNSYMMETRIC_MODE "OFF"
*MEAS_COND_XG_CURRENT "30.0000000000"
*MEAS_COND_XG_VOLTAGE "40.0000000000"
*MEAS_COND_XG_WAVE_TYPE "Ka"
*MEAS_DATA_COUNT "5001.0000000000"
*MEAS_SCAN_AXIS_X "2θ/θ"
*MEAS_SCAN_AXIS_X_INTERNAL "TwoThetaTheta"
*MEAS_SCAN_END_TIME "07/28/21 12:52:19"
*MEAS_SCAN_MODE "CONTINUOUS"
*MEAS_SCAN_MONITOR "0"
*MEAS_SCAN_RESOLUTION_X "0.0002"
*MEAS_SCAN_SPEED "2.5"
*MEAS_SCAN_SPEED_UNIT "deg/min"
*MEAS_SCAN_START "20.0000000000"
*MEAS_SCAN_START_TIME "07/28/21 12:30:54"
*MEAS_SCAN_STEP "0.0100000000"
*MEAS_SCAN_STOP "70.0000000000"
*MEAS_SCAN_UNIT_X "deg"
*MEAS_SCAN_UNIT_Y "counts"
*RAS_HEADER_END
*RAS_INT_START
20.0000 655.0000 1.0000
20.0100 640.0000 1.0000
20.0200 622.0000 1.0000
20.0300 619.0000 1.0000
20.0400 649.0000 1.0000
20.0500 646.0000 1.0000
20.0600 649.0000 1.0000
20.0700 650.0000 1.0000
20.0800 634.0000 1.0000
20.0900 656.0000 1.0000
20.1000 632.0000 1.0000
20.1100 604.0000 1.0000
20.1200 629.0000 1.0000
20.1300 643.0000 1.0000
20.1400 623.0000 1.0000
20.1500 646.0000 1.0000
20.1600 623.0000 1.0000
20.1700 600.0000 1.0000
20.1800 637.0000 1.0000
20.1900 643.0000 1.0000
20.2000 630.0000 1.0000
20.2100 624.0000 1.0000
20.2200 667.0000 1.0000
20.2300 660.0000 1.0000
20.2400 648.0000 1.0000
20.2500 610.0000 1.0000
20.2600 673.0000 1.0000
20.2700 630.0000 1.0000
20.2800 632.0000 1.0000
20.2900 675.0000 1.0000
20.3000 631.0000 1.0000
20.3100 642.0000 1.0000
20.3200 639.0000 1.0000
20.3300 617.0000 1.0000
20.3400 634.0000 1.0000
20.3500 600.0000 1.0000
20.3600 647.0000 1.0000
20.3700 642.0000 1.0000
20.3800 654.0000 1.0000
20.3900 637.0000 1.0000
20.4000 633.0000 1.0000
20.4100 634.0000 1.0000
20.4200 602.0000 1.0000
20.4300 603.0000 1.0000
20.4400 600.0000 1.0000
20.4500 660.0000 1.0000
20.4600 658.0000 1.0000
20.4700 663.0000 1.0000
20.4800 620.0000 1.0000
20.4900 622.0000 1.0000
20.5000 658.0000 1.0000
20.5100 639.0000 1.0000
20.5200 600.0000 1.0000
20.5300 612.0000 1.0000
20.5400 650.0000 1.0000
20.5500 633.0000 1.0000
20.5600 672.0000 1.0000
20.5700 662.0000 1.0000
20.5800 623.0000 1.0000
20.5900 604.0000 1.0000
20.6000 646.0000 1.0000
20.6100 627.0000 1.0000
20.6200 613.0000 1.0000
20.6300 628.0000 1.0000
20.6400 619.0000 1.0000
20.6500 631.0000 1.0000
20.6600 623.0000 1.0000
20.6700 649.0000 1.0000
20.6800 643.0000 1.0000
20.6900 610.0000 1.0000
20.7000 644.0000 1.0000
20.7100 628.0000 1.0000
20.7200 625.0000 1.0000
20.7300 657.0000 1.0000
20.7400 631.0000 1.0000
20.7500 615.0000 1.0000
20.7600 614.0000 1.0000
20.7700 659.0000 1.0000
20.7800 604.0000 1.0000
20.7900 607.0000 1.0000
20.8000 624.0000 1.0000
20.8100 626.0000 1.0000
20.8200 601.0000 1.0000
20.8300 631.0000 1.0000
20.8400 670.0000 1.0000
20.8500 668.0000 1.0000
20.8600 659.0000 1.0000
20.8700 632.0000 1.0000
20.8800 628.0000 1.0000
20.8900 651.0000 1.0000
20.9000 667.0000 1.0000
20.9100 612.0000 1.0000
20.9200 603.0000 1.0000
20.9300 674.0000 1.0000
20.9400 600.0000 1.0000
20.9500 641.0000 1.0000
20.9600 630.0000 1.0000
20.9700 613.0000 1.0000
20.9800 635.0000 1.0000
20.9900 621.0000 1.0000
21.0000 638.0000 1.0000
21.0100 652.0000 1.0000
21.0200 629.0000 1.0000
21.0300 607.0000 1.0000
21.0400 599.0000 1.0000
21.0500 653.0000 1.0000
21.0600 636.0000 1.0000
21.0700 610.0000 1.0000
21.0800 644.0000 1.0000
21.0900 665.0000 1.0000
21.1000 628.0000 1.0000
21.1100 670.0000 1.0000
21.1200 639.0000 1.0000
21.1300 629.0000 1.0000
21.1400 627.0000 1.0000
21.1500 591.0000 1.0000
21.1600 630.0000 1.0000
21.1700 698.0000 1.0000
21.1800 642.0000 1.0000
21.1900 626.0000 1.0000
21.2000 625.0000 1.0000
21.2100 644.0000 1.0000
21.2200 632.0000 1.0000
21.2300 648.0000 1.0000
21.2400 634.0000 1.0000
21.2500 641.0000 1.0000
21.2600 618.0000 1.0000
21.2700 668.0000 1.0000
21.2800 628.0000 1.0000
21.2900 610.0000 1.0000
21.3000 653.0000 1.0000
21.3100 639.0000 1.0000
21.3200 631.0000 1.0000
21.3300 625.0000 1.0000
21.3400 657.0000 1.0000
21.3500 644.0000 1.0000
21.3600 671.0000 1.0000
21.3700 620.0000 1.0000
21.3800 634.0000 1.0000
21.3900 614.0000 1.0000
21.4000 632.0000 1.0000
21.4100 625.0000 1.0000
21.4200 619.0000 1.0000
21.4300 626.0000 1.0000
21.4400 622.0000 1.0000
21.4500 636.0000 1.0000
21.4600 623.0000 1.0000
21.4700 605.0000 1.0000
21.4800 681.0000 1.0000
21.4900 672.0000 1.0000
21.5000 649.0000 1.0000
21.5100 684.0000 1.0000
21.5200 616.0000 1.0000
21.5300 648.0000 1.0000
21.5400 620.0000 1.0000
21.5500 623.0000 1.0000
21.5600 650.0000 1.0000
21.5700 644.0000 1.0000
21.5800 635.0000 1.0000
21.5900 680.0000 1.0000
21.6000 637.0000 1.0000
21.6100 648.0000 1.0000
21.6200 623.0000 1.0000
21.6300 656.0000 1.0000
21.6400 674.0000 1.0000
21.6500 657.0000 1.0000
21.6600 623.0000 1.0000
21.6700 642.0000 1.0000
21.6800 643.0000 1.0000
21.6900 686.0000 1.0000
21.7000 665.0000 1.0000
21.7100 629.0000 1.0000
21.7200 655.0000 1.0000
21.7300 628.0000 1.0000
21.7400 631.0000 1.0000
21.7500 643.0000 1.0000
21.7600 594.0000 1.0000
21.7700 641.0000 1.0000
21.7800 617.0000 1.0000
21.7900 633.0000 1.0000
21.8000 613.0000 1.0000
21.8100 655.0000 1.0000
21.8200 644.0000 1.0000
21.8300 615.0000 1.0000
21.8400 646.0000 1.0000
21.8500 635.0000 1.0000
21.8600 634.0000 1.0000
21.8700 629.0000 1.0000
21.8800 601.0000 1.0000
21.8900 612.0000 1.0000
21.9000 640.0000 1.0000
21.9100 657.0000 1.0000
21.9200 665.0000 1.0000
21.9300 646.0000 1.0000
21.9400 642.0000 1.0000
21.9500 636.0000 1.0000
21.9600 622.0000 1.0000
21.9700 658.0000 1.0000
21.9800 646.0000 1.0000
21.9900 690.0000 1.0000
22.0000 647.0000 1.0000
22.0100 648.0000 1.0000
22.0200 619.0000 1.0000
22.0300 631.0000 1.0000
22.0400 651.0000 1.0000
22.0500 611.0000 1.0000
22.0600 666.0000 1.0000
22.0700 635.0000 1.0000
22.0800 642.0000 1.0000
22.0900 617.0000 1.0000
22.1000 630.0000 1.0000
22.1100 597.0000 1.0000
22.1200 632.0000 1.0000
22.1300 656.0000 1.0000
22.1400 624.0000 1.0000
22.1500 619.0000 1.0000
22.1600 627.0000 1.0000
22.1700 613.0000 1.0000
22.1800 628.0000 1.0000
22.1900 680.0000 1.0000
22.2000 684.0000 1.0000
22.2100 622.0000 1.0000
22.2200 631.0000 1.0000
22.2300 676.0000 1.0000
22.2400 655.0000 1.0000
22.2500 647.0000 1.0000
22.2600 642.0000 1.0000
22.2700 640.0000 1.0000
22.2800 604.0000 1.0000
22.2900 679.0000 1.0000
22.3000 655.0000 1.0000
22.3100 610.0000 1.0000
22.3200 637.0000 1.0000
22.3300 689.0000 1.0000
22.3400 649.0000 1.0000
22.3500 618.0000 1.0000
22.3600 654.0000 1.0000
22.3700 668.0000 1.0000
22.3800 596.0000 1.0000
22.3900 638.0000 1.0000
22.4000 653.0000 1.0000
22.4100 635.0000 1.0000
22.4200 655.0000 1.0000
22.4300 672.0000 1.0000
22.4400 693.0000 1.0000
22.4500 684.0000 1.0000
22.4600 668.0000 1.0000
22.4700 652.0000 1.0000
22.4800 686.0000 1.0000
22.4900 642.0000 1.0000
22.5000 657.0000 1.0000
22.5100 688.0000 1.0000
22.5200 638.0000 1.0000
22.5300 619.0000 1.0000
22.5400 642.0000 1.0000
22.5500 648.0000 1.0000
22.5600 657.0000 1.0000
22.5700 652.0000 1.0000
22.5800 670.0000 1.0000
22.5900 601.0000 1.0000
22.6000 641.0000 1.0000
22.6100 655.0000 1.0000
22.6200 594.0000 1.0000
22.6300 611.0000 1.0000
22.6400 643.0000 1.0000
22.6500 668.0000 1.0000
22.6600 660.0000 1.0000
22.6700 653.0000 1.0000
22.6800 628.0000 1.0000
22.6900 649.0000 1.0000
22.7000 688.0000 1.0000
22.7100 643.0000 1.0000
22.7200 607.0000 1.0000
22.7300 652.0000 1.0000
22.7400 647.0000 1.0000
22.7500 630.0000 1.0000
22.7600 650.0000 1.0000
22.7700 631.0000 1.0000
22.7800 619.0000 1.0000
22.7900 670.0000 1.0000
22.8000 680.0000 1.0000
22.8100 611.0000 1.0000
22.8200 650.0000 1.0000
22.8300 640.0000 1.0000
22.8400 657.0000 1.0000
22.8500 655.0000 1.0000
22.8600 692.0000 1.0000
22.8700 607.0000 1.0000
22.8800 641.0000 1.0000
22.8900 650.0000 1.0000
22.9000 612.0000 1.0000
22.9100 664.0000 1.0000
22.9200 665.0000 1.0000
22.9300 648.0000 1.0000
22.9400 658.0000 1.0000
22.9500 592.0000 1.0000
22.9600 630.0000 1.0000
22.9700 643.0000 1.0000
22.9800 607.0000 1.0000
22.9900 666.0000 1.0000
23.0000 654.0000 1.0000
23.0100 632.0000 1.0000
23.0200 674.0000 1.0000
23.0300 693.0000 1.0000
23.0400 639.0000 1.0000
23.0500 664.0000 1.0000
23.0600 702.0000 1.0000
23.0700 665.0000 1.0000
23.0800 613.0000 1.0000
23.0900 655.0000 1.0000
23.1000 668.0000 1.0000
23.1100 676.0000 1.0000
23.1200 658.0000 1.0000
23.1300 628.0000 1.0000
23.1400 628.0000 1.0000
23.1500 626.0000 1.0000
23.1600 599.0000 1.0000
23.1700 602.0000 1.0000
23.1800 609.0000 1.0000
23.1900 633.0000 1.0000
23.2000 632.0000 1.0000
23.2100 635.0000 1.0000
23.2200 667.0000 1.0000
23.2300 655.0000 1.0000
23.2400 653.0000 1.0000
23.2500 657.0000 1.0000
23.2600 657.0000 1.0000
23.2700 653.0000 1.0000
23.2800 658.0000 1.0000
23.2900 630.0000 1.0000
23.3000 644.0000 1.0000
23.3100 658.0000 1.0000
23.3200 614.0000 1.0000
23.3300 633.0000 1.0000
23.3400 656.0000 1.0000
23.3500 650.0000 1.0000
23.3600 667.0000 1.0000
23.3700 625.0000 1.0000
23.3800 624.0000 1.0000
23.3900 671.0000 1.0000
23.4000 677.0000 1.0000
23.4100 638.0000 1.0000
23.4200 651.0000 1.0000
23.4300 684.0000 1.0000
23.4400 633.0000 1.0000
23.4500 679.0000 1.0000
23.4600 661.0000 1.0000
23.4700 650.0000 1.0000
23.4800 626.0000 1.0000
23.4900 613.0000 1.0000
23.5000 615.0000 1.0000
23.5100 680.0000 1.0000
23.5200 664.0000 1.0000
23.5300 652.0000 1.0000
23.5400 677.0000 1.0000
23.5500 634.0000 1.0000
23.5600 614.0000 1.0000
23.5700 671.0000 1.0000
23.5800 614.0000 1.0000
23.5900 679.0000 1.0000
23.6000 653.0000 1.0000
23.6100 656.0000 1.0000
23.6200 627.0000 1.0000
23.6300 642.0000 1.0000
23.6400 654.0000 1.0000
23.6500 630.0000 1.0000
23.6600 658.0000 1.0000
23.6700 656.0000 1.0000
23.6800 628.0000 1.0000
23.6900 680.0000 1.0000
23.7000 638.0000 1.0000
23.7100 653.0000 1.0000
23.7200 661.0000 1.0000
23.7300 675.0000 1.0000
23.7400 661.0000 1.0000
23.7500 650.0000 1.0000
23.7600 641.0000 1.0000
23.7700 653.0000 1.0000
23.7800 621.0000 1.0000
23.7900 641.0000 1.0000
23.8000 669.0000 1.0000
23.8100 654.0000 1.0000
23.8200 635.0000 1.0000
23.8300 623.0000 1.0000
23.8400 621.0000 1.0000
23.8500 598.0000 1.0000
23.8600 624.0000 1.0000
23.8700 675.0000 1.0000
23.8800 675.0000 1.0000
23.8900 622.0000 1.0000
23.9000 654.0000 1.0000
23.9100 626.0000 1.0000
23.9200 634.0000 1.0000
23.9300 618.0000 1.0000
23.9400 667.0000 1.0000
23.9500 624.0000 1.0000
23.9600 637.0000 1.0000
23.9700 644.0000 1.0000
23.9800 663.0000 1.0000
23.9900 645.0000 1.0000
24.0000 657.0000 1.0000
24.0100 606.0000 1.0000
24.0200 653.0000 1.0000
24.0300 658.0000 1.0000
24.0400 647.0000 1.0000
24.0500 648.0000 1.0000
24.0600 661.0000 1.0000
24.0700 620.0000 1.0000
24.0800 640.0000 1.0000
24.0900 639.0000 1.0000
24.1000 629.0000 1.0000
24.1100 651.0000 1.0000
24.1200 651.0000 1.0000
24.1300 653.0000 1.0000
24.1400 626.0000 1.0000
24.1500 667.0000 1.0000
24.1600 658.0000 1.0000
24.1700 694.0000 1.0000
24.1800 688.0000 1.0000
24.1900 663.0000 1.0000
24.2000 677.0000 1.0000
24.2100 602.0000 1.0000
24.2200 624.0000 1.0000
24.2300 650.0000 1.0000
24.2400 658.0000 1.0000
24.2500 688.0000 1.0000
24.2600 652.0000 1.0000
24.2700 618.0000 1.0000
24.2800 651.0000 1.0000
24.2900 661.0000 1.0000
24.3000 643.0000 1.0000
24.3100 647.0000 1.0000
24.3200 644.0000 1.0000
24.3300 646.0000 1.0000
24.3400 647.0000 1.0000
24.3500 669.0000 1.0000
24.3600 667.0000 1.0000
24.3700 661.0000 1.0000
24.3800 648.0000 1.0000
24.3900 693.0000 1.0000
24.4000 653.0000 1.0000
24.4100 644.0000 1.0000
24.4200 663.0000 1.0000
24.4300 659.0000 1.0000
24.4400 602.0000 1.0000
24.4500 657.0000 1.0000
24.4600 697.0000 1.0000
24.4700 644.0000 1.0000
24.4800 624.0000 1.0000
24.4900 657.0000 1.0000
24.5000 630.0000 1.0000
24.5100 650.0000 1.0000
24.5200 682.0000 1.0000
24.5300 634.0000 1.0000
24.5400 649.0000 1.0000
24.5500 623.0000 1.0000
24.5600 662.0000 1.0000
24.5700 632.0000 1.0000
24.5800 637.0000 1.0000
24.5900 633.0000 1.0000
24.6000 678.0000 1.0000
24.6100 704.0000 1.0000
24.6200 682.0000 1.0000
24.6300 671.0000 1.0000
24.6400 646.0000 1.0000
24.6500 660.0000 1.0000
24.6600 644.0000 1.0000
24.6700 662.0000 1.0000
24.6800 675.0000 1.0000
24.6900 683.0000 1.0000
24.7000 684.0000 1.0000
24.7100 673.0000 1.0000
24.7200 713.0000 1.0000
24.7300 650.0000 1.0000
24.7400 698.0000 1.0000
24.7500 690.0000 1.0000
24.7600 652.0000 1.0000
24.7700 668.0000 1.0000
24.7800 647.0000 1.0000
24.7900 672.0000 1.0000
24.8000 685.0000 1.0000
24.8100 644.0000 1.0000
24.8200 683.0000 1.0000
24.8300 692.0000 1.0000
24.8400 676.0000 1.0000
24.8500 729.0000 1.0000
24.8600 693.0000 1.0000
24.8700 689.0000 1.0000
24.8800 675.0000 1.0000
24.8900 691.0000 1.0000
24.9000 710.0000 1.0000
24.9100 664.0000 1.0000
24.9200 678.0000 1.0000
24.9300 722.0000 1.0000
24.9400 669.0000 1.0000
24.9500 656.0000 1.0000
24.9600 673.0000 1.0000
24.9700 695.0000 1.0000
24.9800 666.0000 1.0000
24.9900 685.0000 1.0000
25.0000 708.0000 1.0000
25.0100 672.0000 1.0000
25.0200 682.0000 1.0000
25.0300 716.0000 1.0000
25.0400 707.0000 1.0000
25.0500 651.0000 1.0000
25.0600 714.0000 1.0000
25.0700 744.0000 1.0000
25.0800 702.0000 1.0000
25.0900 716.0000 1.0000
25.1000 691.0000 1.0000
25.1100 656.0000 1.0000
25.1200 687.0000 1.0000
25.1300 718.0000 1.0000
25.1400 683.0000 1.0000
25.1500 713.0000 1.0000
25.1600 687.0000 1.0000
25.1700 675.0000 1.0000
25.1800 689.0000 1.0000
25.1900 693.0000 1.0000
25.2000 695.0000 1.0000
25.2100 702.0000 1.0000
25.2200 681.0000 1.0000
25.2300 668.0000 1.0000
25.2400 693.0000 1.0000
25.2500 681.0000 1.0000
25.2600 651.0000 1.0000
25.2700 703.0000 1.0000
25.2800 664.0000 1.0000
25.2900 664.0000 1.0000
25.3000 670.0000 1.0000
25.3100 701.0000 1.0000
25.3200 668.0000 1.0000
25.3300 626.0000 1.0000
25.3400 679.0000 1.0000
25.3500 683.0000 1.0000
25.3600 722.0000 1.0000
25.3700 711.0000 1.0000
25.3800 693.0000 1.0000
25.3900 685.0000 1.0000
25.4000 671.0000 1.0000
25.4100 691.0000 1.0000
25.4200 673.0000 1.0000
25.4300 662.0000 1.0000
25.4400 691.0000 1.0000
25.4500 670.0000 1.0000
25.4600 677.0000 1.0000
25.4700 690.0000 1.0000
25.4800 703.0000 1.0000
25.4900 695.0000 1.0000
25.5000 668.0000 1.0000
25.5100 655.0000 1.0000
25.5200 666.0000 1.0000
25.5300 677.0000 1.0000
25.5400 669.0000 1.0000
25.5500 687.0000 1.0000
25.5600 676.0000 1.0000
25.5700 664.0000 1.0000
25.5800 638.0000 1.0000
25.5900 646.0000 1.0000
25.6000 656.0000 1.0000
25.6100 676.0000 1.0000
25.6200 665.0000 1.0000
25.6300 659.0000 1.0000
25.6400 675.0000 1.0000
25.6500 645.0000 1.0000
25.6600 659.0000 1.0000
25.6700 688.0000 1.0000
25.6800 698.0000 1.0000
25.6900 693.0000 1.0000
25.7000 734.0000 1.0000
25.7100 712.0000 1.0000
25.7200 660.0000 1.0000
25.7300 654.0000 1.0000
25.7400 693.0000 1.0000
25.7500 656.0000 1.0000
25.7600 658.0000 1.0000
25.7700 665.0000 1.0000
25.7800 656.0000 1.0000
25.7900 668.0000 1.0000
25.8000 667.0000 1.0000
25.8100 682.0000 1.0000
25.8200 650.0000 1.0000
25.8300 712.0000 1.0000
25.8400 689.0000 1.0000
25.8500 649.0000 1.0000
25.8600 677.0000 1.0000
25.8700 708.0000 1.0000
25.8800 674.0000 1.0000
25.8900 669.0000 1.0000
25.9000 688.0000 1.0000
25.9100 676.0000 1.0000
25.9200 674.0000 1.0000
25.9300 705.0000 1.0000
25.9400 678.0000 1.0000
25.9500 652.0000 1.0000
25.9600 675.0000 1.0000
25.9700 677.0000 1.0000
25.9800 667.0000 1.0000
25.9900 683.0000 1.0000
26.0000 671.0000 1.0000
26.0100 640.0000 1.0000
26.0200 666.0000 1.0000
26.0300 649.0000 1.0000
26.0400 699.0000 1.0000
26.0500 682.0000 1.0000
26.0600 694.0000 1.0000
26.0700 629.0000 1.0000
26.0800 678.0000 1.0000
26.0900 704.0000 1.0000
26.1000 679.0000 1.0000
26.1100 658.0000 1.0000
26.1200 666.0000 1.0000
26.1300 682.0000 1.0000
26.1400 722.0000 1.0000
26.1500 674.0000 1.0000
26.1600 696.0000 1.0000
26.1700 629.0000 1.0000
26.1800 642.0000 1.0000
26.1900 654.0000 1.0000
26.2000 689.0000 1.0000
26.2100 722.0000 1.0000
26.2200 716.0000 1.0000
26.2300 683.0000 1.0000
26.2400 730.0000 1.0000
26.2500 629.0000 1.0000
26.2600 666.0000 1.0000
26.2700 646.0000 1.0000
26.2800 683.0000 1.0000
26.2900 697.0000 1.0000
26.3000 652.0000 1.0000
26.3100 685.0000 1.0000
26.3200 676.0000 1.0000
26.3300 673.0000 1.0000
26.3400 648.0000 1.0000
26.3500 653.0000 1.0000
26.3600 709.0000 1.0000
26.3700 710.0000 1.0000
26.3800 661.0000 1.0000
26.3900 743.0000 1.0000
26.4000 692.0000 1.0000
26.4100 678.0000 1.0000
26.4200 695.0000 1.0000
26.4300 735.0000 1.0000
26.4400 718.0000 1.0000
26.4500 724.0000 1.0000
26.4600 750.0000 1.0000
26.4700 702.0000 1.0000
26.4800 717.0000 1.0000
26.4900 690.0000 1.0000
26.5000 715.0000 1.0000
26.5100 704.0000 1.0000
26.5200 715.0000 1.0000
26.5300 711.0000 1.0000
26.5400 685.0000 1.0000
26.5500 669.0000 1.0000
26.5600 673.0000 1.0000
26.5700 744.0000 1.0000
26.5800 733.0000 1.0000
26.5900 731.0000 1.0000
26.6000 743.0000 1.0000
26.6100 719.0000 1.0000
26.6200 762.0000 1.0000
26.6300 698.0000 1.0000
26.6400 704.0000 1.0000
26.6500 779.0000 1.0000
26.6600 700.0000 1.0000
26.6700 732.0000 1.0000
26.6800 729.0000 1.0000
26.6900 700.0000 1.0000
26.7000 732.0000 1.0000
26.7100 689.0000 1.0000
26.7200 696.0000 1.0000
26.7300 697.0000 1.0000
26.7400 716.0000 1.0000
26.7500 724.0000 1.0000
26.7600 751.0000 1.0000
26.7700 727.0000 1.0000
26.7800 740.0000 1.0000
26.7900 736.0000 1.0000
26.8000 706.0000 1.0000
26.8100 761.0000 1.0000
26.8200 755.0000 1.0000
26.8300 755.0000 1.0000
26.8400 829.0000 1.0000
26.8500 805.0000 1.0000
26.8600 768.0000 1.0000
26.8700 740.0000 1.0000
26.8800 759.0000 1.0000
26.8900 724.0000 1.0000
26.9000 812.0000 1.0000
26.9100 765.0000 1.0000
26.9200 777.0000 1.0000
26.9300 812.0000 1.0000
26.9400 802.0000 1.0000
26.9500 829.0000 1.0000
26.9600 805.0000 1.0000
26.9700 854.0000 1.0000
26.9800 862.0000 1.0000
26.9900 896.0000 1.0000
27.0000 916.0000 1.0000
27.0100 875.0000 1.0000
27.0200 880.0000 1.0000
27.0300 934.0000 1.0000
27.0400 987.0000 1.0000
27.0500 963.0000 1.0000
27.0600 1018.0000 1.0000
27.0700 973.0000 1.0000
27.0800 1058.0000 1.0000
27.0900 1074.0000 1.0000
27.1000 1146.0000 1.0000
27.1100 1158.0000 1.0000
27.1200 1188.0000 1.0000
27.1300 1264.0000 1.0000
27.1400 1242.0000 1.0000
27.1500 1328.0000 1.0000
27.1600 1393.0000 1.0000
27.1700 1442.0000 1.0000
27.1800 1523.0000 1.0000
27.1900 1571.0000 1.0000
27.2000 1708.0000 1.0000
27.2100 1764.0000 1.0000
27.2200 1850.0000 1.0000
27.2300 2006.0000 1.0000
27.2400 2016.0000 1.0000
27.2500 2110.0000 1.0000
27.2600 2254.0000 1.0000
27.2700 2426.0000 1.0000
27.2800 2373.0000 1.0000
27.2900 2538.0000 1.0000
27.3000 2528.0000 1.0000
27.3100 2634.0000 1.0000
27.3200 2592.0000 1.0000
27.3300 2594.0000 1.0000
27.3400 2658.0000 1.0000
27.3500 2540.0000 1.0000
27.3600 2597.0000 1.0000
27.3700 2473.0000 1.0000
27.3800 2276.0000 1.0000
27.3900 2270.0000 1.0000
27.4000 2196.0000 1.0000
27.4100 2060.0000 1.0000
27.4200 1997.0000 1.0000
27.4300 1860.0000 1.0000
27.4400 1751.0000 1.0000
27.4500 1631.0000 1.0000
27.4600 1605.0000 1.0000
27.4700 1511.0000 1.0000
27.4800 1405.0000 1.0000
27.4900 1430.0000 1.0000
27.5000 1330.0000 1.0000
27.5100 1260.0000 1.0000
27.5200 1247.0000 1.0000
27.5300 1168.0000 1.0000
27.5400 1175.0000 1.0000
27.5500 1145.0000 1.0000
27.5600 1083.0000 1.0000
27.5700 1082.0000 1.0000
27.5800 1033.0000 1.0000
27.5900 1015.0000 1.0000
27.6000 915.0000 1.0000
27.6100 979.0000 1.0000
27.6200 938.0000 1.0000
27.6300 913.0000 1.0000
27.6400 885.0000 1.0000
27.6500 875.0000 1.0000
27.6600 852.0000 1.0000
27.6700 880.0000 1.0000
27.6800 853.0000 1.0000
27.6900 847.0000 1.0000
27.7000 865.0000 1.0000
27.7100 792.0000 1.0000
27.7200 816.0000 1.0000
27.7300 799.0000 1.0000
27.7400 787.0000 1.0000
27.7500 751.0000 1.0000
27.7600 801.0000 1.0000
27.7700 713.0000 1.0000
27.7800 757.0000 1.0000
27.7900 762.0000 1.0000
27.8000 745.0000 1.0000
27.8100 798.0000 1.0000
27.8200 738.0000 1.0000
27.8300 754.0000 1.0000
27.8400 753.0000 1.0000
27.8500 721.0000 1.0000
27.8600 767.0000 1.0000
27.8700 750.0000 1.0000
27.8800 750.0000 1.0000
27.8900 726.0000 1.0000
27.9000 731.0000 1.0000
27.9100 715.0000 1.0000
27.9200 723.0000 1.0000
27.9300 735.0000 1.0000
27.9400 733.0000 1.0000
27.9500 759.0000 1.0000
27.9600 701.0000 1.0000
27.9700 764.0000 1.0000
27.9800 759.0000 1.0000
27.9900 732.0000 1.0000
28.0000 722.0000 1.0000
28.0100 681.0000 1.0000
28.0200 682.0000 1.0000
28.0300 683.0000 1.0000
28.0400 689.0000 1.0000
28.0500 703.0000 1.0000
28.0600 677.0000 1.0000
28.0700 697.0000 1.0000
28.0800 673.0000 1.0000
28.0900 698.0000 1.0000
28.1000 683.0000 1.0000
28.1100 718.0000 1.0000
28.1200 721.0000 1.0000
28.1300 676.0000 1.0000
28.1400 691.0000 1.0000
28.1500 718.0000 1.0000
28.1600 672.0000 1.0000
28.1700 655.0000 1.0000
28.1800 659.0000 1.0000
28.1900 664.0000 1.0000
28.2000 671.0000 1.0000
28.2100 649.0000 1.0000
28.2200 670.0000 1.0000
28.2300 664.0000 1.0000
28.2400 665.0000 1.0000
28.2500 666.0000 1.0000
28.2600 677.0000 1.0000
28.2700 667.0000 1.0000
28.2800 673.0000 1.0000
28.2900 706.0000 1.0000
28.3000 672.0000 1.0000
28.3100 657.0000 1.0000
28.3200 672.0000 1.0000
28.3300 654.0000 1.0000
28.3400 681.0000 1.0000
28.3500 665.0000 1.0000
28.3600 670.0000 1.0000
28.3700 692.0000 1.0000
28.3800 651.0000 1.0000
28.3900 715.0000 1.0000
28.4000 685.0000 1.0000
28.4100 711.0000 1.0000
28.4200 653.0000 1.0000
28.4300 659.0000 1.0000
28.4400 649.0000 1.0000
28.4500 649.0000 1.0000
28.4600 645.0000 1.0000
28.4700 677.0000 1.0000
28.4800 674.0000 1.0000
28.4900 634.0000 1.0000
28.5000 647.0000 1.0000
28.5100 635.0000 1.0000
28.5200 659.0000 1.0000
28.5300 646.0000 1.0000
28.5400 686.0000 1.0000
28.5500 712.0000 1.0000
28.5600 699.0000 1.0000
28.5700 698.0000 1.0000
28.5800 665.0000 1.0000
28.5900 640.0000 1.0000
28.6000 672.0000 1.0000
28.6100 665.0000 1.0000
28.6200 640.0000 1.0000
28.6300 647.0000 1.0000
28.6400 675.0000 1.0000
28.6500 709.0000 1.0000
28.6600 616.0000 1.0000
28.6700 635.0000 1.0000
28.6800 620.0000 1.0000
28.6900 668.0000 1.0000
28.7000 634.0000 1.0000
28.7100 684.0000 1.0000
28.7200 657.0000 1.0000
28.7300 641.0000 1.0000
28.7400 641.0000 1.0000
28.7500 637.0000 1.0000
28.7600 668.0000 1.0000
28.7700 661.0000 1.0000
28.7800 642.0000 1.0000
28.7900 650.0000 1.0000
28.8000 649.0000 1.0000
28.8100 663.0000 1.0000
28.8200 649.0000 1.0000
28.8300 670.0000 1.0000
28.8400 663.0000 1.0000
28.8500 648.0000 1.0000
28.8600 658.0000 1.0000
28.8700 690.0000 1.0000
28.8800 684.0000 1.0000
28.8900 666.0000 1.0000
28.9000 642.0000 1.0000
28.9100 646.0000 1.0000
28.9200 675.0000 1.0000
28.9300 596.0000 1.0000
28.9400 660.0000 1.0000
28.9500 639.0000 1.0000
28.9600 672.0000 1.0000
28.9700 632.0000 1.0000
28.9800 620.0000 1.0000
28.9900 617.0000 1.0000
29.0000 626.0000 1.0000
29.0100 647.0000 1.0000
29.0200 640.0000 1.0000
29.0300 668.0000 1.0000
29.0400 584.0000 1.0000
29.0500 659.0000 1.0000
29.0600 659.0000 1.0000
29.0700 636.0000 1.0000
29.0800 631.0000 1.0000
29.0900 649.0000 1.0000
29.1000 695.0000 1.0000
29.1100 655.0000 1.0000
29.1200 629.0000 1.0000
29.1300 623.0000 1.0000
29.1400 655.0000 1.0000
29.1500 619.0000 1.0000
29.1600 646.0000 1.0000
29.1700 644.0000 1.0000
29.1800 624.0000 1.0000
29.1900 643.0000 1.0000
29.2000 655.0000 1.0000
29.2100 620.0000 1.0000
29.2200 645.0000 1.0000
29.2300 626.0000 1.0000
29.2400 640.0000 1.0000
29.2500 609.0000 1.0000
29.2600 622.0000 1.0000
29.2700 630.0000 1.0000
29.2800 645.0000 1.0000
29.2900 644.0000 1.0000
29.3000 618.0000 1.0000
29.3100 602.0000 1.0000
29.3200 673.0000 1.0000
29.3300 625.0000 1.0000
29.3400 623.0000 1.0000
29.3500 658.0000 1.0000
29.3600 639.0000 1.0000
29.3700 636.0000 1.0000
29.3800 648.0000 1.0000
29.3900 671.0000 1.0000
29.4000 688.0000 1.0000
29.4100 650.0000 1.0000
29.4200 640.0000 1.0000
29.4300 640.0000 1.0000
29.4400 641.0000 1.0000
29.4500 638.0000 1.0000
29.4600 618.0000 1.0000
29.4700 654.0000 1.0000
29.4800 618.0000 1.0000
29.4900 616.0000 1.0000
29.5000 596.0000 1.0000
29.5100 635.0000 1.0000
29.5200 624.0000 1.0000
29.5300 610.0000 1.0000
29.5400 606.0000 1.0000
29.5500 655.0000 1.0000
29.5600 604.0000 1.0000
29.5700 603.0000 1.0000
29.5800 637.0000 1.0000
29.5900 613.0000 1.0000
29.6000 624.0000 1.0000
29.6100 612.0000 1.0000
29.6200 589.0000 1.0000
29.6300 666.0000 1.0000
29.6400 634.0000 1.0000
29.6500 676.0000 1.0000
29.6600 659.0000 1.0000
29.6700 617.0000 1.0000
29.6800 612.0000 1.0000
29.6900 638.0000 1.0000
29.7000 633.0000 1.0000
29.7100 619.0000 1.0000
29.7200 602.0000 1.0000
29.7300 640.0000 1.0000
29.7400 605.0000 1.0000
29.7500 608.0000 1.0000
29.7600 662.0000 1.0000
29.7700 608.0000 1.0000
29.7800 626.0000 1.0000
29.7900 598.0000 1.0000
29.8000 647.0000 1.0000
29.8100 666.0000 1.0000
29.8200 613.0000 1.0000
29.8300 628.0000 1.0000
29.8400 611.0000 1.0000
29.8500 643.0000 1.0000
29.8600 613.0000 1.0000
29.8700 618.0000 1.0000
29.8800 657.0000 1.0000
29.8900 632.0000 1.0000
29.9000 631.0000 1.0000
29.9100 652.0000 1.0000
29.9200 634.0000 1.0000
29.9300 648.0000 1.0000
29.9400 632.0000 1.0000
29.9500 632.0000 1.0000
29.9600 651.0000 1.0000
29.9700 616.0000 1.0000
29.9800 637.0000 1.0000
29.9900 626.0000 1.0000
30.0000 599.0000 1.0000
30.0100 638.0000 1.0000
30.0200 617.0000 1.0000
30.0300 554.0000 1.0000
30.0400 609.0000 1.0000
30.0500 599.0000 1.0000
30.0600 636.0000 1.0000
30.0700 634.0000 1.0000
30.0800 627.0000 1.0000
30.0900 627.0000 1.0000
30.1000 610.0000 1.0000
30.1100 609.0000 1.0000
30.1200 605.0000 1.0000
30.1300 648.0000 1.0000
30.1400 683.0000 1.0000
30.1500 594.0000 1.0000
30.1600 602.0000 1.0000
30.1700 624.0000 1.0000
30.1800 674.0000 1.0000
30.1900 596.0000 1.0000
30.2000 585.0000 1.0000
30.2100 603.0000 1.0000
30.2200 594.0000 1.0000
30.2300 610.0000 1.0000
30.2400 621.0000 1.0000
30.2500 572.0000 1.0000
30.2600 590.0000 1.0000
30.2700 621.0000 1.0000
30.2800 658.0000 1.0000
30.2900 626.0000 1.0000
30.3000 614.0000 1.0000
30.3100 620.0000 1.0000
30.3200 619.0000 1.0000
30.3300 600.0000 1.0000
30.3400 631.0000 1.0000
30.3500 599.0000 1.0000
30.3600 612.0000 1.0000
30.3700 618.0000 1.0000
30.3800 596.0000 1.0000
30.3900 587.0000 1.0000
30.4000 606.0000 1.0000
30.4100 608.0000 1.0000
30.4200 607.0000 1.0000
30.4300 611.0000 1.0000
30.4400 600.0000 1.0000
30.4500 615.0000 1.0000
30.4600 572.0000 1.0000
30.4700 614.0000 1.0000
30.4800 584.0000 1.0000
30.4900 613.0000 1.0000
30.5000 644.0000 1.0000
30.5100 613.0000 1.0000
30.5200 626.0000 1.0000
30.5300 603.0000 1.0000
30.5400 651.0000 1.0000
30.5500 582.0000 1.0000
30.5600 596.0000 1.0000
30.5700 608.0000 1.0000
30.5800 590.0000 1.0000
30.5900 575.0000 1.0000
30.6000 601.0000 1.0000
30.6100 625.0000 1.0000
30.6200 625.0000 1.0000
30.6300 589.0000 1.0000
30.6400 619.0000 1.0000
30.6500 576.0000 1.0000
30.6600 629.0000 1.0000
30.6700 638.0000 1.0000
30.6800 614.0000 1.0000
30.6900 642.0000 1.0000
30.7000 605.0000 1.0000
30.7100 646.0000 1.0000
30.7200 634.0000 1.0000
30.7300 630.0000 1.0000
30.7400 622.0000 1.0000
30.7500 591.0000 1.0000
30.7600 590.0000 1.0000
30.7700 586.0000 1.0000
30.7800 576.0000 1.0000
30.7900 602.0000 1.0000
30.8000 604.0000 1.0000
30.8100 597.0000 1.0000
30.8200 585.0000 1.0000
30.8300 592.0000 1.0000
30.8400 568.0000 1.0000
30.8500 572.0000 1.0000
30.8600 558.0000 1.0000
30.8700 551.0000 1.0000
30.8800 639.0000 1.0000
30.8900 637.0000 1.0000
30.9000 605.0000 1.0000
30.9100 598.0000 1.0000
30.9200 596.0000 1.0000
30.9300 590.0000 1.0000
30.9400 612.0000 1.0000
30.9500 598.0000 1.0000
30.9600 641.0000 1.0000
30.9700 597.0000 1.0000
30.9800 611.0000 1.0000
30.9900 614.0000 1.0000
31.0000 633.0000 1.0000
31.0100 596.0000 1.0000
31.0200 599.0000 1.0000
31.0300 594.0000 1.0000
31.0400 609.0000 1.0000
31.0500 594.0000 1.0000
31.0600 594.0000 1.0000
31.0700 591.0000 1.0000
31.0800 551.0000 1.0000
31.0900 638.0000 1.0000
31.1000 609.0000 1.0000
31.1100 614.0000 1.0000
31.1200 633.0000 1.0000
31.1300 629.0000 1.0000
31.1400 599.0000 1.0000
31.1500 576.0000 1.0000
31.1600 626.0000 1.0000
31.1700 594.0000 1.0000
31.1800 638.0000 1.0000
31.1900 604.0000 1.0000
31.2000 597.0000 1.0000
31.2100 616.0000 1.0000
31.2200 609.0000 1.0000
31.2300 589.0000 1.0000
31.2400 584.0000 1.0000
31.2500 574.0000 1.0000
31.2600 633.0000 1.0000
31.2700 594.0000 1.0000
31.2800 607.0000 1.0000
31.2900 613.0000 1.0000
31.3000 582.0000 1.0000
31.3100 567.0000 1.0000
31.3200 576.0000 1.0000
31.3300 579.0000 1.0000
31.3400 627.0000 1.0000
31.3500 583.0000 1.0000
31.3600 600.0000 1.0000
31.3700 575.0000 1.0000
31.3800 599.0000 1.0000
31.3900 581.0000 1.0000
31.4000 610.0000 1.0000
31.4100 586.0000 1.0000
31.4200 601.0000 1.0000
31.4300 593.0000 1.0000
31.4400 605.0000 1.0000
31.4500 547.0000 1.0000
31.4600 578.0000 1.0000
31.4700 607.0000 1.0000
31.4800 546.0000 1.0000
31.4900 593.0000 1.0000
31.5000 581.0000 1.0000
31.5100 554.0000 1.0000
31.5200 549.0000 1.0000
31.5300 610.0000 1.0000
31.5400 599.0000 1.0000
31.5500 615.0000 1.0000
31.5600 587.0000 1.0000
31.5700 545.0000 1.0000
31.5800 582.0000 1.0000
31.5900 600.0000 1.0000
31.6000 592.0000 1.0000
31.6100 557.0000 1.0000
31.6200 561.0000 1.0000
31.6300 561.0000 1.0000
31.6400 582.0000 1.0000
31.6500 557.0000 1.0000
31.6600 578.0000 1.0000
31.6700 567.0000 1.0000
31.6800 591.0000 1.0000
31.6900 592.0000 1.0000
31.7000 555.0000 1.0000
31.7100 587.0000 1.0000
31.7200 538.0000 1.0000
31.7300 569.0000 1.0000
31.7400 572.0000 1.0000
31.7500 574.0000 1.0000
31.7600 584.0000 1.0000
31.7700 592.0000 1.0000
31.7800 594.0000 1.0000
31.7900 577.0000 1.0000
31.8000 569.0000 1.0000
31.8100 566.0000 1.0000
31.8200 538.0000 1.0000
31.8300 569.0000 1.0000
31.8400 597.0000 1.0000
31.8500 576.0000 1.0000
31.8600 591.0000 1.0000
31.8700 597.0000 1.0000
31.8800 600.0000 1.0000
31.8900 604.0000 1.0000
31.9000 575.0000 1.0000
31.9100 563.0000 1.0000
31.9200 582.0000 1.0000
31.9300 555.0000 1.0000
31.9400 557.0000 1.0000
31.9500 596.0000 1.0000
31.9600 618.0000 1.0000
31.9700 626.0000 1.0000
31.9800 604.0000 1.0000
31.9900 584.0000 1.0000
32.0000 642.0000 1.0000
32.0100 641.0000 1.0000
32.0200 626.0000 1.0000
32.0300 597.0000 1.0000
32.0400 574.0000 1.0000
32.0500 581.0000 1.0000
32.0600 573.0000 1.0000
32.0700 554.0000 1.0000
32.0800 588.0000 1.0000
32.0900 565.0000 1.0000
32.1000 583.0000 1.0000
32.1100 585.0000 1.0000
32.1200 575.0000 1.0000
32.1300 558.0000 1.0000
32.1400 556.0000 1.0000
32.1500 610.0000 1.0000
32.1600 584.0000 1.0000
32.1700 565.0000 1.0000
32.1800 584.0000 1.0000
32.1900 559.0000 1.0000
32.2000 572.0000 1.0000
32.2100 588.0000 1.0000
32.2200 565.0000 1.0000
32.2300 573.0000 1.0000
32.2400 570.0000 1.0000
32.2500 566.0000 1.0000
32.2600 577.0000 1.0000
32.2700 566.0000 1.0000
32.2800 595.0000 1.0000
32.2900 551.0000 1.0000
32.3000 571.0000 1.0000
32.3100 564.0000 1.0000
32.3200 567.0000 1.0000
32.3300 574.0000 1.0000
32.3400 584.0000 1.0000
32.3500 590.0000 1.0000
32.3600 585.0000 1.0000
32.3700 609.0000 1.0000
32.3800 581.0000 1.0000
32.3900 592.0000 1.0000
32.4000 566.0000 1.0000
32.4100 576.0000 1.0000
32.4200 587.0000 1.0000
32.4300 576.0000 1.0000
32.4400 581.0000 1.0000
32.4500 576.0000 1.0000
32.4600 579.0000 1.0000
32.4700 572.0000 1.0000
32.4800 597.0000 1.0000
32.4900 561.0000 1.0000
32.5000 554.0000 1.0000
32.5100 542.0000 1.0000
32.5200 579.0000 1.0000
32.5300 560.0000 1.0000
32.5400 602.0000 1.0000
32.5500 579.0000 1.0000
32.5600 522.0000 1.0000
32.5700 546.0000 1.0000
32.5800 581.0000 1.0000
32.5900 578.0000 1.0000
32.6000 606.0000 1.0000
32.6100 634.0000 1.0000
32.6200 583.0000 1.0000
32.6300 536.0000 1.0000
32.6400 578.0000 1.0000
32.6500 553.0000 1.0000
32.6600 579.0000 1.0000
32.6700 528.0000 1.0000
32.6800 589.0000 1.0000
32.6900 573.0000 1.0000
32.7000 552.0000 1.0000
32.7100 565.0000 1.0000
32.7200 543.0000 1.0000
32.7300 572.0000 1.0000
32.7400 540.0000 1.0000
32.7500 576.0000 1.0000
32.7600 565.0000 1.0000
32.7700 530.0000 1.0000
32.7800 546.0000 1.0000
32.7900 528.0000 1.0000
32.8000 589.0000 1.0000
32.8100 550.0000 1.0000
32.8200 546.0000 1.0000
32.8300 525.0000 1.0000
32.8400 554.0000 1.0000
32.8500 538.0000 1.0000
32.8600 573.0000 1.0000
32.8700 534.0000 1.0000
32.8800 547.0000 1.0000
32.8900 545.0000 1.0000
32.9000 566.0000 1.0000
32.9100 581.0000 1.0000
32.9200 552.0000 1.0000
32.9300 531.0000 1.0000
32.9400 537.0000 1.0000
32.9500 532.0000 1.0000
32.9600 556.0000 1.0000
32.9700 566.0000 1.0000
32.9800 556.0000 1.0000
32.9900 586.0000 1.0000
33.0000 568.0000 1.0000
33.0100 548.0000 1.0000
33.0200 532.0000 1.0000
33.0300 548.0000 1.0000
33.0400 568.0000 1.0000
33.0500 541.0000 1.0000
33.0600 559.0000 1.0000
33.0700 582.0000 1.0000
33.0800 570.0000 1.0000
33.0900 554.0000 1.0000
33.1000 557.0000 1.0000
33.1100 541.0000 1.0000
33.1200 546.0000 1.0000
33.1300 534.0000 1.0000
33.1400 565.0000 1.0000
33.1500 567.0000 1.0000
33.1600 586.0000 1.0000
33.1700 542.0000 1.0000
33.1800 512.0000 1.0000
33.1900 532.0000 1.0000
33.2000 547.0000 1.0000
33.2100 550.0000 1.0000
33.2200 520.0000 1.0000
33.2300 561.0000 1.0000
33.2400 553.0000 1.0000
33.2500 563.0000 1.0000
33.2600 531.0000 1.0000
33.2700 525.0000 1.0000
33.2800 561.0000 1.0000
33.2900 558.0000 1.0000
33.3000 556.0000 1.0000
33.3100 534.0000 1.0000
33.3200 552.0000 1.0000
33.3300 558.0000 1.0000
33.3400 556.0000 1.0000
33.3500 549.0000 1.0000
33.3600 532.0000 1.0000
33.3700 560.0000 1.0000
33.3800 554.0000 1.0000
33.3900 533.0000 1.0000
33.4000 539.0000 1.0000
33.4100 554.0000 1.0000
33.4200 551.0000 1.0000
33.4300 507.0000 1.0000
33.4400 554.0000 1.0000
33.4500 559.0000 1.0000
33.4600 551.0000 1.0000
33.4700 559.0000 1.0000
33.4800 531.0000 1.0000
33.4900 529.0000 1.0000
33.5000 531.0000 1.0000
33.5100 549.0000 1.0000
33.5200 556.0000 1.0000
33.5300 570.0000 1.0000
33.5400 553.0000 1.0000
33.5500 553.0000 1.0000
33.5600 549.0000 1.0000
33.5700 552.0000 1.0000
33.5800 572.0000 1.0000
33.5900 576.0000 1.0000
33.6000 566.0000 1.0000
33.6100 553.0000 1.0000
33.6200 545.0000 1.0000
33.6300 513.0000 1.0000
33.6400 508.0000 1.0000
33.6500 545.0000 1.0000
33.6600 566.0000 1.0000
33.6700 553.0000 1.0000
33.6800 553.0000 1.0000
33.6900 582.0000 1.0000
33.7000 593.0000 1.0000
33.7100 570.0000 1.0000
33.7200 549.0000 1.0000
33.7300 614.0000 1.0000
33.7400 607.0000 1.0000
33.7500 583.0000 1.0000
33.7600 587.0000 1.0000
33.7700 570.0000 1.0000
33.7800 544.0000 1.0000
33.7900 550.0000 1.0000
33.8000 564.0000 1.0000
33.8100 594.0000 1.0000
33.8200 580.0000 1.0000
33.8300 563.0000 1.0000
33.8400 565.0000 1.0000
33.8500 583.0000 1.0000
33.8600 566.0000 1.0000
33.8700 554.0000 1.0000
33.8800 582.0000 1.0000
33.8900 588.0000 1.0000
33.9000 596.0000 1.0000
33.9100 577.0000 1.0000
33.9200 598.0000 1.0000
33.9300 626.0000 1.0000
33.9400 650.0000 1.0000
33.9500 625.0000 1.0000
33.9600 581.0000 1.0000
33.9700 593.0000 1.0000
33.9800 615.0000 1.0000
33.9900 608.0000 1.0000
34.0000 568.0000 1.0000
34.0100 629.0000 1.0000
34.0200 594.0000 1.0000
34.0300 617.0000 1.0000
34.0400 617.0000 1.0000
34.0500 601.0000 1.0000
34.0600 616.0000 1.0000
34.0700 628.0000 1.0000
34.0800 585.0000 1.0000
34.0900 601.0000 1.0000
34.1000 592.0000 1.0000
34.1100 597.0000 1.0000
34.1200 642.0000 1.0000
34.1300 641.0000 1.0000
34.1400 626.0000 1.0000
34.1500 612.0000 1.0000
34.1600 646.0000 1.0000
34.1700 615.0000 1.0000
34.1800 590.0000 1.0000
34.1900 622.0000 1.0000
34.2000 613.0000 1.0000
34.2100 652.0000 1.0000
34.2200 669.0000 1.0000
34.2300 655.0000 1.0000
34.2400 670.0000 1.0000
34.2500 699.0000 1.0000
34.2600 698.0000 1.0000
34.2700 687.0000 1.0000
34.2800 728.0000 1.0000
34.2900 695.0000 1.0000
34.3000 724.0000 1.0000
34.3100 738.0000 1.0000
34.3200 757.0000 1.0000
34.3300 799.0000 1.0000
34.3400 805.0000 1.0000
34.3500 797.0000 1.0000
34.3600 832.0000 1.0000
34.3700 864.0000 1.0000
34.3800 869.0000 1.0000
34.3900 914.0000 1.0000
34.4000 966.0000 1.0000
34.4100 1007.0000 1.0000
34.4200 1044.0000 1.0000
34.4300 1087.0000 1.0000
34.4400 1123.0000 1.0000
34.4500 1227.0000 1.0000
34.4600 1237.0000 1.0000
34.4700 1301.0000 1.0000
34.4800 1366.0000 1.0000
34.4900 1374.0000 1.0000
34.5000 1316.0000 1.0000
34.5100 1427.0000 1.0000
34.5200 1381.0000 1.0000
34.5300 1442.0000 1.0000
34.5400 1390.0000 1.0000
34.5500 1424.0000 1.0000
34.5600 1375.0000 1.0000
34.5700 1317.0000 1.0000
34.5800 1271.0000 1.0000
34.5900 1266.0000 1.0000
34.6000 1222.0000 1.0000
34.6100 1135.0000 1.0000
34.6200 1093.0000 1.0000
34.6300 1091.0000 1.0000
34.6400 977.0000 1.0000
34.6500 993.0000 1.0000
34.6600 945.0000 1.0000
34.6700 894.0000 1.0000
34.6800 884.0000 1.0000
34.6900 892.0000 1.0000
34.7000 853.0000 1.0000
34.7100 838.0000 1.0000
34.7200 770.0000 1.0000
34.7300 744.0000 1.0000
34.7400 778.0000 1.0000
34.7500 706.0000 1.0000
34.7600 736.0000 1.0000
34.7700 788.0000 1.0000
34.7800 695.0000 1.0000
34.7900 673.0000 1.0000
34.8000 660.0000 1.0000
34.8100 659.0000 1.0000
34.8200 666.0000 1.0000
34.8300 631.0000 1.0000
34.8400 652.0000 1.0000
34.8500 611.0000 1.0000
34.8600 657.0000 1.0000
34.8700 610.0000 1.0000
34.8800 608.0000 1.0000
34.8900 568.0000 1.0000
34.9000 593.0000 1.0000
34.9100 577.0000 1.0000
34.9200 575.0000 1.0000
34.9300 557.0000 1.0000
34.9400 556.0000 1.0000
34.9500 572.0000 1.0000
34.9600 553.0000 1.0000
34.9700 522.0000 1.0000
34.9800 566.0000 1.0000
34.9900 557.0000 1.0000
35.0000 513.0000 1.0000
35.0100 535.0000 1.0000
35.0200 534.0000 1.0000
35.0300 543.0000 1.0000
35.0400 545.0000 1.0000
35.0500 546.0000 1.0000
35.0600 562.0000 1.0000
35.0700 545.0000 1.0000
35.0800 561.0000 1.0000
35.0900 561.0000 1.0000
35.1000 509.0000 1.0000
35.1100 516.0000 1.0000
35.1200 550.0000 1.0000
35.1300 506.0000 1.0000
35.1400 495.0000 1.0000
35.1500 543.0000 1.0000
35.1600 512.0000 1.0000
35.1700 515.0000 1.0000
35.1800 523.0000 1.0000
35.1900 533.0000 1.0000
35.2000 529.0000 1.0000
35.2100 492.0000 1.0000
35.2200 538.0000 1.0000
35.2300 490.0000 1.0000
35.2400 524.0000 1.0000
35.2500 523.0000 1.0000
35.2600 475.0000 1.0000
35.2700 524.0000 1.0000
35.2800 534.0000 1.0000
35.2900 482.0000 1.0000
35.3000 525.0000 1.0000
35.3100 506.0000 1.0000
35.3200 511.0000 1.0000
35.3300 510.0000 1.0000
35.3400 487.0000 1.0000
35.3500 502.0000 1.0000
35.3600 515.0000 1.0000
35.3700 497.0000 1.0000
35.3800 489.0000 1.0000
35.3900 498.0000 1.0000
35.4000 500.0000 1.0000
35.4100 483.0000 1.0000
35.4200 526.0000 1.0000
35.4300 491.0000 1.0000
35.4400 466.0000 1.0000
35.4500 466.0000 1.0000
35.4600 481.0000 1.0000
35.4700 452.0000 1.0000
35.4800 438.0000 1.0000
35.4900 500.0000 1.0000
35.5000 474.0000 1.0000
35.5100 500.0000 1.0000
35.5200 482.0000 1.0000
35.5300 510.0000 1.0000
35.5400 449.0000 1.0000
35.5500 467.0000 1.0000
35.5600 496.0000 1.0000
35.5700 485.0000 1.0000
35.5800 487.0000 1.0000
35.5900 503.0000 1.0000
35.6000 463.0000 1.0000
35.6100 509.0000 1.0000
35.6200 475.0000 1.0000
35.6300 490.0000 1.0000
35.6400 445.0000 1.0000
35.6500 471.0000 1.0000
35.6600 510.0000 1.0000
35.6700 475.0000 1.0000
35.6800 481.0000 1.0000
35.6900 499.0000 1.0000
35.7000 500.0000 1.0000
35.7100 465.0000 1.0000
35.7200 479.0000 1.0000
35.7300 469.0000 1.0000
35.7400 480.0000 1.0000
35.7500 460.0000 1.0000
35.7600 492.0000 1.0000
35.7700 489.0000 1.0000
35.7800 518.0000 1.0000
35.7900 469.0000 1.0000
35.8000 456.0000 1.0000
35.8100 492.0000 1.0000
35.8200 465.0000 1.0000
35.8300 487.0000 1.0000
35.8400 479.0000 1.0000
35.8500 490.0000 1.0000
35.8600 455.0000 1.0000
35.8700 440.0000 1.0000
35.8800 478.0000 1.0000
35.8900 488.0000 1.0000
35.9000 466.0000 1.0000
35.9100 446.0000 1.0000
35.9200 440.0000 1.0000
35.9300 470.0000 1.0000
35.9400 478.0000 1.0000
35.9500 480.0000 1.0000
35.9600 445.0000 1.0000
35.9700 474.0000 1.0000
35.9800 482.0000 1.0000
35.9900 502.0000 1.0000
36.0000 487.0000 1.0000
36.0100 454.0000 1.0000
36.0200 465.0000 1.0000
36.0300 472.0000 1.0000
36.0400 466.0000 1.0000
36.0500 502.0000 1.0000
36.0600 489.0000 1.0000
36.0700 487.0000 1.0000
36.0800 476.0000 1.0000
36.0900 490.0000 1.0000
36.1000 496.0000 1.0000
36.1100 466.0000 1.0000
36.1200 506.0000 1.0000
36.1300 456.0000 1.0000
36.1400 493.0000 1.0000
36.1500 520.0000 1.0000
36.1600 512.0000 1.0000
36.1700 498.0000 1.0000
36.1800 510.0000 1.0000
36.1900 536.0000 1.0000
36.2000 550.0000 1.0000
36.2100 565.0000 1.0000
36.2200 537.0000 1.0000
36.2300 551.0000 1.0000
36.2400 561.0000 1.0000
36.2500 597.0000 1.0000
36.2600 575.0000 1.0000
36.2700 563.0000 1.0000
36.2800 617.0000 1.0000
36.2900 591.0000 1.0000
36.3000 557.0000 1.0000
36.3100 585.0000 1.0000
36.3200 628.0000 1.0000
36.3300 737.0000 1.0000
36.3400 657.0000 1.0000
36.3500 696.0000 1.0000
36.3600 707.0000 1.0000
36.3700 705.0000 1.0000
36.3800 726.0000 1.0000
36.3900 724.0000 1.0000
36.4000 814.0000 1.0000
36.4100 776.0000 1.0000
36.4200 793.0000 1.0000
36.4300 822.0000 1.0000
36.4400 810.0000 1.0000
36.4500 802.0000 1.0000
36.4600 764.0000 1.0000
36.4700 764.0000 1.0000
36.4800 783.0000 1.0000
36.4900 777.0000 1.0000
36.5000 793.0000 1.0000
36.5100 701.0000 1.0000
36.5200 711.0000 1.0000
36.5300 749.0000 1.0000
36.5400 714.0000 1.0000
36.5500 679.0000 1.0000
36.5600 620.0000 1.0000
36.5700 682.0000 1.0000
36.5800 629.0000 1.0000
36.5900 598.0000 1.0000
36.6000 587.0000 1.0000
36.6100 589.0000 1.0000
36.6200 570.0000 1.0000
36.6300 549.0000 1.0000
36.6400 532.0000 1.0000
36.6500 557.0000 1.0000
36.6600 540.0000 1.0000
36.6700 513.0000 1.0000
36.6800 510.0000 1.0000
36.6900 473.0000 1.0000
36.7000 472.0000 1.0000
36.7100 519.0000 1.0000
36.7200 514.0000 1.0000
36.7300 511.0000 1.0000
36.7400 491.0000 1.0000
36.7500 460.0000 1.0000
36.7600 498.0000 1.0000
36.7700 451.0000 1.0000
36.7800 454.0000 1.0000
36.7900 475.0000 1.0000
36.8000 442.0000 1.0000
36.8100 437.0000 1.0000
36.8200 465.0000 1.0000
36.8300 468.0000 1.0000
36.8400 452.0000 1.0000
36.8500 435.0000 1.0000
36.8600 447.0000 1.0000
36.8700 435.0000 1.0000
36.8800 433.0000 1.0000
36.8900 459.0000 1.0000
36.9000 454.0000 1.0000
36.9100 440.0000 1.0000
36.9200 420.0000 1.0000
36.9300 427.0000 1.0000
36.9400 450.0000 1.0000
36.9500 421.0000 1.0000
36.9600 425.0000 1.0000
36.9700 464.0000 1.0000
36.9800 447.0000 1.0000
36.9900 459.0000 1.0000
37.0000 453.0000 1.0000
37.0100 434.0000 1.0000
37.0200 445.0000 1.0000
37.0300 422.0000 1.0000
37.0400 437.0000 1.0000
37.0500 406.0000 1.0000
37.0600 419.0000 1.0000
37.0700 443.0000 1.0000
37.0800 433.0000 1.0000
37.0900 457.0000 1.0000
37.1000 430.0000 1.0000
37.1100 452.0000 1.0000
37.1200 471.0000 1.0000
37.1300 453.0000 1.0000
37.1400 435.0000 1.0000
37.1500 445.0000 1.0000
37.1600 407.0000 1.0000
37.1700 397.0000 1.0000
37.1800 416.0000 1.0000
37.1900 442.0000 1.0000
37.2000 457.0000 1.0000
37.2100 433.0000 1.0000
37.2200 442.0000 1.0000
37.2300 416.0000 1.0000
37.2400 432.0000 1.0000
37.2500 462.0000 1.0000
37.2600 426.0000 1.0000
37.2700 426.0000 1.0000
37.2800 433.0000 1.0000
37.2900 423.0000 1.0000
37.3000 436.0000 1.0000
37.3100 420.0000 1.0000
37.3200 453.0000 1.0000
37.3300 436.0000 1.0000
37.3400 423.0000 1.0000
37.3500 445.0000 1.0000
37.3600 410.0000 1.0000
37.3700 426.0000 1.0000
37.3800 423.0000 1.0000
37.3900 385.0000 1.0000
37.4000 416.0000 1.0000
37.4100 430.0000 1.0000
37.4200 406.0000 1.0000
37.4300 458.0000 1.0000
37.4400 421.0000 1.0000
37.4500 432.0000 1.0000
37.4600 443.0000 1.0000
37.4700 442.0000 1.0000
37.4800 415.0000 1.0000
37.4900 430.0000 1.0000
37.5000 475.0000 1.0000
37.5100 425.0000 1.0000
37.5200 436.0000 1.0000
37.5300 438.0000 1.0000
37.5400 463.0000 1.0000
37.5500 441.0000 1.0000
37.5600 429.0000 1.0000
37.5700 440.0000 1.0000
37.5800 416.0000 1.0000
37.5900 434.0000 1.0000
37.6000 429.0000 1.0000
37.6100 443.0000 1.0000
37.6200 423.0000 1.0000
37.6300 463.0000 1.0000
37.6400 438.0000 1.0000
37.6500 432.0000 1.0000
37.6600 451.0000 1.0000
37.6700 431.0000 1.0000
37.6800 434.0000 1.0000
37.6900 438.0000 1.0000
37.7000 438.0000 1.0000
37.7100 429.0000 1.0000
37.7200 408.0000 1.0000
37.7300 429.0000 1.0000
37.7400 439.0000 1.0000
37.7500 445.0000 1.0000
37.7600 405.0000 1.0000
37.7700 435.0000 1.0000
37.7800 416.0000 1.0000
37.7900 455.0000 1.0000
37.8000 436.0000 1.0000
37.8100 445.0000 1.0000
37.8200 437.0000 1.0000
37.8300 396.0000 1.0000
37.8400 432.0000 1.0000
37.8500 461.0000 1.0000
37.8600 419.0000 1.0000
37.8700 418.0000 1.0000
37.8800 445.0000 1.0000
37.8900 428.0000 1.0000
37.9000 420.0000 1.0000
37.9100 431.0000 1.0000
37.9200 482.0000 1.0000
37.9300 439.0000 1.0000
37.9400 451.0000 1.0000
37.9500 434.0000 1.0000
37.9600 419.0000 1.0000
37.9700 441.0000 1.0000
37.9800 446.0000 1.0000
37.9900 449.0000 1.0000
38.0000 438.0000 1.0000
38.0100 486.0000 1.0000
38.0200 461.0000 1.0000
38.0300 461.0000 1.0000
38.0400 462.0000 1.0000
38.0500 459.0000 1.0000
38.0600 450.0000 1.0000
38.0700 441.0000 1.0000
38.0800 472.0000 1.0000
38.0900 480.0000 1.0000
38.1000 497.0000 1.0000
38.1100 461.0000 1.0000
38.1200 461.0000 1.0000
38.1300 511.0000 1.0000
38.1400 497.0000 1.0000
38.1500 507.0000 1.0000
38.1600 513.0000 1.0000
38.1700 492.0000 1.0000
38.1800 543.0000 1.0000
38.1900 514.0000 1.0000
38.2000 542.0000 1.0000
38.2100 526.0000 1.0000
38.2200 568.0000 1.0000
38.2300 593.0000 1.0000
38.2400 628.0000 1.0000
38.2500 612.0000 1.0000
38.2600 647.0000 1.0000
38.2700 587.0000 1.0000
38.2800 644.0000 1.0000
38.2900 659.0000 1.0000
38.3000 698.0000 1.0000
38.3100 750.0000 1.0000
38.3200 734.0000 1.0000
38.3300 776.0000 1.0000
38.3400 809.0000 1.0000
38.3500 796.0000 1.0000
38.3600 878.0000 1.0000
38.3700 917.0000 1.0000
38.3800 1003.0000 1.0000
38.3900 1048.0000 1.0000
38.4000 1083.0000 1.0000
38.4100 1117.0000 1.0000
38.4200 1274.0000 1.0000
38.4300 1294.0000 1.0000
38.4400 1437.0000 1.0000
38.4500 1479.0000 1.0000
38.4600 1631.0000 1.0000
38.4700 1736.0000 1.0000
38.4800 1864.0000 1.0000
38.4900 1988.0000 1.0000
38.5000 1987.0000 1.0000
38.5100 2038.0000 1.0000
38.5200 2204.0000 1.0000
38.5300 2199.0000 1.0000
38.5400 2360.0000 1.0000
38.5500 2359.0000 1.0000
38.5600 2416.0000 1.0000
38.5700 2413.0000 1.0000
38.5800 2418.0000 1.0000
38.5900 2374.0000 1.0000
38.6000 2354.0000 1.0000
38.6100 2257.0000 1.0000
38.6200 2221.0000 1.0000
38.6300 2119.0000 1.0000
38.6400 2080.0000 1.0000
38.6500 1935.0000 1.0000
38.6600 1874.0000 1.0000
38.6700 1806.0000 1.0000
38.6800 1651.0000 1.0000
38.6900 1566.0000 1.0000
38.7000 1505.0000 1.0000
38.7100 1388.0000 1.0000
38.7200 1357.0000 1.0000
38.7300 1182.0000 1.0000
38.7400 1186.0000 1.0000
38.7500 1097.0000 1.0000
38.7600 1012.0000 1.0000
38.7700 1003.0000 1.0000
38.7800 947.0000 1.0000
38.7900 866.0000 1.0000
38.8000 787.0000 1.0000
38.8100 794.0000 1.0000
38.8200 775.0000 1.0000
38.8300 704.0000 1.0000
38.8400 705.0000 1.0000
38.8500 663.0000 1.0000
38.8600 671.0000 1.0000
38.8700 610.0000 1.0000
38.8800 550.0000 1.0000
38.8900 594.0000 1.0000
38.9000 559.0000 1.0000
38.9100 538.0000 1.0000
38.9200 544.0000 1.0000
38.9300 534.0000 1.0000
38.9400 491.0000 1.0000
38.9500 458.0000 1.0000
38.9600 499.0000 1.0000
38.9700 465.0000 1.0000
38.9800 496.0000 1.0000
38.9900 489.0000 1.0000
39.0000 456.0000 1.0000
39.0100 465.0000 1.0000
39.0200 449.0000 1.0000
39.0300 411.0000 1.0000
39.0400 434.0000 1.0000
39.0500 431.0000 1.0000
39.0600 451.0000 1.0000
39.0700 456.0000 1.0000
39.0800 454.0000 1.0000
39.0900 421.0000 1.0000
39.1000 412.0000 1.0000
39.1100 417.0000 1.0000
39.1200 419.0000 1.0000
39.1300 441.0000 1.0000
39.1400 461.0000 1.0000
39.1500 445.0000 1.0000
39.1600 454.0000 1.0000
39.1700 428.0000 1.0000
39.1800 389.0000 1.0000
39.1900 413.0000 1.0000
39.2000 389.0000 1.0000
39.2100 449.0000 1.0000
39.2200 436.0000 1.0000
39.2300 429.0000 1.0000
39.2400 463.0000 1.0000
39.2500 424.0000 1.0000
39.2600 407.0000 1.0000
39.2700 396.0000 1.0000
39.2800 417.0000 1.0000
39.2900 406.0000 1.0000
39.3000 370.0000 1.0000
39.3100 383.0000 1.0000
39.3200 380.0000 1.0000
39.3300 423.0000 1.0000
39.3400 390.0000 1.0000
39.3500 417.0000 1.0000
39.3600 385.0000 1.0000
39.3700 417.0000 1.0000
39.3800 430.0000 1.0000
39.3900 395.0000 1.0000
39.4000 397.0000 1.0000
39.4100 427.0000 1.0000
39.4200 434.0000 1.0000
39.4300 407.0000 1.0000
39.4400 452.0000 1.0000
39.4500 410.0000 1.0000
39.4600 380.0000 1.0000
39.4700 372.0000 1.0000
39.4800 404.0000 1.0000
39.4900 434.0000 1.0000
39.5000 422.0000 1.0000
39.5100 434.0000 1.0000
39.5200 392.0000 1.0000
39.5300 395.0000 1.0000
39.5400 426.0000 1.0000
39.5500 427.0000 1.0000
39.5600 411.0000 1.0000
39.5700 402.0000 1.0000
39.5800 394.0000 1.0000
39.5900 431.0000 1.0000
39.6000 402.0000 1.0000
39.6100 426.0000 1.0000
39.6200 396.0000 1.0000
39.6300 430.0000 1.0000
39.6400 424.0000 1.0000
39.6500 443.0000 1.0000
39.6600 408.0000 1.0000
39.6700 416.0000 1.0000
39.6800 414.0000 1.0000
39.6900 390.0000 1.0000
39.7000 418.0000 1.0000
39.7100 406.0000 1.0000
39.7200 415.0000 1.0000
39.7300 410.0000 1.0000
39.7400 407.0000 1.0000
39.7500 441.0000 1.0000
39.7600 419.0000 1.0000
39.7700 398.0000 1.0000
39.7800 399.0000 1.0000
39.7900 380.0000 1.0000
39.8000 389.0000 1.0000
39.8100 383.0000 1.0000
39.8200 393.0000 1.0000
39.8300 365.0000 1.0000
39.8400 352.0000 1.0000
39.8500 361.0000 1.0000
39.8600 350.0000 1.0000
39.8700 386.0000 1.0000
39.8800 408.0000 1.0000
39.8900 378.0000 1.0000
39.9000 380.0000 1.0000
39.9100 392.0000 1.0000
39.9200 366.0000 1.0000
39.9300 417.0000 1.0000
39.9400 388.0000 1.0000
39.9500 396.0000 1.0000
39.9600 385.0000 1.0000
39.9700 375.0000 1.0000
39.9800 393.0000 1.0000
39.9900 392.0000 1.0000
40.0000 384.0000 1.0000
40.0100 367.0000 1.0000
40.0200 364.0000 1.0000
40.0300 359.0000 1.0000
40.0400 380.0000 1.0000
40.0500 411.0000 1.0000
40.0600 392.0000 1.0000
40.0700 384.0000 1.0000
40.0800 384.0000 1.0000
40.0900 369.0000 1.0000
40.1000 361.0000 1.0000
40.1100 360.0000 1.0000
40.1200 379.0000 1.0000
40.1300 388.0000 1.0000
40.1400 368.0000 1.0000
40.1500 367.0000 1.0000
40.1600 367.0000 1.0000
40.1700 372.0000 1.0000
40.1800 369.0000 1.0000
40.1900 412.0000 1.0000
40.2000 387.0000 1.0000
40.2100 366.0000 1.0000
40.2200 370.0000 1.0000
40.2300 383.0000 1.0000
40.2400 390.0000 1.0000
40.2500 371.0000 1.0000
40.2600 370.0000 1.0000
40.2700 363.0000 1.0000
40.2800 376.0000 1.0000
40.2900 367.0000 1.0000
40.3000 370.0000 1.0000
40.3100 363.0000 1.0000
40.3200 376.0000 1.0000
40.3300 348.0000 1.0000
40.3400 357.0000 1.0000
40.3500 353.0000 1.0000
40.3600 344.0000 1.0000
40.3700 346.0000 1.0000
40.3800 360.0000 1.0000
40.3900 350.0000 1.0000
40.4000 342.0000 1.0000
40.4100 362.0000 1.0000
40.4200 358.0000 1.0000
40.4300 358.0000 1.0000
40.4400 356.0000 1.0000
40.4500 383.0000 1.0000
40.4600 358.0000 1.0000
40.4700 378.0000 1.0000
40.4800 363.0000 1.0000
40.4900 371.0000 1.0000
40.5000 381.0000 1.0000
40.5100 373.0000 1.0000
40.5200 373.0000 1.0000
40.5300 359.0000 1.0000
40.5400 379.0000 1.0000
40.5500 395.0000 1.0000
40.5600 355.0000 1.0000
40.5700 365.0000 1.0000
40.5800 371.0000 1.0000
40.5900 371.0000 1.0000
40.6000 362.0000 1.0000
40.6100 367.0000 1.0000
40.6200 374.0000 1.0000
40.6300 372.0000 1.0000
40.6400 347.0000 1.0000
40.6500 366.0000 1.0000
40.6600 379.0000 1.0000
40.6700 356.0000 1.0000
40.6800 365.0000 1.0000
40.6900 371.0000 1.0000
40.7000 366.0000 1.0000
40.7100 375.0000 1.0000
40.7200 354.0000 1.0000
40.7300 383.0000 1.0000
40.7400 349.0000 1.0000
40.7500 362.0000 1.0000
40.7600 355.0000 1.0000
40.7700 366.0000 1.0000
40.7800 395.0000 1.0000
40.7900 362.0000 1.0000
40.8000 363.0000 1.0000
40.8100 356.0000 1.0000
40.8200 346.0000 1.0000
40.8300 367.0000 1.0000
40.8400 366.0000 1.0000
40.8500 375.0000 1.0000
40.8600 350.0000 1.0000
40.8700 338.0000 1.0000
40.8800 373.0000 1.0000
40.8900 381.0000 1.0000
40.9000 361.0000 1.0000
40.9100 346.0000 1.0000
40.9200 388.0000 1.0000
40.9300 350.0000 1.0000
40.9400 364.0000 1.0000
40.9500 362.0000 1.0000
40.9600 354.0000 1.0000
40.9700 352.0000 1.0000
40.9800 350.0000 1.0000
40.9900 361.0000 1.0000
41.0000 339.0000 1.0000
41.0100 364.0000 1.0000
41.0200 356.0000 1.0000
41.0300 350.0000 1.0000
41.0400 355.0000 1.0000
41.0500 322.0000 1.0000
41.0600 360.0000 1.0000
41.0700 355.0000 1.0000
41.0800 319.0000 1.0000
41.0900 363.0000 1.0000
41.1000 354.0000 1.0000
41.1100 359.0000 1.0000
41.1200 373.0000 1.0000
41.1300 393.0000 1.0000
41.1400 391.0000 1.0000
41.1500 387.0000 1.0000
41.1600 347.0000 1.0000
41.1700 372.0000 1.0000
41.1800 367.0000 1.0000
41.1900 379.0000 1.0000
41.2000 396.0000 1.0000
41.2100 358.0000 1.0000
41.2200 375.0000 1.0000
41.2300 375.0000 1.0000
41.2400 330.0000 1.0000
41.2500 368.0000 1.0000
41.2600 374.0000 1.0000
41.2700 330.0000 1.0000
41.2800 373.0000 1.0000
41.2900 357.0000 1.0000
41.3000 369.0000 1.0000
41.3100 379.0000 1.0000
41.3200 394.0000 1.0000
41.3300 368.0000 1.0000
41.3400 377.0000 1.0000
41.3500 352.0000 1.0000
41.3600 393.0000 1.0000
41.3700 361.0000 1.0000
41.3800 355.0000 1.0000
41.3900 372.0000 1.0000
41.4000 357.0000 1.0000
41.4100 379.0000 1.0000
41.4200 367.0000 1.0000
41.4300 340.0000 1.0000
41.4400 367.0000 1.0000
41.4500 363.0000 1.0000
41.4600 380.0000 1.0000
41.4700 345.0000 1.0000
41.4800 345.0000 1.0000
41.4900 361.0000 1.0000
41.5000 301.0000 1.0000
41.5100 353.0000 1.0000
41.5200 375.0000 1.0000
41.5300 350.0000 1.0000
41.5400 402.0000 1.0000
41.5500 353.0000 1.0000
41.5600 362.0000 1.0000
41.5700 344.0000 1.0000
41.5800 341.0000 1.0000
41.5900 362.0000 1.0000
41.6000 384.0000 1.0000
41.6100 350.0000 1.0000
41.6200 354.0000 1.0000
41.6300 348.0000 1.0000
41.6400 324.0000 1.0000
41.6500 334.0000 1.0000
41.6600 348.0000 1.0000
41.6700 368.0000 1.0000
41.6800 355.0000 1.0000
41.6900 358.0000 1.0000
41.7000 377.0000 1.0000
41.7100 364.0000 1.0000
41.7200 336.0000 1.0000
41.7300 371.0000 1.0000
41.7400 370.0000 1.0000
41.7500 327.0000 1.0000
41.7600 363.0000 1.0000
41.7700 371.0000 1.0000
41.7800 375.0000 1.0000
41.7900 364.0000 1.0000
41.8000 330.0000 1.0000
41.8100 337.0000 1.0000
41.8200 380.0000 1.0000
41.8300 384.0000 1.0000
41.8400 323.0000 1.0000
41.8500 346.0000 1.0000
41.8600 348.0000 1.0000
41.8700 388.0000 1.0000
41.8800 354.0000 1.0000
41.8900 369.0000 1.0000
41.9000 359.0000 1.0000
41.9100 354.0000 1.0000
41.9200 347.0000 1.0000
41.9300 365.0000 1.0000
41.9400 369.0000 1.0000
41.9500 360.0000 1.0000
41.9600 391.0000 1.0000
41.9700 358.0000 1.0000
41.9800 339.0000 1.0000
41.9900 367.0000 1.0000
42.0000 357.0000 1.0000
42.0100 330.0000 1.0000
42.0200 364.0000 1.0000
42.0300 335.0000 1.0000
42.0400 316.0000 1.0000
42.0500 382.0000 1.0000
42.0600 361.0000 1.0000
42.0700 347.0000 1.0000
42.0800 317.0000 1.0000
42.0900 364.0000 1.0000
42.1000 367.0000 1.0000
42.1100 384.0000 1.0000
42.1200 360.0000 1.0000
42.1300 339.0000 1.0000
42.1400 345.0000 1.0000
42.1500 342.0000 1.0000
42.1600 383.0000 1.0000
42.1700 328.0000 1.0000
42.1800 339.0000 1.0000
42.1900 349.0000 1.0000
42.2000 393.0000 1.0000
42.2100 348.0000 1.0000
42.2200 370.0000 1.0000
42.2300 358.0000 1.0000
42.2400 358.0000 1.0000
42.2500 372.0000 1.0000
42.2600 339.0000 1.0000
42.2700 339.0000 1.0000
42.2800 343.0000 1.0000
42.2900 350.0000 1.0000
42.3000 350.0000 1.0000
42.3100 337.0000 1.0000
42.3200 365.0000 1.0000
42.3300 396.0000 1.0000
42.3400 373.0000 1.0000
42.3500 328.0000 1.0000
42.3600 330.0000 1.0000
42.3700 373.0000 1.0000
42.3800 360.0000 1.0000
42.3900 351.0000 1.0000
42.4000 361.0000 1.0000
42.4100 336.0000 1.0000
42.4200 340.0000 1.0000
42.4300 355.0000 1.0000
42.4400 343.0000 1.0000
42.4500 350.0000 1.0000
42.4600 345.0000 1.0000
42.4700 325.0000 1.0000
42.4800 342.0000 1.0000
42.4900 351.0000 1.0000
42.5000 337.0000 1.0000
42.5100 340.0000 1.0000
42.5200 367.0000 1.0000
42.5300 351.0000 1.0000
42.5400 323.0000 1.0000
42.5500 347.0000 1.0000
42.5600 362.0000 1.0000
42.5700 377.0000 1.0000
42.5800 360.0000 1.0000
42.5900 346.0000 1.0000
42.6000 361.0000 1.0000
42.6100 360.0000 1.0000
42.6200 340.0000 1.0000
42.6300 353.0000 1.0000
42.6400 360.0000 1.0000
42.6500 363.0000 1.0000
42.6600 358.0000 1.0000
42.6700 347.0000 1.0000
42.6800 344.0000 1.0000
42.6900 336.0000 1.0000
42.7000 368.0000 1.0000
42.7100 326.0000 1.0000
42.7200 362.0000 1.0000
42.7300 349.0000 1.0000
42.7400 383.0000 1.0000
42.7500 357.0000 1.0000
42.7600 353.0000 1.0000
42.7700 351.0000 1.0000
42.7800 335.0000 1.0000
42.7900 335.0000 1.0000
42.8000 367.0000 1.0000
42.8100 343.0000 1.0000
42.8200 377.0000 1.0000
42.8300 352.0000 1.0000
42.8400 351.0000 1.0000
42.8500 346.0000 1.0000
42.8600 327.0000 1.0000
42.8700 374.0000 1.0000
42.8800 329.0000 1.0000
42.8900 333.0000 1.0000
42.9000 322.0000 1.0000
42.9100 349.0000 1.0000
42.9200 314.0000 1.0000
42.9300 358.0000 1.0000
42.9400 333.0000 1.0000
42.9500 313.0000 1.0000
42.9600 342.0000 1.0000
42.9700 348.0000 1.0000
42.9800 336.0000 1.0000
42.9900 344.0000 1.0000
43.0000 308.0000 1.0000
43.0100 330.0000 1.0000
43.0200 377.0000 1.0000
43.0300 367.0000 1.0000
43.0400 383.0000 1.0000
43.0500 358.0000 1.0000
43.0600 359.0000 1.0000
43.0700 363.0000 1.0000
43.0800 351.0000 1.0000
43.0900 351.0000 1.0000
43.1000 364.0000 1.0000
43.1100 336.0000 1.0000
43.1200 325.0000 1.0000
43.1300 368.0000 1.0000
43.1400 346.0000 1.0000
43.1500 369.0000 1.0000
43.1600 386.0000 1.0000
43.1700 397.0000 1.0000
43.1800 400.0000 1.0000
43.1900 377.0000 1.0000
43.2000 399.0000 1.0000
43.2100 428.0000 1.0000
43.2200 421.0000 1.0000
43.2300 392.0000 1.0000
43.2400 398.0000 1.0000
43.2500 376.0000 1.0000
43.2600 394.0000 1.0000
43.2700 411.0000 1.0000
43.2800 421.0000 1.0000
43.2900 411.0000 1.0000
43.3000 395.0000 1.0000
43.3100 411.0000 1.0000
43.3200 386.0000 1.0000
43.3300 359.0000 1.0000
43.3400 388.0000 1.0000
43.3500 373.0000 1.0000
43.3600 369.0000 1.0000
43.3700 351.0000 1.0000
43.3800 368.0000 1.0000
43.3900 346.0000 1.0000
43.4000 365.0000 1.0000
43.4100 363.0000 1.0000
43.4200 364.0000 1.0000
43.4300 353.0000 1.0000
43.4400 347.0000 1.0000
43.4500 373.0000 1.0000
43.4600 335.0000 1.0000
43.4700 339.0000 1.0000
43.4800 337.0000 1.0000
43.4900 390.0000 1.0000
43.5000 372.0000 1.0000
43.5100 382.0000 1.0000
43.5200 398.0000 1.0000
43.5300 342.0000 1.0000
43.5400 335.0000 1.0000
43.5500 353.0000 1.0000
43.5600 313.0000 1.0000
43.5700 323.0000 1.0000
43.5800 350.0000 1.0000
43.5900 334.0000 1.0000
43.6000 364.0000 1.0000
43.6100 340.0000 1.0000
43.6200 346.0000 1.0000
43.6300 353.0000 1.0000
43.6400 351.0000 1.0000
43.6500 361.0000 1.0000
43.6600 337.0000 1.0000
43.6700 349.0000 1.0000
43.6800 367.0000 1.0000
43.6900 350.0000 1.0000
43.7000 365.0000 1.0000
43.7100 349.0000 1.0000
43.7200 333.0000 1.0000
43.7300 362.0000 1.0000
43.7400 359.0000 1.0000
43.7500 344.0000 1.0000
43.7600 350.0000 1.0000
43.7700 355.0000 1.0000
43.7800 367.0000 1.0000
43.7900 369.0000 1.0000
43.8000 335.0000 1.0000
43.8100 365.0000 1.0000
43.8200 345.0000 1.0000
43.8300 334.0000 1.0000
43.8400 381.0000 1.0000
43.8500 329.0000 1.0000
43.8600 318.0000 1.0000
43.8700 327.0000 1.0000
43.8800 302.0000 1.0000
43.8900 360.0000 1.0000
43.9000 334.0000 1.0000
43.9100 320.0000 1.0000
43.9200 351.0000 1.0000
43.9300 348.0000 1.0000
43.9400 357.0000 1.0000
43.9500 352.0000 1.0000
43.9600 317.0000 1.0000
43.9700 337.0000 1.0000
43.9800 340.0000 1.0000
43.9900 347.0000 1.0000
44.0000 331.0000 1.0000
44.0100 358.0000 1.0000
44.0200 322.0000 1.0000
44.0300 347.0000 1.0000
44.0400 366.0000 1.0000
44.0500 335.0000 1.0000
44.0600 362.0000 1.0000
44.0700 349.0000 1.0000
44.0800 346.0000 1.0000
44.0900 341.0000 1.0000
44.1000 345.0000 1.0000
44.1100 355.0000 1.0000
44.1200 331.0000 1.0000
44.1300 351.0000 1.0000
44.1400 346.0000 1.0000
44.1500 323.0000 1.0000
44.1600 322.0000 1.0000
44.1700 327.0000 1.0000
44.1800 342.0000 1.0000
44.1900 358.0000 1.0000
44.2000 350.0000 1.0000
44.2100 368.0000 1.0000
44.2200 358.0000 1.0000
44.2300 352.0000 1.0000
44.2400 353.0000 1.0000
44.2500 349.0000 1.0000
44.2600 363.0000 1.0000
44.2700 317.0000 1.0000
44.2800 326.0000 1.0000
44.2900 381.0000 1.0000
44.3000 355.0000 1.0000
44.3100 324.0000 1.0000
44.3200 307.0000 1.0000
44.3300 325.0000 1.0000
44.3400 343.0000 1.0000
44.3500 330.0000 1.0000
44.3600 353.0000 1.0000
44.3700 349.0000 1.0000
44.3800 366.0000 1.0000
44.3900 329.0000 1.0000
44.4000 348.0000 1.0000
44.4100 356.0000 1.0000
44.4200 378.0000 1.0000
44.4300 358.0000 1.0000
44.4400 352.0000 1.0000
44.4500 374.0000 1.0000
44.4600 360.0000 1.0000
44.4700 338.0000 1.0000
44.4800 312.0000 1.0000
44.4900 358.0000 1.0000
44.5000 352.0000 1.0000
44.5100 353.0000 1.0000
44.5200 325.0000 1.0000
44.5300 339.0000 1.0000
44.5400 318.0000 1.0000
44.5500 353.0000 1.0000
44.5600 344.0000 1.0000
44.5700 336.0000 1.0000
44.5800 330.0000 1.0000
44.5900 333.0000 1.0000
44.6000 331.0000 1.0000
44.6100 341.0000 1.0000
44.6200 325.0000 1.0000
44.6300 336.0000 1.0000
44.6400 347.0000 1.0000
44.6500 336.0000 1.0000
44.6600 329.0000 1.0000
44.6700 316.0000 1.0000
44.6800 343.0000 1.0000
44.6900 332.0000 1.0000
44.7000 331.0000 1.0000
44.7100 346.0000 1.0000
44.7200 362.0000 1.0000
44.7300 360.0000 1.0000
44.7400 312.0000 1.0000
44.7500 346.0000 1.0000
44.7600 373.0000 1.0000
44.7700 367.0000 1.0000
44.7800 361.0000 1.0000
44.7900 341.0000 1.0000
44.8000 338.0000 1.0000
44.8100 325.0000 1.0000
44.8200 322.0000 1.0000
44.8300 337.0000 1.0000
44.8400 347.0000 1.0000
44.8500 323.0000 1.0000
44.8600 323.0000 1.0000
44.8700 321.0000 1.0000
44.8800 330.0000 1.0000
44.8900 323.0000 1.0000
44.9000 336.0000 1.0000
44.9100 360.0000 1.0000
44.9200 332.0000 1.0000
44.9300 337.0000 1.0000
44.9400 340.0000 1.0000
44.9500 328.0000 1.0000
44.9600 325.0000 1.0000
44.9700 333.0000 1.0000
44.9800 317.0000 1.0000
44.9900 321.0000 1.0000
45.0000 338.0000 1.0000
45.0100 349.0000 1.0000
45.0200 326.0000 1.0000
45.0300 349.0000 1.0000
45.0400 318.0000 1.0000
45.0500 309.0000 1.0000
45.0600 315.0000 1.0000
45.0700 337.0000 1.0000
45.0800 351.0000 1.0000
45.0900 361.0000 1.0000
45.1000 328.0000 1.0000
45.1100 331.0000 1.0000
45.1200 328.0000 1.0000
45.1300 328.0000 1.0000
45.1400 315.0000 1.0000
45.1500 314.0000 1.0000
45.1600 336.0000 1.0000
45.1700 352.0000 1.0000
45.1800 329.0000 1.0000
45.1900 318.0000 1.0000
45.2000 308.0000 1.0000
45.2100 311.0000 1.0000
45.2200 337.0000 1.0000
45.2300 318.0000 1.0000
45.2400 327.0000 1.0000
45.2500 329.0000 1.0000
45.2600 324.0000 1.0000
45.2700 322.0000 1.0000
45.2800 336.0000 1.0000
45.2900 332.0000 1.0000
45.3000 353.0000 1.0000
45.3100 376.0000 1.0000
45.3200 361.0000 1.0000
45.3300 333.0000 1.0000
45.3400 332.0000 1.0000
45.3500 344.0000 1.0000
45.3600 310.0000 1.0000
45.3700 299.0000 1.0000
45.3800 316.0000 1.0000
45.3900 339.0000 1.0000
45.4000 340.0000 1.0000
45.4100 321.0000 1.0000
45.4200 363.0000 1.0000
45.4300 326.0000 1.0000
45.4400 325.0000 1.0000
45.4500 358.0000 1.0000
45.4600 317.0000 1.0000
45.4700 359.0000 1.0000
45.4800 334.0000 1.0000
45.4900 326.0000 1.0000
45.5000 357.0000 1.0000
45.5100 368.0000 1.0000
45.5200 325.0000 1.0000
45.5300 326.0000 1.0000
45.5400 353.0000 1.0000
45.5500 348.0000 1.0000
45.5600 344.0000 1.0000
45.5700 334.0000 1.0000
45.5800 323.0000 1.0000
45.5900 318.0000 1.0000
45.6000 344.0000 1.0000
45.6100 312.0000 1.0000
45.6200 297.0000 1.0000
45.6300 297.0000 1.0000
45.6400 348.0000 1.0000
45.6500 316.0000 1.0000
45.6600 314.0000 1.0000
45.6700 348.0000 1.0000
45.6800 317.0000 1.0000
45.6900 374.0000 1.0000
45.7000 342.0000 1.0000
45.7100 302.0000 1.0000
45.7200 368.0000 1.0000
45.7300 366.0000 1.0000
45.7400 329.0000 1.0000
45.7500 322.0000 1.0000
45.7600 341.0000 1.0000
45.7700 357.0000 1.0000
45.7800 323.0000 1.0000
45.7900 315.0000 1.0000
45.8000 345.0000 1.0000
45.8100 329.0000 1.0000
45.8200 336.0000 1.0000
45.8300 327.0000 1.0000
45.8400 328.0000 1.0000
45.8500 341.0000 1.0000
45.8600 308.0000 1.0000
45.8700 296.0000 1.0000
45.8800 324.0000 1.0000
45.8900 330.0000 1.0000
45.9000 336.0000 1.0000
45.9100 343.0000 1.0000
45.9200 304.0000 1.0000
45.9300 329.0000 1.0000
45.9400 292.0000 1.0000
45.9500 307.0000 1.0000
45.9600 312.0000 1.0000
45.9700 312.0000 1.0000
45.9800 346.0000 1.0000
45.9900 350.0000 1.0000
46.0000 331.0000 1.0000
46.0100 339.0000 1.0000
46.0200 362.0000 1.0000
46.0300 313.0000 1.0000
46.0400 326.0000 1.0000
46.0500 348.0000 1.0000
46.0600 323.0000 1.0000
46.0700 345.0000 1.0000
46.0800 328.0000 1.0000
46.0900 317.0000 1.0000
46.1000 286.0000 1.0000
46.1100 323.0000 1.0000
46.1200 324.0000 1.0000
46.1300 333.0000 1.0000
46.1400 344.0000 1.0000
46.1500 326.0000 1.0000
46.1600 330.0000 1.0000
46.1700 321.0000 1.0000
46.1800 314.0000 1.0000
46.1900 330.0000 1.0000
46.2000 316.0000 1.0000
46.2100 353.0000 1.0000
46.2200 335.0000 1.0000
46.2300 336.0000 1.0000
46.2400 309.0000 1.0000
46.2500 307.0000 1.0000
46.2600 338.0000 1.0000
46.2700 328.0000 1.0000
46.2800 318.0000 1.0000
46.2900 301.0000 1.0000
46.3000 317.0000 1.0000
46.3100 325.0000 1.0000
46.3200 311.0000 1.0000
46.3300 300.0000 1.0000
46.3400 346.0000 1.0000
46.3500 313.0000 1.0000
46.3600 316.0000 1.0000
46.3700 339.0000 1.0000
46.3800 321.0000 1.0000
46.3900 327.0000 1.0000
46.4000 323.0000 1.0000
46.4100 335.0000 1.0000
46.4200 322.0000 1.0000
46.4300 338.0000 1.0000
46.4400 315.0000 1.0000
46.4500 328.0000 1.0000
46.4600 326.0000 1.0000
46.4700 310.0000 1.0000
46.4800 307.0000 1.0000
46.4900 317.0000 1.0000
46.5000 341.0000 1.0000
46.5100 313.0000 1.0000
46.5200 310.0000 1.0000
46.5300 324.0000 1.0000
46.5400 335.0000 1.0000
46.5500 316.0000 1.0000
46.5600 314.0000 1.0000
46.5700 312.0000 1.0000
46.5800 321.0000 1.0000
46.5900 336.0000 1.0000
46.6000 309.0000 1.0000
46.6100 336.0000 1.0000
46.6200 349.0000 1.0000
46.6300 346.0000 1.0000
46.6400 323.0000 1.0000
46.6500 331.0000 1.0000
46.6600 320.0000 1.0000
46.6700 323.0000 1.0000
46.6800 303.0000 1.0000
46.6900 305.0000 1.0000
46.7000 323.0000 1.0000
46.7100 314.0000 1.0000
46.7200 352.0000 1.0000
46.7300 357.0000 1.0000
46.7400 333.0000 1.0000
46.7500 327.0000 1.0000
46.7600 330.0000 1.0000
46.7700 321.0000 1.0000
46.7800 330.0000 1.0000
46.7900 312.0000 1.0000
46.8000 347.0000 1.0000
46.8100 345.0000 1.0000
46.8200 320.0000 1.0000
46.8300 309.0000 1.0000
46.8400 304.0000 1.0000
46.8500 344.0000 1.0000
46.8600 300.0000 1.0000
46.8700 324.0000 1.0000
46.8800 345.0000 1.0000
46.8900 331.0000 1.0000
46.9000 302.0000 1.0000
46.9100 312.0000 1.0000
46.9200 331.0000 1.0000
46.9300 313.0000 1.0000
46.9400 325.0000 1.0000
46.9500 299.0000 1.0000
46.9600 334.0000 1.0000
46.9700 339.0000 1.0000
46.9800 336.0000 1.0000
46.9900 332.0000 1.0000
47.0000 334.0000 1.0000
47.0100 323.0000 1.0000
47.0200 337.0000 1.0000
47.0300 337.0000 1.0000
47.0400 336.0000 1.0000
47.0500 330.0000 1.0000
47.0600 309.0000 1.0000
47.0700 312.0000 1.0000
47.0800 348.0000 1.0000
47.0900 338.0000 1.0000
47.1000 353.0000 1.0000
47.1100 289.0000 1.0000
47.1200 331.0000 1.0000
47.1300 331.0000 1.0000
47.1400 331.0000 1.0000
47.1500 344.0000 1.0000
47.1600 317.0000 1.0000
47.1700 327.0000 1.0000
47.1800 347.0000 1.0000
47.1900 349.0000 1.0000
47.2000 333.0000 1.0000
47.2100 319.0000 1.0000
47.2200 315.0000 1.0000
47.2300 292.0000 1.0000
47.2400 338.0000 1.0000
47.2500 371.0000 1.0000
47.2600 338.0000 1.0000
47.2700 318.0000 1.0000
47.2800 306.0000 1.0000
47.2900 328.0000 1.0000
47.3000 334.0000 1.0000
47.3100 294.0000 1.0000
47.3200 322.0000 1.0000
47.3300 315.0000 1.0000
47.3400 332.0000 1.0000
47.3500 352.0000 1.0000
47.3600 311.0000 1.0000
47.3700 308.0000 1.0000
47.3800 292.0000 1.0000
47.3900 326.0000 1.0000
47.4000 310.0000 1.0000
47.4100 348.0000 1.0000
47.4200 300.0000 1.0000
47.4300 334.0000 1.0000
47.4400 329.0000 1.0000
47.4500 319.0000 1.0000
47.4600 300.0000 1.0000
47.4700 314.0000 1.0000
47.4800 315.0000 1.0000
47.4900 317.0000 1.0000
47.5000 291.0000 1.0000
47.5100 298.0000 1.0000
47.5200 341.0000 1.0000
47.5300 328.0000 1.0000
47.5400 312.0000 1.0000
47.5500 330.0000 1.0000
47.5600 321.0000 1.0000
47.5700 341.0000 1.0000
47.5800 317.0000 1.0000
47.5900 321.0000 1.0000
47.6000 307.0000 1.0000
47.6100 313.0000 1.0000
47.6200 297.0000 1.0000
47.6300 296.0000 1.0000
47.6400 316.0000 1.0000
47.6500 296.0000 1.0000
47.6600 335.0000 1.0000
47.6700 348.0000 1.0000
47.6800 337.0000 1.0000
47.6900 345.0000 1.0000
47.7000 313.0000 1.0000
47.7100 325.0000 1.0000
47.7200 322.0000 1.0000
47.7300 314.0000 1.0000
47.7400 315.0000 1.0000
47.7500 298.0000 1.0000
47.7600 282.0000 1.0000
47.7700 299.0000 1.0000
47.7800 328.0000 1.0000
47.7900 311.0000 1.0000
47.8000 317.0000 1.0000
47.8100 317.0000 1.0000
47.8200 324.0000 1.0000
47.8300 303.0000 1.0000
47.8400 302.0000 1.0000
47.8500 320.0000 1.0000
47.8600 319.0000 1.0000
47.8700 307.0000 1.0000
47.8800 350.0000 1.0000
47.8900 320.0000 1.0000
47.9000 321.0000 1.0000
47.9100 321.0000 1.0000
47.9200 313.0000 1.0000
47.9300 303.0000 1.0000
47.9400 330.0000 1.0000
47.9500 304.0000 1.0000
47.9600 309.0000 1.0000
47.9700 318.0000 1.0000
47.9800 322.0000 1.0000
47.9900 333.0000 1.0000
48.0000 329.0000 1.0000
48.0100 292.0000 1.0000
48.0200 311.0000 1.0000
48.0300 311.0000 1.0000
48.0400 318.0000 1.0000
48.0500 306.0000 1.0000
48.0600 292.0000 1.0000
48.0700 325.0000 1.0000
48.0800 287.0000 1.0000
48.0900 326.0000 1.0000
48.1000 316.0000 1.0000
48.1100 312.0000 1.0000
48.1200 310.0000 1.0000
48.1300 326.0000 1.0000
48.1400 309.0000 1.0000
48.1500 288.0000 1.0000
48.1600 292.0000 1.0000
48.1700 299.0000 1.0000
48.1800 285.0000 1.0000
48.1900 299.0000 1.0000
48.2000 313.0000 1.0000
48.2100 324.0000 1.0000
48.2200 297.0000 1.0000
48.2300 297.0000 1.0000
48.2400 327.0000 1.0000
48.2500 292.0000 1.0000
48.2600 301.0000 1.0000
48.2700 286.0000 1.0000
48.2800 325.0000 1.0000
48.2900 325.0000 1.0000
48.3000 326.0000 1.0000
48.3100 332.0000 1.0000
48.3200 328.0000 1.0000
48.3300 300.0000 1.0000
48.3400 278.0000 1.0000
48.3500 284.0000 1.0000
48.3600 291.0000 1.0000
48.3700 316.0000 1.0000
48.3800 324.0000 1.0000
48.3900 337.0000 1.0000
48.4000 312.0000 1.0000
48.4100 315.0000 1.0000
48.4200 324.0000 1.0000
48.4300 295.0000 1.0000
48.4400 315.0000 1.0000
48.4500 324.0000 1.0000
48.4600 300.0000 1.0000
48.4700 326.0000 1.0000
48.4800 282.0000 1.0000
48.4900 281.0000 1.0000
48.5000 295.0000 1.0000
48.5100 317.0000 1.0000
48.5200 339.0000 1.0000
48.5300 327.0000 1.0000
48.5400 318.0000 1.0000
48.5500 343.0000 1.0000
48.5600 329.0000 1.0000
48.5700 295.0000 1.0000
48.5800 285.0000 1.0000
48.5900 297.0000 1.0000
48.6000 305.0000 1.0000
48.6100 346.0000 1.0000
48.6200 333.0000 1.0000
48.6300 308.0000 1.0000
48.6400 320.0000 1.0000
48.6500 315.0000 1.0000
48.6600 329.0000 1.0000
48.6700 300.0000 1.0000
48.6800 312.0000 1.0000
48.6900 296.0000 1.0000
48.7000 319.0000 1.0000
48.7100 327.0000 1.0000
48.7200 324.0000 1.0000
48.7300 348.0000 1.0000
48.7400 299.0000 1.0000
48.7500 319.0000 1.0000
48.7600 302.0000 1.0000
48.7700 317.0000 1.0000
48.7800 330.0000 1.0000
48.7900 309.0000 1.0000
48.8000 324.0000 1.0000
48.8100 324.0000 1.0000
48.8200 317.0000 1.0000
48.8300 320.0000 1.0000
48.8400 304.0000 1.0000
48.8500 302.0000 1.0000
48.8600 264.0000 1.0000
48.8700 341.0000 1.0000
48.8800 311.0000 1.0000
48.8900 295.0000 1.0000
48.9000 296.0000 1.0000
48.9100 297.0000 1.0000
48.9200 283.0000 1.0000
48.9300 299.0000 1.0000
48.9400 312.0000 1.0000
48.9500 305.0000 1.0000
48.9600 324.0000 1.0000
48.9700 311.0000 1.0000
48.9800 321.0000 1.0000
48.9900 321.0000 1.0000
49.0000 311.0000 1.0000
49.0100 304.0000 1.0000
49.0200 308.0000 1.0000
49.0300 310.0000 1.0000
49.0400 312.0000 1.0000
49.0500 305.0000 1.0000
49.0600 317.0000 1.0000
49.0700 310.0000 1.0000
49.0800 306.0000 1.0000
49.0900 287.0000 1.0000
49.1000 320.0000 1.0000
49.1100 310.0000 1.0000
49.1200 299.0000 1.0000
49.1300 330.0000 1.0000
49.1400 319.0000 1.0000
49.1500 322.0000 1.0000
49.1600 287.0000 1.0000
49.1700 303.0000 1.0000
49.1800 308.0000 1.0000
49.1900 309.0000 1.0000
49.2000 311.0000 1.0000
49.2100 296.0000 1.0000
49.2200 290.0000 1.0000
49.2300 298.0000 1.0000
49.2400 290.0000 1.0000
49.2500 314.0000 1.0000
49.2600 295.0000 1.0000
49.2700 305.0000 1.0000
49.2800 289.0000 1.0000
49.2900 299.0000 1.0000
49.3000 295.0000 1.0000
49.3100 294.0000 1.0000
49.3200 312.0000 1.0000
49.3300 298.0000 1.0000
49.3400 289.0000 1.0000
49.3500 328.0000 1.0000
49.3600 278.0000 1.0000
49.3700 298.0000 1.0000
49.3800 276.0000 1.0000
49.3900 297.0000 1.0000
49.4000 303.0000 1.0000
49.4100 293.0000 1.0000
49.4200 308.0000 1.0000
49.4300 293.0000 1.0000
49.4400 313.0000 1.0000
49.4500 290.0000 1.0000
49.4600 267.0000 1.0000
49.4700 291.0000 1.0000
49.4800 308.0000 1.0000
49.4900 291.0000 1.0000
49.5000 286.0000 1.0000
49.5100 274.0000 1.0000
49.5200 318.0000 1.0000
49.5300 305.0000 1.0000
49.5400 277.0000 1.0000
49.5500 304.0000 1.0000
49.5600 302.0000 1.0000
49.5700 306.0000 1.0000
49.5800 293.0000 1.0000
49.5900 322.0000 1.0000
49.6000 294.0000 1.0000
49.6100 288.0000 1.0000
49.6200 305.0000 1.0000
49.6300 288.0000 1.0000
49.6400 280.0000 1.0000
49.6500 322.0000 1.0000
49.6600 303.0000 1.0000
49.6700 316.0000 1.0000
49.6800 317.0000 1.0000
49.6900 308.0000 1.0000
49.7000 292.0000 1.0000
49.7100 307.0000 1.0000
49.7200 313.0000 1.0000
49.7300 303.0000 1.0000
49.7400 310.0000 1.0000
49.7500 286.0000 1.0000
49.7600 319.0000 1.0000
49.7700 287.0000 1.0000
49.7800 287.0000 1.0000
49.7900 314.0000 1.0000
49.8000 302.0000 1.0000
49.8100 341.0000 1.0000
49.8200 333.0000 1.0000
49.8300 318.0000 1.0000
49.8400 310.0000 1.0000
49.8500 312.0000 1.0000
49.8600 317.0000 1.0000
49.8700 290.0000 1.0000
49.8800 321.0000 1.0000
49.8900 320.0000 1.0000
49.9000 310.0000 1.0000
49.9100 291.0000 1.0000
49.9200 293.0000 1.0000
49.9300 272.0000 1.0000
49.9400 284.0000 1.0000
49.9500 288.0000 1.0000
49.9600 278.0000 1.0000
49.9700 309.0000 1.0000
49.9800 310.0000 1.0000
49.9900 295.0000 1.0000
50.0000 292.0000 1.0000
50.0100 309.0000 1.0000
50.0200 279.0000 1.0000
50.0300 293.0000 1.0000
50.0400 338.0000 1.0000
50.0500 286.0000 1.0000
50.0600 300.0000 1.0000
50.0700 313.0000 1.0000
50.0800 308.0000 1.0000
50.0900 313.0000 1.0000
50.1000 312.0000 1.0000
50.1100 283.0000 1.0000
50.1200 295.0000 1.0000
50.1300 322.0000 1.0000
50.1400 317.0000 1.0000
50.1500 324.0000 1.0000
50.1600 343.0000 1.0000
50.1700 326.0000 1.0000
50.1800 287.0000 1.0000
50.1900 317.0000 1.0000
50.2000 315.0000 1.0000
50.2100 326.0000 1.0000
50.2200 322.0000 1.0000
50.2300 323.0000 1.0000
50.2400 327.0000 1.0000
50.2500 306.0000 1.0000
50.2600 320.0000 1.0000
50.2700 308.0000 1.0000
50.2800 354.0000 1.0000
50.2900 297.0000 1.0000
50.3000 302.0000 1.0000
50.3100 335.0000 1.0000
50.3200 303.0000 1.0000
50.3300 324.0000 1.0000
50.3400 323.0000 1.0000
50.3500 323.0000 1.0000
50.3600 302.0000 1.0000
50.3700 324.0000 1.0000
50.3800 307.0000 1.0000
50.3900 312.0000 1.0000
50.4000 315.0000 1.0000
50.4100 338.0000 1.0000
50.4200 339.0000 1.0000
50.4300 318.0000 1.0000
50.4400 327.0000 1.0000
50.4500 310.0000 1.0000
50.4600 307.0000 1.0000
50.4700 308.0000 1.0000
50.4800 300.0000 1.0000
50.4900 301.0000 1.0000
50.5000 326.0000 1.0000
50.5100 335.0000 1.0000
50.5200 327.0000 1.0000
50.5300 312.0000 1.0000
50.5400 282.0000 1.0000
50.5500 302.0000 1.0000
50.5600 342.0000 1.0000
50.5700 303.0000 1.0000
50.5800 333.0000 1.0000
50.5900 311.0000 1.0000
50.6000 316.0000 1.0000
50.6100 336.0000 1.0000
50.6200 306.0000 1.0000
50.6300 308.0000 1.0000
50.6400 322.0000 1.0000
50.6500 320.0000 1.0000
50.6600 317.0000 1.0000
50.6700 303.0000 1.0000
50.6800 306.0000 1.0000
50.6900 318.0000 1.0000
50.7000 323.0000 1.0000
50.7100 301.0000 1.0000
50.7200 320.0000 1.0000
50.7300 329.0000 1.0000
50.7400 321.0000 1.0000
50.7500 309.0000 1.0000
50.7600 310.0000 1.0000
50.7700 309.0000 1.0000
50.7800 317.0000 1.0000
50.7900 303.0000 1.0000
50.8000 315.0000 1.0000
50.8100 309.0000 1.0000
50.8200 322.0000 1.0000
50.8300 301.0000 1.0000
50.8400 326.0000 1.0000
50.8500 285.0000 1.0000
50.8600 280.0000 1.0000
50.8700 309.0000 1.0000
50.8800 333.0000 1.0000
50.8900 328.0000 1.0000
50.9000 326.0000 1.0000
50.9100 308.0000 1.0000
50.9200 327.0000 1.0000
50.9300 299.0000 1.0000
50.9400 320.0000 1.0000
50.9500 305.0000 1.0000
50.9600 305.0000 1.0000
50.9700 333.0000 1.0000
50.9800 309.0000 1.0000
50.9900 303.0000 1.0000
51.0000 317.0000 1.0000
51.0100 326.0000 1.0000
51.0200 336.0000 1.0000
51.0300 336.0000 1.0000
51.0400 342.0000 1.0000
51.0500 304.0000 1.0000
51.0600 321.0000 1.0000
51.0700 318.0000 1.0000
51.0800 333.0000 1.0000
51.0900 277.0000 1.0000
51.1000 311.0000 1.0000
51.1100 299.0000 1.0000
51.1200 309.0000 1.0000
51.1300 309.0000 1.0000
51.1400 308.0000 1.0000
51.1500 303.0000 1.0000
51.1600 327.0000 1.0000
51.1700 289.0000 1.0000
51.1800 309.0000 1.0000
51.1900 344.0000 1.0000
51.2000 310.0000 1.0000
51.2100 294.0000 1.0000
51.2200 313.0000 1.0000
51.2300 355.0000 1.0000
51.2400 303.0000 1.0000
51.2500 325.0000 1.0000
51.2600 326.0000 1.0000
51.2700 305.0000 1.0000
51.2800 311.0000 1.0000
51.2900 329.0000 1.0000
51.3000 306.0000 1.0000
51.3100 323.0000 1.0000
51.3200 293.0000 1.0000
51.3300 336.0000 1.0000
51.3400 308.0000 1.0000
51.3500 312.0000 1.0000
51.3600 322.0000 1.0000
51.3700 314.0000 1.0000
51.3800 312.0000 1.0000
51.3900 304.0000 1.0000
51.4000 299.0000 1.0000
51.4100 288.0000 1.0000
51.4200 308.0000 1.0000
51.4300 312.0000 1.0000
51.4400 327.0000 1.0000
51.4500 307.0000 1.0000
51.4600 312.0000 1.0000
51.4700 309.0000 1.0000
51.4800 334.0000 1.0000
51.4900 321.0000 1.0000
51.5000 349.0000 1.0000
51.5100 337.0000 1.0000
51.5200 329.0000 1.0000
51.5300 302.0000 1.0000
51.5400 316.0000 1.0000
51.5500 320.0000 1.0000
51.5600 332.0000 1.0000
51.5700 325.0000 1.0000
51.5800 322.0000 1.0000
51.5900 331.0000 1.0000
51.6000 319.0000 1.0000
51.6100 344.0000 1.0000
51.6200 341.0000 1.0000
51.6300 345.0000 1.0000
51.6400 332.0000 1.0000
51.6500 317.0000 1.0000
51.6600 314.0000 1.0000
51.6700 287.0000 1.0000
51.6800 323.0000 1.0000
51.6900 330.0000 1.0000
51.7000 336.0000 1.0000
51.7100 358.0000 1.0000
51.7200 310.0000 1.0000
51.7300 321.0000 1.0000
51.7400 307.0000 1.0000
51.7500 329.0000 1.0000
51.7600 325.0000 1.0000
51.7700 352.0000 1.0000
51.7800 321.0000 1.0000
51.7900 323.0000 1.0000
51.8000 378.0000 1.0000
51.8100 349.0000 1.0000
51.8200 328.0000 1.0000
51.8300 322.0000 1.0000
51.8400 347.0000 1.0000
51.8500 389.0000 1.0000
51.8600 359.0000 1.0000
51.8700 343.0000 1.0000
51.8800 342.0000 1.0000
51.8900 373.0000 1.0000
51.9000 360.0000 1.0000
51.9100 366.0000 1.0000
51.9200 362.0000 1.0000
51.9300 384.0000 1.0000
51.9400 400.0000 1.0000
51.9500 420.0000 1.0000
51.9600 404.0000 1.0000
51.9700 418.0000 1.0000
51.9800 409.0000 1.0000
51.9900 442.0000 1.0000
52.0000 453.0000 1.0000
52.0100 486.0000 1.0000
52.0200 489.0000 1.0000
52.0300 522.0000 1.0000
52.0400 505.0000 1.0000
52.0500 526.0000 1.0000
52.0600 518.0000 1.0000
52.0700 577.0000 1.0000
52.0800 610.0000 1.0000
52.0900 636.0000 1.0000
52.1000 644.0000 1.0000
52.1100 668.0000 1.0000
52.1200 698.0000 1.0000
52.1300 779.0000 1.0000
52.1400 782.0000 1.0000
52.1500 879.0000 1.0000
52.1600 960.0000 1.0000
52.1700 1012.0000 1.0000
52.1800 1023.0000 1.0000
52.1900 1187.0000 1.0000
52.2000 1256.0000 1.0000
52.2100 1387.0000 1.0000
52.2200 1496.0000 1.0000
52.2300 1639.0000 1.0000
52.2400 1708.0000 1.0000
52.2500 1916.0000 1.0000
52.2600 2011.0000 1.0000
52.2700 2090.0000 1.0000
52.2800 2210.0000 1.0000
52.2900 2245.0000 1.0000
52.3000 2289.0000 1.0000
52.3100 2280.0000 1.0000
52.3200 2268.0000 1.0000
52.3300 2270.0000 1.0000
52.3400 2137.0000 1.0000
52.3500 2039.0000 1.0000
52.3600 2020.0000 1.0000
52.3700 1964.0000 1.0000
52.3800 1874.0000 1.0000
52.3900 1788.0000 1.0000
52.4000 1806.0000 1.0000
52.4100 1641.0000 1.0000
52.4200 1719.0000 1.0000
52.4300 1670.0000 1.0000
52.4400 1653.0000 1.0000
52.4500 1573.0000 1.0000
52.4600 1487.0000 1.0000
52.4700 1395.0000 1.0000
52.4800 1318.0000 1.0000
52.4900 1183.0000 1.0000
52.5000 1126.0000 1.0000
52.5100 1056.0000 1.0000
52.5200 939.0000 1.0000
52.5300 874.0000 1.0000
52.5400 844.0000 1.0000
52.5500 754.0000 1.0000
52.5600 751.0000 1.0000
52.5700 678.0000 1.0000
52.5800 625.0000 1.0000
52.5900 660.0000 1.0000
52.6000 608.0000 1.0000
52.6100 566.0000 1.0000
52.6200 564.0000 1.0000
52.6300 537.0000 1.0000
52.6400 567.0000 1.0000
52.6500 516.0000 1.0000
52.6600 569.0000 1.0000
52.6700 497.0000 1.0000
52.6800 486.0000 1.0000
52.6900 429.0000 1.0000
52.7000 428.0000 1.0000
52.7100 431.0000 1.0000
52.7200 388.0000 1.0000
52.7300 386.0000 1.0000
52.7400 406.0000 1.0000
52.7500 426.0000 1.0000
52.7600 413.0000 1.0000
52.7700 355.0000 1.0000
52.7800 378.0000 1.0000
52.7900 397.0000 1.0000
52.8000 387.0000 1.0000
52.8100 334.0000 1.0000
52.8200 363.0000 1.0000
52.8300 364.0000 1.0000
52.8400 342.0000 1.0000
52.8500 360.0000 1.0000
52.8600 347.0000 1.0000
52.8700 366.0000 1.0000
52.8800 375.0000 1.0000
52.8900 328.0000 1.0000
52.9000 356.0000 1.0000
52.9100 331.0000 1.0000
52.9200 335.0000 1.0000
52.9300 336.0000 1.0000
52.9400 355.0000 1.0000
52.9500 361.0000 1.0000
52.9600 364.0000 1.0000
52.9700 308.0000 1.0000
52.9800 318.0000 1.0000
52.9900 314.0000 1.0000
53.0000 340.0000 1.0000
53.0100 319.0000 1.0000
53.0200 342.0000 1.0000
53.0300 340.0000 1.0000
53.0400 339.0000 1.0000
53.0500 324.0000 1.0000
53.0600 349.0000 1.0000
53.0700 322.0000 1.0000
53.0800 314.0000 1.0000
53.0900 302.0000 1.0000
53.1000 329.0000 1.0000
53.1100 308.0000 1.0000
53.1200 313.0000 1.0000
53.1300 326.0000 1.0000
53.1400 324.0000 1.0000
53.1500 321.0000 1.0000
53.1600 345.0000 1.0000
53.1700 333.0000 1.0000
53.1800 323.0000 1.0000
53.1900 332.0000 1.0000
53.2000 332.0000 1.0000
53.2100 324.0000 1.0000
53.2200 308.0000 1.0000
53.2300 309.0000 1.0000
53.2400 333.0000 1.0000
53.2500 313.0000 1.0000
53.2600 310.0000 1.0000
53.2700 327.0000 1.0000
53.2800 308.0000 1.0000
53.2900 335.0000 1.0000
53.3000 311.0000 1.0000
53.3100 312.0000 1.0000
53.3200 292.0000 1.0000
53.3300 311.0000 1.0000
53.3400 304.0000 1.0000
53.3500 303.0000 1.0000
53.3600 329.0000 1.0000
53.3700 310.0000 1.0000
53.3800 309.0000 1.0000
53.3900 313.0000 1.0000
53.4000 294.0000 1.0000
53.4100 311.0000 1.0000
53.4200 311.0000 1.0000
53.4300 312.0000 1.0000
53.4400 312.0000 1.0000
53.4500 284.0000 1.0000
53.4600 313.0000 1.0000
53.4700 304.0000 1.0000
53.4800 316.0000 1.0000
53.4900 317.0000 1.0000
53.5000 325.0000 1.0000
53.5100 313.0000 1.0000
53.5200 312.0000 1.0000
53.5300 324.0000 1.0000
53.5400 295.0000 1.0000
53.5500 322.0000 1.0000
53.5600 317.0000 1.0000
53.5700 311.0000 1.0000
53.5800 292.0000 1.0000
53.5900 303.0000 1.0000
53.6000 301.0000 1.0000
53.6100 298.0000 1.0000
53.6200 294.0000 1.0000
53.6300 308.0000 1.0000
53.6400 296.0000 1.0000
53.6500 295.0000 1.0000
53.6600 286.0000 1.0000
53.6700 296.0000 1.0000
53.6800 314.0000 1.0000
53.6900 299.0000 1.0000
53.7000 302.0000 1.0000
53.7100 285.0000 1.0000
53.7200 280.0000 1.0000
53.7300 293.0000 1.0000
53.7400 287.0000 1.0000
53.7500 301.0000 1.0000
53.7600 319.0000 1.0000
53.7700 314.0000 1.0000
53.7800 295.0000 1.0000
53.7900 271.0000 1.0000
53.8000 282.0000 1.0000
53.8100 320.0000 1.0000
53.8200 301.0000 1.0000
53.8300 300.0000 1.0000
53.8400 318.0000 1.0000
53.8500 276.0000 1.0000
53.8600 308.0000 1.0000
53.8700 323.0000 1.0000
53.8800 319.0000 1.0000
53.8900 314.0000 1.0000
53.9000 299.0000 1.0000
53.9100 302.0000 1.0000
53.9200 300.0000 1.0000
53.9300 276.0000 1.0000
53.9400 281.0000 1.0000
53.9500 309.0000 1.0000
53.9600 306.0000 1.0000
53.9700 314.0000 1.0000
53.9800 311.0000 1.0000
53.9900 310.0000 1.0000
54.0000 297.0000 1.0000
54.0100 288.0000 1.0000
54.0200 306.0000 1.0000
54.0300 318.0000 1.0000
54.0400 322.0000 1.0000
54.0500 313.0000 1.0000
54.0600 324.0000 1.0000
54.0700 312.0000 1.0000
54.0800 297.0000 1.0000
54.0900 292.0000 1.0000
54.1000 280.0000 1.0000
54.1100 276.0000 1.0000
54.1200 318.0000 1.0000
54.1300 295.0000 1.0000
54.1400 299.0000 1.0000
54.1500 295.0000 1.0000
54.1600 317.0000 1.0000
54.1700 315.0000 1.0000
54.1800 325.0000 1.0000
54.1900 288.0000 1.0000
54.2000 294.0000 1.0000
54.2100 297.0000 1.0000
54.2200 314.0000 1.0000
54.2300 314.0000 1.0000
54.2400 291.0000 1.0000
54.2500 298.0000 1.0000
54.2600 289.0000 1.0000
54.2700 306.0000 1.0000
54.2800 314.0000 1.0000
54.2900 281.0000 1.0000
54.3000 309.0000 1.0000
54.3100 303.0000 1.0000
54.3200 323.0000 1.0000
54.3300 285.0000 1.0000
54.3400 306.0000 1.0000
54.3500 305.0000 1.0000
54.3600 291.0000 1.0000
54.3700 297.0000 1.0000
54.3800 290.0000 1.0000
54.3900 323.0000 1.0000
54.4000 297.0000 1.0000
54.4100 291.0000 1.0000
54.4200 312.0000 1.0000
54.4300 318.0000 1.0000
54.4400 334.0000 1.0000
54.4500 311.0000 1.0000
54.4600 311.0000 1.0000
54.4700 299.0000 1.0000
54.4800 298.0000 1.0000
54.4900 297.0000 1.0000
54.5000 311.0000 1.0000
54.5100 315.0000 1.0000
54.5200 321.0000 1.0000
54.5300 293.0000 1.0000
54.5400 319.0000 1.0000
54.5500 298.0000 1.0000
54.5600 297.0000 1.0000
54.5700 302.0000 1.0000
54.5800 295.0000 1.0000
54.5900 319.0000 1.0000
54.6000 344.0000 1.0000
54.6100 296.0000 1.0000
54.6200 316.0000 1.0000
54.6300 320.0000 1.0000
54.6400 294.0000 1.0000
54.6500 294.0000 1.0000
54.6600 304.0000 1.0000
54.6700 313.0000 1.0000
54.6800 287.0000 1.0000
54.6900 326.0000 1.0000
54.7000 328.0000 1.0000
54.7100 344.0000 1.0000
54.7200 330.0000 1.0000
54.7300 322.0000 1.0000
54.7400 303.0000 1.0000
54.7500 300.0000 1.0000
54.7600 316.0000 1.0000
54.7700 321.0000 1.0000
54.7800 342.0000 1.0000
54.7900 323.0000 1.0000
54.8000 313.0000 1.0000
54.8100 302.0000 1.0000
54.8200 302.0000 1.0000
54.8300 324.0000 1.0000
54.8400 304.0000 1.0000
54.8500 333.0000 1.0000
54.8600 330.0000 1.0000
54.8700 323.0000 1.0000
54.8800 323.0000 1.0000
54.8900 312.0000 1.0000
54.9000 330.0000 1.0000
54.9100 335.0000 1.0000
54.9200 316.0000 1.0000
54.9300 305.0000 1.0000
54.9400 326.0000 1.0000
54.9500 354.0000 1.0000
54.9600 350.0000 1.0000
54.9700 293.0000 1.0000
54.9800 326.0000 1.0000
54.9900 332.0000 1.0000
55.0000 332.0000 1.0000
55.0100 349.0000 1.0000
55.0200 328.0000 1.0000
55.0300 328.0000 1.0000
55.0400 351.0000 1.0000
55.0500 328.0000 1.0000
55.0600 316.0000 1.0000
55.0700 319.0000 1.0000
55.0800 350.0000 1.0000
55.0900 343.0000 1.0000
55.1000 334.0000 1.0000
55.1100 329.0000 1.0000
55.1200 356.0000 1.0000
55.1300 353.0000 1.0000
55.1400 374.0000 1.0000
55.1500 373.0000 1.0000
55.1600 381.0000 1.0000
55.1700 403.0000 1.0000
55.1800 381.0000 1.0000
55.1900 397.0000 1.0000
55.2000 368.0000 1.0000
55.2100 371.0000 1.0000
55.2200 388.0000 1.0000
55.2300 432.0000 1.0000
55.2400 420.0000 1.0000
55.2500 456.0000 1.0000
55.2600 427.0000 1.0000
55.2700 438.0000 1.0000
55.2800 440.0000 1.0000
55.2900 455.0000 1.0000
55.3000 454.0000 1.0000
55.3100 469.0000 1.0000
55.3200 508.0000 1.0000
55.3300 462.0000 1.0000
55.3400 494.0000 1.0000
55.3500 484.0000 1.0000
55.3600 479.0000 1.0000
55.3700 432.0000 1.0000
55.3800 455.0000 1.0000
55.3900 424.0000 1.0000
55.4000 455.0000 1.0000
55.4100 467.0000 1.0000
55.4200 445.0000 1.0000
55.4300 441.0000 1.0000
55.4400 435.0000 1.0000
55.4500 397.0000 1.0000
55.4600 385.0000 1.0000
55.4700 428.0000 1.0000
55.4800 443.0000 1.0000
55.4900 406.0000 1.0000
55.5000 386.0000 1.0000
55.5100 378.0000 1.0000
55.5200 394.0000 1.0000
55.5300 392.0000 1.0000
55.5400 384.0000 1.0000
55.5500 393.0000 1.0000
55.5600 336.0000 1.0000
55.5700 352.0000 1.0000
55.5800 352.0000 1.0000
55.5900 339.0000 1.0000
55.6000 347.0000 1.0000
55.6100 341.0000 1.0000
55.6200 330.0000 1.0000
55.6300 345.0000 1.0000
55.6400 359.0000 1.0000
55.6500 339.0000 1.0000
55.6600 338.0000 1.0000
55.6700 338.0000 1.0000
55.6800 334.0000 1.0000
55.6900 347.0000 1.0000
55.7000 308.0000 1.0000
55.7100 327.0000 1.0000
55.7200 323.0000 1.0000
55.7300 298.0000 1.0000
55.7400 307.0000 1.0000
55.7500 308.0000 1.0000
55.7600 340.0000 1.0000
55.7700 315.0000 1.0000
55.7800 318.0000 1.0000
55.7900 317.0000 1.0000
55.8000 314.0000 1.0000
55.8100 320.0000 1.0000
55.8200 296.0000 1.0000
55.8300 324.0000 1.0000
55.8400 283.0000 1.0000
55.8500 329.0000 1.0000
55.8600 309.0000 1.0000
55.8700 321.0000 1.0000
55.8800 298.0000 1.0000
55.8900 302.0000 1.0000
55.9000 318.0000 1.0000
55.9100 284.0000 1.0000
55.9200 292.0000 1.0000
55.9300 288.0000 1.0000
55.9400 289.0000 1.0000
55.9500 295.0000 1.0000
55.9600 323.0000 1.0000
55.9700 303.0000 1.0000
55.9800 267.0000 1.0000
55.9900 294.0000 1.0000
56.0000 293.0000 1.0000
56.0100 284.0000 1.0000
56.0200 280.0000 1.0000
56.0300 297.0000 1.0000
56.0400 304.0000 1.0000
56.0500 290.0000 1.0000
56.0600 292.0000 1.0000
56.0700 300.0000 1.0000
56.0800 292.0000 1.0000
56.0900 286.0000 1.0000
56.1000 284.0000 1.0000
56.1100 313.0000 1.0000
56.1200 282.0000 1.0000
56.1300 284.0000 1.0000
56.1400 304.0000 1.0000
56.1500 295.0000 1.0000
56.1600 290.0000 1.0000
56.1700 304.0000 1.0000
56.1800 300.0000 1.0000
56.1900 308.0000 1.0000
56.2000 282.0000 1.0000
56.2100 274.0000 1.0000
56.2200 299.0000 1.0000
56.2300 304.0000 1.0000
56.2400 296.0000 1.0000
56.2500 294.0000 1.0000
56.2600 310.0000 1.0000
56.2700 289.0000 1.0000
56.2800 307.0000 1.0000
56.2900 277.0000 1.0000
56.3000 300.0000 1.0000
56.3100 293.0000 1.0000
56.3200 331.0000 1.0000
56.3300 313.0000 1.0000
56.3400 273.0000 1.0000
56.3500 297.0000 1.0000
56.3600 298.0000 1.0000
56.3700 273.0000 1.0000
56.3800 299.0000 1.0000
56.3900 287.0000 1.0000
56.4000 278.0000 1.0000
56.4100 281.0000 1.0000
56.4200 262.0000 1.0000
56.4300 286.0000 1.0000
56.4400 295.0000 1.0000
56.4500 286.0000 1.0000
56.4600 305.0000 1.0000
56.4700 287.0000 1.0000
56.4800 308.0000 1.0000
56.4900 282.0000 1.0000
56.5000 278.0000 1.0000
56.5100 304.0000 1.0000
56.5200 313.0000 1.0000
56.5300 285.0000 1.0000
56.5400 306.0000 1.0000
56.5500 318.0000 1.0000
56.5600 283.0000 1.0000
56.5700 290.0000 1.0000
56.5800 277.0000 1.0000
56.5900 308.0000 1.0000
56.6000 276.0000 1.0000
56.6100 290.0000 1.0000
56.6200 274.0000 1.0000
56.6300 295.0000 1.0000
56.6400 292.0000 1.0000
56.6500 308.0000 1.0000
56.6600 296.0000 1.0000
56.6700 295.0000 1.0000
56.6800 283.0000 1.0000
56.6900 313.0000 1.0000
56.7000 320.0000 1.0000
56.7100 305.0000 1.0000
56.7200 307.0000 1.0000
56.7300 305.0000 1.0000
56.7400 303.0000 1.0000
56.7500 304.0000 1.0000
56.7600 284.0000 1.0000
56.7700 275.0000 1.0000
56.7800 298.0000 1.0000
56.7900 269.0000 1.0000
56.8000 297.0000 1.0000
56.8100 298.0000 1.0000
56.8200 284.0000 1.0000
56.8300 302.0000 1.0000
56.8400 295.0000 1.0000
56.8500 269.0000 1.0000
56.8600 278.0000 1.0000
56.8700 282.0000 1.0000
56.8800 269.0000 1.0000
56.8900 291.0000 1.0000
56.9000 301.0000 1.0000
56.9100 299.0000 1.0000
56.9200 280.0000 1.0000
56.9300 319.0000 1.0000
56.9400 303.0000 1.0000
56.9500 303.0000 1.0000
56.9600 283.0000 1.0000
56.9700 323.0000 1.0000
56.9800 297.0000 1.0000
56.9900 273.0000 1.0000
57.0000 304.0000 1.0000
57.0100 304.0000 1.0000
57.0200 292.0000 1.0000
57.0300 290.0000 1.0000
57.0400 318.0000 1.0000
57.0500 283.0000 1.0000
57.0600 294.0000 1.0000
57.0700 283.0000 1.0000
57.0800 302.0000 1.0000
57.0900 308.0000 1.0000
57.1000 285.0000 1.0000
57.1100 298.0000 1.0000
57.1200 278.0000 1.0000
57.1300 293.0000 1.0000
57.1400 274.0000 1.0000
57.1500 274.0000 1.0000
57.1600 265.0000 1.0000
57.1700 284.0000 1.0000
57.1800 255.0000 1.0000
57.1900 296.0000 1.0000
57.2000 297.0000 1.0000
57.2100 284.0000 1.0000
57.2200 292.0000 1.0000
57.2300 283.0000 1.0000
57.2400 258.0000 1.0000
57.2500 267.0000 1.0000
57.2600 287.0000 1.0000
57.2700 314.0000 1.0000
57.2800 291.0000 1.0000
57.2900 284.0000 1.0000
57.3000 300.0000 1.0000
57.3100 303.0000 1.0000
57.3200 320.0000 1.0000
57.3300 291.0000 1.0000
57.3400 284.0000 1.0000
57.3500 280.0000 1.0000
57.3600 288.0000 1.0000
57.3700 262.0000 1.0000
57.3800 338.0000 1.0000
57.3900 292.0000 1.0000
57.4000 278.0000 1.0000
57.4100 283.0000 1.0000
57.4200 275.0000 1.0000
57.4300 304.0000 1.0000
57.4400 304.0000 1.0000
57.4500 302.0000 1.0000
57.4600 302.0000 1.0000
57.4700 306.0000 1.0000
57.4800 288.0000 1.0000
57.4900 293.0000 1.0000
57.5000 288.0000 1.0000
57.5100 308.0000 1.0000
57.5200 269.0000 1.0000
57.5300 284.0000 1.0000
57.5400 306.0000 1.0000
57.5500 298.0000 1.0000
57.5600 313.0000 1.0000
57.5700 293.0000 1.0000
57.5800 296.0000 1.0000
57.5900 298.0000 1.0000
57.6000 277.0000 1.0000
57.6100 298.0000 1.0000
57.6200 314.0000 1.0000
57.6300 292.0000 1.0000
57.6400 284.0000 1.0000
57.6500 276.0000 1.0000
57.6600 294.0000 1.0000
57.6700 274.0000 1.0000
57.6800 301.0000 1.0000
57.6900 262.0000 1.0000
57.7000 284.0000 1.0000
57.7100 300.0000 1.0000
57.7200 299.0000 1.0000
57.7300 250.0000 1.0000
57.7400 292.0000 1.0000
57.7500 291.0000 1.0000
57.7600 276.0000 1.0000
57.7700 294.0000 1.0000
57.7800 243.0000 1.0000
57.7900 285.0000 1.0000
57.8000 300.0000 1.0000
57.8100 299.0000 1.0000
57.8200 295.0000 1.0000
57.8300 286.0000 1.0000
57.8400 258.0000 1.0000
57.8500 292.0000 1.0000
57.8600 279.0000 1.0000
57.8700 266.0000 1.0000
57.8800 283.0000 1.0000
57.8900 300.0000 1.0000
57.9000 283.0000 1.0000
57.9100 271.0000 1.0000
57.9200 294.0000 1.0000
57.9300 300.0000 1.0000
57.9400 281.0000 1.0000
57.9500 287.0000 1.0000
57.9600 292.0000 1.0000
57.9700 296.0000 1.0000
57.9800 311.0000 1.0000
57.9900 283.0000 1.0000
58.0000 292.0000 1.0000
58.0100 304.0000 1.0000
58.0200 335.0000 1.0000
58.0300 297.0000 1.0000
58.0400 298.0000 1.0000
58.0500 274.0000 1.0000
58.0600 295.0000 1.0000
58.0700 263.0000 1.0000
58.0800 278.0000 1.0000
58.0900 298.0000 1.0000
58.1000 291.0000 1.0000
58.1100 295.0000 1.0000
58.1200 262.0000 1.0000
58.1300 276.0000 1.0000
58.1400 291.0000 1.0000
58.1500 288.0000 1.0000
58.1600 301.0000 1.0000
58.1700 259.0000 1.0000
58.1800 312.0000 1.0000
58.1900 294.0000 1.0000
58.2000 285.0000 1.0000
58.2100 278.0000 1.0000
58.2200 296.0000 1.0000
58.2300 292.0000 1.0000
58.2400 280.0000 1.0000
58.2500 318.0000 1.0000
58.2600 288.0000 1.0000
58.2700 308.0000 1.0000
58.2800 310.0000 1.0000
58.2900 301.0000 1.0000
58.3000 285.0000 1.0000
58.3100 285.0000 1.0000
58.3200 308.0000 1.0000
58.3300 315.0000 1.0000
58.3400 290.0000 1.0000
58.3500 291.0000 1.0000
58.3600 316.0000 1.0000
58.3700 322.0000 1.0000
58.3800 291.0000 1.0000
58.3900 311.0000 1.0000
58.4000 307.0000 1.0000
58.4100 299.0000 1.0000
58.4200 308.0000 1.0000
58.4300 285.0000 1.0000
58.4400 291.0000 1.0000
58.4500 288.0000 1.0000
58.4600 308.0000 1.0000
58.4700 312.0000 1.0000
58.4800 301.0000 1.0000
58.4900 302.0000 1.0000
58.5000 248.0000 1.0000
58.5100 277.0000 1.0000
58.5200 275.0000 1.0000
58.5300 306.0000 1.0000
58.5400 321.0000 1.0000
58.5500 270.0000 1.0000
58.5600 277.0000 1.0000
58.5700 297.0000 1.0000
58.5800 272.0000 1.0000
58.5900 272.0000 1.0000
58.6000 287.0000 1.0000
58.6100 318.0000 1.0000
58.6200 284.0000 1.0000
58.6300 325.0000 1.0000
58.6400 272.0000 1.0000
58.6500 283.0000 1.0000
58.6600 333.0000 1.0000
58.6700 288.0000 1.0000
58.6800 284.0000 1.0000
58.6900 296.0000 1.0000
58.7000 284.0000 1.0000
58.7100 312.0000 1.0000
58.7200 295.0000 1.0000
58.7300 275.0000 1.0000
58.7400 269.0000 1.0000
58.7500 285.0000 1.0000
58.7600 277.0000 1.0000
58.7700 283.0000 1.0000
58.7800 293.0000 1.0000
58.7900 271.0000 1.0000
58.8000 269.0000 1.0000
58.8100 304.0000 1.0000
58.8200 289.0000 1.0000
58.8300 284.0000 1.0000
58.8400 277.0000 1.0000
58.8500 273.0000 1.0000
58.8600 277.0000 1.0000
58.8700 289.0000 1.0000
58.8800 295.0000 1.0000
58.8900 301.0000 1.0000
58.9000 299.0000 1.0000
58.9100 287.0000 1.0000
58.9200 271.0000 1.0000
58.9300 275.0000 1.0000
58.9400 286.0000 1.0000
58.9500 301.0000 1.0000
58.9600 270.0000 1.0000
58.9700 262.0000 1.0000
58.9800 284.0000 1.0000
58.9900 278.0000 1.0000
59.0000 280.0000 1.0000
59.0100 291.0000 1.0000
59.0200 265.0000 1.0000
59.0300 294.0000 1.0000
59.0400 280.0000 1.0000
59.0500 271.0000 1.0000
59.0600 285.0000 1.0000
59.0700 314.0000 1.0000
59.0800 287.0000 1.0000
59.0900 304.0000 1.0000
59.1000 309.0000 1.0000
59.1100 295.0000 1.0000
59.1200 287.0000 1.0000
59.1300 291.0000 1.0000
59.1400 277.0000 1.0000
59.1500 296.0000 1.0000
59.1600 278.0000 1.0000
59.1700 264.0000 1.0000
59.1800 288.0000 1.0000
59.1900 264.0000 1.0000
59.2000 271.0000 1.0000
59.2100 260.0000 1.0000
59.2200 291.0000 1.0000
59.2300 329.0000 1.0000
59.2400 294.0000 1.0000
59.2500 295.0000 1.0000
59.2600 284.0000 1.0000
59.2700 301.0000 1.0000
59.2800 304.0000 1.0000
59.2900 304.0000 1.0000
59.3000 299.0000 1.0000
59.3100 283.0000 1.0000
59.3200 287.0000 1.0000
59.3300 291.0000 1.0000
59.3400 296.0000 1.0000
59.3500 282.0000 1.0000
59.3600 291.0000 1.0000
59.3700 327.0000 1.0000
59.3800 301.0000 1.0000
59.3900 286.0000 1.0000
59.4000 314.0000 1.0000
59.4100 292.0000 1.0000
59.4200 294.0000 1.0000
59.4300 275.0000 1.0000
59.4400 303.0000 1.0000
59.4500 288.0000 1.0000
59.4600 303.0000 1.0000
59.4700 308.0000 1.0000
59.4800 292.0000 1.0000
59.4900 284.0000 1.0000
59.5000 292.0000 1.0000
59.5100 288.0000 1.0000
59.5200 257.0000 1.0000
59.5300 285.0000 1.0000
59.5400 265.0000 1.0000
59.5500 306.0000 1.0000
59.5600 273.0000 1.0000
59.5700 296.0000 1.0000
59.5800 271.0000 1.0000
59.5900 269.0000 1.0000
59.6000 288.0000 1.0000
59.6100 258.0000 1.0000
59.6200 278.0000 1.0000
59.6300 283.0000 1.0000
59.6400 317.0000 1.0000
59.6500 307.0000 1.0000
59.6600 284.0000 1.0000
59.6700 300.0000 1.0000
59.6800 315.0000 1.0000
59.6900 290.0000 1.0000
59.7000 287.0000 1.0000
59.7100 273.0000 1.0000
59.7200 297.0000 1.0000
59.7300 282.0000 1.0000
59.7400 286.0000 1.0000
59.7500 258.0000 1.0000
59.7600 291.0000 1.0000
59.7700 278.0000 1.0000
59.7800 274.0000 1.0000
59.7900 270.0000 1.0000
59.8000 287.0000 1.0000
59.8100 314.0000 1.0000
59.8200 285.0000 1.0000
59.8300 277.0000 1.0000
59.8400 254.0000 1.0000
59.8500 289.0000 1.0000
59.8600 266.0000 1.0000
59.8700 282.0000 1.0000
59.8800 287.0000 1.0000
59.8900 295.0000 1.0000
59.9000 261.0000 1.0000
59.9100 286.0000 1.0000
59.9200 286.0000 1.0000
59.9300 274.0000 1.0000
59.9400 272.0000 1.0000
59.9500 260.0000 1.0000
59.9600 310.0000 1.0000
59.9700 284.0000 1.0000
59.9800 295.0000 1.0000
59.9900 303.0000 1.0000
60.0000 295.0000 1.0000
60.0100 258.0000 1.0000
60.0200 287.0000 1.0000
60.0300 304.0000 1.0000
60.0400 291.0000 1.0000
60.0500 283.0000 1.0000
60.0600 282.0000 1.0000
60.0700 270.0000 1.0000
60.0800 293.0000 1.0000
60.0900 283.0000 1.0000
60.1000 286.0000 1.0000
60.1100 278.0000 1.0000
60.1200 277.0000 1.0000
60.1300 303.0000 1.0000
60.1400 282.0000 1.0000
60.1500 286.0000 1.0000
60.1600 288.0000 1.0000
60.1700 288.0000 1.0000
60.1800 284.0000 1.0000
60.1900 308.0000 1.0000
60.2000 296.0000 1.0000
60.2100 271.0000 1.0000
60.2200 289.0000 1.0000
60.2300 269.0000 1.0000
60.2400 293.0000 1.0000
60.2500 303.0000 1.0000
60.2600 266.0000 1.0000
60.2700 282.0000 1.0000
60.2800 275.0000 1.0000
60.2900 274.0000 1.0000
60.3000 284.0000 1.0000
60.3100 279.0000 1.0000
60.3200 256.0000 1.0000
60.3300 287.0000 1.0000
60.3400 259.0000 1.0000
60.3500 279.0000 1.0000
60.3600 277.0000 1.0000
60.3700 313.0000 1.0000
60.3800 277.0000 1.0000
60.3900 284.0000 1.0000
60.4000 281.0000 1.0000
60.4100 302.0000 1.0000
60.4200 281.0000 1.0000
60.4300 271.0000 1.0000
60.4400 281.0000 1.0000
60.4500 287.0000 1.0000
60.4600 262.0000 1.0000
60.4700 283.0000 1.0000
60.4800 280.0000 1.0000
60.4900 286.0000 1.0000
60.5000 282.0000 1.0000
60.5100 271.0000 1.0000
60.5200 264.0000 1.0000
60.5300 277.0000 1.0000
60.5400 297.0000 1.0000
60.5500 297.0000 1.0000
60.5600 308.0000 1.0000
60.5700 298.0000 1.0000
60.5800 326.0000 1.0000
60.5900 297.0000 1.0000
60.6000 280.0000 1.0000
60.6100 283.0000 1.0000
60.6200 287.0000 1.0000
60.6300 281.0000 1.0000
60.6400 287.0000 1.0000
60.6500 276.0000 1.0000
60.6600 276.0000 1.0000
60.6700 311.0000 1.0000
60.6800 271.0000 1.0000
60.6900 266.0000 1.0000
60.7000 277.0000 1.0000
60.7100 284.0000 1.0000
60.7200 304.0000 1.0000
60.7300 281.0000 1.0000
60.7400 269.0000 1.0000
60.7500 279.0000 1.0000
60.7600 271.0000 1.0000
60.7700 296.0000 1.0000
60.7800 298.0000 1.0000
60.7900 280.0000 1.0000
60.8000 274.0000 1.0000
60.8100 296.0000 1.0000
60.8200 279.0000 1.0000
60.8300 281.0000 1.0000
60.8400 279.0000 1.0000
60.8500 300.0000 1.0000
60.8600 289.0000 1.0000
60.8700 273.0000 1.0000
60.8800 306.0000 1.0000
60.8900 287.0000 1.0000
60.9000 277.0000 1.0000
60.9100 302.0000 1.0000
60.9200 278.0000 1.0000
60.9300 286.0000 1.0000
60.9400 274.0000 1.0000
60.9500 280.0000 1.0000
60.9600 277.0000 1.0000
60.9700 282.0000 1.0000
60.9800 278.0000 1.0000
60.9900 244.0000 1.0000
61.0000 269.0000 1.0000
61.0100 285.0000 1.0000
61.0200 303.0000 1.0000
61.0300 279.0000 1.0000
61.0400 289.0000 1.0000
61.0500 297.0000 1.0000
61.0600 281.0000 1.0000
61.0700 283.0000 1.0000
61.0800 285.0000 1.0000
61.0900 285.0000 1.0000
61.1000 303.0000 1.0000
61.1100 282.0000 1.0000
61.1200 294.0000 1.0000
61.1300 312.0000 1.0000
61.1400 292.0000 1.0000
61.1500 298.0000 1.0000
61.1600 278.0000 1.0000
61.1700 281.0000 1.0000
61.1800 269.0000 1.0000
61.1900 259.0000 1.0000
61.2000 274.0000 1.0000
61.2100 294.0000 1.0000
61.2200 278.0000 1.0000
61.2300 292.0000 1.0000
61.2400 289.0000 1.0000
61.2500 302.0000 1.0000
61.2600 275.0000 1.0000
61.2700 284.0000 1.0000
61.2800 291.0000 1.0000
61.2900 286.0000 1.0000
61.3000 307.0000 1.0000
61.3100 310.0000 1.0000
61.3200 275.0000 1.0000
61.3300 298.0000 1.0000
61.3400 277.0000 1.0000
61.3500 256.0000 1.0000
61.3600 290.0000 1.0000
61.3700 287.0000 1.0000
61.3800 290.0000 1.0000
61.3900 289.0000 1.0000
61.4000 298.0000 1.0000
61.4100 296.0000 1.0000
61.4200 307.0000 1.0000
61.4300 283.0000 1.0000
61.4400 298.0000 1.0000
61.4500 304.0000 1.0000
61.4600 281.0000 1.0000
61.4700 291.0000 1.0000
61.4800 284.0000 1.0000
61.4900 286.0000 1.0000
61.5000 266.0000 1.0000
61.5100 260.0000 1.0000
61.5200 276.0000 1.0000
61.5300 298.0000 1.0000
61.5400 282.0000 1.0000
61.5500 286.0000 1.0000
61.5600 284.0000 1.0000
61.5700 262.0000 1.0000
61.5800 321.0000 1.0000
61.5900 283.0000 1.0000
61.6000 302.0000 1.0000
61.6100 304.0000 1.0000
61.6200 283.0000 1.0000
61.6300 298.0000 1.0000
61.6400 310.0000 1.0000
61.6500 312.0000 1.0000
61.6600 311.0000 1.0000
61.6700 289.0000 1.0000
61.6800 276.0000 1.0000
61.6900 309.0000 1.0000
61.7000 278.0000 1.0000
61.7100 293.0000 1.0000
61.7200 268.0000 1.0000
61.7300 287.0000 1.0000
61.7400 314.0000 1.0000
61.7500 277.0000 1.0000
61.7600 299.0000 1.0000
61.7700 301.0000 1.0000
61.7800 286.0000 1.0000
61.7900 292.0000 1.0000
61.8000 298.0000 1.0000
61.8100 307.0000 1.0000
61.8200 298.0000 1.0000
61.8300 296.0000 1.0000
61.8400 305.0000 1.0000
61.8500 310.0000 1.0000
61.8600 325.0000 1.0000
61.8700 331.0000 1.0000
61.8800 332.0000 1.0000
61.8900 288.0000 1.0000
61.9000 305.0000 1.0000
61.9100 310.0000 1.0000
61.9200 333.0000 1.0000
61.9300 285.0000 1.0000
61.9400 292.0000 1.0000
61.9500 342.0000 1.0000
61.9600 333.0000 1.0000
61.9700 350.0000 1.0000
61.9800 327.0000 1.0000
61.9900 359.0000 1.0000
62.0000 362.0000 1.0000
62.0100 360.0000 1.0000
62.0200 343.0000 1.0000
62.0300 334.0000 1.0000
62.0400 337.0000 1.0000
62.0500 353.0000 1.0000
62.0600 370.0000 1.0000
62.0700 363.0000 1.0000
62.0800 403.0000 1.0000
62.0900 385.0000 1.0000
62.1000 382.0000 1.0000
62.1100 388.0000 1.0000
62.1200 401.0000 1.0000
62.1300 404.0000 1.0000
62.1400 421.0000 1.0000
62.1500 447.0000 1.0000
62.1600 461.0000 1.0000
62.1700 463.0000 1.0000
62.1800 490.0000 1.0000
62.1900 503.0000 1.0000
62.2000 518.0000 1.0000
62.2100 498.0000 1.0000
62.2200 490.0000 1.0000
62.2300 559.0000 1.0000
62.2400 570.0000 1.0000
62.2500 599.0000 1.0000
62.2600 577.0000 1.0000
62.2700 579.0000 1.0000
62.2800 608.0000 1.0000
62.2900 651.0000 1.0000
62.3000 635.0000 1.0000
62.3100 617.0000 1.0000
62.3200 618.0000 1.0000
62.3300 629.0000 1.0000
62.3400 664.0000 1.0000
62.3500 623.0000 1.0000
62.3600 597.0000 1.0000
62.3700 637.0000 1.0000
62.3800 587.0000 1.0000
62.3900 588.0000 1.0000
62.4000 546.0000 1.0000
62.4100 575.0000 1.0000
62.4200 551.0000 1.0000
62.4300 554.0000 1.0000
62.4400 562.0000 1.0000
62.4500 563.0000 1.0000
62.4600 558.0000 1.0000
62.4700 563.0000 1.0000
62.4800 555.0000 1.0000
62.4900 573.0000 1.0000
62.5000 548.0000 1.0000
62.5100 508.0000 1.0000
62.5200 457.0000 1.0000
62.5300 498.0000 1.0000
62.5400 492.0000 1.0000
62.5500 487.0000 1.0000
62.5600 492.0000 1.0000
62.5700 455.0000 1.0000
62.5800 455.0000 1.0000
62.5900 432.0000 1.0000
62.6000 403.0000 1.0000
62.6100 393.0000 1.0000
62.6200 390.0000 1.0000
62.6300 396.0000 1.0000
62.6400 379.0000 1.0000
62.6500 377.0000 1.0000
62.6600 384.0000 1.0000
62.6700 365.0000 1.0000
62.6800 371.0000 1.0000
62.6900 367.0000 1.0000
62.7000 398.0000 1.0000
62.7100 357.0000 1.0000
62.7200 357.0000 1.0000
62.7300 357.0000 1.0000
62.7400 383.0000 1.0000
62.7500 352.0000 1.0000
62.7600 321.0000 1.0000
62.7700 306.0000 1.0000
62.7800 362.0000 1.0000
62.7900 333.0000 1.0000
62.8000 344.0000 1.0000
62.8100 329.0000 1.0000
62.8200 340.0000 1.0000
62.8300 325.0000 1.0000
62.8400 325.0000 1.0000
62.8500 346.0000 1.0000
62.8600 321.0000 1.0000
62.8700 331.0000 1.0000
62.8800 319.0000 1.0000
62.8900 319.0000 1.0000
62.9000 318.0000 1.0000
62.9100 317.0000 1.0000
62.9200 311.0000 1.0000
62.9300 283.0000 1.0000
62.9400 311.0000 1.0000
62.9500 310.0000 1.0000
62.9600 307.0000 1.0000
62.9700 318.0000 1.0000
62.9800 330.0000 1.0000
62.9900 287.0000 1.0000
63.0000 304.0000 1.0000
63.0100 296.0000 1.0000
63.0200 297.0000 1.0000
63.0300 295.0000 1.0000
63.0400 296.0000 1.0000
63.0500 298.0000 1.0000
63.0600 277.0000 1.0000
63.0700 278.0000 1.0000
63.0800 326.0000 1.0000
63.0900 297.0000 1.0000
63.1000 306.0000 1.0000
63.1100 306.0000 1.0000
63.1200 312.0000 1.0000
63.1300 295.0000 1.0000
63.1400 326.0000 1.0000
63.1500 296.0000 1.0000
63.1600 284.0000 1.0000
63.1700 310.0000 1.0000
63.1800 304.0000 1.0000
63.1900 284.0000 1.0000
63.2000 297.0000 1.0000
63.2100 304.0000 1.0000
63.2200 279.0000 1.0000
63.2300 301.0000 1.0000
63.2400 296.0000 1.0000
63.2500 300.0000 1.0000
63.2600 315.0000 1.0000
63.2700 282.0000 1.0000
63.2800 298.0000 1.0000
63.2900 283.0000 1.0000
63.3000 283.0000 1.0000
63.3100 273.0000 1.0000
63.3200 298.0000 1.0000
63.3300 303.0000 1.0000
63.3400 296.0000 1.0000
63.3500 284.0000 1.0000
63.3600 288.0000 1.0000
63.3700 286.0000 1.0000
63.3800 310.0000 1.0000
63.3900 285.0000 1.0000
63.4000 314.0000 1.0000
63.4100 273.0000 1.0000
63.4200 271.0000 1.0000
63.4300 300.0000 1.0000
63.4400 288.0000 1.0000
63.4500 289.0000 1.0000
63.4600 279.0000 1.0000
63.4700 289.0000 1.0000
63.4800 272.0000 1.0000
63.4900 256.0000 1.0000
63.5000 288.0000 1.0000
63.5100 259.0000 1.0000
63.5200 289.0000 1.0000
63.5300 291.0000 1.0000
63.5400 288.0000 1.0000
63.5500 297.0000 1.0000
63.5600 298.0000 1.0000
63.5700 301.0000 1.0000
63.5800 309.0000 1.0000
63.5900 307.0000 1.0000
63.6000 311.0000 1.0000
63.6100 292.0000 1.0000
63.6200 269.0000 1.0000
63.6300 277.0000 1.0000
63.6400 285.0000 1.0000
63.6500 281.0000 1.0000
63.6600 307.0000 1.0000
63.6700 278.0000 1.0000
63.6800 269.0000 1.0000
63.6900 261.0000 1.0000
63.7000 277.0000 1.0000
63.7100 266.0000 1.0000
63.7200 268.0000 1.0000
63.7300 291.0000 1.0000
63.7400 281.0000 1.0000
63.7500 280.0000 1.0000
63.7600 300.0000 1.0000
63.7700 276.0000 1.0000
63.7800 285.0000 1.0000
63.7900 268.0000 1.0000
63.8000 283.0000 1.0000
63.8100 290.0000 1.0000
63.8200 288.0000 1.0000
63.8300 293.0000 1.0000
63.8400 279.0000 1.0000
63.8500 270.0000 1.0000
63.8600 293.0000 1.0000
63.8700 299.0000 1.0000
63.8800 274.0000 1.0000
63.8900 265.0000 1.0000
63.9000 297.0000 1.0000
63.9100 261.0000 1.0000
63.9200 258.0000 1.0000
63.9300 295.0000 1.0000
63.9400 267.0000 1.0000
63.9500 288.0000 1.0000
63.9600 307.0000 1.0000
63.9700 306.0000 1.0000
63.9800 263.0000 1.0000
63.9900 285.0000 1.0000
64.0000 278.0000 1.0000
64.0100 301.0000 1.0000
64.0200 298.0000 1.0000
64.0300 293.0000 1.0000
64.0400 296.0000 1.0000
64.0500 292.0000 1.0000
64.0600 288.0000 1.0000
64.0700 290.0000 1.0000
64.0800 287.0000 1.0000
64.0900 294.0000 1.0000
64.1000 311.0000 1.0000
64.1100 282.0000 1.0000
64.1200 273.0000 1.0000
64.1300 291.0000 1.0000
64.1400 279.0000 1.0000
64.1500 285.0000 1.0000
64.1600 265.0000 1.0000
64.1700 271.0000 1.0000
64.1800 275.0000 1.0000
64.1900 290.0000 1.0000
64.2000 245.0000 1.0000
64.2100 262.0000 1.0000
64.2200 255.0000 1.0000
64.2300 280.0000 1.0000
64.2400 275.0000 1.0000
64.2500 314.0000 1.0000
64.2600 280.0000 1.0000
64.2700 273.0000 1.0000
64.2800 308.0000 1.0000
64.2900 298.0000 1.0000
64.3000 321.0000 1.0000
64.3100 306.0000 1.0000
64.3200 301.0000 1.0000
64.3300 290.0000 1.0000
64.3400 294.0000 1.0000
64.3500 298.0000 1.0000
64.3600 306.0000 1.0000
64.3700 289.0000 1.0000
64.3800 299.0000 1.0000
64.3900 263.0000 1.0000
64.4000 287.0000 1.0000
64.4100 288.0000 1.0000
64.4200 291.0000 1.0000
64.4300 285.0000 1.0000
64.4400 283.0000 1.0000
64.4500 287.0000 1.0000
64.4600 320.0000 1.0000
64.4700 322.0000 1.0000
64.4800 296.0000 1.0000
64.4900 308.0000 1.0000
64.5000 312.0000 1.0000
64.5100 323.0000 1.0000
64.5200 319.0000 1.0000
64.5300 297.0000 1.0000
64.5400 321.0000 1.0000
64.5500 343.0000 1.0000
64.5600 316.0000 1.0000
64.5700 294.0000 1.0000
64.5800 334.0000 1.0000
64.5900 320.0000 1.0000
64.6000 334.0000 1.0000
64.6100 325.0000 1.0000
64.6200 331.0000 1.0000
64.6300 324.0000 1.0000
64.6400 335.0000 1.0000
64.6500 336.0000 1.0000
64.6600 362.0000 1.0000
64.6700 349.0000 1.0000
64.6800 326.0000 1.0000
64.6900 350.0000 1.0000
64.7000 360.0000 1.0000
64.7100 362.0000 1.0000
64.7200 336.0000 1.0000
64.7300 349.0000 1.0000
64.7400 333.0000 1.0000
64.7500 356.0000 1.0000
64.7600 351.0000 1.0000
64.7700 366.0000 1.0000
64.7800 349.0000 1.0000
64.7900 339.0000 1.0000
64.8000 334.0000 1.0000
64.8100 353.0000 1.0000
64.8200 339.0000 1.0000
64.8300 338.0000 1.0000
64.8400 351.0000 1.0000
64.8500 347.0000 1.0000
64.8600 347.0000 1.0000
64.8700 344.0000 1.0000
64.8800 333.0000 1.0000
64.8900 341.0000 1.0000
64.9000 328.0000 1.0000
64.9100 319.0000 1.0000
64.9200 348.0000 1.0000
64.9300 323.0000 1.0000
64.9400 313.0000 1.0000
64.9500 310.0000 1.0000
64.9600 324.0000 1.0000
64.9700 328.0000 1.0000
64.9800 326.0000 1.0000
64.9900 332.0000 1.0000
65.0000 293.0000 1.0000
65.0100 314.0000 1.0000
65.0200 307.0000 1.0000
65.0300 329.0000 1.0000
65.0400 338.0000 1.0000
65.0500 307.0000 1.0000
65.0600 315.0000 1.0000
65.0700 323.0000 1.0000
65.0800 330.0000 1.0000
65.0900 326.0000 1.0000
65.1000 304.0000 1.0000
65.1100 310.0000 1.0000
65.1200 300.0000 1.0000
65.1300 325.0000 1.0000
65.1400 284.0000 1.0000
65.1500 283.0000 1.0000
65.1600 309.0000 1.0000
65.1700 297.0000 1.0000
65.1800 303.0000 1.0000
65.1900 291.0000 1.0000
65.2000 294.0000 1.0000
65.2100 304.0000 1.0000
65.2200 334.0000 1.0000
65.2300 300.0000 1.0000
65.2400 306.0000 1.0000
65.2500 316.0000 1.0000
65.2600 317.0000 1.0000
65.2700 301.0000 1.0000
65.2800 276.0000 1.0000
65.2900 302.0000 1.0000
65.3000 298.0000 1.0000
65.3100 293.0000 1.0000
65.3200 291.0000 1.0000
65.3300 280.0000 1.0000
65.3400 275.0000 1.0000
65.3500 292.0000 1.0000
65.3600 306.0000 1.0000
65.3700 298.0000 1.0000
65.3800 282.0000 1.0000
65.3900 300.0000 1.0000
65.4000 291.0000 1.0000
65.4100 284.0000 1.0000
65.4200 285.0000 1.0000
65.4300 302.0000 1.0000
65.4400 280.0000 1.0000
65.4500 264.0000 1.0000
65.4600 309.0000 1.0000
65.4700 278.0000 1.0000
65.4800 277.0000 1.0000
65.4900 276.0000 1.0000
65.5000 277.0000 1.0000
65.5100 285.0000 1.0000
65.5200 288.0000 1.0000
65.5300 294.0000 1.0000
65.5400 284.0000 1.0000
65.5500 296.0000 1.0000
65.5600 315.0000 1.0000
65.5700 294.0000 1.0000
65.5800 287.0000 1.0000
65.5900 278.0000 1.0000
65.6000 288.0000 1.0000
65.6100 309.0000 1.0000
65.6200 290.0000 1.0000
65.6300 269.0000 1.0000
65.6400 265.0000 1.0000
65.6500 263.0000 1.0000
65.6600 271.0000 1.0000
65.6700 288.0000 1.0000
65.6800 288.0000 1.0000
65.6900 288.0000 1.0000
65.7000 296.0000 1.0000
65.7100 301.0000 1.0000
65.7200 297.0000 1.0000
65.7300 310.0000 1.0000
65.7400 300.0000 1.0000
65.7500 293.0000 1.0000
65.7600 293.0000 1.0000
65.7700 290.0000 1.0000
65.7800 329.0000 1.0000
65.7900 333.0000 1.0000
65.8000 303.0000 1.0000
65.8100 326.0000 1.0000
65.8200 348.0000 1.0000
65.8300 307.0000 1.0000
65.8400 302.0000 1.0000
65.8500 288.0000 1.0000
65.8600 297.0000 1.0000
65.8700 310.0000 1.0000
65.8800 350.0000 1.0000
65.8900 325.0000 1.0000
65.9000 316.0000 1.0000
65.9100 350.0000 1.0000
65.9200 366.0000 1.0000
65.9300 351.0000 1.0000
65.9400 344.0000 1.0000
65.9500 386.0000 1.0000
65.9600 394.0000 1.0000
65.9700 398.0000 1.0000
65.9800 359.0000 1.0000
65.9900 365.0000 1.0000
66.0000 386.0000 1.0000
66.0100 393.0000 1.0000
66.0200 381.0000 1.0000
66.0300 419.0000 1.0000
66.0400 407.0000 1.0000
66.0500 410.0000 1.0000
66.0600 462.0000 1.0000
66.0700 423.0000 1.0000
66.0800 477.0000 1.0000
66.0900 476.0000 1.0000
66.1000 502.0000 1.0000
66.1100 504.0000 1.0000
66.1200 571.0000 1.0000
66.1300 580.0000 1.0000
66.1400 562.0000 1.0000
66.1500 625.0000 1.0000
66.1600 642.0000 1.0000
66.1700 724.0000 1.0000
66.1800 718.0000 1.0000
66.1900 765.0000 1.0000
66.2000 846.0000 1.0000
66.2100 915.0000 1.0000
66.2200 892.0000 1.0000
66.2300 948.0000 1.0000
66.2400 996.0000 1.0000
66.2500 993.0000 1.0000
66.2600 1054.0000 1.0000
66.2700 1110.0000 1.0000
66.2800 1082.0000 1.0000
66.2900 1045.0000 1.0000
66.3000 1091.0000 1.0000
66.3100 1115.0000 1.0000
66.3200 1025.0000 1.0000
66.3300 1056.0000 1.0000
66.3400 1033.0000 1.0000
66.3500 1002.0000 1.0000
66.3600 985.0000 1.0000
66.3700 973.0000 1.0000
66.3800 947.0000 1.0000
66.3900 938.0000 1.0000
66.4000 917.0000 1.0000
66.4100 986.0000 1.0000
66.4200 948.0000 1.0000
66.4300 945.0000 1.0000
66.4400 891.0000 1.0000
66.4500 864.0000 1.0000
66.4600 878.0000 1.0000
66.4700 824.0000 1.0000
66.4800 896.0000 1.0000
66.4900 805.0000 1.0000
66.5000 802.0000 1.0000
66.5100 742.0000 1.0000
66.5200 747.0000 1.0000
66.5300 716.0000 1.0000
66.5400 694.0000 1.0000
66.5500 629.0000 1.0000
66.5600 699.0000 1.0000
66.5700 617.0000 1.0000
66.5800 547.0000 1.0000
66.5900 573.0000 1.0000
66.6000 528.0000 1.0000
66.6100 544.0000 1.0000
66.6200 514.0000 1.0000
66.6300 499.0000 1.0000
66.6400 472.0000 1.0000
66.6500 439.0000 1.0000
66.6600 432.0000 1.0000
66.6700 435.0000 1.0000
66.6800 417.0000 1.0000
66.6900 390.0000 1.0000
66.7000 384.0000 1.0000
66.7100 377.0000 1.0000
66.7200 399.0000 1.0000
66.7300 390.0000 1.0000
66.7400 382.0000 1.0000
66.7500 372.0000 1.0000
66.7600 339.0000 1.0000
66.7700 339.0000 1.0000
66.7800 352.0000 1.0000
66.7900 342.0000 1.0000
66.8000 350.0000 1.0000
66.8100 313.0000 1.0000
66.8200 308.0000 1.0000
66.8300 303.0000 1.0000
66.8400 330.0000 1.0000
66.8500 326.0000 1.0000
66.8600 315.0000 1.0000
66.8700 295.0000 1.0000
66.8800 318.0000 1.0000
66.8900 309.0000 1.0000
66.9000 313.0000 1.0000
66.9100 313.0000 1.0000
66.9200 325.0000 1.0000
66.9300 296.0000 1.0000
66.9400 284.0000 1.0000
66.9500 304.0000 1.0000
66.9600 300.0000 1.0000
66.9700 282.0000 1.0000
66.9800 308.0000 1.0000
66.9900 295.0000 1.0000
67.0000 305.0000 1.0000
67.0100 271.0000 1.0000
67.0200 315.0000 1.0000
67.0300 304.0000 1.0000
67.0400 292.0000 1.0000
67.0500 301.0000 1.0000
67.0600 274.0000 1.0000
67.0700 267.0000 1.0000
67.0800 273.0000 1.0000
67.0900 270.0000 1.0000
67.1000 311.0000 1.0000
67.1100 287.0000 1.0000
67.1200 267.0000 1.0000
67.1300 275.0000 1.0000
67.1400 283.0000 1.0000
67.1500 296.0000 1.0000
67.1600 280.0000 1.0000
67.1700 280.0000 1.0000
67.1800 283.0000 1.0000
67.1900 302.0000 1.0000
67.2000 295.0000 1.0000
67.2100 250.0000 1.0000
67.2200 280.0000 1.0000
67.2300 256.0000 1.0000
67.2400 273.0000 1.0000
67.2500 254.0000 1.0000
67.2600 259.0000 1.0000
67.2700 281.0000 1.0000
67.2800 262.0000 1.0000
67.2900 257.0000 1.0000
67.3000 272.0000 1.0000
67.3100 273.0000 1.0000
67.3200 276.0000 1.0000
67.3300 275.0000 1.0000
67.3400 242.0000 1.0000
67.3500 261.0000 1.0000
67.3600 263.0000 1.0000
67.3700 271.0000 1.0000
67.3800 274.0000 1.0000
67.3900 266.0000 1.0000
67.4000 267.0000 1.0000
67.4100 259.0000 1.0000
67.4200 278.0000 1.0000
67.4300 257.0000 1.0000
67.4400 248.0000 1.0000
67.4500 264.0000 1.0000
67.4600 276.0000 1.0000
67.4700 272.0000 1.0000
67.4800 249.0000 1.0000
67.4900 258.0000 1.0000
67.5000 242.0000 1.0000
67.5100 249.0000 1.0000
67.5200 246.0000 1.0000
67.5300 269.0000 1.0000
67.5400 253.0000 1.0000
67.5500 281.0000 1.0000
67.5600 272.0000 1.0000
67.5700 268.0000 1.0000
67.5800 273.0000 1.0000
67.5900 237.0000 1.0000
67.6000 272.0000 1.0000
67.6100 255.0000 1.0000
67.6200 251.0000 1.0000
67.6300 249.0000 1.0000
67.6400 263.0000 1.0000
67.6500 263.0000 1.0000
67.6600 248.0000 1.0000
67.6700 253.0000 1.0000
67.6800 255.0000 1.0000
67.6900 261.0000 1.0000
67.7000 250.0000 1.0000
67.7100 257.0000 1.0000
67.7200 277.0000 1.0000
67.7300 250.0000 1.0000
67.7400 280.0000 1.0000
67.7500 288.0000 1.0000
67.7600 295.0000 1.0000
67.7700 229.0000 1.0000
67.7800 259.0000 1.0000
67.7900 257.0000 1.0000
67.8000 260.0000 1.0000
67.8100 261.0000 1.0000
67.8200 260.0000 1.0000
67.8300 261.0000 1.0000
67.8400 243.0000 1.0000
67.8500 242.0000 1.0000
67.8600 250.0000 1.0000
67.8700 262.0000 1.0000
67.8800 263.0000 1.0000
67.8900 273.0000 1.0000
67.9000 257.0000 1.0000
67.9100 256.0000 1.0000
67.9200 281.0000 1.0000
67.9300 243.0000 1.0000
67.9400 257.0000 1.0000
67.9500 254.0000 1.0000
67.9600 259.0000 1.0000
67.9700 232.0000 1.0000
67.9800 259.0000 1.0000
67.9900 228.0000 1.0000
68.0000 241.0000 1.0000
68.0100 275.0000 1.0000
68.0200 247.0000 1.0000
68.0300 249.0000 1.0000
68.0400 241.0000 1.0000
68.0500 248.0000 1.0000
68.0600 244.0000 1.0000
68.0700 257.0000 1.0000
68.0800 262.0000 1.0000
68.0900 277.0000 1.0000
68.1000 263.0000 1.0000
68.1100 256.0000 1.0000
68.1200 239.0000 1.0000
68.1300 266.0000 1.0000
68.1400 269.0000 1.0000
68.1500 272.0000 1.0000
68.1600 262.0000 1.0000
68.1700 257.0000 1.0000
68.1800 254.0000 1.0000
68.1900 281.0000 1.0000
68.2000 244.0000 1.0000
68.2100 247.0000 1.0000
68.2200 263.0000 1.0000
68.2300 256.0000 1.0000
68.2400 258.0000 1.0000
68.2500 266.0000 1.0000
68.2600 283.0000 1.0000
68.2700 258.0000 1.0000
68.2800 251.0000 1.0000
68.2900 253.0000 1.0000
68.3000 237.0000 1.0000
68.3100 263.0000 1.0000
68.3200 271.0000 1.0000
68.3300 233.0000 1.0000
68.3400 247.0000 1.0000
68.3500 245.0000 1.0000
68.3600 246.0000 1.0000
68.3700 240.0000 1.0000
68.3800 259.0000 1.0000
68.3900 261.0000 1.0000
68.4000 255.0000 1.0000
68.4100 244.0000 1.0000
68.4200 251.0000 1.0000
68.4300 237.0000 1.0000
68.4400 250.0000 1.0000
68.4500 272.0000 1.0000
68.4600 263.0000 1.0000
68.4700 245.0000 1.0000
68.4800 236.0000 1.0000
68.4900 240.0000 1.0000
68.5000 262.0000 1.0000
68.5100 238.0000 1.0000
68.5200 254.0000 1.0000
68.5300 255.0000 1.0000
68.5400 286.0000 1.0000
68.5500 251.0000 1.0000
68.5600 256.0000 1.0000
68.5700 247.0000 1.0000
68.5800 246.0000 1.0000
68.5900 262.0000 1.0000
68.6000 245.0000 1.0000
68.6100 244.0000 1.0000
68.6200 242.0000 1.0000
68.6300 235.0000 1.0000
68.6400 255.0000 1.0000
68.6500 246.0000 1.0000
68.6600 257.0000 1.0000
68.6700 254.0000 1.0000
68.6800 227.0000 1.0000
68.6900 274.0000 1.0000
68.7000 262.0000 1.0000
68.7100 277.0000 1.0000
68.7200 247.0000 1.0000
68.7300 272.0000 1.0000
68.7400 256.0000 1.0000
68.7500 236.0000 1.0000
68.7600 270.0000 1.0000
68.7700 240.0000 1.0000
68.7800 244.0000 1.0000
68.7900 234.0000 1.0000
68.8000 240.0000 1.0000
68.8100 275.0000 1.0000
68.8200 244.0000 1.0000
68.8300 258.0000 1.0000
68.8400 249.0000 1.0000
68.8500 258.0000 1.0000
68.8600 242.0000 1.0000
68.8700 258.0000 1.0000
68.8800 250.0000 1.0000
68.8900 267.0000 1.0000
68.9000 230.0000 1.0000
68.9100 238.0000 1.0000
68.9200 244.0000 1.0000
68.9300 242.0000 1.0000
68.9400 240.0000 1.0000
68.9500 272.0000 1.0000
68.9600 244.0000 1.0000
68.9700 265.0000 1.0000
68.9800 226.0000 1.0000
68.9900 240.0000 1.0000
69.0000 228.0000 1.0000
69.0100 250.0000 1.0000
69.0200 243.0000 1.0000
69.0300 254.0000 1.0000
69.0400 238.0000 1.0000
69.0500 220.0000 1.0000
69.0600 267.0000 1.0000
69.0700 260.0000 1.0000
69.0800 238.0000 1.0000
69.0900 256.0000 1.0000
69.1000 256.0000 1.0000
69.1100 237.0000 1.0000
69.1200 238.0000 1.0000
69.1300 238.0000 1.0000
69.1400 268.0000 1.0000
69.1500 247.0000 1.0000
69.1600 267.0000 1.0000
69.1700 254.0000 1.0000
69.1800 257.0000 1.0000
69.1900 244.0000 1.0000
69.2000 263.0000 1.0000
69.2100 253.0000 1.0000
69.2200 247.0000 1.0000
69.2300 235.0000 1.0000
69.2400 234.0000 1.0000
69.2500 246.0000 1.0000
69.2600 250.0000 1.0000
69.2700 249.0000 1.0000
69.2800 262.0000 1.0000
69.2900 241.0000 1.0000
69.3000 244.0000 1.0000
69.3100 247.0000 1.0000
69.3200 254.0000 1.0000
69.3300 255.0000 1.0000
69.3400 248.0000 1.0000
69.3500 278.0000 1.0000
69.3600 234.0000 1.0000
69.3700 260.0000 1.0000
69.3800 220.0000 1.0000
69.3900 248.0000 1.0000
69.4000 253.0000 1.0000
69.4100 267.0000 1.0000
69.4200 246.0000 1.0000
69.4300 274.0000 1.0000
69.4400 270.0000 1.0000
69.4500 251.0000 1.0000
69.4600 257.0000 1.0000
69.4700 236.0000 1.0000
69.4800 239.0000 1.0000
69.4900 247.0000 1.0000
69.5000 232.0000 1.0000
69.5100 248.0000 1.0000
69.5200 267.0000 1.0000
69.5300 252.0000 1.0000
69.5400 237.0000 1.0000
69.5500 253.0000 1.0000
69.5600 256.0000 1.0000
69.5700 278.0000 1.0000
69.5800 258.0000 1.0000
69.5900 251.0000 1.0000
69.6000 278.0000 1.0000
69.6100 282.0000 1.0000
69.6200 262.0000 1.0000
69.6300 231.0000 1.0000
69.6400 222.0000 1.0000
69.6500 232.0000 1.0000
69.6600 233.0000 1.0000
69.6700 240.0000 1.0000
69.6800 248.0000 1.0000
69.6900 235.0000 1.0000
69.7000 267.0000 1.0000
69.7100 256.0000 1.0000
69.7200 255.0000 1.0000
69.7300 273.0000 1.0000
69.7400 264.0000 1.0000
69.7500 256.0000 1.0000
69.7600 267.0000 1.0000
69.7700 229.0000 1.0000
69.7800 238.0000 1.0000
69.7900 255.0000 1.0000
69.8000 242.0000 1.0000
69.8100 239.0000 1.0000
69.8200 234.0000 1.0000
69.8300 253.0000 1.0000
69.8400 260.0000 1.0000
69.8500 237.0000 1.0000
69.8600 247.0000 1.0000
69.8700 245.0000 1.0000
69.8800 228.0000 1.0000
69.8900 238.0000 1.0000
69.9000 264.0000 1.0000
69.9100 207.0000 1.0000
69.9200 232.0000 1.0000
69.9300 241.0000 1.0000
69.9400 246.0000 1.0000
69.9500 254.0000 1.0000
69.9600 247.0000 1.0000
69.9700 248.0000 1.0000
69.9800 256.0000 1.0000
69.9900 251.0000 1.0000
70.0000 246.0000 1.0000
*RAS_INT_END
*RAS_TEMPERATURE_START
*RAS_TEMPERATURE_END
*RAS_DATA_END
