*RAS_DATA_START
*RAS_HEADER_START
*DISP_FMT_X "%.2f"
*DISP_FMT_Y "%.0f"
*DISP_FULLSCALE "14984.0000000000"
*DISP_LINE_COLOR "255.0000000000"
*DISP_LINE_STYLE "0.0000000000"
*DISP_LINE_WIDTH "0.2500000000"
*DISP_NOTE "測定データ-7"
*DISP_OFFSET_Y "0.0000000000"
*DISP_PEAKSEARCH_UNIT_Y "cps"
*DISP_RANGE_BOTTOM "0.0000000000"
*DISP_RANGE_LEFT "20.0000000000"
*DISP_RANGE_LOGCUTOFF "0.0100000000"
*DISP_RANGE_RIGHT "70.0000000000"
*DISP_RANGE_TOP "14984.0000000000"
*DISP_SCALE_MODE_Y "0.0000000000"
*DISP_TAB_NAME "2θ/θ"
*DISP_TITLE_Y "強度"
*DISP_UNIT_Y "cps"
*DISP_WINDOW_NAME "MSG_MACROENGINE"
*FILE_COMMENT " "
*FILE_MD5 ""
*FILE_MEMO " "
*FILE_OPERATOR "Administrator"
*FILE_SAMPLE " "
*FILE_TYPE "RAS_RAW"
*FILE_USERGROUP "システムマネージャ"
*FILE_VERSION "1.0000000000"
*HW_ATTACHMENT_ID "ATT0025"
*HW_ATTACHMENT_NAME "標準|Standard"
*HW_COUNTER_ID-0 "CUT0025"
*HW_COUNTER_ID-1 "CUT0020"
*HW_COUNTER_ID-2 "CUT0020"
*HW_COUNTER_ID-3 "CSL0021"
*HW_COUNTER_ID-4 "CMC0021"
*HW_COUNTER_NAME-0 "D/teX Ultra|D/teX Ultra"
*HW_COUNTER_NAME-1 "None|None"
*HW_COUNTER_NAME-2 "None|None"
*HW_COUNTER_NAME-3 "BBM|BBM"
*HW_COUNTER_NAME-4 "検出器モノクロメータ|Detector monochromator"
*HW_COUNTER_SELECT_NAME "D/teX Ultra|D/teX Ultra"
*HW_GONIOMETER_ID "GON0023"
*HW_GONIOMETER_NAME "SmartLab|SmartLab"
*HW_GONIOMETER_RADIUS-0 "90.0"
*HW_GONIOMETER_RADIUS-1 "114.0"
*HW_GONIOMETER_RADIUS-2 "190.0"
*HW_GONIOMETER_RADIUS-3 "300.0"
*HW_GONIOMETER_RADIUS-4 "187.0"
*HW_GONIOMETER_RADIUS-5 "300.0"
*HW_GONIOMETER_RADIUS-6 "113.0"
*HW_GONIOMETER_RADIUS-7 "331.0"
*HW_I_OPT_ID-0 "CBO0021"
*HW_I_OPT_ID-1 "ICR0023"
*HW_I_OPT_ID-2 "ISL0021"
*HW_I_OPT_ID-3 "ISO0021"
*HW_I_OPT_ID-4 "IAD0021"
*HW_I_OPT_ID-5 "IPR0001"
*HW_I_OPT_NAME-0 "CBOユニット|CBO unit"
*HW_I_OPT_NAME-1 "標準入射光学ユニット|Standard incident optical unit"
*HW_I_OPT_NAME-2 "標準入射スリットボックス|Standard incident slit box"
*HW_I_OPT_NAME-3 "入射平行スリット|Incident parallel slit"
*HW_I_OPT_NAME-4 "長手制限スリット|Length limiting slit"
*HW_I_OPT_NAME-5 "None|None"
*HW_R_ATTENUATER_AUTOMODE "0"
*HW_R_OPT_ID-0 "RSS0021"
*HW_R_OPT_ID-1 "RCR0023"
*HW_R_OPT_ID-2 "RSO0021"
*HW_R_OPT_ID-3 "RRS0021"
*HW_R_OPT_ID-4 "ATN0021"
*HW_R_OPT_ID-5 "RFL0021"
*HW_R_OPT_ID-6 "RAD0021"
*HW_R_OPT_NAME-0 "標準受光スリットボックス1|Standard receiving slit box # 1"
*HW_R_OPT_NAME-1 "標準受光光学ユニット1|Standard receiving unit # 1"
*HW_R_OPT_NAME-2 "標準受光光学ユニット2|Standard receiving optical unit # 2"
*HW_R_OPT_NAME-3 "標準受光スリットボックス2|Standard receiving slit box # 2"
*HW_R_OPT_NAME-4 "標準アッテネータ|Standard Attenuator"
*HW_R_OPT_NAME-5 "Cu Kβ|Cu K-beta"
*HW_R_OPT_NAME-6 "調整用受光スリット|Alignment receiving slit"
*HW_SAMPLE_HOLDER_ID "SMP0023"
*HW_SAMPLE_HOLDER_NAME "標準Zステージ|Standard Z stage"
*HW_XG_CURRENT_MAX "50"
*HW_XG_CURRENT_MIN "2"
*HW_XG_CURRENT_RESOLUTION "1"
*HW_XG_CURRENT_UNIT "mA"
*HW_XG_FOCUS "1mm x 10mm"
*HW_XG_FOCUS_TYPE "Normal"
*HW_XG_ID ""
*HW_XG_NAME "3kW 封入管(ID:1200)|3kW Sealed tube(ID:1200)"
*HW_XG_TARGET_ATOMIC_NUMBER "29.0000000000"
*HW_XG_TARGET_NAME "Cu"
*HW_XG_TYPE "Hermetic"
*HW_XG_VOLTAGE_MAX "60"
*HW_XG_VOLTAGE_MIN "20"
*HW_XG_VOLTAGE_RESOLUTION "1"
*HW_XG_VOLTAGE_UNIT "kV"
*HW_XG_WATT_MAX "1.500"
*HW_XG_WATT_UNIT "kW"
*HW_XG_WAVE_LENGTH_ALPHA1 "1.540593"
*HW_XG_WAVE_LENGTH_ALPHA2 "1.544414"
*HW_XG_WAVE_LENGTH_BETA "1.392250"
*MEAS_COND_AXIS_NAME-0 "2θ/θ"
*MEAS_COND_AXIS_NAME-1 "2θ"
*MEAS_COND_AXIS_NAME-2 "ω"
*MEAS_COND_AXIS_NAME-3 "Z"
*MEAS_COND_AXIS_NAME-4 "2θ/ω"
*MEAS_COND_AXIS_NAME-5 "θs"
*MEAS_COND_AXIS_NAME-6 "θd"
*MEAS_COND_AXIS_NAME-7 "Ts"
*MEAS_COND_AXIS_NAME-8 "CBO選択スリット"
*MEAS_COND_AXIS_NAME-9 "M"
*MEAS_COND_AXIS_NAME-10 "入射平行スリット"
*MEAS_COND_AXIS_NAME-11 "入射スリット"
*MEAS_COND_AXIS_NAME-12 ""
*MEAS_COND_AXIS_NAME-13 "Zs"
*MEAS_COND_AXIS_NAME-14 "入射光学素子"
*MEAS_COND_AXIS_NAME-15 "長手制限スリット"
*MEAS_COND_AXIS_NAME-16 "センタースリット"
*MEAS_COND_AXIS_NAME-17 "フィルター"
*MEAS_COND_AXIS_NAME-18 "受光スリット1"
*MEAS_COND_AXIS_NAME-19 "受光スリット2"
*MEAS_COND_AXIS_NAME-20 "受光光学素子"
*MEAS_COND_AXIS_NAME-21 "受光平行スリット"
*MEAS_COND_AXIS_NAME-22 "調整用受光スリット"
*MEAS_COND_AXIS_NAME-23 ""
*MEAS_COND_AXIS_NAME-24 ""
*MEAS_COND_AXIS_NAME-25 "Zd"
*MEAS_COND_AXIS_NAME-26 "アッテネータ"
*MEAS_COND_AXIS_NAME-27 "検出器モノクロメータ"
*MEAS_COND_AXIS_NAME-28 "モノクロメータスリット"
*MEAS_COND_AXIS_NAME-29 "プライマリビーム"
*MEAS_COND_AXIS_NAME-30 "PHA"
*MEAS_COND_AXIS_NAME_INTERNAL-0 "TwoThetaTheta"
*MEAS_COND_AXIS_NAME_INTERNAL-1 "TwoTheta"
*MEAS_COND_AXIS_NAME_INTERNAL-2 "Omega"
*MEAS_COND_AXIS_NAME_INTERNAL-3 "Z"
*MEAS_COND_AXIS_NAME_INTERNAL-4 "TwoThetaOmega"
*MEAS_COND_AXIS_NAME_INTERNAL-5 "ThetaS"
*MEAS_COND_AXIS_NAME_INTERNAL-6 "ThetaD"
*MEAS_COND_AXIS_NAME_INTERNAL-7 "Ts"
*MEAS_COND_AXIS_NAME_INTERNAL-8 "CBO"
*MEAS_COND_AXIS_NAME_INTERNAL-9 "CBO-M"
*MEAS_COND_AXIS_NAME_INTERNAL-10 "IncidentSollerSlit"
*MEAS_COND_AXIS_NAME_INTERNAL-11 "IncidentSlitBox"
*MEAS_COND_AXIS_NAME_INTERNAL-12 "IncidentSlitBox-_Axis"
*MEAS_COND_AXIS_NAME_INTERNAL-13 "Zs"
*MEAS_COND_AXIS_NAME_INTERNAL-14 "IncidentMonochromator"
*MEAS_COND_AXIS_NAME_INTERNAL-15 "IncidentAxdSlit"
*MEAS_COND_AXIS_NAME_INTERNAL-16 "CenterSlit"
*MEAS_COND_AXIS_NAME_INTERNAL-17 "Filter"
*MEAS_COND_AXIS_NAME_INTERNAL-18 "ReceivingSlitBox1"
*MEAS_COND_AXIS_NAME_INTERNAL-19 "ReceivingSlitBox2"
*MEAS_COND_AXIS_NAME_INTERNAL-20 "ReceivingOptics"
*MEAS_COND_AXIS_NAME_INTERNAL-21 "ReceivingSollerSlit"
*MEAS_COND_AXIS_NAME_INTERNAL-22 "ReceivingAxdSlit"
*MEAS_COND_AXIS_NAME_INTERNAL-23 "ReceivingSlitBox1-_Axis"
*MEAS_COND_AXIS_NAME_INTERNAL-24 "ReceivingSlitBox2-_Axis"
*MEAS_COND_AXIS_NAME_INTERNAL-25 "ReceivingSlitBox2-Zd"
*MEAS_COND_AXIS_NAME_INTERNAL-26 "Attenuator"
*MEAS_COND_AXIS_NAME_INTERNAL-27 "CounterMonochromator"
*MEAS_COND_AXIS_NAME_INTERNAL-28 "CounterSlit"
*MEAS_COND_AXIS_NAME_INTERNAL-29 "IncidentPrimary"
*MEAS_COND_AXIS_NAME_INTERNAL-30 "PHA"
*MEAS_COND_AXIS_NAME_MAGICNO-0 "83951616.0000000000"
*MEAS_COND_AXIS_NAME_MAGICNO-1 "268632064.0000000000"
*MEAS_COND_AXIS_NAME_MAGICNO-2 "268500992.0000000000"
*MEAS_COND_AXIS_NAME_MAGICNO-3 "285278208.0000000000"
*MEAS_COND_AXIS_NAME_MAGICNO-4 "83951616.0000000000"
*MEAS_COND_AXIS_NAME_MAGICNO-5 "131072.0000000000"
*MEAS_COND_AXIS_NAME_MAGICNO-6 "131072.0000000000"
*MEAS_COND_AXIS_NAME_MAGICNO-7 "318898176.0000000000"
*MEAS_COND_AXIS_NAME_MAGICNO-8 "20971521.0000000000"
*MEAS_COND_AXIS_NAME_MAGICNO-9 "285343744.0000000000"
*MEAS_COND_AXIS_NAME_MAGICNO-10 "20971521.0000000000"
*MEAS_COND_AXIS_NAME_MAGICNO-11 "22020097.0000000000"
*MEAS_COND_AXIS_NAME_MAGICNO-12 "25165824.0000000000"
*MEAS_COND_AXIS_NAME_MAGICNO-13 "318898176.0000000000"
*MEAS_COND_AXIS_NAME_MAGICNO-14 "1.0000000000"
*MEAS_COND_AXIS_NAME_MAGICNO-15 "20971521.0000000000"
*MEAS_COND_AXIS_NAME_MAGICNO-16 "20971521.0000000000"
*MEAS_COND_AXIS_NAME_MAGICNO-17 "20971521.0000000000"
*MEAS_COND_AXIS_NAME_MAGICNO-18 "23068673.0000000000"
*MEAS_COND_AXIS_NAME_MAGICNO-19 "23068673.0000000000"
*MEAS_COND_AXIS_NAME_MAGICNO-20 "20971521.0000000000"
*MEAS_COND_AXIS_NAME_MAGICNO-21 "20971521.0000000000"
*MEAS_COND_AXIS_NAME_MAGICNO-22 "20971521.0000000000"
*MEAS_COND_AXIS_NAME_MAGICNO-23 "25165824.0000000000"
*MEAS_COND_AXIS_NAME_MAGICNO-24 "25165824.0000000000"
*MEAS_COND_AXIS_NAME_MAGICNO-25 "285343744.0000000000"
*MEAS_COND_AXIS_NAME_MAGICNO-26 "17301505.0000000000"
*MEAS_COND_AXIS_NAME_MAGICNO-27 "20971521.0000000000"
*MEAS_COND_AXIS_NAME_MAGICNO-28 "20971521.0000000000"
*MEAS_COND_AXIS_NAME_MAGICNO-29 "20971521.0000000000"
*MEAS_COND_AXIS_NAME_MAGICNO-30 "0.0000000000"
*MEAS_COND_AXIS_OFFSET-0 "-"
*MEAS_COND_AXIS_OFFSET-1 "-0.1081000000"
*MEAS_COND_AXIS_OFFSET-2 "0.3758000000"
*MEAS_COND_AXIS_OFFSET-3 "-"
*MEAS_COND_AXIS_OFFSET-4 "-"
*MEAS_COND_AXIS_OFFSET-5 "0.3758000000"
*MEAS_COND_AXIS_OFFSET-6 "-0.4839000000"
*MEAS_COND_AXIS_OFFSET-7 "-"
*MEAS_COND_AXIS_OFFSET-8 "-"
*MEAS_COND_AXIS_OFFSET-9 "-"
*MEAS_COND_AXIS_OFFSET-10 "-"
*MEAS_COND_AXIS_OFFSET-11 "-"
*MEAS_COND_AXIS_OFFSET-12 "-"
*MEAS_COND_AXIS_OFFSET-13 "-"
*MEAS_COND_AXIS_OFFSET-14 "-"
*MEAS_COND_AXIS_OFFSET-15 "-"
*MEAS_COND_AXIS_OFFSET-16 "-"
*MEAS_COND_AXIS_OFFSET-17 "-"
*MEAS_COND_AXIS_OFFSET-18 "-"
*MEAS_COND_AXIS_OFFSET-19 "-"
*MEAS_COND_AXIS_OFFSET-20 "-"
*MEAS_COND_AXIS_OFFSET-21 "-"
*MEAS_COND_AXIS_OFFSET-22 "-"
*MEAS_COND_AXIS_OFFSET-23 "-"
*MEAS_COND_AXIS_OFFSET-24 "-"
*MEAS_COND_AXIS_OFFSET-25 "-"
*MEAS_COND_AXIS_OFFSET-26 "-"
*MEAS_COND_AXIS_OFFSET-27 "-"
*MEAS_COND_AXIS_OFFSET-28 "-"
*MEAS_COND_AXIS_OFFSET-29 "-"
*MEAS_COND_AXIS_OFFSET-30 "-"
*MEAS_COND_AXIS_POSITION-0 "0.0000000000"
*MEAS_COND_AXIS_POSITION-1 "0.0000000000"
*MEAS_COND_AXIS_POSITION-2 "0.0000000000"
*MEAS_COND_AXIS_POSITION-3 "-0.5500000000"
*MEAS_COND_AXIS_POSITION-4 "0.0000000000"
*MEAS_COND_AXIS_POSITION-5 "0.0000000000"
*MEAS_COND_AXIS_POSITION-6 "0.0000000000"
*MEAS_COND_AXIS_POSITION-7 "-0.4278800000"
*MEAS_COND_AXIS_POSITION-8 "BB"
*MEAS_COND_AXIS_POSITION-9 "0.0000000000"
*MEAS_COND_AXIS_POSITION-10 "Soller_slit_5.0deg"
*MEAS_COND_AXIS_POSITION-11 "2/3deg"
*MEAS_COND_AXIS_POSITION-12 "2.2088000000"
*MEAS_COND_AXIS_POSITION-13 "-0.4140600000"
*MEAS_COND_AXIS_POSITION-14 "0.0000000000"
*MEAS_COND_AXIS_POSITION-15 "10.0mm"
*MEAS_COND_AXIS_POSITION-16 "None"
*MEAS_COND_AXIS_POSITION-17 "Cu_K-beta"
*MEAS_COND_AXIS_POSITION-18 "13.000mm"
*MEAS_COND_AXIS_POSITION-19 "13.000mm"
*MEAS_COND_AXIS_POSITION-20 "No_unit"
*MEAS_COND_AXIS_POSITION-21 "Soller_slit_5.0deg"
*MEAS_COND_AXIS_POSITION-22 "None"
*MEAS_COND_AXIS_POSITION-23 "13.0000000000"
*MEAS_COND_AXIS_POSITION-24 "13.0000000000"
*MEAS_COND_AXIS_POSITION-25 "0.0109400000"
*MEAS_COND_AXIS_POSITION-26 "Open"
*MEAS_COND_AXIS_POSITION-27 "None"
*MEAS_COND_AXIS_POSITION-28 "None"
*MEAS_COND_AXIS_POSITION-29 "None"
*MEAS_COND_AXIS_POSITION-30 "38.0000000000"
*MEAS_COND_AXIS_UNIT-0 "deg"
*MEAS_COND_AXIS_UNIT-1 "deg"
*MEAS_COND_AXIS_UNIT-2 "deg"
*MEAS_COND_AXIS_UNIT-3 "mm"
*MEAS_COND_AXIS_UNIT-4 "deg"
*MEAS_COND_AXIS_UNIT-5 "deg"
*MEAS_COND_AXIS_UNIT-6 "deg"
*MEAS_COND_AXIS_UNIT-7 "mm"
*MEAS_COND_AXIS_UNIT-8 ""
*MEAS_COND_AXIS_UNIT-9 "pulse"
*MEAS_COND_AXIS_UNIT-10 ""
*MEAS_COND_AXIS_UNIT-11 ""
*MEAS_COND_AXIS_UNIT-12 "mm"
*MEAS_COND_AXIS_UNIT-13 "mm"
*MEAS_COND_AXIS_UNIT-14 ""
*MEAS_COND_AXIS_UNIT-15 ""
*MEAS_COND_AXIS_UNIT-16 ""
*MEAS_COND_AXIS_UNIT-17 ""
*MEAS_COND_AXIS_UNIT-18 ""
*MEAS_COND_AXIS_UNIT-19 ""
*MEAS_COND_AXIS_UNIT-20 ""
*MEAS_COND_AXIS_UNIT-21 ""
*MEAS_COND_AXIS_UNIT-22 ""
*MEAS_COND_AXIS_UNIT-23 "mm"
*MEAS_COND_AXIS_UNIT-24 "mm"
*MEAS_COND_AXIS_UNIT-25 "mm"
*MEAS_COND_AXIS_UNIT-26 ""
*MEAS_COND_AXIS_UNIT-27 ""
*MEAS_COND_AXIS_UNIT-28 ""
*MEAS_COND_AXIS_UNIT-29 ""
*MEAS_COND_AXIS_UNIT-30 "div"
*MEAS_COND_COUNTER_CNTLOSS_CORR "0.0000000000"
*MEAS_COND_COUNTER_PHABASE "38.0000000000"
*MEAS_COND_COUNTER_PHAWINDOW "16.0000000000"
*MEAS_COND_COUNTER_PHA_UNIT "div"
*MEAS_COND_COUNTER_TAUDIFF "30.0000000000"
*MEAS_COND_COUNTER_TAUINT "0.0000000000"
*MEAS_COND_IRRADIATION_MODE "OFF"
*MEAS_COND_IRRADIATION_WIDTH ""
*MEAS_COND_OPT_ATTR "集中法"
*MEAS_COND_OPT_NAME "@集中法"
*MEAS_COND_UNSYMMETRIC_MODE "OFF"
*MEAS_COND_XG_CURRENT "30.0000000000"
*MEAS_COND_XG_VOLTAGE "40.0000000000"
*MEAS_COND_XG_WAVE_TYPE "Ka"
*MEAS_DATA_COUNT "5001.0000000000"
*MEAS_SCAN_AXIS_X "2θ/θ"
*MEAS_SCAN_AXIS_X_INTERNAL "TwoThetaTheta"
*MEAS_SCAN_END_TIME "07/06/21 19:42:10"
*MEAS_SCAN_MODE "CONTINUOUS"
*MEAS_SCAN_MONITOR "0"
*MEAS_SCAN_RESOLUTION_X "0.0002"
*MEAS_SCAN_SPEED "1.0"
*MEAS_SCAN_SPEED_UNIT "deg/min"
*MEAS_SCAN_START "20.0000000000"
*MEAS_SCAN_START_TIME "07/06/21 18:49:17"
*MEAS_SCAN_STEP "0.0100000000"
*MEAS_SCAN_STOP "70.0000000000"
*MEAS_SCAN_UNIT_X "deg"
*MEAS_SCAN_UNIT_Y "counts"
*RAS_HEADER_END
*RAS_INT_START
20.0000 1544.0000 1.0000
20.0100 1553.0000 1.0000
20.0200 1553.0000 1.0000
20.0300 1583.0000 1.0000
20.0400 1578.0000 1.0000
20.0500 1565.0000 1.0000
20.0600 1614.0000 1.0000
20.0700 1542.0000 1.0000
20.0800 1560.0000 1.0000
20.0900 1496.0000 1.0000
20.1000 1503.0000 1.0000
20.1100 1570.0000 1.0000
20.1200 1537.0000 1.0000
20.1300 1459.0000 1.0000
20.1400 1548.0000 1.0000
20.1500 1568.0000 1.0000
20.1600 1614.0000 1.0000
20.1700 1593.0000 1.0000
20.1800 1529.0000 1.0000
20.1900 1556.0000 1.0000
20.2000 1593.0000 1.0000
20.2100 1517.0000 1.0000
20.2200 1516.0000 1.0000
20.2300 1570.0000 1.0000
20.2400 1597.0000 1.0000
20.2500 1578.0000 1.0000
20.2600 1556.0000 1.0000
20.2700 1516.0000 1.0000
20.2800 1576.0000 1.0000
20.2900 1534.0000 1.0000
20.3000 1553.0000 1.0000
20.3100 1533.0000 1.0000
20.3200 1545.0000 1.0000
20.3300 1575.0000 1.0000
20.3400 1511.0000 1.0000
20.3500 1540.0000 1.0000
20.3600 1558.0000 1.0000
20.3700 1536.0000 1.0000
20.3800 1482.0000 1.0000
20.3900 1562.0000 1.0000
20.4000 1598.0000 1.0000
20.4100 1572.0000 1.0000
20.4200 1547.0000 1.0000
20.4300 1539.0000 1.0000
20.4400 1614.0000 1.0000
20.4500 1608.0000 1.0000
20.4600 1532.0000 1.0000
20.4700 1583.0000 1.0000
20.4800 1577.0000 1.0000
20.4900 1546.0000 1.0000
20.5000 1557.0000 1.0000
20.5100 1508.0000 1.0000
20.5200 1528.0000 1.0000
20.5300 1584.0000 1.0000
20.5400 1543.0000 1.0000
20.5500 1549.0000 1.0000
20.5600 1604.0000 1.0000
20.5700 1584.0000 1.0000
20.5800 1545.0000 1.0000
20.5900 1536.0000 1.0000
20.6000 1554.0000 1.0000
20.6100 1560.0000 1.0000
20.6200 1496.0000 1.0000
20.6300 1585.0000 1.0000
20.6400 1579.0000 1.0000
20.6500 1534.0000 1.0000
20.6600 1586.0000 1.0000
20.6700 1587.0000 1.0000
20.6800 1518.0000 1.0000
20.6900 1566.0000 1.0000
20.7000 1638.0000 1.0000
20.7100 1512.0000 1.0000
20.7200 1535.0000 1.0000
20.7300 1526.0000 1.0000
20.7400 1625.0000 1.0000
20.7500 1545.0000 1.0000
20.7600 1512.0000 1.0000
20.7700 1549.0000 1.0000
20.7800 1614.0000 1.0000
20.7900 1540.0000 1.0000
20.8000 1530.0000 1.0000
20.8100 1564.0000 1.0000
20.8200 1519.0000 1.0000
20.8300 1515.0000 1.0000
20.8400 1564.0000 1.0000
20.8500 1532.0000 1.0000
20.8600 1644.0000 1.0000
20.8700 1547.0000 1.0000
20.8800 1575.0000 1.0000
20.8900 1560.0000 1.0000
20.9000 1532.0000 1.0000
20.9100 1524.0000 1.0000
20.9200 1516.0000 1.0000
20.9300 1551.0000 1.0000
20.9400 1553.0000 1.0000
20.9500 1539.0000 1.0000
20.9600 1666.0000 1.0000
20.9700 1622.0000 1.0000
20.9800 1602.0000 1.0000
20.9900 1573.0000 1.0000
21.0000 1520.0000 1.0000
21.0100 1506.0000 1.0000
21.0200 1532.0000 1.0000
21.0300 1585.0000 1.0000
21.0400 1547.0000 1.0000
21.0500 1625.0000 1.0000
21.0600 1517.0000 1.0000
21.0700 1575.0000 1.0000
21.0800 1544.0000 1.0000
21.0900 1515.0000 1.0000
21.1000 1542.0000 1.0000
21.1100 1564.0000 1.0000
21.1200 1587.0000 1.0000
21.1300 1546.0000 1.0000
21.1400 1537.0000 1.0000
21.1500 1547.0000 1.0000
21.1600 1565.0000 1.0000
21.1700 1520.0000 1.0000
21.1800 1556.0000 1.0000
21.1900 1563.0000 1.0000
21.2000 1611.0000 1.0000
21.2100 1555.0000 1.0000
21.2200 1640.0000 1.0000
21.2300 1616.0000 1.0000
21.2400 1586.0000 1.0000
21.2500 1524.0000 1.0000
21.2600 1594.0000 1.0000
21.2700 1597.0000 1.0000
21.2800 1552.0000 1.0000
21.2900 1567.0000 1.0000
21.3000 1615.0000 1.0000
21.3100 1567.0000 1.0000
21.3200 1608.0000 1.0000
21.3300 1581.0000 1.0000
21.3400 1654.0000 1.0000
21.3500 1583.0000 1.0000
21.3600 1619.0000 1.0000
21.3700 1550.0000 1.0000
21.3800 1513.0000 1.0000
21.3900 1575.0000 1.0000
21.4000 1623.0000 1.0000
21.4100 1569.0000 1.0000
21.4200 1497.0000 1.0000
21.4300 1575.0000 1.0000
21.4400 1617.0000 1.0000
21.4500 1555.0000 1.0000
21.4600 1519.0000 1.0000
21.4700 1515.0000 1.0000
21.4800 1571.0000 1.0000
21.4900 1529.0000 1.0000
21.5000 1552.0000 1.0000
21.5100 1558.0000 1.0000
21.5200 1624.0000 1.0000
21.5300 1541.0000 1.0000
21.5400 1538.0000 1.0000
21.5500 1574.0000 1.0000
21.5600 1655.0000 1.0000
21.5700 1585.0000 1.0000
21.5800 1574.0000 1.0000
21.5900 1518.0000 1.0000
21.6000 1509.0000 1.0000
21.6100 1505.0000 1.0000
21.6200 1511.0000 1.0000
21.6300 1594.0000 1.0000
21.6400 1516.0000 1.0000
21.6500 1569.0000 1.0000
21.6600 1611.0000 1.0000
21.6700 1598.0000 1.0000
21.6800 1633.0000 1.0000
21.6900 1583.0000 1.0000
21.7000 1518.0000 1.0000
21.7100 1553.0000 1.0000
21.7200 1587.0000 1.0000
21.7300 1564.0000 1.0000
21.7400 1545.0000 1.0000
21.7500 1555.0000 1.0000
21.7600 1609.0000 1.0000
21.7700 1520.0000 1.0000
21.7800 1590.0000 1.0000
21.7900 1571.0000 1.0000
21.8000 1574.0000 1.0000
21.8100 1563.0000 1.0000
21.8200 1476.0000 1.0000
21.8300 1562.0000 1.0000
21.8400 1540.0000 1.0000
21.8500 1560.0000 1.0000
21.8600 1572.0000 1.0000
21.8700 1543.0000 1.0000
21.8800 1579.0000 1.0000
21.8900 1561.0000 1.0000
21.9000 1567.0000 1.0000
21.9100 1503.0000 1.0000
21.9200 1545.0000 1.0000
21.9300 1588.0000 1.0000
21.9400 1573.0000 1.0000
21.9500 1567.0000 1.0000
21.9600 1548.0000 1.0000
21.9700 1551.0000 1.0000
21.9800 1562.0000 1.0000
21.9900 1583.0000 1.0000
22.0000 1575.0000 1.0000
22.0100 1656.0000 1.0000
22.0200 1626.0000 1.0000
22.0300 1608.0000 1.0000
22.0400 1636.0000 1.0000
22.0500 1640.0000 1.0000
22.0600 1612.0000 1.0000
22.0700 1621.0000 1.0000
22.0800 1541.0000 1.0000
22.0900 1573.0000 1.0000
22.1000 1575.0000 1.0000
22.1100 1534.0000 1.0000
22.1200 1546.0000 1.0000
22.1300 1594.0000 1.0000
22.1400 1576.0000 1.0000
22.1500 1592.0000 1.0000
22.1600 1566.0000 1.0000
22.1700 1537.0000 1.0000
22.1800 1569.0000 1.0000
22.1900 1578.0000 1.0000
22.2000 1566.0000 1.0000
22.2100 1635.0000 1.0000
22.2200 1540.0000 1.0000
22.2300 1600.0000 1.0000
22.2400 1603.0000 1.0000
22.2500 1590.0000 1.0000
22.2600 1564.0000 1.0000
22.2700 1638.0000 1.0000
22.2800 1568.0000 1.0000
22.2900 1543.0000 1.0000
22.3000 1563.0000 1.0000
22.3100 1540.0000 1.0000
22.3200 1553.0000 1.0000
22.3300 1650.0000 1.0000
22.3400 1583.0000 1.0000
22.3500 1609.0000 1.0000
22.3600 1544.0000 1.0000
22.3700 1580.0000 1.0000
22.3800 1597.0000 1.0000
22.3900 1615.0000 1.0000
22.4000 1604.0000 1.0000
22.4100 1594.0000 1.0000
22.4200 1506.0000 1.0000
22.4300 1598.0000 1.0000
22.4400 1614.0000 1.0000
22.4500 1582.0000 1.0000
22.4600 1603.0000 1.0000
22.4700 1526.0000 1.0000
22.4800 1599.0000 1.0000
22.4900 1575.0000 1.0000
22.5000 1606.0000 1.0000
22.5100 1562.0000 1.0000
22.5200 1641.0000 1.0000
22.5300 1597.0000 1.0000
22.5400 1595.0000 1.0000
22.5500 1614.0000 1.0000
22.5600 1575.0000 1.0000
22.5700 1546.0000 1.0000
22.5800 1584.0000 1.0000
22.5900 1587.0000 1.0000
22.6000 1569.0000 1.0000
22.6100 1537.0000 1.0000
22.6200 1621.0000 1.0000
22.6300 1617.0000 1.0000
22.6400 1559.0000 1.0000
22.6500 1633.0000 1.0000
22.6600 1526.0000 1.0000
22.6700 1559.0000 1.0000
22.6800 1651.0000 1.0000
22.6900 1616.0000 1.0000
22.7000 1633.0000 1.0000
22.7100 1605.0000 1.0000
22.7200 1631.0000 1.0000
22.7300 1606.0000 1.0000
22.7400 1576.0000 1.0000
22.7500 1567.0000 1.0000
22.7600 1626.0000 1.0000
22.7700 1568.0000 1.0000
22.7800 1574.0000 1.0000
22.7900 1551.0000 1.0000
22.8000 1606.0000 1.0000
22.8100 1610.0000 1.0000
22.8200 1583.0000 1.0000
22.8300 1597.0000 1.0000
22.8400 1670.0000 1.0000
22.8500 1572.0000 1.0000
22.8600 1596.0000 1.0000
22.8700 1624.0000 1.0000
22.8800 1580.0000 1.0000
22.8900 1611.0000 1.0000
22.9000 1629.0000 1.0000
22.9100 1585.0000 1.0000
22.9200 1594.0000 1.0000
22.9300 1592.0000 1.0000
22.9400 1613.0000 1.0000
22.9500 1637.0000 1.0000
22.9600 1616.0000 1.0000
22.9700 1575.0000 1.0000
22.9800 1658.0000 1.0000
22.9900 1664.0000 1.0000
23.0000 1615.0000 1.0000
23.0100 1602.0000 1.0000
23.0200 1579.0000 1.0000
23.0300 1630.0000 1.0000
23.0400 1616.0000 1.0000
23.0500 1645.0000 1.0000
23.0600 1639.0000 1.0000
23.0700 1639.0000 1.0000
23.0800 1533.0000 1.0000
23.0900 1683.0000 1.0000
23.1000 1568.0000 1.0000
23.1100 1572.0000 1.0000
23.1200 1614.0000 1.0000
23.1300 1660.0000 1.0000
23.1400 1609.0000 1.0000
23.1500 1653.0000 1.0000
23.1600 1613.0000 1.0000
23.1700 1561.0000 1.0000
23.1800 1682.0000 1.0000
23.1900 1610.0000 1.0000
23.2000 1677.0000 1.0000
23.2100 1579.0000 1.0000
23.2200 1633.0000 1.0000
23.2300 1679.0000 1.0000
23.2400 1622.0000 1.0000
23.2500 1634.0000 1.0000
23.2600 1605.0000 1.0000
23.2700 1597.0000 1.0000
23.2800 1645.0000 1.0000
23.2900 1579.0000 1.0000
23.3000 1616.0000 1.0000
23.3100 1566.0000 1.0000
23.3200 1635.0000 1.0000
23.3300 1667.0000 1.0000
23.3400 1629.0000 1.0000
23.3500 1573.0000 1.0000
23.3600 1606.0000 1.0000
23.3700 1642.0000 1.0000
23.3800 1634.0000 1.0000
23.3900 1625.0000 1.0000
23.4000 1641.0000 1.0000
23.4100 1599.0000 1.0000
23.4200 1633.0000 1.0000
23.4300 1544.0000 1.0000
23.4400 1553.0000 1.0000
23.4500 1637.0000 1.0000
23.4600 1601.0000 1.0000
23.4700 1569.0000 1.0000
23.4800 1639.0000 1.0000
23.4900 1650.0000 1.0000
23.5000 1634.0000 1.0000
23.5100 1658.0000 1.0000
23.5200 1565.0000 1.0000
23.5300 1668.0000 1.0000
23.5400 1617.0000 1.0000
23.5500 1649.0000 1.0000
23.5600 1609.0000 1.0000
23.5700 1629.0000 1.0000
23.5800 1633.0000 1.0000
23.5900 1589.0000 1.0000
23.6000 1619.0000 1.0000
23.6100 1637.0000 1.0000
23.6200 1552.0000 1.0000
23.6300 1602.0000 1.0000
23.6400 1648.0000 1.0000
23.6500 1628.0000 1.0000
23.6600 1653.0000 1.0000
23.6700 1624.0000 1.0000
23.6800 1600.0000 1.0000
23.6900 1568.0000 1.0000
23.7000 1579.0000 1.0000
23.7100 1601.0000 1.0000
23.7200 1638.0000 1.0000
23.7300 1589.0000 1.0000
23.7400 1629.0000 1.0000
23.7500 1598.0000 1.0000
23.7600 1563.0000 1.0000
23.7700 1616.0000 1.0000
23.7800 1708.0000 1.0000
23.7900 1599.0000 1.0000
23.8000 1616.0000 1.0000
23.8100 1628.0000 1.0000
23.8200 1598.0000 1.0000
23.8300 1614.0000 1.0000
23.8400 1607.0000 1.0000
23.8500 1625.0000 1.0000
23.8600 1600.0000 1.0000
23.8700 1621.0000 1.0000
23.8800 1607.0000 1.0000
23.8900 1622.0000 1.0000
23.9000 1633.0000 1.0000
23.9100 1649.0000 1.0000
23.9200 1621.0000 1.0000
23.9300 1611.0000 1.0000
23.9400 1585.0000 1.0000
23.9500 1629.0000 1.0000
23.9600 1628.0000 1.0000
23.9700 1637.0000 1.0000
23.9800 1608.0000 1.0000
23.9900 1686.0000 1.0000
24.0000 1624.0000 1.0000
24.0100 1643.0000 1.0000
24.0200 1663.0000 1.0000
24.0300 1650.0000 1.0000
24.0400 1627.0000 1.0000
24.0500 1618.0000 1.0000
24.0600 1631.0000 1.0000
24.0700 1622.0000 1.0000
24.0800 1556.0000 1.0000
24.0900 1628.0000 1.0000
24.1000 1653.0000 1.0000
24.1100 1664.0000 1.0000
24.1200 1591.0000 1.0000
24.1300 1635.0000 1.0000
24.1400 1632.0000 1.0000
24.1500 1618.0000 1.0000
24.1600 1614.0000 1.0000
24.1700 1665.0000 1.0000
24.1800 1630.0000 1.0000
24.1900 1592.0000 1.0000
24.2000 1627.0000 1.0000
24.2100 1608.0000 1.0000
24.2200 1641.0000 1.0000
24.2300 1652.0000 1.0000
24.2400 1624.0000 1.0000
24.2500 1601.0000 1.0000
24.2600 1651.0000 1.0000
24.2700 1595.0000 1.0000
24.2800 1658.0000 1.0000
24.2900 1660.0000 1.0000
24.3000 1621.0000 1.0000
24.3100 1630.0000 1.0000
24.3200 1632.0000 1.0000
24.3300 1656.0000 1.0000
24.3400 1605.0000 1.0000
24.3500 1687.0000 1.0000
24.3600 1601.0000 1.0000
24.3700 1629.0000 1.0000
24.3800 1601.0000 1.0000
24.3900 1653.0000 1.0000
24.4000 1607.0000 1.0000
24.4100 1654.0000 1.0000
24.4200 1601.0000 1.0000
24.4300 1592.0000 1.0000
24.4400 1565.0000 1.0000
24.4500 1671.0000 1.0000
24.4600 1650.0000 1.0000
24.4700 1662.0000 1.0000
24.4800 1602.0000 1.0000
24.4900 1622.0000 1.0000
24.5000 1664.0000 1.0000
24.5100 1602.0000 1.0000
24.5200 1660.0000 1.0000
24.5300 1579.0000 1.0000
24.5400 1616.0000 1.0000
24.5500 1627.0000 1.0000
24.5600 1658.0000 1.0000
24.5700 1746.0000 1.0000
24.5800 1650.0000 1.0000
24.5900 1675.0000 1.0000
24.6000 1678.0000 1.0000
24.6100 1674.0000 1.0000
24.6200 1695.0000 1.0000
24.6300 1661.0000 1.0000
24.6400 1625.0000 1.0000
24.6500 1656.0000 1.0000
24.6600 1652.0000 1.0000
24.6700 1672.0000 1.0000
24.6800 1686.0000 1.0000
24.6900 1667.0000 1.0000
24.7000 1649.0000 1.0000
24.7100 1730.0000 1.0000
24.7200 1676.0000 1.0000
24.7300 1706.0000 1.0000
24.7400 1671.0000 1.0000
24.7500 1668.0000 1.0000
24.7600 1730.0000 1.0000
24.7700 1656.0000 1.0000
24.7800 1690.0000 1.0000
24.7900 1589.0000 1.0000
24.8000 1698.0000 1.0000
24.8100 1685.0000 1.0000
24.8200 1595.0000 1.0000
24.8300 1647.0000 1.0000
24.8400 1722.0000 1.0000
24.8500 1648.0000 1.0000
24.8600 1676.0000 1.0000
24.8700 1654.0000 1.0000
24.8800 1641.0000 1.0000
24.8900 1708.0000 1.0000
24.9000 1688.0000 1.0000
24.9100 1758.0000 1.0000
24.9200 1767.0000 1.0000
24.9300 1777.0000 1.0000
24.9400 1714.0000 1.0000
24.9500 1774.0000 1.0000
24.9600 1770.0000 1.0000
24.9700 1701.0000 1.0000
24.9800 1668.0000 1.0000
24.9900 1696.0000 1.0000
25.0000 1746.0000 1.0000
25.0100 1783.0000 1.0000
25.0200 1762.0000 1.0000
25.0300 1746.0000 1.0000
25.0400 1680.0000 1.0000
25.0500 1684.0000 1.0000
25.0600 1753.0000 1.0000
25.0700 1659.0000 1.0000
25.0800 1674.0000 1.0000
25.0900 1711.0000 1.0000
25.1000 1743.0000 1.0000
25.1100 1745.0000 1.0000
25.1200 1739.0000 1.0000
25.1300 1727.0000 1.0000
25.1400 1667.0000 1.0000
25.1500 1699.0000 1.0000
25.1600 1708.0000 1.0000
25.1700 1752.0000 1.0000
25.1800 1724.0000 1.0000
25.1900 1711.0000 1.0000
25.2000 1708.0000 1.0000
25.2100 1788.0000 1.0000
25.2200 1695.0000 1.0000
25.2300 1653.0000 1.0000
25.2400 1667.0000 1.0000
25.2500 1745.0000 1.0000
25.2600 1713.0000 1.0000
25.2700 1736.0000 1.0000
25.2800 1701.0000 1.0000
25.2900 1740.0000 1.0000
25.3000 1681.0000 1.0000
25.3100 1720.0000 1.0000
25.3200 1728.0000 1.0000
25.3300 1706.0000 1.0000
25.3400 1675.0000 1.0000
25.3500 1673.0000 1.0000
25.3600 1747.0000 1.0000
25.3700 1745.0000 1.0000
25.3800 1747.0000 1.0000
25.3900 1676.0000 1.0000
25.4000 1677.0000 1.0000
25.4100 1701.0000 1.0000
25.4200 1701.0000 1.0000
25.4300 1723.0000 1.0000
25.4400 1715.0000 1.0000
25.4500 1670.0000 1.0000
25.4600 1648.0000 1.0000
25.4700 1686.0000 1.0000
25.4800 1687.0000 1.0000
25.4900 1650.0000 1.0000
25.5000 1618.0000 1.0000
25.5100 1736.0000 1.0000
25.5200 1664.0000 1.0000
25.5300 1621.0000 1.0000
25.5400 1651.0000 1.0000
25.5500 1668.0000 1.0000
25.5600 1640.0000 1.0000
25.5700 1668.0000 1.0000
25.5800 1632.0000 1.0000
25.5900 1652.0000 1.0000
25.6000 1657.0000 1.0000
25.6100 1643.0000 1.0000
25.6200 1684.0000 1.0000
25.6300 1700.0000 1.0000
25.6400 1708.0000 1.0000
25.6500 1723.0000 1.0000
25.6600 1690.0000 1.0000
25.6700 1658.0000 1.0000
25.6800 1713.0000 1.0000
25.6900 1719.0000 1.0000
25.7000 1753.0000 1.0000
25.7100 1706.0000 1.0000
25.7200 1711.0000 1.0000
25.7300 1661.0000 1.0000
25.7400 1643.0000 1.0000
25.7500 1656.0000 1.0000
25.7600 1665.0000 1.0000
25.7700 1677.0000 1.0000
25.7800 1687.0000 1.0000
25.7900 1736.0000 1.0000
25.8000 1719.0000 1.0000
25.8100 1739.0000 1.0000
25.8200 1711.0000 1.0000
25.8300 1677.0000 1.0000
25.8400 1627.0000 1.0000
25.8500 1656.0000 1.0000
25.8600 1725.0000 1.0000
25.8700 1665.0000 1.0000
25.8800 1730.0000 1.0000
25.8900 1724.0000 1.0000
25.9000 1678.0000 1.0000
25.9100 1613.0000 1.0000
25.9200 1624.0000 1.0000
25.9300 1636.0000 1.0000
25.9400 1700.0000 1.0000
25.9500 1733.0000 1.0000
25.9600 1689.0000 1.0000
25.9700 1683.0000 1.0000
25.9800 1694.0000 1.0000
25.9900 1743.0000 1.0000
26.0000 1716.0000 1.0000
26.0100 1701.0000 1.0000
26.0200 1670.0000 1.0000
26.0300 1612.0000 1.0000
26.0400 1686.0000 1.0000
26.0500 1698.0000 1.0000
26.0600 1683.0000 1.0000
26.0700 1643.0000 1.0000
26.0800 1743.0000 1.0000
26.0900 1708.0000 1.0000
26.1000 1708.0000 1.0000
26.1100 1670.0000 1.0000
26.1200 1698.0000 1.0000
26.1300 1752.0000 1.0000
26.1400 1691.0000 1.0000
26.1500 1646.0000 1.0000
26.1600 1722.0000 1.0000
26.1700 1680.0000 1.0000
26.1800 1775.0000 1.0000
26.1900 1699.0000 1.0000
26.2000 1741.0000 1.0000
26.2100 1717.0000 1.0000
26.2200 1646.0000 1.0000
26.2300 1676.0000 1.0000
26.2400 1718.0000 1.0000
26.2500 1711.0000 1.0000
26.2600 1694.0000 1.0000
26.2700 1676.0000 1.0000
26.2800 1711.0000 1.0000
26.2900 1772.0000 1.0000
26.3000 1670.0000 1.0000
26.3100 1697.0000 1.0000
26.3200 1786.0000 1.0000
26.3300 1716.0000 1.0000
26.3400 1734.0000 1.0000
26.3500 1793.0000 1.0000
26.3600 1762.0000 1.0000
26.3700 1714.0000 1.0000
26.3800 1783.0000 1.0000
26.3900 1726.0000 1.0000
26.4000 1742.0000 1.0000
26.4100 1730.0000 1.0000
26.4200 1817.0000 1.0000
26.4300 1858.0000 1.0000
26.4400 1777.0000 1.0000
26.4500 1775.0000 1.0000
26.4600 1699.0000 1.0000
26.4700 1749.0000 1.0000
26.4800 1732.0000 1.0000
26.4900 1680.0000 1.0000
26.5000 1792.0000 1.0000
26.5100 1816.0000 1.0000
26.5200 1726.0000 1.0000
26.5300 1708.0000 1.0000
26.5400 1708.0000 1.0000
26.5500 1767.0000 1.0000
26.5600 1784.0000 1.0000
26.5700 1768.0000 1.0000
26.5800 1768.0000 1.0000
26.5900 1780.0000 1.0000
26.6000 1756.0000 1.0000
26.6100 1811.0000 1.0000
26.6200 1762.0000 1.0000
26.6300 1737.0000 1.0000
26.6400 1770.0000 1.0000
26.6500 1793.0000 1.0000
26.6600 1739.0000 1.0000
26.6700 1840.0000 1.0000
26.6800 1760.0000 1.0000
26.6900 1783.0000 1.0000
26.7000 1773.0000 1.0000
26.7100 1818.0000 1.0000
26.7200 1825.0000 1.0000
26.7300 1826.0000 1.0000
26.7400 1813.0000 1.0000
26.7500 1724.0000 1.0000
26.7600 1803.0000 1.0000
26.7700 1806.0000 1.0000
26.7800 1855.0000 1.0000
26.7900 1852.0000 1.0000
26.8000 1809.0000 1.0000
26.8100 1845.0000 1.0000
26.8200 1883.0000 1.0000
26.8300 1946.0000 1.0000
26.8400 1908.0000 1.0000
26.8500 1862.0000 1.0000
26.8600 1976.0000 1.0000
26.8700 1934.0000 1.0000
26.8800 1970.0000 1.0000
26.8900 1973.0000 1.0000
26.9000 2008.0000 1.0000
26.9100 1975.0000 1.0000
26.9200 2023.0000 1.0000
26.9300 2067.0000 1.0000
26.9400 2063.0000 1.0000
26.9500 2116.0000 1.0000
26.9600 2126.0000 1.0000
26.9700 2104.0000 1.0000
26.9800 2127.0000 1.0000
26.9900 2316.0000 1.0000
27.0000 2276.0000 1.0000
27.0100 2306.0000 1.0000
27.0200 2362.0000 1.0000
27.0300 2456.0000 1.0000
27.0400 2518.0000 1.0000
27.0500 2517.0000 1.0000
27.0600 2519.0000 1.0000
27.0700 2665.0000 1.0000
27.0800 2773.0000 1.0000
27.0900 2793.0000 1.0000
27.1000 2923.0000 1.0000
27.1100 3027.0000 1.0000
27.1200 3063.0000 1.0000
27.1300 3187.0000 1.0000
27.1400 3396.0000 1.0000
27.1500 3522.0000 1.0000
27.1600 3623.0000 1.0000
27.1700 3656.0000 1.0000
27.1800 3968.0000 1.0000
27.1900 4226.0000 1.0000
27.2000 4448.0000 1.0000
27.2100 4522.0000 1.0000
27.2200 4797.0000 1.0000
27.2300 5102.0000 1.0000
27.2400 5310.0000 1.0000
27.2500 5379.0000 1.0000
27.2600 5855.0000 1.0000
27.2700 5981.0000 1.0000
27.2800 6080.0000 1.0000
27.2900 6328.0000 1.0000
27.3000 6257.0000 1.0000
27.3100 6492.0000 1.0000
27.3200 6367.0000 1.0000
27.3300 6194.0000 1.0000
27.3400 6087.0000 1.0000
27.3500 5925.0000 1.0000
27.3600 5695.0000 1.0000
27.3700 5505.0000 1.0000
27.3800 5241.0000 1.0000
27.3900 5028.0000 1.0000
27.4000 4688.0000 1.0000
27.4100 4422.0000 1.0000
27.4200 4425.0000 1.0000
27.4300 4110.0000 1.0000
27.4400 3844.0000 1.0000
27.4500 3656.0000 1.0000
27.4600 3588.0000 1.0000
27.4700 3401.0000 1.0000
27.4800 3272.0000 1.0000
27.4900 3114.0000 1.0000
27.5000 2991.0000 1.0000
27.5100 2898.0000 1.0000
27.5200 2886.0000 1.0000
27.5300 2746.0000 1.0000
27.5400 2698.0000 1.0000
27.5500 2597.0000 1.0000
27.5600 2575.0000 1.0000
27.5700 2508.0000 1.0000
27.5800 2454.0000 1.0000
27.5900 2363.0000 1.0000
27.6000 2208.0000 1.0000
27.6100 2222.0000 1.0000
27.6200 2189.0000 1.0000
27.6300 2128.0000 1.0000
27.6400 2087.0000 1.0000
27.6500 2106.0000 1.0000
27.6600 2070.0000 1.0000
27.6700 2094.0000 1.0000
27.6800 2007.0000 1.0000
27.6900 2011.0000 1.0000
27.7000 1954.0000 1.0000
27.7100 1944.0000 1.0000
27.7200 1960.0000 1.0000
27.7300 2004.0000 1.0000
27.7400 1983.0000 1.0000
27.7500 1845.0000 1.0000
27.7600 1880.0000 1.0000
27.7700 1841.0000 1.0000
27.7800 1848.0000 1.0000
27.7900 1854.0000 1.0000
27.8000 1867.0000 1.0000
27.8100 1801.0000 1.0000
27.8200 1817.0000 1.0000
27.8300 1747.0000 1.0000
27.8400 1795.0000 1.0000
27.8500 1786.0000 1.0000
27.8600 1779.0000 1.0000
27.8700 1829.0000 1.0000
27.8800 1780.0000 1.0000
27.8900 1756.0000 1.0000
27.9000 1743.0000 1.0000
27.9100 1795.0000 1.0000
27.9200 1785.0000 1.0000
27.9300 1739.0000 1.0000
27.9400 1783.0000 1.0000
27.9500 1729.0000 1.0000
27.9600 1785.0000 1.0000
27.9700 1778.0000 1.0000
27.9800 1750.0000 1.0000
27.9900 1739.0000 1.0000
28.0000 1707.0000 1.0000
28.0100 1703.0000 1.0000
28.0200 1642.0000 1.0000
28.0300 1642.0000 1.0000
28.0400 1639.0000 1.0000
28.0500 1627.0000 1.0000
28.0600 1681.0000 1.0000
28.0700 1665.0000 1.0000
28.0800 1638.0000 1.0000
28.0900 1598.0000 1.0000
28.1000 1650.0000 1.0000
28.1100 1688.0000 1.0000
28.1200 1647.0000 1.0000
28.1300 1603.0000 1.0000
28.1400 1657.0000 1.0000
28.1500 1680.0000 1.0000
28.1600 1650.0000 1.0000
28.1700 1696.0000 1.0000
28.1800 1680.0000 1.0000
28.1900 1636.0000 1.0000
28.2000 1622.0000 1.0000
28.2100 1658.0000 1.0000
28.2200 1600.0000 1.0000
28.2300 1615.0000 1.0000
28.2400 1651.0000 1.0000
28.2500 1634.0000 1.0000
28.2600 1617.0000 1.0000
28.2700 1694.0000 1.0000
28.2800 1622.0000 1.0000
28.2900 1640.0000 1.0000
28.3000 1650.0000 1.0000
28.3100 1603.0000 1.0000
28.3200 1610.0000 1.0000
28.3300 1627.0000 1.0000
28.3400 1644.0000 1.0000
28.3500 1631.0000 1.0000
28.3600 1608.0000 1.0000
28.3700 1653.0000 1.0000
28.3800 1575.0000 1.0000
28.3900 1576.0000 1.0000
28.4000 1642.0000 1.0000
28.4100 1614.0000 1.0000
28.4200 1650.0000 1.0000
28.4300 1626.0000 1.0000
28.4400 1542.0000 1.0000
28.4500 1592.0000 1.0000
28.4600 1557.0000 1.0000
28.4700 1629.0000 1.0000
28.4800 1655.0000 1.0000
28.4900 1627.0000 1.0000
28.5000 1630.0000 1.0000
28.5100 1599.0000 1.0000
28.5200 1633.0000 1.0000
28.5300 1579.0000 1.0000
28.5400 1598.0000 1.0000
28.5500 1631.0000 1.0000
28.5600 1599.0000 1.0000
28.5700 1586.0000 1.0000
28.5800 1579.0000 1.0000
28.5900 1551.0000 1.0000
28.6000 1632.0000 1.0000
28.6100 1655.0000 1.0000
28.6200 1590.0000 1.0000
28.6300 1592.0000 1.0000
28.6400 1588.0000 1.0000
28.6500 1547.0000 1.0000
28.6600 1550.0000 1.0000
28.6700 1585.0000 1.0000
28.6800 1610.0000 1.0000
28.6900 1538.0000 1.0000
28.7000 1559.0000 1.0000
28.7100 1545.0000 1.0000
28.7200 1587.0000 1.0000
28.7300 1602.0000 1.0000
28.7400 1559.0000 1.0000
28.7500 1545.0000 1.0000
28.7600 1569.0000 1.0000
28.7700 1584.0000 1.0000
28.7800 1574.0000 1.0000
28.7900 1622.0000 1.0000
28.8000 1633.0000 1.0000
28.8100 1657.0000 1.0000
28.8200 1589.0000 1.0000
28.8300 1566.0000 1.0000
28.8400 1591.0000 1.0000
28.8500 1553.0000 1.0000
28.8600 1562.0000 1.0000
28.8700 1572.0000 1.0000
28.8800 1579.0000 1.0000
28.8900 1546.0000 1.0000
28.9000 1544.0000 1.0000
28.9100 1569.0000 1.0000
28.9200 1527.0000 1.0000
28.9300 1484.0000 1.0000
28.9400 1586.0000 1.0000
28.9500 1522.0000 1.0000
28.9600 1538.0000 1.0000
28.9700 1522.0000 1.0000
28.9800 1529.0000 1.0000
28.9900 1520.0000 1.0000
29.0000 1614.0000 1.0000
29.0100 1550.0000 1.0000
29.0200 1560.0000 1.0000
29.0300 1576.0000 1.0000
29.0400 1538.0000 1.0000
29.0500 1567.0000 1.0000
29.0600 1545.0000 1.0000
29.0700 1494.0000 1.0000
29.0800 1510.0000 1.0000
29.0900 1572.0000 1.0000
29.1000 1566.0000 1.0000
29.1100 1514.0000 1.0000
29.1200 1484.0000 1.0000
29.1300 1493.0000 1.0000
29.1400 1520.0000 1.0000
29.1500 1561.0000 1.0000
29.1600 1536.0000 1.0000
29.1700 1488.0000 1.0000
29.1800 1490.0000 1.0000
29.1900 1553.0000 1.0000
29.2000 1516.0000 1.0000
29.2100 1567.0000 1.0000
29.2200 1554.0000 1.0000
29.2300 1551.0000 1.0000
29.2400 1609.0000 1.0000
29.2500 1550.0000 1.0000
29.2600 1541.0000 1.0000
29.2700 1522.0000 1.0000
29.2800 1521.0000 1.0000
29.2900 1542.0000 1.0000
29.3000 1590.0000 1.0000
29.3100 1537.0000 1.0000
29.3200 1525.0000 1.0000
29.3300 1576.0000 1.0000
29.3400 1522.0000 1.0000
29.3500 1543.0000 1.0000
29.3600 1516.0000 1.0000
29.3700 1541.0000 1.0000
29.3800 1438.0000 1.0000
29.3900 1482.0000 1.0000
29.4000 1509.0000 1.0000
29.4100 1519.0000 1.0000
29.4200 1502.0000 1.0000
29.4300 1535.0000 1.0000
29.4400 1520.0000 1.0000
29.4500 1512.0000 1.0000
29.4600 1515.0000 1.0000
29.4700 1497.0000 1.0000
29.4800 1564.0000 1.0000
29.4900 1526.0000 1.0000
29.5000 1508.0000 1.0000
29.5100 1502.0000 1.0000
29.5200 1479.0000 1.0000
29.5300 1493.0000 1.0000
29.5400 1585.0000 1.0000
29.5500 1568.0000 1.0000
29.5600 1509.0000 1.0000
29.5700 1549.0000 1.0000
29.5800 1511.0000 1.0000
29.5900 1472.0000 1.0000
29.6000 1459.0000 1.0000
29.6100 1479.0000 1.0000
29.6200 1564.0000 1.0000
29.6300 1518.0000 1.0000
29.6400 1478.0000 1.0000
29.6500 1494.0000 1.0000
29.6600 1545.0000 1.0000
29.6700 1513.0000 1.0000
29.6800 1547.0000 1.0000
29.6900 1502.0000 1.0000
29.7000 1478.0000 1.0000
29.7100 1500.0000 1.0000
29.7200 1463.0000 1.0000
29.7300 1504.0000 1.0000
29.7400 1478.0000 1.0000
29.7500 1506.0000 1.0000
29.7600 1523.0000 1.0000
29.7700 1526.0000 1.0000
29.7800 1469.0000 1.0000
29.7900 1478.0000 1.0000
29.8000 1463.0000 1.0000
29.8100 1420.0000 1.0000
29.8200 1475.0000 1.0000
29.8300 1496.0000 1.0000
29.8400 1478.0000 1.0000
29.8500 1409.0000 1.0000
29.8600 1460.0000 1.0000
29.8700 1537.0000 1.0000
29.8800 1470.0000 1.0000
29.8900 1492.0000 1.0000
29.9000 1449.0000 1.0000
29.9100 1505.0000 1.0000
29.9200 1493.0000 1.0000
29.9300 1466.0000 1.0000
29.9400 1485.0000 1.0000
29.9500 1512.0000 1.0000
29.9600 1513.0000 1.0000
29.9700 1476.0000 1.0000
29.9800 1470.0000 1.0000
29.9900 1480.0000 1.0000
30.0000 1514.0000 1.0000
30.0100 1499.0000 1.0000
30.0200 1487.0000 1.0000
30.0300 1424.0000 1.0000
30.0400 1407.0000 1.0000
30.0500 1480.0000 1.0000
30.0600 1483.0000 1.0000
30.0700 1450.0000 1.0000
30.0800 1470.0000 1.0000
30.0900 1542.0000 1.0000
30.1000 1535.0000 1.0000
30.1100 1524.0000 1.0000
30.1200 1514.0000 1.0000
30.1300 1470.0000 1.0000
30.1400 1483.0000 1.0000
30.1500 1419.0000 1.0000
30.1600 1449.0000 1.0000
30.1700 1425.0000 1.0000
30.1800 1471.0000 1.0000
30.1900 1439.0000 1.0000
30.2000 1469.0000 1.0000
30.2100 1471.0000 1.0000
30.2200 1391.0000 1.0000
30.2300 1368.0000 1.0000
30.2400 1432.0000 1.0000
30.2500 1436.0000 1.0000
30.2600 1445.0000 1.0000
30.2700 1496.0000 1.0000
30.2800 1427.0000 1.0000
30.2900 1447.0000 1.0000
30.3000 1457.0000 1.0000
30.3100 1439.0000 1.0000
30.3200 1357.0000 1.0000
30.3300 1401.0000 1.0000
30.3400 1444.0000 1.0000
30.3500 1499.0000 1.0000
30.3600 1428.0000 1.0000
30.3700 1432.0000 1.0000
30.3800 1502.0000 1.0000
30.3900 1455.0000 1.0000
30.4000 1420.0000 1.0000
30.4100 1490.0000 1.0000
30.4200 1451.0000 1.0000
30.4300 1421.0000 1.0000
30.4400 1446.0000 1.0000
30.4500 1471.0000 1.0000
30.4600 1414.0000 1.0000
30.4700 1445.0000 1.0000
30.4800 1447.0000 1.0000
30.4900 1464.0000 1.0000
30.5000 1436.0000 1.0000
30.5100 1412.0000 1.0000
30.5200 1411.0000 1.0000
30.5300 1420.0000 1.0000
30.5400 1451.0000 1.0000
30.5500 1423.0000 1.0000
30.5600 1459.0000 1.0000
30.5700 1424.0000 1.0000
30.5800 1419.0000 1.0000
30.5900 1430.0000 1.0000
30.6000 1418.0000 1.0000
30.6100 1480.0000 1.0000
30.6200 1468.0000 1.0000
30.6300 1447.0000 1.0000
30.6400 1486.0000 1.0000
30.6500 1425.0000 1.0000
30.6600 1403.0000 1.0000
30.6700 1481.0000 1.0000
30.6800 1414.0000 1.0000
30.6900 1411.0000 1.0000
30.7000 1505.0000 1.0000
30.7100 1458.0000 1.0000
30.7200 1420.0000 1.0000
30.7300 1398.0000 1.0000
30.7400 1489.0000 1.0000
30.7500 1417.0000 1.0000
30.7600 1436.0000 1.0000
30.7700 1415.0000 1.0000
30.7800 1433.0000 1.0000
30.7900 1428.0000 1.0000
30.8000 1368.0000 1.0000
30.8100 1390.0000 1.0000
30.8200 1437.0000 1.0000
30.8300 1432.0000 1.0000
30.8400 1405.0000 1.0000
30.8500 1473.0000 1.0000
30.8600 1473.0000 1.0000
30.8700 1429.0000 1.0000
30.8800 1481.0000 1.0000
30.8900 1430.0000 1.0000
30.9000 1447.0000 1.0000
30.9100 1442.0000 1.0000
30.9200 1357.0000 1.0000
30.9300 1363.0000 1.0000
30.9400 1384.0000 1.0000
30.9500 1429.0000 1.0000
30.9600 1401.0000 1.0000
30.9700 1440.0000 1.0000
30.9800 1403.0000 1.0000
30.9900 1476.0000 1.0000
31.0000 1443.0000 1.0000
31.0100 1425.0000 1.0000
31.0200 1373.0000 1.0000
31.0300 1411.0000 1.0000
31.0400 1413.0000 1.0000
31.0500 1416.0000 1.0000
31.0600 1453.0000 1.0000
31.0700 1366.0000 1.0000
31.0800 1442.0000 1.0000
31.0900 1403.0000 1.0000
31.1000 1388.0000 1.0000
31.1100 1438.0000 1.0000
31.1200 1406.0000 1.0000
31.1300 1455.0000 1.0000
31.1400 1511.0000 1.0000
31.1500 1424.0000 1.0000
31.1600 1393.0000 1.0000
31.1700 1405.0000 1.0000
31.1800 1441.0000 1.0000
31.1900 1403.0000 1.0000
31.2000 1376.0000 1.0000
31.2100 1400.0000 1.0000
31.2200 1442.0000 1.0000
31.2300 1449.0000 1.0000
31.2400 1362.0000 1.0000
31.2500 1425.0000 1.0000
31.2600 1413.0000 1.0000
31.2700 1376.0000 1.0000
31.2800 1378.0000 1.0000
31.2900 1344.0000 1.0000
31.3000 1395.0000 1.0000
31.3100 1394.0000 1.0000
31.3200 1377.0000 1.0000
31.3300 1392.0000 1.0000
31.3400 1386.0000 1.0000
31.3500 1378.0000 1.0000
31.3600 1396.0000 1.0000
31.3700 1438.0000 1.0000
31.3800 1433.0000 1.0000
31.3900 1348.0000 1.0000
31.4000 1348.0000 1.0000
31.4100 1417.0000 1.0000
31.4200 1391.0000 1.0000
31.4300 1424.0000 1.0000
31.4400 1373.0000 1.0000
31.4500 1399.0000 1.0000
31.4600 1387.0000 1.0000
31.4700 1378.0000 1.0000
31.4800 1369.0000 1.0000
31.4900 1401.0000 1.0000
31.5000 1392.0000 1.0000
31.5100 1374.0000 1.0000
31.5200 1404.0000 1.0000
31.5300 1406.0000 1.0000
31.5400 1369.0000 1.0000
31.5500 1394.0000 1.0000
31.5600 1391.0000 1.0000
31.5700 1324.0000 1.0000
31.5800 1380.0000 1.0000
31.5900 1386.0000 1.0000
31.6000 1337.0000 1.0000
31.6100 1369.0000 1.0000
31.6200 1362.0000 1.0000
31.6300 1359.0000 1.0000
31.6400 1338.0000 1.0000
31.6500 1329.0000 1.0000
31.6600 1325.0000 1.0000
31.6700 1304.0000 1.0000
31.6800 1328.0000 1.0000
31.6900 1309.0000 1.0000
31.7000 1372.0000 1.0000
31.7100 1340.0000 1.0000
31.7200 1392.0000 1.0000
31.7300 1335.0000 1.0000
31.7400 1385.0000 1.0000
31.7500 1378.0000 1.0000
31.7600 1362.0000 1.0000
31.7700 1348.0000 1.0000
31.7800 1403.0000 1.0000
31.7900 1419.0000 1.0000
31.8000 1393.0000 1.0000
31.8100 1377.0000 1.0000
31.8200 1341.0000 1.0000
31.8300 1379.0000 1.0000
31.8400 1343.0000 1.0000
31.8500 1343.0000 1.0000
31.8600 1351.0000 1.0000
31.8700 1380.0000 1.0000
31.8800 1393.0000 1.0000
31.8900 1334.0000 1.0000
31.9000 1402.0000 1.0000
31.9100 1355.0000 1.0000
31.9200 1388.0000 1.0000
31.9300 1383.0000 1.0000
31.9400 1381.0000 1.0000
31.9500 1398.0000 1.0000
31.9600 1449.0000 1.0000
31.9700 1395.0000 1.0000
31.9800 1385.0000 1.0000
31.9900 1416.0000 1.0000
32.0000 1429.0000 1.0000
32.0100 1386.0000 1.0000
32.0200 1397.0000 1.0000
32.0300 1381.0000 1.0000
32.0400 1377.0000 1.0000
32.0500 1402.0000 1.0000
32.0600 1391.0000 1.0000
32.0700 1377.0000 1.0000
32.0800 1357.0000 1.0000
32.0900 1439.0000 1.0000
32.1000 1364.0000 1.0000
32.1100 1423.0000 1.0000
32.1200 1454.0000 1.0000
32.1300 1431.0000 1.0000
32.1400 1451.0000 1.0000
32.1500 1452.0000 1.0000
32.1600 1401.0000 1.0000
32.1700 1375.0000 1.0000
32.1800 1413.0000 1.0000
32.1900 1321.0000 1.0000
32.2000 1371.0000 1.0000
32.2100 1401.0000 1.0000
32.2200 1344.0000 1.0000
32.2300 1351.0000 1.0000
32.2400 1337.0000 1.0000
32.2500 1373.0000 1.0000
32.2600 1384.0000 1.0000
32.2700 1351.0000 1.0000
32.2800 1357.0000 1.0000
32.2900 1305.0000 1.0000
32.3000 1384.0000 1.0000
32.3100 1366.0000 1.0000
32.3200 1364.0000 1.0000
32.3300 1361.0000 1.0000
32.3400 1297.0000 1.0000
32.3500 1294.0000 1.0000
32.3600 1318.0000 1.0000
32.3700 1329.0000 1.0000
32.3800 1325.0000 1.0000
32.3900 1341.0000 1.0000
32.4000 1366.0000 1.0000
32.4100 1341.0000 1.0000
32.4200 1266.0000 1.0000
32.4300 1363.0000 1.0000
32.4400 1355.0000 1.0000
32.4500 1376.0000 1.0000
32.4600 1328.0000 1.0000
32.4700 1359.0000 1.0000
32.4800 1345.0000 1.0000
32.4900 1365.0000 1.0000
32.5000 1351.0000 1.0000
32.5100 1371.0000 1.0000
32.5200 1346.0000 1.0000
32.5300 1314.0000 1.0000
32.5400 1300.0000 1.0000
32.5500 1284.0000 1.0000
32.5600 1341.0000 1.0000
32.5700 1307.0000 1.0000
32.5800 1319.0000 1.0000
32.5900 1358.0000 1.0000
32.6000 1327.0000 1.0000
32.6100 1328.0000 1.0000
32.6200 1325.0000 1.0000
32.6300 1364.0000 1.0000
32.6400 1330.0000 1.0000
32.6500 1337.0000 1.0000
32.6600 1313.0000 1.0000
32.6700 1379.0000 1.0000
32.6800 1357.0000 1.0000
32.6900 1321.0000 1.0000
32.7000 1284.0000 1.0000
32.7100 1324.0000 1.0000
32.7200 1366.0000 1.0000
32.7300 1363.0000 1.0000
32.7400 1357.0000 1.0000
32.7500 1357.0000 1.0000
32.7600 1345.0000 1.0000
32.7700 1288.0000 1.0000
32.7800 1370.0000 1.0000
32.7900 1334.0000 1.0000
32.8000 1253.0000 1.0000
32.8100 1322.0000 1.0000
32.8200 1305.0000 1.0000
32.8300 1308.0000 1.0000
32.8400 1274.0000 1.0000
32.8500 1328.0000 1.0000
32.8600 1307.0000 1.0000
32.8700 1332.0000 1.0000
32.8800 1340.0000 1.0000
32.8900 1287.0000 1.0000
32.9000 1292.0000 1.0000
32.9100 1243.0000 1.0000
32.9200 1302.0000 1.0000
32.9300 1300.0000 1.0000
32.9400 1323.0000 1.0000
32.9500 1316.0000 1.0000
32.9600 1321.0000 1.0000
32.9700 1283.0000 1.0000
32.9800 1295.0000 1.0000
32.9900 1267.0000 1.0000
33.0000 1338.0000 1.0000
33.0100 1323.0000 1.0000
33.0200 1248.0000 1.0000
33.0300 1285.0000 1.0000
33.0400 1293.0000 1.0000
33.0500 1351.0000 1.0000
33.0600 1307.0000 1.0000
33.0700 1297.0000 1.0000
33.0800 1320.0000 1.0000
33.0900 1334.0000 1.0000
33.1000 1341.0000 1.0000
33.1100 1316.0000 1.0000
33.1200 1207.0000 1.0000
33.1300 1313.0000 1.0000
33.1400 1326.0000 1.0000
33.1500 1242.0000 1.0000
33.1600 1262.0000 1.0000
33.1700 1283.0000 1.0000
33.1800 1290.0000 1.0000
33.1900 1266.0000 1.0000
33.2000 1298.0000 1.0000
33.2100 1294.0000 1.0000
33.2200 1309.0000 1.0000
33.2300 1258.0000 1.0000
33.2400 1292.0000 1.0000
33.2500 1330.0000 1.0000
33.2600 1321.0000 1.0000
33.2700 1276.0000 1.0000
33.2800 1347.0000 1.0000
33.2900 1345.0000 1.0000
33.3000 1293.0000 1.0000
33.3100 1355.0000 1.0000
33.3200 1252.0000 1.0000
33.3300 1279.0000 1.0000
33.3400 1324.0000 1.0000
33.3500 1290.0000 1.0000
33.3600 1304.0000 1.0000
33.3700 1281.0000 1.0000
33.3800 1251.0000 1.0000
33.3900 1316.0000 1.0000
33.4000 1282.0000 1.0000
33.4100 1302.0000 1.0000
33.4200 1277.0000 1.0000
33.4300 1284.0000 1.0000
33.4400 1279.0000 1.0000
33.4500 1243.0000 1.0000
33.4600 1289.0000 1.0000
33.4700 1312.0000 1.0000
33.4800 1277.0000 1.0000
33.4900 1265.0000 1.0000
33.5000 1225.0000 1.0000
33.5100 1322.0000 1.0000
33.5200 1251.0000 1.0000
33.5300 1309.0000 1.0000
33.5400 1305.0000 1.0000
33.5500 1319.0000 1.0000
33.5600 1308.0000 1.0000
33.5700 1362.0000 1.0000
33.5800 1319.0000 1.0000
33.5900 1298.0000 1.0000
33.6000 1397.0000 1.0000
33.6100 1333.0000 1.0000
33.6200 1307.0000 1.0000
33.6300 1296.0000 1.0000
33.6400 1296.0000 1.0000
33.6500 1305.0000 1.0000
33.6600 1295.0000 1.0000
33.6700 1362.0000 1.0000
33.6800 1300.0000 1.0000
33.6900 1313.0000 1.0000
33.7000 1314.0000 1.0000
33.7100 1259.0000 1.0000
33.7200 1332.0000 1.0000
33.7300 1324.0000 1.0000
33.7400 1337.0000 1.0000
33.7500 1326.0000 1.0000
33.7600 1358.0000 1.0000
33.7700 1423.0000 1.0000
33.7800 1413.0000 1.0000
33.7900 1377.0000 1.0000
33.8000 1343.0000 1.0000
33.8100 1393.0000 1.0000
33.8200 1337.0000 1.0000
33.8300 1316.0000 1.0000
33.8400 1411.0000 1.0000
33.8500 1378.0000 1.0000
33.8600 1429.0000 1.0000
33.8700 1453.0000 1.0000
33.8800 1448.0000 1.0000
33.8900 1429.0000 1.0000
33.9000 1448.0000 1.0000
33.9100 1497.0000 1.0000
33.9200 1476.0000 1.0000
33.9300 1469.0000 1.0000
33.9400 1514.0000 1.0000
33.9500 1524.0000 1.0000
33.9600 1536.0000 1.0000
33.9700 1541.0000 1.0000
33.9800 1471.0000 1.0000
33.9900 1497.0000 1.0000
34.0000 1434.0000 1.0000
34.0100 1528.0000 1.0000
34.0200 1530.0000 1.0000
34.0300 1490.0000 1.0000
34.0400 1422.0000 1.0000
34.0500 1396.0000 1.0000
34.0600 1387.0000 1.0000
34.0700 1411.0000 1.0000
34.0800 1400.0000 1.0000
34.0900 1441.0000 1.0000
34.1000 1430.0000 1.0000
34.1100 1457.0000 1.0000
34.1200 1395.0000 1.0000
34.1300 1405.0000 1.0000
34.1400 1418.0000 1.0000
34.1500 1417.0000 1.0000
34.1600 1439.0000 1.0000
34.1700 1481.0000 1.0000
34.1800 1489.0000 1.0000
34.1900 1426.0000 1.0000
34.2000 1489.0000 1.0000
34.2100 1543.0000 1.0000
34.2200 1516.0000 1.0000
34.2300 1585.0000 1.0000
34.2400 1574.0000 1.0000
34.2500 1554.0000 1.0000
34.2600 1589.0000 1.0000
34.2700 1650.0000 1.0000
34.2800 1651.0000 1.0000
34.2900 1657.0000 1.0000
34.3000 1690.0000 1.0000
34.3100 1646.0000 1.0000
34.3200 1807.0000 1.0000
34.3300 1771.0000 1.0000
34.3400 1840.0000 1.0000
34.3500 1819.0000 1.0000
34.3600 1909.0000 1.0000
34.3700 2037.0000 1.0000
34.3800 2129.0000 1.0000
34.3900 2207.0000 1.0000
34.4000 2225.0000 1.0000
34.4100 2271.0000 1.0000
34.4200 2350.0000 1.0000
34.4300 2499.0000 1.0000
34.4400 2602.0000 1.0000
34.4500 2664.0000 1.0000
34.4600 2769.0000 1.0000
34.4700 2856.0000 1.0000
34.4800 2769.0000 1.0000
34.4900 2880.0000 1.0000
34.5000 2962.0000 1.0000
34.5100 2801.0000 1.0000
34.5200 2902.0000 1.0000
34.5300 2935.0000 1.0000
34.5400 2725.0000 1.0000
34.5500 2784.0000 1.0000
34.5600 2756.0000 1.0000
34.5700 2658.0000 1.0000
34.5800 2496.0000 1.0000
34.5900 2486.0000 1.0000
34.6000 2490.0000 1.0000
34.6100 2441.0000 1.0000
34.6200 2340.0000 1.0000
34.6300 2230.0000 1.0000
34.6400 2199.0000 1.0000
34.6500 2075.0000 1.0000
34.6600 2033.0000 1.0000
34.6700 1920.0000 1.0000
34.6800 1887.0000 1.0000
34.6900 1802.0000 1.0000
34.7000 1742.0000 1.0000
34.7100 1791.0000 1.0000
34.7200 1694.0000 1.0000
34.7300 1672.0000 1.0000
34.7400 1700.0000 1.0000
34.7500 1707.0000 1.0000
34.7600 1599.0000 1.0000
34.7700 1540.0000 1.0000
34.7800 1492.0000 1.0000
34.7900 1559.0000 1.0000
34.8000 1511.0000 1.0000
34.8100 1524.0000 1.0000
34.8200 1550.0000 1.0000
34.8300 1500.0000 1.0000
34.8400 1442.0000 1.0000
34.8500 1429.0000 1.0000
34.8600 1379.0000 1.0000
34.8700 1411.0000 1.0000
34.8800 1436.0000 1.0000
34.8900 1341.0000 1.0000
34.9000 1332.0000 1.0000
34.9100 1310.0000 1.0000
34.9200 1339.0000 1.0000
34.9300 1306.0000 1.0000
34.9400 1336.0000 1.0000
34.9500 1286.0000 1.0000
34.9600 1304.0000 1.0000
34.9700 1348.0000 1.0000
34.9800 1288.0000 1.0000
34.9900 1253.0000 1.0000
35.0000 1271.0000 1.0000
35.0100 1231.0000 1.0000
35.0200 1262.0000 1.0000
35.0300 1239.0000 1.0000
35.0400 1293.0000 1.0000
35.0500 1246.0000 1.0000
35.0600 1206.0000 1.0000
35.0700 1255.0000 1.0000
35.0800 1280.0000 1.0000
35.0900 1191.0000 1.0000
35.1000 1163.0000 1.0000
35.1100 1247.0000 1.0000
35.1200 1233.0000 1.0000
35.1300 1236.0000 1.0000
35.1400 1177.0000 1.0000
35.1500 1190.0000 1.0000
35.1600 1250.0000 1.0000
35.1700 1264.0000 1.0000
35.1800 1202.0000 1.0000
35.1900 1222.0000 1.0000
35.2000 1180.0000 1.0000
35.2100 1175.0000 1.0000
35.2200 1180.0000 1.0000
35.2300 1177.0000 1.0000
35.2400 1137.0000 1.0000
35.2500 1151.0000 1.0000
35.2600 1179.0000 1.0000
35.2700 1201.0000 1.0000
35.2800 1182.0000 1.0000
35.2900 1173.0000 1.0000
35.3000 1193.0000 1.0000
35.3100 1183.0000 1.0000
35.3200 1086.0000 1.0000
35.3300 1142.0000 1.0000
35.3400 1145.0000 1.0000
35.3500 1209.0000 1.0000
35.3600 1155.0000 1.0000
35.3700 1141.0000 1.0000
35.3800 1155.0000 1.0000
35.3900 1159.0000 1.0000
35.4000 1128.0000 1.0000
35.4100 1108.0000 1.0000
35.4200 1137.0000 1.0000
35.4300 1141.0000 1.0000
35.4400 1128.0000 1.0000
35.4500 1155.0000 1.0000
35.4600 1207.0000 1.0000
35.4700 1171.0000 1.0000
35.4800 1112.0000 1.0000
35.4900 1107.0000 1.0000
35.5000 1126.0000 1.0000
35.5100 1132.0000 1.0000
35.5200 1109.0000 1.0000
35.5300 1151.0000 1.0000
35.5400 1161.0000 1.0000
35.5500 1159.0000 1.0000
35.5600 1179.0000 1.0000
35.5700 1140.0000 1.0000
35.5800 1158.0000 1.0000
35.5900 1169.0000 1.0000
35.6000 1137.0000 1.0000
35.6100 1119.0000 1.0000
35.6200 1088.0000 1.0000
35.6300 1135.0000 1.0000
35.6400 1121.0000 1.0000
35.6500 1191.0000 1.0000
35.6600 1167.0000 1.0000
35.6700 1125.0000 1.0000
35.6800 1117.0000 1.0000
35.6900 1155.0000 1.0000
35.7000 1080.0000 1.0000
35.7100 1122.0000 1.0000
35.7200 1090.0000 1.0000
35.7300 1068.0000 1.0000
35.7400 1142.0000 1.0000
35.7500 1163.0000 1.0000
35.7600 1116.0000 1.0000
35.7700 1080.0000 1.0000
35.7800 1112.0000 1.0000
35.7900 1124.0000 1.0000
35.8000 1107.0000 1.0000
35.8100 1108.0000 1.0000
35.8200 1050.0000 1.0000
35.8300 1103.0000 1.0000
35.8400 1142.0000 1.0000
35.8500 1162.0000 1.0000
35.8600 1158.0000 1.0000
35.8700 1114.0000 1.0000
35.8800 1122.0000 1.0000
35.8900 1139.0000 1.0000
35.9000 1110.0000 1.0000
35.9100 1093.0000 1.0000
35.9200 1091.0000 1.0000
35.9300 1110.0000 1.0000
35.9400 1133.0000 1.0000
35.9500 1105.0000 1.0000
35.9600 1117.0000 1.0000
35.9700 1122.0000 1.0000
35.9800 1136.0000 1.0000
35.9900 1113.0000 1.0000
36.0000 1140.0000 1.0000
36.0100 1128.0000 1.0000
36.0200 1113.0000 1.0000
36.0300 1134.0000 1.0000
36.0400 1180.0000 1.0000
36.0500 1122.0000 1.0000
36.0600 1183.0000 1.0000
36.0700 1150.0000 1.0000
36.0800 1193.0000 1.0000
36.0900 1138.0000 1.0000
36.1000 1145.0000 1.0000
36.1100 1160.0000 1.0000
36.1200 1214.0000 1.0000
36.1300 1129.0000 1.0000
36.1400 1203.0000 1.0000
36.1500 1207.0000 1.0000
36.1600 1187.0000 1.0000
36.1700 1181.0000 1.0000
36.1800 1209.0000 1.0000
36.1900 1199.0000 1.0000
36.2000 1201.0000 1.0000
36.2100 1214.0000 1.0000
36.2200 1272.0000 1.0000
36.2300 1255.0000 1.0000
36.2400 1241.0000 1.0000
36.2500 1265.0000 1.0000
36.2600 1331.0000 1.0000
36.2700 1427.0000 1.0000
36.2800 1382.0000 1.0000
36.2900 1386.0000 1.0000
36.3000 1441.0000 1.0000
36.3100 1453.0000 1.0000
36.3200 1609.0000 1.0000
36.3300 1714.0000 1.0000
36.3400 1660.0000 1.0000
36.3500 1798.0000 1.0000
36.3600 1834.0000 1.0000
36.3700 1979.0000 1.0000
36.3800 2050.0000 1.0000
36.3900 2074.0000 1.0000
36.4000 2021.0000 1.0000
36.4100 2065.0000 1.0000
36.4200 2053.0000 1.0000
36.4300 2056.0000 1.0000
36.4400 2164.0000 1.0000
36.4500 2045.0000 1.0000
36.4600 2005.0000 1.0000
36.4700 1805.0000 1.0000
36.4800 1839.0000 1.0000
36.4900 1827.0000 1.0000
36.5000 1745.0000 1.0000
36.5100 1700.0000 1.0000
36.5200 1735.0000 1.0000
36.5300 1621.0000 1.0000
36.5400 1534.0000 1.0000
36.5500 1495.0000 1.0000
36.5600 1460.0000 1.0000
36.5700 1362.0000 1.0000
36.5800 1265.0000 1.0000
36.5900 1287.0000 1.0000
36.6000 1252.0000 1.0000
36.6100 1232.0000 1.0000
36.6200 1225.0000 1.0000
36.6300 1261.0000 1.0000
36.6400 1161.0000 1.0000
36.6500 1121.0000 1.0000
36.6600 1183.0000 1.0000
36.6700 1122.0000 1.0000
36.6800 1116.0000 1.0000
36.6900 1060.0000 1.0000
36.7000 1135.0000 1.0000
36.7100 1094.0000 1.0000
36.7200 1055.0000 1.0000
36.7300 1034.0000 1.0000
36.7400 1082.0000 1.0000
36.7500 1074.0000 1.0000
36.7600 1065.0000 1.0000
36.7700 1032.0000 1.0000
36.7800 1045.0000 1.0000
36.7900 1054.0000 1.0000
36.8000 1109.0000 1.0000
36.8100 1041.0000 1.0000
36.8200 1049.0000 1.0000
36.8300 1036.0000 1.0000
36.8400 1097.0000 1.0000
36.8500 1043.0000 1.0000
36.8600 1030.0000 1.0000
36.8700 1010.0000 1.0000
36.8800 1063.0000 1.0000
36.8900 1056.0000 1.0000
36.9000 1072.0000 1.0000
36.9100 996.0000 1.0000
36.9200 1041.0000 1.0000
36.9300 1099.0000 1.0000
36.9400 1086.0000 1.0000
36.9500 1089.0000 1.0000
36.9600 1062.0000 1.0000
36.9700 990.0000 1.0000
36.9800 1024.0000 1.0000
36.9900 1008.0000 1.0000
37.0000 1023.0000 1.0000
37.0100 1002.0000 1.0000
37.0200 1031.0000 1.0000
37.0300 991.0000 1.0000
37.0400 1027.0000 1.0000
37.0500 960.0000 1.0000
37.0600 1011.0000 1.0000
37.0700 978.0000 1.0000
37.0800 1036.0000 1.0000
37.0900 1044.0000 1.0000
37.1000 988.0000 1.0000
37.1100 974.0000 1.0000
37.1200 1015.0000 1.0000
37.1300 968.0000 1.0000
37.1400 1010.0000 1.0000
37.1500 1047.0000 1.0000
37.1600 1032.0000 1.0000
37.1700 1018.0000 1.0000
37.1800 985.0000 1.0000
37.1900 1001.0000 1.0000
37.2000 1034.0000 1.0000
37.2100 1011.0000 1.0000
37.2200 1002.0000 1.0000
37.2300 1000.0000 1.0000
37.2400 1057.0000 1.0000
37.2500 1031.0000 1.0000
37.2600 1016.0000 1.0000
37.2700 1018.0000 1.0000
37.2800 1060.0000 1.0000
37.2900 1035.0000 1.0000
37.3000 1015.0000 1.0000
37.3100 1043.0000 1.0000
37.3200 960.0000 1.0000
37.3300 1053.0000 1.0000
37.3400 952.0000 1.0000
37.3500 1052.0000 1.0000
37.3600 1034.0000 1.0000
37.3700 1014.0000 1.0000
37.3800 1039.0000 1.0000
37.3900 1096.0000 1.0000
37.4000 1032.0000 1.0000
37.4100 989.0000 1.0000
37.4200 1050.0000 1.0000
37.4300 1072.0000 1.0000
37.4400 1025.0000 1.0000
37.4500 1034.0000 1.0000
37.4600 1018.0000 1.0000
37.4700 1000.0000 1.0000
37.4800 988.0000 1.0000
37.4900 1033.0000 1.0000
37.5000 1101.0000 1.0000
37.5100 1086.0000 1.0000
37.5200 1032.0000 1.0000
37.5300 1032.0000 1.0000
37.5400 1005.0000 1.0000
37.5500 1000.0000 1.0000
37.5600 1034.0000 1.0000
37.5700 1031.0000 1.0000
37.5800 984.0000 1.0000
37.5900 988.0000 1.0000
37.6000 1008.0000 1.0000
37.6100 1035.0000 1.0000
37.6200 1030.0000 1.0000
37.6300 1043.0000 1.0000
37.6400 1043.0000 1.0000
37.6500 1073.0000 1.0000
37.6600 1053.0000 1.0000
37.6700 984.0000 1.0000
37.6800 1037.0000 1.0000
37.6900 1004.0000 1.0000
37.7000 1018.0000 1.0000
37.7100 997.0000 1.0000
37.7200 979.0000 1.0000
37.7300 1032.0000 1.0000
37.7400 1022.0000 1.0000
37.7500 1062.0000 1.0000
37.7600 1055.0000 1.0000
37.7700 1029.0000 1.0000
37.7800 1023.0000 1.0000
37.7900 1049.0000 1.0000
37.8000 1047.0000 1.0000
37.8100 1038.0000 1.0000
37.8200 1020.0000 1.0000
37.8300 1039.0000 1.0000
37.8400 989.0000 1.0000
37.8500 1027.0000 1.0000
37.8600 1021.0000 1.0000
37.8700 1073.0000 1.0000
37.8800 1058.0000 1.0000
37.8900 1085.0000 1.0000
37.9000 1086.0000 1.0000
37.9100 1062.0000 1.0000
37.9200 1067.0000 1.0000
37.9300 1074.0000 1.0000
37.9400 1065.0000 1.0000
37.9500 1049.0000 1.0000
37.9600 1090.0000 1.0000
37.9700 1129.0000 1.0000
37.9800 1093.0000 1.0000
37.9900 1112.0000 1.0000
38.0000 1093.0000 1.0000
38.0100 1060.0000 1.0000
38.0200 1068.0000 1.0000
38.0300 1082.0000 1.0000
38.0400 1071.0000 1.0000
38.0500 1159.0000 1.0000
38.0600 1140.0000 1.0000
38.0700 1140.0000 1.0000
38.0800 1115.0000 1.0000
38.0900 1147.0000 1.0000
38.1000 1192.0000 1.0000
38.1100 1219.0000 1.0000
38.1200 1197.0000 1.0000
38.1300 1191.0000 1.0000
38.1400 1209.0000 1.0000
38.1500 1281.0000 1.0000
38.1600 1280.0000 1.0000
38.1700 1297.0000 1.0000
38.1800 1305.0000 1.0000
38.1900 1389.0000 1.0000
38.2000 1350.0000 1.0000
38.2100 1451.0000 1.0000
38.2200 1463.0000 1.0000
38.2300 1531.0000 1.0000
38.2400 1543.0000 1.0000
38.2500 1629.0000 1.0000
38.2600 1670.0000 1.0000
38.2700 1658.0000 1.0000
38.2800 1715.0000 1.0000
38.2900 1832.0000 1.0000
38.3000 1972.0000 1.0000
38.3100 2055.0000 1.0000
38.3200 2066.0000 1.0000
38.3300 2152.0000 1.0000
38.3400 2233.0000 1.0000
38.3500 2297.0000 1.0000
38.3600 2508.0000 1.0000
38.3700 2677.0000 1.0000
38.3800 2829.0000 1.0000
38.3900 2987.0000 1.0000
38.4000 3171.0000 1.0000
38.4100 3443.0000 1.0000
38.4200 3611.0000 1.0000
38.4300 3912.0000 1.0000
38.4400 4219.0000 1.0000
38.4500 4480.0000 1.0000
38.4600 4854.0000 1.0000
38.4700 5119.0000 1.0000
38.4800 5382.0000 1.0000
38.4900 5668.0000 1.0000
38.5000 6142.0000 1.0000
38.5100 6565.0000 1.0000
38.5200 6679.0000 1.0000
38.5300 6938.0000 1.0000
38.5400 7220.0000 1.0000
38.5500 7223.0000 1.0000
38.5600 7273.0000 1.0000
38.5700 7492.0000 1.0000
38.5800 7162.0000 1.0000
38.5900 7124.0000 1.0000
38.6000 6958.0000 1.0000
38.6100 6713.0000 1.0000
38.6200 6529.0000 1.0000
38.6300 6243.0000 1.0000
38.6400 6078.0000 1.0000
38.6500 5656.0000 1.0000
38.6600 5395.0000 1.0000
38.6700 5115.0000 1.0000
38.6800 4893.0000 1.0000
38.6900 4569.0000 1.0000
38.7000 4297.0000 1.0000
38.7100 4068.0000 1.0000
38.7200 3740.0000 1.0000
38.7300 3429.0000 1.0000
38.7400 3269.0000 1.0000
38.7500 3074.0000 1.0000
38.7600 2826.0000 1.0000
38.7700 2649.0000 1.0000
38.7800 2502.0000 1.0000
38.7900 2336.0000 1.0000
38.8000 2150.0000 1.0000
38.8100 2079.0000 1.0000
38.8200 1952.0000 1.0000
38.8300 1863.0000 1.0000
38.8400 1851.0000 1.0000
38.8500 1738.0000 1.0000
38.8600 1624.0000 1.0000
38.8700 1589.0000 1.0000
38.8800 1571.0000 1.0000
38.8900 1480.0000 1.0000
38.9000 1441.0000 1.0000
38.9100 1409.0000 1.0000
38.9200 1348.0000 1.0000
38.9300 1272.0000 1.0000
38.9400 1278.0000 1.0000
38.9500 1300.0000 1.0000
38.9600 1236.0000 1.0000
38.9700 1221.0000 1.0000
38.9800 1170.0000 1.0000
38.9900 1153.0000 1.0000
39.0000 1118.0000 1.0000
39.0100 1116.0000 1.0000
39.0200 1085.0000 1.0000
39.0300 1121.0000 1.0000
39.0400 1044.0000 1.0000
39.0500 1088.0000 1.0000
39.0600 1057.0000 1.0000
39.0700 1092.0000 1.0000
39.0800 1037.0000 1.0000
39.0900 1028.0000 1.0000
39.1000 1008.0000 1.0000
39.1100 1046.0000 1.0000
39.1200 999.0000 1.0000
39.1300 983.0000 1.0000
39.1400 1028.0000 1.0000
39.1500 1031.0000 1.0000
39.1600 1020.0000 1.0000
39.1700 995.0000 1.0000
39.1800 993.0000 1.0000
39.1900 986.0000 1.0000
39.2000 982.0000 1.0000
39.2100 918.0000 1.0000
39.2200 986.0000 1.0000
39.2300 941.0000 1.0000
39.2400 982.0000 1.0000
39.2500 974.0000 1.0000
39.2600 994.0000 1.0000
39.2700 984.0000 1.0000
39.2800 979.0000 1.0000
39.2900 943.0000 1.0000
39.3000 912.0000 1.0000
39.3100 959.0000 1.0000
39.3200 934.0000 1.0000
39.3300 934.0000 1.0000
39.3400 974.0000 1.0000
39.3500 1011.0000 1.0000
39.3600 931.0000 1.0000
39.3700 951.0000 1.0000
39.3800 948.0000 1.0000
39.3900 959.0000 1.0000
39.4000 970.0000 1.0000
39.4100 945.0000 1.0000
39.4200 941.0000 1.0000
39.4300 955.0000 1.0000
39.4400 954.0000 1.0000
39.4500 962.0000 1.0000
39.4600 936.0000 1.0000
39.4700 996.0000 1.0000
39.4800 925.0000 1.0000
39.4900 956.0000 1.0000
39.5000 961.0000 1.0000
39.5100 967.0000 1.0000
39.5200 930.0000 1.0000
39.5300 948.0000 1.0000
39.5400 982.0000 1.0000
39.5500 994.0000 1.0000
39.5600 956.0000 1.0000
39.5700 937.0000 1.0000
39.5800 953.0000 1.0000
39.5900 953.0000 1.0000
39.6000 906.0000 1.0000
39.6100 929.0000 1.0000
39.6200 1014.0000 1.0000
39.6300 956.0000 1.0000
39.6400 996.0000 1.0000
39.6500 948.0000 1.0000
39.6600 992.0000 1.0000
39.6700 931.0000 1.0000
39.6800 898.0000 1.0000
39.6900 924.0000 1.0000
39.7000 909.0000 1.0000
39.7100 959.0000 1.0000
39.7200 974.0000 1.0000
39.7300 962.0000 1.0000
39.7400 923.0000 1.0000
39.7500 880.0000 1.0000
39.7600 921.0000 1.0000
39.7700 907.0000 1.0000
39.7800 913.0000 1.0000
39.7900 906.0000 1.0000
39.8000 926.0000 1.0000
39.8100 900.0000 1.0000
39.8200 916.0000 1.0000
39.8300 898.0000 1.0000
39.8400 922.0000 1.0000
39.8500 927.0000 1.0000
39.8600 900.0000 1.0000
39.8700 842.0000 1.0000
39.8800 900.0000 1.0000
39.8900 883.0000 1.0000
39.9000 897.0000 1.0000
39.9100 924.0000 1.0000
39.9200 812.0000 1.0000
39.9300 895.0000 1.0000
39.9400 900.0000 1.0000
39.9500 913.0000 1.0000
39.9600 915.0000 1.0000
39.9700 870.0000 1.0000
39.9800 929.0000 1.0000
39.9900 865.0000 1.0000
40.0000 817.0000 1.0000
40.0100 897.0000 1.0000
40.0200 885.0000 1.0000
40.0300 915.0000 1.0000
40.0400 920.0000 1.0000
40.0500 852.0000 1.0000
40.0600 840.0000 1.0000
40.0700 896.0000 1.0000
40.0800 907.0000 1.0000
40.0900 913.0000 1.0000
40.1000 886.0000 1.0000
40.1100 861.0000 1.0000
40.1200 910.0000 1.0000
40.1300 874.0000 1.0000
40.1400 816.0000 1.0000
40.1500 837.0000 1.0000
40.1600 857.0000 1.0000
40.1700 839.0000 1.0000
40.1800 900.0000 1.0000
40.1900 837.0000 1.0000
40.2000 842.0000 1.0000
40.2100 851.0000 1.0000
40.2200 837.0000 1.0000
40.2300 873.0000 1.0000
40.2400 875.0000 1.0000
40.2500 849.0000 1.0000
40.2600 868.0000 1.0000
40.2700 842.0000 1.0000
40.2800 807.0000 1.0000
40.2900 838.0000 1.0000
40.3000 898.0000 1.0000
40.3100 898.0000 1.0000
40.3200 854.0000 1.0000
40.3300 835.0000 1.0000
40.3400 808.0000 1.0000
40.3500 892.0000 1.0000
40.3600 886.0000 1.0000
40.3700 869.0000 1.0000
40.3800 836.0000 1.0000
40.3900 888.0000 1.0000
40.4000 850.0000 1.0000
40.4100 906.0000 1.0000
40.4200 878.0000 1.0000
40.4300 855.0000 1.0000
40.4400 869.0000 1.0000
40.4500 851.0000 1.0000
40.4600 869.0000 1.0000
40.4700 898.0000 1.0000
40.4800 849.0000 1.0000
40.4900 875.0000 1.0000
40.5000 853.0000 1.0000
40.5100 863.0000 1.0000
40.5200 860.0000 1.0000
40.5300 855.0000 1.0000
40.5400 876.0000 1.0000
40.5500 833.0000 1.0000
40.5600 853.0000 1.0000
40.5700 872.0000 1.0000
40.5800 865.0000 1.0000
40.5900 850.0000 1.0000
40.6000 870.0000 1.0000
40.6100 802.0000 1.0000
40.6200 855.0000 1.0000
40.6300 852.0000 1.0000
40.6400 845.0000 1.0000
40.6500 837.0000 1.0000
40.6600 870.0000 1.0000
40.6700 829.0000 1.0000
40.6800 810.0000 1.0000
40.6900 818.0000 1.0000
40.7000 825.0000 1.0000
40.7100 856.0000 1.0000
40.7200 848.0000 1.0000
40.7300 830.0000 1.0000
40.7400 863.0000 1.0000
40.7500 873.0000 1.0000
40.7600 822.0000 1.0000
40.7700 836.0000 1.0000
40.7800 803.0000 1.0000
40.7900 854.0000 1.0000
40.8000 844.0000 1.0000
40.8100 877.0000 1.0000
40.8200 831.0000 1.0000
40.8300 847.0000 1.0000
40.8400 843.0000 1.0000
40.8500 833.0000 1.0000
40.8600 814.0000 1.0000
40.8700 897.0000 1.0000
40.8800 899.0000 1.0000
40.8900 868.0000 1.0000
40.9000 781.0000 1.0000
40.9100 871.0000 1.0000
40.9200 835.0000 1.0000
40.9300 811.0000 1.0000
40.9400 853.0000 1.0000
40.9500 779.0000 1.0000
40.9600 825.0000 1.0000
40.9700 849.0000 1.0000
40.9800 805.0000 1.0000
40.9900 787.0000 1.0000
41.0000 829.0000 1.0000
41.0100 848.0000 1.0000
41.0200 874.0000 1.0000
41.0300 837.0000 1.0000
41.0400 851.0000 1.0000
41.0500 854.0000 1.0000
41.0600 844.0000 1.0000
41.0700 844.0000 1.0000
41.0800 838.0000 1.0000
41.0900 831.0000 1.0000
41.1000 858.0000 1.0000
41.1100 845.0000 1.0000
41.1200 813.0000 1.0000
41.1300 830.0000 1.0000
41.1400 814.0000 1.0000
41.1500 878.0000 1.0000
41.1600 817.0000 1.0000
41.1700 813.0000 1.0000
41.1800 831.0000 1.0000
41.1900 864.0000 1.0000
41.2000 886.0000 1.0000
41.2100 842.0000 1.0000
41.2200 847.0000 1.0000
41.2300 818.0000 1.0000
41.2400 880.0000 1.0000
41.2500 812.0000 1.0000
41.2600 831.0000 1.0000
41.2700 853.0000 1.0000
41.2800 836.0000 1.0000
41.2900 824.0000 1.0000
41.3000 827.0000 1.0000
41.3100 847.0000 1.0000
41.3200 850.0000 1.0000
41.3300 801.0000 1.0000
41.3400 790.0000 1.0000
41.3500 825.0000 1.0000
41.3600 833.0000 1.0000
41.3700 837.0000 1.0000
41.3800 862.0000 1.0000
41.3900 827.0000 1.0000
41.4000 782.0000 1.0000
41.4100 828.0000 1.0000
41.4200 813.0000 1.0000
41.4300 823.0000 1.0000
41.4400 825.0000 1.0000
41.4500 873.0000 1.0000
41.4600 822.0000 1.0000
41.4700 823.0000 1.0000
41.4800 813.0000 1.0000
41.4900 836.0000 1.0000
41.5000 818.0000 1.0000
41.5100 848.0000 1.0000
41.5200 841.0000 1.0000
41.5300 870.0000 1.0000
41.5400 804.0000 1.0000
41.5500 874.0000 1.0000
41.5600 867.0000 1.0000
41.5700 870.0000 1.0000
41.5800 867.0000 1.0000
41.5900 868.0000 1.0000
41.6000 856.0000 1.0000
41.6100 877.0000 1.0000
41.6200 875.0000 1.0000
41.6300 836.0000 1.0000
41.6400 806.0000 1.0000
41.6500 833.0000 1.0000
41.6600 864.0000 1.0000
41.6700 865.0000 1.0000
41.6800 890.0000 1.0000
41.6900 835.0000 1.0000
41.7000 795.0000 1.0000
41.7100 821.0000 1.0000
41.7200 846.0000 1.0000
41.7300 868.0000 1.0000
41.7400 896.0000 1.0000
41.7500 833.0000 1.0000
41.7600 820.0000 1.0000
41.7700 865.0000 1.0000
41.7800 854.0000 1.0000
41.7900 857.0000 1.0000
41.8000 786.0000 1.0000
41.8100 807.0000 1.0000
41.8200 817.0000 1.0000
41.8300 842.0000 1.0000
41.8400 809.0000 1.0000
41.8500 868.0000 1.0000
41.8600 901.0000 1.0000
41.8700 836.0000 1.0000
41.8800 803.0000 1.0000
41.8900 810.0000 1.0000
41.9000 855.0000 1.0000
41.9100 848.0000 1.0000
41.9200 772.0000 1.0000
41.9300 865.0000 1.0000
41.9400 814.0000 1.0000
41.9500 813.0000 1.0000
41.9600 840.0000 1.0000
41.9700 808.0000 1.0000
41.9800 816.0000 1.0000
41.9900 838.0000 1.0000
42.0000 799.0000 1.0000
42.0100 850.0000 1.0000
42.0200 773.0000 1.0000
42.0300 798.0000 1.0000
42.0400 829.0000 1.0000
42.0500 875.0000 1.0000
42.0600 861.0000 1.0000
42.0700 811.0000 1.0000
42.0800 829.0000 1.0000
42.0900 849.0000 1.0000
42.1000 806.0000 1.0000
42.1100 807.0000 1.0000
42.1200 834.0000 1.0000
42.1300 795.0000 1.0000
42.1400 781.0000 1.0000
42.1500 781.0000 1.0000
42.1600 828.0000 1.0000
42.1700 885.0000 1.0000
42.1800 852.0000 1.0000
42.1900 847.0000 1.0000
42.2000 782.0000 1.0000
42.2100 780.0000 1.0000
42.2200 801.0000 1.0000
42.2300 828.0000 1.0000
42.2400 798.0000 1.0000
42.2500 810.0000 1.0000
42.2600 797.0000 1.0000
42.2700 812.0000 1.0000
42.2800 811.0000 1.0000
42.2900 802.0000 1.0000
42.3000 821.0000 1.0000
42.3100 816.0000 1.0000
42.3200 784.0000 1.0000
42.3300 834.0000 1.0000
42.3400 856.0000 1.0000
42.3500 838.0000 1.0000
42.3600 777.0000 1.0000
42.3700 771.0000 1.0000
42.3800 797.0000 1.0000
42.3900 799.0000 1.0000
42.4000 811.0000 1.0000
42.4100 825.0000 1.0000
42.4200 841.0000 1.0000
42.4300 859.0000 1.0000
42.4400 839.0000 1.0000
42.4500 844.0000 1.0000
42.4600 844.0000 1.0000
42.4700 813.0000 1.0000
42.4800 803.0000 1.0000
42.4900 761.0000 1.0000
42.5000 802.0000 1.0000
42.5100 787.0000 1.0000
42.5200 828.0000 1.0000
42.5300 851.0000 1.0000
42.5400 782.0000 1.0000
42.5500 814.0000 1.0000
42.5600 846.0000 1.0000
42.5700 831.0000 1.0000
42.5800 786.0000 1.0000
42.5900 810.0000 1.0000
42.6000 815.0000 1.0000
42.6100 764.0000 1.0000
42.6200 769.0000 1.0000
42.6300 861.0000 1.0000
42.6400 803.0000 1.0000
42.6500 822.0000 1.0000
42.6600 812.0000 1.0000
42.6700 820.0000 1.0000
42.6800 804.0000 1.0000
42.6900 827.0000 1.0000
42.7000 807.0000 1.0000
42.7100 839.0000 1.0000
42.7200 803.0000 1.0000
42.7300 786.0000 1.0000
42.7400 809.0000 1.0000
42.7500 775.0000 1.0000
42.7600 801.0000 1.0000
42.7700 846.0000 1.0000
42.7800 810.0000 1.0000
42.7900 813.0000 1.0000
42.8000 779.0000 1.0000
42.8100 828.0000 1.0000
42.8200 812.0000 1.0000
42.8300 823.0000 1.0000
42.8400 797.0000 1.0000
42.8500 841.0000 1.0000
42.8600 785.0000 1.0000
42.8700 805.0000 1.0000
42.8800 832.0000 1.0000
42.8900 788.0000 1.0000
42.9000 758.0000 1.0000
42.9100 812.0000 1.0000
42.9200 829.0000 1.0000
42.9300 815.0000 1.0000
42.9400 824.0000 1.0000
42.9500 760.0000 1.0000
42.9600 820.0000 1.0000
42.9700 854.0000 1.0000
42.9800 864.0000 1.0000
42.9900 834.0000 1.0000
43.0000 804.0000 1.0000
43.0100 833.0000 1.0000
43.0200 850.0000 1.0000
43.0300 784.0000 1.0000
43.0400 847.0000 1.0000
43.0500 840.0000 1.0000
43.0600 824.0000 1.0000
43.0700 857.0000 1.0000
43.0800 853.0000 1.0000
43.0900 875.0000 1.0000
43.1000 825.0000 1.0000
43.1100 859.0000 1.0000
43.1200 875.0000 1.0000
43.1300 873.0000 1.0000
43.1400 894.0000 1.0000
43.1500 880.0000 1.0000
43.1600 872.0000 1.0000
43.1700 923.0000 1.0000
43.1800 877.0000 1.0000
43.1900 881.0000 1.0000
43.2000 899.0000 1.0000
43.2100 914.0000 1.0000
43.2200 912.0000 1.0000
43.2300 958.0000 1.0000
43.2400 890.0000 1.0000
43.2500 925.0000 1.0000
43.2600 886.0000 1.0000
43.2700 899.0000 1.0000
43.2800 977.0000 1.0000
43.2900 875.0000 1.0000
43.3000 868.0000 1.0000
43.3100 902.0000 1.0000
43.3200 865.0000 1.0000
43.3300 925.0000 1.0000
43.3400 885.0000 1.0000
43.3500 887.0000 1.0000
43.3600 849.0000 1.0000
43.3700 860.0000 1.0000
43.3800 884.0000 1.0000
43.3900 807.0000 1.0000
43.4000 836.0000 1.0000
43.4100 832.0000 1.0000
43.4200 861.0000 1.0000
43.4300 873.0000 1.0000
43.4400 888.0000 1.0000
43.4500 817.0000 1.0000
43.4600 839.0000 1.0000
43.4700 769.0000 1.0000
43.4800 762.0000 1.0000
43.4900 850.0000 1.0000
43.5000 877.0000 1.0000
43.5100 812.0000 1.0000
43.5200 852.0000 1.0000
43.5300 817.0000 1.0000
43.5400 799.0000 1.0000
43.5500 796.0000 1.0000
43.5600 836.0000 1.0000
43.5700 883.0000 1.0000
43.5800 864.0000 1.0000
43.5900 842.0000 1.0000
43.6000 822.0000 1.0000
43.6100 828.0000 1.0000
43.6200 799.0000 1.0000
43.6300 826.0000 1.0000
43.6400 767.0000 1.0000
43.6500 764.0000 1.0000
43.6600 798.0000 1.0000
43.6700 760.0000 1.0000
43.6800 764.0000 1.0000
43.6900 828.0000 1.0000
43.7000 798.0000 1.0000
43.7100 810.0000 1.0000
43.7200 822.0000 1.0000
43.7300 792.0000 1.0000
43.7400 780.0000 1.0000
43.7500 758.0000 1.0000
43.7600 774.0000 1.0000
43.7700 787.0000 1.0000
43.7800 753.0000 1.0000
43.7900 728.0000 1.0000
43.8000 788.0000 1.0000
43.8100 775.0000 1.0000
43.8200 792.0000 1.0000
43.8300 787.0000 1.0000
43.8400 827.0000 1.0000
43.8500 732.0000 1.0000
43.8600 776.0000 1.0000
43.8700 808.0000 1.0000
43.8800 805.0000 1.0000
43.8900 801.0000 1.0000
43.9000 760.0000 1.0000
43.9100 805.0000 1.0000
43.9200 782.0000 1.0000
43.9300 765.0000 1.0000
43.9400 817.0000 1.0000
43.9500 803.0000 1.0000
43.9600 784.0000 1.0000
43.9700 805.0000 1.0000
43.9800 827.0000 1.0000
43.9900 833.0000 1.0000
44.0000 789.0000 1.0000
44.0100 772.0000 1.0000
44.0200 768.0000 1.0000
44.0300 777.0000 1.0000
44.0400 802.0000 1.0000
44.0500 784.0000 1.0000
44.0600 769.0000 1.0000
44.0700 801.0000 1.0000
44.0800 791.0000 1.0000
44.0900 843.0000 1.0000
44.1000 808.0000 1.0000
44.1100 768.0000 1.0000
44.1200 831.0000 1.0000
44.1300 788.0000 1.0000
44.1400 782.0000 1.0000
44.1500 773.0000 1.0000
44.1600 783.0000 1.0000
44.1700 767.0000 1.0000
44.1800 811.0000 1.0000
44.1900 784.0000 1.0000
44.2000 787.0000 1.0000
44.2100 803.0000 1.0000
44.2200 791.0000 1.0000
44.2300 784.0000 1.0000
44.2400 813.0000 1.0000
44.2500 822.0000 1.0000
44.2600 821.0000 1.0000
44.2700 825.0000 1.0000
44.2800 800.0000 1.0000
44.2900 813.0000 1.0000
44.3000 801.0000 1.0000
44.3100 846.0000 1.0000
44.3200 831.0000 1.0000
44.3300 813.0000 1.0000
44.3400 778.0000 1.0000
44.3500 819.0000 1.0000
44.3600 778.0000 1.0000
44.3700 804.0000 1.0000
44.3800 780.0000 1.0000
44.3900 831.0000 1.0000
44.4000 886.0000 1.0000
44.4100 824.0000 1.0000
44.4200 782.0000 1.0000
44.4300 762.0000 1.0000
44.4400 785.0000 1.0000
44.4500 749.0000 1.0000
44.4600 796.0000 1.0000
44.4700 779.0000 1.0000
44.4800 812.0000 1.0000
44.4900 785.0000 1.0000
44.5000 749.0000 1.0000
44.5100 762.0000 1.0000
44.5200 781.0000 1.0000
44.5300 795.0000 1.0000
44.5400 784.0000 1.0000
44.5500 785.0000 1.0000
44.5600 785.0000 1.0000
44.5700 784.0000 1.0000
44.5800 802.0000 1.0000
44.5900 780.0000 1.0000
44.6000 780.0000 1.0000
44.6100 774.0000 1.0000
44.6200 826.0000 1.0000
44.6300 775.0000 1.0000
44.6400 775.0000 1.0000
44.6500 790.0000 1.0000
44.6600 797.0000 1.0000
44.6700 747.0000 1.0000
44.6800 827.0000 1.0000
44.6900 752.0000 1.0000
44.7000 777.0000 1.0000
44.7100 794.0000 1.0000
44.7200 841.0000 1.0000
44.7300 777.0000 1.0000
44.7400 796.0000 1.0000
44.7500 724.0000 1.0000
44.7600 769.0000 1.0000
44.7700 808.0000 1.0000
44.7800 707.0000 1.0000
44.7900 772.0000 1.0000
44.8000 781.0000 1.0000
44.8100 752.0000 1.0000
44.8200 786.0000 1.0000
44.8300 780.0000 1.0000
44.8400 744.0000 1.0000
44.8500 754.0000 1.0000
44.8600 794.0000 1.0000
44.8700 761.0000 1.0000
44.8800 739.0000 1.0000
44.8900 757.0000 1.0000
44.9000 746.0000 1.0000
44.9100 783.0000 1.0000
44.9200 763.0000 1.0000
44.9300 768.0000 1.0000
44.9400 773.0000 1.0000
44.9500 756.0000 1.0000
44.9600 805.0000 1.0000
44.9700 788.0000 1.0000
44.9800 757.0000 1.0000
44.9900 769.0000 1.0000
45.0000 745.0000 1.0000
45.0100 745.0000 1.0000
45.0200 725.0000 1.0000
45.0300 767.0000 1.0000
45.0400 783.0000 1.0000
45.0500 788.0000 1.0000
45.0600 810.0000 1.0000
45.0700 761.0000 1.0000
45.0800 746.0000 1.0000
45.0900 731.0000 1.0000
45.1000 737.0000 1.0000
45.1100 740.0000 1.0000
45.1200 800.0000 1.0000
45.1300 779.0000 1.0000
45.1400 768.0000 1.0000
45.1500 736.0000 1.0000
45.1600 743.0000 1.0000
45.1700 765.0000 1.0000
45.1800 756.0000 1.0000
45.1900 783.0000 1.0000
45.2000 760.0000 1.0000
45.2100 769.0000 1.0000
45.2200 749.0000 1.0000
45.2300 773.0000 1.0000
45.2400 803.0000 1.0000
45.2500 758.0000 1.0000
45.2600 770.0000 1.0000
45.2700 785.0000 1.0000
45.2800 754.0000 1.0000
45.2900 791.0000 1.0000
45.3000 776.0000 1.0000
45.3100 770.0000 1.0000
45.3200 744.0000 1.0000
45.3300 732.0000 1.0000
45.3400 781.0000 1.0000
45.3500 717.0000 1.0000
45.3600 749.0000 1.0000
45.3700 760.0000 1.0000
45.3800 797.0000 1.0000
45.3900 783.0000 1.0000
45.4000 779.0000 1.0000
45.4100 774.0000 1.0000
45.4200 784.0000 1.0000
45.4300 772.0000 1.0000
45.4400 790.0000 1.0000
45.4500 763.0000 1.0000
45.4600 734.0000 1.0000
45.4700 747.0000 1.0000
45.4800 825.0000 1.0000
45.4900 771.0000 1.0000
45.5000 775.0000 1.0000
45.5100 777.0000 1.0000
45.5200 752.0000 1.0000
45.5300 753.0000 1.0000
45.5400 709.0000 1.0000
45.5500 778.0000 1.0000
45.5600 773.0000 1.0000
45.5700 758.0000 1.0000
45.5800 752.0000 1.0000
45.5900 749.0000 1.0000
45.6000 764.0000 1.0000
45.6100 766.0000 1.0000
45.6200 742.0000 1.0000
45.6300 753.0000 1.0000
45.6400 770.0000 1.0000
45.6500 758.0000 1.0000
45.6600 781.0000 1.0000
45.6700 759.0000 1.0000
45.6800 752.0000 1.0000
45.6900 775.0000 1.0000
45.7000 741.0000 1.0000
45.7100 736.0000 1.0000
45.7200 755.0000 1.0000
45.7300 737.0000 1.0000
45.7400 764.0000 1.0000
45.7500 769.0000 1.0000
45.7600 769.0000 1.0000
45.7700 753.0000 1.0000
45.7800 781.0000 1.0000
45.7900 772.0000 1.0000
45.8000 785.0000 1.0000
45.8100 769.0000 1.0000
45.8200 796.0000 1.0000
45.8300 732.0000 1.0000
45.8400 727.0000 1.0000
45.8500 771.0000 1.0000
45.8600 771.0000 1.0000
45.8700 767.0000 1.0000
45.8800 740.0000 1.0000
45.8900 730.0000 1.0000
45.9000 739.0000 1.0000
45.9100 730.0000 1.0000
45.9200 759.0000 1.0000
45.9300 776.0000 1.0000
45.9400 756.0000 1.0000
45.9500 752.0000 1.0000
45.9600 729.0000 1.0000
45.9700 780.0000 1.0000
45.9800 788.0000 1.0000
45.9900 758.0000 1.0000
46.0000 731.0000 1.0000
46.0100 755.0000 1.0000
46.0200 744.0000 1.0000
46.0300 810.0000 1.0000
46.0400 753.0000 1.0000
46.0500 729.0000 1.0000
46.0600 744.0000 1.0000
46.0700 738.0000 1.0000
46.0800 755.0000 1.0000
46.0900 777.0000 1.0000
46.1000 776.0000 1.0000
46.1100 788.0000 1.0000
46.1200 751.0000 1.0000
46.1300 772.0000 1.0000
46.1400 740.0000 1.0000
46.1500 745.0000 1.0000
46.1600 728.0000 1.0000
46.1700 715.0000 1.0000
46.1800 749.0000 1.0000
46.1900 714.0000 1.0000
46.2000 740.0000 1.0000
46.2100 743.0000 1.0000
46.2200 743.0000 1.0000
46.2300 710.0000 1.0000
46.2400 722.0000 1.0000
46.2500 738.0000 1.0000
46.2600 765.0000 1.0000
46.2700 743.0000 1.0000
46.2800 756.0000 1.0000
46.2900 763.0000 1.0000
46.3000 751.0000 1.0000
46.3100 704.0000 1.0000
46.3200 730.0000 1.0000
46.3300 768.0000 1.0000
46.3400 793.0000 1.0000
46.3500 761.0000 1.0000
46.3600 705.0000 1.0000
46.3700 750.0000 1.0000
46.3800 733.0000 1.0000
46.3900 729.0000 1.0000
46.4000 750.0000 1.0000
46.4100 766.0000 1.0000
46.4200 751.0000 1.0000
46.4300 740.0000 1.0000
46.4400 760.0000 1.0000
46.4500 753.0000 1.0000
46.4600 754.0000 1.0000
46.4700 739.0000 1.0000
46.4800 677.0000 1.0000
46.4900 720.0000 1.0000
46.5000 697.0000 1.0000
46.5100 735.0000 1.0000
46.5200 722.0000 1.0000
46.5300 770.0000 1.0000
46.5400 728.0000 1.0000
46.5500 780.0000 1.0000
46.5600 768.0000 1.0000
46.5700 740.0000 1.0000
46.5800 716.0000 1.0000
46.5900 728.0000 1.0000
46.6000 728.0000 1.0000
46.6100 713.0000 1.0000
46.6200 697.0000 1.0000
46.6300 753.0000 1.0000
46.6400 746.0000 1.0000
46.6500 734.0000 1.0000
46.6600 729.0000 1.0000
46.6700 671.0000 1.0000
46.6800 694.0000 1.0000
46.6900 700.0000 1.0000
46.7000 756.0000 1.0000
46.7100 776.0000 1.0000
46.7200 752.0000 1.0000
46.7300 727.0000 1.0000
46.7400 754.0000 1.0000
46.7500 744.0000 1.0000
46.7600 735.0000 1.0000
46.7700 749.0000 1.0000
46.7800 718.0000 1.0000
46.7900 712.0000 1.0000
46.8000 780.0000 1.0000
46.8100 730.0000 1.0000
46.8200 745.0000 1.0000
46.8300 750.0000 1.0000
46.8400 744.0000 1.0000
46.8500 774.0000 1.0000
46.8600 759.0000 1.0000
46.8700 753.0000 1.0000
46.8800 730.0000 1.0000
46.8900 727.0000 1.0000
46.9000 713.0000 1.0000
46.9100 737.0000 1.0000
46.9200 793.0000 1.0000
46.9300 780.0000 1.0000
46.9400 728.0000 1.0000
46.9500 763.0000 1.0000
46.9600 767.0000 1.0000
46.9700 742.0000 1.0000
46.9800 774.0000 1.0000
46.9900 771.0000 1.0000
47.0000 779.0000 1.0000
47.0100 757.0000 1.0000
47.0200 780.0000 1.0000
47.0300 783.0000 1.0000
47.0400 748.0000 1.0000
47.0500 731.0000 1.0000
47.0600 720.0000 1.0000
47.0700 793.0000 1.0000
47.0800 773.0000 1.0000
47.0900 757.0000 1.0000
47.1000 769.0000 1.0000
47.1100 779.0000 1.0000
47.1200 749.0000 1.0000
47.1300 751.0000 1.0000
47.1400 721.0000 1.0000
47.1500 749.0000 1.0000
47.1600 753.0000 1.0000
47.1700 740.0000 1.0000
47.1800 718.0000 1.0000
47.1900 725.0000 1.0000
47.2000 758.0000 1.0000
47.2100 749.0000 1.0000
47.2200 742.0000 1.0000
47.2300 729.0000 1.0000
47.2400 790.0000 1.0000
47.2500 771.0000 1.0000
47.2600 718.0000 1.0000
47.2700 725.0000 1.0000
47.2800 759.0000 1.0000
47.2900 736.0000 1.0000
47.3000 696.0000 1.0000
47.3100 760.0000 1.0000
47.3200 743.0000 1.0000
47.3300 707.0000 1.0000
47.3400 688.0000 1.0000
47.3500 716.0000 1.0000
47.3600 769.0000 1.0000
47.3700 716.0000 1.0000
47.3800 738.0000 1.0000
47.3900 729.0000 1.0000
47.4000 753.0000 1.0000
47.4100 753.0000 1.0000
47.4200 724.0000 1.0000
47.4300 685.0000 1.0000
47.4400 699.0000 1.0000
47.4500 718.0000 1.0000
47.4600 724.0000 1.0000
47.4700 723.0000 1.0000
47.4800 691.0000 1.0000
47.4900 694.0000 1.0000
47.5000 746.0000 1.0000
47.5100 724.0000 1.0000
47.5200 740.0000 1.0000
47.5300 706.0000 1.0000
47.5400 751.0000 1.0000
47.5500 720.0000 1.0000
47.5600 761.0000 1.0000
47.5700 710.0000 1.0000
47.5800 716.0000 1.0000
47.5900 723.0000 1.0000
47.6000 752.0000 1.0000
47.6100 708.0000 1.0000
47.6200 717.0000 1.0000
47.6300 708.0000 1.0000
47.6400 694.0000 1.0000
47.6500 681.0000 1.0000
47.6600 718.0000 1.0000
47.6700 726.0000 1.0000
47.6800 707.0000 1.0000
47.6900 704.0000 1.0000
47.7000 692.0000 1.0000
47.7100 733.0000 1.0000
47.7200 740.0000 1.0000
47.7300 700.0000 1.0000
47.7400 678.0000 1.0000
47.7500 716.0000 1.0000
47.7600 724.0000 1.0000
47.7700 710.0000 1.0000
47.7800 717.0000 1.0000
47.7900 689.0000 1.0000
47.8000 696.0000 1.0000
47.8100 700.0000 1.0000
47.8200 705.0000 1.0000
47.8300 676.0000 1.0000
47.8400 695.0000 1.0000
47.8500 725.0000 1.0000
47.8600 731.0000 1.0000
47.8700 686.0000 1.0000
47.8800 704.0000 1.0000
47.8900 735.0000 1.0000
47.9000 671.0000 1.0000
47.9100 669.0000 1.0000
47.9200 686.0000 1.0000
47.9300 694.0000 1.0000
47.9400 736.0000 1.0000
47.9500 709.0000 1.0000
47.9600 668.0000 1.0000
47.9700 684.0000 1.0000
47.9800 723.0000 1.0000
47.9900 702.0000 1.0000
48.0000 684.0000 1.0000
48.0100 726.0000 1.0000
48.0200 699.0000 1.0000
48.0300 741.0000 1.0000
48.0400 737.0000 1.0000
48.0500 726.0000 1.0000
48.0600 690.0000 1.0000
48.0700 717.0000 1.0000
48.0800 697.0000 1.0000
48.0900 710.0000 1.0000
48.1000 725.0000 1.0000
48.1100 709.0000 1.0000
48.1200 720.0000 1.0000
48.1300 696.0000 1.0000
48.1400 687.0000 1.0000
48.1500 704.0000 1.0000
48.1600 696.0000 1.0000
48.1700 747.0000 1.0000
48.1800 743.0000 1.0000
48.1900 687.0000 1.0000
48.2000 714.0000 1.0000
48.2100 698.0000 1.0000
48.2200 696.0000 1.0000
48.2300 704.0000 1.0000
48.2400 741.0000 1.0000
48.2500 733.0000 1.0000
48.2600 721.0000 1.0000
48.2700 728.0000 1.0000
48.2800 718.0000 1.0000
48.2900 700.0000 1.0000
48.3000 682.0000 1.0000
48.3100 734.0000 1.0000
48.3200 713.0000 1.0000
48.3300 696.0000 1.0000
48.3400 681.0000 1.0000
48.3500 689.0000 1.0000
48.3600 718.0000 1.0000
48.3700 684.0000 1.0000
48.3800 748.0000 1.0000
48.3900 676.0000 1.0000
48.4000 657.0000 1.0000
48.4100 713.0000 1.0000
48.4200 689.0000 1.0000
48.4300 681.0000 1.0000
48.4400 716.0000 1.0000
48.4500 729.0000 1.0000
48.4600 701.0000 1.0000
48.4700 747.0000 1.0000
48.4800 770.0000 1.0000
48.4900 713.0000 1.0000
48.5000 687.0000 1.0000
48.5100 706.0000 1.0000
48.5200 730.0000 1.0000
48.5300 701.0000 1.0000
48.5400 706.0000 1.0000
48.5500 719.0000 1.0000
48.5600 728.0000 1.0000
48.5700 697.0000 1.0000
48.5800 709.0000 1.0000
48.5900 708.0000 1.0000
48.6000 686.0000 1.0000
48.6100 716.0000 1.0000
48.6200 730.0000 1.0000
48.6300 695.0000 1.0000
48.6400 703.0000 1.0000
48.6500 708.0000 1.0000
48.6600 675.0000 1.0000
48.6700 673.0000 1.0000
48.6800 661.0000 1.0000
48.6900 720.0000 1.0000
48.7000 703.0000 1.0000
48.7100 675.0000 1.0000
48.7200 664.0000 1.0000
48.7300 705.0000 1.0000
48.7400 703.0000 1.0000
48.7500 742.0000 1.0000
48.7600 714.0000 1.0000
48.7700 740.0000 1.0000
48.7800 718.0000 1.0000
48.7900 693.0000 1.0000
48.8000 734.0000 1.0000
48.8100 729.0000 1.0000
48.8200 699.0000 1.0000
48.8300 697.0000 1.0000
48.8400 712.0000 1.0000
48.8500 657.0000 1.0000
48.8600 643.0000 1.0000
48.8700 730.0000 1.0000
48.8800 652.0000 1.0000
48.8900 720.0000 1.0000
48.9000 703.0000 1.0000
48.9100 701.0000 1.0000
48.9200 688.0000 1.0000
48.9300 729.0000 1.0000
48.9400 657.0000 1.0000
48.9500 707.0000 1.0000
48.9600 699.0000 1.0000
48.9700 679.0000 1.0000
48.9800 711.0000 1.0000
48.9900 725.0000 1.0000
49.0000 711.0000 1.0000
49.0100 674.0000 1.0000
49.0200 723.0000 1.0000
49.0300 696.0000 1.0000
49.0400 692.0000 1.0000
49.0500 689.0000 1.0000
49.0600 660.0000 1.0000
49.0700 718.0000 1.0000
49.0800 702.0000 1.0000
49.0900 703.0000 1.0000
49.1000 716.0000 1.0000
49.1100 682.0000 1.0000
49.1200 683.0000 1.0000
49.1300 690.0000 1.0000
49.1400 717.0000 1.0000
49.1500 678.0000 1.0000
49.1600 716.0000 1.0000
49.1700 714.0000 1.0000
49.1800 671.0000 1.0000
49.1900 713.0000 1.0000
49.2000 739.0000 1.0000
49.2100 728.0000 1.0000
49.2200 700.0000 1.0000
49.2300 667.0000 1.0000
49.2400 701.0000 1.0000
49.2500 659.0000 1.0000
49.2600 724.0000 1.0000
49.2700 695.0000 1.0000
49.2800 658.0000 1.0000
49.2900 732.0000 1.0000
49.3000 667.0000 1.0000
49.3100 680.0000 1.0000
49.3200 700.0000 1.0000
49.3300 734.0000 1.0000
49.3400 687.0000 1.0000
49.3500 645.0000 1.0000
49.3600 661.0000 1.0000
49.3700 694.0000 1.0000
49.3800 715.0000 1.0000
49.3900 669.0000 1.0000
49.4000 667.0000 1.0000
49.4100 659.0000 1.0000
49.4200 680.0000 1.0000
49.4300 662.0000 1.0000
49.4400 685.0000 1.0000
49.4500 693.0000 1.0000
49.4600 700.0000 1.0000
49.4700 713.0000 1.0000
49.4800 657.0000 1.0000
49.4900 697.0000 1.0000
49.5000 734.0000 1.0000
49.5100 701.0000 1.0000
49.5200 663.0000 1.0000
49.5300 667.0000 1.0000
49.5400 711.0000 1.0000
49.5500 651.0000 1.0000
49.5600 694.0000 1.0000
49.5700 704.0000 1.0000
49.5800 740.0000 1.0000
49.5900 687.0000 1.0000
49.6000 692.0000 1.0000
49.6100 686.0000 1.0000
49.6200 674.0000 1.0000
49.6300 717.0000 1.0000
49.6400 700.0000 1.0000
49.6500 676.0000 1.0000
49.6600 673.0000 1.0000
49.6700 677.0000 1.0000
49.6800 683.0000 1.0000
49.6900 660.0000 1.0000
49.7000 705.0000 1.0000
49.7100 658.0000 1.0000
49.7200 715.0000 1.0000
49.7300 718.0000 1.0000
49.7400 701.0000 1.0000
49.7500 682.0000 1.0000
49.7600 664.0000 1.0000
49.7700 653.0000 1.0000
49.7800 728.0000 1.0000
49.7900 745.0000 1.0000
49.8000 717.0000 1.0000
49.8100 726.0000 1.0000
49.8200 671.0000 1.0000
49.8300 663.0000 1.0000
49.8400 707.0000 1.0000
49.8500 668.0000 1.0000
49.8600 702.0000 1.0000
49.8700 693.0000 1.0000
49.8800 695.0000 1.0000
49.8900 657.0000 1.0000
49.9000 700.0000 1.0000
49.9100 665.0000 1.0000
49.9200 681.0000 1.0000
49.9300 667.0000 1.0000
49.9400 643.0000 1.0000
49.9500 688.0000 1.0000
49.9600 695.0000 1.0000
49.9700 708.0000 1.0000
49.9800 695.0000 1.0000
49.9900 742.0000 1.0000
50.0000 740.0000 1.0000
50.0100 685.0000 1.0000
50.0200 657.0000 1.0000
50.0300 716.0000 1.0000
50.0400 683.0000 1.0000
50.0500 674.0000 1.0000
50.0600 684.0000 1.0000
50.0700 684.0000 1.0000
50.0800 701.0000 1.0000
50.0900 682.0000 1.0000
50.1000 697.0000 1.0000
50.1100 722.0000 1.0000
50.1200 643.0000 1.0000
50.1300 677.0000 1.0000
50.1400 676.0000 1.0000
50.1500 710.0000 1.0000
50.1600 707.0000 1.0000
50.1700 706.0000 1.0000
50.1800 725.0000 1.0000
50.1900 696.0000 1.0000
50.2000 736.0000 1.0000
50.2100 715.0000 1.0000
50.2200 699.0000 1.0000
50.2300 724.0000 1.0000
50.2400 698.0000 1.0000
50.2500 706.0000 1.0000
50.2600 756.0000 1.0000
50.2700 723.0000 1.0000
50.2800 748.0000 1.0000
50.2900 736.0000 1.0000
50.3000 713.0000 1.0000
50.3100 712.0000 1.0000
50.3200 727.0000 1.0000
50.3300 771.0000 1.0000
50.3400 690.0000 1.0000
50.3500 704.0000 1.0000
50.3600 753.0000 1.0000
50.3700 731.0000 1.0000
50.3800 681.0000 1.0000
50.3900 683.0000 1.0000
50.4000 698.0000 1.0000
50.4100 731.0000 1.0000
50.4200 711.0000 1.0000
50.4300 756.0000 1.0000
50.4400 700.0000 1.0000
50.4500 694.0000 1.0000
50.4600 713.0000 1.0000
50.4700 693.0000 1.0000
50.4800 752.0000 1.0000
50.4900 714.0000 1.0000
50.5000 724.0000 1.0000
50.5100 716.0000 1.0000
50.5200 687.0000 1.0000
50.5300 683.0000 1.0000
50.5400 724.0000 1.0000
50.5500 696.0000 1.0000
50.5600 708.0000 1.0000
50.5700 736.0000 1.0000
50.5800 728.0000 1.0000
50.5900 718.0000 1.0000
50.6000 747.0000 1.0000
50.6100 703.0000 1.0000
50.6200 681.0000 1.0000
50.6300 698.0000 1.0000
50.6400 703.0000 1.0000
50.6500 717.0000 1.0000
50.6600 740.0000 1.0000
50.6700 704.0000 1.0000
50.6800 681.0000 1.0000
50.6900 740.0000 1.0000
50.7000 697.0000 1.0000
50.7100 689.0000 1.0000
50.7200 691.0000 1.0000
50.7300 723.0000 1.0000
50.7400 681.0000 1.0000
50.7500 674.0000 1.0000
50.7600 696.0000 1.0000
50.7700 690.0000 1.0000
50.7800 690.0000 1.0000
50.7900 703.0000 1.0000
50.8000 702.0000 1.0000
50.8100 682.0000 1.0000
50.8200 699.0000 1.0000
50.8300 709.0000 1.0000
50.8400 681.0000 1.0000
50.8500 707.0000 1.0000
50.8600 748.0000 1.0000
50.8700 712.0000 1.0000
50.8800 744.0000 1.0000
50.8900 697.0000 1.0000
50.9000 720.0000 1.0000
50.9100 694.0000 1.0000
50.9200 665.0000 1.0000
50.9300 697.0000 1.0000
50.9400 664.0000 1.0000
50.9500 667.0000 1.0000
50.9600 712.0000 1.0000
50.9700 718.0000 1.0000
50.9800 697.0000 1.0000
50.9900 684.0000 1.0000
51.0000 713.0000 1.0000
51.0100 747.0000 1.0000
51.0200 697.0000 1.0000
51.0300 695.0000 1.0000
51.0400 731.0000 1.0000
51.0500 705.0000 1.0000
51.0600 698.0000 1.0000
51.0700 730.0000 1.0000
51.0800 677.0000 1.0000
51.0900 673.0000 1.0000
51.1000 707.0000 1.0000
51.1100 728.0000 1.0000
51.1200 688.0000 1.0000
51.1300 689.0000 1.0000
51.1400 696.0000 1.0000
51.1500 678.0000 1.0000
51.1600 728.0000 1.0000
51.1700 715.0000 1.0000
51.1800 713.0000 1.0000
51.1900 713.0000 1.0000
51.2000 719.0000 1.0000
51.2100 697.0000 1.0000
51.2200 676.0000 1.0000
51.2300 705.0000 1.0000
51.2400 664.0000 1.0000
51.2500 718.0000 1.0000
51.2600 723.0000 1.0000
51.2700 685.0000 1.0000
51.2800 739.0000 1.0000
51.2900 705.0000 1.0000
51.3000 693.0000 1.0000
51.3100 720.0000 1.0000
51.3200 672.0000 1.0000
51.3300 712.0000 1.0000
51.3400 721.0000 1.0000
51.3500 693.0000 1.0000
51.3600 677.0000 1.0000
51.3700 676.0000 1.0000
51.3800 679.0000 1.0000
51.3900 695.0000 1.0000
51.4000 726.0000 1.0000
51.4100 716.0000 1.0000
51.4200 713.0000 1.0000
51.4300 743.0000 1.0000
51.4400 756.0000 1.0000
51.4500 706.0000 1.0000
51.4600 698.0000 1.0000
51.4700 707.0000 1.0000
51.4800 693.0000 1.0000
51.4900 730.0000 1.0000
51.5000 703.0000 1.0000
51.5100 703.0000 1.0000
51.5200 706.0000 1.0000
51.5300 737.0000 1.0000
51.5400 730.0000 1.0000
51.5500 722.0000 1.0000
51.5600 731.0000 1.0000
51.5700 710.0000 1.0000
51.5800 759.0000 1.0000
51.5900 708.0000 1.0000
51.6000 745.0000 1.0000
51.6100 751.0000 1.0000
51.6200 712.0000 1.0000
51.6300 765.0000 1.0000
51.6400 724.0000 1.0000
51.6500 720.0000 1.0000
51.6600 763.0000 1.0000
51.6700 770.0000 1.0000
51.6800 750.0000 1.0000
51.6900 757.0000 1.0000
51.7000 730.0000 1.0000
51.7100 713.0000 1.0000
51.7200 723.0000 1.0000
51.7300 760.0000 1.0000
51.7400 751.0000 1.0000
51.7500 743.0000 1.0000
51.7600 809.0000 1.0000
51.7700 790.0000 1.0000
51.7800 792.0000 1.0000
51.7900 772.0000 1.0000
51.8000 760.0000 1.0000
51.8100 791.0000 1.0000
51.8200 818.0000 1.0000
51.8300 807.0000 1.0000
51.8400 796.0000 1.0000
51.8500 766.0000 1.0000
51.8600 812.0000 1.0000
51.8700 844.0000 1.0000
51.8800 855.0000 1.0000
51.8900 853.0000 1.0000
51.9000 815.0000 1.0000
51.9100 906.0000 1.0000
51.9200 877.0000 1.0000
51.9300 932.0000 1.0000
51.9400 917.0000 1.0000
51.9500 1017.0000 1.0000
51.9600 961.0000 1.0000
51.9700 964.0000 1.0000
51.9800 989.0000 1.0000
51.9900 1019.0000 1.0000
52.0000 1073.0000 1.0000
52.0100 1085.0000 1.0000
52.0200 1090.0000 1.0000
52.0300 1216.0000 1.0000
52.0400 1187.0000 1.0000
52.0500 1280.0000 1.0000
52.0600 1321.0000 1.0000
52.0700 1394.0000 1.0000
52.0800 1404.0000 1.0000
52.0900 1464.0000 1.0000
52.1000 1554.0000 1.0000
52.1100 1640.0000 1.0000
52.1200 1675.0000 1.0000
52.1300 1829.0000 1.0000
52.1400 2008.0000 1.0000
52.1500 2122.0000 1.0000
52.1600 2311.0000 1.0000
52.1700 2453.0000 1.0000
52.1800 2689.0000 1.0000
52.1900 2874.0000 1.0000
52.2000 3095.0000 1.0000
52.2100 3340.0000 1.0000
52.2200 3605.0000 1.0000
52.2300 3886.0000 1.0000
52.2400 4099.0000 1.0000
52.2500 4269.0000 1.0000
52.2600 4453.0000 1.0000
52.2700 4587.0000 1.0000
52.2800 4765.0000 1.0000
52.2900 4758.0000 1.0000
52.3000 4648.0000 1.0000
52.3100 4653.0000 1.0000
52.3200 4467.0000 1.0000
52.3300 4315.0000 1.0000
52.3400 4212.0000 1.0000
52.3500 4067.0000 1.0000
52.3600 3980.0000 1.0000
52.3700 3846.0000 1.0000
52.3800 3684.0000 1.0000
52.3900 3683.0000 1.0000
52.4000 3585.0000 1.0000
52.4100 3539.0000 1.0000
52.4200 3380.0000 1.0000
52.4300 3455.0000 1.0000
52.4400 3207.0000 1.0000
52.4500 3021.0000 1.0000
52.4600 2840.0000 1.0000
52.4700 2690.0000 1.0000
52.4800 2480.0000 1.0000
52.4900 2286.0000 1.0000
52.5000 2143.0000 1.0000
52.5100 2020.0000 1.0000
52.5200 1884.0000 1.0000
52.5300 1776.0000 1.0000
52.5400 1620.0000 1.0000
52.5500 1552.0000 1.0000
52.5600 1437.0000 1.0000
52.5700 1373.0000 1.0000
52.5800 1353.0000 1.0000
52.5900 1288.0000 1.0000
52.6000 1284.0000 1.0000
52.6100 1168.0000 1.0000
52.6200 1166.0000 1.0000
52.6300 1173.0000 1.0000
52.6400 1049.0000 1.0000
52.6500 1011.0000 1.0000
52.6600 1063.0000 1.0000
52.6700 989.0000 1.0000
52.6800 983.0000 1.0000
52.6900 998.0000 1.0000
52.7000 966.0000 1.0000
52.7100 923.0000 1.0000
52.7200 897.0000 1.0000
52.7300 906.0000 1.0000
52.7400 844.0000 1.0000
52.7500 867.0000 1.0000
52.7600 907.0000 1.0000
52.7700 882.0000 1.0000
52.7800 852.0000 1.0000
52.7900 803.0000 1.0000
52.8000 819.0000 1.0000
52.8100 823.0000 1.0000
52.8200 827.0000 1.0000
52.8300 824.0000 1.0000
52.8400 793.0000 1.0000
52.8500 830.0000 1.0000
52.8600 808.0000 1.0000
52.8700 765.0000 1.0000
52.8800 800.0000 1.0000
52.8900 801.0000 1.0000
52.9000 780.0000 1.0000
52.9100 782.0000 1.0000
52.9200 788.0000 1.0000
52.9300 779.0000 1.0000
52.9400 748.0000 1.0000
52.9500 734.0000 1.0000
52.9600 787.0000 1.0000
52.9700 744.0000 1.0000
52.9800 733.0000 1.0000
52.9900 748.0000 1.0000
53.0000 733.0000 1.0000
53.0100 785.0000 1.0000
53.0200 756.0000 1.0000
53.0300 710.0000 1.0000
53.0400 729.0000 1.0000
53.0500 768.0000 1.0000
53.0600 708.0000 1.0000
53.0700 698.0000 1.0000
53.0800 738.0000 1.0000
53.0900 700.0000 1.0000
53.1000 717.0000 1.0000
53.1100 728.0000 1.0000
53.1200 770.0000 1.0000
53.1300 683.0000 1.0000
53.1400 706.0000 1.0000
53.1500 731.0000 1.0000
53.1600 712.0000 1.0000
53.1700 746.0000 1.0000
53.1800 690.0000 1.0000
53.1900 708.0000 1.0000
53.2000 726.0000 1.0000
53.2100 762.0000 1.0000
53.2200 703.0000 1.0000
53.2300 726.0000 1.0000
53.2400 735.0000 1.0000
53.2500 706.0000 1.0000
53.2600 705.0000 1.0000
53.2700 732.0000 1.0000
53.2800 709.0000 1.0000
53.2900 689.0000 1.0000
53.3000 655.0000 1.0000
53.3100 698.0000 1.0000
53.3200 702.0000 1.0000
53.3300 695.0000 1.0000
53.3400 715.0000 1.0000
53.3500 678.0000 1.0000
53.3600 681.0000 1.0000
53.3700 683.0000 1.0000
53.3800 698.0000 1.0000
53.3900 677.0000 1.0000
53.4000 695.0000 1.0000
53.4100 693.0000 1.0000
53.4200 671.0000 1.0000
53.4300 718.0000 1.0000
53.4400 711.0000 1.0000
53.4500 670.0000 1.0000
53.4600 691.0000 1.0000
53.4700 724.0000 1.0000
53.4800 669.0000 1.0000
53.4900 687.0000 1.0000
53.5000 701.0000 1.0000
53.5100 725.0000 1.0000
53.5200 669.0000 1.0000
53.5300 700.0000 1.0000
53.5400 669.0000 1.0000
53.5500 661.0000 1.0000
53.5600 673.0000 1.0000
53.5700 692.0000 1.0000
53.5800 674.0000 1.0000
53.5900 675.0000 1.0000
53.6000 650.0000 1.0000
53.6100 682.0000 1.0000
53.6200 681.0000 1.0000
53.6300 656.0000 1.0000
53.6400 702.0000 1.0000
53.6500 670.0000 1.0000
53.6600 704.0000 1.0000
53.6700 695.0000 1.0000
53.6800 682.0000 1.0000
53.6900 689.0000 1.0000
53.7000 651.0000 1.0000
53.7100 679.0000 1.0000
53.7200 668.0000 1.0000
53.7300 698.0000 1.0000
53.7400 718.0000 1.0000
53.7500 645.0000 1.0000
53.7600 651.0000 1.0000
53.7700 656.0000 1.0000
53.7800 684.0000 1.0000
53.7900 686.0000 1.0000
53.8000 656.0000 1.0000
53.8100 689.0000 1.0000
53.8200 728.0000 1.0000
53.8300 728.0000 1.0000
53.8400 677.0000 1.0000
53.8500 689.0000 1.0000
53.8600 661.0000 1.0000
53.8700 714.0000 1.0000
53.8800 694.0000 1.0000
53.8900 702.0000 1.0000
53.9000 702.0000 1.0000
53.9100 697.0000 1.0000
53.9200 656.0000 1.0000
53.9300 706.0000 1.0000
53.9400 679.0000 1.0000
53.9500 666.0000 1.0000
53.9600 698.0000 1.0000
53.9700 701.0000 1.0000
53.9800 687.0000 1.0000
53.9900 712.0000 1.0000
54.0000 685.0000 1.0000
54.0100 663.0000 1.0000
54.0200 663.0000 1.0000
54.0300 704.0000 1.0000
54.0400 689.0000 1.0000
54.0500 709.0000 1.0000
54.0600 707.0000 1.0000
54.0700 693.0000 1.0000
54.0800 637.0000 1.0000
54.0900 713.0000 1.0000
54.1000 691.0000 1.0000
54.1100 677.0000 1.0000
54.1200 690.0000 1.0000
54.1300 641.0000 1.0000
54.1400 657.0000 1.0000
54.1500 686.0000 1.0000
54.1600 660.0000 1.0000
54.1700 706.0000 1.0000
54.1800 656.0000 1.0000
54.1900 664.0000 1.0000
54.2000 614.0000 1.0000
54.2100 672.0000 1.0000
54.2200 699.0000 1.0000
54.2300 722.0000 1.0000
54.2400 719.0000 1.0000
54.2500 685.0000 1.0000
54.2600 687.0000 1.0000
54.2700 668.0000 1.0000
54.2800 675.0000 1.0000
54.2900 681.0000 1.0000
54.3000 668.0000 1.0000
54.3100 648.0000 1.0000
54.3200 701.0000 1.0000
54.3300 668.0000 1.0000
54.3400 712.0000 1.0000
54.3500 681.0000 1.0000
54.3600 693.0000 1.0000
54.3700 683.0000 1.0000
54.3800 656.0000 1.0000
54.3900 681.0000 1.0000
54.4000 659.0000 1.0000
54.4100 701.0000 1.0000
54.4200 696.0000 1.0000
54.4300 715.0000 1.0000
54.4400 642.0000 1.0000
54.4500 678.0000 1.0000
54.4600 663.0000 1.0000
54.4700 695.0000 1.0000
54.4800 653.0000 1.0000
54.4900 679.0000 1.0000
54.5000 711.0000 1.0000
54.5100 683.0000 1.0000
54.5200 684.0000 1.0000
54.5300 637.0000 1.0000
54.5400 688.0000 1.0000
54.5500 658.0000 1.0000
54.5600 701.0000 1.0000
54.5700 671.0000 1.0000
54.5800 648.0000 1.0000
54.5900 689.0000 1.0000
54.6000 712.0000 1.0000
54.6100 702.0000 1.0000
54.6200 715.0000 1.0000
54.6300 710.0000 1.0000
54.6400 694.0000 1.0000
54.6500 731.0000 1.0000
54.6600 705.0000 1.0000
54.6700 674.0000 1.0000
54.6800 657.0000 1.0000
54.6900 676.0000 1.0000
54.7000 666.0000 1.0000
54.7100 686.0000 1.0000
54.7200 731.0000 1.0000
54.7300 709.0000 1.0000
54.7400 706.0000 1.0000
54.7500 701.0000 1.0000
54.7600 714.0000 1.0000
54.7700 700.0000 1.0000
54.7800 695.0000 1.0000
54.7900 679.0000 1.0000
54.8000 708.0000 1.0000
54.8100 735.0000 1.0000
54.8200 728.0000 1.0000
54.8300 755.0000 1.0000
54.8400 693.0000 1.0000
54.8500 707.0000 1.0000
54.8600 752.0000 1.0000
54.8700 744.0000 1.0000
54.8800 733.0000 1.0000
54.8900 706.0000 1.0000
54.9000 719.0000 1.0000
54.9100 736.0000 1.0000
54.9200 744.0000 1.0000
54.9300 749.0000 1.0000
54.9400 754.0000 1.0000
54.9500 739.0000 1.0000
54.9600 750.0000 1.0000
54.9700 736.0000 1.0000
54.9800 776.0000 1.0000
54.9900 764.0000 1.0000
55.0000 749.0000 1.0000
55.0100 714.0000 1.0000
55.0200 735.0000 1.0000
55.0300 752.0000 1.0000
55.0400 740.0000 1.0000
55.0500 796.0000 1.0000
55.0600 773.0000 1.0000
55.0700 771.0000 1.0000
55.0800 793.0000 1.0000
55.0900 721.0000 1.0000
55.1000 804.0000 1.0000
55.1100 786.0000 1.0000
55.1200 808.0000 1.0000
55.1300 825.0000 1.0000
55.1400 858.0000 1.0000
55.1500 846.0000 1.0000
55.1600 829.0000 1.0000
55.1700 841.0000 1.0000
55.1800 919.0000 1.0000
55.1900 907.0000 1.0000
55.2000 918.0000 1.0000
55.2100 951.0000 1.0000
55.2200 936.0000 1.0000
55.2300 951.0000 1.0000
55.2400 1019.0000 1.0000
55.2500 987.0000 1.0000
55.2600 1029.0000 1.0000
55.2700 1022.0000 1.0000
55.2800 1042.0000 1.0000
55.2900 1045.0000 1.0000
55.3000 1027.0000 1.0000
55.3100 960.0000 1.0000
55.3200 971.0000 1.0000
55.3300 958.0000 1.0000
55.3400 1004.0000 1.0000
55.3500 993.0000 1.0000
55.3600 1020.0000 1.0000
55.3700 1011.0000 1.0000
55.3800 971.0000 1.0000
55.3900 1004.0000 1.0000
55.4000 940.0000 1.0000
55.4100 957.0000 1.0000
55.4200 978.0000 1.0000
55.4300 922.0000 1.0000
55.4400 918.0000 1.0000
55.4500 937.0000 1.0000
55.4600 898.0000 1.0000
55.4700 899.0000 1.0000
55.4800 846.0000 1.0000
55.4900 860.0000 1.0000
55.5000 833.0000 1.0000
55.5100 865.0000 1.0000
55.5200 889.0000 1.0000
55.5300 833.0000 1.0000
55.5400 802.0000 1.0000
55.5500 804.0000 1.0000
55.5600 814.0000 1.0000
55.5700 797.0000 1.0000
55.5800 739.0000 1.0000
55.5900 724.0000 1.0000
55.6000 740.0000 1.0000
55.6100 745.0000 1.0000
55.6200 692.0000 1.0000
55.6300 767.0000 1.0000
55.6400 721.0000 1.0000
55.6500 718.0000 1.0000
55.6600 720.0000 1.0000
55.6700 767.0000 1.0000
55.6800 728.0000 1.0000
55.6900 732.0000 1.0000
55.7000 687.0000 1.0000
55.7100 731.0000 1.0000
55.7200 722.0000 1.0000
55.7300 690.0000 1.0000
55.7400 656.0000 1.0000
55.7500 750.0000 1.0000
55.7600 691.0000 1.0000
55.7700 672.0000 1.0000
55.7800 706.0000 1.0000
55.7900 728.0000 1.0000
55.8000 712.0000 1.0000
55.8100 665.0000 1.0000
55.8200 636.0000 1.0000
55.8300 654.0000 1.0000
55.8400 683.0000 1.0000
55.8500 679.0000 1.0000
55.8600 710.0000 1.0000
55.8700 748.0000 1.0000
55.8800 680.0000 1.0000
55.8900 689.0000 1.0000
55.9000 712.0000 1.0000
55.9100 725.0000 1.0000
55.9200 688.0000 1.0000
55.9300 678.0000 1.0000
55.9400 672.0000 1.0000
55.9500 667.0000 1.0000
55.9600 686.0000 1.0000
55.9700 637.0000 1.0000
55.9800 670.0000 1.0000
55.9900 631.0000 1.0000
56.0000 631.0000 1.0000
56.0100 630.0000 1.0000
56.0200 645.0000 1.0000
56.0300 691.0000 1.0000
56.0400 675.0000 1.0000
56.0500 692.0000 1.0000
56.0600 661.0000 1.0000
56.0700 677.0000 1.0000
56.0800 680.0000 1.0000
56.0900 642.0000 1.0000
56.1000 631.0000 1.0000
56.1100 646.0000 1.0000
56.1200 654.0000 1.0000
56.1300 671.0000 1.0000
56.1400 672.0000 1.0000
56.1500 654.0000 1.0000
56.1600 649.0000 1.0000
56.1700 674.0000 1.0000
56.1800 626.0000 1.0000
56.1900 661.0000 1.0000
56.2000 625.0000 1.0000
56.2100 664.0000 1.0000
56.2200 638.0000 1.0000
56.2300 596.0000 1.0000
56.2400 690.0000 1.0000
56.2500 647.0000 1.0000
56.2600 640.0000 1.0000
56.2700 679.0000 1.0000
56.2800 608.0000 1.0000
56.2900 638.0000 1.0000
56.3000 625.0000 1.0000
56.3100 626.0000 1.0000
56.3200 674.0000 1.0000
56.3300 648.0000 1.0000
56.3400 661.0000 1.0000
56.3500 643.0000 1.0000
56.3600 640.0000 1.0000
56.3700 631.0000 1.0000
56.3800 652.0000 1.0000
56.3900 650.0000 1.0000
56.4000 611.0000 1.0000
56.4100 669.0000 1.0000
56.4200 629.0000 1.0000
56.4300 663.0000 1.0000
56.4400 681.0000 1.0000
56.4500 706.0000 1.0000
56.4600 642.0000 1.0000
56.4700 656.0000 1.0000
56.4800 639.0000 1.0000
56.4900 633.0000 1.0000
56.5000 666.0000 1.0000
56.5100 686.0000 1.0000
56.5200 666.0000 1.0000
56.5300 665.0000 1.0000
56.5400 660.0000 1.0000
56.5500 622.0000 1.0000
56.5600 645.0000 1.0000
56.5700 632.0000 1.0000
56.5800 641.0000 1.0000
56.5900 632.0000 1.0000
56.6000 620.0000 1.0000
56.6100 631.0000 1.0000
56.6200 674.0000 1.0000
56.6300 703.0000 1.0000
56.6400 664.0000 1.0000
56.6500 677.0000 1.0000
56.6600 658.0000 1.0000
56.6700 610.0000 1.0000
56.6800 620.0000 1.0000
56.6900 611.0000 1.0000
56.7000 652.0000 1.0000
56.7100 630.0000 1.0000
56.7200 660.0000 1.0000
56.7300 649.0000 1.0000
56.7400 630.0000 1.0000
56.7500 654.0000 1.0000
56.7600 638.0000 1.0000
56.7700 637.0000 1.0000
56.7800 620.0000 1.0000
56.7900 622.0000 1.0000
56.8000 650.0000 1.0000
56.8100 691.0000 1.0000
56.8200 631.0000 1.0000
56.8300 688.0000 1.0000
56.8400 654.0000 1.0000
56.8500 612.0000 1.0000
56.8600 616.0000 1.0000
56.8700 677.0000 1.0000
56.8800 651.0000 1.0000
56.8900 657.0000 1.0000
56.9000 647.0000 1.0000
56.9100 657.0000 1.0000
56.9200 656.0000 1.0000
56.9300 666.0000 1.0000
56.9400 629.0000 1.0000
56.9500 629.0000 1.0000
56.9600 645.0000 1.0000
56.9700 642.0000 1.0000
56.9800 648.0000 1.0000
56.9900 625.0000 1.0000
57.0000 618.0000 1.0000
57.0100 672.0000 1.0000
57.0200 625.0000 1.0000
57.0300 651.0000 1.0000
57.0400 707.0000 1.0000
57.0500 661.0000 1.0000
57.0600 659.0000 1.0000
57.0700 649.0000 1.0000
57.0800 661.0000 1.0000
57.0900 666.0000 1.0000
57.1000 623.0000 1.0000
57.1100 604.0000 1.0000
57.1200 629.0000 1.0000
57.1300 694.0000 1.0000
57.1400 643.0000 1.0000
57.1500 639.0000 1.0000
57.1600 653.0000 1.0000
57.1700 649.0000 1.0000
57.1800 644.0000 1.0000
57.1900 657.0000 1.0000
57.2000 648.0000 1.0000
57.2100 622.0000 1.0000
57.2200 642.0000 1.0000
57.2300 670.0000 1.0000
57.2400 699.0000 1.0000
57.2500 674.0000 1.0000
57.2600 645.0000 1.0000
57.2700 674.0000 1.0000
57.2800 648.0000 1.0000
57.2900 612.0000 1.0000
57.3000 636.0000 1.0000
57.3100 658.0000 1.0000
57.3200 669.0000 1.0000
57.3300 634.0000 1.0000
57.3400 678.0000 1.0000
57.3500 656.0000 1.0000
57.3600 658.0000 1.0000
57.3700 631.0000 1.0000
57.3800 616.0000 1.0000
57.3900 665.0000 1.0000
57.4000 660.0000 1.0000
57.4100 702.0000 1.0000
57.4200 631.0000 1.0000
57.4300 648.0000 1.0000
57.4400 657.0000 1.0000
57.4500 599.0000 1.0000
57.4600 625.0000 1.0000
57.4700 678.0000 1.0000
57.4800 655.0000 1.0000
57.4900 644.0000 1.0000
57.5000 637.0000 1.0000
57.5100 628.0000 1.0000
57.5200 632.0000 1.0000
57.5300 630.0000 1.0000
57.5400 682.0000 1.0000
57.5500 652.0000 1.0000
57.5600 629.0000 1.0000
57.5700 656.0000 1.0000
57.5800 639.0000 1.0000
57.5900 615.0000 1.0000
57.6000 657.0000 1.0000
57.6100 658.0000 1.0000
57.6200 647.0000 1.0000
57.6300 643.0000 1.0000
57.6400 669.0000 1.0000
57.6500 670.0000 1.0000
57.6600 634.0000 1.0000
57.6700 662.0000 1.0000
57.6800 654.0000 1.0000
57.6900 614.0000 1.0000
57.7000 625.0000 1.0000
57.7100 648.0000 1.0000
57.7200 631.0000 1.0000
57.7300 648.0000 1.0000
57.7400 642.0000 1.0000
57.7500 641.0000 1.0000
57.7600 672.0000 1.0000
57.7700 650.0000 1.0000
57.7800 651.0000 1.0000
57.7900 670.0000 1.0000
57.8000 667.0000 1.0000
57.8100 638.0000 1.0000
57.8200 625.0000 1.0000
57.8300 628.0000 1.0000
57.8400 642.0000 1.0000
57.8500 633.0000 1.0000
57.8600 666.0000 1.0000
57.8700 682.0000 1.0000
57.8800 643.0000 1.0000
57.8900 669.0000 1.0000
57.9000 623.0000 1.0000
57.9100 654.0000 1.0000
57.9200 686.0000 1.0000
57.9300 675.0000 1.0000
57.9400 619.0000 1.0000
57.9500 644.0000 1.0000
57.9600 698.0000 1.0000
57.9700 679.0000 1.0000
57.9800 646.0000 1.0000
57.9900 630.0000 1.0000
58.0000 663.0000 1.0000
58.0100 667.0000 1.0000
58.0200 638.0000 1.0000
58.0300 662.0000 1.0000
58.0400 650.0000 1.0000
58.0500 637.0000 1.0000
58.0600 682.0000 1.0000
58.0700 660.0000 1.0000
58.0800 688.0000 1.0000
58.0900 649.0000 1.0000
58.1000 663.0000 1.0000
58.1100 660.0000 1.0000
58.1200 661.0000 1.0000
58.1300 684.0000 1.0000
58.1400 724.0000 1.0000
58.1500 719.0000 1.0000
58.1600 687.0000 1.0000
58.1700 628.0000 1.0000
58.1800 599.0000 1.0000
58.1900 633.0000 1.0000
58.2000 685.0000 1.0000
58.2100 656.0000 1.0000
58.2200 670.0000 1.0000
58.2300 651.0000 1.0000
58.2400 713.0000 1.0000
58.2500 664.0000 1.0000
58.2600 655.0000 1.0000
58.2700 674.0000 1.0000
58.2800 592.0000 1.0000
58.2900 643.0000 1.0000
58.3000 667.0000 1.0000
58.3100 662.0000 1.0000
58.3200 655.0000 1.0000
58.3300 691.0000 1.0000
58.3400 662.0000 1.0000
58.3500 664.0000 1.0000
58.3600 634.0000 1.0000
58.3700 656.0000 1.0000
58.3800 648.0000 1.0000
58.3900 649.0000 1.0000
58.4000 634.0000 1.0000
58.4100 665.0000 1.0000
58.4200 646.0000 1.0000
58.4300 598.0000 1.0000
58.4400 675.0000 1.0000
58.4500 659.0000 1.0000
58.4600 691.0000 1.0000
58.4700 635.0000 1.0000
58.4800 605.0000 1.0000
58.4900 630.0000 1.0000
58.5000 653.0000 1.0000
58.5100 630.0000 1.0000
58.5200 637.0000 1.0000
58.5300 671.0000 1.0000
58.5400 633.0000 1.0000
58.5500 606.0000 1.0000
58.5600 631.0000 1.0000
58.5700 671.0000 1.0000
58.5800 638.0000 1.0000
58.5900 670.0000 1.0000
58.6000 620.0000 1.0000
58.6100 665.0000 1.0000
58.6200 638.0000 1.0000
58.6300 610.0000 1.0000
58.6400 642.0000 1.0000
58.6500 625.0000 1.0000
58.6600 667.0000 1.0000
58.6700 665.0000 1.0000
58.6800 626.0000 1.0000
58.6900 603.0000 1.0000
58.7000 610.0000 1.0000
58.7100 651.0000 1.0000
58.7200 637.0000 1.0000
58.7300 622.0000 1.0000
58.7400 630.0000 1.0000
58.7500 632.0000 1.0000
58.7600 628.0000 1.0000
58.7700 615.0000 1.0000
58.7800 642.0000 1.0000
58.7900 621.0000 1.0000
58.8000 625.0000 1.0000
58.8100 642.0000 1.0000
58.8200 662.0000 1.0000
58.8300 657.0000 1.0000
58.8400 672.0000 1.0000
58.8500 615.0000 1.0000
58.8600 653.0000 1.0000
58.8700 654.0000 1.0000
58.8800 624.0000 1.0000
58.8900 599.0000 1.0000
58.9000 588.0000 1.0000
58.9100 611.0000 1.0000
58.9200 655.0000 1.0000
58.9300 642.0000 1.0000
58.9400 621.0000 1.0000
58.9500 602.0000 1.0000
58.9600 640.0000 1.0000
58.9700 623.0000 1.0000
58.9800 649.0000 1.0000
58.9900 627.0000 1.0000
59.0000 637.0000 1.0000
59.0100 625.0000 1.0000
59.0200 661.0000 1.0000
59.0300 668.0000 1.0000
59.0400 675.0000 1.0000
59.0500 634.0000 1.0000
59.0600 704.0000 1.0000
59.0700 614.0000 1.0000
59.0800 652.0000 1.0000
59.0900 615.0000 1.0000
59.1000 671.0000 1.0000
59.1100 665.0000 1.0000
59.1200 634.0000 1.0000
59.1300 681.0000 1.0000
59.1400 659.0000 1.0000
59.1500 707.0000 1.0000
59.1600 654.0000 1.0000
59.1700 628.0000 1.0000
59.1800 646.0000 1.0000
59.1900 635.0000 1.0000
59.2000 631.0000 1.0000
59.2100 592.0000 1.0000
59.2200 597.0000 1.0000
59.2300 655.0000 1.0000
59.2400 643.0000 1.0000
59.2500 621.0000 1.0000
59.2600 659.0000 1.0000
59.2700 666.0000 1.0000
59.2800 652.0000 1.0000
59.2900 677.0000 1.0000
59.3000 668.0000 1.0000
59.3100 626.0000 1.0000
59.3200 656.0000 1.0000
59.3300 663.0000 1.0000
59.3400 685.0000 1.0000
59.3500 685.0000 1.0000
59.3600 642.0000 1.0000
59.3700 647.0000 1.0000
59.3800 649.0000 1.0000
59.3900 639.0000 1.0000
59.4000 633.0000 1.0000
59.4100 665.0000 1.0000
59.4200 671.0000 1.0000
59.4300 621.0000 1.0000
59.4400 633.0000 1.0000
59.4500 600.0000 1.0000
59.4600 626.0000 1.0000
59.4700 657.0000 1.0000
59.4800 677.0000 1.0000
59.4900 641.0000 1.0000
59.5000 610.0000 1.0000
59.5100 648.0000 1.0000
59.5200 646.0000 1.0000
59.5300 629.0000 1.0000
59.5400 632.0000 1.0000
59.5500 656.0000 1.0000
59.5600 659.0000 1.0000
59.5700 641.0000 1.0000
59.5800 637.0000 1.0000
59.5900 669.0000 1.0000
59.6000 573.0000 1.0000
59.6100 633.0000 1.0000
59.6200 667.0000 1.0000
59.6300 630.0000 1.0000
59.6400 682.0000 1.0000
59.6500 645.0000 1.0000
59.6600 610.0000 1.0000
59.6700 642.0000 1.0000
59.6800 665.0000 1.0000
59.6900 683.0000 1.0000
59.7000 614.0000 1.0000
59.7100 638.0000 1.0000
59.7200 658.0000 1.0000
59.7300 647.0000 1.0000
59.7400 587.0000 1.0000
59.7500 656.0000 1.0000
59.7600 645.0000 1.0000
59.7700 653.0000 1.0000
59.7800 615.0000 1.0000
59.7900 620.0000 1.0000
59.8000 626.0000 1.0000
59.8100 648.0000 1.0000
59.8200 630.0000 1.0000
59.8300 629.0000 1.0000
59.8400 605.0000 1.0000
59.8500 612.0000 1.0000
59.8600 622.0000 1.0000
59.8700 651.0000 1.0000
59.8800 671.0000 1.0000
59.8900 632.0000 1.0000
59.9000 696.0000 1.0000
59.9100 643.0000 1.0000
59.9200 637.0000 1.0000
59.9300 610.0000 1.0000
59.9400 692.0000 1.0000
59.9500 667.0000 1.0000
59.9600 640.0000 1.0000
59.9700 637.0000 1.0000
59.9800 660.0000 1.0000
59.9900 610.0000 1.0000
60.0000 641.0000 1.0000
60.0100 645.0000 1.0000
60.0200 632.0000 1.0000
60.0300 641.0000 1.0000
60.0400 649.0000 1.0000
60.0500 621.0000 1.0000
60.0600 632.0000 1.0000
60.0700 631.0000 1.0000
60.0800 680.0000 1.0000
60.0900 614.0000 1.0000
60.1000 671.0000 1.0000
60.1100 644.0000 1.0000
60.1200 657.0000 1.0000
60.1300 616.0000 1.0000
60.1400 600.0000 1.0000
60.1500 592.0000 1.0000
60.1600 620.0000 1.0000
60.1700 645.0000 1.0000
60.1800 653.0000 1.0000
60.1900 651.0000 1.0000
60.2000 608.0000 1.0000
60.2100 610.0000 1.0000
60.2200 591.0000 1.0000
60.2300 600.0000 1.0000
60.2400 601.0000 1.0000
60.2500 618.0000 1.0000
60.2600 652.0000 1.0000
60.2700 639.0000 1.0000
60.2800 668.0000 1.0000
60.2900 611.0000 1.0000
60.3000 609.0000 1.0000
60.3100 665.0000 1.0000
60.3200 672.0000 1.0000
60.3300 661.0000 1.0000
60.3400 656.0000 1.0000
60.3500 651.0000 1.0000
60.3600 686.0000 1.0000
60.3700 638.0000 1.0000
60.3800 630.0000 1.0000
60.3900 631.0000 1.0000
60.4000 637.0000 1.0000
60.4100 665.0000 1.0000
60.4200 625.0000 1.0000
60.4300 632.0000 1.0000
60.4400 606.0000 1.0000
60.4500 615.0000 1.0000
60.4600 649.0000 1.0000
60.4700 621.0000 1.0000
60.4800 631.0000 1.0000
60.4900 645.0000 1.0000
60.5000 623.0000 1.0000
60.5100 636.0000 1.0000
60.5200 648.0000 1.0000
60.5300 603.0000 1.0000
60.5400 605.0000 1.0000
60.5500 643.0000 1.0000
60.5600 582.0000 1.0000
60.5700 651.0000 1.0000
60.5800 618.0000 1.0000
60.5900 654.0000 1.0000
60.6000 592.0000 1.0000
60.6100 632.0000 1.0000
60.6200 608.0000 1.0000
60.6300 677.0000 1.0000
60.6400 619.0000 1.0000
60.6500 647.0000 1.0000
60.6600 637.0000 1.0000
60.6700 646.0000 1.0000
60.6800 646.0000 1.0000
60.6900 648.0000 1.0000
60.7000 658.0000 1.0000
60.7100 651.0000 1.0000
60.7200 676.0000 1.0000
60.7300 629.0000 1.0000
60.7400 616.0000 1.0000
60.7500 572.0000 1.0000
60.7600 639.0000 1.0000
60.7700 616.0000 1.0000
60.7800 650.0000 1.0000
60.7900 628.0000 1.0000
60.8000 677.0000 1.0000
60.8100 652.0000 1.0000
60.8200 636.0000 1.0000
60.8300 622.0000 1.0000
60.8400 579.0000 1.0000
60.8500 621.0000 1.0000
60.8600 650.0000 1.0000
60.8700 644.0000 1.0000
60.8800 625.0000 1.0000
60.8900 604.0000 1.0000
60.9000 619.0000 1.0000
60.9100 630.0000 1.0000
60.9200 634.0000 1.0000
60.9300 639.0000 1.0000
60.9400 684.0000 1.0000
60.9500 642.0000 1.0000
60.9600 625.0000 1.0000
60.9700 676.0000 1.0000
60.9800 628.0000 1.0000
60.9900 612.0000 1.0000
61.0000 643.0000 1.0000
61.0100 654.0000 1.0000
61.0200 627.0000 1.0000
61.0300 636.0000 1.0000
61.0400 602.0000 1.0000
61.0500 686.0000 1.0000
61.0600 662.0000 1.0000
61.0700 647.0000 1.0000
61.0800 642.0000 1.0000
61.0900 630.0000 1.0000
61.1000 566.0000 1.0000
61.1100 614.0000 1.0000
61.1200 643.0000 1.0000
61.1300 611.0000 1.0000
61.1400 681.0000 1.0000
61.1500 664.0000 1.0000
61.1600 662.0000 1.0000
61.1700 581.0000 1.0000
61.1800 689.0000 1.0000
61.1900 673.0000 1.0000
61.2000 661.0000 1.0000
61.2100 664.0000 1.0000
61.2200 636.0000 1.0000
61.2300 654.0000 1.0000
61.2400 584.0000 1.0000
61.2500 641.0000 1.0000
61.2600 649.0000 1.0000
61.2700 658.0000 1.0000
61.2800 625.0000 1.0000
61.2900 600.0000 1.0000
61.3000 641.0000 1.0000
61.3100 667.0000 1.0000
61.3200 645.0000 1.0000
61.3300 670.0000 1.0000
61.3400 648.0000 1.0000
61.3500 643.0000 1.0000
61.3600 618.0000 1.0000
61.3700 677.0000 1.0000
61.3800 614.0000 1.0000
61.3900 626.0000 1.0000
61.4000 658.0000 1.0000
61.4100 686.0000 1.0000
61.4200 690.0000 1.0000
61.4300 610.0000 1.0000
61.4400 637.0000 1.0000
61.4500 690.0000 1.0000
61.4600 649.0000 1.0000
61.4700 638.0000 1.0000
61.4800 618.0000 1.0000
61.4900 666.0000 1.0000
61.5000 684.0000 1.0000
61.5100 668.0000 1.0000
61.5200 660.0000 1.0000
61.5300 667.0000 1.0000
61.5400 667.0000 1.0000
61.5500 671.0000 1.0000
61.5600 658.0000 1.0000
61.5700 633.0000 1.0000
61.5800 626.0000 1.0000
61.5900 610.0000 1.0000
61.6000 643.0000 1.0000
61.6100 682.0000 1.0000
61.6200 680.0000 1.0000
61.6300 679.0000 1.0000
61.6400 668.0000 1.0000
61.6500 678.0000 1.0000
61.6600 647.0000 1.0000
61.6700 664.0000 1.0000
61.6800 636.0000 1.0000
61.6900 647.0000 1.0000
61.7000 657.0000 1.0000
61.7100 712.0000 1.0000
61.7200 693.0000 1.0000
61.7300 695.0000 1.0000
61.7400 709.0000 1.0000
61.7500 678.0000 1.0000
61.7600 667.0000 1.0000
61.7700 664.0000 1.0000
61.7800 653.0000 1.0000
61.7900 680.0000 1.0000
61.8000 682.0000 1.0000
61.8100 692.0000 1.0000
61.8200 654.0000 1.0000
61.8300 710.0000 1.0000
61.8400 697.0000 1.0000
61.8500 718.0000 1.0000
61.8600 708.0000 1.0000
61.8700 689.0000 1.0000
61.8800 731.0000 1.0000
61.8900 677.0000 1.0000
61.9000 773.0000 1.0000
61.9100 771.0000 1.0000
61.9200 774.0000 1.0000
61.9300 749.0000 1.0000
61.9400 768.0000 1.0000
61.9500 748.0000 1.0000
61.9600 819.0000 1.0000
61.9700 802.0000 1.0000
61.9800 805.0000 1.0000
61.9900 810.0000 1.0000
62.0000 850.0000 1.0000
62.0100 832.0000 1.0000
62.0200 861.0000 1.0000
62.0300 899.0000 1.0000
62.0400 873.0000 1.0000
62.0500 873.0000 1.0000
62.0600 906.0000 1.0000
62.0700 954.0000 1.0000
62.0800 914.0000 1.0000
62.0900 988.0000 1.0000
62.1000 985.0000 1.0000
62.1100 1069.0000 1.0000
62.1200 983.0000 1.0000
62.1300 1117.0000 1.0000
62.1400 1118.0000 1.0000
62.1500 1110.0000 1.0000
62.1600 1188.0000 1.0000
62.1700 1260.0000 1.0000
62.1800 1247.0000 1.0000
62.1900 1263.0000 1.0000
62.2000 1311.0000 1.0000
62.2100 1309.0000 1.0000
62.2200 1358.0000 1.0000
62.2300 1441.0000 1.0000
62.2400 1458.0000 1.0000
62.2500 1477.0000 1.0000
62.2600 1457.0000 1.0000
62.2700 1551.0000 1.0000
62.2800 1536.0000 1.0000
62.2900 1524.0000 1.0000
62.3000 1551.0000 1.0000
62.3100 1550.0000 1.0000
62.3200 1588.0000 1.0000
62.3300 1610.0000 1.0000
62.3400 1550.0000 1.0000
62.3500 1554.0000 1.0000
62.3600 1531.0000 1.0000
62.3700 1523.0000 1.0000
62.3800 1508.0000 1.0000
62.3900 1523.0000 1.0000
62.4000 1510.0000 1.0000
62.4100 1479.0000 1.0000
62.4200 1501.0000 1.0000
62.4300 1482.0000 1.0000
62.4400 1494.0000 1.0000
62.4500 1481.0000 1.0000
62.4600 1426.0000 1.0000
62.4700 1460.0000 1.0000
62.4800 1369.0000 1.0000
62.4900 1338.0000 1.0000
62.5000 1297.0000 1.0000
62.5100 1259.0000 1.0000
62.5200 1277.0000 1.0000
62.5300 1238.0000 1.0000
62.5400 1241.0000 1.0000
62.5500 1158.0000 1.0000
62.5600 1131.0000 1.0000
62.5700 1159.0000 1.0000
62.5800 1086.0000 1.0000
62.5900 1076.0000 1.0000
62.6000 1021.0000 1.0000
62.6100 1049.0000 1.0000
62.6200 1039.0000 1.0000
62.6300 975.0000 1.0000
62.6400 961.0000 1.0000
62.6500 955.0000 1.0000
62.6600 915.0000 1.0000
62.6700 906.0000 1.0000
62.6800 896.0000 1.0000
62.6900 900.0000 1.0000
62.7000 916.0000 1.0000
62.7100 848.0000 1.0000
62.7200 819.0000 1.0000
62.7300 811.0000 1.0000
62.7400 788.0000 1.0000
62.7500 783.0000 1.0000
62.7600 808.0000 1.0000
62.7700 841.0000 1.0000
62.7800 805.0000 1.0000
62.7900 758.0000 1.0000
62.8000 759.0000 1.0000
62.8100 814.0000 1.0000
62.8200 800.0000 1.0000
62.8300 737.0000 1.0000
62.8400 731.0000 1.0000
62.8500 749.0000 1.0000
62.8600 676.0000 1.0000
62.8700 711.0000 1.0000
62.8800 732.0000 1.0000
62.8900 689.0000 1.0000
62.9000 681.0000 1.0000
62.9100 738.0000 1.0000
62.9200 690.0000 1.0000
62.9300 681.0000 1.0000
62.9400 718.0000 1.0000
62.9500 750.0000 1.0000
62.9600 712.0000 1.0000
62.9700 692.0000 1.0000
62.9800 684.0000 1.0000
62.9900 705.0000 1.0000
63.0000 725.0000 1.0000
63.0100 689.0000 1.0000
63.0200 678.0000 1.0000
63.0300 706.0000 1.0000
63.0400 671.0000 1.0000
63.0500 675.0000 1.0000
63.0600 709.0000 1.0000
63.0700 711.0000 1.0000
63.0800 738.0000 1.0000
63.0900 672.0000 1.0000
63.1000 701.0000 1.0000
63.1100 715.0000 1.0000
63.1200 708.0000 1.0000
63.1300 711.0000 1.0000
63.1400 704.0000 1.0000
63.1500 683.0000 1.0000
63.1600 709.0000 1.0000
63.1700 687.0000 1.0000
63.1800 688.0000 1.0000
63.1900 697.0000 1.0000
63.2000 701.0000 1.0000
63.2100 693.0000 1.0000
63.2200 642.0000 1.0000
63.2300 703.0000 1.0000
63.2400 677.0000 1.0000
63.2500 673.0000 1.0000
63.2600 649.0000 1.0000
63.2700 676.0000 1.0000
63.2800 684.0000 1.0000
63.2900 690.0000 1.0000
63.3000 641.0000 1.0000
63.3100 681.0000 1.0000
63.3200 664.0000 1.0000
63.3300 655.0000 1.0000
63.3400 682.0000 1.0000
63.3500 641.0000 1.0000
63.3600 668.0000 1.0000
63.3700 650.0000 1.0000
63.3800 670.0000 1.0000
63.3900 667.0000 1.0000
63.4000 658.0000 1.0000
63.4100 673.0000 1.0000
63.4200 682.0000 1.0000
63.4300 679.0000 1.0000
63.4400 644.0000 1.0000
63.4500 617.0000 1.0000
63.4600 626.0000 1.0000
63.4700 628.0000 1.0000
63.4800 627.0000 1.0000
63.4900 606.0000 1.0000
63.5000 666.0000 1.0000
63.5100 660.0000 1.0000
63.5200 620.0000 1.0000
63.5300 608.0000 1.0000
63.5400 675.0000 1.0000
63.5500 676.0000 1.0000
63.5600 612.0000 1.0000
63.5700 624.0000 1.0000
63.5800 652.0000 1.0000
63.5900 652.0000 1.0000
63.6000 620.0000 1.0000
63.6100 634.0000 1.0000
63.6200 669.0000 1.0000
63.6300 634.0000 1.0000
63.6400 662.0000 1.0000
63.6500 679.0000 1.0000
63.6600 647.0000 1.0000
63.6700 649.0000 1.0000
63.6800 592.0000 1.0000
63.6900 596.0000 1.0000
63.7000 657.0000 1.0000
63.7100 646.0000 1.0000
63.7200 642.0000 1.0000
63.7300 636.0000 1.0000
63.7400 628.0000 1.0000
63.7500 651.0000 1.0000
63.7600 685.0000 1.0000
63.7700 695.0000 1.0000
63.7800 644.0000 1.0000
63.7900 634.0000 1.0000
63.8000 634.0000 1.0000
63.8100 609.0000 1.0000
63.8200 654.0000 1.0000
63.8300 636.0000 1.0000
63.8400 573.0000 1.0000
63.8500 617.0000 1.0000
63.8600 636.0000 1.0000
63.8700 629.0000 1.0000
63.8800 602.0000 1.0000
63.8900 642.0000 1.0000
63.9000 652.0000 1.0000
63.9100 636.0000 1.0000
63.9200 637.0000 1.0000
63.9300 654.0000 1.0000
63.9400 647.0000 1.0000
63.9500 639.0000 1.0000
63.9600 639.0000 1.0000
63.9700 618.0000 1.0000
63.9800 654.0000 1.0000
63.9900 673.0000 1.0000
64.0000 624.0000 1.0000
64.0100 658.0000 1.0000
64.0200 632.0000 1.0000
64.0300 666.0000 1.0000
64.0400 652.0000 1.0000
64.0500 651.0000 1.0000
64.0600 679.0000 1.0000
64.0700 660.0000 1.0000
64.0800 654.0000 1.0000
64.0900 611.0000 1.0000
64.1000 642.0000 1.0000
64.1100 634.0000 1.0000
64.1200 642.0000 1.0000
64.1300 639.0000 1.0000
64.1400 651.0000 1.0000
64.1500 618.0000 1.0000
64.1600 649.0000 1.0000
64.1700 638.0000 1.0000
64.1800 634.0000 1.0000
64.1900 659.0000 1.0000
64.2000 561.0000 1.0000
64.2100 636.0000 1.0000
64.2200 646.0000 1.0000
64.2300 670.0000 1.0000
64.2400 670.0000 1.0000
64.2500 600.0000 1.0000
64.2600 654.0000 1.0000
64.2700 661.0000 1.0000
64.2800 691.0000 1.0000
64.2900 641.0000 1.0000
64.3000 680.0000 1.0000
64.3100 624.0000 1.0000
64.3200 686.0000 1.0000
64.3300 663.0000 1.0000
64.3400 658.0000 1.0000
64.3500 667.0000 1.0000
64.3600 677.0000 1.0000
64.3700 670.0000 1.0000
64.3800 655.0000 1.0000
64.3900 644.0000 1.0000
64.4000 656.0000 1.0000
64.4100 667.0000 1.0000
64.4200 722.0000 1.0000
64.4300 653.0000 1.0000
64.4400 656.0000 1.0000
64.4500 668.0000 1.0000
64.4600 721.0000 1.0000
64.4700 658.0000 1.0000
64.4800 684.0000 1.0000
64.4900 704.0000 1.0000
64.5000 655.0000 1.0000
64.5100 677.0000 1.0000
64.5200 721.0000 1.0000
64.5300 661.0000 1.0000
64.5400 717.0000 1.0000
64.5500 696.0000 1.0000
64.5600 685.0000 1.0000
64.5700 675.0000 1.0000
64.5800 717.0000 1.0000
64.5900 721.0000 1.0000
64.6000 771.0000 1.0000
64.6100 794.0000 1.0000
64.6200 753.0000 1.0000
64.6300 758.0000 1.0000
64.6400 757.0000 1.0000
64.6500 807.0000 1.0000
64.6600 796.0000 1.0000
64.6700 827.0000 1.0000
64.6800 810.0000 1.0000
64.6900 842.0000 1.0000
64.7000 873.0000 1.0000
64.7100 841.0000 1.0000
64.7200 804.0000 1.0000
64.7300 802.0000 1.0000
64.7400 810.0000 1.0000
64.7500 804.0000 1.0000
64.7600 841.0000 1.0000
64.7700 779.0000 1.0000
64.7800 746.0000 1.0000
64.7900 768.0000 1.0000
64.8000 757.0000 1.0000
64.8100 776.0000 1.0000
64.8200 803.0000 1.0000
64.8300 747.0000 1.0000
64.8400 744.0000 1.0000
64.8500 788.0000 1.0000
64.8600 802.0000 1.0000
64.8700 763.0000 1.0000
64.8800 827.0000 1.0000
64.8900 744.0000 1.0000
64.9000 793.0000 1.0000
64.9100 734.0000 1.0000
64.9200 748.0000 1.0000
64.9300 730.0000 1.0000
64.9400 758.0000 1.0000
64.9500 748.0000 1.0000
64.9600 717.0000 1.0000
64.9700 732.0000 1.0000
64.9800 704.0000 1.0000
64.9900 721.0000 1.0000
65.0000 673.0000 1.0000
65.0100 735.0000 1.0000
65.0200 726.0000 1.0000
65.0300 700.0000 1.0000
65.0400 705.0000 1.0000
65.0500 725.0000 1.0000
65.0600 676.0000 1.0000
65.0700 656.0000 1.0000
65.0800 678.0000 1.0000
65.0900 690.0000 1.0000
65.1000 679.0000 1.0000
65.1100 688.0000 1.0000
65.1200 672.0000 1.0000
65.1300 645.0000 1.0000
65.1400 635.0000 1.0000
65.1500 691.0000 1.0000
65.1600 703.0000 1.0000
65.1700 691.0000 1.0000
65.1800 675.0000 1.0000
65.1900 654.0000 1.0000
65.2000 677.0000 1.0000
65.2100 659.0000 1.0000
65.2200 650.0000 1.0000
65.2300 636.0000 1.0000
65.2400 689.0000 1.0000
65.2500 682.0000 1.0000
65.2600 706.0000 1.0000
65.2700 673.0000 1.0000
65.2800 665.0000 1.0000
65.2900 676.0000 1.0000
65.3000 700.0000 1.0000
65.3100 673.0000 1.0000
65.3200 661.0000 1.0000
65.3300 664.0000 1.0000
65.3400 714.0000 1.0000
65.3500 672.0000 1.0000
65.3600 678.0000 1.0000
65.3700 683.0000 1.0000
65.3800 645.0000 1.0000
65.3900 658.0000 1.0000
65.4000 676.0000 1.0000
65.4100 646.0000 1.0000
65.4200 683.0000 1.0000
65.4300 710.0000 1.0000
65.4400 657.0000 1.0000
65.4500 684.0000 1.0000
65.4600 638.0000 1.0000
65.4700 674.0000 1.0000
65.4800 677.0000 1.0000
65.4900 658.0000 1.0000
65.5000 671.0000 1.0000
65.5100 673.0000 1.0000
65.5200 694.0000 1.0000
65.5300 680.0000 1.0000
65.5400 669.0000 1.0000
65.5500 690.0000 1.0000
65.5600 723.0000 1.0000
65.5700 683.0000 1.0000
65.5800 669.0000 1.0000
65.5900 659.0000 1.0000
65.6000 631.0000 1.0000
65.6100 652.0000 1.0000
65.6200 650.0000 1.0000
65.6300 664.0000 1.0000
65.6400 690.0000 1.0000
65.6500 667.0000 1.0000
65.6600 653.0000 1.0000
65.6700 701.0000 1.0000
65.6800 696.0000 1.0000
65.6900 667.0000 1.0000
65.7000 709.0000 1.0000
65.7100 709.0000 1.0000
65.7200 696.0000 1.0000
65.7300 691.0000 1.0000
65.7400 700.0000 1.0000
65.7500 709.0000 1.0000
65.7600 731.0000 1.0000
65.7700 740.0000 1.0000
65.7800 754.0000 1.0000
65.7900 744.0000 1.0000
65.8000 682.0000 1.0000
65.8100 682.0000 1.0000
65.8200 750.0000 1.0000
65.8300 765.0000 1.0000
65.8400 751.0000 1.0000
65.8500 778.0000 1.0000
65.8600 791.0000 1.0000
65.8700 823.0000 1.0000
65.8800 807.0000 1.0000
65.8900 756.0000 1.0000
65.9000 790.0000 1.0000
65.9100 785.0000 1.0000
65.9200 777.0000 1.0000
65.9300 823.0000 1.0000
65.9400 789.0000 1.0000
65.9500 831.0000 1.0000
65.9600 862.0000 1.0000
65.9700 848.0000 1.0000
65.9800 899.0000 1.0000
65.9900 910.0000 1.0000
66.0000 955.0000 1.0000
66.0100 963.0000 1.0000
66.0200 998.0000 1.0000
66.0300 1027.0000 1.0000
66.0400 1071.0000 1.0000
66.0500 982.0000 1.0000
66.0600 1092.0000 1.0000
66.0700 1075.0000 1.0000
66.0800 1157.0000 1.0000
66.0900 1208.0000 1.0000
66.1000 1284.0000 1.0000
66.1100 1358.0000 1.0000
66.1200 1361.0000 1.0000
66.1300 1455.0000 1.0000
66.1400 1525.0000 1.0000
66.1500 1589.0000 1.0000
66.1600 1699.0000 1.0000
66.1700 1745.0000 1.0000
66.1800 1817.0000 1.0000
66.1900 1952.0000 1.0000
66.2000 2135.0000 1.0000
66.2100 2105.0000 1.0000
66.2200 2202.0000 1.0000
66.2300 2380.0000 1.0000
66.2400 2393.0000 1.0000
66.2500 2504.0000 1.0000
66.2600 2529.0000 1.0000
66.2700 2635.0000 1.0000
66.2800 2646.0000 1.0000
66.2900 2604.0000 1.0000
66.3000 2600.0000 1.0000
66.3100 2556.0000 1.0000
66.3200 2516.0000 1.0000
66.3300 2458.0000 1.0000
66.3400 2360.0000 1.0000
66.3500 2462.0000 1.0000
66.3600 2321.0000 1.0000
66.3700 2287.0000 1.0000
66.3800 2234.0000 1.0000
66.3900 2258.0000 1.0000
66.4000 2102.0000 1.0000
66.4100 2077.0000 1.0000
66.4200 2108.0000 1.0000
66.4300 2150.0000 1.0000
66.4400 2020.0000 1.0000
66.4500 2032.0000 1.0000
66.4600 1995.0000 1.0000
66.4700 1995.0000 1.0000
66.4800 1941.0000 1.0000
66.4900 1801.0000 1.0000
66.5000 1791.0000 1.0000
66.5100 1669.0000 1.0000
66.5200 1674.0000 1.0000
66.5300 1577.0000 1.0000
66.5400 1508.0000 1.0000
66.5500 1432.0000 1.0000
66.5600 1414.0000 1.0000
66.5700 1374.0000 1.0000
66.5800 1277.0000 1.0000
66.5900 1268.0000 1.0000
66.6000 1136.0000 1.0000
66.6100 1127.0000 1.0000
66.6200 1130.0000 1.0000
66.6300 1080.0000 1.0000
66.6400 1063.0000 1.0000
66.6500 1017.0000 1.0000
66.6600 1009.0000 1.0000
66.6700 1001.0000 1.0000
66.6800 923.0000 1.0000
66.6900 915.0000 1.0000
66.7000 910.0000 1.0000
66.7100 831.0000 1.0000
66.7200 899.0000 1.0000
66.7300 844.0000 1.0000
66.7400 842.0000 1.0000
66.7500 817.0000 1.0000
66.7600 787.0000 1.0000
66.7700 788.0000 1.0000
66.7800 773.0000 1.0000
66.7900 741.0000 1.0000
66.8000 740.0000 1.0000
66.8100 770.0000 1.0000
66.8200 739.0000 1.0000
66.8300 784.0000 1.0000
66.8400 713.0000 1.0000
66.8500 735.0000 1.0000
66.8600 738.0000 1.0000
66.8700 732.0000 1.0000
66.8800 689.0000 1.0000
66.8900 731.0000 1.0000
66.9000 688.0000 1.0000
66.9100 688.0000 1.0000
66.9200 681.0000 1.0000
66.9300 617.0000 1.0000
66.9400 680.0000 1.0000
66.9500 685.0000 1.0000
66.9600 694.0000 1.0000
66.9700 640.0000 1.0000
66.9800 643.0000 1.0000
66.9900 658.0000 1.0000
67.0000 668.0000 1.0000
67.0100 643.0000 1.0000
67.0200 669.0000 1.0000
67.0300 639.0000 1.0000
67.0400 631.0000 1.0000
67.0500 636.0000 1.0000
67.0600 622.0000 1.0000
67.0700 610.0000 1.0000
67.0800 608.0000 1.0000
67.0900 631.0000 1.0000
67.1000 591.0000 1.0000
67.1100 623.0000 1.0000
67.1200 626.0000 1.0000
67.1300 621.0000 1.0000
67.1400 674.0000 1.0000
67.1500 631.0000 1.0000
67.1600 627.0000 1.0000
67.1700 689.0000 1.0000
67.1800 647.0000 1.0000
67.1900 601.0000 1.0000
67.2000 599.0000 1.0000
67.2100 581.0000 1.0000
67.2200 629.0000 1.0000
67.2300 668.0000 1.0000
67.2400 591.0000 1.0000
67.2500 607.0000 1.0000
67.2600 630.0000 1.0000
67.2700 611.0000 1.0000
67.2800 623.0000 1.0000
67.2900 619.0000 1.0000
67.3000 607.0000 1.0000
67.3100 603.0000 1.0000
67.3200 610.0000 1.0000
67.3300 572.0000 1.0000
67.3400 586.0000 1.0000
67.3500 619.0000 1.0000
67.3600 572.0000 1.0000
67.3700 601.0000 1.0000
67.3800 590.0000 1.0000
67.3900 602.0000 1.0000
67.4000 567.0000 1.0000
67.4100 597.0000 1.0000
67.4200 633.0000 1.0000
67.4300 590.0000 1.0000
67.4400 603.0000 1.0000
67.4500 594.0000 1.0000
67.4600 598.0000 1.0000
67.4700 619.0000 1.0000
67.4800 610.0000 1.0000
67.4900 621.0000 1.0000
67.5000 592.0000 1.0000
67.5100 591.0000 1.0000
67.5200 579.0000 1.0000
67.5300 604.0000 1.0000
67.5400 595.0000 1.0000
67.5500 610.0000 1.0000
67.5600 604.0000 1.0000
67.5700 645.0000 1.0000
67.5800 602.0000 1.0000
67.5900 581.0000 1.0000
67.6000 612.0000 1.0000
67.6100 581.0000 1.0000
67.6200 594.0000 1.0000
67.6300 568.0000 1.0000
67.6400 553.0000 1.0000
67.6500 585.0000 1.0000
67.6600 587.0000 1.0000
67.6700 608.0000 1.0000
67.6800 581.0000 1.0000
67.6900 586.0000 1.0000
67.7000 599.0000 1.0000
67.7100 598.0000 1.0000
67.7200 612.0000 1.0000
67.7300 601.0000 1.0000
67.7400 625.0000 1.0000
67.7500 603.0000 1.0000
67.7600 639.0000 1.0000
67.7700 571.0000 1.0000
67.7800 598.0000 1.0000
67.7900 571.0000 1.0000
67.8000 599.0000 1.0000
67.8100 625.0000 1.0000
67.8200 581.0000 1.0000
67.8300 626.0000 1.0000
67.8400 594.0000 1.0000
67.8500 623.0000 1.0000
67.8600 632.0000 1.0000
67.8700 603.0000 1.0000
67.8800 576.0000 1.0000
67.8900 570.0000 1.0000
67.9000 557.0000 1.0000
67.9100 566.0000 1.0000
67.9200 572.0000 1.0000
67.9300 559.0000 1.0000
67.9400 576.0000 1.0000
67.9500 592.0000 1.0000
67.9600 603.0000 1.0000
67.9700 575.0000 1.0000
67.9800 601.0000 1.0000
67.9900 587.0000 1.0000
68.0000 568.0000 1.0000
68.0100 568.0000 1.0000
68.0200 585.0000 1.0000
68.0300 586.0000 1.0000
68.0400 544.0000 1.0000
68.0500 535.0000 1.0000
68.0600 595.0000 1.0000
68.0700 601.0000 1.0000
68.0800 595.0000 1.0000
68.0900 579.0000 1.0000
68.1000 582.0000 1.0000
68.1100 577.0000 1.0000
68.1200 602.0000 1.0000
68.1300 558.0000 1.0000
68.1400 587.0000 1.0000
68.1500 570.0000 1.0000
68.1600 534.0000 1.0000
68.1700 605.0000 1.0000
68.1800 573.0000 1.0000
68.1900 552.0000 1.0000
68.2000 557.0000 1.0000
68.2100 585.0000 1.0000
68.2200 562.0000 1.0000
68.2300 559.0000 1.0000
68.2400 539.0000 1.0000
68.2500 576.0000 1.0000
68.2600 554.0000 1.0000
68.2700 583.0000 1.0000
68.2800 588.0000 1.0000
68.2900 547.0000 1.0000
68.3000 555.0000 1.0000
68.3100 562.0000 1.0000
68.3200 572.0000 1.0000
68.3300 563.0000 1.0000
68.3400 565.0000 1.0000
68.3500 597.0000 1.0000
68.3600 567.0000 1.0000
68.3700 564.0000 1.0000
68.3800 547.0000 1.0000
68.3900 562.0000 1.0000
68.4000 574.0000 1.0000
68.4100 579.0000 1.0000
68.4200 526.0000 1.0000
68.4300 575.0000 1.0000
68.4400 565.0000 1.0000
68.4500 528.0000 1.0000
68.4600 522.0000 1.0000
68.4700 557.0000 1.0000
68.4800 543.0000 1.0000
68.4900 544.0000 1.0000
68.5000 607.0000 1.0000
68.5100 551.0000 1.0000
68.5200 569.0000 1.0000
68.5300 595.0000 1.0000
68.5400 578.0000 1.0000
68.5500 556.0000 1.0000
68.5600 519.0000 1.0000
68.5700 538.0000 1.0000
68.5800 587.0000 1.0000
68.5900 591.0000 1.0000
68.6000 564.0000 1.0000
68.6100 583.0000 1.0000
68.6200 562.0000 1.0000
68.6300 579.0000 1.0000
68.6400 588.0000 1.0000
68.6500 567.0000 1.0000
68.6600 532.0000 1.0000
68.6700 590.0000 1.0000
68.6800 567.0000 1.0000
68.6900 576.0000 1.0000
68.7000 576.0000 1.0000
68.7100 564.0000 1.0000
68.7200 548.0000 1.0000
68.7300 561.0000 1.0000
68.7400 524.0000 1.0000
68.7500 581.0000 1.0000
68.7600 565.0000 1.0000
68.7700 593.0000 1.0000
68.7800 589.0000 1.0000
68.7900 560.0000 1.0000
68.8000 545.0000 1.0000
68.8100 561.0000 1.0000
68.8200 592.0000 1.0000
68.8300 532.0000 1.0000
68.8400 579.0000 1.0000
68.8500 572.0000 1.0000
68.8600 626.0000 1.0000
68.8700 555.0000 1.0000
68.8800 540.0000 1.0000
68.8900 527.0000 1.0000
68.9000 566.0000 1.0000
68.9100 593.0000 1.0000
68.9200 554.0000 1.0000
68.9300 578.0000 1.0000
68.9400 559.0000 1.0000
68.9500 562.0000 1.0000
68.9600 554.0000 1.0000
68.9700 523.0000 1.0000
68.9800 599.0000 1.0000
68.9900 573.0000 1.0000
69.0000 592.0000 1.0000
69.0100 572.0000 1.0000
69.0200 597.0000 1.0000
69.0300 543.0000 1.0000
69.0400 540.0000 1.0000
69.0500 543.0000 1.0000
69.0600 556.0000 1.0000
69.0700 556.0000 1.0000
69.0800 566.0000 1.0000
69.0900 561.0000 1.0000
69.1000 555.0000 1.0000
69.1100 580.0000 1.0000
69.1200 564.0000 1.0000
69.1300 552.0000 1.0000
69.1400 558.0000 1.0000
69.1500 553.0000 1.0000
69.1600 519.0000 1.0000
69.1700 578.0000 1.0000
69.1800 537.0000 1.0000
69.1900 570.0000 1.0000
69.2000 552.0000 1.0000
69.2100 565.0000 1.0000
69.2200 550.0000 1.0000
69.2300 561.0000 1.0000
69.2400 580.0000 1.0000
69.2500 544.0000 1.0000
69.2600 533.0000 1.0000
69.2700 575.0000 1.0000
69.2800 524.0000 1.0000
69.2900 562.0000 1.0000
69.3000 562.0000 1.0000
69.3100 579.0000 1.0000
69.3200 552.0000 1.0000
69.3300 532.0000 1.0000
69.3400 545.0000 1.0000
69.3500 580.0000 1.0000
69.3600 599.0000 1.0000
69.3700 540.0000 1.0000
69.3800 579.0000 1.0000
69.3900 522.0000 1.0000
69.4000 571.0000 1.0000
69.4100 553.0000 1.0000
69.4200 587.0000 1.0000
69.4300 570.0000 1.0000
69.4400 577.0000 1.0000
69.4500 582.0000 1.0000
69.4600 536.0000 1.0000
69.4700 518.0000 1.0000
69.4800 546.0000 1.0000
69.4900 540.0000 1.0000
69.5000 527.0000 1.0000
69.5100 551.0000 1.0000
69.5200 557.0000 1.0000
69.5300 533.0000 1.0000
69.5400 543.0000 1.0000
69.5500 573.0000 1.0000
69.5600 563.0000 1.0000
69.5700 575.0000 1.0000
69.5800 580.0000 1.0000
69.5900 542.0000 1.0000
69.6000 571.0000 1.0000
69.6100 580.0000 1.0000
69.6200 576.0000 1.0000
69.6300 601.0000 1.0000
69.6400 570.0000 1.0000
69.6500 581.0000 1.0000
69.6600 600.0000 1.0000
69.6700 535.0000 1.0000
69.6800 595.0000 1.0000
69.6900 545.0000 1.0000
69.7000 526.0000 1.0000
69.7100 580.0000 1.0000
69.7200 549.0000 1.0000
69.7300 542.0000 1.0000
69.7400 580.0000 1.0000
69.7500 607.0000 1.0000
69.7600 551.0000 1.0000
69.7700 546.0000 1.0000
69.7800 556.0000 1.0000
69.7900 577.0000 1.0000
69.8000 548.0000 1.0000
69.8100 586.0000 1.0000
69.8200 549.0000 1.0000
69.8300 551.0000 1.0000
69.8400 527.0000 1.0000
69.8500 537.0000 1.0000
69.8600 577.0000 1.0000
69.8700 527.0000 1.0000
69.8800 561.0000 1.0000
69.8900 571.0000 1.0000
69.9000 524.0000 1.0000
69.9100 561.0000 1.0000
69.9200 563.0000 1.0000
69.9300 537.0000 1.0000
69.9400 533.0000 1.0000
69.9500 559.0000 1.0000
69.9600 542.0000 1.0000
69.9700 539.0000 1.0000
69.9800 569.0000 1.0000
69.9900 542.0000 1.0000
70.0000 541.0000 1.0000
*RAS_INT_END
*RAS_TEMPERATURE_START
*RAS_TEMPERATURE_END
*RAS_DATA_END
