*RAS_DATA_START
*RAS_HEADER_START
*DISP_FMT_X "%.2f"
*DISP_FMT_Y "%.0f"
*DISP_FULLSCALE "19525.0000000000"
*DISP_LINE_COLOR "255.0000000000"
*DISP_LINE_STYLE "0.0000000000"
*DISP_LINE_WIDTH "0.2500000000"
*DISP_NOTE "測定データ-2"
*DISP_OFFSET_Y "0.0000000000"
*DISP_PEAKSEARCH_UNIT_Y "cps"
*DISP_RANGE_BOTTOM "0.0000000000"
*DISP_RANGE_LEFT "20.0000000000"
*DISP_RANGE_LOGCUTOFF "0.0100000000"
*DISP_RANGE_RIGHT "70.0000000000"
*DISP_RANGE_TOP "19525.0000000000"
*DISP_SCALE_MODE_Y "0.0000000000"
*DISP_TAB_NAME "2θ/θ"
*DISP_TITLE_Y "強度"
*DISP_UNIT_Y "cps"
*DISP_WINDOW_NAME "MSG_MACROENGINE"
*FILE_COMMENT " "
*FILE_MD5 ""
*FILE_MEMO " "
*FILE_OPERATOR "Administrator"
*FILE_SAMPLE " "
*FILE_TYPE "RAS_RAW"
*FILE_USERGROUP "システムマネージャ"
*FILE_VERSION "1.0000000000"
*HW_ATTACHMENT_ID "ATT0025"
*HW_ATTACHMENT_NAME "標準|Standard"
*HW_COUNTER_ID-0 "CUT0025"
*HW_COUNTER_ID-1 "CUT0020"
*HW_COUNTER_ID-2 "CUT0020"
*HW_COUNTER_ID-3 "CSL0021"
*HW_COUNTER_ID-4 "CMC0021"
*HW_COUNTER_NAME-0 "D/teX Ultra|D/teX Ultra"
*HW_COUNTER_NAME-1 "None|None"
*HW_COUNTER_NAME-2 "None|None"
*HW_COUNTER_NAME-3 "BBM|BBM"
*HW_COUNTER_NAME-4 "検出器モノクロメータ|Detector monochromator"
*HW_COUNTER_SELECT_NAME "D/teX Ultra|D/teX Ultra"
*HW_GONIOMETER_ID "GON0023"
*HW_GONIOMETER_NAME "SmartLab|SmartLab"
*HW_GONIOMETER_RADIUS-0 "90.0"
*HW_GONIOMETER_RADIUS-1 "114.0"
*HW_GONIOMETER_RADIUS-2 "190.0"
*HW_GONIOMETER_RADIUS-3 "300.0"
*HW_GONIOMETER_RADIUS-4 "187.0"
*HW_GONIOMETER_RADIUS-5 "300.0"
*HW_GONIOMETER_RADIUS-6 "113.0"
*HW_GONIOMETER_RADIUS-7 "331.0"
*HW_I_OPT_ID-0 "CBO0021"
*HW_I_OPT_ID-1 "ICR0023"
*HW_I_OPT_ID-2 "ISL0021"
*HW_I_OPT_ID-3 "ISO0021"
*HW_I_OPT_ID-4 "IAD0021"
*HW_I_OPT_ID-5 "IPR0001"
*HW_I_OPT_NAME-0 "CBOユニット|CBO unit"
*HW_I_OPT_NAME-1 "標準入射光学ユニット|Standard incident optical unit"
*HW_I_OPT_NAME-2 "標準入射スリットボックス|Standard incident slit box"
*HW_I_OPT_NAME-3 "入射平行スリット|Incident parallel slit"
*HW_I_OPT_NAME-4 "長手制限スリット|Length limiting slit"
*HW_I_OPT_NAME-5 "None|None"
*HW_R_ATTENUATER_AUTOMODE "0"
*HW_R_OPT_ID-0 "RSS0021"
*HW_R_OPT_ID-1 "RCR0023"
*HW_R_OPT_ID-2 "RSO0021"
*HW_R_OPT_ID-3 "RRS0021"
*HW_R_OPT_ID-4 "ATN0021"
*HW_R_OPT_ID-5 "RFL0021"
*HW_R_OPT_ID-6 "RAD0021"
*HW_R_OPT_NAME-0 "標準受光スリットボックス1|Standard receiving slit box # 1"
*HW_R_OPT_NAME-1 "標準受光光学ユニット1|Standard receiving unit # 1"
*HW_R_OPT_NAME-2 "標準受光光学ユニット2|Standard receiving optical unit # 2"
*HW_R_OPT_NAME-3 "標準受光スリットボックス2|Standard receiving slit box # 2"
*HW_R_OPT_NAME-4 "標準アッテネータ|Standard Attenuator"
*HW_R_OPT_NAME-5 "Cu Kβ|Cu K-beta"
*HW_R_OPT_NAME-6 "調整用受光スリット|Alignment receiving slit"
*HW_SAMPLE_HOLDER_ID "SMP0023"
*HW_SAMPLE_HOLDER_NAME "標準Zステージ|Standard Z stage"
*HW_XG_CURRENT_MAX "50"
*HW_XG_CURRENT_MIN "2"
*HW_XG_CURRENT_RESOLUTION "1"
*HW_XG_CURRENT_UNIT "mA"
*HW_XG_FOCUS "1mm x 10mm"
*HW_XG_FOCUS_TYPE "Normal"
*HW_XG_ID ""
*HW_XG_NAME "3kW 封入管(ID:1200)|3kW Sealed tube(ID:1200)"
*HW_XG_TARGET_ATOMIC_NUMBER "29.0000000000"
*HW_XG_TARGET_NAME "Cu"
*HW_XG_TYPE "Hermetic"
*HW_XG_VOLTAGE_MAX "60"
*HW_XG_VOLTAGE_MIN "20"
*HW_XG_VOLTAGE_RESOLUTION "1"
*HW_XG_VOLTAGE_UNIT "kV"
*HW_XG_WATT_MAX "1.500"
*HW_XG_WATT_UNIT "kW"
*HW_XG_WAVE_LENGTH_ALPHA1 "1.540593"
*HW_XG_WAVE_LENGTH_ALPHA2 "1.544414"
*HW_XG_WAVE_LENGTH_BETA "1.392250"
*MEAS_COND_AXIS_NAME-0 "2θ/θ"
*MEAS_COND_AXIS_NAME-1 "2θ"
*MEAS_COND_AXIS_NAME-2 "ω"
*MEAS_COND_AXIS_NAME-3 "Z"
*MEAS_COND_AXIS_NAME-4 "2θ/ω"
*MEAS_COND_AXIS_NAME-5 "θs"
*MEAS_COND_AXIS_NAME-6 "θd"
*MEAS_COND_AXIS_NAME-7 "Ts"
*MEAS_COND_AXIS_NAME-8 "CBO選択スリット"
*MEAS_COND_AXIS_NAME-9 "M"
*MEAS_COND_AXIS_NAME-10 "入射平行スリット"
*MEAS_COND_AXIS_NAME-11 "入射スリット"
*MEAS_COND_AXIS_NAME-12 ""
*MEAS_COND_AXIS_NAME-13 "Zs"
*MEAS_COND_AXIS_NAME-14 "入射光学素子"
*MEAS_COND_AXIS_NAME-15 "長手制限スリット"
*MEAS_COND_AXIS_NAME-16 "センタースリット"
*MEAS_COND_AXIS_NAME-17 "フィルター"
*MEAS_COND_AXIS_NAME-18 "受光スリット1"
*MEAS_COND_AXIS_NAME-19 "受光スリット2"
*MEAS_COND_AXIS_NAME-20 "受光光学素子"
*MEAS_COND_AXIS_NAME-21 "受光平行スリット"
*MEAS_COND_AXIS_NAME-22 "調整用受光スリット"
*MEAS_COND_AXIS_NAME-23 ""
*MEAS_COND_AXIS_NAME-24 ""
*MEAS_COND_AXIS_NAME-25 "Zd"
*MEAS_COND_AXIS_NAME-26 "アッテネータ"
*MEAS_COND_AXIS_NAME-27 "検出器モノクロメータ"
*MEAS_COND_AXIS_NAME-28 "モノクロメータスリット"
*MEAS_COND_AXIS_NAME-29 "プライマリビーム"
*MEAS_COND_AXIS_NAME-30 "PHA"
*MEAS_COND_AXIS_NAME_INTERNAL-0 "TwoThetaTheta"
*MEAS_COND_AXIS_NAME_INTERNAL-1 "TwoTheta"
*MEAS_COND_AXIS_NAME_INTERNAL-2 "Omega"
*MEAS_COND_AXIS_NAME_INTERNAL-3 "Z"
*MEAS_COND_AXIS_NAME_INTERNAL-4 "TwoThetaOmega"
*MEAS_COND_AXIS_NAME_INTERNAL-5 "ThetaS"
*MEAS_COND_AXIS_NAME_INTERNAL-6 "ThetaD"
*MEAS_COND_AXIS_NAME_INTERNAL-7 "Ts"
*MEAS_COND_AXIS_NAME_INTERNAL-8 "CBO"
*MEAS_COND_AXIS_NAME_INTERNAL-9 "CBO-M"
*MEAS_COND_AXIS_NAME_INTERNAL-10 "IncidentSollerSlit"
*MEAS_COND_AXIS_NAME_INTERNAL-11 "IncidentSlitBox"
*MEAS_COND_AXIS_NAME_INTERNAL-12 "IncidentSlitBox-_Axis"
*MEAS_COND_AXIS_NAME_INTERNAL-13 "Zs"
*MEAS_COND_AXIS_NAME_INTERNAL-14 "IncidentMonochromator"
*MEAS_COND_AXIS_NAME_INTERNAL-15 "IncidentAxdSlit"
*MEAS_COND_AXIS_NAME_INTERNAL-16 "CenterSlit"
*MEAS_COND_AXIS_NAME_INTERNAL-17 "Filter"
*MEAS_COND_AXIS_NAME_INTERNAL-18 "ReceivingSlitBox1"
*MEAS_COND_AXIS_NAME_INTERNAL-19 "ReceivingSlitBox2"
*MEAS_COND_AXIS_NAME_INTERNAL-20 "ReceivingOptics"
*MEAS_COND_AXIS_NAME_INTERNAL-21 "ReceivingSollerSlit"
*MEAS_COND_AXIS_NAME_INTERNAL-22 "ReceivingAxdSlit"
*MEAS_COND_AXIS_NAME_INTERNAL-23 "ReceivingSlitBox1-_Axis"
*MEAS_COND_AXIS_NAME_INTERNAL-24 "ReceivingSlitBox2-_Axis"
*MEAS_COND_AXIS_NAME_INTERNAL-25 "ReceivingSlitBox2-Zd"
*MEAS_COND_AXIS_NAME_INTERNAL-26 "Attenuator"
*MEAS_COND_AXIS_NAME_INTERNAL-27 "CounterMonochromator"
*MEAS_COND_AXIS_NAME_INTERNAL-28 "CounterSlit"
*MEAS_COND_AXIS_NAME_INTERNAL-29 "IncidentPrimary"
*MEAS_COND_AXIS_NAME_INTERNAL-30 "PHA"
*MEAS_COND_AXIS_NAME_MAGICNO-0 "83951616.0000000000"
*MEAS_COND_AXIS_NAME_MAGICNO-1 "268632064.0000000000"
*MEAS_COND_AXIS_NAME_MAGICNO-2 "268500992.0000000000"
*MEAS_COND_AXIS_NAME_MAGICNO-3 "285278208.0000000000"
*MEAS_COND_AXIS_NAME_MAGICNO-4 "83951616.0000000000"
*MEAS_COND_AXIS_NAME_MAGICNO-5 "131072.0000000000"
*MEAS_COND_AXIS_NAME_MAGICNO-6 "131072.0000000000"
*MEAS_COND_AXIS_NAME_MAGICNO-7 "318898176.0000000000"
*MEAS_COND_AXIS_NAME_MAGICNO-8 "20971521.0000000000"
*MEAS_COND_AXIS_NAME_MAGICNO-9 "285343744.0000000000"
*MEAS_COND_AXIS_NAME_MAGICNO-10 "20971521.0000000000"
*MEAS_COND_AXIS_NAME_MAGICNO-11 "22020097.0000000000"
*MEAS_COND_AXIS_NAME_MAGICNO-12 "25165824.0000000000"
*MEAS_COND_AXIS_NAME_MAGICNO-13 "318898176.0000000000"
*MEAS_COND_AXIS_NAME_MAGICNO-14 "1.0000000000"
*MEAS_COND_AXIS_NAME_MAGICNO-15 "20971521.0000000000"
*MEAS_COND_AXIS_NAME_MAGICNO-16 "20971521.0000000000"
*MEAS_COND_AXIS_NAME_MAGICNO-17 "20971521.0000000000"
*MEAS_COND_AXIS_NAME_MAGICNO-18 "23068673.0000000000"
*MEAS_COND_AXIS_NAME_MAGICNO-19 "23068673.0000000000"
*MEAS_COND_AXIS_NAME_MAGICNO-20 "20971521.0000000000"
*MEAS_COND_AXIS_NAME_MAGICNO-21 "20971521.0000000000"
*MEAS_COND_AXIS_NAME_MAGICNO-22 "20971521.0000000000"
*MEAS_COND_AXIS_NAME_MAGICNO-23 "25165824.0000000000"
*MEAS_COND_AXIS_NAME_MAGICNO-24 "25165824.0000000000"
*MEAS_COND_AXIS_NAME_MAGICNO-25 "285343744.0000000000"
*MEAS_COND_AXIS_NAME_MAGICNO-26 "17301505.0000000000"
*MEAS_COND_AXIS_NAME_MAGICNO-27 "20971521.0000000000"
*MEAS_COND_AXIS_NAME_MAGICNO-28 "20971521.0000000000"
*MEAS_COND_AXIS_NAME_MAGICNO-29 "20971521.0000000000"
*MEAS_COND_AXIS_NAME_MAGICNO-30 "0.0000000000"
*MEAS_COND_AXIS_OFFSET-0 "-"
*MEAS_COND_AXIS_OFFSET-1 "-0.0801000000"
*MEAS_COND_AXIS_OFFSET-2 "0.1283000000"
*MEAS_COND_AXIS_OFFSET-3 "-"
*MEAS_COND_AXIS_OFFSET-4 "-"
*MEAS_COND_AXIS_OFFSET-5 "0.1283000000"
*MEAS_COND_AXIS_OFFSET-6 "-0.2084000000"
*MEAS_COND_AXIS_OFFSET-7 "-"
*MEAS_COND_AXIS_OFFSET-8 "-"
*MEAS_COND_AXIS_OFFSET-9 "-"
*MEAS_COND_AXIS_OFFSET-10 "-"
*MEAS_COND_AXIS_OFFSET-11 "-"
*MEAS_COND_AXIS_OFFSET-12 "-"
*MEAS_COND_AXIS_OFFSET-13 "-"
*MEAS_COND_AXIS_OFFSET-14 "-"
*MEAS_COND_AXIS_OFFSET-15 "-"
*MEAS_COND_AXIS_OFFSET-16 "-"
*MEAS_COND_AXIS_OFFSET-17 "-"
*MEAS_COND_AXIS_OFFSET-18 "-"
*MEAS_COND_AXIS_OFFSET-19 "-"
*MEAS_COND_AXIS_OFFSET-20 "-"
*MEAS_COND_AXIS_OFFSET-21 "-"
*MEAS_COND_AXIS_OFFSET-22 "-"
*MEAS_COND_AXIS_OFFSET-23 "-"
*MEAS_COND_AXIS_OFFSET-24 "-"
*MEAS_COND_AXIS_OFFSET-25 "-"
*MEAS_COND_AXIS_OFFSET-26 "-"
*MEAS_COND_AXIS_OFFSET-27 "-"
*MEAS_COND_AXIS_OFFSET-28 "-"
*MEAS_COND_AXIS_OFFSET-29 "-"
*MEAS_COND_AXIS_OFFSET-30 "-"
*MEAS_COND_AXIS_POSITION-0 "0.0000000000"
*MEAS_COND_AXIS_POSITION-1 "0.0000000000"
*MEAS_COND_AXIS_POSITION-2 "0.0000000000"
*MEAS_COND_AXIS_POSITION-3 "-2.9935200000"
*MEAS_COND_AXIS_POSITION-4 "0.0000000000"
*MEAS_COND_AXIS_POSITION-5 "0.0000000000"
*MEAS_COND_AXIS_POSITION-6 "0.0000000000"
*MEAS_COND_AXIS_POSITION-7 "-0.4278800000"
*MEAS_COND_AXIS_POSITION-8 "BB"
*MEAS_COND_AXIS_POSITION-9 "0.0000000000"
*MEAS_COND_AXIS_POSITION-10 "Soller_slit_5.0deg"
*MEAS_COND_AXIS_POSITION-11 "2/3deg"
*MEAS_COND_AXIS_POSITION-12 "2.2088000000"
*MEAS_COND_AXIS_POSITION-13 "-1.0609400000"
*MEAS_COND_AXIS_POSITION-14 "0.0000000000"
*MEAS_COND_AXIS_POSITION-15 "10.0mm"
*MEAS_COND_AXIS_POSITION-16 "None"
*MEAS_COND_AXIS_POSITION-17 "Cu_K-beta"
*MEAS_COND_AXIS_POSITION-18 "13.000mm"
*MEAS_COND_AXIS_POSITION-19 "13.000mm"
*MEAS_COND_AXIS_POSITION-20 "No_unit"
*MEAS_COND_AXIS_POSITION-21 "Soller_slit_5.0deg"
*MEAS_COND_AXIS_POSITION-22 "None"
*MEAS_COND_AXIS_POSITION-23 "13.0000000000"
*MEAS_COND_AXIS_POSITION-24 "13.0000000000"
*MEAS_COND_AXIS_POSITION-25 "0.0081300000"
*MEAS_COND_AXIS_POSITION-26 "Open"
*MEAS_COND_AXIS_POSITION-27 "None"
*MEAS_COND_AXIS_POSITION-28 "None"
*MEAS_COND_AXIS_POSITION-29 "None"
*MEAS_COND_AXIS_POSITION-30 "38.0000000000"
*MEAS_COND_AXIS_UNIT-0 "deg"
*MEAS_COND_AXIS_UNIT-1 "deg"
*MEAS_COND_AXIS_UNIT-2 "deg"
*MEAS_COND_AXIS_UNIT-3 "mm"
*MEAS_COND_AXIS_UNIT-4 "deg"
*MEAS_COND_AXIS_UNIT-5 "deg"
*MEAS_COND_AXIS_UNIT-6 "deg"
*MEAS_COND_AXIS_UNIT-7 "mm"
*MEAS_COND_AXIS_UNIT-8 ""
*MEAS_COND_AXIS_UNIT-9 "pulse"
*MEAS_COND_AXIS_UNIT-10 ""
*MEAS_COND_AXIS_UNIT-11 ""
*MEAS_COND_AXIS_UNIT-12 "mm"
*MEAS_COND_AXIS_UNIT-13 "mm"
*MEAS_COND_AXIS_UNIT-14 ""
*MEAS_COND_AXIS_UNIT-15 ""
*MEAS_COND_AXIS_UNIT-16 ""
*MEAS_COND_AXIS_UNIT-17 ""
*MEAS_COND_AXIS_UNIT-18 ""
*MEAS_COND_AXIS_UNIT-19 ""
*MEAS_COND_AXIS_UNIT-20 ""
*MEAS_COND_AXIS_UNIT-21 ""
*MEAS_COND_AXIS_UNIT-22 ""
*MEAS_COND_AXIS_UNIT-23 "mm"
*MEAS_COND_AXIS_UNIT-24 "mm"
*MEAS_COND_AXIS_UNIT-25 "mm"
*MEAS_COND_AXIS_UNIT-26 ""
*MEAS_COND_AXIS_UNIT-27 ""
*MEAS_COND_AXIS_UNIT-28 ""
*MEAS_COND_AXIS_UNIT-29 ""
*MEAS_COND_AXIS_UNIT-30 "div"
*MEAS_COND_COUNTER_CNTLOSS_CORR "0.0000000000"
*MEAS_COND_COUNTER_PHABASE "38.0000000000"
*MEAS_COND_COUNTER_PHAWINDOW "16.0000000000"
*MEAS_COND_COUNTER_PHA_UNIT "div"
*MEAS_COND_COUNTER_TAUDIFF "30.0000000000"
*MEAS_COND_COUNTER_TAUINT "0.0000000000"
*MEAS_COND_IRRADIATION_MODE "OFF"
*MEAS_COND_IRRADIATION_WIDTH ""
*MEAS_COND_OPT_ATTR "集中法"
*MEAS_COND_OPT_NAME "@集中法"
*MEAS_COND_UNSYMMETRIC_MODE "OFF"
*MEAS_COND_XG_CURRENT "30.0000000000"
*MEAS_COND_XG_VOLTAGE "40.0000000000"
*MEAS_COND_XG_WAVE_TYPE "Ka"
*MEAS_DATA_COUNT "5001.0000000000"
*MEAS_SCAN_AXIS_X "2θ/θ"
*MEAS_SCAN_AXIS_X_INTERNAL "TwoThetaTheta"
*MEAS_SCAN_END_TIME "07/20/22 15:47:36"
*MEAS_SCAN_MODE "CONTINUOUS"
*MEAS_SCAN_MONITOR "0"
*MEAS_SCAN_RESOLUTION_X "0.0002"
*MEAS_SCAN_SPEED "2.5"
*MEAS_SCAN_SPEED_UNIT "deg/min"
*MEAS_SCAN_START "20.0000000000"
*MEAS_SCAN_START_TIME "07/20/22 15:26:12"
*MEAS_SCAN_STEP "0.0100000000"
*MEAS_SCAN_STOP "70.0000000000"
*MEAS_SCAN_UNIT_X "deg"
*MEAS_SCAN_UNIT_Y "counts"
*RAS_HEADER_END
*RAS_INT_START
20.0000 1009.0000 1.0000
20.0100 982.0000 1.0000
20.0200 1032.0000 1.0000
20.0300 1051.0000 1.0000
20.0400 978.0000 1.0000
20.0500 1003.0000 1.0000
20.0600 1057.0000 1.0000
20.0700 1056.0000 1.0000
20.0800 1027.0000 1.0000
20.0900 998.0000 1.0000
20.1000 1046.0000 1.0000
20.1100 998.0000 1.0000
20.1200 1000.0000 1.0000
20.1300 993.0000 1.0000
20.1400 1041.0000 1.0000
20.1500 1044.0000 1.0000
20.1600 980.0000 1.0000
20.1700 1002.0000 1.0000
20.1800 1035.0000 1.0000
20.1900 1019.0000 1.0000
20.2000 1009.0000 1.0000
20.2100 1000.0000 1.0000
20.2200 1076.0000 1.0000
20.2300 987.0000 1.0000
20.2400 1004.0000 1.0000
20.2500 1029.0000 1.0000
20.2600 963.0000 1.0000
20.2700 1039.0000 1.0000
20.2800 1032.0000 1.0000
20.2900 1061.0000 1.0000
20.3000 985.0000 1.0000
20.3100 1030.0000 1.0000
20.3200 1002.0000 1.0000
20.3300 1041.0000 1.0000
20.3400 1034.0000 1.0000
20.3500 1020.0000 1.0000
20.3600 1033.0000 1.0000
20.3700 1006.0000 1.0000
20.3800 1038.0000 1.0000
20.3900 980.0000 1.0000
20.4000 1031.0000 1.0000
20.4100 1012.0000 1.0000
20.4200 1053.0000 1.0000
20.4300 1034.0000 1.0000
20.4400 1045.0000 1.0000
20.4500 1013.0000 1.0000
20.4600 1066.0000 1.0000
20.4700 1017.0000 1.0000
20.4800 1014.0000 1.0000
20.4900 984.0000 1.0000
20.5000 1003.0000 1.0000
20.5100 1030.0000 1.0000
20.5200 1032.0000 1.0000
20.5300 980.0000 1.0000
20.5400 966.0000 1.0000
20.5500 1034.0000 1.0000
20.5600 1025.0000 1.0000
20.5700 1043.0000 1.0000
20.5800 1027.0000 1.0000
20.5900 983.0000 1.0000
20.6000 1008.0000 1.0000
20.6100 1038.0000 1.0000
20.6200 1010.0000 1.0000
20.6300 1046.0000 1.0000
20.6400 1045.0000 1.0000
20.6500 1006.0000 1.0000
20.6600 1025.0000 1.0000
20.6700 1045.0000 1.0000
20.6800 1038.0000 1.0000
20.6900 998.0000 1.0000
20.7000 1003.0000 1.0000
20.7100 1007.0000 1.0000
20.7200 985.0000 1.0000
20.7300 1005.0000 1.0000
20.7400 984.0000 1.0000
20.7500 1018.0000 1.0000
20.7600 1026.0000 1.0000
20.7700 1006.0000 1.0000
20.7800 1012.0000 1.0000
20.7900 1009.0000 1.0000
20.8000 1056.0000 1.0000
20.8100 1019.0000 1.0000
20.8200 1015.0000 1.0000
20.8300 1050.0000 1.0000
20.8400 972.0000 1.0000
20.8500 988.0000 1.0000
20.8600 979.0000 1.0000
20.8700 995.0000 1.0000
20.8800 1009.0000 1.0000
20.8900 1043.0000 1.0000
20.9000 1036.0000 1.0000
20.9100 1038.0000 1.0000
20.9200 1029.0000 1.0000
20.9300 1053.0000 1.0000
20.9400 1046.0000 1.0000
20.9500 1024.0000 1.0000
20.9600 967.0000 1.0000
20.9700 1003.0000 1.0000
20.9800 1035.0000 1.0000
20.9900 995.0000 1.0000
21.0000 977.0000 1.0000
21.0100 1075.0000 1.0000
21.0200 1011.0000 1.0000
21.0300 1061.0000 1.0000
21.0400 1033.0000 1.0000
21.0500 993.0000 1.0000
21.0600 1039.0000 1.0000
21.0700 1074.0000 1.0000
21.0800 1031.0000 1.0000
21.0900 1067.0000 1.0000
21.1000 1007.0000 1.0000
21.1100 1040.0000 1.0000
21.1200 1028.0000 1.0000
21.1300 1038.0000 1.0000
21.1400 1040.0000 1.0000
21.1500 1007.0000 1.0000
21.1600 996.0000 1.0000
21.1700 979.0000 1.0000
21.1800 1006.0000 1.0000
21.1900 1051.0000 1.0000
21.2000 1047.0000 1.0000
21.2100 1054.0000 1.0000
21.2200 1013.0000 1.0000
21.2300 1059.0000 1.0000
21.2400 1050.0000 1.0000
21.2500 1056.0000 1.0000
21.2600 1039.0000 1.0000
21.2700 1006.0000 1.0000
21.2800 1012.0000 1.0000
21.2900 995.0000 1.0000
21.3000 1014.0000 1.0000
21.3100 1018.0000 1.0000
21.3200 1014.0000 1.0000
21.3300 1017.0000 1.0000
21.3400 986.0000 1.0000
21.3500 1006.0000 1.0000
21.3600 992.0000 1.0000
21.3700 1022.0000 1.0000
21.3800 1011.0000 1.0000
21.3900 1036.0000 1.0000
21.4000 996.0000 1.0000
21.4100 990.0000 1.0000
21.4200 1014.0000 1.0000
21.4300 1021.0000 1.0000
21.4400 1032.0000 1.0000
21.4500 1025.0000 1.0000
21.4600 1038.0000 1.0000
21.4700 1037.0000 1.0000
21.4800 1064.0000 1.0000
21.4900 984.0000 1.0000
21.5000 1003.0000 1.0000
21.5100 1044.0000 1.0000
21.5200 1011.0000 1.0000
21.5300 1000.0000 1.0000
21.5400 1009.0000 1.0000
21.5500 1000.0000 1.0000
21.5600 1015.0000 1.0000
21.5700 992.0000 1.0000
21.5800 1073.0000 1.0000
21.5900 1055.0000 1.0000
21.6000 1056.0000 1.0000
21.6100 1024.0000 1.0000
21.6200 1015.0000 1.0000
21.6300 1029.0000 1.0000
21.6400 1059.0000 1.0000
21.6500 1035.0000 1.0000
21.6600 1041.0000 1.0000
21.6700 973.0000 1.0000
21.6800 1021.0000 1.0000
21.6900 994.0000 1.0000
21.7000 971.0000 1.0000
21.7100 1073.0000 1.0000
21.7200 1054.0000 1.0000
21.7300 1009.0000 1.0000
21.7400 1005.0000 1.0000
21.7500 998.0000 1.0000
21.7600 1018.0000 1.0000
21.7700 980.0000 1.0000
21.7800 1042.0000 1.0000
21.7900 1009.0000 1.0000
21.8000 1043.0000 1.0000
21.8100 1024.0000 1.0000
21.8200 1043.0000 1.0000
21.8300 1079.0000 1.0000
21.8400 1065.0000 1.0000
21.8500 1049.0000 1.0000
21.8600 1019.0000 1.0000
21.8700 1010.0000 1.0000
21.8800 995.0000 1.0000
21.8900 1062.0000 1.0000
21.9000 1022.0000 1.0000
21.9100 1017.0000 1.0000
21.9200 1048.0000 1.0000
21.9300 1024.0000 1.0000
21.9400 1016.0000 1.0000
21.9500 946.0000 1.0000
21.9600 969.0000 1.0000
21.9700 1000.0000 1.0000
21.9800 1013.0000 1.0000
21.9900 1006.0000 1.0000
22.0000 958.0000 1.0000
22.0100 1022.0000 1.0000
22.0200 1019.0000 1.0000
22.0300 1068.0000 1.0000
22.0400 1069.0000 1.0000
22.0500 1018.0000 1.0000
22.0600 961.0000 1.0000
22.0700 1031.0000 1.0000
22.0800 1044.0000 1.0000
22.0900 1020.0000 1.0000
22.1000 1039.0000 1.0000
22.1100 1023.0000 1.0000
22.1200 987.0000 1.0000
22.1300 957.0000 1.0000
22.1400 1005.0000 1.0000
22.1500 987.0000 1.0000
22.1600 995.0000 1.0000
22.1700 967.0000 1.0000
22.1800 1002.0000 1.0000
22.1900 983.0000 1.0000
22.2000 1056.0000 1.0000
22.2100 1037.0000 1.0000
22.2200 1013.0000 1.0000
22.2300 1027.0000 1.0000
22.2400 964.0000 1.0000
22.2500 998.0000 1.0000
22.2600 1028.0000 1.0000
22.2700 1034.0000 1.0000
22.2800 1017.0000 1.0000
22.2900 997.0000 1.0000
22.3000 999.0000 1.0000
22.3100 973.0000 1.0000
22.3200 1011.0000 1.0000
22.3300 1011.0000 1.0000
22.3400 983.0000 1.0000
22.3500 986.0000 1.0000
22.3600 1029.0000 1.0000
22.3700 994.0000 1.0000
22.3800 971.0000 1.0000
22.3900 1011.0000 1.0000
22.4000 1062.0000 1.0000
22.4100 1033.0000 1.0000
22.4200 1014.0000 1.0000
22.4300 1050.0000 1.0000
22.4400 1069.0000 1.0000
22.4500 989.0000 1.0000
22.4600 1047.0000 1.0000
22.4700 1032.0000 1.0000
22.4800 981.0000 1.0000
22.4900 966.0000 1.0000
22.5000 969.0000 1.0000
22.5100 1005.0000 1.0000
22.5200 1006.0000 1.0000
22.5300 977.0000 1.0000
22.5400 980.0000 1.0000
22.5500 997.0000 1.0000
22.5600 959.0000 1.0000
22.5700 1002.0000 1.0000
22.5800 1046.0000 1.0000
22.5900 1003.0000 1.0000
22.6000 971.0000 1.0000
22.6100 962.0000 1.0000
22.6200 967.0000 1.0000
22.6300 1008.0000 1.0000
22.6400 1011.0000 1.0000
22.6500 1031.0000 1.0000
22.6600 978.0000 1.0000
22.6700 948.0000 1.0000
22.6800 1040.0000 1.0000
22.6900 1018.0000 1.0000
22.7000 984.0000 1.0000
22.7100 988.0000 1.0000
22.7200 970.0000 1.0000
22.7300 978.0000 1.0000
22.7400 992.0000 1.0000
22.7500 990.0000 1.0000
22.7600 1007.0000 1.0000
22.7700 1035.0000 1.0000
22.7800 996.0000 1.0000
22.7900 963.0000 1.0000
22.8000 987.0000 1.0000
22.8100 924.0000 1.0000
22.8200 977.0000 1.0000
22.8300 992.0000 1.0000
22.8400 1007.0000 1.0000
22.8500 975.0000 1.0000
22.8600 980.0000 1.0000
22.8700 943.0000 1.0000
22.8800 990.0000 1.0000
22.8900 1012.0000 1.0000
22.9000 999.0000 1.0000
22.9100 983.0000 1.0000
22.9200 991.0000 1.0000
22.9300 1004.0000 1.0000
22.9400 955.0000 1.0000
22.9500 1024.0000 1.0000
22.9600 988.0000 1.0000
22.9700 924.0000 1.0000
22.9800 965.0000 1.0000
22.9900 1004.0000 1.0000
23.0000 981.0000 1.0000
23.0100 965.0000 1.0000
23.0200 978.0000 1.0000
23.0300 925.0000 1.0000
23.0400 1014.0000 1.0000
23.0500 949.0000 1.0000
23.0600 979.0000 1.0000
23.0700 1011.0000 1.0000
23.0800 974.0000 1.0000
23.0900 987.0000 1.0000
23.1000 997.0000 1.0000
23.1100 1004.0000 1.0000
23.1200 1065.0000 1.0000
23.1300 987.0000 1.0000
23.1400 967.0000 1.0000
23.1500 1011.0000 1.0000
23.1600 1011.0000 1.0000
23.1700 935.0000 1.0000
23.1800 985.0000 1.0000
23.1900 1003.0000 1.0000
23.2000 995.0000 1.0000
23.2100 989.0000 1.0000
23.2200 906.0000 1.0000
23.2300 998.0000 1.0000
23.2400 989.0000 1.0000
23.2500 1012.0000 1.0000
23.2600 978.0000 1.0000
23.2700 982.0000 1.0000
23.2800 975.0000 1.0000
23.2900 973.0000 1.0000
23.3000 967.0000 1.0000
23.3100 996.0000 1.0000
23.3200 966.0000 1.0000
23.3300 996.0000 1.0000
23.3400 986.0000 1.0000
23.3500 992.0000 1.0000
23.3600 964.0000 1.0000
23.3700 940.0000 1.0000
23.3800 983.0000 1.0000
23.3900 972.0000 1.0000
23.4000 965.0000 1.0000
23.4100 964.0000 1.0000
23.4200 999.0000 1.0000
23.4300 1020.0000 1.0000
23.4400 980.0000 1.0000
23.4500 994.0000 1.0000
23.4600 1007.0000 1.0000
23.4700 951.0000 1.0000
23.4800 1032.0000 1.0000
23.4900 1035.0000 1.0000
23.5000 1030.0000 1.0000
23.5100 987.0000 1.0000
23.5200 958.0000 1.0000
23.5300 979.0000 1.0000
23.5400 1004.0000 1.0000
23.5500 970.0000 1.0000
23.5600 958.0000 1.0000
23.5700 977.0000 1.0000
23.5800 1029.0000 1.0000
23.5900 976.0000 1.0000
23.6000 987.0000 1.0000
23.6100 937.0000 1.0000
23.6200 984.0000 1.0000
23.6300 977.0000 1.0000
23.6400 955.0000 1.0000
23.6500 968.0000 1.0000
23.6600 964.0000 1.0000
23.6700 972.0000 1.0000
23.6800 991.0000 1.0000
23.6900 947.0000 1.0000
23.7000 1032.0000 1.0000
23.7100 1032.0000 1.0000
23.7200 953.0000 1.0000
23.7300 968.0000 1.0000
23.7400 967.0000 1.0000
23.7500 973.0000 1.0000
23.7600 985.0000 1.0000
23.7700 952.0000 1.0000
23.7800 977.0000 1.0000
23.7900 989.0000 1.0000
23.8000 998.0000 1.0000
23.8100 977.0000 1.0000
23.8200 1034.0000 1.0000
23.8300 1044.0000 1.0000
23.8400 1026.0000 1.0000
23.8500 1008.0000 1.0000
23.8600 996.0000 1.0000
23.8700 999.0000 1.0000
23.8800 1063.0000 1.0000
23.8900 1059.0000 1.0000
23.9000 1015.0000 1.0000
23.9100 1002.0000 1.0000
23.9200 1020.0000 1.0000
23.9300 984.0000 1.0000
23.9400 1032.0000 1.0000
23.9500 992.0000 1.0000
23.9600 1044.0000 1.0000
23.9700 1007.0000 1.0000
23.9800 1010.0000 1.0000
23.9900 1059.0000 1.0000
24.0000 1032.0000 1.0000
24.0100 1037.0000 1.0000
24.0200 1059.0000 1.0000
24.0300 1069.0000 1.0000
24.0400 1032.0000 1.0000
24.0500 1069.0000 1.0000
24.0600 1079.0000 1.0000
24.0700 1079.0000 1.0000
24.0800 1064.0000 1.0000
24.0900 1087.0000 1.0000
24.1000 1027.0000 1.0000
24.1100 1074.0000 1.0000
24.1200 1059.0000 1.0000
24.1300 1030.0000 1.0000
24.1400 1057.0000 1.0000
24.1500 1041.0000 1.0000
24.1600 1059.0000 1.0000
24.1700 1049.0000 1.0000
24.1800 991.0000 1.0000
24.1900 984.0000 1.0000
24.2000 1030.0000 1.0000
24.2100 1052.0000 1.0000
24.2200 1011.0000 1.0000
24.2300 1022.0000 1.0000
24.2400 965.0000 1.0000
24.2500 1043.0000 1.0000
24.2600 1004.0000 1.0000
24.2700 1057.0000 1.0000
24.2800 1032.0000 1.0000
24.2900 987.0000 1.0000
24.3000 997.0000 1.0000
24.3100 1005.0000 1.0000
24.3200 1021.0000 1.0000
24.3300 977.0000 1.0000
24.3400 971.0000 1.0000
24.3500 978.0000 1.0000
24.3600 989.0000 1.0000
24.3700 939.0000 1.0000
24.3800 1007.0000 1.0000
24.3900 958.0000 1.0000
24.4000 984.0000 1.0000
24.4100 996.0000 1.0000
24.4200 993.0000 1.0000
24.4300 964.0000 1.0000
24.4400 1028.0000 1.0000
24.4500 995.0000 1.0000
24.4600 977.0000 1.0000
24.4700 962.0000 1.0000
24.4800 986.0000 1.0000
24.4900 981.0000 1.0000
24.5000 964.0000 1.0000
24.5100 952.0000 1.0000
24.5200 943.0000 1.0000
24.5300 970.0000 1.0000
24.5400 988.0000 1.0000
24.5500 982.0000 1.0000
24.5600 917.0000 1.0000
24.5700 984.0000 1.0000
24.5800 929.0000 1.0000
24.5900 955.0000 1.0000
24.6000 947.0000 1.0000
24.6100 957.0000 1.0000
24.6200 994.0000 1.0000
24.6300 953.0000 1.0000
24.6400 942.0000 1.0000
24.6500 931.0000 1.0000
24.6600 939.0000 1.0000
24.6700 1020.0000 1.0000
24.6800 966.0000 1.0000
24.6900 910.0000 1.0000
24.7000 920.0000 1.0000
24.7100 944.0000 1.0000
24.7200 999.0000 1.0000
24.7300 1013.0000 1.0000
24.7400 984.0000 1.0000
24.7500 924.0000 1.0000
24.7600 937.0000 1.0000
24.7700 982.0000 1.0000
24.7800 957.0000 1.0000
24.7900 915.0000 1.0000
24.8000 972.0000 1.0000
24.8100 951.0000 1.0000
24.8200 921.0000 1.0000
24.8300 885.0000 1.0000
24.8400 929.0000 1.0000
24.8500 954.0000 1.0000
24.8600 984.0000 1.0000
24.8700 1036.0000 1.0000
24.8800 960.0000 1.0000
24.8900 1008.0000 1.0000
24.9000 984.0000 1.0000
24.9100 900.0000 1.0000
24.9200 986.0000 1.0000
24.9300 940.0000 1.0000
24.9400 942.0000 1.0000
24.9500 924.0000 1.0000
24.9600 956.0000 1.0000
24.9700 950.0000 1.0000
24.9800 926.0000 1.0000
24.9900 959.0000 1.0000
25.0000 996.0000 1.0000
25.0100 957.0000 1.0000
25.0200 985.0000 1.0000
25.0300 905.0000 1.0000
25.0400 933.0000 1.0000
25.0500 958.0000 1.0000
25.0600 949.0000 1.0000
25.0700 952.0000 1.0000
25.0800 955.0000 1.0000
25.0900 1009.0000 1.0000
25.1000 963.0000 1.0000
25.1100 975.0000 1.0000
25.1200 951.0000 1.0000
25.1300 938.0000 1.0000
25.1400 921.0000 1.0000
25.1500 935.0000 1.0000
25.1600 1003.0000 1.0000
25.1700 967.0000 1.0000
25.1800 930.0000 1.0000
25.1900 946.0000 1.0000
25.2000 974.0000 1.0000
25.2100 944.0000 1.0000
25.2200 946.0000 1.0000
25.2300 971.0000 1.0000
25.2400 965.0000 1.0000
25.2500 921.0000 1.0000
25.2600 963.0000 1.0000
25.2700 920.0000 1.0000
25.2800 967.0000 1.0000
25.2900 956.0000 1.0000
25.3000 951.0000 1.0000
25.3100 983.0000 1.0000
25.3200 907.0000 1.0000
25.3300 939.0000 1.0000
25.3400 910.0000 1.0000
25.3500 913.0000 1.0000
25.3600 948.0000 1.0000
25.3700 950.0000 1.0000
25.3800 994.0000 1.0000
25.3900 943.0000 1.0000
25.4000 910.0000 1.0000
25.4100 942.0000 1.0000
25.4200 961.0000 1.0000
25.4300 996.0000 1.0000
25.4400 994.0000 1.0000
25.4500 906.0000 1.0000
25.4600 982.0000 1.0000
25.4700 919.0000 1.0000
25.4800 978.0000 1.0000
25.4900 977.0000 1.0000
25.5000 983.0000 1.0000
25.5100 977.0000 1.0000
25.5200 967.0000 1.0000
25.5300 923.0000 1.0000
25.5400 995.0000 1.0000
25.5500 1025.0000 1.0000
25.5600 959.0000 1.0000
25.5700 918.0000 1.0000
25.5800 948.0000 1.0000
25.5900 977.0000 1.0000
25.6000 985.0000 1.0000
25.6100 974.0000 1.0000
25.6200 964.0000 1.0000
25.6300 992.0000 1.0000
25.6400 997.0000 1.0000
25.6500 997.0000 1.0000
25.6600 996.0000 1.0000
25.6700 989.0000 1.0000
25.6800 963.0000 1.0000
25.6900 979.0000 1.0000
25.7000 978.0000 1.0000
25.7100 978.0000 1.0000
25.7200 976.0000 1.0000
25.7300 977.0000 1.0000
25.7400 965.0000 1.0000
25.7500 978.0000 1.0000
25.7600 930.0000 1.0000
25.7700 956.0000 1.0000
25.7800 959.0000 1.0000
25.7900 987.0000 1.0000
25.8000 1045.0000 1.0000
25.8100 995.0000 1.0000
25.8200 1031.0000 1.0000
25.8300 995.0000 1.0000
25.8400 1050.0000 1.0000
25.8500 1036.0000 1.0000
25.8600 1003.0000 1.0000
25.8700 1015.0000 1.0000
25.8800 1006.0000 1.0000
25.8900 1033.0000 1.0000
25.9000 1057.0000 1.0000
25.9100 1058.0000 1.0000
25.9200 1041.0000 1.0000
25.9300 1082.0000 1.0000
25.9400 1039.0000 1.0000
25.9500 1015.0000 1.0000
25.9600 1027.0000 1.0000
25.9700 1016.0000 1.0000
25.9800 1054.0000 1.0000
25.9900 1055.0000 1.0000
26.0000 1093.0000 1.0000
26.0100 1142.0000 1.0000
26.0200 1131.0000 1.0000
26.0300 1129.0000 1.0000
26.0400 1119.0000 1.0000
26.0500 1180.0000 1.0000
26.0600 1157.0000 1.0000
26.0700 1156.0000 1.0000
26.0800 1136.0000 1.0000
26.0900 1211.0000 1.0000
26.1000 1154.0000 1.0000
26.1100 1163.0000 1.0000
26.1200 1223.0000 1.0000
26.1300 1267.0000 1.0000
26.1400 1229.0000 1.0000
26.1500 1267.0000 1.0000
26.1600 1349.0000 1.0000
26.1700 1345.0000 1.0000
26.1800 1389.0000 1.0000
26.1900 1405.0000 1.0000
26.2000 1371.0000 1.0000
26.2100 1484.0000 1.0000
26.2200 1521.0000 1.0000
26.2300 1591.0000 1.0000
26.2400 1632.0000 1.0000
26.2500 1749.0000 1.0000
26.2600 1725.0000 1.0000
26.2700 1793.0000 1.0000
26.2800 1915.0000 1.0000
26.2900 1919.0000 1.0000
26.3000 2087.0000 1.0000
26.3100 2189.0000 1.0000
26.3200 2324.0000 1.0000
26.3300 2525.0000 1.0000
26.3400 2553.0000 1.0000
26.3500 2755.0000 1.0000
26.3600 2923.0000 1.0000
26.3700 3099.0000 1.0000
26.3800 3227.0000 1.0000
26.3900 3440.0000 1.0000
26.4000 3599.0000 1.0000
26.4100 3740.0000 1.0000
26.4200 3761.0000 1.0000
26.4300 3839.0000 1.0000
26.4400 3905.0000 1.0000
26.4500 3889.0000 1.0000
26.4600 3823.0000 1.0000
26.4700 3713.0000 1.0000
26.4800 3617.0000 1.0000
26.4900 3472.0000 1.0000
26.5000 3270.0000 1.0000
26.5100 3159.0000 1.0000
26.5200 3110.0000 1.0000
26.5300 2799.0000 1.0000
26.5400 2714.0000 1.0000
26.5500 2503.0000 1.0000
26.5600 2389.0000 1.0000
26.5700 2380.0000 1.0000
26.5800 2056.0000 1.0000
26.5900 1970.0000 1.0000
26.6000 1954.0000 1.0000
26.6100 1761.0000 1.0000
26.6200 1775.0000 1.0000
26.6300 1674.0000 1.0000
26.6400 1568.0000 1.0000
26.6500 1577.0000 1.0000
26.6600 1520.0000 1.0000
26.6700 1461.0000 1.0000
26.6800 1416.0000 1.0000
26.6900 1402.0000 1.0000
26.7000 1321.0000 1.0000
26.7100 1247.0000 1.0000
26.7200 1252.0000 1.0000
26.7300 1238.0000 1.0000
26.7400 1254.0000 1.0000
26.7500 1202.0000 1.0000
26.7600 1155.0000 1.0000
26.7700 1201.0000 1.0000
26.7800 1155.0000 1.0000
26.7900 1160.0000 1.0000
26.8000 1124.0000 1.0000
26.8100 1113.0000 1.0000
26.8200 1088.0000 1.0000
26.8300 1037.0000 1.0000
26.8400 1118.0000 1.0000
26.8500 1100.0000 1.0000
26.8600 1069.0000 1.0000
26.8700 1033.0000 1.0000
26.8800 997.0000 1.0000
26.8900 1010.0000 1.0000
26.9000 1068.0000 1.0000
26.9100 1007.0000 1.0000
26.9200 1014.0000 1.0000
26.9300 1060.0000 1.0000
26.9400 1011.0000 1.0000
26.9500 1027.0000 1.0000
26.9600 977.0000 1.0000
26.9700 988.0000 1.0000
26.9800 1043.0000 1.0000
26.9900 1040.0000 1.0000
27.0000 956.0000 1.0000
27.0100 1014.0000 1.0000
27.0200 941.0000 1.0000
27.0300 965.0000 1.0000
27.0400 972.0000 1.0000
27.0500 971.0000 1.0000
27.0600 983.0000 1.0000
27.0700 1000.0000 1.0000
27.0800 990.0000 1.0000
27.0900 950.0000 1.0000
27.1000 927.0000 1.0000
27.1100 925.0000 1.0000
27.1200 984.0000 1.0000
27.1300 972.0000 1.0000
27.1400 934.0000 1.0000
27.1500 954.0000 1.0000
27.1600 940.0000 1.0000
27.1700 940.0000 1.0000
27.1800 927.0000 1.0000
27.1900 943.0000 1.0000
27.2000 964.0000 1.0000
27.2100 896.0000 1.0000
27.2200 888.0000 1.0000
27.2300 906.0000 1.0000
27.2400 945.0000 1.0000
27.2500 867.0000 1.0000
27.2600 920.0000 1.0000
27.2700 941.0000 1.0000
27.2800 955.0000 1.0000
27.2900 903.0000 1.0000
27.3000 922.0000 1.0000
27.3100 992.0000 1.0000
27.3200 914.0000 1.0000
27.3300 889.0000 1.0000
27.3400 909.0000 1.0000
27.3500 899.0000 1.0000
27.3600 916.0000 1.0000
27.3700 989.0000 1.0000
27.3800 899.0000 1.0000
27.3900 845.0000 1.0000
27.4000 894.0000 1.0000
27.4100 903.0000 1.0000
27.4200 884.0000 1.0000
27.4300 891.0000 1.0000
27.4400 900.0000 1.0000
27.4500 908.0000 1.0000
27.4600 912.0000 1.0000
27.4700 916.0000 1.0000
27.4800 917.0000 1.0000
27.4900 883.0000 1.0000
27.5000 838.0000 1.0000
27.5100 920.0000 1.0000
27.5200 937.0000 1.0000
27.5300 899.0000 1.0000
27.5400 879.0000 1.0000
27.5500 916.0000 1.0000
27.5600 931.0000 1.0000
27.5700 919.0000 1.0000
27.5800 901.0000 1.0000
27.5900 905.0000 1.0000
27.6000 921.0000 1.0000
27.6100 972.0000 1.0000
27.6200 887.0000 1.0000
27.6300 902.0000 1.0000
27.6400 890.0000 1.0000
27.6500 878.0000 1.0000
27.6600 871.0000 1.0000
27.6700 892.0000 1.0000
27.6800 859.0000 1.0000
27.6900 897.0000 1.0000
27.7000 842.0000 1.0000
27.7100 878.0000 1.0000
27.7200 848.0000 1.0000
27.7300 900.0000 1.0000
27.7400 898.0000 1.0000
27.7500 894.0000 1.0000
27.7600 836.0000 1.0000
27.7700 898.0000 1.0000
27.7800 889.0000 1.0000
27.7900 888.0000 1.0000
27.8000 863.0000 1.0000
27.8100 869.0000 1.0000
27.8200 848.0000 1.0000
27.8300 883.0000 1.0000
27.8400 856.0000 1.0000
27.8500 885.0000 1.0000
27.8600 892.0000 1.0000
27.8700 921.0000 1.0000
27.8800 892.0000 1.0000
27.8900 846.0000 1.0000
27.9000 891.0000 1.0000
27.9100 896.0000 1.0000
27.9200 910.0000 1.0000
27.9300 881.0000 1.0000
27.9400 906.0000 1.0000
27.9500 904.0000 1.0000
27.9600 901.0000 1.0000
27.9700 884.0000 1.0000
27.9800 865.0000 1.0000
27.9900 889.0000 1.0000
28.0000 843.0000 1.0000
28.0100 867.0000 1.0000
28.0200 847.0000 1.0000
28.0300 861.0000 1.0000
28.0400 865.0000 1.0000
28.0500 857.0000 1.0000
28.0600 898.0000 1.0000
28.0700 865.0000 1.0000
28.0800 824.0000 1.0000
28.0900 845.0000 1.0000
28.1000 850.0000 1.0000
28.1100 806.0000 1.0000
28.1200 877.0000 1.0000
28.1300 886.0000 1.0000
28.1400 886.0000 1.0000
28.1500 817.0000 1.0000
28.1600 843.0000 1.0000
28.1700 860.0000 1.0000
28.1800 853.0000 1.0000
28.1900 828.0000 1.0000
28.2000 865.0000 1.0000
28.2100 835.0000 1.0000
28.2200 864.0000 1.0000
28.2300 859.0000 1.0000
28.2400 853.0000 1.0000
28.2500 923.0000 1.0000
28.2600 897.0000 1.0000
28.2700 912.0000 1.0000
28.2800 857.0000 1.0000
28.2900 890.0000 1.0000
28.3000 826.0000 1.0000
28.3100 894.0000 1.0000
28.3200 876.0000 1.0000
28.3300 892.0000 1.0000
28.3400 885.0000 1.0000
28.3500 910.0000 1.0000
28.3600 945.0000 1.0000
28.3700 904.0000 1.0000
28.3800 871.0000 1.0000
28.3900 877.0000 1.0000
28.4000 893.0000 1.0000
28.4100 884.0000 1.0000
28.4200 829.0000 1.0000
28.4300 847.0000 1.0000
28.4400 862.0000 1.0000
28.4500 893.0000 1.0000
28.4600 872.0000 1.0000
28.4700 842.0000 1.0000
28.4800 889.0000 1.0000
28.4900 866.0000 1.0000
28.5000 812.0000 1.0000
28.5100 860.0000 1.0000
28.5200 858.0000 1.0000
28.5300 839.0000 1.0000
28.5400 898.0000 1.0000
28.5500 849.0000 1.0000
28.5600 886.0000 1.0000
28.5700 875.0000 1.0000
28.5800 825.0000 1.0000
28.5900 911.0000 1.0000
28.6000 834.0000 1.0000
28.6100 851.0000 1.0000
28.6200 892.0000 1.0000
28.6300 854.0000 1.0000
28.6400 881.0000 1.0000
28.6500 881.0000 1.0000
28.6600 837.0000 1.0000
28.6700 854.0000 1.0000
28.6800 902.0000 1.0000
28.6900 840.0000 1.0000
28.7000 882.0000 1.0000
28.7100 861.0000 1.0000
28.7200 827.0000 1.0000
28.7300 841.0000 1.0000
28.7400 836.0000 1.0000
28.7500 847.0000 1.0000
28.7600 851.0000 1.0000
28.7700 904.0000 1.0000
28.7800 842.0000 1.0000
28.7900 822.0000 1.0000
28.8000 841.0000 1.0000
28.8100 887.0000 1.0000
28.8200 884.0000 1.0000
28.8300 869.0000 1.0000
28.8400 826.0000 1.0000
28.8500 850.0000 1.0000
28.8600 833.0000 1.0000
28.8700 850.0000 1.0000
28.8800 822.0000 1.0000
28.8900 842.0000 1.0000
28.9000 865.0000 1.0000
28.9100 857.0000 1.0000
28.9200 855.0000 1.0000
28.9300 861.0000 1.0000
28.9400 887.0000 1.0000
28.9500 846.0000 1.0000
28.9600 860.0000 1.0000
28.9700 858.0000 1.0000
28.9800 901.0000 1.0000
28.9900 820.0000 1.0000
29.0000 824.0000 1.0000
29.0100 853.0000 1.0000
29.0200 884.0000 1.0000
29.0300 894.0000 1.0000
29.0400 843.0000 1.0000
29.0500 840.0000 1.0000
29.0600 833.0000 1.0000
29.0700 830.0000 1.0000
29.0800 888.0000 1.0000
29.0900 840.0000 1.0000
29.1000 849.0000 1.0000
29.1100 865.0000 1.0000
29.1200 889.0000 1.0000
29.1300 886.0000 1.0000
29.1400 851.0000 1.0000
29.1500 886.0000 1.0000
29.1600 856.0000 1.0000
29.1700 858.0000 1.0000
29.1800 842.0000 1.0000
29.1900 801.0000 1.0000
29.2000 844.0000 1.0000
29.2100 885.0000 1.0000
29.2200 824.0000 1.0000
29.2300 815.0000 1.0000
29.2400 844.0000 1.0000
29.2500 846.0000 1.0000
29.2600 831.0000 1.0000
29.2700 840.0000 1.0000
29.2800 902.0000 1.0000
29.2900 832.0000 1.0000
29.3000 843.0000 1.0000
29.3100 869.0000 1.0000
29.3200 855.0000 1.0000
29.3300 802.0000 1.0000
29.3400 845.0000 1.0000
29.3500 904.0000 1.0000
29.3600 907.0000 1.0000
29.3700 839.0000 1.0000
29.3800 833.0000 1.0000
29.3900 793.0000 1.0000
29.4000 804.0000 1.0000
29.4100 810.0000 1.0000
29.4200 834.0000 1.0000
29.4300 814.0000 1.0000
29.4400 827.0000 1.0000
29.4500 822.0000 1.0000
29.4600 806.0000 1.0000
29.4700 832.0000 1.0000
29.4800 862.0000 1.0000
29.4900 837.0000 1.0000
29.5000 848.0000 1.0000
29.5100 826.0000 1.0000
29.5200 858.0000 1.0000
29.5300 857.0000 1.0000
29.5400 835.0000 1.0000
29.5500 832.0000 1.0000
29.5600 846.0000 1.0000
29.5700 811.0000 1.0000
29.5800 820.0000 1.0000
29.5900 830.0000 1.0000
29.6000 837.0000 1.0000
29.6100 769.0000 1.0000
29.6200 802.0000 1.0000
29.6300 837.0000 1.0000
29.6400 869.0000 1.0000
29.6500 868.0000 1.0000
29.6600 844.0000 1.0000
29.6700 859.0000 1.0000
29.6800 817.0000 1.0000
29.6900 833.0000 1.0000
29.7000 796.0000 1.0000
29.7100 837.0000 1.0000
29.7200 879.0000 1.0000
29.7300 856.0000 1.0000
29.7400 834.0000 1.0000
29.7500 840.0000 1.0000
29.7600 868.0000 1.0000
29.7700 839.0000 1.0000
29.7800 872.0000 1.0000
29.7900 868.0000 1.0000
29.8000 867.0000 1.0000
29.8100 890.0000 1.0000
29.8200 838.0000 1.0000
29.8300 779.0000 1.0000
29.8400 848.0000 1.0000
29.8500 876.0000 1.0000
29.8600 837.0000 1.0000
29.8700 833.0000 1.0000
29.8800 860.0000 1.0000
29.8900 844.0000 1.0000
29.9000 813.0000 1.0000
29.9100 849.0000 1.0000
29.9200 859.0000 1.0000
29.9300 828.0000 1.0000
29.9400 876.0000 1.0000
29.9500 790.0000 1.0000
29.9600 846.0000 1.0000
29.9700 842.0000 1.0000
29.9800 815.0000 1.0000
29.9900 847.0000 1.0000
30.0000 810.0000 1.0000
30.0100 861.0000 1.0000
30.0200 830.0000 1.0000
30.0300 825.0000 1.0000
30.0400 883.0000 1.0000
30.0500 818.0000 1.0000
30.0600 861.0000 1.0000
30.0700 794.0000 1.0000
30.0800 844.0000 1.0000
30.0900 804.0000 1.0000
30.1000 837.0000 1.0000
30.1100 832.0000 1.0000
30.1200 802.0000 1.0000
30.1300 831.0000 1.0000
30.1400 794.0000 1.0000
30.1500 830.0000 1.0000
30.1600 824.0000 1.0000
30.1700 824.0000 1.0000
30.1800 784.0000 1.0000
30.1900 808.0000 1.0000
30.2000 848.0000 1.0000
30.2100 823.0000 1.0000
30.2200 855.0000 1.0000
30.2300 828.0000 1.0000
30.2400 785.0000 1.0000
30.2500 833.0000 1.0000
30.2600 837.0000 1.0000
30.2700 821.0000 1.0000
30.2800 865.0000 1.0000
30.2900 844.0000 1.0000
30.3000 860.0000 1.0000
30.3100 812.0000 1.0000
30.3200 823.0000 1.0000
30.3300 842.0000 1.0000
30.3400 809.0000 1.0000
30.3500 787.0000 1.0000
30.3600 804.0000 1.0000
30.3700 823.0000 1.0000
30.3800 873.0000 1.0000
30.3900 908.0000 1.0000
30.4000 847.0000 1.0000
30.4100 762.0000 1.0000
30.4200 823.0000 1.0000
30.4300 815.0000 1.0000
30.4400 816.0000 1.0000
30.4500 834.0000 1.0000
30.4600 841.0000 1.0000
30.4700 823.0000 1.0000
30.4800 829.0000 1.0000
30.4900 809.0000 1.0000
30.5000 830.0000 1.0000
30.5100 844.0000 1.0000
30.5200 802.0000 1.0000
30.5300 870.0000 1.0000
30.5400 825.0000 1.0000
30.5500 854.0000 1.0000
30.5600 859.0000 1.0000
30.5700 785.0000 1.0000
30.5800 800.0000 1.0000
30.5900 821.0000 1.0000
30.6000 830.0000 1.0000
30.6100 785.0000 1.0000
30.6200 795.0000 1.0000
30.6300 836.0000 1.0000
30.6400 803.0000 1.0000
30.6500 796.0000 1.0000
30.6600 810.0000 1.0000
30.6700 781.0000 1.0000
30.6800 764.0000 1.0000
30.6900 778.0000 1.0000
30.7000 785.0000 1.0000
30.7100 814.0000 1.0000
30.7200 798.0000 1.0000
30.7300 840.0000 1.0000
30.7400 802.0000 1.0000
30.7500 796.0000 1.0000
30.7600 829.0000 1.0000
30.7700 832.0000 1.0000
30.7800 789.0000 1.0000
30.7900 762.0000 1.0000
30.8000 786.0000 1.0000
30.8100 751.0000 1.0000
30.8200 793.0000 1.0000
30.8300 783.0000 1.0000
30.8400 782.0000 1.0000
30.8500 775.0000 1.0000
30.8600 843.0000 1.0000
30.8700 809.0000 1.0000
30.8800 740.0000 1.0000
30.8900 765.0000 1.0000
30.9000 761.0000 1.0000
30.9100 817.0000 1.0000
30.9200 805.0000 1.0000
30.9300 802.0000 1.0000
30.9400 805.0000 1.0000
30.9500 788.0000 1.0000
30.9600 783.0000 1.0000
30.9700 810.0000 1.0000
30.9800 815.0000 1.0000
30.9900 795.0000 1.0000
31.0000 823.0000 1.0000
31.0100 776.0000 1.0000
31.0200 792.0000 1.0000
31.0300 770.0000 1.0000
31.0400 768.0000 1.0000
31.0500 779.0000 1.0000
31.0600 781.0000 1.0000
31.0700 817.0000 1.0000
31.0800 831.0000 1.0000
31.0900 848.0000 1.0000
31.1000 787.0000 1.0000
31.1100 805.0000 1.0000
31.1200 755.0000 1.0000
31.1300 807.0000 1.0000
31.1400 844.0000 1.0000
31.1500 807.0000 1.0000
31.1600 793.0000 1.0000
31.1700 755.0000 1.0000
31.1800 811.0000 1.0000
31.1900 786.0000 1.0000
31.2000 815.0000 1.0000
31.2100 813.0000 1.0000
31.2200 784.0000 1.0000
31.2300 814.0000 1.0000
31.2400 797.0000 1.0000
31.2500 810.0000 1.0000
31.2600 811.0000 1.0000
31.2700 819.0000 1.0000
31.2800 812.0000 1.0000
31.2900 755.0000 1.0000
31.3000 819.0000 1.0000
31.3100 785.0000 1.0000
31.3200 801.0000 1.0000
31.3300 790.0000 1.0000
31.3400 816.0000 1.0000
31.3500 741.0000 1.0000
31.3600 762.0000 1.0000
31.3700 753.0000 1.0000
31.3800 793.0000 1.0000
31.3900 761.0000 1.0000
31.4000 782.0000 1.0000
31.4100 806.0000 1.0000
31.4200 812.0000 1.0000
31.4300 790.0000 1.0000
31.4400 772.0000 1.0000
31.4500 754.0000 1.0000
31.4600 713.0000 1.0000
31.4700 799.0000 1.0000
31.4800 779.0000 1.0000
31.4900 800.0000 1.0000
31.5000 746.0000 1.0000
31.5100 802.0000 1.0000
31.5200 820.0000 1.0000
31.5300 857.0000 1.0000
31.5400 813.0000 1.0000
31.5500 779.0000 1.0000
31.5600 795.0000 1.0000
31.5700 805.0000 1.0000
31.5800 777.0000 1.0000
31.5900 762.0000 1.0000
31.6000 754.0000 1.0000
31.6100 774.0000 1.0000
31.6200 726.0000 1.0000
31.6300 776.0000 1.0000
31.6400 786.0000 1.0000
31.6500 755.0000 1.0000
31.6600 753.0000 1.0000
31.6700 749.0000 1.0000
31.6800 781.0000 1.0000
31.6900 727.0000 1.0000
31.7000 788.0000 1.0000
31.7100 825.0000 1.0000
31.7200 802.0000 1.0000
31.7300 742.0000 1.0000
31.7400 784.0000 1.0000
31.7500 760.0000 1.0000
31.7600 722.0000 1.0000
31.7700 786.0000 1.0000
31.7800 789.0000 1.0000
31.7900 790.0000 1.0000
31.8000 781.0000 1.0000
31.8100 801.0000 1.0000
31.8200 760.0000 1.0000
31.8300 770.0000 1.0000
31.8400 732.0000 1.0000
31.8500 787.0000 1.0000
31.8600 754.0000 1.0000
31.8700 780.0000 1.0000
31.8800 792.0000 1.0000
31.8900 735.0000 1.0000
31.9000 741.0000 1.0000
31.9100 754.0000 1.0000
31.9200 777.0000 1.0000
31.9300 771.0000 1.0000
31.9400 785.0000 1.0000
31.9500 771.0000 1.0000
31.9600 704.0000 1.0000
31.9700 773.0000 1.0000
31.9800 762.0000 1.0000
31.9900 761.0000 1.0000
32.0000 778.0000 1.0000
32.0100 762.0000 1.0000
32.0200 763.0000 1.0000
32.0300 745.0000 1.0000
32.0400 763.0000 1.0000
32.0500 745.0000 1.0000
32.0600 763.0000 1.0000
32.0700 776.0000 1.0000
32.0800 792.0000 1.0000
32.0900 834.0000 1.0000
32.1000 769.0000 1.0000
32.1100 752.0000 1.0000
32.1200 776.0000 1.0000
32.1300 743.0000 1.0000
32.1400 761.0000 1.0000
32.1500 764.0000 1.0000
32.1600 708.0000 1.0000
32.1700 757.0000 1.0000
32.1800 790.0000 1.0000
32.1900 757.0000 1.0000
32.2000 740.0000 1.0000
32.2100 763.0000 1.0000
32.2200 753.0000 1.0000
32.2300 766.0000 1.0000
32.2400 752.0000 1.0000
32.2500 737.0000 1.0000
32.2600 762.0000 1.0000
32.2700 746.0000 1.0000
32.2800 753.0000 1.0000
32.2900 799.0000 1.0000
32.3000 774.0000 1.0000
32.3100 743.0000 1.0000
32.3200 721.0000 1.0000
32.3300 775.0000 1.0000
32.3400 781.0000 1.0000
32.3500 783.0000 1.0000
32.3600 741.0000 1.0000
32.3700 783.0000 1.0000
32.3800 712.0000 1.0000
32.3900 753.0000 1.0000
32.4000 718.0000 1.0000
32.4100 705.0000 1.0000
32.4200 724.0000 1.0000
32.4300 706.0000 1.0000
32.4400 753.0000 1.0000
32.4500 763.0000 1.0000
32.4600 717.0000 1.0000
32.4700 737.0000 1.0000
32.4800 713.0000 1.0000
32.4900 749.0000 1.0000
32.5000 752.0000 1.0000
32.5100 721.0000 1.0000
32.5200 734.0000 1.0000
32.5300 780.0000 1.0000
32.5400 758.0000 1.0000
32.5500 710.0000 1.0000
32.5600 747.0000 1.0000
32.5700 751.0000 1.0000
32.5800 776.0000 1.0000
32.5900 730.0000 1.0000
32.6000 805.0000 1.0000
32.6100 761.0000 1.0000
32.6200 793.0000 1.0000
32.6300 753.0000 1.0000
32.6400 730.0000 1.0000
32.6500 763.0000 1.0000
32.6600 736.0000 1.0000
32.6700 754.0000 1.0000
32.6800 780.0000 1.0000
32.6900 781.0000 1.0000
32.7000 800.0000 1.0000
32.7100 727.0000 1.0000
32.7200 711.0000 1.0000
32.7300 806.0000 1.0000
32.7400 784.0000 1.0000
32.7500 781.0000 1.0000
32.7600 790.0000 1.0000
32.7700 725.0000 1.0000
32.7800 740.0000 1.0000
32.7900 720.0000 1.0000
32.8000 749.0000 1.0000
32.8100 750.0000 1.0000
32.8200 761.0000 1.0000
32.8300 755.0000 1.0000
32.8400 775.0000 1.0000
32.8500 804.0000 1.0000
32.8600 764.0000 1.0000
32.8700 821.0000 1.0000
32.8800 807.0000 1.0000
32.8900 824.0000 1.0000
32.9000 808.0000 1.0000
32.9100 889.0000 1.0000
32.9200 855.0000 1.0000
32.9300 808.0000 1.0000
32.9400 807.0000 1.0000
32.9500 866.0000 1.0000
32.9600 871.0000 1.0000
32.9700 894.0000 1.0000
32.9800 891.0000 1.0000
32.9900 902.0000 1.0000
33.0000 974.0000 1.0000
33.0100 946.0000 1.0000
33.0200 940.0000 1.0000
33.0300 1025.0000 1.0000
33.0400 1056.0000 1.0000
33.0500 993.0000 1.0000
33.0600 1055.0000 1.0000
33.0700 1103.0000 1.0000
33.0800 1057.0000 1.0000
33.0900 1034.0000 1.0000
33.1000 1013.0000 1.0000
33.1100 1090.0000 1.0000
33.1200 1031.0000 1.0000
33.1300 1073.0000 1.0000
33.1400 1063.0000 1.0000
33.1500 1095.0000 1.0000
33.1600 1038.0000 1.0000
33.1700 969.0000 1.0000
33.1800 984.0000 1.0000
33.1900 927.0000 1.0000
33.2000 1001.0000 1.0000
33.2100 899.0000 1.0000
33.2200 924.0000 1.0000
33.2300 959.0000 1.0000
33.2400 904.0000 1.0000
33.2500 911.0000 1.0000
33.2600 927.0000 1.0000
33.2700 866.0000 1.0000
33.2800 847.0000 1.0000
33.2900 864.0000 1.0000
33.3000 878.0000 1.0000
33.3100 865.0000 1.0000
33.3200 882.0000 1.0000
33.3300 861.0000 1.0000
33.3400 886.0000 1.0000
33.3500 960.0000 1.0000
33.3600 888.0000 1.0000
33.3700 928.0000 1.0000
33.3800 943.0000 1.0000
33.3900 950.0000 1.0000
33.4000 992.0000 1.0000
33.4100 975.0000 1.0000
33.4200 1015.0000 1.0000
33.4300 1025.0000 1.0000
33.4400 981.0000 1.0000
33.4500 950.0000 1.0000
33.4600 1054.0000 1.0000
33.4700 1057.0000 1.0000
33.4800 1127.0000 1.0000
33.4900 1173.0000 1.0000
33.5000 1160.0000 1.0000
33.5100 1207.0000 1.0000
33.5200 1307.0000 1.0000
33.5300 1372.0000 1.0000
33.5400 1399.0000 1.0000
33.5500 1465.0000 1.0000
33.5600 1634.0000 1.0000
33.5700 1592.0000 1.0000
33.5800 1658.0000 1.0000
33.5900 1735.0000 1.0000
33.6000 1833.0000 1.0000
33.6100 1905.0000 1.0000
33.6200 1896.0000 1.0000
33.6300 1956.0000 1.0000
33.6400 1932.0000 1.0000
33.6500 1987.0000 1.0000
33.6600 1947.0000 1.0000
33.6700 1894.0000 1.0000
33.6800 1899.0000 1.0000
33.6900 1847.0000 1.0000
33.7000 1822.0000 1.0000
33.7100 1722.0000 1.0000
33.7200 1701.0000 1.0000
33.7300 1730.0000 1.0000
33.7400 1618.0000 1.0000
33.7500 1513.0000 1.0000
33.7600 1542.0000 1.0000
33.7700 1410.0000 1.0000
33.7800 1367.0000 1.0000
33.7900 1351.0000 1.0000
33.8000 1251.0000 1.0000
33.8100 1200.0000 1.0000
33.8200 1164.0000 1.0000
33.8300 1113.0000 1.0000
33.8400 1085.0000 1.0000
33.8500 1072.0000 1.0000
33.8600 1006.0000 1.0000
33.8700 978.0000 1.0000
33.8800 984.0000 1.0000
33.8900 974.0000 1.0000
33.9000 925.0000 1.0000
33.9100 977.0000 1.0000
33.9200 905.0000 1.0000
33.9300 901.0000 1.0000
33.9400 886.0000 1.0000
33.9500 823.0000 1.0000
33.9600 865.0000 1.0000
33.9700 813.0000 1.0000
33.9800 853.0000 1.0000
33.9900 842.0000 1.0000
34.0000 799.0000 1.0000
34.0100 835.0000 1.0000
34.0200 827.0000 1.0000
34.0300 779.0000 1.0000
34.0400 819.0000 1.0000
34.0500 763.0000 1.0000
34.0600 735.0000 1.0000
34.0700 780.0000 1.0000
34.0800 781.0000 1.0000
34.0900 789.0000 1.0000
34.1000 772.0000 1.0000
34.1100 798.0000 1.0000
34.1200 793.0000 1.0000
34.1300 740.0000 1.0000
34.1400 754.0000 1.0000
34.1500 749.0000 1.0000
34.1600 772.0000 1.0000
34.1700 781.0000 1.0000
34.1800 729.0000 1.0000
34.1900 723.0000 1.0000
34.2000 685.0000 1.0000
34.2100 703.0000 1.0000
34.2200 723.0000 1.0000
34.2300 705.0000 1.0000
34.2400 758.0000 1.0000
34.2500 734.0000 1.0000
34.2600 698.0000 1.0000
34.2700 696.0000 1.0000
34.2800 733.0000 1.0000
34.2900 690.0000 1.0000
34.3000 743.0000 1.0000
34.3100 733.0000 1.0000
34.3200 697.0000 1.0000
34.3300 683.0000 1.0000
34.3400 680.0000 1.0000
34.3500 726.0000 1.0000
34.3600 724.0000 1.0000
34.3700 698.0000 1.0000
34.3800 706.0000 1.0000
34.3900 719.0000 1.0000
34.4000 693.0000 1.0000
34.4100 677.0000 1.0000
34.4200 687.0000 1.0000
34.4300 670.0000 1.0000
34.4400 685.0000 1.0000
34.4500 696.0000 1.0000
34.4600 680.0000 1.0000
34.4700 676.0000 1.0000
34.4800 664.0000 1.0000
34.4900 678.0000 1.0000
34.5000 683.0000 1.0000
34.5100 724.0000 1.0000
34.5200 664.0000 1.0000
34.5300 661.0000 1.0000
34.5400 684.0000 1.0000
34.5500 681.0000 1.0000
34.5600 665.0000 1.0000
34.5700 624.0000 1.0000
34.5800 694.0000 1.0000
34.5900 666.0000 1.0000
34.6000 697.0000 1.0000
34.6100 675.0000 1.0000
34.6200 688.0000 1.0000
34.6300 623.0000 1.0000
34.6400 672.0000 1.0000
34.6500 659.0000 1.0000
34.6600 656.0000 1.0000
34.6700 651.0000 1.0000
34.6800 690.0000 1.0000
34.6900 676.0000 1.0000
34.7000 684.0000 1.0000
34.7100 671.0000 1.0000
34.7200 662.0000 1.0000
34.7300 659.0000 1.0000
34.7400 712.0000 1.0000
34.7500 681.0000 1.0000
34.7600 639.0000 1.0000
34.7700 641.0000 1.0000
34.7800 624.0000 1.0000
34.7900 672.0000 1.0000
34.8000 680.0000 1.0000
34.8100 681.0000 1.0000
34.8200 654.0000 1.0000
34.8300 666.0000 1.0000
34.8400 642.0000 1.0000
34.8500 681.0000 1.0000
34.8600 654.0000 1.0000
34.8700 630.0000 1.0000
34.8800 655.0000 1.0000
34.8900 640.0000 1.0000
34.9000 632.0000 1.0000
34.9100 636.0000 1.0000
34.9200 683.0000 1.0000
34.9300 614.0000 1.0000
34.9400 650.0000 1.0000
34.9500 663.0000 1.0000
34.9600 661.0000 1.0000
34.9700 677.0000 1.0000
34.9800 683.0000 1.0000
34.9900 643.0000 1.0000
35.0000 688.0000 1.0000
35.0100 685.0000 1.0000
35.0200 670.0000 1.0000
35.0300 708.0000 1.0000
35.0400 676.0000 1.0000
35.0500 636.0000 1.0000
35.0600 623.0000 1.0000
35.0700 664.0000 1.0000
35.0800 650.0000 1.0000
35.0900 650.0000 1.0000
35.1000 614.0000 1.0000
35.1100 671.0000 1.0000
35.1200 669.0000 1.0000
35.1300 626.0000 1.0000
35.1400 642.0000 1.0000
35.1500 676.0000 1.0000
35.1600 615.0000 1.0000
35.1700 652.0000 1.0000
35.1800 656.0000 1.0000
35.1900 666.0000 1.0000
35.2000 631.0000 1.0000
35.2100 675.0000 1.0000
35.2200 681.0000 1.0000
35.2300 658.0000 1.0000
35.2400 685.0000 1.0000
35.2500 692.0000 1.0000
35.2600 662.0000 1.0000
35.2700 667.0000 1.0000
35.2800 629.0000 1.0000
35.2900 644.0000 1.0000
35.3000 649.0000 1.0000
35.3100 666.0000 1.0000
35.3200 705.0000 1.0000
35.3300 674.0000 1.0000
35.3400 706.0000 1.0000
35.3500 692.0000 1.0000
35.3600 739.0000 1.0000
35.3700 683.0000 1.0000
35.3800 719.0000 1.0000
35.3900 692.0000 1.0000
35.4000 674.0000 1.0000
35.4100 752.0000 1.0000
35.4200 770.0000 1.0000
35.4300 773.0000 1.0000
35.4400 767.0000 1.0000
35.4500 813.0000 1.0000
35.4600 807.0000 1.0000
35.4700 821.0000 1.0000
35.4800 840.0000 1.0000
35.4900 874.0000 1.0000
35.5000 885.0000 1.0000
35.5100 912.0000 1.0000
35.5200 950.0000 1.0000
35.5300 964.0000 1.0000
35.5400 1043.0000 1.0000
35.5500 1021.0000 1.0000
35.5600 1057.0000 1.0000
35.5700 1050.0000 1.0000
35.5800 1063.0000 1.0000
35.5900 1096.0000 1.0000
35.6000 1022.0000 1.0000
35.6100 1043.0000 1.0000
35.6200 932.0000 1.0000
35.6300 1008.0000 1.0000
35.6400 925.0000 1.0000
35.6500 904.0000 1.0000
35.6600 938.0000 1.0000
35.6700 919.0000 1.0000
35.6800 862.0000 1.0000
35.6900 833.0000 1.0000
35.7000 797.0000 1.0000
35.7100 735.0000 1.0000
35.7200 750.0000 1.0000
35.7300 748.0000 1.0000
35.7400 726.0000 1.0000
35.7500 720.0000 1.0000
35.7600 721.0000 1.0000
35.7700 671.0000 1.0000
35.7800 723.0000 1.0000
35.7900 699.0000 1.0000
35.8000 694.0000 1.0000
35.8100 628.0000 1.0000
35.8200 627.0000 1.0000
35.8300 651.0000 1.0000
35.8400 658.0000 1.0000
35.8500 657.0000 1.0000
35.8600 614.0000 1.0000
35.8700 611.0000 1.0000
35.8800 610.0000 1.0000
35.8900 673.0000 1.0000
35.9000 633.0000 1.0000
35.9100 616.0000 1.0000
35.9200 611.0000 1.0000
35.9300 618.0000 1.0000
35.9400 602.0000 1.0000
35.9500 576.0000 1.0000
35.9600 588.0000 1.0000
35.9700 653.0000 1.0000
35.9800 604.0000 1.0000
35.9900 588.0000 1.0000
36.0000 592.0000 1.0000
36.0100 597.0000 1.0000
36.0200 566.0000 1.0000
36.0300 662.0000 1.0000
36.0400 627.0000 1.0000
36.0500 612.0000 1.0000
36.0600 632.0000 1.0000
36.0700 573.0000 1.0000
36.0800 595.0000 1.0000
36.0900 609.0000 1.0000
36.1000 579.0000 1.0000
36.1100 611.0000 1.0000
36.1200 594.0000 1.0000
36.1300 612.0000 1.0000
36.1400 618.0000 1.0000
36.1500 594.0000 1.0000
36.1600 621.0000 1.0000
36.1700 627.0000 1.0000
36.1800 585.0000 1.0000
36.1900 622.0000 1.0000
36.2000 579.0000 1.0000
36.2100 611.0000 1.0000
36.2200 624.0000 1.0000
36.2300 589.0000 1.0000
36.2400 621.0000 1.0000
36.2500 622.0000 1.0000
36.2600 644.0000 1.0000
36.2700 626.0000 1.0000
36.2800 608.0000 1.0000
36.2900 556.0000 1.0000
36.3000 612.0000 1.0000
36.3100 580.0000 1.0000
36.3200 635.0000 1.0000
36.3300 643.0000 1.0000
36.3400 578.0000 1.0000
36.3500 585.0000 1.0000
36.3600 668.0000 1.0000
36.3700 616.0000 1.0000
36.3800 605.0000 1.0000
36.3900 589.0000 1.0000
36.4000 593.0000 1.0000
36.4100 593.0000 1.0000
36.4200 596.0000 1.0000
36.4300 575.0000 1.0000
36.4400 609.0000 1.0000
36.4500 624.0000 1.0000
36.4600 611.0000 1.0000
36.4700 628.0000 1.0000
36.4800 623.0000 1.0000
36.4900 562.0000 1.0000
36.5000 602.0000 1.0000
36.5100 603.0000 1.0000
36.5200 600.0000 1.0000
36.5300 619.0000 1.0000
36.5400 602.0000 1.0000
36.5500 617.0000 1.0000
36.5600 610.0000 1.0000
36.5700 590.0000 1.0000
36.5800 583.0000 1.0000
36.5900 605.0000 1.0000
36.6000 577.0000 1.0000
36.6100 591.0000 1.0000
36.6200 605.0000 1.0000
36.6300 605.0000 1.0000
36.6400 586.0000 1.0000
36.6500 609.0000 1.0000
36.6600 605.0000 1.0000
36.6700 588.0000 1.0000
36.6800 597.0000 1.0000
36.6900 625.0000 1.0000
36.7000 577.0000 1.0000
36.7100 608.0000 1.0000
36.7200 654.0000 1.0000
36.7300 638.0000 1.0000
36.7400 617.0000 1.0000
36.7500 566.0000 1.0000
36.7600 589.0000 1.0000
36.7700 581.0000 1.0000
36.7800 557.0000 1.0000
36.7900 585.0000 1.0000
36.8000 582.0000 1.0000
36.8100 589.0000 1.0000
36.8200 621.0000 1.0000
36.8300 588.0000 1.0000
36.8400 609.0000 1.0000
36.8500 599.0000 1.0000
36.8600 617.0000 1.0000
36.8700 609.0000 1.0000
36.8800 576.0000 1.0000
36.8900 607.0000 1.0000
36.9000 627.0000 1.0000
36.9100 589.0000 1.0000
36.9200 638.0000 1.0000
36.9300 592.0000 1.0000
36.9400 584.0000 1.0000
36.9500 614.0000 1.0000
36.9600 590.0000 1.0000
36.9700 599.0000 1.0000
36.9800 559.0000 1.0000
36.9900 602.0000 1.0000
37.0000 638.0000 1.0000
37.0100 581.0000 1.0000
37.0200 638.0000 1.0000
37.0300 627.0000 1.0000
37.0400 659.0000 1.0000
37.0500 597.0000 1.0000
37.0600 595.0000 1.0000
37.0700 592.0000 1.0000
37.0800 615.0000 1.0000
37.0900 617.0000 1.0000
37.1000 634.0000 1.0000
37.1100 617.0000 1.0000
37.1200 639.0000 1.0000
37.1300 587.0000 1.0000
37.1400 607.0000 1.0000
37.1500 601.0000 1.0000
37.1600 607.0000 1.0000
37.1700 610.0000 1.0000
37.1800 633.0000 1.0000
37.1900 604.0000 1.0000
37.2000 649.0000 1.0000
37.2100 648.0000 1.0000
37.2200 650.0000 1.0000
37.2300 657.0000 1.0000
37.2400 659.0000 1.0000
37.2500 678.0000 1.0000
37.2600 684.0000 1.0000
37.2700 700.0000 1.0000
37.2800 711.0000 1.0000
37.2900 716.0000 1.0000
37.3000 724.0000 1.0000
37.3100 720.0000 1.0000
37.3200 686.0000 1.0000
37.3300 717.0000 1.0000
37.3400 747.0000 1.0000
37.3500 720.0000 1.0000
37.3600 757.0000 1.0000
37.3700 780.0000 1.0000
37.3800 788.0000 1.0000
37.3900 807.0000 1.0000
37.4000 866.0000 1.0000
37.4100 879.0000 1.0000
37.4200 940.0000 1.0000
37.4300 936.0000 1.0000
37.4400 924.0000 1.0000
37.4500 1012.0000 1.0000
37.4600 1068.0000 1.0000
37.4700 1114.0000 1.0000
37.4800 1136.0000 1.0000
37.4900 1130.0000 1.0000
37.5000 1245.0000 1.0000
37.5100 1298.0000 1.0000
37.5200 1319.0000 1.0000
37.5300 1441.0000 1.0000
37.5400 1560.0000 1.0000
37.5500 1643.0000 1.0000
37.5600 1763.0000 1.0000
37.5700 1852.0000 1.0000
37.5800 1983.0000 1.0000
37.5900 2106.0000 1.0000
37.6000 2328.0000 1.0000
37.6100 2523.0000 1.0000
37.6200 2654.0000 1.0000
37.6300 2765.0000 1.0000
37.6400 2953.0000 1.0000
37.6500 2994.0000 1.0000
37.6600 3166.0000 1.0000
37.6700 3217.0000 1.0000
37.6800 3298.0000 1.0000
37.6900 3211.0000 1.0000
37.7000 3285.0000 1.0000
37.7100 3312.0000 1.0000
37.7200 3226.0000 1.0000
37.7300 3248.0000 1.0000
37.7400 3173.0000 1.0000
37.7500 3105.0000 1.0000
37.7600 3002.0000 1.0000
37.7700 2823.0000 1.0000
37.7800 2833.0000 1.0000
37.7900 2642.0000 1.0000
37.8000 2597.0000 1.0000
37.8100 2376.0000 1.0000
37.8200 2273.0000 1.0000
37.8300 2133.0000 1.0000
37.8400 1990.0000 1.0000
37.8500 1880.0000 1.0000
37.8600 1823.0000 1.0000
37.8700 1700.0000 1.0000
37.8800 1557.0000 1.0000
37.8900 1470.0000 1.0000
37.9000 1349.0000 1.0000
37.9100 1312.0000 1.0000
37.9200 1250.0000 1.0000
37.9300 1176.0000 1.0000
37.9400 1108.0000 1.0000
37.9500 1056.0000 1.0000
37.9600 986.0000 1.0000
37.9700 942.0000 1.0000
37.9800 927.0000 1.0000
37.9900 898.0000 1.0000
38.0000 878.0000 1.0000
38.0100 841.0000 1.0000
38.0200 810.0000 1.0000
38.0300 818.0000 1.0000
38.0400 784.0000 1.0000
38.0500 737.0000 1.0000
38.0600 776.0000 1.0000
38.0700 637.0000 1.0000
38.0800 652.0000 1.0000
38.0900 692.0000 1.0000
38.1000 684.0000 1.0000
38.1100 658.0000 1.0000
38.1200 671.0000 1.0000
38.1300 646.0000 1.0000
38.1400 664.0000 1.0000
38.1500 648.0000 1.0000
38.1600 645.0000 1.0000
38.1700 639.0000 1.0000
38.1800 610.0000 1.0000
38.1900 588.0000 1.0000
38.2000 623.0000 1.0000
38.2100 590.0000 1.0000
38.2200 621.0000 1.0000
38.2300 644.0000 1.0000
38.2400 575.0000 1.0000
38.2500 588.0000 1.0000
38.2600 621.0000 1.0000
38.2700 596.0000 1.0000
38.2800 600.0000 1.0000
38.2900 582.0000 1.0000
38.3000 579.0000 1.0000
38.3100 534.0000 1.0000
38.3200 584.0000 1.0000
38.3300 559.0000 1.0000
38.3400 556.0000 1.0000
38.3500 535.0000 1.0000
38.3600 567.0000 1.0000
38.3700 536.0000 1.0000
38.3800 559.0000 1.0000
38.3900 569.0000 1.0000
38.4000 574.0000 1.0000
38.4100 567.0000 1.0000
38.4200 577.0000 1.0000
38.4300 549.0000 1.0000
38.4400 581.0000 1.0000
38.4500 559.0000 1.0000
38.4600 574.0000 1.0000
38.4700 586.0000 1.0000
38.4800 553.0000 1.0000
38.4900 577.0000 1.0000
38.5000 590.0000 1.0000
38.5100 586.0000 1.0000
38.5200 534.0000 1.0000
38.5300 567.0000 1.0000
38.5400 538.0000 1.0000
38.5500 529.0000 1.0000
38.5600 518.0000 1.0000
38.5700 518.0000 1.0000
38.5800 552.0000 1.0000
38.5900 531.0000 1.0000
38.6000 566.0000 1.0000
38.6100 573.0000 1.0000
38.6200 540.0000 1.0000
38.6300 566.0000 1.0000
38.6400 550.0000 1.0000
38.6500 596.0000 1.0000
38.6600 554.0000 1.0000
38.6700 566.0000 1.0000
38.6800 595.0000 1.0000
38.6900 564.0000 1.0000
38.7000 524.0000 1.0000
38.7100 556.0000 1.0000
38.7200 554.0000 1.0000
38.7300 565.0000 1.0000
38.7400 568.0000 1.0000
38.7500 610.0000 1.0000
38.7600 597.0000 1.0000
38.7700 592.0000 1.0000
38.7800 605.0000 1.0000
38.7900 559.0000 1.0000
38.8000 558.0000 1.0000
38.8100 553.0000 1.0000
38.8200 550.0000 1.0000
38.8300 541.0000 1.0000
38.8400 552.0000 1.0000
38.8500 584.0000 1.0000
38.8600 553.0000 1.0000
38.8700 542.0000 1.0000
38.8800 525.0000 1.0000
38.8900 578.0000 1.0000
38.9000 583.0000 1.0000
38.9100 537.0000 1.0000
38.9200 558.0000 1.0000
38.9300 571.0000 1.0000
38.9400 572.0000 1.0000
38.9500 542.0000 1.0000
38.9600 534.0000 1.0000
38.9700 541.0000 1.0000
38.9800 561.0000 1.0000
38.9900 544.0000 1.0000
39.0000 520.0000 1.0000
39.0100 532.0000 1.0000
39.0200 528.0000 1.0000
39.0300 539.0000 1.0000
39.0400 525.0000 1.0000
39.0500 532.0000 1.0000
39.0600 528.0000 1.0000
39.0700 514.0000 1.0000
39.0800 529.0000 1.0000
39.0900 568.0000 1.0000
39.1000 515.0000 1.0000
39.1100 517.0000 1.0000
39.1200 503.0000 1.0000
39.1300 516.0000 1.0000
39.1400 520.0000 1.0000
39.1500 527.0000 1.0000
39.1600 544.0000 1.0000
39.1700 514.0000 1.0000
39.1800 547.0000 1.0000
39.1900 533.0000 1.0000
39.2000 532.0000 1.0000
39.2100 537.0000 1.0000
39.2200 518.0000 1.0000
39.2300 517.0000 1.0000
39.2400 545.0000 1.0000
39.2500 514.0000 1.0000
39.2600 525.0000 1.0000
39.2700 486.0000 1.0000
39.2800 479.0000 1.0000
39.2900 511.0000 1.0000
39.3000 528.0000 1.0000
39.3100 537.0000 1.0000
39.3200 568.0000 1.0000
39.3300 523.0000 1.0000
39.3400 509.0000 1.0000
39.3500 512.0000 1.0000
39.3600 500.0000 1.0000
39.3700 493.0000 1.0000
39.3800 508.0000 1.0000
39.3900 493.0000 1.0000
39.4000 509.0000 1.0000
39.4100 543.0000 1.0000
39.4200 500.0000 1.0000
39.4300 496.0000 1.0000
39.4400 508.0000 1.0000
39.4500 541.0000 1.0000
39.4600 529.0000 1.0000
39.4700 516.0000 1.0000
39.4800 479.0000 1.0000
39.4900 528.0000 1.0000
39.5000 493.0000 1.0000
39.5100 524.0000 1.0000
39.5200 536.0000 1.0000
39.5300 521.0000 1.0000
39.5400 518.0000 1.0000
39.5500 530.0000 1.0000
39.5600 538.0000 1.0000
39.5700 528.0000 1.0000
39.5800 487.0000 1.0000
39.5900 523.0000 1.0000
39.6000 495.0000 1.0000
39.6100 488.0000 1.0000
39.6200 477.0000 1.0000
39.6300 519.0000 1.0000
39.6400 514.0000 1.0000
39.6500 519.0000 1.0000
39.6600 551.0000 1.0000
39.6700 520.0000 1.0000
39.6800 503.0000 1.0000
39.6900 530.0000 1.0000
39.7000 530.0000 1.0000
39.7100 463.0000 1.0000
39.7200 508.0000 1.0000
39.7300 477.0000 1.0000
39.7400 486.0000 1.0000
39.7500 483.0000 1.0000
39.7600 479.0000 1.0000
39.7700 504.0000 1.0000
39.7800 490.0000 1.0000
39.7900 469.0000 1.0000
39.8000 478.0000 1.0000
39.8100 523.0000 1.0000
39.8200 483.0000 1.0000
39.8300 492.0000 1.0000
39.8400 515.0000 1.0000
39.8500 522.0000 1.0000
39.8600 510.0000 1.0000
39.8700 501.0000 1.0000
39.8800 517.0000 1.0000
39.8900 485.0000 1.0000
39.9000 500.0000 1.0000
39.9100 485.0000 1.0000
39.9200 491.0000 1.0000
39.9300 506.0000 1.0000
39.9400 492.0000 1.0000
39.9500 508.0000 1.0000
39.9600 480.0000 1.0000
39.9700 507.0000 1.0000
39.9800 508.0000 1.0000
39.9900 493.0000 1.0000
40.0000 484.0000 1.0000
40.0100 482.0000 1.0000
40.0200 504.0000 1.0000
40.0300 505.0000 1.0000
40.0400 505.0000 1.0000
40.0500 491.0000 1.0000
40.0600 467.0000 1.0000
40.0700 513.0000 1.0000
40.0800 511.0000 1.0000
40.0900 470.0000 1.0000
40.1000 503.0000 1.0000
40.1100 483.0000 1.0000
40.1200 496.0000 1.0000
40.1300 507.0000 1.0000
40.1400 489.0000 1.0000
40.1500 509.0000 1.0000
40.1600 508.0000 1.0000
40.1700 497.0000 1.0000
40.1800 511.0000 1.0000
40.1900 478.0000 1.0000
40.2000 473.0000 1.0000
40.2100 497.0000 1.0000
40.2200 500.0000 1.0000
40.2300 485.0000 1.0000
40.2400 494.0000 1.0000
40.2500 501.0000 1.0000
40.2600 470.0000 1.0000
40.2700 478.0000 1.0000
40.2800 463.0000 1.0000
40.2900 495.0000 1.0000
40.3000 480.0000 1.0000
40.3100 453.0000 1.0000
40.3200 486.0000 1.0000
40.3300 518.0000 1.0000
40.3400 469.0000 1.0000
40.3500 467.0000 1.0000
40.3600 524.0000 1.0000
40.3700 475.0000 1.0000
40.3800 512.0000 1.0000
40.3900 473.0000 1.0000
40.4000 474.0000 1.0000
40.4100 504.0000 1.0000
40.4200 532.0000 1.0000
40.4300 499.0000 1.0000
40.4400 471.0000 1.0000
40.4500 500.0000 1.0000
40.4600 459.0000 1.0000
40.4700 494.0000 1.0000
40.4800 533.0000 1.0000
40.4900 503.0000 1.0000
40.5000 485.0000 1.0000
40.5100 503.0000 1.0000
40.5200 487.0000 1.0000
40.5300 505.0000 1.0000
40.5400 480.0000 1.0000
40.5500 519.0000 1.0000
40.5600 540.0000 1.0000
40.5700 503.0000 1.0000
40.5800 538.0000 1.0000
40.5900 488.0000 1.0000
40.6000 514.0000 1.0000
40.6100 477.0000 1.0000
40.6200 523.0000 1.0000
40.6300 503.0000 1.0000
40.6400 512.0000 1.0000
40.6500 468.0000 1.0000
40.6600 492.0000 1.0000
40.6700 513.0000 1.0000
40.6800 510.0000 1.0000
40.6900 554.0000 1.0000
40.7000 475.0000 1.0000
40.7100 508.0000 1.0000
40.7200 518.0000 1.0000
40.7300 533.0000 1.0000
40.7400 580.0000 1.0000
40.7500 561.0000 1.0000
40.7600 550.0000 1.0000
40.7700 533.0000 1.0000
40.7800 542.0000 1.0000
40.7900 561.0000 1.0000
40.8000 550.0000 1.0000
40.8100 585.0000 1.0000
40.8200 552.0000 1.0000
40.8300 552.0000 1.0000
40.8400 513.0000 1.0000
40.8500 540.0000 1.0000
40.8600 525.0000 1.0000
40.8700 537.0000 1.0000
40.8800 525.0000 1.0000
40.8900 496.0000 1.0000
40.9000 524.0000 1.0000
40.9100 519.0000 1.0000
40.9200 532.0000 1.0000
40.9300 534.0000 1.0000
40.9400 499.0000 1.0000
40.9500 529.0000 1.0000
40.9600 503.0000 1.0000
40.9700 513.0000 1.0000
40.9800 505.0000 1.0000
40.9900 497.0000 1.0000
41.0000 511.0000 1.0000
41.0100 494.0000 1.0000
41.0200 533.0000 1.0000
41.0300 493.0000 1.0000
41.0400 485.0000 1.0000
41.0500 481.0000 1.0000
41.0600 500.0000 1.0000
41.0700 455.0000 1.0000
41.0800 509.0000 1.0000
41.0900 499.0000 1.0000
41.1000 486.0000 1.0000
41.1100 490.0000 1.0000
41.1200 480.0000 1.0000
41.1300 514.0000 1.0000
41.1400 485.0000 1.0000
41.1500 495.0000 1.0000
41.1600 470.0000 1.0000
41.1700 506.0000 1.0000
41.1800 494.0000 1.0000
41.1900 488.0000 1.0000
41.2000 429.0000 1.0000
41.2100 508.0000 1.0000
41.2200 477.0000 1.0000
41.2300 457.0000 1.0000
41.2400 478.0000 1.0000
41.2500 473.0000 1.0000
41.2600 486.0000 1.0000
41.2700 485.0000 1.0000
41.2800 458.0000 1.0000
41.2900 494.0000 1.0000
41.3000 503.0000 1.0000
41.3100 497.0000 1.0000
41.3200 483.0000 1.0000
41.3300 499.0000 1.0000
41.3400 470.0000 1.0000
41.3500 485.0000 1.0000
41.3600 498.0000 1.0000
41.3700 493.0000 1.0000
41.3800 484.0000 1.0000
41.3900 473.0000 1.0000
41.4000 488.0000 1.0000
41.4100 507.0000 1.0000
41.4200 498.0000 1.0000
41.4300 495.0000 1.0000
41.4400 480.0000 1.0000
41.4500 496.0000 1.0000
41.4600 471.0000 1.0000
41.4700 464.0000 1.0000
41.4800 439.0000 1.0000
41.4900 506.0000 1.0000
41.5000 491.0000 1.0000
41.5100 490.0000 1.0000
41.5200 444.0000 1.0000
41.5300 470.0000 1.0000
41.5400 513.0000 1.0000
41.5500 477.0000 1.0000
41.5600 489.0000 1.0000
41.5700 462.0000 1.0000
41.5800 466.0000 1.0000
41.5900 478.0000 1.0000
41.6000 478.0000 1.0000
41.6100 505.0000 1.0000
41.6200 475.0000 1.0000
41.6300 486.0000 1.0000
41.6400 490.0000 1.0000
41.6500 486.0000 1.0000
41.6600 488.0000 1.0000
41.6700 482.0000 1.0000
41.6800 466.0000 1.0000
41.6900 472.0000 1.0000
41.7000 476.0000 1.0000
41.7100 516.0000 1.0000
41.7200 488.0000 1.0000
41.7300 448.0000 1.0000
41.7400 489.0000 1.0000
41.7500 478.0000 1.0000
41.7600 481.0000 1.0000
41.7700 500.0000 1.0000
41.7800 485.0000 1.0000
41.7900 482.0000 1.0000
41.8000 517.0000 1.0000
41.8100 473.0000 1.0000
41.8200 465.0000 1.0000
41.8300 454.0000 1.0000
41.8400 453.0000 1.0000
41.8500 471.0000 1.0000
41.8600 506.0000 1.0000
41.8700 517.0000 1.0000
41.8800 499.0000 1.0000
41.8900 479.0000 1.0000
41.9000 512.0000 1.0000
41.9100 475.0000 1.0000
41.9200 470.0000 1.0000
41.9300 456.0000 1.0000
41.9400 471.0000 1.0000
41.9500 484.0000 1.0000
41.9600 482.0000 1.0000
41.9700 487.0000 1.0000
41.9800 493.0000 1.0000
41.9900 496.0000 1.0000
42.0000 487.0000 1.0000
42.0100 470.0000 1.0000
42.0200 462.0000 1.0000
42.0300 471.0000 1.0000
42.0400 475.0000 1.0000
42.0500 465.0000 1.0000
42.0600 448.0000 1.0000
42.0700 472.0000 1.0000
42.0800 503.0000 1.0000
42.0900 475.0000 1.0000
42.1000 463.0000 1.0000
42.1100 495.0000 1.0000
42.1200 467.0000 1.0000
42.1300 478.0000 1.0000
42.1400 485.0000 1.0000
42.1500 492.0000 1.0000
42.1600 467.0000 1.0000
42.1700 451.0000 1.0000
42.1800 488.0000 1.0000
42.1900 496.0000 1.0000
42.2000 478.0000 1.0000
42.2100 494.0000 1.0000
42.2200 478.0000 1.0000
42.2300 508.0000 1.0000
42.2400 515.0000 1.0000
42.2500 494.0000 1.0000
42.2600 465.0000 1.0000
42.2700 474.0000 1.0000
42.2800 532.0000 1.0000
42.2900 476.0000 1.0000
42.3000 464.0000 1.0000
42.3100 492.0000 1.0000
42.3200 504.0000 1.0000
42.3300 507.0000 1.0000
42.3400 531.0000 1.0000
42.3500 512.0000 1.0000
42.3600 499.0000 1.0000
42.3700 550.0000 1.0000
42.3800 527.0000 1.0000
42.3900 522.0000 1.0000
42.4000 539.0000 1.0000
42.4100 538.0000 1.0000
42.4200 510.0000 1.0000
42.4300 538.0000 1.0000
42.4400 504.0000 1.0000
42.4500 530.0000 1.0000
42.4600 501.0000 1.0000
42.4700 514.0000 1.0000
42.4800 519.0000 1.0000
42.4900 559.0000 1.0000
42.5000 493.0000 1.0000
42.5100 540.0000 1.0000
42.5200 555.0000 1.0000
42.5300 502.0000 1.0000
42.5400 472.0000 1.0000
42.5500 466.0000 1.0000
42.5600 475.0000 1.0000
42.5700 492.0000 1.0000
42.5800 471.0000 1.0000
42.5900 485.0000 1.0000
42.6000 485.0000 1.0000
42.6100 477.0000 1.0000
42.6200 507.0000 1.0000
42.6300 479.0000 1.0000
42.6400 519.0000 1.0000
42.6500 498.0000 1.0000
42.6600 492.0000 1.0000
42.6700 523.0000 1.0000
42.6800 495.0000 1.0000
42.6900 516.0000 1.0000
42.7000 514.0000 1.0000
42.7100 474.0000 1.0000
42.7200 454.0000 1.0000
42.7300 497.0000 1.0000
42.7400 513.0000 1.0000
42.7500 478.0000 1.0000
42.7600 459.0000 1.0000
42.7700 467.0000 1.0000
42.7800 473.0000 1.0000
42.7900 421.0000 1.0000
42.8000 439.0000 1.0000
42.8100 460.0000 1.0000
42.8200 445.0000 1.0000
42.8300 448.0000 1.0000
42.8400 446.0000 1.0000
42.8500 457.0000 1.0000
42.8600 480.0000 1.0000
42.8700 489.0000 1.0000
42.8800 439.0000 1.0000
42.8900 500.0000 1.0000
42.9000 469.0000 1.0000
42.9100 461.0000 1.0000
42.9200 486.0000 1.0000
42.9300 483.0000 1.0000
42.9400 459.0000 1.0000
42.9500 440.0000 1.0000
42.9600 461.0000 1.0000
42.9700 453.0000 1.0000
42.9800 467.0000 1.0000
42.9900 456.0000 1.0000
43.0000 492.0000 1.0000
43.0100 472.0000 1.0000
43.0200 446.0000 1.0000
43.0300 504.0000 1.0000
43.0400 470.0000 1.0000
43.0500 459.0000 1.0000
43.0600 446.0000 1.0000
43.0700 454.0000 1.0000
43.0800 448.0000 1.0000
43.0900 461.0000 1.0000
43.1000 464.0000 1.0000
43.1100 477.0000 1.0000
43.1200 478.0000 1.0000
43.1300 496.0000 1.0000
43.1400 463.0000 1.0000
43.1500 463.0000 1.0000
43.1600 476.0000 1.0000
43.1700 475.0000 1.0000
43.1800 461.0000 1.0000
43.1900 497.0000 1.0000
43.2000 514.0000 1.0000
43.2100 500.0000 1.0000
43.2200 466.0000 1.0000
43.2300 408.0000 1.0000
43.2400 450.0000 1.0000
43.2500 459.0000 1.0000
43.2600 491.0000 1.0000
43.2700 484.0000 1.0000
43.2800 447.0000 1.0000
43.2900 448.0000 1.0000
43.3000 451.0000 1.0000
43.3100 446.0000 1.0000
43.3200 456.0000 1.0000
43.3300 455.0000 1.0000
43.3400 453.0000 1.0000
43.3500 460.0000 1.0000
43.3600 458.0000 1.0000
43.3700 495.0000 1.0000
43.3800 511.0000 1.0000
43.3900 487.0000 1.0000
43.4000 503.0000 1.0000
43.4100 458.0000 1.0000
43.4200 512.0000 1.0000
43.4300 475.0000 1.0000
43.4400 495.0000 1.0000
43.4500 469.0000 1.0000
43.4600 473.0000 1.0000
43.4700 458.0000 1.0000
43.4800 443.0000 1.0000
43.4900 443.0000 1.0000
43.5000 471.0000 1.0000
43.5100 472.0000 1.0000
43.5200 452.0000 1.0000
43.5300 461.0000 1.0000
43.5400 435.0000 1.0000
43.5500 450.0000 1.0000
43.5600 437.0000 1.0000
43.5700 457.0000 1.0000
43.5800 443.0000 1.0000
43.5900 451.0000 1.0000
43.6000 473.0000 1.0000
43.6100 487.0000 1.0000
43.6200 435.0000 1.0000
43.6300 419.0000 1.0000
43.6400 420.0000 1.0000
43.6500 410.0000 1.0000
43.6600 461.0000 1.0000
43.6700 489.0000 1.0000
43.6800 510.0000 1.0000
43.6900 435.0000 1.0000
43.7000 475.0000 1.0000
43.7100 449.0000 1.0000
43.7200 451.0000 1.0000
43.7300 448.0000 1.0000
43.7400 436.0000 1.0000
43.7500 448.0000 1.0000
43.7600 442.0000 1.0000
43.7700 451.0000 1.0000
43.7800 481.0000 1.0000
43.7900 461.0000 1.0000
43.8000 481.0000 1.0000
43.8100 467.0000 1.0000
43.8200 443.0000 1.0000
43.8300 442.0000 1.0000
43.8400 457.0000 1.0000
43.8500 495.0000 1.0000
43.8600 482.0000 1.0000
43.8700 486.0000 1.0000
43.8800 449.0000 1.0000
43.8900 459.0000 1.0000
43.9000 469.0000 1.0000
43.9100 448.0000 1.0000
43.9200 441.0000 1.0000
43.9300 455.0000 1.0000
43.9400 446.0000 1.0000
43.9500 457.0000 1.0000
43.9600 484.0000 1.0000
43.9700 430.0000 1.0000
43.9800 441.0000 1.0000
43.9900 437.0000 1.0000
44.0000 449.0000 1.0000
44.0100 450.0000 1.0000
44.0200 420.0000 1.0000
44.0300 420.0000 1.0000
44.0400 462.0000 1.0000
44.0500 477.0000 1.0000
44.0600 462.0000 1.0000
44.0700 455.0000 1.0000
44.0800 469.0000 1.0000
44.0900 439.0000 1.0000
44.1000 428.0000 1.0000
44.1100 435.0000 1.0000
44.1200 425.0000 1.0000
44.1300 481.0000 1.0000
44.1400 434.0000 1.0000
44.1500 453.0000 1.0000
44.1600 452.0000 1.0000
44.1700 437.0000 1.0000
44.1800 437.0000 1.0000
44.1900 423.0000 1.0000
44.2000 451.0000 1.0000
44.2100 447.0000 1.0000
44.2200 446.0000 1.0000
44.2300 440.0000 1.0000
44.2400 436.0000 1.0000
44.2500 452.0000 1.0000
44.2600 493.0000 1.0000
44.2700 489.0000 1.0000
44.2800 455.0000 1.0000
44.2900 419.0000 1.0000
44.3000 434.0000 1.0000
44.3100 457.0000 1.0000
44.3200 449.0000 1.0000
44.3300 428.0000 1.0000
44.3400 446.0000 1.0000
44.3500 459.0000 1.0000
44.3600 453.0000 1.0000
44.3700 451.0000 1.0000
44.3800 441.0000 1.0000
44.3900 420.0000 1.0000
44.4000 442.0000 1.0000
44.4100 455.0000 1.0000
44.4200 430.0000 1.0000
44.4300 418.0000 1.0000
44.4400 431.0000 1.0000
44.4500 423.0000 1.0000
44.4600 454.0000 1.0000
44.4700 462.0000 1.0000
44.4800 447.0000 1.0000
44.4900 459.0000 1.0000
44.5000 436.0000 1.0000
44.5100 477.0000 1.0000
44.5200 438.0000 1.0000
44.5300 444.0000 1.0000
44.5400 433.0000 1.0000
44.5500 443.0000 1.0000
44.5600 419.0000 1.0000
44.5700 443.0000 1.0000
44.5800 444.0000 1.0000
44.5900 468.0000 1.0000
44.6000 476.0000 1.0000
44.6100 462.0000 1.0000
44.6200 458.0000 1.0000
44.6300 460.0000 1.0000
44.6400 417.0000 1.0000
44.6500 489.0000 1.0000
44.6600 440.0000 1.0000
44.6700 467.0000 1.0000
44.6800 401.0000 1.0000
44.6900 426.0000 1.0000
44.7000 408.0000 1.0000
44.7100 437.0000 1.0000
44.7200 440.0000 1.0000
44.7300 414.0000 1.0000
44.7400 442.0000 1.0000
44.7500 466.0000 1.0000
44.7600 457.0000 1.0000
44.7700 475.0000 1.0000
44.7800 437.0000 1.0000
44.7900 432.0000 1.0000
44.8000 419.0000 1.0000
44.8100 400.0000 1.0000
44.8200 435.0000 1.0000
44.8300 468.0000 1.0000
44.8400 439.0000 1.0000
44.8500 458.0000 1.0000
44.8600 459.0000 1.0000
44.8700 431.0000 1.0000
44.8800 419.0000 1.0000
44.8900 429.0000 1.0000
44.9000 449.0000 1.0000
44.9100 441.0000 1.0000
44.9200 430.0000 1.0000
44.9300 438.0000 1.0000
44.9400 431.0000 1.0000
44.9500 461.0000 1.0000
44.9600 467.0000 1.0000
44.9700 452.0000 1.0000
44.9800 458.0000 1.0000
44.9900 436.0000 1.0000
45.0000 414.0000 1.0000
45.0100 427.0000 1.0000
45.0200 427.0000 1.0000
45.0300 447.0000 1.0000
45.0400 436.0000 1.0000
45.0500 451.0000 1.0000
45.0600 440.0000 1.0000
45.0700 423.0000 1.0000
45.0800 461.0000 1.0000
45.0900 467.0000 1.0000
45.1000 441.0000 1.0000
45.1100 435.0000 1.0000
45.1200 434.0000 1.0000
45.1300 452.0000 1.0000
45.1400 474.0000 1.0000
45.1500 432.0000 1.0000
45.1600 447.0000 1.0000
45.1700 433.0000 1.0000
45.1800 398.0000 1.0000
45.1900 436.0000 1.0000
45.2000 456.0000 1.0000
45.2100 421.0000 1.0000
45.2200 459.0000 1.0000
45.2300 422.0000 1.0000
45.2400 450.0000 1.0000
45.2500 435.0000 1.0000
45.2600 452.0000 1.0000
45.2700 444.0000 1.0000
45.2800 412.0000 1.0000
45.2900 426.0000 1.0000
45.3000 447.0000 1.0000
45.3100 436.0000 1.0000
45.3200 432.0000 1.0000
45.3300 427.0000 1.0000
45.3400 462.0000 1.0000
45.3500 452.0000 1.0000
45.3600 418.0000 1.0000
45.3700 394.0000 1.0000
45.3800 443.0000 1.0000
45.3900 432.0000 1.0000
45.4000 442.0000 1.0000
45.4100 408.0000 1.0000
45.4200 413.0000 1.0000
45.4300 442.0000 1.0000
45.4400 410.0000 1.0000
45.4500 443.0000 1.0000
45.4600 435.0000 1.0000
45.4700 431.0000 1.0000
45.4800 439.0000 1.0000
45.4900 442.0000 1.0000
45.5000 430.0000 1.0000
45.5100 443.0000 1.0000
45.5200 430.0000 1.0000
45.5300 437.0000 1.0000
45.5400 402.0000 1.0000
45.5500 439.0000 1.0000
45.5600 437.0000 1.0000
45.5700 420.0000 1.0000
45.5800 435.0000 1.0000
45.5900 435.0000 1.0000
45.6000 456.0000 1.0000
45.6100 458.0000 1.0000
45.6200 403.0000 1.0000
45.6300 419.0000 1.0000
45.6400 453.0000 1.0000
45.6500 410.0000 1.0000
45.6600 425.0000 1.0000
45.6700 415.0000 1.0000
45.6800 449.0000 1.0000
45.6900 439.0000 1.0000
45.7000 437.0000 1.0000
45.7100 453.0000 1.0000
45.7200 402.0000 1.0000
45.7300 402.0000 1.0000
45.7400 453.0000 1.0000
45.7500 421.0000 1.0000
45.7600 446.0000 1.0000
45.7700 437.0000 1.0000
45.7800 436.0000 1.0000
45.7900 438.0000 1.0000
45.8000 411.0000 1.0000
45.8100 396.0000 1.0000
45.8200 407.0000 1.0000
45.8300 410.0000 1.0000
45.8400 415.0000 1.0000
45.8500 427.0000 1.0000
45.8600 443.0000 1.0000
45.8700 426.0000 1.0000
45.8800 430.0000 1.0000
45.8900 438.0000 1.0000
45.9000 460.0000 1.0000
45.9100 436.0000 1.0000
45.9200 407.0000 1.0000
45.9300 438.0000 1.0000
45.9400 430.0000 1.0000
45.9500 423.0000 1.0000
45.9600 402.0000 1.0000
45.9700 437.0000 1.0000
45.9800 466.0000 1.0000
45.9900 391.0000 1.0000
46.0000 420.0000 1.0000
46.0100 417.0000 1.0000
46.0200 444.0000 1.0000
46.0300 444.0000 1.0000
46.0400 424.0000 1.0000
46.0500 466.0000 1.0000
46.0600 446.0000 1.0000
46.0700 457.0000 1.0000
46.0800 441.0000 1.0000
46.0900 419.0000 1.0000
46.1000 388.0000 1.0000
46.1100 430.0000 1.0000
46.1200 440.0000 1.0000
46.1300 451.0000 1.0000
46.1400 445.0000 1.0000
46.1500 424.0000 1.0000
46.1600 480.0000 1.0000
46.1700 483.0000 1.0000
46.1800 456.0000 1.0000
46.1900 447.0000 1.0000
46.2000 467.0000 1.0000
46.2100 435.0000 1.0000
46.2200 445.0000 1.0000
46.2300 449.0000 1.0000
46.2400 451.0000 1.0000
46.2500 413.0000 1.0000
46.2600 436.0000 1.0000
46.2700 464.0000 1.0000
46.2800 455.0000 1.0000
46.2900 412.0000 1.0000
46.3000 420.0000 1.0000
46.3100 463.0000 1.0000
46.3200 440.0000 1.0000
46.3300 443.0000 1.0000
46.3400 448.0000 1.0000
46.3500 415.0000 1.0000
46.3600 437.0000 1.0000
46.3700 416.0000 1.0000
46.3800 443.0000 1.0000
46.3900 446.0000 1.0000
46.4000 420.0000 1.0000
46.4100 444.0000 1.0000
46.4200 424.0000 1.0000
46.4300 438.0000 1.0000
46.4400 445.0000 1.0000
46.4500 417.0000 1.0000
46.4600 420.0000 1.0000
46.4700 399.0000 1.0000
46.4800 408.0000 1.0000
46.4900 420.0000 1.0000
46.5000 439.0000 1.0000
46.5100 430.0000 1.0000
46.5200 434.0000 1.0000
46.5300 443.0000 1.0000
46.5400 414.0000 1.0000
46.5500 400.0000 1.0000
46.5600 412.0000 1.0000
46.5700 399.0000 1.0000
46.5800 427.0000 1.0000
46.5900 429.0000 1.0000
46.6000 399.0000 1.0000
46.6100 445.0000 1.0000
46.6200 448.0000 1.0000
46.6300 422.0000 1.0000
46.6400 387.0000 1.0000
46.6500 420.0000 1.0000
46.6600 441.0000 1.0000
46.6700 434.0000 1.0000
46.6800 403.0000 1.0000
46.6900 394.0000 1.0000
46.7000 412.0000 1.0000
46.7100 431.0000 1.0000
46.7200 405.0000 1.0000
46.7300 416.0000 1.0000
46.7400 431.0000 1.0000
46.7500 443.0000 1.0000
46.7600 417.0000 1.0000
46.7700 448.0000 1.0000
46.7800 425.0000 1.0000
46.7900 395.0000 1.0000
46.8000 456.0000 1.0000
46.8100 405.0000 1.0000
46.8200 408.0000 1.0000
46.8300 409.0000 1.0000
46.8400 400.0000 1.0000
46.8500 433.0000 1.0000
46.8600 453.0000 1.0000
46.8700 432.0000 1.0000
46.8800 427.0000 1.0000
46.8900 391.0000 1.0000
46.9000 408.0000 1.0000
46.9100 457.0000 1.0000
46.9200 422.0000 1.0000
46.9300 403.0000 1.0000
46.9400 424.0000 1.0000
46.9500 406.0000 1.0000
46.9600 405.0000 1.0000
46.9700 415.0000 1.0000
46.9800 410.0000 1.0000
46.9900 393.0000 1.0000
47.0000 409.0000 1.0000
47.0100 417.0000 1.0000
47.0200 422.0000 1.0000
47.0300 423.0000 1.0000
47.0400 441.0000 1.0000
47.0500 448.0000 1.0000
47.0600 395.0000 1.0000
47.0700 398.0000 1.0000
47.0800 415.0000 1.0000
47.0900 441.0000 1.0000
47.1000 393.0000 1.0000
47.1100 406.0000 1.0000
47.1200 418.0000 1.0000
47.1300 443.0000 1.0000
47.1400 424.0000 1.0000
47.1500 397.0000 1.0000
47.1600 432.0000 1.0000
47.1700 418.0000 1.0000
47.1800 420.0000 1.0000
47.1900 437.0000 1.0000
47.2000 409.0000 1.0000
47.2100 412.0000 1.0000
47.2200 422.0000 1.0000
47.2300 426.0000 1.0000
47.2400 412.0000 1.0000
47.2500 425.0000 1.0000
47.2600 405.0000 1.0000
47.2700 402.0000 1.0000
47.2800 429.0000 1.0000
47.2900 411.0000 1.0000
47.3000 391.0000 1.0000
47.3100 387.0000 1.0000
47.3200 437.0000 1.0000
47.3300 438.0000 1.0000
47.3400 388.0000 1.0000
47.3500 396.0000 1.0000
47.3600 403.0000 1.0000
47.3700 419.0000 1.0000
47.3800 428.0000 1.0000
47.3900 415.0000 1.0000
47.4000 402.0000 1.0000
47.4100 417.0000 1.0000
47.4200 382.0000 1.0000
47.4300 434.0000 1.0000
47.4400 443.0000 1.0000
47.4500 433.0000 1.0000
47.4600 410.0000 1.0000
47.4700 397.0000 1.0000
47.4800 381.0000 1.0000
47.4900 418.0000 1.0000
47.5000 400.0000 1.0000
47.5100 406.0000 1.0000
47.5200 416.0000 1.0000
47.5300 414.0000 1.0000
47.5400 386.0000 1.0000
47.5500 371.0000 1.0000
47.5600 399.0000 1.0000
47.5700 430.0000 1.0000
47.5800 377.0000 1.0000
47.5900 398.0000 1.0000
47.6000 400.0000 1.0000
47.6100 433.0000 1.0000
47.6200 417.0000 1.0000
47.6300 432.0000 1.0000
47.6400 391.0000 1.0000
47.6500 392.0000 1.0000
47.6600 395.0000 1.0000
47.6700 426.0000 1.0000
47.6800 455.0000 1.0000
47.6900 458.0000 1.0000
47.7000 432.0000 1.0000
47.7100 409.0000 1.0000
47.7200 399.0000 1.0000
47.7300 409.0000 1.0000
47.7400 436.0000 1.0000
47.7500 421.0000 1.0000
47.7600 389.0000 1.0000
47.7700 425.0000 1.0000
47.7800 419.0000 1.0000
47.7900 427.0000 1.0000
47.8000 397.0000 1.0000
47.8100 414.0000 1.0000
47.8200 439.0000 1.0000
47.8300 414.0000 1.0000
47.8400 402.0000 1.0000
47.8500 411.0000 1.0000
47.8600 394.0000 1.0000
47.8700 400.0000 1.0000
47.8800 446.0000 1.0000
47.8900 430.0000 1.0000
47.9000 398.0000 1.0000
47.9100 401.0000 1.0000
47.9200 431.0000 1.0000
47.9300 405.0000 1.0000
47.9400 443.0000 1.0000
47.9500 413.0000 1.0000
47.9600 427.0000 1.0000
47.9700 413.0000 1.0000
47.9800 379.0000 1.0000
47.9900 408.0000 1.0000
48.0000 404.0000 1.0000
48.0100 438.0000 1.0000
48.0200 406.0000 1.0000
48.0300 391.0000 1.0000
48.0400 380.0000 1.0000
48.0500 406.0000 1.0000
48.0600 390.0000 1.0000
48.0700 403.0000 1.0000
48.0800 398.0000 1.0000
48.0900 424.0000 1.0000
48.1000 404.0000 1.0000
48.1100 398.0000 1.0000
48.1200 398.0000 1.0000
48.1300 407.0000 1.0000
48.1400 426.0000 1.0000
48.1500 389.0000 1.0000
48.1600 419.0000 1.0000
48.1700 406.0000 1.0000
48.1800 420.0000 1.0000
48.1900 447.0000 1.0000
48.2000 431.0000 1.0000
48.2100 430.0000 1.0000
48.2200 399.0000 1.0000
48.2300 383.0000 1.0000
48.2400 370.0000 1.0000
48.2500 388.0000 1.0000
48.2600 408.0000 1.0000
48.2700 384.0000 1.0000
48.2800 374.0000 1.0000
48.2900 401.0000 1.0000
48.3000 407.0000 1.0000
48.3100 398.0000 1.0000
48.3200 427.0000 1.0000
48.3300 440.0000 1.0000
48.3400 418.0000 1.0000
48.3500 426.0000 1.0000
48.3600 394.0000 1.0000
48.3700 405.0000 1.0000
48.3800 423.0000 1.0000
48.3900 420.0000 1.0000
48.4000 421.0000 1.0000
48.4100 422.0000 1.0000
48.4200 442.0000 1.0000
48.4300 398.0000 1.0000
48.4400 409.0000 1.0000
48.4500 389.0000 1.0000
48.4600 421.0000 1.0000
48.4700 403.0000 1.0000
48.4800 411.0000 1.0000
48.4900 418.0000 1.0000
48.5000 441.0000 1.0000
48.5100 391.0000 1.0000
48.5200 388.0000 1.0000
48.5300 386.0000 1.0000
48.5400 380.0000 1.0000
48.5500 396.0000 1.0000
48.5600 420.0000 1.0000
48.5700 427.0000 1.0000
48.5800 412.0000 1.0000
48.5900 411.0000 1.0000
48.6000 421.0000 1.0000
48.6100 420.0000 1.0000
48.6200 425.0000 1.0000
48.6300 398.0000 1.0000
48.6400 396.0000 1.0000
48.6500 393.0000 1.0000
48.6600 396.0000 1.0000
48.6700 412.0000 1.0000
48.6800 388.0000 1.0000
48.6900 396.0000 1.0000
48.7000 383.0000 1.0000
48.7100 424.0000 1.0000
48.7200 394.0000 1.0000
48.7300 394.0000 1.0000
48.7400 402.0000 1.0000
48.7500 403.0000 1.0000
48.7600 411.0000 1.0000
48.7700 398.0000 1.0000
48.7800 421.0000 1.0000
48.7900 409.0000 1.0000
48.8000 407.0000 1.0000
48.8100 396.0000 1.0000
48.8200 395.0000 1.0000
48.8300 416.0000 1.0000
48.8400 389.0000 1.0000
48.8500 422.0000 1.0000
48.8600 401.0000 1.0000
48.8700 444.0000 1.0000
48.8800 407.0000 1.0000
48.8900 376.0000 1.0000
48.9000 368.0000 1.0000
48.9100 411.0000 1.0000
48.9200 406.0000 1.0000
48.9300 405.0000 1.0000
48.9400 380.0000 1.0000
48.9500 394.0000 1.0000
48.9600 423.0000 1.0000
48.9700 413.0000 1.0000
48.9800 438.0000 1.0000
48.9900 396.0000 1.0000
49.0000 402.0000 1.0000
49.0100 407.0000 1.0000
49.0200 416.0000 1.0000
49.0300 397.0000 1.0000
49.0400 369.0000 1.0000
49.0500 413.0000 1.0000
49.0600 416.0000 1.0000
49.0700 415.0000 1.0000
49.0800 422.0000 1.0000
49.0900 374.0000 1.0000
49.1000 394.0000 1.0000
49.1100 410.0000 1.0000
49.1200 395.0000 1.0000
49.1300 403.0000 1.0000
49.1400 422.0000 1.0000
49.1500 396.0000 1.0000
49.1600 404.0000 1.0000
49.1700 454.0000 1.0000
49.1800 479.0000 1.0000
49.1900 442.0000 1.0000
49.2000 429.0000 1.0000
49.2100 417.0000 1.0000
49.2200 430.0000 1.0000
49.2300 420.0000 1.0000
49.2400 429.0000 1.0000
49.2500 426.0000 1.0000
49.2600 419.0000 1.0000
49.2700 419.0000 1.0000
49.2800 427.0000 1.0000
49.2900 437.0000 1.0000
49.3000 425.0000 1.0000
49.3100 403.0000 1.0000
49.3200 461.0000 1.0000
49.3300 465.0000 1.0000
49.3400 448.0000 1.0000
49.3500 463.0000 1.0000
49.3600 474.0000 1.0000
49.3700 469.0000 1.0000
49.3800 447.0000 1.0000
49.3900 502.0000 1.0000
49.4000 493.0000 1.0000
49.4100 468.0000 1.0000
49.4200 478.0000 1.0000
49.4300 483.0000 1.0000
49.4400 461.0000 1.0000
49.4500 489.0000 1.0000
49.4600 451.0000 1.0000
49.4700 485.0000 1.0000
49.4800 470.0000 1.0000
49.4900 467.0000 1.0000
49.5000 464.0000 1.0000
49.5100 457.0000 1.0000
49.5200 450.0000 1.0000
49.5300 422.0000 1.0000
49.5400 455.0000 1.0000
49.5500 447.0000 1.0000
49.5600 443.0000 1.0000
49.5700 448.0000 1.0000
49.5800 421.0000 1.0000
49.5900 443.0000 1.0000
49.6000 450.0000 1.0000
49.6100 462.0000 1.0000
49.6200 413.0000 1.0000
49.6300 409.0000 1.0000
49.6400 441.0000 1.0000
49.6500 408.0000 1.0000
49.6600 443.0000 1.0000
49.6700 426.0000 1.0000
49.6800 446.0000 1.0000
49.6900 426.0000 1.0000
49.7000 427.0000 1.0000
49.7100 407.0000 1.0000
49.7200 400.0000 1.0000
49.7300 399.0000 1.0000
49.7400 389.0000 1.0000
49.7500 388.0000 1.0000
49.7600 405.0000 1.0000
49.7700 397.0000 1.0000
49.7800 417.0000 1.0000
49.7900 431.0000 1.0000
49.8000 426.0000 1.0000
49.8100 421.0000 1.0000
49.8200 398.0000 1.0000
49.8300 429.0000 1.0000
49.8400 430.0000 1.0000
49.8500 453.0000 1.0000
49.8600 453.0000 1.0000
49.8700 394.0000 1.0000
49.8800 442.0000 1.0000
49.8900 395.0000 1.0000
49.9000 393.0000 1.0000
49.9100 438.0000 1.0000
49.9200 415.0000 1.0000
49.9300 427.0000 1.0000
49.9400 421.0000 1.0000
49.9500 429.0000 1.0000
49.9600 367.0000 1.0000
49.9700 401.0000 1.0000
49.9800 429.0000 1.0000
49.9900 404.0000 1.0000
50.0000 398.0000 1.0000
50.0100 393.0000 1.0000
50.0200 411.0000 1.0000
50.0300 416.0000 1.0000
50.0400 409.0000 1.0000
50.0500 405.0000 1.0000
50.0600 430.0000 1.0000
50.0700 393.0000 1.0000
50.0800 430.0000 1.0000
50.0900 403.0000 1.0000
50.1000 436.0000 1.0000
50.1100 431.0000 1.0000
50.1200 461.0000 1.0000
50.1300 423.0000 1.0000
50.1400 422.0000 1.0000
50.1500 452.0000 1.0000
50.1600 418.0000 1.0000
50.1700 416.0000 1.0000
50.1800 456.0000 1.0000
50.1900 404.0000 1.0000
50.2000 420.0000 1.0000
50.2100 405.0000 1.0000
50.2200 431.0000 1.0000
50.2300 409.0000 1.0000
50.2400 415.0000 1.0000
50.2500 432.0000 1.0000
50.2600 420.0000 1.0000
50.2700 431.0000 1.0000
50.2800 406.0000 1.0000
50.2900 421.0000 1.0000
50.3000 415.0000 1.0000
50.3100 437.0000 1.0000
50.3200 384.0000 1.0000
50.3300 377.0000 1.0000
50.3400 411.0000 1.0000
50.3500 401.0000 1.0000
50.3600 420.0000 1.0000
50.3700 420.0000 1.0000
50.3800 400.0000 1.0000
50.3900 426.0000 1.0000
50.4000 415.0000 1.0000
50.4100 433.0000 1.0000
50.4200 409.0000 1.0000
50.4300 388.0000 1.0000
50.4400 419.0000 1.0000
50.4500 423.0000 1.0000
50.4600 410.0000 1.0000
50.4700 417.0000 1.0000
50.4800 403.0000 1.0000
50.4900 434.0000 1.0000
50.5000 404.0000 1.0000
50.5100 406.0000 1.0000
50.5200 424.0000 1.0000
50.5300 438.0000 1.0000
50.5400 420.0000 1.0000
50.5500 403.0000 1.0000
50.5600 413.0000 1.0000
50.5700 450.0000 1.0000
50.5800 426.0000 1.0000
50.5900 425.0000 1.0000
50.6000 431.0000 1.0000
50.6100 400.0000 1.0000
50.6200 427.0000 1.0000
50.6300 418.0000 1.0000
50.6400 426.0000 1.0000
50.6500 422.0000 1.0000
50.6600 410.0000 1.0000
50.6700 430.0000 1.0000
50.6800 429.0000 1.0000
50.6900 433.0000 1.0000
50.7000 393.0000 1.0000
50.7100 402.0000 1.0000
50.7200 421.0000 1.0000
50.7300 431.0000 1.0000
50.7400 404.0000 1.0000
50.7500 446.0000 1.0000
50.7600 426.0000 1.0000
50.7700 407.0000 1.0000
50.7800 453.0000 1.0000
50.7900 404.0000 1.0000
50.8000 441.0000 1.0000
50.8100 400.0000 1.0000
50.8200 444.0000 1.0000
50.8300 454.0000 1.0000
50.8400 428.0000 1.0000
50.8500 455.0000 1.0000
50.8600 391.0000 1.0000
50.8700 395.0000 1.0000
50.8800 416.0000 1.0000
50.8900 409.0000 1.0000
50.9000 421.0000 1.0000
50.9100 446.0000 1.0000
50.9200 427.0000 1.0000
50.9300 428.0000 1.0000
50.9400 429.0000 1.0000
50.9500 441.0000 1.0000
50.9600 457.0000 1.0000
50.9700 457.0000 1.0000
50.9800 455.0000 1.0000
50.9900 447.0000 1.0000
51.0000 461.0000 1.0000
51.0100 472.0000 1.0000
51.0200 479.0000 1.0000
51.0300 462.0000 1.0000
51.0400 463.0000 1.0000
51.0500 517.0000 1.0000
51.0600 513.0000 1.0000
51.0700 505.0000 1.0000
51.0800 476.0000 1.0000
51.0900 518.0000 1.0000
51.1000 484.0000 1.0000
51.1100 519.0000 1.0000
51.1200 523.0000 1.0000
51.1300 545.0000 1.0000
51.1400 572.0000 1.0000
51.1500 574.0000 1.0000
51.1600 587.0000 1.0000
51.1700 580.0000 1.0000
51.1800 633.0000 1.0000
51.1900 612.0000 1.0000
51.2000 661.0000 1.0000
51.2100 666.0000 1.0000
51.2200 704.0000 1.0000
51.2300 723.0000 1.0000
51.2400 790.0000 1.0000
51.2500 803.0000 1.0000
51.2600 827.0000 1.0000
51.2700 823.0000 1.0000
51.2800 857.0000 1.0000
51.2900 962.0000 1.0000
51.3000 1025.0000 1.0000
51.3100 1113.0000 1.0000
51.3200 1149.0000 1.0000
51.3300 1301.0000 1.0000
51.3400 1351.0000 1.0000
51.3500 1456.0000 1.0000
51.3600 1664.0000 1.0000
51.3700 1781.0000 1.0000
51.3800 1904.0000 1.0000
51.3900 2043.0000 1.0000
51.4000 2197.0000 1.0000
51.4100 2351.0000 1.0000
51.4200 2569.0000 1.0000
51.4300 2622.0000 1.0000
51.4400 2714.0000 1.0000
51.4500 2856.0000 1.0000
51.4600 2911.0000 1.0000
51.4700 2901.0000 1.0000
51.4800 2968.0000 1.0000
51.4900 3031.0000 1.0000
51.5000 2999.0000 1.0000
51.5100 2856.0000 1.0000
51.5200 2846.0000 1.0000
51.5300 2745.0000 1.0000
51.5400 2604.0000 1.0000
51.5500 2529.0000 1.0000
51.5600 2478.0000 1.0000
51.5700 2303.0000 1.0000
51.5800 2349.0000 1.0000
51.5900 2227.0000 1.0000
51.6000 2268.0000 1.0000
51.6100 2168.0000 1.0000
51.6200 2021.0000 1.0000
51.6300 1959.0000 1.0000
51.6400 1851.0000 1.0000
51.6500 1693.0000 1.0000
51.6600 1653.0000 1.0000
51.6700 1547.0000 1.0000
51.6800 1435.0000 1.0000
51.6900 1353.0000 1.0000
51.7000 1176.0000 1.0000
51.7100 1162.0000 1.0000
51.7200 1079.0000 1.0000
51.7300 1026.0000 1.0000
51.7400 911.0000 1.0000
51.7500 879.0000 1.0000
51.7600 879.0000 1.0000
51.7700 832.0000 1.0000
51.7800 775.0000 1.0000
51.7900 724.0000 1.0000
51.8000 713.0000 1.0000
51.8100 662.0000 1.0000
51.8200 647.0000 1.0000
51.8300 648.0000 1.0000
51.8400 622.0000 1.0000
51.8500 624.0000 1.0000
51.8600 576.0000 1.0000
51.8700 576.0000 1.0000
51.8800 565.0000 1.0000
51.8900 596.0000 1.0000
51.9000 540.0000 1.0000
51.9100 552.0000 1.0000
51.9200 546.0000 1.0000
51.9300 538.0000 1.0000
51.9400 545.0000 1.0000
51.9500 526.0000 1.0000
51.9600 489.0000 1.0000
51.9700 513.0000 1.0000
51.9800 536.0000 1.0000
51.9900 491.0000 1.0000
52.0000 481.0000 1.0000
52.0100 483.0000 1.0000
52.0200 481.0000 1.0000
52.0300 459.0000 1.0000
52.0400 466.0000 1.0000
52.0500 443.0000 1.0000
52.0600 463.0000 1.0000
52.0700 474.0000 1.0000
52.0800 444.0000 1.0000
52.0900 461.0000 1.0000
52.1000 433.0000 1.0000
52.1100 413.0000 1.0000
52.1200 446.0000 1.0000
52.1300 456.0000 1.0000
52.1400 447.0000 1.0000
52.1500 451.0000 1.0000
52.1600 450.0000 1.0000
52.1700 420.0000 1.0000
52.1800 467.0000 1.0000
52.1900 446.0000 1.0000
52.2000 454.0000 1.0000
52.2100 439.0000 1.0000
52.2200 451.0000 1.0000
52.2300 411.0000 1.0000
52.2400 434.0000 1.0000
52.2500 455.0000 1.0000
52.2600 416.0000 1.0000
52.2700 423.0000 1.0000
52.2800 441.0000 1.0000
52.2900 434.0000 1.0000
52.3000 417.0000 1.0000
52.3100 430.0000 1.0000
52.3200 406.0000 1.0000
52.3300 396.0000 1.0000
52.3400 404.0000 1.0000
52.3500 425.0000 1.0000
52.3600 435.0000 1.0000
52.3700 393.0000 1.0000
52.3800 432.0000 1.0000
52.3900 410.0000 1.0000
52.4000 403.0000 1.0000
52.4100 408.0000 1.0000
52.4200 442.0000 1.0000
52.4300 424.0000 1.0000
52.4400 395.0000 1.0000
52.4500 399.0000 1.0000
52.4600 403.0000 1.0000
52.4700 412.0000 1.0000
52.4800 399.0000 1.0000
52.4900 424.0000 1.0000
52.5000 414.0000 1.0000
52.5100 405.0000 1.0000
52.5200 423.0000 1.0000
52.5300 407.0000 1.0000
52.5400 436.0000 1.0000
52.5500 394.0000 1.0000
52.5600 382.0000 1.0000
52.5700 378.0000 1.0000
52.5800 393.0000 1.0000
52.5900 412.0000 1.0000
52.6000 411.0000 1.0000
52.6100 417.0000 1.0000
52.6200 387.0000 1.0000
52.6300 376.0000 1.0000
52.6400 398.0000 1.0000
52.6500 396.0000 1.0000
52.6600 412.0000 1.0000
52.6700 411.0000 1.0000
52.6800 424.0000 1.0000
52.6900 419.0000 1.0000
52.7000 386.0000 1.0000
52.7100 426.0000 1.0000
52.7200 433.0000 1.0000
52.7300 435.0000 1.0000
52.7400 412.0000 1.0000
52.7500 393.0000 1.0000
52.7600 426.0000 1.0000
52.7700 404.0000 1.0000
52.7800 405.0000 1.0000
52.7900 388.0000 1.0000
52.8000 406.0000 1.0000
52.8100 425.0000 1.0000
52.8200 415.0000 1.0000
52.8300 414.0000 1.0000
52.8400 401.0000 1.0000
52.8500 391.0000 1.0000
52.8600 407.0000 1.0000
52.8700 406.0000 1.0000
52.8800 370.0000 1.0000
52.8900 397.0000 1.0000
52.9000 394.0000 1.0000
52.9100 416.0000 1.0000
52.9200 426.0000 1.0000
52.9300 411.0000 1.0000
52.9400 380.0000 1.0000
52.9500 405.0000 1.0000
52.9600 384.0000 1.0000
52.9700 399.0000 1.0000
52.9800 393.0000 1.0000
52.9900 408.0000 1.0000
53.0000 398.0000 1.0000
53.0100 387.0000 1.0000
53.0200 391.0000 1.0000
53.0300 398.0000 1.0000
53.0400 403.0000 1.0000
53.0500 424.0000 1.0000
53.0600 399.0000 1.0000
53.0700 374.0000 1.0000
53.0800 403.0000 1.0000
53.0900 410.0000 1.0000
53.1000 360.0000 1.0000
53.1100 377.0000 1.0000
53.1200 438.0000 1.0000
53.1300 411.0000 1.0000
53.1400 387.0000 1.0000
53.1500 420.0000 1.0000
53.1600 374.0000 1.0000
53.1700 392.0000 1.0000
53.1800 385.0000 1.0000
53.1900 403.0000 1.0000
53.2000 424.0000 1.0000
53.2100 404.0000 1.0000
53.2200 385.0000 1.0000
53.2300 399.0000 1.0000
53.2400 430.0000 1.0000
53.2500 374.0000 1.0000
53.2600 386.0000 1.0000
53.2700 383.0000 1.0000
53.2800 420.0000 1.0000
53.2900 414.0000 1.0000
53.3000 377.0000 1.0000
53.3100 394.0000 1.0000
53.3200 428.0000 1.0000
53.3300 419.0000 1.0000
53.3400 416.0000 1.0000
53.3500 412.0000 1.0000
53.3600 409.0000 1.0000
53.3700 373.0000 1.0000
53.3800 380.0000 1.0000
53.3900 383.0000 1.0000
53.4000 397.0000 1.0000
53.4100 393.0000 1.0000
53.4200 377.0000 1.0000
53.4300 385.0000 1.0000
53.4400 399.0000 1.0000
53.4500 408.0000 1.0000
53.4600 363.0000 1.0000
53.4700 384.0000 1.0000
53.4800 400.0000 1.0000
53.4900 402.0000 1.0000
53.5000 384.0000 1.0000
53.5100 367.0000 1.0000
53.5200 408.0000 1.0000
53.5300 419.0000 1.0000
53.5400 437.0000 1.0000
53.5500 392.0000 1.0000
53.5600 410.0000 1.0000
53.5700 398.0000 1.0000
53.5800 364.0000 1.0000
53.5900 379.0000 1.0000
53.6000 368.0000 1.0000
53.6100 354.0000 1.0000
53.6200 400.0000 1.0000
53.6300 378.0000 1.0000
53.6400 406.0000 1.0000
53.6500 408.0000 1.0000
53.6600 439.0000 1.0000
53.6700 409.0000 1.0000
53.6800 410.0000 1.0000
53.6900 391.0000 1.0000
53.7000 403.0000 1.0000
53.7100 393.0000 1.0000
53.7200 419.0000 1.0000
53.7300 401.0000 1.0000
53.7400 400.0000 1.0000
53.7500 418.0000 1.0000
53.7600 407.0000 1.0000
53.7700 419.0000 1.0000
53.7800 416.0000 1.0000
53.7900 402.0000 1.0000
53.8000 411.0000 1.0000
53.8100 423.0000 1.0000
53.8200 398.0000 1.0000
53.8300 393.0000 1.0000
53.8400 405.0000 1.0000
53.8500 411.0000 1.0000
53.8600 405.0000 1.0000
53.8700 442.0000 1.0000
53.8800 428.0000 1.0000
53.8900 427.0000 1.0000
53.9000 430.0000 1.0000
53.9100 438.0000 1.0000
53.9200 441.0000 1.0000
53.9300 410.0000 1.0000
53.9400 473.0000 1.0000
53.9500 490.0000 1.0000
53.9600 490.0000 1.0000
53.9700 483.0000 1.0000
53.9800 444.0000 1.0000
53.9900 472.0000 1.0000
54.0000 488.0000 1.0000
54.0100 528.0000 1.0000
54.0200 534.0000 1.0000
54.0300 472.0000 1.0000
54.0400 511.0000 1.0000
54.0500 467.0000 1.0000
54.0600 487.0000 1.0000
54.0700 479.0000 1.0000
54.0800 488.0000 1.0000
54.0900 473.0000 1.0000
54.1000 466.0000 1.0000
54.1100 485.0000 1.0000
54.1200 431.0000 1.0000
54.1300 471.0000 1.0000
54.1400 494.0000 1.0000
54.1500 456.0000 1.0000
54.1600 477.0000 1.0000
54.1700 488.0000 1.0000
54.1800 480.0000 1.0000
54.1900 487.0000 1.0000
54.2000 478.0000 1.0000
54.2100 469.0000 1.0000
54.2200 476.0000 1.0000
54.2300 507.0000 1.0000
54.2400 464.0000 1.0000
54.2500 455.0000 1.0000
54.2600 453.0000 1.0000
54.2700 473.0000 1.0000
54.2800 469.0000 1.0000
54.2900 476.0000 1.0000
54.3000 467.0000 1.0000
54.3100 482.0000 1.0000
54.3200 471.0000 1.0000
54.3300 475.0000 1.0000
54.3400 497.0000 1.0000
54.3500 474.0000 1.0000
54.3600 502.0000 1.0000
54.3700 506.0000 1.0000
54.3800 531.0000 1.0000
54.3900 541.0000 1.0000
54.4000 542.0000 1.0000
54.4100 550.0000 1.0000
54.4200 528.0000 1.0000
54.4300 571.0000 1.0000
54.4400 581.0000 1.0000
54.4500 589.0000 1.0000
54.4600 634.0000 1.0000
54.4700 641.0000 1.0000
54.4800 614.0000 1.0000
54.4900 603.0000 1.0000
54.5000 598.0000 1.0000
54.5100 627.0000 1.0000
54.5200 604.0000 1.0000
54.5300 578.0000 1.0000
54.5400 608.0000 1.0000
54.5500 608.0000 1.0000
54.5600 604.0000 1.0000
54.5700 596.0000 1.0000
54.5800 634.0000 1.0000
54.5900 581.0000 1.0000
54.6000 614.0000 1.0000
54.6100 590.0000 1.0000
54.6200 580.0000 1.0000
54.6300 569.0000 1.0000
54.6400 571.0000 1.0000
54.6500 534.0000 1.0000
54.6600 544.0000 1.0000
54.6700 567.0000 1.0000
54.6800 544.0000 1.0000
54.6900 528.0000 1.0000
54.7000 507.0000 1.0000
54.7100 489.0000 1.0000
54.7200 447.0000 1.0000
54.7300 508.0000 1.0000
54.7400 500.0000 1.0000
54.7500 462.0000 1.0000
54.7600 473.0000 1.0000
54.7700 468.0000 1.0000
54.7800 469.0000 1.0000
54.7900 455.0000 1.0000
54.8000 445.0000 1.0000
54.8100 442.0000 1.0000
54.8200 430.0000 1.0000
54.8300 436.0000 1.0000
54.8400 422.0000 1.0000
54.8500 436.0000 1.0000
54.8600 434.0000 1.0000
54.8700 438.0000 1.0000
54.8800 448.0000 1.0000
54.8900 434.0000 1.0000
54.9000 426.0000 1.0000
54.9100 407.0000 1.0000
54.9200 388.0000 1.0000
54.9300 415.0000 1.0000
54.9400 402.0000 1.0000
54.9500 436.0000 1.0000
54.9600 443.0000 1.0000
54.9700 413.0000 1.0000
54.9800 397.0000 1.0000
54.9900 407.0000 1.0000
55.0000 422.0000 1.0000
55.0100 364.0000 1.0000
55.0200 425.0000 1.0000
55.0300 440.0000 1.0000
55.0400 429.0000 1.0000
55.0500 450.0000 1.0000
55.0600 386.0000 1.0000
55.0700 410.0000 1.0000
55.0800 385.0000 1.0000
55.0900 410.0000 1.0000
55.1000 395.0000 1.0000
55.1100 372.0000 1.0000
55.1200 436.0000 1.0000
55.1300 405.0000 1.0000
55.1400 409.0000 1.0000
55.1500 417.0000 1.0000
55.1600 409.0000 1.0000
55.1700 397.0000 1.0000
55.1800 392.0000 1.0000
55.1900 375.0000 1.0000
55.2000 386.0000 1.0000
55.2100 399.0000 1.0000
55.2200 401.0000 1.0000
55.2300 395.0000 1.0000
55.2400 380.0000 1.0000
55.2500 383.0000 1.0000
55.2600 385.0000 1.0000
55.2700 376.0000 1.0000
55.2800 416.0000 1.0000
55.2900 383.0000 1.0000
55.3000 417.0000 1.0000
55.3100 381.0000 1.0000
55.3200 394.0000 1.0000
55.3300 416.0000 1.0000
55.3400 410.0000 1.0000
55.3500 419.0000 1.0000
55.3600 369.0000 1.0000
55.3700 349.0000 1.0000
55.3800 346.0000 1.0000
55.3900 385.0000 1.0000
55.4000 387.0000 1.0000
55.4100 361.0000 1.0000
55.4200 409.0000 1.0000
55.4300 358.0000 1.0000
55.4400 390.0000 1.0000
55.4500 347.0000 1.0000
55.4600 380.0000 1.0000
55.4700 407.0000 1.0000
55.4800 417.0000 1.0000
55.4900 380.0000 1.0000
55.5000 383.0000 1.0000
55.5100 367.0000 1.0000
55.5200 377.0000 1.0000
55.5300 389.0000 1.0000
55.5400 389.0000 1.0000
55.5500 387.0000 1.0000
55.5600 401.0000 1.0000
55.5700 383.0000 1.0000
55.5800 393.0000 1.0000
55.5900 382.0000 1.0000
55.6000 366.0000 1.0000
55.6100 403.0000 1.0000
55.6200 355.0000 1.0000
55.6300 377.0000 1.0000
55.6400 362.0000 1.0000
55.6500 403.0000 1.0000
55.6600 375.0000 1.0000
55.6700 359.0000 1.0000
55.6800 390.0000 1.0000
55.6900 399.0000 1.0000
55.7000 398.0000 1.0000
55.7100 387.0000 1.0000
55.7200 373.0000 1.0000
55.7300 362.0000 1.0000
55.7400 382.0000 1.0000
55.7500 392.0000 1.0000
55.7600 416.0000 1.0000
55.7700 359.0000 1.0000
55.7800 381.0000 1.0000
55.7900 373.0000 1.0000
55.8000 355.0000 1.0000
55.8100 370.0000 1.0000
55.8200 389.0000 1.0000
55.8300 350.0000 1.0000
55.8400 374.0000 1.0000
55.8500 377.0000 1.0000
55.8600 363.0000 1.0000
55.8700 386.0000 1.0000
55.8800 376.0000 1.0000
55.8900 365.0000 1.0000
55.9000 355.0000 1.0000
55.9100 390.0000 1.0000
55.9200 384.0000 1.0000
55.9300 374.0000 1.0000
55.9400 390.0000 1.0000
55.9500 384.0000 1.0000
55.9600 384.0000 1.0000
55.9700 375.0000 1.0000
55.9800 365.0000 1.0000
55.9900 356.0000 1.0000
56.0000 388.0000 1.0000
56.0100 376.0000 1.0000
56.0200 389.0000 1.0000
56.0300 387.0000 1.0000
56.0400 381.0000 1.0000
56.0500 371.0000 1.0000
56.0600 390.0000 1.0000
56.0700 369.0000 1.0000
56.0800 393.0000 1.0000
56.0900 368.0000 1.0000
56.1000 400.0000 1.0000
56.1100 397.0000 1.0000
56.1200 384.0000 1.0000
56.1300 372.0000 1.0000
56.1400 357.0000 1.0000
56.1500 378.0000 1.0000
56.1600 376.0000 1.0000
56.1700 383.0000 1.0000
56.1800 392.0000 1.0000
56.1900 388.0000 1.0000
56.2000 406.0000 1.0000
56.2100 370.0000 1.0000
56.2200 343.0000 1.0000
56.2300 350.0000 1.0000
56.2400 371.0000 1.0000
56.2500 404.0000 1.0000
56.2600 369.0000 1.0000
56.2700 382.0000 1.0000
56.2800 373.0000 1.0000
56.2900 367.0000 1.0000
56.3000 347.0000 1.0000
56.3100 398.0000 1.0000
56.3200 426.0000 1.0000
56.3300 367.0000 1.0000
56.3400 350.0000 1.0000
56.3500 391.0000 1.0000
56.3600 380.0000 1.0000
56.3700 347.0000 1.0000
56.3800 364.0000 1.0000
56.3900 399.0000 1.0000
56.4000 345.0000 1.0000
56.4100 386.0000 1.0000
56.4200 383.0000 1.0000
56.4300 389.0000 1.0000
56.4400 351.0000 1.0000
56.4500 389.0000 1.0000
56.4600 351.0000 1.0000
56.4700 389.0000 1.0000
56.4800 371.0000 1.0000
56.4900 389.0000 1.0000
56.5000 380.0000 1.0000
56.5100 358.0000 1.0000
56.5200 397.0000 1.0000
56.5300 364.0000 1.0000
56.5400 364.0000 1.0000
56.5500 373.0000 1.0000
56.5600 355.0000 1.0000
56.5700 362.0000 1.0000
56.5800 356.0000 1.0000
56.5900 387.0000 1.0000
56.6000 392.0000 1.0000
56.6100 368.0000 1.0000
56.6200 361.0000 1.0000
56.6300 352.0000 1.0000
56.6400 407.0000 1.0000
56.6500 331.0000 1.0000
56.6600 376.0000 1.0000
56.6700 353.0000 1.0000
56.6800 374.0000 1.0000
56.6900 363.0000 1.0000
56.7000 378.0000 1.0000
56.7100 390.0000 1.0000
56.7200 398.0000 1.0000
56.7300 387.0000 1.0000
56.7400 416.0000 1.0000
56.7500 396.0000 1.0000
56.7600 357.0000 1.0000
56.7700 421.0000 1.0000
56.7800 373.0000 1.0000
56.7900 344.0000 1.0000
56.8000 367.0000 1.0000
56.8100 390.0000 1.0000
56.8200 363.0000 1.0000
56.8300 386.0000 1.0000
56.8400 361.0000 1.0000
56.8500 411.0000 1.0000
56.8600 388.0000 1.0000
56.8700 417.0000 1.0000
56.8800 367.0000 1.0000
56.8900 358.0000 1.0000
56.9000 386.0000 1.0000
56.9100 371.0000 1.0000
56.9200 366.0000 1.0000
56.9300 376.0000 1.0000
56.9400 399.0000 1.0000
56.9500 348.0000 1.0000
56.9600 385.0000 1.0000
56.9700 385.0000 1.0000
56.9800 380.0000 1.0000
56.9900 361.0000 1.0000
57.0000 357.0000 1.0000
57.0100 368.0000 1.0000
57.0200 370.0000 1.0000
57.0300 403.0000 1.0000
57.0400 394.0000 1.0000
57.0500 375.0000 1.0000
57.0600 397.0000 1.0000
57.0700 388.0000 1.0000
57.0800 359.0000 1.0000
57.0900 380.0000 1.0000
57.1000 374.0000 1.0000
57.1100 360.0000 1.0000
57.1200 382.0000 1.0000
57.1300 386.0000 1.0000
57.1400 374.0000 1.0000
57.1500 362.0000 1.0000
57.1600 374.0000 1.0000
57.1700 368.0000 1.0000
57.1800 369.0000 1.0000
57.1900 352.0000 1.0000
57.2000 361.0000 1.0000
57.2100 356.0000 1.0000
57.2200 388.0000 1.0000
57.2300 385.0000 1.0000
57.2400 378.0000 1.0000
57.2500 402.0000 1.0000
57.2600 375.0000 1.0000
57.2700 373.0000 1.0000
57.2800 365.0000 1.0000
57.2900 357.0000 1.0000
57.3000 360.0000 1.0000
57.3100 379.0000 1.0000
57.3200 361.0000 1.0000
57.3300 382.0000 1.0000
57.3400 389.0000 1.0000
57.3500 381.0000 1.0000
57.3600 385.0000 1.0000
57.3700 416.0000 1.0000
57.3800 372.0000 1.0000
57.3900 381.0000 1.0000
57.4000 380.0000 1.0000
57.4100 373.0000 1.0000
57.4200 410.0000 1.0000
57.4300 421.0000 1.0000
57.4400 431.0000 1.0000
57.4500 391.0000 1.0000
57.4600 401.0000 1.0000
57.4700 391.0000 1.0000
57.4800 429.0000 1.0000
57.4900 385.0000 1.0000
57.5000 379.0000 1.0000
57.5100 412.0000 1.0000
57.5200 376.0000 1.0000
57.5300 380.0000 1.0000
57.5400 396.0000 1.0000
57.5500 382.0000 1.0000
57.5600 387.0000 1.0000
57.5700 366.0000 1.0000
57.5800 380.0000 1.0000
57.5900 374.0000 1.0000
57.6000 396.0000 1.0000
57.6100 394.0000 1.0000
57.6200 366.0000 1.0000
57.6300 375.0000 1.0000
57.6400 389.0000 1.0000
57.6500 387.0000 1.0000
57.6600 358.0000 1.0000
57.6700 415.0000 1.0000
57.6800 386.0000 1.0000
57.6900 383.0000 1.0000
57.7000 401.0000 1.0000
57.7100 405.0000 1.0000
57.7200 383.0000 1.0000
57.7300 398.0000 1.0000
57.7400 375.0000 1.0000
57.7500 393.0000 1.0000
57.7600 396.0000 1.0000
57.7700 376.0000 1.0000
57.7800 379.0000 1.0000
57.7900 412.0000 1.0000
57.8000 400.0000 1.0000
57.8100 395.0000 1.0000
57.8200 374.0000 1.0000
57.8300 400.0000 1.0000
57.8400 367.0000 1.0000
57.8500 377.0000 1.0000
57.8600 390.0000 1.0000
57.8700 391.0000 1.0000
57.8800 398.0000 1.0000
57.8900 363.0000 1.0000
57.9000 378.0000 1.0000
57.9100 345.0000 1.0000
57.9200 374.0000 1.0000
57.9300 339.0000 1.0000
57.9400 360.0000 1.0000
57.9500 399.0000 1.0000
57.9600 373.0000 1.0000
57.9700 394.0000 1.0000
57.9800 401.0000 1.0000
57.9900 386.0000 1.0000
58.0000 384.0000 1.0000
58.0100 364.0000 1.0000
58.0200 395.0000 1.0000
58.0300 359.0000 1.0000
58.0400 389.0000 1.0000
58.0500 378.0000 1.0000
58.0600 373.0000 1.0000
58.0700 384.0000 1.0000
58.0800 357.0000 1.0000
58.0900 365.0000 1.0000
58.1000 356.0000 1.0000
58.1100 358.0000 1.0000
58.1200 362.0000 1.0000
58.1300 376.0000 1.0000
58.1400 364.0000 1.0000
58.1500 342.0000 1.0000
58.1600 356.0000 1.0000
58.1700 376.0000 1.0000
58.1800 355.0000 1.0000
58.1900 374.0000 1.0000
58.2000 390.0000 1.0000
58.2100 349.0000 1.0000
58.2200 360.0000 1.0000
58.2300 346.0000 1.0000
58.2400 376.0000 1.0000
58.2500 373.0000 1.0000
58.2600 387.0000 1.0000
58.2700 389.0000 1.0000
58.2800 383.0000 1.0000
58.2900 393.0000 1.0000
58.3000 365.0000 1.0000
58.3100 354.0000 1.0000
58.3200 363.0000 1.0000
58.3300 400.0000 1.0000
58.3400 411.0000 1.0000
58.3500 392.0000 1.0000
58.3600 370.0000 1.0000
58.3700 397.0000 1.0000
58.3800 397.0000 1.0000
58.3900 369.0000 1.0000
58.4000 374.0000 1.0000
58.4100 390.0000 1.0000
58.4200 374.0000 1.0000
58.4300 379.0000 1.0000
58.4400 382.0000 1.0000
58.4500 391.0000 1.0000
58.4600 413.0000 1.0000
58.4700 365.0000 1.0000
58.4800 390.0000 1.0000
58.4900 362.0000 1.0000
58.5000 369.0000 1.0000
58.5100 385.0000 1.0000
58.5200 387.0000 1.0000
58.5300 404.0000 1.0000
58.5400 380.0000 1.0000
58.5500 365.0000 1.0000
58.5600 372.0000 1.0000
58.5700 385.0000 1.0000
58.5800 373.0000 1.0000
58.5900 352.0000 1.0000
58.6000 358.0000 1.0000
58.6100 357.0000 1.0000
58.6200 377.0000 1.0000
58.6300 379.0000 1.0000
58.6400 355.0000 1.0000
58.6500 379.0000 1.0000
58.6600 358.0000 1.0000
58.6700 377.0000 1.0000
58.6800 402.0000 1.0000
58.6900 408.0000 1.0000
58.7000 404.0000 1.0000
58.7100 368.0000 1.0000
58.7200 360.0000 1.0000
58.7300 362.0000 1.0000
58.7400 365.0000 1.0000
58.7500 392.0000 1.0000
58.7600 366.0000 1.0000
58.7700 367.0000 1.0000
58.7800 361.0000 1.0000
58.7900 376.0000 1.0000
58.8000 383.0000 1.0000
58.8100 356.0000 1.0000
58.8200 358.0000 1.0000
58.8300 400.0000 1.0000
58.8400 385.0000 1.0000
58.8500 356.0000 1.0000
58.8600 377.0000 1.0000
58.8700 352.0000 1.0000
58.8800 388.0000 1.0000
58.8900 394.0000 1.0000
58.9000 360.0000 1.0000
58.9100 352.0000 1.0000
58.9200 355.0000 1.0000
58.9300 361.0000 1.0000
58.9400 373.0000 1.0000
58.9500 403.0000 1.0000
58.9600 377.0000 1.0000
58.9700 389.0000 1.0000
58.9800 385.0000 1.0000
58.9900 396.0000 1.0000
59.0000 394.0000 1.0000
59.0100 377.0000 1.0000
59.0200 370.0000 1.0000
59.0300 373.0000 1.0000
59.0400 368.0000 1.0000
59.0500 392.0000 1.0000
59.0600 379.0000 1.0000
59.0700 363.0000 1.0000
59.0800 382.0000 1.0000
59.0900 367.0000 1.0000
59.1000 380.0000 1.0000
59.1100 381.0000 1.0000
59.1200 374.0000 1.0000
59.1300 398.0000 1.0000
59.1400 381.0000 1.0000
59.1500 409.0000 1.0000
59.1600 393.0000 1.0000
59.1700 346.0000 1.0000
59.1800 325.0000 1.0000
59.1900 377.0000 1.0000
59.2000 390.0000 1.0000
59.2100 364.0000 1.0000
59.2200 365.0000 1.0000
59.2300 367.0000 1.0000
59.2400 388.0000 1.0000
59.2500 411.0000 1.0000
59.2600 386.0000 1.0000
59.2700 338.0000 1.0000
59.2800 352.0000 1.0000
59.2900 372.0000 1.0000
59.3000 355.0000 1.0000
59.3100 370.0000 1.0000
59.3200 345.0000 1.0000
59.3300 366.0000 1.0000
59.3400 370.0000 1.0000
59.3500 380.0000 1.0000
59.3600 340.0000 1.0000
59.3700 366.0000 1.0000
59.3800 386.0000 1.0000
59.3900 375.0000 1.0000
59.4000 363.0000 1.0000
59.4100 396.0000 1.0000
59.4200 363.0000 1.0000
59.4300 363.0000 1.0000
59.4400 343.0000 1.0000
59.4500 388.0000 1.0000
59.4600 394.0000 1.0000
59.4700 362.0000 1.0000
59.4800 357.0000 1.0000
59.4900 367.0000 1.0000
59.5000 369.0000 1.0000
59.5100 396.0000 1.0000
59.5200 372.0000 1.0000
59.5300 345.0000 1.0000
59.5400 384.0000 1.0000
59.5500 358.0000 1.0000
59.5600 373.0000 1.0000
59.5700 373.0000 1.0000
59.5800 375.0000 1.0000
59.5900 380.0000 1.0000
59.6000 373.0000 1.0000
59.6100 361.0000 1.0000
59.6200 387.0000 1.0000
59.6300 368.0000 1.0000
59.6400 371.0000 1.0000
59.6500 347.0000 1.0000
59.6600 358.0000 1.0000
59.6700 365.0000 1.0000
59.6800 373.0000 1.0000
59.6900 379.0000 1.0000
59.7000 374.0000 1.0000
59.7100 359.0000 1.0000
59.7200 372.0000 1.0000
59.7300 364.0000 1.0000
59.7400 358.0000 1.0000
59.7500 362.0000 1.0000
59.7600 359.0000 1.0000
59.7700 366.0000 1.0000
59.7800 355.0000 1.0000
59.7900 347.0000 1.0000
59.8000 388.0000 1.0000
59.8100 380.0000 1.0000
59.8200 360.0000 1.0000
59.8300 382.0000 1.0000
59.8400 369.0000 1.0000
59.8500 355.0000 1.0000
59.8600 331.0000 1.0000
59.8700 387.0000 1.0000
59.8800 371.0000 1.0000
59.8900 397.0000 1.0000
59.9000 389.0000 1.0000
59.9100 366.0000 1.0000
59.9200 372.0000 1.0000
59.9300 397.0000 1.0000
59.9400 371.0000 1.0000
59.9500 381.0000 1.0000
59.9600 377.0000 1.0000
59.9700 320.0000 1.0000
59.9800 392.0000 1.0000
59.9900 360.0000 1.0000
60.0000 364.0000 1.0000
60.0100 368.0000 1.0000
60.0200 346.0000 1.0000
60.0300 381.0000 1.0000
60.0400 374.0000 1.0000
60.0500 366.0000 1.0000
60.0600 369.0000 1.0000
60.0700 390.0000 1.0000
60.0800 328.0000 1.0000
60.0900 353.0000 1.0000
60.1000 392.0000 1.0000
60.1100 366.0000 1.0000
60.1200 361.0000 1.0000
60.1300 362.0000 1.0000
60.1400 349.0000 1.0000
60.1500 349.0000 1.0000
60.1600 320.0000 1.0000
60.1700 368.0000 1.0000
60.1800 355.0000 1.0000
60.1900 347.0000 1.0000
60.2000 351.0000 1.0000
60.2100 362.0000 1.0000
60.2200 386.0000 1.0000
60.2300 371.0000 1.0000
60.2400 347.0000 1.0000
60.2500 382.0000 1.0000
60.2600 352.0000 1.0000
60.2700 365.0000 1.0000
60.2800 384.0000 1.0000
60.2900 377.0000 1.0000
60.3000 363.0000 1.0000
60.3100 361.0000 1.0000
60.3200 376.0000 1.0000
60.3300 339.0000 1.0000
60.3400 335.0000 1.0000
60.3500 350.0000 1.0000
60.3600 366.0000 1.0000
60.3700 337.0000 1.0000
60.3800 357.0000 1.0000
60.3900 362.0000 1.0000
60.4000 353.0000 1.0000
60.4100 381.0000 1.0000
60.4200 385.0000 1.0000
60.4300 388.0000 1.0000
60.4400 355.0000 1.0000
60.4500 395.0000 1.0000
60.4600 355.0000 1.0000
60.4700 351.0000 1.0000
60.4800 360.0000 1.0000
60.4900 381.0000 1.0000
60.5000 385.0000 1.0000
60.5100 369.0000 1.0000
60.5200 367.0000 1.0000
60.5300 364.0000 1.0000
60.5400 370.0000 1.0000
60.5500 347.0000 1.0000
60.5600 367.0000 1.0000
60.5700 355.0000 1.0000
60.5800 350.0000 1.0000
60.5900 362.0000 1.0000
60.6000 384.0000 1.0000
60.6100 381.0000 1.0000
60.6200 357.0000 1.0000
60.6300 372.0000 1.0000
60.6400 378.0000 1.0000
60.6500 358.0000 1.0000
60.6600 374.0000 1.0000
60.6700 341.0000 1.0000
60.6800 368.0000 1.0000
60.6900 371.0000 1.0000
60.7000 364.0000 1.0000
60.7100 376.0000 1.0000
60.7200 376.0000 1.0000
60.7300 364.0000 1.0000
60.7400 370.0000 1.0000
60.7500 363.0000 1.0000
60.7600 408.0000 1.0000
60.7700 397.0000 1.0000
60.7800 406.0000 1.0000
60.7900 361.0000 1.0000
60.8000 390.0000 1.0000
60.8100 361.0000 1.0000
60.8200 361.0000 1.0000
60.8300 367.0000 1.0000
60.8400 389.0000 1.0000
60.8500 369.0000 1.0000
60.8600 415.0000 1.0000
60.8700 386.0000 1.0000
60.8800 390.0000 1.0000
60.8900 374.0000 1.0000
60.9000 364.0000 1.0000
60.9100 397.0000 1.0000
60.9200 370.0000 1.0000
60.9300 373.0000 1.0000
60.9400 387.0000 1.0000
60.9500 377.0000 1.0000
60.9600 368.0000 1.0000
60.9700 392.0000 1.0000
60.9800 378.0000 1.0000
60.9900 374.0000 1.0000
61.0000 407.0000 1.0000
61.0100 369.0000 1.0000
61.0200 416.0000 1.0000
61.0300 404.0000 1.0000
61.0400 400.0000 1.0000
61.0500 403.0000 1.0000
61.0600 385.0000 1.0000
61.0700 404.0000 1.0000
61.0800 421.0000 1.0000
61.0900 410.0000 1.0000
61.1000 378.0000 1.0000
61.1100 417.0000 1.0000
61.1200 408.0000 1.0000
61.1300 400.0000 1.0000
61.1400 411.0000 1.0000
61.1500 446.0000 1.0000
61.1600 424.0000 1.0000
61.1700 423.0000 1.0000
61.1800 420.0000 1.0000
61.1900 453.0000 1.0000
61.2000 430.0000 1.0000
61.2100 431.0000 1.0000
61.2200 460.0000 1.0000
61.2300 443.0000 1.0000
61.2400 435.0000 1.0000
61.2500 487.0000 1.0000
61.2600 502.0000 1.0000
61.2700 493.0000 1.0000
61.2800 484.0000 1.0000
61.2900 465.0000 1.0000
61.3000 499.0000 1.0000
61.3100 499.0000 1.0000
61.3200 576.0000 1.0000
61.3300 566.0000 1.0000
61.3400 566.0000 1.0000
61.3500 587.0000 1.0000
61.3600 596.0000 1.0000
61.3700 654.0000 1.0000
61.3800 632.0000 1.0000
61.3900 677.0000 1.0000
61.4000 692.0000 1.0000
61.4100 656.0000 1.0000
61.4200 736.0000 1.0000
61.4300 766.0000 1.0000
61.4400 729.0000 1.0000
61.4500 803.0000 1.0000
61.4600 793.0000 1.0000
61.4700 803.0000 1.0000
61.4800 831.0000 1.0000
61.4900 819.0000 1.0000
61.5000 814.0000 1.0000
61.5100 804.0000 1.0000
61.5200 816.0000 1.0000
61.5300 824.0000 1.0000
61.5400 864.0000 1.0000
61.5500 857.0000 1.0000
61.5600 882.0000 1.0000
61.5700 852.0000 1.0000
61.5800 821.0000 1.0000
61.5900 837.0000 1.0000
61.6000 808.0000 1.0000
61.6100 816.0000 1.0000
61.6200 744.0000 1.0000
61.6300 770.0000 1.0000
61.6400 773.0000 1.0000
61.6500 771.0000 1.0000
61.6600 759.0000 1.0000
61.6700 751.0000 1.0000
61.6800 749.0000 1.0000
61.6900 801.0000 1.0000
61.7000 683.0000 1.0000
61.7100 702.0000 1.0000
61.7200 715.0000 1.0000
61.7300 716.0000 1.0000
61.7400 662.0000 1.0000
61.7500 675.0000 1.0000
61.7600 646.0000 1.0000
61.7700 602.0000 1.0000
61.7800 585.0000 1.0000
61.7900 598.0000 1.0000
61.8000 591.0000 1.0000
61.8100 600.0000 1.0000
61.8200 582.0000 1.0000
61.8300 523.0000 1.0000
61.8400 528.0000 1.0000
61.8500 546.0000 1.0000
61.8600 504.0000 1.0000
61.8700 499.0000 1.0000
61.8800 499.0000 1.0000
61.8900 483.0000 1.0000
61.9000 460.0000 1.0000
61.9100 484.0000 1.0000
61.9200 476.0000 1.0000
61.9300 488.0000 1.0000
61.9400 495.0000 1.0000
61.9500 492.0000 1.0000
61.9600 471.0000 1.0000
61.9700 475.0000 1.0000
61.9800 458.0000 1.0000
61.9900 427.0000 1.0000
62.0000 443.0000 1.0000
62.0100 446.0000 1.0000
62.0200 446.0000 1.0000
62.0300 454.0000 1.0000
62.0400 464.0000 1.0000
62.0500 398.0000 1.0000
62.0600 399.0000 1.0000
62.0700 417.0000 1.0000
62.0800 435.0000 1.0000
62.0900 460.0000 1.0000
62.1000 428.0000 1.0000
62.1100 394.0000 1.0000
62.1200 415.0000 1.0000
62.1300 432.0000 1.0000
62.1400 415.0000 1.0000
62.1500 417.0000 1.0000
62.1600 423.0000 1.0000
62.1700 433.0000 1.0000
62.1800 414.0000 1.0000
62.1900 386.0000 1.0000
62.2000 395.0000 1.0000
62.2100 382.0000 1.0000
62.2200 401.0000 1.0000
62.2300 406.0000 1.0000
62.2400 414.0000 1.0000
62.2500 397.0000 1.0000
62.2600 395.0000 1.0000
62.2700 406.0000 1.0000
62.2800 448.0000 1.0000
62.2900 391.0000 1.0000
62.3000 415.0000 1.0000
62.3100 412.0000 1.0000
62.3200 415.0000 1.0000
62.3300 432.0000 1.0000
62.3400 386.0000 1.0000
62.3500 445.0000 1.0000
62.3600 419.0000 1.0000
62.3700 416.0000 1.0000
62.3800 428.0000 1.0000
62.3900 436.0000 1.0000
62.4000 402.0000 1.0000
62.4100 429.0000 1.0000
62.4200 415.0000 1.0000
62.4300 440.0000 1.0000
62.4400 414.0000 1.0000
62.4500 417.0000 1.0000
62.4600 418.0000 1.0000
62.4700 415.0000 1.0000
62.4800 416.0000 1.0000
62.4900 434.0000 1.0000
62.5000 407.0000 1.0000
62.5100 422.0000 1.0000
62.5200 404.0000 1.0000
62.5300 395.0000 1.0000
62.5400 396.0000 1.0000
62.5500 403.0000 1.0000
62.5600 403.0000 1.0000
62.5700 386.0000 1.0000
62.5800 380.0000 1.0000
62.5900 384.0000 1.0000
62.6000 390.0000 1.0000
62.6100 373.0000 1.0000
62.6200 410.0000 1.0000
62.6300 350.0000 1.0000
62.6400 379.0000 1.0000
62.6500 374.0000 1.0000
62.6600 368.0000 1.0000
62.6700 373.0000 1.0000
62.6800 396.0000 1.0000
62.6900 356.0000 1.0000
62.7000 407.0000 1.0000
62.7100 402.0000 1.0000
62.7200 386.0000 1.0000
62.7300 366.0000 1.0000
62.7400 372.0000 1.0000
62.7500 406.0000 1.0000
62.7600 349.0000 1.0000
62.7700 366.0000 1.0000
62.7800 363.0000 1.0000
62.7900 370.0000 1.0000
62.8000 358.0000 1.0000
62.8100 359.0000 1.0000
62.8200 380.0000 1.0000
62.8300 324.0000 1.0000
62.8400 371.0000 1.0000
62.8500 380.0000 1.0000
62.8600 350.0000 1.0000
62.8700 388.0000 1.0000
62.8800 394.0000 1.0000
62.8900 362.0000 1.0000
62.9000 411.0000 1.0000
62.9100 364.0000 1.0000
62.9200 394.0000 1.0000
62.9300 355.0000 1.0000
62.9400 352.0000 1.0000
62.9500 361.0000 1.0000
62.9600 377.0000 1.0000
62.9700 371.0000 1.0000
62.9800 382.0000 1.0000
62.9900 391.0000 1.0000
63.0000 353.0000 1.0000
63.0100 402.0000 1.0000
63.0200 370.0000 1.0000
63.0300 344.0000 1.0000
63.0400 355.0000 1.0000
63.0500 357.0000 1.0000
63.0600 376.0000 1.0000
63.0700 360.0000 1.0000
63.0800 388.0000 1.0000
63.0900 370.0000 1.0000
63.1000 396.0000 1.0000
63.1100 370.0000 1.0000
63.1200 369.0000 1.0000
63.1300 340.0000 1.0000
63.1400 339.0000 1.0000
63.1500 366.0000 1.0000
63.1600 369.0000 1.0000
63.1700 373.0000 1.0000
63.1800 384.0000 1.0000
63.1900 382.0000 1.0000
63.2000 340.0000 1.0000
63.2100 369.0000 1.0000
63.2200 370.0000 1.0000
63.2300 346.0000 1.0000
63.2400 337.0000 1.0000
63.2500 376.0000 1.0000
63.2600 390.0000 1.0000
63.2700 382.0000 1.0000
63.2800 403.0000 1.0000
63.2900 370.0000 1.0000
63.3000 363.0000 1.0000
63.3100 377.0000 1.0000
63.3200 387.0000 1.0000
63.3300 366.0000 1.0000
63.3400 375.0000 1.0000
63.3500 371.0000 1.0000
63.3600 379.0000 1.0000
63.3700 379.0000 1.0000
63.3800 380.0000 1.0000
63.3900 355.0000 1.0000
63.4000 356.0000 1.0000
63.4100 376.0000 1.0000
63.4200 370.0000 1.0000
63.4300 358.0000 1.0000
63.4400 360.0000 1.0000
63.4500 378.0000 1.0000
63.4600 375.0000 1.0000
63.4700 360.0000 1.0000
63.4800 373.0000 1.0000
63.4900 379.0000 1.0000
63.5000 376.0000 1.0000
63.5100 349.0000 1.0000
63.5200 358.0000 1.0000
63.5300 389.0000 1.0000
63.5400 387.0000 1.0000
63.5500 395.0000 1.0000
63.5600 346.0000 1.0000
63.5700 379.0000 1.0000
63.5800 371.0000 1.0000
63.5900 353.0000 1.0000
63.6000 384.0000 1.0000
63.6100 380.0000 1.0000
63.6200 392.0000 1.0000
63.6300 354.0000 1.0000
63.6400 368.0000 1.0000
63.6500 430.0000 1.0000
63.6600 385.0000 1.0000
63.6700 389.0000 1.0000
63.6800 385.0000 1.0000
63.6900 396.0000 1.0000
63.7000 380.0000 1.0000
63.7100 350.0000 1.0000
63.7200 357.0000 1.0000
63.7300 394.0000 1.0000
63.7400 417.0000 1.0000
63.7500 397.0000 1.0000
63.7600 430.0000 1.0000
63.7700 390.0000 1.0000
63.7800 434.0000 1.0000
63.7900 427.0000 1.0000
63.8000 413.0000 1.0000
63.8100 388.0000 1.0000
63.8200 401.0000 1.0000
63.8300 384.0000 1.0000
63.8400 433.0000 1.0000
63.8500 436.0000 1.0000
63.8600 422.0000 1.0000
63.8700 421.0000 1.0000
63.8800 448.0000 1.0000
63.8900 466.0000 1.0000
63.9000 472.0000 1.0000
63.9100 465.0000 1.0000
63.9200 462.0000 1.0000
63.9300 429.0000 1.0000
63.9400 443.0000 1.0000
63.9500 463.0000 1.0000
63.9600 441.0000 1.0000
63.9700 431.0000 1.0000
63.9800 474.0000 1.0000
63.9900 447.0000 1.0000
64.0000 462.0000 1.0000
64.0100 429.0000 1.0000
64.0200 456.0000 1.0000
64.0300 464.0000 1.0000
64.0400 441.0000 1.0000
64.0500 407.0000 1.0000
64.0600 425.0000 1.0000
64.0700 407.0000 1.0000
64.0800 439.0000 1.0000
64.0900 428.0000 1.0000
64.1000 456.0000 1.0000
64.1100 448.0000 1.0000
64.1200 438.0000 1.0000
64.1300 431.0000 1.0000
64.1400 403.0000 1.0000
64.1500 402.0000 1.0000
64.1600 439.0000 1.0000
64.1700 406.0000 1.0000
64.1800 418.0000 1.0000
64.1900 400.0000 1.0000
64.2000 391.0000 1.0000
64.2100 388.0000 1.0000
64.2200 419.0000 1.0000
64.2300 413.0000 1.0000
64.2400 416.0000 1.0000
64.2500 427.0000 1.0000
64.2600 405.0000 1.0000
64.2700 393.0000 1.0000
64.2800 385.0000 1.0000
64.2900 397.0000 1.0000
64.3000 387.0000 1.0000
64.3100 402.0000 1.0000
64.3200 375.0000 1.0000
64.3300 387.0000 1.0000
64.3400 369.0000 1.0000
64.3500 375.0000 1.0000
64.3600 370.0000 1.0000
64.3700 361.0000 1.0000
64.3800 387.0000 1.0000
64.3900 389.0000 1.0000
64.4000 395.0000 1.0000
64.4100 394.0000 1.0000
64.4200 415.0000 1.0000
64.4300 372.0000 1.0000
64.4400 416.0000 1.0000
64.4500 387.0000 1.0000
64.4600 402.0000 1.0000
64.4700 386.0000 1.0000
64.4800 371.0000 1.0000
64.4900 411.0000 1.0000
64.5000 396.0000 1.0000
64.5100 384.0000 1.0000
64.5200 407.0000 1.0000
64.5300 404.0000 1.0000
64.5400 350.0000 1.0000
64.5500 399.0000 1.0000
64.5600 382.0000 1.0000
64.5700 405.0000 1.0000
64.5800 398.0000 1.0000
64.5900 360.0000 1.0000
64.6000 386.0000 1.0000
64.6100 404.0000 1.0000
64.6200 396.0000 1.0000
64.6300 367.0000 1.0000
64.6400 370.0000 1.0000
64.6500 359.0000 1.0000
64.6600 373.0000 1.0000
64.6700 369.0000 1.0000
64.6800 387.0000 1.0000
64.6900 411.0000 1.0000
64.7000 388.0000 1.0000
64.7100 391.0000 1.0000
64.7200 415.0000 1.0000
64.7300 416.0000 1.0000
64.7400 381.0000 1.0000
64.7500 355.0000 1.0000
64.7600 379.0000 1.0000
64.7700 402.0000 1.0000
64.7800 387.0000 1.0000
64.7900 380.0000 1.0000
64.8000 339.0000 1.0000
64.8100 382.0000 1.0000
64.8200 395.0000 1.0000
64.8300 398.0000 1.0000
64.8400 383.0000 1.0000
64.8500 419.0000 1.0000
64.8600 410.0000 1.0000
64.8700 389.0000 1.0000
64.8800 379.0000 1.0000
64.8900 402.0000 1.0000
64.9000 420.0000 1.0000
64.9100 400.0000 1.0000
64.9200 408.0000 1.0000
64.9300 367.0000 1.0000
64.9400 423.0000 1.0000
64.9500 428.0000 1.0000
64.9600 409.0000 1.0000
64.9700 434.0000 1.0000
64.9800 414.0000 1.0000
64.9900 390.0000 1.0000
65.0000 374.0000 1.0000
65.0100 434.0000 1.0000
65.0200 406.0000 1.0000
65.0300 383.0000 1.0000
65.0400 419.0000 1.0000
65.0500 400.0000 1.0000
65.0600 428.0000 1.0000
65.0700 453.0000 1.0000
65.0800 442.0000 1.0000
65.0900 459.0000 1.0000
65.1000 450.0000 1.0000
65.1100 460.0000 1.0000
65.1200 425.0000 1.0000
65.1300 445.0000 1.0000
65.1400 441.0000 1.0000
65.1500 462.0000 1.0000
65.1600 464.0000 1.0000
65.1700 480.0000 1.0000
65.1800 485.0000 1.0000
65.1900 508.0000 1.0000
65.2000 559.0000 1.0000
65.2100 552.0000 1.0000
65.2200 491.0000 1.0000
65.2300 549.0000 1.0000
65.2400 543.0000 1.0000
65.2500 541.0000 1.0000
65.2600 590.0000 1.0000
65.2700 620.0000 1.0000
65.2800 620.0000 1.0000
65.2900 630.0000 1.0000
65.3000 669.0000 1.0000
65.3100 666.0000 1.0000
65.3200 702.0000 1.0000
65.3300 702.0000 1.0000
65.3400 720.0000 1.0000
65.3500 771.0000 1.0000
65.3600 823.0000 1.0000
65.3700 812.0000 1.0000
65.3800 880.0000 1.0000
65.3900 954.0000 1.0000
65.4000 988.0000 1.0000
65.4100 1023.0000 1.0000
65.4200 1110.0000 1.0000
65.4300 1182.0000 1.0000
65.4400 1223.0000 1.0000
65.4500 1271.0000 1.0000
65.4600 1311.0000 1.0000
65.4700 1348.0000 1.0000
65.4800 1390.0000 1.0000
65.4900 1407.0000 1.0000
65.5000 1475.0000 1.0000
65.5100 1492.0000 1.0000
65.5200 1498.0000 1.0000
65.5300 1450.0000 1.0000
65.5400 1461.0000 1.0000
65.5500 1409.0000 1.0000
65.5600 1408.0000 1.0000
65.5700 1428.0000 1.0000
65.5800 1339.0000 1.0000
65.5900 1363.0000 1.0000
65.6000 1328.0000 1.0000
65.6100 1258.0000 1.0000
65.6200 1214.0000 1.0000
65.6300 1241.0000 1.0000
65.6400 1242.0000 1.0000
65.6500 1230.0000 1.0000
65.6600 1174.0000 1.0000
65.6700 1138.0000 1.0000
65.6800 1168.0000 1.0000
65.6900 1141.0000 1.0000
65.7000 1131.0000 1.0000
65.7100 1078.0000 1.0000
65.7200 1072.0000 1.0000
65.7300 1035.0000 1.0000
65.7400 998.0000 1.0000
65.7500 982.0000 1.0000
65.7600 965.0000 1.0000
65.7700 902.0000 1.0000
65.7800 827.0000 1.0000
65.7900 843.0000 1.0000
65.8000 805.0000 1.0000
65.8100 697.0000 1.0000
65.8200 705.0000 1.0000
65.8300 714.0000 1.0000
65.8400 644.0000 1.0000
65.8500 665.0000 1.0000
65.8600 609.0000 1.0000
65.8700 602.0000 1.0000
65.8800 578.0000 1.0000
65.8900 584.0000 1.0000
65.9000 558.0000 1.0000
65.9100 541.0000 1.0000
65.9200 539.0000 1.0000
65.9300 499.0000 1.0000
65.9400 516.0000 1.0000
65.9500 507.0000 1.0000
65.9600 498.0000 1.0000
65.9700 511.0000 1.0000
65.9800 491.0000 1.0000
65.9900 494.0000 1.0000
66.0000 480.0000 1.0000
66.0100 463.0000 1.0000
66.0200 460.0000 1.0000
66.0300 448.0000 1.0000
66.0400 415.0000 1.0000
66.0500 458.0000 1.0000
66.0600 389.0000 1.0000
66.0700 393.0000 1.0000
66.0800 410.0000 1.0000
66.0900 427.0000 1.0000
66.1000 446.0000 1.0000
66.1100 417.0000 1.0000
66.1200 390.0000 1.0000
66.1300 408.0000 1.0000
66.1400 386.0000 1.0000
66.1500 367.0000 1.0000
66.1600 370.0000 1.0000
66.1700 387.0000 1.0000
66.1800 376.0000 1.0000
66.1900 397.0000 1.0000
66.2000 394.0000 1.0000
66.2100 387.0000 1.0000
66.2200 427.0000 1.0000
66.2300 376.0000 1.0000
66.2400 382.0000 1.0000
66.2500 386.0000 1.0000
66.2600 363.0000 1.0000
66.2700 384.0000 1.0000
66.2800 378.0000 1.0000
66.2900 345.0000 1.0000
66.3000 380.0000 1.0000
66.3100 350.0000 1.0000
66.3200 346.0000 1.0000
66.3300 366.0000 1.0000
66.3400 374.0000 1.0000
66.3500 386.0000 1.0000
66.3600 373.0000 1.0000
66.3700 352.0000 1.0000
66.3800 359.0000 1.0000
66.3900 359.0000 1.0000
66.4000 366.0000 1.0000
66.4100 342.0000 1.0000
66.4200 379.0000 1.0000
66.4300 364.0000 1.0000
66.4400 349.0000 1.0000
66.4500 339.0000 1.0000
66.4600 344.0000 1.0000
66.4700 371.0000 1.0000
66.4800 355.0000 1.0000
66.4900 345.0000 1.0000
66.5000 363.0000 1.0000
66.5100 355.0000 1.0000
66.5200 379.0000 1.0000
66.5300 372.0000 1.0000
66.5400 337.0000 1.0000
66.5500 339.0000 1.0000
66.5600 335.0000 1.0000
66.5700 339.0000 1.0000
66.5800 355.0000 1.0000
66.5900 356.0000 1.0000
66.6000 335.0000 1.0000
66.6100 354.0000 1.0000
66.6200 356.0000 1.0000
66.6300 368.0000 1.0000
66.6400 348.0000 1.0000
66.6500 349.0000 1.0000
66.6600 360.0000 1.0000
66.6700 344.0000 1.0000
66.6800 355.0000 1.0000
66.6900 348.0000 1.0000
66.7000 342.0000 1.0000
66.7100 330.0000 1.0000
66.7200 368.0000 1.0000
66.7300 362.0000 1.0000
66.7400 309.0000 1.0000
66.7500 336.0000 1.0000
66.7600 325.0000 1.0000
66.7700 345.0000 1.0000
66.7800 344.0000 1.0000
66.7900 339.0000 1.0000
66.8000 336.0000 1.0000
66.8100 322.0000 1.0000
66.8200 389.0000 1.0000
66.8300 348.0000 1.0000
66.8400 309.0000 1.0000
66.8500 362.0000 1.0000
66.8600 329.0000 1.0000
66.8700 357.0000 1.0000
66.8800 356.0000 1.0000
66.8900 318.0000 1.0000
66.9000 349.0000 1.0000
66.9100 344.0000 1.0000
66.9200 344.0000 1.0000
66.9300 323.0000 1.0000
66.9400 334.0000 1.0000
66.9500 336.0000 1.0000
66.9600 352.0000 1.0000
66.9700 346.0000 1.0000
66.9800 350.0000 1.0000
66.9900 376.0000 1.0000
67.0000 386.0000 1.0000
67.0100 340.0000 1.0000
67.0200 363.0000 1.0000
67.0300 389.0000 1.0000
67.0400 361.0000 1.0000
67.0500 321.0000 1.0000
67.0600 332.0000 1.0000
67.0700 341.0000 1.0000
67.0800 344.0000 1.0000
67.0900 343.0000 1.0000
67.1000 357.0000 1.0000
67.1100 321.0000 1.0000
67.1200 333.0000 1.0000
67.1300 328.0000 1.0000
67.1400 336.0000 1.0000
67.1500 350.0000 1.0000
67.1600 340.0000 1.0000
67.1700 346.0000 1.0000
67.1800 348.0000 1.0000
67.1900 348.0000 1.0000
67.2000 350.0000 1.0000
67.2100 343.0000 1.0000
67.2200 308.0000 1.0000
67.2300 343.0000 1.0000
67.2400 345.0000 1.0000
67.2500 357.0000 1.0000
67.2600 343.0000 1.0000
67.2700 355.0000 1.0000
67.2800 362.0000 1.0000
67.2900 351.0000 1.0000
67.3000 324.0000 1.0000
67.3100 344.0000 1.0000
67.3200 359.0000 1.0000
67.3300 356.0000 1.0000
67.3400 359.0000 1.0000
67.3500 370.0000 1.0000
67.3600 362.0000 1.0000
67.3700 337.0000 1.0000
67.3800 316.0000 1.0000
67.3900 341.0000 1.0000
67.4000 344.0000 1.0000
67.4100 344.0000 1.0000
67.4200 311.0000 1.0000
67.4300 327.0000 1.0000
67.4400 345.0000 1.0000
67.4500 344.0000 1.0000
67.4600 319.0000 1.0000
67.4700 327.0000 1.0000
67.4800 332.0000 1.0000
67.4900 334.0000 1.0000
67.5000 346.0000 1.0000
67.5100 370.0000 1.0000
67.5200 339.0000 1.0000
67.5300 350.0000 1.0000
67.5400 335.0000 1.0000
67.5500 334.0000 1.0000
67.5600 326.0000 1.0000
67.5700 320.0000 1.0000
67.5800 318.0000 1.0000
67.5900 330.0000 1.0000
67.6000 341.0000 1.0000
67.6100 334.0000 1.0000
67.6200 331.0000 1.0000
67.6300 336.0000 1.0000
67.6400 352.0000 1.0000
67.6500 348.0000 1.0000
67.6600 308.0000 1.0000
67.6700 325.0000 1.0000
67.6800 319.0000 1.0000
67.6900 322.0000 1.0000
67.7000 322.0000 1.0000
67.7100 330.0000 1.0000
67.7200 340.0000 1.0000
67.7300 322.0000 1.0000
67.7400 331.0000 1.0000
67.7500 358.0000 1.0000
67.7600 342.0000 1.0000
67.7700 338.0000 1.0000
67.7800 337.0000 1.0000
67.7900 374.0000 1.0000
67.8000 342.0000 1.0000
67.8100 326.0000 1.0000
67.8200 349.0000 1.0000
67.8300 355.0000 1.0000
67.8400 301.0000 1.0000
67.8500 348.0000 1.0000
67.8600 338.0000 1.0000
67.8700 348.0000 1.0000
67.8800 353.0000 1.0000
67.8900 340.0000 1.0000
67.9000 356.0000 1.0000
67.9100 338.0000 1.0000
67.9200 355.0000 1.0000
67.9300 358.0000 1.0000
67.9400 333.0000 1.0000
67.9500 357.0000 1.0000
67.9600 345.0000 1.0000
67.9700 334.0000 1.0000
67.9800 332.0000 1.0000
67.9900 331.0000 1.0000
68.0000 325.0000 1.0000
68.0100 305.0000 1.0000
68.0200 332.0000 1.0000
68.0300 344.0000 1.0000
68.0400 352.0000 1.0000
68.0500 334.0000 1.0000
68.0600 342.0000 1.0000
68.0700 336.0000 1.0000
68.0800 309.0000 1.0000
68.0900 322.0000 1.0000
68.1000 336.0000 1.0000
68.1100 324.0000 1.0000
68.1200 316.0000 1.0000
68.1300 325.0000 1.0000
68.1400 340.0000 1.0000
68.1500 304.0000 1.0000
68.1600 302.0000 1.0000
68.1700 325.0000 1.0000
68.1800 352.0000 1.0000
68.1900 328.0000 1.0000
68.2000 336.0000 1.0000
68.2100 317.0000 1.0000
68.2200 324.0000 1.0000
68.2300 329.0000 1.0000
68.2400 331.0000 1.0000
68.2500 327.0000 1.0000
68.2600 326.0000 1.0000
68.2700 341.0000 1.0000
68.2800 324.0000 1.0000
68.2900 348.0000 1.0000
68.3000 319.0000 1.0000
68.3100 327.0000 1.0000
68.3200 321.0000 1.0000
68.3300 325.0000 1.0000
68.3400 337.0000 1.0000
68.3500 347.0000 1.0000
68.3600 344.0000 1.0000
68.3700 321.0000 1.0000
68.3800 336.0000 1.0000
68.3900 312.0000 1.0000
68.4000 313.0000 1.0000
68.4100 336.0000 1.0000
68.4200 335.0000 1.0000
68.4300 347.0000 1.0000
68.4400 311.0000 1.0000
68.4500 300.0000 1.0000
68.4600 361.0000 1.0000
68.4700 347.0000 1.0000
68.4800 363.0000 1.0000
68.4900 321.0000 1.0000
68.5000 314.0000 1.0000
68.5100 346.0000 1.0000
68.5200 345.0000 1.0000
68.5300 351.0000 1.0000
68.5400 323.0000 1.0000
68.5500 333.0000 1.0000
68.5600 362.0000 1.0000
68.5700 312.0000 1.0000
68.5800 340.0000 1.0000
68.5900 349.0000 1.0000
68.6000 334.0000 1.0000
68.6100 356.0000 1.0000
68.6200 328.0000 1.0000
68.6300 319.0000 1.0000
68.6400 346.0000 1.0000
68.6500 300.0000 1.0000
68.6600 324.0000 1.0000
68.6700 329.0000 1.0000
68.6800 316.0000 1.0000
68.6900 344.0000 1.0000
68.7000 321.0000 1.0000
68.7100 317.0000 1.0000
68.7200 334.0000 1.0000
68.7300 337.0000 1.0000
68.7400 336.0000 1.0000
68.7500 380.0000 1.0000
68.7600 338.0000 1.0000
68.7700 348.0000 1.0000
68.7800 341.0000 1.0000
68.7900 330.0000 1.0000
68.8000 316.0000 1.0000
68.8100 326.0000 1.0000
68.8200 308.0000 1.0000
68.8300 320.0000 1.0000
68.8400 331.0000 1.0000
68.8500 342.0000 1.0000
68.8600 316.0000 1.0000
68.8700 319.0000 1.0000
68.8800 344.0000 1.0000
68.8900 346.0000 1.0000
68.9000 340.0000 1.0000
68.9100 325.0000 1.0000
68.9200 314.0000 1.0000
68.9300 293.0000 1.0000
68.9400 315.0000 1.0000
68.9500 331.0000 1.0000
68.9600 331.0000 1.0000
68.9700 324.0000 1.0000
68.9800 325.0000 1.0000
68.9900 312.0000 1.0000
69.0000 325.0000 1.0000
69.0100 325.0000 1.0000
69.0200 321.0000 1.0000
69.0300 322.0000 1.0000
69.0400 336.0000 1.0000
69.0500 334.0000 1.0000
69.0600 334.0000 1.0000
69.0700 330.0000 1.0000
69.0800 334.0000 1.0000
69.0900 318.0000 1.0000
69.1000 331.0000 1.0000
69.1100 326.0000 1.0000
69.1200 338.0000 1.0000
69.1300 302.0000 1.0000
69.1400 347.0000 1.0000
69.1500 347.0000 1.0000
69.1600 329.0000 1.0000
69.1700 337.0000 1.0000
69.1800 316.0000 1.0000
69.1900 338.0000 1.0000
69.2000 333.0000 1.0000
69.2100 305.0000 1.0000
69.2200 327.0000 1.0000
69.2300 318.0000 1.0000
69.2400 336.0000 1.0000
69.2500 321.0000 1.0000
69.2600 338.0000 1.0000
69.2700 350.0000 1.0000
69.2800 332.0000 1.0000
69.2900 327.0000 1.0000
69.3000 335.0000 1.0000
69.3100 320.0000 1.0000
69.3200 314.0000 1.0000
69.3300 328.0000 1.0000
69.3400 305.0000 1.0000
69.3500 336.0000 1.0000
69.3600 315.0000 1.0000
69.3700 302.0000 1.0000
69.3800 295.0000 1.0000
69.3900 310.0000 1.0000
69.4000 334.0000 1.0000
69.4100 328.0000 1.0000
69.4200 345.0000 1.0000
69.4300 297.0000 1.0000
69.4400 307.0000 1.0000
69.4500 334.0000 1.0000
69.4600 308.0000 1.0000
69.4700 316.0000 1.0000
69.4800 321.0000 1.0000
69.4900 311.0000 1.0000
69.5000 322.0000 1.0000
69.5100 337.0000 1.0000
69.5200 338.0000 1.0000
69.5300 334.0000 1.0000
69.5400 313.0000 1.0000
69.5500 343.0000 1.0000
69.5600 333.0000 1.0000
69.5700 352.0000 1.0000
69.5800 304.0000 1.0000
69.5900 324.0000 1.0000
69.6000 321.0000 1.0000
69.6100 310.0000 1.0000
69.6200 337.0000 1.0000
69.6300 352.0000 1.0000
69.6400 326.0000 1.0000
69.6500 293.0000 1.0000
69.6600 287.0000 1.0000
69.6700 283.0000 1.0000
69.6800 300.0000 1.0000
69.6900 317.0000 1.0000
69.7000 330.0000 1.0000
69.7100 321.0000 1.0000
69.7200 322.0000 1.0000
69.7300 314.0000 1.0000
69.7400 332.0000 1.0000
69.7500 337.0000 1.0000
69.7600 297.0000 1.0000
69.7700 322.0000 1.0000
69.7800 311.0000 1.0000
69.7900 305.0000 1.0000
69.8000 316.0000 1.0000
69.8100 332.0000 1.0000
69.8200 312.0000 1.0000
69.8300 341.0000 1.0000
69.8400 348.0000 1.0000
69.8500 331.0000 1.0000
69.8600 307.0000 1.0000
69.8700 321.0000 1.0000
69.8800 341.0000 1.0000
69.8900 324.0000 1.0000
69.9000 323.0000 1.0000
69.9100 307.0000 1.0000
69.9200 325.0000 1.0000
69.9300 308.0000 1.0000
69.9400 337.0000 1.0000
69.9500 315.0000 1.0000
69.9600 328.0000 1.0000
69.9700 354.0000 1.0000
69.9800 335.0000 1.0000
69.9900 343.0000 1.0000
70.0000 310.0000 1.0000
*RAS_INT_END
*RAS_TEMPERATURE_START
*RAS_TEMPERATURE_END
*RAS_DATA_END
