*RAS_DATA_START
*RAS_HEADER_START
*DISP_FMT_X "%.2f"
*DISP_FMT_Y "%.0f"
*DISP_FULLSCALE "15210.0000000000"
*DISP_LINE_COLOR "255.0000000000"
*DISP_LINE_STYLE "0.0000000000"
*DISP_LINE_WIDTH "0.2500000000"
*DISP_NOTE "測定データ-2"
*DISP_OFFSET_Y "0.0000000000"
*DISP_PEAKSEARCH_UNIT_Y "cps"
*DISP_RANGE_BOTTOM "0.0000000000"
*DISP_RANGE_LEFT "20.0000000000"
*DISP_RANGE_LOGCUTOFF "0.0100000000"
*DISP_RANGE_RIGHT "70.0000000000"
*DISP_RANGE_TOP "15210.0000000000"
*DISP_SCALE_MODE_Y "0.0000000000"
*DISP_TAB_NAME "2θ/θ"
*DISP_TITLE_Y "強度"
*DISP_UNIT_Y "cps"
*DISP_WINDOW_NAME "MSG_MACROENGINE"
*FILE_COMMENT " "
*FILE_MD5 ""
*FILE_MEMO " "
*FILE_OPERATOR "Administrator"
*FILE_SAMPLE " "
*FILE_TYPE "RAS_RAW"
*FILE_USERGROUP "システムマネージャ"
*FILE_VERSION "1.0000000000"
*HW_ATTACHMENT_ID "ATT0025"
*HW_ATTACHMENT_NAME "標準|Standard"
*HW_COUNTER_ID-0 "CUT0025"
*HW_COUNTER_ID-1 "CUT0020"
*HW_COUNTER_ID-2 "CUT0020"
*HW_COUNTER_ID-3 "CSL0021"
*HW_COUNTER_ID-4 "CMC0021"
*HW_COUNTER_NAME-0 "D/teX Ultra|D/teX Ultra"
*HW_COUNTER_NAME-1 "None|None"
*HW_COUNTER_NAME-2 "None|None"
*HW_COUNTER_NAME-3 "BBM|BBM"
*HW_COUNTER_NAME-4 "検出器モノクロメータ|Detector monochromator"
*HW_COUNTER_SELECT_NAME "D/teX Ultra|D/teX Ultra"
*HW_GONIOMETER_ID "GON0023"
*HW_GONIOMETER_NAME "SmartLab|SmartLab"
*HW_GONIOMETER_RADIUS-0 "90.0"
*HW_GONIOMETER_RADIUS-1 "114.0"
*HW_GONIOMETER_RADIUS-2 "190.0"
*HW_GONIOMETER_RADIUS-3 "300.0"
*HW_GONIOMETER_RADIUS-4 "187.0"
*HW_GONIOMETER_RADIUS-5 "300.0"
*HW_GONIOMETER_RADIUS-6 "113.0"
*HW_GONIOMETER_RADIUS-7 "331.0"
*HW_I_OPT_ID-0 "CBO0021"
*HW_I_OPT_ID-1 "ICR0023"
*HW_I_OPT_ID-2 "ISL0021"
*HW_I_OPT_ID-3 "ISO0021"
*HW_I_OPT_ID-4 "IAD0021"
*HW_I_OPT_ID-5 "IPR0001"
*HW_I_OPT_NAME-0 "CBOユニット|CBO unit"
*HW_I_OPT_NAME-1 "標準入射光学ユニット|Standard incident optical unit"
*HW_I_OPT_NAME-2 "標準入射スリットボックス|Standard incident slit box"
*HW_I_OPT_NAME-3 "入射平行スリット|Incident parallel slit"
*HW_I_OPT_NAME-4 "長手制限スリット|Length limiting slit"
*HW_I_OPT_NAME-5 "None|None"
*HW_R_ATTENUATER_AUTOMODE "0"
*HW_R_OPT_ID-0 "RSS0021"
*HW_R_OPT_ID-1 "RCR0023"
*HW_R_OPT_ID-2 "RSO0021"
*HW_R_OPT_ID-3 "RRS0021"
*HW_R_OPT_ID-4 "ATN0021"
*HW_R_OPT_ID-5 "RFL0021"
*HW_R_OPT_ID-6 "RAD0021"
*HW_R_OPT_NAME-0 "標準受光スリットボックス1|Standard receiving slit box # 1"
*HW_R_OPT_NAME-1 "標準受光光学ユニット1|Standard receiving unit # 1"
*HW_R_OPT_NAME-2 "標準受光光学ユニット2|Standard receiving optical unit # 2"
*HW_R_OPT_NAME-3 "標準受光スリットボックス2|Standard receiving slit box # 2"
*HW_R_OPT_NAME-4 "標準アッテネータ|Standard Attenuator"
*HW_R_OPT_NAME-5 "Cu Kβ|Cu K-beta"
*HW_R_OPT_NAME-6 "調整用受光スリット|Alignment receiving slit"
*HW_SAMPLE_HOLDER_ID "SMP0023"
*HW_SAMPLE_HOLDER_NAME "標準Zステージ|Standard Z stage"
*HW_XG_CURRENT_MAX "50"
*HW_XG_CURRENT_MIN "2"
*HW_XG_CURRENT_RESOLUTION "1"
*HW_XG_CURRENT_UNIT "mA"
*HW_XG_FOCUS "1mm x 10mm"
*HW_XG_FOCUS_TYPE "Normal"
*HW_XG_ID ""
*HW_XG_NAME "3kW 封入管(ID:1200)|3kW Sealed tube(ID:1200)"
*HW_XG_TARGET_ATOMIC_NUMBER "29.0000000000"
*HW_XG_TARGET_NAME "Cu"
*HW_XG_TYPE "Hermetic"
*HW_XG_VOLTAGE_MAX "60"
*HW_XG_VOLTAGE_MIN "20"
*HW_XG_VOLTAGE_RESOLUTION "1"
*HW_XG_VOLTAGE_UNIT "kV"
*HW_XG_WATT_MAX "1.500"
*HW_XG_WATT_UNIT "kW"
*HW_XG_WAVE_LENGTH_ALPHA1 "1.540593"
*HW_XG_WAVE_LENGTH_ALPHA2 "1.544414"
*HW_XG_WAVE_LENGTH_BETA "1.392250"
*MEAS_COND_AXIS_NAME-0 "2θ/θ"
*MEAS_COND_AXIS_NAME-1 "2θ"
*MEAS_COND_AXIS_NAME-2 "ω"
*MEAS_COND_AXIS_NAME-3 "Z"
*MEAS_COND_AXIS_NAME-4 "2θ/ω"
*MEAS_COND_AXIS_NAME-5 "θs"
*MEAS_COND_AXIS_NAME-6 "θd"
*MEAS_COND_AXIS_NAME-7 "Ts"
*MEAS_COND_AXIS_NAME-8 "CBO選択スリット"
*MEAS_COND_AXIS_NAME-9 "M"
*MEAS_COND_AXIS_NAME-10 "入射平行スリット"
*MEAS_COND_AXIS_NAME-11 "入射スリット"
*MEAS_COND_AXIS_NAME-12 ""
*MEAS_COND_AXIS_NAME-13 "Zs"
*MEAS_COND_AXIS_NAME-14 "入射光学素子"
*MEAS_COND_AXIS_NAME-15 "長手制限スリット"
*MEAS_COND_AXIS_NAME-16 "センタースリット"
*MEAS_COND_AXIS_NAME-17 "フィルター"
*MEAS_COND_AXIS_NAME-18 "受光スリット1"
*MEAS_COND_AXIS_NAME-19 "受光スリット2"
*MEAS_COND_AXIS_NAME-20 "受光光学素子"
*MEAS_COND_AXIS_NAME-21 "受光平行スリット"
*MEAS_COND_AXIS_NAME-22 "調整用受光スリット"
*MEAS_COND_AXIS_NAME-23 ""
*MEAS_COND_AXIS_NAME-24 ""
*MEAS_COND_AXIS_NAME-25 "Zd"
*MEAS_COND_AXIS_NAME-26 "アッテネータ"
*MEAS_COND_AXIS_NAME-27 "検出器モノクロメータ"
*MEAS_COND_AXIS_NAME-28 "モノクロメータスリット"
*MEAS_COND_AXIS_NAME-29 "プライマリビーム"
*MEAS_COND_AXIS_NAME-30 "PHA"
*MEAS_COND_AXIS_NAME_INTERNAL-0 "TwoThetaTheta"
*MEAS_COND_AXIS_NAME_INTERNAL-1 "TwoTheta"
*MEAS_COND_AXIS_NAME_INTERNAL-2 "Omega"
*MEAS_COND_AXIS_NAME_INTERNAL-3 "Z"
*MEAS_COND_AXIS_NAME_INTERNAL-4 "TwoThetaOmega"
*MEAS_COND_AXIS_NAME_INTERNAL-5 "ThetaS"
*MEAS_COND_AXIS_NAME_INTERNAL-6 "ThetaD"
*MEAS_COND_AXIS_NAME_INTERNAL-7 "Ts"
*MEAS_COND_AXIS_NAME_INTERNAL-8 "CBO"
*MEAS_COND_AXIS_NAME_INTERNAL-9 "CBO-M"
*MEAS_COND_AXIS_NAME_INTERNAL-10 "IncidentSollerSlit"
*MEAS_COND_AXIS_NAME_INTERNAL-11 "IncidentSlitBox"
*MEAS_COND_AXIS_NAME_INTERNAL-12 "IncidentSlitBox-_Axis"
*MEAS_COND_AXIS_NAME_INTERNAL-13 "Zs"
*MEAS_COND_AXIS_NAME_INTERNAL-14 "IncidentMonochromator"
*MEAS_COND_AXIS_NAME_INTERNAL-15 "IncidentAxdSlit"
*MEAS_COND_AXIS_NAME_INTERNAL-16 "CenterSlit"
*MEAS_COND_AXIS_NAME_INTERNAL-17 "Filter"
*MEAS_COND_AXIS_NAME_INTERNAL-18 "ReceivingSlitBox1"
*MEAS_COND_AXIS_NAME_INTERNAL-19 "ReceivingSlitBox2"
*MEAS_COND_AXIS_NAME_INTERNAL-20 "ReceivingOptics"
*MEAS_COND_AXIS_NAME_INTERNAL-21 "ReceivingSollerSlit"
*MEAS_COND_AXIS_NAME_INTERNAL-22 "ReceivingAxdSlit"
*MEAS_COND_AXIS_NAME_INTERNAL-23 "ReceivingSlitBox1-_Axis"
*MEAS_COND_AXIS_NAME_INTERNAL-24 "ReceivingSlitBox2-_Axis"
*MEAS_COND_AXIS_NAME_INTERNAL-25 "ReceivingSlitBox2-Zd"
*MEAS_COND_AXIS_NAME_INTERNAL-26 "Attenuator"
*MEAS_COND_AXIS_NAME_INTERNAL-27 "CounterMonochromator"
*MEAS_COND_AXIS_NAME_INTERNAL-28 "CounterSlit"
*MEAS_COND_AXIS_NAME_INTERNAL-29 "IncidentPrimary"
*MEAS_COND_AXIS_NAME_INTERNAL-30 "PHA"
*MEAS_COND_AXIS_NAME_MAGICNO-0 "83951616.0000000000"
*MEAS_COND_AXIS_NAME_MAGICNO-1 "268632064.0000000000"
*MEAS_COND_AXIS_NAME_MAGICNO-2 "268500992.0000000000"
*MEAS_COND_AXIS_NAME_MAGICNO-3 "285278208.0000000000"
*MEAS_COND_AXIS_NAME_MAGICNO-4 "83951616.0000000000"
*MEAS_COND_AXIS_NAME_MAGICNO-5 "131072.0000000000"
*MEAS_COND_AXIS_NAME_MAGICNO-6 "131072.0000000000"
*MEAS_COND_AXIS_NAME_MAGICNO-7 "318898176.0000000000"
*MEAS_COND_AXIS_NAME_MAGICNO-8 "20971521.0000000000"
*MEAS_COND_AXIS_NAME_MAGICNO-9 "285343744.0000000000"
*MEAS_COND_AXIS_NAME_MAGICNO-10 "20971521.0000000000"
*MEAS_COND_AXIS_NAME_MAGICNO-11 "22020097.0000000000"
*MEAS_COND_AXIS_NAME_MAGICNO-12 "25165824.0000000000"
*MEAS_COND_AXIS_NAME_MAGICNO-13 "318898176.0000000000"
*MEAS_COND_AXIS_NAME_MAGICNO-14 "1.0000000000"
*MEAS_COND_AXIS_NAME_MAGICNO-15 "20971521.0000000000"
*MEAS_COND_AXIS_NAME_MAGICNO-16 "20971521.0000000000"
*MEAS_COND_AXIS_NAME_MAGICNO-17 "20971521.0000000000"
*MEAS_COND_AXIS_NAME_MAGICNO-18 "23068673.0000000000"
*MEAS_COND_AXIS_NAME_MAGICNO-19 "23068673.0000000000"
*MEAS_COND_AXIS_NAME_MAGICNO-20 "20971521.0000000000"
*MEAS_COND_AXIS_NAME_MAGICNO-21 "20971521.0000000000"
*MEAS_COND_AXIS_NAME_MAGICNO-22 "20971521.0000000000"
*MEAS_COND_AXIS_NAME_MAGICNO-23 "25165824.0000000000"
*MEAS_COND_AXIS_NAME_MAGICNO-24 "25165824.0000000000"
*MEAS_COND_AXIS_NAME_MAGICNO-25 "285343744.0000000000"
*MEAS_COND_AXIS_NAME_MAGICNO-26 "17301505.0000000000"
*MEAS_COND_AXIS_NAME_MAGICNO-27 "20971521.0000000000"
*MEAS_COND_AXIS_NAME_MAGICNO-28 "20971521.0000000000"
*MEAS_COND_AXIS_NAME_MAGICNO-29 "20971521.0000000000"
*MEAS_COND_AXIS_NAME_MAGICNO-30 "0.0000000000"
*MEAS_COND_AXIS_OFFSET-0 "-"
*MEAS_COND_AXIS_OFFSET-1 "-0.0801000000"
*MEAS_COND_AXIS_OFFSET-2 "0.2338000000"
*MEAS_COND_AXIS_OFFSET-3 "-"
*MEAS_COND_AXIS_OFFSET-4 "-"
*MEAS_COND_AXIS_OFFSET-5 "0.2338000000"
*MEAS_COND_AXIS_OFFSET-6 "-0.3139000000"
*MEAS_COND_AXIS_OFFSET-7 "-"
*MEAS_COND_AXIS_OFFSET-8 "-"
*MEAS_COND_AXIS_OFFSET-9 "-"
*MEAS_COND_AXIS_OFFSET-10 "-"
*MEAS_COND_AXIS_OFFSET-11 "-"
*MEAS_COND_AXIS_OFFSET-12 "-"
*MEAS_COND_AXIS_OFFSET-13 "-"
*MEAS_COND_AXIS_OFFSET-14 "-"
*MEAS_COND_AXIS_OFFSET-15 "-"
*MEAS_COND_AXIS_OFFSET-16 "-"
*MEAS_COND_AXIS_OFFSET-17 "-"
*MEAS_COND_AXIS_OFFSET-18 "-"
*MEAS_COND_AXIS_OFFSET-19 "-"
*MEAS_COND_AXIS_OFFSET-20 "-"
*MEAS_COND_AXIS_OFFSET-21 "-"
*MEAS_COND_AXIS_OFFSET-22 "-"
*MEAS_COND_AXIS_OFFSET-23 "-"
*MEAS_COND_AXIS_OFFSET-24 "-"
*MEAS_COND_AXIS_OFFSET-25 "-"
*MEAS_COND_AXIS_OFFSET-26 "-"
*MEAS_COND_AXIS_OFFSET-27 "-"
*MEAS_COND_AXIS_OFFSET-28 "-"
*MEAS_COND_AXIS_OFFSET-29 "-"
*MEAS_COND_AXIS_OFFSET-30 "-"
*MEAS_COND_AXIS_POSITION-0 "0.0000000000"
*MEAS_COND_AXIS_POSITION-1 "0.0000000000"
*MEAS_COND_AXIS_POSITION-2 "0.0000000000"
*MEAS_COND_AXIS_POSITION-3 "-2.9583600000"
*MEAS_COND_AXIS_POSITION-4 "0.0000000000"
*MEAS_COND_AXIS_POSITION-5 "0.0000000000"
*MEAS_COND_AXIS_POSITION-6 "0.0000000000"
*MEAS_COND_AXIS_POSITION-7 "-0.4278800000"
*MEAS_COND_AXIS_POSITION-8 "BB"
*MEAS_COND_AXIS_POSITION-9 "0.0000000000"
*MEAS_COND_AXIS_POSITION-10 "Soller_slit_5.0deg"
*MEAS_COND_AXIS_POSITION-11 "2/3deg"
*MEAS_COND_AXIS_POSITION-12 "2.2088000000"
*MEAS_COND_AXIS_POSITION-13 "-1.0609400000"
*MEAS_COND_AXIS_POSITION-14 "0.0000000000"
*MEAS_COND_AXIS_POSITION-15 "10.0mm"
*MEAS_COND_AXIS_POSITION-16 "None"
*MEAS_COND_AXIS_POSITION-17 "Cu_K-beta"
*MEAS_COND_AXIS_POSITION-18 "13.000mm"
*MEAS_COND_AXIS_POSITION-19 "13.000mm"
*MEAS_COND_AXIS_POSITION-20 "No_unit"
*MEAS_COND_AXIS_POSITION-21 "Soller_slit_5.0deg"
*MEAS_COND_AXIS_POSITION-22 "None"
*MEAS_COND_AXIS_POSITION-23 "13.0000000000"
*MEAS_COND_AXIS_POSITION-24 "13.0000000000"
*MEAS_COND_AXIS_POSITION-25 "0.0081300000"
*MEAS_COND_AXIS_POSITION-26 "Open"
*MEAS_COND_AXIS_POSITION-27 "None"
*MEAS_COND_AXIS_POSITION-28 "None"
*MEAS_COND_AXIS_POSITION-29 "None"
*MEAS_COND_AXIS_POSITION-30 "38.0000000000"
*MEAS_COND_AXIS_UNIT-0 "deg"
*MEAS_COND_AXIS_UNIT-1 "deg"
*MEAS_COND_AXIS_UNIT-2 "deg"
*MEAS_COND_AXIS_UNIT-3 "mm"
*MEAS_COND_AXIS_UNIT-4 "deg"
*MEAS_COND_AXIS_UNIT-5 "deg"
*MEAS_COND_AXIS_UNIT-6 "deg"
*MEAS_COND_AXIS_UNIT-7 "mm"
*MEAS_COND_AXIS_UNIT-8 ""
*MEAS_COND_AXIS_UNIT-9 "pulse"
*MEAS_COND_AXIS_UNIT-10 ""
*MEAS_COND_AXIS_UNIT-11 ""
*MEAS_COND_AXIS_UNIT-12 "mm"
*MEAS_COND_AXIS_UNIT-13 "mm"
*MEAS_COND_AXIS_UNIT-14 ""
*MEAS_COND_AXIS_UNIT-15 ""
*MEAS_COND_AXIS_UNIT-16 ""
*MEAS_COND_AXIS_UNIT-17 ""
*MEAS_COND_AXIS_UNIT-18 ""
*MEAS_COND_AXIS_UNIT-19 ""
*MEAS_COND_AXIS_UNIT-20 ""
*MEAS_COND_AXIS_UNIT-21 ""
*MEAS_COND_AXIS_UNIT-22 ""
*MEAS_COND_AXIS_UNIT-23 "mm"
*MEAS_COND_AXIS_UNIT-24 "mm"
*MEAS_COND_AXIS_UNIT-25 "mm"
*MEAS_COND_AXIS_UNIT-26 ""
*MEAS_COND_AXIS_UNIT-27 ""
*MEAS_COND_AXIS_UNIT-28 ""
*MEAS_COND_AXIS_UNIT-29 ""
*MEAS_COND_AXIS_UNIT-30 "div"
*MEAS_COND_COUNTER_CNTLOSS_CORR "0.0000000000"
*MEAS_COND_COUNTER_PHABASE "38.0000000000"
*MEAS_COND_COUNTER_PHAWINDOW "16.0000000000"
*MEAS_COND_COUNTER_PHA_UNIT "div"
*MEAS_COND_COUNTER_TAUDIFF "30.0000000000"
*MEAS_COND_COUNTER_TAUINT "0.0000000000"
*MEAS_COND_IRRADIATION_MODE "OFF"
*MEAS_COND_IRRADIATION_WIDTH ""
*MEAS_COND_OPT_ATTR "集中法"
*MEAS_COND_OPT_NAME "@集中法"
*MEAS_COND_UNSYMMETRIC_MODE "OFF"
*MEAS_COND_XG_CURRENT "30.0000000000"
*MEAS_COND_XG_VOLTAGE "40.0000000000"
*MEAS_COND_XG_WAVE_TYPE "Ka"
*MEAS_DATA_COUNT "5001.0000000000"
*MEAS_SCAN_AXIS_X "2θ/θ"
*MEAS_SCAN_AXIS_X_INTERNAL "TwoThetaTheta"
*MEAS_SCAN_END_TIME "08/06/22 13:47:55"
*MEAS_SCAN_MODE "CONTINUOUS"
*MEAS_SCAN_MONITOR "0"
*MEAS_SCAN_RESOLUTION_X "0.0002"
*MEAS_SCAN_SPEED "2.5"
*MEAS_SCAN_SPEED_UNIT "deg/min"
*MEAS_SCAN_START "20.0000000000"
*MEAS_SCAN_START_TIME "08/06/22 13:26:32"
*MEAS_SCAN_STEP "0.0100000000"
*MEAS_SCAN_STOP "70.0000000000"
*MEAS_SCAN_UNIT_X "deg"
*MEAS_SCAN_UNIT_Y "counts"
*RAS_HEADER_END
*RAS_INT_START
20.0000 982.0000 1.0000
20.0100 965.0000 1.0000
20.0200 930.0000 1.0000
20.0300 915.0000 1.0000
20.0400 920.0000 1.0000
20.0500 954.0000 1.0000
20.0600 958.0000 1.0000
20.0700 964.0000 1.0000
20.0800 962.0000 1.0000
20.0900 965.0000 1.0000
20.1000 933.0000 1.0000
20.1100 971.0000 1.0000
20.1200 960.0000 1.0000
20.1300 1002.0000 1.0000
20.1400 915.0000 1.0000
20.1500 928.0000 1.0000
20.1600 910.0000 1.0000
20.1700 987.0000 1.0000
20.1800 951.0000 1.0000
20.1900 985.0000 1.0000
20.2000 964.0000 1.0000
20.2100 959.0000 1.0000
20.2200 980.0000 1.0000
20.2300 983.0000 1.0000
20.2400 975.0000 1.0000
20.2500 959.0000 1.0000
20.2600 970.0000 1.0000
20.2700 994.0000 1.0000
20.2800 980.0000 1.0000
20.2900 992.0000 1.0000
20.3000 951.0000 1.0000
20.3100 1013.0000 1.0000
20.3200 1000.0000 1.0000
20.3300 910.0000 1.0000
20.3400 958.0000 1.0000
20.3500 1007.0000 1.0000
20.3600 964.0000 1.0000
20.3700 998.0000 1.0000
20.3800 955.0000 1.0000
20.3900 985.0000 1.0000
20.4000 986.0000 1.0000
20.4100 943.0000 1.0000
20.4200 959.0000 1.0000
20.4300 953.0000 1.0000
20.4400 933.0000 1.0000
20.4500 959.0000 1.0000
20.4600 949.0000 1.0000
20.4700 959.0000 1.0000
20.4800 967.0000 1.0000
20.4900 971.0000 1.0000
20.5000 900.0000 1.0000
20.5100 950.0000 1.0000
20.5200 967.0000 1.0000
20.5300 978.0000 1.0000
20.5400 941.0000 1.0000
20.5500 918.0000 1.0000
20.5600 936.0000 1.0000
20.5700 974.0000 1.0000
20.5800 961.0000 1.0000
20.5900 955.0000 1.0000
20.6000 948.0000 1.0000
20.6100 964.0000 1.0000
20.6200 942.0000 1.0000
20.6300 950.0000 1.0000
20.6400 926.0000 1.0000
20.6500 968.0000 1.0000
20.6600 958.0000 1.0000
20.6700 953.0000 1.0000
20.6800 955.0000 1.0000
20.6900 934.0000 1.0000
20.7000 943.0000 1.0000
20.7100 943.0000 1.0000
20.7200 925.0000 1.0000
20.7300 958.0000 1.0000
20.7400 947.0000 1.0000
20.7500 940.0000 1.0000
20.7600 953.0000 1.0000
20.7700 968.0000 1.0000
20.7800 967.0000 1.0000
20.7900 974.0000 1.0000
20.8000 970.0000 1.0000
20.8100 970.0000 1.0000
20.8200 983.0000 1.0000
20.8300 958.0000 1.0000
20.8400 976.0000 1.0000
20.8500 921.0000 1.0000
20.8600 974.0000 1.0000
20.8700 984.0000 1.0000
20.8800 948.0000 1.0000
20.8900 916.0000 1.0000
20.9000 953.0000 1.0000
20.9100 966.0000 1.0000
20.9200 975.0000 1.0000
20.9300 966.0000 1.0000
20.9400 989.0000 1.0000
20.9500 925.0000 1.0000
20.9600 968.0000 1.0000
20.9700 969.0000 1.0000
20.9800 956.0000 1.0000
20.9900 1001.0000 1.0000
21.0000 953.0000 1.0000
21.0100 996.0000 1.0000
21.0200 965.0000 1.0000
21.0300 978.0000 1.0000
21.0400 951.0000 1.0000
21.0500 981.0000 1.0000
21.0600 933.0000 1.0000
21.0700 950.0000 1.0000
21.0800 963.0000 1.0000
21.0900 956.0000 1.0000
21.1000 944.0000 1.0000
21.1100 921.0000 1.0000
21.1200 957.0000 1.0000
21.1300 946.0000 1.0000
21.1400 945.0000 1.0000
21.1500 968.0000 1.0000
21.1600 921.0000 1.0000
21.1700 978.0000 1.0000
21.1800 936.0000 1.0000
21.1900 947.0000 1.0000
21.2000 1000.0000 1.0000
21.2100 922.0000 1.0000
21.2200 932.0000 1.0000
21.2300 893.0000 1.0000
21.2400 913.0000 1.0000
21.2500 953.0000 1.0000
21.2600 927.0000 1.0000
21.2700 923.0000 1.0000
21.2800 894.0000 1.0000
21.2900 942.0000 1.0000
21.3000 996.0000 1.0000
21.3100 988.0000 1.0000
21.3200 969.0000 1.0000
21.3300 948.0000 1.0000
21.3400 919.0000 1.0000
21.3500 946.0000 1.0000
21.3600 940.0000 1.0000
21.3700 978.0000 1.0000
21.3800 954.0000 1.0000
21.3900 959.0000 1.0000
21.4000 953.0000 1.0000
21.4100 946.0000 1.0000
21.4200 939.0000 1.0000
21.4300 961.0000 1.0000
21.4400 919.0000 1.0000
21.4500 892.0000 1.0000
21.4600 907.0000 1.0000
21.4700 985.0000 1.0000
21.4800 932.0000 1.0000
21.4900 955.0000 1.0000
21.5000 945.0000 1.0000
21.5100 924.0000 1.0000
21.5200 953.0000 1.0000
21.5300 891.0000 1.0000
21.5400 956.0000 1.0000
21.5500 944.0000 1.0000
21.5600 924.0000 1.0000
21.5700 918.0000 1.0000
21.5800 903.0000 1.0000
21.5900 951.0000 1.0000
21.6000 938.0000 1.0000
21.6100 926.0000 1.0000
21.6200 931.0000 1.0000
21.6300 941.0000 1.0000
21.6400 956.0000 1.0000
21.6500 986.0000 1.0000
21.6600 940.0000 1.0000
21.6700 930.0000 1.0000
21.6800 938.0000 1.0000
21.6900 932.0000 1.0000
21.7000 910.0000 1.0000
21.7100 921.0000 1.0000
21.7200 1001.0000 1.0000
21.7300 956.0000 1.0000
21.7400 926.0000 1.0000
21.7500 982.0000 1.0000
21.7600 912.0000 1.0000
21.7700 959.0000 1.0000
21.7800 920.0000 1.0000
21.7900 959.0000 1.0000
21.8000 965.0000 1.0000
21.8100 957.0000 1.0000
21.8200 972.0000 1.0000
21.8300 940.0000 1.0000
21.8400 961.0000 1.0000
21.8500 897.0000 1.0000
21.8600 922.0000 1.0000
21.8700 947.0000 1.0000
21.8800 949.0000 1.0000
21.8900 921.0000 1.0000
21.9000 974.0000 1.0000
21.9100 954.0000 1.0000
21.9200 946.0000 1.0000
21.9300 944.0000 1.0000
21.9400 946.0000 1.0000
21.9500 913.0000 1.0000
21.9600 967.0000 1.0000
21.9700 944.0000 1.0000
21.9800 998.0000 1.0000
21.9900 943.0000 1.0000
22.0000 958.0000 1.0000
22.0100 1023.0000 1.0000
22.0200 975.0000 1.0000
22.0300 965.0000 1.0000
22.0400 941.0000 1.0000
22.0500 911.0000 1.0000
22.0600 944.0000 1.0000
22.0700 965.0000 1.0000
22.0800 962.0000 1.0000
22.0900 927.0000 1.0000
22.1000 934.0000 1.0000
22.1100 956.0000 1.0000
22.1200 952.0000 1.0000
22.1300 962.0000 1.0000
22.1400 934.0000 1.0000
22.1500 902.0000 1.0000
22.1600 963.0000 1.0000
22.1700 941.0000 1.0000
22.1800 926.0000 1.0000
22.1900 962.0000 1.0000
22.2000 944.0000 1.0000
22.2100 905.0000 1.0000
22.2200 908.0000 1.0000
22.2300 928.0000 1.0000
22.2400 937.0000 1.0000
22.2500 938.0000 1.0000
22.2600 962.0000 1.0000
22.2700 958.0000 1.0000
22.2800 945.0000 1.0000
22.2900 942.0000 1.0000
22.3000 938.0000 1.0000
22.3100 865.0000 1.0000
22.3200 935.0000 1.0000
22.3300 951.0000 1.0000
22.3400 898.0000 1.0000
22.3500 956.0000 1.0000
22.3600 925.0000 1.0000
22.3700 950.0000 1.0000
22.3800 970.0000 1.0000
22.3900 954.0000 1.0000
22.4000 1006.0000 1.0000
22.4100 959.0000 1.0000
22.4200 963.0000 1.0000
22.4300 935.0000 1.0000
22.4400 920.0000 1.0000
22.4500 975.0000 1.0000
22.4600 928.0000 1.0000
22.4700 963.0000 1.0000
22.4800 940.0000 1.0000
22.4900 961.0000 1.0000
22.5000 912.0000 1.0000
22.5100 890.0000 1.0000
22.5200 985.0000 1.0000
22.5300 953.0000 1.0000
22.5400 892.0000 1.0000
22.5500 948.0000 1.0000
22.5600 959.0000 1.0000
22.5700 933.0000 1.0000
22.5800 885.0000 1.0000
22.5900 939.0000 1.0000
22.6000 973.0000 1.0000
22.6100 934.0000 1.0000
22.6200 940.0000 1.0000
22.6300 948.0000 1.0000
22.6400 920.0000 1.0000
22.6500 881.0000 1.0000
22.6600 930.0000 1.0000
22.6700 925.0000 1.0000
22.6800 976.0000 1.0000
22.6900 913.0000 1.0000
22.7000 979.0000 1.0000
22.7100 964.0000 1.0000
22.7200 960.0000 1.0000
22.7300 934.0000 1.0000
22.7400 943.0000 1.0000
22.7500 912.0000 1.0000
22.7600 935.0000 1.0000
22.7700 961.0000 1.0000
22.7800 941.0000 1.0000
22.7900 905.0000 1.0000
22.8000 951.0000 1.0000
22.8100 965.0000 1.0000
22.8200 938.0000 1.0000
22.8300 928.0000 1.0000
22.8400 941.0000 1.0000
22.8500 934.0000 1.0000
22.8600 889.0000 1.0000
22.8700 912.0000 1.0000
22.8800 895.0000 1.0000
22.8900 911.0000 1.0000
22.9000 907.0000 1.0000
22.9100 952.0000 1.0000
22.9200 946.0000 1.0000
22.9300 967.0000 1.0000
22.9400 931.0000 1.0000
22.9500 876.0000 1.0000
22.9600 965.0000 1.0000
22.9700 977.0000 1.0000
22.9800 938.0000 1.0000
22.9900 896.0000 1.0000
23.0000 957.0000 1.0000
23.0100 926.0000 1.0000
23.0200 915.0000 1.0000
23.0300 942.0000 1.0000
23.0400 956.0000 1.0000
23.0500 937.0000 1.0000
23.0600 919.0000 1.0000
23.0700 910.0000 1.0000
23.0800 920.0000 1.0000
23.0900 932.0000 1.0000
23.1000 899.0000 1.0000
23.1100 912.0000 1.0000
23.1200 945.0000 1.0000
23.1300 935.0000 1.0000
23.1400 906.0000 1.0000
23.1500 906.0000 1.0000
23.1600 918.0000 1.0000
23.1700 929.0000 1.0000
23.1800 917.0000 1.0000
23.1900 940.0000 1.0000
23.2000 906.0000 1.0000
23.2100 866.0000 1.0000
23.2200 921.0000 1.0000
23.2300 943.0000 1.0000
23.2400 919.0000 1.0000
23.2500 944.0000 1.0000
23.2600 947.0000 1.0000
23.2700 935.0000 1.0000
23.2800 939.0000 1.0000
23.2900 865.0000 1.0000
23.3000 889.0000 1.0000
23.3100 864.0000 1.0000
23.3200 940.0000 1.0000
23.3300 909.0000 1.0000
23.3400 933.0000 1.0000
23.3500 894.0000 1.0000
23.3600 919.0000 1.0000
23.3700 912.0000 1.0000
23.3800 926.0000 1.0000
23.3900 884.0000 1.0000
23.4000 899.0000 1.0000
23.4100 918.0000 1.0000
23.4200 888.0000 1.0000
23.4300 906.0000 1.0000
23.4400 879.0000 1.0000
23.4500 917.0000 1.0000
23.4600 894.0000 1.0000
23.4700 940.0000 1.0000
23.4800 900.0000 1.0000
23.4900 915.0000 1.0000
23.5000 888.0000 1.0000
23.5100 919.0000 1.0000
23.5200 925.0000 1.0000
23.5300 912.0000 1.0000
23.5400 878.0000 1.0000
23.5500 863.0000 1.0000
23.5600 958.0000 1.0000
23.5700 898.0000 1.0000
23.5800 976.0000 1.0000
23.5900 904.0000 1.0000
23.6000 869.0000 1.0000
23.6100 901.0000 1.0000
23.6200 903.0000 1.0000
23.6300 921.0000 1.0000
23.6400 933.0000 1.0000
23.6500 874.0000 1.0000
23.6600 915.0000 1.0000
23.6700 892.0000 1.0000
23.6800 941.0000 1.0000
23.6900 944.0000 1.0000
23.7000 912.0000 1.0000
23.7100 896.0000 1.0000
23.7200 884.0000 1.0000
23.7300 911.0000 1.0000
23.7400 943.0000 1.0000
23.7500 914.0000 1.0000
23.7600 865.0000 1.0000
23.7700 893.0000 1.0000
23.7800 935.0000 1.0000
23.7900 941.0000 1.0000
23.8000 958.0000 1.0000
23.8100 891.0000 1.0000
23.8200 948.0000 1.0000
23.8300 929.0000 1.0000
23.8400 963.0000 1.0000
23.8500 974.0000 1.0000
23.8600 885.0000 1.0000
23.8700 932.0000 1.0000
23.8800 968.0000 1.0000
23.8900 943.0000 1.0000
23.9000 927.0000 1.0000
23.9100 979.0000 1.0000
23.9200 949.0000 1.0000
23.9300 945.0000 1.0000
23.9400 938.0000 1.0000
23.9500 911.0000 1.0000
23.9600 985.0000 1.0000
23.9700 1044.0000 1.0000
23.9800 1075.0000 1.0000
23.9900 987.0000 1.0000
24.0000 971.0000 1.0000
24.0100 985.0000 1.0000
24.0200 996.0000 1.0000
24.0300 1031.0000 1.0000
24.0400 1067.0000 1.0000
24.0500 1025.0000 1.0000
24.0600 1035.0000 1.0000
24.0700 1033.0000 1.0000
24.0800 1047.0000 1.0000
24.0900 1045.0000 1.0000
24.1000 1081.0000 1.0000
24.1100 1022.0000 1.0000
24.1200 1045.0000 1.0000
24.1300 1008.0000 1.0000
24.1400 1039.0000 1.0000
24.1500 1015.0000 1.0000
24.1600 1004.0000 1.0000
24.1700 1062.0000 1.0000
24.1800 986.0000 1.0000
24.1900 981.0000 1.0000
24.2000 999.0000 1.0000
24.2100 1002.0000 1.0000
24.2200 988.0000 1.0000
24.2300 911.0000 1.0000
24.2400 951.0000 1.0000
24.2500 990.0000 1.0000
24.2600 943.0000 1.0000
24.2700 942.0000 1.0000
24.2800 884.0000 1.0000
24.2900 880.0000 1.0000
24.3000 863.0000 1.0000
24.3100 927.0000 1.0000
24.3200 929.0000 1.0000
24.3300 963.0000 1.0000
24.3400 948.0000 1.0000
24.3500 955.0000 1.0000
24.3600 912.0000 1.0000
24.3700 888.0000 1.0000
24.3800 921.0000 1.0000
24.3900 893.0000 1.0000
24.4000 970.0000 1.0000
24.4100 976.0000 1.0000
24.4200 882.0000 1.0000
24.4300 918.0000 1.0000
24.4400 898.0000 1.0000
24.4500 883.0000 1.0000
24.4600 901.0000 1.0000
24.4700 893.0000 1.0000
24.4800 911.0000 1.0000
24.4900 886.0000 1.0000
24.5000 878.0000 1.0000
24.5100 919.0000 1.0000
24.5200 959.0000 1.0000
24.5300 883.0000 1.0000
24.5400 897.0000 1.0000
24.5500 872.0000 1.0000
24.5600 934.0000 1.0000
24.5700 937.0000 1.0000
24.5800 906.0000 1.0000
24.5900 916.0000 1.0000
24.6000 946.0000 1.0000
24.6100 945.0000 1.0000
24.6200 921.0000 1.0000
24.6300 903.0000 1.0000
24.6400 876.0000 1.0000
24.6500 938.0000 1.0000
24.6600 905.0000 1.0000
24.6700 953.0000 1.0000
24.6800 910.0000 1.0000
24.6900 845.0000 1.0000
24.7000 853.0000 1.0000
24.7100 936.0000 1.0000
24.7200 938.0000 1.0000
24.7300 946.0000 1.0000
24.7400 876.0000 1.0000
24.7500 891.0000 1.0000
24.7600 892.0000 1.0000
24.7700 919.0000 1.0000
24.7800 908.0000 1.0000
24.7900 877.0000 1.0000
24.8000 893.0000 1.0000
24.8100 865.0000 1.0000
24.8200 901.0000 1.0000
24.8300 918.0000 1.0000
24.8400 884.0000 1.0000
24.8500 893.0000 1.0000
24.8600 894.0000 1.0000
24.8700 883.0000 1.0000
24.8800 910.0000 1.0000
24.8900 842.0000 1.0000
24.9000 866.0000 1.0000
24.9100 882.0000 1.0000
24.9200 905.0000 1.0000
24.9300 886.0000 1.0000
24.9400 904.0000 1.0000
24.9500 887.0000 1.0000
24.9600 860.0000 1.0000
24.9700 929.0000 1.0000
24.9800 915.0000 1.0000
24.9900 930.0000 1.0000
25.0000 868.0000 1.0000
25.0100 902.0000 1.0000
25.0200 886.0000 1.0000
25.0300 838.0000 1.0000
25.0400 903.0000 1.0000
25.0500 928.0000 1.0000
25.0600 865.0000 1.0000
25.0700 873.0000 1.0000
25.0800 904.0000 1.0000
25.0900 897.0000 1.0000
25.1000 898.0000 1.0000
25.1100 926.0000 1.0000
25.1200 893.0000 1.0000
25.1300 929.0000 1.0000
25.1400 890.0000 1.0000
25.1500 891.0000 1.0000
25.1600 876.0000 1.0000
25.1700 916.0000 1.0000
25.1800 909.0000 1.0000
25.1900 884.0000 1.0000
25.2000 868.0000 1.0000
25.2100 920.0000 1.0000
25.2200 859.0000 1.0000
25.2300 878.0000 1.0000
25.2400 867.0000 1.0000
25.2500 885.0000 1.0000
25.2600 894.0000 1.0000
25.2700 913.0000 1.0000
25.2800 878.0000 1.0000
25.2900 860.0000 1.0000
25.3000 898.0000 1.0000
25.3100 861.0000 1.0000
25.3200 881.0000 1.0000
25.3300 932.0000 1.0000
25.3400 871.0000 1.0000
25.3500 897.0000 1.0000
25.3600 870.0000 1.0000
25.3700 947.0000 1.0000
25.3800 909.0000 1.0000
25.3900 900.0000 1.0000
25.4000 854.0000 1.0000
25.4100 886.0000 1.0000
25.4200 875.0000 1.0000
25.4300 917.0000 1.0000
25.4400 889.0000 1.0000
25.4500 906.0000 1.0000
25.4600 879.0000 1.0000
25.4700 881.0000 1.0000
25.4800 917.0000 1.0000
25.4900 910.0000 1.0000
25.5000 923.0000 1.0000
25.5100 895.0000 1.0000
25.5200 899.0000 1.0000
25.5300 943.0000 1.0000
25.5400 914.0000 1.0000
25.5500 866.0000 1.0000
25.5600 915.0000 1.0000
25.5700 937.0000 1.0000
25.5800 938.0000 1.0000
25.5900 891.0000 1.0000
25.6000 889.0000 1.0000
25.6100 900.0000 1.0000
25.6200 883.0000 1.0000
25.6300 882.0000 1.0000
25.6400 895.0000 1.0000
25.6500 899.0000 1.0000
25.6600 931.0000 1.0000
25.6700 913.0000 1.0000
25.6800 899.0000 1.0000
25.6900 910.0000 1.0000
25.7000 930.0000 1.0000
25.7100 898.0000 1.0000
25.7200 870.0000 1.0000
25.7300 910.0000 1.0000
25.7400 884.0000 1.0000
25.7500 881.0000 1.0000
25.7600 875.0000 1.0000
25.7700 955.0000 1.0000
25.7800 913.0000 1.0000
25.7900 882.0000 1.0000
25.8000 891.0000 1.0000
25.8100 947.0000 1.0000
25.8200 933.0000 1.0000
25.8300 868.0000 1.0000
25.8400 862.0000 1.0000
25.8500 887.0000 1.0000
25.8600 934.0000 1.0000
25.8700 936.0000 1.0000
25.8800 919.0000 1.0000
25.8900 914.0000 1.0000
25.9000 940.0000 1.0000
25.9100 973.0000 1.0000
25.9200 970.0000 1.0000
25.9300 978.0000 1.0000
25.9400 994.0000 1.0000
25.9500 970.0000 1.0000
25.9600 923.0000 1.0000
25.9700 930.0000 1.0000
25.9800 951.0000 1.0000
25.9900 987.0000 1.0000
26.0000 940.0000 1.0000
26.0100 965.0000 1.0000
26.0200 917.0000 1.0000
26.0300 917.0000 1.0000
26.0400 993.0000 1.0000
26.0500 984.0000 1.0000
26.0600 1008.0000 1.0000
26.0700 1030.0000 1.0000
26.0800 1023.0000 1.0000
26.0900 1036.0000 1.0000
26.1000 1023.0000 1.0000
26.1100 1081.0000 1.0000
26.1200 1054.0000 1.0000
26.1300 1026.0000 1.0000
26.1400 1139.0000 1.0000
26.1500 1135.0000 1.0000
26.1600 1127.0000 1.0000
26.1700 1162.0000 1.0000
26.1800 1198.0000 1.0000
26.1900 1188.0000 1.0000
26.2000 1204.0000 1.0000
26.2100 1297.0000 1.0000
26.2200 1338.0000 1.0000
26.2300 1311.0000 1.0000
26.2400 1366.0000 1.0000
26.2500 1427.0000 1.0000
26.2600 1448.0000 1.0000
26.2700 1477.0000 1.0000
26.2800 1567.0000 1.0000
26.2900 1613.0000 1.0000
26.3000 1658.0000 1.0000
26.3100 1714.0000 1.0000
26.3200 1817.0000 1.0000
26.3300 1829.0000 1.0000
26.3400 2003.0000 1.0000
26.3500 2114.0000 1.0000
26.3600 2249.0000 1.0000
26.3700 2339.0000 1.0000
26.3800 2560.0000 1.0000
26.3900 2659.0000 1.0000
26.4000 2703.0000 1.0000
26.4100 2878.0000 1.0000
26.4200 2967.0000 1.0000
26.4300 2997.0000 1.0000
26.4400 3042.0000 1.0000
26.4500 3006.0000 1.0000
26.4600 3005.0000 1.0000
26.4700 2920.0000 1.0000
26.4800 2897.0000 1.0000
26.4900 2756.0000 1.0000
26.5000 2722.0000 1.0000
26.5100 2605.0000 1.0000
26.5200 2498.0000 1.0000
26.5300 2299.0000 1.0000
26.5400 2236.0000 1.0000
26.5500 2047.0000 1.0000
26.5600 1966.0000 1.0000
26.5700 1873.0000 1.0000
26.5800 1751.0000 1.0000
26.5900 1590.0000 1.0000
26.6000 1675.0000 1.0000
26.6100 1515.0000 1.0000
26.6200 1494.0000 1.0000
26.6300 1483.0000 1.0000
26.6400 1447.0000 1.0000
26.6500 1398.0000 1.0000
26.6600 1291.0000 1.0000
26.6700 1314.0000 1.0000
26.6800 1206.0000 1.0000
26.6900 1203.0000 1.0000
26.7000 1144.0000 1.0000
26.7100 1155.0000 1.0000
26.7200 1130.0000 1.0000
26.7300 1092.0000 1.0000
26.7400 1070.0000 1.0000
26.7500 1110.0000 1.0000
26.7600 1065.0000 1.0000
26.7700 1058.0000 1.0000
26.7800 981.0000 1.0000
26.7900 994.0000 1.0000
26.8000 1021.0000 1.0000
26.8100 995.0000 1.0000
26.8200 1003.0000 1.0000
26.8300 985.0000 1.0000
26.8400 1011.0000 1.0000
26.8500 987.0000 1.0000
26.8600 968.0000 1.0000
26.8700 920.0000 1.0000
26.8800 946.0000 1.0000
26.8900 894.0000 1.0000
26.9000 932.0000 1.0000
26.9100 951.0000 1.0000
26.9200 890.0000 1.0000
26.9300 921.0000 1.0000
26.9400 961.0000 1.0000
26.9500 879.0000 1.0000
26.9600 901.0000 1.0000
26.9700 887.0000 1.0000
26.9800 913.0000 1.0000
26.9900 884.0000 1.0000
27.0000 876.0000 1.0000
27.0100 904.0000 1.0000
27.0200 875.0000 1.0000
27.0300 866.0000 1.0000
27.0400 866.0000 1.0000
27.0500 902.0000 1.0000
27.0600 924.0000 1.0000
27.0700 901.0000 1.0000
27.0800 877.0000 1.0000
27.0900 871.0000 1.0000
27.1000 902.0000 1.0000
27.1100 889.0000 1.0000
27.1200 871.0000 1.0000
27.1300 896.0000 1.0000
27.1400 860.0000 1.0000
27.1500 833.0000 1.0000
27.1600 848.0000 1.0000
27.1700 848.0000 1.0000
27.1800 877.0000 1.0000
27.1900 848.0000 1.0000
27.2000 839.0000 1.0000
27.2100 923.0000 1.0000
27.2200 860.0000 1.0000
27.2300 837.0000 1.0000
27.2400 827.0000 1.0000
27.2500 837.0000 1.0000
27.2600 901.0000 1.0000
27.2700 813.0000 1.0000
27.2800 775.0000 1.0000
27.2900 823.0000 1.0000
27.3000 826.0000 1.0000
27.3100 864.0000 1.0000
27.3200 841.0000 1.0000
27.3300 833.0000 1.0000
27.3400 797.0000 1.0000
27.3500 823.0000 1.0000
27.3600 865.0000 1.0000
27.3700 822.0000 1.0000
27.3800 854.0000 1.0000
27.3900 820.0000 1.0000
27.4000 819.0000 1.0000
27.4100 810.0000 1.0000
27.4200 852.0000 1.0000
27.4300 839.0000 1.0000
27.4400 850.0000 1.0000
27.4500 811.0000 1.0000
27.4600 803.0000 1.0000
27.4700 837.0000 1.0000
27.4800 852.0000 1.0000
27.4900 892.0000 1.0000
27.5000 831.0000 1.0000
27.5100 842.0000 1.0000
27.5200 821.0000 1.0000
27.5300 805.0000 1.0000
27.5400 805.0000 1.0000
27.5500 826.0000 1.0000
27.5600 809.0000 1.0000
27.5700 790.0000 1.0000
27.5800 777.0000 1.0000
27.5900 832.0000 1.0000
27.6000 807.0000 1.0000
27.6100 778.0000 1.0000
27.6200 821.0000 1.0000
27.6300 799.0000 1.0000
27.6400 811.0000 1.0000
27.6500 823.0000 1.0000
27.6600 868.0000 1.0000
27.6700 775.0000 1.0000
27.6800 817.0000 1.0000
27.6900 757.0000 1.0000
27.7000 791.0000 1.0000
27.7100 841.0000 1.0000
27.7200 835.0000 1.0000
27.7300 774.0000 1.0000
27.7400 797.0000 1.0000
27.7500 819.0000 1.0000
27.7600 801.0000 1.0000
27.7700 871.0000 1.0000
27.7800 826.0000 1.0000
27.7900 817.0000 1.0000
27.8000 788.0000 1.0000
27.8100 801.0000 1.0000
27.8200 807.0000 1.0000
27.8300 789.0000 1.0000
27.8400 882.0000 1.0000
27.8500 806.0000 1.0000
27.8600 836.0000 1.0000
27.8700 822.0000 1.0000
27.8800 792.0000 1.0000
27.8900 841.0000 1.0000
27.9000 782.0000 1.0000
27.9100 799.0000 1.0000
27.9200 820.0000 1.0000
27.9300 844.0000 1.0000
27.9400 803.0000 1.0000
27.9500 827.0000 1.0000
27.9600 828.0000 1.0000
27.9700 770.0000 1.0000
27.9800 804.0000 1.0000
27.9900 813.0000 1.0000
28.0000 799.0000 1.0000
28.0100 801.0000 1.0000
28.0200 794.0000 1.0000
28.0300 790.0000 1.0000
28.0400 755.0000 1.0000
28.0500 768.0000 1.0000
28.0600 801.0000 1.0000
28.0700 803.0000 1.0000
28.0800 754.0000 1.0000
28.0900 765.0000 1.0000
28.1000 782.0000 1.0000
28.1100 806.0000 1.0000
28.1200 813.0000 1.0000
28.1300 797.0000 1.0000
28.1400 757.0000 1.0000
28.1500 786.0000 1.0000
28.1600 740.0000 1.0000
28.1700 803.0000 1.0000
28.1800 796.0000 1.0000
28.1900 755.0000 1.0000
28.2000 760.0000 1.0000
28.2100 730.0000 1.0000
28.2200 752.0000 1.0000
28.2300 748.0000 1.0000
28.2400 751.0000 1.0000
28.2500 779.0000 1.0000
28.2600 767.0000 1.0000
28.2700 806.0000 1.0000
28.2800 755.0000 1.0000
28.2900 806.0000 1.0000
28.3000 793.0000 1.0000
28.3100 810.0000 1.0000
28.3200 784.0000 1.0000
28.3300 811.0000 1.0000
28.3400 780.0000 1.0000
28.3500 780.0000 1.0000
28.3600 754.0000 1.0000
28.3700 787.0000 1.0000
28.3800 762.0000 1.0000
28.3900 785.0000 1.0000
28.4000 810.0000 1.0000
28.4100 806.0000 1.0000
28.4200 782.0000 1.0000
28.4300 782.0000 1.0000
28.4400 775.0000 1.0000
28.4500 771.0000 1.0000
28.4600 787.0000 1.0000
28.4700 783.0000 1.0000
28.4800 792.0000 1.0000
28.4900 808.0000 1.0000
28.5000 746.0000 1.0000
28.5100 753.0000 1.0000
28.5200 761.0000 1.0000
28.5300 763.0000 1.0000
28.5400 799.0000 1.0000
28.5500 762.0000 1.0000
28.5600 703.0000 1.0000
28.5700 794.0000 1.0000
28.5800 749.0000 1.0000
28.5900 762.0000 1.0000
28.6000 741.0000 1.0000
28.6100 771.0000 1.0000
28.6200 789.0000 1.0000
28.6300 759.0000 1.0000
28.6400 765.0000 1.0000
28.6500 787.0000 1.0000
28.6600 761.0000 1.0000
28.6700 826.0000 1.0000
28.6800 765.0000 1.0000
28.6900 759.0000 1.0000
28.7000 758.0000 1.0000
28.7100 771.0000 1.0000
28.7200 689.0000 1.0000
28.7300 748.0000 1.0000
28.7400 758.0000 1.0000
28.7500 804.0000 1.0000
28.7600 774.0000 1.0000
28.7700 765.0000 1.0000
28.7800 777.0000 1.0000
28.7900 771.0000 1.0000
28.8000 787.0000 1.0000
28.8100 771.0000 1.0000
28.8200 776.0000 1.0000
28.8300 792.0000 1.0000
28.8400 761.0000 1.0000
28.8500 757.0000 1.0000
28.8600 807.0000 1.0000
28.8700 754.0000 1.0000
28.8800 755.0000 1.0000
28.8900 789.0000 1.0000
28.9000 781.0000 1.0000
28.9100 797.0000 1.0000
28.9200 712.0000 1.0000
28.9300 815.0000 1.0000
28.9400 766.0000 1.0000
28.9500 780.0000 1.0000
28.9600 757.0000 1.0000
28.9700 760.0000 1.0000
28.9800 741.0000 1.0000
28.9900 718.0000 1.0000
29.0000 768.0000 1.0000
29.0100 771.0000 1.0000
29.0200 799.0000 1.0000
29.0300 767.0000 1.0000
29.0400 764.0000 1.0000
29.0500 776.0000 1.0000
29.0600 776.0000 1.0000
29.0700 742.0000 1.0000
29.0800 791.0000 1.0000
29.0900 732.0000 1.0000
29.1000 788.0000 1.0000
29.1100 714.0000 1.0000
29.1200 748.0000 1.0000
29.1300 756.0000 1.0000
29.1400 739.0000 1.0000
29.1500 730.0000 1.0000
29.1600 747.0000 1.0000
29.1700 727.0000 1.0000
29.1800 757.0000 1.0000
29.1900 732.0000 1.0000
29.2000 712.0000 1.0000
29.2100 733.0000 1.0000
29.2200 711.0000 1.0000
29.2300 699.0000 1.0000
29.2400 694.0000 1.0000
29.2500 708.0000 1.0000
29.2600 749.0000 1.0000
29.2700 743.0000 1.0000
29.2800 719.0000 1.0000
29.2900 741.0000 1.0000
29.3000 723.0000 1.0000
29.3100 742.0000 1.0000
29.3200 739.0000 1.0000
29.3300 744.0000 1.0000
29.3400 681.0000 1.0000
29.3500 758.0000 1.0000
29.3600 754.0000 1.0000
29.3700 757.0000 1.0000
29.3800 755.0000 1.0000
29.3900 725.0000 1.0000
29.4000 693.0000 1.0000
29.4100 771.0000 1.0000
29.4200 734.0000 1.0000
29.4300 731.0000 1.0000
29.4400 742.0000 1.0000
29.4500 707.0000 1.0000
29.4600 722.0000 1.0000
29.4700 747.0000 1.0000
29.4800 714.0000 1.0000
29.4900 739.0000 1.0000
29.5000 713.0000 1.0000
29.5100 710.0000 1.0000
29.5200 722.0000 1.0000
29.5300 695.0000 1.0000
29.5400 758.0000 1.0000
29.5500 709.0000 1.0000
29.5600 704.0000 1.0000
29.5700 739.0000 1.0000
29.5800 729.0000 1.0000
29.5900 715.0000 1.0000
29.6000 749.0000 1.0000
29.6100 777.0000 1.0000
29.6200 738.0000 1.0000
29.6300 727.0000 1.0000
29.6400 720.0000 1.0000
29.6500 685.0000 1.0000
29.6600 671.0000 1.0000
29.6700 741.0000 1.0000
29.6800 729.0000 1.0000
29.6900 693.0000 1.0000
29.7000 692.0000 1.0000
29.7100 712.0000 1.0000
29.7200 732.0000 1.0000
29.7300 697.0000 1.0000
29.7400 723.0000 1.0000
29.7500 771.0000 1.0000
29.7600 741.0000 1.0000
29.7700 714.0000 1.0000
29.7800 736.0000 1.0000
29.7900 740.0000 1.0000
29.8000 784.0000 1.0000
29.8100 757.0000 1.0000
29.8200 721.0000 1.0000
29.8300 736.0000 1.0000
29.8400 714.0000 1.0000
29.8500 698.0000 1.0000
29.8600 712.0000 1.0000
29.8700 718.0000 1.0000
29.8800 757.0000 1.0000
29.8900 720.0000 1.0000
29.9000 764.0000 1.0000
29.9100 723.0000 1.0000
29.9200 712.0000 1.0000
29.9300 750.0000 1.0000
29.9400 722.0000 1.0000
29.9500 725.0000 1.0000
29.9600 751.0000 1.0000
29.9700 709.0000 1.0000
29.9800 724.0000 1.0000
29.9900 694.0000 1.0000
30.0000 730.0000 1.0000
30.0100 745.0000 1.0000
30.0200 739.0000 1.0000
30.0300 698.0000 1.0000
30.0400 752.0000 1.0000
30.0500 723.0000 1.0000
30.0600 716.0000 1.0000
30.0700 712.0000 1.0000
30.0800 697.0000 1.0000
30.0900 716.0000 1.0000
30.1000 735.0000 1.0000
30.1100 715.0000 1.0000
30.1200 725.0000 1.0000
30.1300 748.0000 1.0000
30.1400 752.0000 1.0000
30.1500 743.0000 1.0000
30.1600 737.0000 1.0000
30.1700 711.0000 1.0000
30.1800 705.0000 1.0000
30.1900 711.0000 1.0000
30.2000 738.0000 1.0000
30.2100 709.0000 1.0000
30.2200 703.0000 1.0000
30.2300 709.0000 1.0000
30.2400 708.0000 1.0000
30.2500 757.0000 1.0000
30.2600 753.0000 1.0000
30.2700 638.0000 1.0000
30.2800 681.0000 1.0000
30.2900 736.0000 1.0000
30.3000 711.0000 1.0000
30.3100 680.0000 1.0000
30.3200 730.0000 1.0000
30.3300 727.0000 1.0000
30.3400 739.0000 1.0000
30.3500 701.0000 1.0000
30.3600 715.0000 1.0000
30.3700 756.0000 1.0000
30.3800 712.0000 1.0000
30.3900 702.0000 1.0000
30.4000 707.0000 1.0000
30.4100 722.0000 1.0000
30.4200 696.0000 1.0000
30.4300 718.0000 1.0000
30.4400 741.0000 1.0000
30.4500 751.0000 1.0000
30.4600 685.0000 1.0000
30.4700 729.0000 1.0000
30.4800 735.0000 1.0000
30.4900 717.0000 1.0000
30.5000 717.0000 1.0000
30.5100 713.0000 1.0000
30.5200 695.0000 1.0000
30.5300 696.0000 1.0000
30.5400 677.0000 1.0000
30.5500 673.0000 1.0000
30.5600 712.0000 1.0000
30.5700 710.0000 1.0000
30.5800 724.0000 1.0000
30.5900 697.0000 1.0000
30.6000 696.0000 1.0000
30.6100 707.0000 1.0000
30.6200 693.0000 1.0000
30.6300 695.0000 1.0000
30.6400 709.0000 1.0000
30.6500 694.0000 1.0000
30.6600 707.0000 1.0000
30.6700 696.0000 1.0000
30.6800 713.0000 1.0000
30.6900 704.0000 1.0000
30.7000 691.0000 1.0000
30.7100 733.0000 1.0000
30.7200 688.0000 1.0000
30.7300 689.0000 1.0000
30.7400 729.0000 1.0000
30.7500 679.0000 1.0000
30.7600 717.0000 1.0000
30.7700 655.0000 1.0000
30.7800 662.0000 1.0000
30.7900 686.0000 1.0000
30.8000 696.0000 1.0000
30.8100 702.0000 1.0000
30.8200 720.0000 1.0000
30.8300 687.0000 1.0000
30.8400 727.0000 1.0000
30.8500 694.0000 1.0000
30.8600 682.0000 1.0000
30.8700 675.0000 1.0000
30.8800 716.0000 1.0000
30.8900 708.0000 1.0000
30.9000 739.0000 1.0000
30.9100 698.0000 1.0000
30.9200 692.0000 1.0000
30.9300 689.0000 1.0000
30.9400 700.0000 1.0000
30.9500 700.0000 1.0000
30.9600 674.0000 1.0000
30.9700 661.0000 1.0000
30.9800 687.0000 1.0000
30.9900 710.0000 1.0000
31.0000 698.0000 1.0000
31.0100 672.0000 1.0000
31.0200 672.0000 1.0000
31.0300 727.0000 1.0000
31.0400 752.0000 1.0000
31.0500 663.0000 1.0000
31.0600 677.0000 1.0000
31.0700 722.0000 1.0000
31.0800 698.0000 1.0000
31.0900 653.0000 1.0000
31.1000 721.0000 1.0000
31.1100 699.0000 1.0000
31.1200 717.0000 1.0000
31.1300 695.0000 1.0000
31.1400 709.0000 1.0000
31.1500 697.0000 1.0000
31.1600 710.0000 1.0000
31.1700 747.0000 1.0000
31.1800 730.0000 1.0000
31.1900 696.0000 1.0000
31.2000 696.0000 1.0000
31.2100 669.0000 1.0000
31.2200 729.0000 1.0000
31.2300 670.0000 1.0000
31.2400 690.0000 1.0000
31.2500 731.0000 1.0000
31.2600 739.0000 1.0000
31.2700 701.0000 1.0000
31.2800 657.0000 1.0000
31.2900 689.0000 1.0000
31.3000 718.0000 1.0000
31.3100 684.0000 1.0000
31.3200 701.0000 1.0000
31.3300 673.0000 1.0000
31.3400 676.0000 1.0000
31.3500 691.0000 1.0000
31.3600 661.0000 1.0000
31.3700 713.0000 1.0000
31.3800 685.0000 1.0000
31.3900 696.0000 1.0000
31.4000 668.0000 1.0000
31.4100 661.0000 1.0000
31.4200 743.0000 1.0000
31.4300 682.0000 1.0000
31.4400 688.0000 1.0000
31.4500 697.0000 1.0000
31.4600 699.0000 1.0000
31.4700 652.0000 1.0000
31.4800 677.0000 1.0000
31.4900 692.0000 1.0000
31.5000 682.0000 1.0000
31.5100 704.0000 1.0000
31.5200 696.0000 1.0000
31.5300 685.0000 1.0000
31.5400 716.0000 1.0000
31.5500 704.0000 1.0000
31.5600 695.0000 1.0000
31.5700 681.0000 1.0000
31.5800 669.0000 1.0000
31.5900 688.0000 1.0000
31.6000 658.0000 1.0000
31.6100 680.0000 1.0000
31.6200 708.0000 1.0000
31.6300 716.0000 1.0000
31.6400 695.0000 1.0000
31.6500 638.0000 1.0000
31.6600 630.0000 1.0000
31.6700 701.0000 1.0000
31.6800 685.0000 1.0000
31.6900 609.0000 1.0000
31.7000 649.0000 1.0000
31.7100 635.0000 1.0000
31.7200 666.0000 1.0000
31.7300 672.0000 1.0000
31.7400 648.0000 1.0000
31.7500 676.0000 1.0000
31.7600 683.0000 1.0000
31.7700 693.0000 1.0000
31.7800 682.0000 1.0000
31.7900 689.0000 1.0000
31.8000 663.0000 1.0000
31.8100 640.0000 1.0000
31.8200 630.0000 1.0000
31.8300 649.0000 1.0000
31.8400 633.0000 1.0000
31.8500 650.0000 1.0000
31.8600 710.0000 1.0000
31.8700 662.0000 1.0000
31.8800 657.0000 1.0000
31.8900 657.0000 1.0000
31.9000 659.0000 1.0000
31.9100 689.0000 1.0000
31.9200 682.0000 1.0000
31.9300 702.0000 1.0000
31.9400 668.0000 1.0000
31.9500 685.0000 1.0000
31.9600 662.0000 1.0000
31.9700 687.0000 1.0000
31.9800 665.0000 1.0000
31.9900 665.0000 1.0000
32.0000 639.0000 1.0000
32.0100 680.0000 1.0000
32.0200 690.0000 1.0000
32.0300 679.0000 1.0000
32.0400 649.0000 1.0000
32.0500 659.0000 1.0000
32.0600 661.0000 1.0000
32.0700 632.0000 1.0000
32.0800 662.0000 1.0000
32.0900 671.0000 1.0000
32.1000 687.0000 1.0000
32.1100 652.0000 1.0000
32.1200 653.0000 1.0000
32.1300 674.0000 1.0000
32.1400 687.0000 1.0000
32.1500 660.0000 1.0000
32.1600 671.0000 1.0000
32.1700 625.0000 1.0000
32.1800 633.0000 1.0000
32.1900 671.0000 1.0000
32.2000 705.0000 1.0000
32.2100 634.0000 1.0000
32.2200 668.0000 1.0000
32.2300 664.0000 1.0000
32.2400 665.0000 1.0000
32.2500 676.0000 1.0000
32.2600 667.0000 1.0000
32.2700 693.0000 1.0000
32.2800 676.0000 1.0000
32.2900 651.0000 1.0000
32.3000 700.0000 1.0000
32.3100 656.0000 1.0000
32.3200 672.0000 1.0000
32.3300 628.0000 1.0000
32.3400 631.0000 1.0000
32.3500 651.0000 1.0000
32.3600 634.0000 1.0000
32.3700 613.0000 1.0000
32.3800 657.0000 1.0000
32.3900 632.0000 1.0000
32.4000 662.0000 1.0000
32.4100 681.0000 1.0000
32.4200 664.0000 1.0000
32.4300 662.0000 1.0000
32.4400 683.0000 1.0000
32.4500 644.0000 1.0000
32.4600 636.0000 1.0000
32.4700 631.0000 1.0000
32.4800 679.0000 1.0000
32.4900 636.0000 1.0000
32.5000 635.0000 1.0000
32.5100 669.0000 1.0000
32.5200 653.0000 1.0000
32.5300 673.0000 1.0000
32.5400 662.0000 1.0000
32.5500 671.0000 1.0000
32.5600 623.0000 1.0000
32.5700 634.0000 1.0000
32.5800 673.0000 1.0000
32.5900 686.0000 1.0000
32.6000 630.0000 1.0000
32.6100 624.0000 1.0000
32.6200 636.0000 1.0000
32.6300 640.0000 1.0000
32.6400 672.0000 1.0000
32.6500 654.0000 1.0000
32.6600 626.0000 1.0000
32.6700 641.0000 1.0000
32.6800 664.0000 1.0000
32.6900 622.0000 1.0000
32.7000 675.0000 1.0000
32.7100 683.0000 1.0000
32.7200 660.0000 1.0000
32.7300 658.0000 1.0000
32.7400 708.0000 1.0000
32.7500 657.0000 1.0000
32.7600 646.0000 1.0000
32.7700 647.0000 1.0000
32.7800 666.0000 1.0000
32.7900 654.0000 1.0000
32.8000 632.0000 1.0000
32.8100 682.0000 1.0000
32.8200 695.0000 1.0000
32.8300 684.0000 1.0000
32.8400 664.0000 1.0000
32.8500 679.0000 1.0000
32.8600 674.0000 1.0000
32.8700 679.0000 1.0000
32.8800 669.0000 1.0000
32.8900 710.0000 1.0000
32.9000 712.0000 1.0000
32.9100 699.0000 1.0000
32.9200 693.0000 1.0000
32.9300 762.0000 1.0000
32.9400 728.0000 1.0000
32.9500 734.0000 1.0000
32.9600 729.0000 1.0000
32.9700 753.0000 1.0000
32.9800 771.0000 1.0000
32.9900 793.0000 1.0000
33.0000 770.0000 1.0000
33.0100 795.0000 1.0000
33.0200 806.0000 1.0000
33.0300 820.0000 1.0000
33.0400 806.0000 1.0000
33.0500 834.0000 1.0000
33.0600 926.0000 1.0000
33.0700 941.0000 1.0000
33.0800 883.0000 1.0000
33.0900 936.0000 1.0000
33.1000 936.0000 1.0000
33.1100 960.0000 1.0000
33.1200 942.0000 1.0000
33.1300 914.0000 1.0000
33.1400 928.0000 1.0000
33.1500 868.0000 1.0000
33.1600 847.0000 1.0000
33.1700 865.0000 1.0000
33.1800 901.0000 1.0000
33.1900 874.0000 1.0000
33.2000 829.0000 1.0000
33.2100 823.0000 1.0000
33.2200 815.0000 1.0000
33.2300 807.0000 1.0000
33.2400 771.0000 1.0000
33.2500 784.0000 1.0000
33.2600 804.0000 1.0000
33.2700 778.0000 1.0000
33.2800 732.0000 1.0000
33.2900 745.0000 1.0000
33.3000 764.0000 1.0000
33.3100 760.0000 1.0000
33.3200 772.0000 1.0000
33.3300 752.0000 1.0000
33.3400 732.0000 1.0000
33.3500 739.0000 1.0000
33.3600 753.0000 1.0000
33.3700 799.0000 1.0000
33.3800 769.0000 1.0000
33.3900 793.0000 1.0000
33.4000 799.0000 1.0000
33.4100 774.0000 1.0000
33.4200 791.0000 1.0000
33.4300 815.0000 1.0000
33.4400 813.0000 1.0000
33.4500 805.0000 1.0000
33.4600 880.0000 1.0000
33.4700 841.0000 1.0000
33.4800 859.0000 1.0000
33.4900 898.0000 1.0000
33.5000 879.0000 1.0000
33.5100 914.0000 1.0000
33.5200 974.0000 1.0000
33.5300 1003.0000 1.0000
33.5400 1037.0000 1.0000
33.5500 1055.0000 1.0000
33.5600 1131.0000 1.0000
33.5700 1241.0000 1.0000
33.5800 1261.0000 1.0000
33.5900 1233.0000 1.0000
33.6000 1342.0000 1.0000
33.6100 1456.0000 1.0000
33.6200 1504.0000 1.0000
33.6300 1452.0000 1.0000
33.6400 1469.0000 1.0000
33.6500 1515.0000 1.0000
33.6600 1489.0000 1.0000
33.6700 1521.0000 1.0000
33.6800 1524.0000 1.0000
33.6900 1485.0000 1.0000
33.7000 1447.0000 1.0000
33.7100 1396.0000 1.0000
33.7200 1380.0000 1.0000
33.7300 1297.0000 1.0000
33.7400 1266.0000 1.0000
33.7500 1250.0000 1.0000
33.7600 1235.0000 1.0000
33.7700 1198.0000 1.0000
33.7800 1104.0000 1.0000
33.7900 1056.0000 1.0000
33.8000 1045.0000 1.0000
33.8100 949.0000 1.0000
33.8200 895.0000 1.0000
33.8300 950.0000 1.0000
33.8400 867.0000 1.0000
33.8500 884.0000 1.0000
33.8600 873.0000 1.0000
33.8700 831.0000 1.0000
33.8800 844.0000 1.0000
33.8900 781.0000 1.0000
33.9000 764.0000 1.0000
33.9100 762.0000 1.0000
33.9200 772.0000 1.0000
33.9300 736.0000 1.0000
33.9400 781.0000 1.0000
33.9500 758.0000 1.0000
33.9600 752.0000 1.0000
33.9700 744.0000 1.0000
33.9800 699.0000 1.0000
33.9900 693.0000 1.0000
34.0000 707.0000 1.0000
34.0100 676.0000 1.0000
34.0200 724.0000 1.0000
34.0300 679.0000 1.0000
34.0400 636.0000 1.0000
34.0500 619.0000 1.0000
34.0600 661.0000 1.0000
34.0700 672.0000 1.0000
34.0800 653.0000 1.0000
34.0900 688.0000 1.0000
34.1000 630.0000 1.0000
34.1100 635.0000 1.0000
34.1200 680.0000 1.0000
34.1300 626.0000 1.0000
34.1400 642.0000 1.0000
34.1500 652.0000 1.0000
34.1600 630.0000 1.0000
34.1700 639.0000 1.0000
34.1800 662.0000 1.0000
34.1900 589.0000 1.0000
34.2000 582.0000 1.0000
34.2100 615.0000 1.0000
34.2200 592.0000 1.0000
34.2300 634.0000 1.0000
34.2400 625.0000 1.0000
34.2500 629.0000 1.0000
34.2600 629.0000 1.0000
34.2700 596.0000 1.0000
34.2800 616.0000 1.0000
34.2900 642.0000 1.0000
34.3000 610.0000 1.0000
34.3100 613.0000 1.0000
34.3200 621.0000 1.0000
34.3300 611.0000 1.0000
34.3400 563.0000 1.0000
34.3500 602.0000 1.0000
34.3600 595.0000 1.0000
34.3700 652.0000 1.0000
34.3800 593.0000 1.0000
34.3900 621.0000 1.0000
34.4000 609.0000 1.0000
34.4100 600.0000 1.0000
34.4200 596.0000 1.0000
34.4300 619.0000 1.0000
34.4400 621.0000 1.0000
34.4500 592.0000 1.0000
34.4600 576.0000 1.0000
34.4700 596.0000 1.0000
34.4800 562.0000 1.0000
34.4900 587.0000 1.0000
34.5000 587.0000 1.0000
34.5100 571.0000 1.0000
34.5200 558.0000 1.0000
34.5300 564.0000 1.0000
34.5400 622.0000 1.0000
34.5500 585.0000 1.0000
34.5600 606.0000 1.0000
34.5700 594.0000 1.0000
34.5800 573.0000 1.0000
34.5900 608.0000 1.0000
34.6000 594.0000 1.0000
34.6100 568.0000 1.0000
34.6200 592.0000 1.0000
34.6300 624.0000 1.0000
34.6400 557.0000 1.0000
34.6500 595.0000 1.0000
34.6600 573.0000 1.0000
34.6700 581.0000 1.0000
34.6800 601.0000 1.0000
34.6900 575.0000 1.0000
34.7000 578.0000 1.0000
34.7100 558.0000 1.0000
34.7200 601.0000 1.0000
34.7300 601.0000 1.0000
34.7400 551.0000 1.0000
34.7500 576.0000 1.0000
34.7600 569.0000 1.0000
34.7700 581.0000 1.0000
34.7800 557.0000 1.0000
34.7900 606.0000 1.0000
34.8000 582.0000 1.0000
34.8100 554.0000 1.0000
34.8200 535.0000 1.0000
34.8300 568.0000 1.0000
34.8400 556.0000 1.0000
34.8500 505.0000 1.0000
34.8600 534.0000 1.0000
34.8700 529.0000 1.0000
34.8800 576.0000 1.0000
34.8900 575.0000 1.0000
34.9000 553.0000 1.0000
34.9100 577.0000 1.0000
34.9200 590.0000 1.0000
34.9300 587.0000 1.0000
34.9400 574.0000 1.0000
34.9500 579.0000 1.0000
34.9600 558.0000 1.0000
34.9700 592.0000 1.0000
34.9800 588.0000 1.0000
34.9900 583.0000 1.0000
35.0000 559.0000 1.0000
35.0100 585.0000 1.0000
35.0200 568.0000 1.0000
35.0300 537.0000 1.0000
35.0400 568.0000 1.0000
35.0500 580.0000 1.0000
35.0600 607.0000 1.0000
35.0700 597.0000 1.0000
35.0800 613.0000 1.0000
35.0900 595.0000 1.0000
35.1000 615.0000 1.0000
35.1100 575.0000 1.0000
35.1200 597.0000 1.0000
35.1300 568.0000 1.0000
35.1400 554.0000 1.0000
35.1500 571.0000 1.0000
35.1600 559.0000 1.0000
35.1700 549.0000 1.0000
35.1800 587.0000 1.0000
35.1900 586.0000 1.0000
35.2000 560.0000 1.0000
35.2100 587.0000 1.0000
35.2200 597.0000 1.0000
35.2300 583.0000 1.0000
35.2400 570.0000 1.0000
35.2500 572.0000 1.0000
35.2600 585.0000 1.0000
35.2700 582.0000 1.0000
35.2800 594.0000 1.0000
35.2900 599.0000 1.0000
35.3000 627.0000 1.0000
35.3100 630.0000 1.0000
35.3200 638.0000 1.0000
35.3300 624.0000 1.0000
35.3400 623.0000 1.0000
35.3500 660.0000 1.0000
35.3600 703.0000 1.0000
35.3700 681.0000 1.0000
35.3800 650.0000 1.0000
35.3900 647.0000 1.0000
35.4000 698.0000 1.0000
35.4100 720.0000 1.0000
35.4200 744.0000 1.0000
35.4300 765.0000 1.0000
35.4400 740.0000 1.0000
35.4500 775.0000 1.0000
35.4600 812.0000 1.0000
35.4700 852.0000 1.0000
35.4800 902.0000 1.0000
35.4900 934.0000 1.0000
35.5000 958.0000 1.0000
35.5100 976.0000 1.0000
35.5200 1032.0000 1.0000
35.5300 1082.0000 1.0000
35.5400 1182.0000 1.0000
35.5500 1185.0000 1.0000
35.5600 1207.0000 1.0000
35.5700 1218.0000 1.0000
35.5800 1271.0000 1.0000
35.5900 1182.0000 1.0000
35.6000 1208.0000 1.0000
35.6100 1240.0000 1.0000
35.6200 1196.0000 1.0000
35.6300 1147.0000 1.0000
35.6400 1064.0000 1.0000
35.6500 1055.0000 1.0000
35.6600 1021.0000 1.0000
35.6700 938.0000 1.0000
35.6800 897.0000 1.0000
35.6900 939.0000 1.0000
35.7000 849.0000 1.0000
35.7100 761.0000 1.0000
35.7200 827.0000 1.0000
35.7300 774.0000 1.0000
35.7400 744.0000 1.0000
35.7500 672.0000 1.0000
35.7600 643.0000 1.0000
35.7700 649.0000 1.0000
35.7800 654.0000 1.0000
35.7900 608.0000 1.0000
35.8000 600.0000 1.0000
35.8100 614.0000 1.0000
35.8200 625.0000 1.0000
35.8300 587.0000 1.0000
35.8400 611.0000 1.0000
35.8500 573.0000 1.0000
35.8600 567.0000 1.0000
35.8700 609.0000 1.0000
35.8800 548.0000 1.0000
35.8900 581.0000 1.0000
35.9000 580.0000 1.0000
35.9100 553.0000 1.0000
35.9200 564.0000 1.0000
35.9300 536.0000 1.0000
35.9400 544.0000 1.0000
35.9500 521.0000 1.0000
35.9600 555.0000 1.0000
35.9700 562.0000 1.0000
35.9800 588.0000 1.0000
35.9900 596.0000 1.0000
36.0000 556.0000 1.0000
36.0100 538.0000 1.0000
36.0200 539.0000 1.0000
36.0300 581.0000 1.0000
36.0400 571.0000 1.0000
36.0500 543.0000 1.0000
36.0600 528.0000 1.0000
36.0700 530.0000 1.0000
36.0800 481.0000 1.0000
36.0900 531.0000 1.0000
36.1000 510.0000 1.0000
36.1100 554.0000 1.0000
36.1200 533.0000 1.0000
36.1300 554.0000 1.0000
36.1400 515.0000 1.0000
36.1500 497.0000 1.0000
36.1600 478.0000 1.0000
36.1700 483.0000 1.0000
36.1800 515.0000 1.0000
36.1900 527.0000 1.0000
36.2000 545.0000 1.0000
36.2100 509.0000 1.0000
36.2200 518.0000 1.0000
36.2300 525.0000 1.0000
36.2400 539.0000 1.0000
36.2500 499.0000 1.0000
36.2600 526.0000 1.0000
36.2700 523.0000 1.0000
36.2800 534.0000 1.0000
36.2900 505.0000 1.0000
36.3000 528.0000 1.0000
36.3100 576.0000 1.0000
36.3200 541.0000 1.0000
36.3300 507.0000 1.0000
36.3400 533.0000 1.0000
36.3500 489.0000 1.0000
36.3600 524.0000 1.0000
36.3700 496.0000 1.0000
36.3800 523.0000 1.0000
36.3900 538.0000 1.0000
36.4000 533.0000 1.0000
36.4100 525.0000 1.0000
36.4200 550.0000 1.0000
36.4300 561.0000 1.0000
36.4400 531.0000 1.0000
36.4500 564.0000 1.0000
36.4600 517.0000 1.0000
36.4700 503.0000 1.0000
36.4800 553.0000 1.0000
36.4900 541.0000 1.0000
36.5000 560.0000 1.0000
36.5100 504.0000 1.0000
36.5200 511.0000 1.0000
36.5300 522.0000 1.0000
36.5400 569.0000 1.0000
36.5500 511.0000 1.0000
36.5600 502.0000 1.0000
36.5700 523.0000 1.0000
36.5800 513.0000 1.0000
36.5900 538.0000 1.0000
36.6000 550.0000 1.0000
36.6100 563.0000 1.0000
36.6200 502.0000 1.0000
36.6300 512.0000 1.0000
36.6400 555.0000 1.0000
36.6500 510.0000 1.0000
36.6600 534.0000 1.0000
36.6700 564.0000 1.0000
36.6800 578.0000 1.0000
36.6900 549.0000 1.0000
36.7000 512.0000 1.0000
36.7100 536.0000 1.0000
36.7200 497.0000 1.0000
36.7300 534.0000 1.0000
36.7400 510.0000 1.0000
36.7500 520.0000 1.0000
36.7600 479.0000 1.0000
36.7700 512.0000 1.0000
36.7800 525.0000 1.0000
36.7900 537.0000 1.0000
36.8000 573.0000 1.0000
36.8100 518.0000 1.0000
36.8200 505.0000 1.0000
36.8300 532.0000 1.0000
36.8400 506.0000 1.0000
36.8500 552.0000 1.0000
36.8600 536.0000 1.0000
36.8700 515.0000 1.0000
36.8800 495.0000 1.0000
36.8900 557.0000 1.0000
36.9000 560.0000 1.0000
36.9100 547.0000 1.0000
36.9200 526.0000 1.0000
36.9300 551.0000 1.0000
36.9400 523.0000 1.0000
36.9500 540.0000 1.0000
36.9600 520.0000 1.0000
36.9700 547.0000 1.0000
36.9800 540.0000 1.0000
36.9900 526.0000 1.0000
37.0000 504.0000 1.0000
37.0100 530.0000 1.0000
37.0200 516.0000 1.0000
37.0300 501.0000 1.0000
37.0400 538.0000 1.0000
37.0500 545.0000 1.0000
37.0600 548.0000 1.0000
37.0700 551.0000 1.0000
37.0800 540.0000 1.0000
37.0900 510.0000 1.0000
37.1000 531.0000 1.0000
37.1100 537.0000 1.0000
37.1200 523.0000 1.0000
37.1300 511.0000 1.0000
37.1400 532.0000 1.0000
37.1500 485.0000 1.0000
37.1600 553.0000 1.0000
37.1700 551.0000 1.0000
37.1800 510.0000 1.0000
37.1900 513.0000 1.0000
37.2000 539.0000 1.0000
37.2100 547.0000 1.0000
37.2200 539.0000 1.0000
37.2300 551.0000 1.0000
37.2400 555.0000 1.0000
37.2500 586.0000 1.0000
37.2600 570.0000 1.0000
37.2700 560.0000 1.0000
37.2800 587.0000 1.0000
37.2900 618.0000 1.0000
37.3000 595.0000 1.0000
37.3100 613.0000 1.0000
37.3200 624.0000 1.0000
37.3300 604.0000 1.0000
37.3400 606.0000 1.0000
37.3500 640.0000 1.0000
37.3600 628.0000 1.0000
37.3700 628.0000 1.0000
37.3800 675.0000 1.0000
37.3900 663.0000 1.0000
37.4000 699.0000 1.0000
37.4100 676.0000 1.0000
37.4200 691.0000 1.0000
37.4300 730.0000 1.0000
37.4400 764.0000 1.0000
37.4500 740.0000 1.0000
37.4600 819.0000 1.0000
37.4700 782.0000 1.0000
37.4800 880.0000 1.0000
37.4900 916.0000 1.0000
37.5000 902.0000 1.0000
37.5100 960.0000 1.0000
37.5200 1018.0000 1.0000
37.5300 1040.0000 1.0000
37.5400 1076.0000 1.0000
37.5500 1141.0000 1.0000
37.5600 1221.0000 1.0000
37.5700 1289.0000 1.0000
37.5800 1373.0000 1.0000
37.5900 1464.0000 1.0000
37.6000 1542.0000 1.0000
37.6100 1585.0000 1.0000
37.6200 1752.0000 1.0000
37.6300 1823.0000 1.0000
37.6400 1914.0000 1.0000
37.6500 2087.0000 1.0000
37.6600 2063.0000 1.0000
37.6700 2192.0000 1.0000
37.6800 2295.0000 1.0000
37.6900 2335.0000 1.0000
37.7000 2349.0000 1.0000
37.7100 2435.0000 1.0000
37.7200 2422.0000 1.0000
37.7300 2394.0000 1.0000
37.7400 2362.0000 1.0000
37.7500 2308.0000 1.0000
37.7600 2226.0000 1.0000
37.7700 2154.0000 1.0000
37.7800 2195.0000 1.0000
37.7900 2068.0000 1.0000
37.8000 2018.0000 1.0000
37.8100 1993.0000 1.0000
37.8200 1814.0000 1.0000
37.8300 1743.0000 1.0000
37.8400 1623.0000 1.0000
37.8500 1636.0000 1.0000
37.8600 1489.0000 1.0000
37.8700 1383.0000 1.0000
37.8800 1301.0000 1.0000
37.8900 1203.0000 1.0000
37.9000 1142.0000 1.0000
37.9100 1079.0000 1.0000
37.9200 1060.0000 1.0000
37.9300 998.0000 1.0000
37.9400 956.0000 1.0000
37.9500 930.0000 1.0000
37.9600 854.0000 1.0000
37.9700 799.0000 1.0000
37.9800 754.0000 1.0000
37.9900 723.0000 1.0000
38.0000 715.0000 1.0000
38.0100 709.0000 1.0000
38.0200 659.0000 1.0000
38.0300 659.0000 1.0000
38.0400 681.0000 1.0000
38.0500 653.0000 1.0000
38.0600 610.0000 1.0000
38.0700 601.0000 1.0000
38.0800 588.0000 1.0000
38.0900 596.0000 1.0000
38.1000 563.0000 1.0000
38.1100 633.0000 1.0000
38.1200 632.0000 1.0000
38.1300 573.0000 1.0000
38.1400 554.0000 1.0000
38.1500 546.0000 1.0000
38.1600 557.0000 1.0000
38.1700 575.0000 1.0000
38.1800 542.0000 1.0000
38.1900 532.0000 1.0000
38.2000 558.0000 1.0000
38.2100 551.0000 1.0000
38.2200 542.0000 1.0000
38.2300 530.0000 1.0000
38.2400 518.0000 1.0000
38.2500 510.0000 1.0000
38.2600 484.0000 1.0000
38.2700 512.0000 1.0000
38.2800 529.0000 1.0000
38.2900 548.0000 1.0000
38.3000 485.0000 1.0000
38.3100 539.0000 1.0000
38.3200 492.0000 1.0000
38.3300 495.0000 1.0000
38.3400 461.0000 1.0000
38.3500 489.0000 1.0000
38.3600 510.0000 1.0000
38.3700 505.0000 1.0000
38.3800 484.0000 1.0000
38.3900 492.0000 1.0000
38.4000 511.0000 1.0000
38.4100 545.0000 1.0000
38.4200 494.0000 1.0000
38.4300 486.0000 1.0000
38.4400 467.0000 1.0000
38.4500 478.0000 1.0000
38.4600 486.0000 1.0000
38.4700 508.0000 1.0000
38.4800 465.0000 1.0000
38.4900 502.0000 1.0000
38.5000 473.0000 1.0000
38.5100 499.0000 1.0000
38.5200 476.0000 1.0000
38.5300 493.0000 1.0000
38.5400 506.0000 1.0000
38.5500 489.0000 1.0000
38.5600 501.0000 1.0000
38.5700 464.0000 1.0000
38.5800 479.0000 1.0000
38.5900 476.0000 1.0000
38.6000 452.0000 1.0000
38.6100 462.0000 1.0000
38.6200 497.0000 1.0000
38.6300 485.0000 1.0000
38.6400 461.0000 1.0000
38.6500 502.0000 1.0000
38.6600 490.0000 1.0000
38.6700 502.0000 1.0000
38.6800 491.0000 1.0000
38.6900 497.0000 1.0000
38.7000 506.0000 1.0000
38.7100 524.0000 1.0000
38.7200 511.0000 1.0000
38.7300 507.0000 1.0000
38.7400 506.0000 1.0000
38.7500 498.0000 1.0000
38.7600 515.0000 1.0000
38.7700 507.0000 1.0000
38.7800 517.0000 1.0000
38.7900 475.0000 1.0000
38.8000 488.0000 1.0000
38.8100 505.0000 1.0000
38.8200 498.0000 1.0000
38.8300 490.0000 1.0000
38.8400 487.0000 1.0000
38.8500 529.0000 1.0000
38.8600 477.0000 1.0000
38.8700 496.0000 1.0000
38.8800 481.0000 1.0000
38.8900 450.0000 1.0000
38.9000 454.0000 1.0000
38.9100 497.0000 1.0000
38.9200 447.0000 1.0000
38.9300 473.0000 1.0000
38.9400 496.0000 1.0000
38.9500 461.0000 1.0000
38.9600 483.0000 1.0000
38.9700 486.0000 1.0000
38.9800 482.0000 1.0000
38.9900 471.0000 1.0000
39.0000 478.0000 1.0000
39.0100 471.0000 1.0000
39.0200 508.0000 1.0000
39.0300 455.0000 1.0000
39.0400 481.0000 1.0000
39.0500 479.0000 1.0000
39.0600 469.0000 1.0000
39.0700 479.0000 1.0000
39.0800 458.0000 1.0000
39.0900 426.0000 1.0000
39.1000 461.0000 1.0000
39.1100 460.0000 1.0000
39.1200 504.0000 1.0000
39.1300 472.0000 1.0000
39.1400 423.0000 1.0000
39.1500 448.0000 1.0000
39.1600 447.0000 1.0000
39.1700 458.0000 1.0000
39.1800 457.0000 1.0000
39.1900 464.0000 1.0000
39.2000 464.0000 1.0000
39.2100 447.0000 1.0000
39.2200 471.0000 1.0000
39.2300 458.0000 1.0000
39.2400 464.0000 1.0000
39.2500 478.0000 1.0000
39.2600 419.0000 1.0000
39.2700 468.0000 1.0000
39.2800 473.0000 1.0000
39.2900 445.0000 1.0000
39.3000 452.0000 1.0000
39.3100 429.0000 1.0000
39.3200 429.0000 1.0000
39.3300 451.0000 1.0000
39.3400 459.0000 1.0000
39.3500 449.0000 1.0000
39.3600 464.0000 1.0000
39.3700 469.0000 1.0000
39.3800 489.0000 1.0000
39.3900 454.0000 1.0000
39.4000 436.0000 1.0000
39.4100 428.0000 1.0000
39.4200 461.0000 1.0000
39.4300 449.0000 1.0000
39.4400 441.0000 1.0000
39.4500 466.0000 1.0000
39.4600 437.0000 1.0000
39.4700 431.0000 1.0000
39.4800 446.0000 1.0000
39.4900 415.0000 1.0000
39.5000 440.0000 1.0000
39.5100 452.0000 1.0000
39.5200 453.0000 1.0000
39.5300 445.0000 1.0000
39.5400 448.0000 1.0000
39.5500 443.0000 1.0000
39.5600 468.0000 1.0000
39.5700 453.0000 1.0000
39.5800 443.0000 1.0000
39.5900 486.0000 1.0000
39.6000 481.0000 1.0000
39.6100 466.0000 1.0000
39.6200 468.0000 1.0000
39.6300 445.0000 1.0000
39.6400 461.0000 1.0000
39.6500 440.0000 1.0000
39.6600 422.0000 1.0000
39.6700 452.0000 1.0000
39.6800 447.0000 1.0000
39.6900 458.0000 1.0000
39.7000 477.0000 1.0000
39.7100 449.0000 1.0000
39.7200 436.0000 1.0000
39.7300 433.0000 1.0000
39.7400 445.0000 1.0000
39.7500 434.0000 1.0000
39.7600 435.0000 1.0000
39.7700 472.0000 1.0000
39.7800 449.0000 1.0000
39.7900 436.0000 1.0000
39.8000 427.0000 1.0000
39.8100 421.0000 1.0000
39.8200 464.0000 1.0000
39.8300 438.0000 1.0000
39.8400 464.0000 1.0000
39.8500 471.0000 1.0000
39.8600 446.0000 1.0000
39.8700 423.0000 1.0000
39.8800 397.0000 1.0000
39.8900 458.0000 1.0000
39.9000 439.0000 1.0000
39.9100 428.0000 1.0000
39.9200 450.0000 1.0000
39.9300 454.0000 1.0000
39.9400 427.0000 1.0000
39.9500 386.0000 1.0000
39.9600 449.0000 1.0000
39.9700 422.0000 1.0000
39.9800 419.0000 1.0000
39.9900 405.0000 1.0000
40.0000 420.0000 1.0000
40.0100 449.0000 1.0000
40.0200 447.0000 1.0000
40.0300 412.0000 1.0000
40.0400 417.0000 1.0000
40.0500 454.0000 1.0000
40.0600 458.0000 1.0000
40.0700 435.0000 1.0000
40.0800 437.0000 1.0000
40.0900 479.0000 1.0000
40.1000 445.0000 1.0000
40.1100 459.0000 1.0000
40.1200 451.0000 1.0000
40.1300 441.0000 1.0000
40.1400 438.0000 1.0000
40.1500 480.0000 1.0000
40.1600 446.0000 1.0000
40.1700 457.0000 1.0000
40.1800 466.0000 1.0000
40.1900 431.0000 1.0000
40.2000 433.0000 1.0000
40.2100 457.0000 1.0000
40.2200 465.0000 1.0000
40.2300 453.0000 1.0000
40.2400 442.0000 1.0000
40.2500 434.0000 1.0000
40.2600 440.0000 1.0000
40.2700 438.0000 1.0000
40.2800 433.0000 1.0000
40.2900 412.0000 1.0000
40.3000 435.0000 1.0000
40.3100 461.0000 1.0000
40.3200 451.0000 1.0000
40.3300 422.0000 1.0000
40.3400 435.0000 1.0000
40.3500 425.0000 1.0000
40.3600 412.0000 1.0000
40.3700 419.0000 1.0000
40.3800 426.0000 1.0000
40.3900 421.0000 1.0000
40.4000 424.0000 1.0000
40.4100 406.0000 1.0000
40.4200 431.0000 1.0000
40.4300 443.0000 1.0000
40.4400 434.0000 1.0000
40.4500 417.0000 1.0000
40.4600 441.0000 1.0000
40.4700 436.0000 1.0000
40.4800 420.0000 1.0000
40.4900 455.0000 1.0000
40.5000 460.0000 1.0000
40.5100 432.0000 1.0000
40.5200 407.0000 1.0000
40.5300 453.0000 1.0000
40.5400 432.0000 1.0000
40.5500 474.0000 1.0000
40.5600 464.0000 1.0000
40.5700 440.0000 1.0000
40.5800 431.0000 1.0000
40.5900 429.0000 1.0000
40.6000 421.0000 1.0000
40.6100 412.0000 1.0000
40.6200 444.0000 1.0000
40.6300 412.0000 1.0000
40.6400 444.0000 1.0000
40.6500 453.0000 1.0000
40.6600 452.0000 1.0000
40.6700 473.0000 1.0000
40.6800 473.0000 1.0000
40.6900 466.0000 1.0000
40.7000 460.0000 1.0000
40.7100 469.0000 1.0000
40.7200 481.0000 1.0000
40.7300 465.0000 1.0000
40.7400 495.0000 1.0000
40.7500 489.0000 1.0000
40.7600 473.0000 1.0000
40.7700 452.0000 1.0000
40.7800 530.0000 1.0000
40.7900 492.0000 1.0000
40.8000 508.0000 1.0000
40.8100 535.0000 1.0000
40.8200 506.0000 1.0000
40.8300 537.0000 1.0000
40.8400 472.0000 1.0000
40.8500 489.0000 1.0000
40.8600 508.0000 1.0000
40.8700 513.0000 1.0000
40.8800 524.0000 1.0000
40.8900 486.0000 1.0000
40.9000 496.0000 1.0000
40.9100 492.0000 1.0000
40.9200 464.0000 1.0000
40.9300 450.0000 1.0000
40.9400 462.0000 1.0000
40.9500 462.0000 1.0000
40.9600 433.0000 1.0000
40.9700 440.0000 1.0000
40.9800 437.0000 1.0000
40.9900 459.0000 1.0000
41.0000 451.0000 1.0000
41.0100 433.0000 1.0000
41.0200 456.0000 1.0000
41.0300 413.0000 1.0000
41.0400 427.0000 1.0000
41.0500 462.0000 1.0000
41.0600 463.0000 1.0000
41.0700 430.0000 1.0000
41.0800 465.0000 1.0000
41.0900 453.0000 1.0000
41.1000 434.0000 1.0000
41.1100 430.0000 1.0000
41.1200 437.0000 1.0000
41.1300 473.0000 1.0000
41.1400 454.0000 1.0000
41.1500 453.0000 1.0000
41.1600 467.0000 1.0000
41.1700 397.0000 1.0000
41.1800 412.0000 1.0000
41.1900 430.0000 1.0000
41.2000 468.0000 1.0000
41.2100 403.0000 1.0000
41.2200 456.0000 1.0000
41.2300 408.0000 1.0000
41.2400 417.0000 1.0000
41.2500 444.0000 1.0000
41.2600 458.0000 1.0000
41.2700 413.0000 1.0000
41.2800 444.0000 1.0000
41.2900 430.0000 1.0000
41.3000 421.0000 1.0000
41.3100 408.0000 1.0000
41.3200 427.0000 1.0000
41.3300 438.0000 1.0000
41.3400 411.0000 1.0000
41.3500 408.0000 1.0000
41.3600 437.0000 1.0000
41.3700 417.0000 1.0000
41.3800 387.0000 1.0000
41.3900 436.0000 1.0000
41.4000 442.0000 1.0000
41.4100 409.0000 1.0000
41.4200 410.0000 1.0000
41.4300 440.0000 1.0000
41.4400 461.0000 1.0000
41.4500 451.0000 1.0000
41.4600 432.0000 1.0000
41.4700 450.0000 1.0000
41.4800 420.0000 1.0000
41.4900 394.0000 1.0000
41.5000 402.0000 1.0000
41.5100 383.0000 1.0000
41.5200 438.0000 1.0000
41.5300 410.0000 1.0000
41.5400 467.0000 1.0000
41.5500 444.0000 1.0000
41.5600 426.0000 1.0000
41.5700 464.0000 1.0000
41.5800 428.0000 1.0000
41.5900 435.0000 1.0000
41.6000 447.0000 1.0000
41.6100 443.0000 1.0000
41.6200 431.0000 1.0000
41.6300 431.0000 1.0000
41.6400 435.0000 1.0000
41.6500 386.0000 1.0000
41.6600 410.0000 1.0000
41.6700 424.0000 1.0000
41.6800 396.0000 1.0000
41.6900 435.0000 1.0000
41.7000 440.0000 1.0000
41.7100 473.0000 1.0000
41.7200 450.0000 1.0000
41.7300 407.0000 1.0000
41.7400 396.0000 1.0000
41.7500 442.0000 1.0000
41.7600 413.0000 1.0000
41.7700 397.0000 1.0000
41.7800 423.0000 1.0000
41.7900 407.0000 1.0000
41.8000 427.0000 1.0000
41.8100 423.0000 1.0000
41.8200 443.0000 1.0000
41.8300 434.0000 1.0000
41.8400 429.0000 1.0000
41.8500 401.0000 1.0000
41.8600 380.0000 1.0000
41.8700 401.0000 1.0000
41.8800 425.0000 1.0000
41.8900 396.0000 1.0000
41.9000 424.0000 1.0000
41.9100 452.0000 1.0000
41.9200 404.0000 1.0000
41.9300 415.0000 1.0000
41.9400 396.0000 1.0000
41.9500 460.0000 1.0000
41.9600 393.0000 1.0000
41.9700 415.0000 1.0000
41.9800 435.0000 1.0000
41.9900 472.0000 1.0000
42.0000 419.0000 1.0000
42.0100 442.0000 1.0000
42.0200 435.0000 1.0000
42.0300 432.0000 1.0000
42.0400 466.0000 1.0000
42.0500 424.0000 1.0000
42.0600 427.0000 1.0000
42.0700 424.0000 1.0000
42.0800 410.0000 1.0000
42.0900 412.0000 1.0000
42.1000 407.0000 1.0000
42.1100 426.0000 1.0000
42.1200 391.0000 1.0000
42.1300 395.0000 1.0000
42.1400 405.0000 1.0000
42.1500 406.0000 1.0000
42.1600 392.0000 1.0000
42.1700 421.0000 1.0000
42.1800 391.0000 1.0000
42.1900 438.0000 1.0000
42.2000 412.0000 1.0000
42.2100 417.0000 1.0000
42.2200 426.0000 1.0000
42.2300 437.0000 1.0000
42.2400 410.0000 1.0000
42.2500 432.0000 1.0000
42.2600 446.0000 1.0000
42.2700 460.0000 1.0000
42.2800 452.0000 1.0000
42.2900 444.0000 1.0000
42.3000 489.0000 1.0000
42.3100 464.0000 1.0000
42.3200 466.0000 1.0000
42.3300 429.0000 1.0000
42.3400 430.0000 1.0000
42.3500 445.0000 1.0000
42.3600 465.0000 1.0000
42.3700 430.0000 1.0000
42.3800 468.0000 1.0000
42.3900 462.0000 1.0000
42.4000 436.0000 1.0000
42.4100 457.0000 1.0000
42.4200 455.0000 1.0000
42.4300 444.0000 1.0000
42.4400 480.0000 1.0000
42.4500 486.0000 1.0000
42.4600 471.0000 1.0000
42.4700 430.0000 1.0000
42.4800 442.0000 1.0000
42.4900 459.0000 1.0000
42.5000 463.0000 1.0000
42.5100 452.0000 1.0000
42.5200 458.0000 1.0000
42.5300 443.0000 1.0000
42.5400 467.0000 1.0000
42.5500 439.0000 1.0000
42.5600 448.0000 1.0000
42.5700 434.0000 1.0000
42.5800 419.0000 1.0000
42.5900 440.0000 1.0000
42.6000 402.0000 1.0000
42.6100 430.0000 1.0000
42.6200 404.0000 1.0000
42.6300 439.0000 1.0000
42.6400 453.0000 1.0000
42.6500 441.0000 1.0000
42.6600 438.0000 1.0000
42.6700 452.0000 1.0000
42.6800 413.0000 1.0000
42.6900 422.0000 1.0000
42.7000 418.0000 1.0000
42.7100 417.0000 1.0000
42.7200 426.0000 1.0000
42.7300 420.0000 1.0000
42.7400 444.0000 1.0000
42.7500 423.0000 1.0000
42.7600 416.0000 1.0000
42.7700 420.0000 1.0000
42.7800 405.0000 1.0000
42.7900 414.0000 1.0000
42.8000 428.0000 1.0000
42.8100 426.0000 1.0000
42.8200 408.0000 1.0000
42.8300 427.0000 1.0000
42.8400 401.0000 1.0000
42.8500 415.0000 1.0000
42.8600 422.0000 1.0000
42.8700 401.0000 1.0000
42.8800 399.0000 1.0000
42.8900 434.0000 1.0000
42.9000 409.0000 1.0000
42.9100 431.0000 1.0000
42.9200 409.0000 1.0000
42.9300 433.0000 1.0000
42.9400 409.0000 1.0000
42.9500 411.0000 1.0000
42.9600 461.0000 1.0000
42.9700 439.0000 1.0000
42.9800 453.0000 1.0000
42.9900 405.0000 1.0000
43.0000 419.0000 1.0000
43.0100 413.0000 1.0000
43.0200 391.0000 1.0000
43.0300 409.0000 1.0000
43.0400 405.0000 1.0000
43.0500 416.0000 1.0000
43.0600 427.0000 1.0000
43.0700 391.0000 1.0000
43.0800 395.0000 1.0000
43.0900 412.0000 1.0000
43.1000 403.0000 1.0000
43.1100 406.0000 1.0000
43.1200 404.0000 1.0000
43.1300 417.0000 1.0000
43.1400 396.0000 1.0000
43.1500 412.0000 1.0000
43.1600 421.0000 1.0000
43.1700 405.0000 1.0000
43.1800 408.0000 1.0000
43.1900 407.0000 1.0000
43.2000 396.0000 1.0000
43.2100 395.0000 1.0000
43.2200 424.0000 1.0000
43.2300 436.0000 1.0000
43.2400 425.0000 1.0000
43.2500 413.0000 1.0000
43.2600 422.0000 1.0000
43.2700 397.0000 1.0000
43.2800 368.0000 1.0000
43.2900 419.0000 1.0000
43.3000 460.0000 1.0000
43.3100 414.0000 1.0000
43.3200 444.0000 1.0000
43.3300 389.0000 1.0000
43.3400 402.0000 1.0000
43.3500 408.0000 1.0000
43.3600 406.0000 1.0000
43.3700 367.0000 1.0000
43.3800 413.0000 1.0000
43.3900 420.0000 1.0000
43.4000 395.0000 1.0000
43.4100 400.0000 1.0000
43.4200 388.0000 1.0000
43.4300 403.0000 1.0000
43.4400 420.0000 1.0000
43.4500 446.0000 1.0000
43.4600 392.0000 1.0000
43.4700 430.0000 1.0000
43.4800 415.0000 1.0000
43.4900 431.0000 1.0000
43.5000 419.0000 1.0000
43.5100 411.0000 1.0000
43.5200 413.0000 1.0000
43.5300 400.0000 1.0000
43.5400 388.0000 1.0000
43.5500 415.0000 1.0000
43.5600 404.0000 1.0000
43.5700 425.0000 1.0000
43.5800 438.0000 1.0000
43.5900 420.0000 1.0000
43.6000 424.0000 1.0000
43.6100 422.0000 1.0000
43.6200 406.0000 1.0000
43.6300 396.0000 1.0000
43.6400 440.0000 1.0000
43.6500 418.0000 1.0000
43.6600 418.0000 1.0000
43.6700 427.0000 1.0000
43.6800 395.0000 1.0000
43.6900 428.0000 1.0000
43.7000 432.0000 1.0000
43.7100 365.0000 1.0000
43.7200 383.0000 1.0000
43.7300 398.0000 1.0000
43.7400 431.0000 1.0000
43.7500 410.0000 1.0000
43.7600 413.0000 1.0000
43.7700 391.0000 1.0000
43.7800 399.0000 1.0000
43.7900 387.0000 1.0000
43.8000 366.0000 1.0000
43.8100 389.0000 1.0000
43.8200 372.0000 1.0000
43.8300 408.0000 1.0000
43.8400 395.0000 1.0000
43.8500 393.0000 1.0000
43.8600 381.0000 1.0000
43.8700 412.0000 1.0000
43.8800 384.0000 1.0000
43.8900 407.0000 1.0000
43.9000 395.0000 1.0000
43.9100 419.0000 1.0000
43.9200 422.0000 1.0000
43.9300 388.0000 1.0000
43.9400 355.0000 1.0000
43.9500 390.0000 1.0000
43.9600 375.0000 1.0000
43.9700 382.0000 1.0000
43.9800 401.0000 1.0000
43.9900 427.0000 1.0000
44.0000 418.0000 1.0000
44.0100 414.0000 1.0000
44.0200 431.0000 1.0000
44.0300 424.0000 1.0000
44.0400 398.0000 1.0000
44.0500 438.0000 1.0000
44.0600 420.0000 1.0000
44.0700 428.0000 1.0000
44.0800 395.0000 1.0000
44.0900 378.0000 1.0000
44.1000 377.0000 1.0000
44.1100 391.0000 1.0000
44.1200 403.0000 1.0000
44.1300 406.0000 1.0000
44.1400 415.0000 1.0000
44.1500 378.0000 1.0000
44.1600 389.0000 1.0000
44.1700 403.0000 1.0000
44.1800 400.0000 1.0000
44.1900 393.0000 1.0000
44.2000 368.0000 1.0000
44.2100 396.0000 1.0000
44.2200 427.0000 1.0000
44.2300 432.0000 1.0000
44.2400 415.0000 1.0000
44.2500 382.0000 1.0000
44.2600 413.0000 1.0000
44.2700 375.0000 1.0000
44.2800 414.0000 1.0000
44.2900 415.0000 1.0000
44.3000 406.0000 1.0000
44.3100 391.0000 1.0000
44.3200 381.0000 1.0000
44.3300 386.0000 1.0000
44.3400 403.0000 1.0000
44.3500 396.0000 1.0000
44.3600 399.0000 1.0000
44.3700 392.0000 1.0000
44.3800 386.0000 1.0000
44.3900 388.0000 1.0000
44.4000 366.0000 1.0000
44.4100 388.0000 1.0000
44.4200 406.0000 1.0000
44.4300 390.0000 1.0000
44.4400 415.0000 1.0000
44.4500 404.0000 1.0000
44.4600 395.0000 1.0000
44.4700 411.0000 1.0000
44.4800 394.0000 1.0000
44.4900 397.0000 1.0000
44.5000 403.0000 1.0000
44.5100 419.0000 1.0000
44.5200 430.0000 1.0000
44.5300 360.0000 1.0000
44.5400 398.0000 1.0000
44.5500 379.0000 1.0000
44.5600 401.0000 1.0000
44.5700 374.0000 1.0000
44.5800 400.0000 1.0000
44.5900 397.0000 1.0000
44.6000 403.0000 1.0000
44.6100 386.0000 1.0000
44.6200 391.0000 1.0000
44.6300 343.0000 1.0000
44.6400 360.0000 1.0000
44.6500 409.0000 1.0000
44.6600 410.0000 1.0000
44.6700 392.0000 1.0000
44.6800 387.0000 1.0000
44.6900 416.0000 1.0000
44.7000 395.0000 1.0000
44.7100 349.0000 1.0000
44.7200 419.0000 1.0000
44.7300 367.0000 1.0000
44.7400 367.0000 1.0000
44.7500 387.0000 1.0000
44.7600 396.0000 1.0000
44.7700 366.0000 1.0000
44.7800 395.0000 1.0000
44.7900 440.0000 1.0000
44.8000 428.0000 1.0000
44.8100 378.0000 1.0000
44.8200 384.0000 1.0000
44.8300 374.0000 1.0000
44.8400 351.0000 1.0000
44.8500 382.0000 1.0000
44.8600 382.0000 1.0000
44.8700 385.0000 1.0000
44.8800 405.0000 1.0000
44.8900 381.0000 1.0000
44.9000 391.0000 1.0000
44.9100 384.0000 1.0000
44.9200 379.0000 1.0000
44.9300 392.0000 1.0000
44.9400 380.0000 1.0000
44.9500 394.0000 1.0000
44.9600 369.0000 1.0000
44.9700 382.0000 1.0000
44.9800 398.0000 1.0000
44.9900 398.0000 1.0000
45.0000 376.0000 1.0000
45.0100 410.0000 1.0000
45.0200 396.0000 1.0000
45.0300 405.0000 1.0000
45.0400 399.0000 1.0000
45.0500 412.0000 1.0000
45.0600 406.0000 1.0000
45.0700 395.0000 1.0000
45.0800 404.0000 1.0000
45.0900 360.0000 1.0000
45.1000 366.0000 1.0000
45.1100 413.0000 1.0000
45.1200 388.0000 1.0000
45.1300 405.0000 1.0000
45.1400 379.0000 1.0000
45.1500 380.0000 1.0000
45.1600 387.0000 1.0000
45.1700 384.0000 1.0000
45.1800 363.0000 1.0000
45.1900 355.0000 1.0000
45.2000 390.0000 1.0000
45.2100 405.0000 1.0000
45.2200 386.0000 1.0000
45.2300 411.0000 1.0000
45.2400 421.0000 1.0000
45.2500 403.0000 1.0000
45.2600 401.0000 1.0000
45.2700 372.0000 1.0000
45.2800 398.0000 1.0000
45.2900 391.0000 1.0000
45.3000 370.0000 1.0000
45.3100 387.0000 1.0000
45.3200 408.0000 1.0000
45.3300 400.0000 1.0000
45.3400 349.0000 1.0000
45.3500 404.0000 1.0000
45.3600 398.0000 1.0000
45.3700 411.0000 1.0000
45.3800 372.0000 1.0000
45.3900 411.0000 1.0000
45.4000 366.0000 1.0000
45.4100 406.0000 1.0000
45.4200 402.0000 1.0000
45.4300 371.0000 1.0000
45.4400 381.0000 1.0000
45.4500 392.0000 1.0000
45.4600 382.0000 1.0000
45.4700 376.0000 1.0000
45.4800 371.0000 1.0000
45.4900 393.0000 1.0000
45.5000 413.0000 1.0000
45.5100 397.0000 1.0000
45.5200 368.0000 1.0000
45.5300 385.0000 1.0000
45.5400 411.0000 1.0000
45.5500 400.0000 1.0000
45.5600 392.0000 1.0000
45.5700 387.0000 1.0000
45.5800 381.0000 1.0000
45.5900 391.0000 1.0000
45.6000 371.0000 1.0000
45.6100 389.0000 1.0000
45.6200 373.0000 1.0000
45.6300 388.0000 1.0000
45.6400 389.0000 1.0000
45.6500 385.0000 1.0000
45.6600 397.0000 1.0000
45.6700 380.0000 1.0000
45.6800 374.0000 1.0000
45.6900 360.0000 1.0000
45.7000 393.0000 1.0000
45.7100 366.0000 1.0000
45.7200 378.0000 1.0000
45.7300 375.0000 1.0000
45.7400 385.0000 1.0000
45.7500 396.0000 1.0000
45.7600 398.0000 1.0000
45.7700 402.0000 1.0000
45.7800 413.0000 1.0000
45.7900 372.0000 1.0000
45.8000 400.0000 1.0000
45.8100 353.0000 1.0000
45.8200 388.0000 1.0000
45.8300 400.0000 1.0000
45.8400 371.0000 1.0000
45.8500 326.0000 1.0000
45.8600 345.0000 1.0000
45.8700 376.0000 1.0000
45.8800 383.0000 1.0000
45.8900 364.0000 1.0000
45.9000 390.0000 1.0000
45.9100 369.0000 1.0000
45.9200 389.0000 1.0000
45.9300 399.0000 1.0000
45.9400 356.0000 1.0000
45.9500 417.0000 1.0000
45.9600 391.0000 1.0000
45.9700 385.0000 1.0000
45.9800 375.0000 1.0000
45.9900 395.0000 1.0000
46.0000 372.0000 1.0000
46.0100 385.0000 1.0000
46.0200 401.0000 1.0000
46.0300 372.0000 1.0000
46.0400 397.0000 1.0000
46.0500 366.0000 1.0000
46.0600 388.0000 1.0000
46.0700 370.0000 1.0000
46.0800 400.0000 1.0000
46.0900 391.0000 1.0000
46.1000 369.0000 1.0000
46.1100 380.0000 1.0000
46.1200 384.0000 1.0000
46.1300 399.0000 1.0000
46.1400 393.0000 1.0000
46.1500 376.0000 1.0000
46.1600 413.0000 1.0000
46.1700 391.0000 1.0000
46.1800 374.0000 1.0000
46.1900 395.0000 1.0000
46.2000 381.0000 1.0000
46.2100 395.0000 1.0000
46.2200 409.0000 1.0000
46.2300 392.0000 1.0000
46.2400 380.0000 1.0000
46.2500 383.0000 1.0000
46.2600 360.0000 1.0000
46.2700 388.0000 1.0000
46.2800 400.0000 1.0000
46.2900 375.0000 1.0000
46.3000 356.0000 1.0000
46.3100 384.0000 1.0000
46.3200 373.0000 1.0000
46.3300 381.0000 1.0000
46.3400 389.0000 1.0000
46.3500 378.0000 1.0000
46.3600 370.0000 1.0000
46.3700 387.0000 1.0000
46.3800 361.0000 1.0000
46.3900 378.0000 1.0000
46.4000 369.0000 1.0000
46.4100 415.0000 1.0000
46.4200 386.0000 1.0000
46.4300 359.0000 1.0000
46.4400 390.0000 1.0000
46.4500 385.0000 1.0000
46.4600 382.0000 1.0000
46.4700 394.0000 1.0000
46.4800 376.0000 1.0000
46.4900 377.0000 1.0000
46.5000 374.0000 1.0000
46.5100 401.0000 1.0000
46.5200 351.0000 1.0000
46.5300 359.0000 1.0000
46.5400 384.0000 1.0000
46.5500 374.0000 1.0000
46.5600 387.0000 1.0000
46.5700 366.0000 1.0000
46.5800 371.0000 1.0000
46.5900 373.0000 1.0000
46.6000 396.0000 1.0000
46.6100 348.0000 1.0000
46.6200 362.0000 1.0000
46.6300 374.0000 1.0000
46.6400 387.0000 1.0000
46.6500 377.0000 1.0000
46.6600 377.0000 1.0000
46.6700 410.0000 1.0000
46.6800 373.0000 1.0000
46.6900 352.0000 1.0000
46.7000 364.0000 1.0000
46.7100 382.0000 1.0000
46.7200 338.0000 1.0000
46.7300 359.0000 1.0000
46.7400 373.0000 1.0000
46.7500 366.0000 1.0000
46.7600 380.0000 1.0000
46.7700 361.0000 1.0000
46.7800 385.0000 1.0000
46.7900 369.0000 1.0000
46.8000 360.0000 1.0000
46.8100 364.0000 1.0000
46.8200 381.0000 1.0000
46.8300 376.0000 1.0000
46.8400 365.0000 1.0000
46.8500 365.0000 1.0000
46.8600 395.0000 1.0000
46.8700 362.0000 1.0000
46.8800 355.0000 1.0000
46.8900 383.0000 1.0000
46.9000 351.0000 1.0000
46.9100 375.0000 1.0000
46.9200 360.0000 1.0000
46.9300 369.0000 1.0000
46.9400 364.0000 1.0000
46.9500 399.0000 1.0000
46.9600 378.0000 1.0000
46.9700 346.0000 1.0000
46.9800 382.0000 1.0000
46.9900 353.0000 1.0000
47.0000 339.0000 1.0000
47.0100 372.0000 1.0000
47.0200 355.0000 1.0000
47.0300 359.0000 1.0000
47.0400 388.0000 1.0000
47.0500 366.0000 1.0000
47.0600 368.0000 1.0000
47.0700 389.0000 1.0000
47.0800 358.0000 1.0000
47.0900 348.0000 1.0000
47.1000 370.0000 1.0000
47.1100 398.0000 1.0000
47.1200 388.0000 1.0000
47.1300 380.0000 1.0000
47.1400 363.0000 1.0000
47.1500 363.0000 1.0000
47.1600 353.0000 1.0000
47.1700 375.0000 1.0000
47.1800 394.0000 1.0000
47.1900 381.0000 1.0000
47.2000 398.0000 1.0000
47.2100 383.0000 1.0000
47.2200 368.0000 1.0000
47.2300 359.0000 1.0000
47.2400 392.0000 1.0000
47.2500 380.0000 1.0000
47.2600 393.0000 1.0000
47.2700 384.0000 1.0000
47.2800 374.0000 1.0000
47.2900 372.0000 1.0000
47.3000 373.0000 1.0000
47.3100 395.0000 1.0000
47.3200 350.0000 1.0000
47.3300 354.0000 1.0000
47.3400 367.0000 1.0000
47.3500 357.0000 1.0000
47.3600 369.0000 1.0000
47.3700 376.0000 1.0000
47.3800 359.0000 1.0000
47.3900 364.0000 1.0000
47.4000 390.0000 1.0000
47.4100 365.0000 1.0000
47.4200 367.0000 1.0000
47.4300 357.0000 1.0000
47.4400 380.0000 1.0000
47.4500 369.0000 1.0000
47.4600 380.0000 1.0000
47.4700 350.0000 1.0000
47.4800 350.0000 1.0000
47.4900 372.0000 1.0000
47.5000 349.0000 1.0000
47.5100 348.0000 1.0000
47.5200 389.0000 1.0000
47.5300 355.0000 1.0000
47.5400 366.0000 1.0000
47.5500 376.0000 1.0000
47.5600 368.0000 1.0000
47.5700 389.0000 1.0000
47.5800 389.0000 1.0000
47.5900 354.0000 1.0000
47.6000 378.0000 1.0000
47.6100 374.0000 1.0000
47.6200 363.0000 1.0000
47.6300 331.0000 1.0000
47.6400 364.0000 1.0000
47.6500 361.0000 1.0000
47.6600 364.0000 1.0000
47.6700 338.0000 1.0000
47.6800 355.0000 1.0000
47.6900 338.0000 1.0000
47.7000 369.0000 1.0000
47.7100 375.0000 1.0000
47.7200 395.0000 1.0000
47.7300 336.0000 1.0000
47.7400 360.0000 1.0000
47.7500 357.0000 1.0000
47.7600 358.0000 1.0000
47.7700 374.0000 1.0000
47.7800 354.0000 1.0000
47.7900 380.0000 1.0000
47.8000 364.0000 1.0000
47.8100 373.0000 1.0000
47.8200 360.0000 1.0000
47.8300 386.0000 1.0000
47.8400 363.0000 1.0000
47.8500 377.0000 1.0000
47.8600 371.0000 1.0000
47.8700 362.0000 1.0000
47.8800 328.0000 1.0000
47.8900 338.0000 1.0000
47.9000 357.0000 1.0000
47.9100 373.0000 1.0000
47.9200 391.0000 1.0000
47.9300 361.0000 1.0000
47.9400 351.0000 1.0000
47.9500 356.0000 1.0000
47.9600 386.0000 1.0000
47.9700 374.0000 1.0000
47.9800 375.0000 1.0000
47.9900 385.0000 1.0000
48.0000 352.0000 1.0000
48.0100 359.0000 1.0000
48.0200 348.0000 1.0000
48.0300 333.0000 1.0000
48.0400 349.0000 1.0000
48.0500 362.0000 1.0000
48.0600 330.0000 1.0000
48.0700 354.0000 1.0000
48.0800 383.0000 1.0000
48.0900 375.0000 1.0000
48.1000 357.0000 1.0000
48.1100 357.0000 1.0000
48.1200 364.0000 1.0000
48.1300 369.0000 1.0000
48.1400 370.0000 1.0000
48.1500 380.0000 1.0000
48.1600 337.0000 1.0000
48.1700 326.0000 1.0000
48.1800 360.0000 1.0000
48.1900 332.0000 1.0000
48.2000 357.0000 1.0000
48.2100 399.0000 1.0000
48.2200 395.0000 1.0000
48.2300 362.0000 1.0000
48.2400 389.0000 1.0000
48.2500 383.0000 1.0000
48.2600 355.0000 1.0000
48.2700 349.0000 1.0000
48.2800 351.0000 1.0000
48.2900 353.0000 1.0000
48.3000 371.0000 1.0000
48.3100 368.0000 1.0000
48.3200 345.0000 1.0000
48.3300 383.0000 1.0000
48.3400 343.0000 1.0000
48.3500 386.0000 1.0000
48.3600 369.0000 1.0000
48.3700 339.0000 1.0000
48.3800 386.0000 1.0000
48.3900 365.0000 1.0000
48.4000 352.0000 1.0000
48.4100 371.0000 1.0000
48.4200 350.0000 1.0000
48.4300 355.0000 1.0000
48.4400 369.0000 1.0000
48.4500 373.0000 1.0000
48.4600 346.0000 1.0000
48.4700 357.0000 1.0000
48.4800 341.0000 1.0000
48.4900 389.0000 1.0000
48.5000 368.0000 1.0000
48.5100 341.0000 1.0000
48.5200 355.0000 1.0000
48.5300 350.0000 1.0000
48.5400 341.0000 1.0000
48.5500 343.0000 1.0000
48.5600 360.0000 1.0000
48.5700 354.0000 1.0000
48.5800 387.0000 1.0000
48.5900 383.0000 1.0000
48.6000 367.0000 1.0000
48.6100 365.0000 1.0000
48.6200 341.0000 1.0000
48.6300 344.0000 1.0000
48.6400 379.0000 1.0000
48.6500 347.0000 1.0000
48.6600 348.0000 1.0000
48.6700 336.0000 1.0000
48.6800 330.0000 1.0000
48.6900 345.0000 1.0000
48.7000 357.0000 1.0000
48.7100 339.0000 1.0000
48.7200 335.0000 1.0000
48.7300 337.0000 1.0000
48.7400 352.0000 1.0000
48.7500 367.0000 1.0000
48.7600 333.0000 1.0000
48.7700 337.0000 1.0000
48.7800 343.0000 1.0000
48.7900 347.0000 1.0000
48.8000 339.0000 1.0000
48.8100 345.0000 1.0000
48.8200 366.0000 1.0000
48.8300 351.0000 1.0000
48.8400 339.0000 1.0000
48.8500 361.0000 1.0000
48.8600 363.0000 1.0000
48.8700 367.0000 1.0000
48.8800 353.0000 1.0000
48.8900 375.0000 1.0000
48.9000 335.0000 1.0000
48.9100 342.0000 1.0000
48.9200 351.0000 1.0000
48.9300 345.0000 1.0000
48.9400 332.0000 1.0000
48.9500 357.0000 1.0000
48.9600 379.0000 1.0000
48.9700 378.0000 1.0000
48.9800 382.0000 1.0000
48.9900 387.0000 1.0000
49.0000 338.0000 1.0000
49.0100 352.0000 1.0000
49.0200 360.0000 1.0000
49.0300 373.0000 1.0000
49.0400 370.0000 1.0000
49.0500 365.0000 1.0000
49.0600 353.0000 1.0000
49.0700 349.0000 1.0000
49.0800 356.0000 1.0000
49.0900 390.0000 1.0000
49.1000 374.0000 1.0000
49.1100 352.0000 1.0000
49.1200 350.0000 1.0000
49.1300 356.0000 1.0000
49.1400 370.0000 1.0000
49.1500 354.0000 1.0000
49.1600 332.0000 1.0000
49.1700 378.0000 1.0000
49.1800 363.0000 1.0000
49.1900 335.0000 1.0000
49.2000 331.0000 1.0000
49.2100 380.0000 1.0000
49.2200 382.0000 1.0000
49.2300 354.0000 1.0000
49.2400 381.0000 1.0000
49.2500 375.0000 1.0000
49.2600 412.0000 1.0000
49.2700 395.0000 1.0000
49.2800 429.0000 1.0000
49.2900 385.0000 1.0000
49.3000 394.0000 1.0000
49.3100 398.0000 1.0000
49.3200 414.0000 1.0000
49.3300 416.0000 1.0000
49.3400 432.0000 1.0000
49.3500 417.0000 1.0000
49.3600 401.0000 1.0000
49.3700 436.0000 1.0000
49.3800 429.0000 1.0000
49.3900 458.0000 1.0000
49.4000 449.0000 1.0000
49.4100 446.0000 1.0000
49.4200 431.0000 1.0000
49.4300 439.0000 1.0000
49.4400 420.0000 1.0000
49.4500 425.0000 1.0000
49.4600 458.0000 1.0000
49.4700 424.0000 1.0000
49.4800 459.0000 1.0000
49.4900 454.0000 1.0000
49.5000 427.0000 1.0000
49.5100 442.0000 1.0000
49.5200 396.0000 1.0000
49.5300 419.0000 1.0000
49.5400 410.0000 1.0000
49.5500 424.0000 1.0000
49.5600 406.0000 1.0000
49.5700 398.0000 1.0000
49.5800 419.0000 1.0000
49.5900 412.0000 1.0000
49.6000 439.0000 1.0000
49.6100 377.0000 1.0000
49.6200 359.0000 1.0000
49.6300 383.0000 1.0000
49.6400 387.0000 1.0000
49.6500 389.0000 1.0000
49.6600 371.0000 1.0000
49.6700 367.0000 1.0000
49.6800 383.0000 1.0000
49.6900 394.0000 1.0000
49.7000 381.0000 1.0000
49.7100 370.0000 1.0000
49.7200 357.0000 1.0000
49.7300 336.0000 1.0000
49.7400 348.0000 1.0000
49.7500 393.0000 1.0000
49.7600 381.0000 1.0000
49.7700 397.0000 1.0000
49.7800 381.0000 1.0000
49.7900 382.0000 1.0000
49.8000 366.0000 1.0000
49.8100 374.0000 1.0000
49.8200 348.0000 1.0000
49.8300 349.0000 1.0000
49.8400 376.0000 1.0000
49.8500 343.0000 1.0000
49.8600 382.0000 1.0000
49.8700 366.0000 1.0000
49.8800 354.0000 1.0000
49.8900 381.0000 1.0000
49.9000 408.0000 1.0000
49.9100 374.0000 1.0000
49.9200 372.0000 1.0000
49.9300 350.0000 1.0000
49.9400 372.0000 1.0000
49.9500 366.0000 1.0000
49.9600 349.0000 1.0000
49.9700 343.0000 1.0000
49.9800 361.0000 1.0000
49.9900 331.0000 1.0000
50.0000 349.0000 1.0000
50.0100 354.0000 1.0000
50.0200 324.0000 1.0000
50.0300 373.0000 1.0000
50.0400 370.0000 1.0000
50.0500 355.0000 1.0000
50.0600 342.0000 1.0000
50.0700 358.0000 1.0000
50.0800 359.0000 1.0000
50.0900 344.0000 1.0000
50.1000 368.0000 1.0000
50.1100 334.0000 1.0000
50.1200 362.0000 1.0000
50.1300 366.0000 1.0000
50.1400 326.0000 1.0000
50.1500 336.0000 1.0000
50.1600 370.0000 1.0000
50.1700 388.0000 1.0000
50.1800 382.0000 1.0000
50.1900 377.0000 1.0000
50.2000 349.0000 1.0000
50.2100 334.0000 1.0000
50.2200 373.0000 1.0000
50.2300 397.0000 1.0000
50.2400 364.0000 1.0000
50.2500 363.0000 1.0000
50.2600 333.0000 1.0000
50.2700 344.0000 1.0000
50.2800 397.0000 1.0000
50.2900 374.0000 1.0000
50.3000 370.0000 1.0000
50.3100 352.0000 1.0000
50.3200 343.0000 1.0000
50.3300 376.0000 1.0000
50.3400 362.0000 1.0000
50.3500 335.0000 1.0000
50.3600 353.0000 1.0000
50.3700 367.0000 1.0000
50.3800 370.0000 1.0000
50.3900 347.0000 1.0000
50.4000 358.0000 1.0000
50.4100 382.0000 1.0000
50.4200 378.0000 1.0000
50.4300 371.0000 1.0000
50.4400 390.0000 1.0000
50.4500 364.0000 1.0000
50.4600 383.0000 1.0000
50.4700 367.0000 1.0000
50.4800 354.0000 1.0000
50.4900 336.0000 1.0000
50.5000 345.0000 1.0000
50.5100 365.0000 1.0000
50.5200 416.0000 1.0000
50.5300 359.0000 1.0000
50.5400 345.0000 1.0000
50.5500 351.0000 1.0000
50.5600 385.0000 1.0000
50.5700 351.0000 1.0000
50.5800 376.0000 1.0000
50.5900 363.0000 1.0000
50.6000 355.0000 1.0000
50.6100 352.0000 1.0000
50.6200 364.0000 1.0000
50.6300 368.0000 1.0000
50.6400 323.0000 1.0000
50.6500 375.0000 1.0000
50.6600 367.0000 1.0000
50.6700 359.0000 1.0000
50.6800 362.0000 1.0000
50.6900 330.0000 1.0000
50.7000 367.0000 1.0000
50.7100 364.0000 1.0000
50.7200 353.0000 1.0000
50.7300 353.0000 1.0000
50.7400 345.0000 1.0000
50.7500 342.0000 1.0000
50.7600 374.0000 1.0000
50.7700 373.0000 1.0000
50.7800 386.0000 1.0000
50.7900 383.0000 1.0000
50.8000 355.0000 1.0000
50.8100 392.0000 1.0000
50.8200 349.0000 1.0000
50.8300 327.0000 1.0000
50.8400 369.0000 1.0000
50.8500 365.0000 1.0000
50.8600 368.0000 1.0000
50.8700 376.0000 1.0000
50.8800 414.0000 1.0000
50.8900 388.0000 1.0000
50.9000 366.0000 1.0000
50.9100 394.0000 1.0000
50.9200 374.0000 1.0000
50.9300 363.0000 1.0000
50.9400 371.0000 1.0000
50.9500 366.0000 1.0000
50.9600 387.0000 1.0000
50.9700 373.0000 1.0000
50.9800 385.0000 1.0000
50.9900 389.0000 1.0000
51.0000 383.0000 1.0000
51.0100 391.0000 1.0000
51.0200 408.0000 1.0000
51.0300 378.0000 1.0000
51.0400 420.0000 1.0000
51.0500 385.0000 1.0000
51.0600 423.0000 1.0000
51.0700 429.0000 1.0000
51.0800 425.0000 1.0000
51.0900 434.0000 1.0000
51.1000 406.0000 1.0000
51.1100 436.0000 1.0000
51.1200 436.0000 1.0000
51.1300 437.0000 1.0000
51.1400 460.0000 1.0000
51.1500 465.0000 1.0000
51.1600 472.0000 1.0000
51.1700 479.0000 1.0000
51.1800 484.0000 1.0000
51.1900 494.0000 1.0000
51.2000 521.0000 1.0000
51.2100 507.0000 1.0000
51.2200 546.0000 1.0000
51.2300 597.0000 1.0000
51.2400 585.0000 1.0000
51.2500 590.0000 1.0000
51.2600 625.0000 1.0000
51.2700 674.0000 1.0000
51.2800 663.0000 1.0000
51.2900 702.0000 1.0000
51.3000 709.0000 1.0000
51.3100 751.0000 1.0000
51.3200 825.0000 1.0000
51.3300 874.0000 1.0000
51.3400 927.0000 1.0000
51.3500 997.0000 1.0000
51.3600 1057.0000 1.0000
51.3700 1158.0000 1.0000
51.3800 1252.0000 1.0000
51.3900 1337.0000 1.0000
51.4000 1457.0000 1.0000
51.4100 1565.0000 1.0000
51.4200 1704.0000 1.0000
51.4300 1814.0000 1.0000
51.4400 1880.0000 1.0000
51.4500 1905.0000 1.0000
51.4600 2028.0000 1.0000
51.4700 2136.0000 1.0000
51.4800 2156.0000 1.0000
51.4900 2172.0000 1.0000
51.5000 2150.0000 1.0000
51.5100 2170.0000 1.0000
51.5200 2152.0000 1.0000
51.5300 2109.0000 1.0000
51.5400 2006.0000 1.0000
51.5500 1941.0000 1.0000
51.5600 1793.0000 1.0000
51.5700 1779.0000 1.0000
51.5800 1772.0000 1.0000
51.5900 1712.0000 1.0000
51.6000 1694.0000 1.0000
51.6100 1570.0000 1.0000
51.6200 1594.0000 1.0000
51.6300 1473.0000 1.0000
51.6400 1437.0000 1.0000
51.6500 1397.0000 1.0000
51.6600 1341.0000 1.0000
51.6700 1213.0000 1.0000
51.6800 1190.0000 1.0000
51.6900 1086.0000 1.0000
51.7000 1046.0000 1.0000
51.7100 972.0000 1.0000
51.7200 893.0000 1.0000
51.7300 833.0000 1.0000
51.7400 756.0000 1.0000
51.7500 705.0000 1.0000
51.7600 664.0000 1.0000
51.7700 710.0000 1.0000
51.7800 612.0000 1.0000
51.7900 626.0000 1.0000
51.8000 594.0000 1.0000
51.8100 546.0000 1.0000
51.8200 537.0000 1.0000
51.8300 518.0000 1.0000
51.8400 587.0000 1.0000
51.8500 529.0000 1.0000
51.8600 501.0000 1.0000
51.8700 507.0000 1.0000
51.8800 484.0000 1.0000
51.8900 452.0000 1.0000
51.9000 464.0000 1.0000
51.9100 454.0000 1.0000
51.9200 440.0000 1.0000
51.9300 413.0000 1.0000
51.9400 415.0000 1.0000
51.9500 462.0000 1.0000
51.9600 443.0000 1.0000
51.9700 440.0000 1.0000
51.9800 420.0000 1.0000
51.9900 397.0000 1.0000
52.0000 413.0000 1.0000
52.0100 448.0000 1.0000
52.0200 416.0000 1.0000
52.0300 403.0000 1.0000
52.0400 408.0000 1.0000
52.0500 412.0000 1.0000
52.0600 392.0000 1.0000
52.0700 410.0000 1.0000
52.0800 392.0000 1.0000
52.0900 370.0000 1.0000
52.1000 391.0000 1.0000
52.1100 370.0000 1.0000
52.1200 381.0000 1.0000
52.1300 379.0000 1.0000
52.1400 400.0000 1.0000
52.1500 353.0000 1.0000
52.1600 363.0000 1.0000
52.1700 375.0000 1.0000
52.1800 385.0000 1.0000
52.1900 336.0000 1.0000
52.2000 382.0000 1.0000
52.2100 356.0000 1.0000
52.2200 347.0000 1.0000
52.2300 363.0000 1.0000
52.2400 381.0000 1.0000
52.2500 380.0000 1.0000
52.2600 394.0000 1.0000
52.2700 369.0000 1.0000
52.2800 375.0000 1.0000
52.2900 347.0000 1.0000
52.3000 377.0000 1.0000
52.3100 356.0000 1.0000
52.3200 388.0000 1.0000
52.3300 375.0000 1.0000
52.3400 386.0000 1.0000
52.3500 362.0000 1.0000
52.3600 364.0000 1.0000
52.3700 380.0000 1.0000
52.3800 382.0000 1.0000
52.3900 359.0000 1.0000
52.4000 344.0000 1.0000
52.4100 354.0000 1.0000
52.4200 325.0000 1.0000
52.4300 388.0000 1.0000
52.4400 396.0000 1.0000
52.4500 368.0000 1.0000
52.4600 341.0000 1.0000
52.4700 347.0000 1.0000
52.4800 350.0000 1.0000
52.4900 362.0000 1.0000
52.5000 336.0000 1.0000
52.5100 343.0000 1.0000
52.5200 321.0000 1.0000
52.5300 350.0000 1.0000
52.5400 339.0000 1.0000
52.5500 357.0000 1.0000
52.5600 368.0000 1.0000
52.5700 337.0000 1.0000
52.5800 337.0000 1.0000
52.5900 361.0000 1.0000
52.6000 335.0000 1.0000
52.6100 341.0000 1.0000
52.6200 330.0000 1.0000
52.6300 345.0000 1.0000
52.6400 366.0000 1.0000
52.6500 373.0000 1.0000
52.6600 362.0000 1.0000
52.6700 358.0000 1.0000
52.6800 360.0000 1.0000
52.6900 349.0000 1.0000
52.7000 358.0000 1.0000
52.7100 343.0000 1.0000
52.7200 334.0000 1.0000
52.7300 327.0000 1.0000
52.7400 366.0000 1.0000
52.7500 335.0000 1.0000
52.7600 337.0000 1.0000
52.7700 332.0000 1.0000
52.7800 341.0000 1.0000
52.7900 351.0000 1.0000
52.8000 396.0000 1.0000
52.8100 322.0000 1.0000
52.8200 353.0000 1.0000
52.8300 358.0000 1.0000
52.8400 307.0000 1.0000
52.8500 327.0000 1.0000
52.8600 334.0000 1.0000
52.8700 366.0000 1.0000
52.8800 356.0000 1.0000
52.8900 336.0000 1.0000
52.9000 338.0000 1.0000
52.9100 343.0000 1.0000
52.9200 367.0000 1.0000
52.9300 334.0000 1.0000
52.9400 324.0000 1.0000
52.9500 340.0000 1.0000
52.9600 333.0000 1.0000
52.9700 360.0000 1.0000
52.9800 378.0000 1.0000
52.9900 344.0000 1.0000
53.0000 353.0000 1.0000
53.0100 342.0000 1.0000
53.0200 329.0000 1.0000
53.0300 356.0000 1.0000
53.0400 344.0000 1.0000
53.0500 348.0000 1.0000
53.0600 321.0000 1.0000
53.0700 362.0000 1.0000
53.0800 365.0000 1.0000
53.0900 362.0000 1.0000
53.1000 345.0000 1.0000
53.1100 349.0000 1.0000
53.1200 343.0000 1.0000
53.1300 342.0000 1.0000
53.1400 338.0000 1.0000
53.1500 362.0000 1.0000
53.1600 344.0000 1.0000
53.1700 346.0000 1.0000
53.1800 368.0000 1.0000
53.1900 364.0000 1.0000
53.2000 309.0000 1.0000
53.2100 343.0000 1.0000
53.2200 350.0000 1.0000
53.2300 341.0000 1.0000
53.2400 358.0000 1.0000
53.2500 346.0000 1.0000
53.2600 333.0000 1.0000
53.2700 362.0000 1.0000
53.2800 350.0000 1.0000
53.2900 290.0000 1.0000
53.3000 331.0000 1.0000
53.3100 344.0000 1.0000
53.3200 363.0000 1.0000
53.3300 338.0000 1.0000
53.3400 328.0000 1.0000
53.3500 374.0000 1.0000
53.3600 360.0000 1.0000
53.3700 327.0000 1.0000
53.3800 307.0000 1.0000
53.3900 346.0000 1.0000
53.4000 308.0000 1.0000
53.4100 336.0000 1.0000
53.4200 339.0000 1.0000
53.4300 372.0000 1.0000
53.4400 352.0000 1.0000
53.4500 306.0000 1.0000
53.4600 323.0000 1.0000
53.4700 337.0000 1.0000
53.4800 332.0000 1.0000
53.4900 331.0000 1.0000
53.5000 351.0000 1.0000
53.5100 349.0000 1.0000
53.5200 330.0000 1.0000
53.5300 348.0000 1.0000
53.5400 337.0000 1.0000
53.5500 342.0000 1.0000
53.5600 341.0000 1.0000
53.5700 352.0000 1.0000
53.5800 345.0000 1.0000
53.5900 342.0000 1.0000
53.6000 329.0000 1.0000
53.6100 335.0000 1.0000
53.6200 327.0000 1.0000
53.6300 351.0000 1.0000
53.6400 373.0000 1.0000
53.6500 339.0000 1.0000
53.6600 374.0000 1.0000
53.6700 327.0000 1.0000
53.6800 335.0000 1.0000
53.6900 339.0000 1.0000
53.7000 350.0000 1.0000
53.7100 364.0000 1.0000
53.7200 350.0000 1.0000
53.7300 340.0000 1.0000
53.7400 369.0000 1.0000
53.7500 343.0000 1.0000
53.7600 367.0000 1.0000
53.7700 371.0000 1.0000
53.7800 313.0000 1.0000
53.7900 359.0000 1.0000
53.8000 374.0000 1.0000
53.8100 362.0000 1.0000
53.8200 390.0000 1.0000
53.8300 366.0000 1.0000
53.8400 368.0000 1.0000
53.8500 374.0000 1.0000
53.8600 378.0000 1.0000
53.8700 350.0000 1.0000
53.8800 367.0000 1.0000
53.8900 384.0000 1.0000
53.9000 375.0000 1.0000
53.9100 373.0000 1.0000
53.9200 381.0000 1.0000
53.9300 400.0000 1.0000
53.9400 413.0000 1.0000
53.9500 427.0000 1.0000
53.9600 401.0000 1.0000
53.9700 410.0000 1.0000
53.9800 421.0000 1.0000
53.9900 433.0000 1.0000
54.0000 401.0000 1.0000
54.0100 414.0000 1.0000
54.0200 438.0000 1.0000
54.0300 413.0000 1.0000
54.0400 417.0000 1.0000
54.0500 453.0000 1.0000
54.0600 409.0000 1.0000
54.0700 378.0000 1.0000
54.0800 407.0000 1.0000
54.0900 382.0000 1.0000
54.1000 402.0000 1.0000
54.1100 374.0000 1.0000
54.1200 405.0000 1.0000
54.1300 439.0000 1.0000
54.1400 427.0000 1.0000
54.1500 402.0000 1.0000
54.1600 436.0000 1.0000
54.1700 400.0000 1.0000
54.1800 430.0000 1.0000
54.1900 404.0000 1.0000
54.2000 390.0000 1.0000
54.2100 359.0000 1.0000
54.2200 400.0000 1.0000
54.2300 386.0000 1.0000
54.2400 400.0000 1.0000
54.2500 371.0000 1.0000
54.2600 394.0000 1.0000
54.2700 376.0000 1.0000
54.2800 383.0000 1.0000
54.2900 401.0000 1.0000
54.3000 405.0000 1.0000
54.3100 400.0000 1.0000
54.3200 408.0000 1.0000
54.3300 430.0000 1.0000
54.3400 431.0000 1.0000
54.3500 397.0000 1.0000
54.3600 380.0000 1.0000
54.3700 405.0000 1.0000
54.3800 430.0000 1.0000
54.3900 444.0000 1.0000
54.4000 464.0000 1.0000
54.4100 442.0000 1.0000
54.4200 476.0000 1.0000
54.4300 460.0000 1.0000
54.4400 479.0000 1.0000
54.4500 476.0000 1.0000
54.4600 469.0000 1.0000
54.4700 491.0000 1.0000
54.4800 525.0000 1.0000
54.4900 519.0000 1.0000
54.5000 500.0000 1.0000
54.5100 493.0000 1.0000
54.5200 471.0000 1.0000
54.5300 508.0000 1.0000
54.5400 523.0000 1.0000
54.5500 492.0000 1.0000
54.5600 492.0000 1.0000
54.5700 524.0000 1.0000
54.5800 508.0000 1.0000
54.5900 491.0000 1.0000
54.6000 516.0000 1.0000
54.6100 497.0000 1.0000
54.6200 476.0000 1.0000
54.6300 483.0000 1.0000
54.6400 479.0000 1.0000
54.6500 516.0000 1.0000
54.6600 486.0000 1.0000
54.6700 456.0000 1.0000
54.6800 453.0000 1.0000
54.6900 431.0000 1.0000
54.7000 450.0000 1.0000
54.7100 453.0000 1.0000
54.7200 409.0000 1.0000
54.7300 426.0000 1.0000
54.7400 405.0000 1.0000
54.7500 376.0000 1.0000
54.7600 416.0000 1.0000
54.7700 393.0000 1.0000
54.7800 404.0000 1.0000
54.7900 415.0000 1.0000
54.8000 399.0000 1.0000
54.8100 389.0000 1.0000
54.8200 386.0000 1.0000
54.8300 371.0000 1.0000
54.8400 382.0000 1.0000
54.8500 362.0000 1.0000
54.8600 373.0000 1.0000
54.8700 356.0000 1.0000
54.8800 378.0000 1.0000
54.8900 388.0000 1.0000
54.9000 381.0000 1.0000
54.9100 352.0000 1.0000
54.9200 339.0000 1.0000
54.9300 358.0000 1.0000
54.9400 376.0000 1.0000
54.9500 375.0000 1.0000
54.9600 359.0000 1.0000
54.9700 379.0000 1.0000
54.9800 379.0000 1.0000
54.9900 313.0000 1.0000
55.0000 330.0000 1.0000
55.0100 359.0000 1.0000
55.0200 353.0000 1.0000
55.0300 361.0000 1.0000
55.0400 354.0000 1.0000
55.0500 343.0000 1.0000
55.0600 311.0000 1.0000
55.0700 363.0000 1.0000
55.0800 335.0000 1.0000
55.0900 350.0000 1.0000
55.1000 355.0000 1.0000
55.1100 352.0000 1.0000
55.1200 335.0000 1.0000
55.1300 321.0000 1.0000
55.1400 333.0000 1.0000
55.1500 338.0000 1.0000
55.1600 345.0000 1.0000
55.1700 347.0000 1.0000
55.1800 334.0000 1.0000
55.1900 345.0000 1.0000
55.2000 369.0000 1.0000
55.2100 360.0000 1.0000
55.2200 364.0000 1.0000
55.2300 352.0000 1.0000
55.2400 336.0000 1.0000
55.2500 355.0000 1.0000
55.2600 314.0000 1.0000
55.2700 346.0000 1.0000
55.2800 316.0000 1.0000
55.2900 351.0000 1.0000
55.3000 369.0000 1.0000
55.3100 322.0000 1.0000
55.3200 326.0000 1.0000
55.3300 323.0000 1.0000
55.3400 344.0000 1.0000
55.3500 330.0000 1.0000
55.3600 326.0000 1.0000
55.3700 325.0000 1.0000
55.3800 326.0000 1.0000
55.3900 316.0000 1.0000
55.4000 362.0000 1.0000
55.4100 337.0000 1.0000
55.4200 316.0000 1.0000
55.4300 329.0000 1.0000
55.4400 318.0000 1.0000
55.4500 348.0000 1.0000
55.4600 332.0000 1.0000
55.4700 342.0000 1.0000
55.4800 335.0000 1.0000
55.4900 311.0000 1.0000
55.5000 335.0000 1.0000
55.5100 356.0000 1.0000
55.5200 324.0000 1.0000
55.5300 329.0000 1.0000
55.5400 327.0000 1.0000
55.5500 374.0000 1.0000
55.5600 348.0000 1.0000
55.5700 332.0000 1.0000
55.5800 300.0000 1.0000
55.5900 313.0000 1.0000
55.6000 343.0000 1.0000
55.6100 316.0000 1.0000
55.6200 351.0000 1.0000
55.6300 345.0000 1.0000
55.6400 337.0000 1.0000
55.6500 337.0000 1.0000
55.6600 342.0000 1.0000
55.6700 326.0000 1.0000
55.6800 321.0000 1.0000
55.6900 314.0000 1.0000
55.7000 314.0000 1.0000
55.7100 344.0000 1.0000
55.7200 325.0000 1.0000
55.7300 341.0000 1.0000
55.7400 323.0000 1.0000
55.7500 353.0000 1.0000
55.7600 334.0000 1.0000
55.7700 343.0000 1.0000
55.7800 334.0000 1.0000
55.7900 318.0000 1.0000
55.8000 347.0000 1.0000
55.8100 336.0000 1.0000
55.8200 313.0000 1.0000
55.8300 351.0000 1.0000
55.8400 318.0000 1.0000
55.8500 311.0000 1.0000
55.8600 344.0000 1.0000
55.8700 316.0000 1.0000
55.8800 341.0000 1.0000
55.8900 320.0000 1.0000
55.9000 364.0000 1.0000
55.9100 308.0000 1.0000
55.9200 334.0000 1.0000
55.9300 329.0000 1.0000
55.9400 326.0000 1.0000
55.9500 355.0000 1.0000
55.9600 315.0000 1.0000
55.9700 324.0000 1.0000
55.9800 331.0000 1.0000
55.9900 352.0000 1.0000
56.0000 359.0000 1.0000
56.0100 327.0000 1.0000
56.0200 331.0000 1.0000
56.0300 336.0000 1.0000
56.0400 348.0000 1.0000
56.0500 317.0000 1.0000
56.0600 330.0000 1.0000
56.0700 321.0000 1.0000
56.0800 336.0000 1.0000
56.0900 331.0000 1.0000
56.1000 339.0000 1.0000
56.1100 318.0000 1.0000
56.1200 353.0000 1.0000
56.1300 322.0000 1.0000
56.1400 347.0000 1.0000
56.1500 345.0000 1.0000
56.1600 298.0000 1.0000
56.1700 337.0000 1.0000
56.1800 335.0000 1.0000
56.1900 307.0000 1.0000
56.2000 321.0000 1.0000
56.2100 314.0000 1.0000
56.2200 318.0000 1.0000
56.2300 344.0000 1.0000
56.2400 344.0000 1.0000
56.2500 338.0000 1.0000
56.2600 327.0000 1.0000
56.2700 334.0000 1.0000
56.2800 340.0000 1.0000
56.2900 333.0000 1.0000
56.3000 345.0000 1.0000
56.3100 338.0000 1.0000
56.3200 338.0000 1.0000
56.3300 313.0000 1.0000
56.3400 360.0000 1.0000
56.3500 351.0000 1.0000
56.3600 345.0000 1.0000
56.3700 297.0000 1.0000
56.3800 313.0000 1.0000
56.3900 315.0000 1.0000
56.4000 337.0000 1.0000
56.4100 335.0000 1.0000
56.4200 309.0000 1.0000
56.4300 299.0000 1.0000
56.4400 322.0000 1.0000
56.4500 321.0000 1.0000
56.4600 337.0000 1.0000
56.4700 321.0000 1.0000
56.4800 340.0000 1.0000
56.4900 357.0000 1.0000
56.5000 342.0000 1.0000
56.5100 352.0000 1.0000
56.5200 363.0000 1.0000
56.5300 328.0000 1.0000
56.5400 342.0000 1.0000
56.5500 317.0000 1.0000
56.5600 338.0000 1.0000
56.5700 336.0000 1.0000
56.5800 344.0000 1.0000
56.5900 334.0000 1.0000
56.6000 338.0000 1.0000
56.6100 337.0000 1.0000
56.6200 334.0000 1.0000
56.6300 321.0000 1.0000
56.6400 296.0000 1.0000
56.6500 331.0000 1.0000
56.6600 347.0000 1.0000
56.6700 326.0000 1.0000
56.6800 339.0000 1.0000
56.6900 315.0000 1.0000
56.7000 305.0000 1.0000
56.7100 326.0000 1.0000
56.7200 336.0000 1.0000
56.7300 324.0000 1.0000
56.7400 351.0000 1.0000
56.7500 325.0000 1.0000
56.7600 349.0000 1.0000
56.7700 334.0000 1.0000
56.7800 301.0000 1.0000
56.7900 322.0000 1.0000
56.8000 337.0000 1.0000
56.8100 331.0000 1.0000
56.8200 323.0000 1.0000
56.8300 338.0000 1.0000
56.8400 325.0000 1.0000
56.8500 322.0000 1.0000
56.8600 354.0000 1.0000
56.8700 341.0000 1.0000
56.8800 300.0000 1.0000
56.8900 315.0000 1.0000
56.9000 330.0000 1.0000
56.9100 338.0000 1.0000
56.9200 327.0000 1.0000
56.9300 317.0000 1.0000
56.9400 337.0000 1.0000
56.9500 307.0000 1.0000
56.9600 350.0000 1.0000
56.9700 345.0000 1.0000
56.9800 315.0000 1.0000
56.9900 320.0000 1.0000
57.0000 318.0000 1.0000
57.0100 337.0000 1.0000
57.0200 335.0000 1.0000
57.0300 322.0000 1.0000
57.0400 332.0000 1.0000
57.0500 320.0000 1.0000
57.0600 327.0000 1.0000
57.0700 313.0000 1.0000
57.0800 361.0000 1.0000
57.0900 327.0000 1.0000
57.1000 336.0000 1.0000
57.1100 346.0000 1.0000
57.1200 316.0000 1.0000
57.1300 327.0000 1.0000
57.1400 341.0000 1.0000
57.1500 317.0000 1.0000
57.1600 340.0000 1.0000
57.1700 306.0000 1.0000
57.1800 309.0000 1.0000
57.1900 336.0000 1.0000
57.2000 331.0000 1.0000
57.2100 301.0000 1.0000
57.2200 332.0000 1.0000
57.2300 309.0000 1.0000
57.2400 296.0000 1.0000
57.2500 356.0000 1.0000
57.2600 330.0000 1.0000
57.2700 333.0000 1.0000
57.2800 298.0000 1.0000
57.2900 351.0000 1.0000
57.3000 316.0000 1.0000
57.3100 348.0000 1.0000
57.3200 359.0000 1.0000
57.3300 328.0000 1.0000
57.3400 345.0000 1.0000
57.3500 329.0000 1.0000
57.3600 319.0000 1.0000
57.3700 320.0000 1.0000
57.3800 366.0000 1.0000
57.3900 375.0000 1.0000
57.4000 343.0000 1.0000
57.4100 346.0000 1.0000
57.4200 327.0000 1.0000
57.4300 333.0000 1.0000
57.4400 341.0000 1.0000
57.4500 364.0000 1.0000
57.4600 349.0000 1.0000
57.4700 324.0000 1.0000
57.4800 338.0000 1.0000
57.4900 330.0000 1.0000
57.5000 327.0000 1.0000
57.5100 347.0000 1.0000
57.5200 349.0000 1.0000
57.5300 366.0000 1.0000
57.5400 312.0000 1.0000
57.5500 337.0000 1.0000
57.5600 375.0000 1.0000
57.5700 322.0000 1.0000
57.5800 332.0000 1.0000
57.5900 332.0000 1.0000
57.6000 338.0000 1.0000
57.6100 354.0000 1.0000
57.6200 342.0000 1.0000
57.6300 312.0000 1.0000
57.6400 336.0000 1.0000
57.6500 347.0000 1.0000
57.6600 329.0000 1.0000
57.6700 342.0000 1.0000
57.6800 351.0000 1.0000
57.6900 350.0000 1.0000
57.7000 320.0000 1.0000
57.7100 317.0000 1.0000
57.7200 321.0000 1.0000
57.7300 341.0000 1.0000
57.7400 338.0000 1.0000
57.7500 350.0000 1.0000
57.7600 326.0000 1.0000
57.7700 365.0000 1.0000
57.7800 307.0000 1.0000
57.7900 312.0000 1.0000
57.8000 304.0000 1.0000
57.8100 289.0000 1.0000
57.8200 326.0000 1.0000
57.8300 366.0000 1.0000
57.8400 335.0000 1.0000
57.8500 320.0000 1.0000
57.8600 314.0000 1.0000
57.8700 327.0000 1.0000
57.8800 334.0000 1.0000
57.8900 310.0000 1.0000
57.9000 332.0000 1.0000
57.9100 325.0000 1.0000
57.9200 304.0000 1.0000
57.9300 319.0000 1.0000
57.9400 318.0000 1.0000
57.9500 352.0000 1.0000
57.9600 322.0000 1.0000
57.9700 333.0000 1.0000
57.9800 313.0000 1.0000
57.9900 306.0000 1.0000
58.0000 348.0000 1.0000
58.0100 336.0000 1.0000
58.0200 301.0000 1.0000
58.0300 302.0000 1.0000
58.0400 337.0000 1.0000
58.0500 332.0000 1.0000
58.0600 326.0000 1.0000
58.0700 322.0000 1.0000
58.0800 322.0000 1.0000
58.0900 345.0000 1.0000
58.1000 317.0000 1.0000
58.1100 313.0000 1.0000
58.1200 292.0000 1.0000
58.1300 319.0000 1.0000
58.1400 350.0000 1.0000
58.1500 329.0000 1.0000
58.1600 324.0000 1.0000
58.1700 358.0000 1.0000
58.1800 314.0000 1.0000
58.1900 340.0000 1.0000
58.2000 309.0000 1.0000
58.2100 317.0000 1.0000
58.2200 326.0000 1.0000
58.2300 344.0000 1.0000
58.2400 331.0000 1.0000
58.2500 337.0000 1.0000
58.2600 340.0000 1.0000
58.2700 318.0000 1.0000
58.2800 310.0000 1.0000
58.2900 337.0000 1.0000
58.3000 311.0000 1.0000
58.3100 308.0000 1.0000
58.3200 312.0000 1.0000
58.3300 314.0000 1.0000
58.3400 328.0000 1.0000
58.3500 331.0000 1.0000
58.3600 333.0000 1.0000
58.3700 315.0000 1.0000
58.3800 325.0000 1.0000
58.3900 327.0000 1.0000
58.4000 322.0000 1.0000
58.4100 312.0000 1.0000
58.4200 349.0000 1.0000
58.4300 329.0000 1.0000
58.4400 327.0000 1.0000
58.4500 316.0000 1.0000
58.4600 374.0000 1.0000
58.4700 360.0000 1.0000
58.4800 344.0000 1.0000
58.4900 304.0000 1.0000
58.5000 327.0000 1.0000
58.5100 300.0000 1.0000
58.5200 291.0000 1.0000
58.5300 342.0000 1.0000
58.5400 300.0000 1.0000
58.5500 341.0000 1.0000
58.5600 324.0000 1.0000
58.5700 332.0000 1.0000
58.5800 335.0000 1.0000
58.5900 344.0000 1.0000
58.6000 331.0000 1.0000
58.6100 302.0000 1.0000
58.6200 317.0000 1.0000
58.6300 300.0000 1.0000
58.6400 305.0000 1.0000
58.6500 297.0000 1.0000
58.6600 323.0000 1.0000
58.6700 306.0000 1.0000
58.6800 325.0000 1.0000
58.6900 282.0000 1.0000
58.7000 326.0000 1.0000
58.7100 357.0000 1.0000
58.7200 327.0000 1.0000
58.7300 353.0000 1.0000
58.7400 343.0000 1.0000
58.7500 324.0000 1.0000
58.7600 316.0000 1.0000
58.7700 306.0000 1.0000
58.7800 325.0000 1.0000
58.7900 343.0000 1.0000
58.8000 354.0000 1.0000
58.8100 338.0000 1.0000
58.8200 330.0000 1.0000
58.8300 327.0000 1.0000
58.8400 329.0000 1.0000
58.8500 295.0000 1.0000
58.8600 326.0000 1.0000
58.8700 316.0000 1.0000
58.8800 332.0000 1.0000
58.8900 327.0000 1.0000
58.9000 306.0000 1.0000
58.9100 329.0000 1.0000
58.9200 310.0000 1.0000
58.9300 353.0000 1.0000
58.9400 329.0000 1.0000
58.9500 324.0000 1.0000
58.9600 316.0000 1.0000
58.9700 316.0000 1.0000
58.9800 350.0000 1.0000
58.9900 322.0000 1.0000
59.0000 339.0000 1.0000
59.0100 324.0000 1.0000
59.0200 322.0000 1.0000
59.0300 310.0000 1.0000
59.0400 328.0000 1.0000
59.0500 320.0000 1.0000
59.0600 325.0000 1.0000
59.0700 334.0000 1.0000
59.0800 345.0000 1.0000
59.0900 338.0000 1.0000
59.1000 292.0000 1.0000
59.1100 325.0000 1.0000
59.1200 350.0000 1.0000
59.1300 342.0000 1.0000
59.1400 318.0000 1.0000
59.1500 321.0000 1.0000
59.1600 337.0000 1.0000
59.1700 313.0000 1.0000
59.1800 331.0000 1.0000
59.1900 339.0000 1.0000
59.2000 296.0000 1.0000
59.2100 330.0000 1.0000
59.2200 319.0000 1.0000
59.2300 336.0000 1.0000
59.2400 305.0000 1.0000
59.2500 326.0000 1.0000
59.2600 357.0000 1.0000
59.2700 310.0000 1.0000
59.2800 331.0000 1.0000
59.2900 305.0000 1.0000
59.3000 313.0000 1.0000
59.3100 330.0000 1.0000
59.3200 317.0000 1.0000
59.3300 312.0000 1.0000
59.3400 335.0000 1.0000
59.3500 332.0000 1.0000
59.3600 305.0000 1.0000
59.3700 303.0000 1.0000
59.3800 327.0000 1.0000
59.3900 352.0000 1.0000
59.4000 341.0000 1.0000
59.4100 334.0000 1.0000
59.4200 315.0000 1.0000
59.4300 310.0000 1.0000
59.4400 326.0000 1.0000
59.4500 322.0000 1.0000
59.4600 319.0000 1.0000
59.4700 306.0000 1.0000
59.4800 305.0000 1.0000
59.4900 297.0000 1.0000
59.5000 339.0000 1.0000
59.5100 321.0000 1.0000
59.5200 315.0000 1.0000
59.5300 333.0000 1.0000
59.5400 308.0000 1.0000
59.5500 345.0000 1.0000
59.5600 320.0000 1.0000
59.5700 321.0000 1.0000
59.5800 335.0000 1.0000
59.5900 327.0000 1.0000
59.6000 311.0000 1.0000
59.6100 317.0000 1.0000
59.6200 314.0000 1.0000
59.6300 336.0000 1.0000
59.6400 319.0000 1.0000
59.6500 335.0000 1.0000
59.6600 323.0000 1.0000
59.6700 310.0000 1.0000
59.6800 320.0000 1.0000
59.6900 318.0000 1.0000
59.7000 322.0000 1.0000
59.7100 323.0000 1.0000
59.7200 326.0000 1.0000
59.7300 317.0000 1.0000
59.7400 357.0000 1.0000
59.7500 345.0000 1.0000
59.7600 346.0000 1.0000
59.7700 316.0000 1.0000
59.7800 337.0000 1.0000
59.7900 319.0000 1.0000
59.8000 331.0000 1.0000
59.8100 324.0000 1.0000
59.8200 316.0000 1.0000
59.8300 327.0000 1.0000
59.8400 317.0000 1.0000
59.8500 316.0000 1.0000
59.8600 329.0000 1.0000
59.8700 321.0000 1.0000
59.8800 328.0000 1.0000
59.8900 318.0000 1.0000
59.9000 318.0000 1.0000
59.9100 332.0000 1.0000
59.9200 333.0000 1.0000
59.9300 339.0000 1.0000
59.9400 316.0000 1.0000
59.9500 309.0000 1.0000
59.9600 307.0000 1.0000
59.9700 315.0000 1.0000
59.9800 344.0000 1.0000
59.9900 328.0000 1.0000
60.0000 329.0000 1.0000
60.0100 326.0000 1.0000
60.0200 302.0000 1.0000
60.0300 309.0000 1.0000
60.0400 327.0000 1.0000
60.0500 297.0000 1.0000
60.0600 334.0000 1.0000
60.0700 317.0000 1.0000
60.0800 307.0000 1.0000
60.0900 344.0000 1.0000
60.1000 312.0000 1.0000
60.1100 326.0000 1.0000
60.1200 329.0000 1.0000
60.1300 324.0000 1.0000
60.1400 339.0000 1.0000
60.1500 312.0000 1.0000
60.1600 300.0000 1.0000
60.1700 310.0000 1.0000
60.1800 311.0000 1.0000
60.1900 315.0000 1.0000
60.2000 320.0000 1.0000
60.2100 348.0000 1.0000
60.2200 345.0000 1.0000
60.2300 337.0000 1.0000
60.2400 334.0000 1.0000
60.2500 340.0000 1.0000
60.2600 317.0000 1.0000
60.2700 360.0000 1.0000
60.2800 298.0000 1.0000
60.2900 293.0000 1.0000
60.3000 298.0000 1.0000
60.3100 336.0000 1.0000
60.3200 340.0000 1.0000
60.3300 291.0000 1.0000
60.3400 313.0000 1.0000
60.3500 316.0000 1.0000
60.3600 322.0000 1.0000
60.3700 335.0000 1.0000
60.3800 324.0000 1.0000
60.3900 314.0000 1.0000
60.4000 357.0000 1.0000
60.4100 338.0000 1.0000
60.4200 313.0000 1.0000
60.4300 324.0000 1.0000
60.4400 309.0000 1.0000
60.4500 331.0000 1.0000
60.4600 353.0000 1.0000
60.4700 339.0000 1.0000
60.4800 307.0000 1.0000
60.4900 322.0000 1.0000
60.5000 317.0000 1.0000
60.5100 348.0000 1.0000
60.5200 317.0000 1.0000
60.5300 316.0000 1.0000
60.5400 326.0000 1.0000
60.5500 308.0000 1.0000
60.5600 361.0000 1.0000
60.5700 322.0000 1.0000
60.5800 286.0000 1.0000
60.5900 311.0000 1.0000
60.6000 339.0000 1.0000
60.6100 315.0000 1.0000
60.6200 317.0000 1.0000
60.6300 326.0000 1.0000
60.6400 328.0000 1.0000
60.6500 336.0000 1.0000
60.6600 299.0000 1.0000
60.6700 324.0000 1.0000
60.6800 322.0000 1.0000
60.6900 320.0000 1.0000
60.7000 328.0000 1.0000
60.7100 326.0000 1.0000
60.7200 335.0000 1.0000
60.7300 340.0000 1.0000
60.7400 314.0000 1.0000
60.7500 340.0000 1.0000
60.7600 326.0000 1.0000
60.7700 302.0000 1.0000
60.7800 363.0000 1.0000
60.7900 335.0000 1.0000
60.8000 312.0000 1.0000
60.8100 311.0000 1.0000
60.8200 337.0000 1.0000
60.8300 317.0000 1.0000
60.8400 327.0000 1.0000
60.8500 322.0000 1.0000
60.8600 331.0000 1.0000
60.8700 344.0000 1.0000
60.8800 314.0000 1.0000
60.8900 308.0000 1.0000
60.9000 320.0000 1.0000
60.9100 314.0000 1.0000
60.9200 310.0000 1.0000
60.9300 345.0000 1.0000
60.9400 343.0000 1.0000
60.9500 334.0000 1.0000
60.9600 352.0000 1.0000
60.9700 344.0000 1.0000
60.9800 349.0000 1.0000
60.9900 356.0000 1.0000
61.0000 344.0000 1.0000
61.0100 331.0000 1.0000
61.0200 341.0000 1.0000
61.0300 328.0000 1.0000
61.0400 317.0000 1.0000
61.0500 349.0000 1.0000
61.0600 338.0000 1.0000
61.0700 364.0000 1.0000
61.0800 335.0000 1.0000
61.0900 347.0000 1.0000
61.1000 358.0000 1.0000
61.1100 359.0000 1.0000
61.1200 375.0000 1.0000
61.1300 352.0000 1.0000
61.1400 385.0000 1.0000
61.1500 359.0000 1.0000
61.1600 356.0000 1.0000
61.1700 338.0000 1.0000
61.1800 359.0000 1.0000
61.1900 359.0000 1.0000
61.2000 363.0000 1.0000
61.2100 368.0000 1.0000
61.2200 384.0000 1.0000
61.2300 366.0000 1.0000
61.2400 414.0000 1.0000
61.2500 398.0000 1.0000
61.2600 410.0000 1.0000
61.2700 381.0000 1.0000
61.2800 411.0000 1.0000
61.2900 410.0000 1.0000
61.3000 425.0000 1.0000
61.3100 444.0000 1.0000
61.3200 441.0000 1.0000
61.3300 464.0000 1.0000
61.3400 457.0000 1.0000
61.3500 458.0000 1.0000
61.3600 467.0000 1.0000
61.3700 483.0000 1.0000
61.3800 515.0000 1.0000
61.3900 511.0000 1.0000
61.4000 526.0000 1.0000
61.4100 502.0000 1.0000
61.4200 520.0000 1.0000
61.4300 535.0000 1.0000
61.4400 586.0000 1.0000
61.4500 550.0000 1.0000
61.4600 612.0000 1.0000
61.4700 582.0000 1.0000
61.4800 593.0000 1.0000
61.4900 625.0000 1.0000
61.5000 674.0000 1.0000
61.5100 676.0000 1.0000
61.5200 642.0000 1.0000
61.5300 673.0000 1.0000
61.5400 651.0000 1.0000
61.5500 698.0000 1.0000
61.5600 682.0000 1.0000
61.5700 665.0000 1.0000
61.5800 649.0000 1.0000
61.5900 556.0000 1.0000
61.6000 636.0000 1.0000
61.6100 609.0000 1.0000
61.6200 672.0000 1.0000
61.6300 630.0000 1.0000
61.6400 635.0000 1.0000
61.6500 632.0000 1.0000
61.6600 645.0000 1.0000
61.6700 595.0000 1.0000
61.6800 602.0000 1.0000
61.6900 597.0000 1.0000
61.7000 572.0000 1.0000
61.7100 598.0000 1.0000
61.7200 613.0000 1.0000
61.7300 544.0000 1.0000
61.7400 545.0000 1.0000
61.7500 530.0000 1.0000
61.7600 561.0000 1.0000
61.7700 526.0000 1.0000
61.7800 519.0000 1.0000
61.7900 484.0000 1.0000
61.8000 492.0000 1.0000
61.8100 473.0000 1.0000
61.8200 492.0000 1.0000
61.8300 448.0000 1.0000
61.8400 469.0000 1.0000
61.8500 437.0000 1.0000
61.8600 426.0000 1.0000
61.8700 427.0000 1.0000
61.8800 436.0000 1.0000
61.8900 409.0000 1.0000
61.9000 423.0000 1.0000
61.9100 421.0000 1.0000
61.9200 414.0000 1.0000
61.9300 411.0000 1.0000
61.9400 415.0000 1.0000
61.9500 388.0000 1.0000
61.9600 381.0000 1.0000
61.9700 365.0000 1.0000
61.9800 383.0000 1.0000
61.9900 390.0000 1.0000
62.0000 419.0000 1.0000
62.0100 410.0000 1.0000
62.0200 407.0000 1.0000
62.0300 360.0000 1.0000
62.0400 373.0000 1.0000
62.0500 367.0000 1.0000
62.0600 368.0000 1.0000
62.0700 353.0000 1.0000
62.0800 344.0000 1.0000
62.0900 370.0000 1.0000
62.1000 330.0000 1.0000
62.1100 319.0000 1.0000
62.1200 342.0000 1.0000
62.1300 376.0000 1.0000
62.1400 344.0000 1.0000
62.1500 334.0000 1.0000
62.1600 344.0000 1.0000
62.1700 376.0000 1.0000
62.1800 346.0000 1.0000
62.1900 386.0000 1.0000
62.2000 360.0000 1.0000
62.2100 376.0000 1.0000
62.2200 329.0000 1.0000
62.2300 328.0000 1.0000
62.2400 354.0000 1.0000
62.2500 350.0000 1.0000
62.2600 381.0000 1.0000
62.2700 376.0000 1.0000
62.2800 357.0000 1.0000
62.2900 383.0000 1.0000
62.3000 389.0000 1.0000
62.3100 363.0000 1.0000
62.3200 384.0000 1.0000
62.3300 402.0000 1.0000
62.3400 395.0000 1.0000
62.3500 380.0000 1.0000
62.3600 382.0000 1.0000
62.3700 414.0000 1.0000
62.3800 411.0000 1.0000
62.3900 406.0000 1.0000
62.4000 377.0000 1.0000
62.4100 380.0000 1.0000
62.4200 375.0000 1.0000
62.4300 377.0000 1.0000
62.4400 414.0000 1.0000
62.4500 386.0000 1.0000
62.4600 372.0000 1.0000
62.4700 376.0000 1.0000
62.4800 400.0000 1.0000
62.4900 392.0000 1.0000
62.5000 383.0000 1.0000
62.5100 351.0000 1.0000
62.5200 351.0000 1.0000
62.5300 359.0000 1.0000
62.5400 367.0000 1.0000
62.5500 384.0000 1.0000
62.5600 352.0000 1.0000
62.5700 391.0000 1.0000
62.5800 376.0000 1.0000
62.5900 344.0000 1.0000
62.6000 339.0000 1.0000
62.6100 344.0000 1.0000
62.6200 338.0000 1.0000
62.6300 350.0000 1.0000
62.6400 319.0000 1.0000
62.6500 344.0000 1.0000
62.6600 350.0000 1.0000
62.6700 328.0000 1.0000
62.6800 344.0000 1.0000
62.6900 318.0000 1.0000
62.7000 349.0000 1.0000
62.7100 330.0000 1.0000
62.7200 330.0000 1.0000
62.7300 333.0000 1.0000
62.7400 314.0000 1.0000
62.7500 327.0000 1.0000
62.7600 318.0000 1.0000
62.7700 330.0000 1.0000
62.7800 322.0000 1.0000
62.7900 302.0000 1.0000
62.8000 337.0000 1.0000
62.8100 334.0000 1.0000
62.8200 327.0000 1.0000
62.8300 309.0000 1.0000
62.8400 319.0000 1.0000
62.8500 306.0000 1.0000
62.8600 332.0000 1.0000
62.8700 322.0000 1.0000
62.8800 308.0000 1.0000
62.8900 351.0000 1.0000
62.9000 317.0000 1.0000
62.9100 334.0000 1.0000
62.9200 320.0000 1.0000
62.9300 324.0000 1.0000
62.9400 306.0000 1.0000
62.9500 308.0000 1.0000
62.9600 323.0000 1.0000
62.9700 311.0000 1.0000
62.9800 321.0000 1.0000
62.9900 317.0000 1.0000
63.0000 342.0000 1.0000
63.0100 323.0000 1.0000
63.0200 325.0000 1.0000
63.0300 338.0000 1.0000
63.0400 312.0000 1.0000
63.0500 315.0000 1.0000
63.0600 317.0000 1.0000
63.0700 312.0000 1.0000
63.0800 314.0000 1.0000
63.0900 327.0000 1.0000
63.1000 323.0000 1.0000
63.1100 325.0000 1.0000
63.1200 315.0000 1.0000
63.1300 306.0000 1.0000
63.1400 329.0000 1.0000
63.1500 305.0000 1.0000
63.1600 314.0000 1.0000
63.1700 316.0000 1.0000
63.1800 329.0000 1.0000
63.1900 345.0000 1.0000
63.2000 367.0000 1.0000
63.2100 337.0000 1.0000
63.2200 311.0000 1.0000
63.2300 297.0000 1.0000
63.2400 316.0000 1.0000
63.2500 313.0000 1.0000
63.2600 298.0000 1.0000
63.2700 344.0000 1.0000
63.2800 338.0000 1.0000
63.2900 326.0000 1.0000
63.3000 330.0000 1.0000
63.3100 313.0000 1.0000
63.3200 329.0000 1.0000
63.3300 299.0000 1.0000
63.3400 339.0000 1.0000
63.3500 333.0000 1.0000
63.3600 315.0000 1.0000
63.3700 332.0000 1.0000
63.3800 303.0000 1.0000
63.3900 325.0000 1.0000
63.4000 337.0000 1.0000
63.4100 331.0000 1.0000
63.4200 317.0000 1.0000
63.4300 309.0000 1.0000
63.4400 328.0000 1.0000
63.4500 325.0000 1.0000
63.4600 343.0000 1.0000
63.4700 327.0000 1.0000
63.4800 363.0000 1.0000
63.4900 320.0000 1.0000
63.5000 329.0000 1.0000
63.5100 316.0000 1.0000
63.5200 310.0000 1.0000
63.5300 308.0000 1.0000
63.5400 312.0000 1.0000
63.5500 339.0000 1.0000
63.5600 313.0000 1.0000
63.5700 302.0000 1.0000
63.5800 354.0000 1.0000
63.5900 336.0000 1.0000
63.6000 361.0000 1.0000
63.6100 329.0000 1.0000
63.6200 340.0000 1.0000
63.6300 356.0000 1.0000
63.6400 328.0000 1.0000
63.6500 337.0000 1.0000
63.6600 337.0000 1.0000
63.6700 320.0000 1.0000
63.6800 349.0000 1.0000
63.6900 315.0000 1.0000
63.7000 368.0000 1.0000
63.7100 354.0000 1.0000
63.7200 342.0000 1.0000
63.7300 369.0000 1.0000
63.7400 343.0000 1.0000
63.7500 359.0000 1.0000
63.7600 383.0000 1.0000
63.7700 371.0000 1.0000
63.7800 355.0000 1.0000
63.7900 360.0000 1.0000
63.8000 383.0000 1.0000
63.8100 411.0000 1.0000
63.8200 392.0000 1.0000
63.8300 382.0000 1.0000
63.8400 369.0000 1.0000
63.8500 361.0000 1.0000
63.8600 385.0000 1.0000
63.8700 404.0000 1.0000
63.8800 473.0000 1.0000
63.8900 434.0000 1.0000
63.9000 455.0000 1.0000
63.9100 406.0000 1.0000
63.9200 424.0000 1.0000
63.9300 439.0000 1.0000
63.9400 457.0000 1.0000
63.9500 494.0000 1.0000
63.9600 461.0000 1.0000
63.9700 495.0000 1.0000
63.9800 445.0000 1.0000
63.9900 431.0000 1.0000
64.0000 446.0000 1.0000
64.0100 431.0000 1.0000
64.0200 434.0000 1.0000
64.0300 417.0000 1.0000
64.0400 424.0000 1.0000
64.0500 435.0000 1.0000
64.0600 402.0000 1.0000
64.0700 400.0000 1.0000
64.0800 424.0000 1.0000
64.0900 392.0000 1.0000
64.1000 422.0000 1.0000
64.1100 467.0000 1.0000
64.1200 421.0000 1.0000
64.1300 397.0000 1.0000
64.1400 393.0000 1.0000
64.1500 392.0000 1.0000
64.1600 373.0000 1.0000
64.1700 378.0000 1.0000
64.1800 349.0000 1.0000
64.1900 385.0000 1.0000
64.2000 344.0000 1.0000
64.2100 378.0000 1.0000
64.2200 344.0000 1.0000
64.2300 388.0000 1.0000
64.2400 372.0000 1.0000
64.2500 373.0000 1.0000
64.2600 358.0000 1.0000
64.2700 357.0000 1.0000
64.2800 357.0000 1.0000
64.2900 353.0000 1.0000
64.3000 327.0000 1.0000
64.3100 350.0000 1.0000
64.3200 363.0000 1.0000
64.3300 343.0000 1.0000
64.3400 335.0000 1.0000
64.3500 328.0000 1.0000
64.3600 341.0000 1.0000
64.3700 329.0000 1.0000
64.3800 333.0000 1.0000
64.3900 324.0000 1.0000
64.4000 308.0000 1.0000
64.4100 353.0000 1.0000
64.4200 345.0000 1.0000
64.4300 354.0000 1.0000
64.4400 366.0000 1.0000
64.4500 348.0000 1.0000
64.4600 320.0000 1.0000
64.4700 314.0000 1.0000
64.4800 323.0000 1.0000
64.4900 324.0000 1.0000
64.5000 347.0000 1.0000
64.5100 334.0000 1.0000
64.5200 346.0000 1.0000
64.5300 315.0000 1.0000
64.5400 327.0000 1.0000
64.5500 326.0000 1.0000
64.5600 377.0000 1.0000
64.5700 341.0000 1.0000
64.5800 339.0000 1.0000
64.5900 318.0000 1.0000
64.6000 331.0000 1.0000
64.6100 310.0000 1.0000
64.6200 342.0000 1.0000
64.6300 335.0000 1.0000
64.6400 324.0000 1.0000
64.6500 365.0000 1.0000
64.6600 314.0000 1.0000
64.6700 333.0000 1.0000
64.6800 335.0000 1.0000
64.6900 329.0000 1.0000
64.7000 335.0000 1.0000
64.7100 325.0000 1.0000
64.7200 322.0000 1.0000
64.7300 321.0000 1.0000
64.7400 348.0000 1.0000
64.7500 320.0000 1.0000
64.7600 325.0000 1.0000
64.7700 348.0000 1.0000
64.7800 347.0000 1.0000
64.7900 326.0000 1.0000
64.8000 293.0000 1.0000
64.8100 324.0000 1.0000
64.8200 318.0000 1.0000
64.8300 370.0000 1.0000
64.8400 337.0000 1.0000
64.8500 341.0000 1.0000
64.8600 330.0000 1.0000
64.8700 338.0000 1.0000
64.8800 357.0000 1.0000
64.8900 309.0000 1.0000
64.9000 336.0000 1.0000
64.9100 324.0000 1.0000
64.9200 342.0000 1.0000
64.9300 350.0000 1.0000
64.9400 331.0000 1.0000
64.9500 333.0000 1.0000
64.9600 323.0000 1.0000
64.9700 335.0000 1.0000
64.9800 342.0000 1.0000
64.9900 354.0000 1.0000
65.0000 352.0000 1.0000
65.0100 349.0000 1.0000
65.0200 359.0000 1.0000
65.0300 364.0000 1.0000
65.0400 381.0000 1.0000
65.0500 349.0000 1.0000
65.0600 370.0000 1.0000
65.0700 358.0000 1.0000
65.0800 361.0000 1.0000
65.0900 344.0000 1.0000
65.1000 361.0000 1.0000
65.1100 327.0000 1.0000
65.1200 346.0000 1.0000
65.1300 384.0000 1.0000
65.1400 378.0000 1.0000
65.1500 394.0000 1.0000
65.1600 394.0000 1.0000
65.1700 398.0000 1.0000
65.1800 391.0000 1.0000
65.1900 421.0000 1.0000
65.2000 397.0000 1.0000
65.2100 386.0000 1.0000
65.2200 392.0000 1.0000
65.2300 416.0000 1.0000
65.2400 434.0000 1.0000
65.2500 460.0000 1.0000
65.2600 458.0000 1.0000
65.2700 461.0000 1.0000
65.2800 459.0000 1.0000
65.2900 485.0000 1.0000
65.3000 530.0000 1.0000
65.3100 526.0000 1.0000
65.3200 532.0000 1.0000
65.3300 555.0000 1.0000
65.3400 541.0000 1.0000
65.3500 553.0000 1.0000
65.3600 592.0000 1.0000
65.3700 616.0000 1.0000
65.3800 608.0000 1.0000
65.3900 648.0000 1.0000
65.4000 713.0000 1.0000
65.4100 710.0000 1.0000
65.4200 707.0000 1.0000
65.4300 772.0000 1.0000
65.4400 819.0000 1.0000
65.4500 812.0000 1.0000
65.4600 880.0000 1.0000
65.4700 933.0000 1.0000
65.4800 908.0000 1.0000
65.4900 995.0000 1.0000
65.5000 992.0000 1.0000
65.5100 1023.0000 1.0000
65.5200 1067.0000 1.0000
65.5300 1074.0000 1.0000
65.5400 1067.0000 1.0000
65.5500 1118.0000 1.0000
65.5600 1035.0000 1.0000
65.5700 1026.0000 1.0000
65.5800 1072.0000 1.0000
65.5900 1136.0000 1.0000
65.6000 1071.0000 1.0000
65.6100 1023.0000 1.0000
65.6200 1012.0000 1.0000
65.6300 965.0000 1.0000
65.6400 972.0000 1.0000
65.6500 961.0000 1.0000
65.6600 957.0000 1.0000
65.6700 943.0000 1.0000
65.6800 905.0000 1.0000
65.6900 912.0000 1.0000
65.7000 843.0000 1.0000
65.7100 846.0000 1.0000
65.7200 786.0000 1.0000
65.7300 855.0000 1.0000
65.7400 782.0000 1.0000
65.7500 817.0000 1.0000
65.7600 777.0000 1.0000
65.7700 746.0000 1.0000
65.7800 734.0000 1.0000
65.7900 728.0000 1.0000
65.8000 716.0000 1.0000
65.8100 623.0000 1.0000
65.8200 589.0000 1.0000
65.8300 573.0000 1.0000
65.8400 588.0000 1.0000
65.8500 553.0000 1.0000
65.8600 549.0000 1.0000
65.8700 495.0000 1.0000
65.8800 478.0000 1.0000
65.8900 468.0000 1.0000
65.9000 440.0000 1.0000
65.9100 432.0000 1.0000
65.9200 468.0000 1.0000
65.9300 457.0000 1.0000
65.9400 459.0000 1.0000
65.9500 423.0000 1.0000
65.9600 404.0000 1.0000
65.9700 415.0000 1.0000
65.9800 409.0000 1.0000
65.9900 392.0000 1.0000
66.0000 354.0000 1.0000
66.0100 375.0000 1.0000
66.0200 389.0000 1.0000
66.0300 372.0000 1.0000
66.0400 361.0000 1.0000
66.0500 394.0000 1.0000
66.0600 388.0000 1.0000
66.0700 409.0000 1.0000
66.0800 415.0000 1.0000
66.0900 357.0000 1.0000
66.1000 381.0000 1.0000
66.1100 365.0000 1.0000
66.1200 348.0000 1.0000
66.1300 348.0000 1.0000
66.1400 346.0000 1.0000
66.1500 317.0000 1.0000
66.1600 315.0000 1.0000
66.1700 356.0000 1.0000
66.1800 332.0000 1.0000
66.1900 341.0000 1.0000
66.2000 352.0000 1.0000
66.2100 346.0000 1.0000
66.2200 340.0000 1.0000
66.2300 324.0000 1.0000
66.2400 305.0000 1.0000
66.2500 344.0000 1.0000
66.2600 300.0000 1.0000
66.2700 323.0000 1.0000
66.2800 322.0000 1.0000
66.2900 315.0000 1.0000
66.3000 317.0000 1.0000
66.3100 322.0000 1.0000
66.3200 312.0000 1.0000
66.3300 310.0000 1.0000
66.3400 345.0000 1.0000
66.3500 334.0000 1.0000
66.3600 304.0000 1.0000
66.3700 314.0000 1.0000
66.3800 294.0000 1.0000
66.3900 302.0000 1.0000
66.4000 332.0000 1.0000
66.4100 302.0000 1.0000
66.4200 291.0000 1.0000
66.4300 320.0000 1.0000
66.4400 312.0000 1.0000
66.4500 309.0000 1.0000
66.4600 342.0000 1.0000
66.4700 326.0000 1.0000
66.4800 301.0000 1.0000
66.4900 329.0000 1.0000
66.5000 306.0000 1.0000
66.5100 302.0000 1.0000
66.5200 294.0000 1.0000
66.5300 297.0000 1.0000
66.5400 286.0000 1.0000
66.5500 288.0000 1.0000
66.5600 301.0000 1.0000
66.5700 275.0000 1.0000
66.5800 308.0000 1.0000
66.5900 314.0000 1.0000
66.6000 320.0000 1.0000
66.6100 318.0000 1.0000
66.6200 328.0000 1.0000
66.6300 329.0000 1.0000
66.6400 301.0000 1.0000
66.6500 294.0000 1.0000
66.6600 318.0000 1.0000
66.6700 303.0000 1.0000
66.6800 293.0000 1.0000
66.6900 295.0000 1.0000
66.7000 310.0000 1.0000
66.7100 312.0000 1.0000
66.7200 293.0000 1.0000
66.7300 298.0000 1.0000
66.7400 289.0000 1.0000
66.7500 311.0000 1.0000
66.7600 307.0000 1.0000
66.7700 288.0000 1.0000
66.7800 291.0000 1.0000
66.7900 316.0000 1.0000
66.8000 321.0000 1.0000
66.8100 324.0000 1.0000
66.8200 283.0000 1.0000
66.8300 283.0000 1.0000
66.8400 296.0000 1.0000
66.8500 299.0000 1.0000
66.8600 327.0000 1.0000
66.8700 319.0000 1.0000
66.8800 315.0000 1.0000
66.8900 290.0000 1.0000
66.9000 314.0000 1.0000
66.9100 285.0000 1.0000
66.9200 312.0000 1.0000
66.9300 264.0000 1.0000
66.9400 301.0000 1.0000
66.9500 325.0000 1.0000
66.9600 315.0000 1.0000
66.9700 305.0000 1.0000
66.9800 292.0000 1.0000
66.9900 290.0000 1.0000
67.0000 284.0000 1.0000
67.0100 294.0000 1.0000
67.0200 289.0000 1.0000
67.0300 307.0000 1.0000
67.0400 295.0000 1.0000
67.0500 293.0000 1.0000
67.0600 323.0000 1.0000
67.0700 318.0000 1.0000
67.0800 292.0000 1.0000
67.0900 295.0000 1.0000
67.1000 302.0000 1.0000
67.1100 296.0000 1.0000
67.1200 312.0000 1.0000
67.1300 293.0000 1.0000
67.1400 315.0000 1.0000
67.1500 287.0000 1.0000
67.1600 289.0000 1.0000
67.1700 297.0000 1.0000
67.1800 292.0000 1.0000
67.1900 284.0000 1.0000
67.2000 302.0000 1.0000
67.2100 311.0000 1.0000
67.2200 276.0000 1.0000
67.2300 281.0000 1.0000
67.2400 307.0000 1.0000
67.2500 324.0000 1.0000
67.2600 286.0000 1.0000
67.2700 299.0000 1.0000
67.2800 280.0000 1.0000
67.2900 281.0000 1.0000
67.3000 290.0000 1.0000
67.3100 300.0000 1.0000
67.3200 296.0000 1.0000
67.3300 293.0000 1.0000
67.3400 274.0000 1.0000
67.3500 274.0000 1.0000
67.3600 280.0000 1.0000
67.3700 291.0000 1.0000
67.3800 271.0000 1.0000
67.3900 317.0000 1.0000
67.4000 310.0000 1.0000
67.4100 286.0000 1.0000
67.4200 295.0000 1.0000
67.4300 278.0000 1.0000
67.4400 284.0000 1.0000
67.4500 282.0000 1.0000
67.4600 271.0000 1.0000
67.4700 283.0000 1.0000
67.4800 293.0000 1.0000
67.4900 309.0000 1.0000
67.5000 305.0000 1.0000
67.5100 301.0000 1.0000
67.5200 297.0000 1.0000
67.5300 292.0000 1.0000
67.5400 283.0000 1.0000
67.5500 321.0000 1.0000
67.5600 270.0000 1.0000
67.5700 295.0000 1.0000
67.5800 260.0000 1.0000
67.5900 272.0000 1.0000
67.6000 297.0000 1.0000
67.6100 285.0000 1.0000
67.6200 287.0000 1.0000
67.6300 274.0000 1.0000
67.6400 282.0000 1.0000
67.6500 292.0000 1.0000
67.6600 276.0000 1.0000
67.6700 259.0000 1.0000
67.6800 275.0000 1.0000
67.6900 276.0000 1.0000
67.7000 266.0000 1.0000
67.7100 285.0000 1.0000
67.7200 268.0000 1.0000
67.7300 260.0000 1.0000
67.7400 279.0000 1.0000
67.7500 266.0000 1.0000
67.7600 259.0000 1.0000
67.7700 292.0000 1.0000
67.7800 264.0000 1.0000
67.7900 302.0000 1.0000
67.8000 307.0000 1.0000
67.8100 304.0000 1.0000
67.8200 305.0000 1.0000
67.8300 270.0000 1.0000
67.8400 266.0000 1.0000
67.8500 273.0000 1.0000
67.8600 292.0000 1.0000
67.8700 295.0000 1.0000
67.8800 309.0000 1.0000
67.8900 300.0000 1.0000
67.9000 289.0000 1.0000
67.9100 282.0000 1.0000
67.9200 273.0000 1.0000
67.9300 284.0000 1.0000
67.9400 297.0000 1.0000
67.9500 306.0000 1.0000
67.9600 302.0000 1.0000
67.9700 305.0000 1.0000
67.9800 285.0000 1.0000
67.9900 286.0000 1.0000
68.0000 269.0000 1.0000
68.0100 273.0000 1.0000
68.0200 286.0000 1.0000
68.0300 287.0000 1.0000
68.0400 311.0000 1.0000
68.0500 305.0000 1.0000
68.0600 317.0000 1.0000
68.0700 294.0000 1.0000
68.0800 313.0000 1.0000
68.0900 288.0000 1.0000
68.1000 294.0000 1.0000
68.1100 282.0000 1.0000
68.1200 276.0000 1.0000
68.1300 285.0000 1.0000
68.1400 295.0000 1.0000
68.1500 284.0000 1.0000
68.1600 278.0000 1.0000
68.1700 272.0000 1.0000
68.1800 293.0000 1.0000
68.1900 284.0000 1.0000
68.2000 284.0000 1.0000
68.2100 293.0000 1.0000
68.2200 299.0000 1.0000
68.2300 283.0000 1.0000
68.2400 265.0000 1.0000
68.2500 283.0000 1.0000
68.2600 270.0000 1.0000
68.2700 284.0000 1.0000
68.2800 280.0000 1.0000
68.2900 281.0000 1.0000
68.3000 271.0000 1.0000
68.3100 280.0000 1.0000
68.3200 294.0000 1.0000
68.3300 286.0000 1.0000
68.3400 282.0000 1.0000
68.3500 289.0000 1.0000
68.3600 255.0000 1.0000
68.3700 258.0000 1.0000
68.3800 290.0000 1.0000
68.3900 276.0000 1.0000
68.4000 278.0000 1.0000
68.4100 290.0000 1.0000
68.4200 287.0000 1.0000
68.4300 302.0000 1.0000
68.4400 297.0000 1.0000
68.4500 274.0000 1.0000
68.4600 288.0000 1.0000
68.4700 290.0000 1.0000
68.4800 311.0000 1.0000
68.4900 280.0000 1.0000
68.5000 299.0000 1.0000
68.5100 287.0000 1.0000
68.5200 286.0000 1.0000
68.5300 261.0000 1.0000
68.5400 286.0000 1.0000
68.5500 295.0000 1.0000
68.5600 286.0000 1.0000
68.5700 289.0000 1.0000
68.5800 307.0000 1.0000
68.5900 289.0000 1.0000
68.6000 278.0000 1.0000
68.6100 277.0000 1.0000
68.6200 276.0000 1.0000
68.6300 297.0000 1.0000
68.6400 256.0000 1.0000
68.6500 299.0000 1.0000
68.6600 273.0000 1.0000
68.6700 278.0000 1.0000
68.6800 270.0000 1.0000
68.6900 283.0000 1.0000
68.7000 297.0000 1.0000
68.7100 291.0000 1.0000
68.7200 327.0000 1.0000
68.7300 285.0000 1.0000
68.7400 247.0000 1.0000
68.7500 286.0000 1.0000
68.7600 312.0000 1.0000
68.7700 254.0000 1.0000
68.7800 280.0000 1.0000
68.7900 291.0000 1.0000
68.8000 279.0000 1.0000
68.8100 283.0000 1.0000
68.8200 298.0000 1.0000
68.8300 274.0000 1.0000
68.8400 277.0000 1.0000
68.8500 308.0000 1.0000
68.8600 302.0000 1.0000
68.8700 269.0000 1.0000
68.8800 294.0000 1.0000
68.8900 328.0000 1.0000
68.9000 297.0000 1.0000
68.9100 293.0000 1.0000
68.9200 287.0000 1.0000
68.9300 289.0000 1.0000
68.9400 292.0000 1.0000
68.9500 275.0000 1.0000
68.9600 276.0000 1.0000
68.9700 295.0000 1.0000
68.9800 286.0000 1.0000
68.9900 273.0000 1.0000
69.0000 289.0000 1.0000
69.0100 283.0000 1.0000
69.0200 286.0000 1.0000
69.0300 298.0000 1.0000
69.0400 321.0000 1.0000
69.0500 316.0000 1.0000
69.0600 273.0000 1.0000
69.0700 268.0000 1.0000
69.0800 264.0000 1.0000
69.0900 300.0000 1.0000
69.1000 298.0000 1.0000
69.1100 268.0000 1.0000
69.1200 293.0000 1.0000
69.1300 243.0000 1.0000
69.1400 274.0000 1.0000
69.1500 267.0000 1.0000
69.1600 293.0000 1.0000
69.1700 290.0000 1.0000
69.1800 293.0000 1.0000
69.1900 296.0000 1.0000
69.2000 294.0000 1.0000
69.2100 294.0000 1.0000
69.2200 263.0000 1.0000
69.2300 269.0000 1.0000
69.2400 270.0000 1.0000
69.2500 290.0000 1.0000
69.2600 246.0000 1.0000
69.2700 252.0000 1.0000
69.2800 268.0000 1.0000
69.2900 262.0000 1.0000
69.3000 287.0000 1.0000
69.3100 291.0000 1.0000
69.3200 292.0000 1.0000
69.3300 298.0000 1.0000
69.3400 278.0000 1.0000
69.3500 280.0000 1.0000
69.3600 280.0000 1.0000
69.3700 265.0000 1.0000
69.3800 269.0000 1.0000
69.3900 287.0000 1.0000
69.4000 278.0000 1.0000
69.4100 293.0000 1.0000
69.4200 270.0000 1.0000
69.4300 276.0000 1.0000
69.4400 293.0000 1.0000
69.4500 320.0000 1.0000
69.4600 271.0000 1.0000
69.4700 268.0000 1.0000
69.4800 284.0000 1.0000
69.4900 295.0000 1.0000
69.5000 306.0000 1.0000
69.5100 293.0000 1.0000
69.5200 297.0000 1.0000
69.5300 282.0000 1.0000
69.5400 279.0000 1.0000
69.5500 270.0000 1.0000
69.5600 273.0000 1.0000
69.5700 286.0000 1.0000
69.5800 283.0000 1.0000
69.5900 296.0000 1.0000
69.6000 286.0000 1.0000
69.6100 296.0000 1.0000
69.6200 293.0000 1.0000
69.6300 318.0000 1.0000
69.6400 274.0000 1.0000
69.6500 276.0000 1.0000
69.6600 273.0000 1.0000
69.6700 298.0000 1.0000
69.6800 281.0000 1.0000
69.6900 278.0000 1.0000
69.7000 278.0000 1.0000
69.7100 292.0000 1.0000
69.7200 273.0000 1.0000
69.7300 283.0000 1.0000
69.7400 270.0000 1.0000
69.7500 281.0000 1.0000
69.7600 302.0000 1.0000
69.7700 294.0000 1.0000
69.7800 260.0000 1.0000
69.7900 273.0000 1.0000
69.8000 289.0000 1.0000
69.8100 283.0000 1.0000
69.8200 266.0000 1.0000
69.8300 291.0000 1.0000
69.8400 274.0000 1.0000
69.8500 282.0000 1.0000
69.8600 306.0000 1.0000
69.8700 285.0000 1.0000
69.8800 299.0000 1.0000
69.8900 295.0000 1.0000
69.9000 283.0000 1.0000
69.9100 269.0000 1.0000
69.9200 283.0000 1.0000
69.9300 290.0000 1.0000
69.9400 275.0000 1.0000
69.9500 254.0000 1.0000
69.9600 290.0000 1.0000
69.9700 287.0000 1.0000
69.9800 278.0000 1.0000
69.9900 264.0000 1.0000
70.0000 263.0000 1.0000
*RAS_INT_END
*RAS_TEMPERATURE_START
*RAS_TEMPERATURE_END
*RAS_DATA_END
