*RAS_DATA_START
*RAS_HEADER_START
*DISP_FMT_X "%.2f"
*DISP_FMT_Y "%.0f"
*DISP_FULLSCALE "14292.0000000000"
*DISP_LINE_COLOR "255.0000000000"
*DISP_LINE_STYLE "0.0000000000"
*DISP_LINE_WIDTH "0.2500000000"
*DISP_NOTE "測定データ-5"
*DISP_OFFSET_Y "0.0000000000"
*DISP_PEAKSEARCH_UNIT_Y "cps"
*DISP_RANGE_BOTTOM "0.0000000000"
*DISP_RANGE_LEFT "20.0000000000"
*DISP_RANGE_LOGCUTOFF "0.0100000000"
*DISP_RANGE_RIGHT "70.0000000000"
*DISP_RANGE_TOP "14292.0000000000"
*DISP_SCALE_MODE_Y "0.0000000000"
*DISP_TAB_NAME "2θ/θ"
*DISP_TITLE_Y "強度"
*DISP_UNIT_Y "cps"
*DISP_WINDOW_NAME "MSG_MACROENGINE"
*FILE_COMMENT " "
*FILE_MD5 ""
*FILE_MEMO " "
*FILE_OPERATOR "Administrator"
*FILE_SAMPLE " "
*FILE_TYPE "RAS_RAW"
*FILE_USERGROUP "システムマネージャ"
*FILE_VERSION "1.0000000000"
*HW_ATTACHMENT_ID "ATT0025"
*HW_ATTACHMENT_NAME "標準|Standard"
*HW_COUNTER_ID-0 "CUT0025"
*HW_COUNTER_ID-1 "CUT0020"
*HW_COUNTER_ID-2 "CUT0020"
*HW_COUNTER_ID-3 "CSL0021"
*HW_COUNTER_ID-4 "CMC0021"
*HW_COUNTER_NAME-0 "D/teX Ultra|D/teX Ultra"
*HW_COUNTER_NAME-1 "None|None"
*HW_COUNTER_NAME-2 "None|None"
*HW_COUNTER_NAME-3 "BBM|BBM"
*HW_COUNTER_NAME-4 "検出器モノクロメータ|Detector monochromator"
*HW_COUNTER_SELECT_NAME "D/teX Ultra|D/teX Ultra"
*HW_GONIOMETER_ID "GON0023"
*HW_GONIOMETER_NAME "SmartLab|SmartLab"
*HW_GONIOMETER_RADIUS-0 "90.0"
*HW_GONIOMETER_RADIUS-1 "114.0"
*HW_GONIOMETER_RADIUS-2 "190.0"
*HW_GONIOMETER_RADIUS-3 "300.0"
*HW_GONIOMETER_RADIUS-4 "187.0"
*HW_GONIOMETER_RADIUS-5 "300.0"
*HW_GONIOMETER_RADIUS-6 "113.0"
*HW_GONIOMETER_RADIUS-7 "331.0"
*HW_I_OPT_ID-0 "CBO0021"
*HW_I_OPT_ID-1 "ICR0023"
*HW_I_OPT_ID-2 "ISL0021"
*HW_I_OPT_ID-3 "ISO0021"
*HW_I_OPT_ID-4 "IAD0021"
*HW_I_OPT_ID-5 "IPR0001"
*HW_I_OPT_NAME-0 "CBOユニット|CBO unit"
*HW_I_OPT_NAME-1 "標準入射光学ユニット|Standard incident optical unit"
*HW_I_OPT_NAME-2 "標準入射スリットボックス|Standard incident slit box"
*HW_I_OPT_NAME-3 "入射平行スリット|Incident parallel slit"
*HW_I_OPT_NAME-4 "長手制限スリット|Length limiting slit"
*HW_I_OPT_NAME-5 "None|None"
*HW_R_ATTENUATER_AUTOMODE "0"
*HW_R_OPT_ID-0 "RSS0021"
*HW_R_OPT_ID-1 "RCR0023"
*HW_R_OPT_ID-2 "RSO0021"
*HW_R_OPT_ID-3 "RRS0021"
*HW_R_OPT_ID-4 "ATN0021"
*HW_R_OPT_ID-5 "RFL0021"
*HW_R_OPT_ID-6 "RAD0021"
*HW_R_OPT_NAME-0 "標準受光スリットボックス1|Standard receiving slit box # 1"
*HW_R_OPT_NAME-1 "標準受光光学ユニット1|Standard receiving unit # 1"
*HW_R_OPT_NAME-2 "標準受光光学ユニット2|Standard receiving optical unit # 2"
*HW_R_OPT_NAME-3 "標準受光スリットボックス2|Standard receiving slit box # 2"
*HW_R_OPT_NAME-4 "標準アッテネータ|Standard Attenuator"
*HW_R_OPT_NAME-5 "Cu Kβ|Cu K-beta"
*HW_R_OPT_NAME-6 "調整用受光スリット|Alignment receiving slit"
*HW_SAMPLE_HOLDER_ID "SMP0023"
*HW_SAMPLE_HOLDER_NAME "標準Zステージ|Standard Z stage"
*HW_XG_CURRENT_MAX "50"
*HW_XG_CURRENT_MIN "2"
*HW_XG_CURRENT_RESOLUTION "1"
*HW_XG_CURRENT_UNIT "mA"
*HW_XG_FOCUS "1mm x 10mm"
*HW_XG_FOCUS_TYPE "Normal"
*HW_XG_ID ""
*HW_XG_NAME "3kW 封入管(ID:1200)|3kW Sealed tube(ID:1200)"
*HW_XG_TARGET_ATOMIC_NUMBER "29.0000000000"
*HW_XG_TARGET_NAME "Cu"
*HW_XG_TYPE "Hermetic"
*HW_XG_VOLTAGE_MAX "60"
*HW_XG_VOLTAGE_MIN "20"
*HW_XG_VOLTAGE_RESOLUTION "1"
*HW_XG_VOLTAGE_UNIT "kV"
*HW_XG_WATT_MAX "1.500"
*HW_XG_WATT_UNIT "kW"
*HW_XG_WAVE_LENGTH_ALPHA1 "1.540593"
*HW_XG_WAVE_LENGTH_ALPHA2 "1.544414"
*HW_XG_WAVE_LENGTH_BETA "1.392250"
*MEAS_COND_AXIS_NAME-0 "2θ/θ"
*MEAS_COND_AXIS_NAME-1 "2θ"
*MEAS_COND_AXIS_NAME-2 "ω"
*MEAS_COND_AXIS_NAME-3 "Z"
*MEAS_COND_AXIS_NAME-4 "2θ/ω"
*MEAS_COND_AXIS_NAME-5 "θs"
*MEAS_COND_AXIS_NAME-6 "θd"
*MEAS_COND_AXIS_NAME-7 "Ts"
*MEAS_COND_AXIS_NAME-8 "CBO選択スリット"
*MEAS_COND_AXIS_NAME-9 "M"
*MEAS_COND_AXIS_NAME-10 "入射平行スリット"
*MEAS_COND_AXIS_NAME-11 "入射スリット"
*MEAS_COND_AXIS_NAME-12 ""
*MEAS_COND_AXIS_NAME-13 "Zs"
*MEAS_COND_AXIS_NAME-14 "入射光学素子"
*MEAS_COND_AXIS_NAME-15 "長手制限スリット"
*MEAS_COND_AXIS_NAME-16 "センタースリット"
*MEAS_COND_AXIS_NAME-17 "フィルター"
*MEAS_COND_AXIS_NAME-18 "受光スリット1"
*MEAS_COND_AXIS_NAME-19 "受光スリット2"
*MEAS_COND_AXIS_NAME-20 "受光光学素子"
*MEAS_COND_AXIS_NAME-21 "受光平行スリット"
*MEAS_COND_AXIS_NAME-22 "調整用受光スリット"
*MEAS_COND_AXIS_NAME-23 ""
*MEAS_COND_AXIS_NAME-24 ""
*MEAS_COND_AXIS_NAME-25 "Zd"
*MEAS_COND_AXIS_NAME-26 "アッテネータ"
*MEAS_COND_AXIS_NAME-27 "検出器モノクロメータ"
*MEAS_COND_AXIS_NAME-28 "モノクロメータスリット"
*MEAS_COND_AXIS_NAME-29 "プライマリビーム"
*MEAS_COND_AXIS_NAME-30 "PHA"
*MEAS_COND_AXIS_NAME_INTERNAL-0 "TwoThetaTheta"
*MEAS_COND_AXIS_NAME_INTERNAL-1 "TwoTheta"
*MEAS_COND_AXIS_NAME_INTERNAL-2 "Omega"
*MEAS_COND_AXIS_NAME_INTERNAL-3 "Z"
*MEAS_COND_AXIS_NAME_INTERNAL-4 "TwoThetaOmega"
*MEAS_COND_AXIS_NAME_INTERNAL-5 "ThetaS"
*MEAS_COND_AXIS_NAME_INTERNAL-6 "ThetaD"
*MEAS_COND_AXIS_NAME_INTERNAL-7 "Ts"
*MEAS_COND_AXIS_NAME_INTERNAL-8 "CBO"
*MEAS_COND_AXIS_NAME_INTERNAL-9 "CBO-M"
*MEAS_COND_AXIS_NAME_INTERNAL-10 "IncidentSollerSlit"
*MEAS_COND_AXIS_NAME_INTERNAL-11 "IncidentSlitBox"
*MEAS_COND_AXIS_NAME_INTERNAL-12 "IncidentSlitBox-_Axis"
*MEAS_COND_AXIS_NAME_INTERNAL-13 "Zs"
*MEAS_COND_AXIS_NAME_INTERNAL-14 "IncidentMonochromator"
*MEAS_COND_AXIS_NAME_INTERNAL-15 "IncidentAxdSlit"
*MEAS_COND_AXIS_NAME_INTERNAL-16 "CenterSlit"
*MEAS_COND_AXIS_NAME_INTERNAL-17 "Filter"
*MEAS_COND_AXIS_NAME_INTERNAL-18 "ReceivingSlitBox1"
*MEAS_COND_AXIS_NAME_INTERNAL-19 "ReceivingSlitBox2"
*MEAS_COND_AXIS_NAME_INTERNAL-20 "ReceivingOptics"
*MEAS_COND_AXIS_NAME_INTERNAL-21 "ReceivingSollerSlit"
*MEAS_COND_AXIS_NAME_INTERNAL-22 "ReceivingAxdSlit"
*MEAS_COND_AXIS_NAME_INTERNAL-23 "ReceivingSlitBox1-_Axis"
*MEAS_COND_AXIS_NAME_INTERNAL-24 "ReceivingSlitBox2-_Axis"
*MEAS_COND_AXIS_NAME_INTERNAL-25 "ReceivingSlitBox2-Zd"
*MEAS_COND_AXIS_NAME_INTERNAL-26 "Attenuator"
*MEAS_COND_AXIS_NAME_INTERNAL-27 "CounterMonochromator"
*MEAS_COND_AXIS_NAME_INTERNAL-28 "CounterSlit"
*MEAS_COND_AXIS_NAME_INTERNAL-29 "IncidentPrimary"
*MEAS_COND_AXIS_NAME_INTERNAL-30 "PHA"
*MEAS_COND_AXIS_NAME_MAGICNO-0 "83951616.0000000000"
*MEAS_COND_AXIS_NAME_MAGICNO-1 "268632064.0000000000"
*MEAS_COND_AXIS_NAME_MAGICNO-2 "268500992.0000000000"
*MEAS_COND_AXIS_NAME_MAGICNO-3 "285278208.0000000000"
*MEAS_COND_AXIS_NAME_MAGICNO-4 "83951616.0000000000"
*MEAS_COND_AXIS_NAME_MAGICNO-5 "131072.0000000000"
*MEAS_COND_AXIS_NAME_MAGICNO-6 "131072.0000000000"
*MEAS_COND_AXIS_NAME_MAGICNO-7 "318898176.0000000000"
*MEAS_COND_AXIS_NAME_MAGICNO-8 "20971521.0000000000"
*MEAS_COND_AXIS_NAME_MAGICNO-9 "285343744.0000000000"
*MEAS_COND_AXIS_NAME_MAGICNO-10 "20971521.0000000000"
*MEAS_COND_AXIS_NAME_MAGICNO-11 "22020097.0000000000"
*MEAS_COND_AXIS_NAME_MAGICNO-12 "25165824.0000000000"
*MEAS_COND_AXIS_NAME_MAGICNO-13 "318898176.0000000000"
*MEAS_COND_AXIS_NAME_MAGICNO-14 "1.0000000000"
*MEAS_COND_AXIS_NAME_MAGICNO-15 "20971521.0000000000"
*MEAS_COND_AXIS_NAME_MAGICNO-16 "20971521.0000000000"
*MEAS_COND_AXIS_NAME_MAGICNO-17 "20971521.0000000000"
*MEAS_COND_AXIS_NAME_MAGICNO-18 "23068673.0000000000"
*MEAS_COND_AXIS_NAME_MAGICNO-19 "23068673.0000000000"
*MEAS_COND_AXIS_NAME_MAGICNO-20 "20971521.0000000000"
*MEAS_COND_AXIS_NAME_MAGICNO-21 "20971521.0000000000"
*MEAS_COND_AXIS_NAME_MAGICNO-22 "20971521.0000000000"
*MEAS_COND_AXIS_NAME_MAGICNO-23 "25165824.0000000000"
*MEAS_COND_AXIS_NAME_MAGICNO-24 "25165824.0000000000"
*MEAS_COND_AXIS_NAME_MAGICNO-25 "285343744.0000000000"
*MEAS_COND_AXIS_NAME_MAGICNO-26 "17301505.0000000000"
*MEAS_COND_AXIS_NAME_MAGICNO-27 "20971521.0000000000"
*MEAS_COND_AXIS_NAME_MAGICNO-28 "20971521.0000000000"
*MEAS_COND_AXIS_NAME_MAGICNO-29 "20971521.0000000000"
*MEAS_COND_AXIS_NAME_MAGICNO-30 "0.0000000000"
*MEAS_COND_AXIS_OFFSET-0 "-"
*MEAS_COND_AXIS_OFFSET-1 "-0.1081000000"
*MEAS_COND_AXIS_OFFSET-2 "0.3758000000"
*MEAS_COND_AXIS_OFFSET-3 "-"
*MEAS_COND_AXIS_OFFSET-4 "-"
*MEAS_COND_AXIS_OFFSET-5 "0.3758000000"
*MEAS_COND_AXIS_OFFSET-6 "-0.4839000000"
*MEAS_COND_AXIS_OFFSET-7 "-"
*MEAS_COND_AXIS_OFFSET-8 "-"
*MEAS_COND_AXIS_OFFSET-9 "-"
*MEAS_COND_AXIS_OFFSET-10 "-"
*MEAS_COND_AXIS_OFFSET-11 "-"
*MEAS_COND_AXIS_OFFSET-12 "-"
*MEAS_COND_AXIS_OFFSET-13 "-"
*MEAS_COND_AXIS_OFFSET-14 "-"
*MEAS_COND_AXIS_OFFSET-15 "-"
*MEAS_COND_AXIS_OFFSET-16 "-"
*MEAS_COND_AXIS_OFFSET-17 "-"
*MEAS_COND_AXIS_OFFSET-18 "-"
*MEAS_COND_AXIS_OFFSET-19 "-"
*MEAS_COND_AXIS_OFFSET-20 "-"
*MEAS_COND_AXIS_OFFSET-21 "-"
*MEAS_COND_AXIS_OFFSET-22 "-"
*MEAS_COND_AXIS_OFFSET-23 "-"
*MEAS_COND_AXIS_OFFSET-24 "-"
*MEAS_COND_AXIS_OFFSET-25 "-"
*MEAS_COND_AXIS_OFFSET-26 "-"
*MEAS_COND_AXIS_OFFSET-27 "-"
*MEAS_COND_AXIS_OFFSET-28 "-"
*MEAS_COND_AXIS_OFFSET-29 "-"
*MEAS_COND_AXIS_OFFSET-30 "-"
*MEAS_COND_AXIS_POSITION-0 "0.0000000000"
*MEAS_COND_AXIS_POSITION-1 "0.0000000000"
*MEAS_COND_AXIS_POSITION-2 "0.0000000000"
*MEAS_COND_AXIS_POSITION-3 "-0.5500000000"
*MEAS_COND_AXIS_POSITION-4 "0.0000000000"
*MEAS_COND_AXIS_POSITION-5 "0.0000000000"
*MEAS_COND_AXIS_POSITION-6 "0.0000000000"
*MEAS_COND_AXIS_POSITION-7 "-0.4278800000"
*MEAS_COND_AXIS_POSITION-8 "BB"
*MEAS_COND_AXIS_POSITION-9 "0.0000000000"
*MEAS_COND_AXIS_POSITION-10 "Soller_slit_5.0deg"
*MEAS_COND_AXIS_POSITION-11 "2/3deg"
*MEAS_COND_AXIS_POSITION-12 "2.2088000000"
*MEAS_COND_AXIS_POSITION-13 "-0.4140600000"
*MEAS_COND_AXIS_POSITION-14 "0.0000000000"
*MEAS_COND_AXIS_POSITION-15 "10.0mm"
*MEAS_COND_AXIS_POSITION-16 "None"
*MEAS_COND_AXIS_POSITION-17 "Cu_K-beta"
*MEAS_COND_AXIS_POSITION-18 "13.000mm"
*MEAS_COND_AXIS_POSITION-19 "13.000mm"
*MEAS_COND_AXIS_POSITION-20 "No_unit"
*MEAS_COND_AXIS_POSITION-21 "Soller_slit_5.0deg"
*MEAS_COND_AXIS_POSITION-22 "None"
*MEAS_COND_AXIS_POSITION-23 "13.0000000000"
*MEAS_COND_AXIS_POSITION-24 "13.0000000000"
*MEAS_COND_AXIS_POSITION-25 "0.0109400000"
*MEAS_COND_AXIS_POSITION-26 "Open"
*MEAS_COND_AXIS_POSITION-27 "None"
*MEAS_COND_AXIS_POSITION-28 "None"
*MEAS_COND_AXIS_POSITION-29 "None"
*MEAS_COND_AXIS_POSITION-30 "38.0000000000"
*MEAS_COND_AXIS_UNIT-0 "deg"
*MEAS_COND_AXIS_UNIT-1 "deg"
*MEAS_COND_AXIS_UNIT-2 "deg"
*MEAS_COND_AXIS_UNIT-3 "mm"
*MEAS_COND_AXIS_UNIT-4 "deg"
*MEAS_COND_AXIS_UNIT-5 "deg"
*MEAS_COND_AXIS_UNIT-6 "deg"
*MEAS_COND_AXIS_UNIT-7 "mm"
*MEAS_COND_AXIS_UNIT-8 ""
*MEAS_COND_AXIS_UNIT-9 "pulse"
*MEAS_COND_AXIS_UNIT-10 ""
*MEAS_COND_AXIS_UNIT-11 ""
*MEAS_COND_AXIS_UNIT-12 "mm"
*MEAS_COND_AXIS_UNIT-13 "mm"
*MEAS_COND_AXIS_UNIT-14 ""
*MEAS_COND_AXIS_UNIT-15 ""
*MEAS_COND_AXIS_UNIT-16 ""
*MEAS_COND_AXIS_UNIT-17 ""
*MEAS_COND_AXIS_UNIT-18 ""
*MEAS_COND_AXIS_UNIT-19 ""
*MEAS_COND_AXIS_UNIT-20 ""
*MEAS_COND_AXIS_UNIT-21 ""
*MEAS_COND_AXIS_UNIT-22 ""
*MEAS_COND_AXIS_UNIT-23 "mm"
*MEAS_COND_AXIS_UNIT-24 "mm"
*MEAS_COND_AXIS_UNIT-25 "mm"
*MEAS_COND_AXIS_UNIT-26 ""
*MEAS_COND_AXIS_UNIT-27 ""
*MEAS_COND_AXIS_UNIT-28 ""
*MEAS_COND_AXIS_UNIT-29 ""
*MEAS_COND_AXIS_UNIT-30 "div"
*MEAS_COND_COUNTER_CNTLOSS_CORR "0.0000000000"
*MEAS_COND_COUNTER_PHABASE "38.0000000000"
*MEAS_COND_COUNTER_PHAWINDOW "16.0000000000"
*MEAS_COND_COUNTER_PHA_UNIT "div"
*MEAS_COND_COUNTER_TAUDIFF "30.0000000000"
*MEAS_COND_COUNTER_TAUINT "0.0000000000"
*MEAS_COND_IRRADIATION_MODE "OFF"
*MEAS_COND_IRRADIATION_WIDTH ""
*MEAS_COND_OPT_ATTR "集中法"
*MEAS_COND_OPT_NAME "@集中法"
*MEAS_COND_UNSYMMETRIC_MODE "OFF"
*MEAS_COND_XG_CURRENT "30.0000000000"
*MEAS_COND_XG_VOLTAGE "40.0000000000"
*MEAS_COND_XG_WAVE_TYPE "Ka"
*MEAS_DATA_COUNT "5001.0000000000"
*MEAS_SCAN_AXIS_X "2θ/θ"
*MEAS_SCAN_AXIS_X_INTERNAL "TwoThetaTheta"
*MEAS_SCAN_END_TIME "06/30/21 16:13:01"
*MEAS_SCAN_MODE "CONTINUOUS"
*MEAS_SCAN_MONITOR "0"
*MEAS_SCAN_RESOLUTION_X "0.0002"
*MEAS_SCAN_SPEED "1.0"
*MEAS_SCAN_SPEED_UNIT "deg/min"
*MEAS_SCAN_START "20.0000000000"
*MEAS_SCAN_START_TIME "06/30/21 15:20:07"
*MEAS_SCAN_STEP "0.0100000000"
*MEAS_SCAN_STOP "70.0000000000"
*MEAS_SCAN_UNIT_X "deg"
*MEAS_SCAN_UNIT_Y "counts"
*RAS_HEADER_END
*RAS_INT_START
20.0000 1580.0000 1.0000
20.0100 1529.0000 1.0000
20.0200 1487.0000 1.0000
20.0300 1508.0000 1.0000
20.0400 1571.0000 1.0000
20.0500 1607.0000 1.0000
20.0600 1546.0000 1.0000
20.0700 1562.0000 1.0000
20.0800 1587.0000 1.0000
20.0900 1625.0000 1.0000
20.1000 1592.0000 1.0000
20.1100 1570.0000 1.0000
20.1200 1517.0000 1.0000
20.1300 1518.0000 1.0000
20.1400 1553.0000 1.0000
20.1500 1577.0000 1.0000
20.1600 1584.0000 1.0000
20.1700 1523.0000 1.0000
20.1800 1490.0000 1.0000
20.1900 1510.0000 1.0000
20.2000 1574.0000 1.0000
20.2100 1525.0000 1.0000
20.2200 1537.0000 1.0000
20.2300 1568.0000 1.0000
20.2400 1525.0000 1.0000
20.2500 1479.0000 1.0000
20.2600 1541.0000 1.0000
20.2700 1558.0000 1.0000
20.2800 1582.0000 1.0000
20.2900 1567.0000 1.0000
20.3000 1555.0000 1.0000
20.3100 1577.0000 1.0000
20.3200 1545.0000 1.0000
20.3300 1507.0000 1.0000
20.3400 1515.0000 1.0000
20.3500 1601.0000 1.0000
20.3600 1511.0000 1.0000
20.3700 1539.0000 1.0000
20.3800 1497.0000 1.0000
20.3900 1560.0000 1.0000
20.4000 1492.0000 1.0000
20.4100 1544.0000 1.0000
20.4200 1575.0000 1.0000
20.4300 1546.0000 1.0000
20.4400 1526.0000 1.0000
20.4500 1585.0000 1.0000
20.4600 1561.0000 1.0000
20.4700 1553.0000 1.0000
20.4800 1482.0000 1.0000
20.4900 1530.0000 1.0000
20.5000 1527.0000 1.0000
20.5100 1552.0000 1.0000
20.5200 1532.0000 1.0000
20.5300 1565.0000 1.0000
20.5400 1481.0000 1.0000
20.5500 1531.0000 1.0000
20.5600 1519.0000 1.0000
20.5700 1544.0000 1.0000
20.5800 1559.0000 1.0000
20.5900 1544.0000 1.0000
20.6000 1552.0000 1.0000
20.6100 1530.0000 1.0000
20.6200 1499.0000 1.0000
20.6300 1516.0000 1.0000
20.6400 1505.0000 1.0000
20.6500 1503.0000 1.0000
20.6600 1541.0000 1.0000
20.6700 1561.0000 1.0000
20.6800 1540.0000 1.0000
20.6900 1588.0000 1.0000
20.7000 1548.0000 1.0000
20.7100 1545.0000 1.0000
20.7200 1542.0000 1.0000
20.7300 1612.0000 1.0000
20.7400 1558.0000 1.0000
20.7500 1577.0000 1.0000
20.7600 1518.0000 1.0000
20.7700 1505.0000 1.0000
20.7800 1526.0000 1.0000
20.7900 1561.0000 1.0000
20.8000 1546.0000 1.0000
20.8100 1557.0000 1.0000
20.8200 1514.0000 1.0000
20.8300 1533.0000 1.0000
20.8400 1502.0000 1.0000
20.8500 1582.0000 1.0000
20.8600 1518.0000 1.0000
20.8700 1519.0000 1.0000
20.8800 1497.0000 1.0000
20.8900 1557.0000 1.0000
20.9000 1529.0000 1.0000
20.9100 1512.0000 1.0000
20.9200 1568.0000 1.0000
20.9300 1558.0000 1.0000
20.9400 1570.0000 1.0000
20.9500 1550.0000 1.0000
20.9600 1525.0000 1.0000
20.9700 1566.0000 1.0000
20.9800 1581.0000 1.0000
20.9900 1533.0000 1.0000
21.0000 1538.0000 1.0000
21.0100 1498.0000 1.0000
21.0200 1575.0000 1.0000
21.0300 1578.0000 1.0000
21.0400 1498.0000 1.0000
21.0500 1504.0000 1.0000
21.0600 1479.0000 1.0000
21.0700 1529.0000 1.0000
21.0800 1593.0000 1.0000
21.0900 1545.0000 1.0000
21.1000 1571.0000 1.0000
21.1100 1562.0000 1.0000
21.1200 1615.0000 1.0000
21.1300 1551.0000 1.0000
21.1400 1505.0000 1.0000
21.1500 1582.0000 1.0000
21.1600 1528.0000 1.0000
21.1700 1512.0000 1.0000
21.1800 1509.0000 1.0000
21.1900 1473.0000 1.0000
21.2000 1488.0000 1.0000
21.2100 1512.0000 1.0000
21.2200 1582.0000 1.0000
21.2300 1596.0000 1.0000
21.2400 1536.0000 1.0000
21.2500 1587.0000 1.0000
21.2600 1574.0000 1.0000
21.2700 1522.0000 1.0000
21.2800 1519.0000 1.0000
21.2900 1635.0000 1.0000
21.3000 1586.0000 1.0000
21.3100 1551.0000 1.0000
21.3200 1505.0000 1.0000
21.3300 1548.0000 1.0000
21.3400 1549.0000 1.0000
21.3500 1571.0000 1.0000
21.3600 1512.0000 1.0000
21.3700 1492.0000 1.0000
21.3800 1523.0000 1.0000
21.3900 1559.0000 1.0000
21.4000 1559.0000 1.0000
21.4100 1628.0000 1.0000
21.4200 1564.0000 1.0000
21.4300 1556.0000 1.0000
21.4400 1642.0000 1.0000
21.4500 1628.0000 1.0000
21.4600 1626.0000 1.0000
21.4700 1564.0000 1.0000
21.4800 1582.0000 1.0000
21.4900 1560.0000 1.0000
21.5000 1506.0000 1.0000
21.5100 1589.0000 1.0000
21.5200 1555.0000 1.0000
21.5300 1530.0000 1.0000
21.5400 1585.0000 1.0000
21.5500 1604.0000 1.0000
21.5600 1557.0000 1.0000
21.5700 1563.0000 1.0000
21.5800 1570.0000 1.0000
21.5900 1538.0000 1.0000
21.6000 1533.0000 1.0000
21.6100 1497.0000 1.0000
21.6200 1525.0000 1.0000
21.6300 1579.0000 1.0000
21.6400 1591.0000 1.0000
21.6500 1588.0000 1.0000
21.6600 1504.0000 1.0000
21.6700 1570.0000 1.0000
21.6800 1480.0000 1.0000
21.6900 1530.0000 1.0000
21.7000 1576.0000 1.0000
21.7100 1488.0000 1.0000
21.7200 1551.0000 1.0000
21.7300 1525.0000 1.0000
21.7400 1569.0000 1.0000
21.7500 1569.0000 1.0000
21.7600 1497.0000 1.0000
21.7700 1581.0000 1.0000
21.7800 1504.0000 1.0000
21.7900 1563.0000 1.0000
21.8000 1552.0000 1.0000
21.8100 1572.0000 1.0000
21.8200 1540.0000 1.0000
21.8300 1553.0000 1.0000
21.8400 1557.0000 1.0000
21.8500 1562.0000 1.0000
21.8600 1587.0000 1.0000
21.8700 1612.0000 1.0000
21.8800 1570.0000 1.0000
21.8900 1505.0000 1.0000
21.9000 1605.0000 1.0000
21.9100 1523.0000 1.0000
21.9200 1519.0000 1.0000
21.9300 1557.0000 1.0000
21.9400 1519.0000 1.0000
21.9500 1555.0000 1.0000
21.9600 1507.0000 1.0000
21.9700 1519.0000 1.0000
21.9800 1527.0000 1.0000
21.9900 1563.0000 1.0000
22.0000 1602.0000 1.0000
22.0100 1555.0000 1.0000
22.0200 1523.0000 1.0000
22.0300 1541.0000 1.0000
22.0400 1556.0000 1.0000
22.0500 1586.0000 1.0000
22.0600 1520.0000 1.0000
22.0700 1541.0000 1.0000
22.0800 1554.0000 1.0000
22.0900 1576.0000 1.0000
22.1000 1564.0000 1.0000
22.1100 1546.0000 1.0000
22.1200 1547.0000 1.0000
22.1300 1554.0000 1.0000
22.1400 1552.0000 1.0000
22.1500 1529.0000 1.0000
22.1600 1500.0000 1.0000
22.1700 1487.0000 1.0000
22.1800 1584.0000 1.0000
22.1900 1553.0000 1.0000
22.2000 1617.0000 1.0000
22.2100 1526.0000 1.0000
22.2200 1536.0000 1.0000
22.2300 1544.0000 1.0000
22.2400 1592.0000 1.0000
22.2500 1591.0000 1.0000
22.2600 1594.0000 1.0000
22.2700 1554.0000 1.0000
22.2800 1513.0000 1.0000
22.2900 1553.0000 1.0000
22.3000 1566.0000 1.0000
22.3100 1592.0000 1.0000
22.3200 1590.0000 1.0000
22.3300 1624.0000 1.0000
22.3400 1586.0000 1.0000
22.3500 1578.0000 1.0000
22.3600 1629.0000 1.0000
22.3700 1627.0000 1.0000
22.3800 1581.0000 1.0000
22.3900 1568.0000 1.0000
22.4000 1565.0000 1.0000
22.4100 1571.0000 1.0000
22.4200 1570.0000 1.0000
22.4300 1558.0000 1.0000
22.4400 1591.0000 1.0000
22.4500 1558.0000 1.0000
22.4600 1567.0000 1.0000
22.4700 1550.0000 1.0000
22.4800 1521.0000 1.0000
22.4900 1547.0000 1.0000
22.5000 1507.0000 1.0000
22.5100 1551.0000 1.0000
22.5200 1576.0000 1.0000
22.5300 1541.0000 1.0000
22.5400 1577.0000 1.0000
22.5500 1566.0000 1.0000
22.5600 1528.0000 1.0000
22.5700 1610.0000 1.0000
22.5800 1576.0000 1.0000
22.5900 1543.0000 1.0000
22.6000 1510.0000 1.0000
22.6100 1568.0000 1.0000
22.6200 1499.0000 1.0000
22.6300 1614.0000 1.0000
22.6400 1574.0000 1.0000
22.6500 1630.0000 1.0000
22.6600 1527.0000 1.0000
22.6700 1615.0000 1.0000
22.6800 1612.0000 1.0000
22.6900 1550.0000 1.0000
22.7000 1573.0000 1.0000
22.7100 1588.0000 1.0000
22.7200 1579.0000 1.0000
22.7300 1554.0000 1.0000
22.7400 1536.0000 1.0000
22.7500 1634.0000 1.0000
22.7600 1666.0000 1.0000
22.7700 1607.0000 1.0000
22.7800 1604.0000 1.0000
22.7900 1593.0000 1.0000
22.8000 1569.0000 1.0000
22.8100 1569.0000 1.0000
22.8200 1585.0000 1.0000
22.8300 1576.0000 1.0000
22.8400 1569.0000 1.0000
22.8500 1594.0000 1.0000
22.8600 1539.0000 1.0000
22.8700 1587.0000 1.0000
22.8800 1596.0000 1.0000
22.8900 1589.0000 1.0000
22.9000 1584.0000 1.0000
22.9100 1625.0000 1.0000
22.9200 1612.0000 1.0000
22.9300 1566.0000 1.0000
22.9400 1550.0000 1.0000
22.9500 1542.0000 1.0000
22.9600 1489.0000 1.0000
22.9700 1568.0000 1.0000
22.9800 1551.0000 1.0000
22.9900 1563.0000 1.0000
23.0000 1595.0000 1.0000
23.0100 1594.0000 1.0000
23.0200 1530.0000 1.0000
23.0300 1526.0000 1.0000
23.0400 1543.0000 1.0000
23.0500 1597.0000 1.0000
23.0600 1593.0000 1.0000
23.0700 1581.0000 1.0000
23.0800 1556.0000 1.0000
23.0900 1558.0000 1.0000
23.1000 1576.0000 1.0000
23.1100 1609.0000 1.0000
23.1200 1549.0000 1.0000
23.1300 1602.0000 1.0000
23.1400 1594.0000 1.0000
23.1500 1593.0000 1.0000
23.1600 1607.0000 1.0000
23.1700 1621.0000 1.0000
23.1800 1604.0000 1.0000
23.1900 1573.0000 1.0000
23.2000 1548.0000 1.0000
23.2100 1506.0000 1.0000
23.2200 1585.0000 1.0000
23.2300 1539.0000 1.0000
23.2400 1543.0000 1.0000
23.2500 1577.0000 1.0000
23.2600 1610.0000 1.0000
23.2700 1525.0000 1.0000
23.2800 1522.0000 1.0000
23.2900 1565.0000 1.0000
23.3000 1596.0000 1.0000
23.3100 1595.0000 1.0000
23.3200 1578.0000 1.0000
23.3300 1632.0000 1.0000
23.3400 1547.0000 1.0000
23.3500 1536.0000 1.0000
23.3600 1574.0000 1.0000
23.3700 1525.0000 1.0000
23.3800 1571.0000 1.0000
23.3900 1679.0000 1.0000
23.4000 1624.0000 1.0000
23.4100 1539.0000 1.0000
23.4200 1530.0000 1.0000
23.4300 1581.0000 1.0000
23.4400 1524.0000 1.0000
23.4500 1557.0000 1.0000
23.4600 1577.0000 1.0000
23.4700 1583.0000 1.0000
23.4800 1529.0000 1.0000
23.4900 1560.0000 1.0000
23.5000 1555.0000 1.0000
23.5100 1600.0000 1.0000
23.5200 1575.0000 1.0000
23.5300 1594.0000 1.0000
23.5400 1571.0000 1.0000
23.5500 1644.0000 1.0000
23.5600 1618.0000 1.0000
23.5700 1592.0000 1.0000
23.5800 1564.0000 1.0000
23.5900 1587.0000 1.0000
23.6000 1599.0000 1.0000
23.6100 1592.0000 1.0000
23.6200 1571.0000 1.0000
23.6300 1567.0000 1.0000
23.6400 1558.0000 1.0000
23.6500 1552.0000 1.0000
23.6600 1528.0000 1.0000
23.6700 1529.0000 1.0000
23.6800 1710.0000 1.0000
23.6900 1651.0000 1.0000
23.7000 1613.0000 1.0000
23.7100 1591.0000 1.0000
23.7200 1582.0000 1.0000
23.7300 1610.0000 1.0000
23.7400 1593.0000 1.0000
23.7500 1573.0000 1.0000
23.7600 1695.0000 1.0000
23.7700 1587.0000 1.0000
23.7800 1630.0000 1.0000
23.7900 1626.0000 1.0000
23.8000 1630.0000 1.0000
23.8100 1629.0000 1.0000
23.8200 1599.0000 1.0000
23.8300 1554.0000 1.0000
23.8400 1480.0000 1.0000
23.8500 1542.0000 1.0000
23.8600 1632.0000 1.0000
23.8700 1601.0000 1.0000
23.8800 1587.0000 1.0000
23.8900 1584.0000 1.0000
23.9000 1550.0000 1.0000
23.9100 1632.0000 1.0000
23.9200 1641.0000 1.0000
23.9300 1655.0000 1.0000
23.9400 1566.0000 1.0000
23.9500 1544.0000 1.0000
23.9600 1567.0000 1.0000
23.9700 1543.0000 1.0000
23.9800 1610.0000 1.0000
23.9900 1570.0000 1.0000
24.0000 1561.0000 1.0000
24.0100 1613.0000 1.0000
24.0200 1686.0000 1.0000
24.0300 1617.0000 1.0000
24.0400 1610.0000 1.0000
24.0500 1610.0000 1.0000
24.0600 1539.0000 1.0000
24.0700 1683.0000 1.0000
24.0800 1581.0000 1.0000
24.0900 1610.0000 1.0000
24.1000 1565.0000 1.0000
24.1100 1543.0000 1.0000
24.1200 1608.0000 1.0000
24.1300 1575.0000 1.0000
24.1400 1574.0000 1.0000
24.1500 1536.0000 1.0000
24.1600 1632.0000 1.0000
24.1700 1657.0000 1.0000
24.1800 1578.0000 1.0000
24.1900 1595.0000 1.0000
24.2000 1576.0000 1.0000
24.2100 1605.0000 1.0000
24.2200 1610.0000 1.0000
24.2300 1663.0000 1.0000
24.2400 1647.0000 1.0000
24.2500 1597.0000 1.0000
24.2600 1597.0000 1.0000
24.2700 1609.0000 1.0000
24.2800 1674.0000 1.0000
24.2900 1650.0000 1.0000
24.3000 1566.0000 1.0000
24.3100 1566.0000 1.0000
24.3200 1625.0000 1.0000
24.3300 1589.0000 1.0000
24.3400 1587.0000 1.0000
24.3500 1641.0000 1.0000
24.3600 1638.0000 1.0000
24.3700 1579.0000 1.0000
24.3800 1623.0000 1.0000
24.3900 1578.0000 1.0000
24.4000 1605.0000 1.0000
24.4100 1637.0000 1.0000
24.4200 1607.0000 1.0000
24.4300 1590.0000 1.0000
24.4400 1536.0000 1.0000
24.4500 1549.0000 1.0000
24.4600 1632.0000 1.0000
24.4700 1587.0000 1.0000
24.4800 1543.0000 1.0000
24.4900 1556.0000 1.0000
24.5000 1617.0000 1.0000
24.5100 1591.0000 1.0000
24.5200 1588.0000 1.0000
24.5300 1590.0000 1.0000
24.5400 1682.0000 1.0000
24.5500 1612.0000 1.0000
24.5600 1603.0000 1.0000
24.5700 1581.0000 1.0000
24.5800 1613.0000 1.0000
24.5900 1603.0000 1.0000
24.6000 1633.0000 1.0000
24.6100 1602.0000 1.0000
24.6200 1591.0000 1.0000
24.6300 1698.0000 1.0000
24.6400 1646.0000 1.0000
24.6500 1641.0000 1.0000
24.6600 1624.0000 1.0000
24.6700 1590.0000 1.0000
24.6800 1619.0000 1.0000
24.6900 1647.0000 1.0000
24.7000 1629.0000 1.0000
24.7100 1633.0000 1.0000
24.7200 1695.0000 1.0000
24.7300 1607.0000 1.0000
24.7400 1636.0000 1.0000
24.7500 1666.0000 1.0000
24.7600 1622.0000 1.0000
24.7700 1601.0000 1.0000
24.7800 1638.0000 1.0000
24.7900 1673.0000 1.0000
24.8000 1601.0000 1.0000
24.8100 1674.0000 1.0000
24.8200 1712.0000 1.0000
24.8300 1684.0000 1.0000
24.8400 1654.0000 1.0000
24.8500 1663.0000 1.0000
24.8600 1687.0000 1.0000
24.8700 1699.0000 1.0000
24.8800 1673.0000 1.0000
24.8900 1687.0000 1.0000
24.9000 1650.0000 1.0000
24.9100 1672.0000 1.0000
24.9200 1713.0000 1.0000
24.9300 1702.0000 1.0000
24.9400 1691.0000 1.0000
24.9500 1604.0000 1.0000
24.9600 1679.0000 1.0000
24.9700 1735.0000 1.0000
24.9800 1719.0000 1.0000
24.9900 1664.0000 1.0000
25.0000 1667.0000 1.0000
25.0100 1683.0000 1.0000
25.0200 1667.0000 1.0000
25.0300 1702.0000 1.0000
25.0400 1740.0000 1.0000
25.0500 1676.0000 1.0000
25.0600 1643.0000 1.0000
25.0700 1679.0000 1.0000
25.0800 1674.0000 1.0000
25.0900 1778.0000 1.0000
25.1000 1690.0000 1.0000
25.1100 1720.0000 1.0000
25.1200 1805.0000 1.0000
25.1300 1729.0000 1.0000
25.1400 1643.0000 1.0000
25.1500 1689.0000 1.0000
25.1600 1707.0000 1.0000
25.1700 1686.0000 1.0000
25.1800 1672.0000 1.0000
25.1900 1707.0000 1.0000
25.2000 1700.0000 1.0000
25.2100 1615.0000 1.0000
25.2200 1572.0000 1.0000
25.2300 1715.0000 1.0000
25.2400 1748.0000 1.0000
25.2500 1591.0000 1.0000
25.2600 1638.0000 1.0000
25.2700 1658.0000 1.0000
25.2800 1682.0000 1.0000
25.2900 1639.0000 1.0000
25.3000 1690.0000 1.0000
25.3100 1664.0000 1.0000
25.3200 1665.0000 1.0000
25.3300 1668.0000 1.0000
25.3400 1633.0000 1.0000
25.3500 1667.0000 1.0000
25.3600 1647.0000 1.0000
25.3700 1656.0000 1.0000
25.3800 1648.0000 1.0000
25.3900 1621.0000 1.0000
25.4000 1715.0000 1.0000
25.4100 1722.0000 1.0000
25.4200 1604.0000 1.0000
25.4300 1641.0000 1.0000
25.4400 1670.0000 1.0000
25.4500 1639.0000 1.0000
25.4600 1639.0000 1.0000
25.4700 1692.0000 1.0000
25.4800 1706.0000 1.0000
25.4900 1690.0000 1.0000
25.5000 1738.0000 1.0000
25.5100 1652.0000 1.0000
25.5200 1685.0000 1.0000
25.5300 1638.0000 1.0000
25.5400 1588.0000 1.0000
25.5500 1597.0000 1.0000
25.5600 1632.0000 1.0000
25.5700 1617.0000 1.0000
25.5800 1647.0000 1.0000
25.5900 1698.0000 1.0000
25.6000 1639.0000 1.0000
25.6100 1632.0000 1.0000
25.6200 1617.0000 1.0000
25.6300 1664.0000 1.0000
25.6400 1662.0000 1.0000
25.6500 1597.0000 1.0000
25.6600 1666.0000 1.0000
25.6700 1677.0000 1.0000
25.6800 1707.0000 1.0000
25.6900 1653.0000 1.0000
25.7000 1692.0000 1.0000
25.7100 1654.0000 1.0000
25.7200 1622.0000 1.0000
25.7300 1648.0000 1.0000
25.7400 1607.0000 1.0000
25.7500 1623.0000 1.0000
25.7600 1633.0000 1.0000
25.7700 1722.0000 1.0000
25.7800 1646.0000 1.0000
25.7900 1647.0000 1.0000
25.8000 1716.0000 1.0000
25.8100 1693.0000 1.0000
25.8200 1637.0000 1.0000
25.8300 1652.0000 1.0000
25.8400 1628.0000 1.0000
25.8500 1624.0000 1.0000
25.8600 1685.0000 1.0000
25.8700 1625.0000 1.0000
25.8800 1639.0000 1.0000
25.8900 1651.0000 1.0000
25.9000 1694.0000 1.0000
25.9100 1699.0000 1.0000
25.9200 1644.0000 1.0000
25.9300 1685.0000 1.0000
25.9400 1691.0000 1.0000
25.9500 1606.0000 1.0000
25.9600 1641.0000 1.0000
25.9700 1643.0000 1.0000
25.9800 1621.0000 1.0000
25.9900 1638.0000 1.0000
26.0000 1575.0000 1.0000
26.0100 1702.0000 1.0000
26.0200 1649.0000 1.0000
26.0300 1663.0000 1.0000
26.0400 1739.0000 1.0000
26.0500 1694.0000 1.0000
26.0600 1677.0000 1.0000
26.0700 1553.0000 1.0000
26.0800 1622.0000 1.0000
26.0900 1638.0000 1.0000
26.1000 1658.0000 1.0000
26.1100 1630.0000 1.0000
26.1200 1681.0000 1.0000
26.1300 1640.0000 1.0000
26.1400 1679.0000 1.0000
26.1500 1682.0000 1.0000
26.1600 1636.0000 1.0000
26.1700 1706.0000 1.0000
26.1800 1629.0000 1.0000
26.1900 1650.0000 1.0000
26.2000 1654.0000 1.0000
26.2100 1661.0000 1.0000
26.2200 1703.0000 1.0000
26.2300 1696.0000 1.0000
26.2400 1700.0000 1.0000
26.2500 1697.0000 1.0000
26.2600 1600.0000 1.0000
26.2700 1632.0000 1.0000
26.2800 1680.0000 1.0000
26.2900 1661.0000 1.0000
26.3000 1744.0000 1.0000
26.3100 1726.0000 1.0000
26.3200 1631.0000 1.0000
26.3300 1733.0000 1.0000
26.3400 1717.0000 1.0000
26.3500 1738.0000 1.0000
26.3600 1743.0000 1.0000
26.3700 1668.0000 1.0000
26.3800 1698.0000 1.0000
26.3900 1726.0000 1.0000
26.4000 1683.0000 1.0000
26.4100 1690.0000 1.0000
26.4200 1729.0000 1.0000
26.4300 1730.0000 1.0000
26.4400 1754.0000 1.0000
26.4500 1635.0000 1.0000
26.4600 1691.0000 1.0000
26.4700 1730.0000 1.0000
26.4800 1717.0000 1.0000
26.4900 1694.0000 1.0000
26.5000 1757.0000 1.0000
26.5100 1724.0000 1.0000
26.5200 1781.0000 1.0000
26.5300 1782.0000 1.0000
26.5400 1802.0000 1.0000
26.5500 1775.0000 1.0000
26.5600 1690.0000 1.0000
26.5700 1714.0000 1.0000
26.5800 1728.0000 1.0000
26.5900 1763.0000 1.0000
26.6000 1719.0000 1.0000
26.6100 1729.0000 1.0000
26.6200 1724.0000 1.0000
26.6300 1751.0000 1.0000
26.6400 1792.0000 1.0000
26.6500 1794.0000 1.0000
26.6600 1754.0000 1.0000
26.6700 1778.0000 1.0000
26.6800 1758.0000 1.0000
26.6900 1753.0000 1.0000
26.7000 1794.0000 1.0000
26.7100 1794.0000 1.0000
26.7200 1809.0000 1.0000
26.7300 1800.0000 1.0000
26.7400 1823.0000 1.0000
26.7500 1745.0000 1.0000
26.7600 1807.0000 1.0000
26.7700 1781.0000 1.0000
26.7800 1788.0000 1.0000
26.7900 1830.0000 1.0000
26.8000 1759.0000 1.0000
26.8100 1802.0000 1.0000
26.8200 1840.0000 1.0000
26.8300 1830.0000 1.0000
26.8400 1938.0000 1.0000
26.8500 1876.0000 1.0000
26.8600 1871.0000 1.0000
26.8700 1811.0000 1.0000
26.8800 1844.0000 1.0000
26.8900 1845.0000 1.0000
26.9000 1925.0000 1.0000
26.9100 1908.0000 1.0000
26.9200 1907.0000 1.0000
26.9300 1897.0000 1.0000
26.9400 1932.0000 1.0000
26.9500 1932.0000 1.0000
26.9600 1949.0000 1.0000
26.9700 2043.0000 1.0000
26.9800 2010.0000 1.0000
26.9900 2081.0000 1.0000
27.0000 2106.0000 1.0000
27.0100 2099.0000 1.0000
27.0200 2103.0000 1.0000
27.0300 2176.0000 1.0000
27.0400 2132.0000 1.0000
27.0500 2216.0000 1.0000
27.0600 2240.0000 1.0000
27.0700 2316.0000 1.0000
27.0800 2370.0000 1.0000
27.0900 2423.0000 1.0000
27.1000 2474.0000 1.0000
27.1100 2587.0000 1.0000
27.1200 2649.0000 1.0000
27.1300 2701.0000 1.0000
27.1400 2828.0000 1.0000
27.1500 2887.0000 1.0000
27.1600 2982.0000 1.0000
27.1700 3094.0000 1.0000
27.1800 3231.0000 1.0000
27.1900 3341.0000 1.0000
27.2000 3550.0000 1.0000
27.2100 3606.0000 1.0000
27.2200 3711.0000 1.0000
27.2300 4024.0000 1.0000
27.2400 4192.0000 1.0000
27.2500 4383.0000 1.0000
27.2600 4511.0000 1.0000
27.2700 4802.0000 1.0000
27.2800 5044.0000 1.0000
27.2900 5376.0000 1.0000
27.3000 5677.0000 1.0000
27.3100 5865.0000 1.0000
27.3200 6041.0000 1.0000
27.3300 6237.0000 1.0000
27.3400 6495.0000 1.0000
27.3500 6598.0000 1.0000
27.3600 6572.0000 1.0000
27.3700 6412.0000 1.0000
27.3800 6297.0000 1.0000
27.3900 6079.0000 1.0000
27.4000 5956.0000 1.0000
27.4100 5747.0000 1.0000
27.4200 5538.0000 1.0000
27.4300 5253.0000 1.0000
27.4400 5091.0000 1.0000
27.4500 5003.0000 1.0000
27.4600 4637.0000 1.0000
27.4700 4280.0000 1.0000
27.4800 4216.0000 1.0000
27.4900 3837.0000 1.0000
27.5000 3704.0000 1.0000
27.5100 3561.0000 1.0000
27.5200 3508.0000 1.0000
27.5300 3288.0000 1.0000
27.5400 3142.0000 1.0000
27.5500 3024.0000 1.0000
27.5600 2970.0000 1.0000
27.5700 2797.0000 1.0000
27.5800 2681.0000 1.0000
27.5900 2590.0000 1.0000
27.6000 2611.0000 1.0000
27.6100 2451.0000 1.0000
27.6200 2476.0000 1.0000
27.6300 2376.0000 1.0000
27.6400 2271.0000 1.0000
27.6500 2353.0000 1.0000
27.6600 2244.0000 1.0000
27.6700 2223.0000 1.0000
27.6800 2245.0000 1.0000
27.6900 2209.0000 1.0000
27.7000 2145.0000 1.0000
27.7100 2103.0000 1.0000
27.7200 2103.0000 1.0000
27.7300 2079.0000 1.0000
27.7400 2041.0000 1.0000
27.7500 2036.0000 1.0000
27.7600 2025.0000 1.0000
27.7700 2022.0000 1.0000
27.7800 1969.0000 1.0000
27.7900 1948.0000 1.0000
27.8000 1942.0000 1.0000
27.8100 1969.0000 1.0000
27.8200 1886.0000 1.0000
27.8300 1893.0000 1.0000
27.8400 1993.0000 1.0000
27.8500 1916.0000 1.0000
27.8600 1875.0000 1.0000
27.8700 1897.0000 1.0000
27.8800 1882.0000 1.0000
27.8900 1902.0000 1.0000
27.9000 1846.0000 1.0000
27.9100 1813.0000 1.0000
27.9200 1818.0000 1.0000
27.9300 1711.0000 1.0000
27.9400 1831.0000 1.0000
27.9500 1804.0000 1.0000
27.9600 1819.0000 1.0000
27.9700 1782.0000 1.0000
27.9800 1756.0000 1.0000
27.9900 1756.0000 1.0000
28.0000 1732.0000 1.0000
28.0100 1739.0000 1.0000
28.0200 1690.0000 1.0000
28.0300 1735.0000 1.0000
28.0400 1765.0000 1.0000
28.0500 1705.0000 1.0000
28.0600 1742.0000 1.0000
28.0700 1717.0000 1.0000
28.0800 1705.0000 1.0000
28.0900 1695.0000 1.0000
28.1000 1713.0000 1.0000
28.1100 1750.0000 1.0000
28.1200 1695.0000 1.0000
28.1300 1681.0000 1.0000
28.1400 1718.0000 1.0000
28.1500 1732.0000 1.0000
28.1600 1665.0000 1.0000
28.1700 1670.0000 1.0000
28.1800 1642.0000 1.0000
28.1900 1726.0000 1.0000
28.2000 1727.0000 1.0000
28.2100 1729.0000 1.0000
28.2200 1772.0000 1.0000
28.2300 1672.0000 1.0000
28.2400 1725.0000 1.0000
28.2500 1668.0000 1.0000
28.2600 1632.0000 1.0000
28.2700 1552.0000 1.0000
28.2800 1698.0000 1.0000
28.2900 1659.0000 1.0000
28.3000 1655.0000 1.0000
28.3100 1668.0000 1.0000
28.3200 1723.0000 1.0000
28.3300 1631.0000 1.0000
28.3400 1632.0000 1.0000
28.3500 1638.0000 1.0000
28.3600 1641.0000 1.0000
28.3700 1705.0000 1.0000
28.3800 1691.0000 1.0000
28.3900 1645.0000 1.0000
28.4000 1653.0000 1.0000
28.4100 1653.0000 1.0000
28.4200 1680.0000 1.0000
28.4300 1644.0000 1.0000
28.4400 1653.0000 1.0000
28.4500 1683.0000 1.0000
28.4600 1674.0000 1.0000
28.4700 1584.0000 1.0000
28.4800 1623.0000 1.0000
28.4900 1700.0000 1.0000
28.5000 1609.0000 1.0000
28.5100 1640.0000 1.0000
28.5200 1670.0000 1.0000
28.5300 1650.0000 1.0000
28.5400 1617.0000 1.0000
28.5500 1606.0000 1.0000
28.5600 1667.0000 1.0000
28.5700 1627.0000 1.0000
28.5800 1629.0000 1.0000
28.5900 1624.0000 1.0000
28.6000 1614.0000 1.0000
28.6100 1582.0000 1.0000
28.6200 1661.0000 1.0000
28.6300 1581.0000 1.0000
28.6400 1634.0000 1.0000
28.6500 1661.0000 1.0000
28.6600 1586.0000 1.0000
28.6700 1576.0000 1.0000
28.6800 1603.0000 1.0000
28.6900 1617.0000 1.0000
28.7000 1634.0000 1.0000
28.7100 1577.0000 1.0000
28.7200 1550.0000 1.0000
28.7300 1571.0000 1.0000
28.7400 1602.0000 1.0000
28.7500 1573.0000 1.0000
28.7600 1540.0000 1.0000
28.7700 1609.0000 1.0000
28.7800 1611.0000 1.0000
28.7900 1596.0000 1.0000
28.8000 1621.0000 1.0000
28.8100 1578.0000 1.0000
28.8200 1636.0000 1.0000
28.8300 1648.0000 1.0000
28.8400 1545.0000 1.0000
28.8500 1583.0000 1.0000
28.8600 1577.0000 1.0000
28.8700 1625.0000 1.0000
28.8800 1573.0000 1.0000
28.8900 1606.0000 1.0000
28.9000 1602.0000 1.0000
28.9100 1578.0000 1.0000
28.9200 1596.0000 1.0000
28.9300 1560.0000 1.0000
28.9400 1640.0000 1.0000
28.9500 1587.0000 1.0000
28.9600 1650.0000 1.0000
28.9700 1586.0000 1.0000
28.9800 1587.0000 1.0000
28.9900 1610.0000 1.0000
29.0000 1570.0000 1.0000
29.0100 1622.0000 1.0000
29.0200 1574.0000 1.0000
29.0300 1584.0000 1.0000
29.0400 1633.0000 1.0000
29.0500 1641.0000 1.0000
29.0600 1599.0000 1.0000
29.0700 1673.0000 1.0000
29.0800 1624.0000 1.0000
29.0900 1560.0000 1.0000
29.1000 1639.0000 1.0000
29.1100 1583.0000 1.0000
29.1200 1604.0000 1.0000
29.1300 1591.0000 1.0000
29.1400 1630.0000 1.0000
29.1500 1593.0000 1.0000
29.1600 1627.0000 1.0000
29.1700 1637.0000 1.0000
29.1800 1562.0000 1.0000
29.1900 1611.0000 1.0000
29.2000 1553.0000 1.0000
29.2100 1525.0000 1.0000
29.2200 1575.0000 1.0000
29.2300 1709.0000 1.0000
29.2400 1663.0000 1.0000
29.2500 1651.0000 1.0000
29.2600 1592.0000 1.0000
29.2700 1545.0000 1.0000
29.2800 1563.0000 1.0000
29.2900 1653.0000 1.0000
29.3000 1529.0000 1.0000
29.3100 1548.0000 1.0000
29.3200 1597.0000 1.0000
29.3300 1605.0000 1.0000
29.3400 1558.0000 1.0000
29.3500 1594.0000 1.0000
29.3600 1624.0000 1.0000
29.3700 1540.0000 1.0000
29.3800 1605.0000 1.0000
29.3900 1572.0000 1.0000
29.4000 1557.0000 1.0000
29.4100 1598.0000 1.0000
29.4200 1580.0000 1.0000
29.4300 1621.0000 1.0000
29.4400 1587.0000 1.0000
29.4500 1551.0000 1.0000
29.4600 1576.0000 1.0000
29.4700 1619.0000 1.0000
29.4800 1600.0000 1.0000
29.4900 1555.0000 1.0000
29.5000 1543.0000 1.0000
29.5100 1556.0000 1.0000
29.5200 1513.0000 1.0000
29.5300 1592.0000 1.0000
29.5400 1594.0000 1.0000
29.5500 1518.0000 1.0000
29.5600 1536.0000 1.0000
29.5700 1498.0000 1.0000
29.5800 1638.0000 1.0000
29.5900 1651.0000 1.0000
29.6000 1542.0000 1.0000
29.6100 1584.0000 1.0000
29.6200 1583.0000 1.0000
29.6300 1492.0000 1.0000
29.6400 1511.0000 1.0000
29.6500 1573.0000 1.0000
29.6600 1539.0000 1.0000
29.6700 1559.0000 1.0000
29.6800 1543.0000 1.0000
29.6900 1538.0000 1.0000
29.7000 1531.0000 1.0000
29.7100 1546.0000 1.0000
29.7200 1549.0000 1.0000
29.7300 1636.0000 1.0000
29.7400 1589.0000 1.0000
29.7500 1574.0000 1.0000
29.7600 1511.0000 1.0000
29.7700 1480.0000 1.0000
29.7800 1515.0000 1.0000
29.7900 1590.0000 1.0000
29.8000 1570.0000 1.0000
29.8100 1530.0000 1.0000
29.8200 1562.0000 1.0000
29.8300 1545.0000 1.0000
29.8400 1532.0000 1.0000
29.8500 1546.0000 1.0000
29.8600 1545.0000 1.0000
29.8700 1530.0000 1.0000
29.8800 1546.0000 1.0000
29.8900 1511.0000 1.0000
29.9000 1520.0000 1.0000
29.9100 1497.0000 1.0000
29.9200 1515.0000 1.0000
29.9300 1561.0000 1.0000
29.9400 1510.0000 1.0000
29.9500 1546.0000 1.0000
29.9600 1530.0000 1.0000
29.9700 1546.0000 1.0000
29.9800 1481.0000 1.0000
29.9900 1561.0000 1.0000
30.0000 1552.0000 1.0000
30.0100 1536.0000 1.0000
30.0200 1565.0000 1.0000
30.0300 1539.0000 1.0000
30.0400 1503.0000 1.0000
30.0500 1540.0000 1.0000
30.0600 1487.0000 1.0000
30.0700 1535.0000 1.0000
30.0800 1538.0000 1.0000
30.0900 1637.0000 1.0000
30.1000 1604.0000 1.0000
30.1100 1520.0000 1.0000
30.1200 1529.0000 1.0000
30.1300 1592.0000 1.0000
30.1400 1538.0000 1.0000
30.1500 1552.0000 1.0000
30.1600 1498.0000 1.0000
30.1700 1551.0000 1.0000
30.1800 1528.0000 1.0000
30.1900 1472.0000 1.0000
30.2000 1525.0000 1.0000
30.2100 1524.0000 1.0000
30.2200 1532.0000 1.0000
30.2300 1602.0000 1.0000
30.2400 1508.0000 1.0000
30.2500 1501.0000 1.0000
30.2600 1511.0000 1.0000
30.2700 1500.0000 1.0000
30.2800 1584.0000 1.0000
30.2900 1504.0000 1.0000
30.3000 1466.0000 1.0000
30.3100 1481.0000 1.0000
30.3200 1572.0000 1.0000
30.3300 1460.0000 1.0000
30.3400 1493.0000 1.0000
30.3500 1524.0000 1.0000
30.3600 1491.0000 1.0000
30.3700 1511.0000 1.0000
30.3800 1446.0000 1.0000
30.3900 1523.0000 1.0000
30.4000 1513.0000 1.0000
30.4100 1522.0000 1.0000
30.4200 1506.0000 1.0000
30.4300 1588.0000 1.0000
30.4400 1489.0000 1.0000
30.4500 1512.0000 1.0000
30.4600 1522.0000 1.0000
30.4700 1510.0000 1.0000
30.4800 1510.0000 1.0000
30.4900 1534.0000 1.0000
30.5000 1551.0000 1.0000
30.5100 1476.0000 1.0000
30.5200 1482.0000 1.0000
30.5300 1527.0000 1.0000
30.5400 1498.0000 1.0000
30.5500 1527.0000 1.0000
30.5600 1483.0000 1.0000
30.5700 1464.0000 1.0000
30.5800 1472.0000 1.0000
30.5900 1541.0000 1.0000
30.6000 1536.0000 1.0000
30.6100 1482.0000 1.0000
30.6200 1485.0000 1.0000
30.6300 1495.0000 1.0000
30.6400 1535.0000 1.0000
30.6500 1437.0000 1.0000
30.6600 1470.0000 1.0000
30.6700 1461.0000 1.0000
30.6800 1511.0000 1.0000
30.6900 1476.0000 1.0000
30.7000 1484.0000 1.0000
30.7100 1492.0000 1.0000
30.7200 1518.0000 1.0000
30.7300 1537.0000 1.0000
30.7400 1521.0000 1.0000
30.7500 1500.0000 1.0000
30.7600 1490.0000 1.0000
30.7700 1476.0000 1.0000
30.7800 1533.0000 1.0000
30.7900 1573.0000 1.0000
30.8000 1531.0000 1.0000
30.8100 1536.0000 1.0000
30.8200 1449.0000 1.0000
30.8300 1465.0000 1.0000
30.8400 1497.0000 1.0000
30.8500 1525.0000 1.0000
30.8600 1483.0000 1.0000
30.8700 1515.0000 1.0000
30.8800 1454.0000 1.0000
30.8900 1546.0000 1.0000
30.9000 1478.0000 1.0000
30.9100 1520.0000 1.0000
30.9200 1466.0000 1.0000
30.9300 1478.0000 1.0000
30.9400 1535.0000 1.0000
30.9500 1517.0000 1.0000
30.9600 1508.0000 1.0000
30.9700 1472.0000 1.0000
30.9800 1459.0000 1.0000
30.9900 1472.0000 1.0000
31.0000 1472.0000 1.0000
31.0100 1448.0000 1.0000
31.0200 1506.0000 1.0000
31.0300 1523.0000 1.0000
31.0400 1411.0000 1.0000
31.0500 1498.0000 1.0000
31.0600 1498.0000 1.0000
31.0700 1441.0000 1.0000
31.0800 1523.0000 1.0000
31.0900 1499.0000 1.0000
31.1000 1522.0000 1.0000
31.1100 1478.0000 1.0000
31.1200 1527.0000 1.0000
31.1300 1513.0000 1.0000
31.1400 1490.0000 1.0000
31.1500 1451.0000 1.0000
31.1600 1501.0000 1.0000
31.1700 1509.0000 1.0000
31.1800 1537.0000 1.0000
31.1900 1440.0000 1.0000
31.2000 1487.0000 1.0000
31.2100 1454.0000 1.0000
31.2200 1428.0000 1.0000
31.2300 1460.0000 1.0000
31.2400 1520.0000 1.0000
31.2500 1465.0000 1.0000
31.2600 1508.0000 1.0000
31.2700 1463.0000 1.0000
31.2800 1474.0000 1.0000
31.2900 1502.0000 1.0000
31.3000 1488.0000 1.0000
31.3100 1500.0000 1.0000
31.3200 1518.0000 1.0000
31.3300 1510.0000 1.0000
31.3400 1433.0000 1.0000
31.3500 1494.0000 1.0000
31.3600 1511.0000 1.0000
31.3700 1484.0000 1.0000
31.3800 1521.0000 1.0000
31.3900 1480.0000 1.0000
31.4000 1412.0000 1.0000
31.4100 1394.0000 1.0000
31.4200 1472.0000 1.0000
31.4300 1441.0000 1.0000
31.4400 1469.0000 1.0000
31.4500 1406.0000 1.0000
31.4600 1458.0000 1.0000
31.4700 1474.0000 1.0000
31.4800 1453.0000 1.0000
31.4900 1426.0000 1.0000
31.5000 1434.0000 1.0000
31.5100 1379.0000 1.0000
31.5200 1462.0000 1.0000
31.5300 1419.0000 1.0000
31.5400 1435.0000 1.0000
31.5500 1435.0000 1.0000
31.5600 1461.0000 1.0000
31.5700 1451.0000 1.0000
31.5800 1385.0000 1.0000
31.5900 1397.0000 1.0000
31.6000 1487.0000 1.0000
31.6100 1430.0000 1.0000
31.6200 1458.0000 1.0000
31.6300 1466.0000 1.0000
31.6400 1511.0000 1.0000
31.6500 1493.0000 1.0000
31.6600 1429.0000 1.0000
31.6700 1455.0000 1.0000
31.6800 1482.0000 1.0000
31.6900 1445.0000 1.0000
31.7000 1497.0000 1.0000
31.7100 1466.0000 1.0000
31.7200 1451.0000 1.0000
31.7300 1458.0000 1.0000
31.7400 1453.0000 1.0000
31.7500 1476.0000 1.0000
31.7600 1450.0000 1.0000
31.7700 1489.0000 1.0000
31.7800 1426.0000 1.0000
31.7900 1426.0000 1.0000
31.8000 1501.0000 1.0000
31.8100 1430.0000 1.0000
31.8200 1450.0000 1.0000
31.8300 1385.0000 1.0000
31.8400 1428.0000 1.0000
31.8500 1383.0000 1.0000
31.8600 1381.0000 1.0000
31.8700 1432.0000 1.0000
31.8800 1455.0000 1.0000
31.8900 1488.0000 1.0000
31.9000 1469.0000 1.0000
31.9100 1476.0000 1.0000
31.9200 1415.0000 1.0000
31.9300 1456.0000 1.0000
31.9400 1442.0000 1.0000
31.9500 1412.0000 1.0000
31.9600 1523.0000 1.0000
31.9700 1444.0000 1.0000
31.9800 1459.0000 1.0000
31.9900 1444.0000 1.0000
32.0000 1480.0000 1.0000
32.0100 1419.0000 1.0000
32.0200 1436.0000 1.0000
32.0300 1420.0000 1.0000
32.0400 1500.0000 1.0000
32.0500 1518.0000 1.0000
32.0600 1507.0000 1.0000
32.0700 1505.0000 1.0000
32.0800 1482.0000 1.0000
32.0900 1455.0000 1.0000
32.1000 1516.0000 1.0000
32.1100 1452.0000 1.0000
32.1200 1456.0000 1.0000
32.1300 1466.0000 1.0000
32.1400 1459.0000 1.0000
32.1500 1412.0000 1.0000
32.1600 1449.0000 1.0000
32.1700 1519.0000 1.0000
32.1800 1502.0000 1.0000
32.1900 1491.0000 1.0000
32.2000 1462.0000 1.0000
32.2100 1455.0000 1.0000
32.2200 1426.0000 1.0000
32.2300 1474.0000 1.0000
32.2400 1443.0000 1.0000
32.2500 1467.0000 1.0000
32.2600 1505.0000 1.0000
32.2700 1447.0000 1.0000
32.2800 1381.0000 1.0000
32.2900 1385.0000 1.0000
32.3000 1393.0000 1.0000
32.3100 1434.0000 1.0000
32.3200 1437.0000 1.0000
32.3300 1503.0000 1.0000
32.3400 1425.0000 1.0000
32.3500 1389.0000 1.0000
32.3600 1418.0000 1.0000
32.3700 1446.0000 1.0000
32.3800 1400.0000 1.0000
32.3900 1367.0000 1.0000
32.4000 1398.0000 1.0000
32.4100 1386.0000 1.0000
32.4200 1400.0000 1.0000
32.4300 1375.0000 1.0000
32.4400 1368.0000 1.0000
32.4500 1412.0000 1.0000
32.4600 1398.0000 1.0000
32.4700 1461.0000 1.0000
32.4800 1405.0000 1.0000
32.4900 1397.0000 1.0000
32.5000 1405.0000 1.0000
32.5100 1390.0000 1.0000
32.5200 1377.0000 1.0000
32.5300 1405.0000 1.0000
32.5400 1405.0000 1.0000
32.5500 1348.0000 1.0000
32.5600 1351.0000 1.0000
32.5700 1381.0000 1.0000
32.5800 1367.0000 1.0000
32.5900 1401.0000 1.0000
32.6000 1350.0000 1.0000
32.6100 1371.0000 1.0000
32.6200 1443.0000 1.0000
32.6300 1404.0000 1.0000
32.6400 1419.0000 1.0000
32.6500 1385.0000 1.0000
32.6600 1359.0000 1.0000
32.6700 1418.0000 1.0000
32.6800 1376.0000 1.0000
32.6900 1362.0000 1.0000
32.7000 1354.0000 1.0000
32.7100 1395.0000 1.0000
32.7200 1402.0000 1.0000
32.7300 1407.0000 1.0000
32.7400 1346.0000 1.0000
32.7500 1395.0000 1.0000
32.7600 1408.0000 1.0000
32.7700 1355.0000 1.0000
32.7800 1406.0000 1.0000
32.7900 1387.0000 1.0000
32.8000 1384.0000 1.0000
32.8100 1379.0000 1.0000
32.8200 1416.0000 1.0000
32.8300 1338.0000 1.0000
32.8400 1336.0000 1.0000
32.8500 1370.0000 1.0000
32.8600 1329.0000 1.0000
32.8700 1353.0000 1.0000
32.8800 1331.0000 1.0000
32.8900 1344.0000 1.0000
32.9000 1427.0000 1.0000
32.9100 1349.0000 1.0000
32.9200 1343.0000 1.0000
32.9300 1374.0000 1.0000
32.9400 1396.0000 1.0000
32.9500 1438.0000 1.0000
32.9600 1333.0000 1.0000
32.9700 1403.0000 1.0000
32.9800 1382.0000 1.0000
32.9900 1417.0000 1.0000
33.0000 1396.0000 1.0000
33.0100 1407.0000 1.0000
33.0200 1386.0000 1.0000
33.0300 1411.0000 1.0000
33.0400 1374.0000 1.0000
33.0500 1347.0000 1.0000
33.0600 1387.0000 1.0000
33.0700 1384.0000 1.0000
33.0800 1389.0000 1.0000
33.0900 1389.0000 1.0000
33.1000 1357.0000 1.0000
33.1100 1389.0000 1.0000
33.1200 1344.0000 1.0000
33.1300 1381.0000 1.0000
33.1400 1353.0000 1.0000
33.1500 1424.0000 1.0000
33.1600 1375.0000 1.0000
33.1700 1342.0000 1.0000
33.1800 1331.0000 1.0000
33.1900 1322.0000 1.0000
33.2000 1365.0000 1.0000
33.2100 1398.0000 1.0000
33.2200 1404.0000 1.0000
33.2300 1327.0000 1.0000
33.2400 1315.0000 1.0000
33.2500 1359.0000 1.0000
33.2600 1394.0000 1.0000
33.2700 1371.0000 1.0000
33.2800 1389.0000 1.0000
33.2900 1316.0000 1.0000
33.3000 1257.0000 1.0000
33.3100 1363.0000 1.0000
33.3200 1353.0000 1.0000
33.3300 1344.0000 1.0000
33.3400 1314.0000 1.0000
33.3500 1373.0000 1.0000
33.3600 1333.0000 1.0000
33.3700 1310.0000 1.0000
33.3800 1390.0000 1.0000
33.3900 1286.0000 1.0000
33.4000 1293.0000 1.0000
33.4100 1330.0000 1.0000
33.4200 1320.0000 1.0000
33.4300 1357.0000 1.0000
33.4400 1382.0000 1.0000
33.4500 1398.0000 1.0000
33.4600 1328.0000 1.0000
33.4700 1397.0000 1.0000
33.4800 1422.0000 1.0000
33.4900 1350.0000 1.0000
33.5000 1376.0000 1.0000
33.5100 1390.0000 1.0000
33.5200 1389.0000 1.0000
33.5300 1363.0000 1.0000
33.5400 1365.0000 1.0000
33.5500 1342.0000 1.0000
33.5600 1387.0000 1.0000
33.5700 1367.0000 1.0000
33.5800 1390.0000 1.0000
33.5900 1439.0000 1.0000
33.6000 1338.0000 1.0000
33.6100 1330.0000 1.0000
33.6200 1377.0000 1.0000
33.6300 1396.0000 1.0000
33.6400 1361.0000 1.0000
33.6500 1346.0000 1.0000
33.6600 1399.0000 1.0000
33.6700 1390.0000 1.0000
33.6800 1361.0000 1.0000
33.6900 1352.0000 1.0000
33.7000 1360.0000 1.0000
33.7100 1340.0000 1.0000
33.7200 1352.0000 1.0000
33.7300 1325.0000 1.0000
33.7400 1396.0000 1.0000
33.7500 1419.0000 1.0000
33.7600 1368.0000 1.0000
33.7700 1437.0000 1.0000
33.7800 1391.0000 1.0000
33.7900 1366.0000 1.0000
33.8000 1402.0000 1.0000
33.8100 1460.0000 1.0000
33.8200 1425.0000 1.0000
33.8300 1403.0000 1.0000
33.8400 1432.0000 1.0000
33.8500 1436.0000 1.0000
33.8600 1462.0000 1.0000
33.8700 1414.0000 1.0000
33.8800 1493.0000 1.0000
33.8900 1401.0000 1.0000
33.9000 1518.0000 1.0000
33.9100 1462.0000 1.0000
33.9200 1560.0000 1.0000
33.9300 1598.0000 1.0000
33.9400 1554.0000 1.0000
33.9500 1545.0000 1.0000
33.9600 1518.0000 1.0000
33.9700 1583.0000 1.0000
33.9800 1594.0000 1.0000
33.9900 1593.0000 1.0000
34.0000 1710.0000 1.0000
34.0100 1618.0000 1.0000
34.0200 1592.0000 1.0000
34.0300 1651.0000 1.0000
34.0400 1595.0000 1.0000
34.0500 1551.0000 1.0000
34.0600 1627.0000 1.0000
34.0700 1567.0000 1.0000
34.0800 1537.0000 1.0000
34.0900 1539.0000 1.0000
34.1000 1562.0000 1.0000
34.1100 1638.0000 1.0000
34.1200 1501.0000 1.0000
34.1300 1514.0000 1.0000
34.1400 1606.0000 1.0000
34.1500 1555.0000 1.0000
34.1600 1537.0000 1.0000
34.1700 1511.0000 1.0000
34.1800 1526.0000 1.0000
34.1900 1485.0000 1.0000
34.2000 1536.0000 1.0000
34.2100 1512.0000 1.0000
34.2200 1637.0000 1.0000
34.2300 1553.0000 1.0000
34.2400 1577.0000 1.0000
34.2500 1574.0000 1.0000
34.2600 1599.0000 1.0000
34.2700 1575.0000 1.0000
34.2800 1628.0000 1.0000
34.2900 1664.0000 1.0000
34.3000 1656.0000 1.0000
34.3100 1709.0000 1.0000
34.3200 1790.0000 1.0000
34.3300 1726.0000 1.0000
34.3400 1822.0000 1.0000
34.3500 1838.0000 1.0000
34.3600 1809.0000 1.0000
34.3700 1938.0000 1.0000
34.3800 1966.0000 1.0000
34.3900 2025.0000 1.0000
34.4000 2074.0000 1.0000
34.4100 2133.0000 1.0000
34.4200 2310.0000 1.0000
34.4300 2358.0000 1.0000
34.4400 2407.0000 1.0000
34.4500 2407.0000 1.0000
34.4600 2575.0000 1.0000
34.4700 2717.0000 1.0000
34.4800 2847.0000 1.0000
34.4900 2898.0000 1.0000
34.5000 3028.0000 1.0000
34.5100 3135.0000 1.0000
34.5200 3112.0000 1.0000
34.5300 3068.0000 1.0000
34.5400 3351.0000 1.0000
34.5500 3254.0000 1.0000
34.5600 3234.0000 1.0000
34.5700 3265.0000 1.0000
34.5800 3249.0000 1.0000
34.5900 3134.0000 1.0000
34.6000 3047.0000 1.0000
34.6100 2968.0000 1.0000
34.6200 2913.0000 1.0000
34.6300 2850.0000 1.0000
34.6400 2763.0000 1.0000
34.6500 2614.0000 1.0000
34.6600 2587.0000 1.0000
34.6700 2462.0000 1.0000
34.6800 2371.0000 1.0000
34.6900 2271.0000 1.0000
34.7000 2204.0000 1.0000
34.7100 2142.0000 1.0000
34.7200 2165.0000 1.0000
34.7300 2088.0000 1.0000
34.7400 2001.0000 1.0000
34.7500 1897.0000 1.0000
34.7600 1834.0000 1.0000
34.7700 1822.0000 1.0000
34.7800 1823.0000 1.0000
34.7900 1739.0000 1.0000
34.8000 1741.0000 1.0000
34.8100 1761.0000 1.0000
34.8200 1629.0000 1.0000
34.8300 1646.0000 1.0000
34.8400 1664.0000 1.0000
34.8500 1662.0000 1.0000
34.8600 1577.0000 1.0000
34.8700 1525.0000 1.0000
34.8800 1570.0000 1.0000
34.8900 1531.0000 1.0000
34.9000 1538.0000 1.0000
34.9100 1509.0000 1.0000
34.9200 1494.0000 1.0000
34.9300 1458.0000 1.0000
34.9400 1438.0000 1.0000
34.9500 1446.0000 1.0000
34.9600 1424.0000 1.0000
34.9700 1430.0000 1.0000
34.9800 1415.0000 1.0000
34.9900 1385.0000 1.0000
35.0000 1401.0000 1.0000
35.0100 1366.0000 1.0000
35.0200 1414.0000 1.0000
35.0300 1419.0000 1.0000
35.0400 1357.0000 1.0000
35.0500 1366.0000 1.0000
35.0600 1314.0000 1.0000
35.0700 1295.0000 1.0000
35.0800 1230.0000 1.0000
35.0900 1302.0000 1.0000
35.1000 1347.0000 1.0000
35.1100 1291.0000 1.0000
35.1200 1309.0000 1.0000
35.1300 1290.0000 1.0000
35.1400 1300.0000 1.0000
35.1500 1291.0000 1.0000
35.1600 1302.0000 1.0000
35.1700 1314.0000 1.0000
35.1800 1310.0000 1.0000
35.1900 1239.0000 1.0000
35.2000 1300.0000 1.0000
35.2100 1281.0000 1.0000
35.2200 1289.0000 1.0000
35.2300 1297.0000 1.0000
35.2400 1322.0000 1.0000
35.2500 1300.0000 1.0000
35.2600 1277.0000 1.0000
35.2700 1250.0000 1.0000
35.2800 1291.0000 1.0000
35.2900 1286.0000 1.0000
35.3000 1287.0000 1.0000
35.3100 1333.0000 1.0000
35.3200 1246.0000 1.0000
35.3300 1306.0000 1.0000
35.3400 1262.0000 1.0000
35.3500 1282.0000 1.0000
35.3600 1233.0000 1.0000
35.3700 1234.0000 1.0000
35.3800 1241.0000 1.0000
35.3900 1243.0000 1.0000
35.4000 1220.0000 1.0000
35.4100 1305.0000 1.0000
35.4200 1301.0000 1.0000
35.4300 1222.0000 1.0000
35.4400 1214.0000 1.0000
35.4500 1204.0000 1.0000
35.4600 1212.0000 1.0000
35.4700 1264.0000 1.0000
35.4800 1196.0000 1.0000
35.4900 1182.0000 1.0000
35.5000 1214.0000 1.0000
35.5100 1219.0000 1.0000
35.5200 1196.0000 1.0000
35.5300 1194.0000 1.0000
35.5400 1205.0000 1.0000
35.5500 1199.0000 1.0000
35.5600 1232.0000 1.0000
35.5700 1179.0000 1.0000
35.5800 1141.0000 1.0000
35.5900 1192.0000 1.0000
35.6000 1194.0000 1.0000
35.6100 1179.0000 1.0000
35.6200 1232.0000 1.0000
35.6300 1253.0000 1.0000
35.6400 1193.0000 1.0000
35.6500 1138.0000 1.0000
35.6600 1138.0000 1.0000
35.6700 1136.0000 1.0000
35.6800 1177.0000 1.0000
35.6900 1236.0000 1.0000
35.7000 1266.0000 1.0000
35.7100 1184.0000 1.0000
35.7200 1203.0000 1.0000
35.7300 1189.0000 1.0000
35.7400 1188.0000 1.0000
35.7500 1158.0000 1.0000
35.7600 1153.0000 1.0000
35.7700 1187.0000 1.0000
35.7800 1149.0000 1.0000
35.7900 1176.0000 1.0000
35.8000 1154.0000 1.0000
35.8100 1161.0000 1.0000
35.8200 1186.0000 1.0000
35.8300 1220.0000 1.0000
35.8400 1187.0000 1.0000
35.8500 1129.0000 1.0000
35.8600 1159.0000 1.0000
35.8700 1157.0000 1.0000
35.8800 1182.0000 1.0000
35.8900 1204.0000 1.0000
35.9000 1229.0000 1.0000
35.9100 1172.0000 1.0000
35.9200 1195.0000 1.0000
35.9300 1133.0000 1.0000
35.9400 1247.0000 1.0000
35.9500 1183.0000 1.0000
35.9600 1139.0000 1.0000
35.9700 1195.0000 1.0000
35.9800 1150.0000 1.0000
35.9900 1144.0000 1.0000
36.0000 1141.0000 1.0000
36.0100 1206.0000 1.0000
36.0200 1216.0000 1.0000
36.0300 1149.0000 1.0000
36.0400 1162.0000 1.0000
36.0500 1156.0000 1.0000
36.0600 1144.0000 1.0000
36.0700 1139.0000 1.0000
36.0800 1198.0000 1.0000
36.0900 1151.0000 1.0000
36.1000 1195.0000 1.0000
36.1100 1253.0000 1.0000
36.1200 1201.0000 1.0000
36.1300 1154.0000 1.0000
36.1400 1188.0000 1.0000
36.1500 1229.0000 1.0000
36.1600 1179.0000 1.0000
36.1700 1204.0000 1.0000
36.1800 1180.0000 1.0000
36.1900 1191.0000 1.0000
36.2000 1288.0000 1.0000
36.2100 1196.0000 1.0000
36.2200 1276.0000 1.0000
36.2300 1264.0000 1.0000
36.2400 1252.0000 1.0000
36.2500 1271.0000 1.0000
36.2600 1285.0000 1.0000
36.2700 1269.0000 1.0000
36.2800 1321.0000 1.0000
36.2900 1316.0000 1.0000
36.3000 1356.0000 1.0000
36.3100 1361.0000 1.0000
36.3200 1413.0000 1.0000
36.3300 1361.0000 1.0000
36.3400 1464.0000 1.0000
36.3500 1521.0000 1.0000
36.3600 1589.0000 1.0000
36.3700 1614.0000 1.0000
36.3800 1711.0000 1.0000
36.3900 1807.0000 1.0000
36.4000 1857.0000 1.0000
36.4100 1942.0000 1.0000
36.4200 2051.0000 1.0000
36.4300 2152.0000 1.0000
36.4400 2188.0000 1.0000
36.4500 2194.0000 1.0000
36.4600 2193.0000 1.0000
36.4700 2212.0000 1.0000
36.4800 2108.0000 1.0000
36.4900 2110.0000 1.0000
36.5000 1992.0000 1.0000
36.5100 2055.0000 1.0000
36.5200 1962.0000 1.0000
36.5300 1868.0000 1.0000
36.5400 1863.0000 1.0000
36.5500 1815.0000 1.0000
36.5600 1733.0000 1.0000
36.5700 1667.0000 1.0000
36.5800 1600.0000 1.0000
36.5900 1554.0000 1.0000
36.6000 1452.0000 1.0000
36.6100 1392.0000 1.0000
36.6200 1335.0000 1.0000
36.6300 1310.0000 1.0000
36.6400 1339.0000 1.0000
36.6500 1279.0000 1.0000
36.6600 1203.0000 1.0000
36.6700 1188.0000 1.0000
36.6800 1192.0000 1.0000
36.6900 1209.0000 1.0000
36.7000 1205.0000 1.0000
36.7100 1158.0000 1.0000
36.7200 1157.0000 1.0000
36.7300 1166.0000 1.0000
36.7400 1141.0000 1.0000
36.7500 1104.0000 1.0000
36.7600 1130.0000 1.0000
36.7700 1129.0000 1.0000
36.7800 1168.0000 1.0000
36.7900 1085.0000 1.0000
36.8000 1099.0000 1.0000
36.8100 1162.0000 1.0000
36.8200 1137.0000 1.0000
36.8300 1122.0000 1.0000
36.8400 1116.0000 1.0000
36.8500 1069.0000 1.0000
36.8600 1079.0000 1.0000
36.8700 1119.0000 1.0000
36.8800 1121.0000 1.0000
36.8900 1079.0000 1.0000
36.9000 1081.0000 1.0000
36.9100 1103.0000 1.0000
36.9200 1097.0000 1.0000
36.9300 1095.0000 1.0000
36.9400 1003.0000 1.0000
36.9500 1056.0000 1.0000
36.9600 1072.0000 1.0000
36.9700 1051.0000 1.0000
36.9800 1094.0000 1.0000
36.9900 1047.0000 1.0000
37.0000 1065.0000 1.0000
37.0100 1010.0000 1.0000
37.0200 1056.0000 1.0000
37.0300 1091.0000 1.0000
37.0400 1079.0000 1.0000
37.0500 1084.0000 1.0000
37.0600 1088.0000 1.0000
37.0700 1053.0000 1.0000
37.0800 1104.0000 1.0000
37.0900 1067.0000 1.0000
37.1000 1050.0000 1.0000
37.1100 1066.0000 1.0000
37.1200 1100.0000 1.0000
37.1300 1140.0000 1.0000
37.1400 1059.0000 1.0000
37.1500 1096.0000 1.0000
37.1600 1121.0000 1.0000
37.1700 1082.0000 1.0000
37.1800 1063.0000 1.0000
37.1900 1057.0000 1.0000
37.2000 1039.0000 1.0000
37.2100 1076.0000 1.0000
37.2200 1107.0000 1.0000
37.2300 1085.0000 1.0000
37.2400 1083.0000 1.0000
37.2500 1052.0000 1.0000
37.2600 1052.0000 1.0000
37.2700 1088.0000 1.0000
37.2800 1095.0000 1.0000
37.2900 1036.0000 1.0000
37.3000 1033.0000 1.0000
37.3100 1146.0000 1.0000
37.3200 1127.0000 1.0000
37.3300 1084.0000 1.0000
37.3400 1096.0000 1.0000
37.3500 1074.0000 1.0000
37.3600 1061.0000 1.0000
37.3700 1057.0000 1.0000
37.3800 1129.0000 1.0000
37.3900 1079.0000 1.0000
37.4000 1099.0000 1.0000
37.4100 1086.0000 1.0000
37.4200 1104.0000 1.0000
37.4300 1055.0000 1.0000
37.4400 1077.0000 1.0000
37.4500 1060.0000 1.0000
37.4600 1079.0000 1.0000
37.4700 1063.0000 1.0000
37.4800 1085.0000 1.0000
37.4900 1077.0000 1.0000
37.5000 1072.0000 1.0000
37.5100 1030.0000 1.0000
37.5200 1038.0000 1.0000
37.5300 1065.0000 1.0000
37.5400 1044.0000 1.0000
37.5500 1084.0000 1.0000
37.5600 1081.0000 1.0000
37.5700 1061.0000 1.0000
37.5800 1086.0000 1.0000
37.5900 1073.0000 1.0000
37.6000 1087.0000 1.0000
37.6100 1089.0000 1.0000
37.6200 1078.0000 1.0000
37.6300 1060.0000 1.0000
37.6400 1025.0000 1.0000
37.6500 1150.0000 1.0000
37.6600 1119.0000 1.0000
37.6700 1047.0000 1.0000
37.6800 1106.0000 1.0000
37.6900 1032.0000 1.0000
37.7000 1062.0000 1.0000
37.7100 1132.0000 1.0000
37.7200 1130.0000 1.0000
37.7300 1114.0000 1.0000
37.7400 1127.0000 1.0000
37.7500 1136.0000 1.0000
37.7600 1066.0000 1.0000
37.7700 1077.0000 1.0000
37.7800 1098.0000 1.0000
37.7900 1113.0000 1.0000
37.8000 1064.0000 1.0000
37.8100 1089.0000 1.0000
37.8200 1095.0000 1.0000
37.8300 1115.0000 1.0000
37.8400 1097.0000 1.0000
37.8500 1086.0000 1.0000
37.8600 1097.0000 1.0000
37.8700 1094.0000 1.0000
37.8800 1122.0000 1.0000
37.8900 1148.0000 1.0000
37.9000 1093.0000 1.0000
37.9100 1088.0000 1.0000
37.9200 1066.0000 1.0000
37.9300 1078.0000 1.0000
37.9400 1094.0000 1.0000
37.9500 1067.0000 1.0000
37.9600 1071.0000 1.0000
37.9700 1121.0000 1.0000
37.9800 1120.0000 1.0000
37.9900 1151.0000 1.0000
38.0000 1144.0000 1.0000
38.0100 1113.0000 1.0000
38.0200 1141.0000 1.0000
38.0300 1112.0000 1.0000
38.0400 1151.0000 1.0000
38.0500 1117.0000 1.0000
38.0600 1156.0000 1.0000
38.0700 1205.0000 1.0000
38.0800 1143.0000 1.0000
38.0900 1160.0000 1.0000
38.1000 1153.0000 1.0000
38.1100 1195.0000 1.0000
38.1200 1206.0000 1.0000
38.1300 1196.0000 1.0000
38.1400 1263.0000 1.0000
38.1500 1250.0000 1.0000
38.1600 1249.0000 1.0000
38.1700 1231.0000 1.0000
38.1800 1268.0000 1.0000
38.1900 1316.0000 1.0000
38.2000 1299.0000 1.0000
38.2100 1324.0000 1.0000
38.2200 1372.0000 1.0000
38.2300 1346.0000 1.0000
38.2400 1531.0000 1.0000
38.2500 1468.0000 1.0000
38.2600 1449.0000 1.0000
38.2700 1552.0000 1.0000
38.2800 1586.0000 1.0000
38.2900 1672.0000 1.0000
38.3000 1650.0000 1.0000
38.3100 1767.0000 1.0000
38.3200 1810.0000 1.0000
38.3300 1841.0000 1.0000
38.3400 1920.0000 1.0000
38.3500 1964.0000 1.0000
38.3600 2062.0000 1.0000
38.3700 2146.0000 1.0000
38.3800 2254.0000 1.0000
38.3900 2384.0000 1.0000
38.4000 2591.0000 1.0000
38.4100 2709.0000 1.0000
38.4200 2822.0000 1.0000
38.4300 3053.0000 1.0000
38.4400 3195.0000 1.0000
38.4500 3446.0000 1.0000
38.4600 3655.0000 1.0000
38.4700 3904.0000 1.0000
38.4800 4174.0000 1.0000
38.4900 4516.0000 1.0000
38.5000 4709.0000 1.0000
38.5100 5137.0000 1.0000
38.5200 5395.0000 1.0000
38.5300 5910.0000 1.0000
38.5400 6164.0000 1.0000
38.5500 6487.0000 1.0000
38.5600 6599.0000 1.0000
38.5700 6853.0000 1.0000
38.5800 7045.0000 1.0000
38.5900 7061.0000 1.0000
38.6000 7036.0000 1.0000
38.6100 7146.0000 1.0000
38.6200 7091.0000 1.0000
38.6300 6889.0000 1.0000
38.6400 6860.0000 1.0000
38.6500 6547.0000 1.0000
38.6600 6374.0000 1.0000
38.6700 6107.0000 1.0000
38.6800 5940.0000 1.0000
38.6900 5703.0000 1.0000
38.7000 5304.0000 1.0000
38.7100 5022.0000 1.0000
38.7200 4762.0000 1.0000
38.7300 4507.0000 1.0000
38.7400 4273.0000 1.0000
38.7500 3830.0000 1.0000
38.7600 3541.0000 1.0000
38.7700 3432.0000 1.0000
38.7800 3242.0000 1.0000
38.7900 3008.0000 1.0000
38.8000 2832.0000 1.0000
38.8100 2687.0000 1.0000
38.8200 2498.0000 1.0000
38.8300 2354.0000 1.0000
38.8400 2140.0000 1.0000
38.8500 2134.0000 1.0000
38.8600 2042.0000 1.0000
38.8700 1909.0000 1.0000
38.8800 1773.0000 1.0000
38.8900 1663.0000 1.0000
38.9000 1612.0000 1.0000
38.9100 1680.0000 1.0000
38.9200 1583.0000 1.0000
38.9300 1537.0000 1.0000
38.9400 1482.0000 1.0000
38.9500 1401.0000 1.0000
38.9600 1356.0000 1.0000
38.9700 1329.0000 1.0000
38.9800 1291.0000 1.0000
38.9900 1250.0000 1.0000
39.0000 1239.0000 1.0000
39.0100 1258.0000 1.0000
39.0200 1208.0000 1.0000
39.0300 1172.0000 1.0000
39.0400 1147.0000 1.0000
39.0500 1139.0000 1.0000
39.0600 1142.0000 1.0000
39.0700 1145.0000 1.0000
39.0800 1111.0000 1.0000
39.0900 1130.0000 1.0000
39.1000 1139.0000 1.0000
39.1100 1067.0000 1.0000
39.1200 1061.0000 1.0000
39.1300 1073.0000 1.0000
39.1400 1073.0000 1.0000
39.1500 1053.0000 1.0000
39.1600 1037.0000 1.0000
39.1700 1029.0000 1.0000
39.1800 1070.0000 1.0000
39.1900 1019.0000 1.0000
39.2000 1041.0000 1.0000
39.2100 1028.0000 1.0000
39.2200 1045.0000 1.0000
39.2300 1035.0000 1.0000
39.2400 1054.0000 1.0000
39.2500 977.0000 1.0000
39.2600 1011.0000 1.0000
39.2700 1072.0000 1.0000
39.2800 1030.0000 1.0000
39.2900 981.0000 1.0000
39.3000 1049.0000 1.0000
39.3100 1035.0000 1.0000
39.3200 980.0000 1.0000
39.3300 960.0000 1.0000
39.3400 982.0000 1.0000
39.3500 1046.0000 1.0000
39.3600 1017.0000 1.0000
39.3700 986.0000 1.0000
39.3800 1008.0000 1.0000
39.3900 979.0000 1.0000
39.4000 1043.0000 1.0000
39.4100 972.0000 1.0000
39.4200 979.0000 1.0000
39.4300 1040.0000 1.0000
39.4400 1018.0000 1.0000
39.4500 972.0000 1.0000
39.4600 961.0000 1.0000
39.4700 1026.0000 1.0000
39.4800 1000.0000 1.0000
39.4900 1042.0000 1.0000
39.5000 989.0000 1.0000
39.5100 984.0000 1.0000
39.5200 989.0000 1.0000
39.5300 984.0000 1.0000
39.5400 998.0000 1.0000
39.5500 1002.0000 1.0000
39.5600 999.0000 1.0000
39.5700 1023.0000 1.0000
39.5800 1046.0000 1.0000
39.5900 1033.0000 1.0000
39.6000 1053.0000 1.0000
39.6100 1017.0000 1.0000
39.6200 1007.0000 1.0000
39.6300 977.0000 1.0000
39.6400 1012.0000 1.0000
39.6500 1024.0000 1.0000
39.6600 1036.0000 1.0000
39.6700 1006.0000 1.0000
39.6800 1036.0000 1.0000
39.6900 1017.0000 1.0000
39.7000 1003.0000 1.0000
39.7100 994.0000 1.0000
39.7200 995.0000 1.0000
39.7300 995.0000 1.0000
39.7400 1003.0000 1.0000
39.7500 1014.0000 1.0000
39.7600 1018.0000 1.0000
39.7700 999.0000 1.0000
39.7800 955.0000 1.0000
39.7900 977.0000 1.0000
39.8000 957.0000 1.0000
39.8100 1005.0000 1.0000
39.8200 934.0000 1.0000
39.8300 946.0000 1.0000
39.8400 960.0000 1.0000
39.8500 976.0000 1.0000
39.8600 996.0000 1.0000
39.8700 941.0000 1.0000
39.8800 936.0000 1.0000
39.8900 930.0000 1.0000
39.9000 941.0000 1.0000
39.9100 888.0000 1.0000
39.9200 966.0000 1.0000
39.9300 896.0000 1.0000
39.9400 924.0000 1.0000
39.9500 999.0000 1.0000
39.9600 929.0000 1.0000
39.9700 935.0000 1.0000
39.9800 914.0000 1.0000
39.9900 939.0000 1.0000
40.0000 928.0000 1.0000
40.0100 932.0000 1.0000
40.0200 906.0000 1.0000
40.0300 923.0000 1.0000
40.0400 896.0000 1.0000
40.0500 929.0000 1.0000
40.0600 939.0000 1.0000
40.0700 948.0000 1.0000
40.0800 987.0000 1.0000
40.0900 895.0000 1.0000
40.1000 920.0000 1.0000
40.1100 927.0000 1.0000
40.1200 973.0000 1.0000
40.1300 923.0000 1.0000
40.1400 922.0000 1.0000
40.1500 931.0000 1.0000
40.1600 957.0000 1.0000
40.1700 938.0000 1.0000
40.1800 907.0000 1.0000
40.1900 948.0000 1.0000
40.2000 931.0000 1.0000
40.2100 909.0000 1.0000
40.2200 919.0000 1.0000
40.2300 894.0000 1.0000
40.2400 912.0000 1.0000
40.2500 920.0000 1.0000
40.2600 901.0000 1.0000
40.2700 922.0000 1.0000
40.2800 927.0000 1.0000
40.2900 908.0000 1.0000
40.3000 928.0000 1.0000
40.3100 912.0000 1.0000
40.3200 926.0000 1.0000
40.3300 927.0000 1.0000
40.3400 894.0000 1.0000
40.3500 912.0000 1.0000
40.3600 873.0000 1.0000
40.3700 901.0000 1.0000
40.3800 927.0000 1.0000
40.3900 910.0000 1.0000
40.4000 883.0000 1.0000
40.4100 906.0000 1.0000
40.4200 915.0000 1.0000
40.4300 922.0000 1.0000
40.4400 959.0000 1.0000
40.4500 880.0000 1.0000
40.4600 905.0000 1.0000
40.4700 875.0000 1.0000
40.4800 901.0000 1.0000
40.4900 887.0000 1.0000
40.5000 867.0000 1.0000
40.5100 915.0000 1.0000
40.5200 892.0000 1.0000
40.5300 950.0000 1.0000
40.5400 900.0000 1.0000
40.5500 945.0000 1.0000
40.5600 898.0000 1.0000
40.5700 917.0000 1.0000
40.5800 928.0000 1.0000
40.5900 866.0000 1.0000
40.6000 886.0000 1.0000
40.6100 889.0000 1.0000
40.6200 914.0000 1.0000
40.6300 885.0000 1.0000
40.6400 892.0000 1.0000
40.6500 902.0000 1.0000
40.6600 877.0000 1.0000
40.6700 869.0000 1.0000
40.6800 864.0000 1.0000
40.6900 910.0000 1.0000
40.7000 868.0000 1.0000
40.7100 900.0000 1.0000
40.7200 884.0000 1.0000
40.7300 884.0000 1.0000
40.7400 864.0000 1.0000
40.7500 877.0000 1.0000
40.7600 911.0000 1.0000
40.7700 894.0000 1.0000
40.7800 901.0000 1.0000
40.7900 891.0000 1.0000
40.8000 850.0000 1.0000
40.8100 891.0000 1.0000
40.8200 845.0000 1.0000
40.8300 860.0000 1.0000
40.8400 895.0000 1.0000
40.8500 897.0000 1.0000
40.8600 912.0000 1.0000
40.8700 869.0000 1.0000
40.8800 892.0000 1.0000
40.8900 850.0000 1.0000
40.9000 910.0000 1.0000
40.9100 908.0000 1.0000
40.9200 885.0000 1.0000
40.9300 874.0000 1.0000
40.9400 884.0000 1.0000
40.9500 912.0000 1.0000
40.9600 889.0000 1.0000
40.9700 861.0000 1.0000
40.9800 853.0000 1.0000
40.9900 883.0000 1.0000
41.0000 911.0000 1.0000
41.0100 896.0000 1.0000
41.0200 873.0000 1.0000
41.0300 853.0000 1.0000
41.0400 847.0000 1.0000
41.0500 869.0000 1.0000
41.0600 950.0000 1.0000
41.0700 867.0000 1.0000
41.0800 868.0000 1.0000
41.0900 849.0000 1.0000
41.1000 831.0000 1.0000
41.1100 894.0000 1.0000
41.1200 904.0000 1.0000
41.1300 889.0000 1.0000
41.1400 885.0000 1.0000
41.1500 907.0000 1.0000
41.1600 908.0000 1.0000
41.1700 853.0000 1.0000
41.1800 908.0000 1.0000
41.1900 918.0000 1.0000
41.2000 839.0000 1.0000
41.2100 855.0000 1.0000
41.2200 832.0000 1.0000
41.2300 850.0000 1.0000
41.2400 902.0000 1.0000
41.2500 883.0000 1.0000
41.2600 872.0000 1.0000
41.2700 893.0000 1.0000
41.2800 879.0000 1.0000
41.2900 885.0000 1.0000
41.3000 868.0000 1.0000
41.3100 834.0000 1.0000
41.3200 903.0000 1.0000
41.3300 949.0000 1.0000
41.3400 930.0000 1.0000
41.3500 896.0000 1.0000
41.3600 839.0000 1.0000
41.3700 838.0000 1.0000
41.3800 869.0000 1.0000
41.3900 894.0000 1.0000
41.4000 879.0000 1.0000
41.4100 865.0000 1.0000
41.4200 875.0000 1.0000
41.4300 849.0000 1.0000
41.4400 835.0000 1.0000
41.4500 925.0000 1.0000
41.4600 907.0000 1.0000
41.4700 894.0000 1.0000
41.4800 893.0000 1.0000
41.4900 874.0000 1.0000
41.5000 953.0000 1.0000
41.5100 925.0000 1.0000
41.5200 840.0000 1.0000
41.5300 871.0000 1.0000
41.5400 885.0000 1.0000
41.5500 954.0000 1.0000
41.5600 888.0000 1.0000
41.5700 880.0000 1.0000
41.5800 863.0000 1.0000
41.5900 891.0000 1.0000
41.6000 908.0000 1.0000
41.6100 880.0000 1.0000
41.6200 879.0000 1.0000
41.6300 848.0000 1.0000
41.6400 919.0000 1.0000
41.6500 879.0000 1.0000
41.6600 922.0000 1.0000
41.6700 910.0000 1.0000
41.6800 939.0000 1.0000
41.6900 868.0000 1.0000
41.7000 913.0000 1.0000
41.7100 890.0000 1.0000
41.7200 889.0000 1.0000
41.7300 884.0000 1.0000
41.7400 917.0000 1.0000
41.7500 888.0000 1.0000
41.7600 894.0000 1.0000
41.7700 853.0000 1.0000
41.7800 883.0000 1.0000
41.7900 933.0000 1.0000
41.8000 885.0000 1.0000
41.8100 915.0000 1.0000
41.8200 902.0000 1.0000
41.8300 932.0000 1.0000
41.8400 944.0000 1.0000
41.8500 883.0000 1.0000
41.8600 900.0000 1.0000
41.8700 843.0000 1.0000
41.8800 860.0000 1.0000
41.8900 860.0000 1.0000
41.9000 871.0000 1.0000
41.9100 904.0000 1.0000
41.9200 876.0000 1.0000
41.9300 831.0000 1.0000
41.9400 877.0000 1.0000
41.9500 855.0000 1.0000
41.9600 876.0000 1.0000
41.9700 866.0000 1.0000
41.9800 876.0000 1.0000
41.9900 851.0000 1.0000
42.0000 894.0000 1.0000
42.0100 893.0000 1.0000
42.0200 829.0000 1.0000
42.0300 891.0000 1.0000
42.0400 844.0000 1.0000
42.0500 869.0000 1.0000
42.0600 882.0000 1.0000
42.0700 903.0000 1.0000
42.0800 862.0000 1.0000
42.0900 864.0000 1.0000
42.1000 860.0000 1.0000
42.1100 896.0000 1.0000
42.1200 888.0000 1.0000
42.1300 850.0000 1.0000
42.1400 892.0000 1.0000
42.1500 864.0000 1.0000
42.1600 918.0000 1.0000
42.1700 874.0000 1.0000
42.1800 885.0000 1.0000
42.1900 868.0000 1.0000
42.2000 851.0000 1.0000
42.2100 847.0000 1.0000
42.2200 864.0000 1.0000
42.2300 868.0000 1.0000
42.2400 852.0000 1.0000
42.2500 844.0000 1.0000
42.2600 883.0000 1.0000
42.2700 910.0000 1.0000
42.2800 885.0000 1.0000
42.2900 862.0000 1.0000
42.3000 873.0000 1.0000
42.3100 920.0000 1.0000
42.3200 859.0000 1.0000
42.3300 881.0000 1.0000
42.3400 844.0000 1.0000
42.3500 846.0000 1.0000
42.3600 893.0000 1.0000
42.3700 872.0000 1.0000
42.3800 889.0000 1.0000
42.3900 853.0000 1.0000
42.4000 864.0000 1.0000
42.4100 863.0000 1.0000
42.4200 856.0000 1.0000
42.4300 895.0000 1.0000
42.4400 897.0000 1.0000
42.4500 802.0000 1.0000
42.4600 871.0000 1.0000
42.4700 893.0000 1.0000
42.4800 837.0000 1.0000
42.4900 868.0000 1.0000
42.5000 862.0000 1.0000
42.5100 868.0000 1.0000
42.5200 865.0000 1.0000
42.5300 842.0000 1.0000
42.5400 861.0000 1.0000
42.5500 864.0000 1.0000
42.5600 858.0000 1.0000
42.5700 844.0000 1.0000
42.5800 844.0000 1.0000
42.5900 863.0000 1.0000
42.6000 866.0000 1.0000
42.6100 824.0000 1.0000
42.6200 866.0000 1.0000
42.6300 827.0000 1.0000
42.6400 890.0000 1.0000
42.6500 871.0000 1.0000
42.6600 860.0000 1.0000
42.6700 894.0000 1.0000
42.6800 897.0000 1.0000
42.6900 868.0000 1.0000
42.7000 896.0000 1.0000
42.7100 874.0000 1.0000
42.7200 893.0000 1.0000
42.7300 838.0000 1.0000
42.7400 852.0000 1.0000
42.7500 829.0000 1.0000
42.7600 893.0000 1.0000
42.7700 873.0000 1.0000
42.7800 853.0000 1.0000
42.7900 862.0000 1.0000
42.8000 876.0000 1.0000
42.8100 846.0000 1.0000
42.8200 896.0000 1.0000
42.8300 858.0000 1.0000
42.8400 894.0000 1.0000
42.8500 850.0000 1.0000
42.8600 891.0000 1.0000
42.8700 928.0000 1.0000
42.8800 876.0000 1.0000
42.8900 857.0000 1.0000
42.9000 854.0000 1.0000
42.9100 845.0000 1.0000
42.9200 873.0000 1.0000
42.9300 869.0000 1.0000
42.9400 883.0000 1.0000
42.9500 820.0000 1.0000
42.9600 886.0000 1.0000
42.9700 830.0000 1.0000
42.9800 896.0000 1.0000
42.9900 904.0000 1.0000
43.0000 859.0000 1.0000
43.0100 866.0000 1.0000
43.0200 836.0000 1.0000
43.0300 894.0000 1.0000
43.0400 892.0000 1.0000
43.0500 900.0000 1.0000
43.0600 827.0000 1.0000
43.0700 838.0000 1.0000
43.0800 873.0000 1.0000
43.0900 821.0000 1.0000
43.1000 913.0000 1.0000
43.1100 883.0000 1.0000
43.1200 911.0000 1.0000
43.1300 881.0000 1.0000
43.1400 883.0000 1.0000
43.1500 927.0000 1.0000
43.1600 906.0000 1.0000
43.1700 917.0000 1.0000
43.1800 901.0000 1.0000
43.1900 909.0000 1.0000
43.2000 913.0000 1.0000
43.2100 910.0000 1.0000
43.2200 919.0000 1.0000
43.2300 941.0000 1.0000
43.2400 930.0000 1.0000
43.2500 982.0000 1.0000
43.2600 955.0000 1.0000
43.2700 942.0000 1.0000
43.2800 912.0000 1.0000
43.2900 972.0000 1.0000
43.3000 962.0000 1.0000
43.3100 945.0000 1.0000
43.3200 995.0000 1.0000
43.3300 950.0000 1.0000
43.3400 911.0000 1.0000
43.3500 925.0000 1.0000
43.3600 929.0000 1.0000
43.3700 906.0000 1.0000
43.3800 930.0000 1.0000
43.3900 919.0000 1.0000
43.4000 885.0000 1.0000
43.4100 959.0000 1.0000
43.4200 882.0000 1.0000
43.4300 929.0000 1.0000
43.4400 931.0000 1.0000
43.4500 889.0000 1.0000
43.4600 898.0000 1.0000
43.4700 853.0000 1.0000
43.4800 891.0000 1.0000
43.4900 804.0000 1.0000
43.5000 879.0000 1.0000
43.5100 888.0000 1.0000
43.5200 886.0000 1.0000
43.5300 903.0000 1.0000
43.5400 863.0000 1.0000
43.5500 881.0000 1.0000
43.5600 860.0000 1.0000
43.5700 840.0000 1.0000
43.5800 865.0000 1.0000
43.5900 851.0000 1.0000
43.6000 873.0000 1.0000
43.6100 861.0000 1.0000
43.6200 847.0000 1.0000
43.6300 852.0000 1.0000
43.6400 858.0000 1.0000
43.6500 877.0000 1.0000
43.6600 875.0000 1.0000
43.6700 828.0000 1.0000
43.6800 852.0000 1.0000
43.6900 870.0000 1.0000
43.7000 867.0000 1.0000
43.7100 865.0000 1.0000
43.7200 868.0000 1.0000
43.7300 810.0000 1.0000
43.7400 852.0000 1.0000
43.7500 823.0000 1.0000
43.7600 892.0000 1.0000
43.7700 847.0000 1.0000
43.7800 813.0000 1.0000
43.7900 878.0000 1.0000
43.8000 923.0000 1.0000
43.8100 861.0000 1.0000
43.8200 846.0000 1.0000
43.8300 868.0000 1.0000
43.8400 832.0000 1.0000
43.8500 827.0000 1.0000
43.8600 824.0000 1.0000
43.8700 802.0000 1.0000
43.8800 854.0000 1.0000
43.8900 843.0000 1.0000
43.9000 862.0000 1.0000
43.9100 867.0000 1.0000
43.9200 852.0000 1.0000
43.9300 853.0000 1.0000
43.9400 875.0000 1.0000
43.9500 807.0000 1.0000
43.9600 859.0000 1.0000
43.9700 831.0000 1.0000
43.9800 822.0000 1.0000
43.9900 838.0000 1.0000
44.0000 808.0000 1.0000
44.0100 841.0000 1.0000
44.0200 859.0000 1.0000
44.0300 893.0000 1.0000
44.0400 818.0000 1.0000
44.0500 802.0000 1.0000
44.0600 852.0000 1.0000
44.0700 869.0000 1.0000
44.0800 848.0000 1.0000
44.0900 838.0000 1.0000
44.1000 872.0000 1.0000
44.1100 826.0000 1.0000
44.1200 839.0000 1.0000
44.1300 832.0000 1.0000
44.1400 875.0000 1.0000
44.1500 875.0000 1.0000
44.1600 828.0000 1.0000
44.1700 886.0000 1.0000
44.1800 838.0000 1.0000
44.1900 797.0000 1.0000
44.2000 799.0000 1.0000
44.2100 813.0000 1.0000
44.2200 853.0000 1.0000
44.2300 807.0000 1.0000
44.2400 816.0000 1.0000
44.2500 883.0000 1.0000
44.2600 831.0000 1.0000
44.2700 842.0000 1.0000
44.2800 842.0000 1.0000
44.2900 870.0000 1.0000
44.3000 836.0000 1.0000
44.3100 849.0000 1.0000
44.3200 863.0000 1.0000
44.3300 889.0000 1.0000
44.3400 874.0000 1.0000
44.3500 877.0000 1.0000
44.3600 888.0000 1.0000
44.3700 851.0000 1.0000
44.3800 873.0000 1.0000
44.3900 912.0000 1.0000
44.4000 842.0000 1.0000
44.4100 814.0000 1.0000
44.4200 833.0000 1.0000
44.4300 866.0000 1.0000
44.4400 856.0000 1.0000
44.4500 865.0000 1.0000
44.4600 839.0000 1.0000
44.4700 899.0000 1.0000
44.4800 837.0000 1.0000
44.4900 834.0000 1.0000
44.5000 790.0000 1.0000
44.5100 846.0000 1.0000
44.5200 832.0000 1.0000
44.5300 823.0000 1.0000
44.5400 850.0000 1.0000
44.5500 821.0000 1.0000
44.5600 807.0000 1.0000
44.5700 859.0000 1.0000
44.5800 837.0000 1.0000
44.5900 838.0000 1.0000
44.6000 814.0000 1.0000
44.6100 813.0000 1.0000
44.6200 848.0000 1.0000
44.6300 829.0000 1.0000
44.6400 804.0000 1.0000
44.6500 831.0000 1.0000
44.6600 822.0000 1.0000
44.6700 848.0000 1.0000
44.6800 825.0000 1.0000
44.6900 818.0000 1.0000
44.7000 803.0000 1.0000
44.7100 840.0000 1.0000
44.7200 822.0000 1.0000
44.7300 777.0000 1.0000
44.7400 798.0000 1.0000
44.7500 802.0000 1.0000
44.7600 841.0000 1.0000
44.7700 814.0000 1.0000
44.7800 821.0000 1.0000
44.7900 826.0000 1.0000
44.8000 819.0000 1.0000
44.8100 838.0000 1.0000
44.8200 867.0000 1.0000
44.8300 782.0000 1.0000
44.8400 828.0000 1.0000
44.8500 837.0000 1.0000
44.8600 814.0000 1.0000
44.8700 883.0000 1.0000
44.8800 779.0000 1.0000
44.8900 845.0000 1.0000
44.9000 844.0000 1.0000
44.9100 789.0000 1.0000
44.9200 829.0000 1.0000
44.9300 788.0000 1.0000
44.9400 792.0000 1.0000
44.9500 863.0000 1.0000
44.9600 860.0000 1.0000
44.9700 822.0000 1.0000
44.9800 823.0000 1.0000
44.9900 780.0000 1.0000
45.0000 842.0000 1.0000
45.0100 798.0000 1.0000
45.0200 798.0000 1.0000
45.0300 817.0000 1.0000
45.0400 789.0000 1.0000
45.0500 807.0000 1.0000
45.0600 784.0000 1.0000
45.0700 847.0000 1.0000
45.0800 808.0000 1.0000
45.0900 831.0000 1.0000
45.1000 758.0000 1.0000
45.1100 835.0000 1.0000
45.1200 839.0000 1.0000
45.1300 857.0000 1.0000
45.1400 813.0000 1.0000
45.1500 812.0000 1.0000
45.1600 805.0000 1.0000
45.1700 817.0000 1.0000
45.1800 822.0000 1.0000
45.1900 825.0000 1.0000
45.2000 830.0000 1.0000
45.2100 818.0000 1.0000
45.2200 779.0000 1.0000
45.2300 828.0000 1.0000
45.2400 827.0000 1.0000
45.2500 806.0000 1.0000
45.2600 842.0000 1.0000
45.2700 801.0000 1.0000
45.2800 815.0000 1.0000
45.2900 809.0000 1.0000
45.3000 842.0000 1.0000
45.3100 830.0000 1.0000
45.3200 848.0000 1.0000
45.3300 809.0000 1.0000
45.3400 831.0000 1.0000
45.3500 844.0000 1.0000
45.3600 820.0000 1.0000
45.3700 814.0000 1.0000
45.3800 792.0000 1.0000
45.3900 792.0000 1.0000
45.4000 802.0000 1.0000
45.4100 813.0000 1.0000
45.4200 826.0000 1.0000
45.4300 794.0000 1.0000
45.4400 764.0000 1.0000
45.4500 767.0000 1.0000
45.4600 803.0000 1.0000
45.4700 803.0000 1.0000
45.4800 811.0000 1.0000
45.4900 802.0000 1.0000
45.5000 861.0000 1.0000
45.5100 785.0000 1.0000
45.5200 820.0000 1.0000
45.5300 812.0000 1.0000
45.5400 802.0000 1.0000
45.5500 802.0000 1.0000
45.5600 768.0000 1.0000
45.5700 779.0000 1.0000
45.5800 797.0000 1.0000
45.5900 820.0000 1.0000
45.6000 785.0000 1.0000
45.6100 789.0000 1.0000
45.6200 801.0000 1.0000
45.6300 828.0000 1.0000
45.6400 804.0000 1.0000
45.6500 828.0000 1.0000
45.6600 864.0000 1.0000
45.6700 807.0000 1.0000
45.6800 777.0000 1.0000
45.6900 784.0000 1.0000
45.7000 764.0000 1.0000
45.7100 725.0000 1.0000
45.7200 778.0000 1.0000
45.7300 758.0000 1.0000
45.7400 795.0000 1.0000
45.7500 808.0000 1.0000
45.7600 797.0000 1.0000
45.7700 763.0000 1.0000
45.7800 840.0000 1.0000
45.7900 806.0000 1.0000
45.8000 793.0000 1.0000
45.8100 799.0000 1.0000
45.8200 815.0000 1.0000
45.8300 808.0000 1.0000
45.8400 773.0000 1.0000
45.8500 817.0000 1.0000
45.8600 758.0000 1.0000
45.8700 845.0000 1.0000
45.8800 819.0000 1.0000
45.8900 805.0000 1.0000
45.9000 795.0000 1.0000
45.9100 775.0000 1.0000
45.9200 760.0000 1.0000
45.9300 811.0000 1.0000
45.9400 812.0000 1.0000
45.9500 811.0000 1.0000
45.9600 823.0000 1.0000
45.9700 792.0000 1.0000
45.9800 752.0000 1.0000
45.9900 774.0000 1.0000
46.0000 746.0000 1.0000
46.0100 765.0000 1.0000
46.0200 750.0000 1.0000
46.0300 833.0000 1.0000
46.0400 790.0000 1.0000
46.0500 779.0000 1.0000
46.0600 798.0000 1.0000
46.0700 766.0000 1.0000
46.0800 755.0000 1.0000
46.0900 807.0000 1.0000
46.1000 798.0000 1.0000
46.1100 797.0000 1.0000
46.1200 780.0000 1.0000
46.1300 751.0000 1.0000
46.1400 801.0000 1.0000
46.1500 800.0000 1.0000
46.1600 739.0000 1.0000
46.1700 813.0000 1.0000
46.1800 891.0000 1.0000
46.1900 801.0000 1.0000
46.2000 845.0000 1.0000
46.2100 788.0000 1.0000
46.2200 778.0000 1.0000
46.2300 794.0000 1.0000
46.2400 812.0000 1.0000
46.2500 801.0000 1.0000
46.2600 776.0000 1.0000
46.2700 809.0000 1.0000
46.2800 787.0000 1.0000
46.2900 778.0000 1.0000
46.3000 793.0000 1.0000
46.3100 791.0000 1.0000
46.3200 811.0000 1.0000
46.3300 790.0000 1.0000
46.3400 788.0000 1.0000
46.3500 828.0000 1.0000
46.3600 776.0000 1.0000
46.3700 791.0000 1.0000
46.3800 797.0000 1.0000
46.3900 757.0000 1.0000
46.4000 798.0000 1.0000
46.4100 804.0000 1.0000
46.4200 807.0000 1.0000
46.4300 760.0000 1.0000
46.4400 762.0000 1.0000
46.4500 769.0000 1.0000
46.4600 801.0000 1.0000
46.4700 758.0000 1.0000
46.4800 803.0000 1.0000
46.4900 750.0000 1.0000
46.5000 783.0000 1.0000
46.5100 805.0000 1.0000
46.5200 805.0000 1.0000
46.5300 773.0000 1.0000
46.5400 776.0000 1.0000
46.5500 827.0000 1.0000
46.5600 804.0000 1.0000
46.5700 762.0000 1.0000
46.5800 801.0000 1.0000
46.5900 821.0000 1.0000
46.6000 786.0000 1.0000
46.6100 815.0000 1.0000
46.6200 790.0000 1.0000
46.6300 780.0000 1.0000
46.6400 807.0000 1.0000
46.6500 785.0000 1.0000
46.6600 809.0000 1.0000
46.6700 802.0000 1.0000
46.6800 750.0000 1.0000
46.6900 741.0000 1.0000
46.7000 774.0000 1.0000
46.7100 741.0000 1.0000
46.7200 744.0000 1.0000
46.7300 850.0000 1.0000
46.7400 755.0000 1.0000
46.7500 794.0000 1.0000
46.7600 783.0000 1.0000
46.7700 778.0000 1.0000
46.7800 806.0000 1.0000
46.7900 804.0000 1.0000
46.8000 735.0000 1.0000
46.8100 787.0000 1.0000
46.8200 817.0000 1.0000
46.8300 775.0000 1.0000
46.8400 783.0000 1.0000
46.8500 769.0000 1.0000
46.8600 819.0000 1.0000
46.8700 781.0000 1.0000
46.8800 836.0000 1.0000
46.8900 819.0000 1.0000
46.9000 777.0000 1.0000
46.9100 791.0000 1.0000
46.9200 739.0000 1.0000
46.9300 811.0000 1.0000
46.9400 838.0000 1.0000
46.9500 769.0000 1.0000
46.9600 762.0000 1.0000
46.9700 773.0000 1.0000
46.9800 823.0000 1.0000
46.9900 774.0000 1.0000
47.0000 812.0000 1.0000
47.0100 776.0000 1.0000
47.0200 782.0000 1.0000
47.0300 825.0000 1.0000
47.0400 844.0000 1.0000
47.0500 839.0000 1.0000
47.0600 818.0000 1.0000
47.0700 779.0000 1.0000
47.0800 795.0000 1.0000
47.0900 794.0000 1.0000
47.1000 815.0000 1.0000
47.1100 789.0000 1.0000
47.1200 798.0000 1.0000
47.1300 867.0000 1.0000
47.1400 810.0000 1.0000
47.1500 818.0000 1.0000
47.1600 753.0000 1.0000
47.1700 772.0000 1.0000
47.1800 756.0000 1.0000
47.1900 773.0000 1.0000
47.2000 784.0000 1.0000
47.2100 755.0000 1.0000
47.2200 776.0000 1.0000
47.2300 780.0000 1.0000
47.2400 770.0000 1.0000
47.2500 824.0000 1.0000
47.2600 784.0000 1.0000
47.2700 806.0000 1.0000
47.2800 793.0000 1.0000
47.2900 754.0000 1.0000
47.3000 798.0000 1.0000
47.3100 784.0000 1.0000
47.3200 769.0000 1.0000
47.3300 792.0000 1.0000
47.3400 807.0000 1.0000
47.3500 782.0000 1.0000
47.3600 770.0000 1.0000
47.3700 784.0000 1.0000
47.3800 752.0000 1.0000
47.3900 798.0000 1.0000
47.4000 785.0000 1.0000
47.4100 784.0000 1.0000
47.4200 782.0000 1.0000
47.4300 744.0000 1.0000
47.4400 765.0000 1.0000
47.4500 787.0000 1.0000
47.4600 775.0000 1.0000
47.4700 790.0000 1.0000
47.4800 756.0000 1.0000
47.4900 743.0000 1.0000
47.5000 780.0000 1.0000
47.5100 759.0000 1.0000
47.5200 748.0000 1.0000
47.5300 793.0000 1.0000
47.5400 773.0000 1.0000
47.5500 751.0000 1.0000
47.5600 775.0000 1.0000
47.5700 767.0000 1.0000
47.5800 747.0000 1.0000
47.5900 757.0000 1.0000
47.6000 804.0000 1.0000
47.6100 733.0000 1.0000
47.6200 764.0000 1.0000
47.6300 735.0000 1.0000
47.6400 728.0000 1.0000
47.6500 764.0000 1.0000
47.6600 748.0000 1.0000
47.6700 760.0000 1.0000
47.6800 734.0000 1.0000
47.6900 708.0000 1.0000
47.7000 766.0000 1.0000
47.7100 756.0000 1.0000
47.7200 743.0000 1.0000
47.7300 774.0000 1.0000
47.7400 803.0000 1.0000
47.7500 718.0000 1.0000
47.7600 721.0000 1.0000
47.7700 711.0000 1.0000
47.7800 707.0000 1.0000
47.7900 756.0000 1.0000
47.8000 761.0000 1.0000
47.8100 772.0000 1.0000
47.8200 738.0000 1.0000
47.8300 718.0000 1.0000
47.8400 766.0000 1.0000
47.8500 781.0000 1.0000
47.8600 790.0000 1.0000
47.8700 793.0000 1.0000
47.8800 684.0000 1.0000
47.8900 739.0000 1.0000
47.9000 722.0000 1.0000
47.9100 713.0000 1.0000
47.9200 751.0000 1.0000
47.9300 786.0000 1.0000
47.9400 789.0000 1.0000
47.9500 783.0000 1.0000
47.9600 699.0000 1.0000
47.9700 731.0000 1.0000
47.9800 776.0000 1.0000
47.9900 754.0000 1.0000
48.0000 738.0000 1.0000
48.0100 746.0000 1.0000
48.0200 757.0000 1.0000
48.0300 753.0000 1.0000
48.0400 765.0000 1.0000
48.0500 753.0000 1.0000
48.0600 750.0000 1.0000
48.0700 786.0000 1.0000
48.0800 737.0000 1.0000
48.0900 764.0000 1.0000
48.1000 732.0000 1.0000
48.1100 738.0000 1.0000
48.1200 671.0000 1.0000
48.1300 698.0000 1.0000
48.1400 756.0000 1.0000
48.1500 724.0000 1.0000
48.1600 729.0000 1.0000
48.1700 749.0000 1.0000
48.1800 763.0000 1.0000
48.1900 770.0000 1.0000
48.2000 739.0000 1.0000
48.2100 791.0000 1.0000
48.2200 790.0000 1.0000
48.2300 732.0000 1.0000
48.2400 746.0000 1.0000
48.2500 782.0000 1.0000
48.2600 748.0000 1.0000
48.2700 724.0000 1.0000
48.2800 677.0000 1.0000
48.2900 766.0000 1.0000
48.3000 760.0000 1.0000
48.3100 761.0000 1.0000
48.3200 735.0000 1.0000
48.3300 762.0000 1.0000
48.3400 773.0000 1.0000
48.3500 768.0000 1.0000
48.3600 758.0000 1.0000
48.3700 740.0000 1.0000
48.3800 760.0000 1.0000
48.3900 740.0000 1.0000
48.4000 751.0000 1.0000
48.4100 709.0000 1.0000
48.4200 761.0000 1.0000
48.4300 759.0000 1.0000
48.4400 782.0000 1.0000
48.4500 729.0000 1.0000
48.4600 765.0000 1.0000
48.4700 749.0000 1.0000
48.4800 763.0000 1.0000
48.4900 747.0000 1.0000
48.5000 723.0000 1.0000
48.5100 767.0000 1.0000
48.5200 734.0000 1.0000
48.5300 730.0000 1.0000
48.5400 729.0000 1.0000
48.5500 764.0000 1.0000
48.5600 746.0000 1.0000
48.5700 706.0000 1.0000
48.5800 753.0000 1.0000
48.5900 769.0000 1.0000
48.6000 773.0000 1.0000
48.6100 698.0000 1.0000
48.6200 728.0000 1.0000
48.6300 765.0000 1.0000
48.6400 773.0000 1.0000
48.6500 748.0000 1.0000
48.6600 766.0000 1.0000
48.6700 703.0000 1.0000
48.6800 733.0000 1.0000
48.6900 716.0000 1.0000
48.7000 769.0000 1.0000
48.7100 750.0000 1.0000
48.7200 766.0000 1.0000
48.7300 735.0000 1.0000
48.7400 719.0000 1.0000
48.7500 711.0000 1.0000
48.7600 746.0000 1.0000
48.7700 767.0000 1.0000
48.7800 738.0000 1.0000
48.7900 758.0000 1.0000
48.8000 725.0000 1.0000
48.8100 779.0000 1.0000
48.8200 716.0000 1.0000
48.8300 755.0000 1.0000
48.8400 776.0000 1.0000
48.8500 714.0000 1.0000
48.8600 759.0000 1.0000
48.8700 761.0000 1.0000
48.8800 793.0000 1.0000
48.8900 796.0000 1.0000
48.9000 731.0000 1.0000
48.9100 753.0000 1.0000
48.9200 736.0000 1.0000
48.9300 741.0000 1.0000
48.9400 760.0000 1.0000
48.9500 715.0000 1.0000
48.9600 703.0000 1.0000
48.9700 710.0000 1.0000
48.9800 750.0000 1.0000
48.9900 751.0000 1.0000
49.0000 736.0000 1.0000
49.0100 723.0000 1.0000
49.0200 728.0000 1.0000
49.0300 734.0000 1.0000
49.0400 760.0000 1.0000
49.0500 655.0000 1.0000
49.0600 731.0000 1.0000
49.0700 715.0000 1.0000
49.0800 753.0000 1.0000
49.0900 767.0000 1.0000
49.1000 721.0000 1.0000
49.1100 764.0000 1.0000
49.1200 752.0000 1.0000
49.1300 717.0000 1.0000
49.1400 769.0000 1.0000
49.1500 741.0000 1.0000
49.1600 717.0000 1.0000
49.1700 744.0000 1.0000
49.1800 745.0000 1.0000
49.1900 677.0000 1.0000
49.2000 732.0000 1.0000
49.2100 757.0000 1.0000
49.2200 696.0000 1.0000
49.2300 739.0000 1.0000
49.2400 738.0000 1.0000
49.2500 725.0000 1.0000
49.2600 727.0000 1.0000
49.2700 770.0000 1.0000
49.2800 746.0000 1.0000
49.2900 759.0000 1.0000
49.3000 747.0000 1.0000
49.3100 739.0000 1.0000
49.3200 764.0000 1.0000
49.3300 791.0000 1.0000
49.3400 727.0000 1.0000
49.3500 716.0000 1.0000
49.3600 729.0000 1.0000
49.3700 748.0000 1.0000
49.3800 704.0000 1.0000
49.3900 728.0000 1.0000
49.4000 754.0000 1.0000
49.4100 711.0000 1.0000
49.4200 759.0000 1.0000
49.4300 731.0000 1.0000
49.4400 697.0000 1.0000
49.4500 747.0000 1.0000
49.4600 740.0000 1.0000
49.4700 737.0000 1.0000
49.4800 726.0000 1.0000
49.4900 693.0000 1.0000
49.5000 764.0000 1.0000
49.5100 744.0000 1.0000
49.5200 711.0000 1.0000
49.5300 723.0000 1.0000
49.5400 720.0000 1.0000
49.5500 699.0000 1.0000
49.5600 689.0000 1.0000
49.5700 684.0000 1.0000
49.5800 671.0000 1.0000
49.5900 760.0000 1.0000
49.6000 740.0000 1.0000
49.6100 761.0000 1.0000
49.6200 761.0000 1.0000
49.6300 754.0000 1.0000
49.6400 758.0000 1.0000
49.6500 718.0000 1.0000
49.6600 727.0000 1.0000
49.6700 735.0000 1.0000
49.6800 735.0000 1.0000
49.6900 736.0000 1.0000
49.7000 741.0000 1.0000
49.7100 715.0000 1.0000
49.7200 749.0000 1.0000
49.7300 749.0000 1.0000
49.7400 706.0000 1.0000
49.7500 728.0000 1.0000
49.7600 715.0000 1.0000
49.7700 758.0000 1.0000
49.7800 720.0000 1.0000
49.7900 654.0000 1.0000
49.8000 714.0000 1.0000
49.8100 726.0000 1.0000
49.8200 730.0000 1.0000
49.8300 713.0000 1.0000
49.8400 687.0000 1.0000
49.8500 718.0000 1.0000
49.8600 723.0000 1.0000
49.8700 674.0000 1.0000
49.8800 706.0000 1.0000
49.8900 706.0000 1.0000
49.9000 765.0000 1.0000
49.9100 745.0000 1.0000
49.9200 724.0000 1.0000
49.9300 740.0000 1.0000
49.9400 715.0000 1.0000
49.9500 721.0000 1.0000
49.9600 752.0000 1.0000
49.9700 738.0000 1.0000
49.9800 731.0000 1.0000
49.9900 739.0000 1.0000
50.0000 717.0000 1.0000
50.0100 722.0000 1.0000
50.0200 746.0000 1.0000
50.0300 697.0000 1.0000
50.0400 736.0000 1.0000
50.0500 734.0000 1.0000
50.0600 715.0000 1.0000
50.0700 755.0000 1.0000
50.0800 705.0000 1.0000
50.0900 695.0000 1.0000
50.1000 760.0000 1.0000
50.1100 729.0000 1.0000
50.1200 768.0000 1.0000
50.1300 769.0000 1.0000
50.1400 751.0000 1.0000
50.1500 774.0000 1.0000
50.1600 700.0000 1.0000
50.1700 716.0000 1.0000
50.1800 768.0000 1.0000
50.1900 762.0000 1.0000
50.2000 817.0000 1.0000
50.2100 749.0000 1.0000
50.2200 751.0000 1.0000
50.2300 756.0000 1.0000
50.2400 742.0000 1.0000
50.2500 801.0000 1.0000
50.2600 828.0000 1.0000
50.2700 803.0000 1.0000
50.2800 794.0000 1.0000
50.2900 783.0000 1.0000
50.3000 769.0000 1.0000
50.3100 751.0000 1.0000
50.3200 744.0000 1.0000
50.3300 785.0000 1.0000
50.3400 788.0000 1.0000
50.3500 829.0000 1.0000
50.3600 750.0000 1.0000
50.3700 724.0000 1.0000
50.3800 757.0000 1.0000
50.3900 768.0000 1.0000
50.4000 783.0000 1.0000
50.4100 811.0000 1.0000
50.4200 769.0000 1.0000
50.4300 773.0000 1.0000
50.4400 760.0000 1.0000
50.4500 743.0000 1.0000
50.4600 743.0000 1.0000
50.4700 786.0000 1.0000
50.4800 765.0000 1.0000
50.4900 748.0000 1.0000
50.5000 743.0000 1.0000
50.5100 802.0000 1.0000
50.5200 783.0000 1.0000
50.5300 780.0000 1.0000
50.5400 762.0000 1.0000
50.5500 778.0000 1.0000
50.5600 743.0000 1.0000
50.5700 718.0000 1.0000
50.5800 719.0000 1.0000
50.5900 757.0000 1.0000
50.6000 728.0000 1.0000
50.6100 763.0000 1.0000
50.6200 793.0000 1.0000
50.6300 753.0000 1.0000
50.6400 733.0000 1.0000
50.6500 806.0000 1.0000
50.6600 748.0000 1.0000
50.6700 728.0000 1.0000
50.6800 698.0000 1.0000
50.6900 774.0000 1.0000
50.7000 747.0000 1.0000
50.7100 752.0000 1.0000
50.7200 781.0000 1.0000
50.7300 727.0000 1.0000
50.7400 729.0000 1.0000
50.7500 777.0000 1.0000
50.7600 742.0000 1.0000
50.7700 727.0000 1.0000
50.7800 763.0000 1.0000
50.7900 740.0000 1.0000
50.8000 774.0000 1.0000
50.8100 728.0000 1.0000
50.8200 736.0000 1.0000
50.8300 747.0000 1.0000
50.8400 737.0000 1.0000
50.8500 769.0000 1.0000
50.8600 750.0000 1.0000
50.8700 759.0000 1.0000
50.8800 742.0000 1.0000
50.8900 746.0000 1.0000
50.9000 753.0000 1.0000
50.9100 769.0000 1.0000
50.9200 678.0000 1.0000
50.9300 779.0000 1.0000
50.9400 738.0000 1.0000
50.9500 750.0000 1.0000
50.9600 738.0000 1.0000
50.9700 707.0000 1.0000
50.9800 760.0000 1.0000
50.9900 747.0000 1.0000
51.0000 739.0000 1.0000
51.0100 748.0000 1.0000
51.0200 731.0000 1.0000
51.0300 816.0000 1.0000
51.0400 731.0000 1.0000
51.0500 746.0000 1.0000
51.0600 788.0000 1.0000
51.0700 746.0000 1.0000
51.0800 733.0000 1.0000
51.0900 726.0000 1.0000
51.1000 769.0000 1.0000
51.1100 746.0000 1.0000
51.1200 705.0000 1.0000
51.1300 716.0000 1.0000
51.1400 753.0000 1.0000
51.1500 738.0000 1.0000
51.1600 732.0000 1.0000
51.1700 718.0000 1.0000
51.1800 799.0000 1.0000
51.1900 785.0000 1.0000
51.2000 712.0000 1.0000
51.2100 723.0000 1.0000
51.2200 734.0000 1.0000
51.2300 783.0000 1.0000
51.2400 739.0000 1.0000
51.2500 760.0000 1.0000
51.2600 733.0000 1.0000
51.2700 726.0000 1.0000
51.2800 733.0000 1.0000
51.2900 745.0000 1.0000
51.3000 766.0000 1.0000
51.3100 757.0000 1.0000
51.3200 758.0000 1.0000
51.3300 709.0000 1.0000
51.3400 679.0000 1.0000
51.3500 740.0000 1.0000
51.3600 665.0000 1.0000
51.3700 743.0000 1.0000
51.3800 760.0000 1.0000
51.3900 772.0000 1.0000
51.4000 758.0000 1.0000
51.4100 762.0000 1.0000
51.4200 740.0000 1.0000
51.4300 800.0000 1.0000
51.4400 772.0000 1.0000
51.4500 771.0000 1.0000
51.4600 693.0000 1.0000
51.4700 765.0000 1.0000
51.4800 764.0000 1.0000
51.4900 765.0000 1.0000
51.5000 744.0000 1.0000
51.5100 727.0000 1.0000
51.5200 741.0000 1.0000
51.5300 746.0000 1.0000
51.5400 754.0000 1.0000
51.5500 754.0000 1.0000
51.5600 739.0000 1.0000
51.5700 762.0000 1.0000
51.5800 789.0000 1.0000
51.5900 739.0000 1.0000
51.6000 729.0000 1.0000
51.6100 742.0000 1.0000
51.6200 819.0000 1.0000
51.6300 773.0000 1.0000
51.6400 783.0000 1.0000
51.6500 804.0000 1.0000
51.6600 772.0000 1.0000
51.6700 733.0000 1.0000
51.6800 786.0000 1.0000
51.6900 794.0000 1.0000
51.7000 767.0000 1.0000
51.7100 810.0000 1.0000
51.7200 816.0000 1.0000
51.7300 815.0000 1.0000
51.7400 806.0000 1.0000
51.7500 781.0000 1.0000
51.7600 811.0000 1.0000
51.7700 822.0000 1.0000
51.7800 867.0000 1.0000
51.7900 850.0000 1.0000
51.8000 846.0000 1.0000
51.8100 804.0000 1.0000
51.8200 822.0000 1.0000
51.8300 794.0000 1.0000
51.8400 814.0000 1.0000
51.8500 853.0000 1.0000
51.8600 802.0000 1.0000
51.8700 844.0000 1.0000
51.8800 827.0000 1.0000
51.8900 828.0000 1.0000
51.9000 898.0000 1.0000
51.9100 885.0000 1.0000
51.9200 911.0000 1.0000
51.9300 913.0000 1.0000
51.9400 888.0000 1.0000
51.9500 941.0000 1.0000
51.9600 973.0000 1.0000
51.9700 973.0000 1.0000
51.9800 972.0000 1.0000
51.9900 1027.0000 1.0000
52.0000 1056.0000 1.0000
52.0100 1075.0000 1.0000
52.0200 1119.0000 1.0000
52.0300 1093.0000 1.0000
52.0400 1140.0000 1.0000
52.0500 1198.0000 1.0000
52.0600 1184.0000 1.0000
52.0700 1257.0000 1.0000
52.0800 1351.0000 1.0000
52.0900 1384.0000 1.0000
52.1000 1401.0000 1.0000
52.1100 1460.0000 1.0000
52.1200 1547.0000 1.0000
52.1300 1584.0000 1.0000
52.1400 1680.0000 1.0000
52.1500 1767.0000 1.0000
52.1600 1849.0000 1.0000
52.1700 2067.0000 1.0000
52.1800 2155.0000 1.0000
52.1900 2274.0000 1.0000
52.2000 2498.0000 1.0000
52.2100 2712.0000 1.0000
52.2200 2906.0000 1.0000
52.2300 3142.0000 1.0000
52.2400 3426.0000 1.0000
52.2500 3738.0000 1.0000
52.2600 3996.0000 1.0000
52.2700 4336.0000 1.0000
52.2800 4668.0000 1.0000
52.2900 4760.0000 1.0000
52.3000 5068.0000 1.0000
52.3100 5109.0000 1.0000
52.3200 5020.0000 1.0000
52.3300 5115.0000 1.0000
52.3400 5219.0000 1.0000
52.3500 5050.0000 1.0000
52.3600 4962.0000 1.0000
52.3700 4760.0000 1.0000
52.3800 4693.0000 1.0000
52.3900 4439.0000 1.0000
52.4000 4317.0000 1.0000
52.4100 4251.0000 1.0000
52.4200 4127.0000 1.0000
52.4300 4156.0000 1.0000
52.4400 4017.0000 1.0000
52.4500 3928.0000 1.0000
52.4600 3728.0000 1.0000
52.4700 3594.0000 1.0000
52.4800 3443.0000 1.0000
52.4900 3326.0000 1.0000
52.5000 3064.0000 1.0000
52.5100 2859.0000 1.0000
52.5200 2644.0000 1.0000
52.5300 2422.0000 1.0000
52.5400 2285.0000 1.0000
52.5500 2242.0000 1.0000
52.5600 2043.0000 1.0000
52.5700 1921.0000 1.0000
52.5800 1724.0000 1.0000
52.5900 1660.0000 1.0000
52.6000 1559.0000 1.0000
52.6100 1517.0000 1.0000
52.6200 1438.0000 1.0000
52.6300 1315.0000 1.0000
52.6400 1287.0000 1.0000
52.6500 1314.0000 1.0000
52.6600 1281.0000 1.0000
52.6700 1263.0000 1.0000
52.6800 1164.0000 1.0000
52.6900 1113.0000 1.0000
52.7000 1088.0000 1.0000
52.7100 1089.0000 1.0000
52.7200 1024.0000 1.0000
52.7300 1031.0000 1.0000
52.7400 1001.0000 1.0000
52.7500 1049.0000 1.0000
52.7600 957.0000 1.0000
52.7700 950.0000 1.0000
52.7800 965.0000 1.0000
52.7900 928.0000 1.0000
52.8000 921.0000 1.0000
52.8100 917.0000 1.0000
52.8200 927.0000 1.0000
52.8300 901.0000 1.0000
52.8400 869.0000 1.0000
52.8500 881.0000 1.0000
52.8600 871.0000 1.0000
52.8700 850.0000 1.0000
52.8800 872.0000 1.0000
52.8900 856.0000 1.0000
52.9000 875.0000 1.0000
52.9100 793.0000 1.0000
52.9200 878.0000 1.0000
52.9300 824.0000 1.0000
52.9400 871.0000 1.0000
52.9500 815.0000 1.0000
52.9600 802.0000 1.0000
52.9700 800.0000 1.0000
52.9800 792.0000 1.0000
52.9900 821.0000 1.0000
53.0000 815.0000 1.0000
53.0100 814.0000 1.0000
53.0200 800.0000 1.0000
53.0300 812.0000 1.0000
53.0400 772.0000 1.0000
53.0500 819.0000 1.0000
53.0600 806.0000 1.0000
53.0700 770.0000 1.0000
53.0800 774.0000 1.0000
53.0900 799.0000 1.0000
53.1000 778.0000 1.0000
53.1100 758.0000 1.0000
53.1200 731.0000 1.0000
53.1300 780.0000 1.0000
53.1400 759.0000 1.0000
53.1500 781.0000 1.0000
53.1600 811.0000 1.0000
53.1700 746.0000 1.0000
53.1800 737.0000 1.0000
53.1900 738.0000 1.0000
53.2000 722.0000 1.0000
53.2100 759.0000 1.0000
53.2200 752.0000 1.0000
53.2300 750.0000 1.0000
53.2400 785.0000 1.0000
53.2500 751.0000 1.0000
53.2600 745.0000 1.0000
53.2700 791.0000 1.0000
53.2800 732.0000 1.0000
53.2900 727.0000 1.0000
53.3000 739.0000 1.0000
53.3100 756.0000 1.0000
53.3200 763.0000 1.0000
53.3300 765.0000 1.0000
53.3400 766.0000 1.0000
53.3500 735.0000 1.0000
53.3600 752.0000 1.0000
53.3700 766.0000 1.0000
53.3800 743.0000 1.0000
53.3900 710.0000 1.0000
53.4000 731.0000 1.0000
53.4100 796.0000 1.0000
53.4200 794.0000 1.0000
53.4300 748.0000 1.0000
53.4400 721.0000 1.0000
53.4500 733.0000 1.0000
53.4600 727.0000 1.0000
53.4700 737.0000 1.0000
53.4800 776.0000 1.0000
53.4900 704.0000 1.0000
53.5000 718.0000 1.0000
53.5100 709.0000 1.0000
53.5200 744.0000 1.0000
53.5300 745.0000 1.0000
53.5400 747.0000 1.0000
53.5500 736.0000 1.0000
53.5600 731.0000 1.0000
53.5700 762.0000 1.0000
53.5800 727.0000 1.0000
53.5900 718.0000 1.0000
53.6000 724.0000 1.0000
53.6100 694.0000 1.0000
53.6200 716.0000 1.0000
53.6300 708.0000 1.0000
53.6400 723.0000 1.0000
53.6500 757.0000 1.0000
53.6600 736.0000 1.0000
53.6700 710.0000 1.0000
53.6800 713.0000 1.0000
53.6900 747.0000 1.0000
53.7000 722.0000 1.0000
53.7100 654.0000 1.0000
53.7200 682.0000 1.0000
53.7300 705.0000 1.0000
53.7400 729.0000 1.0000
53.7500 716.0000 1.0000
53.7600 768.0000 1.0000
53.7700 751.0000 1.0000
53.7800 791.0000 1.0000
53.7900 745.0000 1.0000
53.8000 733.0000 1.0000
53.8100 721.0000 1.0000
53.8200 689.0000 1.0000
53.8300 725.0000 1.0000
53.8400 716.0000 1.0000
53.8500 702.0000 1.0000
53.8600 712.0000 1.0000
53.8700 731.0000 1.0000
53.8800 726.0000 1.0000
53.8900 692.0000 1.0000
53.9000 732.0000 1.0000
53.9100 749.0000 1.0000
53.9200 746.0000 1.0000
53.9300 753.0000 1.0000
53.9400 742.0000 1.0000
53.9500 726.0000 1.0000
53.9600 708.0000 1.0000
53.9700 718.0000 1.0000
53.9800 747.0000 1.0000
53.9900 708.0000 1.0000
54.0000 747.0000 1.0000
54.0100 712.0000 1.0000
54.0200 675.0000 1.0000
54.0300 730.0000 1.0000
54.0400 720.0000 1.0000
54.0500 697.0000 1.0000
54.0600 682.0000 1.0000
54.0700 714.0000 1.0000
54.0800 693.0000 1.0000
54.0900 722.0000 1.0000
54.1000 698.0000 1.0000
54.1100 726.0000 1.0000
54.1200 715.0000 1.0000
54.1300 688.0000 1.0000
54.1400 744.0000 1.0000
54.1500 735.0000 1.0000
54.1600 699.0000 1.0000
54.1700 711.0000 1.0000
54.1800 744.0000 1.0000
54.1900 759.0000 1.0000
54.2000 700.0000 1.0000
54.2100 759.0000 1.0000
54.2200 727.0000 1.0000
54.2300 728.0000 1.0000
54.2400 712.0000 1.0000
54.2500 701.0000 1.0000
54.2600 663.0000 1.0000
54.2700 701.0000 1.0000
54.2800 729.0000 1.0000
54.2900 767.0000 1.0000
54.3000 728.0000 1.0000
54.3100 686.0000 1.0000
54.3200 751.0000 1.0000
54.3300 744.0000 1.0000
54.3400 713.0000 1.0000
54.3500 696.0000 1.0000
54.3600 708.0000 1.0000
54.3700 735.0000 1.0000
54.3800 740.0000 1.0000
54.3900 714.0000 1.0000
54.4000 707.0000 1.0000
54.4100 717.0000 1.0000
54.4200 744.0000 1.0000
54.4300 770.0000 1.0000
54.4400 749.0000 1.0000
54.4500 702.0000 1.0000
54.4600 763.0000 1.0000
54.4700 692.0000 1.0000
54.4800 750.0000 1.0000
54.4900 690.0000 1.0000
54.5000 716.0000 1.0000
54.5100 743.0000 1.0000
54.5200 767.0000 1.0000
54.5300 722.0000 1.0000
54.5400 711.0000 1.0000
54.5500 696.0000 1.0000
54.5600 704.0000 1.0000
54.5700 701.0000 1.0000
54.5800 744.0000 1.0000
54.5900 767.0000 1.0000
54.6000 720.0000 1.0000
54.6100 700.0000 1.0000
54.6200 724.0000 1.0000
54.6300 726.0000 1.0000
54.6400 698.0000 1.0000
54.6500 729.0000 1.0000
54.6600 750.0000 1.0000
54.6700 711.0000 1.0000
54.6800 721.0000 1.0000
54.6900 748.0000 1.0000
54.7000 736.0000 1.0000
54.7100 717.0000 1.0000
54.7200 747.0000 1.0000
54.7300 747.0000 1.0000
54.7400 741.0000 1.0000
54.7500 738.0000 1.0000
54.7600 794.0000 1.0000
54.7700 757.0000 1.0000
54.7800 773.0000 1.0000
54.7900 774.0000 1.0000
54.8000 783.0000 1.0000
54.8100 752.0000 1.0000
54.8200 787.0000 1.0000
54.8300 828.0000 1.0000
54.8400 816.0000 1.0000
54.8500 829.0000 1.0000
54.8600 838.0000 1.0000
54.8700 760.0000 1.0000
54.8800 759.0000 1.0000
54.8900 804.0000 1.0000
54.9000 814.0000 1.0000
54.9100 802.0000 1.0000
54.9200 755.0000 1.0000
54.9300 776.0000 1.0000
54.9400 780.0000 1.0000
54.9500 799.0000 1.0000
54.9600 791.0000 1.0000
54.9700 805.0000 1.0000
54.9800 770.0000 1.0000
54.9900 833.0000 1.0000
55.0000 802.0000 1.0000
55.0100 802.0000 1.0000
55.0200 807.0000 1.0000
55.0300 796.0000 1.0000
55.0400 790.0000 1.0000
55.0500 767.0000 1.0000
55.0600 823.0000 1.0000
55.0700 790.0000 1.0000
55.0800 838.0000 1.0000
55.0900 804.0000 1.0000
55.1000 819.0000 1.0000
55.1100 823.0000 1.0000
55.1200 816.0000 1.0000
55.1300 832.0000 1.0000
55.1400 843.0000 1.0000
55.1500 838.0000 1.0000
55.1600 875.0000 1.0000
55.1700 885.0000 1.0000
55.1800 878.0000 1.0000
55.1900 916.0000 1.0000
55.2000 876.0000 1.0000
55.2100 900.0000 1.0000
55.2200 959.0000 1.0000
55.2300 972.0000 1.0000
55.2400 1006.0000 1.0000
55.2500 1009.0000 1.0000
55.2600 1021.0000 1.0000
55.2700 1062.0000 1.0000
55.2800 1069.0000 1.0000
55.2900 1064.0000 1.0000
55.3000 1071.0000 1.0000
55.3100 1062.0000 1.0000
55.3200 1057.0000 1.0000
55.3300 1093.0000 1.0000
55.3400 1100.0000 1.0000
55.3500 1082.0000 1.0000
55.3600 1085.0000 1.0000
55.3700 1108.0000 1.0000
55.3800 1140.0000 1.0000
55.3900 1070.0000 1.0000
55.4000 1083.0000 1.0000
55.4100 1015.0000 1.0000
55.4200 1023.0000 1.0000
55.4300 1036.0000 1.0000
55.4400 1044.0000 1.0000
55.4500 1080.0000 1.0000
55.4600 1045.0000 1.0000
55.4700 975.0000 1.0000
55.4800 1009.0000 1.0000
55.4900 946.0000 1.0000
55.5000 957.0000 1.0000
55.5100 952.0000 1.0000
55.5200 967.0000 1.0000
55.5300 930.0000 1.0000
55.5400 926.0000 1.0000
55.5500 907.0000 1.0000
55.5600 889.0000 1.0000
55.5700 884.0000 1.0000
55.5800 837.0000 1.0000
55.5900 829.0000 1.0000
55.6000 875.0000 1.0000
55.6100 844.0000 1.0000
55.6200 817.0000 1.0000
55.6300 809.0000 1.0000
55.6400 802.0000 1.0000
55.6500 768.0000 1.0000
55.6600 740.0000 1.0000
55.6700 787.0000 1.0000
55.6800 762.0000 1.0000
55.6900 784.0000 1.0000
55.7000 799.0000 1.0000
55.7100 766.0000 1.0000
55.7200 734.0000 1.0000
55.7300 735.0000 1.0000
55.7400 771.0000 1.0000
55.7500 766.0000 1.0000
55.7600 755.0000 1.0000
55.7700 771.0000 1.0000
55.7800 750.0000 1.0000
55.7900 744.0000 1.0000
55.8000 723.0000 1.0000
55.8100 710.0000 1.0000
55.8200 759.0000 1.0000
55.8300 744.0000 1.0000
55.8400 737.0000 1.0000
55.8500 718.0000 1.0000
55.8600 743.0000 1.0000
55.8700 714.0000 1.0000
55.8800 712.0000 1.0000
55.8900 719.0000 1.0000
55.9000 725.0000 1.0000
55.9100 737.0000 1.0000
55.9200 730.0000 1.0000
55.9300 723.0000 1.0000
55.9400 703.0000 1.0000
55.9500 706.0000 1.0000
55.9600 713.0000 1.0000
55.9700 706.0000 1.0000
55.9800 724.0000 1.0000
55.9900 733.0000 1.0000
56.0000 734.0000 1.0000
56.0100 744.0000 1.0000
56.0200 718.0000 1.0000
56.0300 676.0000 1.0000
56.0400 704.0000 1.0000
56.0500 724.0000 1.0000
56.0600 749.0000 1.0000
56.0700 686.0000 1.0000
56.0800 686.0000 1.0000
56.0900 702.0000 1.0000
56.1000 685.0000 1.0000
56.1100 742.0000 1.0000
56.1200 708.0000 1.0000
56.1300 678.0000 1.0000
56.1400 685.0000 1.0000
56.1500 675.0000 1.0000
56.1600 687.0000 1.0000
56.1700 670.0000 1.0000
56.1800 705.0000 1.0000
56.1900 707.0000 1.0000
56.2000 694.0000 1.0000
56.2100 715.0000 1.0000
56.2200 693.0000 1.0000
56.2300 706.0000 1.0000
56.2400 687.0000 1.0000
56.2500 669.0000 1.0000
56.2600 713.0000 1.0000
56.2700 641.0000 1.0000
56.2800 677.0000 1.0000
56.2900 722.0000 1.0000
56.3000 732.0000 1.0000
56.3100 746.0000 1.0000
56.3200 748.0000 1.0000
56.3300 676.0000 1.0000
56.3400 690.0000 1.0000
56.3500 698.0000 1.0000
56.3600 643.0000 1.0000
56.3700 687.0000 1.0000
56.3800 731.0000 1.0000
56.3900 705.0000 1.0000
56.4000 675.0000 1.0000
56.4100 656.0000 1.0000
56.4200 712.0000 1.0000
56.4300 697.0000 1.0000
56.4400 692.0000 1.0000
56.4500 710.0000 1.0000
56.4600 672.0000 1.0000
56.4700 706.0000 1.0000
56.4800 706.0000 1.0000
56.4900 727.0000 1.0000
56.5000 684.0000 1.0000
56.5100 651.0000 1.0000
56.5200 699.0000 1.0000
56.5300 696.0000 1.0000
56.5400 702.0000 1.0000
56.5500 696.0000 1.0000
56.5600 706.0000 1.0000
56.5700 705.0000 1.0000
56.5800 677.0000 1.0000
56.5900 696.0000 1.0000
56.6000 738.0000 1.0000
56.6100 694.0000 1.0000
56.6200 657.0000 1.0000
56.6300 670.0000 1.0000
56.6400 629.0000 1.0000
56.6500 689.0000 1.0000
56.6600 679.0000 1.0000
56.6700 706.0000 1.0000
56.6800 697.0000 1.0000
56.6900 704.0000 1.0000
56.7000 712.0000 1.0000
56.7100 692.0000 1.0000
56.7200 698.0000 1.0000
56.7300 648.0000 1.0000
56.7400 700.0000 1.0000
56.7500 705.0000 1.0000
56.7600 700.0000 1.0000
56.7700 685.0000 1.0000
56.7800 690.0000 1.0000
56.7900 697.0000 1.0000
56.8000 686.0000 1.0000
56.8100 688.0000 1.0000
56.8200 729.0000 1.0000
56.8300 647.0000 1.0000
56.8400 665.0000 1.0000
56.8500 714.0000 1.0000
56.8600 694.0000 1.0000
56.8700 668.0000 1.0000
56.8800 657.0000 1.0000
56.8900 702.0000 1.0000
56.9000 711.0000 1.0000
56.9100 682.0000 1.0000
56.9200 680.0000 1.0000
56.9300 668.0000 1.0000
56.9400 692.0000 1.0000
56.9500 722.0000 1.0000
56.9600 656.0000 1.0000
56.9700 673.0000 1.0000
56.9800 700.0000 1.0000
56.9900 698.0000 1.0000
57.0000 698.0000 1.0000
57.0100 699.0000 1.0000
57.0200 699.0000 1.0000
57.0300 690.0000 1.0000
57.0400 678.0000 1.0000
57.0500 709.0000 1.0000
57.0600 689.0000 1.0000
57.0700 627.0000 1.0000
57.0800 693.0000 1.0000
57.0900 691.0000 1.0000
57.1000 701.0000 1.0000
57.1100 685.0000 1.0000
57.1200 675.0000 1.0000
57.1300 659.0000 1.0000
57.1400 707.0000 1.0000
57.1500 701.0000 1.0000
57.1600 713.0000 1.0000
57.1700 663.0000 1.0000
57.1800 688.0000 1.0000
57.1900 653.0000 1.0000
57.2000 680.0000 1.0000
57.2100 724.0000 1.0000
57.2200 690.0000 1.0000
57.2300 659.0000 1.0000
57.2400 670.0000 1.0000
57.2500 671.0000 1.0000
57.2600 684.0000 1.0000
57.2700 699.0000 1.0000
57.2800 676.0000 1.0000
57.2900 659.0000 1.0000
57.3000 715.0000 1.0000
57.3100 686.0000 1.0000
57.3200 693.0000 1.0000
57.3300 640.0000 1.0000
57.3400 716.0000 1.0000
57.3500 669.0000 1.0000
57.3600 680.0000 1.0000
57.3700 710.0000 1.0000
57.3800 723.0000 1.0000
57.3900 667.0000 1.0000
57.4000 690.0000 1.0000
57.4100 673.0000 1.0000
57.4200 686.0000 1.0000
57.4300 667.0000 1.0000
57.4400 716.0000 1.0000
57.4500 723.0000 1.0000
57.4600 689.0000 1.0000
57.4700 703.0000 1.0000
57.4800 699.0000 1.0000
57.4900 681.0000 1.0000
57.5000 675.0000 1.0000
57.5100 697.0000 1.0000
57.5200 745.0000 1.0000
57.5300 736.0000 1.0000
57.5400 681.0000 1.0000
57.5500 659.0000 1.0000
57.5600 663.0000 1.0000
57.5700 679.0000 1.0000
57.5800 699.0000 1.0000
57.5900 653.0000 1.0000
57.6000 643.0000 1.0000
57.6100 677.0000 1.0000
57.6200 703.0000 1.0000
57.6300 622.0000 1.0000
57.6400 661.0000 1.0000
57.6500 704.0000 1.0000
57.6600 706.0000 1.0000
57.6700 693.0000 1.0000
57.6800 663.0000 1.0000
57.6900 662.0000 1.0000
57.7000 678.0000 1.0000
57.7100 669.0000 1.0000
57.7200 686.0000 1.0000
57.7300 715.0000 1.0000
57.7400 698.0000 1.0000
57.7500 740.0000 1.0000
57.7600 676.0000 1.0000
57.7700 686.0000 1.0000
57.7800 709.0000 1.0000
57.7900 681.0000 1.0000
57.8000 707.0000 1.0000
57.8100 674.0000 1.0000
57.8200 680.0000 1.0000
57.8300 672.0000 1.0000
57.8400 662.0000 1.0000
57.8500 656.0000 1.0000
57.8600 727.0000 1.0000
57.8700 675.0000 1.0000
57.8800 666.0000 1.0000
57.8900 719.0000 1.0000
57.9000 716.0000 1.0000
57.9100 706.0000 1.0000
57.9200 692.0000 1.0000
57.9300 684.0000 1.0000
57.9400 654.0000 1.0000
57.9500 644.0000 1.0000
57.9600 666.0000 1.0000
57.9700 660.0000 1.0000
57.9800 680.0000 1.0000
57.9900 718.0000 1.0000
58.0000 681.0000 1.0000
58.0100 736.0000 1.0000
58.0200 716.0000 1.0000
58.0300 650.0000 1.0000
58.0400 666.0000 1.0000
58.0500 691.0000 1.0000
58.0600 701.0000 1.0000
58.0700 677.0000 1.0000
58.0800 667.0000 1.0000
58.0900 717.0000 1.0000
58.1000 737.0000 1.0000
58.1100 716.0000 1.0000
58.1200 671.0000 1.0000
58.1300 684.0000 1.0000
58.1400 701.0000 1.0000
58.1500 717.0000 1.0000
58.1600 685.0000 1.0000
58.1700 686.0000 1.0000
58.1800 707.0000 1.0000
58.1900 731.0000 1.0000
58.2000 690.0000 1.0000
58.2100 675.0000 1.0000
58.2200 691.0000 1.0000
58.2300 687.0000 1.0000
58.2400 705.0000 1.0000
58.2500 695.0000 1.0000
58.2600 728.0000 1.0000
58.2700 723.0000 1.0000
58.2800 698.0000 1.0000
58.2900 685.0000 1.0000
58.3000 678.0000 1.0000
58.3100 691.0000 1.0000
58.3200 667.0000 1.0000
58.3300 725.0000 1.0000
58.3400 721.0000 1.0000
58.3500 683.0000 1.0000
58.3600 733.0000 1.0000
58.3700 716.0000 1.0000
58.3800 729.0000 1.0000
58.3900 719.0000 1.0000
58.4000 681.0000 1.0000
58.4100 708.0000 1.0000
58.4200 700.0000 1.0000
58.4300 688.0000 1.0000
58.4400 691.0000 1.0000
58.4500 714.0000 1.0000
58.4600 693.0000 1.0000
58.4700 663.0000 1.0000
58.4800 715.0000 1.0000
58.4900 678.0000 1.0000
58.5000 698.0000 1.0000
58.5100 711.0000 1.0000
58.5200 678.0000 1.0000
58.5300 676.0000 1.0000
58.5400 685.0000 1.0000
58.5500 682.0000 1.0000
58.5600 670.0000 1.0000
58.5700 666.0000 1.0000
58.5800 659.0000 1.0000
58.5900 701.0000 1.0000
58.6000 691.0000 1.0000
58.6100 702.0000 1.0000
58.6200 688.0000 1.0000
58.6300 676.0000 1.0000
58.6400 720.0000 1.0000
58.6500 678.0000 1.0000
58.6600 698.0000 1.0000
58.6700 696.0000 1.0000
58.6800 712.0000 1.0000
58.6900 719.0000 1.0000
58.7000 666.0000 1.0000
58.7100 682.0000 1.0000
58.7200 677.0000 1.0000
58.7300 675.0000 1.0000
58.7400 695.0000 1.0000
58.7500 652.0000 1.0000
58.7600 701.0000 1.0000
58.7700 696.0000 1.0000
58.7800 667.0000 1.0000
58.7900 686.0000 1.0000
58.8000 670.0000 1.0000
58.8100 674.0000 1.0000
58.8200 676.0000 1.0000
58.8300 678.0000 1.0000
58.8400 715.0000 1.0000
58.8500 703.0000 1.0000
58.8600 660.0000 1.0000
58.8700 668.0000 1.0000
58.8800 659.0000 1.0000
58.8900 681.0000 1.0000
58.9000 668.0000 1.0000
58.9100 662.0000 1.0000
58.9200 680.0000 1.0000
58.9300 665.0000 1.0000
58.9400 695.0000 1.0000
58.9500 653.0000 1.0000
58.9600 711.0000 1.0000
58.9700 670.0000 1.0000
58.9800 680.0000 1.0000
58.9900 687.0000 1.0000
59.0000 688.0000 1.0000
59.0100 710.0000 1.0000
59.0200 675.0000 1.0000
59.0300 631.0000 1.0000
59.0400 665.0000 1.0000
59.0500 670.0000 1.0000
59.0600 682.0000 1.0000
59.0700 751.0000 1.0000
59.0800 738.0000 1.0000
59.0900 699.0000 1.0000
59.1000 693.0000 1.0000
59.1100 696.0000 1.0000
59.1200 680.0000 1.0000
59.1300 697.0000 1.0000
59.1400 701.0000 1.0000
59.1500 699.0000 1.0000
59.1600 714.0000 1.0000
59.1700 668.0000 1.0000
59.1800 702.0000 1.0000
59.1900 699.0000 1.0000
59.2000 679.0000 1.0000
59.2100 690.0000 1.0000
59.2200 721.0000 1.0000
59.2300 693.0000 1.0000
59.2400 699.0000 1.0000
59.2500 665.0000 1.0000
59.2600 694.0000 1.0000
59.2700 709.0000 1.0000
59.2800 694.0000 1.0000
59.2900 670.0000 1.0000
59.3000 666.0000 1.0000
59.3100 677.0000 1.0000
59.3200 692.0000 1.0000
59.3300 712.0000 1.0000
59.3400 714.0000 1.0000
59.3500 665.0000 1.0000
59.3600 701.0000 1.0000
59.3700 704.0000 1.0000
59.3800 691.0000 1.0000
59.3900 718.0000 1.0000
59.4000 714.0000 1.0000
59.4100 703.0000 1.0000
59.4200 678.0000 1.0000
59.4300 675.0000 1.0000
59.4400 657.0000 1.0000
59.4500 683.0000 1.0000
59.4600 740.0000 1.0000
59.4700 695.0000 1.0000
59.4800 687.0000 1.0000
59.4900 644.0000 1.0000
59.5000 650.0000 1.0000
59.5100 664.0000 1.0000
59.5200 689.0000 1.0000
59.5300 682.0000 1.0000
59.5400 666.0000 1.0000
59.5500 684.0000 1.0000
59.5600 678.0000 1.0000
59.5700 664.0000 1.0000
59.5800 645.0000 1.0000
59.5900 685.0000 1.0000
59.6000 694.0000 1.0000
59.6100 667.0000 1.0000
59.6200 665.0000 1.0000
59.6300 693.0000 1.0000
59.6400 682.0000 1.0000
59.6500 648.0000 1.0000
59.6600 687.0000 1.0000
59.6700 660.0000 1.0000
59.6800 677.0000 1.0000
59.6900 696.0000 1.0000
59.7000 700.0000 1.0000
59.7100 672.0000 1.0000
59.7200 684.0000 1.0000
59.7300 693.0000 1.0000
59.7400 693.0000 1.0000
59.7500 673.0000 1.0000
59.7600 663.0000 1.0000
59.7700 673.0000 1.0000
59.7800 663.0000 1.0000
59.7900 659.0000 1.0000
59.8000 666.0000 1.0000
59.8100 668.0000 1.0000
59.8200 682.0000 1.0000
59.8300 659.0000 1.0000
59.8400 682.0000 1.0000
59.8500 670.0000 1.0000
59.8600 706.0000 1.0000
59.8700 667.0000 1.0000
59.8800 674.0000 1.0000
59.8900 678.0000 1.0000
59.9000 674.0000 1.0000
59.9100 721.0000 1.0000
59.9200 669.0000 1.0000
59.9300 689.0000 1.0000
59.9400 714.0000 1.0000
59.9500 680.0000 1.0000
59.9600 689.0000 1.0000
59.9700 656.0000 1.0000
59.9800 694.0000 1.0000
59.9900 691.0000 1.0000
60.0000 686.0000 1.0000
60.0100 683.0000 1.0000
60.0200 663.0000 1.0000
60.0300 734.0000 1.0000
60.0400 705.0000 1.0000
60.0500 685.0000 1.0000
60.0600 648.0000 1.0000
60.0700 683.0000 1.0000
60.0800 707.0000 1.0000
60.0900 704.0000 1.0000
60.1000 711.0000 1.0000
60.1100 667.0000 1.0000
60.1200 678.0000 1.0000
60.1300 665.0000 1.0000
60.1400 679.0000 1.0000
60.1500 693.0000 1.0000
60.1600 667.0000 1.0000
60.1700 671.0000 1.0000
60.1800 689.0000 1.0000
60.1900 664.0000 1.0000
60.2000 682.0000 1.0000
60.2100 674.0000 1.0000
60.2200 694.0000 1.0000
60.2300 697.0000 1.0000
60.2400 667.0000 1.0000
60.2500 662.0000 1.0000
60.2600 687.0000 1.0000
60.2700 663.0000 1.0000
60.2800 685.0000 1.0000
60.2900 664.0000 1.0000
60.3000 677.0000 1.0000
60.3100 711.0000 1.0000
60.3200 684.0000 1.0000
60.3300 694.0000 1.0000
60.3400 702.0000 1.0000
60.3500 657.0000 1.0000
60.3600 644.0000 1.0000
60.3700 655.0000 1.0000
60.3800 703.0000 1.0000
60.3900 666.0000 1.0000
60.4000 695.0000 1.0000
60.4100 674.0000 1.0000
60.4200 734.0000 1.0000
60.4300 717.0000 1.0000
60.4400 649.0000 1.0000
60.4500 711.0000 1.0000
60.4600 697.0000 1.0000
60.4700 702.0000 1.0000
60.4800 699.0000 1.0000
60.4900 670.0000 1.0000
60.5000 675.0000 1.0000
60.5100 697.0000 1.0000
60.5200 687.0000 1.0000
60.5300 701.0000 1.0000
60.5400 699.0000 1.0000
60.5500 680.0000 1.0000
60.5600 681.0000 1.0000
60.5700 681.0000 1.0000
60.5800 689.0000 1.0000
60.5900 666.0000 1.0000
60.6000 694.0000 1.0000
60.6100 688.0000 1.0000
60.6200 699.0000 1.0000
60.6300 660.0000 1.0000
60.6400 695.0000 1.0000
60.6500 680.0000 1.0000
60.6600 685.0000 1.0000
60.6700 654.0000 1.0000
60.6800 697.0000 1.0000
60.6900 711.0000 1.0000
60.7000 661.0000 1.0000
60.7100 708.0000 1.0000
60.7200 694.0000 1.0000
60.7300 694.0000 1.0000
60.7400 728.0000 1.0000
60.7500 688.0000 1.0000
60.7600 687.0000 1.0000
60.7700 703.0000 1.0000
60.7800 665.0000 1.0000
60.7900 680.0000 1.0000
60.8000 700.0000 1.0000
60.8100 664.0000 1.0000
60.8200 649.0000 1.0000
60.8300 673.0000 1.0000
60.8400 663.0000 1.0000
60.8500 631.0000 1.0000
60.8600 664.0000 1.0000
60.8700 673.0000 1.0000
60.8800 665.0000 1.0000
60.8900 684.0000 1.0000
60.9000 678.0000 1.0000
60.9100 696.0000 1.0000
60.9200 678.0000 1.0000
60.9300 671.0000 1.0000
60.9400 668.0000 1.0000
60.9500 663.0000 1.0000
60.9600 702.0000 1.0000
60.9700 700.0000 1.0000
60.9800 692.0000 1.0000
60.9900 716.0000 1.0000
61.0000 674.0000 1.0000
61.0100 644.0000 1.0000
61.0200 651.0000 1.0000
61.0300 653.0000 1.0000
61.0400 683.0000 1.0000
61.0500 656.0000 1.0000
61.0600 667.0000 1.0000
61.0700 659.0000 1.0000
61.0800 661.0000 1.0000
61.0900 706.0000 1.0000
61.1000 701.0000 1.0000
61.1100 665.0000 1.0000
61.1200 684.0000 1.0000
61.1300 660.0000 1.0000
61.1400 673.0000 1.0000
61.1500 640.0000 1.0000
61.1600 681.0000 1.0000
61.1700 678.0000 1.0000
61.1800 651.0000 1.0000
61.1900 691.0000 1.0000
61.2000 701.0000 1.0000
61.2100 678.0000 1.0000
61.2200 712.0000 1.0000
61.2300 744.0000 1.0000
61.2400 705.0000 1.0000
61.2500 677.0000 1.0000
61.2600 708.0000 1.0000
61.2700 688.0000 1.0000
61.2800 709.0000 1.0000
61.2900 725.0000 1.0000
61.3000 704.0000 1.0000
61.3100 714.0000 1.0000
61.3200 678.0000 1.0000
61.3300 657.0000 1.0000
61.3400 719.0000 1.0000
61.3500 677.0000 1.0000
61.3600 714.0000 1.0000
61.3700 727.0000 1.0000
61.3800 724.0000 1.0000
61.3900 679.0000 1.0000
61.4000 692.0000 1.0000
61.4100 696.0000 1.0000
61.4200 752.0000 1.0000
61.4300 751.0000 1.0000
61.4400 655.0000 1.0000
61.4500 650.0000 1.0000
61.4600 697.0000 1.0000
61.4700 727.0000 1.0000
61.4800 714.0000 1.0000
61.4900 662.0000 1.0000
61.5000 704.0000 1.0000
61.5100 700.0000 1.0000
61.5200 721.0000 1.0000
61.5300 728.0000 1.0000
61.5400 697.0000 1.0000
61.5500 682.0000 1.0000
61.5600 685.0000 1.0000
61.5700 697.0000 1.0000
61.5800 724.0000 1.0000
61.5900 714.0000 1.0000
61.6000 701.0000 1.0000
61.6100 668.0000 1.0000
61.6200 670.0000 1.0000
61.6300 672.0000 1.0000
61.6400 696.0000 1.0000
61.6500 707.0000 1.0000
61.6600 673.0000 1.0000
61.6700 729.0000 1.0000
61.6800 684.0000 1.0000
61.6900 690.0000 1.0000
61.7000 699.0000 1.0000
61.7100 669.0000 1.0000
61.7200 715.0000 1.0000
61.7300 719.0000 1.0000
61.7400 703.0000 1.0000
61.7500 744.0000 1.0000
61.7600 723.0000 1.0000
61.7700 696.0000 1.0000
61.7800 736.0000 1.0000
61.7900 674.0000 1.0000
61.8000 727.0000 1.0000
61.8100 748.0000 1.0000
61.8200 753.0000 1.0000
61.8300 734.0000 1.0000
61.8400 754.0000 1.0000
61.8500 748.0000 1.0000
61.8600 750.0000 1.0000
61.8700 779.0000 1.0000
61.8800 745.0000 1.0000
61.8900 805.0000 1.0000
61.9000 756.0000 1.0000
61.9100 737.0000 1.0000
61.9200 782.0000 1.0000
61.9300 756.0000 1.0000
61.9400 809.0000 1.0000
61.9500 776.0000 1.0000
61.9600 791.0000 1.0000
61.9700 801.0000 1.0000
61.9800 811.0000 1.0000
61.9900 837.0000 1.0000
62.0000 829.0000 1.0000
62.0100 884.0000 1.0000
62.0200 868.0000 1.0000
62.0300 866.0000 1.0000
62.0400 836.0000 1.0000
62.0500 829.0000 1.0000
62.0600 886.0000 1.0000
62.0700 933.0000 1.0000
62.0800 877.0000 1.0000
62.0900 855.0000 1.0000
62.1000 994.0000 1.0000
62.1100 957.0000 1.0000
62.1200 1007.0000 1.0000
62.1300 1030.0000 1.0000
62.1400 1006.0000 1.0000
62.1500 1079.0000 1.0000
62.1600 1096.0000 1.0000
62.1700 1079.0000 1.0000
62.1800 1125.0000 1.0000
62.1900 1131.0000 1.0000
62.2000 1227.0000 1.0000
62.2100 1244.0000 1.0000
62.2200 1322.0000 1.0000
62.2300 1274.0000 1.0000
62.2400 1296.0000 1.0000
62.2500 1462.0000 1.0000
62.2600 1433.0000 1.0000
62.2700 1511.0000 1.0000
62.2800 1457.0000 1.0000
62.2900 1504.0000 1.0000
62.3000 1547.0000 1.0000
62.3100 1568.0000 1.0000
62.3200 1571.0000 1.0000
62.3300 1617.0000 1.0000
62.3400 1582.0000 1.0000
62.3500 1625.0000 1.0000
62.3600 1613.0000 1.0000
62.3700 1627.0000 1.0000
62.3800 1554.0000 1.0000
62.3900 1602.0000 1.0000
62.4000 1624.0000 1.0000
62.4100 1581.0000 1.0000
62.4200 1553.0000 1.0000
62.4300 1547.0000 1.0000
62.4400 1580.0000 1.0000
62.4500 1543.0000 1.0000
62.4600 1518.0000 1.0000
62.4700 1426.0000 1.0000
62.4800 1484.0000 1.0000
62.4900 1411.0000 1.0000
62.5000 1353.0000 1.0000
62.5100 1387.0000 1.0000
62.5200 1382.0000 1.0000
62.5300 1357.0000 1.0000
62.5400 1358.0000 1.0000
62.5500 1317.0000 1.0000
62.5600 1321.0000 1.0000
62.5700 1310.0000 1.0000
62.5800 1264.0000 1.0000
62.5900 1232.0000 1.0000
62.6000 1227.0000 1.0000
62.6100 1113.0000 1.0000
62.6200 1132.0000 1.0000
62.6300 1100.0000 1.0000
62.6400 1083.0000 1.0000
62.6500 1046.0000 1.0000
62.6600 1008.0000 1.0000
62.6700 1022.0000 1.0000
62.6800 1023.0000 1.0000
62.6900 949.0000 1.0000
62.7000 953.0000 1.0000
62.7100 933.0000 1.0000
62.7200 879.0000 1.0000
62.7300 904.0000 1.0000
62.7400 941.0000 1.0000
62.7500 919.0000 1.0000
62.7600 860.0000 1.0000
62.7700 910.0000 1.0000
62.7800 872.0000 1.0000
62.7900 886.0000 1.0000
62.8000 889.0000 1.0000
62.8100 877.0000 1.0000
62.8200 844.0000 1.0000
62.8300 798.0000 1.0000
62.8400 828.0000 1.0000
62.8500 783.0000 1.0000
62.8600 815.0000 1.0000
62.8700 814.0000 1.0000
62.8800 795.0000 1.0000
62.8900 786.0000 1.0000
62.9000 732.0000 1.0000
62.9100 775.0000 1.0000
62.9200 793.0000 1.0000
62.9300 772.0000 1.0000
62.9400 785.0000 1.0000
62.9500 760.0000 1.0000
62.9600 785.0000 1.0000
62.9700 776.0000 1.0000
62.9800 788.0000 1.0000
62.9900 771.0000 1.0000
63.0000 771.0000 1.0000
63.0100 723.0000 1.0000
63.0200 722.0000 1.0000
63.0300 760.0000 1.0000
63.0400 770.0000 1.0000
63.0500 739.0000 1.0000
63.0600 719.0000 1.0000
63.0700 779.0000 1.0000
63.0800 737.0000 1.0000
63.0900 730.0000 1.0000
63.1000 740.0000 1.0000
63.1100 726.0000 1.0000
63.1200 764.0000 1.0000
63.1300 791.0000 1.0000
63.1400 791.0000 1.0000
63.1500 773.0000 1.0000
63.1600 733.0000 1.0000
63.1700 730.0000 1.0000
63.1800 718.0000 1.0000
63.1900 730.0000 1.0000
63.2000 797.0000 1.0000
63.2100 742.0000 1.0000
63.2200 770.0000 1.0000
63.2300 749.0000 1.0000
63.2400 758.0000 1.0000
63.2500 724.0000 1.0000
63.2600 720.0000 1.0000
63.2700 702.0000 1.0000
63.2800 701.0000 1.0000
63.2900 724.0000 1.0000
63.3000 747.0000 1.0000
63.3100 753.0000 1.0000
63.3200 716.0000 1.0000
63.3300 730.0000 1.0000
63.3400 731.0000 1.0000
63.3500 720.0000 1.0000
63.3600 763.0000 1.0000
63.3700 732.0000 1.0000
63.3800 728.0000 1.0000
63.3900 725.0000 1.0000
63.4000 680.0000 1.0000
63.4100 688.0000 1.0000
63.4200 667.0000 1.0000
63.4300 690.0000 1.0000
63.4400 684.0000 1.0000
63.4500 681.0000 1.0000
63.4600 710.0000 1.0000
63.4700 653.0000 1.0000
63.4800 653.0000 1.0000
63.4900 677.0000 1.0000
63.5000 673.0000 1.0000
63.5100 689.0000 1.0000
63.5200 696.0000 1.0000
63.5300 698.0000 1.0000
63.5400 636.0000 1.0000
63.5500 642.0000 1.0000
63.5600 722.0000 1.0000
63.5700 696.0000 1.0000
63.5800 697.0000 1.0000
63.5900 705.0000 1.0000
63.6000 684.0000 1.0000
63.6100 708.0000 1.0000
63.6200 723.0000 1.0000
63.6300 676.0000 1.0000
63.6400 668.0000 1.0000
63.6500 702.0000 1.0000
63.6600 690.0000 1.0000
63.6700 656.0000 1.0000
63.6800 685.0000 1.0000
63.6900 675.0000 1.0000
63.7000 703.0000 1.0000
63.7100 712.0000 1.0000
63.7200 692.0000 1.0000
63.7300 706.0000 1.0000
63.7400 659.0000 1.0000
63.7500 686.0000 1.0000
63.7600 674.0000 1.0000
63.7700 673.0000 1.0000
63.7800 699.0000 1.0000
63.7900 685.0000 1.0000
63.8000 724.0000 1.0000
63.8100 681.0000 1.0000
63.8200 675.0000 1.0000
63.8300 661.0000 1.0000
63.8400 691.0000 1.0000
63.8500 683.0000 1.0000
63.8600 699.0000 1.0000
63.8700 672.0000 1.0000
63.8800 691.0000 1.0000
63.8900 666.0000 1.0000
63.9000 696.0000 1.0000
63.9100 685.0000 1.0000
63.9200 653.0000 1.0000
63.9300 696.0000 1.0000
63.9400 638.0000 1.0000
63.9500 670.0000 1.0000
63.9600 714.0000 1.0000
63.9700 675.0000 1.0000
63.9800 671.0000 1.0000
63.9900 700.0000 1.0000
64.0000 696.0000 1.0000
64.0100 707.0000 1.0000
64.0200 720.0000 1.0000
64.0300 678.0000 1.0000
64.0400 678.0000 1.0000
64.0500 684.0000 1.0000
64.0600 699.0000 1.0000
64.0700 684.0000 1.0000
64.0800 714.0000 1.0000
64.0900 673.0000 1.0000
64.1000 679.0000 1.0000
64.1100 713.0000 1.0000
64.1200 719.0000 1.0000
64.1300 711.0000 1.0000
64.1400 724.0000 1.0000
64.1500 647.0000 1.0000
64.1600 664.0000 1.0000
64.1700 685.0000 1.0000
64.1800 721.0000 1.0000
64.1900 721.0000 1.0000
64.2000 699.0000 1.0000
64.2100 699.0000 1.0000
64.2200 701.0000 1.0000
64.2300 699.0000 1.0000
64.2400 755.0000 1.0000
64.2500 656.0000 1.0000
64.2600 651.0000 1.0000
64.2700 705.0000 1.0000
64.2800 695.0000 1.0000
64.2900 684.0000 1.0000
64.3000 681.0000 1.0000
64.3100 660.0000 1.0000
64.3200 676.0000 1.0000
64.3300 700.0000 1.0000
64.3400 680.0000 1.0000
64.3500 695.0000 1.0000
64.3600 667.0000 1.0000
64.3700 708.0000 1.0000
64.3800 676.0000 1.0000
64.3900 697.0000 1.0000
64.4000 699.0000 1.0000
64.4100 703.0000 1.0000
64.4200 726.0000 1.0000
64.4300 698.0000 1.0000
64.4400 701.0000 1.0000
64.4500 686.0000 1.0000
64.4600 724.0000 1.0000
64.4700 729.0000 1.0000
64.4800 697.0000 1.0000
64.4900 697.0000 1.0000
64.5000 713.0000 1.0000
64.5100 655.0000 1.0000
64.5200 722.0000 1.0000
64.5300 745.0000 1.0000
64.5400 725.0000 1.0000
64.5500 726.0000 1.0000
64.5600 734.0000 1.0000
64.5700 716.0000 1.0000
64.5800 761.0000 1.0000
64.5900 817.0000 1.0000
64.6000 770.0000 1.0000
64.6100 697.0000 1.0000
64.6200 790.0000 1.0000
64.6300 788.0000 1.0000
64.6400 756.0000 1.0000
64.6500 813.0000 1.0000
64.6600 803.0000 1.0000
64.6700 833.0000 1.0000
64.6800 878.0000 1.0000
64.6900 873.0000 1.0000
64.7000 971.0000 1.0000
64.7100 920.0000 1.0000
64.7200 908.0000 1.0000
64.7300 933.0000 1.0000
64.7400 894.0000 1.0000
64.7500 951.0000 1.0000
64.7600 912.0000 1.0000
64.7700 889.0000 1.0000
64.7800 847.0000 1.0000
64.7900 916.0000 1.0000
64.8000 855.0000 1.0000
64.8100 847.0000 1.0000
64.8200 846.0000 1.0000
64.8300 818.0000 1.0000
64.8400 837.0000 1.0000
64.8500 855.0000 1.0000
64.8600 828.0000 1.0000
64.8700 865.0000 1.0000
64.8800 808.0000 1.0000
64.8900 839.0000 1.0000
64.9000 821.0000 1.0000
64.9100 839.0000 1.0000
64.9200 869.0000 1.0000
64.9300 865.0000 1.0000
64.9400 811.0000 1.0000
64.9500 784.0000 1.0000
64.9600 764.0000 1.0000
64.9700 765.0000 1.0000
64.9800 788.0000 1.0000
64.9900 760.0000 1.0000
65.0000 780.0000 1.0000
65.0100 754.0000 1.0000
65.0200 747.0000 1.0000
65.0300 741.0000 1.0000
65.0400 743.0000 1.0000
65.0500 744.0000 1.0000
65.0600 706.0000 1.0000
65.0700 741.0000 1.0000
65.0800 763.0000 1.0000
65.0900 677.0000 1.0000
65.1000 737.0000 1.0000
65.1100 705.0000 1.0000
65.1200 751.0000 1.0000
65.1300 696.0000 1.0000
65.1400 685.0000 1.0000
65.1500 754.0000 1.0000
65.1600 733.0000 1.0000
65.1700 720.0000 1.0000
65.1800 699.0000 1.0000
65.1900 694.0000 1.0000
65.2000 667.0000 1.0000
65.2100 695.0000 1.0000
65.2200 702.0000 1.0000
65.2300 745.0000 1.0000
65.2400 716.0000 1.0000
65.2500 727.0000 1.0000
65.2600 736.0000 1.0000
65.2700 713.0000 1.0000
65.2800 716.0000 1.0000
65.2900 734.0000 1.0000
65.3000 705.0000 1.0000
65.3100 714.0000 1.0000
65.3200 706.0000 1.0000
65.3300 725.0000 1.0000
65.3400 728.0000 1.0000
65.3500 723.0000 1.0000
65.3600 678.0000 1.0000
65.3700 684.0000 1.0000
65.3800 746.0000 1.0000
65.3900 733.0000 1.0000
65.4000 676.0000 1.0000
65.4100 704.0000 1.0000
65.4200 654.0000 1.0000
65.4300 724.0000 1.0000
65.4400 665.0000 1.0000
65.4500 708.0000 1.0000
65.4600 693.0000 1.0000
65.4700 733.0000 1.0000
65.4800 692.0000 1.0000
65.4900 694.0000 1.0000
65.5000 701.0000 1.0000
65.5100 731.0000 1.0000
65.5200 756.0000 1.0000
65.5300 713.0000 1.0000
65.5400 715.0000 1.0000
65.5500 700.0000 1.0000
65.5600 708.0000 1.0000
65.5700 716.0000 1.0000
65.5800 722.0000 1.0000
65.5900 697.0000 1.0000
65.6000 717.0000 1.0000
65.6100 705.0000 1.0000
65.6200 717.0000 1.0000
65.6300 719.0000 1.0000
65.6400 761.0000 1.0000
65.6500 749.0000 1.0000
65.6600 722.0000 1.0000
65.6700 739.0000 1.0000
65.6800 694.0000 1.0000
65.6900 710.0000 1.0000
65.7000 736.0000 1.0000
65.7100 741.0000 1.0000
65.7200 735.0000 1.0000
65.7300 749.0000 1.0000
65.7400 729.0000 1.0000
65.7500 779.0000 1.0000
65.7600 769.0000 1.0000
65.7700 764.0000 1.0000
65.7800 747.0000 1.0000
65.7900 789.0000 1.0000
65.8000 805.0000 1.0000
65.8100 727.0000 1.0000
65.8200 780.0000 1.0000
65.8300 803.0000 1.0000
65.8400 814.0000 1.0000
65.8500 809.0000 1.0000
65.8600 775.0000 1.0000
65.8700 756.0000 1.0000
65.8800 828.0000 1.0000
65.8900 788.0000 1.0000
65.9000 834.0000 1.0000
65.9100 858.0000 1.0000
65.9200 866.0000 1.0000
65.9300 820.0000 1.0000
65.9400 852.0000 1.0000
65.9500 866.0000 1.0000
65.9600 948.0000 1.0000
65.9700 940.0000 1.0000
65.9800 926.0000 1.0000
65.9900 941.0000 1.0000
66.0000 938.0000 1.0000
66.0100 991.0000 1.0000
66.0200 960.0000 1.0000
66.0300 982.0000 1.0000
66.0400 969.0000 1.0000
66.0500 1027.0000 1.0000
66.0600 1082.0000 1.0000
66.0700 1145.0000 1.0000
66.0800 1147.0000 1.0000
66.0900 1173.0000 1.0000
66.1000 1261.0000 1.0000
66.1100 1215.0000 1.0000
66.1200 1297.0000 1.0000
66.1300 1358.0000 1.0000
66.1400 1370.0000 1.0000
66.1500 1505.0000 1.0000
66.1600 1506.0000 1.0000
66.1700 1626.0000 1.0000
66.1800 1669.0000 1.0000
66.1900 1712.0000 1.0000
66.2000 1825.0000 1.0000
66.2100 1955.0000 1.0000
66.2200 2024.0000 1.0000
66.2300 2190.0000 1.0000
66.2400 2265.0000 1.0000
66.2500 2350.0000 1.0000
66.2600 2415.0000 1.0000
66.2700 2495.0000 1.0000
66.2800 2589.0000 1.0000
66.2900 2732.0000 1.0000
66.3000 2661.0000 1.0000
66.3100 2742.0000 1.0000
66.3200 2849.0000 1.0000
66.3300 2795.0000 1.0000
66.3400 2668.0000 1.0000
66.3500 2703.0000 1.0000
66.3600 2652.0000 1.0000
66.3700 2624.0000 1.0000
66.3800 2550.0000 1.0000
66.3900 2502.0000 1.0000
66.4000 2388.0000 1.0000
66.4100 2309.0000 1.0000
66.4200 2361.0000 1.0000
66.4300 2391.0000 1.0000
66.4400 2320.0000 1.0000
66.4500 2354.0000 1.0000
66.4600 2278.0000 1.0000
66.4700 2205.0000 1.0000
66.4800 2180.0000 1.0000
66.4900 2162.0000 1.0000
66.5000 2076.0000 1.0000
66.5100 2050.0000 1.0000
66.5200 2009.0000 1.0000
66.5300 1868.0000 1.0000
66.5400 1808.0000 1.0000
66.5500 1698.0000 1.0000
66.5600 1718.0000 1.0000
66.5700 1739.0000 1.0000
66.5800 1598.0000 1.0000
66.5900 1480.0000 1.0000
66.6000 1449.0000 1.0000
66.6100 1374.0000 1.0000
66.6200 1388.0000 1.0000
66.6300 1380.0000 1.0000
66.6400 1225.0000 1.0000
66.6500 1169.0000 1.0000
66.6600 1157.0000 1.0000
66.6700 1154.0000 1.0000
66.6800 1103.0000 1.0000
66.6900 1108.0000 1.0000
66.7000 1074.0000 1.0000
66.7100 1021.0000 1.0000
66.7200 1034.0000 1.0000
66.7300 970.0000 1.0000
66.7400 903.0000 1.0000
66.7500 925.0000 1.0000
66.7600 887.0000 1.0000
66.7700 923.0000 1.0000
66.7800 918.0000 1.0000
66.7900 849.0000 1.0000
66.8000 866.0000 1.0000
66.8100 867.0000 1.0000
66.8200 888.0000 1.0000
66.8300 818.0000 1.0000
66.8400 838.0000 1.0000
66.8500 832.0000 1.0000
66.8600 774.0000 1.0000
66.8700 820.0000 1.0000
66.8800 786.0000 1.0000
66.8900 776.0000 1.0000
66.9000 766.0000 1.0000
66.9100 773.0000 1.0000
66.9200 768.0000 1.0000
66.9300 791.0000 1.0000
66.9400 755.0000 1.0000
66.9500 743.0000 1.0000
66.9600 730.0000 1.0000
66.9700 720.0000 1.0000
66.9800 718.0000 1.0000
66.9900 727.0000 1.0000
67.0000 699.0000 1.0000
67.0100 710.0000 1.0000
67.0200 698.0000 1.0000
67.0300 704.0000 1.0000
67.0400 725.0000 1.0000
67.0500 697.0000 1.0000
67.0600 712.0000 1.0000
67.0700 703.0000 1.0000
67.0800 693.0000 1.0000
67.0900 676.0000 1.0000
67.1000 693.0000 1.0000
67.1100 694.0000 1.0000
67.1200 663.0000 1.0000
67.1300 695.0000 1.0000
67.1400 640.0000 1.0000
67.1500 701.0000 1.0000
67.1600 684.0000 1.0000
67.1700 662.0000 1.0000
67.1800 651.0000 1.0000
67.1900 688.0000 1.0000
67.2000 721.0000 1.0000
67.2100 699.0000 1.0000
67.2200 713.0000 1.0000
67.2300 674.0000 1.0000
67.2400 654.0000 1.0000
67.2500 706.0000 1.0000
67.2600 722.0000 1.0000
67.2700 678.0000 1.0000
67.2800 670.0000 1.0000
67.2900 686.0000 1.0000
67.3000 689.0000 1.0000
67.3100 633.0000 1.0000
67.3200 667.0000 1.0000
67.3300 643.0000 1.0000
67.3400 635.0000 1.0000
67.3500 638.0000 1.0000
67.3600 625.0000 1.0000
67.3700 666.0000 1.0000
67.3800 682.0000 1.0000
67.3900 639.0000 1.0000
67.4000 647.0000 1.0000
67.4100 677.0000 1.0000
67.4200 650.0000 1.0000
67.4300 669.0000 1.0000
67.4400 642.0000 1.0000
67.4500 675.0000 1.0000
67.4600 632.0000 1.0000
67.4700 683.0000 1.0000
67.4800 652.0000 1.0000
67.4900 629.0000 1.0000
67.5000 619.0000 1.0000
67.5100 660.0000 1.0000
67.5200 660.0000 1.0000
67.5300 620.0000 1.0000
67.5400 646.0000 1.0000
67.5500 667.0000 1.0000
67.5600 652.0000 1.0000
67.5700 641.0000 1.0000
67.5800 624.0000 1.0000
67.5900 610.0000 1.0000
67.6000 674.0000 1.0000
67.6100 616.0000 1.0000
67.6200 619.0000 1.0000
67.6300 602.0000 1.0000
67.6400 668.0000 1.0000
67.6500 680.0000 1.0000
67.6600 670.0000 1.0000
67.6700 646.0000 1.0000
67.6800 616.0000 1.0000
67.6900 617.0000 1.0000
67.7000 616.0000 1.0000
67.7100 643.0000 1.0000
67.7200 635.0000 1.0000
67.7300 635.0000 1.0000
67.7400 626.0000 1.0000
67.7500 644.0000 1.0000
67.7600 636.0000 1.0000
67.7700 608.0000 1.0000
67.7800 644.0000 1.0000
67.7900 682.0000 1.0000
67.8000 599.0000 1.0000
67.8100 597.0000 1.0000
67.8200 635.0000 1.0000
67.8300 677.0000 1.0000
67.8400 639.0000 1.0000
67.8500 625.0000 1.0000
67.8600 651.0000 1.0000
67.8700 691.0000 1.0000
67.8800 644.0000 1.0000
67.8900 659.0000 1.0000
67.9000 653.0000 1.0000
67.9100 675.0000 1.0000
67.9200 630.0000 1.0000
67.9300 638.0000 1.0000
67.9400 636.0000 1.0000
67.9500 647.0000 1.0000
67.9600 623.0000 1.0000
67.9700 603.0000 1.0000
67.9800 642.0000 1.0000
67.9900 592.0000 1.0000
68.0000 657.0000 1.0000
68.0100 643.0000 1.0000
68.0200 629.0000 1.0000
68.0300 613.0000 1.0000
68.0400 617.0000 1.0000
68.0500 659.0000 1.0000
68.0600 639.0000 1.0000
68.0700 625.0000 1.0000
68.0800 613.0000 1.0000
68.0900 583.0000 1.0000
68.1000 615.0000 1.0000
68.1100 626.0000 1.0000
68.1200 644.0000 1.0000
68.1300 644.0000 1.0000
68.1400 628.0000 1.0000
68.1500 630.0000 1.0000
68.1600 608.0000 1.0000
68.1700 601.0000 1.0000
68.1800 594.0000 1.0000
68.1900 622.0000 1.0000
68.2000 652.0000 1.0000
68.2100 650.0000 1.0000
68.2200 610.0000 1.0000
68.2300 609.0000 1.0000
68.2400 639.0000 1.0000
68.2500 603.0000 1.0000
68.2600 628.0000 1.0000
68.2700 635.0000 1.0000
68.2800 604.0000 1.0000
68.2900 607.0000 1.0000
68.3000 604.0000 1.0000
68.3100 614.0000 1.0000
68.3200 635.0000 1.0000
68.3300 655.0000 1.0000
68.3400 583.0000 1.0000
68.3500 605.0000 1.0000
68.3600 622.0000 1.0000
68.3700 630.0000 1.0000
68.3800 645.0000 1.0000
68.3900 614.0000 1.0000
68.4000 613.0000 1.0000
68.4100 595.0000 1.0000
68.4200 625.0000 1.0000
68.4300 584.0000 1.0000
68.4400 600.0000 1.0000
68.4500 628.0000 1.0000
68.4600 615.0000 1.0000
68.4700 635.0000 1.0000
68.4800 642.0000 1.0000
68.4900 620.0000 1.0000
68.5000 594.0000 1.0000
68.5100 641.0000 1.0000
68.5200 602.0000 1.0000
68.5300 613.0000 1.0000
68.5400 607.0000 1.0000
68.5500 615.0000 1.0000
68.5600 636.0000 1.0000
68.5700 603.0000 1.0000
68.5800 631.0000 1.0000
68.5900 641.0000 1.0000
68.6000 617.0000 1.0000
68.6100 594.0000 1.0000
68.6200 601.0000 1.0000
68.6300 594.0000 1.0000
68.6400 597.0000 1.0000
68.6500 621.0000 1.0000
68.6600 583.0000 1.0000
68.6700 581.0000 1.0000
68.6800 626.0000 1.0000
68.6900 602.0000 1.0000
68.7000 572.0000 1.0000
68.7100 596.0000 1.0000
68.7200 574.0000 1.0000
68.7300 597.0000 1.0000
68.7400 591.0000 1.0000
68.7500 644.0000 1.0000
68.7600 581.0000 1.0000
68.7700 602.0000 1.0000
68.7800 605.0000 1.0000
68.7900 611.0000 1.0000
68.8000 618.0000 1.0000
68.8100 611.0000 1.0000
68.8200 620.0000 1.0000
68.8300 591.0000 1.0000
68.8400 547.0000 1.0000
68.8500 593.0000 1.0000
68.8600 562.0000 1.0000
68.8700 651.0000 1.0000
68.8800 654.0000 1.0000
68.8900 591.0000 1.0000
68.9000 589.0000 1.0000
68.9100 614.0000 1.0000
68.9200 622.0000 1.0000
68.9300 600.0000 1.0000
68.9400 563.0000 1.0000
68.9500 629.0000 1.0000
68.9600 619.0000 1.0000
68.9700 630.0000 1.0000
68.9800 589.0000 1.0000
68.9900 579.0000 1.0000
69.0000 588.0000 1.0000
69.0100 590.0000 1.0000
69.0200 632.0000 1.0000
69.0300 635.0000 1.0000
69.0400 622.0000 1.0000
69.0500 587.0000 1.0000
69.0600 588.0000 1.0000
69.0700 612.0000 1.0000
69.0800 650.0000 1.0000
69.0900 599.0000 1.0000
69.1000 626.0000 1.0000
69.1100 584.0000 1.0000
69.1200 619.0000 1.0000
69.1300 628.0000 1.0000
69.1400 579.0000 1.0000
69.1500 593.0000 1.0000
69.1600 620.0000 1.0000
69.1700 660.0000 1.0000
69.1800 644.0000 1.0000
69.1900 608.0000 1.0000
69.2000 600.0000 1.0000
69.2100 601.0000 1.0000
69.2200 629.0000 1.0000
69.2300 607.0000 1.0000
69.2400 591.0000 1.0000
69.2500 604.0000 1.0000
69.2600 626.0000 1.0000
69.2700 604.0000 1.0000
69.2800 591.0000 1.0000
69.2900 585.0000 1.0000
69.3000 584.0000 1.0000
69.3100 614.0000 1.0000
69.3200 607.0000 1.0000
69.3300 582.0000 1.0000
69.3400 569.0000 1.0000
69.3500 610.0000 1.0000
69.3600 575.0000 1.0000
69.3700 556.0000 1.0000
69.3800 590.0000 1.0000
69.3900 634.0000 1.0000
69.4000 589.0000 1.0000
69.4100 580.0000 1.0000
69.4200 547.0000 1.0000
69.4300 582.0000 1.0000
69.4400 573.0000 1.0000
69.4500 617.0000 1.0000
69.4600 627.0000 1.0000
69.4700 621.0000 1.0000
69.4800 560.0000 1.0000
69.4900 618.0000 1.0000
69.5000 575.0000 1.0000
69.5100 570.0000 1.0000
69.5200 588.0000 1.0000
69.5300 663.0000 1.0000
69.5400 637.0000 1.0000
69.5500 636.0000 1.0000
69.5600 601.0000 1.0000
69.5700 651.0000 1.0000
69.5800 636.0000 1.0000
69.5900 602.0000 1.0000
69.6000 625.0000 1.0000
69.6100 641.0000 1.0000
69.6200 629.0000 1.0000
69.6300 587.0000 1.0000
69.6400 575.0000 1.0000
69.6500 632.0000 1.0000
69.6600 598.0000 1.0000
69.6700 609.0000 1.0000
69.6800 638.0000 1.0000
69.6900 631.0000 1.0000
69.7000 593.0000 1.0000
69.7100 558.0000 1.0000
69.7200 647.0000 1.0000
69.7300 635.0000 1.0000
69.7400 573.0000 1.0000
69.7500 648.0000 1.0000
69.7600 624.0000 1.0000
69.7700 604.0000 1.0000
69.7800 601.0000 1.0000
69.7900 601.0000 1.0000
69.8000 611.0000 1.0000
69.8100 590.0000 1.0000
69.8200 610.0000 1.0000
69.8300 582.0000 1.0000
69.8400 586.0000 1.0000
69.8500 600.0000 1.0000
69.8600 631.0000 1.0000
69.8700 586.0000 1.0000
69.8800 644.0000 1.0000
69.8900 596.0000 1.0000
69.9000 602.0000 1.0000
69.9100 571.0000 1.0000
69.9200 595.0000 1.0000
69.9300 616.0000 1.0000
69.9400 584.0000 1.0000
69.9500 607.0000 1.0000
69.9600 560.0000 1.0000
69.9700 549.0000 1.0000
69.9800 580.0000 1.0000
69.9900 560.0000 1.0000
70.0000 585.0000 1.0000
*RAS_INT_END
*RAS_TEMPERATURE_START
*RAS_TEMPERATURE_END
*RAS_DATA_END
