*RAS_DATA_START
*RAS_HEADER_START
*DISP_FMT_X "%.2f"
*DISP_FMT_Y "%.0f"
*DISP_FULLSCALE "15380.0000000000"
*DISP_LINE_COLOR "255.0000000000"
*DISP_LINE_STYLE "0.0000000000"
*DISP_LINE_WIDTH "0.2500000000"
*DISP_NOTE "測定データ-5"
*DISP_OFFSET_Y "0.0000000000"
*DISP_PEAKSEARCH_UNIT_Y "cps"
*DISP_RANGE_BOTTOM "0.0000000000"
*DISP_RANGE_LEFT "20.0000000000"
*DISP_RANGE_LOGCUTOFF "0.0100000000"
*DISP_RANGE_RIGHT "70.0000000000"
*DISP_RANGE_TOP "15380.0000000000"
*DISP_SCALE_MODE_Y "0.0000000000"
*DISP_TAB_NAME "2θ/θ"
*DISP_TITLE_Y "強度"
*DISP_UNIT_Y "cps"
*DISP_WINDOW_NAME "MSG_MACROENGINE"
*FILE_COMMENT " "
*FILE_MD5 ""
*FILE_MEMO " "
*FILE_OPERATOR "Administrator"
*FILE_SAMPLE " "
*FILE_TYPE "RAS_RAW"
*FILE_USERGROUP "システムマネージャ"
*FILE_VERSION "1.0000000000"
*HW_ATTACHMENT_ID "ATT0025"
*HW_ATTACHMENT_NAME "標準|Standard"
*HW_COUNTER_ID-0 "CUT0025"
*HW_COUNTER_ID-1 "CUT0020"
*HW_COUNTER_ID-2 "CUT0020"
*HW_COUNTER_ID-3 "CSL0021"
*HW_COUNTER_ID-4 "CMC0021"
*HW_COUNTER_NAME-0 "D/teX Ultra|D/teX Ultra"
*HW_COUNTER_NAME-1 "None|None"
*HW_COUNTER_NAME-2 "None|None"
*HW_COUNTER_NAME-3 "BBM|BBM"
*HW_COUNTER_NAME-4 "検出器モノクロメータ|Detector monochromator"
*HW_COUNTER_SELECT_NAME "D/teX Ultra|D/teX Ultra"
*HW_GONIOMETER_ID "GON0023"
*HW_GONIOMETER_NAME "SmartLab|SmartLab"
*HW_GONIOMETER_RADIUS-0 "90.0"
*HW_GONIOMETER_RADIUS-1 "114.0"
*HW_GONIOMETER_RADIUS-2 "190.0"
*HW_GONIOMETER_RADIUS-3 "300.0"
*HW_GONIOMETER_RADIUS-4 "187.0"
*HW_GONIOMETER_RADIUS-5 "300.0"
*HW_GONIOMETER_RADIUS-6 "113.0"
*HW_GONIOMETER_RADIUS-7 "331.0"
*HW_I_OPT_ID-0 "CBO0021"
*HW_I_OPT_ID-1 "ICR0023"
*HW_I_OPT_ID-2 "ISL0021"
*HW_I_OPT_ID-3 "ISO0021"
*HW_I_OPT_ID-4 "IAD0021"
*HW_I_OPT_ID-5 "IPR0001"
*HW_I_OPT_NAME-0 "CBOユニット|CBO unit"
*HW_I_OPT_NAME-1 "標準入射光学ユニット|Standard incident optical unit"
*HW_I_OPT_NAME-2 "標準入射スリットボックス|Standard incident slit box"
*HW_I_OPT_NAME-3 "入射平行スリット|Incident parallel slit"
*HW_I_OPT_NAME-4 "長手制限スリット|Length limiting slit"
*HW_I_OPT_NAME-5 "None|None"
*HW_R_ATTENUATER_AUTOMODE "0"
*HW_R_OPT_ID-0 "RSS0021"
*HW_R_OPT_ID-1 "RCR0023"
*HW_R_OPT_ID-2 "RSO0021"
*HW_R_OPT_ID-3 "RRS0021"
*HW_R_OPT_ID-4 "ATN0021"
*HW_R_OPT_ID-5 "RFL0021"
*HW_R_OPT_ID-6 "RAD0021"
*HW_R_OPT_NAME-0 "標準受光スリットボックス1|Standard receiving slit box # 1"
*HW_R_OPT_NAME-1 "標準受光光学ユニット1|Standard receiving unit # 1"
*HW_R_OPT_NAME-2 "標準受光光学ユニット2|Standard receiving optical unit # 2"
*HW_R_OPT_NAME-3 "標準受光スリットボックス2|Standard receiving slit box # 2"
*HW_R_OPT_NAME-4 "標準アッテネータ|Standard Attenuator"
*HW_R_OPT_NAME-5 "Cu Kβ|Cu K-beta"
*HW_R_OPT_NAME-6 "調整用受光スリット|Alignment receiving slit"
*HW_SAMPLE_HOLDER_ID "SMP0023"
*HW_SAMPLE_HOLDER_NAME "標準Zステージ|Standard Z stage"
*HW_XG_CURRENT_MAX "50"
*HW_XG_CURRENT_MIN "2"
*HW_XG_CURRENT_RESOLUTION "1"
*HW_XG_CURRENT_UNIT "mA"
*HW_XG_FOCUS "1mm x 10mm"
*HW_XG_FOCUS_TYPE "Normal"
*HW_XG_ID ""
*HW_XG_NAME "3kW 封入管(ID:1200)|3kW Sealed tube(ID:1200)"
*HW_XG_TARGET_ATOMIC_NUMBER "29.0000000000"
*HW_XG_TARGET_NAME "Cu"
*HW_XG_TYPE "Hermetic"
*HW_XG_VOLTAGE_MAX "60"
*HW_XG_VOLTAGE_MIN "20"
*HW_XG_VOLTAGE_RESOLUTION "1"
*HW_XG_VOLTAGE_UNIT "kV"
*HW_XG_WATT_MAX "1.500"
*HW_XG_WATT_UNIT "kW"
*HW_XG_WAVE_LENGTH_ALPHA1 "1.540593"
*HW_XG_WAVE_LENGTH_ALPHA2 "1.544414"
*HW_XG_WAVE_LENGTH_BETA "1.392250"
*MEAS_COND_AXIS_NAME-0 "2θ/θ"
*MEAS_COND_AXIS_NAME-1 "2θ"
*MEAS_COND_AXIS_NAME-2 "ω"
*MEAS_COND_AXIS_NAME-3 "Z"
*MEAS_COND_AXIS_NAME-4 "2θ/ω"
*MEAS_COND_AXIS_NAME-5 "θs"
*MEAS_COND_AXIS_NAME-6 "θd"
*MEAS_COND_AXIS_NAME-7 "Ts"
*MEAS_COND_AXIS_NAME-8 "CBO選択スリット"
*MEAS_COND_AXIS_NAME-9 "M"
*MEAS_COND_AXIS_NAME-10 "入射平行スリット"
*MEAS_COND_AXIS_NAME-11 "入射スリット"
*MEAS_COND_AXIS_NAME-12 ""
*MEAS_COND_AXIS_NAME-13 "Zs"
*MEAS_COND_AXIS_NAME-14 "入射光学素子"
*MEAS_COND_AXIS_NAME-15 "長手制限スリット"
*MEAS_COND_AXIS_NAME-16 "センタースリット"
*MEAS_COND_AXIS_NAME-17 "フィルター"
*MEAS_COND_AXIS_NAME-18 "受光スリット1"
*MEAS_COND_AXIS_NAME-19 "受光スリット2"
*MEAS_COND_AXIS_NAME-20 "受光光学素子"
*MEAS_COND_AXIS_NAME-21 "受光平行スリット"
*MEAS_COND_AXIS_NAME-22 "調整用受光スリット"
*MEAS_COND_AXIS_NAME-23 ""
*MEAS_COND_AXIS_NAME-24 ""
*MEAS_COND_AXIS_NAME-25 "Zd"
*MEAS_COND_AXIS_NAME-26 "アッテネータ"
*MEAS_COND_AXIS_NAME-27 "検出器モノクロメータ"
*MEAS_COND_AXIS_NAME-28 "モノクロメータスリット"
*MEAS_COND_AXIS_NAME-29 "プライマリビーム"
*MEAS_COND_AXIS_NAME-30 "PHA"
*MEAS_COND_AXIS_NAME_INTERNAL-0 "TwoThetaTheta"
*MEAS_COND_AXIS_NAME_INTERNAL-1 "TwoTheta"
*MEAS_COND_AXIS_NAME_INTERNAL-2 "Omega"
*MEAS_COND_AXIS_NAME_INTERNAL-3 "Z"
*MEAS_COND_AXIS_NAME_INTERNAL-4 "TwoThetaOmega"
*MEAS_COND_AXIS_NAME_INTERNAL-5 "ThetaS"
*MEAS_COND_AXIS_NAME_INTERNAL-6 "ThetaD"
*MEAS_COND_AXIS_NAME_INTERNAL-7 "Ts"
*MEAS_COND_AXIS_NAME_INTERNAL-8 "CBO"
*MEAS_COND_AXIS_NAME_INTERNAL-9 "CBO-M"
*MEAS_COND_AXIS_NAME_INTERNAL-10 "IncidentSollerSlit"
*MEAS_COND_AXIS_NAME_INTERNAL-11 "IncidentSlitBox"
*MEAS_COND_AXIS_NAME_INTERNAL-12 "IncidentSlitBox-_Axis"
*MEAS_COND_AXIS_NAME_INTERNAL-13 "Zs"
*MEAS_COND_AXIS_NAME_INTERNAL-14 "IncidentMonochromator"
*MEAS_COND_AXIS_NAME_INTERNAL-15 "IncidentAxdSlit"
*MEAS_COND_AXIS_NAME_INTERNAL-16 "CenterSlit"
*MEAS_COND_AXIS_NAME_INTERNAL-17 "Filter"
*MEAS_COND_AXIS_NAME_INTERNAL-18 "ReceivingSlitBox1"
*MEAS_COND_AXIS_NAME_INTERNAL-19 "ReceivingSlitBox2"
*MEAS_COND_AXIS_NAME_INTERNAL-20 "ReceivingOptics"
*MEAS_COND_AXIS_NAME_INTERNAL-21 "ReceivingSollerSlit"
*MEAS_COND_AXIS_NAME_INTERNAL-22 "ReceivingAxdSlit"
*MEAS_COND_AXIS_NAME_INTERNAL-23 "ReceivingSlitBox1-_Axis"
*MEAS_COND_AXIS_NAME_INTERNAL-24 "ReceivingSlitBox2-_Axis"
*MEAS_COND_AXIS_NAME_INTERNAL-25 "ReceivingSlitBox2-Zd"
*MEAS_COND_AXIS_NAME_INTERNAL-26 "Attenuator"
*MEAS_COND_AXIS_NAME_INTERNAL-27 "CounterMonochromator"
*MEAS_COND_AXIS_NAME_INTERNAL-28 "CounterSlit"
*MEAS_COND_AXIS_NAME_INTERNAL-29 "IncidentPrimary"
*MEAS_COND_AXIS_NAME_INTERNAL-30 "PHA"
*MEAS_COND_AXIS_NAME_MAGICNO-0 "83951616.0000000000"
*MEAS_COND_AXIS_NAME_MAGICNO-1 "268632064.0000000000"
*MEAS_COND_AXIS_NAME_MAGICNO-2 "268500992.0000000000"
*MEAS_COND_AXIS_NAME_MAGICNO-3 "285278208.0000000000"
*MEAS_COND_AXIS_NAME_MAGICNO-4 "83951616.0000000000"
*MEAS_COND_AXIS_NAME_MAGICNO-5 "131072.0000000000"
*MEAS_COND_AXIS_NAME_MAGICNO-6 "131072.0000000000"
*MEAS_COND_AXIS_NAME_MAGICNO-7 "318898176.0000000000"
*MEAS_COND_AXIS_NAME_MAGICNO-8 "20971521.0000000000"
*MEAS_COND_AXIS_NAME_MAGICNO-9 "285343744.0000000000"
*MEAS_COND_AXIS_NAME_MAGICNO-10 "20971521.0000000000"
*MEAS_COND_AXIS_NAME_MAGICNO-11 "22020097.0000000000"
*MEAS_COND_AXIS_NAME_MAGICNO-12 "25165824.0000000000"
*MEAS_COND_AXIS_NAME_MAGICNO-13 "318898176.0000000000"
*MEAS_COND_AXIS_NAME_MAGICNO-14 "1.0000000000"
*MEAS_COND_AXIS_NAME_MAGICNO-15 "20971521.0000000000"
*MEAS_COND_AXIS_NAME_MAGICNO-16 "20971521.0000000000"
*MEAS_COND_AXIS_NAME_MAGICNO-17 "20971521.0000000000"
*MEAS_COND_AXIS_NAME_MAGICNO-18 "23068673.0000000000"
*MEAS_COND_AXIS_NAME_MAGICNO-19 "23068673.0000000000"
*MEAS_COND_AXIS_NAME_MAGICNO-20 "20971521.0000000000"
*MEAS_COND_AXIS_NAME_MAGICNO-21 "20971521.0000000000"
*MEAS_COND_AXIS_NAME_MAGICNO-22 "20971521.0000000000"
*MEAS_COND_AXIS_NAME_MAGICNO-23 "25165824.0000000000"
*MEAS_COND_AXIS_NAME_MAGICNO-24 "25165824.0000000000"
*MEAS_COND_AXIS_NAME_MAGICNO-25 "285343744.0000000000"
*MEAS_COND_AXIS_NAME_MAGICNO-26 "17301505.0000000000"
*MEAS_COND_AXIS_NAME_MAGICNO-27 "20971521.0000000000"
*MEAS_COND_AXIS_NAME_MAGICNO-28 "20971521.0000000000"
*MEAS_COND_AXIS_NAME_MAGICNO-29 "20971521.0000000000"
*MEAS_COND_AXIS_NAME_MAGICNO-30 "0.0000000000"
*MEAS_COND_AXIS_OFFSET-0 "-"
*MEAS_COND_AXIS_OFFSET-1 "-0.1081000000"
*MEAS_COND_AXIS_OFFSET-2 "0.3758000000"
*MEAS_COND_AXIS_OFFSET-3 "-"
*MEAS_COND_AXIS_OFFSET-4 "-"
*MEAS_COND_AXIS_OFFSET-5 "0.3758000000"
*MEAS_COND_AXIS_OFFSET-6 "-0.4839000000"
*MEAS_COND_AXIS_OFFSET-7 "-"
*MEAS_COND_AXIS_OFFSET-8 "-"
*MEAS_COND_AXIS_OFFSET-9 "-"
*MEAS_COND_AXIS_OFFSET-10 "-"
*MEAS_COND_AXIS_OFFSET-11 "-"
*MEAS_COND_AXIS_OFFSET-12 "-"
*MEAS_COND_AXIS_OFFSET-13 "-"
*MEAS_COND_AXIS_OFFSET-14 "-"
*MEAS_COND_AXIS_OFFSET-15 "-"
*MEAS_COND_AXIS_OFFSET-16 "-"
*MEAS_COND_AXIS_OFFSET-17 "-"
*MEAS_COND_AXIS_OFFSET-18 "-"
*MEAS_COND_AXIS_OFFSET-19 "-"
*MEAS_COND_AXIS_OFFSET-20 "-"
*MEAS_COND_AXIS_OFFSET-21 "-"
*MEAS_COND_AXIS_OFFSET-22 "-"
*MEAS_COND_AXIS_OFFSET-23 "-"
*MEAS_COND_AXIS_OFFSET-24 "-"
*MEAS_COND_AXIS_OFFSET-25 "-"
*MEAS_COND_AXIS_OFFSET-26 "-"
*MEAS_COND_AXIS_OFFSET-27 "-"
*MEAS_COND_AXIS_OFFSET-28 "-"
*MEAS_COND_AXIS_OFFSET-29 "-"
*MEAS_COND_AXIS_OFFSET-30 "-"
*MEAS_COND_AXIS_POSITION-0 "0.0000000000"
*MEAS_COND_AXIS_POSITION-1 "0.0000000000"
*MEAS_COND_AXIS_POSITION-2 "0.0000000000"
*MEAS_COND_AXIS_POSITION-3 "-0.5500000000"
*MEAS_COND_AXIS_POSITION-4 "0.0000000000"
*MEAS_COND_AXIS_POSITION-5 "0.0000000000"
*MEAS_COND_AXIS_POSITION-6 "0.0000000000"
*MEAS_COND_AXIS_POSITION-7 "-0.4278800000"
*MEAS_COND_AXIS_POSITION-8 "BB"
*MEAS_COND_AXIS_POSITION-9 "0.0000000000"
*MEAS_COND_AXIS_POSITION-10 "Soller_slit_5.0deg"
*MEAS_COND_AXIS_POSITION-11 "2/3deg"
*MEAS_COND_AXIS_POSITION-12 "2.2088000000"
*MEAS_COND_AXIS_POSITION-13 "-0.4140600000"
*MEAS_COND_AXIS_POSITION-14 "0.0000000000"
*MEAS_COND_AXIS_POSITION-15 "10.0mm"
*MEAS_COND_AXIS_POSITION-16 "None"
*MEAS_COND_AXIS_POSITION-17 "Cu_K-beta"
*MEAS_COND_AXIS_POSITION-18 "13.000mm"
*MEAS_COND_AXIS_POSITION-19 "13.000mm"
*MEAS_COND_AXIS_POSITION-20 "No_unit"
*MEAS_COND_AXIS_POSITION-21 "Soller_slit_5.0deg"
*MEAS_COND_AXIS_POSITION-22 "None"
*MEAS_COND_AXIS_POSITION-23 "13.0000000000"
*MEAS_COND_AXIS_POSITION-24 "13.0000000000"
*MEAS_COND_AXIS_POSITION-25 "0.0109400000"
*MEAS_COND_AXIS_POSITION-26 "Open"
*MEAS_COND_AXIS_POSITION-27 "None"
*MEAS_COND_AXIS_POSITION-28 "None"
*MEAS_COND_AXIS_POSITION-29 "None"
*MEAS_COND_AXIS_POSITION-30 "38.0000000000"
*MEAS_COND_AXIS_UNIT-0 "deg"
*MEAS_COND_AXIS_UNIT-1 "deg"
*MEAS_COND_AXIS_UNIT-2 "deg"
*MEAS_COND_AXIS_UNIT-3 "mm"
*MEAS_COND_AXIS_UNIT-4 "deg"
*MEAS_COND_AXIS_UNIT-5 "deg"
*MEAS_COND_AXIS_UNIT-6 "deg"
*MEAS_COND_AXIS_UNIT-7 "mm"
*MEAS_COND_AXIS_UNIT-8 ""
*MEAS_COND_AXIS_UNIT-9 "pulse"
*MEAS_COND_AXIS_UNIT-10 ""
*MEAS_COND_AXIS_UNIT-11 ""
*MEAS_COND_AXIS_UNIT-12 "mm"
*MEAS_COND_AXIS_UNIT-13 "mm"
*MEAS_COND_AXIS_UNIT-14 ""
*MEAS_COND_AXIS_UNIT-15 ""
*MEAS_COND_AXIS_UNIT-16 ""
*MEAS_COND_AXIS_UNIT-17 ""
*MEAS_COND_AXIS_UNIT-18 ""
*MEAS_COND_AXIS_UNIT-19 ""
*MEAS_COND_AXIS_UNIT-20 ""
*MEAS_COND_AXIS_UNIT-21 ""
*MEAS_COND_AXIS_UNIT-22 ""
*MEAS_COND_AXIS_UNIT-23 "mm"
*MEAS_COND_AXIS_UNIT-24 "mm"
*MEAS_COND_AXIS_UNIT-25 "mm"
*MEAS_COND_AXIS_UNIT-26 ""
*MEAS_COND_AXIS_UNIT-27 ""
*MEAS_COND_AXIS_UNIT-28 ""
*MEAS_COND_AXIS_UNIT-29 ""
*MEAS_COND_AXIS_UNIT-30 "div"
*MEAS_COND_COUNTER_CNTLOSS_CORR "0.0000000000"
*MEAS_COND_COUNTER_PHABASE "38.0000000000"
*MEAS_COND_COUNTER_PHAWINDOW "16.0000000000"
*MEAS_COND_COUNTER_PHA_UNIT "div"
*MEAS_COND_COUNTER_TAUDIFF "30.0000000000"
*MEAS_COND_COUNTER_TAUINT "0.0000000000"
*MEAS_COND_IRRADIATION_MODE "OFF"
*MEAS_COND_IRRADIATION_WIDTH ""
*MEAS_COND_OPT_ATTR "集中法"
*MEAS_COND_OPT_NAME "@集中法"
*MEAS_COND_UNSYMMETRIC_MODE "OFF"
*MEAS_COND_XG_CURRENT "30.0000000000"
*MEAS_COND_XG_VOLTAGE "40.0000000000"
*MEAS_COND_XG_WAVE_TYPE "Ka"
*MEAS_DATA_COUNT "5001.0000000000"
*MEAS_SCAN_AXIS_X "2θ/θ"
*MEAS_SCAN_AXIS_X_INTERNAL "TwoThetaTheta"
*MEAS_SCAN_END_TIME "07/06/21 17:53:17"
*MEAS_SCAN_MODE "CONTINUOUS"
*MEAS_SCAN_MONITOR "0"
*MEAS_SCAN_RESOLUTION_X "0.0002"
*MEAS_SCAN_SPEED "1.0"
*MEAS_SCAN_SPEED_UNIT "deg/min"
*MEAS_SCAN_START "20.0000000000"
*MEAS_SCAN_START_TIME "07/06/21 17:00:24"
*MEAS_SCAN_STEP "0.0100000000"
*MEAS_SCAN_STOP "70.0000000000"
*MEAS_SCAN_UNIT_X "deg"
*MEAS_SCAN_UNIT_Y "counts"
*RAS_HEADER_END
*RAS_INT_START
20.0000 1526.0000 1.0000
20.0100 1610.0000 1.0000
20.0200 1589.0000 1.0000
20.0300 1594.0000 1.0000
20.0400 1516.0000 1.0000
20.0500 1517.0000 1.0000
20.0600 1589.0000 1.0000
20.0700 1537.0000 1.0000
20.0800 1519.0000 1.0000
20.0900 1589.0000 1.0000
20.1000 1560.0000 1.0000
20.1100 1527.0000 1.0000
20.1200 1557.0000 1.0000
20.1300 1599.0000 1.0000
20.1400 1565.0000 1.0000
20.1500 1556.0000 1.0000
20.1600 1497.0000 1.0000
20.1700 1535.0000 1.0000
20.1800 1513.0000 1.0000
20.1900 1609.0000 1.0000
20.2000 1571.0000 1.0000
20.2100 1538.0000 1.0000
20.2200 1556.0000 1.0000
20.2300 1573.0000 1.0000
20.2400 1589.0000 1.0000
20.2500 1529.0000 1.0000
20.2600 1519.0000 1.0000
20.2700 1607.0000 1.0000
20.2800 1595.0000 1.0000
20.2900 1524.0000 1.0000
20.3000 1522.0000 1.0000
20.3100 1521.0000 1.0000
20.3200 1509.0000 1.0000
20.3300 1541.0000 1.0000
20.3400 1575.0000 1.0000
20.3500 1510.0000 1.0000
20.3600 1479.0000 1.0000
20.3700 1566.0000 1.0000
20.3800 1574.0000 1.0000
20.3900 1518.0000 1.0000
20.4000 1520.0000 1.0000
20.4100 1510.0000 1.0000
20.4200 1591.0000 1.0000
20.4300 1477.0000 1.0000
20.4400 1521.0000 1.0000
20.4500 1517.0000 1.0000
20.4600 1548.0000 1.0000
20.4700 1505.0000 1.0000
20.4800 1577.0000 1.0000
20.4900 1582.0000 1.0000
20.5000 1611.0000 1.0000
20.5100 1569.0000 1.0000
20.5200 1569.0000 1.0000
20.5300 1523.0000 1.0000
20.5400 1564.0000 1.0000
20.5500 1553.0000 1.0000
20.5600 1518.0000 1.0000
20.5700 1541.0000 1.0000
20.5800 1542.0000 1.0000
20.5900 1573.0000 1.0000
20.6000 1511.0000 1.0000
20.6100 1577.0000 1.0000
20.6200 1529.0000 1.0000
20.6300 1576.0000 1.0000
20.6400 1535.0000 1.0000
20.6500 1554.0000 1.0000
20.6600 1593.0000 1.0000
20.6700 1538.0000 1.0000
20.6800 1630.0000 1.0000
20.6900 1568.0000 1.0000
20.7000 1577.0000 1.0000
20.7100 1527.0000 1.0000
20.7200 1575.0000 1.0000
20.7300 1554.0000 1.0000
20.7400 1574.0000 1.0000
20.7500 1535.0000 1.0000
20.7600 1556.0000 1.0000
20.7700 1509.0000 1.0000
20.7800 1582.0000 1.0000
20.7900 1569.0000 1.0000
20.8000 1548.0000 1.0000
20.8100 1578.0000 1.0000
20.8200 1597.0000 1.0000
20.8300 1469.0000 1.0000
20.8400 1567.0000 1.0000
20.8500 1545.0000 1.0000
20.8600 1556.0000 1.0000
20.8700 1554.0000 1.0000
20.8800 1505.0000 1.0000
20.8900 1511.0000 1.0000
20.9000 1500.0000 1.0000
20.9100 1498.0000 1.0000
20.9200 1594.0000 1.0000
20.9300 1493.0000 1.0000
20.9400 1542.0000 1.0000
20.9500 1527.0000 1.0000
20.9600 1532.0000 1.0000
20.9700 1580.0000 1.0000
20.9800 1500.0000 1.0000
20.9900 1555.0000 1.0000
21.0000 1536.0000 1.0000
21.0100 1580.0000 1.0000
21.0200 1602.0000 1.0000
21.0300 1562.0000 1.0000
21.0400 1669.0000 1.0000
21.0500 1517.0000 1.0000
21.0600 1510.0000 1.0000
21.0700 1576.0000 1.0000
21.0800 1516.0000 1.0000
21.0900 1527.0000 1.0000
21.1000 1575.0000 1.0000
21.1100 1534.0000 1.0000
21.1200 1558.0000 1.0000
21.1300 1551.0000 1.0000
21.1400 1505.0000 1.0000
21.1500 1598.0000 1.0000
21.1600 1569.0000 1.0000
21.1700 1570.0000 1.0000
21.1800 1591.0000 1.0000
21.1900 1510.0000 1.0000
21.2000 1487.0000 1.0000
21.2100 1512.0000 1.0000
21.2200 1565.0000 1.0000
21.2300 1566.0000 1.0000
21.2400 1576.0000 1.0000
21.2500 1546.0000 1.0000
21.2600 1496.0000 1.0000
21.2700 1559.0000 1.0000
21.2800 1559.0000 1.0000
21.2900 1564.0000 1.0000
21.3000 1539.0000 1.0000
21.3100 1614.0000 1.0000
21.3200 1584.0000 1.0000
21.3300 1560.0000 1.0000
21.3400 1563.0000 1.0000
21.3500 1530.0000 1.0000
21.3600 1572.0000 1.0000
21.3700 1580.0000 1.0000
21.3800 1548.0000 1.0000
21.3900 1520.0000 1.0000
21.4000 1536.0000 1.0000
21.4100 1462.0000 1.0000
21.4200 1522.0000 1.0000
21.4300 1603.0000 1.0000
21.4400 1515.0000 1.0000
21.4500 1526.0000 1.0000
21.4600 1566.0000 1.0000
21.4700 1575.0000 1.0000
21.4800 1546.0000 1.0000
21.4900 1595.0000 1.0000
21.5000 1493.0000 1.0000
21.5100 1524.0000 1.0000
21.5200 1578.0000 1.0000
21.5300 1540.0000 1.0000
21.5400 1579.0000 1.0000
21.5500 1464.0000 1.0000
21.5600 1486.0000 1.0000
21.5700 1545.0000 1.0000
21.5800 1513.0000 1.0000
21.5900 1526.0000 1.0000
21.6000 1504.0000 1.0000
21.6100 1488.0000 1.0000
21.6200 1513.0000 1.0000
21.6300 1570.0000 1.0000
21.6400 1549.0000 1.0000
21.6500 1548.0000 1.0000
21.6600 1503.0000 1.0000
21.6700 1567.0000 1.0000
21.6800 1438.0000 1.0000
21.6900 1516.0000 1.0000
21.7000 1535.0000 1.0000
21.7100 1527.0000 1.0000
21.7200 1591.0000 1.0000
21.7300 1504.0000 1.0000
21.7400 1554.0000 1.0000
21.7500 1534.0000 1.0000
21.7600 1554.0000 1.0000
21.7700 1529.0000 1.0000
21.7800 1565.0000 1.0000
21.7900 1540.0000 1.0000
21.8000 1509.0000 1.0000
21.8100 1503.0000 1.0000
21.8200 1514.0000 1.0000
21.8300 1558.0000 1.0000
21.8400 1554.0000 1.0000
21.8500 1617.0000 1.0000
21.8600 1525.0000 1.0000
21.8700 1522.0000 1.0000
21.8800 1515.0000 1.0000
21.8900 1548.0000 1.0000
21.9000 1496.0000 1.0000
21.9100 1573.0000 1.0000
21.9200 1564.0000 1.0000
21.9300 1537.0000 1.0000
21.9400 1592.0000 1.0000
21.9500 1612.0000 1.0000
21.9600 1538.0000 1.0000
21.9700 1499.0000 1.0000
21.9800 1541.0000 1.0000
21.9900 1503.0000 1.0000
22.0000 1504.0000 1.0000
22.0100 1547.0000 1.0000
22.0200 1594.0000 1.0000
22.0300 1511.0000 1.0000
22.0400 1530.0000 1.0000
22.0500 1493.0000 1.0000
22.0600 1552.0000 1.0000
22.0700 1593.0000 1.0000
22.0800 1574.0000 1.0000
22.0900 1520.0000 1.0000
22.1000 1494.0000 1.0000
22.1100 1590.0000 1.0000
22.1200 1539.0000 1.0000
22.1300 1501.0000 1.0000
22.1400 1513.0000 1.0000
22.1500 1601.0000 1.0000
22.1600 1611.0000 1.0000
22.1700 1537.0000 1.0000
22.1800 1610.0000 1.0000
22.1900 1604.0000 1.0000
22.2000 1580.0000 1.0000
22.2100 1627.0000 1.0000
22.2200 1559.0000 1.0000
22.2300 1511.0000 1.0000
22.2400 1545.0000 1.0000
22.2500 1552.0000 1.0000
22.2600 1503.0000 1.0000
22.2700 1520.0000 1.0000
22.2800 1550.0000 1.0000
22.2900 1592.0000 1.0000
22.3000 1565.0000 1.0000
22.3100 1582.0000 1.0000
22.3200 1576.0000 1.0000
22.3300 1559.0000 1.0000
22.3400 1629.0000 1.0000
22.3500 1558.0000 1.0000
22.3600 1603.0000 1.0000
22.3700 1554.0000 1.0000
22.3800 1579.0000 1.0000
22.3900 1574.0000 1.0000
22.4000 1540.0000 1.0000
22.4100 1543.0000 1.0000
22.4200 1562.0000 1.0000
22.4300 1534.0000 1.0000
22.4400 1514.0000 1.0000
22.4500 1577.0000 1.0000
22.4600 1571.0000 1.0000
22.4700 1586.0000 1.0000
22.4800 1505.0000 1.0000
22.4900 1493.0000 1.0000
22.5000 1502.0000 1.0000
22.5100 1529.0000 1.0000
22.5200 1493.0000 1.0000
22.5300 1491.0000 1.0000
22.5400 1532.0000 1.0000
22.5500 1582.0000 1.0000
22.5600 1505.0000 1.0000
22.5700 1572.0000 1.0000
22.5800 1535.0000 1.0000
22.5900 1522.0000 1.0000
22.6000 1546.0000 1.0000
22.6100 1565.0000 1.0000
22.6200 1553.0000 1.0000
22.6300 1649.0000 1.0000
22.6400 1536.0000 1.0000
22.6500 1579.0000 1.0000
22.6600 1540.0000 1.0000
22.6700 1533.0000 1.0000
22.6800 1620.0000 1.0000
22.6900 1586.0000 1.0000
22.7000 1579.0000 1.0000
22.7100 1540.0000 1.0000
22.7200 1547.0000 1.0000
22.7300 1609.0000 1.0000
22.7400 1544.0000 1.0000
22.7500 1521.0000 1.0000
22.7600 1556.0000 1.0000
22.7700 1491.0000 1.0000
22.7800 1535.0000 1.0000
22.7900 1513.0000 1.0000
22.8000 1508.0000 1.0000
22.8100 1593.0000 1.0000
22.8200 1571.0000 1.0000
22.8300 1504.0000 1.0000
22.8400 1554.0000 1.0000
22.8500 1555.0000 1.0000
22.8600 1527.0000 1.0000
22.8700 1561.0000 1.0000
22.8800 1571.0000 1.0000
22.8900 1579.0000 1.0000
22.9000 1561.0000 1.0000
22.9100 1562.0000 1.0000
22.9200 1541.0000 1.0000
22.9300 1542.0000 1.0000
22.9400 1601.0000 1.0000
22.9500 1577.0000 1.0000
22.9600 1534.0000 1.0000
22.9700 1525.0000 1.0000
22.9800 1536.0000 1.0000
22.9900 1528.0000 1.0000
23.0000 1555.0000 1.0000
23.0100 1496.0000 1.0000
23.0200 1591.0000 1.0000
23.0300 1582.0000 1.0000
23.0400 1583.0000 1.0000
23.0500 1476.0000 1.0000
23.0600 1558.0000 1.0000
23.0700 1571.0000 1.0000
23.0800 1532.0000 1.0000
23.0900 1570.0000 1.0000
23.1000 1572.0000 1.0000
23.1100 1618.0000 1.0000
23.1200 1548.0000 1.0000
23.1300 1588.0000 1.0000
23.1400 1569.0000 1.0000
23.1500 1595.0000 1.0000
23.1600 1566.0000 1.0000
23.1700 1522.0000 1.0000
23.1800 1556.0000 1.0000
23.1900 1539.0000 1.0000
23.2000 1532.0000 1.0000
23.2100 1544.0000 1.0000
23.2200 1562.0000 1.0000
23.2300 1532.0000 1.0000
23.2400 1579.0000 1.0000
23.2500 1543.0000 1.0000
23.2600 1499.0000 1.0000
23.2700 1553.0000 1.0000
23.2800 1576.0000 1.0000
23.2900 1578.0000 1.0000
23.3000 1567.0000 1.0000
23.3100 1569.0000 1.0000
23.3200 1561.0000 1.0000
23.3300 1553.0000 1.0000
23.3400 1569.0000 1.0000
23.3500 1565.0000 1.0000
23.3600 1559.0000 1.0000
23.3700 1560.0000 1.0000
23.3800 1550.0000 1.0000
23.3900 1576.0000 1.0000
23.4000 1597.0000 1.0000
23.4100 1540.0000 1.0000
23.4200 1635.0000 1.0000
23.4300 1577.0000 1.0000
23.4400 1502.0000 1.0000
23.4500 1618.0000 1.0000
23.4600 1547.0000 1.0000
23.4700 1634.0000 1.0000
23.4800 1588.0000 1.0000
23.4900 1595.0000 1.0000
23.5000 1545.0000 1.0000
23.5100 1574.0000 1.0000
23.5200 1542.0000 1.0000
23.5300 1530.0000 1.0000
23.5400 1583.0000 1.0000
23.5500 1517.0000 1.0000
23.5600 1563.0000 1.0000
23.5700 1554.0000 1.0000
23.5800 1592.0000 1.0000
23.5900 1612.0000 1.0000
23.6000 1584.0000 1.0000
23.6100 1598.0000 1.0000
23.6200 1600.0000 1.0000
23.6300 1590.0000 1.0000
23.6400 1532.0000 1.0000
23.6500 1617.0000 1.0000
23.6600 1547.0000 1.0000
23.6700 1559.0000 1.0000
23.6800 1561.0000 1.0000
23.6900 1530.0000 1.0000
23.7000 1554.0000 1.0000
23.7100 1551.0000 1.0000
23.7200 1577.0000 1.0000
23.7300 1610.0000 1.0000
23.7400 1600.0000 1.0000
23.7500 1635.0000 1.0000
23.7600 1617.0000 1.0000
23.7700 1574.0000 1.0000
23.7800 1587.0000 1.0000
23.7900 1553.0000 1.0000
23.8000 1559.0000 1.0000
23.8100 1505.0000 1.0000
23.8200 1597.0000 1.0000
23.8300 1602.0000 1.0000
23.8400 1539.0000 1.0000
23.8500 1585.0000 1.0000
23.8600 1519.0000 1.0000
23.8700 1583.0000 1.0000
23.8800 1612.0000 1.0000
23.8900 1594.0000 1.0000
23.9000 1527.0000 1.0000
23.9100 1561.0000 1.0000
23.9200 1586.0000 1.0000
23.9300 1577.0000 1.0000
23.9400 1551.0000 1.0000
23.9500 1570.0000 1.0000
23.9600 1581.0000 1.0000
23.9700 1604.0000 1.0000
23.9800 1577.0000 1.0000
23.9900 1636.0000 1.0000
24.0000 1611.0000 1.0000
24.0100 1588.0000 1.0000
24.0200 1561.0000 1.0000
24.0300 1572.0000 1.0000
24.0400 1563.0000 1.0000
24.0500 1510.0000 1.0000
24.0600 1568.0000 1.0000
24.0700 1658.0000 1.0000
24.0800 1591.0000 1.0000
24.0900 1562.0000 1.0000
24.1000 1597.0000 1.0000
24.1100 1552.0000 1.0000
24.1200 1555.0000 1.0000
24.1300 1554.0000 1.0000
24.1400 1570.0000 1.0000
24.1500 1592.0000 1.0000
24.1600 1640.0000 1.0000
24.1700 1590.0000 1.0000
24.1800 1554.0000 1.0000
24.1900 1559.0000 1.0000
24.2000 1521.0000 1.0000
24.2100 1630.0000 1.0000
24.2200 1552.0000 1.0000
24.2300 1598.0000 1.0000
24.2400 1589.0000 1.0000
24.2500 1581.0000 1.0000
24.2600 1593.0000 1.0000
24.2700 1595.0000 1.0000
24.2800 1650.0000 1.0000
24.2900 1659.0000 1.0000
24.3000 1660.0000 1.0000
24.3100 1583.0000 1.0000
24.3200 1595.0000 1.0000
24.3300 1586.0000 1.0000
24.3400 1480.0000 1.0000
24.3500 1553.0000 1.0000
24.3600 1580.0000 1.0000
24.3700 1613.0000 1.0000
24.3800 1597.0000 1.0000
24.3900 1603.0000 1.0000
24.4000 1594.0000 1.0000
24.4100 1538.0000 1.0000
24.4200 1522.0000 1.0000
24.4300 1594.0000 1.0000
24.4400 1624.0000 1.0000
24.4500 1618.0000 1.0000
24.4600 1610.0000 1.0000
24.4700 1559.0000 1.0000
24.4800 1587.0000 1.0000
24.4900 1610.0000 1.0000
24.5000 1597.0000 1.0000
24.5100 1543.0000 1.0000
24.5200 1603.0000 1.0000
24.5300 1641.0000 1.0000
24.5400 1604.0000 1.0000
24.5500 1687.0000 1.0000
24.5600 1651.0000 1.0000
24.5700 1571.0000 1.0000
24.5800 1627.0000 1.0000
24.5900 1566.0000 1.0000
24.6000 1548.0000 1.0000
24.6100 1622.0000 1.0000
24.6200 1586.0000 1.0000
24.6300 1616.0000 1.0000
24.6400 1600.0000 1.0000
24.6500 1634.0000 1.0000
24.6600 1606.0000 1.0000
24.6700 1645.0000 1.0000
24.6800 1578.0000 1.0000
24.6900 1656.0000 1.0000
24.7000 1622.0000 1.0000
24.7100 1593.0000 1.0000
24.7200 1611.0000 1.0000
24.7300 1612.0000 1.0000
24.7400 1649.0000 1.0000
24.7500 1639.0000 1.0000
24.7600 1650.0000 1.0000
24.7700 1631.0000 1.0000
24.7800 1662.0000 1.0000
24.7900 1629.0000 1.0000
24.8000 1618.0000 1.0000
24.8100 1650.0000 1.0000
24.8200 1636.0000 1.0000
24.8300 1608.0000 1.0000
24.8400 1654.0000 1.0000
24.8500 1622.0000 1.0000
24.8600 1611.0000 1.0000
24.8700 1632.0000 1.0000
24.8800 1685.0000 1.0000
24.8900 1601.0000 1.0000
24.9000 1635.0000 1.0000
24.9100 1665.0000 1.0000
24.9200 1584.0000 1.0000
24.9300 1608.0000 1.0000
24.9400 1648.0000 1.0000
24.9500 1637.0000 1.0000
24.9600 1617.0000 1.0000
24.9700 1676.0000 1.0000
24.9800 1632.0000 1.0000
24.9900 1662.0000 1.0000
25.0000 1691.0000 1.0000
25.0100 1676.0000 1.0000
25.0200 1609.0000 1.0000
25.0300 1654.0000 1.0000
25.0400 1662.0000 1.0000
25.0500 1689.0000 1.0000
25.0600 1620.0000 1.0000
25.0700 1639.0000 1.0000
25.0800 1582.0000 1.0000
25.0900 1638.0000 1.0000
25.1000 1614.0000 1.0000
25.1100 1650.0000 1.0000
25.1200 1560.0000 1.0000
25.1300 1654.0000 1.0000
25.1400 1673.0000 1.0000
25.1500 1649.0000 1.0000
25.1600 1678.0000 1.0000
25.1700 1609.0000 1.0000
25.1800 1610.0000 1.0000
25.1900 1682.0000 1.0000
25.2000 1580.0000 1.0000
25.2100 1585.0000 1.0000
25.2200 1585.0000 1.0000
25.2300 1626.0000 1.0000
25.2400 1579.0000 1.0000
25.2500 1609.0000 1.0000
25.2600 1626.0000 1.0000
25.2700 1589.0000 1.0000
25.2800 1694.0000 1.0000
25.2900 1630.0000 1.0000
25.3000 1630.0000 1.0000
25.3100 1561.0000 1.0000
25.3200 1680.0000 1.0000
25.3300 1634.0000 1.0000
25.3400 1628.0000 1.0000
25.3500 1576.0000 1.0000
25.3600 1597.0000 1.0000
25.3700 1694.0000 1.0000
25.3800 1657.0000 1.0000
25.3900 1603.0000 1.0000
25.4000 1603.0000 1.0000
25.4100 1630.0000 1.0000
25.4200 1622.0000 1.0000
25.4300 1616.0000 1.0000
25.4400 1604.0000 1.0000
25.4500 1625.0000 1.0000
25.4600 1635.0000 1.0000
25.4700 1653.0000 1.0000
25.4800 1645.0000 1.0000
25.4900 1602.0000 1.0000
25.5000 1654.0000 1.0000
25.5100 1583.0000 1.0000
25.5200 1719.0000 1.0000
25.5300 1624.0000 1.0000
25.5400 1653.0000 1.0000
25.5500 1575.0000 1.0000
25.5600 1673.0000 1.0000
25.5700 1653.0000 1.0000
25.5800 1627.0000 1.0000
25.5900 1693.0000 1.0000
25.6000 1643.0000 1.0000
25.6100 1575.0000 1.0000
25.6200 1662.0000 1.0000
25.6300 1621.0000 1.0000
25.6400 1604.0000 1.0000
25.6500 1551.0000 1.0000
25.6600 1531.0000 1.0000
25.6700 1578.0000 1.0000
25.6800 1580.0000 1.0000
25.6900 1691.0000 1.0000
25.7000 1573.0000 1.0000
25.7100 1635.0000 1.0000
25.7200 1616.0000 1.0000
25.7300 1664.0000 1.0000
25.7400 1602.0000 1.0000
25.7500 1624.0000 1.0000
25.7600 1637.0000 1.0000
25.7700 1570.0000 1.0000
25.7800 1609.0000 1.0000
25.7900 1604.0000 1.0000
25.8000 1597.0000 1.0000
25.8100 1614.0000 1.0000
25.8200 1641.0000 1.0000
25.8300 1638.0000 1.0000
25.8400 1678.0000 1.0000
25.8500 1636.0000 1.0000
25.8600 1606.0000 1.0000
25.8700 1618.0000 1.0000
25.8800 1574.0000 1.0000
25.8900 1589.0000 1.0000
25.9000 1516.0000 1.0000
25.9100 1607.0000 1.0000
25.9200 1663.0000 1.0000
25.9300 1601.0000 1.0000
25.9400 1608.0000 1.0000
25.9500 1628.0000 1.0000
25.9600 1606.0000 1.0000
25.9700 1611.0000 1.0000
25.9800 1570.0000 1.0000
25.9900 1651.0000 1.0000
26.0000 1579.0000 1.0000
26.0100 1596.0000 1.0000
26.0200 1563.0000 1.0000
26.0300 1673.0000 1.0000
26.0400 1624.0000 1.0000
26.0500 1608.0000 1.0000
26.0600 1643.0000 1.0000
26.0700 1635.0000 1.0000
26.0800 1628.0000 1.0000
26.0900 1609.0000 1.0000
26.1000 1610.0000 1.0000
26.1100 1631.0000 1.0000
26.1200 1596.0000 1.0000
26.1300 1617.0000 1.0000
26.1400 1626.0000 1.0000
26.1500 1618.0000 1.0000
26.1600 1639.0000 1.0000
26.1700 1637.0000 1.0000
26.1800 1584.0000 1.0000
26.1900 1521.0000 1.0000
26.2000 1592.0000 1.0000
26.2100 1672.0000 1.0000
26.2200 1631.0000 1.0000
26.2300 1600.0000 1.0000
26.2400 1619.0000 1.0000
26.2500 1699.0000 1.0000
26.2600 1632.0000 1.0000
26.2700 1670.0000 1.0000
26.2800 1590.0000 1.0000
26.2900 1619.0000 1.0000
26.3000 1589.0000 1.0000
26.3100 1639.0000 1.0000
26.3200 1607.0000 1.0000
26.3300 1633.0000 1.0000
26.3400 1705.0000 1.0000
26.3500 1661.0000 1.0000
26.3600 1642.0000 1.0000
26.3700 1648.0000 1.0000
26.3800 1703.0000 1.0000
26.3900 1688.0000 1.0000
26.4000 1749.0000 1.0000
26.4100 1766.0000 1.0000
26.4200 1682.0000 1.0000
26.4300 1753.0000 1.0000
26.4400 1707.0000 1.0000
26.4500 1682.0000 1.0000
26.4600 1674.0000 1.0000
26.4700 1685.0000 1.0000
26.4800 1727.0000 1.0000
26.4900 1680.0000 1.0000
26.5000 1680.0000 1.0000
26.5100 1709.0000 1.0000
26.5200 1661.0000 1.0000
26.5300 1677.0000 1.0000
26.5400 1682.0000 1.0000
26.5500 1719.0000 1.0000
26.5600 1785.0000 1.0000
26.5700 1760.0000 1.0000
26.5800 1698.0000 1.0000
26.5900 1666.0000 1.0000
26.6000 1650.0000 1.0000
26.6100 1675.0000 1.0000
26.6200 1759.0000 1.0000
26.6300 1762.0000 1.0000
26.6400 1758.0000 1.0000
26.6500 1685.0000 1.0000
26.6600 1754.0000 1.0000
26.6700 1734.0000 1.0000
26.6800 1679.0000 1.0000
26.6900 1677.0000 1.0000
26.7000 1711.0000 1.0000
26.7100 1733.0000 1.0000
26.7200 1729.0000 1.0000
26.7300 1723.0000 1.0000
26.7400 1753.0000 1.0000
26.7500 1737.0000 1.0000
26.7600 1769.0000 1.0000
26.7700 1758.0000 1.0000
26.7800 1767.0000 1.0000
26.7900 1799.0000 1.0000
26.8000 1801.0000 1.0000
26.8100 1802.0000 1.0000
26.8200 1842.0000 1.0000
26.8300 1893.0000 1.0000
26.8400 1826.0000 1.0000
26.8500 1883.0000 1.0000
26.8600 1873.0000 1.0000
26.8700 1831.0000 1.0000
26.8800 1769.0000 1.0000
26.8900 1849.0000 1.0000
26.9000 1877.0000 1.0000
26.9100 1952.0000 1.0000
26.9200 1944.0000 1.0000
26.9300 2016.0000 1.0000
26.9400 2048.0000 1.0000
26.9500 1997.0000 1.0000
26.9600 1996.0000 1.0000
26.9700 1986.0000 1.0000
26.9800 1966.0000 1.0000
26.9900 2104.0000 1.0000
27.0000 2100.0000 1.0000
27.0100 2191.0000 1.0000
27.0200 2144.0000 1.0000
27.0300 2242.0000 1.0000
27.0400 2319.0000 1.0000
27.0500 2350.0000 1.0000
27.0600 2441.0000 1.0000
27.0700 2489.0000 1.0000
27.0800 2542.0000 1.0000
27.0900 2608.0000 1.0000
27.1000 2613.0000 1.0000
27.1100 2798.0000 1.0000
27.1200 2839.0000 1.0000
27.1300 2992.0000 1.0000
27.1400 3169.0000 1.0000
27.1500 3235.0000 1.0000
27.1600 3433.0000 1.0000
27.1700 3566.0000 1.0000
27.1800 3700.0000 1.0000
27.1900 3876.0000 1.0000
27.2000 4034.0000 1.0000
27.2100 4184.0000 1.0000
27.2200 4431.0000 1.0000
27.2300 4682.0000 1.0000
27.2400 5075.0000 1.0000
27.2500 5240.0000 1.0000
27.2600 5496.0000 1.0000
27.2700 5657.0000 1.0000
27.2800 5852.0000 1.0000
27.2900 5959.0000 1.0000
27.3000 6026.0000 1.0000
27.3100 6088.0000 1.0000
27.3200 6197.0000 1.0000
27.3300 6146.0000 1.0000
27.3400 6067.0000 1.0000
27.3500 6059.0000 1.0000
27.3600 5826.0000 1.0000
27.3700 5559.0000 1.0000
27.3800 5133.0000 1.0000
27.3900 4950.0000 1.0000
27.4000 4827.0000 1.0000
27.4100 4549.0000 1.0000
27.4200 4312.0000 1.0000
27.4300 4188.0000 1.0000
27.4400 3855.0000 1.0000
27.4500 3741.0000 1.0000
27.4600 3507.0000 1.0000
27.4700 3377.0000 1.0000
27.4800 3237.0000 1.0000
27.4900 3069.0000 1.0000
27.5000 3011.0000 1.0000
27.5100 2949.0000 1.0000
27.5200 2754.0000 1.0000
27.5300 2816.0000 1.0000
27.5400 2651.0000 1.0000
27.5500 2650.0000 1.0000
27.5600 2530.0000 1.0000
27.5700 2431.0000 1.0000
27.5800 2386.0000 1.0000
27.5900 2348.0000 1.0000
27.6000 2208.0000 1.0000
27.6100 2259.0000 1.0000
27.6200 2207.0000 1.0000
27.6300 2179.0000 1.0000
27.6400 2205.0000 1.0000
27.6500 2129.0000 1.0000
27.6600 1993.0000 1.0000
27.6700 2019.0000 1.0000
27.6800 2024.0000 1.0000
27.6900 2032.0000 1.0000
27.7000 1986.0000 1.0000
27.7100 1941.0000 1.0000
27.7200 1968.0000 1.0000
27.7300 1931.0000 1.0000
27.7400 1877.0000 1.0000
27.7500 1880.0000 1.0000
27.7600 1892.0000 1.0000
27.7700 1849.0000 1.0000
27.7800 1852.0000 1.0000
27.7900 1843.0000 1.0000
27.8000 1796.0000 1.0000
27.8100 1791.0000 1.0000
27.8200 1841.0000 1.0000
27.8300 1765.0000 1.0000
27.8400 1802.0000 1.0000
27.8500 1810.0000 1.0000
27.8600 1715.0000 1.0000
27.8700 1754.0000 1.0000
27.8800 1727.0000 1.0000
27.8900 1739.0000 1.0000
27.9000 1705.0000 1.0000
27.9100 1747.0000 1.0000
27.9200 1667.0000 1.0000
27.9300 1725.0000 1.0000
27.9400 1731.0000 1.0000
27.9500 1733.0000 1.0000
27.9600 1721.0000 1.0000
27.9700 1706.0000 1.0000
27.9800 1699.0000 1.0000
27.9900 1656.0000 1.0000
28.0000 1725.0000 1.0000
28.0100 1743.0000 1.0000
28.0200 1725.0000 1.0000
28.0300 1673.0000 1.0000
28.0400 1640.0000 1.0000
28.0500 1679.0000 1.0000
28.0600 1751.0000 1.0000
28.0700 1733.0000 1.0000
28.0800 1690.0000 1.0000
28.0900 1712.0000 1.0000
28.1000 1716.0000 1.0000
28.1100 1655.0000 1.0000
28.1200 1631.0000 1.0000
28.1300 1648.0000 1.0000
28.1400 1620.0000 1.0000
28.1500 1595.0000 1.0000
28.1600 1622.0000 1.0000
28.1700 1672.0000 1.0000
28.1800 1616.0000 1.0000
28.1900 1694.0000 1.0000
28.2000 1588.0000 1.0000
28.2100 1606.0000 1.0000
28.2200 1637.0000 1.0000
28.2300 1653.0000 1.0000
28.2400 1591.0000 1.0000
28.2500 1600.0000 1.0000
28.2600 1593.0000 1.0000
28.2700 1621.0000 1.0000
28.2800 1622.0000 1.0000
28.2900 1598.0000 1.0000
28.3000 1600.0000 1.0000
28.3100 1616.0000 1.0000
28.3200 1596.0000 1.0000
28.3300 1685.0000 1.0000
28.3400 1601.0000 1.0000
28.3500 1598.0000 1.0000
28.3600 1605.0000 1.0000
28.3700 1601.0000 1.0000
28.3800 1615.0000 1.0000
28.3900 1602.0000 1.0000
28.4000 1599.0000 1.0000
28.4100 1645.0000 1.0000
28.4200 1588.0000 1.0000
28.4300 1606.0000 1.0000
28.4400 1621.0000 1.0000
28.4500 1562.0000 1.0000
28.4600 1628.0000 1.0000
28.4700 1556.0000 1.0000
28.4800 1557.0000 1.0000
28.4900 1634.0000 1.0000
28.5000 1664.0000 1.0000
28.5100 1654.0000 1.0000
28.5200 1638.0000 1.0000
28.5300 1660.0000 1.0000
28.5400 1588.0000 1.0000
28.5500 1562.0000 1.0000
28.5600 1614.0000 1.0000
28.5700 1606.0000 1.0000
28.5800 1629.0000 1.0000
28.5900 1565.0000 1.0000
28.6000 1553.0000 1.0000
28.6100 1705.0000 1.0000
28.6200 1563.0000 1.0000
28.6300 1640.0000 1.0000
28.6400 1604.0000 1.0000
28.6500 1570.0000 1.0000
28.6600 1584.0000 1.0000
28.6700 1584.0000 1.0000
28.6800 1607.0000 1.0000
28.6900 1654.0000 1.0000
28.7000 1612.0000 1.0000
28.7100 1571.0000 1.0000
28.7200 1564.0000 1.0000
28.7300 1584.0000 1.0000
28.7400 1552.0000 1.0000
28.7500 1540.0000 1.0000
28.7600 1514.0000 1.0000
28.7700 1596.0000 1.0000
28.7800 1582.0000 1.0000
28.7900 1641.0000 1.0000
28.8000 1559.0000 1.0000
28.8100 1578.0000 1.0000
28.8200 1581.0000 1.0000
28.8300 1571.0000 1.0000
28.8400 1581.0000 1.0000
28.8500 1604.0000 1.0000
28.8600 1540.0000 1.0000
28.8700 1534.0000 1.0000
28.8800 1576.0000 1.0000
28.8900 1591.0000 1.0000
28.9000 1537.0000 1.0000
28.9100 1588.0000 1.0000
28.9200 1612.0000 1.0000
28.9300 1600.0000 1.0000
28.9400 1602.0000 1.0000
28.9500 1587.0000 1.0000
28.9600 1529.0000 1.0000
28.9700 1478.0000 1.0000
28.9800 1557.0000 1.0000
28.9900 1680.0000 1.0000
29.0000 1578.0000 1.0000
29.0100 1578.0000 1.0000
29.0200 1555.0000 1.0000
29.0300 1491.0000 1.0000
29.0400 1516.0000 1.0000
29.0500 1519.0000 1.0000
29.0600 1611.0000 1.0000
29.0700 1553.0000 1.0000
29.0800 1579.0000 1.0000
29.0900 1551.0000 1.0000
29.1000 1602.0000 1.0000
29.1100 1535.0000 1.0000
29.1200 1553.0000 1.0000
29.1300 1565.0000 1.0000
29.1400 1541.0000 1.0000
29.1500 1552.0000 1.0000
29.1600 1540.0000 1.0000
29.1700 1555.0000 1.0000
29.1800 1611.0000 1.0000
29.1900 1532.0000 1.0000
29.2000 1558.0000 1.0000
29.2100 1544.0000 1.0000
29.2200 1568.0000 1.0000
29.2300 1600.0000 1.0000
29.2400 1582.0000 1.0000
29.2500 1564.0000 1.0000
29.2600 1550.0000 1.0000
29.2700 1546.0000 1.0000
29.2800 1543.0000 1.0000
29.2900 1503.0000 1.0000
29.3000 1531.0000 1.0000
29.3100 1536.0000 1.0000
29.3200 1509.0000 1.0000
29.3300 1554.0000 1.0000
29.3400 1541.0000 1.0000
29.3500 1566.0000 1.0000
29.3600 1538.0000 1.0000
29.3700 1542.0000 1.0000
29.3800 1566.0000 1.0000
29.3900 1538.0000 1.0000
29.4000 1505.0000 1.0000
29.4100 1570.0000 1.0000
29.4200 1569.0000 1.0000
29.4300 1504.0000 1.0000
29.4400 1530.0000 1.0000
29.4500 1581.0000 1.0000
29.4600 1543.0000 1.0000
29.4700 1573.0000 1.0000
29.4800 1571.0000 1.0000
29.4900 1604.0000 1.0000
29.5000 1544.0000 1.0000
29.5100 1588.0000 1.0000
29.5200 1504.0000 1.0000
29.5300 1523.0000 1.0000
29.5400 1586.0000 1.0000
29.5500 1551.0000 1.0000
29.5600 1477.0000 1.0000
29.5700 1554.0000 1.0000
29.5800 1600.0000 1.0000
29.5900 1599.0000 1.0000
29.6000 1548.0000 1.0000
29.6100 1574.0000 1.0000
29.6200 1534.0000 1.0000
29.6300 1508.0000 1.0000
29.6400 1562.0000 1.0000
29.6500 1539.0000 1.0000
29.6600 1572.0000 1.0000
29.6700 1521.0000 1.0000
29.6800 1587.0000 1.0000
29.6900 1523.0000 1.0000
29.7000 1540.0000 1.0000
29.7100 1578.0000 1.0000
29.7200 1561.0000 1.0000
29.7300 1580.0000 1.0000
29.7400 1525.0000 1.0000
29.7500 1425.0000 1.0000
29.7600 1485.0000 1.0000
29.7700 1498.0000 1.0000
29.7800 1493.0000 1.0000
29.7900 1532.0000 1.0000
29.8000 1554.0000 1.0000
29.8100 1528.0000 1.0000
29.8200 1585.0000 1.0000
29.8300 1505.0000 1.0000
29.8400 1549.0000 1.0000
29.8500 1569.0000 1.0000
29.8600 1576.0000 1.0000
29.8700 1596.0000 1.0000
29.8800 1530.0000 1.0000
29.8900 1522.0000 1.0000
29.9000 1475.0000 1.0000
29.9100 1540.0000 1.0000
29.9200 1575.0000 1.0000
29.9300 1497.0000 1.0000
29.9400 1513.0000 1.0000
29.9500 1583.0000 1.0000
29.9600 1633.0000 1.0000
29.9700 1573.0000 1.0000
29.9800 1550.0000 1.0000
29.9900 1542.0000 1.0000
30.0000 1544.0000 1.0000
30.0100 1506.0000 1.0000
30.0200 1510.0000 1.0000
30.0300 1542.0000 1.0000
30.0400 1516.0000 1.0000
30.0500 1492.0000 1.0000
30.0600 1524.0000 1.0000
30.0700 1566.0000 1.0000
30.0800 1575.0000 1.0000
30.0900 1518.0000 1.0000
30.1000 1492.0000 1.0000
30.1100 1505.0000 1.0000
30.1200 1527.0000 1.0000
30.1300 1493.0000 1.0000
30.1400 1498.0000 1.0000
30.1500 1502.0000 1.0000
30.1600 1494.0000 1.0000
30.1700 1538.0000 1.0000
30.1800 1560.0000 1.0000
30.1900 1614.0000 1.0000
30.2000 1549.0000 1.0000
30.2100 1566.0000 1.0000
30.2200 1540.0000 1.0000
30.2300 1509.0000 1.0000
30.2400 1536.0000 1.0000
30.2500 1518.0000 1.0000
30.2600 1513.0000 1.0000
30.2700 1570.0000 1.0000
30.2800 1558.0000 1.0000
30.2900 1439.0000 1.0000
30.3000 1514.0000 1.0000
30.3100 1542.0000 1.0000
30.3200 1543.0000 1.0000
30.3300 1533.0000 1.0000
30.3400 1517.0000 1.0000
30.3500 1464.0000 1.0000
30.3600 1567.0000 1.0000
30.3700 1493.0000 1.0000
30.3800 1498.0000 1.0000
30.3900 1547.0000 1.0000
30.4000 1525.0000 1.0000
30.4100 1525.0000 1.0000
30.4200 1538.0000 1.0000
30.4300 1497.0000 1.0000
30.4400 1482.0000 1.0000
30.4500 1563.0000 1.0000
30.4600 1572.0000 1.0000
30.4700 1456.0000 1.0000
30.4800 1501.0000 1.0000
30.4900 1480.0000 1.0000
30.5000 1537.0000 1.0000
30.5100 1524.0000 1.0000
30.5200 1459.0000 1.0000
30.5300 1496.0000 1.0000
30.5400 1437.0000 1.0000
30.5500 1538.0000 1.0000
30.5600 1529.0000 1.0000
30.5700 1443.0000 1.0000
30.5800 1479.0000 1.0000
30.5900 1545.0000 1.0000
30.6000 1512.0000 1.0000
30.6100 1534.0000 1.0000
30.6200 1519.0000 1.0000
30.6300 1432.0000 1.0000
30.6400 1568.0000 1.0000
30.6500 1476.0000 1.0000
30.6600 1518.0000 1.0000
30.6700 1506.0000 1.0000
30.6800 1503.0000 1.0000
30.6900 1448.0000 1.0000
30.7000 1443.0000 1.0000
30.7100 1410.0000 1.0000
30.7200 1536.0000 1.0000
30.7300 1545.0000 1.0000
30.7400 1470.0000 1.0000
30.7500 1539.0000 1.0000
30.7600 1529.0000 1.0000
30.7700 1537.0000 1.0000
30.7800 1461.0000 1.0000
30.7900 1539.0000 1.0000
30.8000 1477.0000 1.0000
30.8100 1469.0000 1.0000
30.8200 1577.0000 1.0000
30.8300 1510.0000 1.0000
30.8400 1456.0000 1.0000
30.8500 1493.0000 1.0000
30.8600 1459.0000 1.0000
30.8700 1454.0000 1.0000
30.8800 1408.0000 1.0000
30.8900 1478.0000 1.0000
30.9000 1501.0000 1.0000
30.9100 1523.0000 1.0000
30.9200 1433.0000 1.0000
30.9300 1486.0000 1.0000
30.9400 1525.0000 1.0000
30.9500 1499.0000 1.0000
30.9600 1480.0000 1.0000
30.9700 1550.0000 1.0000
30.9800 1499.0000 1.0000
30.9900 1493.0000 1.0000
31.0000 1455.0000 1.0000
31.0100 1460.0000 1.0000
31.0200 1502.0000 1.0000
31.0300 1468.0000 1.0000
31.0400 1505.0000 1.0000
31.0500 1569.0000 1.0000
31.0600 1523.0000 1.0000
31.0700 1482.0000 1.0000
31.0800 1499.0000 1.0000
31.0900 1528.0000 1.0000
31.1000 1510.0000 1.0000
31.1100 1505.0000 1.0000
31.1200 1510.0000 1.0000
31.1300 1427.0000 1.0000
31.1400 1502.0000 1.0000
31.1500 1488.0000 1.0000
31.1600 1513.0000 1.0000
31.1700 1505.0000 1.0000
31.1800 1526.0000 1.0000
31.1900 1509.0000 1.0000
31.2000 1472.0000 1.0000
31.2100 1469.0000 1.0000
31.2200 1472.0000 1.0000
31.2300 1520.0000 1.0000
31.2400 1535.0000 1.0000
31.2500 1523.0000 1.0000
31.2600 1529.0000 1.0000
31.2700 1515.0000 1.0000
31.2800 1533.0000 1.0000
31.2900 1504.0000 1.0000
31.3000 1506.0000 1.0000
31.3100 1484.0000 1.0000
31.3200 1489.0000 1.0000
31.3300 1448.0000 1.0000
31.3400 1473.0000 1.0000
31.3500 1516.0000 1.0000
31.3600 1490.0000 1.0000
31.3700 1480.0000 1.0000
31.3800 1473.0000 1.0000
31.3900 1489.0000 1.0000
31.4000 1492.0000 1.0000
31.4100 1458.0000 1.0000
31.4200 1470.0000 1.0000
31.4300 1436.0000 1.0000
31.4400 1518.0000 1.0000
31.4500 1458.0000 1.0000
31.4600 1511.0000 1.0000
31.4700 1495.0000 1.0000
31.4800 1490.0000 1.0000
31.4900 1443.0000 1.0000
31.5000 1425.0000 1.0000
31.5100 1492.0000 1.0000
31.5200 1520.0000 1.0000
31.5300 1507.0000 1.0000
31.5400 1494.0000 1.0000
31.5500 1455.0000 1.0000
31.5600 1481.0000 1.0000
31.5700 1470.0000 1.0000
31.5800 1464.0000 1.0000
31.5900 1427.0000 1.0000
31.6000 1463.0000 1.0000
31.6100 1435.0000 1.0000
31.6200 1495.0000 1.0000
31.6300 1426.0000 1.0000
31.6400 1432.0000 1.0000
31.6500 1521.0000 1.0000
31.6600 1432.0000 1.0000
31.6700 1415.0000 1.0000
31.6800 1488.0000 1.0000
31.6900 1465.0000 1.0000
31.7000 1453.0000 1.0000
31.7100 1479.0000 1.0000
31.7200 1466.0000 1.0000
31.7300 1484.0000 1.0000
31.7400 1490.0000 1.0000
31.7500 1469.0000 1.0000
31.7600 1507.0000 1.0000
31.7700 1500.0000 1.0000
31.7800 1455.0000 1.0000
31.7900 1416.0000 1.0000
31.8000 1521.0000 1.0000
31.8100 1491.0000 1.0000
31.8200 1536.0000 1.0000
31.8300 1464.0000 1.0000
31.8400 1492.0000 1.0000
31.8500 1530.0000 1.0000
31.8600 1480.0000 1.0000
31.8700 1461.0000 1.0000
31.8800 1476.0000 1.0000
31.8900 1493.0000 1.0000
31.9000 1492.0000 1.0000
31.9100 1578.0000 1.0000
31.9200 1493.0000 1.0000
31.9300 1519.0000 1.0000
31.9400 1526.0000 1.0000
31.9500 1524.0000 1.0000
31.9600 1440.0000 1.0000
31.9700 1498.0000 1.0000
31.9800 1458.0000 1.0000
31.9900 1483.0000 1.0000
32.0000 1478.0000 1.0000
32.0100 1478.0000 1.0000
32.0200 1476.0000 1.0000
32.0300 1494.0000 1.0000
32.0400 1483.0000 1.0000
32.0500 1528.0000 1.0000
32.0600 1468.0000 1.0000
32.0700 1438.0000 1.0000
32.0800 1439.0000 1.0000
32.0900 1512.0000 1.0000
32.1000 1464.0000 1.0000
32.1100 1507.0000 1.0000
32.1200 1523.0000 1.0000
32.1300 1442.0000 1.0000
32.1400 1488.0000 1.0000
32.1500 1455.0000 1.0000
32.1600 1466.0000 1.0000
32.1700 1501.0000 1.0000
32.1800 1492.0000 1.0000
32.1900 1459.0000 1.0000
32.2000 1422.0000 1.0000
32.2100 1468.0000 1.0000
32.2200 1423.0000 1.0000
32.2300 1422.0000 1.0000
32.2400 1391.0000 1.0000
32.2500 1430.0000 1.0000
32.2600 1441.0000 1.0000
32.2700 1414.0000 1.0000
32.2800 1451.0000 1.0000
32.2900 1464.0000 1.0000
32.3000 1454.0000 1.0000
32.3100 1465.0000 1.0000
32.3200 1442.0000 1.0000
32.3300 1410.0000 1.0000
32.3400 1378.0000 1.0000
32.3500 1414.0000 1.0000
32.3600 1406.0000 1.0000
32.3700 1428.0000 1.0000
32.3800 1408.0000 1.0000
32.3900 1413.0000 1.0000
32.4000 1421.0000 1.0000
32.4100 1390.0000 1.0000
32.4200 1405.0000 1.0000
32.4300 1437.0000 1.0000
32.4400 1431.0000 1.0000
32.4500 1458.0000 1.0000
32.4600 1419.0000 1.0000
32.4700 1412.0000 1.0000
32.4800 1442.0000 1.0000
32.4900 1400.0000 1.0000
32.5000 1375.0000 1.0000
32.5100 1439.0000 1.0000
32.5200 1417.0000 1.0000
32.5300 1425.0000 1.0000
32.5400 1422.0000 1.0000
32.5500 1434.0000 1.0000
32.5600 1369.0000 1.0000
32.5700 1448.0000 1.0000
32.5800 1468.0000 1.0000
32.5900 1533.0000 1.0000
32.6000 1353.0000 1.0000
32.6100 1435.0000 1.0000
32.6200 1447.0000 1.0000
32.6300 1451.0000 1.0000
32.6400 1403.0000 1.0000
32.6500 1383.0000 1.0000
32.6600 1362.0000 1.0000
32.6700 1396.0000 1.0000
32.6800 1404.0000 1.0000
32.6900 1443.0000 1.0000
32.7000 1397.0000 1.0000
32.7100 1420.0000 1.0000
32.7200 1397.0000 1.0000
32.7300 1425.0000 1.0000
32.7400 1402.0000 1.0000
32.7500 1448.0000 1.0000
32.7600 1410.0000 1.0000
32.7700 1408.0000 1.0000
32.7800 1442.0000 1.0000
32.7900 1429.0000 1.0000
32.8000 1383.0000 1.0000
32.8100 1348.0000 1.0000
32.8200 1355.0000 1.0000
32.8300 1396.0000 1.0000
32.8400 1428.0000 1.0000
32.8500 1448.0000 1.0000
32.8600 1414.0000 1.0000
32.8700 1432.0000 1.0000
32.8800 1381.0000 1.0000
32.8900 1398.0000 1.0000
32.9000 1420.0000 1.0000
32.9100 1376.0000 1.0000
32.9200 1436.0000 1.0000
32.9300 1394.0000 1.0000
32.9400 1403.0000 1.0000
32.9500 1382.0000 1.0000
32.9600 1375.0000 1.0000
32.9700 1395.0000 1.0000
32.9800 1399.0000 1.0000
32.9900 1362.0000 1.0000
33.0000 1442.0000 1.0000
33.0100 1404.0000 1.0000
33.0200 1369.0000 1.0000
33.0300 1391.0000 1.0000
33.0400 1399.0000 1.0000
33.0500 1420.0000 1.0000
33.0600 1369.0000 1.0000
33.0700 1328.0000 1.0000
33.0800 1394.0000 1.0000
33.0900 1400.0000 1.0000
33.1000 1406.0000 1.0000
33.1100 1342.0000 1.0000
33.1200 1417.0000 1.0000
33.1300 1355.0000 1.0000
33.1400 1397.0000 1.0000
33.1500 1406.0000 1.0000
33.1600 1368.0000 1.0000
33.1700 1413.0000 1.0000
33.1800 1400.0000 1.0000
33.1900 1343.0000 1.0000
33.2000 1347.0000 1.0000
33.2100 1405.0000 1.0000
33.2200 1390.0000 1.0000
33.2300 1362.0000 1.0000
33.2400 1374.0000 1.0000
33.2500 1343.0000 1.0000
33.2600 1361.0000 1.0000
33.2700 1418.0000 1.0000
33.2800 1409.0000 1.0000
33.2900 1406.0000 1.0000
33.3000 1416.0000 1.0000
33.3100 1371.0000 1.0000
33.3200 1412.0000 1.0000
33.3300 1373.0000 1.0000
33.3400 1356.0000 1.0000
33.3500 1410.0000 1.0000
33.3600 1401.0000 1.0000
33.3700 1359.0000 1.0000
33.3800 1413.0000 1.0000
33.3900 1365.0000 1.0000
33.4000 1417.0000 1.0000
33.4100 1380.0000 1.0000
33.4200 1388.0000 1.0000
33.4300 1306.0000 1.0000
33.4400 1283.0000 1.0000
33.4500 1348.0000 1.0000
33.4600 1416.0000 1.0000
33.4700 1460.0000 1.0000
33.4800 1451.0000 1.0000
33.4900 1389.0000 1.0000
33.5000 1351.0000 1.0000
33.5100 1377.0000 1.0000
33.5200 1407.0000 1.0000
33.5300 1391.0000 1.0000
33.5400 1367.0000 1.0000
33.5500 1449.0000 1.0000
33.5600 1387.0000 1.0000
33.5700 1410.0000 1.0000
33.5800 1364.0000 1.0000
33.5900 1350.0000 1.0000
33.6000 1385.0000 1.0000
33.6100 1389.0000 1.0000
33.6200 1422.0000 1.0000
33.6300 1416.0000 1.0000
33.6400 1372.0000 1.0000
33.6500 1389.0000 1.0000
33.6600 1397.0000 1.0000
33.6700 1429.0000 1.0000
33.6800 1424.0000 1.0000
33.6900 1483.0000 1.0000
33.7000 1445.0000 1.0000
33.7100 1410.0000 1.0000
33.7200 1418.0000 1.0000
33.7300 1403.0000 1.0000
33.7400 1370.0000 1.0000
33.7500 1444.0000 1.0000
33.7600 1461.0000 1.0000
33.7700 1460.0000 1.0000
33.7800 1509.0000 1.0000
33.7900 1449.0000 1.0000
33.8000 1482.0000 1.0000
33.8100 1408.0000 1.0000
33.8200 1483.0000 1.0000
33.8300 1527.0000 1.0000
33.8400 1496.0000 1.0000
33.8500 1522.0000 1.0000
33.8600 1542.0000 1.0000
33.8700 1530.0000 1.0000
33.8800 1575.0000 1.0000
33.8900 1574.0000 1.0000
33.9000 1604.0000 1.0000
33.9100 1577.0000 1.0000
33.9200 1613.0000 1.0000
33.9300 1655.0000 1.0000
33.9400 1712.0000 1.0000
33.9500 1634.0000 1.0000
33.9600 1655.0000 1.0000
33.9700 1590.0000 1.0000
33.9800 1644.0000 1.0000
33.9900 1598.0000 1.0000
34.0000 1628.0000 1.0000
34.0100 1611.0000 1.0000
34.0200 1652.0000 1.0000
34.0300 1640.0000 1.0000
34.0400 1551.0000 1.0000
34.0500 1517.0000 1.0000
34.0600 1512.0000 1.0000
34.0700 1515.0000 1.0000
34.0800 1571.0000 1.0000
34.0900 1564.0000 1.0000
34.1000 1576.0000 1.0000
34.1100 1605.0000 1.0000
34.1200 1523.0000 1.0000
34.1300 1525.0000 1.0000
34.1400 1543.0000 1.0000
34.1500 1536.0000 1.0000
34.1600 1609.0000 1.0000
34.1700 1603.0000 1.0000
34.1800 1584.0000 1.0000
34.1900 1631.0000 1.0000
34.2000 1621.0000 1.0000
34.2100 1646.0000 1.0000
34.2200 1590.0000 1.0000
34.2300 1632.0000 1.0000
34.2400 1642.0000 1.0000
34.2500 1656.0000 1.0000
34.2600 1698.0000 1.0000
34.2700 1736.0000 1.0000
34.2800 1816.0000 1.0000
34.2900 1838.0000 1.0000
34.3000 1791.0000 1.0000
34.3100 1767.0000 1.0000
34.3200 1865.0000 1.0000
34.3300 1895.0000 1.0000
34.3400 2031.0000 1.0000
34.3500 2036.0000 1.0000
34.3600 2124.0000 1.0000
34.3700 2212.0000 1.0000
34.3800 2203.0000 1.0000
34.3900 2290.0000 1.0000
34.4000 2410.0000 1.0000
34.4100 2497.0000 1.0000
34.4200 2658.0000 1.0000
34.4300 2712.0000 1.0000
34.4400 2724.0000 1.0000
34.4500 2883.0000 1.0000
34.4600 2832.0000 1.0000
34.4700 2913.0000 1.0000
34.4800 3125.0000 1.0000
34.4900 3140.0000 1.0000
34.5000 3132.0000 1.0000
34.5100 3237.0000 1.0000
34.5200 3086.0000 1.0000
34.5300 3102.0000 1.0000
34.5400 3103.0000 1.0000
34.5500 2950.0000 1.0000
34.5600 2985.0000 1.0000
34.5700 2925.0000 1.0000
34.5800 2813.0000 1.0000
34.5900 2689.0000 1.0000
34.6000 2693.0000 1.0000
34.6100 2573.0000 1.0000
34.6200 2548.0000 1.0000
34.6300 2409.0000 1.0000
34.6400 2272.0000 1.0000
34.6500 2208.0000 1.0000
34.6600 2131.0000 1.0000
34.6700 2145.0000 1.0000
34.6800 2070.0000 1.0000
34.6900 2051.0000 1.0000
34.7000 1888.0000 1.0000
34.7100 1946.0000 1.0000
34.7200 1870.0000 1.0000
34.7300 1801.0000 1.0000
34.7400 1783.0000 1.0000
34.7500 1750.0000 1.0000
34.7600 1723.0000 1.0000
34.7700 1763.0000 1.0000
34.7800 1673.0000 1.0000
34.7900 1670.0000 1.0000
34.8000 1654.0000 1.0000
34.8100 1621.0000 1.0000
34.8200 1630.0000 1.0000
34.8300 1532.0000 1.0000
34.8400 1581.0000 1.0000
34.8500 1563.0000 1.0000
34.8600 1580.0000 1.0000
34.8700 1593.0000 1.0000
34.8800 1533.0000 1.0000
34.8900 1488.0000 1.0000
34.9000 1466.0000 1.0000
34.9100 1535.0000 1.0000
34.9200 1446.0000 1.0000
34.9300 1388.0000 1.0000
34.9400 1393.0000 1.0000
34.9500 1360.0000 1.0000
34.9600 1417.0000 1.0000
34.9700 1459.0000 1.0000
34.9800 1389.0000 1.0000
34.9900 1404.0000 1.0000
35.0000 1374.0000 1.0000
35.0100 1401.0000 1.0000
35.0200 1374.0000 1.0000
35.0300 1385.0000 1.0000
35.0400 1314.0000 1.0000
35.0500 1380.0000 1.0000
35.0600 1292.0000 1.0000
35.0700 1335.0000 1.0000
35.0800 1379.0000 1.0000
35.0900 1366.0000 1.0000
35.1000 1346.0000 1.0000
35.1100 1343.0000 1.0000
35.1200 1304.0000 1.0000
35.1300 1295.0000 1.0000
35.1400 1342.0000 1.0000
35.1500 1312.0000 1.0000
35.1600 1329.0000 1.0000
35.1700 1338.0000 1.0000
35.1800 1263.0000 1.0000
35.1900 1298.0000 1.0000
35.2000 1289.0000 1.0000
35.2100 1244.0000 1.0000
35.2200 1319.0000 1.0000
35.2300 1288.0000 1.0000
35.2400 1278.0000 1.0000
35.2500 1341.0000 1.0000
35.2600 1242.0000 1.0000
35.2700 1229.0000 1.0000
35.2800 1313.0000 1.0000
35.2900 1256.0000 1.0000
35.3000 1242.0000 1.0000
35.3100 1297.0000 1.0000
35.3200 1256.0000 1.0000
35.3300 1327.0000 1.0000
35.3400 1238.0000 1.0000
35.3500 1204.0000 1.0000
35.3600 1222.0000 1.0000
35.3700 1297.0000 1.0000
35.3800 1294.0000 1.0000
35.3900 1264.0000 1.0000
35.4000 1226.0000 1.0000
35.4100 1247.0000 1.0000
35.4200 1244.0000 1.0000
35.4300 1266.0000 1.0000
35.4400 1256.0000 1.0000
35.4500 1217.0000 1.0000
35.4600 1275.0000 1.0000
35.4700 1235.0000 1.0000
35.4800 1217.0000 1.0000
35.4900 1239.0000 1.0000
35.5000 1189.0000 1.0000
35.5100 1217.0000 1.0000
35.5200 1221.0000 1.0000
35.5300 1174.0000 1.0000
35.5400 1249.0000 1.0000
35.5500 1266.0000 1.0000
35.5600 1280.0000 1.0000
35.5700 1238.0000 1.0000
35.5800 1229.0000 1.0000
35.5900 1208.0000 1.0000
35.6000 1208.0000 1.0000
35.6100 1239.0000 1.0000
35.6200 1213.0000 1.0000
35.6300 1190.0000 1.0000
35.6400 1247.0000 1.0000
35.6500 1248.0000 1.0000
35.6600 1195.0000 1.0000
35.6700 1207.0000 1.0000
35.6800 1202.0000 1.0000
35.6900 1215.0000 1.0000
35.7000 1186.0000 1.0000
35.7100 1191.0000 1.0000
35.7200 1189.0000 1.0000
35.7300 1182.0000 1.0000
35.7400 1136.0000 1.0000
35.7500 1217.0000 1.0000
35.7600 1194.0000 1.0000
35.7700 1214.0000 1.0000
35.7800 1174.0000 1.0000
35.7900 1234.0000 1.0000
35.8000 1236.0000 1.0000
35.8100 1156.0000 1.0000
35.8200 1186.0000 1.0000
35.8300 1143.0000 1.0000
35.8400 1167.0000 1.0000
35.8500 1175.0000 1.0000
35.8600 1200.0000 1.0000
35.8700 1118.0000 1.0000
35.8800 1224.0000 1.0000
35.8900 1200.0000 1.0000
35.9000 1229.0000 1.0000
35.9100 1221.0000 1.0000
35.9200 1205.0000 1.0000
35.9300 1174.0000 1.0000
35.9400 1236.0000 1.0000
35.9500 1170.0000 1.0000
35.9600 1168.0000 1.0000
35.9700 1145.0000 1.0000
35.9800 1149.0000 1.0000
35.9900 1194.0000 1.0000
36.0000 1241.0000 1.0000
36.0100 1219.0000 1.0000
36.0200 1180.0000 1.0000
36.0300 1262.0000 1.0000
36.0400 1255.0000 1.0000
36.0500 1264.0000 1.0000
36.0600 1252.0000 1.0000
36.0700 1211.0000 1.0000
36.0800 1178.0000 1.0000
36.0900 1201.0000 1.0000
36.1000 1172.0000 1.0000
36.1100 1252.0000 1.0000
36.1200 1273.0000 1.0000
36.1300 1248.0000 1.0000
36.1400 1264.0000 1.0000
36.1500 1281.0000 1.0000
36.1600 1238.0000 1.0000
36.1700 1299.0000 1.0000
36.1800 1325.0000 1.0000
36.1900 1326.0000 1.0000
36.2000 1373.0000 1.0000
36.2100 1337.0000 1.0000
36.2200 1365.0000 1.0000
36.2300 1360.0000 1.0000
36.2400 1391.0000 1.0000
36.2500 1343.0000 1.0000
36.2600 1425.0000 1.0000
36.2700 1489.0000 1.0000
36.2800 1515.0000 1.0000
36.2900 1585.0000 1.0000
36.3000 1586.0000 1.0000
36.3100 1675.0000 1.0000
36.3200 1739.0000 1.0000
36.3300 1790.0000 1.0000
36.3400 1788.0000 1.0000
36.3500 1963.0000 1.0000
36.3600 2000.0000 1.0000
36.3700 2063.0000 1.0000
36.3800 2181.0000 1.0000
36.3900 2269.0000 1.0000
36.4000 2344.0000 1.0000
36.4100 2247.0000 1.0000
36.4200 2362.0000 1.0000
36.4300 2333.0000 1.0000
36.4400 2280.0000 1.0000
36.4500 2273.0000 1.0000
36.4600 2151.0000 1.0000
36.4700 2123.0000 1.0000
36.4800 2141.0000 1.0000
36.4900 2033.0000 1.0000
36.5000 2010.0000 1.0000
36.5100 1890.0000 1.0000
36.5200 1830.0000 1.0000
36.5300 1763.0000 1.0000
36.5400 1683.0000 1.0000
36.5500 1567.0000 1.0000
36.5600 1543.0000 1.0000
36.5700 1532.0000 1.0000
36.5800 1427.0000 1.0000
36.5900 1376.0000 1.0000
36.6000 1393.0000 1.0000
36.6100 1357.0000 1.0000
36.6200 1256.0000 1.0000
36.6300 1224.0000 1.0000
36.6400 1289.0000 1.0000
36.6500 1199.0000 1.0000
36.6600 1224.0000 1.0000
36.6700 1203.0000 1.0000
36.6800 1283.0000 1.0000
36.6900 1222.0000 1.0000
36.7000 1188.0000 1.0000
36.7100 1197.0000 1.0000
36.7200 1157.0000 1.0000
36.7300 1190.0000 1.0000
36.7400 1180.0000 1.0000
36.7500 1154.0000 1.0000
36.7600 1182.0000 1.0000
36.7700 1166.0000 1.0000
36.7800 1139.0000 1.0000
36.7900 1146.0000 1.0000
36.8000 1174.0000 1.0000
36.8100 1186.0000 1.0000
36.8200 1149.0000 1.0000
36.8300 1178.0000 1.0000
36.8400 1159.0000 1.0000
36.8500 1111.0000 1.0000
36.8600 1098.0000 1.0000
36.8700 1167.0000 1.0000
36.8800 1134.0000 1.0000
36.8900 1137.0000 1.0000
36.9000 1170.0000 1.0000
36.9100 1108.0000 1.0000
36.9200 1113.0000 1.0000
36.9300 1112.0000 1.0000
36.9400 1118.0000 1.0000
36.9500 1081.0000 1.0000
36.9600 1069.0000 1.0000
36.9700 1117.0000 1.0000
36.9800 1126.0000 1.0000
36.9900 1114.0000 1.0000
37.0000 1063.0000 1.0000
37.0100 1115.0000 1.0000
37.0200 1108.0000 1.0000
37.0300 1110.0000 1.0000
37.0400 1089.0000 1.0000
37.0500 1091.0000 1.0000
37.0600 1126.0000 1.0000
37.0700 1097.0000 1.0000
37.0800 1129.0000 1.0000
37.0900 1068.0000 1.0000
37.1000 1119.0000 1.0000
37.1100 1133.0000 1.0000
37.1200 1088.0000 1.0000
37.1300 1049.0000 1.0000
37.1400 1112.0000 1.0000
37.1500 1155.0000 1.0000
37.1600 1109.0000 1.0000
37.1700 1108.0000 1.0000
37.1800 1132.0000 1.0000
37.1900 1094.0000 1.0000
37.2000 1150.0000 1.0000
37.2100 1121.0000 1.0000
37.2200 1144.0000 1.0000
37.2300 1087.0000 1.0000
37.2400 1119.0000 1.0000
37.2500 1103.0000 1.0000
37.2600 1087.0000 1.0000
37.2700 1061.0000 1.0000
37.2800 1101.0000 1.0000
37.2900 1089.0000 1.0000
37.3000 1094.0000 1.0000
37.3100 1112.0000 1.0000
37.3200 1102.0000 1.0000
37.3300 1088.0000 1.0000
37.3400 1092.0000 1.0000
37.3500 1109.0000 1.0000
37.3600 1119.0000 1.0000
37.3700 1121.0000 1.0000
37.3800 1142.0000 1.0000
37.3900 1091.0000 1.0000
37.4000 1118.0000 1.0000
37.4100 1119.0000 1.0000
37.4200 1115.0000 1.0000
37.4300 1143.0000 1.0000
37.4400 1110.0000 1.0000
37.4500 1080.0000 1.0000
37.4600 1117.0000 1.0000
37.4700 1054.0000 1.0000
37.4800 1090.0000 1.0000
37.4900 1117.0000 1.0000
37.5000 1099.0000 1.0000
37.5100 1077.0000 1.0000
37.5200 1112.0000 1.0000
37.5300 1096.0000 1.0000
37.5400 1116.0000 1.0000
37.5500 1061.0000 1.0000
37.5600 1053.0000 1.0000
37.5700 1082.0000 1.0000
37.5800 1094.0000 1.0000
37.5900 1107.0000 1.0000
37.6000 1132.0000 1.0000
37.6100 1101.0000 1.0000
37.6200 1116.0000 1.0000
37.6300 1181.0000 1.0000
37.6400 1087.0000 1.0000
37.6500 1092.0000 1.0000
37.6600 1116.0000 1.0000
37.6700 1061.0000 1.0000
37.6800 1057.0000 1.0000
37.6900 1073.0000 1.0000
37.7000 1087.0000 1.0000
37.7100 1062.0000 1.0000
37.7200 1101.0000 1.0000
37.7300 1090.0000 1.0000
37.7400 1059.0000 1.0000
37.7500 1053.0000 1.0000
37.7600 1108.0000 1.0000
37.7700 1169.0000 1.0000
37.7800 1132.0000 1.0000
37.7900 1057.0000 1.0000
37.8000 1063.0000 1.0000
37.8100 1098.0000 1.0000
37.8200 1123.0000 1.0000
37.8300 1162.0000 1.0000
37.8400 1157.0000 1.0000
37.8500 1140.0000 1.0000
37.8600 1132.0000 1.0000
37.8700 1144.0000 1.0000
37.8800 1176.0000 1.0000
37.8900 1140.0000 1.0000
37.9000 1139.0000 1.0000
37.9100 1171.0000 1.0000
37.9200 1181.0000 1.0000
37.9300 1124.0000 1.0000
37.9400 1122.0000 1.0000
37.9500 1142.0000 1.0000
37.9600 1174.0000 1.0000
37.9700 1195.0000 1.0000
37.9800 1139.0000 1.0000
37.9900 1163.0000 1.0000
38.0000 1238.0000 1.0000
38.0100 1157.0000 1.0000
38.0200 1189.0000 1.0000
38.0300 1152.0000 1.0000
38.0400 1229.0000 1.0000
38.0500 1231.0000 1.0000
38.0600 1252.0000 1.0000
38.0700 1234.0000 1.0000
38.0800 1265.0000 1.0000
38.0900 1222.0000 1.0000
38.1000 1274.0000 1.0000
38.1100 1302.0000 1.0000
38.1200 1239.0000 1.0000
38.1300 1294.0000 1.0000
38.1400 1359.0000 1.0000
38.1500 1363.0000 1.0000
38.1600 1359.0000 1.0000
38.1700 1413.0000 1.0000
38.1800 1420.0000 1.0000
38.1900 1443.0000 1.0000
38.2000 1501.0000 1.0000
38.2100 1577.0000 1.0000
38.2200 1552.0000 1.0000
38.2300 1657.0000 1.0000
38.2400 1664.0000 1.0000
38.2500 1686.0000 1.0000
38.2600 1749.0000 1.0000
38.2700 1872.0000 1.0000
38.2800 1898.0000 1.0000
38.2900 1926.0000 1.0000
38.3000 2011.0000 1.0000
38.3100 2101.0000 1.0000
38.3200 2209.0000 1.0000
38.3300 2287.0000 1.0000
38.3400 2422.0000 1.0000
38.3500 2583.0000 1.0000
38.3600 2764.0000 1.0000
38.3700 2864.0000 1.0000
38.3800 3017.0000 1.0000
38.3900 3208.0000 1.0000
38.4000 3400.0000 1.0000
38.4100 3752.0000 1.0000
38.4200 3874.0000 1.0000
38.4300 4189.0000 1.0000
38.4400 4422.0000 1.0000
38.4500 4888.0000 1.0000
38.4600 5216.0000 1.0000
38.4700 5606.0000 1.0000
38.4800 5844.0000 1.0000
38.4900 6201.0000 1.0000
38.5000 6518.0000 1.0000
38.5100 6890.0000 1.0000
38.5200 7052.0000 1.0000
38.5300 7278.0000 1.0000
38.5400 7352.0000 1.0000
38.5500 7451.0000 1.0000
38.5600 7574.0000 1.0000
38.5700 7690.0000 1.0000
38.5800 7646.0000 1.0000
38.5900 7550.0000 1.0000
38.6000 7376.0000 1.0000
38.6100 7066.0000 1.0000
38.6200 6726.0000 1.0000
38.6300 6676.0000 1.0000
38.6400 6352.0000 1.0000
38.6500 6025.0000 1.0000
38.6600 5834.0000 1.0000
38.6700 5521.0000 1.0000
38.6800 5122.0000 1.0000
38.6900 4854.0000 1.0000
38.7000 4498.0000 1.0000
38.7100 4200.0000 1.0000
38.7200 3950.0000 1.0000
38.7300 3658.0000 1.0000
38.7400 3361.0000 1.0000
38.7500 3240.0000 1.0000
38.7600 2986.0000 1.0000
38.7700 2830.0000 1.0000
38.7800 2642.0000 1.0000
38.7900 2559.0000 1.0000
38.8000 2371.0000 1.0000
38.8100 2211.0000 1.0000
38.8200 2150.0000 1.0000
38.8300 1969.0000 1.0000
38.8400 1871.0000 1.0000
38.8500 1834.0000 1.0000
38.8600 1779.0000 1.0000
38.8700 1749.0000 1.0000
38.8800 1678.0000 1.0000
38.8900 1644.0000 1.0000
38.9000 1561.0000 1.0000
38.9100 1497.0000 1.0000
38.9200 1486.0000 1.0000
38.9300 1416.0000 1.0000
38.9400 1406.0000 1.0000
38.9500 1350.0000 1.0000
38.9600 1359.0000 1.0000
38.9700 1299.0000 1.0000
38.9800 1248.0000 1.0000
38.9900 1220.0000 1.0000
39.0000 1271.0000 1.0000
39.0100 1233.0000 1.0000
39.0200 1222.0000 1.0000
39.0300 1167.0000 1.0000
39.0400 1144.0000 1.0000
39.0500 1158.0000 1.0000
39.0600 1082.0000 1.0000
39.0700 1143.0000 1.0000
39.0800 1123.0000 1.0000
39.0900 1159.0000 1.0000
39.1000 1094.0000 1.0000
39.1100 1178.0000 1.0000
39.1200 1123.0000 1.0000
39.1300 1128.0000 1.0000
39.1400 1063.0000 1.0000
39.1500 1126.0000 1.0000
39.1600 1079.0000 1.0000
39.1700 1051.0000 1.0000
39.1800 1067.0000 1.0000
39.1900 1089.0000 1.0000
39.2000 1072.0000 1.0000
39.2100 1069.0000 1.0000
39.2200 1029.0000 1.0000
39.2300 1074.0000 1.0000
39.2400 1064.0000 1.0000
39.2500 1059.0000 1.0000
39.2600 1047.0000 1.0000
39.2700 1024.0000 1.0000
39.2800 1018.0000 1.0000
39.2900 1062.0000 1.0000
39.3000 1033.0000 1.0000
39.3100 1028.0000 1.0000
39.3200 967.0000 1.0000
39.3300 1036.0000 1.0000
39.3400 1058.0000 1.0000
39.3500 1033.0000 1.0000
39.3600 1022.0000 1.0000
39.3700 1007.0000 1.0000
39.3800 1055.0000 1.0000
39.3900 1025.0000 1.0000
39.4000 1031.0000 1.0000
39.4100 1032.0000 1.0000
39.4200 1067.0000 1.0000
39.4300 976.0000 1.0000
39.4400 994.0000 1.0000
39.4500 1050.0000 1.0000
39.4600 1042.0000 1.0000
39.4700 1006.0000 1.0000
39.4800 998.0000 1.0000
39.4900 1000.0000 1.0000
39.5000 1049.0000 1.0000
39.5100 988.0000 1.0000
39.5200 1028.0000 1.0000
39.5300 1064.0000 1.0000
39.5400 1042.0000 1.0000
39.5500 1044.0000 1.0000
39.5600 1021.0000 1.0000
39.5700 1005.0000 1.0000
39.5800 1022.0000 1.0000
39.5900 1006.0000 1.0000
39.6000 1090.0000 1.0000
39.6100 1036.0000 1.0000
39.6200 1056.0000 1.0000
39.6300 1038.0000 1.0000
39.6400 1015.0000 1.0000
39.6500 1003.0000 1.0000
39.6600 1055.0000 1.0000
39.6700 1044.0000 1.0000
39.6800 1019.0000 1.0000
39.6900 1022.0000 1.0000
39.7000 1003.0000 1.0000
39.7100 1008.0000 1.0000
39.7200 988.0000 1.0000
39.7300 973.0000 1.0000
39.7400 992.0000 1.0000
39.7500 1001.0000 1.0000
39.7600 975.0000 1.0000
39.7700 978.0000 1.0000
39.7800 975.0000 1.0000
39.7900 966.0000 1.0000
39.8000 943.0000 1.0000
39.8100 954.0000 1.0000
39.8200 918.0000 1.0000
39.8300 1015.0000 1.0000
39.8400 985.0000 1.0000
39.8500 1003.0000 1.0000
39.8600 951.0000 1.0000
39.8700 941.0000 1.0000
39.8800 1004.0000 1.0000
39.8900 940.0000 1.0000
39.9000 948.0000 1.0000
39.9100 967.0000 1.0000
39.9200 1001.0000 1.0000
39.9300 953.0000 1.0000
39.9400 920.0000 1.0000
39.9500 978.0000 1.0000
39.9600 961.0000 1.0000
39.9700 1013.0000 1.0000
39.9800 968.0000 1.0000
39.9900 911.0000 1.0000
40.0000 942.0000 1.0000
40.0100 959.0000 1.0000
40.0200 1003.0000 1.0000
40.0300 1003.0000 1.0000
40.0400 974.0000 1.0000
40.0500 926.0000 1.0000
40.0600 979.0000 1.0000
40.0700 975.0000 1.0000
40.0800 947.0000 1.0000
40.0900 963.0000 1.0000
40.1000 990.0000 1.0000
40.1100 914.0000 1.0000
40.1200 923.0000 1.0000
40.1300 946.0000 1.0000
40.1400 981.0000 1.0000
40.1500 978.0000 1.0000
40.1600 927.0000 1.0000
40.1700 952.0000 1.0000
40.1800 934.0000 1.0000
40.1900 898.0000 1.0000
40.2000 946.0000 1.0000
40.2100 995.0000 1.0000
40.2200 927.0000 1.0000
40.2300 935.0000 1.0000
40.2400 927.0000 1.0000
40.2500 922.0000 1.0000
40.2600 906.0000 1.0000
40.2700 962.0000 1.0000
40.2800 921.0000 1.0000
40.2900 932.0000 1.0000
40.3000 939.0000 1.0000
40.3100 935.0000 1.0000
40.3200 972.0000 1.0000
40.3300 1020.0000 1.0000
40.3400 937.0000 1.0000
40.3500 926.0000 1.0000
40.3600 910.0000 1.0000
40.3700 938.0000 1.0000
40.3800 952.0000 1.0000
40.3900 916.0000 1.0000
40.4000 930.0000 1.0000
40.4100 910.0000 1.0000
40.4200 926.0000 1.0000
40.4300 967.0000 1.0000
40.4400 929.0000 1.0000
40.4500 886.0000 1.0000
40.4600 863.0000 1.0000
40.4700 879.0000 1.0000
40.4800 910.0000 1.0000
40.4900 972.0000 1.0000
40.5000 944.0000 1.0000
40.5100 890.0000 1.0000
40.5200 935.0000 1.0000
40.5300 911.0000 1.0000
40.5400 867.0000 1.0000
40.5500 973.0000 1.0000
40.5600 879.0000 1.0000
40.5700 875.0000 1.0000
40.5800 923.0000 1.0000
40.5900 922.0000 1.0000
40.6000 888.0000 1.0000
40.6100 925.0000 1.0000
40.6200 857.0000 1.0000
40.6300 935.0000 1.0000
40.6400 925.0000 1.0000
40.6500 876.0000 1.0000
40.6600 855.0000 1.0000
40.6700 892.0000 1.0000
40.6800 939.0000 1.0000
40.6900 911.0000 1.0000
40.7000 889.0000 1.0000
40.7100 902.0000 1.0000
40.7200 917.0000 1.0000
40.7300 924.0000 1.0000
40.7400 939.0000 1.0000
40.7500 945.0000 1.0000
40.7600 928.0000 1.0000
40.7700 903.0000 1.0000
40.7800 916.0000 1.0000
40.7900 892.0000 1.0000
40.8000 889.0000 1.0000
40.8100 897.0000 1.0000
40.8200 916.0000 1.0000
40.8300 899.0000 1.0000
40.8400 908.0000 1.0000
40.8500 900.0000 1.0000
40.8600 918.0000 1.0000
40.8700 893.0000 1.0000
40.8800 900.0000 1.0000
40.8900 839.0000 1.0000
40.9000 906.0000 1.0000
40.9100 889.0000 1.0000
40.9200 888.0000 1.0000
40.9300 902.0000 1.0000
40.9400 908.0000 1.0000
40.9500 886.0000 1.0000
40.9600 928.0000 1.0000
40.9700 883.0000 1.0000
40.9800 858.0000 1.0000
40.9900 938.0000 1.0000
41.0000 968.0000 1.0000
41.0100 936.0000 1.0000
41.0200 923.0000 1.0000
41.0300 883.0000 1.0000
41.0400 934.0000 1.0000
41.0500 888.0000 1.0000
41.0600 917.0000 1.0000
41.0700 907.0000 1.0000
41.0800 923.0000 1.0000
41.0900 921.0000 1.0000
41.1000 887.0000 1.0000
41.1100 896.0000 1.0000
41.1200 951.0000 1.0000
41.1300 894.0000 1.0000
41.1400 880.0000 1.0000
41.1500 929.0000 1.0000
41.1600 908.0000 1.0000
41.1700 910.0000 1.0000
41.1800 915.0000 1.0000
41.1900 916.0000 1.0000
41.2000 877.0000 1.0000
41.2100 908.0000 1.0000
41.2200 882.0000 1.0000
41.2300 905.0000 1.0000
41.2400 863.0000 1.0000
41.2500 879.0000 1.0000
41.2600 954.0000 1.0000
41.2700 865.0000 1.0000
41.2800 868.0000 1.0000
41.2900 907.0000 1.0000
41.3000 899.0000 1.0000
41.3100 915.0000 1.0000
41.3200 911.0000 1.0000
41.3300 897.0000 1.0000
41.3400 895.0000 1.0000
41.3500 894.0000 1.0000
41.3600 899.0000 1.0000
41.3700 891.0000 1.0000
41.3800 901.0000 1.0000
41.3900 870.0000 1.0000
41.4000 860.0000 1.0000
41.4100 906.0000 1.0000
41.4200 907.0000 1.0000
41.4300 875.0000 1.0000
41.4400 892.0000 1.0000
41.4500 914.0000 1.0000
41.4600 898.0000 1.0000
41.4700 852.0000 1.0000
41.4800 841.0000 1.0000
41.4900 871.0000 1.0000
41.5000 908.0000 1.0000
41.5100 927.0000 1.0000
41.5200 930.0000 1.0000
41.5300 954.0000 1.0000
41.5400 903.0000 1.0000
41.5500 950.0000 1.0000
41.5600 902.0000 1.0000
41.5700 910.0000 1.0000
41.5800 922.0000 1.0000
41.5900 966.0000 1.0000
41.6000 939.0000 1.0000
41.6100 931.0000 1.0000
41.6200 932.0000 1.0000
41.6300 940.0000 1.0000
41.6400 938.0000 1.0000
41.6500 898.0000 1.0000
41.6600 948.0000 1.0000
41.6700 859.0000 1.0000
41.6800 901.0000 1.0000
41.6900 923.0000 1.0000
41.7000 928.0000 1.0000
41.7100 919.0000 1.0000
41.7200 933.0000 1.0000
41.7300 928.0000 1.0000
41.7400 952.0000 1.0000
41.7500 931.0000 1.0000
41.7600 919.0000 1.0000
41.7700 929.0000 1.0000
41.7800 939.0000 1.0000
41.7900 885.0000 1.0000
41.8000 900.0000 1.0000
41.8100 949.0000 1.0000
41.8200 936.0000 1.0000
41.8300 934.0000 1.0000
41.8400 905.0000 1.0000
41.8500 921.0000 1.0000
41.8600 902.0000 1.0000
41.8700 866.0000 1.0000
41.8800 923.0000 1.0000
41.8900 923.0000 1.0000
41.9000 945.0000 1.0000
41.9100 931.0000 1.0000
41.9200 850.0000 1.0000
41.9300 897.0000 1.0000
41.9400 916.0000 1.0000
41.9500 924.0000 1.0000
41.9600 922.0000 1.0000
41.9700 900.0000 1.0000
41.9800 896.0000 1.0000
41.9900 895.0000 1.0000
42.0000 914.0000 1.0000
42.0100 899.0000 1.0000
42.0200 883.0000 1.0000
42.0300 912.0000 1.0000
42.0400 923.0000 1.0000
42.0500 894.0000 1.0000
42.0600 890.0000 1.0000
42.0700 882.0000 1.0000
42.0800 873.0000 1.0000
42.0900 901.0000 1.0000
42.1000 901.0000 1.0000
42.1100 881.0000 1.0000
42.1200 884.0000 1.0000
42.1300 930.0000 1.0000
42.1400 888.0000 1.0000
42.1500 912.0000 1.0000
42.1600 885.0000 1.0000
42.1700 839.0000 1.0000
42.1800 882.0000 1.0000
42.1900 859.0000 1.0000
42.2000 863.0000 1.0000
42.2100 873.0000 1.0000
42.2200 895.0000 1.0000
42.2300 869.0000 1.0000
42.2400 894.0000 1.0000
42.2500 877.0000 1.0000
42.2600 838.0000 1.0000
42.2700 899.0000 1.0000
42.2800 880.0000 1.0000
42.2900 887.0000 1.0000
42.3000 894.0000 1.0000
42.3100 861.0000 1.0000
42.3200 851.0000 1.0000
42.3300 880.0000 1.0000
42.3400 914.0000 1.0000
42.3500 911.0000 1.0000
42.3600 882.0000 1.0000
42.3700 881.0000 1.0000
42.3800 862.0000 1.0000
42.3900 838.0000 1.0000
42.4000 872.0000 1.0000
42.4100 873.0000 1.0000
42.4200 904.0000 1.0000
42.4300 836.0000 1.0000
42.4400 963.0000 1.0000
42.4500 910.0000 1.0000
42.4600 875.0000 1.0000
42.4700 881.0000 1.0000
42.4800 872.0000 1.0000
42.4900 819.0000 1.0000
42.5000 869.0000 1.0000
42.5100 881.0000 1.0000
42.5200 838.0000 1.0000
42.5300 933.0000 1.0000
42.5400 882.0000 1.0000
42.5500 893.0000 1.0000
42.5600 864.0000 1.0000
42.5700 848.0000 1.0000
42.5800 874.0000 1.0000
42.5900 875.0000 1.0000
42.6000 919.0000 1.0000
42.6100 930.0000 1.0000
42.6200 846.0000 1.0000
42.6300 896.0000 1.0000
42.6400 875.0000 1.0000
42.6500 876.0000 1.0000
42.6600 920.0000 1.0000
42.6700 870.0000 1.0000
42.6800 915.0000 1.0000
42.6900 897.0000 1.0000
42.7000 879.0000 1.0000
42.7100 871.0000 1.0000
42.7200 854.0000 1.0000
42.7300 932.0000 1.0000
42.7400 883.0000 1.0000
42.7500 896.0000 1.0000
42.7600 910.0000 1.0000
42.7700 888.0000 1.0000
42.7800 908.0000 1.0000
42.7900 897.0000 1.0000
42.8000 900.0000 1.0000
42.8100 887.0000 1.0000
42.8200 861.0000 1.0000
42.8300 896.0000 1.0000
42.8400 836.0000 1.0000
42.8500 888.0000 1.0000
42.8600 873.0000 1.0000
42.8700 851.0000 1.0000
42.8800 885.0000 1.0000
42.8900 902.0000 1.0000
42.9000 901.0000 1.0000
42.9100 899.0000 1.0000
42.9200 871.0000 1.0000
42.9300 878.0000 1.0000
42.9400 908.0000 1.0000
42.9500 851.0000 1.0000
42.9600 881.0000 1.0000
42.9700 913.0000 1.0000
42.9800 875.0000 1.0000
42.9900 904.0000 1.0000
43.0000 941.0000 1.0000
43.0100 880.0000 1.0000
43.0200 886.0000 1.0000
43.0300 900.0000 1.0000
43.0400 914.0000 1.0000
43.0500 888.0000 1.0000
43.0600 907.0000 1.0000
43.0700 857.0000 1.0000
43.0800 894.0000 1.0000
43.0900 941.0000 1.0000
43.1000 946.0000 1.0000
43.1100 882.0000 1.0000
43.1200 935.0000 1.0000
43.1300 940.0000 1.0000
43.1400 950.0000 1.0000
43.1500 935.0000 1.0000
43.1600 933.0000 1.0000
43.1700 970.0000 1.0000
43.1800 932.0000 1.0000
43.1900 1020.0000 1.0000
43.2000 984.0000 1.0000
43.2100 934.0000 1.0000
43.2200 1004.0000 1.0000
43.2300 1025.0000 1.0000
43.2400 964.0000 1.0000
43.2500 1000.0000 1.0000
43.2600 962.0000 1.0000
43.2700 961.0000 1.0000
43.2800 989.0000 1.0000
43.2900 990.0000 1.0000
43.3000 943.0000 1.0000
43.3100 978.0000 1.0000
43.3200 990.0000 1.0000
43.3300 970.0000 1.0000
43.3400 948.0000 1.0000
43.3500 931.0000 1.0000
43.3600 906.0000 1.0000
43.3700 897.0000 1.0000
43.3800 944.0000 1.0000
43.3900 966.0000 1.0000
43.4000 949.0000 1.0000
43.4100 915.0000 1.0000
43.4200 895.0000 1.0000
43.4300 924.0000 1.0000
43.4400 901.0000 1.0000
43.4500 933.0000 1.0000
43.4600 888.0000 1.0000
43.4700 903.0000 1.0000
43.4800 891.0000 1.0000
43.4900 901.0000 1.0000
43.5000 905.0000 1.0000
43.5100 939.0000 1.0000
43.5200 854.0000 1.0000
43.5300 911.0000 1.0000
43.5400 898.0000 1.0000
43.5500 879.0000 1.0000
43.5600 905.0000 1.0000
43.5700 852.0000 1.0000
43.5800 898.0000 1.0000
43.5900 886.0000 1.0000
43.6000 901.0000 1.0000
43.6100 882.0000 1.0000
43.6200 902.0000 1.0000
43.6300 871.0000 1.0000
43.6400 865.0000 1.0000
43.6500 879.0000 1.0000
43.6600 873.0000 1.0000
43.6700 841.0000 1.0000
43.6800 864.0000 1.0000
43.6900 864.0000 1.0000
43.7000 839.0000 1.0000
43.7100 842.0000 1.0000
43.7200 887.0000 1.0000
43.7300 949.0000 1.0000
43.7400 834.0000 1.0000
43.7500 860.0000 1.0000
43.7600 872.0000 1.0000
43.7700 870.0000 1.0000
43.7800 855.0000 1.0000
43.7900 845.0000 1.0000
43.8000 855.0000 1.0000
43.8100 865.0000 1.0000
43.8200 849.0000 1.0000
43.8300 884.0000 1.0000
43.8400 896.0000 1.0000
43.8500 864.0000 1.0000
43.8600 849.0000 1.0000
43.8700 916.0000 1.0000
43.8800 910.0000 1.0000
43.8900 950.0000 1.0000
43.9000 868.0000 1.0000
43.9100 869.0000 1.0000
43.9200 913.0000 1.0000
43.9300 860.0000 1.0000
43.9400 875.0000 1.0000
43.9500 901.0000 1.0000
43.9600 845.0000 1.0000
43.9700 834.0000 1.0000
43.9800 841.0000 1.0000
43.9900 889.0000 1.0000
44.0000 860.0000 1.0000
44.0100 871.0000 1.0000
44.0200 858.0000 1.0000
44.0300 845.0000 1.0000
44.0400 872.0000 1.0000
44.0500 841.0000 1.0000
44.0600 854.0000 1.0000
44.0700 887.0000 1.0000
44.0800 868.0000 1.0000
44.0900 864.0000 1.0000
44.1000 804.0000 1.0000
44.1100 831.0000 1.0000
44.1200 844.0000 1.0000
44.1300 803.0000 1.0000
44.1400 848.0000 1.0000
44.1500 872.0000 1.0000
44.1600 836.0000 1.0000
44.1700 868.0000 1.0000
44.1800 888.0000 1.0000
44.1900 858.0000 1.0000
44.2000 884.0000 1.0000
44.2100 831.0000 1.0000
44.2200 846.0000 1.0000
44.2300 863.0000 1.0000
44.2400 875.0000 1.0000
44.2500 857.0000 1.0000
44.2600 923.0000 1.0000
44.2700 893.0000 1.0000
44.2800 894.0000 1.0000
44.2900 827.0000 1.0000
44.3000 876.0000 1.0000
44.3100 903.0000 1.0000
44.3200 871.0000 1.0000
44.3300 868.0000 1.0000
44.3400 831.0000 1.0000
44.3500 872.0000 1.0000
44.3600 874.0000 1.0000
44.3700 870.0000 1.0000
44.3800 859.0000 1.0000
44.3900 837.0000 1.0000
44.4000 850.0000 1.0000
44.4100 810.0000 1.0000
44.4200 872.0000 1.0000
44.4300 886.0000 1.0000
44.4400 866.0000 1.0000
44.4500 857.0000 1.0000
44.4600 869.0000 1.0000
44.4700 800.0000 1.0000
44.4800 818.0000 1.0000
44.4900 850.0000 1.0000
44.5000 879.0000 1.0000
44.5100 872.0000 1.0000
44.5200 838.0000 1.0000
44.5300 817.0000 1.0000
44.5400 849.0000 1.0000
44.5500 848.0000 1.0000
44.5600 851.0000 1.0000
44.5700 907.0000 1.0000
44.5800 822.0000 1.0000
44.5900 871.0000 1.0000
44.6000 840.0000 1.0000
44.6100 848.0000 1.0000
44.6200 829.0000 1.0000
44.6300 844.0000 1.0000
44.6400 838.0000 1.0000
44.6500 826.0000 1.0000
44.6600 865.0000 1.0000
44.6700 850.0000 1.0000
44.6800 824.0000 1.0000
44.6900 846.0000 1.0000
44.7000 812.0000 1.0000
44.7100 815.0000 1.0000
44.7200 873.0000 1.0000
44.7300 868.0000 1.0000
44.7400 831.0000 1.0000
44.7500 844.0000 1.0000
44.7600 802.0000 1.0000
44.7700 830.0000 1.0000
44.7800 845.0000 1.0000
44.7900 822.0000 1.0000
44.8000 846.0000 1.0000
44.8100 805.0000 1.0000
44.8200 812.0000 1.0000
44.8300 848.0000 1.0000
44.8400 814.0000 1.0000
44.8500 853.0000 1.0000
44.8600 834.0000 1.0000
44.8700 865.0000 1.0000
44.8800 847.0000 1.0000
44.8900 823.0000 1.0000
44.9000 818.0000 1.0000
44.9100 825.0000 1.0000
44.9200 839.0000 1.0000
44.9300 852.0000 1.0000
44.9400 870.0000 1.0000
44.9500 814.0000 1.0000
44.9600 843.0000 1.0000
44.9700 774.0000 1.0000
44.9800 812.0000 1.0000
44.9900 806.0000 1.0000
45.0000 835.0000 1.0000
45.0100 862.0000 1.0000
45.0200 821.0000 1.0000
45.0300 838.0000 1.0000
45.0400 826.0000 1.0000
45.0500 831.0000 1.0000
45.0600 820.0000 1.0000
45.0700 812.0000 1.0000
45.0800 862.0000 1.0000
45.0900 828.0000 1.0000
45.1000 838.0000 1.0000
45.1100 841.0000 1.0000
45.1200 785.0000 1.0000
45.1300 805.0000 1.0000
45.1400 845.0000 1.0000
45.1500 847.0000 1.0000
45.1600 798.0000 1.0000
45.1700 861.0000 1.0000
45.1800 823.0000 1.0000
45.1900 862.0000 1.0000
45.2000 806.0000 1.0000
45.2100 823.0000 1.0000
45.2200 841.0000 1.0000
45.2300 785.0000 1.0000
45.2400 798.0000 1.0000
45.2500 778.0000 1.0000
45.2600 824.0000 1.0000
45.2700 874.0000 1.0000
45.2800 824.0000 1.0000
45.2900 842.0000 1.0000
45.3000 861.0000 1.0000
45.3100 808.0000 1.0000
45.3200 807.0000 1.0000
45.3300 812.0000 1.0000
45.3400 822.0000 1.0000
45.3500 827.0000 1.0000
45.3600 825.0000 1.0000
45.3700 798.0000 1.0000
45.3800 788.0000 1.0000
45.3900 869.0000 1.0000
45.4000 875.0000 1.0000
45.4100 875.0000 1.0000
45.4200 867.0000 1.0000
45.4300 847.0000 1.0000
45.4400 779.0000 1.0000
45.4500 869.0000 1.0000
45.4600 824.0000 1.0000
45.4700 864.0000 1.0000
45.4800 840.0000 1.0000
45.4900 848.0000 1.0000
45.5000 906.0000 1.0000
45.5100 830.0000 1.0000
45.5200 806.0000 1.0000
45.5300 823.0000 1.0000
45.5400 878.0000 1.0000
45.5500 817.0000 1.0000
45.5600 802.0000 1.0000
45.5700 820.0000 1.0000
45.5800 776.0000 1.0000
45.5900 800.0000 1.0000
45.6000 836.0000 1.0000
45.6100 860.0000 1.0000
45.6200 865.0000 1.0000
45.6300 834.0000 1.0000
45.6400 844.0000 1.0000
45.6500 797.0000 1.0000
45.6600 818.0000 1.0000
45.6700 818.0000 1.0000
45.6800 811.0000 1.0000
45.6900 812.0000 1.0000
45.7000 851.0000 1.0000
45.7100 837.0000 1.0000
45.7200 807.0000 1.0000
45.7300 830.0000 1.0000
45.7400 886.0000 1.0000
45.7500 840.0000 1.0000
45.7600 813.0000 1.0000
45.7700 824.0000 1.0000
45.7800 861.0000 1.0000
45.7900 844.0000 1.0000
45.8000 846.0000 1.0000
45.8100 798.0000 1.0000
45.8200 828.0000 1.0000
45.8300 794.0000 1.0000
45.8400 838.0000 1.0000
45.8500 808.0000 1.0000
45.8600 863.0000 1.0000
45.8700 886.0000 1.0000
45.8800 804.0000 1.0000
45.8900 833.0000 1.0000
45.9000 833.0000 1.0000
45.9100 835.0000 1.0000
45.9200 835.0000 1.0000
45.9300 795.0000 1.0000
45.9400 841.0000 1.0000
45.9500 819.0000 1.0000
45.9600 825.0000 1.0000
45.9700 796.0000 1.0000
45.9800 798.0000 1.0000
45.9900 799.0000 1.0000
46.0000 835.0000 1.0000
46.0100 818.0000 1.0000
46.0200 813.0000 1.0000
46.0300 813.0000 1.0000
46.0400 867.0000 1.0000
46.0500 829.0000 1.0000
46.0600 849.0000 1.0000
46.0700 833.0000 1.0000
46.0800 808.0000 1.0000
46.0900 817.0000 1.0000
46.1000 818.0000 1.0000
46.1100 780.0000 1.0000
46.1200 811.0000 1.0000
46.1300 825.0000 1.0000
46.1400 815.0000 1.0000
46.1500 764.0000 1.0000
46.1600 841.0000 1.0000
46.1700 820.0000 1.0000
46.1800 819.0000 1.0000
46.1900 826.0000 1.0000
46.2000 834.0000 1.0000
46.2100 805.0000 1.0000
46.2200 850.0000 1.0000
46.2300 848.0000 1.0000
46.2400 864.0000 1.0000
46.2500 802.0000 1.0000
46.2600 824.0000 1.0000
46.2700 779.0000 1.0000
46.2800 802.0000 1.0000
46.2900 790.0000 1.0000
46.3000 768.0000 1.0000
46.3100 748.0000 1.0000
46.3200 752.0000 1.0000
46.3300 820.0000 1.0000
46.3400 802.0000 1.0000
46.3500 815.0000 1.0000
46.3600 834.0000 1.0000
46.3700 813.0000 1.0000
46.3800 789.0000 1.0000
46.3900 802.0000 1.0000
46.4000 779.0000 1.0000
46.4100 855.0000 1.0000
46.4200 828.0000 1.0000
46.4300 790.0000 1.0000
46.4400 849.0000 1.0000
46.4500 863.0000 1.0000
46.4600 815.0000 1.0000
46.4700 803.0000 1.0000
46.4800 836.0000 1.0000
46.4900 863.0000 1.0000
46.5000 813.0000 1.0000
46.5100 810.0000 1.0000
46.5200 824.0000 1.0000
46.5300 796.0000 1.0000
46.5400 834.0000 1.0000
46.5500 826.0000 1.0000
46.5600 797.0000 1.0000
46.5700 817.0000 1.0000
46.5800 799.0000 1.0000
46.5900 759.0000 1.0000
46.6000 803.0000 1.0000
46.6100 807.0000 1.0000
46.6200 783.0000 1.0000
46.6300 807.0000 1.0000
46.6400 797.0000 1.0000
46.6500 806.0000 1.0000
46.6600 870.0000 1.0000
46.6700 820.0000 1.0000
46.6800 809.0000 1.0000
46.6900 868.0000 1.0000
46.7000 821.0000 1.0000
46.7100 812.0000 1.0000
46.7200 784.0000 1.0000
46.7300 783.0000 1.0000
46.7400 744.0000 1.0000
46.7500 776.0000 1.0000
46.7600 769.0000 1.0000
46.7700 784.0000 1.0000
46.7800 819.0000 1.0000
46.7900 803.0000 1.0000
46.8000 799.0000 1.0000
46.8100 778.0000 1.0000
46.8200 766.0000 1.0000
46.8300 822.0000 1.0000
46.8400 799.0000 1.0000
46.8500 782.0000 1.0000
46.8600 748.0000 1.0000
46.8700 803.0000 1.0000
46.8800 790.0000 1.0000
46.8900 795.0000 1.0000
46.9000 800.0000 1.0000
46.9100 812.0000 1.0000
46.9200 789.0000 1.0000
46.9300 798.0000 1.0000
46.9400 820.0000 1.0000
46.9500 784.0000 1.0000
46.9600 835.0000 1.0000
46.9700 843.0000 1.0000
46.9800 812.0000 1.0000
46.9900 852.0000 1.0000
47.0000 857.0000 1.0000
47.0100 798.0000 1.0000
47.0200 842.0000 1.0000
47.0300 851.0000 1.0000
47.0400 793.0000 1.0000
47.0500 846.0000 1.0000
47.0600 820.0000 1.0000
47.0700 825.0000 1.0000
47.0800 833.0000 1.0000
47.0900 819.0000 1.0000
47.1000 812.0000 1.0000
47.1100 844.0000 1.0000
47.1200 806.0000 1.0000
47.1300 833.0000 1.0000
47.1400 800.0000 1.0000
47.1500 791.0000 1.0000
47.1600 834.0000 1.0000
47.1700 806.0000 1.0000
47.1800 782.0000 1.0000
47.1900 786.0000 1.0000
47.2000 818.0000 1.0000
47.2100 778.0000 1.0000
47.2200 790.0000 1.0000
47.2300 805.0000 1.0000
47.2400 806.0000 1.0000
47.2500 745.0000 1.0000
47.2600 781.0000 1.0000
47.2700 708.0000 1.0000
47.2800 745.0000 1.0000
47.2900 770.0000 1.0000
47.3000 781.0000 1.0000
47.3100 789.0000 1.0000
47.3200 803.0000 1.0000
47.3300 767.0000 1.0000
47.3400 779.0000 1.0000
47.3500 780.0000 1.0000
47.3600 810.0000 1.0000
47.3700 799.0000 1.0000
47.3800 735.0000 1.0000
47.3900 795.0000 1.0000
47.4000 818.0000 1.0000
47.4100 778.0000 1.0000
47.4200 769.0000 1.0000
47.4300 780.0000 1.0000
47.4400 786.0000 1.0000
47.4500 800.0000 1.0000
47.4600 804.0000 1.0000
47.4700 767.0000 1.0000
47.4800 796.0000 1.0000
47.4900 759.0000 1.0000
47.5000 787.0000 1.0000
47.5100 739.0000 1.0000
47.5200 760.0000 1.0000
47.5300 765.0000 1.0000
47.5400 776.0000 1.0000
47.5500 804.0000 1.0000
47.5600 769.0000 1.0000
47.5700 825.0000 1.0000
47.5800 798.0000 1.0000
47.5900 821.0000 1.0000
47.6000 812.0000 1.0000
47.6100 743.0000 1.0000
47.6200 828.0000 1.0000
47.6300 854.0000 1.0000
47.6400 786.0000 1.0000
47.6500 796.0000 1.0000
47.6600 779.0000 1.0000
47.6700 818.0000 1.0000
47.6800 785.0000 1.0000
47.6900 811.0000 1.0000
47.7000 768.0000 1.0000
47.7100 771.0000 1.0000
47.7200 771.0000 1.0000
47.7300 710.0000 1.0000
47.7400 732.0000 1.0000
47.7500 763.0000 1.0000
47.7600 739.0000 1.0000
47.7700 797.0000 1.0000
47.7800 805.0000 1.0000
47.7900 791.0000 1.0000
47.8000 799.0000 1.0000
47.8100 778.0000 1.0000
47.8200 796.0000 1.0000
47.8300 820.0000 1.0000
47.8400 814.0000 1.0000
47.8500 819.0000 1.0000
47.8600 749.0000 1.0000
47.8700 755.0000 1.0000
47.8800 759.0000 1.0000
47.8900 816.0000 1.0000
47.9000 759.0000 1.0000
47.9100 830.0000 1.0000
47.9200 829.0000 1.0000
47.9300 782.0000 1.0000
47.9400 788.0000 1.0000
47.9500 777.0000 1.0000
47.9600 807.0000 1.0000
47.9700 780.0000 1.0000
47.9800 744.0000 1.0000
47.9900 809.0000 1.0000
48.0000 808.0000 1.0000
48.0100 753.0000 1.0000
48.0200 802.0000 1.0000
48.0300 813.0000 1.0000
48.0400 767.0000 1.0000
48.0500 818.0000 1.0000
48.0600 755.0000 1.0000
48.0700 769.0000 1.0000
48.0800 760.0000 1.0000
48.0900 775.0000 1.0000
48.1000 765.0000 1.0000
48.1100 770.0000 1.0000
48.1200 765.0000 1.0000
48.1300 778.0000 1.0000
48.1400 811.0000 1.0000
48.1500 770.0000 1.0000
48.1600 768.0000 1.0000
48.1700 738.0000 1.0000
48.1800 783.0000 1.0000
48.1900 761.0000 1.0000
48.2000 781.0000 1.0000
48.2100 807.0000 1.0000
48.2200 791.0000 1.0000
48.2300 772.0000 1.0000
48.2400 779.0000 1.0000
48.2500 793.0000 1.0000
48.2600 730.0000 1.0000
48.2700 767.0000 1.0000
48.2800 711.0000 1.0000
48.2900 762.0000 1.0000
48.3000 746.0000 1.0000
48.3100 787.0000 1.0000
48.3200 806.0000 1.0000
48.3300 758.0000 1.0000
48.3400 777.0000 1.0000
48.3500 749.0000 1.0000
48.3600 807.0000 1.0000
48.3700 759.0000 1.0000
48.3800 741.0000 1.0000
48.3900 807.0000 1.0000
48.4000 787.0000 1.0000
48.4100 747.0000 1.0000
48.4200 752.0000 1.0000
48.4300 773.0000 1.0000
48.4400 788.0000 1.0000
48.4500 772.0000 1.0000
48.4600 750.0000 1.0000
48.4700 761.0000 1.0000
48.4800 793.0000 1.0000
48.4900 842.0000 1.0000
48.5000 825.0000 1.0000
48.5100 741.0000 1.0000
48.5200 753.0000 1.0000
48.5300 790.0000 1.0000
48.5400 792.0000 1.0000
48.5500 766.0000 1.0000
48.5600 785.0000 1.0000
48.5700 787.0000 1.0000
48.5800 803.0000 1.0000
48.5900 803.0000 1.0000
48.6000 757.0000 1.0000
48.6100 753.0000 1.0000
48.6200 764.0000 1.0000
48.6300 778.0000 1.0000
48.6400 746.0000 1.0000
48.6500 787.0000 1.0000
48.6600 740.0000 1.0000
48.6700 778.0000 1.0000
48.6800 755.0000 1.0000
48.6900 819.0000 1.0000
48.7000 781.0000 1.0000
48.7100 793.0000 1.0000
48.7200 754.0000 1.0000
48.7300 811.0000 1.0000
48.7400 752.0000 1.0000
48.7500 770.0000 1.0000
48.7600 747.0000 1.0000
48.7700 739.0000 1.0000
48.7800 755.0000 1.0000
48.7900 757.0000 1.0000
48.8000 758.0000 1.0000
48.8100 744.0000 1.0000
48.8200 738.0000 1.0000
48.8300 740.0000 1.0000
48.8400 764.0000 1.0000
48.8500 808.0000 1.0000
48.8600 797.0000 1.0000
48.8700 785.0000 1.0000
48.8800 770.0000 1.0000
48.8900 786.0000 1.0000
48.9000 746.0000 1.0000
48.9100 743.0000 1.0000
48.9200 788.0000 1.0000
48.9300 746.0000 1.0000
48.9400 736.0000 1.0000
48.9500 775.0000 1.0000
48.9600 770.0000 1.0000
48.9700 753.0000 1.0000
48.9800 755.0000 1.0000
48.9900 757.0000 1.0000
49.0000 771.0000 1.0000
49.0100 769.0000 1.0000
49.0200 776.0000 1.0000
49.0300 772.0000 1.0000
49.0400 706.0000 1.0000
49.0500 739.0000 1.0000
49.0600 761.0000 1.0000
49.0700 727.0000 1.0000
49.0800 759.0000 1.0000
49.0900 764.0000 1.0000
49.1000 765.0000 1.0000
49.1100 777.0000 1.0000
49.1200 770.0000 1.0000
49.1300 756.0000 1.0000
49.1400 753.0000 1.0000
49.1500 738.0000 1.0000
49.1600 777.0000 1.0000
49.1700 742.0000 1.0000
49.1800 741.0000 1.0000
49.1900 785.0000 1.0000
49.2000 740.0000 1.0000
49.2100 711.0000 1.0000
49.2200 734.0000 1.0000
49.2300 784.0000 1.0000
49.2400 743.0000 1.0000
49.2500 765.0000 1.0000
49.2600 782.0000 1.0000
49.2700 742.0000 1.0000
49.2800 770.0000 1.0000
49.2900 734.0000 1.0000
49.3000 803.0000 1.0000
49.3100 802.0000 1.0000
49.3200 779.0000 1.0000
49.3300 743.0000 1.0000
49.3400 773.0000 1.0000
49.3500 762.0000 1.0000
49.3600 748.0000 1.0000
49.3700 748.0000 1.0000
49.3800 729.0000 1.0000
49.3900 723.0000 1.0000
49.4000 778.0000 1.0000
49.4100 786.0000 1.0000
49.4200 753.0000 1.0000
49.4300 801.0000 1.0000
49.4400 808.0000 1.0000
49.4500 790.0000 1.0000
49.4600 790.0000 1.0000
49.4700 797.0000 1.0000
49.4800 791.0000 1.0000
49.4900 802.0000 1.0000
49.5000 782.0000 1.0000
49.5100 779.0000 1.0000
49.5200 718.0000 1.0000
49.5300 717.0000 1.0000
49.5400 794.0000 1.0000
49.5500 725.0000 1.0000
49.5600 795.0000 1.0000
49.5700 807.0000 1.0000
49.5800 740.0000 1.0000
49.5900 802.0000 1.0000
49.6000 732.0000 1.0000
49.6100 716.0000 1.0000
49.6200 769.0000 1.0000
49.6300 759.0000 1.0000
49.6400 742.0000 1.0000
49.6500 711.0000 1.0000
49.6600 805.0000 1.0000
49.6700 749.0000 1.0000
49.6800 802.0000 1.0000
49.6900 747.0000 1.0000
49.7000 763.0000 1.0000
49.7100 725.0000 1.0000
49.7200 701.0000 1.0000
49.7300 745.0000 1.0000
49.7400 754.0000 1.0000
49.7500 764.0000 1.0000
49.7600 769.0000 1.0000
49.7700 776.0000 1.0000
49.7800 744.0000 1.0000
49.7900 722.0000 1.0000
49.8000 739.0000 1.0000
49.8100 730.0000 1.0000
49.8200 741.0000 1.0000
49.8300 763.0000 1.0000
49.8400 752.0000 1.0000
49.8500 785.0000 1.0000
49.8600 697.0000 1.0000
49.8700 735.0000 1.0000
49.8800 734.0000 1.0000
49.8900 763.0000 1.0000
49.9000 769.0000 1.0000
49.9100 778.0000 1.0000
49.9200 756.0000 1.0000
49.9300 730.0000 1.0000
49.9400 736.0000 1.0000
49.9500 817.0000 1.0000
49.9600 720.0000 1.0000
49.9700 733.0000 1.0000
49.9800 728.0000 1.0000
49.9900 717.0000 1.0000
50.0000 764.0000 1.0000
50.0100 786.0000 1.0000
50.0200 789.0000 1.0000
50.0300 792.0000 1.0000
50.0400 777.0000 1.0000
50.0500 780.0000 1.0000
50.0600 733.0000 1.0000
50.0700 753.0000 1.0000
50.0800 777.0000 1.0000
50.0900 755.0000 1.0000
50.1000 754.0000 1.0000
50.1100 740.0000 1.0000
50.1200 752.0000 1.0000
50.1300 759.0000 1.0000
50.1400 766.0000 1.0000
50.1500 761.0000 1.0000
50.1600 758.0000 1.0000
50.1700 809.0000 1.0000
50.1800 781.0000 1.0000
50.1900 746.0000 1.0000
50.2000 778.0000 1.0000
50.2100 757.0000 1.0000
50.2200 774.0000 1.0000
50.2300 808.0000 1.0000
50.2400 792.0000 1.0000
50.2500 795.0000 1.0000
50.2600 804.0000 1.0000
50.2700 796.0000 1.0000
50.2800 812.0000 1.0000
50.2900 817.0000 1.0000
50.3000 805.0000 1.0000
50.3100 739.0000 1.0000
50.3200 774.0000 1.0000
50.3300 770.0000 1.0000
50.3400 772.0000 1.0000
50.3500 814.0000 1.0000
50.3600 838.0000 1.0000
50.3700 808.0000 1.0000
50.3800 779.0000 1.0000
50.3900 775.0000 1.0000
50.4000 801.0000 1.0000
50.4100 806.0000 1.0000
50.4200 779.0000 1.0000
50.4300 760.0000 1.0000
50.4400 843.0000 1.0000
50.4500 786.0000 1.0000
50.4600 733.0000 1.0000
50.4700 746.0000 1.0000
50.4800 777.0000 1.0000
50.4900 766.0000 1.0000
50.5000 741.0000 1.0000
50.5100 755.0000 1.0000
50.5200 835.0000 1.0000
50.5300 832.0000 1.0000
50.5400 778.0000 1.0000
50.5500 796.0000 1.0000
50.5600 764.0000 1.0000
50.5700 738.0000 1.0000
50.5800 749.0000 1.0000
50.5900 754.0000 1.0000
50.6000 789.0000 1.0000
50.6100 785.0000 1.0000
50.6200 723.0000 1.0000
50.6300 772.0000 1.0000
50.6400 733.0000 1.0000
50.6500 755.0000 1.0000
50.6600 769.0000 1.0000
50.6700 798.0000 1.0000
50.6800 792.0000 1.0000
50.6900 788.0000 1.0000
50.7000 775.0000 1.0000
50.7100 765.0000 1.0000
50.7200 756.0000 1.0000
50.7300 718.0000 1.0000
50.7400 786.0000 1.0000
50.7500 748.0000 1.0000
50.7600 767.0000 1.0000
50.7700 746.0000 1.0000
50.7800 739.0000 1.0000
50.7900 756.0000 1.0000
50.8000 774.0000 1.0000
50.8100 773.0000 1.0000
50.8200 799.0000 1.0000
50.8300 770.0000 1.0000
50.8400 812.0000 1.0000
50.8500 805.0000 1.0000
50.8600 830.0000 1.0000
50.8700 829.0000 1.0000
50.8800 785.0000 1.0000
50.8900 811.0000 1.0000
50.9000 748.0000 1.0000
50.9100 746.0000 1.0000
50.9200 747.0000 1.0000
50.9300 768.0000 1.0000
50.9400 750.0000 1.0000
50.9500 771.0000 1.0000
50.9600 802.0000 1.0000
50.9700 726.0000 1.0000
50.9800 746.0000 1.0000
50.9900 734.0000 1.0000
51.0000 745.0000 1.0000
51.0100 748.0000 1.0000
51.0200 782.0000 1.0000
51.0300 810.0000 1.0000
51.0400 815.0000 1.0000
51.0500 788.0000 1.0000
51.0600 766.0000 1.0000
51.0700 774.0000 1.0000
51.0800 763.0000 1.0000
51.0900 777.0000 1.0000
51.1000 769.0000 1.0000
51.1100 762.0000 1.0000
51.1200 685.0000 1.0000
51.1300 741.0000 1.0000
51.1400 750.0000 1.0000
51.1500 743.0000 1.0000
51.1600 781.0000 1.0000
51.1700 765.0000 1.0000
51.1800 753.0000 1.0000
51.1900 758.0000 1.0000
51.2000 728.0000 1.0000
51.2100 757.0000 1.0000
51.2200 776.0000 1.0000
51.2300 788.0000 1.0000
51.2400 726.0000 1.0000
51.2500 778.0000 1.0000
51.2600 786.0000 1.0000
51.2700 745.0000 1.0000
51.2800 782.0000 1.0000
51.2900 733.0000 1.0000
51.3000 747.0000 1.0000
51.3100 759.0000 1.0000
51.3200 762.0000 1.0000
51.3300 759.0000 1.0000
51.3400 776.0000 1.0000
51.3500 746.0000 1.0000
51.3600 804.0000 1.0000
51.3700 745.0000 1.0000
51.3800 777.0000 1.0000
51.3900 768.0000 1.0000
51.4000 773.0000 1.0000
51.4100 751.0000 1.0000
51.4200 781.0000 1.0000
51.4300 781.0000 1.0000
51.4400 807.0000 1.0000
51.4500 790.0000 1.0000
51.4600 779.0000 1.0000
51.4700 789.0000 1.0000
51.4800 779.0000 1.0000
51.4900 791.0000 1.0000
51.5000 770.0000 1.0000
51.5100 757.0000 1.0000
51.5200 768.0000 1.0000
51.5300 775.0000 1.0000
51.5400 798.0000 1.0000
51.5500 778.0000 1.0000
51.5600 752.0000 1.0000
51.5700 818.0000 1.0000
51.5800 798.0000 1.0000
51.5900 822.0000 1.0000
51.6000 795.0000 1.0000
51.6100 759.0000 1.0000
51.6200 782.0000 1.0000
51.6300 855.0000 1.0000
51.6400 775.0000 1.0000
51.6500 808.0000 1.0000
51.6600 771.0000 1.0000
51.6700 769.0000 1.0000
51.6800 821.0000 1.0000
51.6900 789.0000 1.0000
51.7000 812.0000 1.0000
51.7100 788.0000 1.0000
51.7200 813.0000 1.0000
51.7300 810.0000 1.0000
51.7400 836.0000 1.0000
51.7500 809.0000 1.0000
51.7600 836.0000 1.0000
51.7700 801.0000 1.0000
51.7800 802.0000 1.0000
51.7900 815.0000 1.0000
51.8000 866.0000 1.0000
51.8100 844.0000 1.0000
51.8200 838.0000 1.0000
51.8300 905.0000 1.0000
51.8400 870.0000 1.0000
51.8500 864.0000 1.0000
51.8600 889.0000 1.0000
51.8700 878.0000 1.0000
51.8800 873.0000 1.0000
51.8900 876.0000 1.0000
51.9000 970.0000 1.0000
51.9100 961.0000 1.0000
51.9200 995.0000 1.0000
51.9300 983.0000 1.0000
51.9400 984.0000 1.0000
51.9500 1026.0000 1.0000
51.9600 1045.0000 1.0000
51.9700 1029.0000 1.0000
51.9800 1055.0000 1.0000
51.9900 1135.0000 1.0000
52.0000 1152.0000 1.0000
52.0100 1170.0000 1.0000
52.0200 1200.0000 1.0000
52.0300 1236.0000 1.0000
52.0400 1273.0000 1.0000
52.0500 1339.0000 1.0000
52.0600 1484.0000 1.0000
52.0700 1493.0000 1.0000
52.0800 1569.0000 1.0000
52.0900 1602.0000 1.0000
52.1000 1690.0000 1.0000
52.1100 1777.0000 1.0000
52.1200 1928.0000 1.0000
52.1300 1996.0000 1.0000
52.1400 2150.0000 1.0000
52.1500 2272.0000 1.0000
52.1600 2504.0000 1.0000
52.1700 2715.0000 1.0000
52.1800 2914.0000 1.0000
52.1900 3196.0000 1.0000
52.2000 3465.0000 1.0000
52.2100 3620.0000 1.0000
52.2200 3997.0000 1.0000
52.2300 4231.0000 1.0000
52.2400 4552.0000 1.0000
52.2500 4633.0000 1.0000
52.2600 4892.0000 1.0000
52.2700 5056.0000 1.0000
52.2800 5099.0000 1.0000
52.2900 5169.0000 1.0000
52.3000 5153.0000 1.0000
52.3100 4929.0000 1.0000
52.3200 4892.0000 1.0000
52.3300 4669.0000 1.0000
52.3400 4505.0000 1.0000
52.3500 4482.0000 1.0000
52.3600 4448.0000 1.0000
52.3700 4186.0000 1.0000
52.3800 4152.0000 1.0000
52.3900 3963.0000 1.0000
52.4000 3851.0000 1.0000
52.4100 3898.0000 1.0000
52.4200 3646.0000 1.0000
52.4300 3465.0000 1.0000
52.4400 3316.0000 1.0000
52.4500 3219.0000 1.0000
52.4600 2985.0000 1.0000
52.4700 2812.0000 1.0000
52.4800 2719.0000 1.0000
52.4900 2534.0000 1.0000
52.5000 2333.0000 1.0000
52.5100 2070.0000 1.0000
52.5200 2043.0000 1.0000
52.5300 1937.0000 1.0000
52.5400 1842.0000 1.0000
52.5500 1699.0000 1.0000
52.5600 1585.0000 1.0000
52.5700 1540.0000 1.0000
52.5800 1479.0000 1.0000
52.5900 1432.0000 1.0000
52.6000 1364.0000 1.0000
52.6100 1298.0000 1.0000
52.6200 1263.0000 1.0000
52.6300 1246.0000 1.0000
52.6400 1157.0000 1.0000
52.6500 1161.0000 1.0000
52.6600 1108.0000 1.0000
52.6700 1104.0000 1.0000
52.6800 1087.0000 1.0000
52.6900 1085.0000 1.0000
52.7000 1073.0000 1.0000
52.7100 985.0000 1.0000
52.7200 983.0000 1.0000
52.7300 993.0000 1.0000
52.7400 982.0000 1.0000
52.7500 968.0000 1.0000
52.7600 941.0000 1.0000
52.7700 895.0000 1.0000
52.7800 863.0000 1.0000
52.7900 946.0000 1.0000
52.8000 889.0000 1.0000
52.8100 896.0000 1.0000
52.8200 879.0000 1.0000
52.8300 873.0000 1.0000
52.8400 878.0000 1.0000
52.8500 932.0000 1.0000
52.8600 876.0000 1.0000
52.8700 870.0000 1.0000
52.8800 886.0000 1.0000
52.8900 882.0000 1.0000
52.9000 856.0000 1.0000
52.9100 818.0000 1.0000
52.9200 841.0000 1.0000
52.9300 825.0000 1.0000
52.9400 762.0000 1.0000
52.9500 793.0000 1.0000
52.9600 819.0000 1.0000
52.9700 808.0000 1.0000
52.9800 790.0000 1.0000
52.9900 801.0000 1.0000
53.0000 810.0000 1.0000
53.0100 822.0000 1.0000
53.0200 841.0000 1.0000
53.0300 849.0000 1.0000
53.0400 834.0000 1.0000
53.0500 774.0000 1.0000
53.0600 798.0000 1.0000
53.0700 754.0000 1.0000
53.0800 776.0000 1.0000
53.0900 771.0000 1.0000
53.1000 772.0000 1.0000
53.1100 782.0000 1.0000
53.1200 791.0000 1.0000
53.1300 813.0000 1.0000
53.1400 811.0000 1.0000
53.1500 765.0000 1.0000
53.1600 815.0000 1.0000
53.1700 764.0000 1.0000
53.1800 806.0000 1.0000
53.1900 756.0000 1.0000
53.2000 745.0000 1.0000
53.2100 778.0000 1.0000
53.2200 789.0000 1.0000
53.2300 773.0000 1.0000
53.2400 724.0000 1.0000
53.2500 791.0000 1.0000
53.2600 766.0000 1.0000
53.2700 762.0000 1.0000
53.2800 733.0000 1.0000
53.2900 776.0000 1.0000
53.3000 768.0000 1.0000
53.3100 800.0000 1.0000
53.3200 786.0000 1.0000
53.3300 783.0000 1.0000
53.3400 822.0000 1.0000
53.3500 766.0000 1.0000
53.3600 796.0000 1.0000
53.3700 804.0000 1.0000
53.3800 767.0000 1.0000
53.3900 747.0000 1.0000
53.4000 719.0000 1.0000
53.4100 730.0000 1.0000
53.4200 758.0000 1.0000
53.4300 775.0000 1.0000
53.4400 816.0000 1.0000
53.4500 787.0000 1.0000
53.4600 747.0000 1.0000
53.4700 760.0000 1.0000
53.4800 763.0000 1.0000
53.4900 769.0000 1.0000
53.5000 727.0000 1.0000
53.5100 752.0000 1.0000
53.5200 752.0000 1.0000
53.5300 775.0000 1.0000
53.5400 757.0000 1.0000
53.5500 742.0000 1.0000
53.5600 766.0000 1.0000
53.5700 771.0000 1.0000
53.5800 712.0000 1.0000
53.5900 749.0000 1.0000
53.6000 731.0000 1.0000
53.6100 743.0000 1.0000
53.6200 767.0000 1.0000
53.6300 754.0000 1.0000
53.6400 802.0000 1.0000
53.6500 773.0000 1.0000
53.6600 768.0000 1.0000
53.6700 773.0000 1.0000
53.6800 755.0000 1.0000
53.6900 794.0000 1.0000
53.7000 783.0000 1.0000
53.7100 749.0000 1.0000
53.7200 761.0000 1.0000
53.7300 743.0000 1.0000
53.7400 756.0000 1.0000
53.7500 741.0000 1.0000
53.7600 759.0000 1.0000
53.7700 739.0000 1.0000
53.7800 752.0000 1.0000
53.7900 742.0000 1.0000
53.8000 767.0000 1.0000
53.8100 798.0000 1.0000
53.8200 769.0000 1.0000
53.8300 692.0000 1.0000
53.8400 754.0000 1.0000
53.8500 774.0000 1.0000
53.8600 750.0000 1.0000
53.8700 692.0000 1.0000
53.8800 774.0000 1.0000
53.8900 752.0000 1.0000
53.9000 763.0000 1.0000
53.9100 764.0000 1.0000
53.9200 786.0000 1.0000
53.9300 740.0000 1.0000
53.9400 756.0000 1.0000
53.9500 727.0000 1.0000
53.9600 740.0000 1.0000
53.9700 704.0000 1.0000
53.9800 690.0000 1.0000
53.9900 757.0000 1.0000
54.0000 735.0000 1.0000
54.0100 749.0000 1.0000
54.0200 759.0000 1.0000
54.0300 701.0000 1.0000
54.0400 753.0000 1.0000
54.0500 740.0000 1.0000
54.0600 729.0000 1.0000
54.0700 754.0000 1.0000
54.0800 738.0000 1.0000
54.0900 739.0000 1.0000
54.1000 748.0000 1.0000
54.1100 708.0000 1.0000
54.1200 728.0000 1.0000
54.1300 737.0000 1.0000
54.1400 765.0000 1.0000
54.1500 777.0000 1.0000
54.1600 710.0000 1.0000
54.1700 760.0000 1.0000
54.1800 747.0000 1.0000
54.1900 719.0000 1.0000
54.2000 780.0000 1.0000
54.2100 773.0000 1.0000
54.2200 761.0000 1.0000
54.2300 716.0000 1.0000
54.2400 692.0000 1.0000
54.2500 725.0000 1.0000
54.2600 718.0000 1.0000
54.2700 755.0000 1.0000
54.2800 697.0000 1.0000
54.2900 763.0000 1.0000
54.3000 730.0000 1.0000
54.3100 735.0000 1.0000
54.3200 724.0000 1.0000
54.3300 714.0000 1.0000
54.3400 751.0000 1.0000
54.3500 760.0000 1.0000
54.3600 754.0000 1.0000
54.3700 793.0000 1.0000
54.3800 718.0000 1.0000
54.3900 713.0000 1.0000
54.4000 721.0000 1.0000
54.4100 701.0000 1.0000
54.4200 729.0000 1.0000
54.4300 748.0000 1.0000
54.4400 768.0000 1.0000
54.4500 779.0000 1.0000
54.4600 704.0000 1.0000
54.4700 729.0000 1.0000
54.4800 714.0000 1.0000
54.4900 774.0000 1.0000
54.5000 775.0000 1.0000
54.5100 724.0000 1.0000
54.5200 765.0000 1.0000
54.5300 744.0000 1.0000
54.5400 732.0000 1.0000
54.5500 752.0000 1.0000
54.5600 800.0000 1.0000
54.5700 751.0000 1.0000
54.5800 702.0000 1.0000
54.5900 724.0000 1.0000
54.6000 745.0000 1.0000
54.6100 800.0000 1.0000
54.6200 757.0000 1.0000
54.6300 762.0000 1.0000
54.6400 740.0000 1.0000
54.6500 778.0000 1.0000
54.6600 784.0000 1.0000
54.6700 804.0000 1.0000
54.6800 782.0000 1.0000
54.6900 794.0000 1.0000
54.7000 788.0000 1.0000
54.7100 731.0000 1.0000
54.7200 790.0000 1.0000
54.7300 777.0000 1.0000
54.7400 816.0000 1.0000
54.7500 808.0000 1.0000
54.7600 782.0000 1.0000
54.7700 824.0000 1.0000
54.7800 756.0000 1.0000
54.7900 745.0000 1.0000
54.8000 791.0000 1.0000
54.8100 786.0000 1.0000
54.8200 808.0000 1.0000
54.8300 802.0000 1.0000
54.8400 799.0000 1.0000
54.8500 769.0000 1.0000
54.8600 787.0000 1.0000
54.8700 759.0000 1.0000
54.8800 782.0000 1.0000
54.8900 783.0000 1.0000
54.9000 783.0000 1.0000
54.9100 819.0000 1.0000
54.9200 753.0000 1.0000
54.9300 819.0000 1.0000
54.9400 818.0000 1.0000
54.9500 801.0000 1.0000
54.9600 777.0000 1.0000
54.9700 809.0000 1.0000
54.9800 793.0000 1.0000
54.9900 836.0000 1.0000
55.0000 781.0000 1.0000
55.0100 849.0000 1.0000
55.0200 834.0000 1.0000
55.0300 851.0000 1.0000
55.0400 840.0000 1.0000
55.0500 833.0000 1.0000
55.0600 804.0000 1.0000
55.0700 825.0000 1.0000
55.0800 786.0000 1.0000
55.0900 861.0000 1.0000
55.1000 861.0000 1.0000
55.1100 901.0000 1.0000
55.1200 940.0000 1.0000
55.1300 869.0000 1.0000
55.1400 892.0000 1.0000
55.1500 952.0000 1.0000
55.1600 948.0000 1.0000
55.1700 963.0000 1.0000
55.1800 1029.0000 1.0000
55.1900 963.0000 1.0000
55.2000 985.0000 1.0000
55.2100 1055.0000 1.0000
55.2200 1055.0000 1.0000
55.2300 1045.0000 1.0000
55.2400 1093.0000 1.0000
55.2500 1060.0000 1.0000
55.2600 1073.0000 1.0000
55.2700 1180.0000 1.0000
55.2800 1126.0000 1.0000
55.2900 1168.0000 1.0000
55.3000 1109.0000 1.0000
55.3100 1067.0000 1.0000
55.3200 1114.0000 1.0000
55.3300 1171.0000 1.0000
55.3400 1119.0000 1.0000
55.3500 1034.0000 1.0000
55.3600 1141.0000 1.0000
55.3700 1079.0000 1.0000
55.3800 1123.0000 1.0000
55.3900 1057.0000 1.0000
55.4000 1031.0000 1.0000
55.4100 1073.0000 1.0000
55.4200 1036.0000 1.0000
55.4300 1081.0000 1.0000
55.4400 1050.0000 1.0000
55.4500 958.0000 1.0000
55.4600 1019.0000 1.0000
55.4700 966.0000 1.0000
55.4800 981.0000 1.0000
55.4900 969.0000 1.0000
55.5000 959.0000 1.0000
55.5100 945.0000 1.0000
55.5200 913.0000 1.0000
55.5300 901.0000 1.0000
55.5400 897.0000 1.0000
55.5500 815.0000 1.0000
55.5600 834.0000 1.0000
55.5700 831.0000 1.0000
55.5800 833.0000 1.0000
55.5900 806.0000 1.0000
55.6000 788.0000 1.0000
55.6100 808.0000 1.0000
55.6200 852.0000 1.0000
55.6300 824.0000 1.0000
55.6400 804.0000 1.0000
55.6500 818.0000 1.0000
55.6600 829.0000 1.0000
55.6700 851.0000 1.0000
55.6800 810.0000 1.0000
55.6900 804.0000 1.0000
55.7000 738.0000 1.0000
55.7100 738.0000 1.0000
55.7200 764.0000 1.0000
55.7300 732.0000 1.0000
55.7400 791.0000 1.0000
55.7500 750.0000 1.0000
55.7600 775.0000 1.0000
55.7700 754.0000 1.0000
55.7800 766.0000 1.0000
55.7900 805.0000 1.0000
55.8000 756.0000 1.0000
55.8100 737.0000 1.0000
55.8200 732.0000 1.0000
55.8300 779.0000 1.0000
55.8400 766.0000 1.0000
55.8500 744.0000 1.0000
55.8600 762.0000 1.0000
55.8700 774.0000 1.0000
55.8800 751.0000 1.0000
55.8900 704.0000 1.0000
55.9000 736.0000 1.0000
55.9100 729.0000 1.0000
55.9200 758.0000 1.0000
55.9300 762.0000 1.0000
55.9400 744.0000 1.0000
55.9500 730.0000 1.0000
55.9600 731.0000 1.0000
55.9700 760.0000 1.0000
55.9800 744.0000 1.0000
55.9900 722.0000 1.0000
56.0000 750.0000 1.0000
56.0100 724.0000 1.0000
56.0200 733.0000 1.0000
56.0300 720.0000 1.0000
56.0400 755.0000 1.0000
56.0500 774.0000 1.0000
56.0600 779.0000 1.0000
56.0700 739.0000 1.0000
56.0800 713.0000 1.0000
56.0900 711.0000 1.0000
56.1000 711.0000 1.0000
56.1100 710.0000 1.0000
56.1200 741.0000 1.0000
56.1300 708.0000 1.0000
56.1400 696.0000 1.0000
56.1500 700.0000 1.0000
56.1600 745.0000 1.0000
56.1700 707.0000 1.0000
56.1800 732.0000 1.0000
56.1900 733.0000 1.0000
56.2000 700.0000 1.0000
56.2100 697.0000 1.0000
56.2200 731.0000 1.0000
56.2300 717.0000 1.0000
56.2400 702.0000 1.0000
56.2500 722.0000 1.0000
56.2600 701.0000 1.0000
56.2700 720.0000 1.0000
56.2800 748.0000 1.0000
56.2900 720.0000 1.0000
56.3000 728.0000 1.0000
56.3100 706.0000 1.0000
56.3200 704.0000 1.0000
56.3300 700.0000 1.0000
56.3400 716.0000 1.0000
56.3500 747.0000 1.0000
56.3600 768.0000 1.0000
56.3700 723.0000 1.0000
56.3800 699.0000 1.0000
56.3900 721.0000 1.0000
56.4000 746.0000 1.0000
56.4100 750.0000 1.0000
56.4200 705.0000 1.0000
56.4300 682.0000 1.0000
56.4400 688.0000 1.0000
56.4500 689.0000 1.0000
56.4600 696.0000 1.0000
56.4700 700.0000 1.0000
56.4800 751.0000 1.0000
56.4900 692.0000 1.0000
56.5000 681.0000 1.0000
56.5100 704.0000 1.0000
56.5200 711.0000 1.0000
56.5300 705.0000 1.0000
56.5400 711.0000 1.0000
56.5500 713.0000 1.0000
56.5600 724.0000 1.0000
56.5700 689.0000 1.0000
56.5800 683.0000 1.0000
56.5900 710.0000 1.0000
56.6000 744.0000 1.0000
56.6100 713.0000 1.0000
56.6200 689.0000 1.0000
56.6300 718.0000 1.0000
56.6400 720.0000 1.0000
56.6500 750.0000 1.0000
56.6600 705.0000 1.0000
56.6700 741.0000 1.0000
56.6800 722.0000 1.0000
56.6900 697.0000 1.0000
56.7000 731.0000 1.0000
56.7100 719.0000 1.0000
56.7200 718.0000 1.0000
56.7300 719.0000 1.0000
56.7400 709.0000 1.0000
56.7500 743.0000 1.0000
56.7600 732.0000 1.0000
56.7700 729.0000 1.0000
56.7800 686.0000 1.0000
56.7900 705.0000 1.0000
56.8000 700.0000 1.0000
56.8100 700.0000 1.0000
56.8200 711.0000 1.0000
56.8300 703.0000 1.0000
56.8400 691.0000 1.0000
56.8500 699.0000 1.0000
56.8600 742.0000 1.0000
56.8700 686.0000 1.0000
56.8800 682.0000 1.0000
56.8900 693.0000 1.0000
56.9000 702.0000 1.0000
56.9100 709.0000 1.0000
56.9200 699.0000 1.0000
56.9300 729.0000 1.0000
56.9400 694.0000 1.0000
56.9500 699.0000 1.0000
56.9600 705.0000 1.0000
56.9700 732.0000 1.0000
56.9800 685.0000 1.0000
56.9900 719.0000 1.0000
57.0000 714.0000 1.0000
57.0100 705.0000 1.0000
57.0200 708.0000 1.0000
57.0300 709.0000 1.0000
57.0400 702.0000 1.0000
57.0500 743.0000 1.0000
57.0600 683.0000 1.0000
57.0700 750.0000 1.0000
57.0800 737.0000 1.0000
57.0900 678.0000 1.0000
57.1000 690.0000 1.0000
57.1100 747.0000 1.0000
57.1200 703.0000 1.0000
57.1300 657.0000 1.0000
57.1400 700.0000 1.0000
57.1500 714.0000 1.0000
57.1600 716.0000 1.0000
57.1700 708.0000 1.0000
57.1800 713.0000 1.0000
57.1900 711.0000 1.0000
57.2000 757.0000 1.0000
57.2100 709.0000 1.0000
57.2200 704.0000 1.0000
57.2300 713.0000 1.0000
57.2400 716.0000 1.0000
57.2500 684.0000 1.0000
57.2600 718.0000 1.0000
57.2700 741.0000 1.0000
57.2800 729.0000 1.0000
57.2900 751.0000 1.0000
57.3000 762.0000 1.0000
57.3100 699.0000 1.0000
57.3200 731.0000 1.0000
57.3300 712.0000 1.0000
57.3400 695.0000 1.0000
57.3500 713.0000 1.0000
57.3600 705.0000 1.0000
57.3700 683.0000 1.0000
57.3800 688.0000 1.0000
57.3900 701.0000 1.0000
57.4000 716.0000 1.0000
57.4100 655.0000 1.0000
57.4200 693.0000 1.0000
57.4300 729.0000 1.0000
57.4400 704.0000 1.0000
57.4500 687.0000 1.0000
57.4600 717.0000 1.0000
57.4700 732.0000 1.0000
57.4800 698.0000 1.0000
57.4900 687.0000 1.0000
57.5000 687.0000 1.0000
57.5100 713.0000 1.0000
57.5200 732.0000 1.0000
57.5300 684.0000 1.0000
57.5400 708.0000 1.0000
57.5500 744.0000 1.0000
57.5600 742.0000 1.0000
57.5700 695.0000 1.0000
57.5800 720.0000 1.0000
57.5900 688.0000 1.0000
57.6000 666.0000 1.0000
57.6100 711.0000 1.0000
57.6200 715.0000 1.0000
57.6300 713.0000 1.0000
57.6400 670.0000 1.0000
57.6500 685.0000 1.0000
57.6600 719.0000 1.0000
57.6700 698.0000 1.0000
57.6800 695.0000 1.0000
57.6900 689.0000 1.0000
57.7000 706.0000 1.0000
57.7100 719.0000 1.0000
57.7200 678.0000 1.0000
57.7300 692.0000 1.0000
57.7400 666.0000 1.0000
57.7500 714.0000 1.0000
57.7600 732.0000 1.0000
57.7700 689.0000 1.0000
57.7800 708.0000 1.0000
57.7900 710.0000 1.0000
57.8000 740.0000 1.0000
57.8100 734.0000 1.0000
57.8200 721.0000 1.0000
57.8300 700.0000 1.0000
57.8400 700.0000 1.0000
57.8500 716.0000 1.0000
57.8600 756.0000 1.0000
57.8700 711.0000 1.0000
57.8800 697.0000 1.0000
57.8900 666.0000 1.0000
57.9000 705.0000 1.0000
57.9100 749.0000 1.0000
57.9200 751.0000 1.0000
57.9300 710.0000 1.0000
57.9400 709.0000 1.0000
57.9500 716.0000 1.0000
57.9600 681.0000 1.0000
57.9700 719.0000 1.0000
57.9800 705.0000 1.0000
57.9900 722.0000 1.0000
58.0000 708.0000 1.0000
58.0100 711.0000 1.0000
58.0200 707.0000 1.0000
58.0300 752.0000 1.0000
58.0400 716.0000 1.0000
58.0500 734.0000 1.0000
58.0600 730.0000 1.0000
58.0700 754.0000 1.0000
58.0800 777.0000 1.0000
58.0900 718.0000 1.0000
58.1000 657.0000 1.0000
58.1100 714.0000 1.0000
58.1200 708.0000 1.0000
58.1300 707.0000 1.0000
58.1400 734.0000 1.0000
58.1500 686.0000 1.0000
58.1600 772.0000 1.0000
58.1700 757.0000 1.0000
58.1800 735.0000 1.0000
58.1900 710.0000 1.0000
58.2000 725.0000 1.0000
58.2100 742.0000 1.0000
58.2200 770.0000 1.0000
58.2300 771.0000 1.0000
58.2400 727.0000 1.0000
58.2500 713.0000 1.0000
58.2600 745.0000 1.0000
58.2700 748.0000 1.0000
58.2800 709.0000 1.0000
58.2900 710.0000 1.0000
58.3000 713.0000 1.0000
58.3100 708.0000 1.0000
58.3200 660.0000 1.0000
58.3300 763.0000 1.0000
58.3400 722.0000 1.0000
58.3500 710.0000 1.0000
58.3600 736.0000 1.0000
58.3700 718.0000 1.0000
58.3800 708.0000 1.0000
58.3900 733.0000 1.0000
58.4000 749.0000 1.0000
58.4100 760.0000 1.0000
58.4200 724.0000 1.0000
58.4300 722.0000 1.0000
58.4400 700.0000 1.0000
58.4500 697.0000 1.0000
58.4600 693.0000 1.0000
58.4700 740.0000 1.0000
58.4800 715.0000 1.0000
58.4900 727.0000 1.0000
58.5000 741.0000 1.0000
58.5100 711.0000 1.0000
58.5200 699.0000 1.0000
58.5300 677.0000 1.0000
58.5400 719.0000 1.0000
58.5500 732.0000 1.0000
58.5600 723.0000 1.0000
58.5700 708.0000 1.0000
58.5800 696.0000 1.0000
58.5900 705.0000 1.0000
58.6000 724.0000 1.0000
58.6100 711.0000 1.0000
58.6200 752.0000 1.0000
58.6300 702.0000 1.0000
58.6400 703.0000 1.0000
58.6500 695.0000 1.0000
58.6600 680.0000 1.0000
58.6700 679.0000 1.0000
58.6800 703.0000 1.0000
58.6900 674.0000 1.0000
58.7000 715.0000 1.0000
58.7100 747.0000 1.0000
58.7200 690.0000 1.0000
58.7300 688.0000 1.0000
58.7400 682.0000 1.0000
58.7500 699.0000 1.0000
58.7600 708.0000 1.0000
58.7700 708.0000 1.0000
58.7800 674.0000 1.0000
58.7900 706.0000 1.0000
58.8000 702.0000 1.0000
58.8100 659.0000 1.0000
58.8200 703.0000 1.0000
58.8300 726.0000 1.0000
58.8400 733.0000 1.0000
58.8500 709.0000 1.0000
58.8600 674.0000 1.0000
58.8700 707.0000 1.0000
58.8800 743.0000 1.0000
58.8900 690.0000 1.0000
58.9000 686.0000 1.0000
58.9100 718.0000 1.0000
58.9200 708.0000 1.0000
58.9300 711.0000 1.0000
58.9400 738.0000 1.0000
58.9500 666.0000 1.0000
58.9600 686.0000 1.0000
58.9700 713.0000 1.0000
58.9800 713.0000 1.0000
58.9900 716.0000 1.0000
59.0000 682.0000 1.0000
59.0100 696.0000 1.0000
59.0200 726.0000 1.0000
59.0300 724.0000 1.0000
59.0400 694.0000 1.0000
59.0500 700.0000 1.0000
59.0600 725.0000 1.0000
59.0700 688.0000 1.0000
59.0800 708.0000 1.0000
59.0900 716.0000 1.0000
59.1000 693.0000 1.0000
59.1100 686.0000 1.0000
59.1200 699.0000 1.0000
59.1300 687.0000 1.0000
59.1400 730.0000 1.0000
59.1500 728.0000 1.0000
59.1600 739.0000 1.0000
59.1700 711.0000 1.0000
59.1800 688.0000 1.0000
59.1900 711.0000 1.0000
59.2000 657.0000 1.0000
59.2100 716.0000 1.0000
59.2200 725.0000 1.0000
59.2300 766.0000 1.0000
59.2400 716.0000 1.0000
59.2500 703.0000 1.0000
59.2600 700.0000 1.0000
59.2700 696.0000 1.0000
59.2800 712.0000 1.0000
59.2900 733.0000 1.0000
59.3000 731.0000 1.0000
59.3100 688.0000 1.0000
59.3200 720.0000 1.0000
59.3300 702.0000 1.0000
59.3400 745.0000 1.0000
59.3500 697.0000 1.0000
59.3600 723.0000 1.0000
59.3700 723.0000 1.0000
59.3800 688.0000 1.0000
59.3900 684.0000 1.0000
59.4000 661.0000 1.0000
59.4100 674.0000 1.0000
59.4200 715.0000 1.0000
59.4300 700.0000 1.0000
59.4400 706.0000 1.0000
59.4500 678.0000 1.0000
59.4600 758.0000 1.0000
59.4700 715.0000 1.0000
59.4800 726.0000 1.0000
59.4900 728.0000 1.0000
59.5000 725.0000 1.0000
59.5100 744.0000 1.0000
59.5200 717.0000 1.0000
59.5300 734.0000 1.0000
59.5400 757.0000 1.0000
59.5500 709.0000 1.0000
59.5600 708.0000 1.0000
59.5700 711.0000 1.0000
59.5800 711.0000 1.0000
59.5900 679.0000 1.0000
59.6000 710.0000 1.0000
59.6100 704.0000 1.0000
59.6200 732.0000 1.0000
59.6300 665.0000 1.0000
59.6400 713.0000 1.0000
59.6500 687.0000 1.0000
59.6600 696.0000 1.0000
59.6700 675.0000 1.0000
59.6800 692.0000 1.0000
59.6900 735.0000 1.0000
59.7000 726.0000 1.0000
59.7100 678.0000 1.0000
59.7200 677.0000 1.0000
59.7300 714.0000 1.0000
59.7400 705.0000 1.0000
59.7500 719.0000 1.0000
59.7600 729.0000 1.0000
59.7700 681.0000 1.0000
59.7800 664.0000 1.0000
59.7900 684.0000 1.0000
59.8000 700.0000 1.0000
59.8100 761.0000 1.0000
59.8200 670.0000 1.0000
59.8300 670.0000 1.0000
59.8400 699.0000 1.0000
59.8500 675.0000 1.0000
59.8600 694.0000 1.0000
59.8700 690.0000 1.0000
59.8800 673.0000 1.0000
59.8900 697.0000 1.0000
59.9000 704.0000 1.0000
59.9100 706.0000 1.0000
59.9200 668.0000 1.0000
59.9300 731.0000 1.0000
59.9400 692.0000 1.0000
59.9500 733.0000 1.0000
59.9600 721.0000 1.0000
59.9700 665.0000 1.0000
59.9800 689.0000 1.0000
59.9900 744.0000 1.0000
60.0000 707.0000 1.0000
60.0100 705.0000 1.0000
60.0200 697.0000 1.0000
60.0300 691.0000 1.0000
60.0400 691.0000 1.0000
60.0500 693.0000 1.0000
60.0600 673.0000 1.0000
60.0700 706.0000 1.0000
60.0800 732.0000 1.0000
60.0900 718.0000 1.0000
60.1000 700.0000 1.0000
60.1100 707.0000 1.0000
60.1200 688.0000 1.0000
60.1300 662.0000 1.0000
60.1400 694.0000 1.0000
60.1500 738.0000 1.0000
60.1600 728.0000 1.0000
60.1700 718.0000 1.0000
60.1800 703.0000 1.0000
60.1900 754.0000 1.0000
60.2000 722.0000 1.0000
60.2100 719.0000 1.0000
60.2200 688.0000 1.0000
60.2300 742.0000 1.0000
60.2400 726.0000 1.0000
60.2500 719.0000 1.0000
60.2600 691.0000 1.0000
60.2700 701.0000 1.0000
60.2800 732.0000 1.0000
60.2900 720.0000 1.0000
60.3000 680.0000 1.0000
60.3100 717.0000 1.0000
60.3200 728.0000 1.0000
60.3300 692.0000 1.0000
60.3400 736.0000 1.0000
60.3500 691.0000 1.0000
60.3600 707.0000 1.0000
60.3700 730.0000 1.0000
60.3800 729.0000 1.0000
60.3900 699.0000 1.0000
60.4000 689.0000 1.0000
60.4100 696.0000 1.0000
60.4200 669.0000 1.0000
60.4300 676.0000 1.0000
60.4400 671.0000 1.0000
60.4500 725.0000 1.0000
60.4600 683.0000 1.0000
60.4700 701.0000 1.0000
60.4800 689.0000 1.0000
60.4900 683.0000 1.0000
60.5000 689.0000 1.0000
60.5100 675.0000 1.0000
60.5200 683.0000 1.0000
60.5300 685.0000 1.0000
60.5400 681.0000 1.0000
60.5500 713.0000 1.0000
60.5600 735.0000 1.0000
60.5700 718.0000 1.0000
60.5800 680.0000 1.0000
60.5900 671.0000 1.0000
60.6000 730.0000 1.0000
60.6100 693.0000 1.0000
60.6200 698.0000 1.0000
60.6300 736.0000 1.0000
60.6400 683.0000 1.0000
60.6500 704.0000 1.0000
60.6600 677.0000 1.0000
60.6700 696.0000 1.0000
60.6800 740.0000 1.0000
60.6900 727.0000 1.0000
60.7000 685.0000 1.0000
60.7100 700.0000 1.0000
60.7200 721.0000 1.0000
60.7300 696.0000 1.0000
60.7400 698.0000 1.0000
60.7500 738.0000 1.0000
60.7600 715.0000 1.0000
60.7700 699.0000 1.0000
60.7800 681.0000 1.0000
60.7900 699.0000 1.0000
60.8000 723.0000 1.0000
60.8100 727.0000 1.0000
60.8200 731.0000 1.0000
60.8300 708.0000 1.0000
60.8400 715.0000 1.0000
60.8500 693.0000 1.0000
60.8600 687.0000 1.0000
60.8700 702.0000 1.0000
60.8800 729.0000 1.0000
60.8900 737.0000 1.0000
60.9000 700.0000 1.0000
60.9100 688.0000 1.0000
60.9200 704.0000 1.0000
60.9300 715.0000 1.0000
60.9400 721.0000 1.0000
60.9500 693.0000 1.0000
60.9600 708.0000 1.0000
60.9700 677.0000 1.0000
60.9800 714.0000 1.0000
60.9900 713.0000 1.0000
61.0000 671.0000 1.0000
61.0100 670.0000 1.0000
61.0200 702.0000 1.0000
61.0300 657.0000 1.0000
61.0400 659.0000 1.0000
61.0500 657.0000 1.0000
61.0600 713.0000 1.0000
61.0700 671.0000 1.0000
61.0800 717.0000 1.0000
61.0900 719.0000 1.0000
61.1000 709.0000 1.0000
61.1100 704.0000 1.0000
61.1200 672.0000 1.0000
61.1300 682.0000 1.0000
61.1400 724.0000 1.0000
61.1500 712.0000 1.0000
61.1600 699.0000 1.0000
61.1700 703.0000 1.0000
61.1800 715.0000 1.0000
61.1900 723.0000 1.0000
61.2000 720.0000 1.0000
61.2100 723.0000 1.0000
61.2200 707.0000 1.0000
61.2300 684.0000 1.0000
61.2400 722.0000 1.0000
61.2500 707.0000 1.0000
61.2600 700.0000 1.0000
61.2700 709.0000 1.0000
61.2800 747.0000 1.0000
61.2900 680.0000 1.0000
61.3000 728.0000 1.0000
61.3100 727.0000 1.0000
61.3200 764.0000 1.0000
61.3300 715.0000 1.0000
61.3400 661.0000 1.0000
61.3500 751.0000 1.0000
61.3600 710.0000 1.0000
61.3700 703.0000 1.0000
61.3800 719.0000 1.0000
61.3900 770.0000 1.0000
61.4000 741.0000 1.0000
61.4100 705.0000 1.0000
61.4200 696.0000 1.0000
61.4300 693.0000 1.0000
61.4400 730.0000 1.0000
61.4500 742.0000 1.0000
61.4600 714.0000 1.0000
61.4700 730.0000 1.0000
61.4800 726.0000 1.0000
61.4900 704.0000 1.0000
61.5000 723.0000 1.0000
61.5100 772.0000 1.0000
61.5200 743.0000 1.0000
61.5300 772.0000 1.0000
61.5400 736.0000 1.0000
61.5500 740.0000 1.0000
61.5600 742.0000 1.0000
61.5700 744.0000 1.0000
61.5800 749.0000 1.0000
61.5900 776.0000 1.0000
61.6000 731.0000 1.0000
61.6100 741.0000 1.0000
61.6200 717.0000 1.0000
61.6300 723.0000 1.0000
61.6400 754.0000 1.0000
61.6500 733.0000 1.0000
61.6600 736.0000 1.0000
61.6700 739.0000 1.0000
61.6800 736.0000 1.0000
61.6900 737.0000 1.0000
61.7000 791.0000 1.0000
61.7100 787.0000 1.0000
61.7200 782.0000 1.0000
61.7300 772.0000 1.0000
61.7400 755.0000 1.0000
61.7500 770.0000 1.0000
61.7600 765.0000 1.0000
61.7700 764.0000 1.0000
61.7800 791.0000 1.0000
61.7900 809.0000 1.0000
61.8000 751.0000 1.0000
61.8100 761.0000 1.0000
61.8200 795.0000 1.0000
61.8300 752.0000 1.0000
61.8400 748.0000 1.0000
61.8500 760.0000 1.0000
61.8600 785.0000 1.0000
61.8700 790.0000 1.0000
61.8800 820.0000 1.0000
61.8900 795.0000 1.0000
61.9000 788.0000 1.0000
61.9100 870.0000 1.0000
61.9200 837.0000 1.0000
61.9300 845.0000 1.0000
61.9400 864.0000 1.0000
61.9500 880.0000 1.0000
61.9600 862.0000 1.0000
61.9700 860.0000 1.0000
61.9800 891.0000 1.0000
61.9900 923.0000 1.0000
62.0000 952.0000 1.0000
62.0100 933.0000 1.0000
62.0200 890.0000 1.0000
62.0300 915.0000 1.0000
62.0400 969.0000 1.0000
62.0500 995.0000 1.0000
62.0600 1001.0000 1.0000
62.0700 1046.0000 1.0000
62.0800 990.0000 1.0000
62.0900 1075.0000 1.0000
62.1000 1101.0000 1.0000
62.1100 1123.0000 1.0000
62.1200 1159.0000 1.0000
62.1300 1177.0000 1.0000
62.1400 1193.0000 1.0000
62.1500 1255.0000 1.0000
62.1600 1254.0000 1.0000
62.1700 1250.0000 1.0000
62.1800 1401.0000 1.0000
62.1900 1410.0000 1.0000
62.2000 1382.0000 1.0000
62.2100 1496.0000 1.0000
62.2200 1476.0000 1.0000
62.2300 1490.0000 1.0000
62.2400 1565.0000 1.0000
62.2500 1631.0000 1.0000
62.2600 1600.0000 1.0000
62.2700 1623.0000 1.0000
62.2800 1614.0000 1.0000
62.2900 1622.0000 1.0000
62.3000 1639.0000 1.0000
62.3100 1719.0000 1.0000
62.3200 1659.0000 1.0000
62.3300 1669.0000 1.0000
62.3400 1673.0000 1.0000
62.3500 1658.0000 1.0000
62.3600 1643.0000 1.0000
62.3700 1623.0000 1.0000
62.3800 1654.0000 1.0000
62.3900 1609.0000 1.0000
62.4000 1634.0000 1.0000
62.4100 1602.0000 1.0000
62.4200 1590.0000 1.0000
62.4300 1572.0000 1.0000
62.4400 1602.0000 1.0000
62.4500 1488.0000 1.0000
62.4600 1482.0000 1.0000
62.4700 1473.0000 1.0000
62.4800 1439.0000 1.0000
62.4900 1410.0000 1.0000
62.5000 1372.0000 1.0000
62.5100 1351.0000 1.0000
62.5200 1371.0000 1.0000
62.5300 1337.0000 1.0000
62.5400 1285.0000 1.0000
62.5500 1276.0000 1.0000
62.5600 1270.0000 1.0000
62.5700 1232.0000 1.0000
62.5800 1204.0000 1.0000
62.5900 1158.0000 1.0000
62.6000 1182.0000 1.0000
62.6100 1148.0000 1.0000
62.6200 1115.0000 1.0000
62.6300 1117.0000 1.0000
62.6400 1089.0000 1.0000
62.6500 1035.0000 1.0000
62.6600 1000.0000 1.0000
62.6700 1020.0000 1.0000
62.6800 1002.0000 1.0000
62.6900 968.0000 1.0000
62.7000 983.0000 1.0000
62.7100 927.0000 1.0000
62.7200 873.0000 1.0000
62.7300 891.0000 1.0000
62.7400 911.0000 1.0000
62.7500 940.0000 1.0000
62.7600 935.0000 1.0000
62.7700 879.0000 1.0000
62.7800 919.0000 1.0000
62.7900 884.0000 1.0000
62.8000 830.0000 1.0000
62.8100 883.0000 1.0000
62.8200 830.0000 1.0000
62.8300 861.0000 1.0000
62.8400 787.0000 1.0000
62.8500 845.0000 1.0000
62.8600 832.0000 1.0000
62.8700 815.0000 1.0000
62.8800 816.0000 1.0000
62.8900 864.0000 1.0000
62.9000 834.0000 1.0000
62.9100 813.0000 1.0000
62.9200 770.0000 1.0000
62.9300 787.0000 1.0000
62.9400 793.0000 1.0000
62.9500 823.0000 1.0000
62.9600 837.0000 1.0000
62.9700 789.0000 1.0000
62.9800 770.0000 1.0000
62.9900 765.0000 1.0000
63.0000 764.0000 1.0000
63.0100 761.0000 1.0000
63.0200 791.0000 1.0000
63.0300 765.0000 1.0000
63.0400 756.0000 1.0000
63.0500 797.0000 1.0000
63.0600 783.0000 1.0000
63.0700 820.0000 1.0000
63.0800 766.0000 1.0000
63.0900 741.0000 1.0000
63.1000 726.0000 1.0000
63.1100 749.0000 1.0000
63.1200 781.0000 1.0000
63.1300 799.0000 1.0000
63.1400 749.0000 1.0000
63.1500 780.0000 1.0000
63.1600 832.0000 1.0000
63.1700 778.0000 1.0000
63.1800 824.0000 1.0000
63.1900 786.0000 1.0000
63.2000 767.0000 1.0000
63.2100 743.0000 1.0000
63.2200 760.0000 1.0000
63.2300 784.0000 1.0000
63.2400 736.0000 1.0000
63.2500 687.0000 1.0000
63.2600 724.0000 1.0000
63.2700 706.0000 1.0000
63.2800 734.0000 1.0000
63.2900 779.0000 1.0000
63.3000 725.0000 1.0000
63.3100 765.0000 1.0000
63.3200 740.0000 1.0000
63.3300 717.0000 1.0000
63.3400 733.0000 1.0000
63.3500 740.0000 1.0000
63.3600 702.0000 1.0000
63.3700 723.0000 1.0000
63.3800 670.0000 1.0000
63.3900 704.0000 1.0000
63.4000 722.0000 1.0000
63.4100 705.0000 1.0000
63.4200 748.0000 1.0000
63.4300 716.0000 1.0000
63.4400 715.0000 1.0000
63.4500 721.0000 1.0000
63.4600 679.0000 1.0000
63.4700 734.0000 1.0000
63.4800 711.0000 1.0000
63.4900 736.0000 1.0000
63.5000 713.0000 1.0000
63.5100 698.0000 1.0000
63.5200 747.0000 1.0000
63.5300 712.0000 1.0000
63.5400 707.0000 1.0000
63.5500 728.0000 1.0000
63.5600 687.0000 1.0000
63.5700 714.0000 1.0000
63.5800 695.0000 1.0000
63.5900 718.0000 1.0000
63.6000 703.0000 1.0000
63.6100 742.0000 1.0000
63.6200 726.0000 1.0000
63.6300 706.0000 1.0000
63.6400 755.0000 1.0000
63.6500 732.0000 1.0000
63.6600 687.0000 1.0000
63.6700 671.0000 1.0000
63.6800 685.0000 1.0000
63.6900 674.0000 1.0000
63.7000 701.0000 1.0000
63.7100 721.0000 1.0000
63.7200 708.0000 1.0000
63.7300 770.0000 1.0000
63.7400 695.0000 1.0000
63.7500 708.0000 1.0000
63.7600 743.0000 1.0000
63.7700 680.0000 1.0000
63.7800 674.0000 1.0000
63.7900 668.0000 1.0000
63.8000 726.0000 1.0000
63.8100 732.0000 1.0000
63.8200 722.0000 1.0000
63.8300 703.0000 1.0000
63.8400 673.0000 1.0000
63.8500 746.0000 1.0000
63.8600 715.0000 1.0000
63.8700 707.0000 1.0000
63.8800 695.0000 1.0000
63.8900 707.0000 1.0000
63.9000 709.0000 1.0000
63.9100 715.0000 1.0000
63.9200 713.0000 1.0000
63.9300 714.0000 1.0000
63.9400 680.0000 1.0000
63.9500 689.0000 1.0000
63.9600 700.0000 1.0000
63.9700 648.0000 1.0000
63.9800 658.0000 1.0000
63.9900 694.0000 1.0000
64.0000 693.0000 1.0000
64.0100 719.0000 1.0000
64.0200 684.0000 1.0000
64.0300 666.0000 1.0000
64.0400 701.0000 1.0000
64.0500 712.0000 1.0000
64.0600 673.0000 1.0000
64.0700 696.0000 1.0000
64.0800 686.0000 1.0000
64.0900 677.0000 1.0000
64.1000 682.0000 1.0000
64.1100 713.0000 1.0000
64.1200 712.0000 1.0000
64.1300 701.0000 1.0000
64.1400 730.0000 1.0000
64.1500 732.0000 1.0000
64.1600 739.0000 1.0000
64.1700 776.0000 1.0000
64.1800 739.0000 1.0000
64.1900 689.0000 1.0000
64.2000 713.0000 1.0000
64.2100 712.0000 1.0000
64.2200 666.0000 1.0000
64.2300 749.0000 1.0000
64.2400 695.0000 1.0000
64.2500 711.0000 1.0000
64.2600 757.0000 1.0000
64.2700 741.0000 1.0000
64.2800 727.0000 1.0000
64.2900 689.0000 1.0000
64.3000 706.0000 1.0000
64.3100 692.0000 1.0000
64.3200 700.0000 1.0000
64.3300 721.0000 1.0000
64.3400 745.0000 1.0000
64.3500 727.0000 1.0000
64.3600 698.0000 1.0000
64.3700 722.0000 1.0000
64.3800 768.0000 1.0000
64.3900 740.0000 1.0000
64.4000 754.0000 1.0000
64.4100 689.0000 1.0000
64.4200 713.0000 1.0000
64.4300 705.0000 1.0000
64.4400 740.0000 1.0000
64.4500 769.0000 1.0000
64.4600 765.0000 1.0000
64.4700 759.0000 1.0000
64.4800 729.0000 1.0000
64.4900 742.0000 1.0000
64.5000 773.0000 1.0000
64.5100 800.0000 1.0000
64.5200 725.0000 1.0000
64.5300 753.0000 1.0000
64.5400 774.0000 1.0000
64.5500 759.0000 1.0000
64.5600 776.0000 1.0000
64.5700 749.0000 1.0000
64.5800 796.0000 1.0000
64.5900 813.0000 1.0000
64.6000 830.0000 1.0000
64.6100 804.0000 1.0000
64.6200 862.0000 1.0000
64.6300 907.0000 1.0000
64.6400 881.0000 1.0000
64.6500 923.0000 1.0000
64.6600 993.0000 1.0000
64.6700 962.0000 1.0000
64.6800 959.0000 1.0000
64.6900 1012.0000 1.0000
64.7000 973.0000 1.0000
64.7100 943.0000 1.0000
64.7200 940.0000 1.0000
64.7300 933.0000 1.0000
64.7400 922.0000 1.0000
64.7500 937.0000 1.0000
64.7600 877.0000 1.0000
64.7700 934.0000 1.0000
64.7800 933.0000 1.0000
64.7900 881.0000 1.0000
64.8000 860.0000 1.0000
64.8100 896.0000 1.0000
64.8200 891.0000 1.0000
64.8300 905.0000 1.0000
64.8400 881.0000 1.0000
64.8500 903.0000 1.0000
64.8600 835.0000 1.0000
64.8700 838.0000 1.0000
64.8800 880.0000 1.0000
64.8900 863.0000 1.0000
64.9000 867.0000 1.0000
64.9100 806.0000 1.0000
64.9200 828.0000 1.0000
64.9300 870.0000 1.0000
64.9400 806.0000 1.0000
64.9500 774.0000 1.0000
64.9600 787.0000 1.0000
64.9700 779.0000 1.0000
64.9800 790.0000 1.0000
64.9900 805.0000 1.0000
65.0000 719.0000 1.0000
65.0100 758.0000 1.0000
65.0200 781.0000 1.0000
65.0300 789.0000 1.0000
65.0400 761.0000 1.0000
65.0500 753.0000 1.0000
65.0600 767.0000 1.0000
65.0700 765.0000 1.0000
65.0800 758.0000 1.0000
65.0900 706.0000 1.0000
65.1000 765.0000 1.0000
65.1100 751.0000 1.0000
65.1200 761.0000 1.0000
65.1300 792.0000 1.0000
65.1400 758.0000 1.0000
65.1500 751.0000 1.0000
65.1600 801.0000 1.0000
65.1700 711.0000 1.0000
65.1800 794.0000 1.0000
65.1900 735.0000 1.0000
65.2000 765.0000 1.0000
65.2100 718.0000 1.0000
65.2200 757.0000 1.0000
65.2300 762.0000 1.0000
65.2400 707.0000 1.0000
65.2500 736.0000 1.0000
65.2600 715.0000 1.0000
65.2700 738.0000 1.0000
65.2800 731.0000 1.0000
65.2900 697.0000 1.0000
65.3000 732.0000 1.0000
65.3100 679.0000 1.0000
65.3200 750.0000 1.0000
65.3300 732.0000 1.0000
65.3400 757.0000 1.0000
65.3500 702.0000 1.0000
65.3600 725.0000 1.0000
65.3700 746.0000 1.0000
65.3800 747.0000 1.0000
65.3900 696.0000 1.0000
65.4000 709.0000 1.0000
65.4100 754.0000 1.0000
65.4200 725.0000 1.0000
65.4300 768.0000 1.0000
65.4400 720.0000 1.0000
65.4500 728.0000 1.0000
65.4600 747.0000 1.0000
65.4700 751.0000 1.0000
65.4800 766.0000 1.0000
65.4900 700.0000 1.0000
65.5000 789.0000 1.0000
65.5100 730.0000 1.0000
65.5200 723.0000 1.0000
65.5300 738.0000 1.0000
65.5400 688.0000 1.0000
65.5500 718.0000 1.0000
65.5600 753.0000 1.0000
65.5700 764.0000 1.0000
65.5800 730.0000 1.0000
65.5900 728.0000 1.0000
65.6000 767.0000 1.0000
65.6100 808.0000 1.0000
65.6200 734.0000 1.0000
65.6300 734.0000 1.0000
65.6400 748.0000 1.0000
65.6500 795.0000 1.0000
65.6600 792.0000 1.0000
65.6700 760.0000 1.0000
65.6800 813.0000 1.0000
65.6900 760.0000 1.0000
65.7000 786.0000 1.0000
65.7100 753.0000 1.0000
65.7200 754.0000 1.0000
65.7300 790.0000 1.0000
65.7400 808.0000 1.0000
65.7500 755.0000 1.0000
65.7600 778.0000 1.0000
65.7700 795.0000 1.0000
65.7800 823.0000 1.0000
65.7900 811.0000 1.0000
65.8000 819.0000 1.0000
65.8100 784.0000 1.0000
65.8200 838.0000 1.0000
65.8300 866.0000 1.0000
65.8400 817.0000 1.0000
65.8500 812.0000 1.0000
65.8600 831.0000 1.0000
65.8700 852.0000 1.0000
65.8800 827.0000 1.0000
65.8900 788.0000 1.0000
65.9000 876.0000 1.0000
65.9100 947.0000 1.0000
65.9200 941.0000 1.0000
65.9300 930.0000 1.0000
65.9400 925.0000 1.0000
65.9500 984.0000 1.0000
65.9600 972.0000 1.0000
65.9700 980.0000 1.0000
65.9800 993.0000 1.0000
65.9900 988.0000 1.0000
66.0000 1037.0000 1.0000
66.0100 1059.0000 1.0000
66.0200 1104.0000 1.0000
66.0300 1096.0000 1.0000
66.0400 1128.0000 1.0000
66.0500 1191.0000 1.0000
66.0600 1252.0000 1.0000
66.0700 1263.0000 1.0000
66.0800 1319.0000 1.0000
66.0900 1359.0000 1.0000
66.1000 1415.0000 1.0000
66.1100 1504.0000 1.0000
66.1200 1584.0000 1.0000
66.1300 1609.0000 1.0000
66.1400 1728.0000 1.0000
66.1500 1826.0000 1.0000
66.1600 1868.0000 1.0000
66.1700 2022.0000 1.0000
66.1800 2161.0000 1.0000
66.1900 2268.0000 1.0000
66.2000 2341.0000 1.0000
66.2100 2390.0000 1.0000
66.2200 2441.0000 1.0000
66.2300 2620.0000 1.0000
66.2400 2678.0000 1.0000
66.2500 2693.0000 1.0000
66.2600 2766.0000 1.0000
66.2700 2827.0000 1.0000
66.2800 2811.0000 1.0000
66.2900 2762.0000 1.0000
66.3000 2807.0000 1.0000
66.3100 2746.0000 1.0000
66.3200 2696.0000 1.0000
66.3300 2601.0000 1.0000
66.3400 2567.0000 1.0000
66.3500 2532.0000 1.0000
66.3600 2610.0000 1.0000
66.3700 2451.0000 1.0000
66.3800 2432.0000 1.0000
66.3900 2404.0000 1.0000
66.4000 2350.0000 1.0000
66.4100 2343.0000 1.0000
66.4200 2336.0000 1.0000
66.4300 2334.0000 1.0000
66.4400 2250.0000 1.0000
66.4500 2254.0000 1.0000
66.4600 2219.0000 1.0000
66.4700 2105.0000 1.0000
66.4800 2015.0000 1.0000
66.4900 1961.0000 1.0000
66.5000 1890.0000 1.0000
66.5100 1823.0000 1.0000
66.5200 1811.0000 1.0000
66.5300 1696.0000 1.0000
66.5400 1627.0000 1.0000
66.5500 1523.0000 1.0000
66.5600 1465.0000 1.0000
66.5700 1372.0000 1.0000
66.5800 1438.0000 1.0000
66.5900 1316.0000 1.0000
66.6000 1319.0000 1.0000
66.6100 1288.0000 1.0000
66.6200 1272.0000 1.0000
66.6300 1240.0000 1.0000
66.6400 1139.0000 1.0000
66.6500 1147.0000 1.0000
66.6600 1147.0000 1.0000
66.6700 1094.0000 1.0000
66.6800 1057.0000 1.0000
66.6900 1010.0000 1.0000
66.7000 927.0000 1.0000
66.7100 998.0000 1.0000
66.7200 965.0000 1.0000
66.7300 958.0000 1.0000
66.7400 901.0000 1.0000
66.7500 885.0000 1.0000
66.7600 875.0000 1.0000
66.7700 891.0000 1.0000
66.7800 876.0000 1.0000
66.7900 879.0000 1.0000
66.8000 827.0000 1.0000
66.8100 833.0000 1.0000
66.8200 840.0000 1.0000
66.8300 823.0000 1.0000
66.8400 815.0000 1.0000
66.8500 798.0000 1.0000
66.8600 778.0000 1.0000
66.8700 761.0000 1.0000
66.8800 765.0000 1.0000
66.8900 837.0000 1.0000
66.9000 772.0000 1.0000
66.9100 792.0000 1.0000
66.9200 802.0000 1.0000
66.9300 826.0000 1.0000
66.9400 764.0000 1.0000
66.9500 745.0000 1.0000
66.9600 711.0000 1.0000
66.9700 765.0000 1.0000
66.9800 692.0000 1.0000
66.9900 736.0000 1.0000
67.0000 706.0000 1.0000
67.0100 758.0000 1.0000
67.0200 679.0000 1.0000
67.0300 726.0000 1.0000
67.0400 720.0000 1.0000
67.0500 723.0000 1.0000
67.0600 730.0000 1.0000
67.0700 699.0000 1.0000
67.0800 778.0000 1.0000
67.0900 690.0000 1.0000
67.1000 707.0000 1.0000
67.1100 718.0000 1.0000
67.1200 699.0000 1.0000
67.1300 662.0000 1.0000
67.1400 695.0000 1.0000
67.1500 675.0000 1.0000
67.1600 705.0000 1.0000
67.1700 687.0000 1.0000
67.1800 665.0000 1.0000
67.1900 737.0000 1.0000
67.2000 681.0000 1.0000
67.2100 661.0000 1.0000
67.2200 679.0000 1.0000
67.2300 681.0000 1.0000
67.2400 668.0000 1.0000
67.2500 684.0000 1.0000
67.2600 704.0000 1.0000
67.2700 701.0000 1.0000
67.2800 700.0000 1.0000
67.2900 678.0000 1.0000
67.3000 678.0000 1.0000
67.3100 694.0000 1.0000
67.3200 647.0000 1.0000
67.3300 688.0000 1.0000
67.3400 663.0000 1.0000
67.3500 725.0000 1.0000
67.3600 670.0000 1.0000
67.3700 706.0000 1.0000
67.3800 685.0000 1.0000
67.3900 674.0000 1.0000
67.4000 654.0000 1.0000
67.4100 704.0000 1.0000
67.4200 645.0000 1.0000
67.4300 665.0000 1.0000
67.4400 664.0000 1.0000
67.4500 659.0000 1.0000
67.4600 667.0000 1.0000
67.4700 684.0000 1.0000
67.4800 648.0000 1.0000
67.4900 667.0000 1.0000
67.5000 627.0000 1.0000
67.5100 669.0000 1.0000
67.5200 701.0000 1.0000
67.5300 688.0000 1.0000
67.5400 645.0000 1.0000
67.5500 659.0000 1.0000
67.5600 702.0000 1.0000
67.5700 681.0000 1.0000
67.5800 660.0000 1.0000
67.5900 641.0000 1.0000
67.6000 636.0000 1.0000
67.6100 667.0000 1.0000
67.6200 664.0000 1.0000
67.6300 655.0000 1.0000
67.6400 650.0000 1.0000
67.6500 652.0000 1.0000
67.6600 684.0000 1.0000
67.6700 668.0000 1.0000
67.6800 700.0000 1.0000
67.6900 681.0000 1.0000
67.7000 652.0000 1.0000
67.7100 669.0000 1.0000
67.7200 668.0000 1.0000
67.7300 655.0000 1.0000
67.7400 656.0000 1.0000
67.7500 660.0000 1.0000
67.7600 681.0000 1.0000
67.7700 616.0000 1.0000
67.7800 668.0000 1.0000
67.7900 650.0000 1.0000
67.8000 641.0000 1.0000
67.8100 673.0000 1.0000
67.8200 601.0000 1.0000
67.8300 653.0000 1.0000
67.8400 692.0000 1.0000
67.8500 644.0000 1.0000
67.8600 662.0000 1.0000
67.8700 634.0000 1.0000
67.8800 634.0000 1.0000
67.8900 637.0000 1.0000
67.9000 659.0000 1.0000
67.9100 670.0000 1.0000
67.9200 632.0000 1.0000
67.9300 637.0000 1.0000
67.9400 631.0000 1.0000
67.9500 640.0000 1.0000
67.9600 641.0000 1.0000
67.9700 664.0000 1.0000
67.9800 660.0000 1.0000
67.9900 615.0000 1.0000
68.0000 666.0000 1.0000
68.0100 650.0000 1.0000
68.0200 633.0000 1.0000
68.0300 614.0000 1.0000
68.0400 679.0000 1.0000
68.0500 672.0000 1.0000
68.0600 625.0000 1.0000
68.0700 651.0000 1.0000
68.0800 639.0000 1.0000
68.0900 616.0000 1.0000
68.1000 655.0000 1.0000
68.1100 680.0000 1.0000
68.1200 678.0000 1.0000
68.1300 687.0000 1.0000
68.1400 671.0000 1.0000
68.1500 643.0000 1.0000
68.1600 634.0000 1.0000
68.1700 613.0000 1.0000
68.1800 626.0000 1.0000
68.1900 656.0000 1.0000
68.2000 615.0000 1.0000
68.2100 623.0000 1.0000
68.2200 626.0000 1.0000
68.2300 658.0000 1.0000
68.2400 638.0000 1.0000
68.2500 666.0000 1.0000
68.2600 693.0000 1.0000
68.2700 654.0000 1.0000
68.2800 643.0000 1.0000
68.2900 631.0000 1.0000
68.3000 684.0000 1.0000
68.3100 621.0000 1.0000
68.3200 660.0000 1.0000
68.3300 649.0000 1.0000
68.3400 675.0000 1.0000
68.3500 626.0000 1.0000
68.3600 616.0000 1.0000
68.3700 636.0000 1.0000
68.3800 669.0000 1.0000
68.3900 598.0000 1.0000
68.4000 638.0000 1.0000
68.4100 653.0000 1.0000
68.4200 630.0000 1.0000
68.4300 578.0000 1.0000
68.4400 638.0000 1.0000
68.4500 651.0000 1.0000
68.4600 655.0000 1.0000
68.4700 629.0000 1.0000
68.4800 615.0000 1.0000
68.4900 634.0000 1.0000
68.5000 657.0000 1.0000
68.5100 647.0000 1.0000
68.5200 592.0000 1.0000
68.5300 635.0000 1.0000
68.5400 670.0000 1.0000
68.5500 629.0000 1.0000
68.5600 665.0000 1.0000
68.5700 661.0000 1.0000
68.5800 658.0000 1.0000
68.5900 623.0000 1.0000
68.6000 611.0000 1.0000
68.6100 619.0000 1.0000
68.6200 633.0000 1.0000
68.6300 662.0000 1.0000
68.6400 616.0000 1.0000
68.6500 655.0000 1.0000
68.6600 648.0000 1.0000
68.6700 644.0000 1.0000
68.6800 599.0000 1.0000
68.6900 644.0000 1.0000
68.7000 632.0000 1.0000
68.7100 654.0000 1.0000
68.7200 640.0000 1.0000
68.7300 638.0000 1.0000
68.7400 618.0000 1.0000
68.7500 658.0000 1.0000
68.7600 611.0000 1.0000
68.7700 625.0000 1.0000
68.7800 612.0000 1.0000
68.7900 624.0000 1.0000
68.8000 643.0000 1.0000
68.8100 616.0000 1.0000
68.8200 648.0000 1.0000
68.8300 626.0000 1.0000
68.8400 614.0000 1.0000
68.8500 670.0000 1.0000
68.8600 646.0000 1.0000
68.8700 599.0000 1.0000
68.8800 607.0000 1.0000
68.8900 632.0000 1.0000
68.9000 649.0000 1.0000
68.9100 642.0000 1.0000
68.9200 656.0000 1.0000
68.9300 623.0000 1.0000
68.9400 626.0000 1.0000
68.9500 613.0000 1.0000
68.9600 656.0000 1.0000
68.9700 598.0000 1.0000
68.9800 632.0000 1.0000
68.9900 646.0000 1.0000
69.0000 604.0000 1.0000
69.0100 592.0000 1.0000
69.0200 633.0000 1.0000
69.0300 632.0000 1.0000
69.0400 601.0000 1.0000
69.0500 599.0000 1.0000
69.0600 623.0000 1.0000
69.0700 615.0000 1.0000
69.0800 626.0000 1.0000
69.0900 633.0000 1.0000
69.1000 633.0000 1.0000
69.1100 608.0000 1.0000
69.1200 663.0000 1.0000
69.1300 660.0000 1.0000
69.1400 620.0000 1.0000
69.1500 617.0000 1.0000
69.1600 601.0000 1.0000
69.1700 610.0000 1.0000
69.1800 641.0000 1.0000
69.1900 629.0000 1.0000
69.2000 633.0000 1.0000
69.2100 610.0000 1.0000
69.2200 594.0000 1.0000
69.2300 618.0000 1.0000
69.2400 613.0000 1.0000
69.2500 645.0000 1.0000
69.2600 610.0000 1.0000
69.2700 593.0000 1.0000
69.2800 626.0000 1.0000
69.2900 634.0000 1.0000
69.3000 597.0000 1.0000
69.3100 561.0000 1.0000
69.3200 626.0000 1.0000
69.3300 647.0000 1.0000
69.3400 598.0000 1.0000
69.3500 650.0000 1.0000
69.3600 640.0000 1.0000
69.3700 630.0000 1.0000
69.3800 617.0000 1.0000
69.3900 618.0000 1.0000
69.4000 644.0000 1.0000
69.4100 624.0000 1.0000
69.4200 663.0000 1.0000
69.4300 622.0000 1.0000
69.4400 635.0000 1.0000
69.4500 676.0000 1.0000
69.4600 622.0000 1.0000
69.4700 641.0000 1.0000
69.4800 667.0000 1.0000
69.4900 628.0000 1.0000
69.5000 586.0000 1.0000
69.5100 631.0000 1.0000
69.5200 601.0000 1.0000
69.5300 632.0000 1.0000
69.5400 639.0000 1.0000
69.5500 635.0000 1.0000
69.5600 641.0000 1.0000
69.5700 641.0000 1.0000
69.5800 677.0000 1.0000
69.5900 646.0000 1.0000
69.6000 660.0000 1.0000
69.6100 625.0000 1.0000
69.6200 593.0000 1.0000
69.6300 637.0000 1.0000
69.6400 624.0000 1.0000
69.6500 598.0000 1.0000
69.6600 600.0000 1.0000
69.6700 627.0000 1.0000
69.6800 635.0000 1.0000
69.6900 591.0000 1.0000
69.7000 611.0000 1.0000
69.7100 621.0000 1.0000
69.7200 611.0000 1.0000
69.7300 632.0000 1.0000
69.7400 603.0000 1.0000
69.7500 623.0000 1.0000
69.7600 622.0000 1.0000
69.7700 593.0000 1.0000
69.7800 632.0000 1.0000
69.7900 644.0000 1.0000
69.8000 631.0000 1.0000
69.8100 593.0000 1.0000
69.8200 586.0000 1.0000
69.8300 579.0000 1.0000
69.8400 610.0000 1.0000
69.8500 631.0000 1.0000
69.8600 599.0000 1.0000
69.8700 576.0000 1.0000
69.8800 608.0000 1.0000
69.8900 562.0000 1.0000
69.9000 593.0000 1.0000
69.9100 617.0000 1.0000
69.9200 605.0000 1.0000
69.9300 610.0000 1.0000
69.9400 593.0000 1.0000
69.9500 600.0000 1.0000
69.9600 612.0000 1.0000
69.9700 607.0000 1.0000
69.9800 603.0000 1.0000
69.9900 605.0000 1.0000
70.0000 577.0000 1.0000
*RAS_INT_END
*RAS_TEMPERATURE_START
*RAS_TEMPERATURE_END
*RAS_DATA_END
