*RAS_DATA_START
*RAS_HEADER_START
*DISP_FMT_X "%.2f"
*DISP_FMT_Y "%.0f"
*DISP_FULLSCALE "16270.0000000000"
*DISP_LINE_COLOR "255.0000000000"
*DISP_LINE_STYLE "0.0000000000"
*DISP_LINE_WIDTH "0.2500000000"
*DISP_NOTE "測定データ-2"
*DISP_OFFSET_Y "0.0000000000"
*DISP_PEAKSEARCH_UNIT_Y "cps"
*DISP_RANGE_BOTTOM "0.0000000000"
*DISP_RANGE_LEFT "20.0000000000"
*DISP_RANGE_LOGCUTOFF "0.0100000000"
*DISP_RANGE_RIGHT "70.0000000000"
*DISP_RANGE_TOP "16270.0000000000"
*DISP_SCALE_MODE_Y "0.0000000000"
*DISP_TAB_NAME "2θ/θ"
*DISP_TITLE_Y "強度"
*DISP_UNIT_Y "cps"
*DISP_WINDOW_NAME "MSG_MACROENGINE"
*FILE_COMMENT " "
*FILE_MD5 ""
*FILE_MEMO " "
*FILE_OPERATOR "Administrator"
*FILE_SAMPLE " "
*FILE_TYPE "RAS_RAW"
*FILE_USERGROUP "システムマネージャ"
*FILE_VERSION "1.0000000000"
*HW_ATTACHMENT_ID "ATT0025"
*HW_ATTACHMENT_NAME "標準|Standard"
*HW_COUNTER_ID-0 "CUT0025"
*HW_COUNTER_ID-1 "CUT0020"
*HW_COUNTER_ID-2 "CUT0020"
*HW_COUNTER_ID-3 "CSL0021"
*HW_COUNTER_ID-4 "CMC0021"
*HW_COUNTER_NAME-0 "D/teX Ultra|D/teX Ultra"
*HW_COUNTER_NAME-1 "None|None"
*HW_COUNTER_NAME-2 "None|None"
*HW_COUNTER_NAME-3 "BBM|BBM"
*HW_COUNTER_NAME-4 "検出器モノクロメータ|Detector monochromator"
*HW_COUNTER_SELECT_NAME "D/teX Ultra|D/teX Ultra"
*HW_GONIOMETER_ID "GON0023"
*HW_GONIOMETER_NAME "SmartLab|SmartLab"
*HW_GONIOMETER_RADIUS-0 "90.0"
*HW_GONIOMETER_RADIUS-1 "114.0"
*HW_GONIOMETER_RADIUS-2 "190.0"
*HW_GONIOMETER_RADIUS-3 "300.0"
*HW_GONIOMETER_RADIUS-4 "187.0"
*HW_GONIOMETER_RADIUS-5 "300.0"
*HW_GONIOMETER_RADIUS-6 "113.0"
*HW_GONIOMETER_RADIUS-7 "331.0"
*HW_I_OPT_ID-0 "CBO0021"
*HW_I_OPT_ID-1 "ICR0023"
*HW_I_OPT_ID-2 "ISL0021"
*HW_I_OPT_ID-3 "ISO0021"
*HW_I_OPT_ID-4 "IAD0021"
*HW_I_OPT_ID-5 "IPR0001"
*HW_I_OPT_NAME-0 "CBOユニット|CBO unit"
*HW_I_OPT_NAME-1 "標準入射光学ユニット|Standard incident optical unit"
*HW_I_OPT_NAME-2 "標準入射スリットボックス|Standard incident slit box"
*HW_I_OPT_NAME-3 "入射平行スリット|Incident parallel slit"
*HW_I_OPT_NAME-4 "長手制限スリット|Length limiting slit"
*HW_I_OPT_NAME-5 "None|None"
*HW_R_ATTENUATER_AUTOMODE "0"
*HW_R_OPT_ID-0 "RSS0021"
*HW_R_OPT_ID-1 "RCR0023"
*HW_R_OPT_ID-2 "RSO0021"
*HW_R_OPT_ID-3 "RRS0021"
*HW_R_OPT_ID-4 "ATN0021"
*HW_R_OPT_ID-5 "RFL0021"
*HW_R_OPT_ID-6 "RAD0021"
*HW_R_OPT_NAME-0 "標準受光スリットボックス1|Standard receiving slit box # 1"
*HW_R_OPT_NAME-1 "標準受光光学ユニット1|Standard receiving unit # 1"
*HW_R_OPT_NAME-2 "標準受光光学ユニット2|Standard receiving optical unit # 2"
*HW_R_OPT_NAME-3 "標準受光スリットボックス2|Standard receiving slit box # 2"
*HW_R_OPT_NAME-4 "標準アッテネータ|Standard Attenuator"
*HW_R_OPT_NAME-5 "Cu Kβ|Cu K-beta"
*HW_R_OPT_NAME-6 "調整用受光スリット|Alignment receiving slit"
*HW_SAMPLE_HOLDER_ID "SMP0023"
*HW_SAMPLE_HOLDER_NAME "標準Zステージ|Standard Z stage"
*HW_XG_CURRENT_MAX "50"
*HW_XG_CURRENT_MIN "2"
*HW_XG_CURRENT_RESOLUTION "1"
*HW_XG_CURRENT_UNIT "mA"
*HW_XG_FOCUS "1mm x 10mm"
*HW_XG_FOCUS_TYPE "Normal"
*HW_XG_ID ""
*HW_XG_NAME "3kW 封入管(ID:1200)|3kW Sealed tube(ID:1200)"
*HW_XG_TARGET_ATOMIC_NUMBER "29.0000000000"
*HW_XG_TARGET_NAME "Cu"
*HW_XG_TYPE "Hermetic"
*HW_XG_VOLTAGE_MAX "60"
*HW_XG_VOLTAGE_MIN "20"
*HW_XG_VOLTAGE_RESOLUTION "1"
*HW_XG_VOLTAGE_UNIT "kV"
*HW_XG_WATT_MAX "1.500"
*HW_XG_WATT_UNIT "kW"
*HW_XG_WAVE_LENGTH_ALPHA1 "1.540593"
*HW_XG_WAVE_LENGTH_ALPHA2 "1.544414"
*HW_XG_WAVE_LENGTH_BETA "1.392250"
*MEAS_COND_AXIS_NAME-0 "2θ/θ"
*MEAS_COND_AXIS_NAME-1 "2θ"
*MEAS_COND_AXIS_NAME-2 "ω"
*MEAS_COND_AXIS_NAME-3 "Z"
*MEAS_COND_AXIS_NAME-4 "2θ/ω"
*MEAS_COND_AXIS_NAME-5 "θs"
*MEAS_COND_AXIS_NAME-6 "θd"
*MEAS_COND_AXIS_NAME-7 "Ts"
*MEAS_COND_AXIS_NAME-8 "CBO選択スリット"
*MEAS_COND_AXIS_NAME-9 "M"
*MEAS_COND_AXIS_NAME-10 "入射平行スリット"
*MEAS_COND_AXIS_NAME-11 "入射スリット"
*MEAS_COND_AXIS_NAME-12 ""
*MEAS_COND_AXIS_NAME-13 "Zs"
*MEAS_COND_AXIS_NAME-14 "入射光学素子"
*MEAS_COND_AXIS_NAME-15 "長手制限スリット"
*MEAS_COND_AXIS_NAME-16 "センタースリット"
*MEAS_COND_AXIS_NAME-17 "フィルター"
*MEAS_COND_AXIS_NAME-18 "受光スリット1"
*MEAS_COND_AXIS_NAME-19 "受光スリット2"
*MEAS_COND_AXIS_NAME-20 "受光光学素子"
*MEAS_COND_AXIS_NAME-21 "受光平行スリット"
*MEAS_COND_AXIS_NAME-22 "調整用受光スリット"
*MEAS_COND_AXIS_NAME-23 ""
*MEAS_COND_AXIS_NAME-24 ""
*MEAS_COND_AXIS_NAME-25 "Zd"
*MEAS_COND_AXIS_NAME-26 "アッテネータ"
*MEAS_COND_AXIS_NAME-27 "検出器モノクロメータ"
*MEAS_COND_AXIS_NAME-28 "モノクロメータスリット"
*MEAS_COND_AXIS_NAME-29 "プライマリビーム"
*MEAS_COND_AXIS_NAME-30 "PHA"
*MEAS_COND_AXIS_NAME_INTERNAL-0 "TwoThetaTheta"
*MEAS_COND_AXIS_NAME_INTERNAL-1 "TwoTheta"
*MEAS_COND_AXIS_NAME_INTERNAL-2 "Omega"
*MEAS_COND_AXIS_NAME_INTERNAL-3 "Z"
*MEAS_COND_AXIS_NAME_INTERNAL-4 "TwoThetaOmega"
*MEAS_COND_AXIS_NAME_INTERNAL-5 "ThetaS"
*MEAS_COND_AXIS_NAME_INTERNAL-6 "ThetaD"
*MEAS_COND_AXIS_NAME_INTERNAL-7 "Ts"
*MEAS_COND_AXIS_NAME_INTERNAL-8 "CBO"
*MEAS_COND_AXIS_NAME_INTERNAL-9 "CBO-M"
*MEAS_COND_AXIS_NAME_INTERNAL-10 "IncidentSollerSlit"
*MEAS_COND_AXIS_NAME_INTERNAL-11 "IncidentSlitBox"
*MEAS_COND_AXIS_NAME_INTERNAL-12 "IncidentSlitBox-_Axis"
*MEAS_COND_AXIS_NAME_INTERNAL-13 "Zs"
*MEAS_COND_AXIS_NAME_INTERNAL-14 "IncidentMonochromator"
*MEAS_COND_AXIS_NAME_INTERNAL-15 "IncidentAxdSlit"
*MEAS_COND_AXIS_NAME_INTERNAL-16 "CenterSlit"
*MEAS_COND_AXIS_NAME_INTERNAL-17 "Filter"
*MEAS_COND_AXIS_NAME_INTERNAL-18 "ReceivingSlitBox1"
*MEAS_COND_AXIS_NAME_INTERNAL-19 "ReceivingSlitBox2"
*MEAS_COND_AXIS_NAME_INTERNAL-20 "ReceivingOptics"
*MEAS_COND_AXIS_NAME_INTERNAL-21 "ReceivingSollerSlit"
*MEAS_COND_AXIS_NAME_INTERNAL-22 "ReceivingAxdSlit"
*MEAS_COND_AXIS_NAME_INTERNAL-23 "ReceivingSlitBox1-_Axis"
*MEAS_COND_AXIS_NAME_INTERNAL-24 "ReceivingSlitBox2-_Axis"
*MEAS_COND_AXIS_NAME_INTERNAL-25 "ReceivingSlitBox2-Zd"
*MEAS_COND_AXIS_NAME_INTERNAL-26 "Attenuator"
*MEAS_COND_AXIS_NAME_INTERNAL-27 "CounterMonochromator"
*MEAS_COND_AXIS_NAME_INTERNAL-28 "CounterSlit"
*MEAS_COND_AXIS_NAME_INTERNAL-29 "IncidentPrimary"
*MEAS_COND_AXIS_NAME_INTERNAL-30 "PHA"
*MEAS_COND_AXIS_NAME_MAGICNO-0 "83951616.0000000000"
*MEAS_COND_AXIS_NAME_MAGICNO-1 "268632064.0000000000"
*MEAS_COND_AXIS_NAME_MAGICNO-2 "268500992.0000000000"
*MEAS_COND_AXIS_NAME_MAGICNO-3 "285278208.0000000000"
*MEAS_COND_AXIS_NAME_MAGICNO-4 "83951616.0000000000"
*MEAS_COND_AXIS_NAME_MAGICNO-5 "131072.0000000000"
*MEAS_COND_AXIS_NAME_MAGICNO-6 "131072.0000000000"
*MEAS_COND_AXIS_NAME_MAGICNO-7 "318898176.0000000000"
*MEAS_COND_AXIS_NAME_MAGICNO-8 "20971521.0000000000"
*MEAS_COND_AXIS_NAME_MAGICNO-9 "285343744.0000000000"
*MEAS_COND_AXIS_NAME_MAGICNO-10 "20971521.0000000000"
*MEAS_COND_AXIS_NAME_MAGICNO-11 "22020097.0000000000"
*MEAS_COND_AXIS_NAME_MAGICNO-12 "25165824.0000000000"
*MEAS_COND_AXIS_NAME_MAGICNO-13 "318898176.0000000000"
*MEAS_COND_AXIS_NAME_MAGICNO-14 "1.0000000000"
*MEAS_COND_AXIS_NAME_MAGICNO-15 "20971521.0000000000"
*MEAS_COND_AXIS_NAME_MAGICNO-16 "20971521.0000000000"
*MEAS_COND_AXIS_NAME_MAGICNO-17 "20971521.0000000000"
*MEAS_COND_AXIS_NAME_MAGICNO-18 "23068673.0000000000"
*MEAS_COND_AXIS_NAME_MAGICNO-19 "23068673.0000000000"
*MEAS_COND_AXIS_NAME_MAGICNO-20 "20971521.0000000000"
*MEAS_COND_AXIS_NAME_MAGICNO-21 "20971521.0000000000"
*MEAS_COND_AXIS_NAME_MAGICNO-22 "20971521.0000000000"
*MEAS_COND_AXIS_NAME_MAGICNO-23 "25165824.0000000000"
*MEAS_COND_AXIS_NAME_MAGICNO-24 "25165824.0000000000"
*MEAS_COND_AXIS_NAME_MAGICNO-25 "285343744.0000000000"
*MEAS_COND_AXIS_NAME_MAGICNO-26 "17301505.0000000000"
*MEAS_COND_AXIS_NAME_MAGICNO-27 "20971521.0000000000"
*MEAS_COND_AXIS_NAME_MAGICNO-28 "20971521.0000000000"
*MEAS_COND_AXIS_NAME_MAGICNO-29 "20971521.0000000000"
*MEAS_COND_AXIS_NAME_MAGICNO-30 "0.0000000000"
*MEAS_COND_AXIS_OFFSET-0 "-"
*MEAS_COND_AXIS_OFFSET-1 "-0.1081000000"
*MEAS_COND_AXIS_OFFSET-2 "0.3758000000"
*MEAS_COND_AXIS_OFFSET-3 "-"
*MEAS_COND_AXIS_OFFSET-4 "-"
*MEAS_COND_AXIS_OFFSET-5 "0.3758000000"
*MEAS_COND_AXIS_OFFSET-6 "-0.4839000000"
*MEAS_COND_AXIS_OFFSET-7 "-"
*MEAS_COND_AXIS_OFFSET-8 "-"
*MEAS_COND_AXIS_OFFSET-9 "-"
*MEAS_COND_AXIS_OFFSET-10 "-"
*MEAS_COND_AXIS_OFFSET-11 "-"
*MEAS_COND_AXIS_OFFSET-12 "-"
*MEAS_COND_AXIS_OFFSET-13 "-"
*MEAS_COND_AXIS_OFFSET-14 "-"
*MEAS_COND_AXIS_OFFSET-15 "-"
*MEAS_COND_AXIS_OFFSET-16 "-"
*MEAS_COND_AXIS_OFFSET-17 "-"
*MEAS_COND_AXIS_OFFSET-18 "-"
*MEAS_COND_AXIS_OFFSET-19 "-"
*MEAS_COND_AXIS_OFFSET-20 "-"
*MEAS_COND_AXIS_OFFSET-21 "-"
*MEAS_COND_AXIS_OFFSET-22 "-"
*MEAS_COND_AXIS_OFFSET-23 "-"
*MEAS_COND_AXIS_OFFSET-24 "-"
*MEAS_COND_AXIS_OFFSET-25 "-"
*MEAS_COND_AXIS_OFFSET-26 "-"
*MEAS_COND_AXIS_OFFSET-27 "-"
*MEAS_COND_AXIS_OFFSET-28 "-"
*MEAS_COND_AXIS_OFFSET-29 "-"
*MEAS_COND_AXIS_OFFSET-30 "-"
*MEAS_COND_AXIS_POSITION-0 "0.0000000000"
*MEAS_COND_AXIS_POSITION-1 "0.0000000000"
*MEAS_COND_AXIS_POSITION-2 "0.0000000000"
*MEAS_COND_AXIS_POSITION-3 "-0.5500000000"
*MEAS_COND_AXIS_POSITION-4 "0.0000000000"
*MEAS_COND_AXIS_POSITION-5 "0.0000000000"
*MEAS_COND_AXIS_POSITION-6 "0.0000000000"
*MEAS_COND_AXIS_POSITION-7 "-0.4278800000"
*MEAS_COND_AXIS_POSITION-8 "BB"
*MEAS_COND_AXIS_POSITION-9 "0.0000000000"
*MEAS_COND_AXIS_POSITION-10 "Soller_slit_5.0deg"
*MEAS_COND_AXIS_POSITION-11 "2/3deg"
*MEAS_COND_AXIS_POSITION-12 "2.2088000000"
*MEAS_COND_AXIS_POSITION-13 "-0.4140600000"
*MEAS_COND_AXIS_POSITION-14 "0.0000000000"
*MEAS_COND_AXIS_POSITION-15 "10.0mm"
*MEAS_COND_AXIS_POSITION-16 "None"
*MEAS_COND_AXIS_POSITION-17 "Cu_K-beta"
*MEAS_COND_AXIS_POSITION-18 "13.000mm"
*MEAS_COND_AXIS_POSITION-19 "13.000mm"
*MEAS_COND_AXIS_POSITION-20 "No_unit"
*MEAS_COND_AXIS_POSITION-21 "Soller_slit_5.0deg"
*MEAS_COND_AXIS_POSITION-22 "None"
*MEAS_COND_AXIS_POSITION-23 "13.0000000000"
*MEAS_COND_AXIS_POSITION-24 "13.0000000000"
*MEAS_COND_AXIS_POSITION-25 "0.0109400000"
*MEAS_COND_AXIS_POSITION-26 "Open"
*MEAS_COND_AXIS_POSITION-27 "None"
*MEAS_COND_AXIS_POSITION-28 "None"
*MEAS_COND_AXIS_POSITION-29 "None"
*MEAS_COND_AXIS_POSITION-30 "38.0000000000"
*MEAS_COND_AXIS_UNIT-0 "deg"
*MEAS_COND_AXIS_UNIT-1 "deg"
*MEAS_COND_AXIS_UNIT-2 "deg"
*MEAS_COND_AXIS_UNIT-3 "mm"
*MEAS_COND_AXIS_UNIT-4 "deg"
*MEAS_COND_AXIS_UNIT-5 "deg"
*MEAS_COND_AXIS_UNIT-6 "deg"
*MEAS_COND_AXIS_UNIT-7 "mm"
*MEAS_COND_AXIS_UNIT-8 ""
*MEAS_COND_AXIS_UNIT-9 "pulse"
*MEAS_COND_AXIS_UNIT-10 ""
*MEAS_COND_AXIS_UNIT-11 ""
*MEAS_COND_AXIS_UNIT-12 "mm"
*MEAS_COND_AXIS_UNIT-13 "mm"
*MEAS_COND_AXIS_UNIT-14 ""
*MEAS_COND_AXIS_UNIT-15 ""
*MEAS_COND_AXIS_UNIT-16 ""
*MEAS_COND_AXIS_UNIT-17 ""
*MEAS_COND_AXIS_UNIT-18 ""
*MEAS_COND_AXIS_UNIT-19 ""
*MEAS_COND_AXIS_UNIT-20 ""
*MEAS_COND_AXIS_UNIT-21 ""
*MEAS_COND_AXIS_UNIT-22 ""
*MEAS_COND_AXIS_UNIT-23 "mm"
*MEAS_COND_AXIS_UNIT-24 "mm"
*MEAS_COND_AXIS_UNIT-25 "mm"
*MEAS_COND_AXIS_UNIT-26 ""
*MEAS_COND_AXIS_UNIT-27 ""
*MEAS_COND_AXIS_UNIT-28 ""
*MEAS_COND_AXIS_UNIT-29 ""
*MEAS_COND_AXIS_UNIT-30 "div"
*MEAS_COND_COUNTER_CNTLOSS_CORR "0.0000000000"
*MEAS_COND_COUNTER_PHABASE "38.0000000000"
*MEAS_COND_COUNTER_PHAWINDOW "16.0000000000"
*MEAS_COND_COUNTER_PHA_UNIT "div"
*MEAS_COND_COUNTER_TAUDIFF "30.0000000000"
*MEAS_COND_COUNTER_TAUINT "0.0000000000"
*MEAS_COND_IRRADIATION_MODE "OFF"
*MEAS_COND_IRRADIATION_WIDTH ""
*MEAS_COND_OPT_ATTR "集中法"
*MEAS_COND_OPT_NAME "@集中法"
*MEAS_COND_UNSYMMETRIC_MODE "OFF"
*MEAS_COND_XG_CURRENT "30.0000000000"
*MEAS_COND_XG_VOLTAGE "40.0000000000"
*MEAS_COND_XG_WAVE_TYPE "Ka"
*MEAS_DATA_COUNT "5001.0000000000"
*MEAS_SCAN_AXIS_X "2θ/θ"
*MEAS_SCAN_AXIS_X_INTERNAL "TwoThetaTheta"
*MEAS_SCAN_END_TIME "07/06/21 13:15:35"
*MEAS_SCAN_MODE "CONTINUOUS"
*MEAS_SCAN_MONITOR "0"
*MEAS_SCAN_RESOLUTION_X "0.0002"
*MEAS_SCAN_SPEED "1.0"
*MEAS_SCAN_SPEED_UNIT "deg/min"
*MEAS_SCAN_START "20.0000000000"
*MEAS_SCAN_START_TIME "07/06/21 12:22:42"
*MEAS_SCAN_STEP "0.0100000000"
*MEAS_SCAN_STOP "70.0000000000"
*MEAS_SCAN_UNIT_X "deg"
*MEAS_SCAN_UNIT_Y "counts"
*RAS_HEADER_END
*RAS_INT_START
20.0000 1626.0000 1.0000
20.0100 1583.0000 1.0000
20.0200 1609.0000 1.0000
20.0300 1599.0000 1.0000
20.0400 1574.0000 1.0000
20.0500 1594.0000 1.0000
20.0600 1584.0000 1.0000
20.0700 1591.0000 1.0000
20.0800 1633.0000 1.0000
20.0900 1675.0000 1.0000
20.1000 1638.0000 1.0000
20.1100 1564.0000 1.0000
20.1200 1572.0000 1.0000
20.1300 1659.0000 1.0000
20.1400 1662.0000 1.0000
20.1500 1567.0000 1.0000
20.1600 1562.0000 1.0000
20.1700 1555.0000 1.0000
20.1800 1590.0000 1.0000
20.1900 1607.0000 1.0000
20.2000 1659.0000 1.0000
20.2100 1631.0000 1.0000
20.2200 1546.0000 1.0000
20.2300 1594.0000 1.0000
20.2400 1577.0000 1.0000
20.2500 1617.0000 1.0000
20.2600 1598.0000 1.0000
20.2700 1583.0000 1.0000
20.2800 1556.0000 1.0000
20.2900 1535.0000 1.0000
20.3000 1590.0000 1.0000
20.3100 1567.0000 1.0000
20.3200 1545.0000 1.0000
20.3300 1570.0000 1.0000
20.3400 1603.0000 1.0000
20.3500 1532.0000 1.0000
20.3600 1527.0000 1.0000
20.3700 1598.0000 1.0000
20.3800 1600.0000 1.0000
20.3900 1629.0000 1.0000
20.4000 1602.0000 1.0000
20.4100 1531.0000 1.0000
20.4200 1593.0000 1.0000
20.4300 1601.0000 1.0000
20.4400 1579.0000 1.0000
20.4500 1584.0000 1.0000
20.4600 1601.0000 1.0000
20.4700 1630.0000 1.0000
20.4800 1560.0000 1.0000
20.4900 1598.0000 1.0000
20.5000 1605.0000 1.0000
20.5100 1642.0000 1.0000
20.5200 1626.0000 1.0000
20.5300 1598.0000 1.0000
20.5400 1611.0000 1.0000
20.5500 1648.0000 1.0000
20.5600 1573.0000 1.0000
20.5700 1633.0000 1.0000
20.5800 1620.0000 1.0000
20.5900 1627.0000 1.0000
20.6000 1619.0000 1.0000
20.6100 1585.0000 1.0000
20.6200 1571.0000 1.0000
20.6300 1583.0000 1.0000
20.6400 1590.0000 1.0000
20.6500 1617.0000 1.0000
20.6600 1568.0000 1.0000
20.6700 1574.0000 1.0000
20.6800 1536.0000 1.0000
20.6900 1539.0000 1.0000
20.7000 1544.0000 1.0000
20.7100 1499.0000 1.0000
20.7200 1596.0000 1.0000
20.7300 1553.0000 1.0000
20.7400 1507.0000 1.0000
20.7500 1588.0000 1.0000
20.7600 1634.0000 1.0000
20.7700 1645.0000 1.0000
20.7800 1609.0000 1.0000
20.7900 1639.0000 1.0000
20.8000 1553.0000 1.0000
20.8100 1562.0000 1.0000
20.8200 1600.0000 1.0000
20.8300 1571.0000 1.0000
20.8400 1552.0000 1.0000
20.8500 1537.0000 1.0000
20.8600 1553.0000 1.0000
20.8700 1588.0000 1.0000
20.8800 1610.0000 1.0000
20.8900 1614.0000 1.0000
20.9000 1600.0000 1.0000
20.9100 1576.0000 1.0000
20.9200 1658.0000 1.0000
20.9300 1650.0000 1.0000
20.9400 1567.0000 1.0000
20.9500 1592.0000 1.0000
20.9600 1581.0000 1.0000
20.9700 1562.0000 1.0000
20.9800 1561.0000 1.0000
20.9900 1655.0000 1.0000
21.0000 1622.0000 1.0000
21.0100 1614.0000 1.0000
21.0200 1624.0000 1.0000
21.0300 1585.0000 1.0000
21.0400 1596.0000 1.0000
21.0500 1589.0000 1.0000
21.0600 1572.0000 1.0000
21.0700 1603.0000 1.0000
21.0800 1642.0000 1.0000
21.0900 1587.0000 1.0000
21.1000 1557.0000 1.0000
21.1100 1557.0000 1.0000
21.1200 1554.0000 1.0000
21.1300 1631.0000 1.0000
21.1400 1600.0000 1.0000
21.1500 1583.0000 1.0000
21.1600 1483.0000 1.0000
21.1700 1518.0000 1.0000
21.1800 1547.0000 1.0000
21.1900 1564.0000 1.0000
21.2000 1607.0000 1.0000
21.2100 1575.0000 1.0000
21.2200 1556.0000 1.0000
21.2300 1580.0000 1.0000
21.2400 1621.0000 1.0000
21.2500 1570.0000 1.0000
21.2600 1567.0000 1.0000
21.2700 1562.0000 1.0000
21.2800 1604.0000 1.0000
21.2900 1559.0000 1.0000
21.3000 1597.0000 1.0000
21.3100 1545.0000 1.0000
21.3200 1577.0000 1.0000
21.3300 1581.0000 1.0000
21.3400 1595.0000 1.0000
21.3500 1584.0000 1.0000
21.3600 1519.0000 1.0000
21.3700 1563.0000 1.0000
21.3800 1545.0000 1.0000
21.3900 1602.0000 1.0000
21.4000 1587.0000 1.0000
21.4100 1537.0000 1.0000
21.4200 1569.0000 1.0000
21.4300 1577.0000 1.0000
21.4400 1609.0000 1.0000
21.4500 1557.0000 1.0000
21.4600 1523.0000 1.0000
21.4700 1611.0000 1.0000
21.4800 1590.0000 1.0000
21.4900 1587.0000 1.0000
21.5000 1590.0000 1.0000
21.5100 1598.0000 1.0000
21.5200 1561.0000 1.0000
21.5300 1558.0000 1.0000
21.5400 1602.0000 1.0000
21.5500 1551.0000 1.0000
21.5600 1608.0000 1.0000
21.5700 1545.0000 1.0000
21.5800 1597.0000 1.0000
21.5900 1613.0000 1.0000
21.6000 1611.0000 1.0000
21.6100 1580.0000 1.0000
21.6200 1567.0000 1.0000
21.6300 1639.0000 1.0000
21.6400 1622.0000 1.0000
21.6500 1541.0000 1.0000
21.6600 1581.0000 1.0000
21.6700 1621.0000 1.0000
21.6800 1585.0000 1.0000
21.6900 1618.0000 1.0000
21.7000 1573.0000 1.0000
21.7100 1603.0000 1.0000
21.7200 1577.0000 1.0000
21.7300 1545.0000 1.0000
21.7400 1561.0000 1.0000
21.7500 1558.0000 1.0000
21.7600 1579.0000 1.0000
21.7700 1548.0000 1.0000
21.7800 1567.0000 1.0000
21.7900 1553.0000 1.0000
21.8000 1607.0000 1.0000
21.8100 1517.0000 1.0000
21.8200 1667.0000 1.0000
21.8300 1589.0000 1.0000
21.8400 1570.0000 1.0000
21.8500 1630.0000 1.0000
21.8600 1618.0000 1.0000
21.8700 1681.0000 1.0000
21.8800 1636.0000 1.0000
21.8900 1528.0000 1.0000
21.9000 1613.0000 1.0000
21.9100 1531.0000 1.0000
21.9200 1512.0000 1.0000
21.9300 1618.0000 1.0000
21.9400 1553.0000 1.0000
21.9500 1592.0000 1.0000
21.9600 1647.0000 1.0000
21.9700 1624.0000 1.0000
21.9800 1562.0000 1.0000
21.9900 1617.0000 1.0000
22.0000 1593.0000 1.0000
22.0100 1631.0000 1.0000
22.0200 1602.0000 1.0000
22.0300 1585.0000 1.0000
22.0400 1532.0000 1.0000
22.0500 1620.0000 1.0000
22.0600 1603.0000 1.0000
22.0700 1569.0000 1.0000
22.0800 1600.0000 1.0000
22.0900 1660.0000 1.0000
22.1000 1616.0000 1.0000
22.1100 1639.0000 1.0000
22.1200 1563.0000 1.0000
22.1300 1530.0000 1.0000
22.1400 1606.0000 1.0000
22.1500 1559.0000 1.0000
22.1600 1592.0000 1.0000
22.1700 1605.0000 1.0000
22.1800 1577.0000 1.0000
22.1900 1608.0000 1.0000
22.2000 1585.0000 1.0000
22.2100 1525.0000 1.0000
22.2200 1578.0000 1.0000
22.2300 1607.0000 1.0000
22.2400 1580.0000 1.0000
22.2500 1515.0000 1.0000
22.2600 1627.0000 1.0000
22.2700 1575.0000 1.0000
22.2800 1517.0000 1.0000
22.2900 1587.0000 1.0000
22.3000 1623.0000 1.0000
22.3100 1531.0000 1.0000
22.3200 1520.0000 1.0000
22.3300 1619.0000 1.0000
22.3400 1532.0000 1.0000
22.3500 1555.0000 1.0000
22.3600 1653.0000 1.0000
22.3700 1554.0000 1.0000
22.3800 1554.0000 1.0000
22.3900 1628.0000 1.0000
22.4000 1655.0000 1.0000
22.4100 1600.0000 1.0000
22.4200 1647.0000 1.0000
22.4300 1587.0000 1.0000
22.4400 1593.0000 1.0000
22.4500 1586.0000 1.0000
22.4600 1603.0000 1.0000
22.4700 1609.0000 1.0000
22.4800 1635.0000 1.0000
22.4900 1628.0000 1.0000
22.5000 1606.0000 1.0000
22.5100 1618.0000 1.0000
22.5200 1597.0000 1.0000
22.5300 1605.0000 1.0000
22.5400 1570.0000 1.0000
22.5500 1520.0000 1.0000
22.5600 1652.0000 1.0000
22.5700 1612.0000 1.0000
22.5800 1591.0000 1.0000
22.5900 1530.0000 1.0000
22.6000 1610.0000 1.0000
22.6100 1571.0000 1.0000
22.6200 1556.0000 1.0000
22.6300 1584.0000 1.0000
22.6400 1606.0000 1.0000
22.6500 1583.0000 1.0000
22.6600 1583.0000 1.0000
22.6700 1616.0000 1.0000
22.6800 1669.0000 1.0000
22.6900 1628.0000 1.0000
22.7000 1629.0000 1.0000
22.7100 1559.0000 1.0000
22.7200 1633.0000 1.0000
22.7300 1541.0000 1.0000
22.7400 1597.0000 1.0000
22.7500 1630.0000 1.0000
22.7600 1549.0000 1.0000
22.7700 1615.0000 1.0000
22.7800 1619.0000 1.0000
22.7900 1545.0000 1.0000
22.8000 1618.0000 1.0000
22.8100 1729.0000 1.0000
22.8200 1568.0000 1.0000
22.8300 1619.0000 1.0000
22.8400 1552.0000 1.0000
22.8500 1640.0000 1.0000
22.8600 1596.0000 1.0000
22.8700 1582.0000 1.0000
22.8800 1599.0000 1.0000
22.8900 1663.0000 1.0000
22.9000 1597.0000 1.0000
22.9100 1611.0000 1.0000
22.9200 1605.0000 1.0000
22.9300 1624.0000 1.0000
22.9400 1587.0000 1.0000
22.9500 1590.0000 1.0000
22.9600 1683.0000 1.0000
22.9700 1625.0000 1.0000
22.9800 1613.0000 1.0000
22.9900 1663.0000 1.0000
23.0000 1685.0000 1.0000
23.0100 1604.0000 1.0000
23.0200 1633.0000 1.0000
23.0300 1620.0000 1.0000
23.0400 1612.0000 1.0000
23.0500 1594.0000 1.0000
23.0600 1623.0000 1.0000
23.0700 1601.0000 1.0000
23.0800 1623.0000 1.0000
23.0900 1592.0000 1.0000
23.1000 1644.0000 1.0000
23.1100 1602.0000 1.0000
23.1200 1592.0000 1.0000
23.1300 1573.0000 1.0000
23.1400 1598.0000 1.0000
23.1500 1590.0000 1.0000
23.1600 1680.0000 1.0000
23.1700 1612.0000 1.0000
23.1800 1648.0000 1.0000
23.1900 1550.0000 1.0000
23.2000 1587.0000 1.0000
23.2100 1644.0000 1.0000
23.2200 1656.0000 1.0000
23.2300 1594.0000 1.0000
23.2400 1572.0000 1.0000
23.2500 1556.0000 1.0000
23.2600 1572.0000 1.0000
23.2700 1634.0000 1.0000
23.2800 1659.0000 1.0000
23.2900 1606.0000 1.0000
23.3000 1635.0000 1.0000
23.3100 1628.0000 1.0000
23.3200 1625.0000 1.0000
23.3300 1595.0000 1.0000
23.3400 1595.0000 1.0000
23.3500 1600.0000 1.0000
23.3600 1594.0000 1.0000
23.3700 1578.0000 1.0000
23.3800 1622.0000 1.0000
23.3900 1604.0000 1.0000
23.4000 1563.0000 1.0000
23.4100 1575.0000 1.0000
23.4200 1599.0000 1.0000
23.4300 1614.0000 1.0000
23.4400 1609.0000 1.0000
23.4500 1629.0000 1.0000
23.4600 1582.0000 1.0000
23.4700 1518.0000 1.0000
23.4800 1601.0000 1.0000
23.4900 1654.0000 1.0000
23.5000 1572.0000 1.0000
23.5100 1565.0000 1.0000
23.5200 1621.0000 1.0000
23.5300 1597.0000 1.0000
23.5400 1647.0000 1.0000
23.5500 1647.0000 1.0000
23.5600 1712.0000 1.0000
23.5700 1677.0000 1.0000
23.5800 1653.0000 1.0000
23.5900 1601.0000 1.0000
23.6000 1593.0000 1.0000
23.6100 1621.0000 1.0000
23.6200 1635.0000 1.0000
23.6300 1610.0000 1.0000
23.6400 1615.0000 1.0000
23.6500 1562.0000 1.0000
23.6600 1619.0000 1.0000
23.6700 1619.0000 1.0000
23.6800 1629.0000 1.0000
23.6900 1603.0000 1.0000
23.7000 1598.0000 1.0000
23.7100 1614.0000 1.0000
23.7200 1586.0000 1.0000
23.7300 1613.0000 1.0000
23.7400 1631.0000 1.0000
23.7500 1665.0000 1.0000
23.7600 1605.0000 1.0000
23.7700 1553.0000 1.0000
23.7800 1555.0000 1.0000
23.7900 1690.0000 1.0000
23.8000 1593.0000 1.0000
23.8100 1587.0000 1.0000
23.8200 1661.0000 1.0000
23.8300 1564.0000 1.0000
23.8400 1571.0000 1.0000
23.8500 1582.0000 1.0000
23.8600 1659.0000 1.0000
23.8700 1638.0000 1.0000
23.8800 1608.0000 1.0000
23.8900 1675.0000 1.0000
23.9000 1588.0000 1.0000
23.9100 1598.0000 1.0000
23.9200 1660.0000 1.0000
23.9300 1618.0000 1.0000
23.9400 1616.0000 1.0000
23.9500 1693.0000 1.0000
23.9600 1584.0000 1.0000
23.9700 1635.0000 1.0000
23.9800 1609.0000 1.0000
23.9900 1554.0000 1.0000
24.0000 1613.0000 1.0000
24.0100 1602.0000 1.0000
24.0200 1667.0000 1.0000
24.0300 1625.0000 1.0000
24.0400 1632.0000 1.0000
24.0500 1629.0000 1.0000
24.0600 1580.0000 1.0000
24.0700 1614.0000 1.0000
24.0800 1635.0000 1.0000
24.0900 1546.0000 1.0000
24.1000 1605.0000 1.0000
24.1100 1611.0000 1.0000
24.1200 1642.0000 1.0000
24.1300 1593.0000 1.0000
24.1400 1622.0000 1.0000
24.1500 1644.0000 1.0000
24.1600 1644.0000 1.0000
24.1700 1550.0000 1.0000
24.1800 1531.0000 1.0000
24.1900 1557.0000 1.0000
24.2000 1599.0000 1.0000
24.2100 1600.0000 1.0000
24.2200 1669.0000 1.0000
24.2300 1664.0000 1.0000
24.2400 1683.0000 1.0000
24.2500 1596.0000 1.0000
24.2600 1625.0000 1.0000
24.2700 1677.0000 1.0000
24.2800 1601.0000 1.0000
24.2900 1634.0000 1.0000
24.3000 1669.0000 1.0000
24.3100 1634.0000 1.0000
24.3200 1560.0000 1.0000
24.3300 1620.0000 1.0000
24.3400 1653.0000 1.0000
24.3500 1663.0000 1.0000
24.3600 1669.0000 1.0000
24.3700 1627.0000 1.0000
24.3800 1621.0000 1.0000
24.3900 1580.0000 1.0000
24.4000 1615.0000 1.0000
24.4100 1634.0000 1.0000
24.4200 1654.0000 1.0000
24.4300 1574.0000 1.0000
24.4400 1604.0000 1.0000
24.4500 1627.0000 1.0000
24.4600 1632.0000 1.0000
24.4700 1604.0000 1.0000
24.4800 1570.0000 1.0000
24.4900 1607.0000 1.0000
24.5000 1670.0000 1.0000
24.5100 1601.0000 1.0000
24.5200 1649.0000 1.0000
24.5300 1666.0000 1.0000
24.5400 1602.0000 1.0000
24.5500 1641.0000 1.0000
24.5600 1567.0000 1.0000
24.5700 1632.0000 1.0000
24.5800 1616.0000 1.0000
24.5900 1667.0000 1.0000
24.6000 1687.0000 1.0000
24.6100 1617.0000 1.0000
24.6200 1712.0000 1.0000
24.6300 1637.0000 1.0000
24.6400 1588.0000 1.0000
24.6500 1572.0000 1.0000
24.6600 1621.0000 1.0000
24.6700 1713.0000 1.0000
24.6800 1698.0000 1.0000
24.6900 1701.0000 1.0000
24.7000 1598.0000 1.0000
24.7100 1670.0000 1.0000
24.7200 1615.0000 1.0000
24.7300 1601.0000 1.0000
24.7400 1640.0000 1.0000
24.7500 1656.0000 1.0000
24.7600 1687.0000 1.0000
24.7700 1685.0000 1.0000
24.7800 1685.0000 1.0000
24.7900 1693.0000 1.0000
24.8000 1603.0000 1.0000
24.8100 1664.0000 1.0000
24.8200 1670.0000 1.0000
24.8300 1672.0000 1.0000
24.8400 1673.0000 1.0000
24.8500 1726.0000 1.0000
24.8600 1701.0000 1.0000
24.8700 1597.0000 1.0000
24.8800 1712.0000 1.0000
24.8900 1721.0000 1.0000
24.9000 1712.0000 1.0000
24.9100 1671.0000 1.0000
24.9200 1735.0000 1.0000
24.9300 1698.0000 1.0000
24.9400 1708.0000 1.0000
24.9500 1741.0000 1.0000
24.9600 1704.0000 1.0000
24.9700 1678.0000 1.0000
24.9800 1731.0000 1.0000
24.9900 1639.0000 1.0000
25.0000 1648.0000 1.0000
25.0100 1671.0000 1.0000
25.0200 1687.0000 1.0000
25.0300 1682.0000 1.0000
25.0400 1700.0000 1.0000
25.0500 1663.0000 1.0000
25.0600 1729.0000 1.0000
25.0700 1709.0000 1.0000
25.0800 1700.0000 1.0000
25.0900 1681.0000 1.0000
25.1000 1736.0000 1.0000
25.1100 1638.0000 1.0000
25.1200 1660.0000 1.0000
25.1300 1689.0000 1.0000
25.1400 1728.0000 1.0000
25.1500 1627.0000 1.0000
25.1600 1660.0000 1.0000
25.1700 1682.0000 1.0000
25.1800 1749.0000 1.0000
25.1900 1715.0000 1.0000
25.2000 1623.0000 1.0000
25.2100 1670.0000 1.0000
25.2200 1702.0000 1.0000
25.2300 1692.0000 1.0000
25.2400 1675.0000 1.0000
25.2500 1677.0000 1.0000
25.2600 1700.0000 1.0000
25.2700 1729.0000 1.0000
25.2800 1716.0000 1.0000
25.2900 1688.0000 1.0000
25.3000 1626.0000 1.0000
25.3100 1675.0000 1.0000
25.3200 1691.0000 1.0000
25.3300 1686.0000 1.0000
25.3400 1696.0000 1.0000
25.3500 1644.0000 1.0000
25.3600 1712.0000 1.0000
25.3700 1660.0000 1.0000
25.3800 1621.0000 1.0000
25.3900 1636.0000 1.0000
25.4000 1654.0000 1.0000
25.4100 1669.0000 1.0000
25.4200 1653.0000 1.0000
25.4300 1708.0000 1.0000
25.4400 1666.0000 1.0000
25.4500 1674.0000 1.0000
25.4600 1685.0000 1.0000
25.4700 1700.0000 1.0000
25.4800 1611.0000 1.0000
25.4900 1644.0000 1.0000
25.5000 1697.0000 1.0000
25.5100 1705.0000 1.0000
25.5200 1628.0000 1.0000
25.5300 1641.0000 1.0000
25.5400 1659.0000 1.0000
25.5500 1638.0000 1.0000
25.5600 1636.0000 1.0000
25.5700 1709.0000 1.0000
25.5800 1613.0000 1.0000
25.5900 1651.0000 1.0000
25.6000 1646.0000 1.0000
25.6100 1675.0000 1.0000
25.6200 1660.0000 1.0000
25.6300 1721.0000 1.0000
25.6400 1725.0000 1.0000
25.6500 1690.0000 1.0000
25.6600 1649.0000 1.0000
25.6700 1654.0000 1.0000
25.6800 1665.0000 1.0000
25.6900 1697.0000 1.0000
25.7000 1705.0000 1.0000
25.7100 1680.0000 1.0000
25.7200 1662.0000 1.0000
25.7300 1651.0000 1.0000
25.7400 1632.0000 1.0000
25.7500 1678.0000 1.0000
25.7600 1665.0000 1.0000
25.7700 1662.0000 1.0000
25.7800 1709.0000 1.0000
25.7900 1611.0000 1.0000
25.8000 1593.0000 1.0000
25.8100 1694.0000 1.0000
25.8200 1653.0000 1.0000
25.8300 1627.0000 1.0000
25.8400 1636.0000 1.0000
25.8500 1637.0000 1.0000
25.8600 1647.0000 1.0000
25.8700 1671.0000 1.0000
25.8800 1635.0000 1.0000
25.8900 1623.0000 1.0000
25.9000 1708.0000 1.0000
25.9100 1573.0000 1.0000
25.9200 1603.0000 1.0000
25.9300 1722.0000 1.0000
25.9400 1717.0000 1.0000
25.9500 1699.0000 1.0000
25.9600 1668.0000 1.0000
25.9700 1699.0000 1.0000
25.9800 1662.0000 1.0000
25.9900 1677.0000 1.0000
26.0000 1722.0000 1.0000
26.0100 1662.0000 1.0000
26.0200 1659.0000 1.0000
26.0300 1579.0000 1.0000
26.0400 1685.0000 1.0000
26.0500 1667.0000 1.0000
26.0600 1599.0000 1.0000
26.0700 1633.0000 1.0000
26.0800 1712.0000 1.0000
26.0900 1640.0000 1.0000
26.1000 1660.0000 1.0000
26.1100 1628.0000 1.0000
26.1200 1663.0000 1.0000
26.1300 1667.0000 1.0000
26.1400 1721.0000 1.0000
26.1500 1688.0000 1.0000
26.1600 1715.0000 1.0000
26.1700 1701.0000 1.0000
26.1800 1653.0000 1.0000
26.1900 1632.0000 1.0000
26.2000 1653.0000 1.0000
26.2100 1709.0000 1.0000
26.2200 1722.0000 1.0000
26.2300 1663.0000 1.0000
26.2400 1662.0000 1.0000
26.2500 1716.0000 1.0000
26.2600 1677.0000 1.0000
26.2700 1663.0000 1.0000
26.2800 1674.0000 1.0000
26.2900 1650.0000 1.0000
26.3000 1620.0000 1.0000
26.3100 1671.0000 1.0000
26.3200 1630.0000 1.0000
26.3300 1752.0000 1.0000
26.3400 1702.0000 1.0000
26.3500 1714.0000 1.0000
26.3600 1725.0000 1.0000
26.3700 1713.0000 1.0000
26.3800 1684.0000 1.0000
26.3900 1727.0000 1.0000
26.4000 1688.0000 1.0000
26.4100 1697.0000 1.0000
26.4200 1702.0000 1.0000
26.4300 1723.0000 1.0000
26.4400 1661.0000 1.0000
26.4500 1743.0000 1.0000
26.4600 1733.0000 1.0000
26.4700 1746.0000 1.0000
26.4800 1784.0000 1.0000
26.4900 1750.0000 1.0000
26.5000 1776.0000 1.0000
26.5100 1727.0000 1.0000
26.5200 1721.0000 1.0000
26.5300 1788.0000 1.0000
26.5400 1655.0000 1.0000
26.5500 1781.0000 1.0000
26.5600 1738.0000 1.0000
26.5700 1719.0000 1.0000
26.5800 1780.0000 1.0000
26.5900 1771.0000 1.0000
26.6000 1713.0000 1.0000
26.6100 1719.0000 1.0000
26.6200 1709.0000 1.0000
26.6300 1679.0000 1.0000
26.6400 1741.0000 1.0000
26.6500 1757.0000 1.0000
26.6600 1768.0000 1.0000
26.6700 1842.0000 1.0000
26.6800 1784.0000 1.0000
26.6900 1750.0000 1.0000
26.7000 1768.0000 1.0000
26.7100 1785.0000 1.0000
26.7200 1780.0000 1.0000
26.7300 1792.0000 1.0000
26.7400 1812.0000 1.0000
26.7500 1835.0000 1.0000
26.7600 1781.0000 1.0000
26.7700 1803.0000 1.0000
26.7800 1796.0000 1.0000
26.7900 1878.0000 1.0000
26.8000 1834.0000 1.0000
26.8100 1831.0000 1.0000
26.8200 1868.0000 1.0000
26.8300 1826.0000 1.0000
26.8400 1817.0000 1.0000
26.8500 1883.0000 1.0000
26.8600 1909.0000 1.0000
26.8700 1873.0000 1.0000
26.8800 2040.0000 1.0000
26.8900 1999.0000 1.0000
26.9000 1935.0000 1.0000
26.9100 1949.0000 1.0000
26.9200 1986.0000 1.0000
26.9300 1976.0000 1.0000
26.9400 2011.0000 1.0000
26.9500 2018.0000 1.0000
26.9600 2080.0000 1.0000
26.9700 2129.0000 1.0000
26.9800 2141.0000 1.0000
26.9900 2182.0000 1.0000
27.0000 2255.0000 1.0000
27.0100 2185.0000 1.0000
27.0200 2252.0000 1.0000
27.0300 2417.0000 1.0000
27.0400 2386.0000 1.0000
27.0500 2422.0000 1.0000
27.0600 2457.0000 1.0000
27.0700 2622.0000 1.0000
27.0800 2605.0000 1.0000
27.0900 2680.0000 1.0000
27.1000 2870.0000 1.0000
27.1100 2856.0000 1.0000
27.1200 3023.0000 1.0000
27.1300 3151.0000 1.0000
27.1400 3339.0000 1.0000
27.1500 3418.0000 1.0000
27.1600 3484.0000 1.0000
27.1700 3655.0000 1.0000
27.1800 3894.0000 1.0000
27.1900 4094.0000 1.0000
27.2000 4235.0000 1.0000
27.2100 4596.0000 1.0000
27.2200 4807.0000 1.0000
27.2300 4923.0000 1.0000
27.2400 5226.0000 1.0000
27.2500 5443.0000 1.0000
27.2600 5614.0000 1.0000
27.2700 5795.0000 1.0000
27.2800 5875.0000 1.0000
27.2900 5954.0000 1.0000
27.3000 6099.0000 1.0000
27.3100 6011.0000 1.0000
27.3200 5852.0000 1.0000
27.3300 5822.0000 1.0000
27.3400 5713.0000 1.0000
27.3500 5567.0000 1.0000
27.3600 5375.0000 1.0000
27.3700 5100.0000 1.0000
27.3800 4896.0000 1.0000
27.3900 4706.0000 1.0000
27.4000 4372.0000 1.0000
27.4100 4196.0000 1.0000
27.4200 3966.0000 1.0000
27.4300 3749.0000 1.0000
27.4400 3603.0000 1.0000
27.4500 3420.0000 1.0000
27.4600 3292.0000 1.0000
27.4700 3108.0000 1.0000
27.4800 3045.0000 1.0000
27.4900 2879.0000 1.0000
27.5000 2893.0000 1.0000
27.5100 2795.0000 1.0000
27.5200 2655.0000 1.0000
27.5300 2647.0000 1.0000
27.5400 2562.0000 1.0000
27.5500 2485.0000 1.0000
27.5600 2399.0000 1.0000
27.5700 2343.0000 1.0000
27.5800 2329.0000 1.0000
27.5900 2234.0000 1.0000
27.6000 2256.0000 1.0000
27.6100 2228.0000 1.0000
27.6200 2234.0000 1.0000
27.6300 2081.0000 1.0000
27.6400 2045.0000 1.0000
27.6500 2126.0000 1.0000
27.6600 2141.0000 1.0000
27.6700 2066.0000 1.0000
27.6800 2020.0000 1.0000
27.6900 1969.0000 1.0000
27.7000 1896.0000 1.0000
27.7100 1922.0000 1.0000
27.7200 1915.0000 1.0000
27.7300 1945.0000 1.0000
27.7400 1887.0000 1.0000
27.7500 1871.0000 1.0000
27.7600 1861.0000 1.0000
27.7700 1871.0000 1.0000
27.7800 1901.0000 1.0000
27.7900 1813.0000 1.0000
27.8000 1759.0000 1.0000
27.8100 1736.0000 1.0000
27.8200 1825.0000 1.0000
27.8300 1805.0000 1.0000
27.8400 1751.0000 1.0000
27.8500 1734.0000 1.0000
27.8600 1806.0000 1.0000
27.8700 1753.0000 1.0000
27.8800 1762.0000 1.0000
27.8900 1785.0000 1.0000
27.9000 1757.0000 1.0000
27.9100 1760.0000 1.0000
27.9200 1805.0000 1.0000
27.9300 1765.0000 1.0000
27.9400 1810.0000 1.0000
27.9500 1716.0000 1.0000
27.9600 1799.0000 1.0000
27.9700 1741.0000 1.0000
27.9800 1696.0000 1.0000
27.9900 1697.0000 1.0000
28.0000 1738.0000 1.0000
28.0100 1741.0000 1.0000
28.0200 1666.0000 1.0000
28.0300 1648.0000 1.0000
28.0400 1804.0000 1.0000
28.0500 1718.0000 1.0000
28.0600 1678.0000 1.0000
28.0700 1667.0000 1.0000
28.0800 1728.0000 1.0000
28.0900 1672.0000 1.0000
28.1000 1698.0000 1.0000
28.1100 1711.0000 1.0000
28.1200 1653.0000 1.0000
28.1300 1664.0000 1.0000
28.1400 1696.0000 1.0000
28.1500 1737.0000 1.0000
28.1600 1673.0000 1.0000
28.1700 1697.0000 1.0000
28.1800 1586.0000 1.0000
28.1900 1649.0000 1.0000
28.2000 1668.0000 1.0000
28.2100 1676.0000 1.0000
28.2200 1623.0000 1.0000
28.2300 1688.0000 1.0000
28.2400 1701.0000 1.0000
28.2500 1662.0000 1.0000
28.2600 1664.0000 1.0000
28.2700 1717.0000 1.0000
28.2800 1697.0000 1.0000
28.2900 1645.0000 1.0000
28.3000 1621.0000 1.0000
28.3100 1602.0000 1.0000
28.3200 1593.0000 1.0000
28.3300 1654.0000 1.0000
28.3400 1685.0000 1.0000
28.3500 1628.0000 1.0000
28.3600 1652.0000 1.0000
28.3700 1693.0000 1.0000
28.3800 1615.0000 1.0000
28.3900 1582.0000 1.0000
28.4000 1568.0000 1.0000
28.4100 1655.0000 1.0000
28.4200 1631.0000 1.0000
28.4300 1570.0000 1.0000
28.4400 1557.0000 1.0000
28.4500 1669.0000 1.0000
28.4600 1657.0000 1.0000
28.4700 1625.0000 1.0000
28.4800 1588.0000 1.0000
28.4900 1637.0000 1.0000
28.5000 1646.0000 1.0000
28.5100 1645.0000 1.0000
28.5200 1664.0000 1.0000
28.5300 1556.0000 1.0000
28.5400 1602.0000 1.0000
28.5500 1609.0000 1.0000
28.5600 1645.0000 1.0000
28.5700 1650.0000 1.0000
28.5800 1602.0000 1.0000
28.5900 1642.0000 1.0000
28.6000 1653.0000 1.0000
28.6100 1633.0000 1.0000
28.6200 1641.0000 1.0000
28.6300 1621.0000 1.0000
28.6400 1629.0000 1.0000
28.6500 1621.0000 1.0000
28.6600 1633.0000 1.0000
28.6700 1623.0000 1.0000
28.6800 1540.0000 1.0000
28.6900 1585.0000 1.0000
28.7000 1527.0000 1.0000
28.7100 1554.0000 1.0000
28.7200 1606.0000 1.0000
28.7300 1615.0000 1.0000
28.7400 1602.0000 1.0000
28.7500 1631.0000 1.0000
28.7600 1607.0000 1.0000
28.7700 1605.0000 1.0000
28.7800 1610.0000 1.0000
28.7900 1630.0000 1.0000
28.8000 1627.0000 1.0000
28.8100 1552.0000 1.0000
28.8200 1612.0000 1.0000
28.8300 1613.0000 1.0000
28.8400 1684.0000 1.0000
28.8500 1671.0000 1.0000
28.8600 1550.0000 1.0000
28.8700 1573.0000 1.0000
28.8800 1639.0000 1.0000
28.8900 1635.0000 1.0000
28.9000 1637.0000 1.0000
28.9100 1562.0000 1.0000
28.9200 1612.0000 1.0000
28.9300 1649.0000 1.0000
28.9400 1631.0000 1.0000
28.9500 1588.0000 1.0000
28.9600 1648.0000 1.0000
28.9700 1599.0000 1.0000
28.9800 1576.0000 1.0000
28.9900 1562.0000 1.0000
29.0000 1647.0000 1.0000
29.0100 1565.0000 1.0000
29.0200 1571.0000 1.0000
29.0300 1602.0000 1.0000
29.0400 1633.0000 1.0000
29.0500 1617.0000 1.0000
29.0600 1609.0000 1.0000
29.0700 1573.0000 1.0000
29.0800 1627.0000 1.0000
29.0900 1549.0000 1.0000
29.1000 1572.0000 1.0000
29.1100 1500.0000 1.0000
29.1200 1614.0000 1.0000
29.1300 1551.0000 1.0000
29.1400 1632.0000 1.0000
29.1500 1605.0000 1.0000
29.1600 1597.0000 1.0000
29.1700 1634.0000 1.0000
29.1800 1591.0000 1.0000
29.1900 1662.0000 1.0000
29.2000 1584.0000 1.0000
29.2100 1530.0000 1.0000
29.2200 1598.0000 1.0000
29.2300 1527.0000 1.0000
29.2400 1605.0000 1.0000
29.2500 1633.0000 1.0000
29.2600 1548.0000 1.0000
29.2700 1600.0000 1.0000
29.2800 1553.0000 1.0000
29.2900 1542.0000 1.0000
29.3000 1617.0000 1.0000
29.3100 1580.0000 1.0000
29.3200 1561.0000 1.0000
29.3300 1549.0000 1.0000
29.3400 1597.0000 1.0000
29.3500 1588.0000 1.0000
29.3600 1546.0000 1.0000
29.3700 1585.0000 1.0000
29.3800 1601.0000 1.0000
29.3900 1632.0000 1.0000
29.4000 1598.0000 1.0000
29.4100 1595.0000 1.0000
29.4200 1621.0000 1.0000
29.4300 1549.0000 1.0000
29.4400 1627.0000 1.0000
29.4500 1657.0000 1.0000
29.4600 1631.0000 1.0000
29.4700 1565.0000 1.0000
29.4800 1577.0000 1.0000
29.4900 1625.0000 1.0000
29.5000 1584.0000 1.0000
29.5100 1573.0000 1.0000
29.5200 1586.0000 1.0000
29.5300 1471.0000 1.0000
29.5400 1528.0000 1.0000
29.5500 1630.0000 1.0000
29.5600 1591.0000 1.0000
29.5700 1467.0000 1.0000
29.5800 1597.0000 1.0000
29.5900 1580.0000 1.0000
29.6000 1570.0000 1.0000
29.6100 1533.0000 1.0000
29.6200 1551.0000 1.0000
29.6300 1536.0000 1.0000
29.6400 1535.0000 1.0000
29.6500 1559.0000 1.0000
29.6600 1614.0000 1.0000
29.6700 1544.0000 1.0000
29.6800 1509.0000 1.0000
29.6900 1531.0000 1.0000
29.7000 1547.0000 1.0000
29.7100 1601.0000 1.0000
29.7200 1640.0000 1.0000
29.7300 1571.0000 1.0000
29.7400 1597.0000 1.0000
29.7500 1562.0000 1.0000
29.7600 1588.0000 1.0000
29.7700 1526.0000 1.0000
29.7800 1592.0000 1.0000
29.7900 1582.0000 1.0000
29.8000 1544.0000 1.0000
29.8100 1540.0000 1.0000
29.8200 1601.0000 1.0000
29.8300 1666.0000 1.0000
29.8400 1588.0000 1.0000
29.8500 1506.0000 1.0000
29.8600 1627.0000 1.0000
29.8700 1591.0000 1.0000
29.8800 1560.0000 1.0000
29.8900 1599.0000 1.0000
29.9000 1588.0000 1.0000
29.9100 1652.0000 1.0000
29.9200 1571.0000 1.0000
29.9300 1530.0000 1.0000
29.9400 1533.0000 1.0000
29.9500 1503.0000 1.0000
29.9600 1608.0000 1.0000
29.9700 1580.0000 1.0000
29.9800 1534.0000 1.0000
29.9900 1483.0000 1.0000
30.0000 1519.0000 1.0000
30.0100 1568.0000 1.0000
30.0200 1508.0000 1.0000
30.0300 1553.0000 1.0000
30.0400 1576.0000 1.0000
30.0500 1624.0000 1.0000
30.0600 1524.0000 1.0000
30.0700 1548.0000 1.0000
30.0800 1505.0000 1.0000
30.0900 1529.0000 1.0000
30.1000 1581.0000 1.0000
30.1100 1581.0000 1.0000
30.1200 1636.0000 1.0000
30.1300 1550.0000 1.0000
30.1400 1508.0000 1.0000
30.1500 1570.0000 1.0000
30.1600 1538.0000 1.0000
30.1700 1582.0000 1.0000
30.1800 1544.0000 1.0000
30.1900 1533.0000 1.0000
30.2000 1534.0000 1.0000
30.2100 1546.0000 1.0000
30.2200 1549.0000 1.0000
30.2300 1470.0000 1.0000
30.2400 1477.0000 1.0000
30.2500 1565.0000 1.0000
30.2600 1601.0000 1.0000
30.2700 1542.0000 1.0000
30.2800 1543.0000 1.0000
30.2900 1628.0000 1.0000
30.3000 1530.0000 1.0000
30.3100 1540.0000 1.0000
30.3200 1507.0000 1.0000
30.3300 1552.0000 1.0000
30.3400 1539.0000 1.0000
30.3500 1593.0000 1.0000
30.3600 1585.0000 1.0000
30.3700 1549.0000 1.0000
30.3800 1502.0000 1.0000
30.3900 1537.0000 1.0000
30.4000 1518.0000 1.0000
30.4100 1513.0000 1.0000
30.4200 1520.0000 1.0000
30.4300 1544.0000 1.0000
30.4400 1512.0000 1.0000
30.4500 1591.0000 1.0000
30.4600 1569.0000 1.0000
30.4700 1535.0000 1.0000
30.4800 1541.0000 1.0000
30.4900 1522.0000 1.0000
30.5000 1584.0000 1.0000
30.5100 1534.0000 1.0000
30.5200 1564.0000 1.0000
30.5300 1552.0000 1.0000
30.5400 1524.0000 1.0000
30.5500 1549.0000 1.0000
30.5600 1500.0000 1.0000
30.5700 1539.0000 1.0000
30.5800 1507.0000 1.0000
30.5900 1585.0000 1.0000
30.6000 1508.0000 1.0000
30.6100 1502.0000 1.0000
30.6200 1529.0000 1.0000
30.6300 1525.0000 1.0000
30.6400 1505.0000 1.0000
30.6500 1512.0000 1.0000
30.6600 1514.0000 1.0000
30.6700 1509.0000 1.0000
30.6800 1521.0000 1.0000
30.6900 1526.0000 1.0000
30.7000 1609.0000 1.0000
30.7100 1535.0000 1.0000
30.7200 1565.0000 1.0000
30.7300 1536.0000 1.0000
30.7400 1553.0000 1.0000
30.7500 1526.0000 1.0000
30.7600 1491.0000 1.0000
30.7700 1497.0000 1.0000
30.7800 1592.0000 1.0000
30.7900 1495.0000 1.0000
30.8000 1454.0000 1.0000
30.8100 1532.0000 1.0000
30.8200 1541.0000 1.0000
30.8300 1521.0000 1.0000
30.8400 1547.0000 1.0000
30.8500 1564.0000 1.0000
30.8600 1545.0000 1.0000
30.8700 1589.0000 1.0000
30.8800 1548.0000 1.0000
30.8900 1586.0000 1.0000
30.9000 1530.0000 1.0000
30.9100 1483.0000 1.0000
30.9200 1575.0000 1.0000
30.9300 1476.0000 1.0000
30.9400 1481.0000 1.0000
30.9500 1519.0000 1.0000
30.9600 1513.0000 1.0000
30.9700 1493.0000 1.0000
30.9800 1564.0000 1.0000
30.9900 1511.0000 1.0000
31.0000 1458.0000 1.0000
31.0100 1479.0000 1.0000
31.0200 1515.0000 1.0000
31.0300 1565.0000 1.0000
31.0400 1490.0000 1.0000
31.0500 1516.0000 1.0000
31.0600 1538.0000 1.0000
31.0700 1585.0000 1.0000
31.0800 1498.0000 1.0000
31.0900 1557.0000 1.0000
31.1000 1558.0000 1.0000
31.1100 1548.0000 1.0000
31.1200 1486.0000 1.0000
31.1300 1522.0000 1.0000
31.1400 1552.0000 1.0000
31.1500 1552.0000 1.0000
31.1600 1444.0000 1.0000
31.1700 1513.0000 1.0000
31.1800 1530.0000 1.0000
31.1900 1545.0000 1.0000
31.2000 1510.0000 1.0000
31.2100 1540.0000 1.0000
31.2200 1517.0000 1.0000
31.2300 1534.0000 1.0000
31.2400 1510.0000 1.0000
31.2500 1500.0000 1.0000
31.2600 1550.0000 1.0000
31.2700 1472.0000 1.0000
31.2800 1535.0000 1.0000
31.2900 1536.0000 1.0000
31.3000 1488.0000 1.0000
31.3100 1526.0000 1.0000
31.3200 1460.0000 1.0000
31.3300 1498.0000 1.0000
31.3400 1456.0000 1.0000
31.3500 1521.0000 1.0000
31.3600 1468.0000 1.0000
31.3700 1526.0000 1.0000
31.3800 1510.0000 1.0000
31.3900 1560.0000 1.0000
31.4000 1507.0000 1.0000
31.4100 1435.0000 1.0000
31.4200 1513.0000 1.0000
31.4300 1482.0000 1.0000
31.4400 1485.0000 1.0000
31.4500 1453.0000 1.0000
31.4600 1500.0000 1.0000
31.4700 1526.0000 1.0000
31.4800 1432.0000 1.0000
31.4900 1500.0000 1.0000
31.5000 1567.0000 1.0000
31.5100 1489.0000 1.0000
31.5200 1480.0000 1.0000
31.5300 1429.0000 1.0000
31.5400 1523.0000 1.0000
31.5500 1473.0000 1.0000
31.5600 1445.0000 1.0000
31.5700 1443.0000 1.0000
31.5800 1519.0000 1.0000
31.5900 1483.0000 1.0000
31.6000 1521.0000 1.0000
31.6100 1490.0000 1.0000
31.6200 1391.0000 1.0000
31.6300 1466.0000 1.0000
31.6400 1494.0000 1.0000
31.6500 1451.0000 1.0000
31.6600 1532.0000 1.0000
31.6700 1535.0000 1.0000
31.6800 1479.0000 1.0000
31.6900 1464.0000 1.0000
31.7000 1519.0000 1.0000
31.7100 1498.0000 1.0000
31.7200 1469.0000 1.0000
31.7300 1486.0000 1.0000
31.7400 1518.0000 1.0000
31.7500 1489.0000 1.0000
31.7600 1480.0000 1.0000
31.7700 1424.0000 1.0000
31.7800 1476.0000 1.0000
31.7900 1542.0000 1.0000
31.8000 1560.0000 1.0000
31.8100 1451.0000 1.0000
31.8200 1486.0000 1.0000
31.8300 1506.0000 1.0000
31.8400 1498.0000 1.0000
31.8500 1447.0000 1.0000
31.8600 1464.0000 1.0000
31.8700 1489.0000 1.0000
31.8800 1526.0000 1.0000
31.8900 1489.0000 1.0000
31.9000 1513.0000 1.0000
31.9100 1544.0000 1.0000
31.9200 1556.0000 1.0000
31.9300 1524.0000 1.0000
31.9400 1540.0000 1.0000
31.9500 1482.0000 1.0000
31.9600 1511.0000 1.0000
31.9700 1515.0000 1.0000
31.9800 1539.0000 1.0000
31.9900 1479.0000 1.0000
32.0000 1513.0000 1.0000
32.0100 1511.0000 1.0000
32.0200 1558.0000 1.0000
32.0300 1491.0000 1.0000
32.0400 1484.0000 1.0000
32.0500 1554.0000 1.0000
32.0600 1481.0000 1.0000
32.0700 1432.0000 1.0000
32.0800 1483.0000 1.0000
32.0900 1499.0000 1.0000
32.1000 1550.0000 1.0000
32.1100 1460.0000 1.0000
32.1200 1472.0000 1.0000
32.1300 1481.0000 1.0000
32.1400 1484.0000 1.0000
32.1500 1497.0000 1.0000
32.1600 1484.0000 1.0000
32.1700 1476.0000 1.0000
32.1800 1497.0000 1.0000
32.1900 1432.0000 1.0000
32.2000 1512.0000 1.0000
32.2100 1525.0000 1.0000
32.2200 1452.0000 1.0000
32.2300 1500.0000 1.0000
32.2400 1530.0000 1.0000
32.2500 1465.0000 1.0000
32.2600 1422.0000 1.0000
32.2700 1417.0000 1.0000
32.2800 1418.0000 1.0000
32.2900 1457.0000 1.0000
32.3000 1498.0000 1.0000
32.3100 1445.0000 1.0000
32.3200 1438.0000 1.0000
32.3300 1427.0000 1.0000
32.3400 1404.0000 1.0000
32.3500 1409.0000 1.0000
32.3600 1483.0000 1.0000
32.3700 1442.0000 1.0000
32.3800 1432.0000 1.0000
32.3900 1413.0000 1.0000
32.4000 1542.0000 1.0000
32.4100 1496.0000 1.0000
32.4200 1404.0000 1.0000
32.4300 1418.0000 1.0000
32.4400 1413.0000 1.0000
32.4500 1439.0000 1.0000
32.4600 1427.0000 1.0000
32.4700 1424.0000 1.0000
32.4800 1431.0000 1.0000
32.4900 1450.0000 1.0000
32.5000 1429.0000 1.0000
32.5100 1494.0000 1.0000
32.5200 1420.0000 1.0000
32.5300 1455.0000 1.0000
32.5400 1504.0000 1.0000
32.5500 1461.0000 1.0000
32.5600 1432.0000 1.0000
32.5700 1502.0000 1.0000
32.5800 1435.0000 1.0000
32.5900 1411.0000 1.0000
32.6000 1417.0000 1.0000
32.6100 1433.0000 1.0000
32.6200 1405.0000 1.0000
32.6300 1456.0000 1.0000
32.6400 1452.0000 1.0000
32.6500 1441.0000 1.0000
32.6600 1456.0000 1.0000
32.6700 1438.0000 1.0000
32.6800 1474.0000 1.0000
32.6900 1429.0000 1.0000
32.7000 1480.0000 1.0000
32.7100 1443.0000 1.0000
32.7200 1405.0000 1.0000
32.7300 1328.0000 1.0000
32.7400 1426.0000 1.0000
32.7500 1376.0000 1.0000
32.7600 1407.0000 1.0000
32.7700 1474.0000 1.0000
32.7800 1468.0000 1.0000
32.7900 1466.0000 1.0000
32.8000 1468.0000 1.0000
32.8100 1468.0000 1.0000
32.8200 1429.0000 1.0000
32.8300 1388.0000 1.0000
32.8400 1393.0000 1.0000
32.8500 1415.0000 1.0000
32.8600 1442.0000 1.0000
32.8700 1427.0000 1.0000
32.8800 1485.0000 1.0000
32.8900 1457.0000 1.0000
32.9000 1411.0000 1.0000
32.9100 1389.0000 1.0000
32.9200 1358.0000 1.0000
32.9300 1444.0000 1.0000
32.9400 1469.0000 1.0000
32.9500 1432.0000 1.0000
32.9600 1382.0000 1.0000
32.9700 1390.0000 1.0000
32.9800 1484.0000 1.0000
32.9900 1442.0000 1.0000
33.0000 1413.0000 1.0000
33.0100 1396.0000 1.0000
33.0200 1370.0000 1.0000
33.0300 1384.0000 1.0000
33.0400 1388.0000 1.0000
33.0500 1374.0000 1.0000
33.0600 1445.0000 1.0000
33.0700 1448.0000 1.0000
33.0800 1440.0000 1.0000
33.0900 1409.0000 1.0000
33.1000 1360.0000 1.0000
33.1100 1469.0000 1.0000
33.1200 1387.0000 1.0000
33.1300 1401.0000 1.0000
33.1400 1413.0000 1.0000
33.1500 1361.0000 1.0000
33.1600 1397.0000 1.0000
33.1700 1422.0000 1.0000
33.1800 1382.0000 1.0000
33.1900 1434.0000 1.0000
33.2000 1335.0000 1.0000
33.2100 1400.0000 1.0000
33.2200 1368.0000 1.0000
33.2300 1383.0000 1.0000
33.2400 1375.0000 1.0000
33.2500 1380.0000 1.0000
33.2600 1395.0000 1.0000
33.2700 1337.0000 1.0000
33.2800 1418.0000 1.0000
33.2900 1385.0000 1.0000
33.3000 1404.0000 1.0000
33.3100 1438.0000 1.0000
33.3200 1433.0000 1.0000
33.3300 1421.0000 1.0000
33.3400 1398.0000 1.0000
33.3500 1453.0000 1.0000
33.3600 1413.0000 1.0000
33.3700 1476.0000 1.0000
33.3800 1398.0000 1.0000
33.3900 1391.0000 1.0000
33.4000 1365.0000 1.0000
33.4100 1425.0000 1.0000
33.4200 1364.0000 1.0000
33.4300 1375.0000 1.0000
33.4400 1401.0000 1.0000
33.4500 1324.0000 1.0000
33.4600 1392.0000 1.0000
33.4700 1388.0000 1.0000
33.4800 1398.0000 1.0000
33.4900 1377.0000 1.0000
33.5000 1363.0000 1.0000
33.5100 1435.0000 1.0000
33.5200 1418.0000 1.0000
33.5300 1417.0000 1.0000
33.5400 1408.0000 1.0000
33.5500 1422.0000 1.0000
33.5600 1439.0000 1.0000
33.5700 1402.0000 1.0000
33.5800 1467.0000 1.0000
33.5900 1404.0000 1.0000
33.6000 1375.0000 1.0000
33.6100 1407.0000 1.0000
33.6200 1409.0000 1.0000
33.6300 1407.0000 1.0000
33.6400 1403.0000 1.0000
33.6500 1448.0000 1.0000
33.6600 1435.0000 1.0000
33.6700 1409.0000 1.0000
33.6800 1389.0000 1.0000
33.6900 1411.0000 1.0000
33.7000 1437.0000 1.0000
33.7100 1473.0000 1.0000
33.7200 1458.0000 1.0000
33.7300 1409.0000 1.0000
33.7400 1471.0000 1.0000
33.7500 1491.0000 1.0000
33.7600 1475.0000 1.0000
33.7700 1488.0000 1.0000
33.7800 1503.0000 1.0000
33.7900 1460.0000 1.0000
33.8000 1479.0000 1.0000
33.8100 1445.0000 1.0000
33.8200 1449.0000 1.0000
33.8300 1525.0000 1.0000
33.8400 1567.0000 1.0000
33.8500 1525.0000 1.0000
33.8600 1601.0000 1.0000
33.8700 1552.0000 1.0000
33.8800 1611.0000 1.0000
33.8900 1602.0000 1.0000
33.9000 1608.0000 1.0000
33.9100 1617.0000 1.0000
33.9200 1636.0000 1.0000
33.9300 1697.0000 1.0000
33.9400 1629.0000 1.0000
33.9500 1609.0000 1.0000
33.9600 1666.0000 1.0000
33.9700 1633.0000 1.0000
33.9800 1566.0000 1.0000
33.9900 1573.0000 1.0000
34.0000 1611.0000 1.0000
34.0100 1600.0000 1.0000
34.0200 1631.0000 1.0000
34.0300 1595.0000 1.0000
34.0400 1585.0000 1.0000
34.0500 1507.0000 1.0000
34.0600 1524.0000 1.0000
34.0700 1598.0000 1.0000
34.0800 1568.0000 1.0000
34.0900 1580.0000 1.0000
34.1000 1518.0000 1.0000
34.1100 1603.0000 1.0000
34.1200 1575.0000 1.0000
34.1300 1523.0000 1.0000
34.1400 1638.0000 1.0000
34.1500 1624.0000 1.0000
34.1600 1540.0000 1.0000
34.1700 1592.0000 1.0000
34.1800 1586.0000 1.0000
34.1900 1586.0000 1.0000
34.2000 1649.0000 1.0000
34.2100 1592.0000 1.0000
34.2200 1656.0000 1.0000
34.2300 1649.0000 1.0000
34.2400 1682.0000 1.0000
34.2500 1690.0000 1.0000
34.2600 1793.0000 1.0000
34.2700 1812.0000 1.0000
34.2800 1796.0000 1.0000
34.2900 1778.0000 1.0000
34.3000 1861.0000 1.0000
34.3100 1833.0000 1.0000
34.3200 1954.0000 1.0000
34.3300 1992.0000 1.0000
34.3400 2043.0000 1.0000
34.3500 2079.0000 1.0000
34.3600 2157.0000 1.0000
34.3700 2246.0000 1.0000
34.3800 2368.0000 1.0000
34.3900 2392.0000 1.0000
34.4000 2487.0000 1.0000
34.4100 2546.0000 1.0000
34.4200 2655.0000 1.0000
34.4300 2769.0000 1.0000
34.4400 2882.0000 1.0000
34.4500 2902.0000 1.0000
34.4600 2977.0000 1.0000
34.4700 3044.0000 1.0000
34.4800 3043.0000 1.0000
34.4900 3067.0000 1.0000
34.5000 3035.0000 1.0000
34.5100 2957.0000 1.0000
34.5200 3029.0000 1.0000
34.5300 2933.0000 1.0000
34.5400 2902.0000 1.0000
34.5500 2912.0000 1.0000
34.5600 2718.0000 1.0000
34.5700 2789.0000 1.0000
34.5800 2597.0000 1.0000
34.5900 2591.0000 1.0000
34.6000 2501.0000 1.0000
34.6100 2459.0000 1.0000
34.6200 2347.0000 1.0000
34.6300 2242.0000 1.0000
34.6400 2226.0000 1.0000
34.6500 2124.0000 1.0000
34.6600 2081.0000 1.0000
34.6700 2028.0000 1.0000
34.6800 2011.0000 1.0000
34.6900 1913.0000 1.0000
34.7000 1877.0000 1.0000
34.7100 1823.0000 1.0000
34.7200 1789.0000 1.0000
34.7300 1720.0000 1.0000
34.7400 1773.0000 1.0000
34.7500 1712.0000 1.0000
34.7600 1752.0000 1.0000
34.7700 1748.0000 1.0000
34.7800 1683.0000 1.0000
34.7900 1583.0000 1.0000
34.8000 1651.0000 1.0000
34.8100 1653.0000 1.0000
34.8200 1520.0000 1.0000
34.8300 1620.0000 1.0000
34.8400 1567.0000 1.0000
34.8500 1499.0000 1.0000
34.8600 1537.0000 1.0000
34.8700 1541.0000 1.0000
34.8800 1518.0000 1.0000
34.8900 1415.0000 1.0000
34.9000 1402.0000 1.0000
34.9100 1425.0000 1.0000
34.9200 1518.0000 1.0000
34.9300 1401.0000 1.0000
34.9400 1403.0000 1.0000
34.9500 1436.0000 1.0000
34.9600 1411.0000 1.0000
34.9700 1426.0000 1.0000
34.9800 1428.0000 1.0000
34.9900 1411.0000 1.0000
35.0000 1332.0000 1.0000
35.0100 1336.0000 1.0000
35.0200 1363.0000 1.0000
35.0300 1417.0000 1.0000
35.0400 1334.0000 1.0000
35.0500 1328.0000 1.0000
35.0600 1302.0000 1.0000
35.0700 1361.0000 1.0000
35.0800 1346.0000 1.0000
35.0900 1286.0000 1.0000
35.1000 1359.0000 1.0000
35.1100 1363.0000 1.0000
35.1200 1299.0000 1.0000
35.1300 1249.0000 1.0000
35.1400 1324.0000 1.0000
35.1500 1279.0000 1.0000
35.1600 1311.0000 1.0000
35.1700 1266.0000 1.0000
35.1800 1315.0000 1.0000
35.1900 1314.0000 1.0000
35.2000 1323.0000 1.0000
35.2100 1318.0000 1.0000
35.2200 1281.0000 1.0000
35.2300 1315.0000 1.0000
35.2400 1292.0000 1.0000
35.2500 1270.0000 1.0000
35.2600 1265.0000 1.0000
35.2700 1272.0000 1.0000
35.2800 1332.0000 1.0000
35.2900 1225.0000 1.0000
35.3000 1325.0000 1.0000
35.3100 1235.0000 1.0000
35.3200 1213.0000 1.0000
35.3300 1285.0000 1.0000
35.3400 1229.0000 1.0000
35.3500 1276.0000 1.0000
35.3600 1221.0000 1.0000
35.3700 1264.0000 1.0000
35.3800 1281.0000 1.0000
35.3900 1245.0000 1.0000
35.4000 1258.0000 1.0000
35.4100 1321.0000 1.0000
35.4200 1269.0000 1.0000
35.4300 1279.0000 1.0000
35.4400 1256.0000 1.0000
35.4500 1251.0000 1.0000
35.4600 1211.0000 1.0000
35.4700 1260.0000 1.0000
35.4800 1221.0000 1.0000
35.4900 1266.0000 1.0000
35.5000 1257.0000 1.0000
35.5100 1233.0000 1.0000
35.5200 1209.0000 1.0000
35.5300 1257.0000 1.0000
35.5400 1228.0000 1.0000
35.5500 1294.0000 1.0000
35.5600 1249.0000 1.0000
35.5700 1193.0000 1.0000
35.5800 1248.0000 1.0000
35.5900 1207.0000 1.0000
35.6000 1205.0000 1.0000
35.6100 1236.0000 1.0000
35.6200 1276.0000 1.0000
35.6300 1242.0000 1.0000
35.6400 1195.0000 1.0000
35.6500 1187.0000 1.0000
35.6600 1233.0000 1.0000
35.6700 1203.0000 1.0000
35.6800 1195.0000 1.0000
35.6900 1194.0000 1.0000
35.7000 1216.0000 1.0000
35.7100 1189.0000 1.0000
35.7200 1251.0000 1.0000
35.7300 1250.0000 1.0000
35.7400 1265.0000 1.0000
35.7500 1239.0000 1.0000
35.7600 1197.0000 1.0000
35.7700 1243.0000 1.0000
35.7800 1197.0000 1.0000
35.7900 1247.0000 1.0000
35.8000 1228.0000 1.0000
35.8100 1225.0000 1.0000
35.8200 1179.0000 1.0000
35.8300 1255.0000 1.0000
35.8400 1231.0000 1.0000
35.8500 1165.0000 1.0000
35.8600 1168.0000 1.0000
35.8700 1224.0000 1.0000
35.8800 1205.0000 1.0000
35.8900 1134.0000 1.0000
35.9000 1134.0000 1.0000
35.9100 1205.0000 1.0000
35.9200 1184.0000 1.0000
35.9300 1248.0000 1.0000
35.9400 1218.0000 1.0000
35.9500 1222.0000 1.0000
35.9600 1200.0000 1.0000
35.9700 1202.0000 1.0000
35.9800 1248.0000 1.0000
35.9900 1168.0000 1.0000
36.0000 1195.0000 1.0000
36.0100 1219.0000 1.0000
36.0200 1198.0000 1.0000
36.0300 1223.0000 1.0000
36.0400 1228.0000 1.0000
36.0500 1216.0000 1.0000
36.0600 1265.0000 1.0000
36.0700 1195.0000 1.0000
36.0800 1241.0000 1.0000
36.0900 1234.0000 1.0000
36.1000 1254.0000 1.0000
36.1100 1265.0000 1.0000
36.1200 1279.0000 1.0000
36.1300 1230.0000 1.0000
36.1400 1266.0000 1.0000
36.1500 1323.0000 1.0000
36.1600 1237.0000 1.0000
36.1700 1269.0000 1.0000
36.1800 1348.0000 1.0000
36.1900 1377.0000 1.0000
36.2000 1366.0000 1.0000
36.2100 1328.0000 1.0000
36.2200 1357.0000 1.0000
36.2300 1357.0000 1.0000
36.2400 1393.0000 1.0000
36.2500 1436.0000 1.0000
36.2600 1452.0000 1.0000
36.2700 1504.0000 1.0000
36.2800 1564.0000 1.0000
36.2900 1605.0000 1.0000
36.3000 1731.0000 1.0000
36.3100 1803.0000 1.0000
36.3200 1829.0000 1.0000
36.3300 1903.0000 1.0000
36.3400 2060.0000 1.0000
36.3500 2094.0000 1.0000
36.3600 2177.0000 1.0000
36.3700 2318.0000 1.0000
36.3800 2438.0000 1.0000
36.3900 2441.0000 1.0000
36.4000 2370.0000 1.0000
36.4100 2366.0000 1.0000
36.4200 2352.0000 1.0000
36.4300 2302.0000 1.0000
36.4400 2244.0000 1.0000
36.4500 2190.0000 1.0000
36.4600 2168.0000 1.0000
36.4700 2077.0000 1.0000
36.4800 1993.0000 1.0000
36.4900 1975.0000 1.0000
36.5000 1935.0000 1.0000
36.5100 1851.0000 1.0000
36.5200 1733.0000 1.0000
36.5300 1683.0000 1.0000
36.5400 1624.0000 1.0000
36.5500 1584.0000 1.0000
36.5600 1479.0000 1.0000
36.5700 1447.0000 1.0000
36.5800 1397.0000 1.0000
36.5900 1394.0000 1.0000
36.6000 1366.0000 1.0000
36.6100 1270.0000 1.0000
36.6200 1223.0000 1.0000
36.6300 1239.0000 1.0000
36.6400 1200.0000 1.0000
36.6500 1287.0000 1.0000
36.6600 1209.0000 1.0000
36.6700 1214.0000 1.0000
36.6800 1187.0000 1.0000
36.6900 1210.0000 1.0000
36.7000 1156.0000 1.0000
36.7100 1149.0000 1.0000
36.7200 1176.0000 1.0000
36.7300 1189.0000 1.0000
36.7400 1122.0000 1.0000
36.7500 1124.0000 1.0000
36.7600 1139.0000 1.0000
36.7700 1234.0000 1.0000
36.7800 1129.0000 1.0000
36.7900 1106.0000 1.0000
36.8000 1125.0000 1.0000
36.8100 1139.0000 1.0000
36.8200 1126.0000 1.0000
36.8300 1167.0000 1.0000
36.8400 1131.0000 1.0000
36.8500 1105.0000 1.0000
36.8600 1141.0000 1.0000
36.8700 1082.0000 1.0000
36.8800 1078.0000 1.0000
36.8900 1174.0000 1.0000
36.9000 1147.0000 1.0000
36.9100 1088.0000 1.0000
36.9200 1166.0000 1.0000
36.9300 1175.0000 1.0000
36.9400 1147.0000 1.0000
36.9500 1120.0000 1.0000
36.9600 1119.0000 1.0000
36.9700 1102.0000 1.0000
36.9800 1178.0000 1.0000
36.9900 1123.0000 1.0000
37.0000 1152.0000 1.0000
37.0100 1140.0000 1.0000
37.0200 1111.0000 1.0000
37.0300 1100.0000 1.0000
37.0400 1176.0000 1.0000
37.0500 1104.0000 1.0000
37.0600 1083.0000 1.0000
37.0700 1101.0000 1.0000
37.0800 1175.0000 1.0000
37.0900 1128.0000 1.0000
37.1000 1092.0000 1.0000
37.1100 1112.0000 1.0000
37.1200 1104.0000 1.0000
37.1300 1131.0000 1.0000
37.1400 1109.0000 1.0000
37.1500 1147.0000 1.0000
37.1600 1088.0000 1.0000
37.1700 1084.0000 1.0000
37.1800 1114.0000 1.0000
37.1900 1087.0000 1.0000
37.2000 1124.0000 1.0000
37.2100 1153.0000 1.0000
37.2200 1067.0000 1.0000
37.2300 1100.0000 1.0000
37.2400 1071.0000 1.0000
37.2500 1152.0000 1.0000
37.2600 1123.0000 1.0000
37.2700 1151.0000 1.0000
37.2800 1099.0000 1.0000
37.2900 1075.0000 1.0000
37.3000 1100.0000 1.0000
37.3100 1144.0000 1.0000
37.3200 1193.0000 1.0000
37.3300 1097.0000 1.0000
37.3400 1115.0000 1.0000
37.3500 1148.0000 1.0000
37.3600 1134.0000 1.0000
37.3700 1098.0000 1.0000
37.3800 1152.0000 1.0000
37.3900 1104.0000 1.0000
37.4000 1119.0000 1.0000
37.4100 1185.0000 1.0000
37.4200 1098.0000 1.0000
37.4300 1095.0000 1.0000
37.4400 1149.0000 1.0000
37.4500 1066.0000 1.0000
37.4600 1118.0000 1.0000
37.4700 1132.0000 1.0000
37.4800 1115.0000 1.0000
37.4900 1091.0000 1.0000
37.5000 1092.0000 1.0000
37.5100 1119.0000 1.0000
37.5200 1096.0000 1.0000
37.5300 1134.0000 1.0000
37.5400 1083.0000 1.0000
37.5500 1136.0000 1.0000
37.5600 1138.0000 1.0000
37.5700 1124.0000 1.0000
37.5800 1132.0000 1.0000
37.5900 1169.0000 1.0000
37.6000 1172.0000 1.0000
37.6100 1137.0000 1.0000
37.6200 1144.0000 1.0000
37.6300 1156.0000 1.0000
37.6400 1143.0000 1.0000
37.6500 1164.0000 1.0000
37.6600 1123.0000 1.0000
37.6700 1097.0000 1.0000
37.6800 1073.0000 1.0000
37.6900 1186.0000 1.0000
37.7000 1122.0000 1.0000
37.7100 1122.0000 1.0000
37.7200 1144.0000 1.0000
37.7300 1174.0000 1.0000
37.7400 1184.0000 1.0000
37.7500 1157.0000 1.0000
37.7600 1146.0000 1.0000
37.7700 1176.0000 1.0000
37.7800 1126.0000 1.0000
37.7900 1137.0000 1.0000
37.8000 1123.0000 1.0000
37.8100 1120.0000 1.0000
37.8200 1172.0000 1.0000
37.8300 1182.0000 1.0000
37.8400 1153.0000 1.0000
37.8500 1134.0000 1.0000
37.8600 1143.0000 1.0000
37.8700 1155.0000 1.0000
37.8800 1185.0000 1.0000
37.8900 1186.0000 1.0000
37.9000 1167.0000 1.0000
37.9100 1110.0000 1.0000
37.9200 1131.0000 1.0000
37.9300 1171.0000 1.0000
37.9400 1210.0000 1.0000
37.9500 1169.0000 1.0000
37.9600 1229.0000 1.0000
37.9700 1199.0000 1.0000
37.9800 1202.0000 1.0000
37.9900 1185.0000 1.0000
38.0000 1191.0000 1.0000
38.0100 1187.0000 1.0000
38.0200 1204.0000 1.0000
38.0300 1195.0000 1.0000
38.0400 1292.0000 1.0000
38.0500 1267.0000 1.0000
38.0600 1253.0000 1.0000
38.0700 1287.0000 1.0000
38.0800 1281.0000 1.0000
38.0900 1283.0000 1.0000
38.1000 1270.0000 1.0000
38.1100 1257.0000 1.0000
38.1200 1324.0000 1.0000
38.1300 1360.0000 1.0000
38.1400 1335.0000 1.0000
38.1500 1415.0000 1.0000
38.1600 1458.0000 1.0000
38.1700 1419.0000 1.0000
38.1800 1478.0000 1.0000
38.1900 1600.0000 1.0000
38.2000 1612.0000 1.0000
38.2100 1595.0000 1.0000
38.2200 1628.0000 1.0000
38.2300 1738.0000 1.0000
38.2400 1795.0000 1.0000
38.2500 1803.0000 1.0000
38.2600 1891.0000 1.0000
38.2700 1991.0000 1.0000
38.2800 1971.0000 1.0000
38.2900 2080.0000 1.0000
38.3000 2147.0000 1.0000
38.3100 2327.0000 1.0000
38.3200 2437.0000 1.0000
38.3300 2558.0000 1.0000
38.3400 2687.0000 1.0000
38.3500 2775.0000 1.0000
38.3600 2985.0000 1.0000
38.3700 3190.0000 1.0000
38.3800 3299.0000 1.0000
38.3900 3500.0000 1.0000
38.4000 3680.0000 1.0000
38.4100 4124.0000 1.0000
38.4200 4382.0000 1.0000
38.4300 4673.0000 1.0000
38.4400 5176.0000 1.0000
38.4500 5404.0000 1.0000
38.4600 5725.0000 1.0000
38.4700 6225.0000 1.0000
38.4800 6478.0000 1.0000
38.4900 6947.0000 1.0000
38.5000 7278.0000 1.0000
38.5100 7597.0000 1.0000
38.5200 7860.0000 1.0000
38.5300 7819.0000 1.0000
38.5400 8013.0000 1.0000
38.5500 8135.0000 1.0000
38.5600 8044.0000 1.0000
38.5700 7886.0000 1.0000
38.5800 7737.0000 1.0000
38.5900 7708.0000 1.0000
38.6000 7453.0000 1.0000
38.6100 7114.0000 1.0000
38.6200 6855.0000 1.0000
38.6300 6480.0000 1.0000
38.6400 6156.0000 1.0000
38.6500 5922.0000 1.0000
38.6600 5617.0000 1.0000
38.6700 5211.0000 1.0000
38.6800 4910.0000 1.0000
38.6900 4644.0000 1.0000
38.7000 4230.0000 1.0000
38.7100 4028.0000 1.0000
38.7200 3729.0000 1.0000
38.7300 3536.0000 1.0000
38.7400 3232.0000 1.0000
38.7500 3074.0000 1.0000
38.7600 2866.0000 1.0000
38.7700 2665.0000 1.0000
38.7800 2548.0000 1.0000
38.7900 2374.0000 1.0000
38.8000 2238.0000 1.0000
38.8100 2098.0000 1.0000
38.8200 2077.0000 1.0000
38.8300 1915.0000 1.0000
38.8400 1919.0000 1.0000
38.8500 1803.0000 1.0000
38.8600 1726.0000 1.0000
38.8700 1627.0000 1.0000
38.8800 1543.0000 1.0000
38.8900 1545.0000 1.0000
38.9000 1461.0000 1.0000
38.9100 1449.0000 1.0000
38.9200 1438.0000 1.0000
38.9300 1404.0000 1.0000
38.9400 1348.0000 1.0000
38.9500 1303.0000 1.0000
38.9600 1321.0000 1.0000
38.9700 1319.0000 1.0000
38.9800 1301.0000 1.0000
38.9900 1198.0000 1.0000
39.0000 1232.0000 1.0000
39.0100 1235.0000 1.0000
39.0200 1209.0000 1.0000
39.0300 1198.0000 1.0000
39.0400 1176.0000 1.0000
39.0500 1171.0000 1.0000
39.0600 1196.0000 1.0000
39.0700 1168.0000 1.0000
39.0800 1123.0000 1.0000
39.0900 1150.0000 1.0000
39.1000 1119.0000 1.0000
39.1100 1098.0000 1.0000
39.1200 1082.0000 1.0000
39.1300 1157.0000 1.0000
39.1400 1089.0000 1.0000
39.1500 1066.0000 1.0000
39.1600 1062.0000 1.0000
39.1700 1078.0000 1.0000
39.1800 1067.0000 1.0000
39.1900 1094.0000 1.0000
39.2000 1092.0000 1.0000
39.2100 1107.0000 1.0000
39.2200 1080.0000 1.0000
39.2300 1080.0000 1.0000
39.2400 1076.0000 1.0000
39.2500 1074.0000 1.0000
39.2600 1087.0000 1.0000
39.2700 1102.0000 1.0000
39.2800 1008.0000 1.0000
39.2900 1048.0000 1.0000
39.3000 1035.0000 1.0000
39.3100 1022.0000 1.0000
39.3200 1024.0000 1.0000
39.3300 998.0000 1.0000
39.3400 1035.0000 1.0000
39.3500 1033.0000 1.0000
39.3600 1059.0000 1.0000
39.3700 1074.0000 1.0000
39.3800 1038.0000 1.0000
39.3900 1027.0000 1.0000
39.4000 1045.0000 1.0000
39.4100 1014.0000 1.0000
39.4200 1032.0000 1.0000
39.4300 1002.0000 1.0000
39.4400 997.0000 1.0000
39.4500 1026.0000 1.0000
39.4600 1021.0000 1.0000
39.4700 1016.0000 1.0000
39.4800 1055.0000 1.0000
39.4900 1075.0000 1.0000
39.5000 1025.0000 1.0000
39.5100 1103.0000 1.0000
39.5200 1046.0000 1.0000
39.5300 1025.0000 1.0000
39.5400 1046.0000 1.0000
39.5500 1045.0000 1.0000
39.5600 1051.0000 1.0000
39.5700 1105.0000 1.0000
39.5800 1016.0000 1.0000
39.5900 1013.0000 1.0000
39.6000 1042.0000 1.0000
39.6100 1040.0000 1.0000
39.6200 1039.0000 1.0000
39.6300 1024.0000 1.0000
39.6400 1070.0000 1.0000
39.6500 1001.0000 1.0000
39.6600 1082.0000 1.0000
39.6700 992.0000 1.0000
39.6800 1016.0000 1.0000
39.6900 1024.0000 1.0000
39.7000 1000.0000 1.0000
39.7100 1053.0000 1.0000
39.7200 1068.0000 1.0000
39.7300 1040.0000 1.0000
39.7400 1005.0000 1.0000
39.7500 1003.0000 1.0000
39.7600 1010.0000 1.0000
39.7700 965.0000 1.0000
39.7800 985.0000 1.0000
39.7900 1011.0000 1.0000
39.8000 1051.0000 1.0000
39.8100 977.0000 1.0000
39.8200 1048.0000 1.0000
39.8300 999.0000 1.0000
39.8400 997.0000 1.0000
39.8500 954.0000 1.0000
39.8600 984.0000 1.0000
39.8700 988.0000 1.0000
39.8800 997.0000 1.0000
39.8900 956.0000 1.0000
39.9000 968.0000 1.0000
39.9100 932.0000 1.0000
39.9200 931.0000 1.0000
39.9300 998.0000 1.0000
39.9400 964.0000 1.0000
39.9500 1017.0000 1.0000
39.9600 992.0000 1.0000
39.9700 1028.0000 1.0000
39.9800 965.0000 1.0000
39.9900 955.0000 1.0000
40.0000 956.0000 1.0000
40.0100 957.0000 1.0000
40.0200 945.0000 1.0000
40.0300 969.0000 1.0000
40.0400 963.0000 1.0000
40.0500 928.0000 1.0000
40.0600 1012.0000 1.0000
40.0700 936.0000 1.0000
40.0800 987.0000 1.0000
40.0900 1027.0000 1.0000
40.1000 986.0000 1.0000
40.1100 945.0000 1.0000
40.1200 960.0000 1.0000
40.1300 984.0000 1.0000
40.1400 884.0000 1.0000
40.1500 945.0000 1.0000
40.1600 971.0000 1.0000
40.1700 971.0000 1.0000
40.1800 996.0000 1.0000
40.1900 873.0000 1.0000
40.2000 964.0000 1.0000
40.2100 916.0000 1.0000
40.2200 974.0000 1.0000
40.2300 945.0000 1.0000
40.2400 965.0000 1.0000
40.2500 947.0000 1.0000
40.2600 956.0000 1.0000
40.2700 921.0000 1.0000
40.2800 931.0000 1.0000
40.2900 952.0000 1.0000
40.3000 913.0000 1.0000
40.3100 957.0000 1.0000
40.3200 964.0000 1.0000
40.3300 994.0000 1.0000
40.3400 922.0000 1.0000
40.3500 926.0000 1.0000
40.3600 931.0000 1.0000
40.3700 969.0000 1.0000
40.3800 932.0000 1.0000
40.3900 906.0000 1.0000
40.4000 896.0000 1.0000
40.4100 898.0000 1.0000
40.4200 951.0000 1.0000
40.4300 938.0000 1.0000
40.4400 954.0000 1.0000
40.4500 917.0000 1.0000
40.4600 955.0000 1.0000
40.4700 983.0000 1.0000
40.4800 945.0000 1.0000
40.4900 944.0000 1.0000
40.5000 936.0000 1.0000
40.5100 953.0000 1.0000
40.5200 926.0000 1.0000
40.5300 903.0000 1.0000
40.5400 939.0000 1.0000
40.5500 905.0000 1.0000
40.5600 916.0000 1.0000
40.5700 962.0000 1.0000
40.5800 989.0000 1.0000
40.5900 974.0000 1.0000
40.6000 933.0000 1.0000
40.6100 893.0000 1.0000
40.6200 897.0000 1.0000
40.6300 914.0000 1.0000
40.6400 937.0000 1.0000
40.6500 919.0000 1.0000
40.6600 929.0000 1.0000
40.6700 922.0000 1.0000
40.6800 944.0000 1.0000
40.6900 970.0000 1.0000
40.7000 951.0000 1.0000
40.7100 903.0000 1.0000
40.7200 926.0000 1.0000
40.7300 966.0000 1.0000
40.7400 988.0000 1.0000
40.7500 932.0000 1.0000
40.7600 935.0000 1.0000
40.7700 905.0000 1.0000
40.7800 929.0000 1.0000
40.7900 964.0000 1.0000
40.8000 918.0000 1.0000
40.8100 962.0000 1.0000
40.8200 927.0000 1.0000
40.8300 896.0000 1.0000
40.8400 946.0000 1.0000
40.8500 917.0000 1.0000
40.8600 944.0000 1.0000
40.8700 917.0000 1.0000
40.8800 893.0000 1.0000
40.8900 893.0000 1.0000
40.9000 919.0000 1.0000
40.9100 925.0000 1.0000
40.9200 948.0000 1.0000
40.9300 931.0000 1.0000
40.9400 925.0000 1.0000
40.9500 939.0000 1.0000
40.9600 927.0000 1.0000
40.9700 933.0000 1.0000
40.9800 920.0000 1.0000
40.9900 924.0000 1.0000
41.0000 886.0000 1.0000
41.0100 894.0000 1.0000
41.0200 946.0000 1.0000
41.0300 916.0000 1.0000
41.0400 924.0000 1.0000
41.0500 908.0000 1.0000
41.0600 890.0000 1.0000
41.0700 926.0000 1.0000
41.0800 920.0000 1.0000
41.0900 913.0000 1.0000
41.1000 918.0000 1.0000
41.1100 954.0000 1.0000
41.1200 918.0000 1.0000
41.1300 934.0000 1.0000
41.1400 910.0000 1.0000
41.1500 914.0000 1.0000
41.1600 855.0000 1.0000
41.1700 883.0000 1.0000
41.1800 937.0000 1.0000
41.1900 939.0000 1.0000
41.2000 914.0000 1.0000
41.2100 944.0000 1.0000
41.2200 877.0000 1.0000
41.2300 914.0000 1.0000
41.2400 888.0000 1.0000
41.2500 934.0000 1.0000
41.2600 942.0000 1.0000
41.2700 930.0000 1.0000
41.2800 898.0000 1.0000
41.2900 835.0000 1.0000
41.3000 927.0000 1.0000
41.3100 933.0000 1.0000
41.3200 904.0000 1.0000
41.3300 907.0000 1.0000
41.3400 943.0000 1.0000
41.3500 897.0000 1.0000
41.3600 934.0000 1.0000
41.3700 931.0000 1.0000
41.3800 956.0000 1.0000
41.3900 923.0000 1.0000
41.4000 926.0000 1.0000
41.4100 890.0000 1.0000
41.4200 962.0000 1.0000
41.4300 939.0000 1.0000
41.4400 905.0000 1.0000
41.4500 908.0000 1.0000
41.4600 941.0000 1.0000
41.4700 914.0000 1.0000
41.4800 938.0000 1.0000
41.4900 914.0000 1.0000
41.5000 925.0000 1.0000
41.5100 888.0000 1.0000
41.5200 900.0000 1.0000
41.5300 860.0000 1.0000
41.5400 940.0000 1.0000
41.5500 959.0000 1.0000
41.5600 993.0000 1.0000
41.5700 957.0000 1.0000
41.5800 959.0000 1.0000
41.5900 970.0000 1.0000
41.6000 934.0000 1.0000
41.6100 960.0000 1.0000
41.6200 975.0000 1.0000
41.6300 956.0000 1.0000
41.6400 908.0000 1.0000
41.6500 962.0000 1.0000
41.6600 985.0000 1.0000
41.6700 961.0000 1.0000
41.6800 895.0000 1.0000
41.6900 899.0000 1.0000
41.7000 903.0000 1.0000
41.7100 896.0000 1.0000
41.7200 892.0000 1.0000
41.7300 956.0000 1.0000
41.7400 979.0000 1.0000
41.7500 941.0000 1.0000
41.7600 930.0000 1.0000
41.7700 926.0000 1.0000
41.7800 934.0000 1.0000
41.7900 921.0000 1.0000
41.8000 938.0000 1.0000
41.8100 965.0000 1.0000
41.8200 911.0000 1.0000
41.8300 911.0000 1.0000
41.8400 904.0000 1.0000
41.8500 872.0000 1.0000
41.8600 901.0000 1.0000
41.8700 889.0000 1.0000
41.8800 865.0000 1.0000
41.8900 884.0000 1.0000
41.9000 890.0000 1.0000
41.9100 890.0000 1.0000
41.9200 925.0000 1.0000
41.9300 876.0000 1.0000
41.9400 868.0000 1.0000
41.9500 896.0000 1.0000
41.9600 922.0000 1.0000
41.9700 924.0000 1.0000
41.9800 950.0000 1.0000
41.9900 912.0000 1.0000
42.0000 887.0000 1.0000
42.0100 977.0000 1.0000
42.0200 945.0000 1.0000
42.0300 906.0000 1.0000
42.0400 910.0000 1.0000
42.0500 932.0000 1.0000
42.0600 958.0000 1.0000
42.0700 863.0000 1.0000
42.0800 869.0000 1.0000
42.0900 898.0000 1.0000
42.1000 891.0000 1.0000
42.1100 881.0000 1.0000
42.1200 901.0000 1.0000
42.1300 863.0000 1.0000
42.1400 911.0000 1.0000
42.1500 918.0000 1.0000
42.1600 888.0000 1.0000
42.1700 883.0000 1.0000
42.1800 882.0000 1.0000
42.1900 881.0000 1.0000
42.2000 923.0000 1.0000
42.2100 870.0000 1.0000
42.2200 887.0000 1.0000
42.2300 916.0000 1.0000
42.2400 913.0000 1.0000
42.2500 866.0000 1.0000
42.2600 879.0000 1.0000
42.2700 925.0000 1.0000
42.2800 824.0000 1.0000
42.2900 929.0000 1.0000
42.3000 978.0000 1.0000
42.3100 923.0000 1.0000
42.3200 908.0000 1.0000
42.3300 918.0000 1.0000
42.3400 887.0000 1.0000
42.3500 891.0000 1.0000
42.3600 898.0000 1.0000
42.3700 885.0000 1.0000
42.3800 897.0000 1.0000
42.3900 918.0000 1.0000
42.4000 869.0000 1.0000
42.4100 917.0000 1.0000
42.4200 888.0000 1.0000
42.4300 857.0000 1.0000
42.4400 868.0000 1.0000
42.4500 905.0000 1.0000
42.4600 862.0000 1.0000
42.4700 874.0000 1.0000
42.4800 899.0000 1.0000
42.4900 906.0000 1.0000
42.5000 911.0000 1.0000
42.5100 885.0000 1.0000
42.5200 859.0000 1.0000
42.5300 863.0000 1.0000
42.5400 872.0000 1.0000
42.5500 859.0000 1.0000
42.5600 903.0000 1.0000
42.5700 891.0000 1.0000
42.5800 906.0000 1.0000
42.5900 893.0000 1.0000
42.6000 909.0000 1.0000
42.6100 885.0000 1.0000
42.6200 889.0000 1.0000
42.6300 887.0000 1.0000
42.6400 868.0000 1.0000
42.6500 898.0000 1.0000
42.6600 934.0000 1.0000
42.6700 838.0000 1.0000
42.6800 869.0000 1.0000
42.6900 872.0000 1.0000
42.7000 892.0000 1.0000
42.7100 855.0000 1.0000
42.7200 896.0000 1.0000
42.7300 904.0000 1.0000
42.7400 899.0000 1.0000
42.7500 880.0000 1.0000
42.7600 921.0000 1.0000
42.7700 897.0000 1.0000
42.7800 898.0000 1.0000
42.7900 977.0000 1.0000
42.8000 882.0000 1.0000
42.8100 928.0000 1.0000
42.8200 969.0000 1.0000
42.8300 897.0000 1.0000
42.8400 929.0000 1.0000
42.8500 905.0000 1.0000
42.8600 924.0000 1.0000
42.8700 907.0000 1.0000
42.8800 919.0000 1.0000
42.8900 878.0000 1.0000
42.9000 874.0000 1.0000
42.9100 929.0000 1.0000
42.9200 891.0000 1.0000
42.9300 890.0000 1.0000
42.9400 913.0000 1.0000
42.9500 891.0000 1.0000
42.9600 892.0000 1.0000
42.9700 875.0000 1.0000
42.9800 910.0000 1.0000
42.9900 963.0000 1.0000
43.0000 903.0000 1.0000
43.0100 902.0000 1.0000
43.0200 961.0000 1.0000
43.0300 906.0000 1.0000
43.0400 903.0000 1.0000
43.0500 916.0000 1.0000
43.0600 944.0000 1.0000
43.0700 908.0000 1.0000
43.0800 905.0000 1.0000
43.0900 902.0000 1.0000
43.1000 944.0000 1.0000
43.1100 959.0000 1.0000
43.1200 926.0000 1.0000
43.1300 991.0000 1.0000
43.1400 997.0000 1.0000
43.1500 940.0000 1.0000
43.1600 910.0000 1.0000
43.1700 952.0000 1.0000
43.1800 958.0000 1.0000
43.1900 1003.0000 1.0000
43.2000 994.0000 1.0000
43.2100 954.0000 1.0000
43.2200 957.0000 1.0000
43.2300 999.0000 1.0000
43.2400 1006.0000 1.0000
43.2500 958.0000 1.0000
43.2600 994.0000 1.0000
43.2700 981.0000 1.0000
43.2800 1013.0000 1.0000
43.2900 967.0000 1.0000
43.3000 992.0000 1.0000
43.3100 951.0000 1.0000
43.3200 1010.0000 1.0000
43.3300 992.0000 1.0000
43.3400 948.0000 1.0000
43.3500 1002.0000 1.0000
43.3600 969.0000 1.0000
43.3700 961.0000 1.0000
43.3800 902.0000 1.0000
43.3900 916.0000 1.0000
43.4000 938.0000 1.0000
43.4100 930.0000 1.0000
43.4200 898.0000 1.0000
43.4300 903.0000 1.0000
43.4400 915.0000 1.0000
43.4500 955.0000 1.0000
43.4600 967.0000 1.0000
43.4700 911.0000 1.0000
43.4800 891.0000 1.0000
43.4900 868.0000 1.0000
43.5000 871.0000 1.0000
43.5100 908.0000 1.0000
43.5200 886.0000 1.0000
43.5300 891.0000 1.0000
43.5400 915.0000 1.0000
43.5500 901.0000 1.0000
43.5600 880.0000 1.0000
43.5700 903.0000 1.0000
43.5800 923.0000 1.0000
43.5900 871.0000 1.0000
43.6000 878.0000 1.0000
43.6100 889.0000 1.0000
43.6200 889.0000 1.0000
43.6300 886.0000 1.0000
43.6400 903.0000 1.0000
43.6500 861.0000 1.0000
43.6600 874.0000 1.0000
43.6700 900.0000 1.0000
43.6800 874.0000 1.0000
43.6900 893.0000 1.0000
43.7000 852.0000 1.0000
43.7100 849.0000 1.0000
43.7200 813.0000 1.0000
43.7300 860.0000 1.0000
43.7400 868.0000 1.0000
43.7500 890.0000 1.0000
43.7600 919.0000 1.0000
43.7700 845.0000 1.0000
43.7800 868.0000 1.0000
43.7900 860.0000 1.0000
43.8000 863.0000 1.0000
43.8100 887.0000 1.0000
43.8200 920.0000 1.0000
43.8300 897.0000 1.0000
43.8400 877.0000 1.0000
43.8500 869.0000 1.0000
43.8600 830.0000 1.0000
43.8700 879.0000 1.0000
43.8800 857.0000 1.0000
43.8900 859.0000 1.0000
43.9000 864.0000 1.0000
43.9100 897.0000 1.0000
43.9200 887.0000 1.0000
43.9300 837.0000 1.0000
43.9400 847.0000 1.0000
43.9500 858.0000 1.0000
43.9600 944.0000 1.0000
43.9700 874.0000 1.0000
43.9800 919.0000 1.0000
43.9900 898.0000 1.0000
44.0000 889.0000 1.0000
44.0100 849.0000 1.0000
44.0200 809.0000 1.0000
44.0300 897.0000 1.0000
44.0400 846.0000 1.0000
44.0500 847.0000 1.0000
44.0600 900.0000 1.0000
44.0700 829.0000 1.0000
44.0800 787.0000 1.0000
44.0900 835.0000 1.0000
44.1000 889.0000 1.0000
44.1100 865.0000 1.0000
44.1200 900.0000 1.0000
44.1300 885.0000 1.0000
44.1400 857.0000 1.0000
44.1500 867.0000 1.0000
44.1600 862.0000 1.0000
44.1700 871.0000 1.0000
44.1800 846.0000 1.0000
44.1900 916.0000 1.0000
44.2000 880.0000 1.0000
44.2100 874.0000 1.0000
44.2200 906.0000 1.0000
44.2300 969.0000 1.0000
44.2400 930.0000 1.0000
44.2500 906.0000 1.0000
44.2600 872.0000 1.0000
44.2700 844.0000 1.0000
44.2800 857.0000 1.0000
44.2900 838.0000 1.0000
44.3000 874.0000 1.0000
44.3100 922.0000 1.0000
44.3200 877.0000 1.0000
44.3300 862.0000 1.0000
44.3400 838.0000 1.0000
44.3500 896.0000 1.0000
44.3600 872.0000 1.0000
44.3700 832.0000 1.0000
44.3800 834.0000 1.0000
44.3900 869.0000 1.0000
44.4000 887.0000 1.0000
44.4100 865.0000 1.0000
44.4200 892.0000 1.0000
44.4300 857.0000 1.0000
44.4400 901.0000 1.0000
44.4500 937.0000 1.0000
44.4600 858.0000 1.0000
44.4700 867.0000 1.0000
44.4800 866.0000 1.0000
44.4900 877.0000 1.0000
44.5000 911.0000 1.0000
44.5100 852.0000 1.0000
44.5200 881.0000 1.0000
44.5300 850.0000 1.0000
44.5400 848.0000 1.0000
44.5500 873.0000 1.0000
44.5600 919.0000 1.0000
44.5700 877.0000 1.0000
44.5800 841.0000 1.0000
44.5900 883.0000 1.0000
44.6000 869.0000 1.0000
44.6100 835.0000 1.0000
44.6200 908.0000 1.0000
44.6300 862.0000 1.0000
44.6400 872.0000 1.0000
44.6500 844.0000 1.0000
44.6600 863.0000 1.0000
44.6700 877.0000 1.0000
44.6800 821.0000 1.0000
44.6900 844.0000 1.0000
44.7000 847.0000 1.0000
44.7100 860.0000 1.0000
44.7200 873.0000 1.0000
44.7300 814.0000 1.0000
44.7400 828.0000 1.0000
44.7500 848.0000 1.0000
44.7600 863.0000 1.0000
44.7700 862.0000 1.0000
44.7800 876.0000 1.0000
44.7900 825.0000 1.0000
44.8000 878.0000 1.0000
44.8100 865.0000 1.0000
44.8200 817.0000 1.0000
44.8300 865.0000 1.0000
44.8400 852.0000 1.0000
44.8500 875.0000 1.0000
44.8600 861.0000 1.0000
44.8700 801.0000 1.0000
44.8800 837.0000 1.0000
44.8900 882.0000 1.0000
44.9000 862.0000 1.0000
44.9100 853.0000 1.0000
44.9200 835.0000 1.0000
44.9300 860.0000 1.0000
44.9400 881.0000 1.0000
44.9500 834.0000 1.0000
44.9600 838.0000 1.0000
44.9700 846.0000 1.0000
44.9800 866.0000 1.0000
44.9900 836.0000 1.0000
45.0000 836.0000 1.0000
45.0100 820.0000 1.0000
45.0200 837.0000 1.0000
45.0300 873.0000 1.0000
45.0400 857.0000 1.0000
45.0500 841.0000 1.0000
45.0600 836.0000 1.0000
45.0700 870.0000 1.0000
45.0800 859.0000 1.0000
45.0900 851.0000 1.0000
45.1000 877.0000 1.0000
45.1100 833.0000 1.0000
45.1200 809.0000 1.0000
45.1300 797.0000 1.0000
45.1400 840.0000 1.0000
45.1500 833.0000 1.0000
45.1600 873.0000 1.0000
45.1700 856.0000 1.0000
45.1800 818.0000 1.0000
45.1900 856.0000 1.0000
45.2000 881.0000 1.0000
45.2100 835.0000 1.0000
45.2200 838.0000 1.0000
45.2300 839.0000 1.0000
45.2400 850.0000 1.0000
45.2500 819.0000 1.0000
45.2600 857.0000 1.0000
45.2700 819.0000 1.0000
45.2800 833.0000 1.0000
45.2900 833.0000 1.0000
45.3000 864.0000 1.0000
45.3100 853.0000 1.0000
45.3200 880.0000 1.0000
45.3300 811.0000 1.0000
45.3400 840.0000 1.0000
45.3500 875.0000 1.0000
45.3600 893.0000 1.0000
45.3700 850.0000 1.0000
45.3800 823.0000 1.0000
45.3900 833.0000 1.0000
45.4000 813.0000 1.0000
45.4100 870.0000 1.0000
45.4200 825.0000 1.0000
45.4300 850.0000 1.0000
45.4400 812.0000 1.0000
45.4500 827.0000 1.0000
45.4600 863.0000 1.0000
45.4700 853.0000 1.0000
45.4800 842.0000 1.0000
45.4900 844.0000 1.0000
45.5000 830.0000 1.0000
45.5100 862.0000 1.0000
45.5200 916.0000 1.0000
45.5300 786.0000 1.0000
45.5400 843.0000 1.0000
45.5500 843.0000 1.0000
45.5600 839.0000 1.0000
45.5700 831.0000 1.0000
45.5800 879.0000 1.0000
45.5900 841.0000 1.0000
45.6000 870.0000 1.0000
45.6100 805.0000 1.0000
45.6200 804.0000 1.0000
45.6300 812.0000 1.0000
45.6400 829.0000 1.0000
45.6500 825.0000 1.0000
45.6600 826.0000 1.0000
45.6700 851.0000 1.0000
45.6800 827.0000 1.0000
45.6900 799.0000 1.0000
45.7000 817.0000 1.0000
45.7100 822.0000 1.0000
45.7200 812.0000 1.0000
45.7300 787.0000 1.0000
45.7400 870.0000 1.0000
45.7500 844.0000 1.0000
45.7600 810.0000 1.0000
45.7700 848.0000 1.0000
45.7800 809.0000 1.0000
45.7900 850.0000 1.0000
45.8000 792.0000 1.0000
45.8100 911.0000 1.0000
45.8200 824.0000 1.0000
45.8300 835.0000 1.0000
45.8400 880.0000 1.0000
45.8500 861.0000 1.0000
45.8600 845.0000 1.0000
45.8700 816.0000 1.0000
45.8800 836.0000 1.0000
45.8900 796.0000 1.0000
45.9000 852.0000 1.0000
45.9100 792.0000 1.0000
45.9200 810.0000 1.0000
45.9300 823.0000 1.0000
45.9400 796.0000 1.0000
45.9500 863.0000 1.0000
45.9600 839.0000 1.0000
45.9700 858.0000 1.0000
45.9800 846.0000 1.0000
45.9900 837.0000 1.0000
46.0000 861.0000 1.0000
46.0100 839.0000 1.0000
46.0200 859.0000 1.0000
46.0300 785.0000 1.0000
46.0400 814.0000 1.0000
46.0500 817.0000 1.0000
46.0600 855.0000 1.0000
46.0700 821.0000 1.0000
46.0800 808.0000 1.0000
46.0900 816.0000 1.0000
46.1000 878.0000 1.0000
46.1100 840.0000 1.0000
46.1200 850.0000 1.0000
46.1300 851.0000 1.0000
46.1400 811.0000 1.0000
46.1500 852.0000 1.0000
46.1600 845.0000 1.0000
46.1700 777.0000 1.0000
46.1800 771.0000 1.0000
46.1900 803.0000 1.0000
46.2000 868.0000 1.0000
46.2100 851.0000 1.0000
46.2200 822.0000 1.0000
46.2300 850.0000 1.0000
46.2400 816.0000 1.0000
46.2500 814.0000 1.0000
46.2600 790.0000 1.0000
46.2700 817.0000 1.0000
46.2800 790.0000 1.0000
46.2900 834.0000 1.0000
46.3000 803.0000 1.0000
46.3100 845.0000 1.0000
46.3200 823.0000 1.0000
46.3300 813.0000 1.0000
46.3400 867.0000 1.0000
46.3500 841.0000 1.0000
46.3600 833.0000 1.0000
46.3700 827.0000 1.0000
46.3800 864.0000 1.0000
46.3900 802.0000 1.0000
46.4000 788.0000 1.0000
46.4100 808.0000 1.0000
46.4200 828.0000 1.0000
46.4300 776.0000 1.0000
46.4400 795.0000 1.0000
46.4500 810.0000 1.0000
46.4600 824.0000 1.0000
46.4700 827.0000 1.0000
46.4800 866.0000 1.0000
46.4900 817.0000 1.0000
46.5000 822.0000 1.0000
46.5100 843.0000 1.0000
46.5200 787.0000 1.0000
46.5300 793.0000 1.0000
46.5400 790.0000 1.0000
46.5500 816.0000 1.0000
46.5600 811.0000 1.0000
46.5700 831.0000 1.0000
46.5800 758.0000 1.0000
46.5900 793.0000 1.0000
46.6000 841.0000 1.0000
46.6100 856.0000 1.0000
46.6200 796.0000 1.0000
46.6300 806.0000 1.0000
46.6400 859.0000 1.0000
46.6500 834.0000 1.0000
46.6600 834.0000 1.0000
46.6700 807.0000 1.0000
46.6800 805.0000 1.0000
46.6900 795.0000 1.0000
46.7000 818.0000 1.0000
46.7100 748.0000 1.0000
46.7200 837.0000 1.0000
46.7300 827.0000 1.0000
46.7400 866.0000 1.0000
46.7500 806.0000 1.0000
46.7600 839.0000 1.0000
46.7700 804.0000 1.0000
46.7800 825.0000 1.0000
46.7900 796.0000 1.0000
46.8000 789.0000 1.0000
46.8100 832.0000 1.0000
46.8200 813.0000 1.0000
46.8300 807.0000 1.0000
46.8400 793.0000 1.0000
46.8500 837.0000 1.0000
46.8600 782.0000 1.0000
46.8700 806.0000 1.0000
46.8800 832.0000 1.0000
46.8900 822.0000 1.0000
46.9000 814.0000 1.0000
46.9100 844.0000 1.0000
46.9200 786.0000 1.0000
46.9300 805.0000 1.0000
46.9400 818.0000 1.0000
46.9500 866.0000 1.0000
46.9600 849.0000 1.0000
46.9700 808.0000 1.0000
46.9800 838.0000 1.0000
46.9900 809.0000 1.0000
47.0000 797.0000 1.0000
47.0100 834.0000 1.0000
47.0200 814.0000 1.0000
47.0300 819.0000 1.0000
47.0400 844.0000 1.0000
47.0500 827.0000 1.0000
47.0600 855.0000 1.0000
47.0700 833.0000 1.0000
47.0800 799.0000 1.0000
47.0900 828.0000 1.0000
47.1000 885.0000 1.0000
47.1100 816.0000 1.0000
47.1200 765.0000 1.0000
47.1300 795.0000 1.0000
47.1400 839.0000 1.0000
47.1500 817.0000 1.0000
47.1600 836.0000 1.0000
47.1700 800.0000 1.0000
47.1800 790.0000 1.0000
47.1900 807.0000 1.0000
47.2000 813.0000 1.0000
47.2100 832.0000 1.0000
47.2200 807.0000 1.0000
47.2300 812.0000 1.0000
47.2400 810.0000 1.0000
47.2500 838.0000 1.0000
47.2600 782.0000 1.0000
47.2700 794.0000 1.0000
47.2800 842.0000 1.0000
47.2900 792.0000 1.0000
47.3000 793.0000 1.0000
47.3100 814.0000 1.0000
47.3200 821.0000 1.0000
47.3300 840.0000 1.0000
47.3400 829.0000 1.0000
47.3500 796.0000 1.0000
47.3600 783.0000 1.0000
47.3700 838.0000 1.0000
47.3800 815.0000 1.0000
47.3900 782.0000 1.0000
47.4000 814.0000 1.0000
47.4100 837.0000 1.0000
47.4200 804.0000 1.0000
47.4300 852.0000 1.0000
47.4400 803.0000 1.0000
47.4500 776.0000 1.0000
47.4600 790.0000 1.0000
47.4700 759.0000 1.0000
47.4800 755.0000 1.0000
47.4900 791.0000 1.0000
47.5000 828.0000 1.0000
47.5100 801.0000 1.0000
47.5200 798.0000 1.0000
47.5300 797.0000 1.0000
47.5400 737.0000 1.0000
47.5500 789.0000 1.0000
47.5600 787.0000 1.0000
47.5700 764.0000 1.0000
47.5800 764.0000 1.0000
47.5900 771.0000 1.0000
47.6000 811.0000 1.0000
47.6100 837.0000 1.0000
47.6200 855.0000 1.0000
47.6300 800.0000 1.0000
47.6400 732.0000 1.0000
47.6500 829.0000 1.0000
47.6600 798.0000 1.0000
47.6700 820.0000 1.0000
47.6800 734.0000 1.0000
47.6900 800.0000 1.0000
47.7000 787.0000 1.0000
47.7100 782.0000 1.0000
47.7200 782.0000 1.0000
47.7300 805.0000 1.0000
47.7400 803.0000 1.0000
47.7500 788.0000 1.0000
47.7600 777.0000 1.0000
47.7700 741.0000 1.0000
47.7800 796.0000 1.0000
47.7900 786.0000 1.0000
47.8000 768.0000 1.0000
47.8100 792.0000 1.0000
47.8200 795.0000 1.0000
47.8300 811.0000 1.0000
47.8400 798.0000 1.0000
47.8500 794.0000 1.0000
47.8600 783.0000 1.0000
47.8700 794.0000 1.0000
47.8800 796.0000 1.0000
47.8900 797.0000 1.0000
47.9000 853.0000 1.0000
47.9100 819.0000 1.0000
47.9200 769.0000 1.0000
47.9300 790.0000 1.0000
47.9400 831.0000 1.0000
47.9500 815.0000 1.0000
47.9600 805.0000 1.0000
47.9700 812.0000 1.0000
47.9800 751.0000 1.0000
47.9900 792.0000 1.0000
48.0000 783.0000 1.0000
48.0100 804.0000 1.0000
48.0200 829.0000 1.0000
48.0300 770.0000 1.0000
48.0400 778.0000 1.0000
48.0500 759.0000 1.0000
48.0600 805.0000 1.0000
48.0700 769.0000 1.0000
48.0800 776.0000 1.0000
48.0900 752.0000 1.0000
48.1000 775.0000 1.0000
48.1100 760.0000 1.0000
48.1200 773.0000 1.0000
48.1300 789.0000 1.0000
48.1400 739.0000 1.0000
48.1500 793.0000 1.0000
48.1600 844.0000 1.0000
48.1700 804.0000 1.0000
48.1800 809.0000 1.0000
48.1900 749.0000 1.0000
48.2000 792.0000 1.0000
48.2100 764.0000 1.0000
48.2200 765.0000 1.0000
48.2300 753.0000 1.0000
48.2400 794.0000 1.0000
48.2500 772.0000 1.0000
48.2600 829.0000 1.0000
48.2700 788.0000 1.0000
48.2800 783.0000 1.0000
48.2900 814.0000 1.0000
48.3000 813.0000 1.0000
48.3100 756.0000 1.0000
48.3200 780.0000 1.0000
48.3300 767.0000 1.0000
48.3400 773.0000 1.0000
48.3500 800.0000 1.0000
48.3600 811.0000 1.0000
48.3700 780.0000 1.0000
48.3800 765.0000 1.0000
48.3900 811.0000 1.0000
48.4000 798.0000 1.0000
48.4100 794.0000 1.0000
48.4200 773.0000 1.0000
48.4300 764.0000 1.0000
48.4400 747.0000 1.0000
48.4500 789.0000 1.0000
48.4600 758.0000 1.0000
48.4700 807.0000 1.0000
48.4800 776.0000 1.0000
48.4900 794.0000 1.0000
48.5000 753.0000 1.0000
48.5100 778.0000 1.0000
48.5200 796.0000 1.0000
48.5300 790.0000 1.0000
48.5400 766.0000 1.0000
48.5500 806.0000 1.0000
48.5600 756.0000 1.0000
48.5700 782.0000 1.0000
48.5800 759.0000 1.0000
48.5900 800.0000 1.0000
48.6000 773.0000 1.0000
48.6100 758.0000 1.0000
48.6200 759.0000 1.0000
48.6300 772.0000 1.0000
48.6400 764.0000 1.0000
48.6500 802.0000 1.0000
48.6600 770.0000 1.0000
48.6700 803.0000 1.0000
48.6800 803.0000 1.0000
48.6900 783.0000 1.0000
48.7000 816.0000 1.0000
48.7100 791.0000 1.0000
48.7200 749.0000 1.0000
48.7300 775.0000 1.0000
48.7400 756.0000 1.0000
48.7500 787.0000 1.0000
48.7600 743.0000 1.0000
48.7700 763.0000 1.0000
48.7800 797.0000 1.0000
48.7900 797.0000 1.0000
48.8000 792.0000 1.0000
48.8100 776.0000 1.0000
48.8200 821.0000 1.0000
48.8300 752.0000 1.0000
48.8400 796.0000 1.0000
48.8500 790.0000 1.0000
48.8600 740.0000 1.0000
48.8700 770.0000 1.0000
48.8800 764.0000 1.0000
48.8900 751.0000 1.0000
48.9000 776.0000 1.0000
48.9100 791.0000 1.0000
48.9200 789.0000 1.0000
48.9300 777.0000 1.0000
48.9400 729.0000 1.0000
48.9500 794.0000 1.0000
48.9600 770.0000 1.0000
48.9700 785.0000 1.0000
48.9800 781.0000 1.0000
48.9900 743.0000 1.0000
49.0000 740.0000 1.0000
49.0100 736.0000 1.0000
49.0200 768.0000 1.0000
49.0300 736.0000 1.0000
49.0400 748.0000 1.0000
49.0500 758.0000 1.0000
49.0600 704.0000 1.0000
49.0700 808.0000 1.0000
49.0800 806.0000 1.0000
49.0900 767.0000 1.0000
49.1000 815.0000 1.0000
49.1100 787.0000 1.0000
49.1200 783.0000 1.0000
49.1300 826.0000 1.0000
49.1400 788.0000 1.0000
49.1500 757.0000 1.0000
49.1600 753.0000 1.0000
49.1700 748.0000 1.0000
49.1800 747.0000 1.0000
49.1900 762.0000 1.0000
49.2000 774.0000 1.0000
49.2100 799.0000 1.0000
49.2200 738.0000 1.0000
49.2300 736.0000 1.0000
49.2400 755.0000 1.0000
49.2500 792.0000 1.0000
49.2600 737.0000 1.0000
49.2700 769.0000 1.0000
49.2800 782.0000 1.0000
49.2900 747.0000 1.0000
49.3000 744.0000 1.0000
49.3100 709.0000 1.0000
49.3200 786.0000 1.0000
49.3300 755.0000 1.0000
49.3400 767.0000 1.0000
49.3500 742.0000 1.0000
49.3600 752.0000 1.0000
49.3700 778.0000 1.0000
49.3800 723.0000 1.0000
49.3900 754.0000 1.0000
49.4000 778.0000 1.0000
49.4100 778.0000 1.0000
49.4200 759.0000 1.0000
49.4300 731.0000 1.0000
49.4400 729.0000 1.0000
49.4500 728.0000 1.0000
49.4600 769.0000 1.0000
49.4700 776.0000 1.0000
49.4800 767.0000 1.0000
49.4900 771.0000 1.0000
49.5000 765.0000 1.0000
49.5100 778.0000 1.0000
49.5200 741.0000 1.0000
49.5300 751.0000 1.0000
49.5400 760.0000 1.0000
49.5500 758.0000 1.0000
49.5600 773.0000 1.0000
49.5700 768.0000 1.0000
49.5800 784.0000 1.0000
49.5900 760.0000 1.0000
49.6000 750.0000 1.0000
49.6100 797.0000 1.0000
49.6200 780.0000 1.0000
49.6300 740.0000 1.0000
49.6400 719.0000 1.0000
49.6500 738.0000 1.0000
49.6600 787.0000 1.0000
49.6700 762.0000 1.0000
49.6800 802.0000 1.0000
49.6900 773.0000 1.0000
49.7000 797.0000 1.0000
49.7100 759.0000 1.0000
49.7200 790.0000 1.0000
49.7300 781.0000 1.0000
49.7400 787.0000 1.0000
49.7500 770.0000 1.0000
49.7600 757.0000 1.0000
49.7700 777.0000 1.0000
49.7800 756.0000 1.0000
49.7900 773.0000 1.0000
49.8000 738.0000 1.0000
49.8100 768.0000 1.0000
49.8200 751.0000 1.0000
49.8300 754.0000 1.0000
49.8400 790.0000 1.0000
49.8500 758.0000 1.0000
49.8600 797.0000 1.0000
49.8700 770.0000 1.0000
49.8800 769.0000 1.0000
49.8900 791.0000 1.0000
49.9000 767.0000 1.0000
49.9100 763.0000 1.0000
49.9200 765.0000 1.0000
49.9300 772.0000 1.0000
49.9400 818.0000 1.0000
49.9500 768.0000 1.0000
49.9600 821.0000 1.0000
49.9700 763.0000 1.0000
49.9800 757.0000 1.0000
49.9900 771.0000 1.0000
50.0000 756.0000 1.0000
50.0100 741.0000 1.0000
50.0200 730.0000 1.0000
50.0300 781.0000 1.0000
50.0400 808.0000 1.0000
50.0500 775.0000 1.0000
50.0600 786.0000 1.0000
50.0700 745.0000 1.0000
50.0800 786.0000 1.0000
50.0900 757.0000 1.0000
50.1000 775.0000 1.0000
50.1100 800.0000 1.0000
50.1200 750.0000 1.0000
50.1300 759.0000 1.0000
50.1400 796.0000 1.0000
50.1500 783.0000 1.0000
50.1600 791.0000 1.0000
50.1700 777.0000 1.0000
50.1800 802.0000 1.0000
50.1900 786.0000 1.0000
50.2000 768.0000 1.0000
50.2100 781.0000 1.0000
50.2200 791.0000 1.0000
50.2300 814.0000 1.0000
50.2400 830.0000 1.0000
50.2500 774.0000 1.0000
50.2600 787.0000 1.0000
50.2700 807.0000 1.0000
50.2800 785.0000 1.0000
50.2900 808.0000 1.0000
50.3000 840.0000 1.0000
50.3100 788.0000 1.0000
50.3200 782.0000 1.0000
50.3300 816.0000 1.0000
50.3400 785.0000 1.0000
50.3500 749.0000 1.0000
50.3600 773.0000 1.0000
50.3700 777.0000 1.0000
50.3800 799.0000 1.0000
50.3900 797.0000 1.0000
50.4000 774.0000 1.0000
50.4100 770.0000 1.0000
50.4200 782.0000 1.0000
50.4300 801.0000 1.0000
50.4400 767.0000 1.0000
50.4500 758.0000 1.0000
50.4600 806.0000 1.0000
50.4700 806.0000 1.0000
50.4800 793.0000 1.0000
50.4900 793.0000 1.0000
50.5000 779.0000 1.0000
50.5100 803.0000 1.0000
50.5200 795.0000 1.0000
50.5300 808.0000 1.0000
50.5400 793.0000 1.0000
50.5500 753.0000 1.0000
50.5600 755.0000 1.0000
50.5700 792.0000 1.0000
50.5800 807.0000 1.0000
50.5900 827.0000 1.0000
50.6000 820.0000 1.0000
50.6100 812.0000 1.0000
50.6200 774.0000 1.0000
50.6300 749.0000 1.0000
50.6400 749.0000 1.0000
50.6500 750.0000 1.0000
50.6600 771.0000 1.0000
50.6700 802.0000 1.0000
50.6800 776.0000 1.0000
50.6900 789.0000 1.0000
50.7000 777.0000 1.0000
50.7100 711.0000 1.0000
50.7200 779.0000 1.0000
50.7300 744.0000 1.0000
50.7400 751.0000 1.0000
50.7500 758.0000 1.0000
50.7600 752.0000 1.0000
50.7700 757.0000 1.0000
50.7800 759.0000 1.0000
50.7900 802.0000 1.0000
50.8000 758.0000 1.0000
50.8100 772.0000 1.0000
50.8200 757.0000 1.0000
50.8300 791.0000 1.0000
50.8400 808.0000 1.0000
50.8500 787.0000 1.0000
50.8600 806.0000 1.0000
50.8700 749.0000 1.0000
50.8800 758.0000 1.0000
50.8900 774.0000 1.0000
50.9000 778.0000 1.0000
50.9100 777.0000 1.0000
50.9200 805.0000 1.0000
50.9300 809.0000 1.0000
50.9400 769.0000 1.0000
50.9500 760.0000 1.0000
50.9600 787.0000 1.0000
50.9700 754.0000 1.0000
50.9800 777.0000 1.0000
50.9900 755.0000 1.0000
51.0000 720.0000 1.0000
51.0100 745.0000 1.0000
51.0200 768.0000 1.0000
51.0300 805.0000 1.0000
51.0400 787.0000 1.0000
51.0500 782.0000 1.0000
51.0600 796.0000 1.0000
51.0700 770.0000 1.0000
51.0800 795.0000 1.0000
51.0900 739.0000 1.0000
51.1000 751.0000 1.0000
51.1100 789.0000 1.0000
51.1200 750.0000 1.0000
51.1300 754.0000 1.0000
51.1400 805.0000 1.0000
51.1500 767.0000 1.0000
51.1600 770.0000 1.0000
51.1700 732.0000 1.0000
51.1800 767.0000 1.0000
51.1900 715.0000 1.0000
51.2000 773.0000 1.0000
51.2100 749.0000 1.0000
51.2200 790.0000 1.0000
51.2300 787.0000 1.0000
51.2400 761.0000 1.0000
51.2500 789.0000 1.0000
51.2600 740.0000 1.0000
51.2700 775.0000 1.0000
51.2800 778.0000 1.0000
51.2900 791.0000 1.0000
51.3000 792.0000 1.0000
51.3100 775.0000 1.0000
51.3200 769.0000 1.0000
51.3300 786.0000 1.0000
51.3400 791.0000 1.0000
51.3500 847.0000 1.0000
51.3600 807.0000 1.0000
51.3700 785.0000 1.0000
51.3800 733.0000 1.0000
51.3900 769.0000 1.0000
51.4000 816.0000 1.0000
51.4100 803.0000 1.0000
51.4200 848.0000 1.0000
51.4300 809.0000 1.0000
51.4400 770.0000 1.0000
51.4500 799.0000 1.0000
51.4600 795.0000 1.0000
51.4700 771.0000 1.0000
51.4800 823.0000 1.0000
51.4900 816.0000 1.0000
51.5000 765.0000 1.0000
51.5100 777.0000 1.0000
51.5200 817.0000 1.0000
51.5300 789.0000 1.0000
51.5400 789.0000 1.0000
51.5500 806.0000 1.0000
51.5600 793.0000 1.0000
51.5700 835.0000 1.0000
51.5800 782.0000 1.0000
51.5900 776.0000 1.0000
51.6000 813.0000 1.0000
51.6100 810.0000 1.0000
51.6200 785.0000 1.0000
51.6300 781.0000 1.0000
51.6400 767.0000 1.0000
51.6500 792.0000 1.0000
51.6600 833.0000 1.0000
51.6700 849.0000 1.0000
51.6800 825.0000 1.0000
51.6900 772.0000 1.0000
51.7000 868.0000 1.0000
51.7100 854.0000 1.0000
51.7200 856.0000 1.0000
51.7300 814.0000 1.0000
51.7400 840.0000 1.0000
51.7500 827.0000 1.0000
51.7600 824.0000 1.0000
51.7700 849.0000 1.0000
51.7800 883.0000 1.0000
51.7900 883.0000 1.0000
51.8000 861.0000 1.0000
51.8100 891.0000 1.0000
51.8200 849.0000 1.0000
51.8300 873.0000 1.0000
51.8400 938.0000 1.0000
51.8500 895.0000 1.0000
51.8600 900.0000 1.0000
51.8700 910.0000 1.0000
51.8800 987.0000 1.0000
51.8900 943.0000 1.0000
51.9000 930.0000 1.0000
51.9100 1006.0000 1.0000
51.9200 1020.0000 1.0000
51.9300 1013.0000 1.0000
51.9400 1018.0000 1.0000
51.9500 1021.0000 1.0000
51.9600 1060.0000 1.0000
51.9700 1146.0000 1.0000
51.9800 1144.0000 1.0000
51.9900 1180.0000 1.0000
52.0000 1239.0000 1.0000
52.0100 1263.0000 1.0000
52.0200 1281.0000 1.0000
52.0300 1385.0000 1.0000
52.0400 1400.0000 1.0000
52.0500 1451.0000 1.0000
52.0600 1444.0000 1.0000
52.0700 1514.0000 1.0000
52.0800 1659.0000 1.0000
52.0900 1649.0000 1.0000
52.1000 1843.0000 1.0000
52.1100 1928.0000 1.0000
52.1200 2071.0000 1.0000
52.1300 2248.0000 1.0000
52.1400 2385.0000 1.0000
52.1500 2577.0000 1.0000
52.1600 2783.0000 1.0000
52.1700 2962.0000 1.0000
52.1800 3221.0000 1.0000
52.1900 3477.0000 1.0000
52.2000 3717.0000 1.0000
52.2100 3998.0000 1.0000
52.2200 4287.0000 1.0000
52.2300 4519.0000 1.0000
52.2400 4682.0000 1.0000
52.2500 4866.0000 1.0000
52.2600 5112.0000 1.0000
52.2700 5089.0000 1.0000
52.2800 5125.0000 1.0000
52.2900 5031.0000 1.0000
52.3000 4834.0000 1.0000
52.3100 4771.0000 1.0000
52.3200 4720.0000 1.0000
52.3300 4520.0000 1.0000
52.3400 4397.0000 1.0000
52.3500 4155.0000 1.0000
52.3600 4086.0000 1.0000
52.3700 3907.0000 1.0000
52.3800 4049.0000 1.0000
52.3900 3867.0000 1.0000
52.4000 3822.0000 1.0000
52.4100 3680.0000 1.0000
52.4200 3457.0000 1.0000
52.4300 3215.0000 1.0000
52.4400 3112.0000 1.0000
52.4500 2982.0000 1.0000
52.4600 2790.0000 1.0000
52.4700 2522.0000 1.0000
52.4800 2421.0000 1.0000
52.4900 2236.0000 1.0000
52.5000 2034.0000 1.0000
52.5100 1979.0000 1.0000
52.5200 1917.0000 1.0000
52.5300 1720.0000 1.0000
52.5400 1693.0000 1.0000
52.5500 1549.0000 1.0000
52.5600 1549.0000 1.0000
52.5700 1475.0000 1.0000
52.5800 1352.0000 1.0000
52.5900 1323.0000 1.0000
52.6000 1364.0000 1.0000
52.6100 1258.0000 1.0000
52.6200 1236.0000 1.0000
52.6300 1179.0000 1.0000
52.6400 1139.0000 1.0000
52.6500 1094.0000 1.0000
52.6600 1149.0000 1.0000
52.6700 1092.0000 1.0000
52.6800 1049.0000 1.0000
52.6900 1022.0000 1.0000
52.7000 1070.0000 1.0000
52.7100 1005.0000 1.0000
52.7200 981.0000 1.0000
52.7300 973.0000 1.0000
52.7400 950.0000 1.0000
52.7500 962.0000 1.0000
52.7600 915.0000 1.0000
52.7700 901.0000 1.0000
52.7800 901.0000 1.0000
52.7900 865.0000 1.0000
52.8000 907.0000 1.0000
52.8100 912.0000 1.0000
52.8200 849.0000 1.0000
52.8300 880.0000 1.0000
52.8400 884.0000 1.0000
52.8500 831.0000 1.0000
52.8600 863.0000 1.0000
52.8700 889.0000 1.0000
52.8800 871.0000 1.0000
52.8900 873.0000 1.0000
52.9000 835.0000 1.0000
52.9100 835.0000 1.0000
52.9200 833.0000 1.0000
52.9300 861.0000 1.0000
52.9400 831.0000 1.0000
52.9500 791.0000 1.0000
52.9600 857.0000 1.0000
52.9700 818.0000 1.0000
52.9800 795.0000 1.0000
52.9900 788.0000 1.0000
53.0000 808.0000 1.0000
53.0100 836.0000 1.0000
53.0200 817.0000 1.0000
53.0300 859.0000 1.0000
53.0400 791.0000 1.0000
53.0500 801.0000 1.0000
53.0600 828.0000 1.0000
53.0700 776.0000 1.0000
53.0800 807.0000 1.0000
53.0900 798.0000 1.0000
53.1000 780.0000 1.0000
53.1100 799.0000 1.0000
53.1200 768.0000 1.0000
53.1300 780.0000 1.0000
53.1400 864.0000 1.0000
53.1500 793.0000 1.0000
53.1600 751.0000 1.0000
53.1700 732.0000 1.0000
53.1800 737.0000 1.0000
53.1900 835.0000 1.0000
53.2000 771.0000 1.0000
53.2100 746.0000 1.0000
53.2200 776.0000 1.0000
53.2300 776.0000 1.0000
53.2400 783.0000 1.0000
53.2500 759.0000 1.0000
53.2600 823.0000 1.0000
53.2700 795.0000 1.0000
53.2800 770.0000 1.0000
53.2900 793.0000 1.0000
53.3000 810.0000 1.0000
53.3100 791.0000 1.0000
53.3200 730.0000 1.0000
53.3300 803.0000 1.0000
53.3400 788.0000 1.0000
53.3500 741.0000 1.0000
53.3600 784.0000 1.0000
53.3700 801.0000 1.0000
53.3800 769.0000 1.0000
53.3900 735.0000 1.0000
53.4000 777.0000 1.0000
53.4100 717.0000 1.0000
53.4200 757.0000 1.0000
53.4300 732.0000 1.0000
53.4400 764.0000 1.0000
53.4500 765.0000 1.0000
53.4600 749.0000 1.0000
53.4700 736.0000 1.0000
53.4800 780.0000 1.0000
53.4900 790.0000 1.0000
53.5000 751.0000 1.0000
53.5100 732.0000 1.0000
53.5200 766.0000 1.0000
53.5300 767.0000 1.0000
53.5400 783.0000 1.0000
53.5500 784.0000 1.0000
53.5600 823.0000 1.0000
53.5700 742.0000 1.0000
53.5800 741.0000 1.0000
53.5900 767.0000 1.0000
53.6000 751.0000 1.0000
53.6100 721.0000 1.0000
53.6200 730.0000 1.0000
53.6300 750.0000 1.0000
53.6400 697.0000 1.0000
53.6500 732.0000 1.0000
53.6600 745.0000 1.0000
53.6700 750.0000 1.0000
53.6800 767.0000 1.0000
53.6900 753.0000 1.0000
53.7000 744.0000 1.0000
53.7100 773.0000 1.0000
53.7200 752.0000 1.0000
53.7300 760.0000 1.0000
53.7400 747.0000 1.0000
53.7500 765.0000 1.0000
53.7600 749.0000 1.0000
53.7700 714.0000 1.0000
53.7800 731.0000 1.0000
53.7900 738.0000 1.0000
53.8000 716.0000 1.0000
53.8100 730.0000 1.0000
53.8200 729.0000 1.0000
53.8300 775.0000 1.0000
53.8400 735.0000 1.0000
53.8500 745.0000 1.0000
53.8600 772.0000 1.0000
53.8700 737.0000 1.0000
53.8800 774.0000 1.0000
53.8900 779.0000 1.0000
53.9000 739.0000 1.0000
53.9100 757.0000 1.0000
53.9200 748.0000 1.0000
53.9300 748.0000 1.0000
53.9400 720.0000 1.0000
53.9500 736.0000 1.0000
53.9600 752.0000 1.0000
53.9700 745.0000 1.0000
53.9800 733.0000 1.0000
53.9900 799.0000 1.0000
54.0000 758.0000 1.0000
54.0100 720.0000 1.0000
54.0200 732.0000 1.0000
54.0300 724.0000 1.0000
54.0400 745.0000 1.0000
54.0500 772.0000 1.0000
54.0600 799.0000 1.0000
54.0700 765.0000 1.0000
54.0800 774.0000 1.0000
54.0900 784.0000 1.0000
54.1000 776.0000 1.0000
54.1100 765.0000 1.0000
54.1200 731.0000 1.0000
54.1300 718.0000 1.0000
54.1400 749.0000 1.0000
54.1500 735.0000 1.0000
54.1600 758.0000 1.0000
54.1700 799.0000 1.0000
54.1800 761.0000 1.0000
54.1900 744.0000 1.0000
54.2000 712.0000 1.0000
54.2100 764.0000 1.0000
54.2200 759.0000 1.0000
54.2300 709.0000 1.0000
54.2400 695.0000 1.0000
54.2500 723.0000 1.0000
54.2600 756.0000 1.0000
54.2700 773.0000 1.0000
54.2800 747.0000 1.0000
54.2900 734.0000 1.0000
54.3000 756.0000 1.0000
54.3100 730.0000 1.0000
54.3200 757.0000 1.0000
54.3300 740.0000 1.0000
54.3400 735.0000 1.0000
54.3500 783.0000 1.0000
54.3600 738.0000 1.0000
54.3700 720.0000 1.0000
54.3800 755.0000 1.0000
54.3900 777.0000 1.0000
54.4000 754.0000 1.0000
54.4100 765.0000 1.0000
54.4200 729.0000 1.0000
54.4300 718.0000 1.0000
54.4400 720.0000 1.0000
54.4500 734.0000 1.0000
54.4600 729.0000 1.0000
54.4700 787.0000 1.0000
54.4800 759.0000 1.0000
54.4900 783.0000 1.0000
54.5000 779.0000 1.0000
54.5100 747.0000 1.0000
54.5200 778.0000 1.0000
54.5300 788.0000 1.0000
54.5400 791.0000 1.0000
54.5500 816.0000 1.0000
54.5600 750.0000 1.0000
54.5700 734.0000 1.0000
54.5800 737.0000 1.0000
54.5900 798.0000 1.0000
54.6000 767.0000 1.0000
54.6100 774.0000 1.0000
54.6200 810.0000 1.0000
54.6300 772.0000 1.0000
54.6400 731.0000 1.0000
54.6500 758.0000 1.0000
54.6600 840.0000 1.0000
54.6700 763.0000 1.0000
54.6800 748.0000 1.0000
54.6900 786.0000 1.0000
54.7000 775.0000 1.0000
54.7100 800.0000 1.0000
54.7200 800.0000 1.0000
54.7300 826.0000 1.0000
54.7400 774.0000 1.0000
54.7500 811.0000 1.0000
54.7600 838.0000 1.0000
54.7700 758.0000 1.0000
54.7800 848.0000 1.0000
54.7900 826.0000 1.0000
54.8000 784.0000 1.0000
54.8100 800.0000 1.0000
54.8200 815.0000 1.0000
54.8300 796.0000 1.0000
54.8400 835.0000 1.0000
54.8500 802.0000 1.0000
54.8600 837.0000 1.0000
54.8700 843.0000 1.0000
54.8800 816.0000 1.0000
54.8900 836.0000 1.0000
54.9000 817.0000 1.0000
54.9100 857.0000 1.0000
54.9200 778.0000 1.0000
54.9300 845.0000 1.0000
54.9400 822.0000 1.0000
54.9500 827.0000 1.0000
54.9600 818.0000 1.0000
54.9700 858.0000 1.0000
54.9800 812.0000 1.0000
54.9900 859.0000 1.0000
55.0000 854.0000 1.0000
55.0100 868.0000 1.0000
55.0200 847.0000 1.0000
55.0300 868.0000 1.0000
55.0400 838.0000 1.0000
55.0500 837.0000 1.0000
55.0600 859.0000 1.0000
55.0700 858.0000 1.0000
55.0800 808.0000 1.0000
55.0900 837.0000 1.0000
55.1000 851.0000 1.0000
55.1100 876.0000 1.0000
55.1200 899.0000 1.0000
55.1300 941.0000 1.0000
55.1400 945.0000 1.0000
55.1500 939.0000 1.0000
55.1600 970.0000 1.0000
55.1700 1001.0000 1.0000
55.1800 1066.0000 1.0000
55.1900 999.0000 1.0000
55.2000 1073.0000 1.0000
55.2100 1022.0000 1.0000
55.2200 1079.0000 1.0000
55.2300 1070.0000 1.0000
55.2400 1087.0000 1.0000
55.2500 1095.0000 1.0000
55.2600 1160.0000 1.0000
55.2700 1153.0000 1.0000
55.2800 1100.0000 1.0000
55.2900 1071.0000 1.0000
55.3000 1100.0000 1.0000
55.3100 1152.0000 1.0000
55.3200 1190.0000 1.0000
55.3300 1108.0000 1.0000
55.3400 1074.0000 1.0000
55.3500 1081.0000 1.0000
55.3600 1062.0000 1.0000
55.3700 1162.0000 1.0000
55.3800 1116.0000 1.0000
55.3900 1048.0000 1.0000
55.4000 1044.0000 1.0000
55.4100 1086.0000 1.0000
55.4200 1084.0000 1.0000
55.4300 1055.0000 1.0000
55.4400 1027.0000 1.0000
55.4500 996.0000 1.0000
55.4600 1004.0000 1.0000
55.4700 1001.0000 1.0000
55.4800 960.0000 1.0000
55.4900 969.0000 1.0000
55.5000 965.0000 1.0000
55.5100 902.0000 1.0000
55.5200 892.0000 1.0000
55.5300 916.0000 1.0000
55.5400 860.0000 1.0000
55.5500 893.0000 1.0000
55.5600 843.0000 1.0000
55.5700 850.0000 1.0000
55.5800 827.0000 1.0000
55.5900 849.0000 1.0000
55.6000 832.0000 1.0000
55.6100 798.0000 1.0000
55.6200 809.0000 1.0000
55.6300 804.0000 1.0000
55.6400 818.0000 1.0000
55.6500 786.0000 1.0000
55.6600 807.0000 1.0000
55.6700 777.0000 1.0000
55.6800 772.0000 1.0000
55.6900 779.0000 1.0000
55.7000 826.0000 1.0000
55.7100 765.0000 1.0000
55.7200 811.0000 1.0000
55.7300 784.0000 1.0000
55.7400 827.0000 1.0000
55.7500 780.0000 1.0000
55.7600 776.0000 1.0000
55.7700 737.0000 1.0000
55.7800 763.0000 1.0000
55.7900 760.0000 1.0000
55.8000 745.0000 1.0000
55.8100 754.0000 1.0000
55.8200 783.0000 1.0000
55.8300 752.0000 1.0000
55.8400 720.0000 1.0000
55.8500 748.0000 1.0000
55.8600 751.0000 1.0000
55.8700 715.0000 1.0000
55.8800 744.0000 1.0000
55.8900 723.0000 1.0000
55.9000 783.0000 1.0000
55.9100 720.0000 1.0000
55.9200 762.0000 1.0000
55.9300 722.0000 1.0000
55.9400 747.0000 1.0000
55.9500 749.0000 1.0000
55.9600 744.0000 1.0000
55.9700 744.0000 1.0000
55.9800 798.0000 1.0000
55.9900 791.0000 1.0000
56.0000 742.0000 1.0000
56.0100 768.0000 1.0000
56.0200 741.0000 1.0000
56.0300 765.0000 1.0000
56.0400 747.0000 1.0000
56.0500 744.0000 1.0000
56.0600 713.0000 1.0000
56.0700 742.0000 1.0000
56.0800 771.0000 1.0000
56.0900 755.0000 1.0000
56.1000 743.0000 1.0000
56.1100 725.0000 1.0000
56.1200 741.0000 1.0000
56.1300 740.0000 1.0000
56.1400 715.0000 1.0000
56.1500 732.0000 1.0000
56.1600 744.0000 1.0000
56.1700 776.0000 1.0000
56.1800 722.0000 1.0000
56.1900 695.0000 1.0000
56.2000 701.0000 1.0000
56.2100 680.0000 1.0000
56.2200 739.0000 1.0000
56.2300 703.0000 1.0000
56.2400 730.0000 1.0000
56.2500 702.0000 1.0000
56.2600 729.0000 1.0000
56.2700 718.0000 1.0000
56.2800 736.0000 1.0000
56.2900 761.0000 1.0000
56.3000 718.0000 1.0000
56.3100 713.0000 1.0000
56.3200 722.0000 1.0000
56.3300 778.0000 1.0000
56.3400 745.0000 1.0000
56.3500 706.0000 1.0000
56.3600 739.0000 1.0000
56.3700 718.0000 1.0000
56.3800 710.0000 1.0000
56.3900 688.0000 1.0000
56.4000 730.0000 1.0000
56.4100 765.0000 1.0000
56.4200 738.0000 1.0000
56.4300 748.0000 1.0000
56.4400 744.0000 1.0000
56.4500 710.0000 1.0000
56.4600 731.0000 1.0000
56.4700 704.0000 1.0000
56.4800 703.0000 1.0000
56.4900 699.0000 1.0000
56.5000 676.0000 1.0000
56.5100 678.0000 1.0000
56.5200 700.0000 1.0000
56.5300 691.0000 1.0000
56.5400 694.0000 1.0000
56.5500 751.0000 1.0000
56.5600 716.0000 1.0000
56.5700 754.0000 1.0000
56.5800 750.0000 1.0000
56.5900 708.0000 1.0000
56.6000 715.0000 1.0000
56.6100 739.0000 1.0000
56.6200 708.0000 1.0000
56.6300 740.0000 1.0000
56.6400 712.0000 1.0000
56.6500 729.0000 1.0000
56.6600 687.0000 1.0000
56.6700 762.0000 1.0000
56.6800 750.0000 1.0000
56.6900 723.0000 1.0000
56.7000 728.0000 1.0000
56.7100 739.0000 1.0000
56.7200 720.0000 1.0000
56.7300 770.0000 1.0000
56.7400 761.0000 1.0000
56.7500 756.0000 1.0000
56.7600 708.0000 1.0000
56.7700 749.0000 1.0000
56.7800 724.0000 1.0000
56.7900 739.0000 1.0000
56.8000 731.0000 1.0000
56.8100 750.0000 1.0000
56.8200 738.0000 1.0000
56.8300 724.0000 1.0000
56.8400 770.0000 1.0000
56.8500 728.0000 1.0000
56.8600 729.0000 1.0000
56.8700 783.0000 1.0000
56.8800 731.0000 1.0000
56.8900 690.0000 1.0000
56.9000 711.0000 1.0000
56.9100 712.0000 1.0000
56.9200 697.0000 1.0000
56.9300 706.0000 1.0000
56.9400 746.0000 1.0000
56.9500 722.0000 1.0000
56.9600 725.0000 1.0000
56.9700 764.0000 1.0000
56.9800 706.0000 1.0000
56.9900 717.0000 1.0000
57.0000 693.0000 1.0000
57.0100 742.0000 1.0000
57.0200 747.0000 1.0000
57.0300 719.0000 1.0000
57.0400 695.0000 1.0000
57.0500 713.0000 1.0000
57.0600 716.0000 1.0000
57.0700 748.0000 1.0000
57.0800 764.0000 1.0000
57.0900 720.0000 1.0000
57.1000 732.0000 1.0000
57.1100 710.0000 1.0000
57.1200 712.0000 1.0000
57.1300 694.0000 1.0000
57.1400 695.0000 1.0000
57.1500 736.0000 1.0000
57.1600 737.0000 1.0000
57.1700 709.0000 1.0000
57.1800 745.0000 1.0000
57.1900 724.0000 1.0000
57.2000 678.0000 1.0000
57.2100 728.0000 1.0000
57.2200 725.0000 1.0000
57.2300 708.0000 1.0000
57.2400 708.0000 1.0000
57.2500 716.0000 1.0000
57.2600 735.0000 1.0000
57.2700 674.0000 1.0000
57.2800 710.0000 1.0000
57.2900 757.0000 1.0000
57.3000 733.0000 1.0000
57.3100 752.0000 1.0000
57.3200 708.0000 1.0000
57.3300 682.0000 1.0000
57.3400 731.0000 1.0000
57.3500 742.0000 1.0000
57.3600 751.0000 1.0000
57.3700 717.0000 1.0000
57.3800 728.0000 1.0000
57.3900 759.0000 1.0000
57.4000 788.0000 1.0000
57.4100 685.0000 1.0000
57.4200 666.0000 1.0000
57.4300 704.0000 1.0000
57.4400 722.0000 1.0000
57.4500 761.0000 1.0000
57.4600 700.0000 1.0000
57.4700 696.0000 1.0000
57.4800 741.0000 1.0000
57.4900 699.0000 1.0000
57.5000 716.0000 1.0000
57.5100 736.0000 1.0000
57.5200 709.0000 1.0000
57.5300 691.0000 1.0000
57.5400 705.0000 1.0000
57.5500 702.0000 1.0000
57.5600 711.0000 1.0000
57.5700 710.0000 1.0000
57.5800 717.0000 1.0000
57.5900 716.0000 1.0000
57.6000 691.0000 1.0000
57.6100 726.0000 1.0000
57.6200 732.0000 1.0000
57.6300 711.0000 1.0000
57.6400 710.0000 1.0000
57.6500 725.0000 1.0000
57.6600 686.0000 1.0000
57.6700 701.0000 1.0000
57.6800 705.0000 1.0000
57.6900 709.0000 1.0000
57.7000 718.0000 1.0000
57.7100 698.0000 1.0000
57.7200 706.0000 1.0000
57.7300 695.0000 1.0000
57.7400 746.0000 1.0000
57.7500 711.0000 1.0000
57.7600 735.0000 1.0000
57.7700 724.0000 1.0000
57.7800 725.0000 1.0000
57.7900 742.0000 1.0000
57.8000 716.0000 1.0000
57.8100 705.0000 1.0000
57.8200 721.0000 1.0000
57.8300 745.0000 1.0000
57.8400 763.0000 1.0000
57.8500 715.0000 1.0000
57.8600 711.0000 1.0000
57.8700 727.0000 1.0000
57.8800 736.0000 1.0000
57.8900 703.0000 1.0000
57.9000 703.0000 1.0000
57.9100 739.0000 1.0000
57.9200 673.0000 1.0000
57.9300 710.0000 1.0000
57.9400 704.0000 1.0000
57.9500 701.0000 1.0000
57.9600 700.0000 1.0000
57.9700 718.0000 1.0000
57.9800 779.0000 1.0000
57.9900 749.0000 1.0000
58.0000 690.0000 1.0000
58.0100 705.0000 1.0000
58.0200 726.0000 1.0000
58.0300 740.0000 1.0000
58.0400 721.0000 1.0000
58.0500 729.0000 1.0000
58.0600 729.0000 1.0000
58.0700 766.0000 1.0000
58.0800 773.0000 1.0000
58.0900 746.0000 1.0000
58.1000 735.0000 1.0000
58.1100 747.0000 1.0000
58.1200 754.0000 1.0000
58.1300 757.0000 1.0000
58.1400 700.0000 1.0000
58.1500 726.0000 1.0000
58.1600 780.0000 1.0000
58.1700 742.0000 1.0000
58.1800 762.0000 1.0000
58.1900 740.0000 1.0000
58.2000 717.0000 1.0000
58.2100 743.0000 1.0000
58.2200 734.0000 1.0000
58.2300 752.0000 1.0000
58.2400 738.0000 1.0000
58.2500 752.0000 1.0000
58.2600 744.0000 1.0000
58.2700 766.0000 1.0000
58.2800 721.0000 1.0000
58.2900 745.0000 1.0000
58.3000 787.0000 1.0000
58.3100 745.0000 1.0000
58.3200 760.0000 1.0000
58.3300 752.0000 1.0000
58.3400 719.0000 1.0000
58.3500 727.0000 1.0000
58.3600 786.0000 1.0000
58.3700 723.0000 1.0000
58.3800 721.0000 1.0000
58.3900 729.0000 1.0000
58.4000 704.0000 1.0000
58.4100 730.0000 1.0000
58.4200 692.0000 1.0000
58.4300 739.0000 1.0000
58.4400 704.0000 1.0000
58.4500 726.0000 1.0000
58.4600 697.0000 1.0000
58.4700 698.0000 1.0000
58.4800 698.0000 1.0000
58.4900 767.0000 1.0000
58.5000 717.0000 1.0000
58.5100 719.0000 1.0000
58.5200 734.0000 1.0000
58.5300 736.0000 1.0000
58.5400 735.0000 1.0000
58.5500 731.0000 1.0000
58.5600 735.0000 1.0000
58.5700 753.0000 1.0000
58.5800 701.0000 1.0000
58.5900 695.0000 1.0000
58.6000 726.0000 1.0000
58.6100 688.0000 1.0000
58.6200 691.0000 1.0000
58.6300 693.0000 1.0000
58.6400 716.0000 1.0000
58.6500 722.0000 1.0000
58.6600 729.0000 1.0000
58.6700 696.0000 1.0000
58.6800 712.0000 1.0000
58.6900 732.0000 1.0000
58.7000 720.0000 1.0000
58.7100 673.0000 1.0000
58.7200 722.0000 1.0000
58.7300 769.0000 1.0000
58.7400 766.0000 1.0000
58.7500 730.0000 1.0000
58.7600 713.0000 1.0000
58.7700 694.0000 1.0000
58.7800 689.0000 1.0000
58.7900 688.0000 1.0000
58.8000 713.0000 1.0000
58.8100 716.0000 1.0000
58.8200 730.0000 1.0000
58.8300 685.0000 1.0000
58.8400 748.0000 1.0000
58.8500 707.0000 1.0000
58.8600 718.0000 1.0000
58.8700 702.0000 1.0000
58.8800 774.0000 1.0000
58.8900 695.0000 1.0000
58.9000 693.0000 1.0000
58.9100 671.0000 1.0000
58.9200 735.0000 1.0000
58.9300 745.0000 1.0000
58.9400 703.0000 1.0000
58.9500 690.0000 1.0000
58.9600 728.0000 1.0000
58.9700 731.0000 1.0000
58.9800 714.0000 1.0000
58.9900 703.0000 1.0000
59.0000 712.0000 1.0000
59.0100 678.0000 1.0000
59.0200 743.0000 1.0000
59.0300 708.0000 1.0000
59.0400 703.0000 1.0000
59.0500 730.0000 1.0000
59.0600 706.0000 1.0000
59.0700 708.0000 1.0000
59.0800 678.0000 1.0000
59.0900 693.0000 1.0000
59.1000 722.0000 1.0000
59.1100 701.0000 1.0000
59.1200 718.0000 1.0000
59.1300 712.0000 1.0000
59.1400 713.0000 1.0000
59.1500 774.0000 1.0000
59.1600 717.0000 1.0000
59.1700 735.0000 1.0000
59.1800 741.0000 1.0000
59.1900 731.0000 1.0000
59.2000 712.0000 1.0000
59.2100 701.0000 1.0000
59.2200 689.0000 1.0000
59.2300 693.0000 1.0000
59.2400 751.0000 1.0000
59.2500 738.0000 1.0000
59.2600 747.0000 1.0000
59.2700 736.0000 1.0000
59.2800 698.0000 1.0000
59.2900 770.0000 1.0000
59.3000 762.0000 1.0000
59.3100 715.0000 1.0000
59.3200 724.0000 1.0000
59.3300 743.0000 1.0000
59.3400 724.0000 1.0000
59.3500 757.0000 1.0000
59.3600 750.0000 1.0000
59.3700 718.0000 1.0000
59.3800 712.0000 1.0000
59.3900 712.0000 1.0000
59.4000 727.0000 1.0000
59.4100 728.0000 1.0000
59.4200 750.0000 1.0000
59.4300 709.0000 1.0000
59.4400 749.0000 1.0000
59.4500 747.0000 1.0000
59.4600 741.0000 1.0000
59.4700 736.0000 1.0000
59.4800 735.0000 1.0000
59.4900 721.0000 1.0000
59.5000 726.0000 1.0000
59.5100 664.0000 1.0000
59.5200 765.0000 1.0000
59.5300 745.0000 1.0000
59.5400 691.0000 1.0000
59.5500 688.0000 1.0000
59.5600 696.0000 1.0000
59.5700 745.0000 1.0000
59.5800 678.0000 1.0000
59.5900 717.0000 1.0000
59.6000 706.0000 1.0000
59.6100 708.0000 1.0000
59.6200 725.0000 1.0000
59.6300 747.0000 1.0000
59.6400 717.0000 1.0000
59.6500 729.0000 1.0000
59.6600 711.0000 1.0000
59.6700 712.0000 1.0000
59.6800 698.0000 1.0000
59.6900 707.0000 1.0000
59.7000 689.0000 1.0000
59.7100 707.0000 1.0000
59.7200 673.0000 1.0000
59.7300 731.0000 1.0000
59.7400 695.0000 1.0000
59.7500 678.0000 1.0000
59.7600 727.0000 1.0000
59.7700 685.0000 1.0000
59.7800 671.0000 1.0000
59.7900 732.0000 1.0000
59.8000 711.0000 1.0000
59.8100 717.0000 1.0000
59.8200 702.0000 1.0000
59.8300 682.0000 1.0000
59.8400 679.0000 1.0000
59.8500 699.0000 1.0000
59.8600 699.0000 1.0000
59.8700 730.0000 1.0000
59.8800 725.0000 1.0000
59.8900 688.0000 1.0000
59.9000 679.0000 1.0000
59.9100 703.0000 1.0000
59.9200 728.0000 1.0000
59.9300 702.0000 1.0000
59.9400 659.0000 1.0000
59.9500 730.0000 1.0000
59.9600 666.0000 1.0000
59.9700 684.0000 1.0000
59.9800 753.0000 1.0000
59.9900 722.0000 1.0000
60.0000 717.0000 1.0000
60.0100 735.0000 1.0000
60.0200 723.0000 1.0000
60.0300 710.0000 1.0000
60.0400 721.0000 1.0000
60.0500 695.0000 1.0000
60.0600 683.0000 1.0000
60.0700 721.0000 1.0000
60.0800 714.0000 1.0000
60.0900 701.0000 1.0000
60.1000 673.0000 1.0000
60.1100 665.0000 1.0000
60.1200 689.0000 1.0000
60.1300 680.0000 1.0000
60.1400 655.0000 1.0000
60.1500 717.0000 1.0000
60.1600 688.0000 1.0000
60.1700 718.0000 1.0000
60.1800 726.0000 1.0000
60.1900 697.0000 1.0000
60.2000 687.0000 1.0000
60.2100 725.0000 1.0000
60.2200 749.0000 1.0000
60.2300 785.0000 1.0000
60.2400 713.0000 1.0000
60.2500 693.0000 1.0000
60.2600 682.0000 1.0000
60.2700 670.0000 1.0000
60.2800 707.0000 1.0000
60.2900 707.0000 1.0000
60.3000 700.0000 1.0000
60.3100 717.0000 1.0000
60.3200 699.0000 1.0000
60.3300 711.0000 1.0000
60.3400 726.0000 1.0000
60.3500 707.0000 1.0000
60.3600 731.0000 1.0000
60.3700 719.0000 1.0000
60.3800 677.0000 1.0000
60.3900 729.0000 1.0000
60.4000 676.0000 1.0000
60.4100 691.0000 1.0000
60.4200 682.0000 1.0000
60.4300 729.0000 1.0000
60.4400 705.0000 1.0000
60.4500 712.0000 1.0000
60.4600 699.0000 1.0000
60.4700 696.0000 1.0000
60.4800 726.0000 1.0000
60.4900 683.0000 1.0000
60.5000 730.0000 1.0000
60.5100 719.0000 1.0000
60.5200 668.0000 1.0000
60.5300 680.0000 1.0000
60.5400 744.0000 1.0000
60.5500 700.0000 1.0000
60.5600 705.0000 1.0000
60.5700 697.0000 1.0000
60.5800 714.0000 1.0000
60.5900 767.0000 1.0000
60.6000 738.0000 1.0000
60.6100 694.0000 1.0000
60.6200 700.0000 1.0000
60.6300 706.0000 1.0000
60.6400 741.0000 1.0000
60.6500 698.0000 1.0000
60.6600 680.0000 1.0000
60.6700 713.0000 1.0000
60.6800 643.0000 1.0000
60.6900 690.0000 1.0000
60.7000 680.0000 1.0000
60.7100 688.0000 1.0000
60.7200 736.0000 1.0000
60.7300 693.0000 1.0000
60.7400 722.0000 1.0000
60.7500 757.0000 1.0000
60.7600 730.0000 1.0000
60.7700 726.0000 1.0000
60.7800 684.0000 1.0000
60.7900 730.0000 1.0000
60.8000 737.0000 1.0000
60.8100 703.0000 1.0000
60.8200 676.0000 1.0000
60.8300 693.0000 1.0000
60.8400 707.0000 1.0000
60.8500 691.0000 1.0000
60.8600 726.0000 1.0000
60.8700 719.0000 1.0000
60.8800 708.0000 1.0000
60.8900 723.0000 1.0000
60.9000 727.0000 1.0000
60.9100 694.0000 1.0000
60.9200 746.0000 1.0000
60.9300 730.0000 1.0000
60.9400 740.0000 1.0000
60.9500 713.0000 1.0000
60.9600 691.0000 1.0000
60.9700 697.0000 1.0000
60.9800 729.0000 1.0000
60.9900 669.0000 1.0000
61.0000 699.0000 1.0000
61.0100 689.0000 1.0000
61.0200 724.0000 1.0000
61.0300 700.0000 1.0000
61.0400 747.0000 1.0000
61.0500 730.0000 1.0000
61.0600 735.0000 1.0000
61.0700 713.0000 1.0000
61.0800 715.0000 1.0000
61.0900 725.0000 1.0000
61.1000 723.0000 1.0000
61.1100 702.0000 1.0000
61.1200 737.0000 1.0000
61.1300 698.0000 1.0000
61.1400 718.0000 1.0000
61.1500 749.0000 1.0000
61.1600 713.0000 1.0000
61.1700 710.0000 1.0000
61.1800 668.0000 1.0000
61.1900 694.0000 1.0000
61.2000 725.0000 1.0000
61.2100 718.0000 1.0000
61.2200 727.0000 1.0000
61.2300 720.0000 1.0000
61.2400 761.0000 1.0000
61.2500 739.0000 1.0000
61.2600 777.0000 1.0000
61.2700 724.0000 1.0000
61.2800 753.0000 1.0000
61.2900 787.0000 1.0000
61.3000 744.0000 1.0000
61.3100 704.0000 1.0000
61.3200 742.0000 1.0000
61.3300 732.0000 1.0000
61.3400 696.0000 1.0000
61.3500 713.0000 1.0000
61.3600 726.0000 1.0000
61.3700 699.0000 1.0000
61.3800 725.0000 1.0000
61.3900 757.0000 1.0000
61.4000 732.0000 1.0000
61.4100 751.0000 1.0000
61.4200 715.0000 1.0000
61.4300 700.0000 1.0000
61.4400 770.0000 1.0000
61.4500 737.0000 1.0000
61.4600 754.0000 1.0000
61.4700 747.0000 1.0000
61.4800 743.0000 1.0000
61.4900 781.0000 1.0000
61.5000 718.0000 1.0000
61.5100 731.0000 1.0000
61.5200 755.0000 1.0000
61.5300 748.0000 1.0000
61.5400 716.0000 1.0000
61.5500 738.0000 1.0000
61.5600 777.0000 1.0000
61.5700 774.0000 1.0000
61.5800 791.0000 1.0000
61.5900 741.0000 1.0000
61.6000 722.0000 1.0000
61.6100 745.0000 1.0000
61.6200 755.0000 1.0000
61.6300 776.0000 1.0000
61.6400 744.0000 1.0000
61.6500 753.0000 1.0000
61.6600 681.0000 1.0000
61.6700 747.0000 1.0000
61.6800 785.0000 1.0000
61.6900 775.0000 1.0000
61.7000 744.0000 1.0000
61.7100 739.0000 1.0000
61.7200 717.0000 1.0000
61.7300 757.0000 1.0000
61.7400 742.0000 1.0000
61.7500 774.0000 1.0000
61.7600 778.0000 1.0000
61.7700 786.0000 1.0000
61.7800 825.0000 1.0000
61.7900 808.0000 1.0000
61.8000 812.0000 1.0000
61.8100 787.0000 1.0000
61.8200 808.0000 1.0000
61.8300 784.0000 1.0000
61.8400 795.0000 1.0000
61.8500 779.0000 1.0000
61.8600 787.0000 1.0000
61.8700 777.0000 1.0000
61.8800 834.0000 1.0000
61.8900 809.0000 1.0000
61.9000 822.0000 1.0000
61.9100 837.0000 1.0000
61.9200 802.0000 1.0000
61.9300 826.0000 1.0000
61.9400 860.0000 1.0000
61.9500 933.0000 1.0000
61.9600 882.0000 1.0000
61.9700 881.0000 1.0000
61.9800 933.0000 1.0000
61.9900 882.0000 1.0000
62.0000 944.0000 1.0000
62.0100 979.0000 1.0000
62.0200 975.0000 1.0000
62.0300 978.0000 1.0000
62.0400 1017.0000 1.0000
62.0500 1028.0000 1.0000
62.0600 1032.0000 1.0000
62.0700 1073.0000 1.0000
62.0800 1080.0000 1.0000
62.0900 1081.0000 1.0000
62.1000 1121.0000 1.0000
62.1100 1182.0000 1.0000
62.1200 1201.0000 1.0000
62.1300 1176.0000 1.0000
62.1400 1281.0000 1.0000
62.1500 1303.0000 1.0000
62.1600 1310.0000 1.0000
62.1700 1364.0000 1.0000
62.1800 1393.0000 1.0000
62.1900 1438.0000 1.0000
62.2000 1452.0000 1.0000
62.2100 1500.0000 1.0000
62.2200 1555.0000 1.0000
62.2300 1569.0000 1.0000
62.2400 1636.0000 1.0000
62.2500 1592.0000 1.0000
62.2600 1619.0000 1.0000
62.2700 1664.0000 1.0000
62.2800 1729.0000 1.0000
62.2900 1684.0000 1.0000
62.3000 1696.0000 1.0000
62.3100 1705.0000 1.0000
62.3200 1696.0000 1.0000
62.3300 1704.0000 1.0000
62.3400 1731.0000 1.0000
62.3500 1691.0000 1.0000
62.3600 1740.0000 1.0000
62.3700 1704.0000 1.0000
62.3800 1737.0000 1.0000
62.3900 1673.0000 1.0000
62.4000 1580.0000 1.0000
62.4100 1616.0000 1.0000
62.4200 1599.0000 1.0000
62.4300 1544.0000 1.0000
62.4400 1586.0000 1.0000
62.4500 1567.0000 1.0000
62.4600 1487.0000 1.0000
62.4700 1517.0000 1.0000
62.4800 1495.0000 1.0000
62.4900 1400.0000 1.0000
62.5000 1312.0000 1.0000
62.5100 1339.0000 1.0000
62.5200 1308.0000 1.0000
62.5300 1327.0000 1.0000
62.5400 1280.0000 1.0000
62.5500 1282.0000 1.0000
62.5600 1239.0000 1.0000
62.5700 1183.0000 1.0000
62.5800 1160.0000 1.0000
62.5900 1191.0000 1.0000
62.6000 1152.0000 1.0000
62.6100 1116.0000 1.0000
62.6200 1123.0000 1.0000
62.6300 1113.0000 1.0000
62.6400 1058.0000 1.0000
62.6500 1007.0000 1.0000
62.6600 1013.0000 1.0000
62.6700 1003.0000 1.0000
62.6800 1009.0000 1.0000
62.6900 916.0000 1.0000
62.7000 961.0000 1.0000
62.7100 929.0000 1.0000
62.7200 898.0000 1.0000
62.7300 936.0000 1.0000
62.7400 899.0000 1.0000
62.7500 900.0000 1.0000
62.7600 893.0000 1.0000
62.7700 859.0000 1.0000
62.7800 844.0000 1.0000
62.7900 829.0000 1.0000
62.8000 855.0000 1.0000
62.8100 829.0000 1.0000
62.8200 867.0000 1.0000
62.8300 862.0000 1.0000
62.8400 836.0000 1.0000
62.8500 871.0000 1.0000
62.8600 815.0000 1.0000
62.8700 805.0000 1.0000
62.8800 831.0000 1.0000
62.8900 820.0000 1.0000
62.9000 776.0000 1.0000
62.9100 741.0000 1.0000
62.9200 789.0000 1.0000
62.9300 846.0000 1.0000
62.9400 800.0000 1.0000
62.9500 848.0000 1.0000
62.9600 848.0000 1.0000
62.9700 812.0000 1.0000
62.9800 781.0000 1.0000
62.9900 780.0000 1.0000
63.0000 865.0000 1.0000
63.0100 785.0000 1.0000
63.0200 801.0000 1.0000
63.0300 813.0000 1.0000
63.0400 826.0000 1.0000
63.0500 781.0000 1.0000
63.0600 825.0000 1.0000
63.0700 770.0000 1.0000
63.0800 767.0000 1.0000
63.0900 819.0000 1.0000
63.1000 795.0000 1.0000
63.1100 808.0000 1.0000
63.1200 804.0000 1.0000
63.1300 798.0000 1.0000
63.1400 799.0000 1.0000
63.1500 816.0000 1.0000
63.1600 800.0000 1.0000
63.1700 815.0000 1.0000
63.1800 807.0000 1.0000
63.1900 780.0000 1.0000
63.2000 787.0000 1.0000
63.2100 807.0000 1.0000
63.2200 765.0000 1.0000
63.2300 802.0000 1.0000
63.2400 766.0000 1.0000
63.2500 734.0000 1.0000
63.2600 774.0000 1.0000
63.2700 777.0000 1.0000
63.2800 751.0000 1.0000
63.2900 748.0000 1.0000
63.3000 768.0000 1.0000
63.3100 737.0000 1.0000
63.3200 743.0000 1.0000
63.3300 736.0000 1.0000
63.3400 695.0000 1.0000
63.3500 716.0000 1.0000
63.3600 758.0000 1.0000
63.3700 752.0000 1.0000
63.3800 759.0000 1.0000
63.3900 747.0000 1.0000
63.4000 744.0000 1.0000
63.4100 742.0000 1.0000
63.4200 703.0000 1.0000
63.4300 707.0000 1.0000
63.4400 744.0000 1.0000
63.4500 755.0000 1.0000
63.4600 722.0000 1.0000
63.4700 766.0000 1.0000
63.4800 718.0000 1.0000
63.4900 714.0000 1.0000
63.5000 717.0000 1.0000
63.5100 707.0000 1.0000
63.5200 706.0000 1.0000
63.5300 702.0000 1.0000
63.5400 705.0000 1.0000
63.5500 697.0000 1.0000
63.5600 746.0000 1.0000
63.5700 784.0000 1.0000
63.5800 746.0000 1.0000
63.5900 684.0000 1.0000
63.6000 733.0000 1.0000
63.6100 776.0000 1.0000
63.6200 730.0000 1.0000
63.6300 730.0000 1.0000
63.6400 746.0000 1.0000
63.6500 707.0000 1.0000
63.6600 697.0000 1.0000
63.6700 713.0000 1.0000
63.6800 734.0000 1.0000
63.6900 713.0000 1.0000
63.7000 719.0000 1.0000
63.7100 695.0000 1.0000
63.7200 701.0000 1.0000
63.7300 710.0000 1.0000
63.7400 736.0000 1.0000
63.7500 714.0000 1.0000
63.7600 741.0000 1.0000
63.7700 713.0000 1.0000
63.7800 720.0000 1.0000
63.7900 728.0000 1.0000
63.8000 727.0000 1.0000
63.8100 740.0000 1.0000
63.8200 741.0000 1.0000
63.8300 731.0000 1.0000
63.8400 705.0000 1.0000
63.8500 719.0000 1.0000
63.8600 741.0000 1.0000
63.8700 754.0000 1.0000
63.8800 701.0000 1.0000
63.8900 746.0000 1.0000
63.9000 698.0000 1.0000
63.9100 721.0000 1.0000
63.9200 707.0000 1.0000
63.9300 714.0000 1.0000
63.9400 738.0000 1.0000
63.9500 710.0000 1.0000
63.9600 737.0000 1.0000
63.9700 702.0000 1.0000
63.9800 743.0000 1.0000
63.9900 728.0000 1.0000
64.0000 688.0000 1.0000
64.0100 759.0000 1.0000
64.0200 740.0000 1.0000
64.0300 761.0000 1.0000
64.0400 760.0000 1.0000
64.0500 701.0000 1.0000
64.0600 717.0000 1.0000
64.0700 722.0000 1.0000
64.0800 686.0000 1.0000
64.0900 764.0000 1.0000
64.1000 700.0000 1.0000
64.1100 733.0000 1.0000
64.1200 692.0000 1.0000
64.1300 734.0000 1.0000
64.1400 741.0000 1.0000
64.1500 691.0000 1.0000
64.1600 724.0000 1.0000
64.1700 687.0000 1.0000
64.1800 715.0000 1.0000
64.1900 742.0000 1.0000
64.2000 708.0000 1.0000
64.2100 704.0000 1.0000
64.2200 674.0000 1.0000
64.2300 720.0000 1.0000
64.2400 748.0000 1.0000
64.2500 764.0000 1.0000
64.2600 701.0000 1.0000
64.2700 767.0000 1.0000
64.2800 729.0000 1.0000
64.2900 751.0000 1.0000
64.3000 757.0000 1.0000
64.3100 745.0000 1.0000
64.3200 752.0000 1.0000
64.3300 724.0000 1.0000
64.3400 725.0000 1.0000
64.3500 716.0000 1.0000
64.3600 672.0000 1.0000
64.3700 715.0000 1.0000
64.3800 760.0000 1.0000
64.3900 758.0000 1.0000
64.4000 711.0000 1.0000
64.4100 709.0000 1.0000
64.4200 770.0000 1.0000
64.4300 740.0000 1.0000
64.4400 702.0000 1.0000
64.4500 679.0000 1.0000
64.4600 711.0000 1.0000
64.4700 818.0000 1.0000
64.4800 773.0000 1.0000
64.4900 754.0000 1.0000
64.5000 787.0000 1.0000
64.5100 787.0000 1.0000
64.5200 787.0000 1.0000
64.5300 819.0000 1.0000
64.5400 803.0000 1.0000
64.5500 810.0000 1.0000
64.5600 838.0000 1.0000
64.5700 852.0000 1.0000
64.5800 802.0000 1.0000
64.5900 850.0000 1.0000
64.6000 836.0000 1.0000
64.6100 841.0000 1.0000
64.6200 844.0000 1.0000
64.6300 929.0000 1.0000
64.6400 880.0000 1.0000
64.6500 998.0000 1.0000
64.6600 979.0000 1.0000
64.6700 949.0000 1.0000
64.6800 959.0000 1.0000
64.6900 959.0000 1.0000
64.7000 977.0000 1.0000
64.7100 927.0000 1.0000
64.7200 911.0000 1.0000
64.7300 952.0000 1.0000
64.7400 916.0000 1.0000
64.7500 902.0000 1.0000
64.7600 885.0000 1.0000
64.7700 860.0000 1.0000
64.7800 825.0000 1.0000
64.7900 871.0000 1.0000
64.8000 854.0000 1.0000
64.8100 915.0000 1.0000
64.8200 887.0000 1.0000
64.8300 879.0000 1.0000
64.8400 886.0000 1.0000
64.8500 863.0000 1.0000
64.8600 868.0000 1.0000
64.8700 924.0000 1.0000
64.8800 857.0000 1.0000
64.8900 887.0000 1.0000
64.9000 877.0000 1.0000
64.9100 853.0000 1.0000
64.9200 833.0000 1.0000
64.9300 826.0000 1.0000
64.9400 831.0000 1.0000
64.9500 808.0000 1.0000
64.9600 862.0000 1.0000
64.9700 789.0000 1.0000
64.9800 789.0000 1.0000
64.9900 850.0000 1.0000
65.0000 778.0000 1.0000
65.0100 764.0000 1.0000
65.0200 799.0000 1.0000
65.0300 775.0000 1.0000
65.0400 777.0000 1.0000
65.0500 778.0000 1.0000
65.0600 718.0000 1.0000
65.0700 727.0000 1.0000
65.0800 762.0000 1.0000
65.0900 782.0000 1.0000
65.1000 735.0000 1.0000
65.1100 729.0000 1.0000
65.1200 728.0000 1.0000
65.1300 746.0000 1.0000
65.1400 721.0000 1.0000
65.1500 727.0000 1.0000
65.1600 805.0000 1.0000
65.1700 775.0000 1.0000
65.1800 761.0000 1.0000
65.1900 750.0000 1.0000
65.2000 720.0000 1.0000
65.2100 732.0000 1.0000
65.2200 756.0000 1.0000
65.2300 755.0000 1.0000
65.2400 730.0000 1.0000
65.2500 714.0000 1.0000
65.2600 749.0000 1.0000
65.2700 769.0000 1.0000
65.2800 726.0000 1.0000
65.2900 733.0000 1.0000
65.3000 734.0000 1.0000
65.3100 753.0000 1.0000
65.3200 748.0000 1.0000
65.3300 756.0000 1.0000
65.3400 732.0000 1.0000
65.3500 794.0000 1.0000
65.3600 783.0000 1.0000
65.3700 770.0000 1.0000
65.3800 742.0000 1.0000
65.3900 738.0000 1.0000
65.4000 696.0000 1.0000
65.4100 746.0000 1.0000
65.4200 732.0000 1.0000
65.4300 790.0000 1.0000
65.4400 757.0000 1.0000
65.4500 757.0000 1.0000
65.4600 787.0000 1.0000
65.4700 788.0000 1.0000
65.4800 745.0000 1.0000
65.4900 765.0000 1.0000
65.5000 766.0000 1.0000
65.5100 773.0000 1.0000
65.5200 775.0000 1.0000
65.5300 733.0000 1.0000
65.5400 720.0000 1.0000
65.5500 757.0000 1.0000
65.5600 748.0000 1.0000
65.5700 712.0000 1.0000
65.5800 753.0000 1.0000
65.5900 733.0000 1.0000
65.6000 736.0000 1.0000
65.6100 770.0000 1.0000
65.6200 751.0000 1.0000
65.6300 770.0000 1.0000
65.6400 798.0000 1.0000
65.6500 803.0000 1.0000
65.6600 799.0000 1.0000
65.6700 771.0000 1.0000
65.6800 732.0000 1.0000
65.6900 766.0000 1.0000
65.7000 804.0000 1.0000
65.7100 819.0000 1.0000
65.7200 792.0000 1.0000
65.7300 781.0000 1.0000
65.7400 766.0000 1.0000
65.7500 794.0000 1.0000
65.7600 814.0000 1.0000
65.7700 796.0000 1.0000
65.7800 803.0000 1.0000
65.7900 807.0000 1.0000
65.8000 826.0000 1.0000
65.8100 838.0000 1.0000
65.8200 852.0000 1.0000
65.8300 858.0000 1.0000
65.8400 851.0000 1.0000
65.8500 875.0000 1.0000
65.8600 859.0000 1.0000
65.8700 877.0000 1.0000
65.8800 866.0000 1.0000
65.8900 854.0000 1.0000
65.9000 919.0000 1.0000
65.9100 925.0000 1.0000
65.9200 937.0000 1.0000
65.9300 935.0000 1.0000
65.9400 938.0000 1.0000
65.9500 963.0000 1.0000
65.9600 1009.0000 1.0000
65.9700 1007.0000 1.0000
65.9800 979.0000 1.0000
65.9900 1053.0000 1.0000
66.0000 1069.0000 1.0000
66.0100 1095.0000 1.0000
66.0200 1165.0000 1.0000
66.0300 1162.0000 1.0000
66.0400 1235.0000 1.0000
66.0500 1269.0000 1.0000
66.0600 1344.0000 1.0000
66.0700 1372.0000 1.0000
66.0800 1377.0000 1.0000
66.0900 1417.0000 1.0000
66.1000 1494.0000 1.0000
66.1100 1615.0000 1.0000
66.1200 1647.0000 1.0000
66.1300 1752.0000 1.0000
66.1400 1832.0000 1.0000
66.1500 1859.0000 1.0000
66.1600 1992.0000 1.0000
66.1700 2133.0000 1.0000
66.1800 2320.0000 1.0000
66.1900 2397.0000 1.0000
66.2000 2517.0000 1.0000
66.2100 2605.0000 1.0000
66.2200 2671.0000 1.0000
66.2300 2791.0000 1.0000
66.2400 2800.0000 1.0000
66.2500 2881.0000 1.0000
66.2600 2898.0000 1.0000
66.2700 2873.0000 1.0000
66.2800 2868.0000 1.0000
66.2900 2953.0000 1.0000
66.3000 2741.0000 1.0000
66.3100 2819.0000 1.0000
66.3200 2729.0000 1.0000
66.3300 2619.0000 1.0000
66.3400 2620.0000 1.0000
66.3500 2589.0000 1.0000
66.3600 2610.0000 1.0000
66.3700 2547.0000 1.0000
66.3800 2475.0000 1.0000
66.3900 2444.0000 1.0000
66.4000 2368.0000 1.0000
66.4100 2381.0000 1.0000
66.4200 2406.0000 1.0000
66.4300 2343.0000 1.0000
66.4400 2297.0000 1.0000
66.4500 2188.0000 1.0000
66.4600 2102.0000 1.0000
66.4700 2094.0000 1.0000
66.4800 1993.0000 1.0000
66.4900 1927.0000 1.0000
66.5000 1790.0000 1.0000
66.5100 1805.0000 1.0000
66.5200 1717.0000 1.0000
66.5300 1622.0000 1.0000
66.5400 1553.0000 1.0000
66.5500 1522.0000 1.0000
66.5600 1429.0000 1.0000
66.5700 1369.0000 1.0000
66.5800 1397.0000 1.0000
66.5900 1361.0000 1.0000
66.6000 1308.0000 1.0000
66.6100 1208.0000 1.0000
66.6200 1220.0000 1.0000
66.6300 1218.0000 1.0000
66.6400 1129.0000 1.0000
66.6500 1093.0000 1.0000
66.6600 1046.0000 1.0000
66.6700 1059.0000 1.0000
66.6800 1000.0000 1.0000
66.6900 969.0000 1.0000
66.7000 951.0000 1.0000
66.7100 919.0000 1.0000
66.7200 947.0000 1.0000
66.7300 921.0000 1.0000
66.7400 933.0000 1.0000
66.7500 929.0000 1.0000
66.7600 872.0000 1.0000
66.7700 865.0000 1.0000
66.7800 844.0000 1.0000
66.7900 891.0000 1.0000
66.8000 845.0000 1.0000
66.8100 855.0000 1.0000
66.8200 823.0000 1.0000
66.8300 768.0000 1.0000
66.8400 808.0000 1.0000
66.8500 829.0000 1.0000
66.8600 819.0000 1.0000
66.8700 796.0000 1.0000
66.8800 778.0000 1.0000
66.8900 793.0000 1.0000
66.9000 788.0000 1.0000
66.9100 812.0000 1.0000
66.9200 786.0000 1.0000
66.9300 735.0000 1.0000
66.9400 772.0000 1.0000
66.9500 807.0000 1.0000
66.9600 777.0000 1.0000
66.9700 798.0000 1.0000
66.9800 746.0000 1.0000
66.9900 708.0000 1.0000
67.0000 783.0000 1.0000
67.0100 745.0000 1.0000
67.0200 759.0000 1.0000
67.0300 781.0000 1.0000
67.0400 769.0000 1.0000
67.0500 719.0000 1.0000
67.0600 743.0000 1.0000
67.0700 695.0000 1.0000
67.0800 698.0000 1.0000
67.0900 707.0000 1.0000
67.1000 682.0000 1.0000
67.1100 665.0000 1.0000
67.1200 729.0000 1.0000
67.1300 738.0000 1.0000
67.1400 750.0000 1.0000
67.1500 711.0000 1.0000
67.1600 740.0000 1.0000
67.1700 725.0000 1.0000
67.1800 724.0000 1.0000
67.1900 676.0000 1.0000
67.2000 693.0000 1.0000
67.2100 673.0000 1.0000
67.2200 680.0000 1.0000
67.2300 683.0000 1.0000
67.2400 727.0000 1.0000
67.2500 686.0000 1.0000
67.2600 703.0000 1.0000
67.2700 743.0000 1.0000
67.2800 700.0000 1.0000
67.2900 702.0000 1.0000
67.3000 683.0000 1.0000
67.3100 686.0000 1.0000
67.3200 641.0000 1.0000
67.3300 720.0000 1.0000
67.3400 641.0000 1.0000
67.3500 678.0000 1.0000
67.3600 722.0000 1.0000
67.3700 704.0000 1.0000
67.3800 689.0000 1.0000
67.3900 666.0000 1.0000
67.4000 692.0000 1.0000
67.4100 726.0000 1.0000
67.4200 685.0000 1.0000
67.4300 673.0000 1.0000
67.4400 702.0000 1.0000
67.4500 694.0000 1.0000
67.4600 680.0000 1.0000
67.4700 682.0000 1.0000
67.4800 681.0000 1.0000
67.4900 660.0000 1.0000
67.5000 687.0000 1.0000
67.5100 658.0000 1.0000
67.5200 649.0000 1.0000
67.5300 679.0000 1.0000
67.5400 624.0000 1.0000
67.5500 666.0000 1.0000
67.5600 679.0000 1.0000
67.5700 673.0000 1.0000
67.5800 646.0000 1.0000
67.5900 670.0000 1.0000
67.6000 678.0000 1.0000
67.6100 655.0000 1.0000
67.6200 666.0000 1.0000
67.6300 660.0000 1.0000
67.6400 658.0000 1.0000
67.6500 676.0000 1.0000
67.6600 674.0000 1.0000
67.6700 694.0000 1.0000
67.6800 649.0000 1.0000
67.6900 647.0000 1.0000
67.7000 640.0000 1.0000
67.7100 708.0000 1.0000
67.7200 627.0000 1.0000
67.7300 689.0000 1.0000
67.7400 651.0000 1.0000
67.7500 678.0000 1.0000
67.7600 715.0000 1.0000
67.7700 657.0000 1.0000
67.7800 667.0000 1.0000
67.7900 664.0000 1.0000
67.8000 669.0000 1.0000
67.8100 638.0000 1.0000
67.8200 669.0000 1.0000
67.8300 645.0000 1.0000
67.8400 656.0000 1.0000
67.8500 695.0000 1.0000
67.8600 678.0000 1.0000
67.8700 675.0000 1.0000
67.8800 645.0000 1.0000
67.8900 676.0000 1.0000
67.9000 669.0000 1.0000
67.9100 684.0000 1.0000
67.9200 671.0000 1.0000
67.9300 684.0000 1.0000
67.9400 655.0000 1.0000
67.9500 668.0000 1.0000
67.9600 680.0000 1.0000
67.9700 667.0000 1.0000
67.9800 667.0000 1.0000
67.9900 634.0000 1.0000
68.0000 657.0000 1.0000
68.0100 674.0000 1.0000
68.0200 633.0000 1.0000
68.0300 681.0000 1.0000
68.0400 695.0000 1.0000
68.0500 670.0000 1.0000
68.0600 680.0000 1.0000
68.0700 653.0000 1.0000
68.0800 653.0000 1.0000
68.0900 627.0000 1.0000
68.1000 648.0000 1.0000
68.1100 640.0000 1.0000
68.1200 670.0000 1.0000
68.1300 665.0000 1.0000
68.1400 643.0000 1.0000
68.1500 697.0000 1.0000
68.1600 648.0000 1.0000
68.1700 694.0000 1.0000
68.1800 660.0000 1.0000
68.1900 681.0000 1.0000
68.2000 617.0000 1.0000
68.2100 648.0000 1.0000
68.2200 669.0000 1.0000
68.2300 673.0000 1.0000
68.2400 654.0000 1.0000
68.2500 636.0000 1.0000
68.2600 665.0000 1.0000
68.2700 646.0000 1.0000
68.2800 639.0000 1.0000
68.2900 656.0000 1.0000
68.3000 658.0000 1.0000
68.3100 652.0000 1.0000
68.3200 652.0000 1.0000
68.3300 666.0000 1.0000
68.3400 644.0000 1.0000
68.3500 664.0000 1.0000
68.3600 667.0000 1.0000
68.3700 655.0000 1.0000
68.3800 682.0000 1.0000
68.3900 642.0000 1.0000
68.4000 684.0000 1.0000
68.4100 683.0000 1.0000
68.4200 682.0000 1.0000
68.4300 669.0000 1.0000
68.4400 644.0000 1.0000
68.4500 645.0000 1.0000
68.4600 647.0000 1.0000
68.4700 631.0000 1.0000
68.4800 626.0000 1.0000
68.4900 630.0000 1.0000
68.5000 648.0000 1.0000
68.5100 638.0000 1.0000
68.5200 631.0000 1.0000
68.5300 663.0000 1.0000
68.5400 665.0000 1.0000
68.5500 686.0000 1.0000
68.5600 670.0000 1.0000
68.5700 644.0000 1.0000
68.5800 639.0000 1.0000
68.5900 636.0000 1.0000
68.6000 642.0000 1.0000
68.6100 621.0000 1.0000
68.6200 685.0000 1.0000
68.6300 630.0000 1.0000
68.6400 665.0000 1.0000
68.6500 622.0000 1.0000
68.6600 667.0000 1.0000
68.6700 654.0000 1.0000
68.6800 648.0000 1.0000
68.6900 644.0000 1.0000
68.7000 597.0000 1.0000
68.7100 651.0000 1.0000
68.7200 657.0000 1.0000
68.7300 650.0000 1.0000
68.7400 607.0000 1.0000
68.7500 656.0000 1.0000
68.7600 663.0000 1.0000
68.7700 647.0000 1.0000
68.7800 658.0000 1.0000
68.7900 667.0000 1.0000
68.8000 650.0000 1.0000
68.8100 624.0000 1.0000
68.8200 656.0000 1.0000
68.8300 620.0000 1.0000
68.8400 604.0000 1.0000
68.8500 658.0000 1.0000
68.8600 638.0000 1.0000
68.8700 674.0000 1.0000
68.8800 647.0000 1.0000
68.8900 625.0000 1.0000
68.9000 631.0000 1.0000
68.9100 638.0000 1.0000
68.9200 626.0000 1.0000
68.9300 614.0000 1.0000
68.9400 641.0000 1.0000
68.9500 626.0000 1.0000
68.9600 629.0000 1.0000
68.9700 644.0000 1.0000
68.9800 595.0000 1.0000
68.9900 665.0000 1.0000
69.0000 652.0000 1.0000
69.0100 629.0000 1.0000
69.0200 653.0000 1.0000
69.0300 650.0000 1.0000
69.0400 649.0000 1.0000
69.0500 596.0000 1.0000
69.0600 618.0000 1.0000
69.0700 634.0000 1.0000
69.0800 619.0000 1.0000
69.0900 651.0000 1.0000
69.1000 624.0000 1.0000
69.1100 629.0000 1.0000
69.1200 636.0000 1.0000
69.1300 630.0000 1.0000
69.1400 624.0000 1.0000
69.1500 626.0000 1.0000
69.1600 639.0000 1.0000
69.1700 661.0000 1.0000
69.1800 681.0000 1.0000
69.1900 617.0000 1.0000
69.2000 645.0000 1.0000
69.2100 666.0000 1.0000
69.2200 676.0000 1.0000
69.2300 654.0000 1.0000
69.2400 634.0000 1.0000
69.2500 603.0000 1.0000
69.2600 610.0000 1.0000
69.2700 613.0000 1.0000
69.2800 647.0000 1.0000
69.2900 594.0000 1.0000
69.3000 676.0000 1.0000
69.3100 657.0000 1.0000
69.3200 644.0000 1.0000
69.3300 588.0000 1.0000
69.3400 607.0000 1.0000
69.3500 559.0000 1.0000
69.3600 605.0000 1.0000
69.3700 629.0000 1.0000
69.3800 608.0000 1.0000
69.3900 625.0000 1.0000
69.4000 624.0000 1.0000
69.4100 611.0000 1.0000
69.4200 655.0000 1.0000
69.4300 659.0000 1.0000
69.4400 621.0000 1.0000
69.4500 574.0000 1.0000
69.4600 612.0000 1.0000
69.4700 609.0000 1.0000
69.4800 623.0000 1.0000
69.4900 647.0000 1.0000
69.5000 653.0000 1.0000
69.5100 635.0000 1.0000
69.5200 627.0000 1.0000
69.5300 646.0000 1.0000
69.5400 639.0000 1.0000
69.5500 632.0000 1.0000
69.5600 646.0000 1.0000
69.5700 609.0000 1.0000
69.5800 641.0000 1.0000
69.5900 636.0000 1.0000
69.6000 625.0000 1.0000
69.6100 624.0000 1.0000
69.6200 625.0000 1.0000
69.6300 623.0000 1.0000
69.6400 654.0000 1.0000
69.6500 603.0000 1.0000
69.6600 624.0000 1.0000
69.6700 640.0000 1.0000
69.6800 642.0000 1.0000
69.6900 646.0000 1.0000
69.7000 642.0000 1.0000
69.7100 614.0000 1.0000
69.7200 645.0000 1.0000
69.7300 621.0000 1.0000
69.7400 633.0000 1.0000
69.7500 627.0000 1.0000
69.7600 632.0000 1.0000
69.7700 611.0000 1.0000
69.7800 604.0000 1.0000
69.7900 639.0000 1.0000
69.8000 663.0000 1.0000
69.8100 637.0000 1.0000
69.8200 632.0000 1.0000
69.8300 632.0000 1.0000
69.8400 601.0000 1.0000
69.8500 652.0000 1.0000
69.8600 651.0000 1.0000
69.8700 635.0000 1.0000
69.8800 592.0000 1.0000
69.8900 627.0000 1.0000
69.9000 659.0000 1.0000
69.9100 610.0000 1.0000
69.9200 652.0000 1.0000
69.9300 686.0000 1.0000
69.9400 631.0000 1.0000
69.9500 649.0000 1.0000
69.9600 600.0000 1.0000
69.9700 617.0000 1.0000
69.9800 604.0000 1.0000
69.9900 661.0000 1.0000
70.0000 598.0000 1.0000
*RAS_INT_END
*RAS_TEMPERATURE_START
*RAS_TEMPERATURE_END
*RAS_DATA_END
