*RAS_DATA_START
*RAS_HEADER_START
*DISP_FMT_X "%.2f"
*DISP_FMT_Y "%.0f"
*DISP_FULLSCALE "16584.0000000000"
*DISP_LINE_COLOR "255.0000000000"
*DISP_LINE_STYLE "0.0000000000"
*DISP_LINE_WIDTH "0.2500000000"
*DISP_NOTE "測定データ-3"
*DISP_OFFSET_Y "0.0000000000"
*DISP_PEAKSEARCH_UNIT_Y "cps"
*DISP_RANGE_BOTTOM "0.0000000000"
*DISP_RANGE_LEFT "20.0000000000"
*DISP_RANGE_LOGCUTOFF "0.0100000000"
*DISP_RANGE_RIGHT "70.0000000000"
*DISP_RANGE_TOP "16584.0000000000"
*DISP_SCALE_MODE_Y "0.0000000000"
*DISP_TAB_NAME "2θ/θ"
*DISP_TITLE_Y "強度"
*DISP_UNIT_Y "cps"
*DISP_WINDOW_NAME "MSG_MACROENGINE"
*FILE_COMMENT " "
*FILE_MD5 ""
*FILE_MEMO " "
*FILE_OPERATOR "Administrator"
*FILE_SAMPLE " "
*FILE_TYPE "RAS_RAW"
*FILE_USERGROUP "システムマネージャ"
*FILE_VERSION "1.0000000000"
*HW_ATTACHMENT_ID "ATT0025"
*HW_ATTACHMENT_NAME "標準|Standard"
*HW_COUNTER_ID-0 "CUT0025"
*HW_COUNTER_ID-1 "CUT0020"
*HW_COUNTER_ID-2 "CUT0020"
*HW_COUNTER_ID-3 "CSL0021"
*HW_COUNTER_ID-4 "CMC0021"
*HW_COUNTER_NAME-0 "D/teX Ultra|D/teX Ultra"
*HW_COUNTER_NAME-1 "None|None"
*HW_COUNTER_NAME-2 "None|None"
*HW_COUNTER_NAME-3 "BBM|BBM"
*HW_COUNTER_NAME-4 "検出器モノクロメータ|Detector monochromator"
*HW_COUNTER_SELECT_NAME "D/teX Ultra|D/teX Ultra"
*HW_GONIOMETER_ID "GON0023"
*HW_GONIOMETER_NAME "SmartLab|SmartLab"
*HW_GONIOMETER_RADIUS-0 "90.0"
*HW_GONIOMETER_RADIUS-1 "114.0"
*HW_GONIOMETER_RADIUS-2 "190.0"
*HW_GONIOMETER_RADIUS-3 "300.0"
*HW_GONIOMETER_RADIUS-4 "187.0"
*HW_GONIOMETER_RADIUS-5 "300.0"
*HW_GONIOMETER_RADIUS-6 "113.0"
*HW_GONIOMETER_RADIUS-7 "331.0"
*HW_I_OPT_ID-0 "CBO0021"
*HW_I_OPT_ID-1 "ICR0023"
*HW_I_OPT_ID-2 "ISL0021"
*HW_I_OPT_ID-3 "ISO0021"
*HW_I_OPT_ID-4 "IAD0021"
*HW_I_OPT_ID-5 "IPR0001"
*HW_I_OPT_NAME-0 "CBOユニット|CBO unit"
*HW_I_OPT_NAME-1 "標準入射光学ユニット|Standard incident optical unit"
*HW_I_OPT_NAME-2 "標準入射スリットボックス|Standard incident slit box"
*HW_I_OPT_NAME-3 "入射平行スリット|Incident parallel slit"
*HW_I_OPT_NAME-4 "長手制限スリット|Length limiting slit"
*HW_I_OPT_NAME-5 "None|None"
*HW_R_ATTENUATER_AUTOMODE "0"
*HW_R_OPT_ID-0 "RSS0021"
*HW_R_OPT_ID-1 "RCR0023"
*HW_R_OPT_ID-2 "RSO0021"
*HW_R_OPT_ID-3 "RRS0021"
*HW_R_OPT_ID-4 "ATN0021"
*HW_R_OPT_ID-5 "RFL0021"
*HW_R_OPT_ID-6 "RAD0021"
*HW_R_OPT_NAME-0 "標準受光スリットボックス1|Standard receiving slit box # 1"
*HW_R_OPT_NAME-1 "標準受光光学ユニット1|Standard receiving unit # 1"
*HW_R_OPT_NAME-2 "標準受光光学ユニット2|Standard receiving optical unit # 2"
*HW_R_OPT_NAME-3 "標準受光スリットボックス2|Standard receiving slit box # 2"
*HW_R_OPT_NAME-4 "標準アッテネータ|Standard Attenuator"
*HW_R_OPT_NAME-5 "Cu Kβ|Cu K-beta"
*HW_R_OPT_NAME-6 "調整用受光スリット|Alignment receiving slit"
*HW_SAMPLE_HOLDER_ID "SMP0023"
*HW_SAMPLE_HOLDER_NAME "標準Zステージ|Standard Z stage"
*HW_XG_CURRENT_MAX "50"
*HW_XG_CURRENT_MIN "2"
*HW_XG_CURRENT_RESOLUTION "1"
*HW_XG_CURRENT_UNIT "mA"
*HW_XG_FOCUS "1mm x 10mm"
*HW_XG_FOCUS_TYPE "Normal"
*HW_XG_ID ""
*HW_XG_NAME "3kW 封入管(ID:1200)|3kW Sealed tube(ID:1200)"
*HW_XG_TARGET_ATOMIC_NUMBER "29.0000000000"
*HW_XG_TARGET_NAME "Cu"
*HW_XG_TYPE "Hermetic"
*HW_XG_VOLTAGE_MAX "60"
*HW_XG_VOLTAGE_MIN "20"
*HW_XG_VOLTAGE_RESOLUTION "1"
*HW_XG_VOLTAGE_UNIT "kV"
*HW_XG_WATT_MAX "1.500"
*HW_XG_WATT_UNIT "kW"
*HW_XG_WAVE_LENGTH_ALPHA1 "1.540593"
*HW_XG_WAVE_LENGTH_ALPHA2 "1.544414"
*HW_XG_WAVE_LENGTH_BETA "1.392250"
*MEAS_COND_AXIS_NAME-0 "2θ/θ"
*MEAS_COND_AXIS_NAME-1 "2θ"
*MEAS_COND_AXIS_NAME-2 "ω"
*MEAS_COND_AXIS_NAME-3 "Z"
*MEAS_COND_AXIS_NAME-4 "2θ/ω"
*MEAS_COND_AXIS_NAME-5 "θs"
*MEAS_COND_AXIS_NAME-6 "θd"
*MEAS_COND_AXIS_NAME-7 "Ts"
*MEAS_COND_AXIS_NAME-8 "CBO選択スリット"
*MEAS_COND_AXIS_NAME-9 "M"
*MEAS_COND_AXIS_NAME-10 "入射平行スリット"
*MEAS_COND_AXIS_NAME-11 "入射スリット"
*MEAS_COND_AXIS_NAME-12 ""
*MEAS_COND_AXIS_NAME-13 "Zs"
*MEAS_COND_AXIS_NAME-14 "入射光学素子"
*MEAS_COND_AXIS_NAME-15 "長手制限スリット"
*MEAS_COND_AXIS_NAME-16 "センタースリット"
*MEAS_COND_AXIS_NAME-17 "フィルター"
*MEAS_COND_AXIS_NAME-18 "受光スリット1"
*MEAS_COND_AXIS_NAME-19 "受光スリット2"
*MEAS_COND_AXIS_NAME-20 "受光光学素子"
*MEAS_COND_AXIS_NAME-21 "受光平行スリット"
*MEAS_COND_AXIS_NAME-22 "調整用受光スリット"
*MEAS_COND_AXIS_NAME-23 ""
*MEAS_COND_AXIS_NAME-24 ""
*MEAS_COND_AXIS_NAME-25 "Zd"
*MEAS_COND_AXIS_NAME-26 "アッテネータ"
*MEAS_COND_AXIS_NAME-27 "検出器モノクロメータ"
*MEAS_COND_AXIS_NAME-28 "モノクロメータスリット"
*MEAS_COND_AXIS_NAME-29 "プライマリビーム"
*MEAS_COND_AXIS_NAME-30 "PHA"
*MEAS_COND_AXIS_NAME_INTERNAL-0 "TwoThetaTheta"
*MEAS_COND_AXIS_NAME_INTERNAL-1 "TwoTheta"
*MEAS_COND_AXIS_NAME_INTERNAL-2 "Omega"
*MEAS_COND_AXIS_NAME_INTERNAL-3 "Z"
*MEAS_COND_AXIS_NAME_INTERNAL-4 "TwoThetaOmega"
*MEAS_COND_AXIS_NAME_INTERNAL-5 "ThetaS"
*MEAS_COND_AXIS_NAME_INTERNAL-6 "ThetaD"
*MEAS_COND_AXIS_NAME_INTERNAL-7 "Ts"
*MEAS_COND_AXIS_NAME_INTERNAL-8 "CBO"
*MEAS_COND_AXIS_NAME_INTERNAL-9 "CBO-M"
*MEAS_COND_AXIS_NAME_INTERNAL-10 "IncidentSollerSlit"
*MEAS_COND_AXIS_NAME_INTERNAL-11 "IncidentSlitBox"
*MEAS_COND_AXIS_NAME_INTERNAL-12 "IncidentSlitBox-_Axis"
*MEAS_COND_AXIS_NAME_INTERNAL-13 "Zs"
*MEAS_COND_AXIS_NAME_INTERNAL-14 "IncidentMonochromator"
*MEAS_COND_AXIS_NAME_INTERNAL-15 "IncidentAxdSlit"
*MEAS_COND_AXIS_NAME_INTERNAL-16 "CenterSlit"
*MEAS_COND_AXIS_NAME_INTERNAL-17 "Filter"
*MEAS_COND_AXIS_NAME_INTERNAL-18 "ReceivingSlitBox1"
*MEAS_COND_AXIS_NAME_INTERNAL-19 "ReceivingSlitBox2"
*MEAS_COND_AXIS_NAME_INTERNAL-20 "ReceivingOptics"
*MEAS_COND_AXIS_NAME_INTERNAL-21 "ReceivingSollerSlit"
*MEAS_COND_AXIS_NAME_INTERNAL-22 "ReceivingAxdSlit"
*MEAS_COND_AXIS_NAME_INTERNAL-23 "ReceivingSlitBox1-_Axis"
*MEAS_COND_AXIS_NAME_INTERNAL-24 "ReceivingSlitBox2-_Axis"
*MEAS_COND_AXIS_NAME_INTERNAL-25 "ReceivingSlitBox2-Zd"
*MEAS_COND_AXIS_NAME_INTERNAL-26 "Attenuator"
*MEAS_COND_AXIS_NAME_INTERNAL-27 "CounterMonochromator"
*MEAS_COND_AXIS_NAME_INTERNAL-28 "CounterSlit"
*MEAS_COND_AXIS_NAME_INTERNAL-29 "IncidentPrimary"
*MEAS_COND_AXIS_NAME_INTERNAL-30 "PHA"
*MEAS_COND_AXIS_NAME_MAGICNO-0 "83951616.0000000000"
*MEAS_COND_AXIS_NAME_MAGICNO-1 "268632064.0000000000"
*MEAS_COND_AXIS_NAME_MAGICNO-2 "268500992.0000000000"
*MEAS_COND_AXIS_NAME_MAGICNO-3 "285278208.0000000000"
*MEAS_COND_AXIS_NAME_MAGICNO-4 "83951616.0000000000"
*MEAS_COND_AXIS_NAME_MAGICNO-5 "131072.0000000000"
*MEAS_COND_AXIS_NAME_MAGICNO-6 "131072.0000000000"
*MEAS_COND_AXIS_NAME_MAGICNO-7 "318898176.0000000000"
*MEAS_COND_AXIS_NAME_MAGICNO-8 "20971521.0000000000"
*MEAS_COND_AXIS_NAME_MAGICNO-9 "285343744.0000000000"
*MEAS_COND_AXIS_NAME_MAGICNO-10 "20971521.0000000000"
*MEAS_COND_AXIS_NAME_MAGICNO-11 "22020097.0000000000"
*MEAS_COND_AXIS_NAME_MAGICNO-12 "25165824.0000000000"
*MEAS_COND_AXIS_NAME_MAGICNO-13 "318898176.0000000000"
*MEAS_COND_AXIS_NAME_MAGICNO-14 "1.0000000000"
*MEAS_COND_AXIS_NAME_MAGICNO-15 "20971521.0000000000"
*MEAS_COND_AXIS_NAME_MAGICNO-16 "20971521.0000000000"
*MEAS_COND_AXIS_NAME_MAGICNO-17 "20971521.0000000000"
*MEAS_COND_AXIS_NAME_MAGICNO-18 "23068673.0000000000"
*MEAS_COND_AXIS_NAME_MAGICNO-19 "23068673.0000000000"
*MEAS_COND_AXIS_NAME_MAGICNO-20 "20971521.0000000000"
*MEAS_COND_AXIS_NAME_MAGICNO-21 "20971521.0000000000"
*MEAS_COND_AXIS_NAME_MAGICNO-22 "20971521.0000000000"
*MEAS_COND_AXIS_NAME_MAGICNO-23 "25165824.0000000000"
*MEAS_COND_AXIS_NAME_MAGICNO-24 "25165824.0000000000"
*MEAS_COND_AXIS_NAME_MAGICNO-25 "285343744.0000000000"
*MEAS_COND_AXIS_NAME_MAGICNO-26 "17301505.0000000000"
*MEAS_COND_AXIS_NAME_MAGICNO-27 "20971521.0000000000"
*MEAS_COND_AXIS_NAME_MAGICNO-28 "20971521.0000000000"
*MEAS_COND_AXIS_NAME_MAGICNO-29 "20971521.0000000000"
*MEAS_COND_AXIS_NAME_MAGICNO-30 "0.0000000000"
*MEAS_COND_AXIS_OFFSET-0 "-"
*MEAS_COND_AXIS_OFFSET-1 "-0.1081000000"
*MEAS_COND_AXIS_OFFSET-2 "0.3758000000"
*MEAS_COND_AXIS_OFFSET-3 "-"
*MEAS_COND_AXIS_OFFSET-4 "-"
*MEAS_COND_AXIS_OFFSET-5 "0.3758000000"
*MEAS_COND_AXIS_OFFSET-6 "-0.4839000000"
*MEAS_COND_AXIS_OFFSET-7 "-"
*MEAS_COND_AXIS_OFFSET-8 "-"
*MEAS_COND_AXIS_OFFSET-9 "-"
*MEAS_COND_AXIS_OFFSET-10 "-"
*MEAS_COND_AXIS_OFFSET-11 "-"
*MEAS_COND_AXIS_OFFSET-12 "-"
*MEAS_COND_AXIS_OFFSET-13 "-"
*MEAS_COND_AXIS_OFFSET-14 "-"
*MEAS_COND_AXIS_OFFSET-15 "-"
*MEAS_COND_AXIS_OFFSET-16 "-"
*MEAS_COND_AXIS_OFFSET-17 "-"
*MEAS_COND_AXIS_OFFSET-18 "-"
*MEAS_COND_AXIS_OFFSET-19 "-"
*MEAS_COND_AXIS_OFFSET-20 "-"
*MEAS_COND_AXIS_OFFSET-21 "-"
*MEAS_COND_AXIS_OFFSET-22 "-"
*MEAS_COND_AXIS_OFFSET-23 "-"
*MEAS_COND_AXIS_OFFSET-24 "-"
*MEAS_COND_AXIS_OFFSET-25 "-"
*MEAS_COND_AXIS_OFFSET-26 "-"
*MEAS_COND_AXIS_OFFSET-27 "-"
*MEAS_COND_AXIS_OFFSET-28 "-"
*MEAS_COND_AXIS_OFFSET-29 "-"
*MEAS_COND_AXIS_OFFSET-30 "-"
*MEAS_COND_AXIS_POSITION-0 "0.0000000000"
*MEAS_COND_AXIS_POSITION-1 "0.0000000000"
*MEAS_COND_AXIS_POSITION-2 "0.0000000000"
*MEAS_COND_AXIS_POSITION-3 "-0.5500000000"
*MEAS_COND_AXIS_POSITION-4 "0.0000000000"
*MEAS_COND_AXIS_POSITION-5 "0.0000000000"
*MEAS_COND_AXIS_POSITION-6 "0.0000000000"
*MEAS_COND_AXIS_POSITION-7 "-0.4278800000"
*MEAS_COND_AXIS_POSITION-8 "BB"
*MEAS_COND_AXIS_POSITION-9 "0.0000000000"
*MEAS_COND_AXIS_POSITION-10 "Soller_slit_5.0deg"
*MEAS_COND_AXIS_POSITION-11 "2/3deg"
*MEAS_COND_AXIS_POSITION-12 "2.2088000000"
*MEAS_COND_AXIS_POSITION-13 "-0.4140600000"
*MEAS_COND_AXIS_POSITION-14 "0.0000000000"
*MEAS_COND_AXIS_POSITION-15 "10.0mm"
*MEAS_COND_AXIS_POSITION-16 "None"
*MEAS_COND_AXIS_POSITION-17 "Cu_K-beta"
*MEAS_COND_AXIS_POSITION-18 "13.000mm"
*MEAS_COND_AXIS_POSITION-19 "13.000mm"
*MEAS_COND_AXIS_POSITION-20 "No_unit"
*MEAS_COND_AXIS_POSITION-21 "Soller_slit_5.0deg"
*MEAS_COND_AXIS_POSITION-22 "None"
*MEAS_COND_AXIS_POSITION-23 "13.0000000000"
*MEAS_COND_AXIS_POSITION-24 "13.0000000000"
*MEAS_COND_AXIS_POSITION-25 "0.0109400000"
*MEAS_COND_AXIS_POSITION-26 "Open"
*MEAS_COND_AXIS_POSITION-27 "None"
*MEAS_COND_AXIS_POSITION-28 "None"
*MEAS_COND_AXIS_POSITION-29 "None"
*MEAS_COND_AXIS_POSITION-30 "38.0000000000"
*MEAS_COND_AXIS_UNIT-0 "deg"
*MEAS_COND_AXIS_UNIT-1 "deg"
*MEAS_COND_AXIS_UNIT-2 "deg"
*MEAS_COND_AXIS_UNIT-3 "mm"
*MEAS_COND_AXIS_UNIT-4 "deg"
*MEAS_COND_AXIS_UNIT-5 "deg"
*MEAS_COND_AXIS_UNIT-6 "deg"
*MEAS_COND_AXIS_UNIT-7 "mm"
*MEAS_COND_AXIS_UNIT-8 ""
*MEAS_COND_AXIS_UNIT-9 "pulse"
*MEAS_COND_AXIS_UNIT-10 ""
*MEAS_COND_AXIS_UNIT-11 ""
*MEAS_COND_AXIS_UNIT-12 "mm"
*MEAS_COND_AXIS_UNIT-13 "mm"
*MEAS_COND_AXIS_UNIT-14 ""
*MEAS_COND_AXIS_UNIT-15 ""
*MEAS_COND_AXIS_UNIT-16 ""
*MEAS_COND_AXIS_UNIT-17 ""
*MEAS_COND_AXIS_UNIT-18 ""
*MEAS_COND_AXIS_UNIT-19 ""
*MEAS_COND_AXIS_UNIT-20 ""
*MEAS_COND_AXIS_UNIT-21 ""
*MEAS_COND_AXIS_UNIT-22 ""
*MEAS_COND_AXIS_UNIT-23 "mm"
*MEAS_COND_AXIS_UNIT-24 "mm"
*MEAS_COND_AXIS_UNIT-25 "mm"
*MEAS_COND_AXIS_UNIT-26 ""
*MEAS_COND_AXIS_UNIT-27 ""
*MEAS_COND_AXIS_UNIT-28 ""
*MEAS_COND_AXIS_UNIT-29 ""
*MEAS_COND_AXIS_UNIT-30 "div"
*MEAS_COND_COUNTER_CNTLOSS_CORR "0.0000000000"
*MEAS_COND_COUNTER_PHABASE "38.0000000000"
*MEAS_COND_COUNTER_PHAWINDOW "16.0000000000"
*MEAS_COND_COUNTER_PHA_UNIT "div"
*MEAS_COND_COUNTER_TAUDIFF "30.0000000000"
*MEAS_COND_COUNTER_TAUINT "0.0000000000"
*MEAS_COND_IRRADIATION_MODE "OFF"
*MEAS_COND_IRRADIATION_WIDTH ""
*MEAS_COND_OPT_ATTR "集中法"
*MEAS_COND_OPT_NAME "@集中法"
*MEAS_COND_UNSYMMETRIC_MODE "OFF"
*MEAS_COND_XG_CURRENT "30.0000000000"
*MEAS_COND_XG_VOLTAGE "40.0000000000"
*MEAS_COND_XG_WAVE_TYPE "Ka"
*MEAS_DATA_COUNT "5001.0000000000"
*MEAS_SCAN_AXIS_X "2θ/θ"
*MEAS_SCAN_AXIS_X_INTERNAL "TwoThetaTheta"
*MEAS_SCAN_END_TIME "07/20/21 13:09:56"
*MEAS_SCAN_MODE "CONTINUOUS"
*MEAS_SCAN_MONITOR "0"
*MEAS_SCAN_RESOLUTION_X "0.0002"
*MEAS_SCAN_SPEED "1.0"
*MEAS_SCAN_SPEED_UNIT "deg/min"
*MEAS_SCAN_START "20.0000000000"
*MEAS_SCAN_START_TIME "07/20/21 12:17:03"
*MEAS_SCAN_STEP "0.0100000000"
*MEAS_SCAN_STOP "70.0000000000"
*MEAS_SCAN_UNIT_X "deg"
*MEAS_SCAN_UNIT_Y "counts"
*RAS_HEADER_END
*RAS_INT_START
20.0000 1475.0000 1.0000
20.0100 1579.0000 1.0000
20.0200 1587.0000 1.0000
20.0300 1606.0000 1.0000
20.0400 1592.0000 1.0000
20.0500 1575.0000 1.0000
20.0600 1593.0000 1.0000
20.0700 1518.0000 1.0000
20.0800 1606.0000 1.0000
20.0900 1623.0000 1.0000
20.1000 1641.0000 1.0000
20.1100 1630.0000 1.0000
20.1200 1576.0000 1.0000
20.1300 1574.0000 1.0000
20.1400 1633.0000 1.0000
20.1500 1609.0000 1.0000
20.1600 1622.0000 1.0000
20.1700 1596.0000 1.0000
20.1800 1608.0000 1.0000
20.1900 1586.0000 1.0000
20.2000 1653.0000 1.0000
20.2100 1611.0000 1.0000
20.2200 1579.0000 1.0000
20.2300 1574.0000 1.0000
20.2400 1610.0000 1.0000
20.2500 1623.0000 1.0000
20.2600 1676.0000 1.0000
20.2700 1557.0000 1.0000
20.2800 1633.0000 1.0000
20.2900 1552.0000 1.0000
20.3000 1639.0000 1.0000
20.3100 1653.0000 1.0000
20.3200 1571.0000 1.0000
20.3300 1577.0000 1.0000
20.3400 1626.0000 1.0000
20.3500 1570.0000 1.0000
20.3600 1587.0000 1.0000
20.3700 1635.0000 1.0000
20.3800 1637.0000 1.0000
20.3900 1621.0000 1.0000
20.4000 1560.0000 1.0000
20.4100 1580.0000 1.0000
20.4200 1589.0000 1.0000
20.4300 1614.0000 1.0000
20.4400 1600.0000 1.0000
20.4500 1615.0000 1.0000
20.4600 1618.0000 1.0000
20.4700 1639.0000 1.0000
20.4800 1659.0000 1.0000
20.4900 1622.0000 1.0000
20.5000 1624.0000 1.0000
20.5100 1631.0000 1.0000
20.5200 1654.0000 1.0000
20.5300 1565.0000 1.0000
20.5400 1558.0000 1.0000
20.5500 1595.0000 1.0000
20.5600 1574.0000 1.0000
20.5700 1629.0000 1.0000
20.5800 1552.0000 1.0000
20.5900 1592.0000 1.0000
20.6000 1676.0000 1.0000
20.6100 1631.0000 1.0000
20.6200 1607.0000 1.0000
20.6300 1607.0000 1.0000
20.6400 1608.0000 1.0000
20.6500 1575.0000 1.0000
20.6600 1607.0000 1.0000
20.6700 1599.0000 1.0000
20.6800 1605.0000 1.0000
20.6900 1537.0000 1.0000
20.7000 1549.0000 1.0000
20.7100 1574.0000 1.0000
20.7200 1576.0000 1.0000
20.7300 1578.0000 1.0000
20.7400 1555.0000 1.0000
20.7500 1596.0000 1.0000
20.7600 1609.0000 1.0000
20.7700 1622.0000 1.0000
20.7800 1578.0000 1.0000
20.7900 1559.0000 1.0000
20.8000 1619.0000 1.0000
20.8100 1658.0000 1.0000
20.8200 1582.0000 1.0000
20.8300 1610.0000 1.0000
20.8400 1589.0000 1.0000
20.8500 1623.0000 1.0000
20.8600 1692.0000 1.0000
20.8700 1645.0000 1.0000
20.8800 1585.0000 1.0000
20.8900 1619.0000 1.0000
20.9000 1614.0000 1.0000
20.9100 1606.0000 1.0000
20.9200 1617.0000 1.0000
20.9300 1668.0000 1.0000
20.9400 1576.0000 1.0000
20.9500 1603.0000 1.0000
20.9600 1599.0000 1.0000
20.9700 1657.0000 1.0000
20.9800 1588.0000 1.0000
20.9900 1608.0000 1.0000
21.0000 1612.0000 1.0000
21.0100 1562.0000 1.0000
21.0200 1622.0000 1.0000
21.0300 1648.0000 1.0000
21.0400 1595.0000 1.0000
21.0500 1592.0000 1.0000
21.0600 1548.0000 1.0000
21.0700 1551.0000 1.0000
21.0800 1635.0000 1.0000
21.0900 1664.0000 1.0000
21.1000 1627.0000 1.0000
21.1100 1687.0000 1.0000
21.1200 1636.0000 1.0000
21.1300 1589.0000 1.0000
21.1400 1646.0000 1.0000
21.1500 1635.0000 1.0000
21.1600 1608.0000 1.0000
21.1700 1594.0000 1.0000
21.1800 1656.0000 1.0000
21.1900 1640.0000 1.0000
21.2000 1569.0000 1.0000
21.2100 1604.0000 1.0000
21.2200 1633.0000 1.0000
21.2300 1622.0000 1.0000
21.2400 1679.0000 1.0000
21.2500 1569.0000 1.0000
21.2600 1576.0000 1.0000
21.2700 1630.0000 1.0000
21.2800 1590.0000 1.0000
21.2900 1611.0000 1.0000
21.3000 1644.0000 1.0000
21.3100 1582.0000 1.0000
21.3200 1695.0000 1.0000
21.3300 1588.0000 1.0000
21.3400 1607.0000 1.0000
21.3500 1604.0000 1.0000
21.3600 1610.0000 1.0000
21.3700 1720.0000 1.0000
21.3800 1576.0000 1.0000
21.3900 1637.0000 1.0000
21.4000 1671.0000 1.0000
21.4100 1599.0000 1.0000
21.4200 1662.0000 1.0000
21.4300 1604.0000 1.0000
21.4400 1651.0000 1.0000
21.4500 1614.0000 1.0000
21.4600 1587.0000 1.0000
21.4700 1610.0000 1.0000
21.4800 1688.0000 1.0000
21.4900 1663.0000 1.0000
21.5000 1642.0000 1.0000
21.5100 1621.0000 1.0000
21.5200 1603.0000 1.0000
21.5300 1625.0000 1.0000
21.5400 1641.0000 1.0000
21.5500 1620.0000 1.0000
21.5600 1619.0000 1.0000
21.5700 1614.0000 1.0000
21.5800 1695.0000 1.0000
21.5900 1626.0000 1.0000
21.6000 1688.0000 1.0000
21.6100 1640.0000 1.0000
21.6200 1550.0000 1.0000
21.6300 1607.0000 1.0000
21.6400 1649.0000 1.0000
21.6500 1704.0000 1.0000
21.6600 1672.0000 1.0000
21.6700 1603.0000 1.0000
21.6800 1652.0000 1.0000
21.6900 1635.0000 1.0000
21.7000 1623.0000 1.0000
21.7100 1583.0000 1.0000
21.7200 1633.0000 1.0000
21.7300 1628.0000 1.0000
21.7400 1681.0000 1.0000
21.7500 1646.0000 1.0000
21.7600 1642.0000 1.0000
21.7700 1562.0000 1.0000
21.7800 1650.0000 1.0000
21.7900 1606.0000 1.0000
21.8000 1613.0000 1.0000
21.8100 1683.0000 1.0000
21.8200 1627.0000 1.0000
21.8300 1654.0000 1.0000
21.8400 1577.0000 1.0000
21.8500 1645.0000 1.0000
21.8600 1685.0000 1.0000
21.8700 1663.0000 1.0000
21.8800 1608.0000 1.0000
21.8900 1561.0000 1.0000
21.9000 1631.0000 1.0000
21.9100 1644.0000 1.0000
21.9200 1603.0000 1.0000
21.9300 1580.0000 1.0000
21.9400 1653.0000 1.0000
21.9500 1631.0000 1.0000
21.9600 1637.0000 1.0000
21.9700 1683.0000 1.0000
21.9800 1678.0000 1.0000
21.9900 1656.0000 1.0000
22.0000 1675.0000 1.0000
22.0100 1635.0000 1.0000
22.0200 1641.0000 1.0000
22.0300 1699.0000 1.0000
22.0400 1607.0000 1.0000
22.0500 1569.0000 1.0000
22.0600 1631.0000 1.0000
22.0700 1672.0000 1.0000
22.0800 1593.0000 1.0000
22.0900 1712.0000 1.0000
22.1000 1616.0000 1.0000
22.1100 1651.0000 1.0000
22.1200 1634.0000 1.0000
22.1300 1621.0000 1.0000
22.1400 1654.0000 1.0000
22.1500 1679.0000 1.0000
22.1600 1628.0000 1.0000
22.1700 1652.0000 1.0000
22.1800 1651.0000 1.0000
22.1900 1607.0000 1.0000
22.2000 1641.0000 1.0000
22.2100 1690.0000 1.0000
22.2200 1721.0000 1.0000
22.2300 1660.0000 1.0000
22.2400 1628.0000 1.0000
22.2500 1720.0000 1.0000
22.2600 1663.0000 1.0000
22.2700 1636.0000 1.0000
22.2800 1678.0000 1.0000
22.2900 1656.0000 1.0000
22.3000 1683.0000 1.0000
22.3100 1597.0000 1.0000
22.3200 1627.0000 1.0000
22.3300 1635.0000 1.0000
22.3400 1716.0000 1.0000
22.3500 1616.0000 1.0000
22.3600 1596.0000 1.0000
22.3700 1731.0000 1.0000
22.3800 1648.0000 1.0000
22.3900 1702.0000 1.0000
22.4000 1641.0000 1.0000
22.4100 1619.0000 1.0000
22.4200 1642.0000 1.0000
22.4300 1694.0000 1.0000
22.4400 1588.0000 1.0000
22.4500 1589.0000 1.0000
22.4600 1674.0000 1.0000
22.4700 1686.0000 1.0000
22.4800 1641.0000 1.0000
22.4900 1666.0000 1.0000
22.5000 1695.0000 1.0000
22.5100 1648.0000 1.0000
22.5200 1608.0000 1.0000
22.5300 1634.0000 1.0000
22.5400 1759.0000 1.0000
22.5500 1664.0000 1.0000
22.5600 1660.0000 1.0000
22.5700 1645.0000 1.0000
22.5800 1685.0000 1.0000
22.5900 1676.0000 1.0000
22.6000 1680.0000 1.0000
22.6100 1680.0000 1.0000
22.6200 1670.0000 1.0000
22.6300 1713.0000 1.0000
22.6400 1645.0000 1.0000
22.6500 1738.0000 1.0000
22.6600 1658.0000 1.0000
22.6700 1628.0000 1.0000
22.6800 1659.0000 1.0000
22.6900 1629.0000 1.0000
22.7000 1678.0000 1.0000
22.7100 1676.0000 1.0000
22.7200 1645.0000 1.0000
22.7300 1669.0000 1.0000
22.7400 1658.0000 1.0000
22.7500 1628.0000 1.0000
22.7600 1625.0000 1.0000
22.7700 1613.0000 1.0000
22.7800 1713.0000 1.0000
22.7900 1711.0000 1.0000
22.8000 1688.0000 1.0000
22.8100 1699.0000 1.0000
22.8200 1700.0000 1.0000
22.8300 1694.0000 1.0000
22.8400 1694.0000 1.0000
22.8500 1629.0000 1.0000
22.8600 1626.0000 1.0000
22.8700 1677.0000 1.0000
22.8800 1677.0000 1.0000
22.8900 1688.0000 1.0000
22.9000 1668.0000 1.0000
22.9100 1662.0000 1.0000
22.9200 1693.0000 1.0000
22.9300 1644.0000 1.0000
22.9400 1653.0000 1.0000
22.9500 1589.0000 1.0000
22.9600 1661.0000 1.0000
22.9700 1688.0000 1.0000
22.9800 1659.0000 1.0000
22.9900 1587.0000 1.0000
23.0000 1654.0000 1.0000
23.0100 1609.0000 1.0000
23.0200 1705.0000 1.0000
23.0300 1659.0000 1.0000
23.0400 1702.0000 1.0000
23.0500 1677.0000 1.0000
23.0600 1581.0000 1.0000
23.0700 1644.0000 1.0000
23.0800 1715.0000 1.0000
23.0900 1706.0000 1.0000
23.1000 1616.0000 1.0000
23.1100 1678.0000 1.0000
23.1200 1695.0000 1.0000
23.1300 1660.0000 1.0000
23.1400 1689.0000 1.0000
23.1500 1678.0000 1.0000
23.1600 1710.0000 1.0000
23.1700 1712.0000 1.0000
23.1800 1714.0000 1.0000
23.1900 1715.0000 1.0000
23.2000 1723.0000 1.0000
23.2100 1700.0000 1.0000
23.2200 1675.0000 1.0000
23.2300 1713.0000 1.0000
23.2400 1719.0000 1.0000
23.2500 1719.0000 1.0000
23.2600 1716.0000 1.0000
23.2700 1707.0000 1.0000
23.2800 1702.0000 1.0000
23.2900 1683.0000 1.0000
23.3000 1677.0000 1.0000
23.3100 1633.0000 1.0000
23.3200 1698.0000 1.0000
23.3300 1717.0000 1.0000
23.3400 1687.0000 1.0000
23.3500 1671.0000 1.0000
23.3600 1686.0000 1.0000
23.3700 1720.0000 1.0000
23.3800 1694.0000 1.0000
23.3900 1643.0000 1.0000
23.4000 1658.0000 1.0000
23.4100 1665.0000 1.0000
23.4200 1717.0000 1.0000
23.4300 1695.0000 1.0000
23.4400 1683.0000 1.0000
23.4500 1742.0000 1.0000
23.4600 1728.0000 1.0000
23.4700 1748.0000 1.0000
23.4800 1691.0000 1.0000
23.4900 1743.0000 1.0000
23.5000 1671.0000 1.0000
23.5100 1696.0000 1.0000
23.5200 1675.0000 1.0000
23.5300 1694.0000 1.0000
23.5400 1652.0000 1.0000
23.5500 1688.0000 1.0000
23.5600 1639.0000 1.0000
23.5700 1635.0000 1.0000
23.5800 1698.0000 1.0000
23.5900 1652.0000 1.0000
23.6000 1671.0000 1.0000
23.6100 1670.0000 1.0000
23.6200 1730.0000 1.0000
23.6300 1677.0000 1.0000
23.6400 1686.0000 1.0000
23.6500 1732.0000 1.0000
23.6600 1676.0000 1.0000
23.6700 1678.0000 1.0000
23.6800 1653.0000 1.0000
23.6900 1668.0000 1.0000
23.7000 1679.0000 1.0000
23.7100 1671.0000 1.0000
23.7200 1720.0000 1.0000
23.7300 1714.0000 1.0000
23.7400 1730.0000 1.0000
23.7500 1641.0000 1.0000
23.7600 1710.0000 1.0000
23.7700 1707.0000 1.0000
23.7800 1739.0000 1.0000
23.7900 1735.0000 1.0000
23.8000 1691.0000 1.0000
23.8100 1743.0000 1.0000
23.8200 1654.0000 1.0000
23.8300 1767.0000 1.0000
23.8400 1694.0000 1.0000
23.8500 1722.0000 1.0000
23.8600 1682.0000 1.0000
23.8700 1691.0000 1.0000
23.8800 1686.0000 1.0000
23.8900 1689.0000 1.0000
23.9000 1667.0000 1.0000
23.9100 1650.0000 1.0000
23.9200 1637.0000 1.0000
23.9300 1726.0000 1.0000
23.9400 1687.0000 1.0000
23.9500 1682.0000 1.0000
23.9600 1722.0000 1.0000
23.9700 1707.0000 1.0000
23.9800 1690.0000 1.0000
23.9900 1721.0000 1.0000
24.0000 1722.0000 1.0000
24.0100 1735.0000 1.0000
24.0200 1651.0000 1.0000
24.0300 1709.0000 1.0000
24.0400 1696.0000 1.0000
24.0500 1690.0000 1.0000
24.0600 1677.0000 1.0000
24.0700 1718.0000 1.0000
24.0800 1776.0000 1.0000
24.0900 1717.0000 1.0000
24.1000 1727.0000 1.0000
24.1100 1732.0000 1.0000
24.1200 1700.0000 1.0000
24.1300 1620.0000 1.0000
24.1400 1684.0000 1.0000
24.1500 1699.0000 1.0000
24.1600 1674.0000 1.0000
24.1700 1722.0000 1.0000
24.1800 1664.0000 1.0000
24.1900 1712.0000 1.0000
24.2000 1692.0000 1.0000
24.2100 1714.0000 1.0000
24.2200 1705.0000 1.0000
24.2300 1733.0000 1.0000
24.2400 1671.0000 1.0000
24.2500 1687.0000 1.0000
24.2600 1737.0000 1.0000
24.2700 1709.0000 1.0000
24.2800 1678.0000 1.0000
24.2900 1706.0000 1.0000
24.3000 1706.0000 1.0000
24.3100 1731.0000 1.0000
24.3200 1687.0000 1.0000
24.3300 1661.0000 1.0000
24.3400 1676.0000 1.0000
24.3500 1728.0000 1.0000
24.3600 1739.0000 1.0000
24.3700 1743.0000 1.0000
24.3800 1698.0000 1.0000
24.3900 1674.0000 1.0000
24.4000 1690.0000 1.0000
24.4100 1681.0000 1.0000
24.4200 1726.0000 1.0000
24.4300 1728.0000 1.0000
24.4400 1703.0000 1.0000
24.4500 1689.0000 1.0000
24.4600 1769.0000 1.0000
24.4700 1712.0000 1.0000
24.4800 1710.0000 1.0000
24.4900 1760.0000 1.0000
24.5000 1706.0000 1.0000
24.5100 1693.0000 1.0000
24.5200 1773.0000 1.0000
24.5300 1812.0000 1.0000
24.5400 1758.0000 1.0000
24.5500 1672.0000 1.0000
24.5600 1721.0000 1.0000
24.5700 1739.0000 1.0000
24.5800 1741.0000 1.0000
24.5900 1751.0000 1.0000
24.6000 1760.0000 1.0000
24.6100 1790.0000 1.0000
24.6200 1764.0000 1.0000
24.6300 1718.0000 1.0000
24.6400 1760.0000 1.0000
24.6500 1708.0000 1.0000
24.6600 1752.0000 1.0000
24.6700 1787.0000 1.0000
24.6800 1788.0000 1.0000
24.6900 1746.0000 1.0000
24.7000 1758.0000 1.0000
24.7100 1807.0000 1.0000
24.7200 1773.0000 1.0000
24.7300 1733.0000 1.0000
24.7400 1749.0000 1.0000
24.7500 1781.0000 1.0000
24.7600 1835.0000 1.0000
24.7700 1759.0000 1.0000
24.7800 1767.0000 1.0000
24.7900 1730.0000 1.0000
24.8000 1717.0000 1.0000
24.8100 1744.0000 1.0000
24.8200 1756.0000 1.0000
24.8300 1785.0000 1.0000
24.8400 1799.0000 1.0000
24.8500 1730.0000 1.0000
24.8600 1818.0000 1.0000
24.8700 1752.0000 1.0000
24.8800 1762.0000 1.0000
24.8900 1825.0000 1.0000
24.9000 1816.0000 1.0000
24.9100 1801.0000 1.0000
24.9200 1772.0000 1.0000
24.9300 1793.0000 1.0000
24.9400 1795.0000 1.0000
24.9500 1754.0000 1.0000
24.9600 1840.0000 1.0000
24.9700 1840.0000 1.0000
24.9800 1815.0000 1.0000
24.9900 1774.0000 1.0000
25.0000 1826.0000 1.0000
25.0100 1815.0000 1.0000
25.0200 1767.0000 1.0000
25.0300 1802.0000 1.0000
25.0400 1777.0000 1.0000
25.0500 1716.0000 1.0000
25.0600 1797.0000 1.0000
25.0700 1806.0000 1.0000
25.0800 1824.0000 1.0000
25.0900 1784.0000 1.0000
25.1000 1828.0000 1.0000
25.1100 1770.0000 1.0000
25.1200 1766.0000 1.0000
25.1300 1822.0000 1.0000
25.1400 1825.0000 1.0000
25.1500 1833.0000 1.0000
25.1600 1731.0000 1.0000
25.1700 1729.0000 1.0000
25.1800 1728.0000 1.0000
25.1900 1794.0000 1.0000
25.2000 1734.0000 1.0000
25.2100 1773.0000 1.0000
25.2200 1719.0000 1.0000
25.2300 1797.0000 1.0000
25.2400 1783.0000 1.0000
25.2500 1820.0000 1.0000
25.2600 1805.0000 1.0000
25.2700 1702.0000 1.0000
25.2800 1779.0000 1.0000
25.2900 1783.0000 1.0000
25.3000 1736.0000 1.0000
25.3100 1816.0000 1.0000
25.3200 1765.0000 1.0000
25.3300 1785.0000 1.0000
25.3400 1765.0000 1.0000
25.3500 1762.0000 1.0000
25.3600 1866.0000 1.0000
25.3700 1777.0000 1.0000
25.3800 1735.0000 1.0000
25.3900 1726.0000 1.0000
25.4000 1804.0000 1.0000
25.4100 1747.0000 1.0000
25.4200 1779.0000 1.0000
25.4300 1732.0000 1.0000
25.4400 1789.0000 1.0000
25.4500 1764.0000 1.0000
25.4600 1789.0000 1.0000
25.4700 1767.0000 1.0000
25.4800 1771.0000 1.0000
25.4900 1800.0000 1.0000
25.5000 1805.0000 1.0000
25.5100 1759.0000 1.0000
25.5200 1746.0000 1.0000
25.5300 1774.0000 1.0000
25.5400 1674.0000 1.0000
25.5500 1834.0000 1.0000
25.5600 1770.0000 1.0000
25.5700 1721.0000 1.0000
25.5800 1761.0000 1.0000
25.5900 1730.0000 1.0000
25.6000 1811.0000 1.0000
25.6100 1815.0000 1.0000
25.6200 1809.0000 1.0000
25.6300 1777.0000 1.0000
25.6400 1783.0000 1.0000
25.6500 1758.0000 1.0000
25.6600 1802.0000 1.0000
25.6700 1767.0000 1.0000
25.6800 1777.0000 1.0000
25.6900 1727.0000 1.0000
25.7000 1715.0000 1.0000
25.7100 1746.0000 1.0000
25.7200 1821.0000 1.0000
25.7300 1741.0000 1.0000
25.7400 1730.0000 1.0000
25.7500 1807.0000 1.0000
25.7600 1753.0000 1.0000
25.7700 1766.0000 1.0000
25.7800 1798.0000 1.0000
25.7900 1716.0000 1.0000
25.8000 1793.0000 1.0000
25.8100 1787.0000 1.0000
25.8200 1778.0000 1.0000
25.8300 1754.0000 1.0000
25.8400 1755.0000 1.0000
25.8500 1799.0000 1.0000
25.8600 1730.0000 1.0000
25.8700 1739.0000 1.0000
25.8800 1701.0000 1.0000
25.8900 1742.0000 1.0000
25.9000 1732.0000 1.0000
25.9100 1745.0000 1.0000
25.9200 1786.0000 1.0000
25.9300 1789.0000 1.0000
25.9400 1694.0000 1.0000
25.9500 1769.0000 1.0000
25.9600 1859.0000 1.0000
25.9700 1735.0000 1.0000
25.9800 1738.0000 1.0000
25.9900 1702.0000 1.0000
26.0000 1759.0000 1.0000
26.0100 1748.0000 1.0000
26.0200 1771.0000 1.0000
26.0300 1765.0000 1.0000
26.0400 1760.0000 1.0000
26.0500 1734.0000 1.0000
26.0600 1758.0000 1.0000
26.0700 1757.0000 1.0000
26.0800 1763.0000 1.0000
26.0900 1784.0000 1.0000
26.1000 1758.0000 1.0000
26.1100 1759.0000 1.0000
26.1200 1754.0000 1.0000
26.1300 1753.0000 1.0000
26.1400 1711.0000 1.0000
26.1500 1781.0000 1.0000
26.1600 1772.0000 1.0000
26.1700 1797.0000 1.0000
26.1800 1797.0000 1.0000
26.1900 1819.0000 1.0000
26.2000 1784.0000 1.0000
26.2100 1819.0000 1.0000
26.2200 1744.0000 1.0000
26.2300 1793.0000 1.0000
26.2400 1837.0000 1.0000
26.2500 1818.0000 1.0000
26.2600 1787.0000 1.0000
26.2700 1817.0000 1.0000
26.2800 1791.0000 1.0000
26.2900 1786.0000 1.0000
26.3000 1806.0000 1.0000
26.3100 1879.0000 1.0000
26.3200 1842.0000 1.0000
26.3300 1853.0000 1.0000
26.3400 1860.0000 1.0000
26.3500 1836.0000 1.0000
26.3600 1791.0000 1.0000
26.3700 1786.0000 1.0000
26.3800 1863.0000 1.0000
26.3900 1830.0000 1.0000
26.4000 1867.0000 1.0000
26.4100 1759.0000 1.0000
26.4200 1753.0000 1.0000
26.4300 1795.0000 1.0000
26.4400 1896.0000 1.0000
26.4500 1826.0000 1.0000
26.4600 1831.0000 1.0000
26.4700 1858.0000 1.0000
26.4800 1837.0000 1.0000
26.4900 1870.0000 1.0000
26.5000 1799.0000 1.0000
26.5100 1830.0000 1.0000
26.5200 1845.0000 1.0000
26.5300 1917.0000 1.0000
26.5400 1838.0000 1.0000
26.5500 1850.0000 1.0000
26.5600 1858.0000 1.0000
26.5700 1886.0000 1.0000
26.5800 1926.0000 1.0000
26.5900 1874.0000 1.0000
26.6000 1817.0000 1.0000
26.6100 1848.0000 1.0000
26.6200 1847.0000 1.0000
26.6300 1875.0000 1.0000
26.6400 1897.0000 1.0000
26.6500 1870.0000 1.0000
26.6600 1876.0000 1.0000
26.6700 1960.0000 1.0000
26.6800 1912.0000 1.0000
26.6900 1939.0000 1.0000
26.7000 1986.0000 1.0000
26.7100 1909.0000 1.0000
26.7200 1946.0000 1.0000
26.7300 1959.0000 1.0000
26.7400 1948.0000 1.0000
26.7500 1886.0000 1.0000
26.7600 1938.0000 1.0000
26.7700 1927.0000 1.0000
26.7800 1940.0000 1.0000
26.7900 1962.0000 1.0000
26.8000 2044.0000 1.0000
26.8100 2022.0000 1.0000
26.8200 2025.0000 1.0000
26.8300 2002.0000 1.0000
26.8400 2050.0000 1.0000
26.8500 2041.0000 1.0000
26.8600 2060.0000 1.0000
26.8700 2092.0000 1.0000
26.8800 2133.0000 1.0000
26.8900 2102.0000 1.0000
26.9000 2196.0000 1.0000
26.9100 2169.0000 1.0000
26.9200 2241.0000 1.0000
26.9300 2262.0000 1.0000
26.9400 2313.0000 1.0000
26.9500 2365.0000 1.0000
26.9600 2420.0000 1.0000
26.9700 2497.0000 1.0000
26.9800 2521.0000 1.0000
26.9900 2482.0000 1.0000
27.0000 2441.0000 1.0000
27.0100 2665.0000 1.0000
27.0200 2764.0000 1.0000
27.0300 2826.0000 1.0000
27.0400 2797.0000 1.0000
27.0500 2946.0000 1.0000
27.0600 3115.0000 1.0000
27.0700 3122.0000 1.0000
27.0800 3225.0000 1.0000
27.0900 3422.0000 1.0000
27.1000 3453.0000 1.0000
27.1100 3713.0000 1.0000
27.1200 3872.0000 1.0000
27.1300 3979.0000 1.0000
27.1400 4164.0000 1.0000
27.1500 4359.0000 1.0000
27.1600 4650.0000 1.0000
27.1700 4902.0000 1.0000
27.1800 5105.0000 1.0000
27.1900 5539.0000 1.0000
27.2000 5905.0000 1.0000
27.2100 6078.0000 1.0000
27.2200 6466.0000 1.0000
27.2300 6557.0000 1.0000
27.2400 6881.0000 1.0000
27.2500 7199.0000 1.0000
27.2600 7363.0000 1.0000
27.2700 7407.0000 1.0000
27.2800 7478.0000 1.0000
27.2900 7413.0000 1.0000
27.3000 7258.0000 1.0000
27.3100 7105.0000 1.0000
27.3200 6801.0000 1.0000
27.3300 6746.0000 1.0000
27.3400 6358.0000 1.0000
27.3500 6050.0000 1.0000
27.3600 5716.0000 1.0000
27.3700 5457.0000 1.0000
27.3800 5131.0000 1.0000
27.3900 4885.0000 1.0000
27.4000 4554.0000 1.0000
27.4100 4264.0000 1.0000
27.4200 4118.0000 1.0000
27.4300 3846.0000 1.0000
27.4400 3727.0000 1.0000
27.4500 3582.0000 1.0000
27.4600 3396.0000 1.0000
27.4700 3353.0000 1.0000
27.4800 3199.0000 1.0000
27.4900 3051.0000 1.0000
27.5000 3001.0000 1.0000
27.5100 2811.0000 1.0000
27.5200 2757.0000 1.0000
27.5300 2713.0000 1.0000
27.5400 2653.0000 1.0000
27.5500 2561.0000 1.0000
27.5600 2573.0000 1.0000
27.5700 2458.0000 1.0000
27.5800 2416.0000 1.0000
27.5900 2375.0000 1.0000
27.6000 2374.0000 1.0000
27.6100 2334.0000 1.0000
27.6200 2289.0000 1.0000
27.6300 2228.0000 1.0000
27.6400 2241.0000 1.0000
27.6500 2192.0000 1.0000
27.6600 2074.0000 1.0000
27.6700 2097.0000 1.0000
27.6800 2135.0000 1.0000
27.6900 2130.0000 1.0000
27.7000 2048.0000 1.0000
27.7100 2026.0000 1.0000
27.7200 2057.0000 1.0000
27.7300 2006.0000 1.0000
27.7400 2014.0000 1.0000
27.7500 1958.0000 1.0000
27.7600 1991.0000 1.0000
27.7700 2018.0000 1.0000
27.7800 1968.0000 1.0000
27.7900 1972.0000 1.0000
27.8000 1938.0000 1.0000
27.8100 1876.0000 1.0000
27.8200 1855.0000 1.0000
27.8300 1862.0000 1.0000
27.8400 1905.0000 1.0000
27.8500 1918.0000 1.0000
27.8600 1891.0000 1.0000
27.8700 1813.0000 1.0000
27.8800 1870.0000 1.0000
27.8900 1788.0000 1.0000
27.9000 1810.0000 1.0000
27.9100 1821.0000 1.0000
27.9200 1742.0000 1.0000
27.9300 1862.0000 1.0000
27.9400 1777.0000 1.0000
27.9500 1769.0000 1.0000
27.9600 1816.0000 1.0000
27.9700 1801.0000 1.0000
27.9800 1789.0000 1.0000
27.9900 1747.0000 1.0000
28.0000 1760.0000 1.0000
28.0100 1808.0000 1.0000
28.0200 1803.0000 1.0000
28.0300 1824.0000 1.0000
28.0400 1797.0000 1.0000
28.0500 1754.0000 1.0000
28.0600 1770.0000 1.0000
28.0700 1782.0000 1.0000
28.0800 1776.0000 1.0000
28.0900 1676.0000 1.0000
28.1000 1787.0000 1.0000
28.1100 1747.0000 1.0000
28.1200 1777.0000 1.0000
28.1300 1734.0000 1.0000
28.1400 1711.0000 1.0000
28.1500 1680.0000 1.0000
28.1600 1655.0000 1.0000
28.1700 1748.0000 1.0000
28.1800 1673.0000 1.0000
28.1900 1649.0000 1.0000
28.2000 1655.0000 1.0000
28.2100 1765.0000 1.0000
28.2200 1773.0000 1.0000
28.2300 1735.0000 1.0000
28.2400 1710.0000 1.0000
28.2500 1670.0000 1.0000
28.2600 1655.0000 1.0000
28.2700 1683.0000 1.0000
28.2800 1733.0000 1.0000
28.2900 1676.0000 1.0000
28.3000 1706.0000 1.0000
28.3100 1650.0000 1.0000
28.3200 1676.0000 1.0000
28.3300 1726.0000 1.0000
28.3400 1709.0000 1.0000
28.3500 1705.0000 1.0000
28.3600 1657.0000 1.0000
28.3700 1694.0000 1.0000
28.3800 1678.0000 1.0000
28.3900 1711.0000 1.0000
28.4000 1672.0000 1.0000
28.4100 1686.0000 1.0000
28.4200 1678.0000 1.0000
28.4300 1692.0000 1.0000
28.4400 1739.0000 1.0000
28.4500 1617.0000 1.0000
28.4600 1615.0000 1.0000
28.4700 1696.0000 1.0000
28.4800 1688.0000 1.0000
28.4900 1684.0000 1.0000
28.5000 1723.0000 1.0000
28.5100 1699.0000 1.0000
28.5200 1642.0000 1.0000
28.5300 1665.0000 1.0000
28.5400 1671.0000 1.0000
28.5500 1667.0000 1.0000
28.5600 1611.0000 1.0000
28.5700 1633.0000 1.0000
28.5800 1597.0000 1.0000
28.5900 1599.0000 1.0000
28.6000 1599.0000 1.0000
28.6100 1674.0000 1.0000
28.6200 1620.0000 1.0000
28.6300 1635.0000 1.0000
28.6400 1722.0000 1.0000
28.6500 1615.0000 1.0000
28.6600 1601.0000 1.0000
28.6700 1634.0000 1.0000
28.6800 1697.0000 1.0000
28.6900 1727.0000 1.0000
28.7000 1650.0000 1.0000
28.7100 1606.0000 1.0000
28.7200 1578.0000 1.0000
28.7300 1589.0000 1.0000
28.7400 1670.0000 1.0000
28.7500 1622.0000 1.0000
28.7600 1706.0000 1.0000
28.7700 1580.0000 1.0000
28.7800 1612.0000 1.0000
28.7900 1666.0000 1.0000
28.8000 1735.0000 1.0000
28.8100 1651.0000 1.0000
28.8200 1608.0000 1.0000
28.8300 1653.0000 1.0000
28.8400 1646.0000 1.0000
28.8500 1641.0000 1.0000
28.8600 1610.0000 1.0000
28.8700 1600.0000 1.0000
28.8800 1605.0000 1.0000
28.8900 1660.0000 1.0000
28.9000 1582.0000 1.0000
28.9100 1601.0000 1.0000
28.9200 1651.0000 1.0000
28.9300 1654.0000 1.0000
28.9400 1584.0000 1.0000
28.9500 1641.0000 1.0000
28.9600 1657.0000 1.0000
28.9700 1582.0000 1.0000
28.9800 1597.0000 1.0000
28.9900 1584.0000 1.0000
29.0000 1623.0000 1.0000
29.0100 1598.0000 1.0000
29.0200 1543.0000 1.0000
29.0300 1609.0000 1.0000
29.0400 1612.0000 1.0000
29.0500 1622.0000 1.0000
29.0600 1623.0000 1.0000
29.0700 1564.0000 1.0000
29.0800 1569.0000 1.0000
29.0900 1643.0000 1.0000
29.1000 1617.0000 1.0000
29.1100 1589.0000 1.0000
29.1200 1617.0000 1.0000
29.1300 1587.0000 1.0000
29.1400 1585.0000 1.0000
29.1500 1600.0000 1.0000
29.1600 1620.0000 1.0000
29.1700 1604.0000 1.0000
29.1800 1624.0000 1.0000
29.1900 1654.0000 1.0000
29.2000 1632.0000 1.0000
29.2100 1577.0000 1.0000
29.2200 1546.0000 1.0000
29.2300 1551.0000 1.0000
29.2400 1560.0000 1.0000
29.2500 1556.0000 1.0000
29.2600 1527.0000 1.0000
29.2700 1583.0000 1.0000
29.2800 1580.0000 1.0000
29.2900 1639.0000 1.0000
29.3000 1598.0000 1.0000
29.3100 1592.0000 1.0000
29.3200 1591.0000 1.0000
29.3300 1563.0000 1.0000
29.3400 1550.0000 1.0000
29.3500 1671.0000 1.0000
29.3600 1585.0000 1.0000
29.3700 1618.0000 1.0000
29.3800 1604.0000 1.0000
29.3900 1566.0000 1.0000
29.4000 1587.0000 1.0000
29.4100 1595.0000 1.0000
29.4200 1627.0000 1.0000
29.4300 1596.0000 1.0000
29.4400 1630.0000 1.0000
29.4500 1600.0000 1.0000
29.4600 1610.0000 1.0000
29.4700 1625.0000 1.0000
29.4800 1576.0000 1.0000
29.4900 1595.0000 1.0000
29.5000 1626.0000 1.0000
29.5100 1576.0000 1.0000
29.5200 1579.0000 1.0000
29.5300 1555.0000 1.0000
29.5400 1484.0000 1.0000
29.5500 1592.0000 1.0000
29.5600 1562.0000 1.0000
29.5700 1546.0000 1.0000
29.5800 1661.0000 1.0000
29.5900 1608.0000 1.0000
29.6000 1611.0000 1.0000
29.6100 1587.0000 1.0000
29.6200 1518.0000 1.0000
29.6300 1528.0000 1.0000
29.6400 1495.0000 1.0000
29.6500 1503.0000 1.0000
29.6600 1562.0000 1.0000
29.6700 1600.0000 1.0000
29.6800 1531.0000 1.0000
29.6900 1566.0000 1.0000
29.7000 1560.0000 1.0000
29.7100 1577.0000 1.0000
29.7200 1512.0000 1.0000
29.7300 1604.0000 1.0000
29.7400 1517.0000 1.0000
29.7500 1564.0000 1.0000
29.7600 1571.0000 1.0000
29.7700 1530.0000 1.0000
29.7800 1567.0000 1.0000
29.7900 1564.0000 1.0000
29.8000 1490.0000 1.0000
29.8100 1561.0000 1.0000
29.8200 1515.0000 1.0000
29.8300 1558.0000 1.0000
29.8400 1568.0000 1.0000
29.8500 1556.0000 1.0000
29.8600 1559.0000 1.0000
29.8700 1544.0000 1.0000
29.8800 1552.0000 1.0000
29.8900 1535.0000 1.0000
29.9000 1512.0000 1.0000
29.9100 1532.0000 1.0000
29.9200 1640.0000 1.0000
29.9300 1539.0000 1.0000
29.9400 1626.0000 1.0000
29.9500 1536.0000 1.0000
29.9600 1498.0000 1.0000
29.9700 1512.0000 1.0000
29.9800 1637.0000 1.0000
29.9900 1575.0000 1.0000
30.0000 1505.0000 1.0000
30.0100 1527.0000 1.0000
30.0200 1564.0000 1.0000
30.0300 1507.0000 1.0000
30.0400 1603.0000 1.0000
30.0500 1547.0000 1.0000
30.0600 1470.0000 1.0000
30.0700 1532.0000 1.0000
30.0800 1526.0000 1.0000
30.0900 1469.0000 1.0000
30.1000 1549.0000 1.0000
30.1100 1475.0000 1.0000
30.1200 1554.0000 1.0000
30.1300 1500.0000 1.0000
30.1400 1571.0000 1.0000
30.1500 1560.0000 1.0000
30.1600 1535.0000 1.0000
30.1700 1511.0000 1.0000
30.1800 1546.0000 1.0000
30.1900 1617.0000 1.0000
30.2000 1432.0000 1.0000
30.2100 1565.0000 1.0000
30.2200 1514.0000 1.0000
30.2300 1518.0000 1.0000
30.2400 1581.0000 1.0000
30.2500 1491.0000 1.0000
30.2600 1506.0000 1.0000
30.2700 1504.0000 1.0000
30.2800 1493.0000 1.0000
30.2900 1456.0000 1.0000
30.3000 1526.0000 1.0000
30.3100 1468.0000 1.0000
30.3200 1580.0000 1.0000
30.3300 1556.0000 1.0000
30.3400 1512.0000 1.0000
30.3500 1550.0000 1.0000
30.3600 1481.0000 1.0000
30.3700 1486.0000 1.0000
30.3800 1431.0000 1.0000
30.3900 1519.0000 1.0000
30.4000 1519.0000 1.0000
30.4100 1502.0000 1.0000
30.4200 1532.0000 1.0000
30.4300 1520.0000 1.0000
30.4400 1494.0000 1.0000
30.4500 1516.0000 1.0000
30.4600 1513.0000 1.0000
30.4700 1541.0000 1.0000
30.4800 1510.0000 1.0000
30.4900 1508.0000 1.0000
30.5000 1515.0000 1.0000
30.5100 1470.0000 1.0000
30.5200 1467.0000 1.0000
30.5300 1455.0000 1.0000
30.5400 1511.0000 1.0000
30.5500 1424.0000 1.0000
30.5600 1468.0000 1.0000
30.5700 1535.0000 1.0000
30.5800 1500.0000 1.0000
30.5900 1464.0000 1.0000
30.6000 1451.0000 1.0000
30.6100 1485.0000 1.0000
30.6200 1451.0000 1.0000
30.6300 1518.0000 1.0000
30.6400 1476.0000 1.0000
30.6500 1508.0000 1.0000
30.6600 1525.0000 1.0000
30.6700 1565.0000 1.0000
30.6800 1603.0000 1.0000
30.6900 1506.0000 1.0000
30.7000 1472.0000 1.0000
30.7100 1545.0000 1.0000
30.7200 1451.0000 1.0000
30.7300 1464.0000 1.0000
30.7400 1434.0000 1.0000
30.7500 1515.0000 1.0000
30.7600 1538.0000 1.0000
30.7700 1462.0000 1.0000
30.7800 1434.0000 1.0000
30.7900 1514.0000 1.0000
30.8000 1419.0000 1.0000
30.8100 1493.0000 1.0000
30.8200 1411.0000 1.0000
30.8300 1521.0000 1.0000
30.8400 1452.0000 1.0000
30.8500 1439.0000 1.0000
30.8600 1505.0000 1.0000
30.8700 1448.0000 1.0000
30.8800 1474.0000 1.0000
30.8900 1511.0000 1.0000
30.9000 1456.0000 1.0000
30.9100 1457.0000 1.0000
30.9200 1495.0000 1.0000
30.9300 1457.0000 1.0000
30.9400 1419.0000 1.0000
30.9500 1505.0000 1.0000
30.9600 1449.0000 1.0000
30.9700 1490.0000 1.0000
30.9800 1490.0000 1.0000
30.9900 1509.0000 1.0000
31.0000 1517.0000 1.0000
31.0100 1427.0000 1.0000
31.0200 1459.0000 1.0000
31.0300 1449.0000 1.0000
31.0400 1448.0000 1.0000
31.0500 1496.0000 1.0000
31.0600 1464.0000 1.0000
31.0700 1447.0000 1.0000
31.0800 1444.0000 1.0000
31.0900 1556.0000 1.0000
31.1000 1527.0000 1.0000
31.1100 1433.0000 1.0000
31.1200 1543.0000 1.0000
31.1300 1475.0000 1.0000
31.1400 1531.0000 1.0000
31.1500 1481.0000 1.0000
31.1600 1453.0000 1.0000
31.1700 1434.0000 1.0000
31.1800 1507.0000 1.0000
31.1900 1506.0000 1.0000
31.2000 1435.0000 1.0000
31.2100 1448.0000 1.0000
31.2200 1434.0000 1.0000
31.2300 1478.0000 1.0000
31.2400 1417.0000 1.0000
31.2500 1478.0000 1.0000
31.2600 1407.0000 1.0000
31.2700 1468.0000 1.0000
31.2800 1464.0000 1.0000
31.2900 1448.0000 1.0000
31.3000 1495.0000 1.0000
31.3100 1384.0000 1.0000
31.3200 1404.0000 1.0000
31.3300 1424.0000 1.0000
31.3400 1505.0000 1.0000
31.3500 1437.0000 1.0000
31.3600 1493.0000 1.0000
31.3700 1525.0000 1.0000
31.3800 1414.0000 1.0000
31.3900 1458.0000 1.0000
31.4000 1490.0000 1.0000
31.4100 1450.0000 1.0000
31.4200 1412.0000 1.0000
31.4300 1405.0000 1.0000
31.4400 1467.0000 1.0000
31.4500 1436.0000 1.0000
31.4600 1432.0000 1.0000
31.4700 1448.0000 1.0000
31.4800 1419.0000 1.0000
31.4900 1504.0000 1.0000
31.5000 1466.0000 1.0000
31.5100 1458.0000 1.0000
31.5200 1419.0000 1.0000
31.5300 1419.0000 1.0000
31.5400 1470.0000 1.0000
31.5500 1445.0000 1.0000
31.5600 1460.0000 1.0000
31.5700 1415.0000 1.0000
31.5800 1426.0000 1.0000
31.5900 1426.0000 1.0000
31.6000 1404.0000 1.0000
31.6100 1393.0000 1.0000
31.6200 1381.0000 1.0000
31.6300 1389.0000 1.0000
31.6400 1453.0000 1.0000
31.6500 1419.0000 1.0000
31.6600 1484.0000 1.0000
31.6700 1428.0000 1.0000
31.6800 1472.0000 1.0000
31.6900 1429.0000 1.0000
31.7000 1436.0000 1.0000
31.7100 1449.0000 1.0000
31.7200 1431.0000 1.0000
31.7300 1440.0000 1.0000
31.7400 1360.0000 1.0000
31.7500 1414.0000 1.0000
31.7600 1446.0000 1.0000
31.7700 1456.0000 1.0000
31.7800 1387.0000 1.0000
31.7900 1414.0000 1.0000
31.8000 1459.0000 1.0000
31.8100 1419.0000 1.0000
31.8200 1453.0000 1.0000
31.8300 1432.0000 1.0000
31.8400 1430.0000 1.0000
31.8500 1430.0000 1.0000
31.8600 1445.0000 1.0000
31.8700 1468.0000 1.0000
31.8800 1459.0000 1.0000
31.8900 1473.0000 1.0000
31.9000 1527.0000 1.0000
31.9100 1513.0000 1.0000
31.9200 1512.0000 1.0000
31.9300 1499.0000 1.0000
31.9400 1449.0000 1.0000
31.9500 1443.0000 1.0000
31.9600 1483.0000 1.0000
31.9700 1459.0000 1.0000
31.9800 1473.0000 1.0000
31.9900 1505.0000 1.0000
32.0000 1558.0000 1.0000
32.0100 1497.0000 1.0000
32.0200 1474.0000 1.0000
32.0300 1394.0000 1.0000
32.0400 1480.0000 1.0000
32.0500 1457.0000 1.0000
32.0600 1449.0000 1.0000
32.0700 1467.0000 1.0000
32.0800 1422.0000 1.0000
32.0900 1452.0000 1.0000
32.1000 1465.0000 1.0000
32.1100 1469.0000 1.0000
32.1200 1443.0000 1.0000
32.1300 1435.0000 1.0000
32.1400 1401.0000 1.0000
32.1500 1442.0000 1.0000
32.1600 1403.0000 1.0000
32.1700 1417.0000 1.0000
32.1800 1495.0000 1.0000
32.1900 1498.0000 1.0000
32.2000 1371.0000 1.0000
32.2100 1458.0000 1.0000
32.2200 1427.0000 1.0000
32.2300 1406.0000 1.0000
32.2400 1396.0000 1.0000
32.2500 1420.0000 1.0000
32.2600 1411.0000 1.0000
32.2700 1412.0000 1.0000
32.2800 1421.0000 1.0000
32.2900 1457.0000 1.0000
32.3000 1429.0000 1.0000
32.3100 1438.0000 1.0000
32.3200 1465.0000 1.0000
32.3300 1412.0000 1.0000
32.3400 1359.0000 1.0000
32.3500 1386.0000 1.0000
32.3600 1363.0000 1.0000
32.3700 1358.0000 1.0000
32.3800 1355.0000 1.0000
32.3900 1361.0000 1.0000
32.4000 1316.0000 1.0000
32.4100 1377.0000 1.0000
32.4200 1397.0000 1.0000
32.4300 1409.0000 1.0000
32.4400 1367.0000 1.0000
32.4500 1407.0000 1.0000
32.4600 1397.0000 1.0000
32.4700 1331.0000 1.0000
32.4800 1356.0000 1.0000
32.4900 1373.0000 1.0000
32.5000 1408.0000 1.0000
32.5100 1365.0000 1.0000
32.5200 1369.0000 1.0000
32.5300 1380.0000 1.0000
32.5400 1416.0000 1.0000
32.5500 1401.0000 1.0000
32.5600 1427.0000 1.0000
32.5700 1435.0000 1.0000
32.5800 1398.0000 1.0000
32.5900 1374.0000 1.0000
32.6000 1373.0000 1.0000
32.6100 1362.0000 1.0000
32.6200 1414.0000 1.0000
32.6300 1340.0000 1.0000
32.6400 1376.0000 1.0000
32.6500 1373.0000 1.0000
32.6600 1384.0000 1.0000
32.6700 1346.0000 1.0000
32.6800 1390.0000 1.0000
32.6900 1305.0000 1.0000
32.7000 1344.0000 1.0000
32.7100 1350.0000 1.0000
32.7200 1347.0000 1.0000
32.7300 1361.0000 1.0000
32.7400 1378.0000 1.0000
32.7500 1358.0000 1.0000
32.7600 1334.0000 1.0000
32.7700 1404.0000 1.0000
32.7800 1380.0000 1.0000
32.7900 1344.0000 1.0000
32.8000 1402.0000 1.0000
32.8100 1391.0000 1.0000
32.8200 1406.0000 1.0000
32.8300 1360.0000 1.0000
32.8400 1366.0000 1.0000
32.8500 1311.0000 1.0000
32.8600 1416.0000 1.0000
32.8700 1382.0000 1.0000
32.8800 1357.0000 1.0000
32.8900 1374.0000 1.0000
32.9000 1358.0000 1.0000
32.9100 1368.0000 1.0000
32.9200 1421.0000 1.0000
32.9300 1315.0000 1.0000
32.9400 1291.0000 1.0000
32.9500 1377.0000 1.0000
32.9600 1374.0000 1.0000
32.9700 1360.0000 1.0000
32.9800 1430.0000 1.0000
32.9900 1381.0000 1.0000
33.0000 1367.0000 1.0000
33.0100 1340.0000 1.0000
33.0200 1381.0000 1.0000
33.0300 1325.0000 1.0000
33.0400 1361.0000 1.0000
33.0500 1372.0000 1.0000
33.0600 1367.0000 1.0000
33.0700 1357.0000 1.0000
33.0800 1312.0000 1.0000
33.0900 1352.0000 1.0000
33.1000 1381.0000 1.0000
33.1100 1376.0000 1.0000
33.1200 1305.0000 1.0000
33.1300 1280.0000 1.0000
33.1400 1341.0000 1.0000
33.1500 1375.0000 1.0000
33.1600 1328.0000 1.0000
33.1700 1375.0000 1.0000
33.1800 1342.0000 1.0000
33.1900 1402.0000 1.0000
33.2000 1354.0000 1.0000
33.2100 1343.0000 1.0000
33.2200 1338.0000 1.0000
33.2300 1389.0000 1.0000
33.2400 1317.0000 1.0000
33.2500 1342.0000 1.0000
33.2600 1372.0000 1.0000
33.2700 1313.0000 1.0000
33.2800 1345.0000 1.0000
33.2900 1384.0000 1.0000
33.3000 1331.0000 1.0000
33.3100 1370.0000 1.0000
33.3200 1405.0000 1.0000
33.3300 1329.0000 1.0000
33.3400 1326.0000 1.0000
33.3500 1316.0000 1.0000
33.3600 1371.0000 1.0000
33.3700 1359.0000 1.0000
33.3800 1384.0000 1.0000
33.3900 1330.0000 1.0000
33.4000 1346.0000 1.0000
33.4100 1339.0000 1.0000
33.4200 1310.0000 1.0000
33.4300 1314.0000 1.0000
33.4400 1292.0000 1.0000
33.4500 1282.0000 1.0000
33.4600 1393.0000 1.0000
33.4700 1302.0000 1.0000
33.4800 1385.0000 1.0000
33.4900 1346.0000 1.0000
33.5000 1361.0000 1.0000
33.5100 1301.0000 1.0000
33.5200 1347.0000 1.0000
33.5300 1351.0000 1.0000
33.5400 1416.0000 1.0000
33.5500 1334.0000 1.0000
33.5600 1380.0000 1.0000
33.5700 1381.0000 1.0000
33.5800 1318.0000 1.0000
33.5900 1383.0000 1.0000
33.6000 1396.0000 1.0000
33.6100 1325.0000 1.0000
33.6200 1318.0000 1.0000
33.6300 1318.0000 1.0000
33.6400 1380.0000 1.0000
33.6500 1335.0000 1.0000
33.6600 1394.0000 1.0000
33.6700 1409.0000 1.0000
33.6800 1374.0000 1.0000
33.6900 1322.0000 1.0000
33.7000 1383.0000 1.0000
33.7100 1379.0000 1.0000
33.7200 1418.0000 1.0000
33.7300 1397.0000 1.0000
33.7400 1419.0000 1.0000
33.7500 1390.0000 1.0000
33.7600 1446.0000 1.0000
33.7700 1394.0000 1.0000
33.7800 1431.0000 1.0000
33.7900 1382.0000 1.0000
33.8000 1381.0000 1.0000
33.8100 1466.0000 1.0000
33.8200 1458.0000 1.0000
33.8300 1532.0000 1.0000
33.8400 1530.0000 1.0000
33.8500 1442.0000 1.0000
33.8600 1523.0000 1.0000
33.8700 1508.0000 1.0000
33.8800 1502.0000 1.0000
33.8900 1470.0000 1.0000
33.9000 1502.0000 1.0000
33.9100 1523.0000 1.0000
33.9200 1534.0000 1.0000
33.9300 1545.0000 1.0000
33.9400 1510.0000 1.0000
33.9500 1482.0000 1.0000
33.9600 1498.0000 1.0000
33.9700 1546.0000 1.0000
33.9800 1549.0000 1.0000
33.9900 1630.0000 1.0000
34.0000 1593.0000 1.0000
34.0100 1600.0000 1.0000
34.0200 1570.0000 1.0000
34.0300 1481.0000 1.0000
34.0400 1546.0000 1.0000
34.0500 1537.0000 1.0000
34.0600 1566.0000 1.0000
34.0700 1533.0000 1.0000
34.0800 1519.0000 1.0000
34.0900 1528.0000 1.0000
34.1000 1498.0000 1.0000
34.1100 1588.0000 1.0000
34.1200 1575.0000 1.0000
34.1300 1573.0000 1.0000
34.1400 1514.0000 1.0000
34.1500 1582.0000 1.0000
34.1600 1585.0000 1.0000
34.1700 1601.0000 1.0000
34.1800 1585.0000 1.0000
34.1900 1644.0000 1.0000
34.2000 1646.0000 1.0000
34.2100 1628.0000 1.0000
34.2200 1734.0000 1.0000
34.2300 1730.0000 1.0000
34.2400 1752.0000 1.0000
34.2500 1782.0000 1.0000
34.2600 1788.0000 1.0000
34.2700 1796.0000 1.0000
34.2800 1835.0000 1.0000
34.2900 1853.0000 1.0000
34.3000 1960.0000 1.0000
34.3100 2035.0000 1.0000
34.3200 2031.0000 1.0000
34.3300 2114.0000 1.0000
34.3400 2199.0000 1.0000
34.3500 2274.0000 1.0000
34.3600 2406.0000 1.0000
34.3700 2396.0000 1.0000
34.3800 2595.0000 1.0000
34.3900 2609.0000 1.0000
34.4000 2709.0000 1.0000
34.4100 2919.0000 1.0000
34.4200 3006.0000 1.0000
34.4300 2942.0000 1.0000
34.4400 3027.0000 1.0000
34.4500 3108.0000 1.0000
34.4600 3128.0000 1.0000
34.4700 3087.0000 1.0000
34.4800 3033.0000 1.0000
34.4900 3061.0000 1.0000
34.5000 3022.0000 1.0000
34.5100 2995.0000 1.0000
34.5200 2894.0000 1.0000
34.5300 2812.0000 1.0000
34.5400 2762.0000 1.0000
34.5500 2702.0000 1.0000
34.5600 2636.0000 1.0000
34.5700 2556.0000 1.0000
34.5800 2441.0000 1.0000
34.5900 2348.0000 1.0000
34.6000 2273.0000 1.0000
34.6100 2269.0000 1.0000
34.6200 2122.0000 1.0000
34.6300 2075.0000 1.0000
34.6400 2021.0000 1.0000
34.6500 2019.0000 1.0000
34.6600 1964.0000 1.0000
34.6700 1882.0000 1.0000
34.6800 1836.0000 1.0000
34.6900 1824.0000 1.0000
34.7000 1712.0000 1.0000
34.7100 1733.0000 1.0000
34.7200 1617.0000 1.0000
34.7300 1713.0000 1.0000
34.7400 1651.0000 1.0000
34.7500 1641.0000 1.0000
34.7600 1623.0000 1.0000
34.7700 1630.0000 1.0000
34.7800 1550.0000 1.0000
34.7900 1479.0000 1.0000
34.8000 1522.0000 1.0000
34.8100 1502.0000 1.0000
34.8200 1530.0000 1.0000
34.8300 1500.0000 1.0000
34.8400 1486.0000 1.0000
34.8500 1454.0000 1.0000
34.8600 1426.0000 1.0000
34.8700 1413.0000 1.0000
34.8800 1423.0000 1.0000
34.8900 1409.0000 1.0000
34.9000 1337.0000 1.0000
34.9100 1411.0000 1.0000
34.9200 1386.0000 1.0000
34.9300 1310.0000 1.0000
34.9400 1271.0000 1.0000
34.9500 1338.0000 1.0000
34.9600 1340.0000 1.0000
34.9700 1323.0000 1.0000
34.9800 1321.0000 1.0000
34.9900 1347.0000 1.0000
35.0000 1350.0000 1.0000
35.0100 1294.0000 1.0000
35.0200 1236.0000 1.0000
35.0300 1332.0000 1.0000
35.0400 1338.0000 1.0000
35.0500 1322.0000 1.0000
35.0600 1340.0000 1.0000
35.0700 1266.0000 1.0000
35.0800 1248.0000 1.0000
35.0900 1243.0000 1.0000
35.1000 1303.0000 1.0000
35.1100 1281.0000 1.0000
35.1200 1290.0000 1.0000
35.1300 1263.0000 1.0000
35.1400 1253.0000 1.0000
35.1500 1170.0000 1.0000
35.1600 1213.0000 1.0000
35.1700 1182.0000 1.0000
35.1800 1228.0000 1.0000
35.1900 1273.0000 1.0000
35.2000 1245.0000 1.0000
35.2100 1219.0000 1.0000
35.2200 1192.0000 1.0000
35.2300 1225.0000 1.0000
35.2400 1223.0000 1.0000
35.2500 1160.0000 1.0000
35.2600 1158.0000 1.0000
35.2700 1152.0000 1.0000
35.2800 1195.0000 1.0000
35.2900 1224.0000 1.0000
35.3000 1227.0000 1.0000
35.3100 1282.0000 1.0000
35.3200 1201.0000 1.0000
35.3300 1230.0000 1.0000
35.3400 1230.0000 1.0000
35.3500 1239.0000 1.0000
35.3600 1185.0000 1.0000
35.3700 1206.0000 1.0000
35.3800 1177.0000 1.0000
35.3900 1195.0000 1.0000
35.4000 1219.0000 1.0000
35.4100 1195.0000 1.0000
35.4200 1187.0000 1.0000
35.4300 1228.0000 1.0000
35.4400 1175.0000 1.0000
35.4500 1203.0000 1.0000
35.4600 1152.0000 1.0000
35.4700 1203.0000 1.0000
35.4800 1128.0000 1.0000
35.4900 1187.0000 1.0000
35.5000 1185.0000 1.0000
35.5100 1136.0000 1.0000
35.5200 1193.0000 1.0000
35.5300 1168.0000 1.0000
35.5400 1223.0000 1.0000
35.5500 1204.0000 1.0000
35.5600 1145.0000 1.0000
35.5700 1161.0000 1.0000
35.5800 1155.0000 1.0000
35.5900 1148.0000 1.0000
35.6000 1154.0000 1.0000
35.6100 1157.0000 1.0000
35.6200 1172.0000 1.0000
35.6300 1149.0000 1.0000
35.6400 1197.0000 1.0000
35.6500 1127.0000 1.0000
35.6600 1178.0000 1.0000
35.6700 1227.0000 1.0000
35.6800 1141.0000 1.0000
35.6900 1218.0000 1.0000
35.7000 1190.0000 1.0000
35.7100 1184.0000 1.0000
35.7200 1104.0000 1.0000
35.7300 1152.0000 1.0000
35.7400 1180.0000 1.0000
35.7500 1105.0000 1.0000
35.7600 1120.0000 1.0000
35.7700 1134.0000 1.0000
35.7800 1173.0000 1.0000
35.7900 1179.0000 1.0000
35.8000 1189.0000 1.0000
35.8100 1141.0000 1.0000
35.8200 1162.0000 1.0000
35.8300 1196.0000 1.0000
35.8400 1139.0000 1.0000
35.8500 1138.0000 1.0000
35.8600 1113.0000 1.0000
35.8700 1153.0000 1.0000
35.8800 1102.0000 1.0000
35.8900 1134.0000 1.0000
35.9000 1158.0000 1.0000
35.9100 1142.0000 1.0000
35.9200 1117.0000 1.0000
35.9300 1129.0000 1.0000
35.9400 1121.0000 1.0000
35.9500 1145.0000 1.0000
35.9600 1120.0000 1.0000
35.9700 1170.0000 1.0000
35.9800 1109.0000 1.0000
35.9900 1113.0000 1.0000
36.0000 1219.0000 1.0000
36.0100 1140.0000 1.0000
36.0200 1172.0000 1.0000
36.0300 1156.0000 1.0000
36.0400 1121.0000 1.0000
36.0500 1177.0000 1.0000
36.0600 1136.0000 1.0000
36.0700 1169.0000 1.0000
36.0800 1184.0000 1.0000
36.0900 1173.0000 1.0000
36.1000 1197.0000 1.0000
36.1100 1161.0000 1.0000
36.1200 1242.0000 1.0000
36.1300 1136.0000 1.0000
36.1400 1190.0000 1.0000
36.1500 1247.0000 1.0000
36.1600 1206.0000 1.0000
36.1700 1242.0000 1.0000
36.1800 1273.0000 1.0000
36.1900 1253.0000 1.0000
36.2000 1280.0000 1.0000
36.2100 1300.0000 1.0000
36.2200 1379.0000 1.0000
36.2300 1325.0000 1.0000
36.2400 1263.0000 1.0000
36.2500 1312.0000 1.0000
36.2600 1395.0000 1.0000
36.2700 1388.0000 1.0000
36.2800 1495.0000 1.0000
36.2900 1459.0000 1.0000
36.3000 1449.0000 1.0000
36.3100 1480.0000 1.0000
36.3200 1499.0000 1.0000
36.3300 1535.0000 1.0000
36.3400 1585.0000 1.0000
36.3500 1568.0000 1.0000
36.3600 1563.0000 1.0000
36.3700 1562.0000 1.0000
36.3800 1577.0000 1.0000
36.3900 1621.0000 1.0000
36.4000 1604.0000 1.0000
36.4100 1585.0000 1.0000
36.4200 1588.0000 1.0000
36.4300 1521.0000 1.0000
36.4400 1565.0000 1.0000
36.4500 1511.0000 1.0000
36.4600 1495.0000 1.0000
36.4700 1550.0000 1.0000
36.4800 1434.0000 1.0000
36.4900 1445.0000 1.0000
36.5000 1431.0000 1.0000
36.5100 1405.0000 1.0000
36.5200 1370.0000 1.0000
36.5300 1350.0000 1.0000
36.5400 1309.0000 1.0000
36.5500 1286.0000 1.0000
36.5600 1245.0000 1.0000
36.5700 1214.0000 1.0000
36.5800 1263.0000 1.0000
36.5900 1272.0000 1.0000
36.6000 1194.0000 1.0000
36.6100 1203.0000 1.0000
36.6200 1208.0000 1.0000
36.6300 1195.0000 1.0000
36.6400 1158.0000 1.0000
36.6500 1178.0000 1.0000
36.6600 1211.0000 1.0000
36.6700 1164.0000 1.0000
36.6800 1154.0000 1.0000
36.6900 1191.0000 1.0000
36.7000 1142.0000 1.0000
36.7100 1119.0000 1.0000
36.7200 1083.0000 1.0000
36.7300 1155.0000 1.0000
36.7400 1147.0000 1.0000
36.7500 1079.0000 1.0000
36.7600 1127.0000 1.0000
36.7700 1111.0000 1.0000
36.7800 1083.0000 1.0000
36.7900 1071.0000 1.0000
36.8000 1133.0000 1.0000
36.8100 1133.0000 1.0000
36.8200 1121.0000 1.0000
36.8300 1042.0000 1.0000
36.8400 1044.0000 1.0000
36.8500 1108.0000 1.0000
36.8600 1096.0000 1.0000
36.8700 1085.0000 1.0000
36.8800 1080.0000 1.0000
36.8900 1049.0000 1.0000
36.9000 1034.0000 1.0000
36.9100 1053.0000 1.0000
36.9200 1028.0000 1.0000
36.9300 1088.0000 1.0000
36.9400 1073.0000 1.0000
36.9500 1148.0000 1.0000
36.9600 1121.0000 1.0000
36.9700 1083.0000 1.0000
36.9800 1050.0000 1.0000
36.9900 1085.0000 1.0000
37.0000 1020.0000 1.0000
37.0100 1005.0000 1.0000
37.0200 1028.0000 1.0000
37.0300 1147.0000 1.0000
37.0400 1087.0000 1.0000
37.0500 1089.0000 1.0000
37.0600 1081.0000 1.0000
37.0700 1032.0000 1.0000
37.0800 1044.0000 1.0000
37.0900 1039.0000 1.0000
37.1000 1041.0000 1.0000
37.1100 1088.0000 1.0000
37.1200 1040.0000 1.0000
37.1300 1032.0000 1.0000
37.1400 1013.0000 1.0000
37.1500 1090.0000 1.0000
37.1600 1027.0000 1.0000
37.1700 1054.0000 1.0000
37.1800 1084.0000 1.0000
37.1900 1088.0000 1.0000
37.2000 1066.0000 1.0000
37.2100 1057.0000 1.0000
37.2200 1046.0000 1.0000
37.2300 1083.0000 1.0000
37.2400 1126.0000 1.0000
37.2500 1082.0000 1.0000
37.2600 1075.0000 1.0000
37.2700 1099.0000 1.0000
37.2800 1051.0000 1.0000
37.2900 1064.0000 1.0000
37.3000 1061.0000 1.0000
37.3100 1075.0000 1.0000
37.3200 1016.0000 1.0000
37.3300 1043.0000 1.0000
37.3400 1042.0000 1.0000
37.3500 1151.0000 1.0000
37.3600 1055.0000 1.0000
37.3700 1069.0000 1.0000
37.3800 1118.0000 1.0000
37.3900 1051.0000 1.0000
37.4000 1067.0000 1.0000
37.4100 1103.0000 1.0000
37.4200 1052.0000 1.0000
37.4300 1069.0000 1.0000
37.4400 1076.0000 1.0000
37.4500 1073.0000 1.0000
37.4600 1026.0000 1.0000
37.4700 1034.0000 1.0000
37.4800 1059.0000 1.0000
37.4900 1066.0000 1.0000
37.5000 1070.0000 1.0000
37.5100 1063.0000 1.0000
37.5200 1084.0000 1.0000
37.5300 1111.0000 1.0000
37.5400 1077.0000 1.0000
37.5500 1065.0000 1.0000
37.5600 1067.0000 1.0000
37.5700 1064.0000 1.0000
37.5800 1056.0000 1.0000
37.5900 1082.0000 1.0000
37.6000 1092.0000 1.0000
37.6100 1055.0000 1.0000
37.6200 1050.0000 1.0000
37.6300 1073.0000 1.0000
37.6400 1090.0000 1.0000
37.6500 1066.0000 1.0000
37.6600 1055.0000 1.0000
37.6700 1054.0000 1.0000
37.6800 1089.0000 1.0000
37.6900 1075.0000 1.0000
37.7000 1128.0000 1.0000
37.7100 1093.0000 1.0000
37.7200 1035.0000 1.0000
37.7300 1021.0000 1.0000
37.7400 1071.0000 1.0000
37.7500 1119.0000 1.0000
37.7600 1166.0000 1.0000
37.7700 1106.0000 1.0000
37.7800 1116.0000 1.0000
37.7900 1139.0000 1.0000
37.8000 1100.0000 1.0000
37.8100 1070.0000 1.0000
37.8200 1099.0000 1.0000
37.8300 1091.0000 1.0000
37.8400 1077.0000 1.0000
37.8500 1140.0000 1.0000
37.8600 1092.0000 1.0000
37.8700 1140.0000 1.0000
37.8800 1152.0000 1.0000
37.8900 1121.0000 1.0000
37.9000 1140.0000 1.0000
37.9100 1142.0000 1.0000
37.9200 1127.0000 1.0000
37.9300 1158.0000 1.0000
37.9400 1133.0000 1.0000
37.9500 1136.0000 1.0000
37.9600 1173.0000 1.0000
37.9700 1170.0000 1.0000
37.9800 1157.0000 1.0000
37.9900 1184.0000 1.0000
38.0000 1161.0000 1.0000
38.0100 1161.0000 1.0000
38.0200 1193.0000 1.0000
38.0300 1252.0000 1.0000
38.0400 1247.0000 1.0000
38.0500 1250.0000 1.0000
38.0600 1235.0000 1.0000
38.0700 1295.0000 1.0000
38.0800 1301.0000 1.0000
38.0900 1283.0000 1.0000
38.1000 1314.0000 1.0000
38.1100 1337.0000 1.0000
38.1200 1384.0000 1.0000
38.1300 1382.0000 1.0000
38.1400 1368.0000 1.0000
38.1500 1450.0000 1.0000
38.1600 1475.0000 1.0000
38.1700 1554.0000 1.0000
38.1800 1604.0000 1.0000
38.1900 1643.0000 1.0000
38.2000 1716.0000 1.0000
38.2100 1783.0000 1.0000
38.2200 1766.0000 1.0000
38.2300 1797.0000 1.0000
38.2400 1958.0000 1.0000
38.2500 2050.0000 1.0000
38.2600 2153.0000 1.0000
38.2700 2204.0000 1.0000
38.2800 2285.0000 1.0000
38.2900 2387.0000 1.0000
38.3000 2540.0000 1.0000
38.3100 2682.0000 1.0000
38.3200 2820.0000 1.0000
38.3300 3018.0000 1.0000
38.3400 3207.0000 1.0000
38.3500 3459.0000 1.0000
38.3600 3568.0000 1.0000
38.3700 3855.0000 1.0000
38.3800 4191.0000 1.0000
38.3900 4568.0000 1.0000
38.4000 4824.0000 1.0000
38.4100 5371.0000 1.0000
38.4200 5656.0000 1.0000
38.4300 6122.0000 1.0000
38.4400 6508.0000 1.0000
38.4500 6932.0000 1.0000
38.4600 7242.0000 1.0000
38.4700 7624.0000 1.0000
38.4800 7802.0000 1.0000
38.4900 8194.0000 1.0000
38.5000 8196.0000 1.0000
38.5100 8292.0000 1.0000
38.5200 8170.0000 1.0000
38.5300 8106.0000 1.0000
38.5400 7914.0000 1.0000
38.5500 7912.0000 1.0000
38.5600 7440.0000 1.0000
38.5700 7257.0000 1.0000
38.5800 6981.0000 1.0000
38.5900 6656.0000 1.0000
38.6000 6469.0000 1.0000
38.6100 5943.0000 1.0000
38.6200 5584.0000 1.0000
38.6300 5562.0000 1.0000
38.6400 5182.0000 1.0000
38.6500 4763.0000 1.0000
38.6600 4402.0000 1.0000
38.6700 4230.0000 1.0000
38.6800 3826.0000 1.0000
38.6900 3565.0000 1.0000
38.7000 3349.0000 1.0000
38.7100 3165.0000 1.0000
38.7200 2910.0000 1.0000
38.7300 2791.0000 1.0000
38.7400 2691.0000 1.0000
38.7500 2371.0000 1.0000
38.7600 2333.0000 1.0000
38.7700 2142.0000 1.0000
38.7800 2073.0000 1.0000
38.7900 2005.0000 1.0000
38.8000 1834.0000 1.0000
38.8100 1795.0000 1.0000
38.8200 1769.0000 1.0000
38.8300 1637.0000 1.0000
38.8400 1621.0000 1.0000
38.8500 1571.0000 1.0000
38.8600 1495.0000 1.0000
38.8700 1503.0000 1.0000
38.8800 1420.0000 1.0000
38.8900 1462.0000 1.0000
38.9000 1365.0000 1.0000
38.9100 1346.0000 1.0000
38.9200 1339.0000 1.0000
38.9300 1242.0000 1.0000
38.9400 1213.0000 1.0000
38.9500 1242.0000 1.0000
38.9600 1211.0000 1.0000
38.9700 1166.0000 1.0000
38.9800 1193.0000 1.0000
38.9900 1169.0000 1.0000
39.0000 1212.0000 1.0000
39.0100 1128.0000 1.0000
39.0200 1184.0000 1.0000
39.0300 1140.0000 1.0000
39.0400 1106.0000 1.0000
39.0500 1069.0000 1.0000
39.0600 1060.0000 1.0000
39.0700 1105.0000 1.0000
39.0800 1042.0000 1.0000
39.0900 1044.0000 1.0000
39.1000 1086.0000 1.0000
39.1100 1040.0000 1.0000
39.1200 1095.0000 1.0000
39.1300 1088.0000 1.0000
39.1400 1033.0000 1.0000
39.1500 1030.0000 1.0000
39.1600 990.0000 1.0000
39.1700 1064.0000 1.0000
39.1800 1007.0000 1.0000
39.1900 978.0000 1.0000
39.2000 1023.0000 1.0000
39.2100 1069.0000 1.0000
39.2200 1056.0000 1.0000
39.2300 1047.0000 1.0000
39.2400 1023.0000 1.0000
39.2500 984.0000 1.0000
39.2600 970.0000 1.0000
39.2700 988.0000 1.0000
39.2800 999.0000 1.0000
39.2900 994.0000 1.0000
39.3000 975.0000 1.0000
39.3100 931.0000 1.0000
39.3200 932.0000 1.0000
39.3300 956.0000 1.0000
39.3400 977.0000 1.0000
39.3500 969.0000 1.0000
39.3600 992.0000 1.0000
39.3700 1012.0000 1.0000
39.3800 977.0000 1.0000
39.3900 1004.0000 1.0000
39.4000 971.0000 1.0000
39.4100 985.0000 1.0000
39.4200 953.0000 1.0000
39.4300 972.0000 1.0000
39.4400 993.0000 1.0000
39.4500 989.0000 1.0000
39.4600 1011.0000 1.0000
39.4700 994.0000 1.0000
39.4800 1005.0000 1.0000
39.4900 996.0000 1.0000
39.5000 950.0000 1.0000
39.5100 1007.0000 1.0000
39.5200 1029.0000 1.0000
39.5300 953.0000 1.0000
39.5400 961.0000 1.0000
39.5500 1006.0000 1.0000
39.5600 1068.0000 1.0000
39.5700 1042.0000 1.0000
39.5800 1009.0000 1.0000
39.5900 998.0000 1.0000
39.6000 981.0000 1.0000
39.6100 993.0000 1.0000
39.6200 990.0000 1.0000
39.6300 992.0000 1.0000
39.6400 1004.0000 1.0000
39.6500 979.0000 1.0000
39.6600 956.0000 1.0000
39.6700 961.0000 1.0000
39.6800 980.0000 1.0000
39.6900 952.0000 1.0000
39.7000 929.0000 1.0000
39.7100 941.0000 1.0000
39.7200 972.0000 1.0000
39.7300 1004.0000 1.0000
39.7400 987.0000 1.0000
39.7500 978.0000 1.0000
39.7600 980.0000 1.0000
39.7700 921.0000 1.0000
39.7800 954.0000 1.0000
39.7900 906.0000 1.0000
39.8000 984.0000 1.0000
39.8100 956.0000 1.0000
39.8200 955.0000 1.0000
39.8300 905.0000 1.0000
39.8400 865.0000 1.0000
39.8500 945.0000 1.0000
39.8600 980.0000 1.0000
39.8700 945.0000 1.0000
39.8800 949.0000 1.0000
39.8900 918.0000 1.0000
39.9000 945.0000 1.0000
39.9100 961.0000 1.0000
39.9200 943.0000 1.0000
39.9300 938.0000 1.0000
39.9400 875.0000 1.0000
39.9500 912.0000 1.0000
39.9600 895.0000 1.0000
39.9700 946.0000 1.0000
39.9800 934.0000 1.0000
39.9900 939.0000 1.0000
40.0000 919.0000 1.0000
40.0100 937.0000 1.0000
40.0200 909.0000 1.0000
40.0300 883.0000 1.0000
40.0400 908.0000 1.0000
40.0500 908.0000 1.0000
40.0600 927.0000 1.0000
40.0700 894.0000 1.0000
40.0800 923.0000 1.0000
40.0900 858.0000 1.0000
40.1000 913.0000 1.0000
40.1100 887.0000 1.0000
40.1200 890.0000 1.0000
40.1300 847.0000 1.0000
40.1400 908.0000 1.0000
40.1500 824.0000 1.0000
40.1600 900.0000 1.0000
40.1700 898.0000 1.0000
40.1800 902.0000 1.0000
40.1900 870.0000 1.0000
40.2000 842.0000 1.0000
40.2100 883.0000 1.0000
40.2200 935.0000 1.0000
40.2300 876.0000 1.0000
40.2400 876.0000 1.0000
40.2500 871.0000 1.0000
40.2600 924.0000 1.0000
40.2700 922.0000 1.0000
40.2800 905.0000 1.0000
40.2900 873.0000 1.0000
40.3000 836.0000 1.0000
40.3100 859.0000 1.0000
40.3200 910.0000 1.0000
40.3300 893.0000 1.0000
40.3400 886.0000 1.0000
40.3500 883.0000 1.0000
40.3600 863.0000 1.0000
40.3700 846.0000 1.0000
40.3800 912.0000 1.0000
40.3900 868.0000 1.0000
40.4000 883.0000 1.0000
40.4100 880.0000 1.0000
40.4200 872.0000 1.0000
40.4300 885.0000 1.0000
40.4400 895.0000 1.0000
40.4500 928.0000 1.0000
40.4600 954.0000 1.0000
40.4700 887.0000 1.0000
40.4800 857.0000 1.0000
40.4900 901.0000 1.0000
40.5000 871.0000 1.0000
40.5100 889.0000 1.0000
40.5200 863.0000 1.0000
40.5300 939.0000 1.0000
40.5400 904.0000 1.0000
40.5500 848.0000 1.0000
40.5600 887.0000 1.0000
40.5700 873.0000 1.0000
40.5800 875.0000 1.0000
40.5900 894.0000 1.0000
40.6000 866.0000 1.0000
40.6100 892.0000 1.0000
40.6200 890.0000 1.0000
40.6300 842.0000 1.0000
40.6400 900.0000 1.0000
40.6500 861.0000 1.0000
40.6600 894.0000 1.0000
40.6700 904.0000 1.0000
40.6800 852.0000 1.0000
40.6900 852.0000 1.0000
40.7000 895.0000 1.0000
40.7100 849.0000 1.0000
40.7200 877.0000 1.0000
40.7300 882.0000 1.0000
40.7400 887.0000 1.0000
40.7500 819.0000 1.0000
40.7600 847.0000 1.0000
40.7700 844.0000 1.0000
40.7800 854.0000 1.0000
40.7900 889.0000 1.0000
40.8000 855.0000 1.0000
40.8100 875.0000 1.0000
40.8200 876.0000 1.0000
40.8300 902.0000 1.0000
40.8400 823.0000 1.0000
40.8500 898.0000 1.0000
40.8600 851.0000 1.0000
40.8700 884.0000 1.0000
40.8800 897.0000 1.0000
40.8900 876.0000 1.0000
40.9000 813.0000 1.0000
40.9100 872.0000 1.0000
40.9200 917.0000 1.0000
40.9300 857.0000 1.0000
40.9400 844.0000 1.0000
40.9500 864.0000 1.0000
40.9600 881.0000 1.0000
40.9700 897.0000 1.0000
40.9800 885.0000 1.0000
40.9900 840.0000 1.0000
41.0000 880.0000 1.0000
41.0100 917.0000 1.0000
41.0200 846.0000 1.0000
41.0300 844.0000 1.0000
41.0400 885.0000 1.0000
41.0500 830.0000 1.0000
41.0600 869.0000 1.0000
41.0700 889.0000 1.0000
41.0800 839.0000 1.0000
41.0900 867.0000 1.0000
41.1000 835.0000 1.0000
41.1100 857.0000 1.0000
41.1200 875.0000 1.0000
41.1300 915.0000 1.0000
41.1400 902.0000 1.0000
41.1500 876.0000 1.0000
41.1600 913.0000 1.0000
41.1700 898.0000 1.0000
41.1800 854.0000 1.0000
41.1900 877.0000 1.0000
41.2000 893.0000 1.0000
41.2100 868.0000 1.0000
41.2200 867.0000 1.0000
41.2300 847.0000 1.0000
41.2400 853.0000 1.0000
41.2500 890.0000 1.0000
41.2600 878.0000 1.0000
41.2700 825.0000 1.0000
41.2800 866.0000 1.0000
41.2900 817.0000 1.0000
41.3000 846.0000 1.0000
41.3100 811.0000 1.0000
41.3200 885.0000 1.0000
41.3300 922.0000 1.0000
41.3400 890.0000 1.0000
41.3500 827.0000 1.0000
41.3600 818.0000 1.0000
41.3700 835.0000 1.0000
41.3800 826.0000 1.0000
41.3900 865.0000 1.0000
41.4000 923.0000 1.0000
41.4100 854.0000 1.0000
41.4200 911.0000 1.0000
41.4300 909.0000 1.0000
41.4400 864.0000 1.0000
41.4500 832.0000 1.0000
41.4600 851.0000 1.0000
41.4700 883.0000 1.0000
41.4800 883.0000 1.0000
41.4900 894.0000 1.0000
41.5000 876.0000 1.0000
41.5100 871.0000 1.0000
41.5200 876.0000 1.0000
41.5300 877.0000 1.0000
41.5400 865.0000 1.0000
41.5500 827.0000 1.0000
41.5600 839.0000 1.0000
41.5700 864.0000 1.0000
41.5800 780.0000 1.0000
41.5900 888.0000 1.0000
41.6000 861.0000 1.0000
41.6100 892.0000 1.0000
41.6200 923.0000 1.0000
41.6300 909.0000 1.0000
41.6400 857.0000 1.0000
41.6500 877.0000 1.0000
41.6600 897.0000 1.0000
41.6700 847.0000 1.0000
41.6800 906.0000 1.0000
41.6900 893.0000 1.0000
41.7000 855.0000 1.0000
41.7100 902.0000 1.0000
41.7200 880.0000 1.0000
41.7300 904.0000 1.0000
41.7400 929.0000 1.0000
41.7500 860.0000 1.0000
41.7600 864.0000 1.0000
41.7700 863.0000 1.0000
41.7800 875.0000 1.0000
41.7900 871.0000 1.0000
41.8000 869.0000 1.0000
41.8100 866.0000 1.0000
41.8200 892.0000 1.0000
41.8300 850.0000 1.0000
41.8400 878.0000 1.0000
41.8500 835.0000 1.0000
41.8600 827.0000 1.0000
41.8700 825.0000 1.0000
41.8800 852.0000 1.0000
41.8900 882.0000 1.0000
41.9000 849.0000 1.0000
41.9100 857.0000 1.0000
41.9200 890.0000 1.0000
41.9300 840.0000 1.0000
41.9400 898.0000 1.0000
41.9500 860.0000 1.0000
41.9600 812.0000 1.0000
41.9700 829.0000 1.0000
41.9800 837.0000 1.0000
41.9900 884.0000 1.0000
42.0000 871.0000 1.0000
42.0100 846.0000 1.0000
42.0200 861.0000 1.0000
42.0300 827.0000 1.0000
42.0400 885.0000 1.0000
42.0500 831.0000 1.0000
42.0600 862.0000 1.0000
42.0700 883.0000 1.0000
42.0800 881.0000 1.0000
42.0900 935.0000 1.0000
42.1000 859.0000 1.0000
42.1100 851.0000 1.0000
42.1200 891.0000 1.0000
42.1300 869.0000 1.0000
42.1400 849.0000 1.0000
42.1500 854.0000 1.0000
42.1600 850.0000 1.0000
42.1700 799.0000 1.0000
42.1800 834.0000 1.0000
42.1900 849.0000 1.0000
42.2000 857.0000 1.0000
42.2100 803.0000 1.0000
42.2200 844.0000 1.0000
42.2300 869.0000 1.0000
42.2400 878.0000 1.0000
42.2500 891.0000 1.0000
42.2600 908.0000 1.0000
42.2700 834.0000 1.0000
42.2800 859.0000 1.0000
42.2900 812.0000 1.0000
42.3000 859.0000 1.0000
42.3100 849.0000 1.0000
42.3200 825.0000 1.0000
42.3300 833.0000 1.0000
42.3400 810.0000 1.0000
42.3500 827.0000 1.0000
42.3600 820.0000 1.0000
42.3700 808.0000 1.0000
42.3800 888.0000 1.0000
42.3900 856.0000 1.0000
42.4000 860.0000 1.0000
42.4100 874.0000 1.0000
42.4200 831.0000 1.0000
42.4300 831.0000 1.0000
42.4400 861.0000 1.0000
42.4500 811.0000 1.0000
42.4600 798.0000 1.0000
42.4700 833.0000 1.0000
42.4800 827.0000 1.0000
42.4900 873.0000 1.0000
42.5000 807.0000 1.0000
42.5100 841.0000 1.0000
42.5200 849.0000 1.0000
42.5300 861.0000 1.0000
42.5400 846.0000 1.0000
42.5500 797.0000 1.0000
42.5600 843.0000 1.0000
42.5700 858.0000 1.0000
42.5800 847.0000 1.0000
42.5900 829.0000 1.0000
42.6000 840.0000 1.0000
42.6100 833.0000 1.0000
42.6200 845.0000 1.0000
42.6300 843.0000 1.0000
42.6400 813.0000 1.0000
42.6500 798.0000 1.0000
42.6600 825.0000 1.0000
42.6700 862.0000 1.0000
42.6800 876.0000 1.0000
42.6900 853.0000 1.0000
42.7000 842.0000 1.0000
42.7100 829.0000 1.0000
42.7200 854.0000 1.0000
42.7300 876.0000 1.0000
42.7400 834.0000 1.0000
42.7500 887.0000 1.0000
42.7600 856.0000 1.0000
42.7700 891.0000 1.0000
42.7800 874.0000 1.0000
42.7900 835.0000 1.0000
42.8000 859.0000 1.0000
42.8100 814.0000 1.0000
42.8200 846.0000 1.0000
42.8300 830.0000 1.0000
42.8400 855.0000 1.0000
42.8500 915.0000 1.0000
42.8600 864.0000 1.0000
42.8700 842.0000 1.0000
42.8800 824.0000 1.0000
42.8900 833.0000 1.0000
42.9000 843.0000 1.0000
42.9100 844.0000 1.0000
42.9200 868.0000 1.0000
42.9300 850.0000 1.0000
42.9400 864.0000 1.0000
42.9500 831.0000 1.0000
42.9600 892.0000 1.0000
42.9700 917.0000 1.0000
42.9800 887.0000 1.0000
42.9900 871.0000 1.0000
43.0000 856.0000 1.0000
43.0100 888.0000 1.0000
43.0200 908.0000 1.0000
43.0300 861.0000 1.0000
43.0400 889.0000 1.0000
43.0500 893.0000 1.0000
43.0600 902.0000 1.0000
43.0700 841.0000 1.0000
43.0800 871.0000 1.0000
43.0900 933.0000 1.0000
43.1000 921.0000 1.0000
43.1100 863.0000 1.0000
43.1200 914.0000 1.0000
43.1300 920.0000 1.0000
43.1400 921.0000 1.0000
43.1500 914.0000 1.0000
43.1600 912.0000 1.0000
43.1700 982.0000 1.0000
43.1800 989.0000 1.0000
43.1900 963.0000 1.0000
43.2000 933.0000 1.0000
43.2100 969.0000 1.0000
43.2200 1003.0000 1.0000
43.2300 924.0000 1.0000
43.2400 968.0000 1.0000
43.2500 942.0000 1.0000
43.2600 914.0000 1.0000
43.2700 917.0000 1.0000
43.2800 882.0000 1.0000
43.2900 909.0000 1.0000
43.3000 899.0000 1.0000
43.3100 913.0000 1.0000
43.3200 904.0000 1.0000
43.3300 857.0000 1.0000
43.3400 910.0000 1.0000
43.3500 927.0000 1.0000
43.3600 897.0000 1.0000
43.3700 859.0000 1.0000
43.3800 884.0000 1.0000
43.3900 894.0000 1.0000
43.4000 845.0000 1.0000
43.4100 845.0000 1.0000
43.4200 872.0000 1.0000
43.4300 864.0000 1.0000
43.4400 879.0000 1.0000
43.4500 855.0000 1.0000
43.4600 889.0000 1.0000
43.4700 887.0000 1.0000
43.4800 840.0000 1.0000
43.4900 848.0000 1.0000
43.5000 795.0000 1.0000
43.5100 875.0000 1.0000
43.5200 875.0000 1.0000
43.5300 804.0000 1.0000
43.5400 844.0000 1.0000
43.5500 845.0000 1.0000
43.5600 885.0000 1.0000
43.5700 857.0000 1.0000
43.5800 805.0000 1.0000
43.5900 836.0000 1.0000
43.6000 836.0000 1.0000
43.6100 860.0000 1.0000
43.6200 851.0000 1.0000
43.6300 808.0000 1.0000
43.6400 823.0000 1.0000
43.6500 838.0000 1.0000
43.6600 838.0000 1.0000
43.6700 837.0000 1.0000
43.6800 800.0000 1.0000
43.6900 839.0000 1.0000
43.7000 848.0000 1.0000
43.7100 800.0000 1.0000
43.7200 880.0000 1.0000
43.7300 876.0000 1.0000
43.7400 862.0000 1.0000
43.7500 876.0000 1.0000
43.7600 876.0000 1.0000
43.7700 847.0000 1.0000
43.7800 831.0000 1.0000
43.7900 838.0000 1.0000
43.8000 844.0000 1.0000
43.8100 815.0000 1.0000
43.8200 846.0000 1.0000
43.8300 877.0000 1.0000
43.8400 851.0000 1.0000
43.8500 776.0000 1.0000
43.8600 824.0000 1.0000
43.8700 844.0000 1.0000
43.8800 818.0000 1.0000
43.8900 827.0000 1.0000
43.9000 810.0000 1.0000
43.9100 828.0000 1.0000
43.9200 872.0000 1.0000
43.9300 786.0000 1.0000
43.9400 843.0000 1.0000
43.9500 823.0000 1.0000
43.9600 779.0000 1.0000
43.9700 827.0000 1.0000
43.9800 854.0000 1.0000
43.9900 810.0000 1.0000
44.0000 775.0000 1.0000
44.0100 837.0000 1.0000
44.0200 833.0000 1.0000
44.0300 835.0000 1.0000
44.0400 794.0000 1.0000
44.0500 781.0000 1.0000
44.0600 783.0000 1.0000
44.0700 854.0000 1.0000
44.0800 800.0000 1.0000
44.0900 827.0000 1.0000
44.1000 901.0000 1.0000
44.1100 843.0000 1.0000
44.1200 790.0000 1.0000
44.1300 806.0000 1.0000
44.1400 798.0000 1.0000
44.1500 818.0000 1.0000
44.1600 801.0000 1.0000
44.1700 838.0000 1.0000
44.1800 823.0000 1.0000
44.1900 805.0000 1.0000
44.2000 834.0000 1.0000
44.2100 840.0000 1.0000
44.2200 852.0000 1.0000
44.2300 799.0000 1.0000
44.2400 791.0000 1.0000
44.2500 823.0000 1.0000
44.2600 790.0000 1.0000
44.2700 846.0000 1.0000
44.2800 819.0000 1.0000
44.2900 828.0000 1.0000
44.3000 824.0000 1.0000
44.3100 835.0000 1.0000
44.3200 795.0000 1.0000
44.3300 855.0000 1.0000
44.3400 858.0000 1.0000
44.3500 780.0000 1.0000
44.3600 813.0000 1.0000
44.3700 806.0000 1.0000
44.3800 803.0000 1.0000
44.3900 811.0000 1.0000
44.4000 832.0000 1.0000
44.4100 818.0000 1.0000
44.4200 852.0000 1.0000
44.4300 823.0000 1.0000
44.4400 869.0000 1.0000
44.4500 781.0000 1.0000
44.4600 793.0000 1.0000
44.4700 822.0000 1.0000
44.4800 822.0000 1.0000
44.4900 865.0000 1.0000
44.5000 840.0000 1.0000
44.5100 835.0000 1.0000
44.5200 803.0000 1.0000
44.5300 855.0000 1.0000
44.5400 774.0000 1.0000
44.5500 798.0000 1.0000
44.5600 872.0000 1.0000
44.5700 869.0000 1.0000
44.5800 748.0000 1.0000
44.5900 825.0000 1.0000
44.6000 786.0000 1.0000
44.6100 804.0000 1.0000
44.6200 798.0000 1.0000
44.6300 786.0000 1.0000
44.6400 813.0000 1.0000
44.6500 815.0000 1.0000
44.6600 796.0000 1.0000
44.6700 785.0000 1.0000
44.6800 780.0000 1.0000
44.6900 811.0000 1.0000
44.7000 806.0000 1.0000
44.7100 835.0000 1.0000
44.7200 808.0000 1.0000
44.7300 789.0000 1.0000
44.7400 821.0000 1.0000
44.7500 816.0000 1.0000
44.7600 826.0000 1.0000
44.7700 773.0000 1.0000
44.7800 810.0000 1.0000
44.7900 821.0000 1.0000
44.8000 856.0000 1.0000
44.8100 787.0000 1.0000
44.8200 759.0000 1.0000
44.8300 799.0000 1.0000
44.8400 839.0000 1.0000
44.8500 790.0000 1.0000
44.8600 841.0000 1.0000
44.8700 860.0000 1.0000
44.8800 766.0000 1.0000
44.8900 770.0000 1.0000
44.9000 816.0000 1.0000
44.9100 832.0000 1.0000
44.9200 782.0000 1.0000
44.9300 810.0000 1.0000
44.9400 808.0000 1.0000
44.9500 800.0000 1.0000
44.9600 817.0000 1.0000
44.9700 831.0000 1.0000
44.9800 810.0000 1.0000
44.9900 804.0000 1.0000
45.0000 814.0000 1.0000
45.0100 762.0000 1.0000
45.0200 807.0000 1.0000
45.0300 823.0000 1.0000
45.0400 801.0000 1.0000
45.0500 786.0000 1.0000
45.0600 772.0000 1.0000
45.0700 826.0000 1.0000
45.0800 758.0000 1.0000
45.0900 824.0000 1.0000
45.1000 800.0000 1.0000
45.1100 785.0000 1.0000
45.1200 786.0000 1.0000
45.1300 791.0000 1.0000
45.1400 814.0000 1.0000
45.1500 825.0000 1.0000
45.1600 815.0000 1.0000
45.1700 783.0000 1.0000
45.1800 834.0000 1.0000
45.1900 782.0000 1.0000
45.2000 792.0000 1.0000
45.2100 795.0000 1.0000
45.2200 776.0000 1.0000
45.2300 805.0000 1.0000
45.2400 761.0000 1.0000
45.2500 806.0000 1.0000
45.2600 778.0000 1.0000
45.2700 784.0000 1.0000
45.2800 810.0000 1.0000
45.2900 840.0000 1.0000
45.3000 844.0000 1.0000
45.3100 789.0000 1.0000
45.3200 849.0000 1.0000
45.3300 783.0000 1.0000
45.3400 813.0000 1.0000
45.3500 806.0000 1.0000
45.3600 772.0000 1.0000
45.3700 799.0000 1.0000
45.3800 784.0000 1.0000
45.3900 763.0000 1.0000
45.4000 765.0000 1.0000
45.4100 807.0000 1.0000
45.4200 808.0000 1.0000
45.4300 787.0000 1.0000
45.4400 810.0000 1.0000
45.4500 782.0000 1.0000
45.4600 762.0000 1.0000
45.4700 787.0000 1.0000
45.4800 744.0000 1.0000
45.4900 751.0000 1.0000
45.5000 783.0000 1.0000
45.5100 790.0000 1.0000
45.5200 775.0000 1.0000
45.5300 785.0000 1.0000
45.5400 747.0000 1.0000
45.5500 803.0000 1.0000
45.5600 776.0000 1.0000
45.5700 813.0000 1.0000
45.5800 787.0000 1.0000
45.5900 744.0000 1.0000
45.6000 813.0000 1.0000
45.6100 761.0000 1.0000
45.6200 748.0000 1.0000
45.6300 817.0000 1.0000
45.6400 731.0000 1.0000
45.6500 759.0000 1.0000
45.6600 794.0000 1.0000
45.6700 820.0000 1.0000
45.6800 782.0000 1.0000
45.6900 805.0000 1.0000
45.7000 778.0000 1.0000
45.7100 787.0000 1.0000
45.7200 827.0000 1.0000
45.7300 771.0000 1.0000
45.7400 771.0000 1.0000
45.7500 807.0000 1.0000
45.7600 738.0000 1.0000
45.7700 772.0000 1.0000
45.7800 764.0000 1.0000
45.7900 749.0000 1.0000
45.8000 793.0000 1.0000
45.8100 794.0000 1.0000
45.8200 761.0000 1.0000
45.8300 767.0000 1.0000
45.8400 759.0000 1.0000
45.8500 777.0000 1.0000
45.8600 804.0000 1.0000
45.8700 739.0000 1.0000
45.8800 791.0000 1.0000
45.8900 817.0000 1.0000
45.9000 820.0000 1.0000
45.9100 768.0000 1.0000
45.9200 801.0000 1.0000
45.9300 801.0000 1.0000
45.9400 815.0000 1.0000
45.9500 811.0000 1.0000
45.9600 820.0000 1.0000
45.9700 768.0000 1.0000
45.9800 779.0000 1.0000
45.9900 829.0000 1.0000
46.0000 822.0000 1.0000
46.0100 829.0000 1.0000
46.0200 804.0000 1.0000
46.0300 790.0000 1.0000
46.0400 769.0000 1.0000
46.0500 774.0000 1.0000
46.0600 798.0000 1.0000
46.0700 777.0000 1.0000
46.0800 793.0000 1.0000
46.0900 782.0000 1.0000
46.1000 771.0000 1.0000
46.1100 764.0000 1.0000
46.1200 745.0000 1.0000
46.1300 728.0000 1.0000
46.1400 781.0000 1.0000
46.1500 774.0000 1.0000
46.1600 820.0000 1.0000
46.1700 783.0000 1.0000
46.1800 801.0000 1.0000
46.1900 798.0000 1.0000
46.2000 775.0000 1.0000
46.2100 771.0000 1.0000
46.2200 771.0000 1.0000
46.2300 770.0000 1.0000
46.2400 780.0000 1.0000
46.2500 768.0000 1.0000
46.2600 770.0000 1.0000
46.2700 783.0000 1.0000
46.2800 803.0000 1.0000
46.2900 784.0000 1.0000
46.3000 772.0000 1.0000
46.3100 755.0000 1.0000
46.3200 753.0000 1.0000
46.3300 787.0000 1.0000
46.3400 764.0000 1.0000
46.3500 792.0000 1.0000
46.3600 795.0000 1.0000
46.3700 840.0000 1.0000
46.3800 799.0000 1.0000
46.3900 802.0000 1.0000
46.4000 750.0000 1.0000
46.4100 810.0000 1.0000
46.4200 752.0000 1.0000
46.4300 770.0000 1.0000
46.4400 781.0000 1.0000
46.4500 766.0000 1.0000
46.4600 769.0000 1.0000
46.4700 752.0000 1.0000
46.4800 780.0000 1.0000
46.4900 804.0000 1.0000
46.5000 756.0000 1.0000
46.5100 780.0000 1.0000
46.5200 745.0000 1.0000
46.5300 726.0000 1.0000
46.5400 766.0000 1.0000
46.5500 768.0000 1.0000
46.5600 797.0000 1.0000
46.5700 757.0000 1.0000
46.5800 802.0000 1.0000
46.5900 768.0000 1.0000
46.6000 767.0000 1.0000
46.6100 788.0000 1.0000
46.6200 783.0000 1.0000
46.6300 770.0000 1.0000
46.6400 759.0000 1.0000
46.6500 822.0000 1.0000
46.6600 735.0000 1.0000
46.6700 738.0000 1.0000
46.6800 753.0000 1.0000
46.6900 777.0000 1.0000
46.7000 747.0000 1.0000
46.7100 720.0000 1.0000
46.7200 759.0000 1.0000
46.7300 789.0000 1.0000
46.7400 753.0000 1.0000
46.7500 736.0000 1.0000
46.7600 776.0000 1.0000
46.7700 790.0000 1.0000
46.7800 754.0000 1.0000
46.7900 766.0000 1.0000
46.8000 762.0000 1.0000
46.8100 813.0000 1.0000
46.8200 804.0000 1.0000
46.8300 787.0000 1.0000
46.8400 774.0000 1.0000
46.8500 794.0000 1.0000
46.8600 744.0000 1.0000
46.8700 728.0000 1.0000
46.8800 792.0000 1.0000
46.8900 829.0000 1.0000
46.9000 789.0000 1.0000
46.9100 808.0000 1.0000
46.9200 827.0000 1.0000
46.9300 797.0000 1.0000
46.9400 805.0000 1.0000
46.9500 783.0000 1.0000
46.9600 802.0000 1.0000
46.9700 840.0000 1.0000
46.9800 773.0000 1.0000
46.9900 770.0000 1.0000
47.0000 785.0000 1.0000
47.0100 850.0000 1.0000
47.0200 780.0000 1.0000
47.0300 819.0000 1.0000
47.0400 810.0000 1.0000
47.0500 760.0000 1.0000
47.0600 760.0000 1.0000
47.0700 758.0000 1.0000
47.0800 746.0000 1.0000
47.0900 776.0000 1.0000
47.1000 758.0000 1.0000
47.1100 766.0000 1.0000
47.1200 757.0000 1.0000
47.1300 766.0000 1.0000
47.1400 816.0000 1.0000
47.1500 746.0000 1.0000
47.1600 746.0000 1.0000
47.1700 740.0000 1.0000
47.1800 792.0000 1.0000
47.1900 784.0000 1.0000
47.2000 780.0000 1.0000
47.2100 732.0000 1.0000
47.2200 770.0000 1.0000
47.2300 759.0000 1.0000
47.2400 782.0000 1.0000
47.2500 758.0000 1.0000
47.2600 771.0000 1.0000
47.2700 790.0000 1.0000
47.2800 722.0000 1.0000
47.2900 771.0000 1.0000
47.3000 765.0000 1.0000
47.3100 728.0000 1.0000
47.3200 729.0000 1.0000
47.3300 731.0000 1.0000
47.3400 749.0000 1.0000
47.3500 737.0000 1.0000
47.3600 770.0000 1.0000
47.3700 739.0000 1.0000
47.3800 745.0000 1.0000
47.3900 725.0000 1.0000
47.4000 741.0000 1.0000
47.4100 780.0000 1.0000
47.4200 768.0000 1.0000
47.4300 706.0000 1.0000
47.4400 790.0000 1.0000
47.4500 798.0000 1.0000
47.4600 797.0000 1.0000
47.4700 735.0000 1.0000
47.4800 714.0000 1.0000
47.4900 778.0000 1.0000
47.5000 783.0000 1.0000
47.5100 800.0000 1.0000
47.5200 754.0000 1.0000
47.5300 792.0000 1.0000
47.5400 750.0000 1.0000
47.5500 808.0000 1.0000
47.5600 776.0000 1.0000
47.5700 760.0000 1.0000
47.5800 765.0000 1.0000
47.5900 768.0000 1.0000
47.6000 758.0000 1.0000
47.6100 717.0000 1.0000
47.6200 683.0000 1.0000
47.6300 722.0000 1.0000
47.6400 723.0000 1.0000
47.6500 761.0000 1.0000
47.6600 767.0000 1.0000
47.6700 747.0000 1.0000
47.6800 738.0000 1.0000
47.6900 736.0000 1.0000
47.7000 793.0000 1.0000
47.7100 742.0000 1.0000
47.7200 693.0000 1.0000
47.7300 726.0000 1.0000
47.7400 730.0000 1.0000
47.7500 787.0000 1.0000
47.7600 776.0000 1.0000
47.7700 755.0000 1.0000
47.7800 739.0000 1.0000
47.7900 769.0000 1.0000
47.8000 744.0000 1.0000
47.8100 752.0000 1.0000
47.8200 714.0000 1.0000
47.8300 740.0000 1.0000
47.8400 758.0000 1.0000
47.8500 746.0000 1.0000
47.8600 761.0000 1.0000
47.8700 749.0000 1.0000
47.8800 739.0000 1.0000
47.8900 802.0000 1.0000
47.9000 778.0000 1.0000
47.9100 755.0000 1.0000
47.9200 772.0000 1.0000
47.9300 738.0000 1.0000
47.9400 745.0000 1.0000
47.9500 728.0000 1.0000
47.9600 763.0000 1.0000
47.9700 732.0000 1.0000
47.9800 718.0000 1.0000
47.9900 731.0000 1.0000
48.0000 737.0000 1.0000
48.0100 774.0000 1.0000
48.0200 753.0000 1.0000
48.0300 743.0000 1.0000
48.0400 730.0000 1.0000
48.0500 731.0000 1.0000
48.0600 731.0000 1.0000
48.0700 791.0000 1.0000
48.0800 747.0000 1.0000
48.0900 760.0000 1.0000
48.1000 795.0000 1.0000
48.1100 721.0000 1.0000
48.1200 747.0000 1.0000
48.1300 719.0000 1.0000
48.1400 712.0000 1.0000
48.1500 719.0000 1.0000
48.1600 770.0000 1.0000
48.1700 715.0000 1.0000
48.1800 732.0000 1.0000
48.1900 718.0000 1.0000
48.2000 732.0000 1.0000
48.2100 719.0000 1.0000
48.2200 771.0000 1.0000
48.2300 754.0000 1.0000
48.2400 728.0000 1.0000
48.2500 717.0000 1.0000
48.2600 741.0000 1.0000
48.2700 744.0000 1.0000
48.2800 701.0000 1.0000
48.2900 726.0000 1.0000
48.3000 755.0000 1.0000
48.3100 729.0000 1.0000
48.3200 719.0000 1.0000
48.3300 713.0000 1.0000
48.3400 749.0000 1.0000
48.3500 761.0000 1.0000
48.3600 738.0000 1.0000
48.3700 737.0000 1.0000
48.3800 742.0000 1.0000
48.3900 702.0000 1.0000
48.4000 722.0000 1.0000
48.4100 767.0000 1.0000
48.4200 757.0000 1.0000
48.4300 739.0000 1.0000
48.4400 747.0000 1.0000
48.4500 747.0000 1.0000
48.4600 777.0000 1.0000
48.4700 758.0000 1.0000
48.4800 730.0000 1.0000
48.4900 707.0000 1.0000
48.5000 732.0000 1.0000
48.5100 759.0000 1.0000
48.5200 721.0000 1.0000
48.5300 737.0000 1.0000
48.5400 716.0000 1.0000
48.5500 731.0000 1.0000
48.5600 722.0000 1.0000
48.5700 784.0000 1.0000
48.5800 732.0000 1.0000
48.5900 734.0000 1.0000
48.6000 756.0000 1.0000
48.6100 724.0000 1.0000
48.6200 727.0000 1.0000
48.6300 738.0000 1.0000
48.6400 766.0000 1.0000
48.6500 738.0000 1.0000
48.6600 765.0000 1.0000
48.6700 746.0000 1.0000
48.6800 732.0000 1.0000
48.6900 712.0000 1.0000
48.7000 710.0000 1.0000
48.7100 739.0000 1.0000
48.7200 745.0000 1.0000
48.7300 763.0000 1.0000
48.7400 749.0000 1.0000
48.7500 706.0000 1.0000
48.7600 763.0000 1.0000
48.7700 748.0000 1.0000
48.7800 783.0000 1.0000
48.7900 727.0000 1.0000
48.8000 725.0000 1.0000
48.8100 709.0000 1.0000
48.8200 717.0000 1.0000
48.8300 744.0000 1.0000
48.8400 743.0000 1.0000
48.8500 722.0000 1.0000
48.8600 708.0000 1.0000
48.8700 713.0000 1.0000
48.8800 769.0000 1.0000
48.8900 751.0000 1.0000
48.9000 729.0000 1.0000
48.9100 667.0000 1.0000
48.9200 701.0000 1.0000
48.9300 705.0000 1.0000
48.9400 700.0000 1.0000
48.9500 745.0000 1.0000
48.9600 737.0000 1.0000
48.9700 714.0000 1.0000
48.9800 704.0000 1.0000
48.9900 743.0000 1.0000
49.0000 763.0000 1.0000
49.0100 724.0000 1.0000
49.0200 716.0000 1.0000
49.0300 756.0000 1.0000
49.0400 728.0000 1.0000
49.0500 745.0000 1.0000
49.0600 753.0000 1.0000
49.0700 754.0000 1.0000
49.0800 714.0000 1.0000
49.0900 738.0000 1.0000
49.1000 740.0000 1.0000
49.1100 742.0000 1.0000
49.1200 746.0000 1.0000
49.1300 740.0000 1.0000
49.1400 741.0000 1.0000
49.1500 737.0000 1.0000
49.1600 749.0000 1.0000
49.1700 739.0000 1.0000
49.1800 711.0000 1.0000
49.1900 727.0000 1.0000
49.2000 716.0000 1.0000
49.2100 697.0000 1.0000
49.2200 742.0000 1.0000
49.2300 733.0000 1.0000
49.2400 733.0000 1.0000
49.2500 681.0000 1.0000
49.2600 690.0000 1.0000
49.2700 731.0000 1.0000
49.2800 744.0000 1.0000
49.2900 751.0000 1.0000
49.3000 718.0000 1.0000
49.3100 727.0000 1.0000
49.3200 740.0000 1.0000
49.3300 767.0000 1.0000
49.3400 687.0000 1.0000
49.3500 706.0000 1.0000
49.3600 712.0000 1.0000
49.3700 696.0000 1.0000
49.3800 701.0000 1.0000
49.3900 748.0000 1.0000
49.4000 761.0000 1.0000
49.4100 767.0000 1.0000
49.4200 748.0000 1.0000
49.4300 715.0000 1.0000
49.4400 727.0000 1.0000
49.4500 796.0000 1.0000
49.4600 731.0000 1.0000
49.4700 709.0000 1.0000
49.4800 699.0000 1.0000
49.4900 686.0000 1.0000
49.5000 748.0000 1.0000
49.5100 701.0000 1.0000
49.5200 732.0000 1.0000
49.5300 752.0000 1.0000
49.5400 686.0000 1.0000
49.5500 678.0000 1.0000
49.5600 717.0000 1.0000
49.5700 704.0000 1.0000
49.5800 689.0000 1.0000
49.5900 770.0000 1.0000
49.6000 778.0000 1.0000
49.6100 689.0000 1.0000
49.6200 725.0000 1.0000
49.6300 755.0000 1.0000
49.6400 707.0000 1.0000
49.6500 709.0000 1.0000
49.6600 723.0000 1.0000
49.6700 700.0000 1.0000
49.6800 737.0000 1.0000
49.6900 744.0000 1.0000
49.7000 750.0000 1.0000
49.7100 707.0000 1.0000
49.7200 735.0000 1.0000
49.7300 760.0000 1.0000
49.7400 715.0000 1.0000
49.7500 742.0000 1.0000
49.7600 690.0000 1.0000
49.7700 703.0000 1.0000
49.7800 739.0000 1.0000
49.7900 735.0000 1.0000
49.8000 708.0000 1.0000
49.8100 690.0000 1.0000
49.8200 697.0000 1.0000
49.8300 767.0000 1.0000
49.8400 777.0000 1.0000
49.8500 740.0000 1.0000
49.8600 705.0000 1.0000
49.8700 722.0000 1.0000
49.8800 711.0000 1.0000
49.8900 727.0000 1.0000
49.9000 750.0000 1.0000
49.9100 712.0000 1.0000
49.9200 656.0000 1.0000
49.9300 707.0000 1.0000
49.9400 710.0000 1.0000
49.9500 766.0000 1.0000
49.9600 722.0000 1.0000
49.9700 728.0000 1.0000
49.9800 742.0000 1.0000
49.9900 694.0000 1.0000
50.0000 700.0000 1.0000
50.0100 710.0000 1.0000
50.0200 720.0000 1.0000
50.0300 749.0000 1.0000
50.0400 784.0000 1.0000
50.0500 719.0000 1.0000
50.0600 709.0000 1.0000
50.0700 752.0000 1.0000
50.0800 730.0000 1.0000
50.0900 734.0000 1.0000
50.1000 717.0000 1.0000
50.1100 768.0000 1.0000
50.1200 699.0000 1.0000
50.1300 728.0000 1.0000
50.1400 747.0000 1.0000
50.1500 757.0000 1.0000
50.1600 740.0000 1.0000
50.1700 742.0000 1.0000
50.1800 752.0000 1.0000
50.1900 774.0000 1.0000
50.2000 768.0000 1.0000
50.2100 734.0000 1.0000
50.2200 744.0000 1.0000
50.2300 755.0000 1.0000
50.2400 718.0000 1.0000
50.2500 681.0000 1.0000
50.2600 736.0000 1.0000
50.2700 756.0000 1.0000
50.2800 708.0000 1.0000
50.2900 765.0000 1.0000
50.3000 718.0000 1.0000
50.3100 735.0000 1.0000
50.3200 742.0000 1.0000
50.3300 753.0000 1.0000
50.3400 754.0000 1.0000
50.3500 721.0000 1.0000
50.3600 780.0000 1.0000
50.3700 746.0000 1.0000
50.3800 734.0000 1.0000
50.3900 750.0000 1.0000
50.4000 755.0000 1.0000
50.4100 737.0000 1.0000
50.4200 777.0000 1.0000
50.4300 711.0000 1.0000
50.4400 745.0000 1.0000
50.4500 725.0000 1.0000
50.4600 760.0000 1.0000
50.4700 725.0000 1.0000
50.4800 728.0000 1.0000
50.4900 771.0000 1.0000
50.5000 722.0000 1.0000
50.5100 736.0000 1.0000
50.5200 782.0000 1.0000
50.5300 759.0000 1.0000
50.5400 716.0000 1.0000
50.5500 734.0000 1.0000
50.5600 710.0000 1.0000
50.5700 698.0000 1.0000
50.5800 746.0000 1.0000
50.5900 730.0000 1.0000
50.6000 800.0000 1.0000
50.6100 720.0000 1.0000
50.6200 779.0000 1.0000
50.6300 752.0000 1.0000
50.6400 755.0000 1.0000
50.6500 723.0000 1.0000
50.6600 754.0000 1.0000
50.6700 733.0000 1.0000
50.6800 734.0000 1.0000
50.6900 760.0000 1.0000
50.7000 770.0000 1.0000
50.7100 765.0000 1.0000
50.7200 732.0000 1.0000
50.7300 749.0000 1.0000
50.7400 712.0000 1.0000
50.7500 676.0000 1.0000
50.7600 743.0000 1.0000
50.7700 739.0000 1.0000
50.7800 724.0000 1.0000
50.7900 766.0000 1.0000
50.8000 774.0000 1.0000
50.8100 751.0000 1.0000
50.8200 741.0000 1.0000
50.8300 736.0000 1.0000
50.8400 722.0000 1.0000
50.8500 734.0000 1.0000
50.8600 728.0000 1.0000
50.8700 715.0000 1.0000
50.8800 734.0000 1.0000
50.8900 693.0000 1.0000
50.9000 744.0000 1.0000
50.9100 740.0000 1.0000
50.9200 752.0000 1.0000
50.9300 725.0000 1.0000
50.9400 748.0000 1.0000
50.9500 740.0000 1.0000
50.9600 783.0000 1.0000
50.9700 727.0000 1.0000
50.9800 765.0000 1.0000
50.9900 729.0000 1.0000
51.0000 700.0000 1.0000
51.0100 759.0000 1.0000
51.0200 740.0000 1.0000
51.0300 701.0000 1.0000
51.0400 715.0000 1.0000
51.0500 760.0000 1.0000
51.0600 774.0000 1.0000
51.0700 767.0000 1.0000
51.0800 740.0000 1.0000
51.0900 756.0000 1.0000
51.1000 727.0000 1.0000
51.1100 706.0000 1.0000
51.1200 726.0000 1.0000
51.1300 768.0000 1.0000
51.1400 767.0000 1.0000
51.1500 764.0000 1.0000
51.1600 703.0000 1.0000
51.1700 713.0000 1.0000
51.1800 777.0000 1.0000
51.1900 769.0000 1.0000
51.2000 711.0000 1.0000
51.2100 752.0000 1.0000
51.2200 742.0000 1.0000
51.2300 710.0000 1.0000
51.2400 737.0000 1.0000
51.2500 733.0000 1.0000
51.2600 769.0000 1.0000
51.2700 769.0000 1.0000
51.2800 754.0000 1.0000
51.2900 772.0000 1.0000
51.3000 757.0000 1.0000
51.3100 735.0000 1.0000
51.3200 729.0000 1.0000
51.3300 742.0000 1.0000
51.3400 806.0000 1.0000
51.3500 816.0000 1.0000
51.3600 758.0000 1.0000
51.3700 723.0000 1.0000
51.3800 799.0000 1.0000
51.3900 765.0000 1.0000
51.4000 776.0000 1.0000
51.4100 745.0000 1.0000
51.4200 756.0000 1.0000
51.4300 727.0000 1.0000
51.4400 725.0000 1.0000
51.4500 752.0000 1.0000
51.4600 756.0000 1.0000
51.4700 811.0000 1.0000
51.4800 778.0000 1.0000
51.4900 802.0000 1.0000
51.5000 794.0000 1.0000
51.5100 734.0000 1.0000
51.5200 757.0000 1.0000
51.5300 815.0000 1.0000
51.5400 772.0000 1.0000
51.5500 733.0000 1.0000
51.5600 748.0000 1.0000
51.5700 795.0000 1.0000
51.5800 754.0000 1.0000
51.5900 768.0000 1.0000
51.6000 752.0000 1.0000
51.6100 784.0000 1.0000
51.6200 843.0000 1.0000
51.6300 813.0000 1.0000
51.6400 751.0000 1.0000
51.6500 799.0000 1.0000
51.6600 779.0000 1.0000
51.6700 792.0000 1.0000
51.6800 790.0000 1.0000
51.6900 778.0000 1.0000
51.7000 782.0000 1.0000
51.7100 803.0000 1.0000
51.7200 819.0000 1.0000
51.7300 846.0000 1.0000
51.7400 803.0000 1.0000
51.7500 797.0000 1.0000
51.7600 785.0000 1.0000
51.7700 823.0000 1.0000
51.7800 851.0000 1.0000
51.7900 825.0000 1.0000
51.8000 860.0000 1.0000
51.8100 853.0000 1.0000
51.8200 870.0000 1.0000
51.8300 855.0000 1.0000
51.8400 835.0000 1.0000
51.8500 854.0000 1.0000
51.8600 891.0000 1.0000
51.8700 940.0000 1.0000
51.8800 931.0000 1.0000
51.8900 951.0000 1.0000
51.9000 973.0000 1.0000
51.9100 1001.0000 1.0000
51.9200 1035.0000 1.0000
51.9300 1108.0000 1.0000
51.9400 1027.0000 1.0000
51.9500 1117.0000 1.0000
51.9600 1162.0000 1.0000
51.9700 1258.0000 1.0000
51.9800 1247.0000 1.0000
51.9900 1323.0000 1.0000
52.0000 1343.0000 1.0000
52.0100 1372.0000 1.0000
52.0200 1406.0000 1.0000
52.0300 1509.0000 1.0000
52.0400 1572.0000 1.0000
52.0500 1662.0000 1.0000
52.0600 1700.0000 1.0000
52.0700 1838.0000 1.0000
52.0800 1948.0000 1.0000
52.0900 2086.0000 1.0000
52.1000 2290.0000 1.0000
52.1100 2398.0000 1.0000
52.1200 2654.0000 1.0000
52.1300 2766.0000 1.0000
52.1400 3031.0000 1.0000
52.1500 3353.0000 1.0000
52.1600 3683.0000 1.0000
52.1700 3977.0000 1.0000
52.1800 4214.0000 1.0000
52.1900 4587.0000 1.0000
52.2000 4730.0000 1.0000
52.2100 5147.0000 1.0000
52.2200 5305.0000 1.0000
52.2300 5345.0000 1.0000
52.2400 5304.0000 1.0000
52.2500 5340.0000 1.0000
52.2600 5248.0000 1.0000
52.2700 5034.0000 1.0000
52.2800 4839.0000 1.0000
52.2900 4767.0000 1.0000
52.3000 4534.0000 1.0000
52.3100 4396.0000 1.0000
52.3200 4357.0000 1.0000
52.3300 4274.0000 1.0000
52.3400 4186.0000 1.0000
52.3500 4059.0000 1.0000
52.3600 4027.0000 1.0000
52.3700 3846.0000 1.0000
52.3800 3638.0000 1.0000
52.3900 3609.0000 1.0000
52.4000 3457.0000 1.0000
52.4100 3166.0000 1.0000
52.4200 2994.0000 1.0000
52.4300 2747.0000 1.0000
52.4400 2546.0000 1.0000
52.4500 2430.0000 1.0000
52.4600 2182.0000 1.0000
52.4700 2113.0000 1.0000
52.4800 1922.0000 1.0000
52.4900 1841.0000 1.0000
52.5000 1696.0000 1.0000
52.5100 1668.0000 1.0000
52.5200 1583.0000 1.0000
52.5300 1528.0000 1.0000
52.5400 1455.0000 1.0000
52.5500 1356.0000 1.0000
52.5600 1321.0000 1.0000
52.5700 1286.0000 1.0000
52.5800 1236.0000 1.0000
52.5900 1165.0000 1.0000
52.6000 1151.0000 1.0000
52.6100 1107.0000 1.0000
52.6200 1046.0000 1.0000
52.6300 1097.0000 1.0000
52.6400 1059.0000 1.0000
52.6500 1035.0000 1.0000
52.6600 1004.0000 1.0000
52.6700 984.0000 1.0000
52.6800 1009.0000 1.0000
52.6900 949.0000 1.0000
52.7000 939.0000 1.0000
52.7100 969.0000 1.0000
52.7200 951.0000 1.0000
52.7300 904.0000 1.0000
52.7400 894.0000 1.0000
52.7500 929.0000 1.0000
52.7600 914.0000 1.0000
52.7700 867.0000 1.0000
52.7800 875.0000 1.0000
52.7900 867.0000 1.0000
52.8000 923.0000 1.0000
52.8100 866.0000 1.0000
52.8200 833.0000 1.0000
52.8300 857.0000 1.0000
52.8400 885.0000 1.0000
52.8500 843.0000 1.0000
52.8600 815.0000 1.0000
52.8700 828.0000 1.0000
52.8800 811.0000 1.0000
52.8900 806.0000 1.0000
52.9000 766.0000 1.0000
52.9100 800.0000 1.0000
52.9200 816.0000 1.0000
52.9300 831.0000 1.0000
52.9400 795.0000 1.0000
52.9500 798.0000 1.0000
52.9600 799.0000 1.0000
52.9700 768.0000 1.0000
52.9800 783.0000 1.0000
52.9900 755.0000 1.0000
53.0000 751.0000 1.0000
53.0100 740.0000 1.0000
53.0200 810.0000 1.0000
53.0300 773.0000 1.0000
53.0400 785.0000 1.0000
53.0500 745.0000 1.0000
53.0600 773.0000 1.0000
53.0700 749.0000 1.0000
53.0800 705.0000 1.0000
53.0900 750.0000 1.0000
53.1000 782.0000 1.0000
53.1100 738.0000 1.0000
53.1200 741.0000 1.0000
53.1300 807.0000 1.0000
53.1400 795.0000 1.0000
53.1500 765.0000 1.0000
53.1600 756.0000 1.0000
53.1700 733.0000 1.0000
53.1800 735.0000 1.0000
53.1900 735.0000 1.0000
53.2000 733.0000 1.0000
53.2100 745.0000 1.0000
53.2200 761.0000 1.0000
53.2300 713.0000 1.0000
53.2400 784.0000 1.0000
53.2500 728.0000 1.0000
53.2600 752.0000 1.0000
53.2700 722.0000 1.0000
53.2800 759.0000 1.0000
53.2900 743.0000 1.0000
53.3000 766.0000 1.0000
53.3100 726.0000 1.0000
53.3200 716.0000 1.0000
53.3300 768.0000 1.0000
53.3400 714.0000 1.0000
53.3500 776.0000 1.0000
53.3600 772.0000 1.0000
53.3700 746.0000 1.0000
53.3800 759.0000 1.0000
53.3900 728.0000 1.0000
53.4000 732.0000 1.0000
53.4100 708.0000 1.0000
53.4200 719.0000 1.0000
53.4300 714.0000 1.0000
53.4400 768.0000 1.0000
53.4500 707.0000 1.0000
53.4600 694.0000 1.0000
53.4700 708.0000 1.0000
53.4800 706.0000 1.0000
53.4900 759.0000 1.0000
53.5000 772.0000 1.0000
53.5100 750.0000 1.0000
53.5200 745.0000 1.0000
53.5300 726.0000 1.0000
53.5400 753.0000 1.0000
53.5500 763.0000 1.0000
53.5600 734.0000 1.0000
53.5700 726.0000 1.0000
53.5800 721.0000 1.0000
53.5900 715.0000 1.0000
53.6000 710.0000 1.0000
53.6100 718.0000 1.0000
53.6200 721.0000 1.0000
53.6300 735.0000 1.0000
53.6400 755.0000 1.0000
53.6500 724.0000 1.0000
53.6600 736.0000 1.0000
53.6700 746.0000 1.0000
53.6800 723.0000 1.0000
53.6900 692.0000 1.0000
53.7000 740.0000 1.0000
53.7100 702.0000 1.0000
53.7200 760.0000 1.0000
53.7300 767.0000 1.0000
53.7400 733.0000 1.0000
53.7500 756.0000 1.0000
53.7600 702.0000 1.0000
53.7700 715.0000 1.0000
53.7800 738.0000 1.0000
53.7900 761.0000 1.0000
53.8000 785.0000 1.0000
53.8100 776.0000 1.0000
53.8200 723.0000 1.0000
53.8300 712.0000 1.0000
53.8400 735.0000 1.0000
53.8500 723.0000 1.0000
53.8600 709.0000 1.0000
53.8700 742.0000 1.0000
53.8800 705.0000 1.0000
53.8900 790.0000 1.0000
53.9000 718.0000 1.0000
53.9100 764.0000 1.0000
53.9200 723.0000 1.0000
53.9300 733.0000 1.0000
53.9400 740.0000 1.0000
53.9500 735.0000 1.0000
53.9600 758.0000 1.0000
53.9700 719.0000 1.0000
53.9800 746.0000 1.0000
53.9900 735.0000 1.0000
54.0000 699.0000 1.0000
54.0100 710.0000 1.0000
54.0200 707.0000 1.0000
54.0300 775.0000 1.0000
54.0400 728.0000 1.0000
54.0500 687.0000 1.0000
54.0600 754.0000 1.0000
54.0700 710.0000 1.0000
54.0800 724.0000 1.0000
54.0900 700.0000 1.0000
54.1000 721.0000 1.0000
54.1100 736.0000 1.0000
54.1200 669.0000 1.0000
54.1300 740.0000 1.0000
54.1400 774.0000 1.0000
54.1500 739.0000 1.0000
54.1600 725.0000 1.0000
54.1700 698.0000 1.0000
54.1800 703.0000 1.0000
54.1900 683.0000 1.0000
54.2000 725.0000 1.0000
54.2100 721.0000 1.0000
54.2200 720.0000 1.0000
54.2300 702.0000 1.0000
54.2400 700.0000 1.0000
54.2500 741.0000 1.0000
54.2600 733.0000 1.0000
54.2700 708.0000 1.0000
54.2800 747.0000 1.0000
54.2900 697.0000 1.0000
54.3000 705.0000 1.0000
54.3100 738.0000 1.0000
54.3200 704.0000 1.0000
54.3300 759.0000 1.0000
54.3400 748.0000 1.0000
54.3500 745.0000 1.0000
54.3600 751.0000 1.0000
54.3700 748.0000 1.0000
54.3800 712.0000 1.0000
54.3900 717.0000 1.0000
54.4000 731.0000 1.0000
54.4100 741.0000 1.0000
54.4200 778.0000 1.0000
54.4300 749.0000 1.0000
54.4400 729.0000 1.0000
54.4500 767.0000 1.0000
54.4600 762.0000 1.0000
54.4700 747.0000 1.0000
54.4800 725.0000 1.0000
54.4900 727.0000 1.0000
54.5000 746.0000 1.0000
54.5100 752.0000 1.0000
54.5200 701.0000 1.0000
54.5300 751.0000 1.0000
54.5400 685.0000 1.0000
54.5500 765.0000 1.0000
54.5600 695.0000 1.0000
54.5700 762.0000 1.0000
54.5800 708.0000 1.0000
54.5900 711.0000 1.0000
54.6000 703.0000 1.0000
54.6100 790.0000 1.0000
54.6200 811.0000 1.0000
54.6300 731.0000 1.0000
54.6400 723.0000 1.0000
54.6500 778.0000 1.0000
54.6600 797.0000 1.0000
54.6700 723.0000 1.0000
54.6800 739.0000 1.0000
54.6900 728.0000 1.0000
54.7000 768.0000 1.0000
54.7100 726.0000 1.0000
54.7200 762.0000 1.0000
54.7300 773.0000 1.0000
54.7400 782.0000 1.0000
54.7500 774.0000 1.0000
54.7600 769.0000 1.0000
54.7700 783.0000 1.0000
54.7800 769.0000 1.0000
54.7900 805.0000 1.0000
54.8000 755.0000 1.0000
54.8100 724.0000 1.0000
54.8200 770.0000 1.0000
54.8300 749.0000 1.0000
54.8400 820.0000 1.0000
54.8500 800.0000 1.0000
54.8600 814.0000 1.0000
54.8700 792.0000 1.0000
54.8800 776.0000 1.0000
54.8900 795.0000 1.0000
54.9000 827.0000 1.0000
54.9100 750.0000 1.0000
54.9200 791.0000 1.0000
54.9300 786.0000 1.0000
54.9400 779.0000 1.0000
54.9500 781.0000 1.0000
54.9600 819.0000 1.0000
54.9700 834.0000 1.0000
54.9800 814.0000 1.0000
54.9900 757.0000 1.0000
55.0000 773.0000 1.0000
55.0100 839.0000 1.0000
55.0200 878.0000 1.0000
55.0300 885.0000 1.0000
55.0400 823.0000 1.0000
55.0500 835.0000 1.0000
55.0600 841.0000 1.0000
55.0700 772.0000 1.0000
55.0800 874.0000 1.0000
55.0900 919.0000 1.0000
55.1000 926.0000 1.0000
55.1100 860.0000 1.0000
55.1200 921.0000 1.0000
55.1300 899.0000 1.0000
55.1400 991.0000 1.0000
55.1500 994.0000 1.0000
55.1600 1054.0000 1.0000
55.1700 1022.0000 1.0000
55.1800 1047.0000 1.0000
55.1900 1053.0000 1.0000
55.2000 1121.0000 1.0000
55.2100 1104.0000 1.0000
55.2200 1171.0000 1.0000
55.2300 1168.0000 1.0000
55.2400 1174.0000 1.0000
55.2500 1206.0000 1.0000
55.2600 1152.0000 1.0000
55.2700 1122.0000 1.0000
55.2800 1149.0000 1.0000
55.2900 1162.0000 1.0000
55.3000 1187.0000 1.0000
55.3100 1093.0000 1.0000
55.3200 1091.0000 1.0000
55.3300 1122.0000 1.0000
55.3400 1071.0000 1.0000
55.3500 1057.0000 1.0000
55.3600 1122.0000 1.0000
55.3700 1115.0000 1.0000
55.3800 1040.0000 1.0000
55.3900 1020.0000 1.0000
55.4000 994.0000 1.0000
55.4100 972.0000 1.0000
55.4200 996.0000 1.0000
55.4300 975.0000 1.0000
55.4400 1011.0000 1.0000
55.4500 945.0000 1.0000
55.4600 936.0000 1.0000
55.4700 936.0000 1.0000
55.4800 878.0000 1.0000
55.4900 911.0000 1.0000
55.5000 914.0000 1.0000
55.5100 822.0000 1.0000
55.5200 809.0000 1.0000
55.5300 839.0000 1.0000
55.5400 801.0000 1.0000
55.5500 830.0000 1.0000
55.5600 850.0000 1.0000
55.5700 822.0000 1.0000
55.5800 840.0000 1.0000
55.5900 801.0000 1.0000
55.6000 827.0000 1.0000
55.6100 719.0000 1.0000
55.6200 790.0000 1.0000
55.6300 794.0000 1.0000
55.6400 768.0000 1.0000
55.6500 737.0000 1.0000
55.6600 777.0000 1.0000
55.6700 726.0000 1.0000
55.6800 743.0000 1.0000
55.6900 769.0000 1.0000
55.7000 769.0000 1.0000
55.7100 793.0000 1.0000
55.7200 781.0000 1.0000
55.7300 725.0000 1.0000
55.7400 733.0000 1.0000
55.7500 687.0000 1.0000
55.7600 752.0000 1.0000
55.7700 739.0000 1.0000
55.7800 731.0000 1.0000
55.7900 763.0000 1.0000
55.8000 807.0000 1.0000
55.8100 770.0000 1.0000
55.8200 729.0000 1.0000
55.8300 679.0000 1.0000
55.8400 721.0000 1.0000
55.8500 696.0000 1.0000
55.8600 769.0000 1.0000
55.8700 699.0000 1.0000
55.8800 673.0000 1.0000
55.8900 682.0000 1.0000
55.9000 705.0000 1.0000
55.9100 735.0000 1.0000
55.9200 708.0000 1.0000
55.9300 704.0000 1.0000
55.9400 730.0000 1.0000
55.9500 744.0000 1.0000
55.9600 748.0000 1.0000
55.9700 709.0000 1.0000
55.9800 729.0000 1.0000
55.9900 755.0000 1.0000
56.0000 725.0000 1.0000
56.0100 723.0000 1.0000
56.0200 711.0000 1.0000
56.0300 738.0000 1.0000
56.0400 677.0000 1.0000
56.0500 710.0000 1.0000
56.0600 708.0000 1.0000
56.0700 721.0000 1.0000
56.0800 651.0000 1.0000
56.0900 728.0000 1.0000
56.1000 700.0000 1.0000
56.1100 731.0000 1.0000
56.1200 678.0000 1.0000
56.1300 745.0000 1.0000
56.1400 711.0000 1.0000
56.1500 693.0000 1.0000
56.1600 733.0000 1.0000
56.1700 708.0000 1.0000
56.1800 725.0000 1.0000
56.1900 689.0000 1.0000
56.2000 649.0000 1.0000
56.2100 699.0000 1.0000
56.2200 674.0000 1.0000
56.2300 700.0000 1.0000
56.2400 723.0000 1.0000
56.2500 714.0000 1.0000
56.2600 702.0000 1.0000
56.2700 689.0000 1.0000
56.2800 728.0000 1.0000
56.2900 708.0000 1.0000
56.3000 733.0000 1.0000
56.3100 712.0000 1.0000
56.3200 714.0000 1.0000
56.3300 701.0000 1.0000
56.3400 687.0000 1.0000
56.3500 670.0000 1.0000
56.3600 660.0000 1.0000
56.3700 659.0000 1.0000
56.3800 674.0000 1.0000
56.3900 705.0000 1.0000
56.4000 710.0000 1.0000
56.4100 736.0000 1.0000
56.4200 700.0000 1.0000
56.4300 716.0000 1.0000
56.4400 720.0000 1.0000
56.4500 665.0000 1.0000
56.4600 689.0000 1.0000
56.4700 703.0000 1.0000
56.4800 720.0000 1.0000
56.4900 696.0000 1.0000
56.5000 702.0000 1.0000
56.5100 688.0000 1.0000
56.5200 663.0000 1.0000
56.5300 695.0000 1.0000
56.5400 675.0000 1.0000
56.5500 658.0000 1.0000
56.5600 660.0000 1.0000
56.5700 667.0000 1.0000
56.5800 672.0000 1.0000
56.5900 672.0000 1.0000
56.6000 702.0000 1.0000
56.6100 716.0000 1.0000
56.6200 671.0000 1.0000
56.6300 669.0000 1.0000
56.6400 694.0000 1.0000
56.6500 680.0000 1.0000
56.6600 688.0000 1.0000
56.6700 641.0000 1.0000
56.6800 705.0000 1.0000
56.6900 686.0000 1.0000
56.7000 687.0000 1.0000
56.7100 684.0000 1.0000
56.7200 706.0000 1.0000
56.7300 682.0000 1.0000
56.7400 671.0000 1.0000
56.7500 691.0000 1.0000
56.7600 707.0000 1.0000
56.7700 651.0000 1.0000
56.7800 670.0000 1.0000
56.7900 682.0000 1.0000
56.8000 665.0000 1.0000
56.8100 673.0000 1.0000
56.8200 675.0000 1.0000
56.8300 697.0000 1.0000
56.8400 716.0000 1.0000
56.8500 680.0000 1.0000
56.8600 670.0000 1.0000
56.8700 712.0000 1.0000
56.8800 693.0000 1.0000
56.8900 680.0000 1.0000
56.9000 703.0000 1.0000
56.9100 706.0000 1.0000
56.9200 710.0000 1.0000
56.9300 688.0000 1.0000
56.9400 690.0000 1.0000
56.9500 685.0000 1.0000
56.9600 666.0000 1.0000
56.9700 685.0000 1.0000
56.9800 668.0000 1.0000
56.9900 694.0000 1.0000
57.0000 704.0000 1.0000
57.0100 674.0000 1.0000
57.0200 691.0000 1.0000
57.0300 694.0000 1.0000
57.0400 698.0000 1.0000
57.0500 651.0000 1.0000
57.0600 697.0000 1.0000
57.0700 655.0000 1.0000
57.0800 674.0000 1.0000
57.0900 678.0000 1.0000
57.1000 710.0000 1.0000
57.1100 648.0000 1.0000
57.1200 681.0000 1.0000
57.1300 688.0000 1.0000
57.1400 675.0000 1.0000
57.1500 667.0000 1.0000
57.1600 686.0000 1.0000
57.1700 726.0000 1.0000
57.1800 702.0000 1.0000
57.1900 687.0000 1.0000
57.2000 675.0000 1.0000
57.2100 661.0000 1.0000
57.2200 695.0000 1.0000
57.2300 713.0000 1.0000
57.2400 670.0000 1.0000
57.2500 714.0000 1.0000
57.2600 684.0000 1.0000
57.2700 710.0000 1.0000
57.2800 706.0000 1.0000
57.2900 692.0000 1.0000
57.3000 668.0000 1.0000
57.3100 643.0000 1.0000
57.3200 648.0000 1.0000
57.3300 645.0000 1.0000
57.3400 708.0000 1.0000
57.3500 714.0000 1.0000
57.3600 677.0000 1.0000
57.3700 659.0000 1.0000
57.3800 665.0000 1.0000
57.3900 747.0000 1.0000
57.4000 667.0000 1.0000
57.4100 664.0000 1.0000
57.4200 674.0000 1.0000
57.4300 712.0000 1.0000
57.4400 681.0000 1.0000
57.4500 725.0000 1.0000
57.4600 692.0000 1.0000
57.4700 675.0000 1.0000
57.4800 706.0000 1.0000
57.4900 650.0000 1.0000
57.5000 690.0000 1.0000
57.5100 689.0000 1.0000
57.5200 639.0000 1.0000
57.5300 672.0000 1.0000
57.5400 653.0000 1.0000
57.5500 696.0000 1.0000
57.5600 668.0000 1.0000
57.5700 691.0000 1.0000
57.5800 693.0000 1.0000
57.5900 687.0000 1.0000
57.6000 687.0000 1.0000
57.6100 681.0000 1.0000
57.6200 691.0000 1.0000
57.6300 689.0000 1.0000
57.6400 717.0000 1.0000
57.6500 709.0000 1.0000
57.6600 685.0000 1.0000
57.6700 651.0000 1.0000
57.6800 698.0000 1.0000
57.6900 699.0000 1.0000
57.7000 664.0000 1.0000
57.7100 698.0000 1.0000
57.7200 705.0000 1.0000
57.7300 688.0000 1.0000
57.7400 698.0000 1.0000
57.7500 689.0000 1.0000
57.7600 700.0000 1.0000
57.7700 659.0000 1.0000
57.7800 669.0000 1.0000
57.7900 627.0000 1.0000
57.8000 710.0000 1.0000
57.8100 731.0000 1.0000
57.8200 704.0000 1.0000
57.8300 689.0000 1.0000
57.8400 673.0000 1.0000
57.8500 648.0000 1.0000
57.8600 687.0000 1.0000
57.8700 706.0000 1.0000
57.8800 688.0000 1.0000
57.8900 673.0000 1.0000
57.9000 698.0000 1.0000
57.9100 691.0000 1.0000
57.9200 671.0000 1.0000
57.9300 692.0000 1.0000
57.9400 683.0000 1.0000
57.9500 688.0000 1.0000
57.9600 696.0000 1.0000
57.9700 708.0000 1.0000
57.9800 682.0000 1.0000
57.9900 679.0000 1.0000
58.0000 668.0000 1.0000
58.0100 724.0000 1.0000
58.0200 652.0000 1.0000
58.0300 663.0000 1.0000
58.0400 682.0000 1.0000
58.0500 685.0000 1.0000
58.0600 677.0000 1.0000
58.0700 678.0000 1.0000
58.0800 693.0000 1.0000
58.0900 739.0000 1.0000
58.1000 666.0000 1.0000
58.1100 695.0000 1.0000
58.1200 694.0000 1.0000
58.1300 699.0000 1.0000
58.1400 683.0000 1.0000
58.1500 702.0000 1.0000
58.1600 690.0000 1.0000
58.1700 677.0000 1.0000
58.1800 692.0000 1.0000
58.1900 691.0000 1.0000
58.2000 733.0000 1.0000
58.2100 718.0000 1.0000
58.2200 705.0000 1.0000
58.2300 676.0000 1.0000
58.2400 735.0000 1.0000
58.2500 696.0000 1.0000
58.2600 714.0000 1.0000
58.2700 683.0000 1.0000
58.2800 726.0000 1.0000
58.2900 700.0000 1.0000
58.3000 713.0000 1.0000
58.3100 678.0000 1.0000
58.3200 714.0000 1.0000
58.3300 730.0000 1.0000
58.3400 680.0000 1.0000
58.3500 727.0000 1.0000
58.3600 705.0000 1.0000
58.3700 733.0000 1.0000
58.3800 704.0000 1.0000
58.3900 648.0000 1.0000
58.4000 710.0000 1.0000
58.4100 731.0000 1.0000
58.4200 707.0000 1.0000
58.4300 683.0000 1.0000
58.4400 727.0000 1.0000
58.4500 666.0000 1.0000
58.4600 741.0000 1.0000
58.4700 694.0000 1.0000
58.4800 708.0000 1.0000
58.4900 671.0000 1.0000
58.5000 680.0000 1.0000
58.5100 700.0000 1.0000
58.5200 732.0000 1.0000
58.5300 672.0000 1.0000
58.5400 731.0000 1.0000
58.5500 703.0000 1.0000
58.5600 725.0000 1.0000
58.5700 697.0000 1.0000
58.5800 682.0000 1.0000
58.5900 691.0000 1.0000
58.6000 714.0000 1.0000
58.6100 694.0000 1.0000
58.6200 739.0000 1.0000
58.6300 726.0000 1.0000
58.6400 708.0000 1.0000
58.6500 679.0000 1.0000
58.6600 667.0000 1.0000
58.6700 696.0000 1.0000
58.6800 729.0000 1.0000
58.6900 713.0000 1.0000
58.7000 725.0000 1.0000
58.7100 684.0000 1.0000
58.7200 699.0000 1.0000
58.7300 705.0000 1.0000
58.7400 673.0000 1.0000
58.7500 675.0000 1.0000
58.7600 643.0000 1.0000
58.7700 679.0000 1.0000
58.7800 635.0000 1.0000
58.7900 671.0000 1.0000
58.8000 643.0000 1.0000
58.8100 706.0000 1.0000
58.8200 724.0000 1.0000
58.8300 719.0000 1.0000
58.8400 714.0000 1.0000
58.8500 661.0000 1.0000
58.8600 671.0000 1.0000
58.8700 657.0000 1.0000
58.8800 635.0000 1.0000
58.8900 667.0000 1.0000
58.9000 700.0000 1.0000
58.9100 710.0000 1.0000
58.9200 680.0000 1.0000
58.9300 714.0000 1.0000
58.9400 727.0000 1.0000
58.9500 704.0000 1.0000
58.9600 675.0000 1.0000
58.9700 741.0000 1.0000
58.9800 682.0000 1.0000
58.9900 665.0000 1.0000
59.0000 721.0000 1.0000
59.0100 689.0000 1.0000
59.0200 681.0000 1.0000
59.0300 688.0000 1.0000
59.0400 713.0000 1.0000
59.0500 697.0000 1.0000
59.0600 686.0000 1.0000
59.0700 715.0000 1.0000
59.0800 659.0000 1.0000
59.0900 687.0000 1.0000
59.1000 674.0000 1.0000
59.1100 693.0000 1.0000
59.1200 690.0000 1.0000
59.1300 691.0000 1.0000
59.1400 703.0000 1.0000
59.1500 712.0000 1.0000
59.1600 696.0000 1.0000
59.1700 663.0000 1.0000
59.1800 679.0000 1.0000
59.1900 733.0000 1.0000
59.2000 658.0000 1.0000
59.2100 702.0000 1.0000
59.2200 705.0000 1.0000
59.2300 719.0000 1.0000
59.2400 699.0000 1.0000
59.2500 741.0000 1.0000
59.2600 686.0000 1.0000
59.2700 669.0000 1.0000
59.2800 713.0000 1.0000
59.2900 685.0000 1.0000
59.3000 724.0000 1.0000
59.3100 711.0000 1.0000
59.3200 705.0000 1.0000
59.3300 725.0000 1.0000
59.3400 720.0000 1.0000
59.3500 681.0000 1.0000
59.3600 693.0000 1.0000
59.3700 713.0000 1.0000
59.3800 702.0000 1.0000
59.3900 706.0000 1.0000
59.4000 702.0000 1.0000
59.4100 716.0000 1.0000
59.4200 693.0000 1.0000
59.4300 691.0000 1.0000
59.4400 710.0000 1.0000
59.4500 704.0000 1.0000
59.4600 675.0000 1.0000
59.4700 730.0000 1.0000
59.4800 701.0000 1.0000
59.4900 697.0000 1.0000
59.5000 725.0000 1.0000
59.5100 653.0000 1.0000
59.5200 667.0000 1.0000
59.5300 691.0000 1.0000
59.5400 682.0000 1.0000
59.5500 688.0000 1.0000
59.5600 652.0000 1.0000
59.5700 687.0000 1.0000
59.5800 703.0000 1.0000
59.5900 706.0000 1.0000
59.6000 709.0000 1.0000
59.6100 697.0000 1.0000
59.6200 709.0000 1.0000
59.6300 681.0000 1.0000
59.6400 697.0000 1.0000
59.6500 668.0000 1.0000
59.6600 682.0000 1.0000
59.6700 678.0000 1.0000
59.6800 648.0000 1.0000
59.6900 711.0000 1.0000
59.7000 674.0000 1.0000
59.7100 692.0000 1.0000
59.7200 693.0000 1.0000
59.7300 708.0000 1.0000
59.7400 691.0000 1.0000
59.7500 711.0000 1.0000
59.7600 668.0000 1.0000
59.7700 725.0000 1.0000
59.7800 695.0000 1.0000
59.7900 678.0000 1.0000
59.8000 654.0000 1.0000
59.8100 668.0000 1.0000
59.8200 723.0000 1.0000
59.8300 701.0000 1.0000
59.8400 725.0000 1.0000
59.8500 710.0000 1.0000
59.8600 696.0000 1.0000
59.8700 708.0000 1.0000
59.8800 690.0000 1.0000
59.8900 673.0000 1.0000
59.9000 687.0000 1.0000
59.9100 677.0000 1.0000
59.9200 702.0000 1.0000
59.9300 689.0000 1.0000
59.9400 701.0000 1.0000
59.9500 674.0000 1.0000
59.9600 672.0000 1.0000
59.9700 675.0000 1.0000
59.9800 731.0000 1.0000
59.9900 722.0000 1.0000
60.0000 683.0000 1.0000
60.0100 691.0000 1.0000
60.0200 696.0000 1.0000
60.0300 638.0000 1.0000
60.0400 728.0000 1.0000
60.0500 678.0000 1.0000
60.0600 651.0000 1.0000
60.0700 714.0000 1.0000
60.0800 694.0000 1.0000
60.0900 715.0000 1.0000
60.1000 710.0000 1.0000
60.1100 710.0000 1.0000
60.1200 686.0000 1.0000
60.1300 655.0000 1.0000
60.1400 696.0000 1.0000
60.1500 669.0000 1.0000
60.1600 714.0000 1.0000
60.1700 695.0000 1.0000
60.1800 668.0000 1.0000
60.1900 725.0000 1.0000
60.2000 667.0000 1.0000
60.2100 651.0000 1.0000
60.2200 696.0000 1.0000
60.2300 682.0000 1.0000
60.2400 677.0000 1.0000
60.2500 715.0000 1.0000
60.2600 703.0000 1.0000
60.2700 691.0000 1.0000
60.2800 729.0000 1.0000
60.2900 699.0000 1.0000
60.3000 687.0000 1.0000
60.3100 705.0000 1.0000
60.3200 693.0000 1.0000
60.3300 672.0000 1.0000
60.3400 661.0000 1.0000
60.3500 686.0000 1.0000
60.3600 652.0000 1.0000
60.3700 679.0000 1.0000
60.3800 702.0000 1.0000
60.3900 712.0000 1.0000
60.4000 683.0000 1.0000
60.4100 713.0000 1.0000
60.4200 696.0000 1.0000
60.4300 710.0000 1.0000
60.4400 694.0000 1.0000
60.4500 667.0000 1.0000
60.4600 687.0000 1.0000
60.4700 688.0000 1.0000
60.4800 702.0000 1.0000
60.4900 670.0000 1.0000
60.5000 642.0000 1.0000
60.5100 661.0000 1.0000
60.5200 676.0000 1.0000
60.5300 699.0000 1.0000
60.5400 729.0000 1.0000
60.5500 733.0000 1.0000
60.5600 695.0000 1.0000
60.5700 698.0000 1.0000
60.5800 714.0000 1.0000
60.5900 690.0000 1.0000
60.6000 705.0000 1.0000
60.6100 741.0000 1.0000
60.6200 654.0000 1.0000
60.6300 677.0000 1.0000
60.6400 678.0000 1.0000
60.6500 743.0000 1.0000
60.6600 702.0000 1.0000
60.6700 674.0000 1.0000
60.6800 689.0000 1.0000
60.6900 713.0000 1.0000
60.7000 719.0000 1.0000
60.7100 714.0000 1.0000
60.7200 707.0000 1.0000
60.7300 696.0000 1.0000
60.7400 698.0000 1.0000
60.7500 693.0000 1.0000
60.7600 680.0000 1.0000
60.7700 706.0000 1.0000
60.7800 688.0000 1.0000
60.7900 708.0000 1.0000
60.8000 698.0000 1.0000
60.8100 691.0000 1.0000
60.8200 690.0000 1.0000
60.8300 721.0000 1.0000
60.8400 661.0000 1.0000
60.8500 700.0000 1.0000
60.8600 679.0000 1.0000
60.8700 705.0000 1.0000
60.8800 693.0000 1.0000
60.8900 685.0000 1.0000
60.9000 689.0000 1.0000
60.9100 708.0000 1.0000
60.9200 704.0000 1.0000
60.9300 663.0000 1.0000
60.9400 727.0000 1.0000
60.9500 683.0000 1.0000
60.9600 693.0000 1.0000
60.9700 746.0000 1.0000
60.9800 714.0000 1.0000
60.9900 690.0000 1.0000
61.0000 695.0000 1.0000
61.0100 708.0000 1.0000
61.0200 672.0000 1.0000
61.0300 675.0000 1.0000
61.0400 702.0000 1.0000
61.0500 682.0000 1.0000
61.0600 707.0000 1.0000
61.0700 680.0000 1.0000
61.0800 680.0000 1.0000
61.0900 731.0000 1.0000
61.1000 705.0000 1.0000
61.1100 692.0000 1.0000
61.1200 695.0000 1.0000
61.1300 686.0000 1.0000
61.1400 761.0000 1.0000
61.1500 705.0000 1.0000
61.1600 684.0000 1.0000
61.1700 705.0000 1.0000
61.1800 721.0000 1.0000
61.1900 726.0000 1.0000
61.2000 685.0000 1.0000
61.2100 696.0000 1.0000
61.2200 712.0000 1.0000
61.2300 729.0000 1.0000
61.2400 687.0000 1.0000
61.2500 728.0000 1.0000
61.2600 696.0000 1.0000
61.2700 715.0000 1.0000
61.2800 687.0000 1.0000
61.2900 710.0000 1.0000
61.3000 744.0000 1.0000
61.3100 687.0000 1.0000
61.3200 713.0000 1.0000
61.3300 766.0000 1.0000
61.3400 715.0000 1.0000
61.3500 731.0000 1.0000
61.3600 736.0000 1.0000
61.3700 748.0000 1.0000
61.3800 735.0000 1.0000
61.3900 729.0000 1.0000
61.4000 692.0000 1.0000
61.4100 713.0000 1.0000
61.4200 735.0000 1.0000
61.4300 727.0000 1.0000
61.4400 742.0000 1.0000
61.4500 700.0000 1.0000
61.4600 695.0000 1.0000
61.4700 708.0000 1.0000
61.4800 715.0000 1.0000
61.4900 707.0000 1.0000
61.5000 793.0000 1.0000
61.5100 734.0000 1.0000
61.5200 734.0000 1.0000
61.5300 741.0000 1.0000
61.5400 715.0000 1.0000
61.5500 727.0000 1.0000
61.5600 726.0000 1.0000
61.5700 729.0000 1.0000
61.5800 752.0000 1.0000
61.5900 730.0000 1.0000
61.6000 757.0000 1.0000
61.6100 709.0000 1.0000
61.6200 677.0000 1.0000
61.6300 739.0000 1.0000
61.6400 741.0000 1.0000
61.6500 751.0000 1.0000
61.6600 711.0000 1.0000
61.6700 761.0000 1.0000
61.6800 746.0000 1.0000
61.6900 741.0000 1.0000
61.7000 752.0000 1.0000
61.7100 768.0000 1.0000
61.7200 746.0000 1.0000
61.7300 764.0000 1.0000
61.7400 743.0000 1.0000
61.7500 790.0000 1.0000
61.7600 773.0000 1.0000
61.7700 787.0000 1.0000
61.7800 798.0000 1.0000
61.7900 784.0000 1.0000
61.8000 815.0000 1.0000
61.8100 818.0000 1.0000
61.8200 812.0000 1.0000
61.8300 785.0000 1.0000
61.8400 802.0000 1.0000
61.8500 823.0000 1.0000
61.8600 785.0000 1.0000
61.8700 848.0000 1.0000
61.8800 866.0000 1.0000
61.8900 787.0000 1.0000
61.9000 840.0000 1.0000
61.9100 846.0000 1.0000
61.9200 869.0000 1.0000
61.9300 892.0000 1.0000
61.9400 939.0000 1.0000
61.9500 927.0000 1.0000
61.9600 910.0000 1.0000
61.9700 933.0000 1.0000
61.9800 974.0000 1.0000
61.9900 956.0000 1.0000
62.0000 962.0000 1.0000
62.0100 1053.0000 1.0000
62.0200 1031.0000 1.0000
62.0300 1072.0000 1.0000
62.0400 1106.0000 1.0000
62.0500 1096.0000 1.0000
62.0600 1106.0000 1.0000
62.0700 1140.0000 1.0000
62.0800 1180.0000 1.0000
62.0900 1220.0000 1.0000
62.1000 1234.0000 1.0000
62.1100 1291.0000 1.0000
62.1200 1370.0000 1.0000
62.1300 1418.0000 1.0000
62.1400 1455.0000 1.0000
62.1500 1526.0000 1.0000
62.1600 1550.0000 1.0000
62.1700 1580.0000 1.0000
62.1800 1628.0000 1.0000
62.1900 1706.0000 1.0000
62.2000 1744.0000 1.0000
62.2100 1702.0000 1.0000
62.2200 1770.0000 1.0000
62.2300 1739.0000 1.0000
62.2400 1727.0000 1.0000
62.2500 1784.0000 1.0000
62.2600 1778.0000 1.0000
62.2700 1846.0000 1.0000
62.2800 1780.0000 1.0000
62.2900 1797.0000 1.0000
62.3000 1755.0000 1.0000
62.3100 1825.0000 1.0000
62.3200 1785.0000 1.0000
62.3300 1788.0000 1.0000
62.3400 1716.0000 1.0000
62.3500 1713.0000 1.0000
62.3600 1739.0000 1.0000
62.3700 1713.0000 1.0000
62.3800 1686.0000 1.0000
62.3900 1669.0000 1.0000
62.4000 1628.0000 1.0000
62.4100 1607.0000 1.0000
62.4200 1605.0000 1.0000
62.4300 1574.0000 1.0000
62.4400 1508.0000 1.0000
62.4500 1502.0000 1.0000
62.4600 1418.0000 1.0000
62.4700 1345.0000 1.0000
62.4800 1336.0000 1.0000
62.4900 1377.0000 1.0000
62.5000 1338.0000 1.0000
62.5100 1277.0000 1.0000
62.5200 1272.0000 1.0000
62.5300 1203.0000 1.0000
62.5400 1215.0000 1.0000
62.5500 1168.0000 1.0000
62.5600 1146.0000 1.0000
62.5700 1082.0000 1.0000
62.5800 1110.0000 1.0000
62.5900 1090.0000 1.0000
62.6000 1096.0000 1.0000
62.6100 1112.0000 1.0000
62.6200 990.0000 1.0000
62.6300 1007.0000 1.0000
62.6400 1022.0000 1.0000
62.6500 979.0000 1.0000
62.6600 961.0000 1.0000
62.6700 948.0000 1.0000
62.6800 900.0000 1.0000
62.6900 945.0000 1.0000
62.7000 892.0000 1.0000
62.7100 902.0000 1.0000
62.7200 907.0000 1.0000
62.7300 898.0000 1.0000
62.7400 886.0000 1.0000
62.7500 876.0000 1.0000
62.7600 849.0000 1.0000
62.7700 854.0000 1.0000
62.7800 808.0000 1.0000
62.7900 789.0000 1.0000
62.8000 849.0000 1.0000
62.8100 817.0000 1.0000
62.8200 841.0000 1.0000
62.8300 867.0000 1.0000
62.8400 813.0000 1.0000
62.8500 815.0000 1.0000
62.8600 799.0000 1.0000
62.8700 803.0000 1.0000
62.8800 804.0000 1.0000
62.8900 794.0000 1.0000
62.9000 799.0000 1.0000
62.9100 821.0000 1.0000
62.9200 751.0000 1.0000
62.9300 811.0000 1.0000
62.9400 813.0000 1.0000
62.9500 787.0000 1.0000
62.9600 812.0000 1.0000
62.9700 728.0000 1.0000
62.9800 738.0000 1.0000
62.9900 778.0000 1.0000
63.0000 801.0000 1.0000
63.0100 760.0000 1.0000
63.0200 700.0000 1.0000
63.0300 783.0000 1.0000
63.0400 779.0000 1.0000
63.0500 777.0000 1.0000
63.0600 772.0000 1.0000
63.0700 809.0000 1.0000
63.0800 789.0000 1.0000
63.0900 733.0000 1.0000
63.1000 760.0000 1.0000
63.1100 758.0000 1.0000
63.1200 787.0000 1.0000
63.1300 769.0000 1.0000
63.1400 746.0000 1.0000
63.1500 765.0000 1.0000
63.1600 773.0000 1.0000
63.1700 769.0000 1.0000
63.1800 753.0000 1.0000
63.1900 736.0000 1.0000
63.2000 800.0000 1.0000
63.2100 741.0000 1.0000
63.2200 737.0000 1.0000
63.2300 745.0000 1.0000
63.2400 737.0000 1.0000
63.2500 771.0000 1.0000
63.2600 725.0000 1.0000
63.2700 743.0000 1.0000
63.2800 739.0000 1.0000
63.2900 698.0000 1.0000
63.3000 728.0000 1.0000
63.3100 691.0000 1.0000
63.3200 715.0000 1.0000
63.3300 720.0000 1.0000
63.3400 737.0000 1.0000
63.3500 743.0000 1.0000
63.3600 722.0000 1.0000
63.3700 757.0000 1.0000
63.3800 735.0000 1.0000
63.3900 715.0000 1.0000
63.4000 700.0000 1.0000
63.4100 707.0000 1.0000
63.4200 705.0000 1.0000
63.4300 740.0000 1.0000
63.4400 693.0000 1.0000
63.4500 685.0000 1.0000
63.4600 713.0000 1.0000
63.4700 721.0000 1.0000
63.4800 736.0000 1.0000
63.4900 723.0000 1.0000
63.5000 707.0000 1.0000
63.5100 725.0000 1.0000
63.5200 697.0000 1.0000
63.5300 684.0000 1.0000
63.5400 704.0000 1.0000
63.5500 699.0000 1.0000
63.5600 730.0000 1.0000
63.5700 693.0000 1.0000
63.5800 673.0000 1.0000
63.5900 695.0000 1.0000
63.6000 705.0000 1.0000
63.6100 695.0000 1.0000
63.6200 688.0000 1.0000
63.6300 707.0000 1.0000
63.6400 705.0000 1.0000
63.6500 665.0000 1.0000
63.6600 689.0000 1.0000
63.6700 715.0000 1.0000
63.6800 702.0000 1.0000
63.6900 691.0000 1.0000
63.7000 726.0000 1.0000
63.7100 657.0000 1.0000
63.7200 669.0000 1.0000
63.7300 685.0000 1.0000
63.7400 693.0000 1.0000
63.7500 702.0000 1.0000
63.7600 717.0000 1.0000
63.7700 716.0000 1.0000
63.7800 674.0000 1.0000
63.7900 742.0000 1.0000
63.8000 693.0000 1.0000
63.8100 705.0000 1.0000
63.8200 695.0000 1.0000
63.8300 699.0000 1.0000
63.8400 708.0000 1.0000
63.8500 724.0000 1.0000
63.8600 698.0000 1.0000
63.8700 715.0000 1.0000
63.8800 743.0000 1.0000
63.8900 738.0000 1.0000
63.9000 736.0000 1.0000
63.9100 695.0000 1.0000
63.9200 740.0000 1.0000
63.9300 736.0000 1.0000
63.9400 730.0000 1.0000
63.9500 699.0000 1.0000
63.9600 698.0000 1.0000
63.9700 687.0000 1.0000
63.9800 705.0000 1.0000
63.9900 704.0000 1.0000
64.0000 732.0000 1.0000
64.0100 685.0000 1.0000
64.0200 676.0000 1.0000
64.0300 704.0000 1.0000
64.0400 740.0000 1.0000
64.0500 739.0000 1.0000
64.0600 694.0000 1.0000
64.0700 664.0000 1.0000
64.0800 737.0000 1.0000
64.0900 682.0000 1.0000
64.1000 703.0000 1.0000
64.1100 697.0000 1.0000
64.1200 701.0000 1.0000
64.1300 707.0000 1.0000
64.1400 690.0000 1.0000
64.1500 690.0000 1.0000
64.1600 677.0000 1.0000
64.1700 735.0000 1.0000
64.1800 769.0000 1.0000
64.1900 714.0000 1.0000
64.2000 695.0000 1.0000
64.2100 763.0000 1.0000
64.2200 700.0000 1.0000
64.2300 698.0000 1.0000
64.2400 740.0000 1.0000
64.2500 701.0000 1.0000
64.2600 706.0000 1.0000
64.2700 683.0000 1.0000
64.2800 759.0000 1.0000
64.2900 693.0000 1.0000
64.3000 705.0000 1.0000
64.3100 698.0000 1.0000
64.3200 729.0000 1.0000
64.3300 727.0000 1.0000
64.3400 724.0000 1.0000
64.3500 728.0000 1.0000
64.3600 691.0000 1.0000
64.3700 726.0000 1.0000
64.3800 726.0000 1.0000
64.3900 748.0000 1.0000
64.4000 712.0000 1.0000
64.4100 757.0000 1.0000
64.4200 748.0000 1.0000
64.4300 726.0000 1.0000
64.4400 747.0000 1.0000
64.4500 702.0000 1.0000
64.4600 697.0000 1.0000
64.4700 757.0000 1.0000
64.4800 737.0000 1.0000
64.4900 765.0000 1.0000
64.5000 744.0000 1.0000
64.5100 762.0000 1.0000
64.5200 747.0000 1.0000
64.5300 795.0000 1.0000
64.5400 735.0000 1.0000
64.5500 730.0000 1.0000
64.5600 833.0000 1.0000
64.5700 816.0000 1.0000
64.5800 774.0000 1.0000
64.5900 764.0000 1.0000
64.6000 781.0000 1.0000
64.6100 778.0000 1.0000
64.6200 801.0000 1.0000
64.6300 792.0000 1.0000
64.6400 796.0000 1.0000
64.6500 786.0000 1.0000
64.6600 814.0000 1.0000
64.6700 816.0000 1.0000
64.6800 807.0000 1.0000
64.6900 785.0000 1.0000
64.7000 791.0000 1.0000
64.7100 814.0000 1.0000
64.7200 837.0000 1.0000
64.7300 825.0000 1.0000
64.7400 802.0000 1.0000
64.7500 807.0000 1.0000
64.7600 797.0000 1.0000
64.7700 812.0000 1.0000
64.7800 808.0000 1.0000
64.7900 766.0000 1.0000
64.8000 774.0000 1.0000
64.8100 764.0000 1.0000
64.8200 816.0000 1.0000
64.8300 818.0000 1.0000
64.8400 806.0000 1.0000
64.8500 822.0000 1.0000
64.8600 808.0000 1.0000
64.8700 806.0000 1.0000
64.8800 814.0000 1.0000
64.8900 759.0000 1.0000
64.9000 742.0000 1.0000
64.9100 750.0000 1.0000
64.9200 825.0000 1.0000
64.9300 803.0000 1.0000
64.9400 782.0000 1.0000
64.9500 826.0000 1.0000
64.9600 757.0000 1.0000
64.9700 743.0000 1.0000
64.9800 778.0000 1.0000
64.9900 725.0000 1.0000
65.0000 751.0000 1.0000
65.0100 747.0000 1.0000
65.0200 759.0000 1.0000
65.0300 792.0000 1.0000
65.0400 761.0000 1.0000
65.0500 738.0000 1.0000
65.0600 756.0000 1.0000
65.0700 756.0000 1.0000
65.0800 729.0000 1.0000
65.0900 763.0000 1.0000
65.1000 730.0000 1.0000
65.1100 751.0000 1.0000
65.1200 762.0000 1.0000
65.1300 779.0000 1.0000
65.1400 843.0000 1.0000
65.1500 749.0000 1.0000
65.1600 698.0000 1.0000
65.1700 763.0000 1.0000
65.1800 778.0000 1.0000
65.1900 746.0000 1.0000
65.2000 722.0000 1.0000
65.2100 707.0000 1.0000
65.2200 714.0000 1.0000
65.2300 749.0000 1.0000
65.2400 748.0000 1.0000
65.2500 704.0000 1.0000
65.2600 747.0000 1.0000
65.2700 727.0000 1.0000
65.2800 736.0000 1.0000
65.2900 720.0000 1.0000
65.3000 734.0000 1.0000
65.3100 721.0000 1.0000
65.3200 725.0000 1.0000
65.3300 725.0000 1.0000
65.3400 769.0000 1.0000
65.3500 747.0000 1.0000
65.3600 711.0000 1.0000
65.3700 750.0000 1.0000
65.3800 726.0000 1.0000
65.3900 703.0000 1.0000
65.4000 760.0000 1.0000
65.4100 726.0000 1.0000
65.4200 684.0000 1.0000
65.4300 710.0000 1.0000
65.4400 737.0000 1.0000
65.4500 725.0000 1.0000
65.4600 724.0000 1.0000
65.4700 748.0000 1.0000
65.4800 801.0000 1.0000
65.4900 779.0000 1.0000
65.5000 728.0000 1.0000
65.5100 731.0000 1.0000
65.5200 733.0000 1.0000
65.5300 758.0000 1.0000
65.5400 715.0000 1.0000
65.5500 726.0000 1.0000
65.5600 728.0000 1.0000
65.5700 738.0000 1.0000
65.5800 755.0000 1.0000
65.5900 688.0000 1.0000
65.6000 763.0000 1.0000
65.6100 798.0000 1.0000
65.6200 769.0000 1.0000
65.6300 741.0000 1.0000
65.6400 740.0000 1.0000
65.6500 757.0000 1.0000
65.6600 777.0000 1.0000
65.6700 801.0000 1.0000
65.6800 746.0000 1.0000
65.6900 775.0000 1.0000
65.7000 807.0000 1.0000
65.7100 773.0000 1.0000
65.7200 741.0000 1.0000
65.7300 817.0000 1.0000
65.7400 825.0000 1.0000
65.7500 850.0000 1.0000
65.7600 844.0000 1.0000
65.7700 849.0000 1.0000
65.7800 823.0000 1.0000
65.7900 837.0000 1.0000
65.8000 848.0000 1.0000
65.8100 852.0000 1.0000
65.8200 843.0000 1.0000
65.8300 863.0000 1.0000
65.8400 922.0000 1.0000
65.8500 886.0000 1.0000
65.8600 880.0000 1.0000
65.8700 901.0000 1.0000
65.8800 923.0000 1.0000
65.8900 904.0000 1.0000
65.9000 968.0000 1.0000
65.9100 1000.0000 1.0000
65.9200 980.0000 1.0000
65.9300 1028.0000 1.0000
65.9400 1063.0000 1.0000
65.9500 1051.0000 1.0000
65.9600 1112.0000 1.0000
65.9700 1170.0000 1.0000
65.9800 1096.0000 1.0000
65.9900 1184.0000 1.0000
66.0000 1183.0000 1.0000
66.0100 1219.0000 1.0000
66.0200 1268.0000 1.0000
66.0300 1349.0000 1.0000
66.0400 1411.0000 1.0000
66.0500 1475.0000 1.0000
66.0600 1581.0000 1.0000
66.0700 1619.0000 1.0000
66.0800 1699.0000 1.0000
66.0900 1778.0000 1.0000
66.1000 1854.0000 1.0000
66.1100 1989.0000 1.0000
66.1200 2039.0000 1.0000
66.1300 2167.0000 1.0000
66.1400 2370.0000 1.0000
66.1500 2512.0000 1.0000
66.1600 2571.0000 1.0000
66.1700 2605.0000 1.0000
66.1800 2795.0000 1.0000
66.1900 2825.0000 1.0000
66.2000 2925.0000 1.0000
66.2100 2970.0000 1.0000
66.2200 2880.0000 1.0000
66.2300 2899.0000 1.0000
66.2400 2907.0000 1.0000
66.2500 2819.0000 1.0000
66.2600 2666.0000 1.0000
66.2700 2767.0000 1.0000
66.2800 2726.0000 1.0000
66.2900 2611.0000 1.0000
66.3000 2616.0000 1.0000
66.3100 2556.0000 1.0000
66.3200 2439.0000 1.0000
66.3300 2504.0000 1.0000
66.3400 2526.0000 1.0000
66.3500 2362.0000 1.0000
66.3600 2370.0000 1.0000
66.3700 2438.0000 1.0000
66.3800 2356.0000 1.0000
66.3900 2358.0000 1.0000
66.4000 2293.0000 1.0000
66.4100 2187.0000 1.0000
66.4200 2172.0000 1.0000
66.4300 2046.0000 1.0000
66.4400 1932.0000 1.0000
66.4500 1971.0000 1.0000
66.4600 1831.0000 1.0000
66.4700 1795.0000 1.0000
66.4800 1677.0000 1.0000
66.4900 1659.0000 1.0000
66.5000 1493.0000 1.0000
66.5100 1467.0000 1.0000
66.5200 1413.0000 1.0000
66.5300 1325.0000 1.0000
66.5400 1312.0000 1.0000
66.5500 1316.0000 1.0000
66.5600 1287.0000 1.0000
66.5700 1229.0000 1.0000
66.5800 1151.0000 1.0000
66.5900 1161.0000 1.0000
66.6000 1169.0000 1.0000
66.6100 1132.0000 1.0000
66.6200 1052.0000 1.0000
66.6300 1021.0000 1.0000
66.6400 982.0000 1.0000
66.6500 982.0000 1.0000
66.6600 971.0000 1.0000
66.6700 994.0000 1.0000
66.6800 937.0000 1.0000
66.6900 970.0000 1.0000
66.7000 907.0000 1.0000
66.7100 873.0000 1.0000
66.7200 839.0000 1.0000
66.7300 919.0000 1.0000
66.7400 881.0000 1.0000
66.7500 871.0000 1.0000
66.7600 818.0000 1.0000
66.7700 860.0000 1.0000
66.7800 868.0000 1.0000
66.7900 797.0000 1.0000
66.8000 757.0000 1.0000
66.8100 767.0000 1.0000
66.8200 771.0000 1.0000
66.8300 782.0000 1.0000
66.8400 782.0000 1.0000
66.8500 728.0000 1.0000
66.8600 743.0000 1.0000
66.8700 754.0000 1.0000
66.8800 778.0000 1.0000
66.8900 789.0000 1.0000
66.9000 766.0000 1.0000
66.9100 724.0000 1.0000
66.9200 735.0000 1.0000
66.9300 759.0000 1.0000
66.9400 741.0000 1.0000
66.9500 702.0000 1.0000
66.9600 708.0000 1.0000
66.9700 749.0000 1.0000
66.9800 713.0000 1.0000
66.9900 713.0000 1.0000
67.0000 758.0000 1.0000
67.0100 727.0000 1.0000
67.0200 711.0000 1.0000
67.0300 735.0000 1.0000
67.0400 729.0000 1.0000
67.0500 713.0000 1.0000
67.0600 727.0000 1.0000
67.0700 692.0000 1.0000
67.0800 682.0000 1.0000
67.0900 717.0000 1.0000
67.1000 728.0000 1.0000
67.1100 738.0000 1.0000
67.1200 697.0000 1.0000
67.1300 696.0000 1.0000
67.1400 704.0000 1.0000
67.1500 719.0000 1.0000
67.1600 688.0000 1.0000
67.1700 690.0000 1.0000
67.1800 690.0000 1.0000
67.1900 718.0000 1.0000
67.2000 714.0000 1.0000
67.2100 682.0000 1.0000
67.2200 615.0000 1.0000
67.2300 663.0000 1.0000
67.2400 719.0000 1.0000
67.2500 662.0000 1.0000
67.2600 672.0000 1.0000
67.2700 631.0000 1.0000
67.2800 681.0000 1.0000
67.2900 671.0000 1.0000
67.3000 687.0000 1.0000
67.3100 677.0000 1.0000
67.3200 686.0000 1.0000
67.3300 676.0000 1.0000
67.3400 652.0000 1.0000
67.3500 710.0000 1.0000
67.3600 661.0000 1.0000
67.3700 675.0000 1.0000
67.3800 682.0000 1.0000
67.3900 665.0000 1.0000
67.4000 676.0000 1.0000
67.4100 629.0000 1.0000
67.4200 650.0000 1.0000
67.4300 656.0000 1.0000
67.4400 691.0000 1.0000
67.4500 646.0000 1.0000
67.4600 660.0000 1.0000
67.4700 668.0000 1.0000
67.4800 649.0000 1.0000
67.4900 653.0000 1.0000
67.5000 637.0000 1.0000
67.5100 674.0000 1.0000
67.5200 650.0000 1.0000
67.5300 638.0000 1.0000
67.5400 633.0000 1.0000
67.5500 639.0000 1.0000
67.5600 665.0000 1.0000
67.5700 668.0000 1.0000
67.5800 676.0000 1.0000
67.5900 707.0000 1.0000
67.6000 668.0000 1.0000
67.6100 682.0000 1.0000
67.6200 626.0000 1.0000
67.6300 670.0000 1.0000
67.6400 635.0000 1.0000
67.6500 670.0000 1.0000
67.6600 660.0000 1.0000
67.6700 640.0000 1.0000
67.6800 661.0000 1.0000
67.6900 676.0000 1.0000
67.7000 647.0000 1.0000
67.7100 591.0000 1.0000
67.7200 602.0000 1.0000
67.7300 670.0000 1.0000
67.7400 637.0000 1.0000
67.7500 620.0000 1.0000
67.7600 606.0000 1.0000
67.7700 633.0000 1.0000
67.7800 712.0000 1.0000
67.7900 603.0000 1.0000
67.8000 664.0000 1.0000
67.8100 650.0000 1.0000
67.8200 648.0000 1.0000
67.8300 650.0000 1.0000
67.8400 647.0000 1.0000
67.8500 636.0000 1.0000
67.8600 658.0000 1.0000
67.8700 675.0000 1.0000
67.8800 665.0000 1.0000
67.8900 662.0000 1.0000
67.9000 626.0000 1.0000
67.9100 644.0000 1.0000
67.9200 644.0000 1.0000
67.9300 642.0000 1.0000
67.9400 621.0000 1.0000
67.9500 633.0000 1.0000
67.9600 652.0000 1.0000
67.9700 667.0000 1.0000
67.9800 659.0000 1.0000
67.9900 673.0000 1.0000
68.0000 652.0000 1.0000
68.0100 673.0000 1.0000
68.0200 611.0000 1.0000
68.0300 678.0000 1.0000
68.0400 646.0000 1.0000
68.0500 643.0000 1.0000
68.0600 626.0000 1.0000
68.0700 627.0000 1.0000
68.0800 625.0000 1.0000
68.0900 645.0000 1.0000
68.1000 644.0000 1.0000
68.1100 615.0000 1.0000
68.1200 662.0000 1.0000
68.1300 654.0000 1.0000
68.1400 629.0000 1.0000
68.1500 623.0000 1.0000
68.1600 629.0000 1.0000
68.1700 652.0000 1.0000
68.1800 625.0000 1.0000
68.1900 634.0000 1.0000
68.2000 644.0000 1.0000
68.2100 652.0000 1.0000
68.2200 604.0000 1.0000
68.2300 613.0000 1.0000
68.2400 664.0000 1.0000
68.2500 623.0000 1.0000
68.2600 651.0000 1.0000
68.2700 641.0000 1.0000
68.2800 626.0000 1.0000
68.2900 635.0000 1.0000
68.3000 635.0000 1.0000
68.3100 660.0000 1.0000
68.3200 628.0000 1.0000
68.3300 650.0000 1.0000
68.3400 630.0000 1.0000
68.3500 657.0000 1.0000
68.3600 648.0000 1.0000
68.3700 665.0000 1.0000
68.3800 658.0000 1.0000
68.3900 634.0000 1.0000
68.4000 644.0000 1.0000
68.4100 619.0000 1.0000
68.4200 594.0000 1.0000
68.4300 638.0000 1.0000
68.4400 654.0000 1.0000
68.4500 606.0000 1.0000
68.4600 604.0000 1.0000
68.4700 615.0000 1.0000
68.4800 609.0000 1.0000
68.4900 568.0000 1.0000
68.5000 648.0000 1.0000
68.5100 640.0000 1.0000
68.5200 573.0000 1.0000
68.5300 603.0000 1.0000
68.5400 627.0000 1.0000
68.5500 637.0000 1.0000
68.5600 608.0000 1.0000
68.5700 615.0000 1.0000
68.5800 639.0000 1.0000
68.5900 642.0000 1.0000
68.6000 635.0000 1.0000
68.6100 652.0000 1.0000
68.6200 610.0000 1.0000
68.6300 630.0000 1.0000
68.6400 638.0000 1.0000
68.6500 640.0000 1.0000
68.6600 606.0000 1.0000
68.6700 608.0000 1.0000
68.6800 644.0000 1.0000
68.6900 624.0000 1.0000
68.7000 645.0000 1.0000
68.7100 597.0000 1.0000
68.7200 617.0000 1.0000
68.7300 615.0000 1.0000
68.7400 606.0000 1.0000
68.7500 619.0000 1.0000
68.7600 602.0000 1.0000
68.7700 626.0000 1.0000
68.7800 653.0000 1.0000
68.7900 628.0000 1.0000
68.8000 634.0000 1.0000
68.8100 603.0000 1.0000
68.8200 602.0000 1.0000
68.8300 621.0000 1.0000
68.8400 613.0000 1.0000
68.8500 593.0000 1.0000
68.8600 584.0000 1.0000
68.8700 637.0000 1.0000
68.8800 617.0000 1.0000
68.8900 655.0000 1.0000
68.9000 629.0000 1.0000
68.9100 619.0000 1.0000
68.9200 628.0000 1.0000
68.9300 589.0000 1.0000
68.9400 588.0000 1.0000
68.9500 632.0000 1.0000
68.9600 581.0000 1.0000
68.9700 615.0000 1.0000
68.9800 581.0000 1.0000
68.9900 630.0000 1.0000
69.0000 624.0000 1.0000
69.0100 599.0000 1.0000
69.0200 644.0000 1.0000
69.0300 629.0000 1.0000
69.0400 596.0000 1.0000
69.0500 629.0000 1.0000
69.0600 609.0000 1.0000
69.0700 624.0000 1.0000
69.0800 574.0000 1.0000
69.0900 609.0000 1.0000
69.1000 618.0000 1.0000
69.1100 609.0000 1.0000
69.1200 668.0000 1.0000
69.1300 630.0000 1.0000
69.1400 582.0000 1.0000
69.1500 607.0000 1.0000
69.1600 599.0000 1.0000
69.1700 614.0000 1.0000
69.1800 609.0000 1.0000
69.1900 623.0000 1.0000
69.2000 634.0000 1.0000
69.2100 613.0000 1.0000
69.2200 612.0000 1.0000
69.2300 619.0000 1.0000
69.2400 626.0000 1.0000
69.2500 633.0000 1.0000
69.2600 622.0000 1.0000
69.2700 656.0000 1.0000
69.2800 607.0000 1.0000
69.2900 644.0000 1.0000
69.3000 614.0000 1.0000
69.3100 614.0000 1.0000
69.3200 610.0000 1.0000
69.3300 637.0000 1.0000
69.3400 627.0000 1.0000
69.3500 599.0000 1.0000
69.3600 652.0000 1.0000
69.3700 638.0000 1.0000
69.3800 579.0000 1.0000
69.3900 612.0000 1.0000
69.4000 617.0000 1.0000
69.4100 637.0000 1.0000
69.4200 603.0000 1.0000
69.4300 655.0000 1.0000
69.4400 644.0000 1.0000
69.4500 616.0000 1.0000
69.4600 630.0000 1.0000
69.4700 646.0000 1.0000
69.4800 618.0000 1.0000
69.4900 610.0000 1.0000
69.5000 637.0000 1.0000
69.5100 623.0000 1.0000
69.5200 626.0000 1.0000
69.5300 654.0000 1.0000
69.5400 620.0000 1.0000
69.5500 624.0000 1.0000
69.5600 622.0000 1.0000
69.5700 629.0000 1.0000
69.5800 617.0000 1.0000
69.5900 606.0000 1.0000
69.6000 611.0000 1.0000
69.6100 656.0000 1.0000
69.6200 640.0000 1.0000
69.6300 604.0000 1.0000
69.6400 580.0000 1.0000
69.6500 579.0000 1.0000
69.6600 617.0000 1.0000
69.6700 629.0000 1.0000
69.6800 626.0000 1.0000
69.6900 612.0000 1.0000
69.7000 603.0000 1.0000
69.7100 587.0000 1.0000
69.7200 607.0000 1.0000
69.7300 601.0000 1.0000
69.7400 623.0000 1.0000
69.7500 644.0000 1.0000
69.7600 620.0000 1.0000
69.7700 614.0000 1.0000
69.7800 578.0000 1.0000
69.7900 625.0000 1.0000
69.8000 638.0000 1.0000
69.8100 614.0000 1.0000
69.8200 574.0000 1.0000
69.8300 608.0000 1.0000
69.8400 638.0000 1.0000
69.8500 620.0000 1.0000
69.8600 616.0000 1.0000
69.8700 621.0000 1.0000
69.8800 579.0000 1.0000
69.8900 573.0000 1.0000
69.9000 599.0000 1.0000
69.9100 576.0000 1.0000
69.9200 544.0000 1.0000
69.9300 600.0000 1.0000
69.9400 578.0000 1.0000
69.9500 596.0000 1.0000
69.9600 591.0000 1.0000
69.9700 600.0000 1.0000
69.9800 616.0000 1.0000
69.9900 592.0000 1.0000
70.0000 603.0000 1.0000
*RAS_INT_END
*RAS_TEMPERATURE_START
*RAS_TEMPERATURE_END
*RAS_DATA_END
